subj,session,trial,rt,object_response,category,condition,imagename,filename,is_correct,targ_act,max_nontarg_act,decision_margin
bagnet33,1,1,NaN,elephant,oven,16-0-10,0001_eid_dnn_16-0-10_oven_10_n04111531_13542.png,n04111531_13542.png,0.0,0.5389644,6.6347485,-4.3103704
bagnet33,1,2,NaN,truck,car,4-0-10,0002_eid_dnn_4-0-10_car_10_n03100240_5570.png,n03100240_5570.png,0.0,3.377821,4.7668486,-0.98219085
bagnet33,1,3,NaN,elephant,bird,8-0-10,0003_eid_dnn_8-0-10_bird_10_n01820546_4847.png,n01820546_4847.png,0.0,0.49840975,4.699985,-2.9709625
bagnet33,1,4,NaN,elephant,bear,32-0-10,0004_eid_dnn_32-0-10_bear_10_n02133161_15561.png,n02133161_15561.png,0.0,4.324494,5.4814377,-0.8180828
bagnet33,1,5,NaN,elephant,bird,64-0-10,0005_eid_dnn_64-0-10_bird_10_n01531178_9584.png,n01531178_9584.png,0.0,2.6939785,5.181981,-1.7592835
bagnet33,1,6,NaN,bear,bicycle,8-0-10,0006_eid_dnn_8-0-10_bicycle_10_n02835271_18846.png,n02835271_18846.png,0.0,-1.6418471,7.1324043,-6.2043333
bagnet33,1,7,NaN,bottle,oven,4-0-10,0007_eid_dnn_4-0-10_oven_10_n04111531_73.png,n04111531_73.png,0.0,1.9488668,5.723046,-2.6687477
bagnet33,1,8,NaN,dog,clock,2-0-10,0008_eid_dnn_2-0-10_clock_10_n04548280_6159.png,n04548280_6159.png,0.0,2.3019867,2.3195467,-0.012416799
bagnet33,1,9,NaN,elephant,chair,32-0-10,0009_eid_dnn_32-0-10_chair_10_n03376595_9395.png,n03376595_9395.png,0.0,0.4036733,4.8001857,-3.1088037
bagnet33,1,10,NaN,elephant,bicycle,64-0-10,0010_eid_dnn_64-0-10_bicycle_10_n02835271_1918.png,n02835271_1918.png,0.0,-2.4368827,4.283599,-4.7520986
bagnet33,1,11,NaN,elephant,bicycle,128-0-10,0011_eid_dnn_128-0-10_bicycle_10_n02835271_42320.png,n02835271_42320.png,0.0,-2.3301592,6.905159,-6.5303564
bagnet33,1,12,NaN,elephant,elephant,1-0-10,0012_eid_dnn_1-0-10_elephant_10_n02504458_3628.png,n02504458_3628.png,1.0,11.050129,3.1817384,5.563792
bagnet33,1,13,NaN,elephant,knife,64-0-10,0013_eid_dnn_64-0-10_knife_10_n03041632_86554.png,n03041632_86554.png,0.0,-1.01207,5.2818146,-4.4504485
bagnet33,1,14,NaN,cat,cat,8-0-10,0014_eid_dnn_8-0-10_cat_10_n02123394_1726.png,n02123394_1726.png,1.0,1.469921,1.2873175,0.12912016
bagnet33,1,15,NaN,dog,cat,32-0-10,0015_eid_dnn_32-0-10_cat_10_n02123597_6721.png,n02123597_6721.png,0.0,2.875987,3.3874688,-0.36167222
bagnet33,1,16,NaN,bottle,oven,2-0-10,0016_eid_dnn_2-0-10_oven_10_n04111531_21869.png,n04111531_21869.png,0.0,4.345657,5.386199,-0.7357744
bagnet33,1,17,NaN,bear,bear,4-0-10,0017_eid_dnn_4-0-10_bear_10_n02134084_2949.png,n02134084_2949.png,1.0,2.3770523,2.2183928,0.11218918
bagnet33,1,18,NaN,elephant,truck,8-0-10,0018_eid_dnn_8-0-10_truck_10_n03417042_18743.png,n03417042_18743.png,0.0,-1.0412234,3.0291858,-2.8782141
bagnet33,1,19,NaN,elephant,bird,16-0-10,0019_eid_dnn_16-0-10_bird_10_n01616318_4246.png,n01616318_4246.png,0.0,-0.00010904731,2.769301,-1.9582685
bagnet33,1,20,NaN,elephant,bicycle,8-0-10,0020_eid_dnn_8-0-10_bicycle_10_n03792782_66771.png,n03792782_66771.png,0.0,-1.604033,5.590036,-5.086975
bagnet33,1,21,NaN,keyboard,keyboard,2-0-10,0021_eid_dnn_2-0-10_keyboard_10_n04505470_3531.png,n04505470_3531.png,1.0,12.011124,5.204416,4.8130693
bagnet33,1,22,NaN,elephant,clock,8-0-10,0022_eid_dnn_8-0-10_clock_10_n04548280_6463.png,n04548280_6463.png,0.0,0.20589797,5.2797456,-3.5877523
bagnet33,1,23,NaN,cat,keyboard,16-0-10,0023_eid_dnn_16-0-10_keyboard_10_n04505470_4974.png,n04505470_4974.png,0.0,-0.31541306,5.990961,-4.45928
bagnet33,1,24,NaN,bird,chair,4-0-10,0024_eid_dnn_4-0-10_chair_10_n03376595_360.png,n03376595_360.png,0.0,0.32702613,2.274994,-1.3774213
bagnet33,1,25,NaN,elephant,dog,16-0-10,0025_eid_dnn_16-0-10_dog_10_n02097130_2752.png,n02097130_2752.png,0.0,3.6321862,6.372761,-1.937879
bagnet33,1,26,NaN,elephant,bicycle,2-0-10,0026_eid_dnn_2-0-10_bicycle_10_n02835271_3406.png,n02835271_3406.png,0.0,0.1267255,4.4747486,-3.0745165
bagnet33,1,27,NaN,elephant,bottle,16-0-10,0027_eid_dnn_16-0-10_bottle_10_n04560804_11732.png,n04560804_11732.png,0.0,2.5379865,5.689585,-2.2285168
bagnet33,1,28,NaN,elephant,bottle,32-0-10,0028_eid_dnn_32-0-10_bottle_10_n04591713_13589.png,n04591713_13589.png,0.0,-3.3296714,4.862955,-5.793062
bagnet33,1,29,NaN,cat,cat,2-0-10,0029_eid_dnn_2-0-10_cat_10_n02123045_4009.png,n02123045_4009.png,1.0,7.128624,2.5481234,3.238903
bagnet33,1,30,NaN,knife,chair,8-0-10,0030_eid_dnn_8-0-10_chair_10_n02791124_1704.png,n02791124_1704.png,0.0,1.2414356,2.1050167,-0.61064404
bagnet33,1,31,NaN,bear,bicycle,128-0-10,0031_eid_dnn_128-0-10_bicycle_10_n03792782_28395.png,n03792782_28395.png,0.0,-0.8246319,3.6079206,-3.1342878
bagnet33,1,32,NaN,cat,truck,16-0-10,0032_eid_dnn_16-0-10_truck_10_n03417042_4288.png,n03417042_4288.png,0.0,-1.8835827,3.4271958,-3.7552876
bagnet33,1,33,NaN,keyboard,keyboard,1-0-10,0033_eid_dnn_1-0-10_keyboard_10_n04505470_3371.png,n04505470_3371.png,1.0,15.515149,6.7388916,6.2057514
bagnet33,1,34,NaN,cat,cat,1-0-10,0034_eid_dnn_1-0-10_cat_10_n02124075_13436.png,n02124075_13436.png,1.0,7.292849,1.8179348,3.8713493
bagnet33,1,35,NaN,elephant,dog,32-0-10,0035_eid_dnn_32-0-10_dog_10_n02097209_8270.png,n02097209_8270.png,0.0,3.0416024,5.5496144,-1.7734324
bagnet33,1,36,NaN,elephant,clock,128-0-10,0036_eid_dnn_128-0-10_clock_10_n04548280_7795.png,n04548280_7795.png,0.0,-3.051754,4.388638,-5.261152
bagnet33,1,37,NaN,cat,car,32-0-10,0037_eid_dnn_32-0-10_car_10_n03100240_21737.png,n03100240_21737.png,0.0,-2.9161937,2.7068508,-3.976093
bagnet33,1,38,NaN,elephant,clock,128-0-10,0038_eid_dnn_128-0-10_clock_10_n02708093_1862.png,n02708093_1862.png,0.0,-1.9638373,2.1539164,-2.9116914
bagnet33,1,39,NaN,elephant,bicycle,64-0-10,0039_eid_dnn_64-0-10_bicycle_10_n03792782_9412.png,n03792782_9412.png,0.0,-1.8243642,3.0698388,-3.4607244
bagnet33,1,40,NaN,elephant,bear,32-0-10,0040_eid_dnn_32-0-10_bear_10_n02134418_163.png,n02134418_163.png,0.0,1.6059269,2.8586063,-0.8857782
bagnet33,1,41,NaN,cat,keyboard,16-0-10,0041_eid_dnn_16-0-10_keyboard_10_n03085013_25675.png,n03085013_25675.png,0.0,-0.64455223,3.232857,-2.7417424
bagnet33,1,42,NaN,truck,truck,2-0-10,0042_eid_dnn_2-0-10_truck_10_n03417042_1716.png,n03417042_1716.png,1.0,3.97792,2.9973273,0.69338375
bagnet33,1,43,NaN,elephant,keyboard,128-0-10,0043_eid_dnn_128-0-10_keyboard_10_n03085013_18854.png,n03085013_18854.png,0.0,-0.63572216,4.9587846,-3.9559138
bagnet33,1,44,NaN,elephant,bottle,32-0-10,0044_eid_dnn_32-0-10_bottle_10_n04591713_4865.png,n04591713_4865.png,0.0,-2.5282843,6.9158974,-6.678045
bagnet33,1,45,NaN,cat,bicycle,32-0-10,0045_eid_dnn_32-0-10_bicycle_10_n03792782_693.png,n03792782_693.png,0.0,-2.0163674,3.5425942,-3.9307797
bagnet33,1,46,NaN,knife,bottle,1-0-10,0046_eid_dnn_1-0-10_bottle_10_n04557648_264.png,n04557648_264.png,0.0,0.6800084,2.3821654,-1.2036068
bagnet33,1,47,NaN,knife,knife,2-0-10,0047_eid_dnn_2-0-10_knife_10_n03041632_25512.png,n03041632_25512.png,1.0,3.2378945,2.4877563,0.5304279
bagnet33,1,48,NaN,elephant,boat,16-0-10,0048_eid_dnn_16-0-10_boat_10_n03344393_2381.png,n03344393_2381.png,0.0,-1.4049366,3.6112018,-3.5469453
bagnet33,1,49,NaN,cat,dog,128-0-10,0049_eid_dnn_128-0-10_dog_10_n02110627_17670.png,n02110627_17670.png,0.0,0.63031477,4.841068,-2.977452
bagnet33,1,50,NaN,cat,bear,64-0-10,0050_eid_dnn_64-0-10_bear_10_n02133161_15981.png,n02133161_15981.png,0.0,-3.2019515,6.117122,-6.5895805
bagnet33,1,51,NaN,elephant,elephant,16-0-10,0051_eid_dnn_16-0-10_elephant_10_n02504458_3570.png,n02504458_3570.png,1.0,5.125288,3.1067393,1.4273295
bagnet33,1,52,NaN,bottle,truck,4-0-10,0052_eid_dnn_4-0-10_truck_10_n03417042_6241.png,n03417042_6241.png,0.0,0.2574401,4.0077925,-2.6518996
bagnet33,1,53,NaN,bear,bird,8-0-10,0053_eid_dnn_8-0-10_bird_10_n02025239_17670.png,n02025239_17670.png,0.0,-0.16110441,1.5052509,-1.1782912
bagnet33,1,54,NaN,cat,dog,16-0-10,0054_eid_dnn_16-0-10_dog_10_n02106030_19249.png,n02106030_19249.png,0.0,1.9253539,2.4615295,-0.3791334
bagnet33,1,55,NaN,elephant,keyboard,32-0-10,0055_eid_dnn_32-0-10_keyboard_10_n04505470_2326.png,n04505470_2326.png,0.0,-1.8022497,5.2039394,-4.954124
bagnet33,1,56,NaN,elephant,dog,16-0-10,0056_eid_dnn_16-0-10_dog_10_n02107142_9379.png,n02107142_9379.png,0.0,1.6091729,3.8785887,-1.6047194
bagnet33,1,57,NaN,elephant,cat,64-0-10,0057_eid_dnn_64-0-10_cat_10_n02123394_1828.png,n02123394_1828.png,0.0,3.2509995,5.8769608,-1.8568351
bagnet33,1,58,NaN,elephant,car,32-0-10,0058_eid_dnn_32-0-10_car_10_n03100240_4605.png,n03100240_4605.png,0.0,-4.2017198,5.9007645,-7.1435347
bagnet33,1,59,NaN,elephant,bicycle,4-0-10,0059_eid_dnn_4-0-10_bicycle_10_n03792782_6765.png,n03792782_6765.png,0.0,-0.96313524,3.7051644,-3.3009865
bagnet33,1,60,NaN,elephant,boat,8-0-10,0060_eid_dnn_8-0-10_boat_10_n03344393_8455.png,n03344393_8455.png,0.0,-1.4254172,2.5158746,-2.786914
bagnet33,1,61,NaN,cat,oven,16-0-10,0061_eid_dnn_16-0-10_oven_10_n04111531_8603.png,n04111531_8603.png,0.0,0.6418,3.7285461,-2.1826591
bagnet33,1,62,NaN,knife,bird,2-0-10,0062_eid_dnn_2-0-10_bird_10_n02051845_2574.png,n02051845_2574.png,0.0,1.1525979,2.7468116,-1.1272794
bagnet33,1,63,NaN,airplane,boat,4-0-10,0063_eid_dnn_4-0-10_boat_10_n04612504_15875.png,n04612504_15875.png,0.0,1.847532,2.737093,-0.6290146
bagnet33,1,64,NaN,bottle,bottle,4-0-10,0064_eid_dnn_4-0-10_bottle_10_n03983396_7337.png,n03983396_7337.png,1.0,3.148649,2.5704844,0.4088241
bagnet33,1,65,NaN,elephant,clock,8-0-10,0065_eid_dnn_8-0-10_clock_10_n02708093_6822.png,n02708093_6822.png,0.0,-1.6208401,3.503968,-3.6237867
bagnet33,1,66,NaN,bottle,truck,2-0-10,0066_eid_dnn_2-0-10_truck_10_n04467665_15994.png,n04467665_15994.png,0.0,1.2548898,3.221773,-1.3907964
bagnet33,1,67,NaN,cat,cat,128-0-10,0067_eid_dnn_128-0-10_cat_10_n02123597_6291.png,n02123597_6291.png,1.0,3.3120754,2.2830446,0.72763467
bagnet33,1,68,NaN,cat,bird,8-0-10,0068_eid_dnn_8-0-10_bird_10_n01817953_1734.png,n01817953_1734.png,0.0,-0.053383477,3.764859,-2.6999052
bagnet33,1,69,NaN,elephant,elephant,32-0-10,0069_eid_dnn_32-0-10_elephant_10_n02504458_6880.png,n02504458_6880.png,1.0,6.8811483,3.8844385,2.1189938
bagnet33,1,70,NaN,cat,cat,16-0-10,0070_eid_dnn_16-0-10_cat_10_n02123597_13197.png,n02123597_13197.png,1.0,4.4606147,4.229055,0.16373748
bagnet33,1,71,NaN,elephant,bicycle,64-0-10,0071_eid_dnn_64-0-10_bicycle_10_n03792782_973.png,n03792782_973.png,0.0,-3.0021954,4.3819284,-5.221364
bagnet33,1,72,NaN,cat,cat,2-0-10,0072_eid_dnn_2-0-10_cat_10_n02124075_8310.png,n02124075_8310.png,1.0,7.6105227,3.4321184,2.9545782
bagnet33,1,73,NaN,elephant,oven,32-0-10,0073_eid_dnn_32-0-10_oven_10_n04111531_5168.png,n04111531_5168.png,0.0,-0.9015179,5.9775586,-4.8642416
bagnet33,1,74,NaN,airplane,airplane,1-0-10,0074_eid_dnn_1-0-10_airplane_10_n02690373_4893.png,n02690373_4893.png,1.0,12.703634,3.9163585,6.213542
bagnet33,1,75,NaN,dog,dog,1-0-10,0075_eid_dnn_1-0-10_dog_10_n02086240_3614.png,n02086240_3614.png,1.0,4.2724886,2.32544,1.3767713
bagnet33,1,76,NaN,elephant,oven,16-0-10,0076_eid_dnn_16-0-10_oven_10_n04111531_2937.png,n04111531_2937.png,0.0,0.6655353,6.9513726,-4.444758
bagnet33,1,77,NaN,clock,clock,1-0-10,0077_eid_dnn_1-0-10_clock_10_n03196217_2022.png,n03196217_2022.png,1.0,2.7396338,2.6471,0.0654313
bagnet33,1,78,NaN,elephant,bottle,64-0-10,0078_eid_dnn_64-0-10_bottle_10_n04591713_2732.png,n04591713_2732.png,0.0,-2.615151,4.806878,-5.248167
bagnet33,1,79,NaN,bottle,car,2-0-10,0079_eid_dnn_2-0-10_car_10_n03100240_8794.png,n03100240_8794.png,0.0,2.116963,2.8508523,-0.5189381
bagnet33,1,80,NaN,elephant,airplane,16-0-10,0080_eid_dnn_16-0-10_airplane_10_n02690373_3640.png,n02690373_3640.png,0.0,-0.29900998,1.9982319,-1.6243954
bagnet33,1,81,NaN,elephant,bicycle,64-0-10,0081_eid_dnn_64-0-10_bicycle_10_n03792782_41097.png,n03792782_41097.png,0.0,-2.440722,5.576969,-5.6693635
bagnet33,1,82,NaN,elephant,dog,64-0-10,0082_eid_dnn_64-0-10_dog_10_n02090721_6770.png,n02090721_6770.png,0.0,2.0215483,2.9373116,-0.6475425
bagnet33,1,83,NaN,cat,cat,16-0-10,0083_eid_dnn_16-0-10_cat_10_n02123597_28968.png,n02123597_28968.png,1.0,4.436931,4.183903,0.17891777
bagnet33,1,84,NaN,elephant,elephant,1-0-10,0084_eid_dnn_1-0-10_elephant_10_n02504013_5894.png,n02504013_5894.png,1.0,6.5065084,1.6171578,3.4572928
bagnet33,1,85,NaN,elephant,oven,32-0-10,0085_eid_dnn_32-0-10_oven_10_n04111531_9314.png,n04111531_9314.png,0.0,-0.48691174,4.6075454,-3.6023252
bagnet33,1,86,NaN,elephant,elephant,1-0-10,0086_eid_dnn_1-0-10_elephant_10_n02504458_12074.png,n02504458_12074.png,1.0,4.703225,3.3437653,0.9612833
bagnet33,1,87,NaN,bottle,boat,4-0-10,0087_eid_dnn_4-0-10_boat_10_n03344393_3773.png,n03344393_3773.png,0.0,1.5793961,1.9202853,-0.24104507
bagnet33,1,88,NaN,elephant,truck,128-0-10,0088_eid_dnn_128-0-10_truck_10_n04467665_80153.png,n04467665_80153.png,0.0,-3.1593606,3.5485394,-4.7432017
bagnet33,1,89,NaN,cat,chair,128-0-10,0089_eid_dnn_128-0-10_chair_10_n04099969_20604.png,n04099969_20604.png,0.0,0.029152215,1.9954157,-1.3903583
bagnet33,1,90,NaN,elephant,keyboard,32-0-10,0090_eid_dnn_32-0-10_keyboard_10_n03085013_23625.png,n03085013_23625.png,0.0,-2.054504,3.628137,-4.0182343
bagnet33,1,91,NaN,elephant,truck,64-0-10,0091_eid_dnn_64-0-10_truck_10_n03796401_1458.png,n03796401_1458.png,0.0,-1.7118082,4.8387766,-4.631963
bagnet33,1,92,NaN,bottle,car,4-0-10,0092_eid_dnn_4-0-10_car_10_n03100240_18711.png,n03100240_18711.png,0.0,-1.1797973,3.375716,-3.2212346
bagnet33,1,93,NaN,elephant,truck,128-0-10,0093_eid_dnn_128-0-10_truck_10_n03796401_2988.png,n03796401_2988.png,0.0,-3.0358334,4.664689,-5.4450917
bagnet33,1,94,NaN,truck,truck,2-0-10,0094_eid_dnn_2-0-10_truck_10_n03417042_7096.png,n03417042_7096.png,1.0,11.99098,5.0556746,4.9040017
bagnet33,1,95,NaN,cat,dog,8-0-10,0095_eid_dnn_8-0-10_dog_10_n02105855_9345.png,n02105855_9345.png,0.0,3.5400321,4.334231,-0.56158334
bagnet33,1,96,NaN,bear,bird,32-0-10,0096_eid_dnn_32-0-10_bird_10_n01796340_8342.png,n01796340_8342.png,0.0,1.2237599,3.292978,-1.4631582
bagnet33,1,97,NaN,elephant,airplane,8-0-10,0097_eid_dnn_8-0-10_airplane_10_n02690373_7293.png,n02690373_7293.png,0.0,-0.28196532,1.2037628,-1.0505683
bagnet33,1,98,NaN,elephant,car,64-0-10,0098_eid_dnn_64-0-10_car_10_n04285008_9811.png,n04285008_9811.png,0.0,-5.417668,6.3164334,-8.297263
bagnet33,1,99,NaN,elephant,knife,8-0-10,0099_eid_dnn_8-0-10_knife_10_n03041632_86783.png,n03041632_86783.png,0.0,0.40697512,6.163034,-4.070148
bagnet33,1,100,NaN,elephant,oven,16-0-10,0100_eid_dnn_16-0-10_oven_10_n04111531_9867.png,n04111531_9867.png,0.0,1.0305529,5.792351,-3.3670998
bagnet33,1,101,NaN,bear,truck,128-0-10,0101_eid_dnn_128-0-10_truck_10_n04467665_22573.png,n04467665_22573.png,0.0,-2.5179265,3.864952,-4.5133767
bagnet33,1,102,NaN,elephant,car,128-0-10,0102_eid_dnn_128-0-10_car_10_n02814533_23512.png,n02814533_23512.png,0.0,-4.335455,3.6314037,-5.63342
bagnet33,1,103,NaN,elephant,bicycle,16-0-10,0103_eid_dnn_16-0-10_bicycle_10_n03792782_4895.png,n03792782_4895.png,0.0,-2.1158698,9.732643,-8.378163
bagnet33,1,104,NaN,keyboard,keyboard,2-0-10,0104_eid_dnn_2-0-10_keyboard_10_n03085013_23554.png,n03085013_23554.png,1.0,3.978249,2.572289,0.99416393
bagnet33,1,105,NaN,dog,bear,1-0-10,0105_eid_dnn_1-0-10_bear_10_n02134084_8601.png,n02134084_8601.png,0.0,1.5383538,2.7420058,-0.8511105
bagnet33,1,106,NaN,elephant,bicycle,8-0-10,0106_eid_dnn_8-0-10_bicycle_10_n03792782_126.png,n03792782_126.png,0.0,-1.6934482,6.041074,-5.469133
bagnet33,1,107,NaN,chair,chair,1-0-10,0107_eid_dnn_1-0-10_chair_10_n04099969_3583.png,n04099969_3583.png,1.0,6.850126,3.811649,2.1485276
bagnet33,1,108,NaN,elephant,bicycle,8-0-10,0108_eid_dnn_8-0-10_bicycle_10_n02835271_976.png,n02835271_976.png,0.0,-1.9402668,3.24309,-3.665187
bagnet33,1,109,NaN,elephant,oven,32-0-10,0109_eid_dnn_32-0-10_oven_10_n04111531_10313.png,n04111531_10313.png,0.0,0.74654055,5.9208364,-3.6587799
bagnet33,1,110,NaN,oven,oven,1-0-10,0110_eid_dnn_1-0-10_oven_10_n04111531_8984.png,n04111531_8984.png,1.0,11.686233,5.4317164,4.4226108
bagnet33,1,111,NaN,elephant,elephant,8-0-10,0111_eid_dnn_8-0-10_elephant_10_n02504013_3181.png,n02504013_3181.png,1.0,3.2178898,2.4896872,0.514917
bagnet33,1,112,NaN,bird,keyboard,64-0-10,0112_eid_dnn_64-0-10_keyboard_10_n03085013_21490.png,n03085013_21490.png,0.0,-1.0547824,3.1648436,-2.9837263
bagnet33,1,113,NaN,knife,bird,4-0-10,0113_eid_dnn_4-0-10_bird_10_n01614925_2708.png,n01614925_2708.png,0.0,-0.79949385,5.123302,-4.1880493
bagnet33,1,114,NaN,elephant,bottle,16-0-10,0114_eid_dnn_16-0-10_bottle_10_n03983396_3109.png,n03983396_3109.png,0.0,-0.7044305,4.5976872,-3.7491636
bagnet33,1,115,NaN,elephant,bear,128-0-10,0115_eid_dnn_128-0-10_bear_10_n02134418_377.png,n02134418_377.png,0.0,3.4822984,4.5103974,-0.72697586
bagnet33,1,116,NaN,elephant,knife,16-0-10,0116_eid_dnn_16-0-10_knife_10_n03041632_7680.png,n03041632_7680.png,0.0,-0.98394525,4.2215557,-3.6808453
bagnet33,1,117,NaN,bear,truck,4-0-10,0117_eid_dnn_4-0-10_truck_10_n03417042_3807.png,n03417042_3807.png,0.0,1.1279925,3.7884543,-1.8812307
bagnet33,1,118,NaN,cat,elephant,128-0-10,0118_eid_dnn_128-0-10_elephant_10_n02504013_6501.png,n02504013_6501.png,0.0,3.1599312,4.461323,-0.9202228
bagnet33,1,119,NaN,elephant,bicycle,32-0-10,0119_eid_dnn_32-0-10_bicycle_10_n03792782_5517.png,n03792782_5517.png,0.0,-2.350534,5.270123,-5.3886185
bagnet33,1,120,NaN,cat,bottle,128-0-10,0120_eid_dnn_128-0-10_bottle_10_n02823428_5791.png,n02823428_5791.png,0.0,-3.1904862,4.129929,-5.1763153
bagnet33,1,121,NaN,elephant,car,128-0-10,0121_eid_dnn_128-0-10_car_10_n04285008_10144.png,n04285008_10144.png,0.0,-4.1055274,3.6358209,-5.47396
bagnet33,1,122,NaN,cat,cat,4-0-10,0122_eid_dnn_4-0-10_cat_10_n02123159_5764.png,n02123159_5764.png,1.0,5.4875913,3.1362958,1.662617
bagnet33,1,123,NaN,elephant,dog,16-0-10,0123_eid_dnn_16-0-10_dog_10_n02085936_4491.png,n02085936_4491.png,0.0,0.6924691,2.2259264,-1.084318
bagnet33,1,124,NaN,elephant,bicycle,32-0-10,0124_eid_dnn_32-0-10_bicycle_10_n03792782_6159.png,n03792782_6159.png,0.0,-1.9498746,4.0709014,-4.2573314
bagnet33,1,125,NaN,bottle,clock,4-0-10,0125_eid_dnn_4-0-10_clock_10_n04548280_2404.png,n04548280_2404.png,0.0,2.6797752,4.806465,-1.5037969
bagnet33,1,126,NaN,elephant,bottle,64-0-10,0126_eid_dnn_64-0-10_bottle_10_n04591713_360.png,n04591713_360.png,0.0,-3.3767629,6.0526347,-6.667591
bagnet33,1,127,NaN,elephant,airplane,16-0-10,0127_eid_dnn_16-0-10_airplane_10_n02690373_1909.png,n02690373_1909.png,0.0,0.6576773,5.110443,-3.148581
bagnet33,1,128,NaN,bear,bear,2-0-10,0128_eid_dnn_2-0-10_bear_10_n02133161_9724.png,n02133161_9724.png,1.0,4.971495,1.926455,2.1531687
bagnet33,1,129,NaN,car,car,2-0-10,0129_eid_dnn_2-0-10_car_10_n04285008_5897.png,n04285008_5897.png,1.0,7.1542068,4.29881,2.0190704
bagnet33,1,130,NaN,bicycle,bicycle,1-0-10,0130_eid_dnn_1-0-10_bicycle_10_n02835271_9807.png,n02835271_9807.png,1.0,7.6972075,1.9096243,4.0924397
bagnet33,1,131,NaN,keyboard,keyboard,1-0-10,0131_eid_dnn_1-0-10_keyboard_10_n03085013_23286.png,n03085013_23286.png,1.0,3.4564965,2.1874125,0.8973779
bagnet33,1,132,NaN,oven,clock,2-0-10,0132_eid_dnn_2-0-10_clock_10_n02708093_772.png,n02708093_772.png,0.0,2.5885198,3.8496432,-0.89174896
bagnet33,1,133,NaN,bottle,clock,4-0-10,0133_eid_dnn_4-0-10_clock_10_n03196217_820.png,n03196217_820.png,0.0,2.0462022,3.9958367,-1.3785999
bagnet33,1,134,NaN,elephant,dog,32-0-10,0134_eid_dnn_32-0-10_dog_10_n02093754_6351.png,n02093754_6351.png,0.0,2.6083148,3.9421232,-0.943145
bagnet33,1,135,NaN,elephant,truck,8-0-10,0135_eid_dnn_8-0-10_truck_10_n03417042_27093.png,n03417042_27093.png,0.0,-1.8789591,3.2449572,-3.6231558
bagnet33,1,136,NaN,elephant,bicycle,4-0-10,0136_eid_dnn_4-0-10_bicycle_10_n03792782_30530.png,n03792782_30530.png,0.0,-1.2840905,3.817981,-3.6077096
bagnet33,1,137,NaN,bottle,bottle,4-0-10,0137_eid_dnn_4-0-10_bottle_10_n03937543_5215.png,n03937543_5215.png,1.0,3.8217525,2.0251114,1.2704171
bagnet33,1,138,NaN,oven,boat,2-0-10,0138_eid_dnn_2-0-10_boat_10_n02951358_9933.png,n02951358_9933.png,0.0,-3.4141712,3.6898704,-5.023316
bagnet33,1,139,NaN,knife,dog,4-0-10,0139_eid_dnn_4-0-10_dog_10_n02086910_8694.png,n02086910_8694.png,0.0,0.42734173,2.1372375,-1.209079
bagnet33,1,140,NaN,dog,knife,8-0-10,0140_eid_dnn_8-0-10_knife_10_n03041632_3504.png,n03041632_3504.png,0.0,0.8651203,2.304043,-1.017472
bagnet33,1,141,NaN,clock,knife,128-0-10,0141_eid_dnn_128-0-10_knife_10_n03041632_15754.png,n03041632_15754.png,0.0,0.1526064,2.1677063,-1.4248908
bagnet33,1,142,NaN,airplane,truck,8-0-10,0142_eid_dnn_8-0-10_truck_10_n04467665_45306.png,n04467665_45306.png,0.0,-0.66865957,1.6774952,-1.6589819
bagnet33,1,143,NaN,elephant,elephant,1-0-10,0143_eid_dnn_1-0-10_elephant_10_n02504013_5351.png,n02504013_5351.png,1.0,3.532361,2.9792843,0.3910843
bagnet33,1,144,NaN,elephant,bottle,2-0-10,0144_eid_dnn_2-0-10_bottle_10_n03937543_7763.png,n03937543_7763.png,0.0,2.2657094,4.3832493,-1.4973269
bagnet33,1,145,NaN,elephant,bird,32-0-10,0145_eid_dnn_32-0-10_bird_10_n01843383_91.png,n01843383_91.png,0.0,2.9782443,4.269348,-0.9129483
bagnet33,1,146,NaN,knife,clock,4-0-10,0146_eid_dnn_4-0-10_clock_10_n04548280_28.png,n04548280_28.png,0.0,1.4722947,3.5466473,-1.4667889
bagnet33,1,147,NaN,elephant,knife,16-0-10,0147_eid_dnn_16-0-10_knife_10_n03041632_102828.png,n03041632_102828.png,0.0,0.26556164,7.0684943,-4.8104
bagnet33,1,148,NaN,elephant,car,128-0-10,0148_eid_dnn_128-0-10_car_10_n03100240_7520.png,n03100240_7520.png,0.0,-4.375776,4.170894,-6.0434084
bagnet33,1,149,NaN,elephant,knife,16-0-10,0149_eid_dnn_16-0-10_knife_10_n03041632_53874.png,n03041632_53874.png,0.0,1.6611279,1.8905275,-0.16220999
bagnet33,1,150,NaN,elephant,boat,16-0-10,0150_eid_dnn_16-0-10_boat_10_n04273569_3896.png,n04273569_3896.png,0.0,-2.065291,3.8457122,-4.1797104
bagnet33,1,151,NaN,airplane,airplane,2-0-10,0151_eid_dnn_2-0-10_airplane_10_n02690373_6002.png,n02690373_6002.png,1.0,12.810423,4.9235497,5.576862
bagnet33,1,152,NaN,elephant,chair,8-0-10,0152_eid_dnn_8-0-10_chair_10_n04099969_7191.png,n04099969_7191.png,0.0,-0.24956477,4.989748,-3.7047536
bagnet33,1,153,NaN,elephant,dog,32-0-10,0153_eid_dnn_32-0-10_dog_10_n02101388_4808.png,n02101388_4808.png,0.0,1.1984413,2.8145688,-1.1427747
bagnet33,1,154,NaN,elephant,keyboard,16-0-10,0154_eid_dnn_16-0-10_keyboard_10_n03085013_24538.png,n03085013_24538.png,0.0,-2.093845,4.1006994,-4.380204
bagnet33,1,155,NaN,cat,knife,128-0-10,0155_eid_dnn_128-0-10_knife_10_n03041632_85488.png,n03041632_85488.png,0.0,-4.6688404,8.806608,-9.528582
bagnet33,1,156,NaN,oven,car,4-0-10,0156_eid_dnn_4-0-10_car_10_n04285008_7630.png,n04285008_7630.png,0.0,-3.0879219,3.5339208,-4.6823497
bagnet33,1,157,NaN,elephant,airplane,8-0-10,0157_eid_dnn_8-0-10_airplane_10_n02690373_2941.png,n02690373_2941.png,0.0,0.08192694,2.8184743,-1.9350313
bagnet33,1,158,NaN,elephant,bird,64-0-10,0158_eid_dnn_64-0-10_bird_10_n01514859_6021.png,n01514859_6021.png,0.0,1.4570031,4.079175,-1.8541555
bagnet33,1,159,NaN,elephant,clock,64-0-10,0159_eid_dnn_64-0-10_clock_10_n04548280_3293.png,n04548280_3293.png,0.0,-0.99134666,4.6260347,-3.9720886
bagnet33,1,160,NaN,bottle,oven,4-0-10,0160_eid_dnn_4-0-10_oven_10_n04111531_4998.png,n04111531_4998.png,0.0,0.100203514,2.1182308,-1.4269608
bagnet33,1,161,NaN,elephant,bird,128-0-10,0161_eid_dnn_128-0-10_bird_10_n02028035_32993.png,n02028035_32993.png,0.0,1.2697723,3.1788723,-1.3499377
bagnet33,1,162,NaN,bottle,bird,2-0-10,0162_eid_dnn_2-0-10_bird_10_n01843383_7800.png,n01843383_7800.png,0.0,-0.73280257,1.8941567,-1.8575407
bagnet33,1,163,NaN,elephant,bear,64-0-10,0163_eid_dnn_64-0-10_bear_10_n02132136_15174.png,n02132136_15174.png,0.0,1.7353245,2.9733627,-0.8754252
bagnet33,1,164,NaN,oven,oven,4-0-10,0164_eid_dnn_4-0-10_oven_10_n04111531_7266.png,n04111531_7266.png,1.0,3.4674208,2.1533184,0.9292107
bagnet33,1,165,NaN,cat,cat,128-0-10,0165_eid_dnn_128-0-10_cat_10_n02124075_6464.png,n02124075_6464.png,1.0,4.150812,2.914294,0.87435037
bagnet33,1,166,NaN,elephant,bicycle,16-0-10,0166_eid_dnn_16-0-10_bicycle_10_n02835271_4667.png,n02835271_4667.png,0.0,-2.172664,6.0530567,-5.816463
bagnet33,1,167,NaN,elephant,chair,32-0-10,0167_eid_dnn_32-0-10_chair_10_n04099969_2532.png,n04099969_2532.png,0.0,0.3701793,8.139862,-5.4939957
bagnet33,1,168,NaN,bottle,bottle,4-0-10,0168_eid_dnn_4-0-10_bottle_10_n04560804_15683.png,n04560804_15683.png,1.0,5.7789273,2.7692885,2.128136
bagnet33,1,169,NaN,elephant,chair,8-0-10,0169_eid_dnn_8-0-10_chair_10_n04099969_6825.png,n04099969_6825.png,0.0,-0.05334857,3.2433844,-2.3311422
bagnet33,1,170,NaN,bottle,oven,1-0-10,0170_eid_dnn_1-0-10_oven_10_n04111531_1612.png,n04111531_1612.png,0.0,3.5761108,3.9537265,-0.26701462
bagnet33,1,171,NaN,clock,clock,2-0-10,0171_eid_dnn_2-0-10_clock_10_n02708093_1701.png,n02708093_1701.png,1.0,10.835921,6.591047,3.0015795
bagnet33,1,172,NaN,elephant,elephant,32-0-10,0172_eid_dnn_32-0-10_elephant_10_n02504013_782.png,n02504013_782.png,1.0,3.3993459,3.0585685,0.240966
bagnet33,1,173,NaN,cat,dog,128-0-10,0173_eid_dnn_128-0-10_dog_10_n02107908_8814.png,n02107908_8814.png,0.0,2.8064964,5.1285443,-1.6419358
bagnet33,1,174,NaN,cat,elephant,4-0-10,0174_eid_dnn_4-0-10_elephant_10_n02504458_5816.png,n02504458_5816.png,0.0,1.4510471,2.024345,-0.4053828
bagnet33,1,175,NaN,bottle,car,2-0-10,0175_eid_dnn_2-0-10_car_10_n03100240_18788.png,n03100240_18788.png,0.0,6.754308,6.871097,-0.0825822
bagnet33,1,176,NaN,knife,airplane,16-0-10,0176_eid_dnn_16-0-10_airplane_10_n02690373_7915.png,n02690373_7915.png,0.0,0.12069887,1.4442972,-0.9359254
bagnet33,1,177,NaN,elephant,chair,4-0-10,0177_eid_dnn_4-0-10_chair_10_n04429376_10544.png,n04429376_10544.png,0.0,1.1112503,4.1013184,-2.1142974
bagnet33,1,178,NaN,elephant,knife,32-0-10,0178_eid_dnn_32-0-10_knife_10_n03041632_24883.png,n03041632_24883.png,0.0,-0.32702053,4.1536946,-3.1683443
bagnet33,1,179,NaN,bird,bicycle,128-0-10,0179_eid_dnn_128-0-10_bicycle_10_n03792782_10367.png,n03792782_10367.png,0.0,-2.0593188,2.92948,-3.5276136
bagnet33,1,180,NaN,oven,oven,1-0-10,0180_eid_dnn_1-0-10_oven_10_n04111531_3121.png,n04111531_3121.png,1.0,4.159049,3.817266,0.24167712
bagnet33,1,181,NaN,elephant,car,128-0-10,0181_eid_dnn_128-0-10_car_10_n02814533_10995.png,n02814533_10995.png,0.0,-4.13751,4.1309195,-5.846662
bagnet33,1,182,NaN,cat,dog,128-0-10,0182_eid_dnn_128-0-10_dog_10_n02112350_502.png,n02112350_502.png,0.0,3.7678978,5.8533235,-1.4746187
bagnet33,1,183,NaN,cat,clock,128-0-10,0183_eid_dnn_128-0-10_clock_10_n04548280_5278.png,n04548280_5278.png,0.0,-3.7337863,6.8850174,-7.5086284
bagnet33,1,184,NaN,elephant,bird,4-0-10,0184_eid_dnn_4-0-10_bird_10_n02006656_713.png,n02006656_713.png,0.0,-1.4786882,3.0511549,-3.203083
bagnet33,1,185,NaN,elephant,bottle,128-0-10,0185_eid_dnn_128-0-10_bottle_10_n04557648_4106.png,n04557648_4106.png,0.0,-4.4556417,5.358217,-6.9394455
bagnet33,1,186,NaN,elephant,clock,64-0-10,0186_eid_dnn_64-0-10_clock_10_n02708093_1430.png,n02708093_1430.png,0.0,-0.321944,4.4945164,-3.405752
bagnet33,1,187,NaN,oven,oven,1-0-10,0187_eid_dnn_1-0-10_oven_10_n04111531_7664.png,n04111531_7664.png,1.0,12.792255,5.9785733,4.818001
bagnet33,1,188,NaN,car,car,1-0-10,0188_eid_dnn_1-0-10_car_10_n02814533_149.png,n02814533_149.png,1.0,10.144069,8.453442,1.1954539
bagnet33,1,189,NaN,elephant,clock,64-0-10,0189_eid_dnn_64-0-10_clock_10_n04548280_8296.png,n04548280_8296.png,0.0,-0.50981045,3.6135178,-2.9156334
bagnet33,1,190,NaN,elephant,bottle,64-0-10,0190_eid_dnn_64-0-10_bottle_10_n04591713_5815.png,n04591713_5815.png,0.0,-2.3001878,5.146388,-5.2655244
bagnet33,1,191,NaN,bottle,knife,2-0-10,0191_eid_dnn_2-0-10_knife_10_n03041632_90125.png,n03041632_90125.png,0.0,2.4603653,4.6219354,-1.5284609
bagnet33,1,192,NaN,elephant,bird,64-0-10,0192_eid_dnn_64-0-10_bird_10_n01534433_16586.png,n01534433_16586.png,0.0,1.4674882,1.8031344,-0.23733775
bagnet33,1,193,NaN,cat,cat,4-0-10,0193_eid_dnn_4-0-10_cat_10_n02123394_2559.png,n02123394_2559.png,1.0,4.35442,3.3391516,0.7179033
bagnet33,1,194,NaN,elephant,elephant,4-0-10,0194_eid_dnn_4-0-10_elephant_10_n02504458_5995.png,n02504458_5995.png,1.0,4.182028,3.22759,0.6748894
bagnet33,1,195,NaN,car,car,2-0-10,0195_eid_dnn_2-0-10_car_10_n02814533_211.png,n02814533_211.png,1.0,7.6478486,6.4717894,0.8315995
bagnet33,1,196,NaN,bottle,chair,1-0-10,0196_eid_dnn_1-0-10_chair_10_n04429376_13328.png,n04429376_13328.png,0.0,6.0038137,6.1343985,-0.09233734
bagnet33,1,197,NaN,elephant,keyboard,16-0-10,0197_eid_dnn_16-0-10_keyboard_10_n03085013_24618.png,n03085013_24618.png,0.0,-1.5831027,3.797194,-3.8044443
bagnet33,1,198,NaN,oven,oven,4-0-10,0198_eid_dnn_4-0-10_oven_10_n04111531_2186.png,n04111531_2186.png,1.0,4.0108094,2.7776248,0.8719932
bagnet33,1,199,NaN,bear,oven,8-0-10,0199_eid_dnn_8-0-10_oven_10_n04111531_114.png,n04111531_114.png,0.0,0.36709803,6.1225634,-4.069729
bagnet33,1,200,NaN,truck,car,1-0-10,0200_eid_dnn_1-0-10_car_10_n03100240_1745.png,n03100240_1745.png,0.0,11.477898,12.3255205,-0.59935987
bagnet33,1,201,NaN,cat,cat,4-0-10,0201_eid_dnn_4-0-10_cat_10_n02123394_1259.png,n02123394_1259.png,1.0,4.7271748,2.226459,1.7682731
bagnet33,1,202,NaN,bottle,oven,4-0-10,0202_eid_dnn_4-0-10_oven_10_n04111531_5801.png,n04111531_5801.png,0.0,1.0928383,2.351453,-0.8899751
bagnet33,1,203,NaN,elephant,airplane,32-0-10,0203_eid_dnn_32-0-10_airplane_10_n02690373_2024.png,n02690373_2024.png,0.0,0.29538,5.2475433,-3.5017083
bagnet33,1,204,NaN,elephant,cat,8-0-10,0204_eid_dnn_8-0-10_cat_10_n02123045_12181.png,n02123045_12181.png,0.0,2.3384717,2.6229608,-0.20116422
bagnet33,1,205,NaN,elephant,airplane,64-0-10,0205_eid_dnn_64-0-10_airplane_10_n02690373_3313.png,n02690373_3313.png,0.0,-1.9986529,3.6237123,-3.9756124
bagnet33,1,206,NaN,elephant,truck,64-0-10,0206_eid_dnn_64-0-10_truck_10_n04467665_80465.png,n04467665_80465.png,0.0,-3.21806,4.0365534,-5.1297865
bagnet33,1,207,NaN,bottle,elephant,2-0-10,0207_eid_dnn_2-0-10_elephant_10_n02504013_8626.png,n02504013_8626.png,0.0,1.4494251,2.6378193,-0.8403216
bagnet33,1,208,NaN,elephant,car,16-0-10,0208_eid_dnn_16-0-10_car_10_n04285008_7904.png,n04285008_7904.png,0.0,-3.6442719,5.033236,-6.1359243
bagnet33,1,209,NaN,elephant,airplane,8-0-10,0209_eid_dnn_8-0-10_airplane_10_n02690373_6363.png,n02690373_6363.png,0.0,-1.0805585,4.8184214,-4.171209
bagnet33,1,210,NaN,cat,cat,4-0-10,0210_eid_dnn_4-0-10_cat_10_n02123045_7294.png,n02123045_7294.png,1.0,3.4846075,2.4459243,0.73445994
bagnet33,1,211,NaN,cat,airplane,128-0-10,0211_eid_dnn_128-0-10_airplane_10_n02690373_6988.png,n02690373_6988.png,0.0,-2.815885,5.4227586,-5.825601
bagnet33,1,212,NaN,knife,cat,4-0-10,0212_eid_dnn_4-0-10_cat_10_n02125311_25749.png,n02125311_25749.png,0.0,-0.933521,3.0253704,-2.799359
bagnet33,1,213,NaN,elephant,bird,64-0-10,0213_eid_dnn_64-0-10_bird_10_n02018207_12980.png,n02018207_12980.png,0.0,2.2528746,3.4286075,-0.8313687
bagnet33,1,214,NaN,cat,cat,32-0-10,0214_eid_dnn_32-0-10_cat_10_n02123394_2814.png,n02123394_2814.png,1.0,3.2574174,3.0205493,0.16749108
bagnet33,1,215,NaN,bottle,car,4-0-10,0215_eid_dnn_4-0-10_car_10_n04285008_662.png,n04285008_662.png,0.0,-1.3072077,2.9190445,-2.9884117
bagnet33,1,216,NaN,cat,bicycle,2-0-10,0216_eid_dnn_2-0-10_bicycle_10_n03792782_11679.png,n03792782_11679.png,0.0,-0.40560734,3.1210606,-2.493731
bagnet33,1,217,NaN,cat,dog,16-0-10,0217_eid_dnn_16-0-10_dog_10_n02093428_17769.png,n02093428_17769.png,0.0,2.9634666,4.186516,-0.8648264
bagnet33,1,218,NaN,elephant,dog,64-0-10,0218_eid_dnn_64-0-10_dog_10_n02106030_17418.png,n02106030_17418.png,0.0,2.8998475,3.4252608,-0.3715233
bagnet33,1,219,NaN,elephant,chair,64-0-10,0219_eid_dnn_64-0-10_chair_10_n02791124_7142.png,n02791124_7142.png,0.0,-1.7779552,5.418801,-5.088875
bagnet33,1,220,NaN,knife,bear,1-0-10,0220_eid_dnn_1-0-10_bear_10_n02134084_18083.png,n02134084_18083.png,0.0,0.9294931,2.0091798,-0.7634538
bagnet33,1,221,NaN,keyboard,keyboard,2-0-10,0221_eid_dnn_2-0-10_keyboard_10_n03085013_7536.png,n03085013_7536.png,1.0,19.394178,2.6824286,11.816992
bagnet33,1,222,NaN,elephant,bird,1-0-10,0222_eid_dnn_1-0-10_bird_10_n01616318_2473.png,n01616318_2473.png,0.0,0.9750625,4.9677067,-2.823226
bagnet33,1,223,NaN,elephant,elephant,1-0-10,0223_eid_dnn_1-0-10_elephant_10_n02504458_5951.png,n02504458_5951.png,1.0,7.643626,1.6452916,4.241463
bagnet33,1,224,NaN,airplane,airplane,4-0-10,0224_eid_dnn_4-0-10_airplane_10_n02690373_5164.png,n02690373_5164.png,1.0,2.058133,2.0560331,0.0014847493
bagnet33,1,225,NaN,elephant,elephant,4-0-10,0225_eid_dnn_4-0-10_elephant_10_n02504013_1865.png,n02504013_1865.png,1.0,2.9059577,1.7011154,0.8519522
bagnet33,1,226,NaN,knife,knife,1-0-10,0226_eid_dnn_1-0-10_knife_10_n03041632_56454.png,n03041632_56454.png,1.0,7.0696883,2.530924,3.2093909
bagnet33,1,227,NaN,elephant,bird,64-0-10,0227_eid_dnn_64-0-10_bird_10_n01824575_5820.png,n01824575_5820.png,0.0,2.2929456,2.6705875,-0.26703316
bagnet33,1,228,NaN,knife,oven,4-0-10,0228_eid_dnn_4-0-10_oven_10_n04111531_4332.png,n04111531_4332.png,0.0,1.1656878,1.8262014,-0.46705368
bagnet33,1,229,NaN,truck,truck,2-0-10,0229_eid_dnn_2-0-10_truck_10_n04467665_41352.png,n04467665_41352.png,1.0,9.802857,7.029565,1.961014
bagnet33,1,230,NaN,bear,bird,8-0-10,0230_eid_dnn_8-0-10_bird_10_n01514859_5668.png,n01514859_5668.png,0.0,1.0961828,3.1427908,-1.4471704
bagnet33,1,231,NaN,cat,oven,32-0-10,0231_eid_dnn_32-0-10_oven_10_n04111531_4438.png,n04111531_4438.png,0.0,-2.0199952,2.8295848,-3.4291708
bagnet33,1,232,NaN,cat,cat,1-0-10,0232_eid_dnn_1-0-10_cat_10_n02123394_6693.png,n02123394_6693.png,1.0,9.635169,4.4637837,3.6567216
bagnet33,1,233,NaN,elephant,elephant,32-0-10,0233_eid_dnn_32-0-10_elephant_10_n02504458_6302.png,n02504458_6302.png,1.0,5.2763047,2.8519857,1.7142525
bagnet33,1,234,NaN,elephant,bottle,16-0-10,0234_eid_dnn_16-0-10_bottle_10_n03937543_2329.png,n03937543_2329.png,0.0,-0.99670804,2.9566393,-2.7954388
bagnet33,1,235,NaN,elephant,elephant,16-0-10,0235_eid_dnn_16-0-10_elephant_10_n02504458_5155.png,n02504458_5155.png,1.0,5.548677,2.345002,2.2653403
bagnet33,1,236,NaN,bottle,bear,1-0-10,0236_eid_dnn_1-0-10_bear_10_n02134084_1694.png,n02134084_1694.png,0.0,-0.14661331,2.725563,-2.0309355
bagnet33,1,237,NaN,cat,bear,128-0-10,0237_eid_dnn_128-0-10_bear_10_n02133161_1624.png,n02133161_1624.png,0.0,2.3104978,4.39669,-1.4751606
bagnet33,1,238,NaN,elephant,bear,64-0-10,0238_eid_dnn_64-0-10_bear_10_n02132136_11027.png,n02132136_11027.png,0.0,3.5824873,4.0733414,-0.34708622
bagnet33,1,239,NaN,dog,elephant,64-0-10,0239_eid_dnn_64-0-10_elephant_10_n02504013_24621.png,n02504013_24621.png,0.0,3.6699216,5.2515893,-1.118408
bagnet33,1,240,NaN,elephant,knife,16-0-10,0240_eid_dnn_16-0-10_knife_10_n03041632_27134.png,n03041632_27134.png,0.0,1.6501377,5.854049,-2.9726145
bagnet33,1,241,NaN,elephant,keyboard,32-0-10,0241_eid_dnn_32-0-10_keyboard_10_n03085013_24316.png,n03085013_24316.png,0.0,-1.7571231,6.4716234,-5.8186026
bagnet33,1,242,NaN,cat,cat,2-0-10,0242_eid_dnn_2-0-10_cat_10_n02123159_3026.png,n02123159_3026.png,1.0,6.5515466,2.2854629,3.0165768
bagnet33,1,243,NaN,cat,bicycle,128-0-10,0243_eid_dnn_128-0-10_bicycle_10_n03792782_1475.png,n03792782_1475.png,0.0,-2.7181802,4.060673,-4.793373
bagnet33,1,244,NaN,elephant,cat,16-0-10,0244_eid_dnn_16-0-10_cat_10_n02123045_20507.png,n02123045_20507.png,0.0,3.5966957,6.8660755,-2.3118007
bagnet33,1,245,NaN,elephant,boat,64-0-10,0245_eid_dnn_64-0-10_boat_10_n02951358_23759.png,n02951358_23759.png,0.0,-3.376926,5.4538813,-6.2443233
bagnet33,1,246,NaN,elephant,bear,16-0-10,0246_eid_dnn_16-0-10_bear_10_n02132136_1858.png,n02132136_1858.png,0.0,1.7435323,6.2426014,-3.1813223
bagnet33,1,247,NaN,cat,boat,128-0-10,0247_eid_dnn_128-0-10_boat_10_n02951358_6465.png,n02951358_6465.png,0.0,-4.070498,4.164136,-5.822766
bagnet33,1,248,NaN,elephant,airplane,128-0-10,0248_eid_dnn_128-0-10_airplane_10_n02690373_6223.png,n02690373_6223.png,0.0,-2.775981,2.6501431,-3.8368492
bagnet33,1,249,NaN,elephant,boat,128-0-10,0249_eid_dnn_128-0-10_boat_10_n03344393_2412.png,n03344393_2412.png,0.0,-3.6905656,2.316855,-4.247888
bagnet33,1,250,NaN,elephant,knife,8-0-10,0250_eid_dnn_8-0-10_knife_10_n03041632_6446.png,n03041632_6446.png,0.0,1.7064446,5.242139,-2.5001132
bagnet33,1,251,NaN,elephant,bottle,64-0-10,0251_eid_dnn_64-0-10_bottle_10_n04591713_7940.png,n04591713_7940.png,0.0,-1.6311706,6.3235393,-5.6248293
bagnet33,1,252,NaN,cat,cat,4-0-10,0252_eid_dnn_4-0-10_cat_10_n02124075_13568.png,n02124075_13568.png,1.0,5.2205534,3.0453482,1.5381024
bagnet33,1,253,NaN,truck,boat,2-0-10,0253_eid_dnn_2-0-10_boat_10_n03662601_2171.png,n03662601_2171.png,0.0,0.9668806,4.0761986,-2.1986198
bagnet33,1,254,NaN,elephant,elephant,1-0-10,0254_eid_dnn_1-0-10_elephant_10_n02504458_415.png,n02504458_415.png,1.0,7.3356733,3.5042334,2.7092373
bagnet33,1,255,NaN,elephant,car,16-0-10,0255_eid_dnn_16-0-10_car_10_n03100240_3386.png,n03100240_3386.png,0.0,-3.1283312,4.019297,-5.0541368
bagnet33,1,256,NaN,knife,bird,16-0-10,0256_eid_dnn_16-0-10_bird_10_n02056570_6633.png,n02056570_6633.png,0.0,-2.1524382,3.2491653,-3.8195107
bagnet33,1,257,NaN,cat,bottle,32-0-10,0257_eid_dnn_32-0-10_bottle_10_n02823428_4232.png,n02823428_4232.png,0.0,-2.1038115,3.7186368,-4.1170926
bagnet33,1,258,NaN,cat,boat,128-0-10,0258_eid_dnn_128-0-10_boat_10_n04273569_2396.png,n04273569_2396.png,0.0,-3.7406857,3.1515589,-4.873553
bagnet33,1,259,NaN,knife,knife,1-0-10,0259_eid_dnn_1-0-10_knife_10_n03041632_38996.png,n03041632_38996.png,1.0,4.4030547,2.7566829,1.1641607
bagnet33,1,260,NaN,elephant,oven,8-0-10,0260_eid_dnn_8-0-10_oven_10_n04111531_10420.png,n04111531_10420.png,0.0,1.3885651,3.995614,-1.8434621
bagnet33,1,261,NaN,cat,dog,128-0-10,0261_eid_dnn_128-0-10_dog_10_n02094114_2394.png,n02094114_2394.png,0.0,4.164717,7.8716416,-2.6211915
bagnet33,1,262,NaN,cat,elephant,128-0-10,0262_eid_dnn_128-0-10_elephant_10_n02504013_4247.png,n02504013_4247.png,0.0,4.5258427,5.095582,-0.40286657
bagnet33,1,263,NaN,elephant,chair,32-0-10,0263_eid_dnn_32-0-10_chair_10_n03376595_8137.png,n03376595_8137.png,0.0,-1.20539,4.1360607,-3.776976
bagnet33,1,264,NaN,elephant,airplane,128-0-10,0264_eid_dnn_128-0-10_airplane_10_n02690373_8524.png,n02690373_8524.png,0.0,-2.3346057,5.0968137,-5.254807
bagnet33,1,265,NaN,elephant,car,64-0-10,0265_eid_dnn_64-0-10_car_10_n03100240_18410.png,n03100240_18410.png,0.0,-4.8448234,4.937444,-6.917108
bagnet33,1,266,NaN,elephant,clock,64-0-10,0266_eid_dnn_64-0-10_clock_10_n04548280_2588.png,n04548280_2588.png,0.0,-2.0522072,3.9470427,-4.2421103
bagnet33,1,267,NaN,elephant,keyboard,32-0-10,0267_eid_dnn_32-0-10_keyboard_10_n03085013_24030.png,n03085013_24030.png,0.0,-0.7098067,3.9958668,-3.3274136
bagnet33,1,268,NaN,clock,clock,2-0-10,0268_eid_dnn_2-0-10_clock_10_n03196217_6375.png,n03196217_6375.png,1.0,10.9348755,7.1735015,2.659693
bagnet33,1,269,NaN,elephant,airplane,32-0-10,0269_eid_dnn_32-0-10_airplane_10_n02690373_4150.png,n02690373_4150.png,0.0,-1.6224779,4.873327,-4.593228
bagnet33,1,270,NaN,cat,dog,4-0-10,0270_eid_dnn_4-0-10_dog_10_n02086646_6567.png,n02086646_6567.png,0.0,2.0919604,3.5632973,-1.0403923
bagnet33,1,271,NaN,cat,clock,64-0-10,0271_eid_dnn_64-0-10_clock_10_n03196217_775.png,n03196217_775.png,0.0,-1.9419107,5.381489,-5.178426
bagnet33,1,272,NaN,car,car,1-0-10,0272_eid_dnn_1-0-10_car_10_n02814533_57353.png,n02814533_57353.png,1.0,17.032278,15.41853,1.141092
bagnet33,1,273,NaN,cat,bottle,16-0-10,0273_eid_dnn_16-0-10_bottle_10_n04560804_183.png,n04560804_183.png,0.0,-0.34241587,2.6158302,-2.091796
bagnet33,1,274,NaN,car,car,2-0-10,0274_eid_dnn_2-0-10_car_10_n04285008_10631.png,n04285008_10631.png,1.0,8.989411,4.1107264,3.4497514
bagnet33,1,275,NaN,bear,bear,2-0-10,0275_eid_dnn_2-0-10_bear_10_n02132136_10057.png,n02132136_10057.png,1.0,10.486822,8.658078,1.2931173
bagnet33,1,276,NaN,cat,boat,128-0-10,0276_eid_dnn_128-0-10_boat_10_n04273569_4605.png,n04273569_4605.png,0.0,-4.920455,1.946435,-4.8556247
bagnet33,1,277,NaN,cat,cat,64-0-10,0277_eid_dnn_64-0-10_cat_10_n02123597_12711.png,n02123597_12711.png,1.0,5.418921,4.4701967,0.6708494
bagnet33,1,278,NaN,bottle,bottle,1-0-10,0278_eid_dnn_1-0-10_bottle_10_n04560804_5610.png,n04560804_5610.png,1.0,8.748823,3.8003733,3.4990826
bagnet33,1,279,NaN,elephant,clock,32-0-10,0279_eid_dnn_32-0-10_clock_10_n04548280_8412.png,n04548280_8412.png,0.0,-0.5670095,6.5237007,-5.0138893
bagnet33,1,280,NaN,cat,cat,2-0-10,0280_eid_dnn_2-0-10_cat_10_n02123597_13834.png,n02123597_13834.png,1.0,5.885121,3.314171,1.8179361
bagnet33,1,281,NaN,cat,dog,128-0-10,0281_eid_dnn_128-0-10_dog_10_n02091831_538.png,n02091831_538.png,0.0,1.5976852,3.3981924,-1.2731509
bagnet33,1,282,NaN,elephant,bicycle,32-0-10,0282_eid_dnn_32-0-10_bicycle_10_n03792782_10437.png,n03792782_10437.png,0.0,-1.0410825,2.8545794,-2.754649
bagnet33,1,283,NaN,bear,bear,2-0-10,0283_eid_dnn_2-0-10_bear_10_n02132136_2372.png,n02132136_2372.png,1.0,9.332089,7.324823,1.4193518
bagnet33,1,284,NaN,bear,bicycle,128-0-10,0284_eid_dnn_128-0-10_bicycle_10_n03792782_4540.png,n03792782_4540.png,0.0,-1.5973735,3.4150586,-3.5443249
bagnet33,1,285,NaN,elephant,elephant,2-0-10,0285_eid_dnn_2-0-10_elephant_10_n02504013_10152.png,n02504013_10152.png,1.0,3.2641363,1.5213231,1.2323551
bagnet33,1,286,NaN,elephant,boat,64-0-10,0286_eid_dnn_64-0-10_boat_10_n02951358_7603.png,n02951358_7603.png,0.0,-2.4891639,4.98883,-5.28774
bagnet33,1,287,NaN,dog,bear,2-0-10,0287_eid_dnn_2-0-10_bear_10_n02133161_9371.png,n02133161_9371.png,0.0,4.5224423,6.289132,-1.2492384
bagnet33,1,288,NaN,elephant,truck,8-0-10,0288_eid_dnn_8-0-10_truck_10_n04467665_69892.png,n04467665_69892.png,0.0,-0.2131652,4.9631596,-3.6602144
bagnet33,1,289,NaN,bottle,knife,1-0-10,0289_eid_dnn_1-0-10_knife_10_n03041632_19275.png,n03041632_19275.png,0.0,2.6037793,2.9620025,-0.25330207
bagnet33,1,290,NaN,elephant,keyboard,16-0-10,0290_eid_dnn_16-0-10_keyboard_10_n04505470_9446.png,n04505470_9446.png,0.0,-2.1689446,4.976265,-5.052426
bagnet33,1,291,NaN,elephant,elephant,1-0-10,0291_eid_dnn_1-0-10_elephant_10_n02504013_9141.png,n02504013_9141.png,1.0,2.6539354,1.9814942,0.47548777
bagnet33,1,292,NaN,elephant,bird,128-0-10,0292_eid_dnn_128-0-10_bird_10_n02056570_8553.png,n02056570_8553.png,0.0,3.2248716,4.9916506,-1.2493014
bagnet33,1,293,NaN,car,car,1-0-10,0293_eid_dnn_1-0-10_car_10_n03100240_9171.png,n03100240_9171.png,1.0,9.5470085,6.5848236,2.0945811
bagnet33,1,294,NaN,cat,dog,8-0-10,0294_eid_dnn_8-0-10_dog_10_n02102177_1533.png,n02102177_1533.png,0.0,3.1703672,3.8025227,-0.4470014
bagnet33,1,295,NaN,elephant,cat,64-0-10,0295_eid_dnn_64-0-10_cat_10_n02124075_12464.png,n02124075_12464.png,0.0,2.3326437,5.614846,-2.3208678
bagnet33,1,296,NaN,bottle,chair,4-0-10,0296_eid_dnn_4-0-10_chair_10_n04429376_33792.png,n04429376_33792.png,0.0,1.5534203,4.210098,-1.8785547
bagnet33,1,297,NaN,elephant,bear,128-0-10,0297_eid_dnn_128-0-10_bear_10_n02133161_3258.png,n02133161_3258.png,0.0,2.4585767,4.023245,-1.1063875
bagnet33,1,298,NaN,cat,dog,4-0-10,0298_eid_dnn_4-0-10_dog_10_n02097130_1442.png,n02097130_1442.png,0.0,2.0218832,2.979398,-0.6770652
bagnet33,1,299,NaN,knife,chair,4-0-10,0299_eid_dnn_4-0-10_chair_10_n02791124_8970.png,n02791124_8970.png,0.0,1.9399569,2.6886516,-0.5294071
bagnet33,1,300,NaN,elephant,car,8-0-10,0300_eid_dnn_8-0-10_car_10_n04285008_8545.png,n04285008_8545.png,0.0,-2.4373033,4.018999,-4.5652957
bagnet33,1,301,NaN,truck,truck,1-0-10,0301_eid_dnn_1-0-10_truck_10_n03417042_2204.png,n03417042_2204.png,1.0,8.884666,4.1944027,3.3165174
bagnet33,1,302,NaN,elephant,bear,2-0-10,0302_eid_dnn_2-0-10_bear_10_n02133161_15593.png,n02133161_15593.png,0.0,3.0706694,3.6274848,-0.39372793
bagnet33,1,303,NaN,knife,clock,2-0-10,0303_eid_dnn_2-0-10_clock_10_n04548280_5845.png,n04548280_5845.png,0.0,2.425108,3.350438,-0.65430725
bagnet33,1,304,NaN,knife,knife,4-0-10,0304_eid_dnn_4-0-10_knife_10_n03041632_4975.png,n03041632_4975.png,1.0,1.505113,1.2970564,0.14711821
bagnet33,1,305,NaN,elephant,clock,32-0-10,0305_eid_dnn_32-0-10_clock_10_n03196217_4849.png,n03196217_4849.png,0.0,1.4817597,2.5475924,-0.7536576
bagnet33,1,306,NaN,elephant,bicycle,2-0-10,0306_eid_dnn_2-0-10_bicycle_10_n03792782_15752.png,n03792782_15752.png,0.0,0.7993357,2.6739025,-1.325519
bagnet33,1,307,NaN,cat,bicycle,16-0-10,0307_eid_dnn_16-0-10_bicycle_10_n02835271_29741.png,n02835271_29741.png,0.0,0.45047984,2.8987932,-1.731219
bagnet33,1,308,NaN,bottle,chair,4-0-10,0308_eid_dnn_4-0-10_chair_10_n04099969_16619.png,n04099969_16619.png,0.0,1.789805,4.374387,-1.8275753
bagnet33,1,309,NaN,keyboard,keyboard,4-0-10,0309_eid_dnn_4-0-10_keyboard_10_n04505470_4552.png,n04505470_4552.png,1.0,3.808176,3.0539072,0.5333487
bagnet33,1,310,NaN,elephant,boat,8-0-10,0310_eid_dnn_8-0-10_boat_10_n02951358_13144.png,n02951358_13144.png,0.0,-1.8351002,4.80776,-4.6972113
bagnet33,1,311,NaN,elephant,bird,32-0-10,0311_eid_dnn_32-0-10_bird_10_n01797886_14611.png,n01797886_14611.png,0.0,2.864795,5.369028,-1.7707603
bagnet33,1,312,NaN,knife,knife,1-0-10,0312_eid_dnn_1-0-10_knife_10_n03041632_3326.png,n03041632_3326.png,1.0,4.4759827,1.9361923,1.7959031
bagnet33,1,313,NaN,elephant,elephant,8-0-10,0313_eid_dnn_8-0-10_elephant_10_n02504013_5829.png,n02504013_5829.png,1.0,2.8394446,2.4384444,0.28355
bagnet33,1,314,NaN,elephant,dog,16-0-10,0314_eid_dnn_16-0-10_dog_10_n02088094_2292.png,n02088094_2292.png,0.0,0.5603275,6.492938,-4.194989
bagnet33,1,315,NaN,elephant,oven,8-0-10,0315_eid_dnn_8-0-10_oven_10_n04111531_4944.png,n04111531_4944.png,0.0,0.5641628,3.8664477,-2.3350682
bagnet33,1,316,NaN,bird,oven,32-0-10,0316_eid_dnn_32-0-10_oven_10_n04111531_669.png,n04111531_669.png,0.0,-0.39727747,4.760155,-3.6468556
bagnet33,1,317,NaN,elephant,car,64-0-10,0317_eid_dnn_64-0-10_car_10_n02814533_6716.png,n02814533_6716.png,0.0,-5.0028405,4.969763,-7.0516953
bagnet33,1,318,NaN,elephant,bear,32-0-10,0318_eid_dnn_32-0-10_bear_10_n02132136_26438.png,n02132136_26438.png,0.0,2.450866,5.0507145,-1.8383706
bagnet33,1,319,NaN,bottle,bottle,4-0-10,0319_eid_dnn_4-0-10_bottle_10_n03983396_3027.png,n03983396_3027.png,1.0,2.7907262,1.5542152,0.8743453
bagnet33,1,320,NaN,elephant,elephant,2-0-10,0320_eid_dnn_2-0-10_elephant_10_n02504013_9299.png,n02504013_9299.png,1.0,6.425227,2.5596828,2.7333527
bagnet33,1,321,NaN,bottle,knife,2-0-10,0321_eid_dnn_2-0-10_knife_10_n03041632_13846.png,n03041632_13846.png,0.0,2.4005566,3.6003697,-0.848396
bagnet33,1,322,NaN,bird,airplane,64-0-10,0322_eid_dnn_64-0-10_airplane_10_n02690373_16250.png,n02690373_16250.png,0.0,-1.7847848,3.2283702,-3.544836
bagnet33,1,323,NaN,cat,boat,64-0-10,0323_eid_dnn_64-0-10_boat_10_n03662601_13696.png,n03662601_13696.png,0.0,-5.123689,4.403003,-6.7363887
bagnet33,1,324,NaN,cat,cat,1-0-10,0324_eid_dnn_1-0-10_cat_10_n02123597_5692.png,n02123597_5692.png,1.0,6.2879963,2.8607,2.4234645
bagnet33,1,325,NaN,cat,clock,8-0-10,0325_eid_dnn_8-0-10_clock_10_n02708093_3171.png,n02708093_3171.png,0.0,-0.6653578,2.9095705,-2.527856
bagnet33,1,326,NaN,cat,keyboard,128-0-10,0326_eid_dnn_128-0-10_keyboard_10_n04505470_4902.png,n04505470_4902.png,0.0,0.39032853,4.3852286,-2.824821
bagnet33,1,327,NaN,cat,dog,2-0-10,0327_eid_dnn_2-0-10_dog_10_n02113624_1170.png,n02113624_1170.png,0.0,2.7125313,4.4834723,-1.2522445
bagnet33,1,328,NaN,clock,clock,2-0-10,0328_eid_dnn_2-0-10_clock_10_n03196217_1272.png,n03196217_1272.png,1.0,5.8776793,3.8343227,1.4448714
bagnet33,1,329,NaN,cat,cat,128-0-10,0329_eid_dnn_128-0-10_cat_10_n02123394_8946.png,n02123394_8946.png,1.0,5.566419,2.7847211,1.9669576
bagnet33,1,330,NaN,bottle,car,8-0-10,0330_eid_dnn_8-0-10_car_10_n03100240_7134.png,n03100240_7134.png,0.0,-1.271864,1.7918292,-2.1663582
bagnet33,1,331,NaN,cat,bicycle,4-0-10,0331_eid_dnn_4-0-10_bicycle_10_n03792782_16034.png,n03792782_16034.png,0.0,-0.85377777,2.58404,-2.4309042
bagnet33,1,332,NaN,elephant,dog,8-0-10,0332_eid_dnn_8-0-10_dog_10_n02104029_5465.png,n02104029_5465.png,0.0,2.322011,4.6831064,-1.6695466
bagnet33,1,333,NaN,bottle,keyboard,4-0-10,0333_eid_dnn_4-0-10_keyboard_10_n04505470_5011.png,n04505470_5011.png,0.0,3.8636308,5.817124,-1.3813282
bagnet33,1,334,NaN,knife,bird,8-0-10,0334_eid_dnn_8-0-10_bird_10_n02009912_27132.png,n02009912_27132.png,0.0,0.7451269,1.6775334,-0.65931094
bagnet33,1,335,NaN,bird,knife,64-0-10,0335_eid_dnn_64-0-10_knife_10_n03041632_3171.png,n03041632_3171.png,0.0,0.1524271,2.1286528,-1.3974026
bagnet33,1,336,NaN,elephant,bear,32-0-10,0336_eid_dnn_32-0-10_bear_10_n02134084_21170.png,n02134084_21170.png,0.0,0.42885792,3.1045442,-1.891996
bagnet33,1,337,NaN,dog,dog,4-0-10,0337_eid_dnn_4-0-10_dog_10_n02086079_29044.png,n02086079_29044.png,1.0,3.9572177,1.8128158,1.5163212
bagnet33,1,338,NaN,cat,cat,4-0-10,0338_eid_dnn_4-0-10_cat_10_n02124075_8465.png,n02124075_8465.png,1.0,2.5097895,1.4968656,0.71624535
bagnet33,1,339,NaN,bird,bird,128-0-10,0339_eid_dnn_128-0-10_bird_10_n01855032_982.png,n01855032_982.png,1.0,2.3925545,2.2441242,0.104956105
bagnet33,1,340,NaN,elephant,truck,32-0-10,0340_eid_dnn_32-0-10_truck_10_n03417042_6373.png,n03417042_6373.png,0.0,-3.1715784,5.1543574,-5.8873253
bagnet33,1,341,NaN,elephant,airplane,16-0-10,0341_eid_dnn_16-0-10_airplane_10_n02690373_9959.png,n02690373_9959.png,0.0,-1.3720152,7.057683,-5.9606967
bagnet33,1,342,NaN,elephant,clock,32-0-10,0342_eid_dnn_32-0-10_clock_10_n04548280_2260.png,n04548280_2260.png,0.0,-0.25399974,4.10952,-3.0854745
bagnet33,1,343,NaN,knife,bottle,16-0-10,0343_eid_dnn_16-0-10_bottle_10_n03983396_5281.png,n03983396_5281.png,0.0,1.3382429,2.7942486,-1.0295515
bagnet33,1,344,NaN,cat,cat,4-0-10,0344_eid_dnn_4-0-10_cat_10_n02123159_1113.png,n02123159_1113.png,1.0,5.542291,3.9785922,1.1057022
bagnet33,1,345,NaN,elephant,keyboard,64-0-10,0345_eid_dnn_64-0-10_keyboard_10_n03085013_20460.png,n03085013_20460.png,0.0,-1.1788021,6.3801455,-5.344983
bagnet33,1,346,NaN,elephant,clock,8-0-10,0346_eid_dnn_8-0-10_clock_10_n03196217_884.png,n03196217_884.png,0.0,1.2251537,2.7217288,-1.0582384
bagnet33,1,347,NaN,knife,clock,8-0-10,0347_eid_dnn_8-0-10_clock_10_n03196217_6257.png,n03196217_6257.png,0.0,-1.4113554,1.3324546,-1.9401666
bagnet33,1,348,NaN,elephant,dog,32-0-10,0348_eid_dnn_32-0-10_dog_10_n02113624_2109.png,n02113624_2109.png,0.0,4.588425,7.4455414,-2.0202863
bagnet33,1,349,NaN,keyboard,keyboard,1-0-10,0349_eid_dnn_1-0-10_keyboard_10_n03085013_20416.png,n03085013_20416.png,1.0,16.874355,7.7045345,6.4840426
bagnet33,1,350,NaN,dog,bird,2-0-10,0350_eid_dnn_2-0-10_bird_10_n01820546_4609.png,n01820546_4609.png,0.0,0.37685952,3.1087642,-1.9317484
bagnet33,1,351,NaN,bird,cat,64-0-10,0351_eid_dnn_64-0-10_cat_10_n02125311_47792.png,n02125311_47792.png,0.0,1.173306,2.8729165,-1.2018061
bagnet33,1,352,NaN,elephant,boat,16-0-10,0352_eid_dnn_16-0-10_boat_10_n04612504_1491.png,n04612504_1491.png,0.0,-1.9718596,4.603658,-4.6495934
bagnet33,1,353,NaN,elephant,truck,16-0-10,0353_eid_dnn_16-0-10_truck_10_n03417042_910.png,n03417042_910.png,0.0,-2.293286,4.609186,-4.880785
bagnet33,1,354,NaN,elephant,airplane,64-0-10,0354_eid_dnn_64-0-10_airplane_10_n02690373_2038.png,n02690373_2038.png,0.0,-2.2978761,3.116276,-3.8283837
bagnet33,1,355,NaN,cat,cat,2-0-10,0355_eid_dnn_2-0-10_cat_10_n02123394_8164.png,n02123394_8164.png,1.0,8.580459,6.0181007,1.8118607
bagnet33,1,356,NaN,oven,oven,2-0-10,0356_eid_dnn_2-0-10_oven_10_n04111531_22097.png,n04111531_22097.png,1.0,4.750374,4.0675116,0.48285657
bagnet33,1,357,NaN,cat,bear,128-0-10,0357_eid_dnn_128-0-10_bear_10_n02134418_278.png,n02134418_278.png,0.0,2.9825892,3.9984214,-0.71830183
bagnet33,1,358,NaN,bottle,bird,4-0-10,0358_eid_dnn_4-0-10_bird_10_n01592084_9109.png,n01592084_9109.png,0.0,-1.3537945,2.1855521,-2.502696
bagnet33,1,359,NaN,elephant,clock,32-0-10,0359_eid_dnn_32-0-10_clock_10_n03196217_3695.png,n03196217_3695.png,0.0,-0.17428601,5.260152,-3.842728
bagnet33,1,360,NaN,cat,elephant,128-0-10,0360_eid_dnn_128-0-10_elephant_10_n02504458_8939.png,n02504458_8939.png,0.0,2.5387387,6.400051,-2.7303603
bagnet33,1,361,NaN,airplane,elephant,2-0-10,0361_eid_dnn_2-0-10_elephant_10_n02504013_7926.png,n02504013_7926.png,0.0,1.8458903,4.3836355,-1.7944568
bagnet33,1,362,NaN,elephant,bear,4-0-10,0362_eid_dnn_4-0-10_bear_10_n02133161_11816.png,n02133161_11816.png,0.0,0.6025286,3.880209,-2.31767
bagnet33,1,363,NaN,knife,bird,2-0-10,0363_eid_dnn_2-0-10_bird_10_n02056570_18300.png,n02056570_18300.png,0.0,1.1192061,2.4924269,-0.9710138
bagnet33,1,364,NaN,airplane,chair,2-0-10,0364_eid_dnn_2-0-10_chair_10_n02791124_7063.png,n02791124_7063.png,0.0,1.1808963,2.3747387,-0.8441741
bagnet33,1,365,NaN,knife,chair,8-0-10,0365_eid_dnn_8-0-10_chair_10_n03376595_8289.png,n03376595_8289.png,0.0,1.0001593,2.6811357,-1.1886299
bagnet33,1,366,NaN,airplane,airplane,4-0-10,0366_eid_dnn_4-0-10_airplane_10_n02690373_4434.png,n02690373_4434.png,1.0,4.3858957,2.2109685,1.5379058
bagnet33,1,367,NaN,truck,truck,1-0-10,0367_eid_dnn_1-0-10_truck_10_n03417042_8953.png,n03417042_8953.png,1.0,15.92958,8.219629,5.4517584
bagnet33,1,368,NaN,cat,bear,64-0-10,0368_eid_dnn_64-0-10_bear_10_n02132136_699.png,n02132136_699.png,0.0,3.9004817,4.506393,-0.42844397
bagnet33,1,369,NaN,elephant,knife,8-0-10,0369_eid_dnn_8-0-10_knife_10_n03041632_20517.png,n03041632_20517.png,0.0,2.2561488,2.7391958,-0.34156582
bagnet33,1,370,NaN,dog,bottle,32-0-10,0370_eid_dnn_32-0-10_bottle_10_n03983396_1910.png,n03983396_1910.png,0.0,-1.2788359,3.3805296,-3.2946692
bagnet33,1,371,NaN,elephant,oven,8-0-10,0371_eid_dnn_8-0-10_oven_10_n04111531_16198.png,n04111531_16198.png,0.0,1.2736139,4.967562,-2.612016
bagnet33,1,372,NaN,cat,elephant,64-0-10,0372_eid_dnn_64-0-10_elephant_10_n02504013_13427.png,n02504013_13427.png,0.0,4.0570574,4.3968296,-0.24025525
bagnet33,1,373,NaN,knife,airplane,16-0-10,0373_eid_dnn_16-0-10_airplane_10_n02690373_1075.png,n02690373_1075.png,0.0,-0.38249624,2.659112,-2.1507418
bagnet33,1,374,NaN,elephant,car,64-0-10,0374_eid_dnn_64-0-10_car_10_n03100240_5527.png,n03100240_5527.png,0.0,-3.3322248,6.1516104,-6.7060843
bagnet33,1,375,NaN,bear,bear,1-0-10,0375_eid_dnn_1-0-10_bear_10_n02132136_4632.png,n02132136_4632.png,1.0,5.201846,3.9997249,0.8500281
bagnet33,1,376,NaN,boat,boat,1-0-10,0376_eid_dnn_1-0-10_boat_10_n04273569_6158.png,n04273569_6158.png,1.0,5.0137506,3.3371196,1.1855571
bagnet33,1,377,NaN,elephant,knife,32-0-10,0377_eid_dnn_32-0-10_knife_10_n03041632_18141.png,n03041632_18141.png,0.0,0.028382719,6.416077,-4.5167823
bagnet33,1,378,NaN,cat,bear,16-0-10,0378_eid_dnn_16-0-10_bear_10_n02132136_6378.png,n02132136_6378.png,0.0,2.5041065,2.5352476,-0.022020042
bagnet33,1,379,NaN,elephant,elephant,2-0-10,0379_eid_dnn_2-0-10_elephant_10_n02504458_5095.png,n02504458_5095.png,1.0,4.99669,2.9311883,1.4605302
bagnet33,1,380,NaN,elephant,elephant,4-0-10,0380_eid_dnn_4-0-10_elephant_10_n02504013_10582.png,n02504013_10582.png,1.0,4.9503093,4.137392,0.5748193
bagnet33,1,381,NaN,elephant,chair,16-0-10,0381_eid_dnn_16-0-10_chair_10_n04099969_28139.png,n04099969_28139.png,0.0,-0.31635037,7.809096,-5.7455583
bagnet33,1,382,NaN,keyboard,keyboard,2-0-10,0382_eid_dnn_2-0-10_keyboard_10_n04505470_279.png,n04505470_279.png,1.0,16.626032,12.494824,2.9212048
bagnet33,1,383,NaN,elephant,car,8-0-10,0383_eid_dnn_8-0-10_car_10_n02814533_79696.png,n02814533_79696.png,0.0,-3.5025647,4.9612703,-5.984835
bagnet33,1,384,NaN,bear,cat,64-0-10,0384_eid_dnn_64-0-10_cat_10_n02124075_7984.png,n02124075_7984.png,0.0,4.716205,6.0844774,-0.96751463
bagnet33,1,385,NaN,bottle,car,4-0-10,0385_eid_dnn_4-0-10_car_10_n02814533_27327.png,n02814533_27327.png,0.0,-1.278566,4.468175,-4.0635595
bagnet33,1,386,NaN,cat,bear,4-0-10,0386_eid_dnn_4-0-10_bear_10_n02134084_967.png,n02134084_967.png,0.0,3.2930307,4.0917034,-0.56474686
bagnet33,1,387,NaN,elephant,bear,64-0-10,0387_eid_dnn_64-0-10_bear_10_n02132136_949.png,n02132136_949.png,0.0,4.595497,4.8521576,-0.18148635
bagnet33,1,388,NaN,elephant,bicycle,16-0-10,0388_eid_dnn_16-0-10_bicycle_10_n03792782_2905.png,n03792782_2905.png,0.0,-1.7698388,5.174286,-4.910238
bagnet33,1,389,NaN,dog,bicycle,8-0-10,0389_eid_dnn_8-0-10_bicycle_10_n03792782_34550.png,n03792782_34550.png,0.0,-2.1674101,3.076221,-3.7078073
bagnet33,1,390,NaN,elephant,bear,16-0-10,0390_eid_dnn_16-0-10_bear_10_n02132136_9055.png,n02132136_9055.png,0.0,1.1566005,4.509035,-2.3705294
bagnet33,1,391,NaN,elephant,bear,64-0-10,0391_eid_dnn_64-0-10_bear_10_n02134084_7904.png,n02134084_7904.png,0.0,1.1905357,3.0427856,-1.3097385
bagnet33,1,392,NaN,bottle,clock,4-0-10,0392_eid_dnn_4-0-10_clock_10_n04548280_4526.png,n04548280_4526.png,0.0,2.521875,4.7829247,-1.5988036
bagnet33,1,393,NaN,bottle,bottle,1-0-10,0393_eid_dnn_1-0-10_bottle_10_n02823428_685.png,n02823428_685.png,1.0,5.40211,3.3762944,1.432468
bagnet33,1,394,NaN,cat,keyboard,64-0-10,0394_eid_dnn_64-0-10_keyboard_10_n04505470_3935.png,n04505470_3935.png,0.0,-1.0329905,5.066403,-4.3129225
bagnet33,1,395,NaN,cat,dog,64-0-10,0395_eid_dnn_64-0-10_dog_10_n02096051_3825.png,n02096051_3825.png,0.0,3.142529,3.3063443,-0.115834884
bagnet33,1,396,NaN,dog,dog,2-0-10,0396_eid_dnn_2-0-10_dog_10_n02089078_10601.png,n02089078_10601.png,1.0,3.2613337,1.5248469,1.2278816
bagnet33,1,397,NaN,clock,clock,2-0-10,0397_eid_dnn_2-0-10_clock_10_n02708093_5236.png,n02708093_5236.png,1.0,31.814926,6.8762083,17.634336
bagnet33,1,398,NaN,cat,cat,2-0-10,0398_eid_dnn_2-0-10_cat_10_n02123159_2682.png,n02123159_2682.png,1.0,10.278738,2.4160872,5.559734
bagnet33,1,399,NaN,chair,oven,1-0-10,0399_eid_dnn_1-0-10_oven_10_n04111531_10216.png,n04111531_10216.png,0.0,4.98569,6.6559296,-1.1810377
bagnet33,1,400,NaN,bottle,boat,2-0-10,0400_eid_dnn_2-0-10_boat_10_n02951358_7137.png,n02951358_7137.png,0.0,-1.383495,2.6503487,-2.852358
bagnet33,1,401,NaN,dog,bird,64-0-10,0401_eid_dnn_64-0-10_bird_10_n02007558_6127.png,n02007558_6127.png,0.0,1.0898674,3.7179816,-1.8583574
bagnet33,1,402,NaN,elephant,dog,16-0-10,0402_eid_dnn_16-0-10_dog_10_n02096051_4804.png,n02096051_4804.png,0.0,1.525931,3.7426293,-1.5674423
bagnet33,1,403,NaN,elephant,bottle,8-0-10,0403_eid_dnn_8-0-10_bottle_10_n03983396_13764.png,n03983396_13764.png,0.0,0.12770997,3.3676724,-2.2909997
bagnet33,1,404,NaN,elephant,knife,32-0-10,0404_eid_dnn_32-0-10_knife_10_n03041632_105081.png,n03041632_105081.png,0.0,0.2646116,3.9965563,-2.6388834
bagnet33,1,405,NaN,knife,boat,8-0-10,0405_eid_dnn_8-0-10_boat_10_n03344393_3535.png,n03344393_3535.png,0.0,0.3098125,1.4226911,-0.786924
bagnet33,1,406,NaN,knife,keyboard,64-0-10,0406_eid_dnn_64-0-10_keyboard_10_n03085013_22929.png,n03085013_22929.png,0.0,-2.5951,3.5474336,-4.343427
bagnet33,1,407,NaN,bottle,bottle,1-0-10,0407_eid_dnn_1-0-10_bottle_10_n04579145_5979.png,n04579145_5979.png,1.0,11.081536,2.9643254,5.7397346
bagnet33,1,408,NaN,knife,knife,2-0-10,0408_eid_dnn_2-0-10_knife_10_n03041632_31301.png,n03041632_31301.png,1.0,6.2778645,2.7425635,2.4998353
bagnet33,1,409,NaN,cat,car,128-0-10,0409_eid_dnn_128-0-10_car_10_n04285008_14653.png,n04285008_14653.png,0.0,-4.836285,5.313673,-7.177104
bagnet33,1,410,NaN,elephant,clock,16-0-10,0410_eid_dnn_16-0-10_clock_10_n03196217_1601.png,n03196217_1601.png,0.0,-2.8471966,9.301404,-8.590358
bagnet33,1,411,NaN,elephant,bicycle,8-0-10,0411_eid_dnn_8-0-10_bicycle_10_n02835271_25268.png,n02835271_25268.png,0.0,-0.97543216,5.185014,-4.3560934
bagnet33,1,412,NaN,elephant,bird,16-0-10,0412_eid_dnn_16-0-10_bird_10_n02037110_875.png,n02037110_875.png,0.0,-0.19642994,3.5345879,-2.638228
bagnet33,1,413,NaN,elephant,airplane,128-0-10,0413_eid_dnn_128-0-10_airplane_10_n02690373_6807.png,n02690373_6807.png,0.0,-4.441269,5.0414314,-6.7052817
bagnet33,1,414,NaN,bottle,clock,16-0-10,0414_eid_dnn_16-0-10_clock_10_n04548280_10066.png,n04548280_10066.png,0.0,1.1247183,2.3430417,-0.8614847
bagnet33,1,415,NaN,cat,boat,64-0-10,0415_eid_dnn_64-0-10_boat_10_n02951358_15252.png,n02951358_15252.png,0.0,-3.4255416,4.1212173,-5.3363643
bagnet33,1,416,NaN,cat,car,64-0-10,0416_eid_dnn_64-0-10_car_10_n02814533_4803.png,n02814533_4803.png,0.0,-5.0191803,4.402189,-6.6619143
bagnet33,1,417,NaN,elephant,car,16-0-10,0417_eid_dnn_16-0-10_car_10_n03100240_24544.png,n03100240_24544.png,0.0,-3.2433002,3.4200838,-4.7117243
bagnet33,1,418,NaN,cat,bear,128-0-10,0418_eid_dnn_128-0-10_bear_10_n02132136_4219.png,n02132136_4219.png,0.0,1.9565139,3.2333462,-0.9028568
bagnet33,1,419,NaN,cat,bicycle,32-0-10,0419_eid_dnn_32-0-10_bicycle_10_n02835271_507.png,n02835271_507.png,0.0,-1.8391072,3.1620226,-3.5363328
bagnet33,1,420,NaN,airplane,boat,1-0-10,0420_eid_dnn_1-0-10_boat_10_n04273569_13290.png,n04273569_13290.png,0.0,2.6208687,2.9014015,-0.19836667
bagnet33,1,421,NaN,bicycle,bicycle,2-0-10,0421_eid_dnn_2-0-10_bicycle_10_n03792782_42626.png,n03792782_42626.png,1.0,2.9725425,2.6108418,0.2557611
bagnet33,1,422,NaN,cat,dog,8-0-10,0422_eid_dnn_8-0-10_dog_10_n02106382_3856.png,n02106382_3856.png,0.0,1.8549812,2.9387848,-0.76636493
bagnet33,1,423,NaN,clock,clock,1-0-10,0423_eid_dnn_1-0-10_clock_10_n02708093_274.png,n02708093_274.png,1.0,13.707042,4.699329,6.3694153
bagnet33,1,424,NaN,elephant,bottle,32-0-10,0424_eid_dnn_32-0-10_bottle_10_n04591713_5921.png,n04591713_5921.png,0.0,-2.8787897,6.9635124,-6.959559
bagnet33,1,425,NaN,elephant,elephant,1-0-10,0425_eid_dnn_1-0-10_elephant_10_n02504458_3851.png,n02504458_3851.png,1.0,9.558323,3.3718634,4.3744874
bagnet33,1,426,NaN,elephant,dog,32-0-10,0426_eid_dnn_32-0-10_dog_10_n02105855_995.png,n02105855_995.png,0.0,1.5277919,5.1291027,-2.5465112
bagnet33,1,427,NaN,bottle,airplane,2-0-10,0427_eid_dnn_2-0-10_airplane_10_n02690373_1979.png,n02690373_1979.png,0.0,2.5095596,4.626723,-1.4970604
bagnet33,1,428,NaN,airplane,airplane,1-0-10,0428_eid_dnn_1-0-10_airplane_10_n02690373_6455.png,n02690373_6455.png,1.0,10.364432,4.336213,4.2625947
bagnet33,1,429,NaN,oven,oven,1-0-10,0429_eid_dnn_1-0-10_oven_10_n04111531_18979.png,n04111531_18979.png,1.0,9.8235,4.3038826,3.9029586
bagnet33,1,430,NaN,elephant,oven,32-0-10,0430_eid_dnn_32-0-10_oven_10_n04111531_16795.png,n04111531_16795.png,0.0,-1.9965922,5.549932,-5.3361983
bagnet33,1,431,NaN,bottle,truck,4-0-10,0431_eid_dnn_4-0-10_truck_10_n04467665_41076.png,n04467665_41076.png,0.0,1.4974393,2.6936193,-0.845827
bagnet33,1,432,NaN,elephant,bird,16-0-10,0432_eid_dnn_16-0-10_bird_10_n01534433_31697.png,n01534433_31697.png,0.0,0.30584207,4.7150865,-3.1178067
bagnet33,1,433,NaN,elephant,keyboard,128-0-10,0433_eid_dnn_128-0-10_keyboard_10_n04505470_4289.png,n04505470_4289.png,0.0,-0.7053352,4.2960653,-3.5365243
bagnet33,1,434,NaN,oven,keyboard,4-0-10,0434_eid_dnn_4-0-10_keyboard_10_n03085013_20727.png,n03085013_20727.png,0.0,0.5862141,3.1899493,-1.8411188
bagnet33,1,435,NaN,airplane,boat,8-0-10,0435_eid_dnn_8-0-10_boat_10_n04273569_7315.png,n04273569_7315.png,0.0,0.64010406,2.4017978,-1.2457056
bagnet33,1,436,NaN,bottle,car,1-0-10,0436_eid_dnn_1-0-10_car_10_n03100240_16646.png,n03100240_16646.png,0.0,3.2066364,3.4840558,-0.19616508
bagnet33,1,437,NaN,elephant,car,16-0-10,0437_eid_dnn_16-0-10_car_10_n03100240_5281.png,n03100240_5281.png,0.0,-3.210931,5.0824003,-5.8642707
bagnet33,1,438,NaN,knife,airplane,128-0-10,0438_eid_dnn_128-0-10_airplane_10_n02690373_1670.png,n02690373_1670.png,0.0,-3.1939666,3.2904968,-4.5852084
bagnet33,1,439,NaN,elephant,airplane,128-0-10,0439_eid_dnn_128-0-10_airplane_10_n02690373_9293.png,n02690373_9293.png,0.0,-2.885909,2.0190344,-3.468319
bagnet33,1,440,NaN,cat,truck,128-0-10,0440_eid_dnn_128-0-10_truck_10_n03796401_15846.png,n03796401_15846.png,0.0,-3.938287,3.0825303,-4.9644675
bagnet33,1,441,NaN,elephant,truck,32-0-10,0441_eid_dnn_32-0-10_truck_10_n03796401_6971.png,n03796401_6971.png,0.0,-2.9952965,4.137788,-5.0438523
bagnet33,1,442,NaN,bear,oven,128-0-10,0442_eid_dnn_128-0-10_oven_10_n04111531_10724.png,n04111531_10724.png,0.0,0.47576982,4.8950844,-3.1249273
bagnet33,1,443,NaN,elephant,keyboard,8-0-10,0443_eid_dnn_8-0-10_keyboard_10_n03085013_22187.png,n03085013_22187.png,0.0,-1.6580238,2.8022828,-3.153913
bagnet33,1,444,NaN,cat,oven,8-0-10,0444_eid_dnn_8-0-10_oven_10_n04111531_4671.png,n04111531_4671.png,0.0,0.15882623,1.8905576,-1.224519
bagnet33,1,445,NaN,airplane,airplane,4-0-10,0445_eid_dnn_4-0-10_airplane_10_n02690373_5142.png,n02690373_5142.png,1.0,3.6344101,1.7794873,1.3116286
bagnet33,1,446,NaN,elephant,elephant,4-0-10,0446_eid_dnn_4-0-10_elephant_10_n02504013_8562.png,n02504013_8562.png,1.0,6.3839245,1.6637617,3.3376591
bagnet33,1,447,NaN,truck,truck,1-0-10,0447_eid_dnn_1-0-10_truck_10_n03417042_9668.png,n03417042_9668.png,1.0,4.180402,2.9919822,0.84033954
bagnet33,1,448,NaN,dog,bottle,8-0-10,0448_eid_dnn_8-0-10_bottle_10_n03983396_10330.png,n03983396_10330.png,0.0,0.38106748,3.258034,-2.0343225
bagnet33,1,449,NaN,cat,elephant,128-0-10,0449_eid_dnn_128-0-10_elephant_10_n02504458_4395.png,n02504458_4395.png,0.0,3.2738886,4.2050843,-0.65845484
bagnet33,1,450,NaN,elephant,boat,64-0-10,0450_eid_dnn_64-0-10_boat_10_n03344393_4562.png,n03344393_4562.png,0.0,-3.4621558,5.756833,-6.5188093
bagnet33,1,451,NaN,oven,oven,2-0-10,0451_eid_dnn_2-0-10_oven_10_n04111531_10011.png,n04111531_10011.png,1.0,2.5513852,2.1462421,0.28647938
bagnet33,1,452,NaN,cat,oven,64-0-10,0452_eid_dnn_64-0-10_oven_10_n04111531_13797.png,n04111531_13797.png,0.0,0.44568235,5.585556,-3.6344395
bagnet33,1,453,NaN,bottle,boat,2-0-10,0453_eid_dnn_2-0-10_boat_10_n03662601_840.png,n03662601_840.png,0.0,2.3553543,4.5298724,-1.5376165
bagnet33,1,454,NaN,elephant,truck,16-0-10,0454_eid_dnn_16-0-10_truck_10_n03417042_17037.png,n03417042_17037.png,0.0,-1.6492238,5.3325744,-4.936877
bagnet33,1,455,NaN,elephant,cat,64-0-10,0455_eid_dnn_64-0-10_cat_10_n02125311_2576.png,n02125311_2576.png,0.0,2.6033597,3.500217,-0.63417387
bagnet33,1,456,NaN,knife,keyboard,32-0-10,0456_eid_dnn_32-0-10_keyboard_10_n03085013_3264.png,n03085013_3264.png,0.0,-1.8602846,3.6228359,-3.8771517
bagnet33,1,457,NaN,elephant,dog,64-0-10,0457_eid_dnn_64-0-10_dog_10_n02097130_3519.png,n02097130_3519.png,0.0,1.843917,2.7431946,-0.6358853
bagnet33,1,458,NaN,elephant,airplane,16-0-10,0458_eid_dnn_16-0-10_airplane_10_n02690373_4486.png,n02690373_4486.png,0.0,-1.6178999,3.0687828,-3.313985
bagnet33,1,459,NaN,elephant,bottle,16-0-10,0459_eid_dnn_16-0-10_bottle_10_n03983396_19635.png,n03983396_19635.png,0.0,-2.3831275,7.414282,-6.9278145
bagnet33,1,460,NaN,elephant,airplane,16-0-10,0460_eid_dnn_16-0-10_airplane_10_n02690373_1426.png,n02690373_1426.png,0.0,-0.2720521,4.587291,-3.4360745
bagnet33,1,461,NaN,oven,oven,4-0-10,0461_eid_dnn_4-0-10_oven_10_n04111531_5279.png,n04111531_5279.png,1.0,2.6076603,2.534424,0.051785834
bagnet33,1,462,NaN,elephant,bottle,64-0-10,0462_eid_dnn_64-0-10_bottle_10_n03983396_4024.png,n03983396_4024.png,0.0,-2.1737018,4.0887766,-4.428241
bagnet33,1,463,NaN,cat,bear,8-0-10,0463_eid_dnn_8-0-10_bear_10_n02133161_12751.png,n02133161_12751.png,0.0,2.5171976,3.9193065,-0.9914407
bagnet33,1,464,NaN,elephant,car,8-0-10,0464_eid_dnn_8-0-10_car_10_n02814533_12271.png,n02814533_12271.png,0.0,-2.6396058,4.39248,-4.9724355
bagnet33,1,465,NaN,cat,bottle,16-0-10,0465_eid_dnn_16-0-10_bottle_10_n04560804_5068.png,n04560804_5068.png,0.0,1.4064786,2.4895337,-0.7658356
bagnet33,1,466,NaN,cat,bottle,128-0-10,0466_eid_dnn_128-0-10_bottle_10_n04579145_1168.png,n04579145_1168.png,0.0,-2.7118049,4.308556,-4.9641447
bagnet33,1,467,NaN,elephant,knife,64-0-10,0467_eid_dnn_64-0-10_knife_10_n03041632_2973.png,n03041632_2973.png,0.0,-3.7829099,6.383321,-7.188611
bagnet33,1,468,NaN,elephant,airplane,16-0-10,0468_eid_dnn_16-0-10_airplane_10_n02690373_19329.png,n02690373_19329.png,0.0,-0.6946818,3.7954493,-3.175002
bagnet33,1,469,NaN,elephant,bottle,32-0-10,0469_eid_dnn_32-0-10_bottle_10_n04560804_1356.png,n04560804_1356.png,0.0,-1.3869842,3.7422082,-3.6268868
bagnet33,1,470,NaN,elephant,bear,8-0-10,0470_eid_dnn_8-0-10_bear_10_n02134084_3960.png,n02134084_3960.png,0.0,1.50115,4.62701,-2.2103167
bagnet33,1,471,NaN,elephant,boat,4-0-10,0471_eid_dnn_4-0-10_boat_10_n04612504_27504.png,n04612504_27504.png,0.0,-0.32619962,1.3742075,-1.2023695
bagnet33,1,472,NaN,cat,dog,4-0-10,0472_eid_dnn_4-0-10_dog_10_n02099601_9973.png,n02099601_9973.png,0.0,3.1362655,5.4975266,-1.6696638
bagnet33,1,473,NaN,cat,truck,64-0-10,0473_eid_dnn_64-0-10_truck_10_n03417042_26843.png,n03417042_26843.png,0.0,-3.0526676,5.0073776,-5.6993127
bagnet33,1,474,NaN,elephant,knife,64-0-10,0474_eid_dnn_64-0-10_knife_10_n03041632_55711.png,n03041632_55711.png,0.0,0.10252929,3.490466,-2.3956332
bagnet33,1,475,NaN,bear,elephant,8-0-10,0475_eid_dnn_8-0-10_elephant_10_n02504013_1986.png,n02504013_1986.png,0.0,3.6063664,4.9705553,-0.96462727
bagnet33,1,476,NaN,knife,keyboard,4-0-10,0476_eid_dnn_4-0-10_keyboard_10_n03085013_9475.png,n03085013_9475.png,0.0,1.6489778,3.5565856,-1.3488824
bagnet33,1,477,NaN,bird,elephant,32-0-10,0477_eid_dnn_32-0-10_elephant_10_n02504458_3381.png,n02504458_3381.png,0.0,2.389812,3.8401105,-1.0255159
bagnet33,1,478,NaN,knife,airplane,8-0-10,0478_eid_dnn_8-0-10_airplane_10_n02690373_1161.png,n02690373_1161.png,0.0,-0.9307694,1.7310019,-1.8821566
bagnet33,1,479,NaN,elephant,cat,64-0-10,0479_eid_dnn_64-0-10_cat_10_n02124075_7474.png,n02124075_7474.png,0.0,1.6228555,3.6619096,-1.4418288
bagnet33,1,480,NaN,cat,cat,4-0-10,0480_eid_dnn_4-0-10_cat_10_n02125311_9074.png,n02125311_9074.png,1.0,3.8420544,3.2365308,0.42816985
bagnet33,1,481,NaN,dog,airplane,128-0-10,0481_eid_dnn_128-0-10_airplane_10_n02690373_2867.png,n02690373_2867.png,0.0,-1.9201229,3.5806968,-3.889667
bagnet33,1,482,NaN,knife,elephant,2-0-10,0482_eid_dnn_2-0-10_elephant_10_n02504013_1692.png,n02504013_1692.png,0.0,1.6670735,4.054759,-1.6883487
bagnet33,1,483,NaN,bear,bird,8-0-10,0483_eid_dnn_8-0-10_bird_10_n02009912_11813.png,n02009912_11813.png,0.0,0.32373068,3.237648,-2.0604508
bagnet33,1,484,NaN,knife,bottle,16-0-10,0484_eid_dnn_16-0-10_bottle_10_n04557648_10302.png,n04557648_10302.png,0.0,1.229678,1.5030267,-0.19328672
bagnet33,1,485,NaN,bottle,keyboard,4-0-10,0485_eid_dnn_4-0-10_keyboard_10_n03085013_20302.png,n03085013_20302.png,0.0,1.8982495,3.64417,-1.2345523
bagnet33,1,486,NaN,cat,elephant,128-0-10,0486_eid_dnn_128-0-10_elephant_10_n02504458_5827.png,n02504458_5827.png,0.0,2.4700127,3.9502563,-1.0466903
bagnet33,1,487,NaN,knife,knife,1-0-10,0487_eid_dnn_1-0-10_knife_10_n03041632_11327.png,n03041632_11327.png,1.0,9.341435,8.473331,0.61384225
bagnet33,1,488,NaN,knife,bird,4-0-10,0488_eid_dnn_4-0-10_bird_10_n01795545_17770.png,n01795545_17770.png,0.0,-0.27977872,1.3180971,-1.1298689
bagnet33,1,489,NaN,elephant,bicycle,4-0-10,0489_eid_dnn_4-0-10_bicycle_10_n02835271_10932.png,n02835271_10932.png,0.0,0.409427,2.7808547,-1.6768527
bagnet33,1,490,NaN,dog,cat,2-0-10,0490_eid_dnn_2-0-10_cat_10_n02123597_14233.png,n02123597_14233.png,0.0,2.3358076,3.9241054,-1.1230962
bagnet33,1,491,NaN,bird,bird,1-0-10,0491_eid_dnn_1-0-10_bird_10_n01614925_7662.png,n01614925_7662.png,1.0,2.1627078,2.006213,0.11065858
bagnet33,1,492,NaN,elephant,truck,16-0-10,0492_eid_dnn_16-0-10_truck_10_n03417042_5875.png,n03417042_5875.png,0.0,-1.0059723,4.944138,-4.2073636
bagnet33,1,493,NaN,oven,bear,1-0-10,0493_eid_dnn_1-0-10_bear_10_n02134418_304.png,n02134418_304.png,0.0,1.8849616,3.2245173,-0.94720894
bagnet33,1,494,NaN,cat,bird,1-0-10,0494_eid_dnn_1-0-10_bird_10_n01622779_5148.png,n01622779_5148.png,0.0,0.6001004,4.271566,-2.5961182
bagnet33,1,495,NaN,knife,knife,1-0-10,0495_eid_dnn_1-0-10_knife_10_n03041632_44230.png,n03041632_44230.png,1.0,4.1125884,3.1876624,0.6540215
bagnet33,1,496,NaN,elephant,boat,32-0-10,0496_eid_dnn_32-0-10_boat_10_n03662601_8650.png,n03662601_8650.png,0.0,-1.6767914,3.815234,-3.8834484
bagnet33,1,497,NaN,elephant,oven,16-0-10,0497_eid_dnn_16-0-10_oven_10_n04111531_4346.png,n04111531_4346.png,0.0,1.9730191,5.415805,-2.4344172
bagnet33,1,498,NaN,clock,clock,2-0-10,0498_eid_dnn_2-0-10_clock_10_n03196217_2201.png,n03196217_2201.png,1.0,5.713852,4.0786924,1.1562324
bagnet33,1,499,NaN,knife,bicycle,64-0-10,0499_eid_dnn_64-0-10_bicycle_10_n02835271_8757.png,n02835271_8757.png,0.0,-2.4279165,3.668769,-4.3110075
bagnet33,1,500,NaN,cat,keyboard,8-0-10,0500_eid_dnn_8-0-10_keyboard_10_n03085013_23563.png,n03085013_23563.png,0.0,-0.65473616,1.1948344,-1.3078439
bagnet33,1,501,NaN,elephant,boat,64-0-10,0501_eid_dnn_64-0-10_boat_10_n04273569_15879.png,n04273569_15879.png,0.0,-2.2795346,4.4046564,-4.7264366
bagnet33,1,502,NaN,elephant,truck,64-0-10,0502_eid_dnn_64-0-10_truck_10_n04467665_30588.png,n04467665_30588.png,0.0,-2.1164622,3.3335052,-3.853709
bagnet33,1,503,NaN,elephant,truck,16-0-10,0503_eid_dnn_16-0-10_truck_10_n03417042_1875.png,n03417042_1875.png,0.0,-2.541298,4.576477,-5.033027
bagnet33,1,504,NaN,cat,cat,128-0-10,0504_eid_dnn_128-0-10_cat_10_n02123394_6014.png,n02123394_6014.png,1.0,5.0160885,4.3794556,0.45016745
bagnet33,1,505,NaN,boat,boat,1-0-10,0505_eid_dnn_1-0-10_boat_10_n04273569_10847.png,n04273569_10847.png,1.0,5.146737,3.3408973,1.2769216
bagnet33,1,506,NaN,bird,elephant,64-0-10,0506_eid_dnn_64-0-10_elephant_10_n02504013_5495.png,n02504013_5495.png,0.0,2.7326665,3.15152,-0.29617417
bagnet33,1,507,NaN,cat,bottle,128-0-10,0507_eid_dnn_128-0-10_bottle_10_n04560804_16276.png,n04560804_16276.png,0.0,-1.0692259,2.2169268,-2.323661
bagnet33,1,508,NaN,truck,car,1-0-10,0508_eid_dnn_1-0-10_car_10_n04285008_1243.png,n04285008_1243.png,0.0,2.898482,6.9479904,-2.8634348
bagnet33,1,509,NaN,elephant,keyboard,32-0-10,0509_eid_dnn_32-0-10_keyboard_10_n03085013_22027.png,n03085013_22027.png,0.0,-0.5591469,4.205947,-3.3694303
bagnet33,1,510,NaN,elephant,cat,32-0-10,0510_eid_dnn_32-0-10_cat_10_n02123045_12766.png,n02123045_12766.png,0.0,2.2172801,4.5028152,-1.6161174
bagnet33,1,511,NaN,cat,chair,64-0-10,0511_eid_dnn_64-0-10_chair_10_n04429376_29954.png,n04429376_29954.png,0.0,-0.925933,5.152346,-4.297992
bagnet33,1,512,NaN,elephant,elephant,32-0-10,0512_eid_dnn_32-0-10_elephant_10_n02504013_5678.png,n02504013_5678.png,1.0,3.6574626,2.5895705,0.7551137
bagnet33,1,513,NaN,knife,chair,4-0-10,0513_eid_dnn_4-0-10_chair_10_n03376595_6333.png,n03376595_6333.png,0.0,0.67442214,2.4353557,-1.2451681
bagnet33,1,514,NaN,keyboard,keyboard,2-0-10,0514_eid_dnn_2-0-10_keyboard_10_n03085013_22605.png,n03085013_22605.png,1.0,7.6149554,3.85697,2.657297
bagnet33,1,515,NaN,elephant,car,32-0-10,0515_eid_dnn_32-0-10_car_10_n04285008_16557.png,n04285008_16557.png,0.0,-3.638439,5.5478373,-6.4956784
bagnet33,1,516,NaN,elephant,bottle,64-0-10,0516_eid_dnn_64-0-10_bottle_10_n02823428_1034.png,n02823428_1034.png,0.0,-2.9518034,5.0353045,-5.6477385
bagnet33,1,517,NaN,elephant,elephant,16-0-10,0517_eid_dnn_16-0-10_elephant_10_n02504013_7777.png,n02504013_7777.png,1.0,6.5125694,2.8890455,2.5622184
bagnet33,1,518,NaN,bottle,knife,4-0-10,0518_eid_dnn_4-0-10_knife_10_n03041632_14293.png,n03041632_14293.png,0.0,1.3806508,2.0182874,-0.45087722
bagnet33,1,519,NaN,knife,knife,8-0-10,0519_eid_dnn_8-0-10_knife_10_n03041632_50423.png,n03041632_50423.png,1.0,2.3751006,2.2192175,0.11022598
bagnet33,1,520,NaN,bottle,chair,2-0-10,0520_eid_dnn_2-0-10_chair_10_n03376595_3043.png,n03376595_3043.png,0.0,3.3022447,3.8326347,-0.37504238
bagnet33,1,521,NaN,elephant,cat,8-0-10,0521_eid_dnn_8-0-10_cat_10_n02123394_2434.png,n02123394_2434.png,0.0,2.2194633,4.75213,-1.7908658
bagnet33,1,522,NaN,truck,truck,1-0-10,0522_eid_dnn_1-0-10_truck_10_n04467665_54079.png,n04467665_54079.png,1.0,5.6554217,3.9027243,1.2393442
bagnet33,1,523,NaN,bottle,bird,2-0-10,0523_eid_dnn_2-0-10_bird_10_n01855672_1001.png,n01855672_1001.png,0.0,-1.6529943,2.5055263,-2.9405181
bagnet33,1,524,NaN,bottle,bottle,1-0-10,0524_eid_dnn_1-0-10_bottle_10_n04560804_6112.png,n04560804_6112.png,1.0,7.9069505,2.580067,3.7666755
bagnet33,1,525,NaN,keyboard,keyboard,1-0-10,0525_eid_dnn_1-0-10_keyboard_10_n04505470_1744.png,n04505470_1744.png,1.0,7.6967583,5.63243,1.4597005
bagnet33,1,526,NaN,elephant,boat,32-0-10,0526_eid_dnn_32-0-10_boat_10_n02951358_15087.png,n02951358_15087.png,0.0,-4.5265512,5.4291596,-7.039751
bagnet33,1,527,NaN,elephant,bottle,4-0-10,0527_eid_dnn_4-0-10_bottle_10_n04557648_10051.png,n04557648_10051.png,0.0,1.7604073,4.52841,-1.9572734
bagnet33,1,528,NaN,elephant,bear,64-0-10,0528_eid_dnn_64-0-10_bear_10_n02134084_5794.png,n02134084_5794.png,0.0,1.5830328,3.9781969,-1.6936368
bagnet33,1,529,NaN,bottle,keyboard,4-0-10,0529_eid_dnn_4-0-10_keyboard_10_n04505470_751.png,n04505470_751.png,0.0,2.3057919,6.0703344,-2.6619337
bagnet33,1,530,NaN,elephant,boat,128-0-10,0530_eid_dnn_128-0-10_boat_10_n04273569_9306.png,n04273569_9306.png,0.0,-2.336337,3.822611,-4.355034
bagnet33,1,531,NaN,elephant,chair,16-0-10,0531_eid_dnn_16-0-10_chair_10_n02791124_9162.png,n02791124_9162.png,0.0,1.0813975,6.2522974,-3.6563785
bagnet33,1,532,NaN,elephant,bicycle,128-0-10,0532_eid_dnn_128-0-10_bicycle_10_n02835271_25033.png,n02835271_25033.png,0.0,-2.5554032,4.081355,-4.692897
bagnet33,1,533,NaN,cat,keyboard,128-0-10,0533_eid_dnn_128-0-10_keyboard_10_n04505470_3905.png,n04505470_3905.png,0.0,-1.8703457,4.197598,-4.290684
bagnet33,1,534,NaN,bottle,knife,4-0-10,0534_eid_dnn_4-0-10_knife_10_n03041632_32054.png,n03041632_32054.png,0.0,3.1827767,4.3495717,-0.8250487
bagnet33,1,535,NaN,cat,clock,8-0-10,0535_eid_dnn_8-0-10_clock_10_n03196217_13380.png,n03196217_13380.png,0.0,1.7117268,6.5588784,-3.427454
bagnet33,1,536,NaN,dog,chair,32-0-10,0536_eid_dnn_32-0-10_chair_10_n03376595_8083.png,n03376595_8083.png,0.0,1.418476,1.5215917,-0.072913796
bagnet33,1,537,NaN,elephant,cat,8-0-10,0537_eid_dnn_8-0-10_cat_10_n02125311_47927.png,n02125311_47927.png,0.0,4.251152,6.0955286,-1.3041712
bagnet33,1,538,NaN,elephant,boat,64-0-10,0538_eid_dnn_64-0-10_boat_10_n04273569_1141.png,n04273569_1141.png,0.0,-3.7085152,5.4522333,-6.4776273
bagnet33,1,539,NaN,elephant,dog,64-0-10,0539_eid_dnn_64-0-10_dog_10_n02097130_5859.png,n02097130_5859.png,0.0,1.8905442,3.2894282,-0.9891604
bagnet33,1,540,NaN,elephant,dog,16-0-10,0540_eid_dnn_16-0-10_dog_10_n02090721_835.png,n02090721_835.png,0.0,1.2067233,2.556242,-0.9542538
bagnet33,1,541,NaN,cat,bear,128-0-10,0541_eid_dnn_128-0-10_bear_10_n02132136_15806.png,n02132136_15806.png,0.0,1.9104705,2.8713703,-0.6794588
bagnet33,1,542,NaN,dog,cat,128-0-10,0542_eid_dnn_128-0-10_cat_10_n02124075_12069.png,n02124075_12069.png,0.0,4.3024907,4.838796,-0.37922522
bagnet33,1,543,NaN,oven,oven,2-0-10,0543_eid_dnn_2-0-10_oven_10_n04111531_21382.png,n04111531_21382.png,1.0,4.56891,2.6955988,1.3246311
bagnet33,1,544,NaN,bear,cat,1-0-10,0544_eid_dnn_1-0-10_cat_10_n02123597_2009.png,n02123597_2009.png,0.0,1.3695906,1.8279192,-0.32408726
bagnet33,1,545,NaN,elephant,oven,32-0-10,0545_eid_dnn_32-0-10_oven_10_n04111531_4392.png,n04111531_4392.png,0.0,-0.5624771,6.0677867,-4.6883044
bagnet33,1,546,NaN,elephant,boat,4-0-10,0546_eid_dnn_4-0-10_boat_10_n03344393_640.png,n03344393_640.png,0.0,-0.30434975,3.4471147,-2.6526859
bagnet33,1,547,NaN,bottle,car,4-0-10,0547_eid_dnn_4-0-10_car_10_n02814533_245.png,n02814533_245.png,0.0,0.47794405,3.3342767,-2.0197322
bagnet33,1,548,NaN,bird,bird,1-0-10,0548_eid_dnn_1-0-10_bird_10_n01530575_3831.png,n01530575_3831.png,1.0,3.9742858,3.2446017,0.51596457
bagnet33,1,549,NaN,truck,truck,2-0-10,0549_eid_dnn_2-0-10_truck_10_n04467665_32276.png,n04467665_32276.png,1.0,9.145853,5.214371,2.7799776
bagnet33,1,550,NaN,cat,elephant,64-0-10,0550_eid_dnn_64-0-10_elephant_10_n02504458_5941.png,n02504458_5941.png,0.0,1.5280572,2.996062,-1.0380362
bagnet33,1,551,NaN,elephant,elephant,4-0-10,0551_eid_dnn_4-0-10_elephant_10_n02504013_9796.png,n02504013_9796.png,1.0,3.8096669,2.7577007,0.74385244
bagnet33,1,552,NaN,bottle,airplane,4-0-10,0552_eid_dnn_4-0-10_airplane_10_n02690373_8214.png,n02690373_8214.png,0.0,2.885632,5.5672836,-1.896214
bagnet33,1,553,NaN,airplane,airplane,1-0-10,0553_eid_dnn_1-0-10_airplane_10_n02690373_8967.png,n02690373_8967.png,1.0,13.975872,3.558834,7.365958
bagnet33,1,554,NaN,elephant,elephant,64-0-10,0554_eid_dnn_64-0-10_elephant_10_n02504458_7642.png,n02504458_7642.png,1.0,4.0939503,3.3502617,0.5258672
bagnet33,1,555,NaN,truck,boat,1-0-10,0555_eid_dnn_1-0-10_boat_10_n04273569_15455.png,n04273569_15455.png,0.0,3.0544288,3.1288123,-0.052597076
bagnet33,1,556,NaN,elephant,knife,8-0-10,0556_eid_dnn_8-0-10_knife_10_n03041632_3063.png,n03041632_3063.png,0.0,0.6034415,6.1069727,-3.8915844
bagnet33,1,557,NaN,bottle,bottle,4-0-10,0557_eid_dnn_4-0-10_bottle_10_n03937543_4912.png,n03937543_4912.png,1.0,2.265731,1.7282608,0.38004893
bagnet33,1,558,NaN,knife,oven,4-0-10,0558_eid_dnn_4-0-10_oven_10_n04111531_5776.png,n04111531_5776.png,0.0,0.34446388,1.8201722,-1.0434834
bagnet33,1,559,NaN,cat,bottle,128-0-10,0559_eid_dnn_128-0-10_bottle_10_n03983396_4540.png,n03983396_4540.png,0.0,-3.7557468,5.093916,-6.2576566
bagnet33,1,560,NaN,knife,knife,2-0-10,0560_eid_dnn_2-0-10_knife_10_n03041632_965.png,n03041632_965.png,1.0,6.2612934,4.688234,1.1123211
bagnet33,1,561,NaN,elephant,knife,32-0-10,0561_eid_dnn_32-0-10_knife_10_n03041632_12949.png,n03041632_12949.png,0.0,2.587975,4.5972395,-1.4207646
bagnet33,1,562,NaN,elephant,knife,16-0-10,0562_eid_dnn_16-0-10_knife_10_n03041632_18766.png,n03041632_18766.png,0.0,1.6377681,5.551312,-2.7672935
bagnet33,1,563,NaN,elephant,keyboard,8-0-10,0563_eid_dnn_8-0-10_keyboard_10_n04505470_2869.png,n04505470_2869.png,0.0,0.09507349,3.579335,-2.4637449
bagnet33,1,564,NaN,elephant,bicycle,4-0-10,0564_eid_dnn_4-0-10_bicycle_10_n02835271_18537.png,n02835271_18537.png,0.0,-1.1396896,4.0330706,-3.6576936
bagnet33,1,565,NaN,knife,clock,32-0-10,0565_eid_dnn_32-0-10_clock_10_n04548280_1119.png,n04548280_1119.png,0.0,0.2622472,2.0942564,-1.2954261
bagnet33,1,566,NaN,oven,oven,1-0-10,0566_eid_dnn_1-0-10_oven_10_n04111531_687.png,n04111531_687.png,1.0,5.1904564,2.5236042,1.8857493
bagnet33,1,567,NaN,bird,chair,64-0-10,0567_eid_dnn_64-0-10_chair_10_n03376595_3038.png,n03376595_3038.png,0.0,-0.7858957,3.775057,-3.2250807
bagnet33,1,568,NaN,bird,bicycle,16-0-10,0568_eid_dnn_16-0-10_bicycle_10_n02835271_3989.png,n02835271_3989.png,0.0,-1.6623855,4.926786,-4.659248
bagnet33,1,569,NaN,elephant,dog,64-0-10,0569_eid_dnn_64-0-10_dog_10_n02096437_4563.png,n02096437_4563.png,0.0,2.434793,5.361421,-2.0694387
bagnet33,1,570,NaN,elephant,clock,32-0-10,0570_eid_dnn_32-0-10_clock_10_n02708093_685.png,n02708093_685.png,0.0,-1.7674265,6.614036,-5.926589
bagnet33,1,571,NaN,elephant,boat,32-0-10,0571_eid_dnn_32-0-10_boat_10_n03662601_8360.png,n03662601_8360.png,0.0,-3.9329216,8.267103,-8.62672
bagnet33,1,572,NaN,knife,keyboard,8-0-10,0572_eid_dnn_8-0-10_keyboard_10_n03085013_17035.png,n03085013_17035.png,0.0,-1.1877118,2.4901597,-2.6006482
bagnet33,1,573,NaN,bear,dog,64-0-10,0573_eid_dnn_64-0-10_dog_10_n02110063_12166.png,n02110063_12166.png,0.0,5.1765594,5.8699074,-0.49027103
bagnet33,1,574,NaN,cat,dog,2-0-10,0574_eid_dnn_2-0-10_dog_10_n02108422_6951.png,n02108422_6951.png,0.0,3.3377633,4.1468716,-0.572126
bagnet33,1,575,NaN,bird,bear,64-0-10,0575_eid_dnn_64-0-10_bear_10_n02134418_912.png,n02134418_912.png,0.0,1.561723,2.9172792,-0.95852304
bagnet33,1,576,NaN,dog,clock,4-0-10,0576_eid_dnn_4-0-10_clock_10_n02708093_564.png,n02708093_564.png,0.0,0.96342474,2.0807314,-0.79005516
bagnet33,1,577,NaN,dog,car,64-0-10,0577_eid_dnn_64-0-10_car_10_n04285008_11893.png,n04285008_11893.png,0.0,-2.7974255,3.9267697,-4.7547245
bagnet33,1,578,NaN,elephant,knife,64-0-10,0578_eid_dnn_64-0-10_knife_10_n03041632_20504.png,n03041632_20504.png,0.0,0.9907222,3.2618458,-1.605927
bagnet33,1,579,NaN,bottle,clock,4-0-10,0579_eid_dnn_4-0-10_clock_10_n04548280_4557.png,n04548280_4557.png,0.0,0.8411097,2.3775291,-1.0864125
bagnet33,1,580,NaN,elephant,clock,32-0-10,0580_eid_dnn_32-0-10_clock_10_n02708093_3360.png,n02708093_3360.png,0.0,0.17629571,3.3516874,-2.245341
bagnet33,1,581,NaN,knife,bear,16-0-10,0581_eid_dnn_16-0-10_bear_10_n02134084_617.png,n02134084_617.png,0.0,0.28688222,1.9636424,-1.1856486
bagnet33,1,582,NaN,bottle,dog,1-0-10,0582_eid_dnn_1-0-10_dog_10_n02093991_4081.png,n02093991_4081.png,0.0,-0.72021973,3.342506,-2.8727808
bagnet33,1,583,NaN,elephant,elephant,16-0-10,0583_eid_dnn_16-0-10_elephant_10_n02504458_1727.png,n02504458_1727.png,1.0,7.6987066,2.924257,3.3760455
bagnet33,1,584,NaN,elephant,clock,32-0-10,0584_eid_dnn_32-0-10_clock_10_n04548280_16295.png,n04548280_16295.png,0.0,-1.3666688,2.9389238,-3.0445137
bagnet33,1,585,NaN,cat,boat,4-0-10,0585_eid_dnn_4-0-10_boat_10_n02951358_16217.png,n02951358_16217.png,0.0,-2.6390882,3.6007426,-4.4122267
bagnet33,1,586,NaN,elephant,airplane,8-0-10,0586_eid_dnn_8-0-10_airplane_10_n02690373_7536.png,n02690373_7536.png,0.0,0.5111068,2.9430299,-1.7196294
bagnet33,1,587,NaN,cat,cat,8-0-10,0587_eid_dnn_8-0-10_cat_10_n02123597_22140.png,n02123597_22140.png,1.0,2.033986,1.417222,0.43611807
bagnet33,1,588,NaN,bird,bottle,128-0-10,0588_eid_dnn_128-0-10_bottle_10_n04591713_8914.png,n04591713_8914.png,0.0,-0.5128005,3.8187532,-3.0628712
bagnet33,1,589,NaN,elephant,car,128-0-10,0589_eid_dnn_128-0-10_car_10_n03100240_963.png,n03100240_963.png,0.0,-4.331356,3.856723,-5.7898464
bagnet33,1,590,NaN,cat,boat,32-0-10,0590_eid_dnn_32-0-10_boat_10_n02951358_18762.png,n02951358_18762.png,0.0,-2.8721879,2.401827,-3.729292
bagnet33,1,591,NaN,elephant,bear,32-0-10,0591_eid_dnn_32-0-10_bear_10_n02134418_2633.png,n02134418_2633.png,0.0,2.747984,4.970525,-1.5715737
bagnet33,1,592,NaN,elephant,airplane,64-0-10,0592_eid_dnn_64-0-10_airplane_10_n02690373_1169.png,n02690373_1169.png,0.0,-1.2762635,3.5857983,-3.4379966
bagnet33,1,593,NaN,bicycle,bicycle,2-0-10,0593_eid_dnn_2-0-10_bicycle_10_n03792782_12704.png,n03792782_12704.png,1.0,3.8902752,3.3446462,0.385818
bagnet33,1,594,NaN,bear,dog,64-0-10,0594_eid_dnn_64-0-10_dog_10_n02088238_2973.png,n02088238_2973.png,0.0,3.9654508,4.312456,-0.24536985
bagnet33,1,595,NaN,elephant,knife,32-0-10,0595_eid_dnn_32-0-10_knife_10_n03041632_41493.png,n03041632_41493.png,0.0,-1.043583,4.0079856,-3.5719984
bagnet33,1,596,NaN,elephant,bottle,128-0-10,0596_eid_dnn_128-0-10_bottle_10_n03983396_2959.png,n03983396_2959.png,0.0,-2.5971634,4.237644,-4.8329387
bagnet33,1,597,NaN,clock,clock,1-0-10,0597_eid_dnn_1-0-10_clock_10_n02708093_2843.png,n02708093_2843.png,1.0,19.108196,7.419498,8.265158
bagnet33,1,598,NaN,elephant,oven,8-0-10,0598_eid_dnn_8-0-10_oven_10_n04111531_12952.png,n04111531_12952.png,0.0,1.4997511,5.064131,-2.5203972
bagnet33,1,599,NaN,elephant,bear,16-0-10,0599_eid_dnn_16-0-10_bear_10_n02134418_2891.png,n02134418_2891.png,0.0,1.2617679,3.5474944,-1.6162528
bagnet33,1,600,NaN,elephant,truck,32-0-10,0600_eid_dnn_32-0-10_truck_10_n03417042_3862.png,n03417042_3862.png,0.0,-2.917361,3.6940248,-4.674956
bagnet33,1,601,NaN,elephant,elephant,16-0-10,0601_eid_dnn_16-0-10_elephant_10_n02504458_2054.png,n02504458_2054.png,1.0,6.4760685,3.9349444,1.7968462
bagnet33,1,602,NaN,airplane,airplane,1-0-10,0602_eid_dnn_1-0-10_airplane_10_n02690373_7355.png,n02690373_7355.png,1.0,11.849649,3.3031726,6.0432715
bagnet33,1,603,NaN,bear,knife,128-0-10,0603_eid_dnn_128-0-10_knife_10_n03041632_22738.png,n03041632_22738.png,0.0,-0.7433418,5.414071,-4.3539486
bagnet33,1,604,NaN,oven,oven,1-0-10,0604_eid_dnn_1-0-10_oven_10_n04111531_4250.png,n04111531_4250.png,1.0,9.430738,2.1088219,5.1773767
bagnet33,1,605,NaN,knife,clock,8-0-10,0605_eid_dnn_8-0-10_clock_10_n04548280_7826.png,n04548280_7826.png,0.0,-1.4569077,2.501656,-2.7991273
bagnet33,1,606,NaN,elephant,clock,64-0-10,0606_eid_dnn_64-0-10_clock_10_n04548280_17198.png,n04548280_17198.png,0.0,-1.7360135,3.384595,-3.620817
bagnet33,1,607,NaN,elephant,bicycle,128-0-10,0607_eid_dnn_128-0-10_bicycle_10_n02835271_4726.png,n02835271_4726.png,0.0,-1.6666288,3.8543124,-3.9038951
bagnet33,1,608,NaN,cat,chair,128-0-10,0608_eid_dnn_128-0-10_chair_10_n03376595_9079.png,n03376595_9079.png,0.0,-2.2283292,2.945371,-3.6583586
bagnet33,1,609,NaN,knife,airplane,4-0-10,0609_eid_dnn_4-0-10_airplane_10_n02690373_2324.png,n02690373_2324.png,0.0,-0.23230481,1.4708421,-1.2043067
bagnet33,1,610,NaN,bird,dog,64-0-10,0610_eid_dnn_64-0-10_dog_10_n02104029_5234.png,n02104029_5234.png,0.0,1.9397355,3.8093233,-1.3219982
bagnet33,1,611,NaN,bottle,bottle,2-0-10,0611_eid_dnn_2-0-10_bottle_10_n04591713_335.png,n04591713_335.png,1.0,5.005639,3.3644748,1.1604785
bagnet33,1,612,NaN,knife,airplane,2-0-10,0612_eid_dnn_2-0-10_airplane_10_n02690373_4148.png,n02690373_4148.png,0.0,1.4335396,5.7097487,-3.0237362
bagnet33,1,613,NaN,bear,bear,2-0-10,0613_eid_dnn_2-0-10_bear_10_n02134084_18800.png,n02134084_18800.png,1.0,4.942837,4.3121467,0.4459656
bagnet33,1,614,NaN,elephant,boat,16-0-10,0614_eid_dnn_16-0-10_boat_10_n03662601_1191.png,n03662601_1191.png,0.0,-2.3486044,6.3957357,-6.1831822
bagnet33,1,615,NaN,keyboard,keyboard,2-0-10,0615_eid_dnn_2-0-10_keyboard_10_n04505470_4505.png,n04505470_4505.png,1.0,19.960793,11.0376215,6.3096347
bagnet33,1,616,NaN,knife,knife,4-0-10,0616_eid_dnn_4-0-10_knife_10_n03041632_1607.png,n03041632_1607.png,1.0,2.580097,1.5934706,0.6976502
bagnet33,1,617,NaN,elephant,car,32-0-10,0617_eid_dnn_32-0-10_car_10_n03100240_11224.png,n03100240_11224.png,0.0,-4.1106396,6.590601,-7.56692
bagnet33,1,618,NaN,bird,airplane,128-0-10,0618_eid_dnn_128-0-10_airplane_10_n02690373_7142.png,n02690373_7142.png,0.0,-1.5414059,2.3293595,-2.7370446
bagnet33,1,619,NaN,knife,airplane,4-0-10,0619_eid_dnn_4-0-10_airplane_10_n02690373_18693.png,n02690373_18693.png,0.0,0.7623048,3.0973895,-1.6511543
bagnet33,1,620,NaN,elephant,chair,8-0-10,0620_eid_dnn_8-0-10_chair_10_n03376595_3214.png,n03376595_3214.png,0.0,-1.7991943,5.1600657,-4.92094
bagnet33,1,621,NaN,elephant,boat,16-0-10,0621_eid_dnn_16-0-10_boat_10_n03662601_17198.png,n03662601_17198.png,0.0,0.27394778,2.713821,-1.725251
bagnet33,1,622,NaN,elephant,knife,32-0-10,0622_eid_dnn_32-0-10_knife_10_n03041632_27879.png,n03041632_27879.png,0.0,-0.45452318,3.685316,-2.9273083
bagnet33,1,623,NaN,oven,chair,1-0-10,0623_eid_dnn_1-0-10_chair_10_n02791124_3601.png,n02791124_3601.png,0.0,4.3438535,4.9663363,-0.4401618
bagnet33,1,624,NaN,elephant,bicycle,16-0-10,0624_eid_dnn_16-0-10_bicycle_10_n03792782_10876.png,n03792782_10876.png,0.0,-2.178102,4.8245792,-4.9516435
bagnet33,1,625,NaN,keyboard,clock,4-0-10,0625_eid_dnn_4-0-10_clock_10_n03196217_5568.png,n03196217_5568.png,0.0,2.8083858,4.5986176,-1.265885
bagnet33,1,626,NaN,elephant,truck,16-0-10,0626_eid_dnn_16-0-10_truck_10_n04467665_2695.png,n04467665_2695.png,0.0,-2.6611,6.760904,-6.662363
bagnet33,1,627,NaN,elephant,elephant,8-0-10,0627_eid_dnn_8-0-10_elephant_10_n02504013_4005.png,n02504013_4005.png,1.0,7.0037603,3.4548714,2.5094435
bagnet33,1,628,NaN,cat,elephant,128-0-10,0628_eid_dnn_128-0-10_elephant_10_n02504458_3094.png,n02504458_3094.png,0.0,2.0119667,3.0118475,-0.7070225
bagnet33,1,629,NaN,elephant,bear,8-0-10,0629_eid_dnn_8-0-10_bear_10_n02134418_6133.png,n02134418_6133.png,0.0,2.1091557,3.2950792,-0.8385746
bagnet33,1,630,NaN,cat,truck,128-0-10,0630_eid_dnn_128-0-10_truck_10_n03796401_9953.png,n03796401_9953.png,0.0,-3.4197724,4.147734,-5.3510356
bagnet33,1,631,NaN,knife,cat,8-0-10,0631_eid_dnn_8-0-10_cat_10_n02123597_10199.png,n02123597_10199.png,0.0,1.7661291,2.324428,-0.39477697
bagnet33,1,632,NaN,cat,cat,2-0-10,0632_eid_dnn_2-0-10_cat_10_n02124075_11153.png,n02124075_11153.png,1.0,3.352827,2.681564,0.47465461
bagnet33,1,633,NaN,elephant,bicycle,64-0-10,0633_eid_dnn_64-0-10_bicycle_10_n02835271_7900.png,n02835271_7900.png,0.0,-1.3904569,5.7642775,-5.0591617
bagnet33,1,634,NaN,knife,knife,4-0-10,0634_eid_dnn_4-0-10_knife_10_n03041632_12748.png,n03041632_12748.png,1.0,5.7439203,2.6856613,2.1625156
bagnet33,1,635,NaN,cat,bear,16-0-10,0635_eid_dnn_16-0-10_bear_10_n02134418_244.png,n02134418_244.png,0.0,2.3667822,4.421908,-1.4531933
bagnet33,1,636,NaN,elephant,bicycle,4-0-10,0636_eid_dnn_4-0-10_bicycle_10_n03792782_22908.png,n03792782_22908.png,0.0,-0.5459142,3.7000754,-3.0023682
bagnet33,1,637,NaN,knife,elephant,8-0-10,0637_eid_dnn_8-0-10_elephant_10_n02504458_3234.png,n02504458_3234.png,0.0,1.1838887,1.7716513,-0.4156109
bagnet33,1,638,NaN,clock,clock,1-0-10,0638_eid_dnn_1-0-10_clock_10_n03196217_3063.png,n03196217_3063.png,1.0,6.591891,5.842308,0.5300351
bagnet33,1,639,NaN,clock,clock,4-0-10,0639_eid_dnn_4-0-10_clock_10_n03196217_5688.png,n03196217_5688.png,1.0,1.3752823,1.2007527,0.12341103
bagnet33,1,640,NaN,bottle,bottle,2-0-10,0640_eid_dnn_2-0-10_bottle_10_n04591713_2123.png,n04591713_2123.png,1.0,12.438601,4.719309,5.4583635
bagnet33,1,641,NaN,knife,knife,2-0-10,0641_eid_dnn_2-0-10_knife_10_n03041632_13424.png,n03041632_13424.png,1.0,3.172645,3.0743928,0.06947487
bagnet33,1,642,NaN,elephant,chair,64-0-10,0642_eid_dnn_64-0-10_chair_10_n03376595_989.png,n03376595_989.png,0.0,-1.3429158,7.013118,-5.908608
bagnet33,1,643,NaN,elephant,elephant,8-0-10,0643_eid_dnn_8-0-10_elephant_10_n02504458_3953.png,n02504458_3953.png,1.0,5.8048716,3.736276,1.462718
bagnet33,1,644,NaN,cat,bird,4-0-10,0644_eid_dnn_4-0-10_bird_10_n01796340_4181.png,n01796340_4181.png,0.0,1.9550762,3.5119188,-1.1008539
bagnet33,1,645,NaN,bicycle,bicycle,1-0-10,0645_eid_dnn_1-0-10_bicycle_10_n02835271_17357.png,n02835271_17357.png,1.0,8.396417,5.083797,2.342376
bagnet33,1,646,NaN,knife,bird,1-0-10,0646_eid_dnn_1-0-10_bird_10_n02006656_9134.png,n02006656_9134.png,0.0,1.7986662,1.9703606,-0.12140627
bagnet33,1,647,NaN,cat,bear,64-0-10,0647_eid_dnn_64-0-10_bear_10_n02134418_1307.png,n02134418_1307.png,0.0,-1.1013148,4.5545955,-3.9993327
bagnet33,1,648,NaN,elephant,chair,64-0-10,0648_eid_dnn_64-0-10_chair_10_n02791124_4432.png,n02791124_4432.png,0.0,-0.6464703,5.630592,-4.4385533
bagnet33,1,649,NaN,dog,oven,32-0-10,0649_eid_dnn_32-0-10_oven_10_n04111531_21309.png,n04111531_21309.png,0.0,0.5727475,4.853985,-3.0272918
bagnet33,1,650,NaN,elephant,car,16-0-10,0650_eid_dnn_16-0-10_car_10_n04285008_6325.png,n04285008_6325.png,0.0,-3.4320514,6.1725235,-6.7914605
bagnet33,1,651,NaN,knife,boat,32-0-10,0651_eid_dnn_32-0-10_boat_10_n03344393_5599.png,n03344393_5599.png,0.0,-1.0779736,2.9289002,-2.833288
bagnet33,1,652,NaN,cat,cat,32-0-10,0652_eid_dnn_32-0-10_cat_10_n02123159_7616.png,n02123159_7616.png,1.0,3.1494734,2.853875,0.2090197
bagnet33,1,653,NaN,bottle,car,4-0-10,0653_eid_dnn_4-0-10_car_10_n02814533_11273.png,n02814533_11273.png,0.0,0.42540967,4.3800187,-2.796331
bagnet33,1,654,NaN,bottle,oven,1-0-10,0654_eid_dnn_1-0-10_oven_10_n04111531_5357.png,n04111531_5357.png,0.0,3.2852237,4.3793406,-0.7736575
bagnet33,1,655,NaN,bear,truck,4-0-10,0655_eid_dnn_4-0-10_truck_10_n04467665_68250.png,n04467665_68250.png,0.0,1.8266119,2.9077377,-0.7644714
bagnet33,1,656,NaN,dog,dog,2-0-10,0656_eid_dnn_2-0-10_dog_10_n02102177_3185.png,n02102177_3185.png,1.0,5.9688687,1.2524045,3.3350437
bagnet33,1,657,NaN,elephant,truck,8-0-10,0657_eid_dnn_8-0-10_truck_10_n03417042_11439.png,n03417042_11439.png,0.0,-1.1716075,5.3535967,-4.614016
bagnet33,1,658,NaN,cat,keyboard,8-0-10,0658_eid_dnn_8-0-10_keyboard_10_n04505470_4776.png,n04505470_4776.png,0.0,-0.39205942,3.8206627,-2.9788446
bagnet33,1,659,NaN,bicycle,chair,1-0-10,0659_eid_dnn_1-0-10_chair_10_n04099969_4675.png,n04099969_4675.png,0.0,2.205975,2.5274003,-0.22728194
bagnet33,1,660,NaN,elephant,chair,16-0-10,0660_eid_dnn_16-0-10_chair_10_n02791124_14.png,n02791124_14.png,0.0,0.5909101,5.3148026,-3.3402965
bagnet33,1,661,NaN,dog,dog,1-0-10,0661_eid_dnn_1-0-10_dog_10_n02086646_5896.png,n02086646_5896.png,1.0,11.196084,5.041605,4.351874
bagnet33,1,662,NaN,elephant,truck,16-0-10,0662_eid_dnn_16-0-10_truck_10_n03796401_7421.png,n03796401_7421.png,0.0,-3.6238647,5.475549,-6.4342575
bagnet33,1,663,NaN,cat,keyboard,128-0-10,0663_eid_dnn_128-0-10_keyboard_10_n04505470_713.png,n04505470_713.png,0.0,2.5246322,6.0729756,-2.5090578
bagnet33,1,664,NaN,elephant,clock,64-0-10,0664_eid_dnn_64-0-10_clock_10_n04548280_1324.png,n04548280_1324.png,0.0,-2.6232097,4.0920196,-4.748384
bagnet33,1,665,NaN,knife,bottle,8-0-10,0665_eid_dnn_8-0-10_bottle_10_n04591713_4474.png,n04591713_4474.png,0.0,1.3841659,1.7938664,-0.28970203
bagnet33,1,666,NaN,elephant,bird,16-0-10,0666_eid_dnn_16-0-10_bird_10_n01855672_4659.png,n01855672_4659.png,0.0,1.2416724,7.6005483,-4.496404
bagnet33,1,667,NaN,keyboard,keyboard,1-0-10,0667_eid_dnn_1-0-10_keyboard_10_n03085013_8677.png,n03085013_8677.png,1.0,6.095544,3.354647,1.9381069
bagnet33,1,668,NaN,bear,bear,2-0-10,0668_eid_dnn_2-0-10_bear_10_n02134418_3584.png,n02134418_3584.png,1.0,7.105755,5.4515896,1.1696715
bagnet33,1,669,NaN,bottle,airplane,4-0-10,0669_eid_dnn_4-0-10_airplane_10_n02690373_4061.png,n02690373_4061.png,0.0,0.7815169,3.1640835,-1.684729
bagnet33,1,670,NaN,knife,bear,4-0-10,0670_eid_dnn_4-0-10_bear_10_n02133161_499.png,n02133161_499.png,0.0,0.6632196,2.0726328,-0.99660563
bagnet33,1,671,NaN,chair,chair,2-0-10,0671_eid_dnn_2-0-10_chair_10_n03376595_3462.png,n03376595_3462.png,1.0,2.9433198,2.4177833,0.37161046
bagnet33,1,672,NaN,knife,boat,4-0-10,0672_eid_dnn_4-0-10_boat_10_n04273569_16362.png,n04273569_16362.png,0.0,2.2694473,2.8860574,-0.43600917
bagnet33,1,673,NaN,airplane,airplane,1-0-10,0673_eid_dnn_1-0-10_airplane_10_n02690373_8592.png,n02690373_8592.png,1.0,11.519397,3.246547,5.8497887
bagnet33,1,674,NaN,elephant,chair,32-0-10,0674_eid_dnn_32-0-10_chair_10_n04099969_6217.png,n04099969_6217.png,0.0,-0.34149987,6.2695236,-4.6747
bagnet33,1,675,NaN,bottle,bottle,1-0-10,0675_eid_dnn_1-0-10_bottle_10_n03937543_299.png,n03937543_299.png,1.0,7.853566,5.3020935,1.8041637
bagnet33,1,676,NaN,clock,clock,2-0-10,0676_eid_dnn_2-0-10_clock_10_n03196217_300.png,n03196217_300.png,1.0,12.850914,12.555922,0.20859116
bagnet33,1,677,NaN,elephant,bear,32-0-10,0677_eid_dnn_32-0-10_bear_10_n02132136_8516.png,n02132136_8516.png,0.0,0.8423382,3.4717345,-1.8592641
bagnet33,1,678,NaN,oven,bottle,4-0-10,0678_eid_dnn_4-0-10_bottle_10_n04557648_1938.png,n04557648_1938.png,0.0,1.7619616,2.3181777,-0.3933042
bagnet33,1,679,NaN,cat,airplane,16-0-10,0679_eid_dnn_16-0-10_airplane_10_n02690373_19118.png,n02690373_19118.png,0.0,-0.8863807,1.1110185,-1.4123745
bagnet33,1,680,NaN,cat,oven,128-0-10,0680_eid_dnn_128-0-10_oven_10_n04111531_891.png,n04111531_891.png,0.0,-0.14095259,3.1746094,-2.3444564
bagnet33,1,681,NaN,elephant,elephant,2-0-10,0681_eid_dnn_2-0-10_elephant_10_n02504458_37.png,n02504458_37.png,1.0,2.7121596,2.6806507,0.022280173
bagnet33,1,682,NaN,oven,chair,2-0-10,0682_eid_dnn_2-0-10_chair_10_n04429376_24375.png,n04429376_24375.png,0.0,2.4692223,4.429223,-1.3859298
bagnet33,1,683,NaN,elephant,knife,64-0-10,0683_eid_dnn_64-0-10_knife_10_n03041632_46914.png,n03041632_46914.png,0.0,-1.3711506,3.5269213,-3.4634597
bagnet33,1,684,NaN,airplane,truck,2-0-10,0684_eid_dnn_2-0-10_truck_10_n04467665_78325.png,n04467665_78325.png,0.0,5.1965427,5.6938434,-0.35164467
bagnet33,1,685,NaN,elephant,elephant,8-0-10,0685_eid_dnn_8-0-10_elephant_10_n02504013_2438.png,n02504013_2438.png,1.0,4.2281413,3.7946508,0.3065241
bagnet33,1,686,NaN,knife,boat,4-0-10,0686_eid_dnn_4-0-10_boat_10_n02951358_13456.png,n02951358_13456.png,0.0,-1.7364051,1.9602609,-2.6139376
bagnet33,1,687,NaN,elephant,keyboard,32-0-10,0687_eid_dnn_32-0-10_keyboard_10_n04505470_4922.png,n04505470_4922.png,0.0,1.277066,4.0502453,-1.9609339
bagnet33,1,688,NaN,knife,boat,2-0-10,0688_eid_dnn_2-0-10_boat_10_n02951358_4363.png,n02951358_4363.png,0.0,-0.041649602,1.7124262,-1.2403189
bagnet33,1,689,NaN,keyboard,keyboard,2-0-10,0689_eid_dnn_2-0-10_keyboard_10_n03085013_28083.png,n03085013_28083.png,1.0,35.215042,9.362959,18.280184
bagnet33,1,690,NaN,chair,chair,2-0-10,0690_eid_dnn_2-0-10_chair_10_n02791124_17035.png,n02791124_17035.png,1.0,4.0886865,2.8487754,0.8767496
bagnet33,1,691,NaN,bear,bird,4-0-10,0691_eid_dnn_4-0-10_bird_10_n02028035_32557.png,n02028035_32557.png,0.0,0.078007475,1.3400066,-0.89236814
bagnet33,1,692,NaN,elephant,bicycle,128-0-10,0692_eid_dnn_128-0-10_bicycle_10_n02835271_3298.png,n02835271_3298.png,0.0,-2.2921307,3.3972917,-4.0230293
bagnet33,1,693,NaN,elephant,boat,8-0-10,0693_eid_dnn_8-0-10_boat_10_n02951358_15422.png,n02951358_15422.png,0.0,-3.589007,4.669942,-5.839959
bagnet33,1,694,NaN,cat,cat,1-0-10,0694_eid_dnn_1-0-10_cat_10_n02123597_3398.png,n02123597_3398.png,1.0,9.180843,4.5092893,3.3032877
bagnet33,1,695,NaN,cat,boat,4-0-10,0695_eid_dnn_4-0-10_boat_10_n02951358_2330.png,n02951358_2330.png,0.0,0.56306183,2.1442869,-1.1180949
bagnet33,1,696,NaN,elephant,airplane,128-0-10,0696_eid_dnn_128-0-10_airplane_10_n02690373_6929.png,n02690373_6929.png,0.0,-2.1122375,5.9707336,-5.715524
