subj,session,trial,rt,object_response,category,condition,imagename,filename,is_correct,targ_act,max_nontarg_act,decision_margin
alexnet,1,1,NaN,cat,oven,16-0-10,0001_eid_dnn_16-0-10_oven_10_n04111531_13542.png,n04111531_13542.png,0.0,2.8691878,3.33039,-0.32611915
alexnet,1,2,NaN,car,car,4-0-10,0002_eid_dnn_4-0-10_car_10_n03100240_5570.png,n03100240_5570.png,1.0,6.3015075,4.294749,1.4189928
alexnet,1,3,NaN,cat,bird,8-0-10,0003_eid_dnn_8-0-10_bird_10_n01820546_4847.png,n01820546_4847.png,0.0,-1.9230286,5.929212,-5.5523725
alexnet,1,4,NaN,bear,bear,32-0-10,0004_eid_dnn_32-0-10_bear_10_n02133161_15561.png,n02133161_15561.png,1.0,3.2045422,2.7829344,0.2981217
alexnet,1,5,NaN,elephant,bird,64-0-10,0005_eid_dnn_64-0-10_bird_10_n01531178_9584.png,n01531178_9584.png,0.0,-0.1572444,2.4176836,-1.8207492
alexnet,1,6,NaN,bear,bicycle,8-0-10,0006_eid_dnn_8-0-10_bicycle_10_n02835271_18846.png,n02835271_18846.png,0.0,-0.3820231,4.747563,-3.6271653
alexnet,1,7,NaN,oven,oven,4-0-10,0007_eid_dnn_4-0-10_oven_10_n04111531_73.png,n04111531_73.png,1.0,5.2204294,4.2410316,0.6925388
alexnet,1,8,NaN,clock,clock,2-0-10,0008_eid_dnn_2-0-10_clock_10_n04548280_6159.png,n04548280_6159.png,1.0,4.7164245,4.1191874,0.4223104
alexnet,1,9,NaN,oven,chair,32-0-10,0009_eid_dnn_32-0-10_chair_10_n03376595_9395.png,n03376595_9395.png,0.0,0.54954994,3.7695212,-2.2768636
alexnet,1,10,NaN,bicycle,bicycle,64-0-10,0010_eid_dnn_64-0-10_bicycle_10_n02835271_1918.png,n02835271_1918.png,1.0,1.5841107,1.3449436,0.16911668
alexnet,1,11,NaN,cat,bicycle,128-0-10,0011_eid_dnn_128-0-10_bicycle_10_n02835271_42320.png,n02835271_42320.png,0.0,0.15949148,3.5548942,-2.4009123
alexnet,1,12,NaN,elephant,elephant,1-0-10,0012_eid_dnn_1-0-10_elephant_10_n02504458_3628.png,n02504458_3628.png,1.0,11.858547,6.8621454,3.5329897
alexnet,1,13,NaN,bear,knife,64-0-10,0013_eid_dnn_64-0-10_knife_10_n03041632_86554.png,n03041632_86554.png,0.0,-0.8802142,2.3460507,-2.281314
alexnet,1,14,NaN,dog,cat,8-0-10,0014_eid_dnn_8-0-10_cat_10_n02123394_1726.png,n02123394_1726.png,0.0,1.2958126,2.49576,-0.84849095
alexnet,1,15,NaN,dog,cat,32-0-10,0015_eid_dnn_32-0-10_cat_10_n02123597_6721.png,n02123597_6721.png,0.0,1.9864303,3.3475273,-0.9624409
alexnet,1,16,NaN,elephant,oven,2-0-10,0016_eid_dnn_2-0-10_oven_10_n04111531_21869.png,n04111531_21869.png,0.0,2.4728727,3.845231,-0.9704039
alexnet,1,17,NaN,dog,bear,4-0-10,0017_eid_dnn_4-0-10_bear_10_n02134084_2949.png,n02134084_2949.png,0.0,1.6633816,3.2838476,-1.1458426
alexnet,1,18,NaN,dog,truck,8-0-10,0018_eid_dnn_8-0-10_truck_10_n03417042_18743.png,n03417042_18743.png,0.0,-0.49238718,2.819151,-2.3416111
alexnet,1,19,NaN,dog,bird,16-0-10,0019_eid_dnn_16-0-10_bird_10_n01616318_4246.png,n01616318_4246.png,0.0,-1.3083159,2.669774,-2.8129344
alexnet,1,20,NaN,dog,bicycle,8-0-10,0020_eid_dnn_8-0-10_bicycle_10_n03792782_66771.png,n03792782_66771.png,0.0,-0.17878267,3.2032986,-2.3914926
alexnet,1,21,NaN,keyboard,keyboard,2-0-10,0021_eid_dnn_2-0-10_keyboard_10_n04505470_3531.png,n04505470_3531.png,1.0,14.545776,5.9622746,6.0694523
alexnet,1,22,NaN,bottle,clock,8-0-10,0022_eid_dnn_8-0-10_clock_10_n04548280_6463.png,n04548280_6463.png,0.0,1.8792868,4.3376684,-1.7383384
alexnet,1,23,NaN,cat,keyboard,16-0-10,0023_eid_dnn_16-0-10_keyboard_10_n04505470_4974.png,n04505470_4974.png,0.0,-3.9448304,2.9409878,-4.869009
alexnet,1,24,NaN,oven,chair,4-0-10,0024_eid_dnn_4-0-10_chair_10_n03376595_360.png,n03376595_360.png,0.0,-1.1479665,1.917337,-2.167497
alexnet,1,25,NaN,bear,dog,16-0-10,0025_eid_dnn_16-0-10_dog_10_n02097130_2752.png,n02097130_2752.png,0.0,3.143579,3.5412197,-0.28117445
alexnet,1,26,NaN,chair,bicycle,2-0-10,0026_eid_dnn_2-0-10_bicycle_10_n02835271_3406.png,n02835271_3406.png,0.0,1.8863385,3.0088613,-0.7937435
alexnet,1,27,NaN,oven,bottle,16-0-10,0027_eid_dnn_16-0-10_bottle_10_n04560804_11732.png,n04560804_11732.png,0.0,1.1743543,3.49095,-1.6380806
alexnet,1,28,NaN,bear,bottle,32-0-10,0028_eid_dnn_32-0-10_bottle_10_n04591713_13589.png,n04591713_13589.png,0.0,-0.32163626,2.2536085,-1.820973
alexnet,1,29,NaN,cat,cat,2-0-10,0029_eid_dnn_2-0-10_cat_10_n02123045_4009.png,n02123045_4009.png,1.0,6.1928105,1.8041562,3.1032472
alexnet,1,30,NaN,cat,chair,8-0-10,0030_eid_dnn_8-0-10_chair_10_n02791124_1704.png,n02791124_1704.png,0.0,0.04838437,2.2226179,-1.5374153
alexnet,1,31,NaN,elephant,bicycle,128-0-10,0031_eid_dnn_128-0-10_bicycle_10_n03792782_28395.png,n03792782_28395.png,0.0,1.6052265,2.6120477,-0.7119301
alexnet,1,32,NaN,cat,truck,16-0-10,0032_eid_dnn_16-0-10_truck_10_n03417042_4288.png,n03417042_4288.png,0.0,-0.031767756,3.6820354,-2.6260555
alexnet,1,33,NaN,keyboard,keyboard,1-0-10,0033_eid_dnn_1-0-10_keyboard_10_n04505470_3371.png,n04505470_3371.png,1.0,10.21686,4.7743797,3.8484147
alexnet,1,34,NaN,cat,cat,1-0-10,0034_eid_dnn_1-0-10_cat_10_n02124075_13436.png,n02124075_13436.png,1.0,4.261823,1.4133829,2.0141513
alexnet,1,35,NaN,dog,dog,32-0-10,0035_eid_dnn_32-0-10_dog_10_n02097209_8270.png,n02097209_8270.png,1.0,2.2007647,0.9135021,0.9102321
alexnet,1,36,NaN,cat,clock,128-0-10,0036_eid_dnn_128-0-10_clock_10_n04548280_7795.png,n04548280_7795.png,0.0,0.86822134,3.0041606,-1.5103372
alexnet,1,37,NaN,cat,car,32-0-10,0037_eid_dnn_32-0-10_car_10_n03100240_21737.png,n03100240_21737.png,0.0,-1.3230017,2.8595455,-2.9575074
alexnet,1,38,NaN,bicycle,clock,128-0-10,0038_eid_dnn_128-0-10_clock_10_n02708093_1862.png,n02708093_1862.png,0.0,1.3808374,1.4247687,-0.031064082
alexnet,1,39,NaN,bicycle,bicycle,64-0-10,0039_eid_dnn_64-0-10_bicycle_10_n03792782_9412.png,n03792782_9412.png,1.0,3.0217927,1.8894323,0.8006997
alexnet,1,40,NaN,elephant,bear,32-0-10,0040_eid_dnn_32-0-10_bear_10_n02134418_163.png,n02134418_163.png,0.0,1.9111588,2.1126978,-0.14250962
alexnet,1,41,NaN,cat,keyboard,16-0-10,0041_eid_dnn_16-0-10_keyboard_10_n03085013_25675.png,n03085013_25675.png,0.0,-0.8016555,3.2346256,-2.8540819
alexnet,1,42,NaN,keyboard,truck,2-0-10,0042_eid_dnn_2-0-10_truck_10_n03417042_1716.png,n03417042_1716.png,0.0,2.2400074,2.9399354,-0.4949239
alexnet,1,43,NaN,cat,keyboard,128-0-10,0043_eid_dnn_128-0-10_keyboard_10_n03085013_18854.png,n03085013_18854.png,0.0,-2.5301619,2.2391107,-3.3723853
alexnet,1,44,NaN,bear,bottle,32-0-10,0044_eid_dnn_32-0-10_bottle_10_n04591713_4865.png,n04591713_4865.png,0.0,0.5798599,2.6758347,-1.482078
alexnet,1,45,NaN,cat,bicycle,32-0-10,0045_eid_dnn_32-0-10_bicycle_10_n03792782_693.png,n03792782_693.png,0.0,0.20233026,3.550601,-2.367585
alexnet,1,46,NaN,knife,bottle,1-0-10,0046_eid_dnn_1-0-10_bottle_10_n04557648_264.png,n04557648_264.png,0.0,0.9668251,2.5291946,-1.1047621
alexnet,1,47,NaN,knife,knife,2-0-10,0047_eid_dnn_2-0-10_knife_10_n03041632_25512.png,n03041632_25512.png,1.0,6.5732617,2.7344701,2.7144356
alexnet,1,48,NaN,oven,boat,16-0-10,0048_eid_dnn_16-0-10_boat_10_n03344393_2381.png,n03344393_2381.png,0.0,1.4006946,2.5628216,-0.8217479
alexnet,1,49,NaN,cat,dog,128-0-10,0049_eid_dnn_128-0-10_dog_10_n02110627_17670.png,n02110627_17670.png,0.0,0.6289056,4.2190766,-2.5386343
alexnet,1,50,NaN,dog,bear,64-0-10,0050_eid_dnn_64-0-10_bear_10_n02133161_15981.png,n02133161_15981.png,0.0,0.08440015,2.1443946,-1.4566361
alexnet,1,51,NaN,cat,elephant,16-0-10,0051_eid_dnn_16-0-10_elephant_10_n02504458_3570.png,n02504458_3570.png,0.0,2.871857,3.2399423,-0.26027566
alexnet,1,52,NaN,bottle,truck,4-0-10,0052_eid_dnn_4-0-10_truck_10_n03417042_6241.png,n03417042_6241.png,0.0,2.230208,4.003942,-1.2542194
alexnet,1,53,NaN,dog,bird,8-0-10,0053_eid_dnn_8-0-10_bird_10_n02025239_17670.png,n02025239_17670.png,0.0,-0.40263557,3.6640399,-2.8755736
alexnet,1,54,NaN,cat,dog,16-0-10,0054_eid_dnn_16-0-10_dog_10_n02106030_19249.png,n02106030_19249.png,0.0,1.8669459,2.334947,-0.33092687
alexnet,1,55,NaN,dog,keyboard,32-0-10,0055_eid_dnn_32-0-10_keyboard_10_n04505470_2326.png,n04505470_2326.png,0.0,-4.3440065,2.5594695,-4.8814945
alexnet,1,56,NaN,elephant,dog,16-0-10,0056_eid_dnn_16-0-10_dog_10_n02107142_9379.png,n02107142_9379.png,0.0,1.8995413,3.493946,-1.1274145
alexnet,1,57,NaN,cat,cat,64-0-10,0057_eid_dnn_64-0-10_cat_10_n02123394_1828.png,n02123394_1828.png,1.0,1.8365803,1.5690522,0.18917091
alexnet,1,58,NaN,oven,car,32-0-10,0058_eid_dnn_32-0-10_car_10_n03100240_4605.png,n03100240_4605.png,0.0,-4.0242705,1.9861562,-4.2500134
alexnet,1,59,NaN,bottle,bicycle,4-0-10,0059_eid_dnn_4-0-10_bicycle_10_n03792782_6765.png,n03792782_6765.png,0.0,0.67533004,3.016256,-1.6552848
alexnet,1,60,NaN,cat,boat,8-0-10,0060_eid_dnn_8-0-10_boat_10_n03344393_8455.png,n03344393_8455.png,0.0,0.65024114,2.7996333,-1.5198498
alexnet,1,61,NaN,oven,oven,16-0-10,0061_eid_dnn_16-0-10_oven_10_n04111531_8603.png,n04111531_8603.png,1.0,3.8701773,2.2825146,1.122647
alexnet,1,62,NaN,knife,bird,2-0-10,0062_eid_dnn_2-0-10_bird_10_n02051845_2574.png,n02051845_2574.png,0.0,0.07294335,2.953654,-2.0369701
alexnet,1,63,NaN,boat,boat,4-0-10,0063_eid_dnn_4-0-10_boat_10_n04612504_15875.png,n04612504_15875.png,1.0,7.9454637,3.73859,2.974709
alexnet,1,64,NaN,bottle,bottle,4-0-10,0064_eid_dnn_4-0-10_bottle_10_n03983396_7337.png,n03983396_7337.png,1.0,3.232631,2.9887235,0.17246862
alexnet,1,65,NaN,cat,clock,8-0-10,0065_eid_dnn_8-0-10_clock_10_n02708093_6822.png,n02708093_6822.png,0.0,1.0582445,5.019112,-2.8007565
alexnet,1,66,NaN,truck,truck,2-0-10,0066_eid_dnn_2-0-10_truck_10_n04467665_15994.png,n04467665_15994.png,1.0,4.721896,2.8012023,1.3581357
alexnet,1,67,NaN,cat,cat,128-0-10,0067_eid_dnn_128-0-10_cat_10_n02123597_6291.png,n02123597_6291.png,1.0,1.7878146,1.7433902,0.031412806
alexnet,1,68,NaN,bear,bird,8-0-10,0068_eid_dnn_8-0-10_bird_10_n01817953_1734.png,n01817953_1734.png,0.0,-0.2541871,4.5527678,-3.3990304
alexnet,1,69,NaN,oven,elephant,32-0-10,0069_eid_dnn_32-0-10_elephant_10_n02504458_6880.png,n02504458_6880.png,0.0,2.031437,2.753683,-0.5107052
alexnet,1,70,NaN,dog,cat,16-0-10,0070_eid_dnn_16-0-10_cat_10_n02123597_13197.png,n02123597_13197.png,0.0,1.3704376,3.2493,-1.3285563
alexnet,1,71,NaN,bicycle,bicycle,64-0-10,0071_eid_dnn_64-0-10_bicycle_10_n03792782_973.png,n03792782_973.png,1.0,2.1692798,2.0611746,0.07644191
alexnet,1,72,NaN,cat,cat,2-0-10,0072_eid_dnn_2-0-10_cat_10_n02124075_8310.png,n02124075_8310.png,1.0,4.4571185,2.3020794,1.5238428
alexnet,1,73,NaN,dog,oven,32-0-10,0073_eid_dnn_32-0-10_oven_10_n04111531_5168.png,n04111531_5168.png,0.0,1.480389,3.304687,-1.2899735
alexnet,1,74,NaN,airplane,airplane,1-0-10,0074_eid_dnn_1-0-10_airplane_10_n02690373_4893.png,n02690373_4893.png,1.0,16.971088,5.5248933,8.093682
alexnet,1,75,NaN,bear,dog,1-0-10,0075_eid_dnn_1-0-10_dog_10_n02086240_3614.png,n02086240_3614.png,0.0,2.8185945,3.2580779,-0.3107617
alexnet,1,76,NaN,oven,oven,16-0-10,0076_eid_dnn_16-0-10_oven_10_n04111531_2937.png,n04111531_2937.png,1.0,3.1961045,2.9559257,0.16983208
alexnet,1,77,NaN,clock,clock,1-0-10,0077_eid_dnn_1-0-10_clock_10_n03196217_2022.png,n03196217_2022.png,1.0,5.3814464,4.7378078,0.45512125
alexnet,1,78,NaN,dog,bottle,64-0-10,0078_eid_dnn_64-0-10_bottle_10_n04591713_2732.png,n04591713_2732.png,0.0,0.7107325,1.8404676,-0.79884326
alexnet,1,79,NaN,car,car,2-0-10,0079_eid_dnn_2-0-10_car_10_n03100240_8794.png,n03100240_8794.png,1.0,7.220196,6.3182993,0.63773715
alexnet,1,80,NaN,dog,airplane,16-0-10,0080_eid_dnn_16-0-10_airplane_10_n02690373_3640.png,n02690373_3640.png,0.0,0.15949434,1.6711342,-1.0688908
alexnet,1,81,NaN,oven,bicycle,64-0-10,0081_eid_dnn_64-0-10_bicycle_10_n03792782_41097.png,n03792782_41097.png,0.0,2.1232214,2.1232662,-3.169443e-05
alexnet,1,82,NaN,bicycle,dog,64-0-10,0082_eid_dnn_64-0-10_dog_10_n02090721_6770.png,n02090721_6770.png,0.0,1.335512,2.4374177,-0.779165
alexnet,1,83,NaN,cat,cat,16-0-10,0083_eid_dnn_16-0-10_cat_10_n02123597_28968.png,n02123597_28968.png,1.0,2.3480818,2.0459867,0.21361355
alexnet,1,84,NaN,elephant,elephant,1-0-10,0084_eid_dnn_1-0-10_elephant_10_n02504013_5894.png,n02504013_5894.png,1.0,14.24411,6.379738,5.560951
alexnet,1,85,NaN,cat,oven,32-0-10,0085_eid_dnn_32-0-10_oven_10_n04111531_9314.png,n04111531_9314.png,0.0,1.7671309,2.2260277,-0.3244891
alexnet,1,86,NaN,elephant,elephant,1-0-10,0086_eid_dnn_1-0-10_elephant_10_n02504458_12074.png,n02504458_12074.png,1.0,6.997616,4.6453447,1.6633068
alexnet,1,87,NaN,knife,boat,4-0-10,0087_eid_dnn_4-0-10_boat_10_n03344393_3773.png,n03344393_3773.png,0.0,3.4389222,3.5862947,-0.10420808
alexnet,1,88,NaN,elephant,truck,128-0-10,0088_eid_dnn_128-0-10_truck_10_n04467665_80153.png,n04467665_80153.png,0.0,-1.1485782,2.6676664,-2.6984925
alexnet,1,89,NaN,oven,chair,128-0-10,0089_eid_dnn_128-0-10_chair_10_n04099969_20604.png,n04099969_20604.png,0.0,0.31992537,1.5441835,-0.8656813
alexnet,1,90,NaN,dog,keyboard,32-0-10,0090_eid_dnn_32-0-10_keyboard_10_n03085013_23625.png,n03085013_23625.png,0.0,-1.9720795,1.6925995,-2.5913196
alexnet,1,91,NaN,dog,truck,64-0-10,0091_eid_dnn_64-0-10_truck_10_n03796401_1458.png,n03796401_1458.png,0.0,-0.5744671,1.6194122,-1.551307
alexnet,1,92,NaN,car,car,4-0-10,0092_eid_dnn_4-0-10_car_10_n03100240_18711.png,n03100240_18711.png,1.0,4.2789154,3.5168839,0.5388377
alexnet,1,93,NaN,cat,truck,128-0-10,0093_eid_dnn_128-0-10_truck_10_n03796401_2988.png,n03796401_2988.png,0.0,-1.3186688,2.6542027,-2.8092444
alexnet,1,94,NaN,truck,truck,2-0-10,0094_eid_dnn_2-0-10_truck_10_n03417042_7096.png,n03417042_7096.png,1.0,11.611374,6.1609015,3.8540661
alexnet,1,95,NaN,cat,dog,8-0-10,0095_eid_dnn_8-0-10_dog_10_n02105855_9345.png,n02105855_9345.png,0.0,2.1117287,3.486478,-0.97209466
alexnet,1,96,NaN,bear,bird,32-0-10,0096_eid_dnn_32-0-10_bird_10_n01796340_8342.png,n01796340_8342.png,0.0,-0.9790108,2.7075787,-2.6068125
alexnet,1,97,NaN,cat,airplane,8-0-10,0097_eid_dnn_8-0-10_airplane_10_n02690373_7293.png,n02690373_7293.png,0.0,1.6295369,3.4842367,-1.3114709
alexnet,1,98,NaN,cat,car,64-0-10,0098_eid_dnn_64-0-10_car_10_n04285008_9811.png,n04285008_9811.png,0.0,-2.4435976,2.1514404,-3.2491825
alexnet,1,99,NaN,dog,knife,8-0-10,0099_eid_dnn_8-0-10_knife_10_n03041632_86783.png,n03041632_86783.png,0.0,-0.42002654,3.757867,-2.954217
alexnet,1,100,NaN,dog,oven,16-0-10,0100_eid_dnn_16-0-10_oven_10_n04111531_9867.png,n04111531_9867.png,0.0,2.7250218,2.9352503,-0.14865395
alexnet,1,101,NaN,cat,truck,128-0-10,0101_eid_dnn_128-0-10_truck_10_n04467665_22573.png,n04467665_22573.png,0.0,-1.8168106,3.8112824,-3.9796627
alexnet,1,102,NaN,elephant,car,128-0-10,0102_eid_dnn_128-0-10_car_10_n02814533_23512.png,n02814533_23512.png,0.0,-2.1013813,1.9178256,-2.8420086
alexnet,1,103,NaN,cat,bicycle,16-0-10,0103_eid_dnn_16-0-10_bicycle_10_n03792782_4895.png,n03792782_4895.png,0.0,-1.2966241,3.4831326,-3.3797984
alexnet,1,104,NaN,keyboard,keyboard,2-0-10,0104_eid_dnn_2-0-10_keyboard_10_n03085013_23554.png,n03085013_23554.png,1.0,9.068973,3.9830587,3.5962842
alexnet,1,105,NaN,cat,bear,1-0-10,0105_eid_dnn_1-0-10_bear_10_n02134084_8601.png,n02134084_8601.png,0.0,2.6737175,3.9075696,-0.87246525
alexnet,1,106,NaN,cat,bicycle,8-0-10,0106_eid_dnn_8-0-10_bicycle_10_n03792782_126.png,n03792782_126.png,0.0,-0.30053455,4.1633964,-3.156476
alexnet,1,107,NaN,chair,chair,1-0-10,0107_eid_dnn_1-0-10_chair_10_n04099969_3583.png,n04099969_3583.png,1.0,5.6185474,4.4065256,0.85702884
alexnet,1,108,NaN,dog,bicycle,8-0-10,0108_eid_dnn_8-0-10_bicycle_10_n02835271_976.png,n02835271_976.png,0.0,-1.7401234,2.8702345,-3.2600152
alexnet,1,109,NaN,dog,oven,32-0-10,0109_eid_dnn_32-0-10_oven_10_n04111531_10313.png,n04111531_10313.png,0.0,2.2271128,2.64048,-0.2922948
alexnet,1,110,NaN,oven,oven,1-0-10,0110_eid_dnn_1-0-10_oven_10_n04111531_8984.png,n04111531_8984.png,1.0,15.073465,7.455135,5.3869734
alexnet,1,111,NaN,cat,elephant,8-0-10,0111_eid_dnn_8-0-10_elephant_10_n02504013_3181.png,n02504013_3181.png,0.0,3.3480113,3.8869712,-0.38110226
alexnet,1,112,NaN,dog,keyboard,64-0-10,0112_eid_dnn_64-0-10_keyboard_10_n03085013_21490.png,n03085013_21490.png,0.0,-3.8345263,2.282062,-4.3250813
alexnet,1,113,NaN,knife,bird,4-0-10,0113_eid_dnn_4-0-10_bird_10_n01614925_2708.png,n01614925_2708.png,0.0,0.90631515,5.169902,-3.014811
alexnet,1,114,NaN,dog,bottle,16-0-10,0114_eid_dnn_16-0-10_bottle_10_n03983396_3109.png,n03983396_3109.png,0.0,-0.40847546,2.027131,-1.7222339
alexnet,1,115,NaN,dog,bear,128-0-10,0115_eid_dnn_128-0-10_bear_10_n02134418_377.png,n02134418_377.png,0.0,0.46527788,1.8030434,-0.94594306
alexnet,1,116,NaN,dog,knife,16-0-10,0116_eid_dnn_16-0-10_knife_10_n03041632_7680.png,n03041632_7680.png,0.0,-1.2302203,2.4236324,-2.5836642
alexnet,1,117,NaN,truck,truck,4-0-10,0117_eid_dnn_4-0-10_truck_10_n03417042_3807.png,n03417042_3807.png,1.0,4.3848705,3.9916,0.27808425
alexnet,1,118,NaN,cat,elephant,128-0-10,0118_eid_dnn_128-0-10_elephant_10_n02504013_6501.png,n02504013_6501.png,0.0,-0.08979677,2.0521858,-1.5146104
alexnet,1,119,NaN,bicycle,bicycle,32-0-10,0119_eid_dnn_32-0-10_bicycle_10_n03792782_5517.png,n03792782_5517.png,1.0,2.1506195,2.1048164,0.032387663
alexnet,1,120,NaN,cat,bottle,128-0-10,0120_eid_dnn_128-0-10_bottle_10_n02823428_5791.png,n02823428_5791.png,0.0,0.43614498,3.2395222,-1.982287
alexnet,1,121,NaN,elephant,car,128-0-10,0121_eid_dnn_128-0-10_car_10_n04285008_10144.png,n04285008_10144.png,0.0,-2.0108004,1.9894799,-2.8286254
alexnet,1,122,NaN,cat,cat,4-0-10,0122_eid_dnn_4-0-10_cat_10_n02123159_5764.png,n02123159_5764.png,1.0,8.076516,2.9640737,3.615043
alexnet,1,123,NaN,cat,dog,16-0-10,0123_eid_dnn_16-0-10_dog_10_n02085936_4491.png,n02085936_4491.png,0.0,1.713218,3.4212787,-1.2077813
alexnet,1,124,NaN,dog,bicycle,32-0-10,0124_eid_dnn_32-0-10_bicycle_10_n03792782_6159.png,n03792782_6159.png,0.0,-0.3891009,1.8851863,-1.608164
alexnet,1,125,NaN,clock,clock,4-0-10,0125_eid_dnn_4-0-10_clock_10_n04548280_2404.png,n04548280_2404.png,1.0,9.288133,6.611522,1.8926494
alexnet,1,126,NaN,dog,bottle,64-0-10,0126_eid_dnn_64-0-10_bottle_10_n04591713_360.png,n04591713_360.png,0.0,0.37795946,2.6465113,-1.6041085
alexnet,1,127,NaN,dog,airplane,16-0-10,0127_eid_dnn_16-0-10_airplane_10_n02690373_1909.png,n02690373_1909.png,0.0,-0.014751971,2.4986129,-1.7772173
alexnet,1,128,NaN,bear,bear,2-0-10,0128_eid_dnn_2-0-10_bear_10_n02133161_9724.png,n02133161_9724.png,1.0,6.7009134,4.1390924,1.811481
alexnet,1,129,NaN,car,car,2-0-10,0129_eid_dnn_2-0-10_car_10_n04285008_5897.png,n04285008_5897.png,1.0,7.563584,5.053833,1.7746619
alexnet,1,130,NaN,bicycle,bicycle,1-0-10,0130_eid_dnn_1-0-10_bicycle_10_n02835271_9807.png,n02835271_9807.png,1.0,6.1602597,4.8546667,0.9231937
alexnet,1,131,NaN,knife,keyboard,1-0-10,0131_eid_dnn_1-0-10_keyboard_10_n03085013_23286.png,n03085013_23286.png,0.0,5.292118,6.1462955,-0.60399467
alexnet,1,132,NaN,keyboard,clock,2-0-10,0132_eid_dnn_2-0-10_clock_10_n02708093_772.png,n02708093_772.png,0.0,2.89917,4.5154977,-1.1429163
alexnet,1,133,NaN,keyboard,clock,4-0-10,0133_eid_dnn_4-0-10_clock_10_n03196217_820.png,n03196217_820.png,0.0,4.635103,6.3895087,-1.2405521
alexnet,1,134,NaN,dog,dog,32-0-10,0134_eid_dnn_32-0-10_dog_10_n02093754_6351.png,n02093754_6351.png,1.0,3.430263,3.1298935,0.21239331
alexnet,1,135,NaN,dog,truck,8-0-10,0135_eid_dnn_8-0-10_truck_10_n03417042_27093.png,n03417042_27093.png,0.0,-1.3514104,2.8626678,-2.979803
alexnet,1,136,NaN,elephant,bicycle,4-0-10,0136_eid_dnn_4-0-10_bicycle_10_n03792782_30530.png,n03792782_30530.png,0.0,-0.4564079,4.587961,-3.5669076
alexnet,1,137,NaN,bottle,bottle,4-0-10,0137_eid_dnn_4-0-10_bottle_10_n03937543_5215.png,n03937543_5215.png,1.0,7.7488008,4.342216,2.4088192
alexnet,1,138,NaN,bicycle,boat,2-0-10,0138_eid_dnn_2-0-10_boat_10_n02951358_9933.png,n02951358_9933.png,0.0,-0.46457925,1.2504376,-1.2127
alexnet,1,139,NaN,dog,dog,4-0-10,0139_eid_dnn_4-0-10_dog_10_n02086910_8694.png,n02086910_8694.png,1.0,3.3165908,2.7322876,0.41316473
alexnet,1,140,NaN,dog,knife,8-0-10,0140_eid_dnn_8-0-10_knife_10_n03041632_3504.png,n03041632_3504.png,0.0,1.3082421,2.985261,-1.1858314
alexnet,1,141,NaN,dog,knife,128-0-10,0141_eid_dnn_128-0-10_knife_10_n03041632_15754.png,n03041632_15754.png,0.0,-1.8303137,1.6962132,-2.4936311
alexnet,1,142,NaN,airplane,truck,8-0-10,0142_eid_dnn_8-0-10_truck_10_n04467665_45306.png,n04467665_45306.png,0.0,1.0667472,2.0574598,-0.70053965
alexnet,1,143,NaN,truck,elephant,1-0-10,0143_eid_dnn_1-0-10_elephant_10_n02504013_5351.png,n02504013_5351.png,0.0,2.7919617,2.9146438,-0.086749345
alexnet,1,144,NaN,cat,bottle,2-0-10,0144_eid_dnn_2-0-10_bottle_10_n03937543_7763.png,n03937543_7763.png,0.0,1.286849,3.5812619,-1.6223949
alexnet,1,145,NaN,dog,bird,32-0-10,0145_eid_dnn_32-0-10_bird_10_n01843383_91.png,n01843383_91.png,0.0,-1.2685719,2.104602,-2.3851943
alexnet,1,146,NaN,knife,clock,4-0-10,0146_eid_dnn_4-0-10_clock_10_n04548280_28.png,n04548280_28.png,0.0,2.0216882,2.8666685,-0.59749126
alexnet,1,147,NaN,dog,knife,16-0-10,0147_eid_dnn_16-0-10_knife_10_n03041632_102828.png,n03041632_102828.png,0.0,-0.78940916,4.191028,-3.521701
alexnet,1,148,NaN,cat,car,128-0-10,0148_eid_dnn_128-0-10_car_10_n03100240_7520.png,n03100240_7520.png,0.0,-2.551301,2.5255864,-3.5899014
alexnet,1,149,NaN,dog,knife,16-0-10,0149_eid_dnn_16-0-10_knife_10_n03041632_53874.png,n03041632_53874.png,0.0,-0.33991373,2.647778,-2.1126173
alexnet,1,150,NaN,dog,boat,16-0-10,0150_eid_dnn_16-0-10_boat_10_n04273569_3896.png,n04273569_3896.png,0.0,0.2595982,2.525085,-1.601941
alexnet,1,151,NaN,airplane,airplane,2-0-10,0151_eid_dnn_2-0-10_airplane_10_n02690373_6002.png,n02690373_6002.png,1.0,14.8598,5.323112,6.743457
alexnet,1,152,NaN,elephant,chair,8-0-10,0152_eid_dnn_8-0-10_chair_10_n04099969_7191.png,n04099969_7191.png,0.0,0.9167426,3.8693748,-2.0878263
alexnet,1,153,NaN,oven,dog,32-0-10,0153_eid_dnn_32-0-10_dog_10_n02101388_4808.png,n02101388_4808.png,0.0,1.5247751,2.0108237,-0.34368825
alexnet,1,154,NaN,cat,keyboard,16-0-10,0154_eid_dnn_16-0-10_keyboard_10_n03085013_24538.png,n03085013_24538.png,0.0,-1.4153963,4.102246,-3.9015622
alexnet,1,155,NaN,cat,knife,128-0-10,0155_eid_dnn_128-0-10_knife_10_n03041632_85488.png,n03041632_85488.png,0.0,-1.3595563,5.115726,-4.578716
alexnet,1,156,NaN,dog,car,4-0-10,0156_eid_dnn_4-0-10_car_10_n04285008_7630.png,n04285008_7630.png,0.0,0.6742868,3.5958138,-2.0658314
alexnet,1,157,NaN,cat,airplane,8-0-10,0157_eid_dnn_8-0-10_airplane_10_n02690373_2941.png,n02690373_2941.png,0.0,-0.35081637,3.9494488,-3.040747
alexnet,1,158,NaN,cat,bird,64-0-10,0158_eid_dnn_64-0-10_bird_10_n01514859_6021.png,n01514859_6021.png,0.0,-1.7458893,2.2752664,-2.8433867
alexnet,1,159,NaN,dog,clock,64-0-10,0159_eid_dnn_64-0-10_clock_10_n04548280_3293.png,n04548280_3293.png,0.0,1.4647726,1.5659934,-0.07157395
alexnet,1,160,NaN,oven,oven,4-0-10,0160_eid_dnn_4-0-10_oven_10_n04111531_4998.png,n04111531_4998.png,1.0,3.1609151,2.729187,0.30527788
alexnet,1,161,NaN,clock,bird,128-0-10,0161_eid_dnn_128-0-10_bird_10_n02028035_32993.png,n02028035_32993.png,0.0,-2.2906058,2.2969055,-3.2438602
alexnet,1,162,NaN,knife,bird,2-0-10,0162_eid_dnn_2-0-10_bird_10_n01843383_7800.png,n01843383_7800.png,0.0,-1.6866426,2.3114715,-2.8270936
alexnet,1,163,NaN,elephant,bear,64-0-10,0163_eid_dnn_64-0-10_bear_10_n02132136_15174.png,n02132136_15174.png,0.0,1.9004478,2.2616827,-0.25543165
alexnet,1,164,NaN,cat,oven,4-0-10,0164_eid_dnn_4-0-10_oven_10_n04111531_7266.png,n04111531_7266.png,0.0,0.46782374,3.1923249,-1.9265133
alexnet,1,165,NaN,cat,cat,128-0-10,0165_eid_dnn_128-0-10_cat_10_n02124075_6464.png,n02124075_6464.png,1.0,4.588425,1.4275866,2.2350504
alexnet,1,166,NaN,dog,bicycle,16-0-10,0166_eid_dnn_16-0-10_bicycle_10_n02835271_4667.png,n02835271_4667.png,0.0,-0.6449978,3.0807426,-2.6344965
alexnet,1,167,NaN,cat,chair,32-0-10,0167_eid_dnn_32-0-10_chair_10_n04099969_2532.png,n04099969_2532.png,0.0,0.12529206,3.5376692,-2.412915
alexnet,1,168,NaN,bottle,bottle,4-0-10,0168_eid_dnn_4-0-10_bottle_10_n04560804_15683.png,n04560804_15683.png,1.0,6.785973,6.2824926,0.35601443
alexnet,1,169,NaN,cat,chair,8-0-10,0169_eid_dnn_8-0-10_chair_10_n04099969_6825.png,n04099969_6825.png,0.0,0.22690545,2.7683449,-1.7970692
alexnet,1,170,NaN,oven,oven,1-0-10,0170_eid_dnn_1-0-10_oven_10_n04111531_1612.png,n04111531_1612.png,1.0,5.94162,4.8255587,0.78917444
alexnet,1,171,NaN,clock,clock,2-0-10,0171_eid_dnn_2-0-10_clock_10_n02708093_1701.png,n02708093_1701.png,1.0,9.86328,6.4024916,2.4471471
alexnet,1,172,NaN,elephant,elephant,32-0-10,0172_eid_dnn_32-0-10_elephant_10_n02504013_782.png,n02504013_782.png,1.0,4.315181,3.7969131,0.36647058
alexnet,1,173,NaN,cat,dog,128-0-10,0173_eid_dnn_128-0-10_dog_10_n02107908_8814.png,n02107908_8814.png,0.0,1.0460488,2.2140055,-0.8258701
alexnet,1,174,NaN,bear,elephant,4-0-10,0174_eid_dnn_4-0-10_elephant_10_n02504458_5816.png,n02504458_5816.png,0.0,3.8888423,4.5385046,-0.4593806
alexnet,1,175,NaN,car,car,2-0-10,0175_eid_dnn_2-0-10_car_10_n03100240_18788.png,n03100240_18788.png,1.0,7.42567,4.211568,2.2727137
alexnet,1,176,NaN,airplane,airplane,16-0-10,0176_eid_dnn_16-0-10_airplane_10_n02690373_7915.png,n02690373_7915.png,1.0,2.6080027,2.4619298,0.10328911
alexnet,1,177,NaN,oven,chair,4-0-10,0177_eid_dnn_4-0-10_chair_10_n04429376_10544.png,n04429376_10544.png,0.0,2.4631567,2.9965992,-0.3772008
alexnet,1,178,NaN,dog,knife,32-0-10,0178_eid_dnn_32-0-10_knife_10_n03041632_24883.png,n03041632_24883.png,0.0,-1.2620739,1.6194035,-2.0375123
alexnet,1,179,NaN,cat,bicycle,128-0-10,0179_eid_dnn_128-0-10_bicycle_10_n03792782_10367.png,n03792782_10367.png,0.0,-0.34162512,1.7108773,-1.4513384
alexnet,1,180,NaN,chair,oven,1-0-10,0180_eid_dnn_1-0-10_oven_10_n04111531_3121.png,n04111531_3121.png,0.0,3.631277,3.716309,-0.060126696
alexnet,1,181,NaN,cat,car,128-0-10,0181_eid_dnn_128-0-10_car_10_n02814533_10995.png,n02814533_10995.png,0.0,-3.5853713,2.9763281,-4.639822
alexnet,1,182,NaN,cat,dog,128-0-10,0182_eid_dnn_128-0-10_dog_10_n02112350_502.png,n02112350_502.png,0.0,1.4306935,3.6758473,-1.5875636
alexnet,1,183,NaN,cat,clock,128-0-10,0183_eid_dnn_128-0-10_clock_10_n04548280_5278.png,n04548280_5278.png,0.0,-0.3547778,4.688207,-3.565929
alexnet,1,184,NaN,cat,bird,4-0-10,0184_eid_dnn_4-0-10_bird_10_n02006656_713.png,n02006656_713.png,0.0,-0.48487344,2.1113327,-1.835795
alexnet,1,185,NaN,cat,bottle,128-0-10,0185_eid_dnn_128-0-10_bottle_10_n04557648_4106.png,n04557648_4106.png,0.0,-0.46663746,2.8739564,-2.3621566
alexnet,1,186,NaN,elephant,clock,64-0-10,0186_eid_dnn_64-0-10_clock_10_n02708093_1430.png,n02708093_1430.png,0.0,0.5451172,2.7890418,-1.5866944
alexnet,1,187,NaN,oven,oven,1-0-10,0187_eid_dnn_1-0-10_oven_10_n04111531_7664.png,n04111531_7664.png,1.0,5.942377,3.5866566,1.665746
alexnet,1,188,NaN,car,car,1-0-10,0188_eid_dnn_1-0-10_car_10_n02814533_149.png,n02814533_149.png,1.0,11.372925,9.933285,1.0179793
alexnet,1,189,NaN,elephant,clock,64-0-10,0189_eid_dnn_64-0-10_clock_10_n04548280_8296.png,n04548280_8296.png,0.0,-0.057751734,2.2666595,-1.6436069
alexnet,1,190,NaN,bear,bottle,64-0-10,0190_eid_dnn_64-0-10_bottle_10_n04591713_5815.png,n04591713_5815.png,0.0,-0.082498975,4.467861,-3.2175906
alexnet,1,191,NaN,knife,knife,2-0-10,0191_eid_dnn_2-0-10_knife_10_n03041632_90125.png,n03041632_90125.png,1.0,6.339389,6.337974,0.0010003976
alexnet,1,192,NaN,cat,bird,64-0-10,0192_eid_dnn_64-0-10_bird_10_n01534433_16586.png,n01534433_16586.png,0.0,-1.4043487,2.3438056,-2.6503453
alexnet,1,193,NaN,cat,cat,4-0-10,0193_eid_dnn_4-0-10_cat_10_n02123394_2559.png,n02123394_2559.png,1.0,4.8477726,2.5102403,1.652885
alexnet,1,194,NaN,elephant,elephant,4-0-10,0194_eid_dnn_4-0-10_elephant_10_n02504458_5995.png,n02504458_5995.png,1.0,7.0131435,4.743844,1.6046371
alexnet,1,195,NaN,car,car,2-0-10,0195_eid_dnn_2-0-10_car_10_n02814533_211.png,n02814533_211.png,1.0,9.858779,7.794682,1.4595369
alexnet,1,196,NaN,chair,chair,1-0-10,0196_eid_dnn_1-0-10_chair_10_n04429376_13328.png,n04429376_13328.png,1.0,8.0415745,3.2557626,3.3840802
alexnet,1,197,NaN,cat,keyboard,16-0-10,0197_eid_dnn_16-0-10_keyboard_10_n03085013_24618.png,n03085013_24618.png,0.0,-1.7086443,3.2973547,-3.5397758
alexnet,1,198,NaN,cat,oven,4-0-10,0198_eid_dnn_4-0-10_oven_10_n04111531_2186.png,n04111531_2186.png,0.0,1.7699647,3.2540286,-1.0493916
alexnet,1,199,NaN,bear,oven,8-0-10,0199_eid_dnn_8-0-10_oven_10_n04111531_114.png,n04111531_114.png,0.0,-0.014250189,5.634712,-3.9944198
alexnet,1,200,NaN,car,car,1-0-10,0200_eid_dnn_1-0-10_car_10_n03100240_1745.png,n03100240_1745.png,1.0,13.325879,8.872894,3.1487358
alexnet,1,201,NaN,cat,cat,4-0-10,0201_eid_dnn_4-0-10_cat_10_n02123394_1259.png,n02123394_1259.png,1.0,3.464444,1.6771659,1.2637964
alexnet,1,202,NaN,cat,oven,4-0-10,0202_eid_dnn_4-0-10_oven_10_n04111531_5801.png,n04111531_5801.png,0.0,0.06329656,4.8462725,-3.3820748
alexnet,1,203,NaN,elephant,airplane,32-0-10,0203_eid_dnn_32-0-10_airplane_10_n02690373_2024.png,n02690373_2024.png,0.0,0.24489307,2.5689209,-1.6433358
alexnet,1,204,NaN,cat,cat,8-0-10,0204_eid_dnn_8-0-10_cat_10_n02123045_12181.png,n02123045_12181.png,1.0,5.589844,2.6941464,2.0475676
alexnet,1,205,NaN,oven,airplane,64-0-10,0205_eid_dnn_64-0-10_airplane_10_n02690373_3313.png,n02690373_3313.png,0.0,-2.2816045,2.4879076,-3.3725545
alexnet,1,206,NaN,elephant,truck,64-0-10,0206_eid_dnn_64-0-10_truck_10_n04467665_80465.png,n04467665_80465.png,0.0,-0.59854513,1.7785716,-1.6808753
alexnet,1,207,NaN,elephant,elephant,2-0-10,0207_eid_dnn_2-0-10_elephant_10_n02504013_8626.png,n02504013_8626.png,1.0,6.1698575,3.7458034,1.7140652
alexnet,1,208,NaN,oven,car,16-0-10,0208_eid_dnn_16-0-10_car_10_n04285008_7904.png,n04285008_7904.png,0.0,-3.5865252,2.5346885,-4.328352
alexnet,1,209,NaN,elephant,airplane,8-0-10,0209_eid_dnn_8-0-10_airplane_10_n02690373_6363.png,n02690373_6363.png,0.0,-1.0068116,4.4052076,-3.8268757
alexnet,1,210,NaN,cat,cat,4-0-10,0210_eid_dnn_4-0-10_cat_10_n02123045_7294.png,n02123045_7294.png,1.0,2.3166645,2.2141924,0.07245869
alexnet,1,211,NaN,cat,airplane,128-0-10,0211_eid_dnn_128-0-10_airplane_10_n02690373_6988.png,n02690373_6988.png,0.0,-1.7640418,3.1053002,-3.4431448
alexnet,1,212,NaN,cat,cat,4-0-10,0212_eid_dnn_4-0-10_cat_10_n02125311_25749.png,n02125311_25749.png,1.0,1.860763,0.98006755,0.6227457
alexnet,1,213,NaN,cat,bird,64-0-10,0213_eid_dnn_64-0-10_bird_10_n02018207_12980.png,n02018207_12980.png,0.0,-0.9402336,1.9609303,-2.0514328
alexnet,1,214,NaN,cat,cat,32-0-10,0214_eid_dnn_32-0-10_cat_10_n02123394_2814.png,n02123394_2814.png,1.0,1.9518226,1.5462202,0.28680426
alexnet,1,215,NaN,cat,car,4-0-10,0215_eid_dnn_4-0-10_car_10_n04285008_662.png,n04285008_662.png,0.0,-0.28372005,1.8598728,-1.5157491
alexnet,1,216,NaN,dog,bicycle,2-0-10,0216_eid_dnn_2-0-10_bicycle_10_n03792782_11679.png,n03792782_11679.png,0.0,2.3485863,3.3102272,-0.6799828
alexnet,1,217,NaN,cat,dog,16-0-10,0217_eid_dnn_16-0-10_dog_10_n02093428_17769.png,n02093428_17769.png,0.0,2.172822,4.3432946,-1.534756
alexnet,1,218,NaN,cat,dog,64-0-10,0218_eid_dnn_64-0-10_dog_10_n02106030_17418.png,n02106030_17418.png,0.0,2.072716,2.520719,-0.316786
alexnet,1,219,NaN,bear,chair,64-0-10,0219_eid_dnn_64-0-10_chair_10_n02791124_7142.png,n02791124_7142.png,0.0,0.4296002,2.3090253,-1.3289542
alexnet,1,220,NaN,bear,bear,1-0-10,0220_eid_dnn_1-0-10_bear_10_n02134084_18083.png,n02134084_18083.png,1.0,2.4433658,1.9445331,0.35272798
alexnet,1,221,NaN,keyboard,keyboard,2-0-10,0221_eid_dnn_2-0-10_keyboard_10_n03085013_7536.png,n03085013_7536.png,1.0,10.4423065,4.935527,3.8938813
alexnet,1,222,NaN,bear,bird,1-0-10,0222_eid_dnn_1-0-10_bird_10_n01616318_2473.png,n01616318_2473.png,0.0,0.01367985,5.0809317,-3.5830882
alexnet,1,223,NaN,elephant,elephant,1-0-10,0223_eid_dnn_1-0-10_elephant_10_n02504458_5951.png,n02504458_5951.png,1.0,14.643274,6.0755606,6.0582886
alexnet,1,224,NaN,airplane,airplane,4-0-10,0224_eid_dnn_4-0-10_airplane_10_n02690373_5164.png,n02690373_5164.png,1.0,5.2685413,3.3954632,1.3244662
alexnet,1,225,NaN,elephant,elephant,4-0-10,0225_eid_dnn_4-0-10_elephant_10_n02504013_1865.png,n02504013_1865.png,1.0,8.000684,3.839494,2.9424057
alexnet,1,226,NaN,knife,knife,1-0-10,0226_eid_dnn_1-0-10_knife_10_n03041632_56454.png,n03041632_56454.png,1.0,5.5002813,2.8537884,1.8713531
alexnet,1,227,NaN,dog,bird,64-0-10,0227_eid_dnn_64-0-10_bird_10_n01824575_5820.png,n01824575_5820.png,0.0,-0.57682323,1.3661432,-1.3738848
alexnet,1,228,NaN,oven,oven,4-0-10,0228_eid_dnn_4-0-10_oven_10_n04111531_4332.png,n04111531_4332.png,1.0,3.183671,2.109674,0.7594306
alexnet,1,229,NaN,truck,truck,2-0-10,0229_eid_dnn_2-0-10_truck_10_n04467665_41352.png,n04467665_41352.png,1.0,14.411129,10.169742,2.9991138
alexnet,1,230,NaN,bear,bird,8-0-10,0230_eid_dnn_8-0-10_bird_10_n01514859_5668.png,n01514859_5668.png,0.0,-0.30450118,2.7192435,-2.1381104
alexnet,1,231,NaN,dog,oven,32-0-10,0231_eid_dnn_32-0-10_oven_10_n04111531_4438.png,n04111531_4438.png,0.0,-2.324167,2.26411,-3.2444017
alexnet,1,232,NaN,cat,cat,1-0-10,0232_eid_dnn_1-0-10_cat_10_n02123394_6693.png,n02123394_6693.png,1.0,6.3365955,2.9456627,2.3977516
alexnet,1,233,NaN,dog,elephant,32-0-10,0233_eid_dnn_32-0-10_elephant_10_n02504458_6302.png,n02504458_6302.png,0.0,0.9586357,1.5998752,-0.4534248
alexnet,1,234,NaN,dog,bottle,16-0-10,0234_eid_dnn_16-0-10_bottle_10_n03937543_2329.png,n03937543_2329.png,0.0,0.389257,3.7407317,-2.3698506
alexnet,1,235,NaN,elephant,elephant,16-0-10,0235_eid_dnn_16-0-10_elephant_10_n02504458_5155.png,n02504458_5155.png,1.0,4.705461,3.3095856,0.987033
alexnet,1,236,NaN,oven,bear,1-0-10,0236_eid_dnn_1-0-10_bear_10_n02134084_1694.png,n02134084_1694.png,0.0,-0.046648204,5.7387195,-4.090873
alexnet,1,237,NaN,cat,bear,128-0-10,0237_eid_dnn_128-0-10_bear_10_n02133161_1624.png,n02133161_1624.png,0.0,0.7159294,3.8377635,-2.2074702
alexnet,1,238,NaN,bear,bear,64-0-10,0238_eid_dnn_64-0-10_bear_10_n02132136_11027.png,n02132136_11027.png,1.0,3.8502681,2.9716074,0.62130696
alexnet,1,239,NaN,dog,elephant,64-0-10,0239_eid_dnn_64-0-10_elephant_10_n02504013_24621.png,n02504013_24621.png,0.0,-0.049162418,2.6952627,-1.9406016
alexnet,1,240,NaN,cat,knife,16-0-10,0240_eid_dnn_16-0-10_knife_10_n03041632_27134.png,n03041632_27134.png,0.0,-1.0906478,4.5433064,-3.983807
alexnet,1,241,NaN,cat,keyboard,32-0-10,0241_eid_dnn_32-0-10_keyboard_10_n03085013_24316.png,n03085013_24316.png,0.0,-0.69494987,3.2104838,-2.7615588
alexnet,1,242,NaN,cat,cat,2-0-10,0242_eid_dnn_2-0-10_cat_10_n02123159_3026.png,n02123159_3026.png,1.0,6.518747,2.4511755,2.8762076
alexnet,1,243,NaN,dog,bicycle,128-0-10,0243_eid_dnn_128-0-10_bicycle_10_n03792782_1475.png,n03792782_1475.png,0.0,-0.17620188,2.3926742,-1.8164697
alexnet,1,244,NaN,cat,cat,16-0-10,0244_eid_dnn_16-0-10_cat_10_n02123045_20507.png,n02123045_20507.png,1.0,5.5614133,3.4848266,1.4683685
alexnet,1,245,NaN,bottle,boat,64-0-10,0245_eid_dnn_64-0-10_boat_10_n02951358_23759.png,n02951358_23759.png,0.0,-1.2423201,0.8877468,-1.5061847
alexnet,1,246,NaN,bear,bear,16-0-10,0246_eid_dnn_16-0-10_bear_10_n02132136_1858.png,n02132136_1858.png,1.0,3.182712,3.1072416,0.053365666
alexnet,1,247,NaN,cat,boat,128-0-10,0247_eid_dnn_128-0-10_boat_10_n02951358_6465.png,n02951358_6465.png,0.0,-2.3948462,4.5861034,-4.936277
alexnet,1,248,NaN,bicycle,airplane,128-0-10,0248_eid_dnn_128-0-10_airplane_10_n02690373_6223.png,n02690373_6223.png,0.0,-3.5589328,1.6455743,-3.6801422
alexnet,1,249,NaN,cat,boat,128-0-10,0249_eid_dnn_128-0-10_boat_10_n03344393_2412.png,n03344393_2412.png,0.0,-0.694369,2.3798916,-2.1738307
alexnet,1,250,NaN,oven,knife,8-0-10,0250_eid_dnn_8-0-10_knife_10_n03041632_6446.png,n03041632_6446.png,0.0,1.0652169,2.9115903,-1.3055832
alexnet,1,251,NaN,cat,bottle,64-0-10,0251_eid_dnn_64-0-10_bottle_10_n04591713_7940.png,n04591713_7940.png,0.0,0.4043887,2.5426471,-1.5119771
alexnet,1,252,NaN,cat,cat,4-0-10,0252_eid_dnn_4-0-10_cat_10_n02124075_13568.png,n02124075_13568.png,1.0,7.9960046,3.606132,3.1041088
alexnet,1,253,NaN,truck,boat,2-0-10,0253_eid_dnn_2-0-10_boat_10_n03662601_2171.png,n03662601_2171.png,0.0,2.859338,5.959774,-2.1923394
alexnet,1,254,NaN,elephant,elephant,1-0-10,0254_eid_dnn_1-0-10_elephant_10_n02504458_415.png,n02504458_415.png,1.0,4.333293,2.349902,1.4024693
alexnet,1,255,NaN,oven,car,16-0-10,0255_eid_dnn_16-0-10_car_10_n03100240_3386.png,n03100240_3386.png,0.0,-2.7524278,2.503065,-3.7161949
alexnet,1,256,NaN,dog,bird,16-0-10,0256_eid_dnn_16-0-10_bird_10_n02056570_6633.png,n02056570_6633.png,0.0,-1.6476922,2.3214862,-2.806633
alexnet,1,257,NaN,oven,bottle,32-0-10,0257_eid_dnn_32-0-10_bottle_10_n02823428_4232.png,n02823428_4232.png,0.0,0.20027874,1.7668409,-1.1077268
alexnet,1,258,NaN,cat,boat,128-0-10,0258_eid_dnn_128-0-10_boat_10_n04273569_2396.png,n04273569_2396.png,0.0,-2.5318856,2.1030347,-3.2773836
alexnet,1,259,NaN,knife,knife,1-0-10,0259_eid_dnn_1-0-10_knife_10_n03041632_38996.png,n03041632_38996.png,1.0,7.681127,4.795798,2.040236
alexnet,1,260,NaN,dog,oven,8-0-10,0260_eid_dnn_8-0-10_oven_10_n04111531_10420.png,n04111531_10420.png,0.0,1.4787958,3.077944,-1.1307687
alexnet,1,261,NaN,cat,dog,128-0-10,0261_eid_dnn_128-0-10_dog_10_n02094114_2394.png,n02094114_2394.png,0.0,1.3936012,3.8069565,-1.7064999
alexnet,1,262,NaN,cat,elephant,128-0-10,0262_eid_dnn_128-0-10_elephant_10_n02504013_4247.png,n02504013_4247.png,0.0,2.5073628,4.0411444,-1.0845473
alexnet,1,263,NaN,clock,chair,32-0-10,0263_eid_dnn_32-0-10_chair_10_n03376595_8137.png,n03376595_8137.png,0.0,1.6911249,2.3252552,-0.4483978
alexnet,1,264,NaN,cat,airplane,128-0-10,0264_eid_dnn_128-0-10_airplane_10_n02690373_8524.png,n02690373_8524.png,0.0,-3.3086596,1.9906063,-3.7471468
alexnet,1,265,NaN,elephant,car,64-0-10,0265_eid_dnn_64-0-10_car_10_n03100240_18410.png,n03100240_18410.png,0.0,-2.4336607,2.2376244,-3.3030975
alexnet,1,266,NaN,dog,clock,64-0-10,0266_eid_dnn_64-0-10_clock_10_n04548280_2588.png,n04548280_2588.png,0.0,0.4936737,2.555664,-1.4580473
alexnet,1,267,NaN,bottle,keyboard,32-0-10,0267_eid_dnn_32-0-10_keyboard_10_n03085013_24030.png,n03085013_24030.png,0.0,-1.1061428,2.0853565,-2.2567308
alexnet,1,268,NaN,clock,clock,2-0-10,0268_eid_dnn_2-0-10_clock_10_n03196217_6375.png,n03196217_6375.png,1.0,8.679404,4.866683,2.696001
alexnet,1,269,NaN,bottle,airplane,32-0-10,0269_eid_dnn_32-0-10_airplane_10_n02690373_4150.png,n02690373_4150.png,0.0,-2.7872143,1.4834071,-3.0197854
alexnet,1,270,NaN,cat,dog,4-0-10,0270_eid_dnn_4-0-10_dog_10_n02086646_6567.png,n02086646_6567.png,0.0,2.493164,3.2445,-0.5312747
alexnet,1,271,NaN,dog,clock,64-0-10,0271_eid_dnn_64-0-10_clock_10_n03196217_775.png,n03196217_775.png,0.0,-1.1925789,2.7927258,-2.818036
alexnet,1,272,NaN,car,car,1-0-10,0272_eid_dnn_1-0-10_car_10_n02814533_57353.png,n02814533_57353.png,1.0,11.030797,9.813746,0.86058474
alexnet,1,273,NaN,oven,bottle,16-0-10,0273_eid_dnn_16-0-10_bottle_10_n04560804_183.png,n04560804_183.png,0.0,0.101529054,3.192661,-2.1857605
alexnet,1,274,NaN,car,car,2-0-10,0274_eid_dnn_2-0-10_car_10_n04285008_10631.png,n04285008_10631.png,1.0,11.674098,4.837371,4.834296
alexnet,1,275,NaN,bear,bear,2-0-10,0275_eid_dnn_2-0-10_bear_10_n02132136_10057.png,n02132136_10057.png,1.0,14.416386,9.846533,3.231374
alexnet,1,276,NaN,bottle,boat,128-0-10,0276_eid_dnn_128-0-10_boat_10_n04273569_4605.png,n04273569_4605.png,0.0,-3.2504334,1.796423,-3.5686665
alexnet,1,277,NaN,elephant,cat,64-0-10,0277_eid_dnn_64-0-10_cat_10_n02123597_12711.png,n02123597_12711.png,0.0,1.9732618,3.0041203,-0.7289271
alexnet,1,278,NaN,bottle,bottle,1-0-10,0278_eid_dnn_1-0-10_bottle_10_n04560804_5610.png,n04560804_5610.png,1.0,6.0996237,5.062062,0.7336671
alexnet,1,279,NaN,elephant,clock,32-0-10,0279_eid_dnn_32-0-10_clock_10_n04548280_8412.png,n04548280_8412.png,0.0,0.5670269,3.6007752,-2.145184
alexnet,1,280,NaN,cat,cat,2-0-10,0280_eid_dnn_2-0-10_cat_10_n02123597_13834.png,n02123597_13834.png,1.0,6.0365825,3.8429227,1.5511518
alexnet,1,281,NaN,elephant,dog,128-0-10,0281_eid_dnn_128-0-10_dog_10_n02091831_538.png,n02091831_538.png,0.0,0.46934292,2.5608912,-1.478948
alexnet,1,282,NaN,bicycle,bicycle,32-0-10,0282_eid_dnn_32-0-10_bicycle_10_n03792782_10437.png,n03792782_10437.png,1.0,1.2727206,0.84541565,0.30215022
alexnet,1,283,NaN,bear,bear,2-0-10,0283_eid_dnn_2-0-10_bear_10_n02132136_2372.png,n02132136_2372.png,1.0,6.378253,4.8404117,1.0874181
alexnet,1,284,NaN,bicycle,bicycle,128-0-10,0284_eid_dnn_128-0-10_bicycle_10_n03792782_4540.png,n03792782_4540.png,1.0,3.6753185,1.5008876,1.5375549
alexnet,1,285,NaN,oven,elephant,2-0-10,0285_eid_dnn_2-0-10_elephant_10_n02504013_10152.png,n02504013_10152.png,0.0,2.781166,3.6880188,-0.6412417
alexnet,1,286,NaN,cat,boat,64-0-10,0286_eid_dnn_64-0-10_boat_10_n02951358_7603.png,n02951358_7603.png,0.0,-1.392173,2.7402809,-2.9220862
alexnet,1,287,NaN,dog,bear,2-0-10,0287_eid_dnn_2-0-10_bear_10_n02133161_9371.png,n02133161_9371.png,0.0,2.634891,4.245108,-1.1385955
alexnet,1,288,NaN,truck,truck,8-0-10,0288_eid_dnn_8-0-10_truck_10_n04467665_69892.png,n04467665_69892.png,1.0,3.078539,2.627836,0.3186951
alexnet,1,289,NaN,knife,knife,1-0-10,0289_eid_dnn_1-0-10_knife_10_n03041632_19275.png,n03041632_19275.png,1.0,3.2013984,1.9928648,0.8545623
alexnet,1,290,NaN,oven,keyboard,16-0-10,0290_eid_dnn_16-0-10_keyboard_10_n04505470_9446.png,n04505470_9446.png,0.0,-3.1974761,2.706771,-4.1749334
alexnet,1,291,NaN,elephant,elephant,1-0-10,0291_eid_dnn_1-0-10_elephant_10_n02504013_9141.png,n02504013_9141.png,1.0,7.64193,4.451126,2.2562392
alexnet,1,292,NaN,dog,bird,128-0-10,0292_eid_dnn_128-0-10_bird_10_n02056570_8553.png,n02056570_8553.png,0.0,-1.1855522,2.2996662,-2.4644217
alexnet,1,293,NaN,car,car,1-0-10,0293_eid_dnn_1-0-10_car_10_n03100240_9171.png,n03100240_9171.png,1.0,14.430878,8.123968,4.4596586
alexnet,1,294,NaN,cat,dog,8-0-10,0294_eid_dnn_8-0-10_dog_10_n02102177_1533.png,n02102177_1533.png,0.0,4.444169,4.698093,-0.1795513
alexnet,1,295,NaN,cat,cat,64-0-10,0295_eid_dnn_64-0-10_cat_10_n02124075_12464.png,n02124075_12464.png,1.0,2.2050383,2.0550554,0.10605395
alexnet,1,296,NaN,bottle,chair,4-0-10,0296_eid_dnn_4-0-10_chair_10_n04429376_33792.png,n04429376_33792.png,0.0,0.5163926,3.4954555,-2.1065156
alexnet,1,297,NaN,cat,bear,128-0-10,0297_eid_dnn_128-0-10_bear_10_n02133161_3258.png,n02133161_3258.png,0.0,1.1531739,4.532105,-2.389265
alexnet,1,298,NaN,elephant,dog,4-0-10,0298_eid_dnn_4-0-10_dog_10_n02097130_1442.png,n02097130_1442.png,0.0,2.3336694,4.7692575,-1.7222209
alexnet,1,299,NaN,bottle,chair,4-0-10,0299_eid_dnn_4-0-10_chair_10_n02791124_8970.png,n02791124_8970.png,0.0,1.668408,2.6831334,-0.71751916
alexnet,1,300,NaN,elephant,car,8-0-10,0300_eid_dnn_8-0-10_car_10_n04285008_8545.png,n04285008_8545.png,0.0,-0.5602421,3.8720682,-3.1341166
alexnet,1,301,NaN,truck,truck,1-0-10,0301_eid_dnn_1-0-10_truck_10_n03417042_2204.png,n03417042_2204.png,1.0,10.096306,5.767819,3.0607026
alexnet,1,302,NaN,bear,bear,2-0-10,0302_eid_dnn_2-0-10_bear_10_n02133161_15593.png,n02133161_15593.png,1.0,5.280837,3.5164144,1.2476352
alexnet,1,303,NaN,clock,clock,2-0-10,0303_eid_dnn_2-0-10_clock_10_n04548280_5845.png,n04548280_5845.png,1.0,5.076039,3.2279682,1.3067833
alexnet,1,304,NaN,knife,knife,4-0-10,0304_eid_dnn_4-0-10_knife_10_n03041632_4975.png,n03041632_4975.png,1.0,3.484518,3.0521228,0.3057496
alexnet,1,305,NaN,elephant,clock,32-0-10,0305_eid_dnn_32-0-10_clock_10_n03196217_4849.png,n03196217_4849.png,0.0,0.90722585,2.2870634,-0.97569245
alexnet,1,306,NaN,bicycle,bicycle,2-0-10,0306_eid_dnn_2-0-10_bicycle_10_n03792782_15752.png,n03792782_15752.png,1.0,4.1187143,3.55566,0.39813954
alexnet,1,307,NaN,dog,bicycle,16-0-10,0307_eid_dnn_16-0-10_bicycle_10_n02835271_29741.png,n02835271_29741.png,0.0,-0.64236104,3.1951694,-2.713544
alexnet,1,308,NaN,oven,chair,4-0-10,0308_eid_dnn_4-0-10_chair_10_n04099969_16619.png,n04099969_16619.png,0.0,3.7430682,4.0600147,-0.22411503
alexnet,1,309,NaN,keyboard,keyboard,4-0-10,0309_eid_dnn_4-0-10_keyboard_10_n04505470_4552.png,n04505470_4552.png,1.0,10.1662655,5.097451,3.584193
alexnet,1,310,NaN,elephant,boat,8-0-10,0310_eid_dnn_8-0-10_boat_10_n02951358_13144.png,n02951358_13144.png,0.0,0.44541144,4.362506,-2.769804
alexnet,1,311,NaN,bear,bird,32-0-10,0311_eid_dnn_32-0-10_bird_10_n01797886_14611.png,n01797886_14611.png,0.0,0.31337038,3.064921,-1.94564
alexnet,1,312,NaN,knife,knife,1-0-10,0312_eid_dnn_1-0-10_knife_10_n03041632_3326.png,n03041632_3326.png,1.0,7.6170654,4.2939224,2.349817
alexnet,1,313,NaN,bear,elephant,8-0-10,0313_eid_dnn_8-0-10_elephant_10_n02504013_5829.png,n02504013_5829.png,0.0,1.7953547,3.9853015,-1.5485262
alexnet,1,314,NaN,cat,dog,16-0-10,0314_eid_dnn_16-0-10_dog_10_n02088094_2292.png,n02088094_2292.png,0.0,2.3082666,2.8576415,-0.38846666
alexnet,1,315,NaN,cat,oven,8-0-10,0315_eid_dnn_8-0-10_oven_10_n04111531_4944.png,n04111531_4944.png,0.0,1.1764405,4.0651436,-2.0426216
alexnet,1,316,NaN,dog,oven,32-0-10,0316_eid_dnn_32-0-10_oven_10_n04111531_669.png,n04111531_669.png,0.0,-1.3849392,2.3591545,-2.647474
alexnet,1,317,NaN,oven,car,64-0-10,0317_eid_dnn_64-0-10_car_10_n02814533_6716.png,n02814533_6716.png,0.0,-3.727006,3.1088712,-4.8336954
alexnet,1,318,NaN,cat,bear,32-0-10,0318_eid_dnn_32-0-10_bear_10_n02132136_26438.png,n02132136_26438.png,0.0,1.6458173,1.8458619,-0.14145292
alexnet,1,319,NaN,knife,bottle,4-0-10,0319_eid_dnn_4-0-10_bottle_10_n03983396_3027.png,n03983396_3027.png,0.0,2.5138202,2.7750173,-0.18469423
alexnet,1,320,NaN,elephant,elephant,2-0-10,0320_eid_dnn_2-0-10_elephant_10_n02504013_9299.png,n02504013_9299.png,1.0,10.154976,3.8148243,4.4831643
alexnet,1,321,NaN,knife,knife,2-0-10,0321_eid_dnn_2-0-10_knife_10_n03041632_13846.png,n03041632_13846.png,1.0,4.1353517,4.0101867,0.088505015
alexnet,1,322,NaN,chair,airplane,64-0-10,0322_eid_dnn_64-0-10_airplane_10_n02690373_16250.png,n02690373_16250.png,0.0,-1.2581356,1.7047706,-2.095091
alexnet,1,323,NaN,cat,boat,64-0-10,0323_eid_dnn_64-0-10_boat_10_n03662601_13696.png,n03662601_13696.png,0.0,-2.0844793,2.3495572,-3.135337
alexnet,1,324,NaN,cat,cat,1-0-10,0324_eid_dnn_1-0-10_cat_10_n02123597_5692.png,n02123597_5692.png,1.0,8.863858,5.400404,2.449032
alexnet,1,325,NaN,dog,clock,8-0-10,0325_eid_dnn_8-0-10_clock_10_n02708093_3171.png,n02708093_3171.png,0.0,0.03783357,2.7530315,-1.919935
alexnet,1,326,NaN,cat,keyboard,128-0-10,0326_eid_dnn_128-0-10_keyboard_10_n04505470_4902.png,n04505470_4902.png,0.0,-1.8591552,2.9843836,-3.424899
alexnet,1,327,NaN,cat,dog,2-0-10,0327_eid_dnn_2-0-10_dog_10_n02113624_1170.png,n02113624_1170.png,0.0,2.929358,4.950848,-1.4294094
alexnet,1,328,NaN,clock,clock,2-0-10,0328_eid_dnn_2-0-10_clock_10_n03196217_1272.png,n03196217_1272.png,1.0,8.408717,5.310598,2.1907012
alexnet,1,329,NaN,cat,cat,128-0-10,0329_eid_dnn_128-0-10_cat_10_n02123394_8946.png,n02123394_8946.png,1.0,2.5576816,1.7529311,0.56904453
alexnet,1,330,NaN,dog,car,8-0-10,0330_eid_dnn_8-0-10_car_10_n03100240_7134.png,n03100240_7134.png,0.0,-0.17020595,2.639239,-1.9865776
alexnet,1,331,NaN,bicycle,bicycle,4-0-10,0331_eid_dnn_4-0-10_bicycle_10_n03792782_16034.png,n03792782_16034.png,1.0,3.062328,2.0689883,0.7023973
alexnet,1,332,NaN,bear,dog,8-0-10,0332_eid_dnn_8-0-10_dog_10_n02104029_5465.png,n02104029_5465.png,0.0,3.0518744,3.113295,-0.04343098
alexnet,1,333,NaN,keyboard,keyboard,4-0-10,0333_eid_dnn_4-0-10_keyboard_10_n04505470_5011.png,n04505470_5011.png,1.0,11.622647,8.78578,2.005968
alexnet,1,334,NaN,dog,bird,8-0-10,0334_eid_dnn_8-0-10_bird_10_n02009912_27132.png,n02009912_27132.png,0.0,-0.72517705,2.4949062,-2.2769427
alexnet,1,335,NaN,cat,knife,64-0-10,0335_eid_dnn_64-0-10_knife_10_n03041632_3171.png,n03041632_3171.png,0.0,-1.7477695,1.5986748,-2.3662934
alexnet,1,336,NaN,oven,bear,32-0-10,0336_eid_dnn_32-0-10_bear_10_n02134084_21170.png,n02134084_21170.png,0.0,0.64222026,2.1905751,-1.0948522
alexnet,1,337,NaN,cat,dog,4-0-10,0337_eid_dnn_4-0-10_dog_10_n02086079_29044.png,n02086079_29044.png,0.0,3.4066703,4.146821,-0.52336556
alexnet,1,338,NaN,cat,cat,4-0-10,0338_eid_dnn_4-0-10_cat_10_n02124075_8465.png,n02124075_8465.png,1.0,6.018379,2.0223372,2.8256285
alexnet,1,339,NaN,clock,bird,128-0-10,0339_eid_dnn_128-0-10_bird_10_n01855032_982.png,n01855032_982.png,0.0,-1.5827937,1.4708543,-2.1592553
alexnet,1,340,NaN,cat,truck,32-0-10,0340_eid_dnn_32-0-10_truck_10_n03417042_6373.png,n03417042_6373.png,0.0,0.13643241,2.8044307,-1.8865597
alexnet,1,341,NaN,cat,airplane,16-0-10,0341_eid_dnn_16-0-10_airplane_10_n02690373_9959.png,n02690373_9959.png,0.0,-2.9361215,2.607262,-3.9197643
alexnet,1,342,NaN,oven,clock,32-0-10,0342_eid_dnn_32-0-10_clock_10_n04548280_2260.png,n04548280_2260.png,0.0,0.44089392,2.2719078,-1.2947224
alexnet,1,343,NaN,bottle,bottle,16-0-10,0343_eid_dnn_16-0-10_bottle_10_n03983396_5281.png,n03983396_5281.png,1.0,2.1883302,1.284624,0.6390168
alexnet,1,344,NaN,cat,cat,4-0-10,0344_eid_dnn_4-0-10_cat_10_n02123159_1113.png,n02123159_1113.png,1.0,7.604483,4.9425297,1.8822854
alexnet,1,345,NaN,cat,keyboard,64-0-10,0345_eid_dnn_64-0-10_keyboard_10_n03085013_20460.png,n03085013_20460.png,0.0,-1.7084863,2.362487,-2.878613
alexnet,1,346,NaN,cat,clock,8-0-10,0346_eid_dnn_8-0-10_clock_10_n03196217_884.png,n03196217_884.png,0.0,-0.2483389,2.6409955,-2.043068
alexnet,1,347,NaN,cat,clock,8-0-10,0347_eid_dnn_8-0-10_clock_10_n03196217_6257.png,n03196217_6257.png,0.0,-2.051689,3.610254,-4.003598
alexnet,1,348,NaN,cat,dog,32-0-10,0348_eid_dnn_32-0-10_dog_10_n02113624_2109.png,n02113624_2109.png,0.0,2.4114957,3.067846,-0.4641098
alexnet,1,349,NaN,keyboard,keyboard,1-0-10,0349_eid_dnn_1-0-10_keyboard_10_n03085013_20416.png,n03085013_20416.png,1.0,11.638451,7.091896,3.2148995
alexnet,1,350,NaN,bird,bird,2-0-10,0350_eid_dnn_2-0-10_bird_10_n01820546_4609.png,n01820546_4609.png,1.0,2.7806017,1.674258,0.78230315
alexnet,1,351,NaN,oven,cat,64-0-10,0351_eid_dnn_64-0-10_cat_10_n02125311_47792.png,n02125311_47792.png,0.0,0.58671224,1.9883671,-0.9911197
alexnet,1,352,NaN,oven,boat,16-0-10,0352_eid_dnn_16-0-10_boat_10_n04612504_1491.png,n04612504_1491.png,0.0,0.8753293,2.5088184,-1.1550512
alexnet,1,353,NaN,bear,truck,16-0-10,0353_eid_dnn_16-0-10_truck_10_n03417042_910.png,n03417042_910.png,0.0,-0.20459291,3.691874,-2.7552183
alexnet,1,354,NaN,clock,airplane,64-0-10,0354_eid_dnn_64-0-10_airplane_10_n02690373_2038.png,n02690373_2038.png,0.0,-1.8220767,1.6466861,-2.4527857
alexnet,1,355,NaN,cat,cat,2-0-10,0355_eid_dnn_2-0-10_cat_10_n02123394_8164.png,n02123394_8164.png,1.0,7.30554,3.7487085,2.5150597
alexnet,1,356,NaN,oven,oven,2-0-10,0356_eid_dnn_2-0-10_oven_10_n04111531_22097.png,n04111531_22097.png,1.0,6.143297,3.3289268,1.9900604
alexnet,1,357,NaN,cat,bear,128-0-10,0357_eid_dnn_128-0-10_bear_10_n02134418_278.png,n02134418_278.png,0.0,-0.7755821,2.686926,-2.4483628
alexnet,1,358,NaN,clock,bird,4-0-10,0358_eid_dnn_4-0-10_bird_10_n01592084_9109.png,n01592084_9109.png,0.0,-0.863506,1.9224867,-1.9699943
alexnet,1,359,NaN,bicycle,clock,32-0-10,0359_eid_dnn_32-0-10_clock_10_n03196217_3695.png,n03196217_3695.png,0.0,0.38548172,1.86399,-1.0454632
alexnet,1,360,NaN,cat,elephant,128-0-10,0360_eid_dnn_128-0-10_elephant_10_n02504458_8939.png,n02504458_8939.png,0.0,2.3847477,4.5238194,-1.5125521
alexnet,1,361,NaN,airplane,elephant,2-0-10,0361_eid_dnn_2-0-10_elephant_10_n02504013_7926.png,n02504013_7926.png,0.0,2.3598561,6.53737,-2.9539485
alexnet,1,362,NaN,elephant,bear,4-0-10,0362_eid_dnn_4-0-10_bear_10_n02133161_11816.png,n02133161_11816.png,0.0,4.3612213,8.275202,-2.7676022
alexnet,1,363,NaN,knife,bird,2-0-10,0363_eid_dnn_2-0-10_bird_10_n02056570_18300.png,n02056570_18300.png,0.0,-1.3503133,2.6213071,-2.8083599
alexnet,1,364,NaN,airplane,chair,2-0-10,0364_eid_dnn_2-0-10_chair_10_n02791124_7063.png,n02791124_7063.png,0.0,2.774732,3.8818045,-0.7828184
alexnet,1,365,NaN,oven,chair,8-0-10,0365_eid_dnn_8-0-10_chair_10_n03376595_8289.png,n03376595_8289.png,0.0,1.0000879,2.2603464,-0.89113736
alexnet,1,366,NaN,airplane,airplane,4-0-10,0366_eid_dnn_4-0-10_airplane_10_n02690373_4434.png,n02690373_4434.png,1.0,5.517379,2.495771,2.1365995
alexnet,1,367,NaN,truck,truck,1-0-10,0367_eid_dnn_1-0-10_truck_10_n03417042_8953.png,n03417042_8953.png,1.0,12.991392,9.842073,2.2269046
alexnet,1,368,NaN,cat,bear,64-0-10,0368_eid_dnn_64-0-10_bear_10_n02132136_699.png,n02132136_699.png,0.0,1.7285182,2.474818,-0.5277136
alexnet,1,369,NaN,cat,knife,8-0-10,0369_eid_dnn_8-0-10_knife_10_n03041632_20517.png,n03041632_20517.png,0.0,1.6910348,2.6574705,-0.6833732
alexnet,1,370,NaN,oven,bottle,32-0-10,0370_eid_dnn_32-0-10_bottle_10_n03983396_1910.png,n03983396_1910.png,0.0,0.7826827,3.5635326,-1.9663578
alexnet,1,371,NaN,oven,oven,8-0-10,0371_eid_dnn_8-0-10_oven_10_n04111531_16198.png,n04111531_16198.png,1.0,3.0217407,2.1309116,0.6299113
alexnet,1,372,NaN,dog,elephant,64-0-10,0372_eid_dnn_64-0-10_elephant_10_n02504013_13427.png,n02504013_13427.png,0.0,-0.97142583,2.526823,-2.4736354
alexnet,1,373,NaN,cat,airplane,16-0-10,0373_eid_dnn_16-0-10_airplane_10_n02690373_1075.png,n02690373_1075.png,0.0,-2.2699933,2.7072067,-3.519412
alexnet,1,374,NaN,dog,car,64-0-10,0374_eid_dnn_64-0-10_car_10_n03100240_5527.png,n03100240_5527.png,0.0,-3.4237735,3.1305544,-4.6346097
alexnet,1,375,NaN,bear,bear,1-0-10,0375_eid_dnn_1-0-10_bear_10_n02132136_4632.png,n02132136_4632.png,1.0,9.455891,6.3316107,2.2091997
alexnet,1,376,NaN,boat,boat,1-0-10,0376_eid_dnn_1-0-10_boat_10_n04273569_6158.png,n04273569_6158.png,1.0,6.6523414,2.6842296,2.8058789
alexnet,1,377,NaN,bear,knife,32-0-10,0377_eid_dnn_32-0-10_knife_10_n03041632_18141.png,n03041632_18141.png,0.0,-0.8336594,3.389598,-2.9862938
alexnet,1,378,NaN,oven,bear,16-0-10,0378_eid_dnn_16-0-10_bear_10_n02132136_6378.png,n02132136_6378.png,0.0,2.2281299,3.3920822,-0.82303864
alexnet,1,379,NaN,elephant,elephant,2-0-10,0379_eid_dnn_2-0-10_elephant_10_n02504458_5095.png,n02504458_5095.png,1.0,9.771723,3.8511117,4.1865044
alexnet,1,380,NaN,elephant,elephant,4-0-10,0380_eid_dnn_4-0-10_elephant_10_n02504013_10582.png,n02504013_10582.png,1.0,7.3472624,5.5187287,1.2929685
alexnet,1,381,NaN,cat,chair,16-0-10,0381_eid_dnn_16-0-10_chair_10_n04099969_28139.png,n04099969_28139.png,0.0,-0.81741464,3.9268532,-3.3547041
alexnet,1,382,NaN,keyboard,keyboard,2-0-10,0382_eid_dnn_2-0-10_keyboard_10_n04505470_279.png,n04505470_279.png,1.0,13.69417,7.6832747,4.2503448
alexnet,1,383,NaN,dog,car,8-0-10,0383_eid_dnn_8-0-10_car_10_n02814533_79696.png,n02814533_79696.png,0.0,-2.5138452,3.1139536,-3.979455
alexnet,1,384,NaN,bear,cat,64-0-10,0384_eid_dnn_64-0-10_cat_10_n02124075_7984.png,n02124075_7984.png,0.0,2.0765164,2.9255662,-0.60036886
alexnet,1,385,NaN,bottle,car,4-0-10,0385_eid_dnn_4-0-10_car_10_n02814533_27327.png,n02814533_27327.png,0.0,0.08522112,2.3375173,-1.5926139
alexnet,1,386,NaN,cat,bear,4-0-10,0386_eid_dnn_4-0-10_bear_10_n02134084_967.png,n02134084_967.png,0.0,2.7811794,5.4876657,-1.9137748
alexnet,1,387,NaN,cat,bear,64-0-10,0387_eid_dnn_64-0-10_bear_10_n02132136_949.png,n02132136_949.png,0.0,1.0910598,1.2441791,-0.10827172
alexnet,1,388,NaN,oven,bicycle,16-0-10,0388_eid_dnn_16-0-10_bicycle_10_n03792782_2905.png,n03792782_2905.png,0.0,1.6238291,2.6834917,-0.74929464
alexnet,1,389,NaN,cat,bicycle,8-0-10,0389_eid_dnn_8-0-10_bicycle_10_n03792782_34550.png,n03792782_34550.png,0.0,-0.59965205,3.9461203,-3.2143466
alexnet,1,390,NaN,elephant,bear,16-0-10,0390_eid_dnn_16-0-10_bear_10_n02132136_9055.png,n02132136_9055.png,0.0,3.7504907,4.6022124,-0.60225827
alexnet,1,391,NaN,bicycle,bear,64-0-10,0391_eid_dnn_64-0-10_bear_10_n02134084_7904.png,n02134084_7904.png,0.0,0.26989472,1.7509099,-1.047236
alexnet,1,392,NaN,clock,clock,4-0-10,0392_eid_dnn_4-0-10_clock_10_n04548280_4526.png,n04548280_4526.png,1.0,6.2494206,5.7039175,0.38572899
alexnet,1,393,NaN,bottle,bottle,1-0-10,0393_eid_dnn_1-0-10_bottle_10_n02823428_685.png,n02823428_685.png,1.0,4.2321143,3.859142,0.2637312
alexnet,1,394,NaN,bear,keyboard,64-0-10,0394_eid_dnn_64-0-10_keyboard_10_n04505470_3935.png,n04505470_3935.png,0.0,-3.6061215,2.683196,-4.4472194
alexnet,1,395,NaN,cat,dog,64-0-10,0395_eid_dnn_64-0-10_dog_10_n02096051_3825.png,n02096051_3825.png,0.0,1.8682421,2.3350916,-0.33011243
alexnet,1,396,NaN,dog,dog,2-0-10,0396_eid_dnn_2-0-10_dog_10_n02089078_10601.png,n02089078_10601.png,1.0,5.9638524,5.804395,0.11275327
alexnet,1,397,NaN,clock,clock,2-0-10,0397_eid_dnn_2-0-10_clock_10_n02708093_5236.png,n02708093_5236.png,1.0,24.704123,5.827868,13.347528
alexnet,1,398,NaN,cat,cat,2-0-10,0398_eid_dnn_2-0-10_cat_10_n02123159_2682.png,n02123159_2682.png,1.0,7.765737,1.3501132,4.536531
alexnet,1,399,NaN,chair,oven,1-0-10,0399_eid_dnn_1-0-10_oven_10_n04111531_10216.png,n04111531_10216.png,0.0,5.7018895,7.4336753,-1.2245575
alexnet,1,400,NaN,cat,boat,2-0-10,0400_eid_dnn_2-0-10_boat_10_n02951358_7137.png,n02951358_7137.png,0.0,0.97614115,2.6787708,-1.203941
alexnet,1,401,NaN,cat,bird,64-0-10,0401_eid_dnn_64-0-10_bird_10_n02007558_6127.png,n02007558_6127.png,0.0,-0.99495816,2.1256638,-2.206613
alexnet,1,402,NaN,cat,dog,16-0-10,0402_eid_dnn_16-0-10_dog_10_n02096051_4804.png,n02096051_4804.png,0.0,4.656198,4.9058385,-0.17652246
alexnet,1,403,NaN,cat,bottle,8-0-10,0403_eid_dnn_8-0-10_bottle_10_n03983396_13764.png,n03983396_13764.png,0.0,2.2427523,3.0524247,-0.57252485
alexnet,1,404,NaN,dog,knife,32-0-10,0404_eid_dnn_32-0-10_knife_10_n03041632_105081.png,n03041632_105081.png,0.0,-0.3709185,2.6838193,-2.1600258
alexnet,1,405,NaN,cat,boat,8-0-10,0405_eid_dnn_8-0-10_boat_10_n03344393_3535.png,n03344393_3535.png,0.0,1.278286,3.8878434,-1.8452357
alexnet,1,406,NaN,bear,keyboard,64-0-10,0406_eid_dnn_64-0-10_keyboard_10_n03085013_22929.png,n03085013_22929.png,0.0,-2.39994,2.086529,-3.1724129
alexnet,1,407,NaN,bottle,bottle,1-0-10,0407_eid_dnn_1-0-10_bottle_10_n04579145_5979.png,n04579145_5979.png,1.0,10.599815,1.1994084,6.6470914
alexnet,1,408,NaN,knife,knife,2-0-10,0408_eid_dnn_2-0-10_knife_10_n03041632_31301.png,n03041632_31301.png,1.0,11.19466,1.8770367,6.5885544
alexnet,1,409,NaN,cat,car,128-0-10,0409_eid_dnn_128-0-10_car_10_n04285008_14653.png,n04285008_14653.png,0.0,-3.247916,3.70774,-4.9183917
alexnet,1,410,NaN,bear,clock,16-0-10,0410_eid_dnn_16-0-10_clock_10_n03196217_1601.png,n03196217_1601.png,0.0,1.1761547,2.3214552,-0.8098498
alexnet,1,411,NaN,bottle,bicycle,8-0-10,0411_eid_dnn_8-0-10_bicycle_10_n02835271_25268.png,n02835271_25268.png,0.0,-1.2051065,1.8731064,-2.1766253
alexnet,1,412,NaN,elephant,bird,16-0-10,0412_eid_dnn_16-0-10_bird_10_n02037110_875.png,n02037110_875.png,0.0,-0.3438445,4.0427885,-3.1018178
alexnet,1,413,NaN,clock,airplane,128-0-10,0413_eid_dnn_128-0-10_airplane_10_n02690373_6807.png,n02690373_6807.png,0.0,-3.6293812,3.0188959,-4.701042
alexnet,1,414,NaN,bottle,clock,16-0-10,0414_eid_dnn_16-0-10_clock_10_n04548280_10066.png,n04548280_10066.png,0.0,2.5002072,3.3154776,-0.57648325
alexnet,1,415,NaN,elephant,boat,64-0-10,0415_eid_dnn_64-0-10_boat_10_n02951358_15252.png,n02951358_15252.png,0.0,-1.9109347,3.8237739,-4.0550513
alexnet,1,416,NaN,cat,car,64-0-10,0416_eid_dnn_64-0-10_car_10_n02814533_4803.png,n02814533_4803.png,0.0,-3.0969448,3.7739723,-4.8584723
alexnet,1,417,NaN,oven,car,16-0-10,0417_eid_dnn_16-0-10_car_10_n03100240_24544.png,n03100240_24544.png,0.0,-2.6240652,3.7230806,-4.48811
alexnet,1,418,NaN,cat,bear,128-0-10,0418_eid_dnn_128-0-10_bear_10_n02132136_4219.png,n02132136_4219.png,0.0,0.19491944,2.575857,-1.6835772
alexnet,1,419,NaN,bear,bicycle,32-0-10,0419_eid_dnn_32-0-10_bicycle_10_n02835271_507.png,n02835271_507.png,0.0,2.2699547,3.172186,-0.63797385
alexnet,1,420,NaN,boat,boat,1-0-10,0420_eid_dnn_1-0-10_boat_10_n04273569_13290.png,n04273569_13290.png,1.0,7.3288584,4.2964573,2.1442313
alexnet,1,421,NaN,bicycle,bicycle,2-0-10,0421_eid_dnn_2-0-10_bicycle_10_n03792782_42626.png,n03792782_42626.png,1.0,2.977803,2.393638,0.4130671
alexnet,1,422,NaN,dog,dog,8-0-10,0422_eid_dnn_8-0-10_dog_10_n02106382_3856.png,n02106382_3856.png,1.0,4.783908,3.0501442,1.2259561
alexnet,1,423,NaN,clock,clock,1-0-10,0423_eid_dnn_1-0-10_clock_10_n02708093_274.png,n02708093_274.png,1.0,7.219416,2.615946,3.2551448
alexnet,1,424,NaN,cat,bottle,32-0-10,0424_eid_dnn_32-0-10_bottle_10_n04591713_5921.png,n04591713_5921.png,0.0,0.8986169,2.4048069,-1.0650371
alexnet,1,425,NaN,elephant,elephant,1-0-10,0425_eid_dnn_1-0-10_elephant_10_n02504458_3851.png,n02504458_3851.png,1.0,8.205698,2.5547926,3.9957938
alexnet,1,426,NaN,bicycle,dog,32-0-10,0426_eid_dnn_32-0-10_dog_10_n02105855_995.png,n02105855_995.png,0.0,1.2476553,3.129784,-1.3308661
alexnet,1,427,NaN,knife,airplane,2-0-10,0427_eid_dnn_2-0-10_airplane_10_n02690373_1979.png,n02690373_1979.png,0.0,2.2440143,2.2736514,-0.020956593
alexnet,1,428,NaN,airplane,airplane,1-0-10,0428_eid_dnn_1-0-10_airplane_10_n02690373_6455.png,n02690373_6455.png,1.0,13.480726,5.6943893,5.5057716
alexnet,1,429,NaN,oven,oven,1-0-10,0429_eid_dnn_1-0-10_oven_10_n04111531_18979.png,n04111531_18979.png,1.0,5.256466,2.5955122,1.8815784
alexnet,1,430,NaN,elephant,oven,32-0-10,0430_eid_dnn_32-0-10_oven_10_n04111531_16795.png,n04111531_16795.png,0.0,1.1337912,3.554847,-1.711945
alexnet,1,431,NaN,truck,truck,4-0-10,0431_eid_dnn_4-0-10_truck_10_n04467665_41076.png,n04467665_41076.png,1.0,3.8011036,3.7724314,0.02027432
alexnet,1,432,NaN,oven,bird,16-0-10,0432_eid_dnn_16-0-10_bird_10_n01534433_31697.png,n01534433_31697.png,0.0,-1.4906434,2.7951646,-3.030524
alexnet,1,433,NaN,cat,keyboard,128-0-10,0433_eid_dnn_128-0-10_keyboard_10_n04505470_4289.png,n04505470_4289.png,0.0,-1.1095902,1.5115122,-1.8533993
alexnet,1,434,NaN,keyboard,keyboard,4-0-10,0434_eid_dnn_4-0-10_keyboard_10_n03085013_20727.png,n03085013_20727.png,1.0,6.6229506,1.0413933,3.946757
alexnet,1,435,NaN,cat,boat,8-0-10,0435_eid_dnn_8-0-10_boat_10_n04273569_7315.png,n04273569_7315.png,0.0,2.68164,2.7829762,-0.07165554
alexnet,1,436,NaN,bottle,car,1-0-10,0436_eid_dnn_1-0-10_car_10_n03100240_16646.png,n03100240_16646.png,0.0,3.0994632,4.0518146,-0.6734141
alexnet,1,437,NaN,cat,car,16-0-10,0437_eid_dnn_16-0-10_car_10_n03100240_5281.png,n03100240_5281.png,0.0,-3.637634,3.0242977,-4.710697
alexnet,1,438,NaN,clock,airplane,128-0-10,0438_eid_dnn_128-0-10_airplane_10_n02690373_1670.png,n02690373_1670.png,0.0,-2.7894154,1.8371892,-3.2715034
alexnet,1,439,NaN,bicycle,airplane,128-0-10,0439_eid_dnn_128-0-10_airplane_10_n02690373_9293.png,n02690373_9293.png,0.0,-2.503453,2.2936907,-3.3920932
alexnet,1,440,NaN,cat,truck,128-0-10,0440_eid_dnn_128-0-10_truck_10_n03796401_15846.png,n03796401_15846.png,0.0,-2.2811737,3.0669034,-3.7816615
alexnet,1,441,NaN,cat,truck,32-0-10,0441_eid_dnn_32-0-10_truck_10_n03796401_6971.png,n03796401_6971.png,0.0,-0.4131284,2.2788098,-1.9034878
alexnet,1,442,NaN,bicycle,oven,128-0-10,0442_eid_dnn_128-0-10_oven_10_n04111531_10724.png,n04111531_10724.png,0.0,-0.15686002,1.7396044,-1.3410028
alexnet,1,443,NaN,cat,keyboard,8-0-10,0443_eid_dnn_8-0-10_keyboard_10_n03085013_22187.png,n03085013_22187.png,0.0,-1.0222256,5.6841063,-4.742093
alexnet,1,444,NaN,dog,oven,8-0-10,0444_eid_dnn_8-0-10_oven_10_n04111531_4671.png,n04111531_4671.png,0.0,0.34173408,3.2267056,-2.0399828
alexnet,1,445,NaN,airplane,airplane,4-0-10,0445_eid_dnn_4-0-10_airplane_10_n02690373_5142.png,n02690373_5142.png,1.0,6.0239677,4.9431725,0.7642377
alexnet,1,446,NaN,elephant,elephant,4-0-10,0446_eid_dnn_4-0-10_elephant_10_n02504013_8562.png,n02504013_8562.png,1.0,6.6988115,3.791224,2.055975
alexnet,1,447,NaN,truck,truck,1-0-10,0447_eid_dnn_1-0-10_truck_10_n03417042_9668.png,n03417042_9668.png,1.0,5.5812407,3.5099602,1.4646165
alexnet,1,448,NaN,dog,bottle,8-0-10,0448_eid_dnn_8-0-10_bottle_10_n03983396_10330.png,n03983396_10330.png,0.0,1.5384473,4.5538464,-2.132209
alexnet,1,449,NaN,cat,elephant,128-0-10,0449_eid_dnn_128-0-10_elephant_10_n02504458_4395.png,n02504458_4395.png,0.0,-0.021089256,2.734155,-1.948252
alexnet,1,450,NaN,cat,boat,64-0-10,0450_eid_dnn_64-0-10_boat_10_n03344393_4562.png,n03344393_4562.png,0.0,-1.4071214,2.5909464,-2.827061
alexnet,1,451,NaN,dog,oven,2-0-10,0451_eid_dnn_2-0-10_oven_10_n04111531_10011.png,n04111531_10011.png,0.0,2.426101,3.5504606,-0.79504234
alexnet,1,452,NaN,bear,oven,64-0-10,0452_eid_dnn_64-0-10_oven_10_n04111531_13797.png,n04111531_13797.png,0.0,-1.896274,2.573806,-3.1608238
alexnet,1,453,NaN,airplane,boat,2-0-10,0453_eid_dnn_2-0-10_boat_10_n03662601_840.png,n03662601_840.png,0.0,5.2659044,6.5535927,-0.91053313
alexnet,1,454,NaN,dog,truck,16-0-10,0454_eid_dnn_16-0-10_truck_10_n03417042_17037.png,n03417042_17037.png,0.0,-0.8307941,2.9369216,-2.6641774
alexnet,1,455,NaN,dog,cat,64-0-10,0455_eid_dnn_64-0-10_cat_10_n02125311_2576.png,n02125311_2576.png,0.0,1.7093211,2.4401107,-0.5167462
alexnet,1,456,NaN,bottle,keyboard,32-0-10,0456_eid_dnn_32-0-10_keyboard_10_n03085013_3264.png,n03085013_3264.png,0.0,-4.6713614,2.0517812,-4.7539797
alexnet,1,457,NaN,dog,dog,64-0-10,0457_eid_dnn_64-0-10_dog_10_n02097130_3519.png,n02097130_3519.png,1.0,1.4597765,1.1968738,0.18590032
alexnet,1,458,NaN,clock,airplane,16-0-10,0458_eid_dnn_16-0-10_airplane_10_n02690373_4486.png,n02690373_4486.png,0.0,-0.65129495,2.0164323,-1.886368
alexnet,1,459,NaN,dog,bottle,16-0-10,0459_eid_dnn_16-0-10_bottle_10_n03983396_19635.png,n03983396_19635.png,0.0,0.9971327,3.7294948,-1.9320718
alexnet,1,460,NaN,cat,airplane,16-0-10,0460_eid_dnn_16-0-10_airplane_10_n02690373_1426.png,n02690373_1426.png,0.0,-0.6333332,3.3998039,-2.8518589
alexnet,1,461,NaN,oven,oven,4-0-10,0461_eid_dnn_4-0-10_oven_10_n04111531_5279.png,n04111531_5279.png,1.0,3.0620873,2.632391,0.30384117
alexnet,1,462,NaN,dog,bottle,64-0-10,0462_eid_dnn_64-0-10_bottle_10_n03983396_4024.png,n03983396_4024.png,0.0,0.46645862,1.462756,-0.7044887
alexnet,1,463,NaN,cat,bear,8-0-10,0463_eid_dnn_8-0-10_bear_10_n02133161_12751.png,n02133161_12751.png,0.0,1.4423264,3.1900291,-1.2358124
alexnet,1,464,NaN,cat,car,8-0-10,0464_eid_dnn_8-0-10_car_10_n02814533_12271.png,n02814533_12271.png,0.0,-1.6457129,4.99709,-4.6971707
alexnet,1,465,NaN,dog,bottle,16-0-10,0465_eid_dnn_16-0-10_bottle_10_n04560804_5068.png,n04560804_5068.png,0.0,1.5122395,3.9994462,-1.7587208
alexnet,1,466,NaN,cat,bottle,128-0-10,0466_eid_dnn_128-0-10_bottle_10_n04579145_1168.png,n04579145_1168.png,0.0,-0.044455256,5.637094,-4.017462
alexnet,1,467,NaN,cat,knife,64-0-10,0467_eid_dnn_64-0-10_knife_10_n03041632_2973.png,n03041632_2973.png,0.0,-1.0528297,3.1747653,-2.9893613
alexnet,1,468,NaN,cat,airplane,16-0-10,0468_eid_dnn_16-0-10_airplane_10_n02690373_19329.png,n02690373_19329.png,0.0,-0.19939688,1.0787336,-0.9037747
alexnet,1,469,NaN,oven,bottle,32-0-10,0469_eid_dnn_32-0-10_bottle_10_n04560804_1356.png,n04560804_1356.png,0.0,-0.16503395,2.5994673,-1.9547976
alexnet,1,470,NaN,cat,bear,8-0-10,0470_eid_dnn_8-0-10_bear_10_n02134084_3960.png,n02134084_3960.png,0.0,1.4963953,3.007166,-1.0682762
alexnet,1,471,NaN,boat,boat,4-0-10,0471_eid_dnn_4-0-10_boat_10_n04612504_27504.png,n04612504_27504.png,1.0,4.803508,1.8379794,2.0969453
alexnet,1,472,NaN,dog,dog,4-0-10,0472_eid_dnn_4-0-10_dog_10_n02099601_9973.png,n02099601_9973.png,1.0,4.095293,3.5100727,0.41381326
alexnet,1,473,NaN,cat,truck,64-0-10,0473_eid_dnn_64-0-10_truck_10_n03417042_26843.png,n03417042_26843.png,0.0,-1.7130325,1.778602,-2.4689584
alexnet,1,474,NaN,cat,knife,64-0-10,0474_eid_dnn_64-0-10_knife_10_n03041632_55711.png,n03041632_55711.png,0.0,-0.120903134,2.3054492,-1.7156904
alexnet,1,475,NaN,bear,elephant,8-0-10,0475_eid_dnn_8-0-10_elephant_10_n02504013_1986.png,n02504013_1986.png,0.0,-0.10559839,3.6484842,-2.6545374
alexnet,1,476,NaN,knife,keyboard,4-0-10,0476_eid_dnn_4-0-10_keyboard_10_n03085013_9475.png,n03085013_9475.png,0.0,4.1408167,4.560985,-0.29710394
alexnet,1,477,NaN,dog,elephant,32-0-10,0477_eid_dnn_32-0-10_elephant_10_n02504458_3381.png,n02504458_3381.png,0.0,0.3865484,1.9377173,-1.096842
alexnet,1,478,NaN,knife,airplane,8-0-10,0478_eid_dnn_8-0-10_airplane_10_n02690373_1161.png,n02690373_1161.png,0.0,0.8305305,2.0813012,-0.88442844
alexnet,1,479,NaN,clock,cat,64-0-10,0479_eid_dnn_64-0-10_cat_10_n02124075_7474.png,n02124075_7474.png,0.0,0.6615691,1.4264494,-0.54085207
alexnet,1,480,NaN,dog,cat,4-0-10,0480_eid_dnn_4-0-10_cat_10_n02125311_9074.png,n02125311_9074.png,0.0,2.2662113,3.1529248,-0.62700117
alexnet,1,481,NaN,dog,airplane,128-0-10,0481_eid_dnn_128-0-10_airplane_10_n02690373_2867.png,n02690373_2867.png,0.0,-3.2818713,2.2465863,-3.90921
alexnet,1,482,NaN,knife,elephant,2-0-10,0482_eid_dnn_2-0-10_elephant_10_n02504013_1692.png,n02504013_1692.png,0.0,2.1351807,4.2332706,-1.4835737
alexnet,1,483,NaN,cat,bird,8-0-10,0483_eid_dnn_8-0-10_bird_10_n02009912_11813.png,n02009912_11813.png,0.0,-1.4230063,3.8334796,-3.716897
alexnet,1,484,NaN,dog,bottle,16-0-10,0484_eid_dnn_16-0-10_bottle_10_n04557648_10302.png,n04557648_10302.png,0.0,0.76346105,2.0145757,-0.8846716
alexnet,1,485,NaN,keyboard,keyboard,4-0-10,0485_eid_dnn_4-0-10_keyboard_10_n03085013_20302.png,n03085013_20302.png,1.0,5.457292,4.430614,0.72597104
alexnet,1,486,NaN,cat,elephant,128-0-10,0486_eid_dnn_128-0-10_elephant_10_n02504458_5827.png,n02504458_5827.png,0.0,0.8658018,3.9461432,-2.1781304
alexnet,1,487,NaN,knife,knife,1-0-10,0487_eid_dnn_1-0-10_knife_10_n03041632_11327.png,n03041632_11327.png,1.0,10.537449,7.25767,2.319154
alexnet,1,488,NaN,elephant,bird,4-0-10,0488_eid_dnn_4-0-10_bird_10_n01795545_17770.png,n01795545_17770.png,0.0,-0.7362621,2.6809714,-2.416349
alexnet,1,489,NaN,dog,bicycle,4-0-10,0489_eid_dnn_4-0-10_bicycle_10_n02835271_10932.png,n02835271_10932.png,0.0,2.4865701,4.252545,-1.2487328
alexnet,1,490,NaN,knife,cat,2-0-10,0490_eid_dnn_2-0-10_cat_10_n02123597_14233.png,n02123597_14233.png,0.0,3.4347057,4.5354347,-0.77833295
alexnet,1,491,NaN,bear,bird,1-0-10,0491_eid_dnn_1-0-10_bird_10_n01614925_7662.png,n01614925_7662.png,0.0,1.7852086,3.990158,-1.5591347
alexnet,1,492,NaN,oven,truck,16-0-10,0492_eid_dnn_16-0-10_truck_10_n03417042_5875.png,n03417042_5875.png,0.0,0.5730908,3.1996393,-1.8572503
alexnet,1,493,NaN,bear,bear,1-0-10,0493_eid_dnn_1-0-10_bear_10_n02134418_304.png,n02134418_304.png,1.0,6.9358716,3.7282279,2.2681468
alexnet,1,494,NaN,cat,bird,1-0-10,0494_eid_dnn_1-0-10_bird_10_n01622779_5148.png,n01622779_5148.png,0.0,0.89050287,4.038529,-2.2259905
alexnet,1,495,NaN,knife,knife,1-0-10,0495_eid_dnn_1-0-10_knife_10_n03041632_44230.png,n03041632_44230.png,1.0,5.5840187,3.0089905,1.82082
alexnet,1,496,NaN,oven,boat,32-0-10,0496_eid_dnn_32-0-10_boat_10_n03662601_8650.png,n03662601_8650.png,0.0,-0.84537476,2.354786,-2.2628553
alexnet,1,497,NaN,bear,oven,16-0-10,0497_eid_dnn_16-0-10_oven_10_n04111531_4346.png,n04111531_4346.png,0.0,1.3672497,4.4287205,-2.1647868
alexnet,1,498,NaN,clock,clock,2-0-10,0498_eid_dnn_2-0-10_clock_10_n03196217_2201.png,n03196217_2201.png,1.0,6.0252204,5.1696725,0.6049637
alexnet,1,499,NaN,bottle,bicycle,64-0-10,0499_eid_dnn_64-0-10_bicycle_10_n02835271_8757.png,n02835271_8757.png,0.0,0.28372347,2.4758422,-1.550062
alexnet,1,500,NaN,cat,keyboard,8-0-10,0500_eid_dnn_8-0-10_keyboard_10_n03085013_23563.png,n03085013_23563.png,0.0,2.020881,3.0220044,-0.7079012
alexnet,1,501,NaN,elephant,boat,64-0-10,0501_eid_dnn_64-0-10_boat_10_n04273569_15879.png,n04273569_15879.png,0.0,-1.7953564,3.1102643,-3.4687977
alexnet,1,502,NaN,bicycle,truck,64-0-10,0502_eid_dnn_64-0-10_truck_10_n04467665_30588.png,n04467665_30588.png,0.0,-0.021660544,2.1498692,-1.5355035
alexnet,1,503,NaN,cat,truck,16-0-10,0503_eid_dnn_16-0-10_truck_10_n03417042_1875.png,n03417042_1875.png,0.0,-2.0641892,2.7500303,-3.4041674
alexnet,1,504,NaN,cat,cat,128-0-10,0504_eid_dnn_128-0-10_cat_10_n02123394_6014.png,n02123394_6014.png,1.0,2.9562635,1.2729844,1.1902581
alexnet,1,505,NaN,boat,boat,1-0-10,0505_eid_dnn_1-0-10_boat_10_n04273569_10847.png,n04273569_10847.png,1.0,8.032956,4.461669,2.5252814
alexnet,1,506,NaN,dog,elephant,64-0-10,0506_eid_dnn_64-0-10_elephant_10_n02504013_5495.png,n02504013_5495.png,0.0,1.3600328,2.191157,-0.58769363
alexnet,1,507,NaN,cat,bottle,128-0-10,0507_eid_dnn_128-0-10_bottle_10_n04560804_16276.png,n04560804_16276.png,0.0,0.5293096,1.3899794,-0.6085855
alexnet,1,508,NaN,airplane,car,1-0-10,0508_eid_dnn_1-0-10_car_10_n04285008_1243.png,n04285008_1243.png,0.0,5.096842,7.6971197,-1.8386742
alexnet,1,509,NaN,bear,keyboard,32-0-10,0509_eid_dnn_32-0-10_keyboard_10_n03085013_22027.png,n03085013_22027.png,0.0,-2.5068793,3.9290895,-4.550917
alexnet,1,510,NaN,bear,cat,32-0-10,0510_eid_dnn_32-0-10_cat_10_n02123045_12766.png,n02123045_12766.png,0.0,1.9561626,2.6863225,-0.51630104
alexnet,1,511,NaN,cat,chair,64-0-10,0511_eid_dnn_64-0-10_chair_10_n04429376_29954.png,n04429376_29954.png,0.0,-1.0996373,2.4106748,-2.4821656
alexnet,1,512,NaN,elephant,elephant,32-0-10,0512_eid_dnn_32-0-10_elephant_10_n02504013_5678.png,n02504013_5678.png,1.0,3.3951297,1.6307335,1.2476165
alexnet,1,513,NaN,bottle,chair,4-0-10,0513_eid_dnn_4-0-10_chair_10_n03376595_6333.png,n03376595_6333.png,0.0,1.6814297,1.801389,-0.08482399
alexnet,1,514,NaN,keyboard,keyboard,2-0-10,0514_eid_dnn_2-0-10_keyboard_10_n03085013_22605.png,n03085013_22605.png,1.0,7.1900225,3.9557803,2.2869546
alexnet,1,515,NaN,oven,car,32-0-10,0515_eid_dnn_32-0-10_car_10_n04285008_16557.png,n04285008_16557.png,0.0,-3.0424874,4.6709156,-5.4541993
alexnet,1,516,NaN,bear,bottle,64-0-10,0516_eid_dnn_64-0-10_bottle_10_n02823428_1034.png,n02823428_1034.png,0.0,0.48075274,3.2014868,-1.9238496
alexnet,1,517,NaN,dog,elephant,16-0-10,0517_eid_dnn_16-0-10_elephant_10_n02504013_7777.png,n02504013_7777.png,0.0,-1.0497322,3.7866795,-3.4198594
alexnet,1,518,NaN,bottle,knife,4-0-10,0518_eid_dnn_4-0-10_knife_10_n03041632_14293.png,n03041632_14293.png,0.0,2.5121412,2.9778295,-0.3292913
alexnet,1,519,NaN,dog,knife,8-0-10,0519_eid_dnn_8-0-10_knife_10_n03041632_50423.png,n03041632_50423.png,0.0,1.9490632,3.3925295,-1.0206848
alexnet,1,520,NaN,bottle,chair,2-0-10,0520_eid_dnn_2-0-10_chair_10_n03376595_3043.png,n03376595_3043.png,0.0,4.466894,4.6611166,-0.13733602
alexnet,1,521,NaN,cat,cat,8-0-10,0521_eid_dnn_8-0-10_cat_10_n02123394_2434.png,n02123394_2434.png,1.0,3.3324678,1.8996388,1.0131631
alexnet,1,522,NaN,truck,truck,1-0-10,0522_eid_dnn_1-0-10_truck_10_n04467665_54079.png,n04467665_54079.png,1.0,4.7023473,3.1453595,1.1009567
alexnet,1,523,NaN,dog,bird,2-0-10,0523_eid_dnn_2-0-10_bird_10_n01855672_1001.png,n01855672_1001.png,0.0,-0.45789415,3.836939,-3.0369058
alexnet,1,524,NaN,bottle,bottle,1-0-10,0524_eid_dnn_1-0-10_bottle_10_n04560804_6112.png,n04560804_6112.png,1.0,5.110684,3.0432396,1.4619039
alexnet,1,525,NaN,keyboard,keyboard,1-0-10,0525_eid_dnn_1-0-10_keyboard_10_n04505470_1744.png,n04505470_1744.png,1.0,13.393386,9.916628,2.458439
alexnet,1,526,NaN,dog,boat,32-0-10,0526_eid_dnn_32-0-10_boat_10_n02951358_15087.png,n02951358_15087.png,0.0,-2.5580554,3.62262,-4.3703976
alexnet,1,527,NaN,dog,bottle,4-0-10,0527_eid_dnn_4-0-10_bottle_10_n04557648_10051.png,n04557648_10051.png,0.0,2.4005742,2.8802636,-0.33919162
alexnet,1,528,NaN,cat,bear,64-0-10,0528_eid_dnn_64-0-10_bear_10_n02134084_5794.png,n02134084_5794.png,0.0,1.5711006,1.9754277,-0.28590247
alexnet,1,529,NaN,keyboard,keyboard,4-0-10,0529_eid_dnn_4-0-10_keyboard_10_n04505470_751.png,n04505470_751.png,1.0,6.3145266,2.1953208,2.912718
alexnet,1,530,NaN,clock,boat,128-0-10,0530_eid_dnn_128-0-10_boat_10_n04273569_9306.png,n04273569_9306.png,0.0,-1.8223121,2.9302871,-3.3605952
alexnet,1,531,NaN,cat,chair,16-0-10,0531_eid_dnn_16-0-10_chair_10_n02791124_9162.png,n02791124_9162.png,0.0,0.6942426,3.717865,-2.138024
alexnet,1,532,NaN,clock,bicycle,128-0-10,0532_eid_dnn_128-0-10_bicycle_10_n02835271_25033.png,n02835271_25033.png,0.0,1.7608315,2.0668724,-0.21640359
alexnet,1,533,NaN,cat,keyboard,128-0-10,0533_eid_dnn_128-0-10_keyboard_10_n04505470_3905.png,n04505470_3905.png,0.0,0.6104095,2.8548295,-1.5870447
alexnet,1,534,NaN,knife,knife,4-0-10,0534_eid_dnn_4-0-10_knife_10_n03041632_32054.png,n03041632_32054.png,1.0,5.9881096,4.8973303,0.77129745
alexnet,1,535,NaN,cat,clock,8-0-10,0535_eid_dnn_8-0-10_clock_10_n03196217_13380.png,n03196217_13380.png,0.0,0.14005888,2.9901898,-2.015347
alexnet,1,536,NaN,elephant,chair,32-0-10,0536_eid_dnn_32-0-10_chair_10_n03376595_8083.png,n03376595_8083.png,0.0,-0.30971023,1.7979462,-1.4903382
alexnet,1,537,NaN,cat,cat,8-0-10,0537_eid_dnn_8-0-10_cat_10_n02125311_47927.png,n02125311_47927.png,1.0,4.487141,4.464663,0.01589442
alexnet,1,538,NaN,cat,boat,64-0-10,0538_eid_dnn_64-0-10_boat_10_n04273569_1141.png,n04273569_1141.png,0.0,-2.051399,3.089755,-3.6353452
alexnet,1,539,NaN,cat,dog,64-0-10,0539_eid_dnn_64-0-10_dog_10_n02097130_5859.png,n02097130_5859.png,0.0,1.3848935,2.1851056,-0.56583536
alexnet,1,540,NaN,cat,dog,16-0-10,0540_eid_dnn_16-0-10_dog_10_n02090721_835.png,n02090721_835.png,0.0,1.5646708,1.8969036,-0.2349241
alexnet,1,541,NaN,elephant,bear,128-0-10,0541_eid_dnn_128-0-10_bear_10_n02132136_15806.png,n02132136_15806.png,0.0,-0.2544708,1.9983077,-1.592955
alexnet,1,542,NaN,cat,cat,128-0-10,0542_eid_dnn_128-0-10_cat_10_n02124075_12069.png,n02124075_12069.png,1.0,2.8750699,1.6218191,0.88618207
alexnet,1,543,NaN,oven,oven,2-0-10,0543_eid_dnn_2-0-10_oven_10_n04111531_21382.png,n04111531_21382.png,1.0,5.0848684,3.977535,0.783003
alexnet,1,544,NaN,dog,cat,1-0-10,0544_eid_dnn_1-0-10_cat_10_n02123597_2009.png,n02123597_2009.png,0.0,2.4094758,3.7427106,-0.94273937
alexnet,1,545,NaN,oven,oven,32-0-10,0545_eid_dnn_32-0-10_oven_10_n04111531_4392.png,n04111531_4392.png,1.0,2.4934967,1.7802714,0.5043264
alexnet,1,546,NaN,truck,boat,4-0-10,0546_eid_dnn_4-0-10_boat_10_n03344393_640.png,n03344393_640.png,0.0,4.4275208,5.089526,-0.46810853
alexnet,1,547,NaN,car,car,4-0-10,0547_eid_dnn_4-0-10_car_10_n02814533_245.png,n02814533_245.png,1.0,5.9125595,5.318617,0.41998088
alexnet,1,548,NaN,cat,bird,1-0-10,0548_eid_dnn_1-0-10_bird_10_n01530575_3831.png,n01530575_3831.png,0.0,1.782458,2.579108,-0.56331664
alexnet,1,549,NaN,truck,truck,2-0-10,0549_eid_dnn_2-0-10_truck_10_n04467665_32276.png,n04467665_32276.png,1.0,9.661093,7.1193542,1.7972806
alexnet,1,550,NaN,cat,elephant,64-0-10,0550_eid_dnn_64-0-10_elephant_10_n02504458_5941.png,n02504458_5941.png,0.0,1.4232435,2.22826,-0.56923264
alexnet,1,551,NaN,elephant,elephant,4-0-10,0551_eid_dnn_4-0-10_elephant_10_n02504013_9796.png,n02504013_9796.png,1.0,7.378969,6.0365043,0.9492661
alexnet,1,552,NaN,airplane,airplane,4-0-10,0552_eid_dnn_4-0-10_airplane_10_n02690373_8214.png,n02690373_8214.png,1.0,10.058438,4.4752703,3.947896
alexnet,1,553,NaN,airplane,airplane,1-0-10,0553_eid_dnn_1-0-10_airplane_10_n02690373_8967.png,n02690373_8967.png,1.0,15.260301,5.47834,6.9168906
alexnet,1,554,NaN,elephant,elephant,64-0-10,0554_eid_dnn_64-0-10_elephant_10_n02504458_7642.png,n02504458_7642.png,1.0,2.7559366,2.4456844,0.21938144
alexnet,1,555,NaN,boat,boat,1-0-10,0555_eid_dnn_1-0-10_boat_10_n04273569_15455.png,n04273569_15455.png,1.0,6.279247,3.2671533,2.1298718
alexnet,1,556,NaN,bear,knife,8-0-10,0556_eid_dnn_8-0-10_knife_10_n03041632_3063.png,n03041632_3063.png,0.0,-0.9376317,4.858322,-4.098358
alexnet,1,557,NaN,bottle,bottle,4-0-10,0557_eid_dnn_4-0-10_bottle_10_n03937543_4912.png,n03937543_4912.png,1.0,2.8877885,2.0742128,0.57528496
alexnet,1,558,NaN,cat,oven,4-0-10,0558_eid_dnn_4-0-10_oven_10_n04111531_5776.png,n04111531_5776.png,0.0,0.86087644,2.7436066,-1.3312913
alexnet,1,559,NaN,cat,bottle,128-0-10,0559_eid_dnn_128-0-10_bottle_10_n03983396_4540.png,n03983396_4540.png,0.0,0.9098303,5.503672,-3.2483368
alexnet,1,560,NaN,knife,knife,2-0-10,0560_eid_dnn_2-0-10_knife_10_n03041632_965.png,n03041632_965.png,1.0,13.497797,4.7765393,6.166861
alexnet,1,561,NaN,elephant,knife,32-0-10,0561_eid_dnn_32-0-10_knife_10_n03041632_12949.png,n03041632_12949.png,0.0,0.15699218,3.33424,-2.2466536
alexnet,1,562,NaN,cat,knife,16-0-10,0562_eid_dnn_16-0-10_knife_10_n03041632_18766.png,n03041632_18766.png,0.0,0.49568656,4.040625,-2.5066502
alexnet,1,563,NaN,oven,keyboard,8-0-10,0563_eid_dnn_8-0-10_keyboard_10_n04505470_2869.png,n04505470_2869.png,0.0,1.5100709,2.811554,-0.9202875
alexnet,1,564,NaN,bicycle,bicycle,4-0-10,0564_eid_dnn_4-0-10_bicycle_10_n02835271_18537.png,n02835271_18537.png,1.0,3.487124,2.9251907,0.39734682
alexnet,1,565,NaN,elephant,clock,32-0-10,0565_eid_dnn_32-0-10_clock_10_n04548280_1119.png,n04548280_1119.png,0.0,0.887597,2.6821005,-1.2689056
alexnet,1,566,NaN,oven,oven,1-0-10,0566_eid_dnn_1-0-10_oven_10_n04111531_687.png,n04111531_687.png,1.0,9.738834,2.5279436,5.09887
alexnet,1,567,NaN,cat,chair,64-0-10,0567_eid_dnn_64-0-10_chair_10_n03376595_3038.png,n03376595_3038.png,0.0,-0.54802775,1.7409,-1.6185164
alexnet,1,568,NaN,dog,bicycle,16-0-10,0568_eid_dnn_16-0-10_bicycle_10_n02835271_3989.png,n02835271_3989.png,0.0,0.42267478,2.5042949,-1.4719278
alexnet,1,569,NaN,oven,dog,64-0-10,0569_eid_dnn_64-0-10_dog_10_n02096437_4563.png,n02096437_4563.png,0.0,1.5029135,2.1188333,-0.4355211
alexnet,1,570,NaN,bottle,clock,32-0-10,0570_eid_dnn_32-0-10_clock_10_n02708093_685.png,n02708093_685.png,0.0,0.25069156,1.5091926,-0.88989466
alexnet,1,571,NaN,elephant,boat,32-0-10,0571_eid_dnn_32-0-10_boat_10_n03662601_8360.png,n03662601_8360.png,0.0,-1.7853798,3.7786024,-3.9343295
alexnet,1,572,NaN,cat,keyboard,8-0-10,0572_eid_dnn_8-0-10_keyboard_10_n03085013_17035.png,n03085013_17035.png,0.0,-1.3647105,3.3287013,-3.3187435
alexnet,1,573,NaN,elephant,dog,64-0-10,0573_eid_dnn_64-0-10_dog_10_n02110063_12166.png,n02110063_12166.png,0.0,1.6849929,2.6578708,-0.68792856
alexnet,1,574,NaN,dog,dog,2-0-10,0574_eid_dnn_2-0-10_dog_10_n02108422_6951.png,n02108422_6951.png,1.0,4.5559273,3.607927,0.6703374
alexnet,1,575,NaN,elephant,bear,64-0-10,0575_eid_dnn_64-0-10_bear_10_n02134418_912.png,n02134418_912.png,0.0,0.83674574,2.0686235,-0.8710692
alexnet,1,576,NaN,clock,clock,4-0-10,0576_eid_dnn_4-0-10_clock_10_n02708093_564.png,n02708093_564.png,1.0,4.1340485,3.7911565,0.24246122
alexnet,1,577,NaN,clock,car,64-0-10,0577_eid_dnn_64-0-10_car_10_n04285008_11893.png,n04285008_11893.png,0.0,-2.1025264,1.7135226,-2.6983542
alexnet,1,578,NaN,oven,knife,64-0-10,0578_eid_dnn_64-0-10_knife_10_n03041632_20504.png,n03041632_20504.png,0.0,-0.75472385,1.7514763,-1.7721511
alexnet,1,579,NaN,bottle,clock,4-0-10,0579_eid_dnn_4-0-10_clock_10_n04548280_4557.png,n04548280_4557.png,0.0,4.0950074,4.548136,-0.32041046
alexnet,1,580,NaN,elephant,clock,32-0-10,0580_eid_dnn_32-0-10_clock_10_n02708093_3360.png,n02708093_3360.png,0.0,0.63636273,2.3712447,-1.2267468
alexnet,1,581,NaN,airplane,bear,16-0-10,0581_eid_dnn_16-0-10_bear_10_n02134084_617.png,n02134084_617.png,0.0,0.40566683,2.5833635,-1.5398642
alexnet,1,582,NaN,keyboard,dog,1-0-10,0582_eid_dnn_1-0-10_dog_10_n02093991_4081.png,n02093991_4081.png,0.0,-0.5187991,4.8327436,-3.7841125
alexnet,1,583,NaN,bear,elephant,16-0-10,0583_eid_dnn_16-0-10_elephant_10_n02504458_1727.png,n02504458_1727.png,0.0,2.450686,3.2240763,-0.5468695
alexnet,1,584,NaN,bicycle,clock,32-0-10,0584_eid_dnn_32-0-10_clock_10_n04548280_16295.png,n04548280_16295.png,0.0,0.9051032,3.3364606,-1.7192293
alexnet,1,585,NaN,bear,boat,4-0-10,0585_eid_dnn_4-0-10_boat_10_n02951358_16217.png,n02951358_16217.png,0.0,1.5303651,6.0549536,-3.1993673
alexnet,1,586,NaN,cat,airplane,8-0-10,0586_eid_dnn_8-0-10_airplane_10_n02690373_7536.png,n02690373_7536.png,0.0,1.3026936,4.0699134,-1.9567199
alexnet,1,587,NaN,dog,cat,8-0-10,0587_eid_dnn_8-0-10_cat_10_n02123597_22140.png,n02123597_22140.png,0.0,3.4006746,3.820746,-0.2970353
alexnet,1,588,NaN,elephant,bottle,128-0-10,0588_eid_dnn_128-0-10_bottle_10_n04591713_8914.png,n04591713_8914.png,0.0,1.0876584,1.446585,-0.25379947
alexnet,1,589,NaN,bicycle,car,128-0-10,0589_eid_dnn_128-0-10_car_10_n03100240_963.png,n03100240_963.png,0.0,-2.086064,2.3986928,-3.1712022
alexnet,1,590,NaN,dog,boat,32-0-10,0590_eid_dnn_32-0-10_boat_10_n02951358_18762.png,n02951358_18762.png,0.0,0.15930596,1.3568516,-0.84679264
alexnet,1,591,NaN,cat,bear,32-0-10,0591_eid_dnn_32-0-10_bear_10_n02134418_2633.png,n02134418_2633.png,0.0,1.6872216,2.7601595,-0.75868165
alexnet,1,592,NaN,cat,airplane,64-0-10,0592_eid_dnn_64-0-10_airplane_10_n02690373_1169.png,n02690373_1169.png,0.0,-3.2865148,3.2013547,-4.5876164
alexnet,1,593,NaN,bicycle,bicycle,2-0-10,0593_eid_dnn_2-0-10_bicycle_10_n03792782_12704.png,n03792782_12704.png,1.0,5.4658337,2.735218,1.9308368
alexnet,1,594,NaN,bear,dog,64-0-10,0594_eid_dnn_64-0-10_dog_10_n02088238_2973.png,n02088238_2973.png,0.0,2.5145862,2.8192961,-0.21546245
alexnet,1,595,NaN,cat,knife,32-0-10,0595_eid_dnn_32-0-10_knife_10_n03041632_41493.png,n03041632_41493.png,0.0,0.87182605,2.3112705,-1.017841
alexnet,1,596,NaN,bicycle,bottle,128-0-10,0596_eid_dnn_128-0-10_bottle_10_n03983396_2959.png,n03983396_2959.png,0.0,0.6904544,2.754779,-1.459698
alexnet,1,597,NaN,clock,clock,1-0-10,0597_eid_dnn_1-0-10_clock_10_n02708093_2843.png,n02708093_2843.png,1.0,10.001918,5.7740726,2.989538
alexnet,1,598,NaN,dog,oven,8-0-10,0598_eid_dnn_8-0-10_oven_10_n04111531_12952.png,n04111531_12952.png,0.0,0.69011295,3.108435,-1.710012
alexnet,1,599,NaN,cat,bear,16-0-10,0599_eid_dnn_16-0-10_bear_10_n02134418_2891.png,n02134418_2891.png,0.0,3.1631398,3.5635974,-0.2831663
alexnet,1,600,NaN,elephant,truck,32-0-10,0600_eid_dnn_32-0-10_truck_10_n03417042_3862.png,n03417042_3862.png,0.0,-1.1606526,2.7811062,-2.7872446
alexnet,1,601,NaN,dog,elephant,16-0-10,0601_eid_dnn_16-0-10_elephant_10_n02504458_2054.png,n02504458_2054.png,0.0,0.914475,2.8976345,-1.4023056
alexnet,1,602,NaN,airplane,airplane,1-0-10,0602_eid_dnn_1-0-10_airplane_10_n02690373_7355.png,n02690373_7355.png,1.0,12.6315565,6.363623,4.4320984
alexnet,1,603,NaN,cat,knife,128-0-10,0603_eid_dnn_128-0-10_knife_10_n03041632_22738.png,n03041632_22738.png,0.0,-1.5648618,2.183379,-2.6504064
alexnet,1,604,NaN,oven,oven,1-0-10,0604_eid_dnn_1-0-10_oven_10_n04111531_4250.png,n04111531_4250.png,1.0,5.861292,3.3617487,1.767444
alexnet,1,605,NaN,bottle,clock,8-0-10,0605_eid_dnn_8-0-10_clock_10_n04548280_7826.png,n04548280_7826.png,0.0,1.3780686,3.4844797,-1.4894575
alexnet,1,606,NaN,elephant,clock,64-0-10,0606_eid_dnn_64-0-10_clock_10_n04548280_17198.png,n04548280_17198.png,0.0,0.7481515,2.136317,-0.9815812
alexnet,1,607,NaN,bicycle,bicycle,128-0-10,0607_eid_dnn_128-0-10_bicycle_10_n02835271_4726.png,n02835271_4726.png,1.0,3.2783756,1.7293379,1.0953351
alexnet,1,608,NaN,cat,chair,128-0-10,0608_eid_dnn_128-0-10_chair_10_n03376595_9079.png,n03376595_9079.png,0.0,-1.3711798,3.7563112,-3.6256838
alexnet,1,609,NaN,airplane,airplane,4-0-10,0609_eid_dnn_4-0-10_airplane_10_n02690373_2324.png,n02690373_2324.png,1.0,5.2761917,2.2120876,2.1666489
alexnet,1,610,NaN,dog,dog,64-0-10,0610_eid_dnn_64-0-10_dog_10_n02104029_5234.png,n02104029_5234.png,1.0,1.6031276,1.1856675,0.29518887
alexnet,1,611,NaN,bottle,bottle,2-0-10,0611_eid_dnn_2-0-10_bottle_10_n04591713_335.png,n04591713_335.png,1.0,2.762302,2.010301,0.5317449
alexnet,1,612,NaN,knife,airplane,2-0-10,0612_eid_dnn_2-0-10_airplane_10_n02690373_4148.png,n02690373_4148.png,0.0,7.703891,9.193687,-1.0534453
alexnet,1,613,NaN,dog,bear,2-0-10,0613_eid_dnn_2-0-10_bear_10_n02134084_18800.png,n02134084_18800.png,0.0,4.454341,4.893918,-0.31082794
alexnet,1,614,NaN,dog,boat,16-0-10,0614_eid_dnn_16-0-10_boat_10_n03662601_1191.png,n03662601_1191.png,0.0,-0.4490947,3.0491264,-2.473616
alexnet,1,615,NaN,keyboard,keyboard,2-0-10,0615_eid_dnn_2-0-10_keyboard_10_n04505470_4505.png,n04505470_4505.png,1.0,10.643578,4.259795,4.5140157
alexnet,1,616,NaN,knife,knife,4-0-10,0616_eid_dnn_4-0-10_knife_10_n03041632_1607.png,n03041632_1607.png,1.0,3.2464075,2.5755823,0.4743451
alexnet,1,617,NaN,bear,car,32-0-10,0617_eid_dnn_32-0-10_car_10_n03100240_11224.png,n03100240_11224.png,0.0,-2.3003929,2.5578113,-3.4352689
alexnet,1,618,NaN,clock,airplane,128-0-10,0618_eid_dnn_128-0-10_airplane_10_n02690373_7142.png,n02690373_7142.png,0.0,-3.2472613,2.710863,-4.21303
alexnet,1,619,NaN,airplane,airplane,4-0-10,0619_eid_dnn_4-0-10_airplane_10_n02690373_18693.png,n02690373_18693.png,1.0,11.768764,7.313779,3.1501498
alexnet,1,620,NaN,dog,chair,8-0-10,0620_eid_dnn_8-0-10_chair_10_n03376595_3214.png,n03376595_3214.png,0.0,-0.8794867,2.850308,-2.637363
alexnet,1,621,NaN,bicycle,boat,16-0-10,0621_eid_dnn_16-0-10_boat_10_n03662601_17198.png,n03662601_17198.png,0.0,1.3468182,2.290633,-0.6673778
alexnet,1,622,NaN,oven,knife,32-0-10,0622_eid_dnn_32-0-10_knife_10_n03041632_27879.png,n03041632_27879.png,0.0,-0.28718412,3.1990051,-2.4651082
alexnet,1,623,NaN,oven,chair,1-0-10,0623_eid_dnn_1-0-10_chair_10_n02791124_3601.png,n02791124_3601.png,0.0,3.729908,4.962638,-0.8716717
alexnet,1,624,NaN,bear,bicycle,16-0-10,0624_eid_dnn_16-0-10_bicycle_10_n03792782_10876.png,n03792782_10876.png,0.0,1.0357105,2.6199012,-1.120192
alexnet,1,625,NaN,keyboard,clock,4-0-10,0625_eid_dnn_4-0-10_clock_10_n03196217_5568.png,n03196217_5568.png,0.0,0.50306654,2.426827,-1.360304
alexnet,1,626,NaN,cat,truck,16-0-10,0626_eid_dnn_16-0-10_truck_10_n04467665_2695.png,n04467665_2695.png,0.0,-1.194334,3.7360203,-3.4862869
alexnet,1,627,NaN,elephant,elephant,8-0-10,0627_eid_dnn_8-0-10_elephant_10_n02504013_4005.png,n02504013_4005.png,1.0,5.348922,4.5309486,0.57839435
alexnet,1,628,NaN,cat,elephant,128-0-10,0628_eid_dnn_128-0-10_elephant_10_n02504458_3094.png,n02504458_3094.png,0.0,0.35896537,4.4893165,-2.9205992
alexnet,1,629,NaN,cat,bear,8-0-10,0629_eid_dnn_8-0-10_bear_10_n02134418_6133.png,n02134418_6133.png,0.0,1.9689139,2.5951312,-0.44280246
alexnet,1,630,NaN,cat,truck,128-0-10,0630_eid_dnn_128-0-10_truck_10_n03796401_9953.png,n03796401_9953.png,0.0,-1.0488703,2.6396282,-2.6081624
alexnet,1,631,NaN,dog,cat,8-0-10,0631_eid_dnn_8-0-10_cat_10_n02123597_10199.png,n02123597_10199.png,0.0,1.6521748,1.775193,-0.08698697
alexnet,1,632,NaN,cat,cat,2-0-10,0632_eid_dnn_2-0-10_cat_10_n02124075_11153.png,n02124075_11153.png,1.0,3.392617,2.8141956,0.40900567
alexnet,1,633,NaN,cat,bicycle,64-0-10,0633_eid_dnn_64-0-10_bicycle_10_n02835271_7900.png,n02835271_7900.png,0.0,1.2040637,3.934758,-1.9308925
alexnet,1,634,NaN,knife,knife,4-0-10,0634_eid_dnn_4-0-10_knife_10_n03041632_12748.png,n03041632_12748.png,1.0,12.896593,5.0937805,5.5174217
alexnet,1,635,NaN,cat,bear,16-0-10,0635_eid_dnn_16-0-10_bear_10_n02134418_244.png,n02134418_244.png,0.0,2.8500452,4.2582335,-0.9957395
alexnet,1,636,NaN,bicycle,bicycle,4-0-10,0636_eid_dnn_4-0-10_bicycle_10_n03792782_22908.png,n03792782_22908.png,1.0,4.5838237,2.9865546,1.1294398
alexnet,1,637,NaN,cat,elephant,8-0-10,0637_eid_dnn_8-0-10_elephant_10_n02504458_3234.png,n02504458_3234.png,0.0,0.748591,2.5667741,-1.2856497
alexnet,1,638,NaN,clock,clock,1-0-10,0638_eid_dnn_1-0-10_clock_10_n03196217_3063.png,n03196217_3063.png,1.0,10.077546,9.311815,0.5414535
alexnet,1,639,NaN,bottle,clock,4-0-10,0639_eid_dnn_4-0-10_clock_10_n03196217_5688.png,n03196217_5688.png,0.0,5.0219345,5.8987703,-0.6200166
alexnet,1,640,NaN,bottle,bottle,2-0-10,0640_eid_dnn_2-0-10_bottle_10_n04591713_2123.png,n04591713_2123.png,1.0,10.700083,3.9161615,4.796957
alexnet,1,641,NaN,knife,knife,2-0-10,0641_eid_dnn_2-0-10_knife_10_n03041632_13424.png,n03041632_13424.png,1.0,6.2347164,4.0994053,1.5098931
alexnet,1,642,NaN,cat,chair,64-0-10,0642_eid_dnn_64-0-10_chair_10_n03376595_989.png,n03376595_989.png,0.0,-0.053764954,2.5767393,-1.8600475
alexnet,1,643,NaN,bear,elephant,8-0-10,0643_eid_dnn_8-0-10_elephant_10_n02504458_3953.png,n02504458_3953.png,0.0,1.2094153,3.3479762,-1.5121908
alexnet,1,644,NaN,cat,bird,4-0-10,0644_eid_dnn_4-0-10_bird_10_n01796340_4181.png,n01796340_4181.png,0.0,0.23907898,4.9420466,-3.3255005
alexnet,1,645,NaN,bicycle,bicycle,1-0-10,0645_eid_dnn_1-0-10_bicycle_10_n02835271_17357.png,n02835271_17357.png,1.0,11.445554,3.026193,5.9533873
alexnet,1,646,NaN,bird,bird,1-0-10,0646_eid_dnn_1-0-10_bird_10_n02006656_9134.png,n02006656_9134.png,1.0,3.6548042,3.2684734,0.27317718
alexnet,1,647,NaN,cat,bear,64-0-10,0647_eid_dnn_64-0-10_bear_10_n02134418_1307.png,n02134418_1307.png,0.0,0.007200867,3.275831,-2.3112705
alexnet,1,648,NaN,cat,chair,64-0-10,0648_eid_dnn_64-0-10_chair_10_n02791124_4432.png,n02791124_4432.png,0.0,-1.391825,1.7355684,-2.211401
alexnet,1,649,NaN,oven,oven,32-0-10,0649_eid_dnn_32-0-10_oven_10_n04111531_21309.png,n04111531_21309.png,1.0,2.1106014,1.8537127,0.18164778
alexnet,1,650,NaN,dog,car,16-0-10,0650_eid_dnn_16-0-10_car_10_n04285008_6325.png,n04285008_6325.png,0.0,-2.2605472,3.754311,-4.253147
alexnet,1,651,NaN,elephant,boat,32-0-10,0651_eid_dnn_32-0-10_boat_10_n03344393_5599.png,n03344393_5599.png,0.0,0.4141406,1.3657076,-0.67285955
alexnet,1,652,NaN,cat,cat,32-0-10,0652_eid_dnn_32-0-10_cat_10_n02123159_7616.png,n02123159_7616.png,1.0,2.3898594,1.7659004,0.44120568
alexnet,1,653,NaN,oven,car,4-0-10,0653_eid_dnn_4-0-10_car_10_n02814533_11273.png,n02814533_11273.png,0.0,2.222479,2.9514508,-0.51546085
alexnet,1,654,NaN,oven,oven,1-0-10,0654_eid_dnn_1-0-10_oven_10_n04111531_5357.png,n04111531_5357.png,1.0,9.237497,7.7088466,1.0809194
alexnet,1,655,NaN,truck,truck,4-0-10,0655_eid_dnn_4-0-10_truck_10_n04467665_68250.png,n04467665_68250.png,1.0,5.062522,2.9643235,1.4836503
alexnet,1,656,NaN,dog,dog,2-0-10,0656_eid_dnn_2-0-10_dog_10_n02102177_3185.png,n02102177_3185.png,1.0,5.36605,0.81307054,3.2194426
alexnet,1,657,NaN,cat,truck,8-0-10,0657_eid_dnn_8-0-10_truck_10_n03417042_11439.png,n03417042_11439.png,0.0,0.2675141,4.3277674,-2.8710325
alexnet,1,658,NaN,keyboard,keyboard,8-0-10,0658_eid_dnn_8-0-10_keyboard_10_n04505470_4776.png,n04505470_4776.png,1.0,2.5146737,2.1992776,0.2230187
alexnet,1,659,NaN,bicycle,chair,1-0-10,0659_eid_dnn_1-0-10_chair_10_n04099969_4675.png,n04099969_4675.png,0.0,1.3246703,3.7995794,-1.750025
alexnet,1,660,NaN,dog,chair,16-0-10,0660_eid_dnn_16-0-10_chair_10_n02791124_14.png,n02791124_14.png,0.0,-0.7536727,3.1734285,-2.7768798
alexnet,1,661,NaN,dog,dog,1-0-10,0661_eid_dnn_1-0-10_dog_10_n02086646_5896.png,n02086646_5896.png,1.0,5.210957,1.4338555,2.670814
alexnet,1,662,NaN,dog,truck,16-0-10,0662_eid_dnn_16-0-10_truck_10_n03796401_7421.png,n03796401_7421.png,0.0,-1.2011354,2.9564917,-2.9398863
alexnet,1,663,NaN,cat,keyboard,128-0-10,0663_eid_dnn_128-0-10_keyboard_10_n04505470_713.png,n04505470_713.png,0.0,-1.7908301,4.1218376,-4.1808877
alexnet,1,664,NaN,cat,clock,64-0-10,0664_eid_dnn_64-0-10_clock_10_n04548280_1324.png,n04548280_1324.png,0.0,-0.675422,2.89687,-2.525992
alexnet,1,665,NaN,bottle,bottle,8-0-10,0665_eid_dnn_8-0-10_bottle_10_n04591713_4474.png,n04591713_4474.png,1.0,3.8010252,1.7354487,1.4605832
alexnet,1,666,NaN,elephant,bird,16-0-10,0666_eid_dnn_16-0-10_bird_10_n01855672_4659.png,n01855672_4659.png,0.0,-1.1109788,2.3225608,-2.427879
alexnet,1,667,NaN,keyboard,keyboard,1-0-10,0667_eid_dnn_1-0-10_keyboard_10_n03085013_8677.png,n03085013_8677.png,1.0,8.110371,3.5876179,3.198069
alexnet,1,668,NaN,dog,bear,2-0-10,0668_eid_dnn_2-0-10_bear_10_n02134418_3584.png,n02134418_3584.png,0.0,4.6033134,5.5682836,-0.6823369
alexnet,1,669,NaN,airplane,airplane,4-0-10,0669_eid_dnn_4-0-10_airplane_10_n02690373_4061.png,n02690373_4061.png,1.0,5.2335434,4.9989047,0.16591461
alexnet,1,670,NaN,bear,bear,4-0-10,0670_eid_dnn_4-0-10_bear_10_n02133161_499.png,n02133161_499.png,1.0,3.5906103,3.497554,0.065800674
alexnet,1,671,NaN,chair,chair,2-0-10,0671_eid_dnn_2-0-10_chair_10_n03376595_3462.png,n03376595_3462.png,1.0,7.337422,3.9972305,2.361872
alexnet,1,672,NaN,boat,boat,4-0-10,0672_eid_dnn_4-0-10_boat_10_n04273569_16362.png,n04273569_16362.png,1.0,3.9522853,2.4553673,1.0584809
alexnet,1,673,NaN,airplane,airplane,1-0-10,0673_eid_dnn_1-0-10_airplane_10_n02690373_8592.png,n02690373_8592.png,1.0,17.761616,4.8012915,9.164333
alexnet,1,674,NaN,dog,chair,32-0-10,0674_eid_dnn_32-0-10_chair_10_n04099969_6217.png,n04099969_6217.png,0.0,0.11212669,2.5131328,-1.6977679
alexnet,1,675,NaN,bottle,bottle,1-0-10,0675_eid_dnn_1-0-10_bottle_10_n03937543_299.png,n03937543_299.png,1.0,7.218778,6.601637,0.43638477
alexnet,1,676,NaN,clock,clock,2-0-10,0676_eid_dnn_2-0-10_clock_10_n03196217_300.png,n03196217_300.png,1.0,9.71897,8.247367,1.0405807
alexnet,1,677,NaN,dog,bear,32-0-10,0677_eid_dnn_32-0-10_bear_10_n02132136_8516.png,n02132136_8516.png,0.0,2.4871683,2.5951927,-0.07638476
alexnet,1,678,NaN,bottle,bottle,4-0-10,0678_eid_dnn_4-0-10_bottle_10_n04557648_1938.png,n04557648_1938.png,1.0,3.759467,1.4550982,1.6294348
alexnet,1,679,NaN,cat,airplane,16-0-10,0679_eid_dnn_16-0-10_airplane_10_n02690373_19118.png,n02690373_19118.png,0.0,-1.3102069,2.5727298,-2.745651
alexnet,1,680,NaN,cat,oven,128-0-10,0680_eid_dnn_128-0-10_oven_10_n04111531_891.png,n04111531_891.png,0.0,-1.4844935,3.004115,-3.1739254
alexnet,1,681,NaN,cat,elephant,2-0-10,0681_eid_dnn_2-0-10_elephant_10_n02504458_37.png,n02504458_37.png,0.0,2.4470434,4.2063117,-1.2439905
alexnet,1,682,NaN,elephant,chair,2-0-10,0682_eid_dnn_2-0-10_chair_10_n04429376_24375.png,n04429376_24375.png,0.0,1.0756844,3.2105742,-1.5095949
alexnet,1,683,NaN,dog,knife,64-0-10,0683_eid_dnn_64-0-10_knife_10_n03041632_46914.png,n03041632_46914.png,0.0,-1.5736125,2.4442985,-2.841092
alexnet,1,684,NaN,airplane,truck,2-0-10,0684_eid_dnn_2-0-10_truck_10_n04467665_78325.png,n04467665_78325.png,0.0,5.8823366,10.011287,-2.9196086
alexnet,1,685,NaN,cat,elephant,8-0-10,0685_eid_dnn_8-0-10_elephant_10_n02504013_2438.png,n02504013_2438.png,0.0,2.1378639,3.6327446,-1.0570403
alexnet,1,686,NaN,cat,boat,4-0-10,0686_eid_dnn_4-0-10_boat_10_n02951358_13456.png,n02951358_13456.png,0.0,1.458422,1.9948684,-0.37932494
alexnet,1,687,NaN,elephant,keyboard,32-0-10,0687_eid_dnn_32-0-10_keyboard_10_n04505470_4922.png,n04505470_4922.png,0.0,-2.6963224,1.5442789,-2.998558
alexnet,1,688,NaN,bicycle,boat,2-0-10,0688_eid_dnn_2-0-10_boat_10_n02951358_4363.png,n02951358_4363.png,0.0,1.8371117,3.896696,-1.4563462
alexnet,1,689,NaN,keyboard,keyboard,2-0-10,0689_eid_dnn_2-0-10_keyboard_10_n03085013_28083.png,n03085013_28083.png,1.0,15.896952,5.185251,7.574316
alexnet,1,690,NaN,chair,chair,2-0-10,0690_eid_dnn_2-0-10_chair_10_n02791124_17035.png,n02791124_17035.png,1.0,2.1511369,2.1275501,0.016678352
alexnet,1,691,NaN,boat,bird,4-0-10,0691_eid_dnn_4-0-10_bird_10_n02028035_32557.png,n02028035_32557.png,0.0,-0.6594966,2.169751,-2.00058
alexnet,1,692,NaN,cat,bicycle,128-0-10,0692_eid_dnn_128-0-10_bicycle_10_n02835271_3298.png,n02835271_3298.png,0.0,0.4606784,4.405154,-2.7891657
alexnet,1,693,NaN,cat,boat,8-0-10,0693_eid_dnn_8-0-10_boat_10_n02951358_15422.png,n02951358_15422.png,0.0,0.44971484,3.2944887,-2.0115588
alexnet,1,694,NaN,cat,cat,1-0-10,0694_eid_dnn_1-0-10_cat_10_n02123597_3398.png,n02123597_3398.png,1.0,5.422058,3.6741776,1.2359382
alexnet,1,695,NaN,boat,boat,4-0-10,0695_eid_dnn_4-0-10_boat_10_n02951358_2330.png,n02951358_2330.png,1.0,6.2433653,3.4299839,1.9893612
alexnet,1,696,NaN,elephant,airplane,128-0-10,0696_eid_dnn_128-0-10_airplane_10_n02690373_6929.png,n02690373_6929.png,0.0,-3.6531956,2.3165555,-4.221252
alexnet,1,697,NaN,oven,bottle,8-0-10,0697_eid_dnn_8-0-10_bottle_10_n04560804_16054.png,n04560804_16054.png,0.0,1.3450958,3.2265968,-1.3304222
alexnet,1,698,NaN,cat,knife,128-0-10,0698_eid_dnn_128-0-10_knife_10_n03041632_2438.png,n03041632_2438.png,0.0,-0.6364332,2.0262547,-1.8828046
alexnet,1,699,NaN,dog,bird,2-0-10,0699_eid_dnn_2-0-10_bird_10_n02056570_9511.png,n02056570_9511.png,0.0,-1.7001444,2.9307861,-3.2745624
alexnet,1,700,NaN,cat,elephant,128-0-10,0700_eid_dnn_128-0-10_elephant_10_n02504013_9809.png,n02504013_9809.png,0.0,-0.09796496,3.8442285,-2.7875519
alexnet,1,701,NaN,cat,cat,32-0-10,0701_eid_dnn_32-0-10_cat_10_n02123394_4167.png,n02123394_4167.png,1.0,1.5151004,1.111247,0.2855675
alexnet,1,702,NaN,dog,dog,128-0-10,0702_eid_dnn_128-0-10_dog_10_n02101556_1042.png,n02101556_1042.png,1.0,1.8525304,1.3964626,0.32248864
alexnet,1,703,NaN,clock,elephant,64-0-10,0703_eid_dnn_64-0-10_elephant_10_n02504013_10765.png,n02504013_10765.png,0.0,1.4927173,1.5608225,-0.048157666
alexnet,1,704,NaN,airplane,airplane,1-0-10,0704_eid_dnn_1-0-10_airplane_10_n02690373_8653.png,n02690373_8653.png,1.0,13.200452,5.6699805,5.324847
alexnet,1,705,NaN,dog,elephant,16-0-10,0705_eid_dnn_16-0-10_elephant_10_n02504013_3172.png,n02504013_3172.png,0.0,2.9484487,3.0582852,-0.07766619
alexnet,1,706,NaN,cat,truck,8-0-10,0706_eid_dnn_8-0-10_truck_10_n04467665_21900.png,n04467665_21900.png,0.0,1.2786243,5.258921,-2.8144948
alexnet,1,707,NaN,oven,knife,32-0-10,0707_eid_dnn_32-0-10_knife_10_n03041632_13225.png,n03041632_13225.png,0.0,-0.39013225,2.289475,-1.8947685
alexnet,1,708,NaN,cat,cat,8-0-10,0708_eid_dnn_8-0-10_cat_10_n02123045_964.png,n02123045_964.png,1.0,5.044225,4.021726,0.723016
