subj,session,trial,rt,object_response,category,condition,imagename,filename,is_correct,targ_act,max_nontarg_act,decision_margin
alexnet_w1_mlp_simclrhn_probe2,1,1,NaN,bear,oven,16-0-10,0001_eid_dnn_16-0-10_oven_10_n04111531_13542.png,n04111531_13542.png,0.0,-0.17988162,1.0658246,-0.88084733
alexnet_w1_mlp_simclrhn_probe2,1,2,NaN,car,car,4-0-10,0002_eid_dnn_4-0-10_car_10_n03100240_5570.png,n03100240_5570.png,1.0,0.7332056,0.07354447,0.4664509
alexnet_w1_mlp_simclrhn_probe2,1,3,NaN,bear,bird,8-0-10,0003_eid_dnn_8-0-10_bird_10_n01820546_4847.png,n01820546_4847.png,0.0,-2.2356725,0.7955602,-2.1434052
alexnet_w1_mlp_simclrhn_probe2,1,4,NaN,bear,bear,32-0-10,0004_eid_dnn_32-0-10_bear_10_n02133161_15561.png,n02133161_15561.png,1.0,0.23373254,-0.34160933,0.40682817
alexnet_w1_mlp_simclrhn_probe2,1,5,NaN,oven,bird,64-0-10,0005_eid_dnn_64-0-10_bird_10_n01531178_9584.png,n01531178_9584.png,0.0,-1.2628984,0.16905326,-1.0125428
alexnet_w1_mlp_simclrhn_probe2,1,6,NaN,bear,bicycle,8-0-10,0006_eid_dnn_8-0-10_bicycle_10_n02835271_18846.png,n02835271_18846.png,0.0,-4.4187794,1.3062629,-4.0482163
alexnet_w1_mlp_simclrhn_probe2,1,7,NaN,oven,oven,4-0-10,0007_eid_dnn_4-0-10_oven_10_n04111531_73.png,n04111531_73.png,1.0,1.2162782,0.18271378,0.73084044
alexnet_w1_mlp_simclrhn_probe2,1,8,NaN,cat,clock,2-0-10,0008_eid_dnn_2-0-10_clock_10_n04548280_6159.png,n04548280_6159.png,0.0,-3.596349,-0.7318074,-2.0255368
alexnet_w1_mlp_simclrhn_probe2,1,9,NaN,oven,chair,32-0-10,0009_eid_dnn_32-0-10_chair_10_n03376595_9395.png,n03376595_9395.png,0.0,-3.6677513,1.0979705,-3.3698742
alexnet_w1_mlp_simclrhn_probe2,1,10,NaN,oven,bicycle,64-0-10,0010_eid_dnn_64-0-10_bicycle_10_n02835271_1918.png,n02835271_1918.png,0.0,-1.1354824,-0.29919556,-0.5913442
alexnet_w1_mlp_simclrhn_probe2,1,11,NaN,oven,bicycle,128-0-10,0011_eid_dnn_128-0-10_bicycle_10_n02835271_42320.png,n02835271_42320.png,0.0,-3.8849456,0.039711274,-2.7751515
alexnet_w1_mlp_simclrhn_probe2,1,12,NaN,elephant,elephant,1-0-10,0012_eid_dnn_1-0-10_elephant_10_n02504458_3628.png,n02504458_3628.png,1.0,5.5545845,0.6556569,3.464065
alexnet_w1_mlp_simclrhn_probe2,1,13,NaN,oven,knife,64-0-10,0013_eid_dnn_64-0-10_knife_10_n03041632_86554.png,n03041632_86554.png,0.0,-1.6922586,0.2557047,-1.377418
alexnet_w1_mlp_simclrhn_probe2,1,14,NaN,bear,cat,8-0-10,0014_eid_dnn_8-0-10_cat_10_n02123394_1726.png,n02123394_1726.png,0.0,-0.032349482,0.17621784,-0.14747937
alexnet_w1_mlp_simclrhn_probe2,1,15,NaN,bear,cat,32-0-10,0015_eid_dnn_32-0-10_cat_10_n02123597_6721.png,n02123597_6721.png,0.0,-0.41491365,0.23024523,-0.45619622
alexnet_w1_mlp_simclrhn_probe2,1,16,NaN,oven,oven,2-0-10,0016_eid_dnn_2-0-10_oven_10_n04111531_21869.png,n04111531_21869.png,1.0,0.41817725,0.3137331,0.073853165
alexnet_w1_mlp_simclrhn_probe2,1,17,NaN,bear,bear,4-0-10,0017_eid_dnn_4-0-10_bear_10_n02134084_2949.png,n02134084_2949.png,1.0,0.2223942,-0.25258312,0.3358597
alexnet_w1_mlp_simclrhn_probe2,1,18,NaN,bear,truck,8-0-10,0018_eid_dnn_8-0-10_truck_10_n03417042_18743.png,n03417042_18743.png,0.0,-6.6598706,0.5103357,-5.0701013
alexnet_w1_mlp_simclrhn_probe2,1,19,NaN,bear,bird,16-0-10,0019_eid_dnn_16-0-10_bird_10_n01616318_4246.png,n01616318_4246.png,0.0,-1.5232042,-0.0953988,-1.0096109
alexnet_w1_mlp_simclrhn_probe2,1,20,NaN,bear,bicycle,8-0-10,0020_eid_dnn_8-0-10_bicycle_10_n03792782_66771.png,n03792782_66771.png,0.0,-2.8483176,-0.043359473,-1.9834049
alexnet_w1_mlp_simclrhn_probe2,1,21,NaN,keyboard,keyboard,2-0-10,0021_eid_dnn_2-0-10_keyboard_10_n04505470_3531.png,n04505470_3531.png,1.0,2.4031634,0.4828611,1.3578589
alexnet_w1_mlp_simclrhn_probe2,1,22,NaN,oven,clock,8-0-10,0022_eid_dnn_8-0-10_clock_10_n04548280_6463.png,n04548280_6463.png,0.0,-2.4751275,0.038693383,-1.7775398
alexnet_w1_mlp_simclrhn_probe2,1,23,NaN,oven,keyboard,16-0-10,0023_eid_dnn_16-0-10_keyboard_10_n04505470_4974.png,n04505470_4974.png,0.0,-6.0453873,-0.11415067,-4.194018
alexnet_w1_mlp_simclrhn_probe2,1,24,NaN,oven,chair,4-0-10,0024_eid_dnn_4-0-10_chair_10_n03376595_360.png,n03376595_360.png,0.0,-2.7178133,0.055832446,-1.9612637
alexnet_w1_mlp_simclrhn_probe2,1,25,NaN,bear,dog,16-0-10,0025_eid_dnn_16-0-10_dog_10_n02097130_2752.png,n02097130_2752.png,0.0,-0.9753418,0.5616182,-1.0867949
alexnet_w1_mlp_simclrhn_probe2,1,26,NaN,oven,bicycle,2-0-10,0026_eid_dnn_2-0-10_bicycle_10_n02835271_3406.png,n02835271_3406.png,0.0,-2.045217,0.545737,-1.8320812
alexnet_w1_mlp_simclrhn_probe2,1,27,NaN,oven,bottle,16-0-10,0027_eid_dnn_16-0-10_bottle_10_n04560804_11732.png,n04560804_11732.png,0.0,-1.8688996,0.65994376,-1.7881624
alexnet_w1_mlp_simclrhn_probe2,1,28,NaN,oven,bottle,32-0-10,0028_eid_dnn_32-0-10_bottle_10_n04591713_13589.png,n04591713_13589.png,0.0,-2.4790998,0.34727365,-1.9985478
alexnet_w1_mlp_simclrhn_probe2,1,29,NaN,cat,cat,2-0-10,0029_eid_dnn_2-0-10_cat_10_n02123045_4009.png,n02123045_4009.png,1.0,3.1862967,0.5506572,1.8636786
alexnet_w1_mlp_simclrhn_probe2,1,30,NaN,cat,chair,8-0-10,0030_eid_dnn_8-0-10_chair_10_n02791124_1704.png,n02791124_1704.png,0.0,-5.3049994,-0.32602343,-3.5206676
alexnet_w1_mlp_simclrhn_probe2,1,31,NaN,oven,bicycle,128-0-10,0031_eid_dnn_128-0-10_bicycle_10_n03792782_28395.png,n03792782_28395.png,0.0,-1.6648993,-0.10045105,-1.106232
alexnet_w1_mlp_simclrhn_probe2,1,32,NaN,bear,truck,16-0-10,0032_eid_dnn_16-0-10_truck_10_n03417042_4288.png,n03417042_4288.png,0.0,-4.770891,1.3277222,-4.312371
alexnet_w1_mlp_simclrhn_probe2,1,33,NaN,keyboard,keyboard,1-0-10,0033_eid_dnn_1-0-10_keyboard_10_n04505470_3371.png,n04505470_3371.png,1.0,2.9783487,1.5132933,1.0359507
alexnet_w1_mlp_simclrhn_probe2,1,34,NaN,cat,cat,1-0-10,0034_eid_dnn_1-0-10_cat_10_n02124075_13436.png,n02124075_13436.png,1.0,2.0225124,0.2924943,1.2233076
alexnet_w1_mlp_simclrhn_probe2,1,35,NaN,oven,dog,32-0-10,0035_eid_dnn_32-0-10_dog_10_n02097209_8270.png,n02097209_8270.png,0.0,-1.7811109,0.29699087,-1.4694397
alexnet_w1_mlp_simclrhn_probe2,1,36,NaN,oven,clock,128-0-10,0036_eid_dnn_128-0-10_clock_10_n04548280_7795.png,n04548280_7795.png,0.0,-3.220234,-0.16408423,-2.1610243
alexnet_w1_mlp_simclrhn_probe2,1,37,NaN,oven,car,32-0-10,0037_eid_dnn_32-0-10_car_10_n03100240_21737.png,n03100240_21737.png,0.0,-3.1564693,0.08382229,-2.291232
alexnet_w1_mlp_simclrhn_probe2,1,38,NaN,oven,clock,128-0-10,0038_eid_dnn_128-0-10_clock_10_n02708093_1862.png,n02708093_1862.png,0.0,-2.0403183,-0.3650427,-1.1845987
alexnet_w1_mlp_simclrhn_probe2,1,39,NaN,bird,bicycle,64-0-10,0039_eid_dnn_64-0-10_bicycle_10_n03792782_9412.png,n03792782_9412.png,0.0,-0.6864847,-0.40347368,-0.20011902
alexnet_w1_mlp_simclrhn_probe2,1,40,NaN,bear,bear,32-0-10,0040_eid_dnn_32-0-10_bear_10_n02134418_163.png,n02134418_163.png,1.0,0.27827895,-0.2967667,0.40661868
alexnet_w1_mlp_simclrhn_probe2,1,41,NaN,bear,keyboard,16-0-10,0041_eid_dnn_16-0-10_keyboard_10_n03085013_25675.png,n03085013_25675.png,0.0,-2.6841817,-0.027153142,-1.8788029
alexnet_w1_mlp_simclrhn_probe2,1,42,NaN,oven,truck,2-0-10,0042_eid_dnn_2-0-10_truck_10_n03417042_1716.png,n03417042_1716.png,0.0,-1.8666872,0.09476655,-1.3869572
alexnet_w1_mlp_simclrhn_probe2,1,43,NaN,oven,keyboard,128-0-10,0043_eid_dnn_128-0-10_keyboard_10_n03085013_18854.png,n03085013_18854.png,0.0,-3.700924,-0.67661786,-2.1385074
alexnet_w1_mlp_simclrhn_probe2,1,44,NaN,oven,bottle,32-0-10,0044_eid_dnn_32-0-10_bottle_10_n04591713_4865.png,n04591713_4865.png,0.0,-2.389322,0.29277647,-1.89653
alexnet_w1_mlp_simclrhn_probe2,1,45,NaN,bear,bicycle,32-0-10,0045_eid_dnn_32-0-10_bicycle_10_n03792782_693.png,n03792782_693.png,0.0,-2.0289721,0.26757511,-1.6239041
alexnet_w1_mlp_simclrhn_probe2,1,46,NaN,knife,bottle,1-0-10,0046_eid_dnn_1-0-10_bottle_10_n04557648_264.png,n04557648_264.png,0.0,-2.5185716,-0.5387895,-1.3999174
alexnet_w1_mlp_simclrhn_probe2,1,47,NaN,knife,knife,2-0-10,0047_eid_dnn_2-0-10_knife_10_n03041632_25512.png,n03041632_25512.png,1.0,-0.5046427,-0.7387468,0.1655366
alexnet_w1_mlp_simclrhn_probe2,1,48,NaN,bear,boat,16-0-10,0048_eid_dnn_16-0-10_boat_10_n03344393_2381.png,n03344393_2381.png,0.0,-1.0287416,0.43011138,-1.0315648
alexnet_w1_mlp_simclrhn_probe2,1,49,NaN,oven,dog,128-0-10,0049_eid_dnn_128-0-10_dog_10_n02110627_17670.png,n02110627_17670.png,0.0,-3.65134,-1.7603792,-1.3371112
alexnet_w1_mlp_simclrhn_probe2,1,50,NaN,oven,bear,64-0-10,0050_eid_dnn_64-0-10_bear_10_n02133161_15981.png,n02133161_15981.png,0.0,-2.733068,0.35077748,-2.180608
alexnet_w1_mlp_simclrhn_probe2,1,51,NaN,bear,elephant,16-0-10,0051_eid_dnn_16-0-10_elephant_10_n02504458_3570.png,n02504458_3570.png,0.0,0.70550823,1.0362046,-0.23383763
alexnet_w1_mlp_simclrhn_probe2,1,52,NaN,bottle,truck,4-0-10,0052_eid_dnn_4-0-10_truck_10_n03417042_6241.png,n03417042_6241.png,0.0,-2.161763,1.0797951,-2.2921278
alexnet_w1_mlp_simclrhn_probe2,1,53,NaN,bear,bird,8-0-10,0053_eid_dnn_8-0-10_bird_10_n02025239_17670.png,n02025239_17670.png,0.0,-1.1298369,0.19049971,-0.93361896
alexnet_w1_mlp_simclrhn_probe2,1,54,NaN,bear,dog,16-0-10,0054_eid_dnn_16-0-10_dog_10_n02106030_19249.png,n02106030_19249.png,0.0,-0.410037,0.48822463,-0.63516694
alexnet_w1_mlp_simclrhn_probe2,1,55,NaN,bear,keyboard,32-0-10,0055_eid_dnn_32-0-10_keyboard_10_n04505470_2326.png,n04505470_2326.png,0.0,-3.0240586,-0.0010911897,-2.1375608
alexnet_w1_mlp_simclrhn_probe2,1,56,NaN,bear,dog,16-0-10,0056_eid_dnn_16-0-10_dog_10_n02107142_9379.png,n02107142_9379.png,0.0,-0.9514029,0.30034542,-0.88511974
alexnet_w1_mlp_simclrhn_probe2,1,57,NaN,oven,cat,64-0-10,0057_eid_dnn_64-0-10_cat_10_n02123394_1828.png,n02123394_1828.png,0.0,-0.8661757,-0.19886461,-0.4718602
alexnet_w1_mlp_simclrhn_probe2,1,58,NaN,oven,car,32-0-10,0058_eid_dnn_32-0-10_car_10_n03100240_4605.png,n03100240_4605.png,0.0,-7.060913,0.9286637,-5.649484
alexnet_w1_mlp_simclrhn_probe2,1,59,NaN,bear,bicycle,4-0-10,0059_eid_dnn_4-0-10_bicycle_10_n03792782_6765.png,n03792782_6765.png,0.0,-0.8295095,0.37978214,-0.85509837
alexnet_w1_mlp_simclrhn_probe2,1,60,NaN,bear,boat,8-0-10,0060_eid_dnn_8-0-10_boat_10_n03344393_8455.png,n03344393_8455.png,0.0,-1.7655891,0.20760222,-1.395257
alexnet_w1_mlp_simclrhn_probe2,1,61,NaN,oven,oven,16-0-10,0061_eid_dnn_16-0-10_oven_10_n04111531_8603.png,n04111531_8603.png,1.0,1.1449654,0.35902938,0.55574065
alexnet_w1_mlp_simclrhn_probe2,1,62,NaN,bird,bird,2-0-10,0062_eid_dnn_2-0-10_bird_10_n02051845_2574.png,n02051845_2574.png,1.0,1.0141803,-0.92391634,1.3704413
alexnet_w1_mlp_simclrhn_probe2,1,63,NaN,boat,boat,4-0-10,0063_eid_dnn_4-0-10_boat_10_n04612504_15875.png,n04612504_15875.png,1.0,1.1050075,-0.03465122,0.8058604
alexnet_w1_mlp_simclrhn_probe2,1,64,NaN,bottle,bottle,4-0-10,0064_eid_dnn_4-0-10_bottle_10_n03983396_7337.png,n03983396_7337.png,1.0,-0.5156932,-0.8067667,0.20582005
alexnet_w1_mlp_simclrhn_probe2,1,65,NaN,cat,clock,8-0-10,0065_eid_dnn_8-0-10_clock_10_n02708093_6822.png,n02708093_6822.png,0.0,-5.2824206,1.4098061,-4.732119
alexnet_w1_mlp_simclrhn_probe2,1,66,NaN,airplane,truck,2-0-10,0066_eid_dnn_2-0-10_truck_10_n04467665_15994.png,n04467665_15994.png,0.0,-1.1030765,0.40876728,-1.0690349
alexnet_w1_mlp_simclrhn_probe2,1,67,NaN,oven,cat,128-0-10,0067_eid_dnn_128-0-10_cat_10_n02123597_6291.png,n02123597_6291.png,0.0,-1.7744017,-0.6682925,-0.7821373
alexnet_w1_mlp_simclrhn_probe2,1,68,NaN,cat,bird,8-0-10,0068_eid_dnn_8-0-10_bird_10_n01817953_1734.png,n01817953_1734.png,0.0,-3.371125,0.6374226,-2.8344715
alexnet_w1_mlp_simclrhn_probe2,1,69,NaN,oven,elephant,32-0-10,0069_eid_dnn_32-0-10_elephant_10_n02504458_6880.png,n02504458_6880.png,0.0,-0.5156107,0.52857757,-0.7383526
alexnet_w1_mlp_simclrhn_probe2,1,70,NaN,oven,cat,16-0-10,0070_eid_dnn_16-0-10_cat_10_n02123597_13197.png,n02123597_13197.png,0.0,-0.4761866,0.5192777,-0.70389956
alexnet_w1_mlp_simclrhn_probe2,1,71,NaN,bear,bicycle,64-0-10,0071_eid_dnn_64-0-10_bicycle_10_n03792782_973.png,n03792782_973.png,0.0,-1.2807902,-0.23710409,-0.7379976
alexnet_w1_mlp_simclrhn_probe2,1,72,NaN,cat,cat,2-0-10,0072_eid_dnn_2-0-10_cat_10_n02124075_8310.png,n02124075_8310.png,1.0,1.8967806,0.027292216,1.3219279
alexnet_w1_mlp_simclrhn_probe2,1,73,NaN,oven,oven,32-0-10,0073_eid_dnn_32-0-10_oven_10_n04111531_5168.png,n04111531_5168.png,1.0,0.13602337,-0.4848817,0.43904617
alexnet_w1_mlp_simclrhn_probe2,1,74,NaN,airplane,airplane,1-0-10,0074_eid_dnn_1-0-10_airplane_10_n02690373_4893.png,n02690373_4893.png,1.0,3.6548483,-0.59354144,3.0040653
alexnet_w1_mlp_simclrhn_probe2,1,75,NaN,dog,dog,1-0-10,0075_eid_dnn_1-0-10_dog_10_n02086240_3614.png,n02086240_3614.png,1.0,0.42109543,-0.4740276,0.63294756
alexnet_w1_mlp_simclrhn_probe2,1,76,NaN,cat,oven,16-0-10,0076_eid_dnn_16-0-10_oven_10_n04111531_2937.png,n04111531_2937.png,0.0,-0.027284592,0.3297718,-0.252477
alexnet_w1_mlp_simclrhn_probe2,1,77,NaN,knife,clock,1-0-10,0077_eid_dnn_1-0-10_clock_10_n03196217_2022.png,n03196217_2022.png,0.0,-0.33419037,0.4196062,-0.53301466
alexnet_w1_mlp_simclrhn_probe2,1,78,NaN,oven,bottle,64-0-10,0078_eid_dnn_64-0-10_bottle_10_n04591713_2732.png,n04591713_2732.png,0.0,-2.1206808,-0.2539733,-1.3199615
alexnet_w1_mlp_simclrhn_probe2,1,79,NaN,car,car,2-0-10,0079_eid_dnn_2-0-10_car_10_n03100240_8794.png,n03100240_8794.png,1.0,2.5783386,1.5613849,0.7190949
alexnet_w1_mlp_simclrhn_probe2,1,80,NaN,oven,airplane,16-0-10,0080_eid_dnn_16-0-10_airplane_10_n02690373_3640.png,n02690373_3640.png,0.0,-1.817533,0.2593123,-1.4685515
alexnet_w1_mlp_simclrhn_probe2,1,81,NaN,oven,bicycle,64-0-10,0081_eid_dnn_64-0-10_bicycle_10_n03792782_41097.png,n03792782_41097.png,0.0,-0.94571817,-0.30466965,-0.45328978
alexnet_w1_mlp_simclrhn_probe2,1,82,NaN,oven,dog,64-0-10,0082_eid_dnn_64-0-10_dog_10_n02090721_6770.png,n02090721_6770.png,0.0,-1.2944604,-0.4602764,-0.5898572
alexnet_w1_mlp_simclrhn_probe2,1,83,NaN,bear,cat,16-0-10,0083_eid_dnn_16-0-10_cat_10_n02123597_28968.png,n02123597_28968.png,0.0,-0.1368863,0.301001,-0.3096331
alexnet_w1_mlp_simclrhn_probe2,1,84,NaN,elephant,elephant,1-0-10,0084_eid_dnn_1-0-10_elephant_10_n02504013_5894.png,n02504013_5894.png,1.0,7.7967944,2.1601005,3.9857445
alexnet_w1_mlp_simclrhn_probe2,1,85,NaN,oven,oven,32-0-10,0085_eid_dnn_32-0-10_oven_10_n04111531_9314.png,n04111531_9314.png,1.0,0.28689975,-0.10417375,0.2765307
alexnet_w1_mlp_simclrhn_probe2,1,86,NaN,elephant,elephant,1-0-10,0086_eid_dnn_1-0-10_elephant_10_n02504458_12074.png,n02504458_12074.png,1.0,1.2626474,0.20488743,0.7479493
alexnet_w1_mlp_simclrhn_probe2,1,87,NaN,boat,boat,4-0-10,0087_eid_dnn_4-0-10_boat_10_n03344393_3773.png,n03344393_3773.png,1.0,0.31797507,-0.095199205,0.29215834
alexnet_w1_mlp_simclrhn_probe2,1,88,NaN,oven,truck,128-0-10,0088_eid_dnn_128-0-10_truck_10_n04467665_80153.png,n04467665_80153.png,0.0,-3.279337,-0.48019624,-1.9792914
alexnet_w1_mlp_simclrhn_probe2,1,89,NaN,oven,chair,128-0-10,0089_eid_dnn_128-0-10_chair_10_n04099969_20604.png,n04099969_20604.png,0.0,-2.14288,-0.4575478,-1.1917099
alexnet_w1_mlp_simclrhn_probe2,1,90,NaN,oven,keyboard,32-0-10,0090_eid_dnn_32-0-10_keyboard_10_n03085013_23625.png,n03085013_23625.png,0.0,-2.257784,0.28011256,-1.7945638
alexnet_w1_mlp_simclrhn_probe2,1,91,NaN,oven,truck,64-0-10,0091_eid_dnn_64-0-10_truck_10_n03796401_1458.png,n03796401_1458.png,0.0,-4.4642687,-0.33178496,-2.9221072
alexnet_w1_mlp_simclrhn_probe2,1,92,NaN,oven,car,4-0-10,0092_eid_dnn_4-0-10_car_10_n03100240_18711.png,n03100240_18711.png,0.0,-1.9624046,0.088505805,-1.4502127
alexnet_w1_mlp_simclrhn_probe2,1,93,NaN,oven,truck,128-0-10,0093_eid_dnn_128-0-10_truck_10_n03796401_2988.png,n03796401_2988.png,0.0,-5.6198034,-0.45951813,-3.6488729
alexnet_w1_mlp_simclrhn_probe2,1,94,NaN,truck,truck,2-0-10,0094_eid_dnn_2-0-10_truck_10_n03417042_7096.png,n03417042_7096.png,1.0,4.052605,2.0387266,1.4240272
alexnet_w1_mlp_simclrhn_probe2,1,95,NaN,cat,dog,8-0-10,0095_eid_dnn_8-0-10_dog_10_n02105855_9345.png,n02105855_9345.png,0.0,-0.21345636,0.8996075,-0.78705496
alexnet_w1_mlp_simclrhn_probe2,1,96,NaN,bear,bird,32-0-10,0096_eid_dnn_32-0-10_bird_10_n01796340_8342.png,n01796340_8342.png,0.0,-0.4024292,0.1942195,-0.42189434
alexnet_w1_mlp_simclrhn_probe2,1,97,NaN,cat,airplane,8-0-10,0097_eid_dnn_8-0-10_airplane_10_n02690373_7293.png,n02690373_7293.png,0.0,-2.430537,-0.13579936,-1.6226245
alexnet_w1_mlp_simclrhn_probe2,1,98,NaN,oven,car,64-0-10,0098_eid_dnn_64-0-10_car_10_n04285008_9811.png,n04285008_9811.png,0.0,-5.125764,0.00020747259,-3.6246092
alexnet_w1_mlp_simclrhn_probe2,1,99,NaN,bear,knife,8-0-10,0099_eid_dnn_8-0-10_knife_10_n03041632_86783.png,n03041632_86783.png,0.0,-2.5234451,0.8633779,-2.3948457
alexnet_w1_mlp_simclrhn_probe2,1,100,NaN,oven,oven,16-0-10,0100_eid_dnn_16-0-10_oven_10_n04111531_9867.png,n04111531_9867.png,1.0,0.73874116,0.6273301,0.078779496
alexnet_w1_mlp_simclrhn_probe2,1,101,NaN,oven,truck,128-0-10,0101_eid_dnn_128-0-10_truck_10_n04467665_22573.png,n04467665_22573.png,0.0,-5.5846434,-0.9548607,-3.2737508
alexnet_w1_mlp_simclrhn_probe2,1,102,NaN,oven,car,128-0-10,0102_eid_dnn_128-0-10_car_10_n02814533_23512.png,n02814533_23512.png,0.0,-4.903948,-0.64873636,-3.008889
alexnet_w1_mlp_simclrhn_probe2,1,103,NaN,oven,bicycle,16-0-10,0103_eid_dnn_16-0-10_bicycle_10_n03792782_4895.png,n03792782_4895.png,0.0,-5.1988344,0.25373602,-3.8555496
alexnet_w1_mlp_simclrhn_probe2,1,104,NaN,keyboard,keyboard,2-0-10,0104_eid_dnn_2-0-10_keyboard_10_n03085013_23554.png,n03085013_23554.png,1.0,0.028534949,-0.30534708,0.23609026
alexnet_w1_mlp_simclrhn_probe2,1,105,NaN,bear,bear,1-0-10,0105_eid_dnn_1-0-10_bear_10_n02134084_8601.png,n02134084_8601.png,1.0,0.79692066,0.6350851,0.11443502
alexnet_w1_mlp_simclrhn_probe2,1,106,NaN,bear,bicycle,8-0-10,0106_eid_dnn_8-0-10_bicycle_10_n03792782_126.png,n03792782_126.png,0.0,-4.6346703,0.56829745,-3.6790538
alexnet_w1_mlp_simclrhn_probe2,1,107,NaN,chair,chair,1-0-10,0107_eid_dnn_1-0-10_chair_10_n04099969_3583.png,n04099969_3583.png,1.0,1.4658991,0.7975112,0.47262162
alexnet_w1_mlp_simclrhn_probe2,1,108,NaN,cat,bicycle,8-0-10,0108_eid_dnn_8-0-10_bicycle_10_n02835271_976.png,n02835271_976.png,0.0,-5.569966,1.1027817,-4.718345
alexnet_w1_mlp_simclrhn_probe2,1,109,NaN,oven,oven,32-0-10,0109_eid_dnn_32-0-10_oven_10_n04111531_10313.png,n04111531_10313.png,1.0,0.9180378,-0.11027379,0.7271261
alexnet_w1_mlp_simclrhn_probe2,1,110,NaN,oven,oven,1-0-10,0110_eid_dnn_1-0-10_oven_10_n04111531_8984.png,n04111531_8984.png,1.0,5.9453964,0.4521095,3.8843405
alexnet_w1_mlp_simclrhn_probe2,1,111,NaN,bear,elephant,8-0-10,0111_eid_dnn_8-0-10_elephant_10_n02504013_3181.png,n02504013_3181.png,0.0,0.7067659,1.3917234,-0.4843381
alexnet_w1_mlp_simclrhn_probe2,1,112,NaN,bear,keyboard,64-0-10,0112_eid_dnn_64-0-10_keyboard_10_n03085013_21490.png,n03085013_21490.png,0.0,-3.3026583,-0.26649278,-2.1468933
alexnet_w1_mlp_simclrhn_probe2,1,113,NaN,airplane,bird,4-0-10,0113_eid_dnn_4-0-10_bird_10_n01614925_2708.png,n01614925_2708.png,0.0,-0.36101452,0.98997813,-0.9552961
alexnet_w1_mlp_simclrhn_probe2,1,114,NaN,cat,bottle,16-0-10,0114_eid_dnn_16-0-10_bottle_10_n03983396_3109.png,n03983396_3109.png,0.0,-2.1395795,-0.072999954,-1.4612925
alexnet_w1_mlp_simclrhn_probe2,1,115,NaN,oven,bear,128-0-10,0115_eid_dnn_128-0-10_bear_10_n02134418_377.png,n02134418_377.png,0.0,-1.5835516,-0.53477097,-0.7415999
alexnet_w1_mlp_simclrhn_probe2,1,116,NaN,oven,knife,16-0-10,0116_eid_dnn_16-0-10_knife_10_n03041632_7680.png,n03041632_7680.png,0.0,-2.9741807,0.34960517,-2.3502715
alexnet_w1_mlp_simclrhn_probe2,1,117,NaN,elephant,truck,4-0-10,0117_eid_dnn_4-0-10_truck_10_n03417042_3807.png,n03417042_3807.png,0.0,-1.5903502,1.1749773,-1.9553819
alexnet_w1_mlp_simclrhn_probe2,1,118,NaN,oven,elephant,128-0-10,0118_eid_dnn_128-0-10_elephant_10_n02504013_6501.png,n02504013_6501.png,0.0,-2.385208,0.1290271,-1.7778326
alexnet_w1_mlp_simclrhn_probe2,1,119,NaN,oven,bicycle,32-0-10,0119_eid_dnn_32-0-10_bicycle_10_n03792782_5517.png,n03792782_5517.png,0.0,-1.2828927,-0.55516005,-0.5145847
alexnet_w1_mlp_simclrhn_probe2,1,120,NaN,oven,bottle,128-0-10,0120_eid_dnn_128-0-10_bottle_10_n02823428_5791.png,n02823428_5791.png,0.0,-2.5259688,-0.17177972,-1.6646632
alexnet_w1_mlp_simclrhn_probe2,1,121,NaN,oven,car,128-0-10,0121_eid_dnn_128-0-10_car_10_n04285008_10144.png,n04285008_10144.png,0.0,-5.6557755,-0.32433128,-3.7699006
alexnet_w1_mlp_simclrhn_probe2,1,122,NaN,cat,cat,4-0-10,0122_eid_dnn_4-0-10_cat_10_n02123159_5764.png,n02123159_5764.png,1.0,3.1207294,0.40233704,1.9221938
alexnet_w1_mlp_simclrhn_probe2,1,123,NaN,bear,dog,16-0-10,0123_eid_dnn_16-0-10_dog_10_n02085936_4491.png,n02085936_4491.png,0.0,-0.20357029,0.34883165,-0.39060718
alexnet_w1_mlp_simclrhn_probe2,1,124,NaN,oven,bicycle,32-0-10,0124_eid_dnn_32-0-10_bicycle_10_n03792782_6159.png,n03792782_6159.png,0.0,-1.5751238,0.26189536,-1.2989688
alexnet_w1_mlp_simclrhn_probe2,1,125,NaN,clock,clock,4-0-10,0125_eid_dnn_4-0-10_clock_10_n04548280_2404.png,n04548280_2404.png,1.0,0.52136797,-0.60785294,0.7984798
alexnet_w1_mlp_simclrhn_probe2,1,126,NaN,oven,bottle,64-0-10,0126_eid_dnn_64-0-10_bottle_10_n04591713_360.png,n04591713_360.png,0.0,-2.5735729,0.63529176,-2.26901
alexnet_w1_mlp_simclrhn_probe2,1,127,NaN,bear,airplane,16-0-10,0127_eid_dnn_16-0-10_airplane_10_n02690373_1909.png,n02690373_1909.png,0.0,-1.6563772,0.3129942,-1.392556
alexnet_w1_mlp_simclrhn_probe2,1,128,NaN,bear,bear,2-0-10,0128_eid_dnn_2-0-10_bear_10_n02133161_9724.png,n02133161_9724.png,1.0,1.0149611,-0.09719969,0.7864165
alexnet_w1_mlp_simclrhn_probe2,1,129,NaN,car,car,2-0-10,0129_eid_dnn_2-0-10_car_10_n04285008_5897.png,n04285008_5897.png,1.0,5.9581847,2.548535,2.4109864
alexnet_w1_mlp_simclrhn_probe2,1,130,NaN,bicycle,bicycle,1-0-10,0130_eid_dnn_1-0-10_bicycle_10_n02835271_9807.png,n02835271_9807.png,1.0,2.6652284,-1.7807935,3.1438124
alexnet_w1_mlp_simclrhn_probe2,1,131,NaN,knife,keyboard,1-0-10,0131_eid_dnn_1-0-10_keyboard_10_n03085013_23286.png,n03085013_23286.png,0.0,-3.5809588,-0.18118098,-2.404006
alexnet_w1_mlp_simclrhn_probe2,1,132,NaN,bicycle,clock,2-0-10,0132_eid_dnn_2-0-10_clock_10_n02708093_772.png,n02708093_772.png,0.0,-1.8417116,0.1458925,-1.4054484
alexnet_w1_mlp_simclrhn_probe2,1,133,NaN,keyboard,clock,4-0-10,0133_eid_dnn_4-0-10_clock_10_n03196217_820.png,n03196217_820.png,0.0,-0.86132216,1.4698708,-1.6484023
alexnet_w1_mlp_simclrhn_probe2,1,134,NaN,bear,dog,32-0-10,0134_eid_dnn_32-0-10_dog_10_n02093754_6351.png,n02093754_6351.png,0.0,-0.57274395,0.12692307,-0.49473932
alexnet_w1_mlp_simclrhn_probe2,1,135,NaN,cat,truck,8-0-10,0135_eid_dnn_8-0-10_truck_10_n03417042_27093.png,n03417042_27093.png,0.0,-5.6955404,0.576093,-4.434715
alexnet_w1_mlp_simclrhn_probe2,1,136,NaN,bear,bicycle,4-0-10,0136_eid_dnn_4-0-10_bicycle_10_n03792782_30530.png,n03792782_30530.png,0.0,-3.4981341,1.1038612,-3.2541022
alexnet_w1_mlp_simclrhn_probe2,1,137,NaN,bottle,bottle,4-0-10,0137_eid_dnn_4-0-10_bottle_10_n03937543_5215.png,n03937543_5215.png,1.0,0.2838324,-0.10640935,0.2759426
alexnet_w1_mlp_simclrhn_probe2,1,138,NaN,bicycle,boat,2-0-10,0138_eid_dnn_2-0-10_boat_10_n02951358_9933.png,n02951358_9933.png,0.0,-1.7967482,-0.072964266,-1.2188993
alexnet_w1_mlp_simclrhn_probe2,1,139,NaN,dog,dog,4-0-10,0139_eid_dnn_4-0-10_dog_10_n02086910_8694.png,n02086910_8694.png,1.0,0.12702723,-0.17989688,0.21702813
alexnet_w1_mlp_simclrhn_probe2,1,140,NaN,cat,knife,8-0-10,0140_eid_dnn_8-0-10_knife_10_n03041632_3504.png,n03041632_3504.png,0.0,-1.6330464,0.19706613,-1.2940849
alexnet_w1_mlp_simclrhn_probe2,1,141,NaN,oven,knife,128-0-10,0141_eid_dnn_128-0-10_knife_10_n03041632_15754.png,n03041632_15754.png,0.0,-1.9293497,-0.4463195,-1.0486608
alexnet_w1_mlp_simclrhn_probe2,1,142,NaN,airplane,truck,8-0-10,0142_eid_dnn_8-0-10_truck_10_n04467665_45306.png,n04467665_45306.png,0.0,-1.0611097,0.24434225,-0.9230939
alexnet_w1_mlp_simclrhn_probe2,1,143,NaN,elephant,elephant,1-0-10,0143_eid_dnn_1-0-10_elephant_10_n02504013_5351.png,n02504013_5351.png,1.0,1.0696051,-0.2748697,0.9506872
alexnet_w1_mlp_simclrhn_probe2,1,144,NaN,cat,bottle,2-0-10,0144_eid_dnn_2-0-10_bottle_10_n03937543_7763.png,n03937543_7763.png,0.0,-2.3663719,0.59440786,-2.0935874
alexnet_w1_mlp_simclrhn_probe2,1,145,NaN,bear,bird,32-0-10,0145_eid_dnn_32-0-10_bird_10_n01843383_91.png,n01843383_91.png,0.0,-0.96802694,-0.77460754,-0.13676816
alexnet_w1_mlp_simclrhn_probe2,1,146,NaN,bottle,clock,4-0-10,0146_eid_dnn_4-0-10_clock_10_n04548280_28.png,n04548280_28.png,0.0,-0.942602,0.12578179,-0.75546145
alexnet_w1_mlp_simclrhn_probe2,1,147,NaN,oven,knife,16-0-10,0147_eid_dnn_16-0-10_knife_10_n03041632_102828.png,n03041632_102828.png,0.0,-2.4953742,0.5964801,-2.1862712
alexnet_w1_mlp_simclrhn_probe2,1,148,NaN,oven,car,128-0-10,0148_eid_dnn_128-0-10_car_10_n03100240_7520.png,n03100240_7520.png,0.0,-5.6056304,-0.37819657,-3.696354
alexnet_w1_mlp_simclrhn_probe2,1,149,NaN,oven,knife,16-0-10,0149_eid_dnn_16-0-10_knife_10_n03041632_53874.png,n03041632_53874.png,0.0,-1.9760628,0.4931669,-1.7460091
alexnet_w1_mlp_simclrhn_probe2,1,150,NaN,bear,boat,16-0-10,0150_eid_dnn_16-0-10_boat_10_n04273569_3896.png,n04273569_3896.png,0.0,-2.247745,-0.34081006,-1.3484067
alexnet_w1_mlp_simclrhn_probe2,1,151,NaN,airplane,airplane,2-0-10,0151_eid_dnn_2-0-10_airplane_10_n02690373_6002.png,n02690373_6002.png,1.0,3.1560457,1.6765677,1.0461489
alexnet_w1_mlp_simclrhn_probe2,1,152,NaN,cat,chair,8-0-10,0152_eid_dnn_8-0-10_chair_10_n04099969_7191.png,n04099969_7191.png,0.0,-3.1636543,0.3049802,-2.4526951
alexnet_w1_mlp_simclrhn_probe2,1,153,NaN,oven,dog,32-0-10,0153_eid_dnn_32-0-10_dog_10_n02101388_4808.png,n02101388_4808.png,0.0,-1.0704074,0.11614108,-0.8390165
alexnet_w1_mlp_simclrhn_probe2,1,154,NaN,cat,keyboard,16-0-10,0154_eid_dnn_16-0-10_keyboard_10_n03085013_24538.png,n03085013_24538.png,0.0,-4.0577073,0.42844233,-3.172187
alexnet_w1_mlp_simclrhn_probe2,1,155,NaN,oven,knife,128-0-10,0155_eid_dnn_128-0-10_knife_10_n03041632_85488.png,n03041632_85488.png,0.0,-2.8141446,-0.8698224,-1.3748435
alexnet_w1_mlp_simclrhn_probe2,1,156,NaN,cat,car,4-0-10,0156_eid_dnn_4-0-10_car_10_n04285008_7630.png,n04285008_7630.png,0.0,-5.971639,-1.1805667,-3.3877997
alexnet_w1_mlp_simclrhn_probe2,1,157,NaN,bear,airplane,8-0-10,0157_eid_dnn_8-0-10_airplane_10_n02690373_2941.png,n02690373_2941.png,0.0,-3.5165324,0.21003982,-2.6350846
alexnet_w1_mlp_simclrhn_probe2,1,158,NaN,oven,bird,64-0-10,0158_eid_dnn_64-0-10_bird_10_n01514859_6021.png,n01514859_6021.png,0.0,-1.0430001,-0.5096633,-0.3771261
alexnet_w1_mlp_simclrhn_probe2,1,159,NaN,oven,clock,64-0-10,0159_eid_dnn_64-0-10_clock_10_n04548280_3293.png,n04548280_3293.png,0.0,-3.1336412,0.16260396,-2.3307972
alexnet_w1_mlp_simclrhn_probe2,1,160,NaN,oven,oven,4-0-10,0160_eid_dnn_4-0-10_oven_10_n04111531_4998.png,n04111531_4998.png,1.0,-0.14775814,-0.29689956,0.10545891
alexnet_w1_mlp_simclrhn_probe2,1,161,NaN,oven,bird,128-0-10,0161_eid_dnn_128-0-10_bird_10_n02028035_32993.png,n02028035_32993.png,0.0,-1.400821,-0.5310164,-0.6150447
alexnet_w1_mlp_simclrhn_probe2,1,162,NaN,bird,bird,2-0-10,0162_eid_dnn_2-0-10_bird_10_n01843383_7800.png,n01843383_7800.png,1.0,-1.5378765,-1.8637617,0.23043562
alexnet_w1_mlp_simclrhn_probe2,1,163,NaN,oven,bear,64-0-10,0163_eid_dnn_64-0-10_bear_10_n02132136_15174.png,n02132136_15174.png,0.0,-0.86813354,-0.19499478,-0.47598097
alexnet_w1_mlp_simclrhn_probe2,1,164,NaN,oven,oven,4-0-10,0164_eid_dnn_4-0-10_oven_10_n04111531_7266.png,n04111531_7266.png,1.0,0.40632683,-0.9757884,0.9773031
alexnet_w1_mlp_simclrhn_probe2,1,165,NaN,oven,cat,128-0-10,0165_eid_dnn_128-0-10_cat_10_n02124075_6464.png,n02124075_6464.png,0.0,-1.3120688,0.02892436,-0.9482254
alexnet_w1_mlp_simclrhn_probe2,1,166,NaN,bear,bicycle,16-0-10,0166_eid_dnn_16-0-10_bicycle_10_n02835271_4667.png,n02835271_4667.png,0.0,-3.622247,0.5781124,-2.9701025
alexnet_w1_mlp_simclrhn_probe2,1,167,NaN,oven,chair,32-0-10,0167_eid_dnn_32-0-10_chair_10_n04099969_2532.png,n04099969_2532.png,0.0,-3.1195855,-0.03212318,-2.1831656
alexnet_w1_mlp_simclrhn_probe2,1,168,NaN,bottle,bottle,4-0-10,0168_eid_dnn_4-0-10_bottle_10_n04560804_15683.png,n04560804_15683.png,1.0,0.30306572,-0.3517044,0.4629924
alexnet_w1_mlp_simclrhn_probe2,1,169,NaN,cat,chair,8-0-10,0169_eid_dnn_8-0-10_chair_10_n04099969_6825.png,n04099969_6825.png,0.0,-6.302087,0.67765135,-4.9354205
alexnet_w1_mlp_simclrhn_probe2,1,170,NaN,bottle,oven,1-0-10,0170_eid_dnn_1-0-10_oven_10_n04111531_1612.png,n04111531_1612.png,0.0,1.740749,1.9687902,-0.16124946
alexnet_w1_mlp_simclrhn_probe2,1,171,NaN,clock,clock,2-0-10,0171_eid_dnn_2-0-10_clock_10_n02708093_1701.png,n02708093_1701.png,1.0,3.342425,0.27084464,2.1719353
alexnet_w1_mlp_simclrhn_probe2,1,172,NaN,bear,elephant,32-0-10,0172_eid_dnn_32-0-10_elephant_10_n02504013_782.png,n02504013_782.png,0.0,-0.11795162,0.18031381,-0.2109055
alexnet_w1_mlp_simclrhn_probe2,1,173,NaN,oven,dog,128-0-10,0173_eid_dnn_128-0-10_dog_10_n02107908_8814.png,n02107908_8814.png,0.0,-3.1803777,-0.062721804,-2.2045157
alexnet_w1_mlp_simclrhn_probe2,1,174,NaN,bear,elephant,4-0-10,0174_eid_dnn_4-0-10_elephant_10_n02504458_5816.png,n02504458_5816.png,0.0,1.0607638,1.3047314,-0.1725111
alexnet_w1_mlp_simclrhn_probe2,1,175,NaN,car,car,2-0-10,0175_eid_dnn_2-0-10_car_10_n03100240_18788.png,n03100240_18788.png,1.0,3.5584824,0.715329,2.0104132
alexnet_w1_mlp_simclrhn_probe2,1,176,NaN,oven,airplane,16-0-10,0176_eid_dnn_16-0-10_airplane_10_n02690373_7915.png,n02690373_7915.png,0.0,-1.3000867,-0.42866904,-0.61618537
alexnet_w1_mlp_simclrhn_probe2,1,177,NaN,oven,chair,4-0-10,0177_eid_dnn_4-0-10_chair_10_n04429376_10544.png,n04429376_10544.png,0.0,-1.2917885,1.2829947,-1.8206468
alexnet_w1_mlp_simclrhn_probe2,1,178,NaN,oven,knife,32-0-10,0178_eid_dnn_32-0-10_knife_10_n03041632_24883.png,n03041632_24883.png,0.0,-2.045128,-0.017153874,-1.4339943
alexnet_w1_mlp_simclrhn_probe2,1,179,NaN,oven,bicycle,128-0-10,0179_eid_dnn_128-0-10_bicycle_10_n03792782_10367.png,n03792782_10367.png,0.0,-2.5289066,-0.8185171,-1.2094281
alexnet_w1_mlp_simclrhn_probe2,1,180,NaN,oven,oven,1-0-10,0180_eid_dnn_1-0-10_oven_10_n04111531_3121.png,n04111531_3121.png,1.0,1.2532709,-0.2853814,1.0879915
alexnet_w1_mlp_simclrhn_probe2,1,181,NaN,oven,car,128-0-10,0181_eid_dnn_128-0-10_car_10_n02814533_10995.png,n02814533_10995.png,0.0,-5.694164,-0.46241343,-3.6994064
alexnet_w1_mlp_simclrhn_probe2,1,182,NaN,oven,dog,128-0-10,0182_eid_dnn_128-0-10_dog_10_n02112350_502.png,n02112350_502.png,0.0,-2.638252,-0.18057355,-1.7378412
alexnet_w1_mlp_simclrhn_probe2,1,183,NaN,oven,clock,128-0-10,0183_eid_dnn_128-0-10_clock_10_n04548280_5278.png,n04548280_5278.png,0.0,-4.1601567,-0.4351705,-2.633963
alexnet_w1_mlp_simclrhn_probe2,1,184,NaN,bear,bird,4-0-10,0184_eid_dnn_4-0-10_bird_10_n02006656_713.png,n02006656_713.png,0.0,-0.96721035,0.25733054,-0.8658812
alexnet_w1_mlp_simclrhn_probe2,1,185,NaN,oven,bottle,128-0-10,0185_eid_dnn_128-0-10_bottle_10_n04557648_4106.png,n04557648_4106.png,0.0,-2.2475963,-0.34901023,-1.3425031
alexnet_w1_mlp_simclrhn_probe2,1,186,NaN,oven,clock,64-0-10,0186_eid_dnn_64-0-10_clock_10_n02708093_1430.png,n02708093_1430.png,0.0,-2.5113316,-0.39124194,-1.4991297
alexnet_w1_mlp_simclrhn_probe2,1,187,NaN,oven,oven,1-0-10,0187_eid_dnn_1-0-10_oven_10_n04111531_7664.png,n04111531_7664.png,1.0,3.415567,0.5152306,2.0508475
alexnet_w1_mlp_simclrhn_probe2,1,188,NaN,car,car,1-0-10,0188_eid_dnn_1-0-10_car_10_n02814533_149.png,n02814533_149.png,1.0,5.1485305,4.8449097,0.21469234
alexnet_w1_mlp_simclrhn_probe2,1,189,NaN,bird,clock,64-0-10,0189_eid_dnn_64-0-10_clock_10_n04548280_8296.png,n04548280_8296.png,0.0,-2.3992133,-0.6020338,-1.2707978
alexnet_w1_mlp_simclrhn_probe2,1,190,NaN,oven,bottle,64-0-10,0190_eid_dnn_64-0-10_bottle_10_n04591713_5815.png,n04591713_5815.png,0.0,-2.0542223,-0.34947726,-1.2054368
alexnet_w1_mlp_simclrhn_probe2,1,191,NaN,bottle,knife,2-0-10,0191_eid_dnn_2-0-10_knife_10_n03041632_90125.png,n03041632_90125.png,0.0,-0.40303284,0.3213192,-0.5121942
alexnet_w1_mlp_simclrhn_probe2,1,192,NaN,oven,bird,64-0-10,0192_eid_dnn_64-0-10_bird_10_n01534433_16586.png,n01534433_16586.png,0.0,-0.9784866,-0.17868772,-0.5655432
alexnet_w1_mlp_simclrhn_probe2,1,193,NaN,cat,cat,4-0-10,0193_eid_dnn_4-0-10_cat_10_n02123394_2559.png,n02123394_2559.png,1.0,1.3127116,0.07975006,0.8718355
alexnet_w1_mlp_simclrhn_probe2,1,194,NaN,elephant,elephant,4-0-10,0194_eid_dnn_4-0-10_elephant_10_n02504458_5995.png,n02504458_5995.png,1.0,1.5376292,1.0676616,0.3323173
alexnet_w1_mlp_simclrhn_probe2,1,195,NaN,car,car,2-0-10,0195_eid_dnn_2-0-10_car_10_n02814533_211.png,n02814533_211.png,1.0,6.656668,5.347906,0.9254345
alexnet_w1_mlp_simclrhn_probe2,1,196,NaN,chair,chair,1-0-10,0196_eid_dnn_1-0-10_chair_10_n04429376_13328.png,n04429376_13328.png,1.0,1.3540068,0.13228832,0.8638854
alexnet_w1_mlp_simclrhn_probe2,1,197,NaN,bear,keyboard,16-0-10,0197_eid_dnn_16-0-10_keyboard_10_n03085013_24618.png,n03085013_24618.png,0.0,-5.5719395,0.51476276,-4.3039484
alexnet_w1_mlp_simclrhn_probe2,1,198,NaN,bear,oven,4-0-10,0198_eid_dnn_4-0-10_oven_10_n04111531_2186.png,n04111531_2186.png,0.0,0.71490216,0.7291793,-0.010095477
alexnet_w1_mlp_simclrhn_probe2,1,199,NaN,cat,oven,8-0-10,0199_eid_dnn_8-0-10_oven_10_n04111531_114.png,n04111531_114.png,0.0,-0.6210989,0.8353958,-1.0298973
alexnet_w1_mlp_simclrhn_probe2,1,200,NaN,car,car,1-0-10,0200_eid_dnn_1-0-10_car_10_n03100240_1745.png,n03100240_1745.png,1.0,6.987541,4.425947,1.8113205
alexnet_w1_mlp_simclrhn_probe2,1,201,NaN,cat,cat,4-0-10,0201_eid_dnn_4-0-10_cat_10_n02123394_1259.png,n02123394_1259.png,1.0,1.1534308,-0.0351693,0.84046715
alexnet_w1_mlp_simclrhn_probe2,1,202,NaN,cat,oven,4-0-10,0202_eid_dnn_4-0-10_oven_10_n04111531_5801.png,n04111531_5801.png,0.0,-0.52437675,-0.4273204,-0.06862921
alexnet_w1_mlp_simclrhn_probe2,1,203,NaN,oven,airplane,32-0-10,0203_eid_dnn_32-0-10_airplane_10_n02690373_2024.png,n02690373_2024.png,0.0,-2.6506066,-0.2919035,-1.667855
alexnet_w1_mlp_simclrhn_probe2,1,204,NaN,cat,cat,8-0-10,0204_eid_dnn_8-0-10_cat_10_n02123045_12181.png,n02123045_12181.png,1.0,0.78392094,0.5557546,0.16133797
alexnet_w1_mlp_simclrhn_probe2,1,205,NaN,oven,airplane,64-0-10,0205_eid_dnn_64-0-10_airplane_10_n02690373_3313.png,n02690373_3313.png,0.0,-3.7479494,0.13871026,-2.7482834
alexnet_w1_mlp_simclrhn_probe2,1,206,NaN,bird,truck,64-0-10,0206_eid_dnn_64-0-10_truck_10_n04467665_80465.png,n04467665_80465.png,0.0,-2.9699922,-0.523471,-1.7299519
alexnet_w1_mlp_simclrhn_probe2,1,207,NaN,elephant,elephant,2-0-10,0207_eid_dnn_2-0-10_elephant_10_n02504013_8626.png,n02504013_8626.png,1.0,-0.4158138,-1.2617916,0.5981966
alexnet_w1_mlp_simclrhn_probe2,1,208,NaN,oven,car,16-0-10,0208_eid_dnn_16-0-10_car_10_n04285008_7904.png,n04285008_7904.png,0.0,-6.803612,1.1749102,-5.6416674
alexnet_w1_mlp_simclrhn_probe2,1,209,NaN,oven,airplane,8-0-10,0209_eid_dnn_8-0-10_airplane_10_n02690373_6363.png,n02690373_6363.png,0.0,-5.765481,0.025606468,-4.0949173
alexnet_w1_mlp_simclrhn_probe2,1,210,NaN,cat,cat,4-0-10,0210_eid_dnn_4-0-10_cat_10_n02123045_7294.png,n02123045_7294.png,1.0,0.24599253,-0.25225303,0.3523128
alexnet_w1_mlp_simclrhn_probe2,1,211,NaN,oven,airplane,128-0-10,0211_eid_dnn_128-0-10_airplane_10_n02690373_6988.png,n02690373_6988.png,0.0,-4.007001,-0.76626176,-2.2915487
alexnet_w1_mlp_simclrhn_probe2,1,212,NaN,cat,cat,4-0-10,0212_eid_dnn_4-0-10_cat_10_n02125311_25749.png,n02125311_25749.png,1.0,-1.5395006,-1.5990653,0.042118613
alexnet_w1_mlp_simclrhn_probe2,1,213,NaN,oven,bird,64-0-10,0213_eid_dnn_64-0-10_bird_10_n02018207_12980.png,n02018207_12980.png,0.0,-1.6417767,-0.42380852,-0.8612336
alexnet_w1_mlp_simclrhn_probe2,1,214,NaN,bear,cat,32-0-10,0214_eid_dnn_32-0-10_cat_10_n02123394_2814.png,n02123394_2814.png,0.0,-0.20752698,0.30745667,-0.36414844
alexnet_w1_mlp_simclrhn_probe2,1,215,NaN,oven,car,4-0-10,0215_eid_dnn_4-0-10_car_10_n04285008_662.png,n04285008_662.png,0.0,-2.4367254,-0.62624484,-1.2802031
alexnet_w1_mlp_simclrhn_probe2,1,216,NaN,bear,bicycle,2-0-10,0216_eid_dnn_2-0-10_bicycle_10_n03792782_11679.png,n03792782_11679.png,0.0,-1.7423626,0.26320732,-1.4181521
alexnet_w1_mlp_simclrhn_probe2,1,217,NaN,bear,dog,16-0-10,0217_eid_dnn_16-0-10_dog_10_n02093428_17769.png,n02093428_17769.png,0.0,-0.93369037,0.1131661,-0.7402394
alexnet_w1_mlp_simclrhn_probe2,1,218,NaN,oven,dog,64-0-10,0218_eid_dnn_64-0-10_dog_10_n02106030_17418.png,n02106030_17418.png,0.0,-1.1685348,0.291548,-1.0324345
alexnet_w1_mlp_simclrhn_probe2,1,219,NaN,oven,chair,64-0-10,0219_eid_dnn_64-0-10_chair_10_n02791124_7142.png,n02791124_7142.png,0.0,-3.370088,0.5835537,-2.7956471
alexnet_w1_mlp_simclrhn_probe2,1,220,NaN,bear,bear,1-0-10,0220_eid_dnn_1-0-10_bear_10_n02134084_18083.png,n02134084_18083.png,1.0,0.38589668,0.19810225,0.13279071
alexnet_w1_mlp_simclrhn_probe2,1,221,NaN,keyboard,keyboard,2-0-10,0221_eid_dnn_2-0-10_keyboard_10_n03085013_7536.png,n03085013_7536.png,1.0,2.7961054,0.5182003,1.6107221
alexnet_w1_mlp_simclrhn_probe2,1,222,NaN,bear,bird,1-0-10,0222_eid_dnn_1-0-10_bird_10_n01616318_2473.png,n01616318_2473.png,0.0,-1.1675909,0.7477138,-1.3543249
alexnet_w1_mlp_simclrhn_probe2,1,223,NaN,elephant,elephant,1-0-10,0223_eid_dnn_1-0-10_elephant_10_n02504458_5951.png,n02504458_5951.png,1.0,5.5603,1.7927485,2.6640613
alexnet_w1_mlp_simclrhn_probe2,1,224,NaN,airplane,airplane,4-0-10,0224_eid_dnn_4-0-10_airplane_10_n02690373_5164.png,n02690373_5164.png,1.0,1.1055309,0.16200648,0.6671725
alexnet_w1_mlp_simclrhn_probe2,1,225,NaN,elephant,elephant,4-0-10,0225_eid_dnn_4-0-10_elephant_10_n02504013_1865.png,n02504013_1865.png,1.0,1.9121084,0.65332323,0.8900956
alexnet_w1_mlp_simclrhn_probe2,1,226,NaN,knife,knife,1-0-10,0226_eid_dnn_1-0-10_knife_10_n03041632_56454.png,n03041632_56454.png,1.0,1.3325602,-0.32968348,1.1753837
alexnet_w1_mlp_simclrhn_probe2,1,227,NaN,oven,bird,64-0-10,0227_eid_dnn_64-0-10_bird_10_n01824575_5820.png,n01824575_5820.png,0.0,-1.3379521,0.15913713,-1.058602
alexnet_w1_mlp_simclrhn_probe2,1,228,NaN,bear,oven,4-0-10,0228_eid_dnn_4-0-10_oven_10_n04111531_4332.png,n04111531_4332.png,0.0,-0.32718205,-0.16039021,-0.11793964
alexnet_w1_mlp_simclrhn_probe2,1,229,NaN,truck,truck,2-0-10,0229_eid_dnn_2-0-10_truck_10_n04467665_41352.png,n04467665_41352.png,1.0,5.950629,3.1125853,2.0068002
alexnet_w1_mlp_simclrhn_probe2,1,230,NaN,bear,bird,8-0-10,0230_eid_dnn_8-0-10_bird_10_n01514859_5668.png,n01514859_5668.png,0.0,-0.4557257,-0.30940223,-0.103466325
alexnet_w1_mlp_simclrhn_probe2,1,231,NaN,bird,oven,32-0-10,0231_eid_dnn_32-0-10_oven_10_n04111531_4438.png,n04111531_4438.png,0.0,-0.8298005,-0.78853565,-0.029178644
alexnet_w1_mlp_simclrhn_probe2,1,232,NaN,cat,cat,1-0-10,0232_eid_dnn_1-0-10_cat_10_n02123394_6693.png,n02123394_6693.png,1.0,1.6103576,0.042131007,1.1089036
alexnet_w1_mlp_simclrhn_probe2,1,233,NaN,oven,elephant,32-0-10,0233_eid_dnn_32-0-10_elephant_10_n02504458_6302.png,n02504458_6302.png,0.0,-0.48701063,0.019864257,-0.35841465
alexnet_w1_mlp_simclrhn_probe2,1,234,NaN,bear,bottle,16-0-10,0234_eid_dnn_16-0-10_bottle_10_n03937543_2329.png,n03937543_2329.png,0.0,-1.8482794,0.3025903,-1.5208945
alexnet_w1_mlp_simclrhn_probe2,1,235,NaN,bear,elephant,16-0-10,0235_eid_dnn_16-0-10_elephant_10_n02504458_5155.png,n02504458_5155.png,0.0,0.62128127,0.89779943,-0.19552787
alexnet_w1_mlp_simclrhn_probe2,1,236,NaN,oven,bear,1-0-10,0236_eid_dnn_1-0-10_bear_10_n02134084_1694.png,n02134084_1694.png,0.0,-0.476197,0.8792826,-0.95846885
alexnet_w1_mlp_simclrhn_probe2,1,237,NaN,oven,bear,128-0-10,0237_eid_dnn_128-0-10_bear_10_n02133161_1624.png,n02133161_1624.png,0.0,-3.087638,-1.1634662,-1.3605949
alexnet_w1_mlp_simclrhn_probe2,1,238,NaN,oven,bear,64-0-10,0238_eid_dnn_64-0-10_bear_10_n02132136_11027.png,n02132136_11027.png,0.0,-0.021228753,0.21514563,-0.16714193
alexnet_w1_mlp_simclrhn_probe2,1,239,NaN,oven,elephant,64-0-10,0239_eid_dnn_64-0-10_elephant_10_n02504013_24621.png,n02504013_24621.png,0.0,-1.1311526,0.08200338,-0.8578308
alexnet_w1_mlp_simclrhn_probe2,1,240,NaN,oven,knife,16-0-10,0240_eid_dnn_16-0-10_knife_10_n03041632_27134.png,n03041632_27134.png,0.0,-2.562186,0.7897514,-2.3701777
alexnet_w1_mlp_simclrhn_probe2,1,241,NaN,oven,keyboard,32-0-10,0241_eid_dnn_32-0-10_keyboard_10_n03085013_24316.png,n03085013_24316.png,0.0,-2.5429847,0.45508724,-2.119957
alexnet_w1_mlp_simclrhn_probe2,1,242,NaN,cat,cat,2-0-10,0242_eid_dnn_2-0-10_cat_10_n02123159_3026.png,n02123159_3026.png,1.0,2.8235235,-0.9465217,2.6658247
alexnet_w1_mlp_simclrhn_probe2,1,243,NaN,oven,bicycle,128-0-10,0243_eid_dnn_128-0-10_bicycle_10_n03792782_1475.png,n03792782_1475.png,0.0,-2.5070715,-0.70895207,-1.2714624
alexnet_w1_mlp_simclrhn_probe2,1,244,NaN,cat,cat,16-0-10,0244_eid_dnn_16-0-10_cat_10_n02123045_20507.png,n02123045_20507.png,1.0,0.51060504,-0.34055138,0.6018585
alexnet_w1_mlp_simclrhn_probe2,1,245,NaN,oven,boat,64-0-10,0245_eid_dnn_64-0-10_boat_10_n02951358_23759.png,n02951358_23759.png,0.0,-2.3440747,0.0478246,-1.6913283
alexnet_w1_mlp_simclrhn_probe2,1,246,NaN,bear,bear,16-0-10,0246_eid_dnn_16-0-10_bear_10_n02132136_1858.png,n02132136_1858.png,1.0,0.7262164,0.015843546,0.50230944
alexnet_w1_mlp_simclrhn_probe2,1,247,NaN,oven,boat,128-0-10,0247_eid_dnn_128-0-10_boat_10_n02951358_6465.png,n02951358_6465.png,0.0,-3.9661663,-0.38935578,-2.529187
alexnet_w1_mlp_simclrhn_probe2,1,248,NaN,bird,airplane,128-0-10,0248_eid_dnn_128-0-10_airplane_10_n02690373_6223.png,n02690373_6223.png,0.0,-4.6912174,-0.5478831,-2.92978
alexnet_w1_mlp_simclrhn_probe2,1,249,NaN,oven,boat,128-0-10,0249_eid_dnn_128-0-10_boat_10_n03344393_2412.png,n03344393_2412.png,0.0,-3.2591655,-0.03765954,-2.2779486
alexnet_w1_mlp_simclrhn_probe2,1,250,NaN,cat,knife,8-0-10,0250_eid_dnn_8-0-10_knife_10_n03041632_6446.png,n03041632_6446.png,0.0,-1.4136662,0.474202,-1.3349245
alexnet_w1_mlp_simclrhn_probe2,1,251,NaN,oven,bottle,64-0-10,0251_eid_dnn_64-0-10_bottle_10_n04591713_7940.png,n04591713_7940.png,0.0,-2.4926674,-0.5870162,-1.3474989
alexnet_w1_mlp_simclrhn_probe2,1,252,NaN,cat,cat,4-0-10,0252_eid_dnn_4-0-10_cat_10_n02124075_13568.png,n02124075_13568.png,1.0,2.3283687,0.18662737,1.5144398
alexnet_w1_mlp_simclrhn_probe2,1,253,NaN,boat,boat,2-0-10,0253_eid_dnn_2-0-10_boat_10_n03662601_2171.png,n03662601_2171.png,1.0,0.66075677,0.42720348,0.16514711
alexnet_w1_mlp_simclrhn_probe2,1,254,NaN,elephant,elephant,1-0-10,0254_eid_dnn_1-0-10_elephant_10_n02504458_415.png,n02504458_415.png,1.0,1.3900584,0.58742064,0.5675506
alexnet_w1_mlp_simclrhn_probe2,1,255,NaN,oven,car,16-0-10,0255_eid_dnn_16-0-10_car_10_n03100240_3386.png,n03100240_3386.png,0.0,-5.070847,0.42152324,-3.8836923
alexnet_w1_mlp_simclrhn_probe2,1,256,NaN,cat,bird,16-0-10,0256_eid_dnn_16-0-10_bird_10_n02056570_6633.png,n02056570_6633.png,0.0,-2.1203833,-0.13144396,-1.4063925
alexnet_w1_mlp_simclrhn_probe2,1,257,NaN,oven,bottle,32-0-10,0257_eid_dnn_32-0-10_bottle_10_n02823428_4232.png,n02823428_4232.png,0.0,-1.2982131,0.20430505,-1.0624408
alexnet_w1_mlp_simclrhn_probe2,1,258,NaN,oven,boat,128-0-10,0258_eid_dnn_128-0-10_boat_10_n04273569_2396.png,n04273569_2396.png,0.0,-3.4570203,-0.57277477,-2.0394695
alexnet_w1_mlp_simclrhn_probe2,1,259,NaN,knife,knife,1-0-10,0259_eid_dnn_1-0-10_knife_10_n03041632_38996.png,n03041632_38996.png,1.0,1.3076386,-0.3501746,1.1722511
alexnet_w1_mlp_simclrhn_probe2,1,260,NaN,cat,oven,8-0-10,0260_eid_dnn_8-0-10_oven_10_n04111531_10420.png,n04111531_10420.png,0.0,0.10221766,0.67074585,-0.40201014
alexnet_w1_mlp_simclrhn_probe2,1,261,NaN,oven,dog,128-0-10,0261_eid_dnn_128-0-10_dog_10_n02094114_2394.png,n02094114_2394.png,0.0,-3.2240472,0.046829663,-2.3128593
alexnet_w1_mlp_simclrhn_probe2,1,262,NaN,oven,elephant,128-0-10,0262_eid_dnn_128-0-10_elephant_10_n02504013_4247.png,n02504013_4247.png,0.0,-1.4768815,0.09065904,-1.1084186
alexnet_w1_mlp_simclrhn_probe2,1,263,NaN,oven,chair,32-0-10,0263_eid_dnn_32-0-10_chair_10_n03376595_8137.png,n03376595_8137.png,0.0,-2.0560117,-0.1917032,-1.3182652
alexnet_w1_mlp_simclrhn_probe2,1,264,NaN,oven,airplane,128-0-10,0264_eid_dnn_128-0-10_airplane_10_n02690373_8524.png,n02690373_8524.png,0.0,-5.695486,0.17345884,-4.149971
alexnet_w1_mlp_simclrhn_probe2,1,265,NaN,oven,car,64-0-10,0265_eid_dnn_64-0-10_car_10_n03100240_18410.png,n03100240_18410.png,0.0,-3.9751217,-0.37419623,-2.546239
alexnet_w1_mlp_simclrhn_probe2,1,266,NaN,oven,clock,64-0-10,0266_eid_dnn_64-0-10_clock_10_n04548280_2588.png,n04548280_2588.png,0.0,-2.2541459,0.341745,-1.835572
alexnet_w1_mlp_simclrhn_probe2,1,267,NaN,oven,keyboard,32-0-10,0267_eid_dnn_32-0-10_keyboard_10_n03085013_24030.png,n03085013_24030.png,0.0,-5.623436,-0.72828436,-3.461395
alexnet_w1_mlp_simclrhn_probe2,1,268,NaN,clock,clock,2-0-10,0268_eid_dnn_2-0-10_clock_10_n03196217_6375.png,n03196217_6375.png,1.0,1.5971752,1.0062637,0.41783753
alexnet_w1_mlp_simclrhn_probe2,1,269,NaN,oven,airplane,32-0-10,0269_eid_dnn_32-0-10_airplane_10_n02690373_4150.png,n02690373_4150.png,0.0,-4.479843,0.31032252,-3.3871589
alexnet_w1_mlp_simclrhn_probe2,1,270,NaN,cat,dog,4-0-10,0270_eid_dnn_4-0-10_dog_10_n02086646_6567.png,n02086646_6567.png,0.0,-0.8286909,0.038957793,-0.61352026
alexnet_w1_mlp_simclrhn_probe2,1,271,NaN,oven,clock,64-0-10,0271_eid_dnn_64-0-10_clock_10_n03196217_775.png,n03196217_775.png,0.0,-3.7209415,0.08371952,-2.6903017
alexnet_w1_mlp_simclrhn_probe2,1,272,NaN,truck,car,1-0-10,0272_eid_dnn_1-0-10_car_10_n02814533_57353.png,n02814533_57353.png,0.0,8.203203,9.065224,-0.6095405
alexnet_w1_mlp_simclrhn_probe2,1,273,NaN,oven,bottle,16-0-10,0273_eid_dnn_16-0-10_bottle_10_n04560804_183.png,n04560804_183.png,0.0,-1.9718522,0.27306816,-1.5873984
alexnet_w1_mlp_simclrhn_probe2,1,274,NaN,car,car,2-0-10,0274_eid_dnn_2-0-10_car_10_n04285008_10631.png,n04285008_10631.png,1.0,4.386762,0.35106078,2.8536718
alexnet_w1_mlp_simclrhn_probe2,1,275,NaN,bear,bear,2-0-10,0275_eid_dnn_2-0-10_bear_10_n02132136_10057.png,n02132136_10057.png,1.0,6.258445,3.6835804,1.8207041
alexnet_w1_mlp_simclrhn_probe2,1,276,NaN,oven,boat,128-0-10,0276_eid_dnn_128-0-10_boat_10_n04273569_4605.png,n04273569_4605.png,0.0,-4.3898344,-0.49150032,-2.7565384
alexnet_w1_mlp_simclrhn_probe2,1,277,NaN,oven,cat,64-0-10,0277_eid_dnn_64-0-10_cat_10_n02123597_12711.png,n02123597_12711.png,0.0,-1.7213578,-0.20888431,-1.0694803
alexnet_w1_mlp_simclrhn_probe2,1,278,NaN,bottle,bottle,1-0-10,0278_eid_dnn_1-0-10_bottle_10_n04560804_5610.png,n04560804_5610.png,1.0,4.3943963,-2.1523209,4.629228
alexnet_w1_mlp_simclrhn_probe2,1,279,NaN,bear,clock,32-0-10,0279_eid_dnn_32-0-10_clock_10_n04548280_8412.png,n04548280_8412.png,0.0,-3.9934518,0.40284237,-3.1086495
alexnet_w1_mlp_simclrhn_probe2,1,280,NaN,cat,cat,2-0-10,0280_eid_dnn_2-0-10_cat_10_n02123597_13834.png,n02123597_13834.png,1.0,0.73629504,-0.22232103,0.6778439
alexnet_w1_mlp_simclrhn_probe2,1,281,NaN,bird,dog,128-0-10,0281_eid_dnn_128-0-10_dog_10_n02091831_538.png,n02091831_538.png,0.0,-1.4586083,-0.6342226,-0.5829287
alexnet_w1_mlp_simclrhn_probe2,1,282,NaN,bicycle,bicycle,32-0-10,0282_eid_dnn_32-0-10_bicycle_10_n03792782_10437.png,n03792782_10437.png,1.0,-0.6705419,-0.73417103,0.044992603
alexnet_w1_mlp_simclrhn_probe2,1,283,NaN,bear,bear,2-0-10,0283_eid_dnn_2-0-10_bear_10_n02132136_2372.png,n02132136_2372.png,1.0,1.9444685,0.6067805,0.9458882
alexnet_w1_mlp_simclrhn_probe2,1,284,NaN,bicycle,bicycle,128-0-10,0284_eid_dnn_128-0-10_bicycle_10_n03792782_4540.png,n03792782_4540.png,1.0,-1.0280545,-1.220151,0.13583273
alexnet_w1_mlp_simclrhn_probe2,1,285,NaN,elephant,elephant,2-0-10,0285_eid_dnn_2-0-10_elephant_10_n02504013_10152.png,n02504013_10152.png,1.0,0.82446253,0.30113477,0.3700486
alexnet_w1_mlp_simclrhn_probe2,1,286,NaN,oven,boat,64-0-10,0286_eid_dnn_64-0-10_boat_10_n02951358_7603.png,n02951358_7603.png,0.0,-2.6452384,0.046548024,-1.9033805
alexnet_w1_mlp_simclrhn_probe2,1,287,NaN,bear,bear,2-0-10,0287_eid_dnn_2-0-10_bear_10_n02133161_9371.png,n02133161_9371.png,1.0,1.3553185,0.3297247,0.7252044
alexnet_w1_mlp_simclrhn_probe2,1,288,NaN,bear,truck,8-0-10,0288_eid_dnn_8-0-10_truck_10_n04467665_69892.png,n04467665_69892.png,0.0,-1.6425264,0.6083206,-1.5915891
alexnet_w1_mlp_simclrhn_probe2,1,289,NaN,knife,knife,1-0-10,0289_eid_dnn_1-0-10_knife_10_n03041632_19275.png,n03041632_19275.png,1.0,-0.6698138,-1.433046,0.5396867
alexnet_w1_mlp_simclrhn_probe2,1,290,NaN,oven,keyboard,16-0-10,0290_eid_dnn_16-0-10_keyboard_10_n04505470_9446.png,n04505470_9446.png,0.0,-4.6073675,0.24039839,-3.4278882
alexnet_w1_mlp_simclrhn_probe2,1,291,NaN,elephant,elephant,1-0-10,0291_eid_dnn_1-0-10_elephant_10_n02504013_9141.png,n02504013_9141.png,1.0,1.555367,-0.37603086,1.3657045
alexnet_w1_mlp_simclrhn_probe2,1,292,NaN,oven,bird,128-0-10,0292_eid_dnn_128-0-10_bird_10_n02056570_8553.png,n02056570_8553.png,0.0,-1.9479605,-0.004306838,-1.3743707
alexnet_w1_mlp_simclrhn_probe2,1,293,NaN,car,car,1-0-10,0293_eid_dnn_1-0-10_car_10_n03100240_9171.png,n03100240_9171.png,1.0,5.032274,3.2569056,1.2553749
alexnet_w1_mlp_simclrhn_probe2,1,294,NaN,dog,dog,8-0-10,0294_eid_dnn_8-0-10_dog_10_n02102177_1533.png,n02102177_1533.png,1.0,0.5416937,0.09925934,0.31284833
alexnet_w1_mlp_simclrhn_probe2,1,295,NaN,oven,cat,64-0-10,0295_eid_dnn_64-0-10_cat_10_n02124075_12464.png,n02124075_12464.png,0.0,-1.3406543,0.07116726,-0.99830854
alexnet_w1_mlp_simclrhn_probe2,1,296,NaN,bottle,chair,4-0-10,0296_eid_dnn_4-0-10_chair_10_n04429376_33792.png,n04429376_33792.png,0.0,-1.6366575,0.8436534,-1.7538447
alexnet_w1_mlp_simclrhn_probe2,1,297,NaN,oven,bear,128-0-10,0297_eid_dnn_128-0-10_bear_10_n02133161_3258.png,n02133161_3258.png,0.0,-3.655618,-0.9803008,-1.8917351
alexnet_w1_mlp_simclrhn_probe2,1,298,NaN,elephant,dog,4-0-10,0298_eid_dnn_4-0-10_dog_10_n02097130_1442.png,n02097130_1442.png,0.0,-0.28792283,1.6628901,-1.379433
alexnet_w1_mlp_simclrhn_probe2,1,299,NaN,oven,chair,4-0-10,0299_eid_dnn_4-0-10_chair_10_n02791124_8970.png,n02791124_8970.png,0.0,-1.5103215,-0.019324362,-1.0542941
alexnet_w1_mlp_simclrhn_probe2,1,300,NaN,bear,car,8-0-10,0300_eid_dnn_8-0-10_car_10_n04285008_8545.png,n04285008_8545.png,0.0,-7.3727508,0.27911714,-5.410688
alexnet_w1_mlp_simclrhn_probe2,1,301,NaN,truck,truck,1-0-10,0301_eid_dnn_1-0-10_truck_10_n03417042_2204.png,n03417042_2204.png,1.0,2.4459076,0.118400715,1.6457958
alexnet_w1_mlp_simclrhn_probe2,1,302,NaN,elephant,bear,2-0-10,0302_eid_dnn_2-0-10_bear_10_n02133161_15593.png,n02133161_15593.png,0.0,1.4458337,1.733216,-0.20321003
alexnet_w1_mlp_simclrhn_probe2,1,303,NaN,knife,clock,2-0-10,0303_eid_dnn_2-0-10_clock_10_n04548280_5845.png,n04548280_5845.png,0.0,-1.8090454,-0.5892798,-0.8625046
alexnet_w1_mlp_simclrhn_probe2,1,304,NaN,cat,knife,4-0-10,0304_eid_dnn_4-0-10_knife_10_n03041632_4975.png,n03041632_4975.png,0.0,-1.0400608,-0.17976467,-0.6083212
alexnet_w1_mlp_simclrhn_probe2,1,305,NaN,oven,clock,32-0-10,0305_eid_dnn_32-0-10_clock_10_n03196217_4849.png,n03196217_4849.png,0.0,-1.3709626,-0.12468744,-0.88124967
alexnet_w1_mlp_simclrhn_probe2,1,306,NaN,elephant,bicycle,2-0-10,0306_eid_dnn_2-0-10_bicycle_10_n03792782_15752.png,n03792782_15752.png,0.0,-0.13784987,0.42108554,-0.39522702
alexnet_w1_mlp_simclrhn_probe2,1,307,NaN,cat,bicycle,16-0-10,0307_eid_dnn_16-0-10_bicycle_10_n02835271_29741.png,n02835271_29741.png,0.0,-2.7809722,-0.43960023,-1.6556001
alexnet_w1_mlp_simclrhn_probe2,1,308,NaN,oven,chair,4-0-10,0308_eid_dnn_4-0-10_chair_10_n04099969_16619.png,n04099969_16619.png,0.0,-0.7985707,0.16650684,-0.68241286
alexnet_w1_mlp_simclrhn_probe2,1,309,NaN,keyboard,keyboard,4-0-10,0309_eid_dnn_4-0-10_keyboard_10_n04505470_4552.png,n04505470_4552.png,1.0,0.9482859,0.019892156,0.6564735
alexnet_w1_mlp_simclrhn_probe2,1,310,NaN,bear,boat,8-0-10,0310_eid_dnn_8-0-10_boat_10_n02951358_13144.png,n02951358_13144.png,0.0,-1.7474957,0.66065615,-1.7028205
alexnet_w1_mlp_simclrhn_probe2,1,311,NaN,bear,bird,32-0-10,0311_eid_dnn_32-0-10_bird_10_n01797886_14611.png,n01797886_14611.png,0.0,-0.6372188,-0.49465513,-0.10080772
alexnet_w1_mlp_simclrhn_probe2,1,312,NaN,knife,knife,1-0-10,0312_eid_dnn_1-0-10_knife_10_n03041632_3326.png,n03041632_3326.png,1.0,0.5660604,-1.2185329,1.261898
alexnet_w1_mlp_simclrhn_probe2,1,313,NaN,bear,elephant,8-0-10,0313_eid_dnn_8-0-10_elephant_10_n02504013_5829.png,n02504013_5829.png,0.0,0.84701574,1.2029309,-0.25167006
alexnet_w1_mlp_simclrhn_probe2,1,314,NaN,oven,dog,16-0-10,0314_eid_dnn_16-0-10_dog_10_n02088094_2292.png,n02088094_2292.png,0.0,-1.1268378,0.2515161,-0.97464347
alexnet_w1_mlp_simclrhn_probe2,1,315,NaN,oven,oven,8-0-10,0315_eid_dnn_8-0-10_oven_10_n04111531_4944.png,n04111531_4944.png,1.0,0.7092482,0.3109406,0.281646
alexnet_w1_mlp_simclrhn_probe2,1,316,NaN,oven,oven,32-0-10,0316_eid_dnn_32-0-10_oven_10_n04111531_669.png,n04111531_669.png,1.0,0.002134949,-1.017941,0.7213026
alexnet_w1_mlp_simclrhn_probe2,1,317,NaN,oven,car,64-0-10,0317_eid_dnn_64-0-10_car_10_n02814533_6716.png,n02814533_6716.png,0.0,-6.935042,0.8959499,-5.5373473
alexnet_w1_mlp_simclrhn_probe2,1,318,NaN,oven,bear,32-0-10,0318_eid_dnn_32-0-10_bear_10_n02132136_26438.png,n02132136_26438.png,0.0,-0.34603578,0.1731237,-0.3671012
alexnet_w1_mlp_simclrhn_probe2,1,319,NaN,oven,bottle,4-0-10,0319_eid_dnn_4-0-10_bottle_10_n03983396_3027.png,n03983396_3027.png,0.0,-1.4628413,-0.48523644,-0.69127107
alexnet_w1_mlp_simclrhn_probe2,1,320,NaN,elephant,elephant,2-0-10,0320_eid_dnn_2-0-10_elephant_10_n02504013_9299.png,n02504013_9299.png,1.0,7.902091,2.5181623,3.8070126
alexnet_w1_mlp_simclrhn_probe2,1,321,NaN,bottle,knife,2-0-10,0321_eid_dnn_2-0-10_knife_10_n03041632_13846.png,n03041632_13846.png,0.0,-0.50925136,-0.3844426,-0.08825312
alexnet_w1_mlp_simclrhn_probe2,1,322,NaN,oven,airplane,64-0-10,0322_eid_dnn_64-0-10_airplane_10_n02690373_16250.png,n02690373_16250.png,0.0,-3.5182598,-0.25693893,-2.306102
alexnet_w1_mlp_simclrhn_probe2,1,323,NaN,bird,boat,64-0-10,0323_eid_dnn_64-0-10_boat_10_n03662601_13696.png,n03662601_13696.png,0.0,-4.0225644,-0.7142405,-2.3393383
alexnet_w1_mlp_simclrhn_probe2,1,324,NaN,cat,cat,1-0-10,0324_eid_dnn_1-0-10_cat_10_n02123597_5692.png,n02123597_5692.png,1.0,1.3163198,0.5246703,0.5597808
alexnet_w1_mlp_simclrhn_probe2,1,325,NaN,bear,clock,8-0-10,0325_eid_dnn_8-0-10_clock_10_n02708093_3171.png,n02708093_3171.png,0.0,-3.8983629,0.20266323,-2.8998635
alexnet_w1_mlp_simclrhn_probe2,1,326,NaN,oven,keyboard,128-0-10,0326_eid_dnn_128-0-10_keyboard_10_n04505470_4902.png,n04505470_4902.png,0.0,-3.3199856,-0.13429901,-2.2526207
alexnet_w1_mlp_simclrhn_probe2,1,327,NaN,cat,dog,2-0-10,0327_eid_dnn_2-0-10_dog_10_n02113624_1170.png,n02113624_1170.png,0.0,-0.28927398,0.71553487,-0.7105072
alexnet_w1_mlp_simclrhn_probe2,1,328,NaN,clock,clock,2-0-10,0328_eid_dnn_2-0-10_clock_10_n03196217_1272.png,n03196217_1272.png,1.0,1.3221501,0.74334264,0.4092787
alexnet_w1_mlp_simclrhn_probe2,1,329,NaN,oven,cat,128-0-10,0329_eid_dnn_128-0-10_cat_10_n02123394_8946.png,n02123394_8946.png,0.0,-0.79598814,-0.017736293,-0.55030715
alexnet_w1_mlp_simclrhn_probe2,1,330,NaN,cat,car,8-0-10,0330_eid_dnn_8-0-10_car_10_n03100240_7134.png,n03100240_7134.png,0.0,-3.5867882,-0.35670507,-2.2840135
alexnet_w1_mlp_simclrhn_probe2,1,331,NaN,oven,bicycle,4-0-10,0331_eid_dnn_4-0-10_bicycle_10_n03792782_16034.png,n03792782_16034.png,0.0,-0.6829367,-0.51390713,-0.119521976
alexnet_w1_mlp_simclrhn_probe2,1,332,NaN,bear,dog,8-0-10,0332_eid_dnn_8-0-10_dog_10_n02104029_5465.png,n02104029_5465.png,0.0,-0.38894296,1.0217149,-0.99748576
alexnet_w1_mlp_simclrhn_probe2,1,333,NaN,keyboard,keyboard,4-0-10,0333_eid_dnn_4-0-10_keyboard_10_n04505470_5011.png,n04505470_5011.png,1.0,3.0037289,1.9087868,0.774241
alexnet_w1_mlp_simclrhn_probe2,1,334,NaN,bear,bird,8-0-10,0334_eid_dnn_8-0-10_bird_10_n02009912_27132.png,n02009912_27132.png,0.0,-0.79269964,0.42266455,-0.8593923
alexnet_w1_mlp_simclrhn_probe2,1,335,NaN,oven,knife,64-0-10,0335_eid_dnn_64-0-10_knife_10_n03041632_3171.png,n03041632_3171.png,0.0,-1.2146926,-0.31137612,-0.63874125
alexnet_w1_mlp_simclrhn_probe2,1,336,NaN,oven,bear,32-0-10,0336_eid_dnn_32-0-10_bear_10_n02134084_21170.png,n02134084_21170.png,0.0,-0.34505385,0.4619528,-0.5706399
alexnet_w1_mlp_simclrhn_probe2,1,337,NaN,cat,dog,4-0-10,0337_eid_dnn_4-0-10_dog_10_n02086079_29044.png,n02086079_29044.png,0.0,-0.5326412,-0.23982845,-0.20704985
alexnet_w1_mlp_simclrhn_probe2,1,338,NaN,cat,cat,4-0-10,0338_eid_dnn_4-0-10_cat_10_n02124075_8465.png,n02124075_8465.png,1.0,0.85634977,-0.09454732,0.6723858
alexnet_w1_mlp_simclrhn_probe2,1,339,NaN,oven,bird,128-0-10,0339_eid_dnn_128-0-10_bird_10_n01855032_982.png,n01855032_982.png,0.0,-1.1123362,-0.22751299,-0.6256645
alexnet_w1_mlp_simclrhn_probe2,1,340,NaN,oven,truck,32-0-10,0340_eid_dnn_32-0-10_truck_10_n03417042_6373.png,n03417042_6373.png,0.0,-3.0672548,-0.08229315,-2.1106865
alexnet_w1_mlp_simclrhn_probe2,1,341,NaN,bear,airplane,16-0-10,0341_eid_dnn_16-0-10_airplane_10_n02690373_9959.png,n02690373_9959.png,0.0,-5.3031797,0.15227343,-3.857588
alexnet_w1_mlp_simclrhn_probe2,1,342,NaN,oven,clock,32-0-10,0342_eid_dnn_32-0-10_clock_10_n04548280_2260.png,n04548280_2260.png,0.0,-4.1814785,0.18532743,-3.087798
alexnet_w1_mlp_simclrhn_probe2,1,343,NaN,cat,bottle,16-0-10,0343_eid_dnn_16-0-10_bottle_10_n03983396_5281.png,n03983396_5281.png,0.0,-1.2771587,-0.059851706,-0.8607661
alexnet_w1_mlp_simclrhn_probe2,1,344,NaN,cat,cat,4-0-10,0344_eid_dnn_4-0-10_cat_10_n02123159_1113.png,n02123159_1113.png,1.0,2.2591743,0.24520183,1.4240936
alexnet_w1_mlp_simclrhn_probe2,1,345,NaN,oven,keyboard,64-0-10,0345_eid_dnn_64-0-10_keyboard_10_n03085013_20460.png,n03085013_20460.png,0.0,-2.7038798,-0.1376715,-1.8145834
alexnet_w1_mlp_simclrhn_probe2,1,346,NaN,bear,clock,8-0-10,0346_eid_dnn_8-0-10_clock_10_n03196217_884.png,n03196217_884.png,0.0,-4.32258,0.21332559,-3.2073696
alexnet_w1_mlp_simclrhn_probe2,1,347,NaN,cat,clock,8-0-10,0347_eid_dnn_8-0-10_clock_10_n03196217_6257.png,n03196217_6257.png,0.0,-5.8953743,0.021141129,-4.183608
alexnet_w1_mlp_simclrhn_probe2,1,348,NaN,oven,dog,32-0-10,0348_eid_dnn_32-0-10_dog_10_n02113624_2109.png,n02113624_2109.png,0.0,-1.2164605,0.7343645,-1.3794416
alexnet_w1_mlp_simclrhn_probe2,1,349,NaN,keyboard,keyboard,1-0-10,0349_eid_dnn_1-0-10_keyboard_10_n03085013_20416.png,n03085013_20416.png,1.0,2.9977033,1.1048324,1.3384619
alexnet_w1_mlp_simclrhn_probe2,1,350,NaN,bird,bird,2-0-10,0350_eid_dnn_2-0-10_bird_10_n01820546_4609.png,n01820546_4609.png,1.0,0.5626735,-0.51798505,0.764141
alexnet_w1_mlp_simclrhn_probe2,1,351,NaN,oven,cat,64-0-10,0351_eid_dnn_64-0-10_cat_10_n02125311_47792.png,n02125311_47792.png,0.0,-1.4701953,-0.052548096,-1.002428
alexnet_w1_mlp_simclrhn_probe2,1,352,NaN,bear,boat,16-0-10,0352_eid_dnn_16-0-10_boat_10_n04612504_1491.png,n04612504_1491.png,0.0,-2.4588642,-0.3390867,-1.498909
alexnet_w1_mlp_simclrhn_probe2,1,353,NaN,bear,truck,16-0-10,0353_eid_dnn_16-0-10_truck_10_n03417042_910.png,n03417042_910.png,0.0,-4.553779,0.8676725,-3.8335452
alexnet_w1_mlp_simclrhn_probe2,1,354,NaN,oven,airplane,64-0-10,0354_eid_dnn_64-0-10_airplane_10_n02690373_2038.png,n02690373_2038.png,0.0,-3.247378,0.17712305,-2.421488
alexnet_w1_mlp_simclrhn_probe2,1,355,NaN,cat,cat,2-0-10,0355_eid_dnn_2-0-10_cat_10_n02123394_8164.png,n02123394_8164.png,1.0,1.8561383,0.4595959,0.98750466
alexnet_w1_mlp_simclrhn_probe2,1,356,NaN,oven,oven,2-0-10,0356_eid_dnn_2-0-10_oven_10_n04111531_22097.png,n04111531_22097.png,1.0,3.4915404,0.29042724,2.2635288
alexnet_w1_mlp_simclrhn_probe2,1,357,NaN,oven,bear,128-0-10,0357_eid_dnn_128-0-10_bear_10_n02134418_278.png,n02134418_278.png,0.0,-2.372635,-0.70540094,-1.1789124
alexnet_w1_mlp_simclrhn_probe2,1,358,NaN,bird,bird,4-0-10,0358_eid_dnn_4-0-10_bird_10_n01592084_9109.png,n01592084_9109.png,1.0,0.93287885,-1.9951938,2.07046
alexnet_w1_mlp_simclrhn_probe2,1,359,NaN,oven,clock,32-0-10,0359_eid_dnn_32-0-10_clock_10_n03196217_3695.png,n03196217_3695.png,0.0,-2.4871876,-0.2760805,-1.563489
alexnet_w1_mlp_simclrhn_probe2,1,360,NaN,oven,elephant,128-0-10,0360_eid_dnn_128-0-10_elephant_10_n02504458_8939.png,n02504458_8939.png,0.0,-1.7059953,0.16465998,-1.3227531
alexnet_w1_mlp_simclrhn_probe2,1,361,NaN,airplane,elephant,2-0-10,0361_eid_dnn_2-0-10_elephant_10_n02504013_7926.png,n02504013_7926.png,0.0,-0.164055,0.8403266,-0.7102051
alexnet_w1_mlp_simclrhn_probe2,1,362,NaN,elephant,bear,4-0-10,0362_eid_dnn_4-0-10_bear_10_n02133161_11816.png,n02133161_11816.png,0.0,0.42279077,0.88491994,-0.3267747
alexnet_w1_mlp_simclrhn_probe2,1,363,NaN,bird,bird,2-0-10,0363_eid_dnn_2-0-10_bird_10_n02056570_18300.png,n02056570_18300.png,1.0,-0.80155224,-0.91711813,0.08171743
alexnet_w1_mlp_simclrhn_probe2,1,364,NaN,boat,chair,2-0-10,0364_eid_dnn_2-0-10_chair_10_n02791124_7063.png,n02791124_7063.png,0.0,-2.9968057,0.0751646,-2.172211
alexnet_w1_mlp_simclrhn_probe2,1,365,NaN,cat,chair,8-0-10,0365_eid_dnn_8-0-10_chair_10_n03376595_8289.png,n03376595_8289.png,0.0,-2.1852973,-0.6959176,-1.0531504
alexnet_w1_mlp_simclrhn_probe2,1,366,NaN,boat,airplane,4-0-10,0366_eid_dnn_4-0-10_airplane_10_n02690373_4434.png,n02690373_4434.png,0.0,-0.32859007,-0.24349077,-0.06017429
alexnet_w1_mlp_simclrhn_probe2,1,367,NaN,truck,truck,1-0-10,0367_eid_dnn_1-0-10_truck_10_n03417042_8953.png,n03417042_8953.png,1.0,7.7718134,4.690044,2.17914
alexnet_w1_mlp_simclrhn_probe2,1,368,NaN,bear,bear,64-0-10,0368_eid_dnn_64-0-10_bear_10_n02132136_699.png,n02132136_699.png,1.0,-0.33847076,-0.49205092,0.10859758
alexnet_w1_mlp_simclrhn_probe2,1,369,NaN,cat,knife,8-0-10,0369_eid_dnn_8-0-10_knife_10_n03041632_20517.png,n03041632_20517.png,0.0,-1.6511371,-0.8465492,-0.56892955
alexnet_w1_mlp_simclrhn_probe2,1,370,NaN,oven,bottle,32-0-10,0370_eid_dnn_32-0-10_bottle_10_n03983396_1910.png,n03983396_1910.png,0.0,-2.2012508,-0.37984052,-1.2879316
alexnet_w1_mlp_simclrhn_probe2,1,371,NaN,oven,oven,8-0-10,0371_eid_dnn_8-0-10_oven_10_n04111531_16198.png,n04111531_16198.png,1.0,0.6321417,-0.07997255,0.5035408
alexnet_w1_mlp_simclrhn_probe2,1,372,NaN,oven,elephant,64-0-10,0372_eid_dnn_64-0-10_elephant_10_n02504013_13427.png,n02504013_13427.png,0.0,-1.1704235,0.40770012,-1.115902
alexnet_w1_mlp_simclrhn_probe2,1,373,NaN,oven,airplane,16-0-10,0373_eid_dnn_16-0-10_airplane_10_n02690373_1075.png,n02690373_1075.png,0.0,-1.8159442,-0.03188975,-1.2615169
alexnet_w1_mlp_simclrhn_probe2,1,374,NaN,bear,car,64-0-10,0374_eid_dnn_64-0-10_car_10_n03100240_5527.png,n03100240_5527.png,0.0,-5.8774323,-0.69537306,-3.6642692
alexnet_w1_mlp_simclrhn_probe2,1,375,NaN,bear,bear,1-0-10,0375_eid_dnn_1-0-10_bear_10_n02132136_4632.png,n02132136_4632.png,1.0,2.8664875,-0.12717605,2.11684
alexnet_w1_mlp_simclrhn_probe2,1,376,NaN,boat,boat,1-0-10,0376_eid_dnn_1-0-10_boat_10_n04273569_6158.png,n04273569_6158.png,1.0,2.297866,-1.2664132,2.5203261
alexnet_w1_mlp_simclrhn_probe2,1,377,NaN,oven,knife,32-0-10,0377_eid_dnn_32-0-10_knife_10_n03041632_18141.png,n03041632_18141.png,0.0,-2.0038354,0.8400612,-2.0109386
alexnet_w1_mlp_simclrhn_probe2,1,378,NaN,bear,bear,16-0-10,0378_eid_dnn_16-0-10_bear_10_n02132136_6378.png,n02132136_6378.png,1.0,0.14394127,0.014078416,0.0918269
alexnet_w1_mlp_simclrhn_probe2,1,379,NaN,elephant,elephant,2-0-10,0379_eid_dnn_2-0-10_elephant_10_n02504458_5095.png,n02504458_5095.png,1.0,4.363223,0.21616825,2.9324105
alexnet_w1_mlp_simclrhn_probe2,1,380,NaN,elephant,elephant,4-0-10,0380_eid_dnn_4-0-10_elephant_10_n02504013_10582.png,n02504013_10582.png,1.0,3.969097,3.2818468,0.48595923
alexnet_w1_mlp_simclrhn_probe2,1,381,NaN,bear,chair,16-0-10,0381_eid_dnn_16-0-10_chair_10_n04099969_28139.png,n04099969_28139.png,0.0,-5.138013,0.25853765,-3.8159375
alexnet_w1_mlp_simclrhn_probe2,1,382,NaN,keyboard,keyboard,2-0-10,0382_eid_dnn_2-0-10_keyboard_10_n04505470_279.png,n04505470_279.png,1.0,9.260451,3.009357,4.4201913
alexnet_w1_mlp_simclrhn_probe2,1,383,NaN,cat,car,8-0-10,0383_eid_dnn_8-0-10_car_10_n02814533_79696.png,n02814533_79696.png,0.0,-7.1034074,0.7194512,-5.5315967
alexnet_w1_mlp_simclrhn_probe2,1,384,NaN,oven,cat,64-0-10,0384_eid_dnn_64-0-10_cat_10_n02124075_7984.png,n02124075_7984.png,0.0,-1.2686037,-0.057821363,-0.85615236
alexnet_w1_mlp_simclrhn_probe2,1,385,NaN,oven,car,4-0-10,0385_eid_dnn_4-0-10_car_10_n02814533_27327.png,n02814533_27327.png,0.0,-2.0372906,0.50328624,-1.7964592
alexnet_w1_mlp_simclrhn_probe2,1,386,NaN,cat,bear,4-0-10,0386_eid_dnn_4-0-10_bear_10_n02134084_967.png,n02134084_967.png,0.0,0.6970357,0.9621789,-0.18748456
alexnet_w1_mlp_simclrhn_probe2,1,387,NaN,oven,bear,64-0-10,0387_eid_dnn_64-0-10_bear_10_n02132136_949.png,n02132136_949.png,0.0,-1.1098597,0.06821523,-0.8330248
alexnet_w1_mlp_simclrhn_probe2,1,388,NaN,bear,bicycle,16-0-10,0388_eid_dnn_16-0-10_bicycle_10_n03792782_2905.png,n03792782_2905.png,0.0,-2.1898417,0.47322443,-1.8830721
alexnet_w1_mlp_simclrhn_probe2,1,389,NaN,oven,bicycle,8-0-10,0389_eid_dnn_8-0-10_bicycle_10_n03792782_34550.png,n03792782_34550.png,0.0,-3.8289685,0.27088523,-2.8990343
alexnet_w1_mlp_simclrhn_probe2,1,390,NaN,bear,bear,16-0-10,0390_eid_dnn_16-0-10_bear_10_n02132136_9055.png,n02132136_9055.png,1.0,1.257832,0.9418494,0.22343346
alexnet_w1_mlp_simclrhn_probe2,1,391,NaN,oven,bear,64-0-10,0391_eid_dnn_64-0-10_bear_10_n02134084_7904.png,n02134084_7904.png,0.0,-0.99434406,-0.46489722,-0.37437546
alexnet_w1_mlp_simclrhn_probe2,1,392,NaN,bottle,clock,4-0-10,0392_eid_dnn_4-0-10_clock_10_n04548280_4526.png,n04548280_4526.png,0.0,0.5966359,1.5543001,-0.6771709
alexnet_w1_mlp_simclrhn_probe2,1,393,NaN,keyboard,bottle,1-0-10,0393_eid_dnn_1-0-10_bottle_10_n02823428_685.png,n02823428_685.png,0.0,0.4523376,0.47620666,-0.016877979
alexnet_w1_mlp_simclrhn_probe2,1,394,NaN,oven,keyboard,64-0-10,0394_eid_dnn_64-0-10_keyboard_10_n04505470_3935.png,n04505470_3935.png,0.0,-4.0133104,-0.08633564,-2.7767906
alexnet_w1_mlp_simclrhn_probe2,1,395,NaN,oven,dog,64-0-10,0395_eid_dnn_64-0-10_dog_10_n02096051_3825.png,n02096051_3825.png,0.0,-0.99408424,-0.43516558,-0.39521518
alexnet_w1_mlp_simclrhn_probe2,1,396,NaN,dog,dog,2-0-10,0396_eid_dnn_2-0-10_dog_10_n02089078_10601.png,n02089078_10601.png,1.0,2.1198578,0.75103587,0.96790326
alexnet_w1_mlp_simclrhn_probe2,1,397,NaN,clock,clock,2-0-10,0397_eid_dnn_2-0-10_clock_10_n02708093_5236.png,n02708093_5236.png,1.0,6.067808,-0.84452343,4.887757
alexnet_w1_mlp_simclrhn_probe2,1,398,NaN,cat,cat,2-0-10,0398_eid_dnn_2-0-10_cat_10_n02123159_2682.png,n02123159_2682.png,1.0,2.1614487,-1.0084684,2.2414699
alexnet_w1_mlp_simclrhn_probe2,1,399,NaN,truck,oven,1-0-10,0399_eid_dnn_1-0-10_oven_10_n04111531_10216.png,n04111531_10216.png,0.0,0.8789171,1.1422771,-0.18622366
alexnet_w1_mlp_simclrhn_probe2,1,400,NaN,bicycle,boat,2-0-10,0400_eid_dnn_2-0-10_boat_10_n02951358_7137.png,n02951358_7137.png,0.0,-0.8537289,-0.8317753,-0.015523528
alexnet_w1_mlp_simclrhn_probe2,1,401,NaN,oven,bird,64-0-10,0401_eid_dnn_64-0-10_bird_10_n02007558_6127.png,n02007558_6127.png,0.0,-1.4181981,0.13296016,-1.0968345
alexnet_w1_mlp_simclrhn_probe2,1,402,NaN,bear,dog,16-0-10,0402_eid_dnn_16-0-10_dog_10_n02096051_4804.png,n02096051_4804.png,0.0,-0.4224666,0.858786,-0.90598243
alexnet_w1_mlp_simclrhn_probe2,1,403,NaN,bear,bottle,8-0-10,0403_eid_dnn_8-0-10_bottle_10_n03983396_13764.png,n03983396_13764.png,0.0,-1.2701206,0.41968647,-1.194874
alexnet_w1_mlp_simclrhn_probe2,1,404,NaN,oven,knife,32-0-10,0404_eid_dnn_32-0-10_knife_10_n03041632_105081.png,n03041632_105081.png,0.0,-1.9188435,0.6485492,-1.8154209
alexnet_w1_mlp_simclrhn_probe2,1,405,NaN,bear,boat,8-0-10,0405_eid_dnn_8-0-10_boat_10_n03344393_3535.png,n03344393_3535.png,0.0,-1.094011,0.11700939,-0.85632074
alexnet_w1_mlp_simclrhn_probe2,1,406,NaN,bear,keyboard,64-0-10,0406_eid_dnn_64-0-10_keyboard_10_n03085013_22929.png,n03085013_22929.png,0.0,-2.142057,-0.5213846,-1.1459885
alexnet_w1_mlp_simclrhn_probe2,1,407,NaN,bottle,bottle,1-0-10,0407_eid_dnn_1-0-10_bottle_10_n04579145_5979.png,n04579145_5979.png,1.0,1.9908382,-1.1540672,2.223784
alexnet_w1_mlp_simclrhn_probe2,1,408,NaN,knife,knife,2-0-10,0408_eid_dnn_2-0-10_knife_10_n03041632_31301.png,n03041632_31301.png,1.0,1.790096,0.038014233,1.238909
alexnet_w1_mlp_simclrhn_probe2,1,409,NaN,bottle,car,128-0-10,0409_eid_dnn_128-0-10_car_10_n04285008_14653.png,n04285008_14653.png,0.0,-7.916124,-2.189317,-4.0494637
alexnet_w1_mlp_simclrhn_probe2,1,410,NaN,oven,clock,16-0-10,0410_eid_dnn_16-0-10_clock_10_n03196217_1601.png,n03196217_1601.png,0.0,-4.5022426,0.7373266,-3.704935
alexnet_w1_mlp_simclrhn_probe2,1,411,NaN,oven,bicycle,8-0-10,0411_eid_dnn_8-0-10_bicycle_10_n02835271_25268.png,n02835271_25268.png,0.0,-4.1870027,-0.30566332,-2.7445214
alexnet_w1_mlp_simclrhn_probe2,1,412,NaN,bear,bird,16-0-10,0412_eid_dnn_16-0-10_bird_10_n02037110_875.png,n02037110_875.png,0.0,-0.6515666,-0.33751947,-0.22206488
alexnet_w1_mlp_simclrhn_probe2,1,413,NaN,oven,airplane,128-0-10,0413_eid_dnn_128-0-10_airplane_10_n02690373_6807.png,n02690373_6807.png,0.0,-4.833772,-0.45746732,-3.0945148
alexnet_w1_mlp_simclrhn_probe2,1,414,NaN,oven,clock,16-0-10,0414_eid_dnn_16-0-10_clock_10_n04548280_10066.png,n04548280_10066.png,0.0,-2.2534742,-0.66909313,-1.1203266
alexnet_w1_mlp_simclrhn_probe2,1,415,NaN,bear,boat,64-0-10,0415_eid_dnn_64-0-10_boat_10_n02951358_15252.png,n02951358_15252.png,0.0,-3.2911484,-0.21038839,-2.1784263
alexnet_w1_mlp_simclrhn_probe2,1,416,NaN,oven,car,64-0-10,0416_eid_dnn_64-0-10_car_10_n02814533_4803.png,n02814533_4803.png,0.0,-4.482944,-0.6214833,-2.7304652
alexnet_w1_mlp_simclrhn_probe2,1,417,NaN,oven,car,16-0-10,0417_eid_dnn_16-0-10_car_10_n03100240_24544.png,n03100240_24544.png,0.0,-6.745396,0.22365704,-4.927865
alexnet_w1_mlp_simclrhn_probe2,1,418,NaN,oven,bear,128-0-10,0418_eid_dnn_128-0-10_bear_10_n02132136_4219.png,n02132136_4219.png,0.0,-1.643429,-0.7682724,-0.6188292
alexnet_w1_mlp_simclrhn_probe2,1,419,NaN,bear,bicycle,32-0-10,0419_eid_dnn_32-0-10_bicycle_10_n02835271_507.png,n02835271_507.png,0.0,-2.09867,0.34154123,-1.72549
alexnet_w1_mlp_simclrhn_probe2,1,420,NaN,boat,boat,1-0-10,0420_eid_dnn_1-0-10_boat_10_n04273569_13290.png,n04273569_13290.png,1.0,2.4204867,-0.052415073,1.7486057
alexnet_w1_mlp_simclrhn_probe2,1,421,NaN,bear,bicycle,2-0-10,0421_eid_dnn_2-0-10_bicycle_10_n03792782_42626.png,n03792782_42626.png,0.0,-1.1841731,-0.5410241,-0.45477504
alexnet_w1_mlp_simclrhn_probe2,1,422,NaN,cat,dog,8-0-10,0422_eid_dnn_8-0-10_dog_10_n02106382_3856.png,n02106382_3856.png,0.0,0.44017476,0.8964403,-0.3226285
alexnet_w1_mlp_simclrhn_probe2,1,423,NaN,oven,clock,1-0-10,0423_eid_dnn_1-0-10_clock_10_n02708093_274.png,n02708093_274.png,0.0,-1.083521,-0.17684284,-0.6411183
alexnet_w1_mlp_simclrhn_probe2,1,424,NaN,oven,bottle,32-0-10,0424_eid_dnn_32-0-10_bottle_10_n04591713_5921.png,n04591713_5921.png,0.0,-2.9181519,0.1230446,-2.1504507
alexnet_w1_mlp_simclrhn_probe2,1,425,NaN,elephant,elephant,1-0-10,0425_eid_dnn_1-0-10_elephant_10_n02504458_3851.png,n02504458_3851.png,1.0,4.5557456,0.22319847,3.0635736
alexnet_w1_mlp_simclrhn_probe2,1,426,NaN,bear,dog,32-0-10,0426_eid_dnn_32-0-10_dog_10_n02105855_995.png,n02105855_995.png,0.0,-0.8958025,-0.022627436,-0.617428
alexnet_w1_mlp_simclrhn_probe2,1,427,NaN,airplane,airplane,2-0-10,0427_eid_dnn_2-0-10_airplane_10_n02690373_1979.png,n02690373_1979.png,1.0,0.08754189,-1.1764609,0.89378494
alexnet_w1_mlp_simclrhn_probe2,1,428,NaN,airplane,airplane,1-0-10,0428_eid_dnn_1-0-10_airplane_10_n02690373_6455.png,n02690373_6455.png,1.0,5.2629247,1.7349526,2.4946532
alexnet_w1_mlp_simclrhn_probe2,1,429,NaN,oven,oven,1-0-10,0429_eid_dnn_1-0-10_oven_10_n04111531_18979.png,n04111531_18979.png,1.0,3.7522728,-1.4145855,3.6535206
alexnet_w1_mlp_simclrhn_probe2,1,430,NaN,bear,oven,32-0-10,0430_eid_dnn_32-0-10_oven_10_n04111531_16795.png,n04111531_16795.png,0.0,-1.1770837,-0.4292423,-0.52880377
alexnet_w1_mlp_simclrhn_probe2,1,431,NaN,boat,truck,4-0-10,0431_eid_dnn_4-0-10_truck_10_n04467665_41076.png,n04467665_41076.png,0.0,-1.5935091,-0.27008554,-0.93580174
alexnet_w1_mlp_simclrhn_probe2,1,432,NaN,cat,bird,16-0-10,0432_eid_dnn_16-0-10_bird_10_n01534433_31697.png,n01534433_31697.png,0.0,-1.518226,-0.36376998,-0.8163237
alexnet_w1_mlp_simclrhn_probe2,1,433,NaN,oven,keyboard,128-0-10,0433_eid_dnn_128-0-10_keyboard_10_n04505470_4289.png,n04505470_4289.png,0.0,-3.9042974,-1.0725839,-2.0023239
alexnet_w1_mlp_simclrhn_probe2,1,434,NaN,keyboard,keyboard,4-0-10,0434_eid_dnn_4-0-10_keyboard_10_n03085013_20727.png,n03085013_20727.png,1.0,1.6733321,-0.7154431,1.6891191
alexnet_w1_mlp_simclrhn_probe2,1,435,NaN,bear,boat,8-0-10,0435_eid_dnn_8-0-10_boat_10_n04273569_7315.png,n04273569_7315.png,0.0,-1.717529,-0.18301669,-1.0850642
alexnet_w1_mlp_simclrhn_probe2,1,436,NaN,car,car,1-0-10,0436_eid_dnn_1-0-10_car_10_n03100240_16646.png,n03100240_16646.png,1.0,0.4743651,-0.80499357,0.9046432
alexnet_w1_mlp_simclrhn_probe2,1,437,NaN,bear,car,16-0-10,0437_eid_dnn_16-0-10_car_10_n03100240_5281.png,n03100240_5281.png,0.0,-7.155874,0.47849968,-5.3983173
alexnet_w1_mlp_simclrhn_probe2,1,438,NaN,bird,airplane,128-0-10,0438_eid_dnn_128-0-10_airplane_10_n02690373_1670.png,n02690373_1670.png,0.0,-3.9913287,-0.74955875,-2.2922776
alexnet_w1_mlp_simclrhn_probe2,1,439,NaN,oven,airplane,128-0-10,0439_eid_dnn_128-0-10_airplane_10_n02690373_9293.png,n02690373_9293.png,0.0,-5.7766104,-0.59780097,-3.661971
alexnet_w1_mlp_simclrhn_probe2,1,440,NaN,oven,truck,128-0-10,0440_eid_dnn_128-0-10_truck_10_n03796401_15846.png,n03796401_15846.png,0.0,-5.2385826,-1.1071613,-2.921356
alexnet_w1_mlp_simclrhn_probe2,1,441,NaN,oven,truck,32-0-10,0441_eid_dnn_32-0-10_truck_10_n03796401_6971.png,n03796401_6971.png,0.0,-3.7597704,0.070525095,-2.708428
alexnet_w1_mlp_simclrhn_probe2,1,442,NaN,oven,oven,128-0-10,0442_eid_dnn_128-0-10_oven_10_n04111531_10724.png,n04111531_10724.png,1.0,-0.14123586,-1.5505656,0.9965466
alexnet_w1_mlp_simclrhn_probe2,1,443,NaN,cat,keyboard,8-0-10,0443_eid_dnn_8-0-10_keyboard_10_n03085013_22187.png,n03085013_22187.png,0.0,-4.430407,0.7946298,-3.694659
alexnet_w1_mlp_simclrhn_probe2,1,444,NaN,bear,oven,8-0-10,0444_eid_dnn_8-0-10_oven_10_n04111531_4671.png,n04111531_4671.png,0.0,-1.3746369,0.6019472,-1.3976561
alexnet_w1_mlp_simclrhn_probe2,1,445,NaN,airplane,airplane,4-0-10,0445_eid_dnn_4-0-10_airplane_10_n02690373_5142.png,n02690373_5142.png,1.0,0.05037284,-1.1398066,0.84158397
alexnet_w1_mlp_simclrhn_probe2,1,446,NaN,elephant,elephant,4-0-10,0446_eid_dnn_4-0-10_elephant_10_n02504013_8562.png,n02504013_8562.png,1.0,3.9771957,1.5613647,1.7082505
alexnet_w1_mlp_simclrhn_probe2,1,447,NaN,truck,truck,1-0-10,0447_eid_dnn_1-0-10_truck_10_n03417042_9668.png,n03417042_9668.png,1.0,2.585608,1.5515383,0.73119766
alexnet_w1_mlp_simclrhn_probe2,1,448,NaN,cat,bottle,8-0-10,0448_eid_dnn_8-0-10_bottle_10_n03983396_10330.png,n03983396_10330.png,0.0,-1.8552727,0.1609128,-1.4256585
alexnet_w1_mlp_simclrhn_probe2,1,449,NaN,oven,elephant,128-0-10,0449_eid_dnn_128-0-10_elephant_10_n02504458_4395.png,n02504458_4395.png,0.0,-1.8374062,-0.7194038,-0.7905471
alexnet_w1_mlp_simclrhn_probe2,1,450,NaN,oven,boat,64-0-10,0450_eid_dnn_64-0-10_boat_10_n03344393_4562.png,n03344393_4562.png,0.0,-2.8843002,-0.06465919,-1.9937874
alexnet_w1_mlp_simclrhn_probe2,1,451,NaN,oven,oven,2-0-10,0451_eid_dnn_2-0-10_oven_10_n04111531_10011.png,n04111531_10011.png,1.0,1.2294488,-1.438621,1.8866103
alexnet_w1_mlp_simclrhn_probe2,1,452,NaN,oven,oven,64-0-10,0452_eid_dnn_64-0-10_oven_10_n04111531_13797.png,n04111531_13797.png,1.0,0.12871657,-0.99075353,0.7915849
alexnet_w1_mlp_simclrhn_probe2,1,453,NaN,airplane,boat,2-0-10,0453_eid_dnn_2-0-10_boat_10_n03662601_840.png,n03662601_840.png,0.0,1.0007975,1.8349589,-0.5898412
alexnet_w1_mlp_simclrhn_probe2,1,454,NaN,bear,truck,16-0-10,0454_eid_dnn_16-0-10_truck_10_n03417042_17037.png,n03417042_17037.png,0.0,-5.099947,0.5819759,-4.0177264
alexnet_w1_mlp_simclrhn_probe2,1,455,NaN,oven,cat,64-0-10,0455_eid_dnn_64-0-10_cat_10_n02125311_2576.png,n02125311_2576.png,0.0,-0.72951156,0.20349446,-0.6597349
alexnet_w1_mlp_simclrhn_probe2,1,456,NaN,bear,keyboard,32-0-10,0456_eid_dnn_32-0-10_keyboard_10_n03085013_3264.png,n03085013_3264.png,0.0,-1.7425907,-0.35227638,-0.9831007
alexnet_w1_mlp_simclrhn_probe2,1,457,NaN,oven,dog,64-0-10,0457_eid_dnn_64-0-10_dog_10_n02097130_3519.png,n02097130_3519.png,0.0,-2.3070974,-1.0355216,-0.8991399
alexnet_w1_mlp_simclrhn_probe2,1,458,NaN,bear,airplane,16-0-10,0458_eid_dnn_16-0-10_airplane_10_n02690373_4486.png,n02690373_4486.png,0.0,-2.329928,-0.3427929,-1.4051167
alexnet_w1_mlp_simclrhn_probe2,1,459,NaN,oven,bottle,16-0-10,0459_eid_dnn_16-0-10_bottle_10_n03983396_19635.png,n03983396_19635.png,0.0,-2.3175814,0.9562515,-2.3149495
alexnet_w1_mlp_simclrhn_probe2,1,460,NaN,bear,airplane,16-0-10,0460_eid_dnn_16-0-10_airplane_10_n02690373_1426.png,n02690373_1426.png,0.0,-2.4831157,0.28693306,-1.9587202
alexnet_w1_mlp_simclrhn_probe2,1,461,NaN,oven,oven,4-0-10,0461_eid_dnn_4-0-10_oven_10_n04111531_5279.png,n04111531_5279.png,1.0,0.12075638,-0.18720615,0.2177624
alexnet_w1_mlp_simclrhn_probe2,1,462,NaN,oven,bottle,64-0-10,0462_eid_dnn_64-0-10_bottle_10_n03983396_4024.png,n03983396_4024.png,0.0,-1.8049517,-0.45446813,-0.9549361
alexnet_w1_mlp_simclrhn_probe2,1,463,NaN,bear,bear,8-0-10,0463_eid_dnn_8-0-10_bear_10_n02133161_12751.png,n02133161_12751.png,1.0,0.6370622,0.2755541,0.25562483
alexnet_w1_mlp_simclrhn_probe2,1,464,NaN,bear,car,8-0-10,0464_eid_dnn_8-0-10_car_10_n02814533_12271.png,n02814533_12271.png,0.0,-6.6410546,1.4972551,-5.754654
alexnet_w1_mlp_simclrhn_probe2,1,465,NaN,cat,bottle,16-0-10,0465_eid_dnn_16-0-10_bottle_10_n04560804_5068.png,n04560804_5068.png,0.0,-2.8327212,0.052318603,-2.0400312
alexnet_w1_mlp_simclrhn_probe2,1,466,NaN,oven,bottle,128-0-10,0466_eid_dnn_128-0-10_bottle_10_n04579145_1168.png,n04579145_1168.png,0.0,-2.2994802,-1.4254833,-0.6180091
alexnet_w1_mlp_simclrhn_probe2,1,467,NaN,oven,knife,64-0-10,0467_eid_dnn_64-0-10_knife_10_n03041632_2973.png,n03041632_2973.png,0.0,-1.5398973,-0.039385527,-1.061022
alexnet_w1_mlp_simclrhn_probe2,1,468,NaN,oven,airplane,16-0-10,0468_eid_dnn_16-0-10_airplane_10_n02690373_19329.png,n02690373_19329.png,0.0,-2.1759105,-0.18229714,-1.4096975
alexnet_w1_mlp_simclrhn_probe2,1,469,NaN,oven,bottle,32-0-10,0469_eid_dnn_32-0-10_bottle_10_n04560804_1356.png,n04560804_1356.png,0.0,-1.3029355,0.34153005,-1.1628128
alexnet_w1_mlp_simclrhn_probe2,1,470,NaN,bear,bear,8-0-10,0470_eid_dnn_8-0-10_bear_10_n02134084_3960.png,n02134084_3960.png,1.0,1.3269873,0.87800264,0.3174801
alexnet_w1_mlp_simclrhn_probe2,1,471,NaN,boat,boat,4-0-10,0471_eid_dnn_4-0-10_boat_10_n04612504_27504.png,n04612504_27504.png,1.0,0.10772152,0.07000992,0.026666133
alexnet_w1_mlp_simclrhn_probe2,1,472,NaN,dog,dog,4-0-10,0472_eid_dnn_4-0-10_dog_10_n02099601_9973.png,n02099601_9973.png,1.0,1.024189,0.3224592,0.49619788
alexnet_w1_mlp_simclrhn_probe2,1,473,NaN,oven,truck,64-0-10,0473_eid_dnn_64-0-10_truck_10_n03417042_26843.png,n03417042_26843.png,0.0,-3.5477705,0.52001655,-2.87636
alexnet_w1_mlp_simclrhn_probe2,1,474,NaN,oven,knife,64-0-10,0474_eid_dnn_64-0-10_knife_10_n03041632_55711.png,n03041632_55711.png,0.0,-1.4430137,-0.21159312,-0.87074584
alexnet_w1_mlp_simclrhn_probe2,1,475,NaN,bear,elephant,8-0-10,0475_eid_dnn_8-0-10_elephant_10_n02504013_1986.png,n02504013_1986.png,0.0,-0.30442733,1.2946539,-1.1307212
alexnet_w1_mlp_simclrhn_probe2,1,476,NaN,knife,keyboard,4-0-10,0476_eid_dnn_4-0-10_keyboard_10_n03085013_9475.png,n03085013_9475.png,0.0,-0.67625606,-0.15732858,-0.36693713
alexnet_w1_mlp_simclrhn_probe2,1,477,NaN,bear,elephant,32-0-10,0477_eid_dnn_32-0-10_elephant_10_n02504458_3381.png,n02504458_3381.png,0.0,-0.3378964,-0.040851936,-0.21004215
alexnet_w1_mlp_simclrhn_probe2,1,478,NaN,cat,airplane,8-0-10,0478_eid_dnn_8-0-10_airplane_10_n02690373_1161.png,n02690373_1161.png,0.0,-1.6493405,-0.6866732,-0.6807086
alexnet_w1_mlp_simclrhn_probe2,1,479,NaN,oven,cat,64-0-10,0479_eid_dnn_64-0-10_cat_10_n02124075_7474.png,n02124075_7474.png,0.0,-1.6176071,-0.061644424,-1.1002318
alexnet_w1_mlp_simclrhn_probe2,1,480,NaN,cat,cat,4-0-10,0480_eid_dnn_4-0-10_cat_10_n02125311_9074.png,n02125311_9074.png,1.0,0.037618905,-0.1393564,0.12514044
alexnet_w1_mlp_simclrhn_probe2,1,481,NaN,oven,airplane,128-0-10,0481_eid_dnn_128-0-10_airplane_10_n02690373_2867.png,n02690373_2867.png,0.0,-4.9640393,-0.06751751,-3.462364
alexnet_w1_mlp_simclrhn_probe2,1,482,NaN,elephant,elephant,2-0-10,0482_eid_dnn_2-0-10_elephant_10_n02504013_1692.png,n02504013_1692.png,1.0,0.6182196,0.34389588,0.19397618
alexnet_w1_mlp_simclrhn_probe2,1,483,NaN,bear,bird,8-0-10,0483_eid_dnn_8-0-10_bird_10_n02009912_11813.png,n02009912_11813.png,0.0,-0.55839163,0.5586274,-0.7898518
alexnet_w1_mlp_simclrhn_probe2,1,484,NaN,bird,bottle,16-0-10,0484_eid_dnn_16-0-10_bottle_10_n04557648_10302.png,n04557648_10302.png,0.0,-2.4168541,0.414628,-2.0021603
alexnet_w1_mlp_simclrhn_probe2,1,485,NaN,oven,keyboard,4-0-10,0485_eid_dnn_4-0-10_keyboard_10_n03085013_20302.png,n03085013_20302.png,0.0,-1.4968958,1.017916,-1.7782404
alexnet_w1_mlp_simclrhn_probe2,1,486,NaN,oven,elephant,128-0-10,0486_eid_dnn_128-0-10_elephant_10_n02504458_5827.png,n02504458_5827.png,0.0,-3.241891,-1.349839,-1.3378828
alexnet_w1_mlp_simclrhn_probe2,1,487,NaN,keyboard,knife,1-0-10,0487_eid_dnn_1-0-10_knife_10_n03041632_11327.png,n03041632_11327.png,0.0,-0.017349523,1.9280517,-1.3756064
alexnet_w1_mlp_simclrhn_probe2,1,488,NaN,bird,bird,4-0-10,0488_eid_dnn_4-0-10_bird_10_n01795545_17770.png,n01795545_17770.png,1.0,0.28759536,-1.6958147,1.4024827
alexnet_w1_mlp_simclrhn_probe2,1,489,NaN,cat,bicycle,4-0-10,0489_eid_dnn_4-0-10_bicycle_10_n02835271_10932.png,n02835271_10932.png,0.0,-3.398285,-0.2842002,-2.2019904
alexnet_w1_mlp_simclrhn_probe2,1,490,NaN,cat,cat,2-0-10,0490_eid_dnn_2-0-10_cat_10_n02123597_14233.png,n02123597_14233.png,1.0,-0.32663202,-0.76973456,0.31332082
alexnet_w1_mlp_simclrhn_probe2,1,491,NaN,bird,bird,1-0-10,0491_eid_dnn_1-0-10_bird_10_n01614925_7662.png,n01614925_7662.png,1.0,1.3626709,-0.87878424,1.5849481
alexnet_w1_mlp_simclrhn_probe2,1,492,NaN,oven,truck,16-0-10,0492_eid_dnn_16-0-10_truck_10_n03417042_5875.png,n03417042_5875.png,0.0,-3.5485296,0.49015948,-2.8557844
alexnet_w1_mlp_simclrhn_probe2,1,493,NaN,bear,bear,1-0-10,0493_eid_dnn_1-0-10_bear_10_n02134418_304.png,n02134418_304.png,1.0,1.6451873,0.8036641,0.59504676
alexnet_w1_mlp_simclrhn_probe2,1,494,NaN,cat,bird,1-0-10,0494_eid_dnn_1-0-10_bird_10_n01622779_5148.png,n01622779_5148.png,0.0,-2.121772,1.5586523,-2.602453
alexnet_w1_mlp_simclrhn_probe2,1,495,NaN,elephant,knife,1-0-10,0495_eid_dnn_1-0-10_knife_10_n03041632_44230.png,n03041632_44230.png,0.0,-1.9077169,-0.1785241,-1.222724
alexnet_w1_mlp_simclrhn_probe2,1,496,NaN,oven,boat,32-0-10,0496_eid_dnn_32-0-10_boat_10_n03662601_8650.png,n03662601_8650.png,0.0,-1.5649009,-0.010344658,-1.0992373
alexnet_w1_mlp_simclrhn_probe2,1,497,NaN,bear,oven,16-0-10,0497_eid_dnn_16-0-10_oven_10_n04111531_4346.png,n04111531_4346.png,0.0,-0.08012411,0.71354604,-0.56120956
alexnet_w1_mlp_simclrhn_probe2,1,498,NaN,clock,clock,2-0-10,0498_eid_dnn_2-0-10_clock_10_n03196217_2201.png,n03196217_2201.png,1.0,0.65482265,0.2134863,0.31207192
alexnet_w1_mlp_simclrhn_probe2,1,499,NaN,oven,bicycle,64-0-10,0499_eid_dnn_64-0-10_bicycle_10_n02835271_8757.png,n02835271_8757.png,0.0,-0.9926572,-0.46008575,-0.3765849
alexnet_w1_mlp_simclrhn_probe2,1,500,NaN,cat,keyboard,8-0-10,0500_eid_dnn_8-0-10_keyboard_10_n03085013_23563.png,n03085013_23563.png,0.0,-3.3335521,0.7903517,-2.9160404
alexnet_w1_mlp_simclrhn_probe2,1,501,NaN,bear,boat,64-0-10,0501_eid_dnn_64-0-10_boat_10_n04273569_15879.png,n04273569_15879.png,0.0,-2.5405483,-0.14402336,-1.694599
alexnet_w1_mlp_simclrhn_probe2,1,502,NaN,oven,truck,64-0-10,0502_eid_dnn_64-0-10_truck_10_n04467665_30588.png,n04467665_30588.png,0.0,-3.1548023,-0.34346986,-1.9879123
alexnet_w1_mlp_simclrhn_probe2,1,503,NaN,oven,truck,16-0-10,0503_eid_dnn_16-0-10_truck_10_n03417042_1875.png,n03417042_1875.png,0.0,-4.7695246,1.0412122,-4.1088114
alexnet_w1_mlp_simclrhn_probe2,1,504,NaN,oven,cat,128-0-10,0504_eid_dnn_128-0-10_cat_10_n02123394_6014.png,n02123394_6014.png,0.0,-2.0127146,-0.14677495,-1.3194185
alexnet_w1_mlp_simclrhn_probe2,1,505,NaN,boat,boat,1-0-10,0505_eid_dnn_1-0-10_boat_10_n04273569_10847.png,n04273569_10847.png,1.0,1.9099948,-0.7606003,1.888396
alexnet_w1_mlp_simclrhn_probe2,1,506,NaN,oven,elephant,64-0-10,0506_eid_dnn_64-0-10_elephant_10_n02504013_5495.png,n02504013_5495.png,0.0,-0.99919647,-0.18498005,-0.57573795
alexnet_w1_mlp_simclrhn_probe2,1,507,NaN,oven,bottle,128-0-10,0507_eid_dnn_128-0-10_bottle_10_n04560804_16276.png,n04560804_16276.png,0.0,-0.87997913,-0.2229474,-0.4645916
alexnet_w1_mlp_simclrhn_probe2,1,508,NaN,boat,car,1-0-10,0508_eid_dnn_1-0-10_car_10_n04285008_1243.png,n04285008_1243.png,0.0,0.20990145,1.8815413,-1.1820278
alexnet_w1_mlp_simclrhn_probe2,1,509,NaN,bear,keyboard,32-0-10,0509_eid_dnn_32-0-10_keyboard_10_n03085013_22027.png,n03085013_22027.png,0.0,-3.6795955,-0.32226205,-2.3739932
alexnet_w1_mlp_simclrhn_probe2,1,510,NaN,oven,cat,32-0-10,0510_eid_dnn_32-0-10_cat_10_n02123045_12766.png,n02123045_12766.png,0.0,-0.7784858,0.106651254,-0.6258864
alexnet_w1_mlp_simclrhn_probe2,1,511,NaN,oven,chair,64-0-10,0511_eid_dnn_64-0-10_chair_10_n04429376_29954.png,n04429376_29954.png,0.0,-2.2219203,-0.3826822,-1.3005377
alexnet_w1_mlp_simclrhn_probe2,1,512,NaN,bear,elephant,32-0-10,0512_eid_dnn_32-0-10_elephant_10_n02504013_5678.png,n02504013_5678.png,0.0,-0.25388008,0.12522945,-0.26807094
alexnet_w1_mlp_simclrhn_probe2,1,513,NaN,knife,chair,4-0-10,0513_eid_dnn_4-0-10_chair_10_n03376595_6333.png,n03376595_6333.png,0.0,-2.1558359,-1.2181576,-0.6630386
alexnet_w1_mlp_simclrhn_probe2,1,514,NaN,oven,keyboard,2-0-10,0514_eid_dnn_2-0-10_keyboard_10_n03085013_22605.png,n03085013_22605.png,0.0,0.29085803,1.3077563,-0.71905565
alexnet_w1_mlp_simclrhn_probe2,1,515,NaN,oven,car,32-0-10,0515_eid_dnn_32-0-10_car_10_n04285008_16557.png,n04285008_16557.png,0.0,-6.8412805,1.5849055,-5.958213
alexnet_w1_mlp_simclrhn_probe2,1,516,NaN,oven,bottle,64-0-10,0516_eid_dnn_64-0-10_bottle_10_n02823428_1034.png,n02823428_1034.png,0.0,-1.9295512,0.1511895,-1.4713058
alexnet_w1_mlp_simclrhn_probe2,1,517,NaN,bear,elephant,16-0-10,0517_eid_dnn_16-0-10_elephant_10_n02504013_7777.png,n02504013_7777.png,0.0,-1.0781657,0.5647595,-1.1617235
alexnet_w1_mlp_simclrhn_probe2,1,518,NaN,bottle,knife,4-0-10,0518_eid_dnn_4-0-10_knife_10_n03041632_14293.png,n03041632_14293.png,0.0,-0.91065264,-0.8576167,-0.037502054
alexnet_w1_mlp_simclrhn_probe2,1,519,NaN,cat,knife,8-0-10,0519_eid_dnn_8-0-10_knife_10_n03041632_50423.png,n03041632_50423.png,0.0,-1.9068768,-0.09405594,-1.281858
alexnet_w1_mlp_simclrhn_probe2,1,520,NaN,chair,chair,2-0-10,0520_eid_dnn_2-0-10_chair_10_n03376595_3043.png,n03376595_3043.png,1.0,0.116326734,-0.16211726,0.19688964
alexnet_w1_mlp_simclrhn_probe2,1,521,NaN,bear,cat,8-0-10,0521_eid_dnn_8-0-10_cat_10_n02123394_2434.png,n02123394_2434.png,0.0,0.2296742,0.34907073,-0.08442609
alexnet_w1_mlp_simclrhn_probe2,1,522,NaN,boat,truck,1-0-10,0522_eid_dnn_1-0-10_truck_10_n04467665_54079.png,n04467665_54079.png,0.0,-0.25659296,0.37327027,-0.4453806
alexnet_w1_mlp_simclrhn_probe2,1,523,NaN,elephant,bird,2-0-10,0523_eid_dnn_2-0-10_bird_10_n01855672_1001.png,n01855672_1001.png,0.0,-1.7619084,-0.02828002,-1.2258604
alexnet_w1_mlp_simclrhn_probe2,1,524,NaN,bottle,bottle,1-0-10,0524_eid_dnn_1-0-10_bottle_10_n04560804_6112.png,n04560804_6112.png,1.0,1.1201855,-0.1446971,0.89440703
alexnet_w1_mlp_simclrhn_probe2,1,525,NaN,oven,keyboard,1-0-10,0525_eid_dnn_1-0-10_keyboard_10_n04505470_1744.png,n04505470_1744.png,0.0,0.44644272,1.6728809,-0.8672228
alexnet_w1_mlp_simclrhn_probe2,1,526,NaN,oven,boat,32-0-10,0526_eid_dnn_32-0-10_boat_10_n02951358_15087.png,n02951358_15087.png,0.0,-4.597336,1.1942265,-4.095253
alexnet_w1_mlp_simclrhn_probe2,1,527,NaN,elephant,bottle,4-0-10,0527_eid_dnn_4-0-10_bottle_10_n04557648_10051.png,n04557648_10051.png,0.0,-2.141028,1.2681112,-2.4106255
alexnet_w1_mlp_simclrhn_probe2,1,528,NaN,oven,bear,64-0-10,0528_eid_dnn_64-0-10_bear_10_n02134084_5794.png,n02134084_5794.png,0.0,-0.8258743,0.15033308,-0.6902829
alexnet_w1_mlp_simclrhn_probe2,1,529,NaN,keyboard,keyboard,4-0-10,0529_eid_dnn_4-0-10_keyboard_10_n04505470_751.png,n04505470_751.png,1.0,0.63759875,-0.24220362,0.62211424
alexnet_w1_mlp_simclrhn_probe2,1,530,NaN,oven,boat,128-0-10,0530_eid_dnn_128-0-10_boat_10_n04273569_9306.png,n04273569_9306.png,0.0,-5.3073225,-0.0680167,-3.7047489
alexnet_w1_mlp_simclrhn_probe2,1,531,NaN,bear,chair,16-0-10,0531_eid_dnn_16-0-10_chair_10_n02791124_9162.png,n02791124_9162.png,0.0,-2.9404664,0.063563325,-2.1241698
alexnet_w1_mlp_simclrhn_probe2,1,532,NaN,oven,bicycle,128-0-10,0532_eid_dnn_128-0-10_bicycle_10_n02835271_25033.png,n02835271_25033.png,0.0,-1.5789086,-0.58771694,-0.7008783
alexnet_w1_mlp_simclrhn_probe2,1,533,NaN,oven,keyboard,128-0-10,0533_eid_dnn_128-0-10_keyboard_10_n04505470_3905.png,n04505470_3905.png,0.0,-3.2732332,-0.85501504,-1.7099385
alexnet_w1_mlp_simclrhn_probe2,1,534,NaN,knife,knife,4-0-10,0534_eid_dnn_4-0-10_knife_10_n03041632_32054.png,n03041632_32054.png,1.0,-0.5159118,-0.6868066,0.12084088
alexnet_w1_mlp_simclrhn_probe2,1,535,NaN,cat,clock,8-0-10,0535_eid_dnn_8-0-10_clock_10_n03196217_13380.png,n03196217_13380.png,0.0,-5.123105,0.6828913,-4.1054597
alexnet_w1_mlp_simclrhn_probe2,1,536,NaN,bird,chair,32-0-10,0536_eid_dnn_32-0-10_chair_10_n03376595_8083.png,n03376595_8083.png,0.0,-2.7411687,-0.24993801,-1.7615662
alexnet_w1_mlp_simclrhn_probe2,1,537,NaN,bear,cat,8-0-10,0537_eid_dnn_8-0-10_cat_10_n02125311_47927.png,n02125311_47927.png,0.0,0.5260432,0.7801284,-0.1796654
alexnet_w1_mlp_simclrhn_probe2,1,538,NaN,oven,boat,64-0-10,0538_eid_dnn_64-0-10_boat_10_n04273569_1141.png,n04273569_1141.png,0.0,-4.0936956,0.5229333,-3.2644498
alexnet_w1_mlp_simclrhn_probe2,1,539,NaN,oven,dog,64-0-10,0539_eid_dnn_64-0-10_dog_10_n02097130_5859.png,n02097130_5859.png,0.0,-1.946369,0.19834952,-1.5165452
alexnet_w1_mlp_simclrhn_probe2,1,540,NaN,bear,dog,16-0-10,0540_eid_dnn_16-0-10_dog_10_n02090721_835.png,n02090721_835.png,0.0,-0.7471257,0.27724832,-0.7243418
alexnet_w1_mlp_simclrhn_probe2,1,541,NaN,oven,bear,128-0-10,0541_eid_dnn_128-0-10_bear_10_n02132136_15806.png,n02132136_15806.png,0.0,-1.410881,-0.24980322,-0.82100606
alexnet_w1_mlp_simclrhn_probe2,1,542,NaN,oven,cat,128-0-10,0542_eid_dnn_128-0-10_cat_10_n02124075_12069.png,n02124075_12069.png,0.0,-1.9264321,0.27245328,-1.5548469
alexnet_w1_mlp_simclrhn_probe2,1,543,NaN,oven,oven,2-0-10,0543_eid_dnn_2-0-10_oven_10_n04111531_21382.png,n04111531_21382.png,1.0,3.9174392,-1.275329,3.6718416
alexnet_w1_mlp_simclrhn_probe2,1,544,NaN,dog,cat,1-0-10,0544_eid_dnn_1-0-10_cat_10_n02123597_2009.png,n02123597_2009.png,0.0,-1.8540406,-0.62666756,-0.86788386
alexnet_w1_mlp_simclrhn_probe2,1,545,NaN,oven,oven,32-0-10,0545_eid_dnn_32-0-10_oven_10_n04111531_4392.png,n04111531_4392.png,1.0,0.227451,-0.43746006,0.4701631
alexnet_w1_mlp_simclrhn_probe2,1,546,NaN,boat,boat,4-0-10,0546_eid_dnn_4-0-10_boat_10_n03344393_640.png,n03344393_640.png,1.0,0.14461383,-0.6176407,0.5389953
alexnet_w1_mlp_simclrhn_probe2,1,547,NaN,oven,car,4-0-10,0547_eid_dnn_4-0-10_car_10_n02814533_245.png,n02814533_245.png,0.0,-2.2413824,0.2458692,-1.7587525
alexnet_w1_mlp_simclrhn_probe2,1,548,NaN,bird,bird,1-0-10,0548_eid_dnn_1-0-10_bird_10_n01530575_3831.png,n01530575_3831.png,1.0,0.24543853,-2.2711139,1.7794713
alexnet_w1_mlp_simclrhn_probe2,1,549,NaN,truck,truck,2-0-10,0549_eid_dnn_2-0-10_truck_10_n04467665_32276.png,n04467665_32276.png,1.0,3.620693,2.7613516,0.6076461
alexnet_w1_mlp_simclrhn_probe2,1,550,NaN,bird,elephant,64-0-10,0550_eid_dnn_64-0-10_elephant_10_n02504458_5941.png,n02504458_5941.png,0.0,-1.4435058,-0.5832112,-0.6083201
alexnet_w1_mlp_simclrhn_probe2,1,551,NaN,bear,elephant,4-0-10,0551_eid_dnn_4-0-10_elephant_10_n02504013_9796.png,n02504013_9796.png,0.0,2.4506788,2.496163,-0.032162093
alexnet_w1_mlp_simclrhn_probe2,1,552,NaN,airplane,airplane,4-0-10,0552_eid_dnn_4-0-10_airplane_10_n02690373_8214.png,n02690373_8214.png,1.0,1.4513352,0.08632052,0.96521115
alexnet_w1_mlp_simclrhn_probe2,1,553,NaN,airplane,airplane,1-0-10,0553_eid_dnn_1-0-10_airplane_10_n02690373_8967.png,n02690373_8967.png,1.0,5.308193,-0.009172225,3.7599454
alexnet_w1_mlp_simclrhn_probe2,1,554,NaN,bear,elephant,64-0-10,0554_eid_dnn_64-0-10_elephant_10_n02504458_7642.png,n02504458_7642.png,0.0,-0.6955197,-0.1536941,-0.38312855
alexnet_w1_mlp_simclrhn_probe2,1,555,NaN,boat,boat,1-0-10,0555_eid_dnn_1-0-10_boat_10_n04273569_15455.png,n04273569_15455.png,1.0,0.95657146,0.9080454,0.034313098
alexnet_w1_mlp_simclrhn_probe2,1,556,NaN,bear,knife,8-0-10,0556_eid_dnn_8-0-10_knife_10_n03041632_3063.png,n03041632_3063.png,0.0,-2.8933363,1.2744986,-2.9471042
alexnet_w1_mlp_simclrhn_probe2,1,557,NaN,oven,bottle,4-0-10,0557_eid_dnn_4-0-10_bottle_10_n03937543_4912.png,n03937543_4912.png,0.0,0.16863525,0.37327367,-0.14470121
alexnet_w1_mlp_simclrhn_probe2,1,558,NaN,oven,oven,4-0-10,0558_eid_dnn_4-0-10_oven_10_n04111531_5776.png,n04111531_5776.png,1.0,-0.113306515,-0.33732,0.15840144
alexnet_w1_mlp_simclrhn_probe2,1,559,NaN,oven,bottle,128-0-10,0559_eid_dnn_128-0-10_bottle_10_n03983396_4540.png,n03983396_4540.png,0.0,-2.5672333,-0.48185325,-1.4745864
alexnet_w1_mlp_simclrhn_probe2,1,560,NaN,knife,knife,2-0-10,0560_eid_dnn_2-0-10_knife_10_n03041632_965.png,n03041632_965.png,1.0,1.3844569,0.38511908,0.7066385
alexnet_w1_mlp_simclrhn_probe2,1,561,NaN,oven,knife,32-0-10,0561_eid_dnn_32-0-10_knife_10_n03041632_12949.png,n03041632_12949.png,0.0,-1.8550057,0.46731636,-1.6421298
alexnet_w1_mlp_simclrhn_probe2,1,562,NaN,bear,knife,16-0-10,0562_eid_dnn_16-0-10_knife_10_n03041632_18766.png,n03041632_18766.png,0.0,-1.7834945,0.69132453,-1.7499613
alexnet_w1_mlp_simclrhn_probe2,1,563,NaN,oven,keyboard,8-0-10,0563_eid_dnn_8-0-10_keyboard_10_n04505470_2869.png,n04505470_2869.png,0.0,-1.9567425,0.79557407,-1.9461817
alexnet_w1_mlp_simclrhn_probe2,1,564,NaN,elephant,bicycle,4-0-10,0564_eid_dnn_4-0-10_bicycle_10_n02835271_18537.png,n02835271_18537.png,0.0,-1.0124536,0.76042444,-1.2536141
alexnet_w1_mlp_simclrhn_probe2,1,565,NaN,bird,clock,32-0-10,0565_eid_dnn_32-0-10_clock_10_n04548280_1119.png,n04548280_1119.png,0.0,-1.9840382,-0.28938413,-1.1983014
alexnet_w1_mlp_simclrhn_probe2,1,566,NaN,oven,oven,1-0-10,0566_eid_dnn_1-0-10_oven_10_n04111531_687.png,n04111531_687.png,1.0,5.0623693,-1.3028005,4.500855
alexnet_w1_mlp_simclrhn_probe2,1,567,NaN,oven,chair,64-0-10,0567_eid_dnn_64-0-10_chair_10_n03376595_3038.png,n03376595_3038.png,0.0,-2.957353,0.20918103,-2.2390778
alexnet_w1_mlp_simclrhn_probe2,1,568,NaN,oven,bicycle,16-0-10,0568_eid_dnn_16-0-10_bicycle_10_n02835271_3989.png,n02835271_3989.png,0.0,-1.8000507,0.015192144,-1.2835705
alexnet_w1_mlp_simclrhn_probe2,1,569,NaN,oven,dog,64-0-10,0569_eid_dnn_64-0-10_dog_10_n02096437_4563.png,n02096437_4563.png,0.0,-1.4687781,0.25839412,-1.2212952
alexnet_w1_mlp_simclrhn_probe2,1,570,NaN,oven,clock,32-0-10,0570_eid_dnn_32-0-10_clock_10_n02708093_685.png,n02708093_685.png,0.0,-5.5054736,-1.0135427,-3.176275
alexnet_w1_mlp_simclrhn_probe2,1,571,NaN,oven,boat,32-0-10,0571_eid_dnn_32-0-10_boat_10_n03662601_8360.png,n03662601_8360.png,0.0,-3.167503,0.59929746,-2.6635303
alexnet_w1_mlp_simclrhn_probe2,1,572,NaN,oven,keyboard,8-0-10,0572_eid_dnn_8-0-10_keyboard_10_n03085013_17035.png,n03085013_17035.png,0.0,-2.1413293,-0.11010424,-1.436293
alexnet_w1_mlp_simclrhn_probe2,1,573,NaN,oven,dog,64-0-10,0573_eid_dnn_64-0-10_dog_10_n02110063_12166.png,n02110063_12166.png,0.0,-1.2910364,0.4211785,-1.2107188
alexnet_w1_mlp_simclrhn_probe2,1,574,NaN,dog,dog,2-0-10,0574_eid_dnn_2-0-10_dog_10_n02108422_6951.png,n02108422_6951.png,1.0,0.6007099,0.43052384,0.12033973
alexnet_w1_mlp_simclrhn_probe2,1,575,NaN,bear,bear,64-0-10,0575_eid_dnn_64-0-10_bear_10_n02134418_912.png,n02134418_912.png,1.0,-0.36829194,-0.4260494,0.040840697
alexnet_w1_mlp_simclrhn_probe2,1,576,NaN,bottle,clock,4-0-10,0576_eid_dnn_4-0-10_clock_10_n02708093_564.png,n02708093_564.png,0.0,-1.0228719,-0.7510399,-0.1922142
alexnet_w1_mlp_simclrhn_probe2,1,577,NaN,oven,car,64-0-10,0577_eid_dnn_64-0-10_car_10_n04285008_11893.png,n04285008_11893.png,0.0,-3.8180637,-0.101879895,-2.627739
alexnet_w1_mlp_simclrhn_probe2,1,578,NaN,oven,knife,64-0-10,0578_eid_dnn_64-0-10_knife_10_n03041632_20504.png,n03041632_20504.png,0.0,-1.265392,0.3481562,-1.1409509
alexnet_w1_mlp_simclrhn_probe2,1,579,NaN,bottle,clock,4-0-10,0579_eid_dnn_4-0-10_clock_10_n04548280_4557.png,n04548280_4557.png,0.0,0.112841606,0.19105446,-0.055304844
alexnet_w1_mlp_simclrhn_probe2,1,580,NaN,bird,clock,32-0-10,0580_eid_dnn_32-0-10_clock_10_n02708093_3360.png,n02708093_3360.png,0.0,-2.907669,-0.5941315,-1.6359181
alexnet_w1_mlp_simclrhn_probe2,1,581,NaN,bear,bear,16-0-10,0581_eid_dnn_16-0-10_bear_10_n02134084_617.png,n02134084_617.png,1.0,0.20560846,-0.010838546,0.15305114
alexnet_w1_mlp_simclrhn_probe2,1,582,NaN,keyboard,dog,1-0-10,0582_eid_dnn_1-0-10_dog_10_n02093991_4081.png,n02093991_4081.png,0.0,-3.3716063,0.060291618,-2.4267182
alexnet_w1_mlp_simclrhn_probe2,1,583,NaN,bear,elephant,16-0-10,0583_eid_dnn_16-0-10_elephant_10_n02504458_1727.png,n02504458_1727.png,0.0,0.7889626,1.0871872,-0.21087661
alexnet_w1_mlp_simclrhn_probe2,1,584,NaN,bird,clock,32-0-10,0584_eid_dnn_32-0-10_clock_10_n04548280_16295.png,n04548280_16295.png,0.0,-2.202081,-0.8160621,-0.9800634
alexnet_w1_mlp_simclrhn_probe2,1,585,NaN,bear,boat,4-0-10,0585_eid_dnn_4-0-10_boat_10_n02951358_16217.png,n02951358_16217.png,0.0,-2.5016048,2.4313526,-3.488128
alexnet_w1_mlp_simclrhn_probe2,1,586,NaN,bear,airplane,8-0-10,0586_eid_dnn_8-0-10_airplane_10_n02690373_7536.png,n02690373_7536.png,0.0,-2.954459,0.4950747,-2.4391887
alexnet_w1_mlp_simclrhn_probe2,1,587,NaN,cat,cat,8-0-10,0587_eid_dnn_8-0-10_cat_10_n02123597_22140.png,n02123597_22140.png,1.0,0.38120615,0.24634872,0.0953586
alexnet_w1_mlp_simclrhn_probe2,1,588,NaN,oven,bottle,128-0-10,0588_eid_dnn_128-0-10_bottle_10_n04591713_8914.png,n04591713_8914.png,0.0,-1.4585361,-0.37136725,-0.7687445
alexnet_w1_mlp_simclrhn_probe2,1,589,NaN,oven,car,128-0-10,0589_eid_dnn_128-0-10_car_10_n03100240_963.png,n03100240_963.png,0.0,-6.5682454,-0.32319373,-4.415919
alexnet_w1_mlp_simclrhn_probe2,1,590,NaN,bird,boat,32-0-10,0590_eid_dnn_32-0-10_boat_10_n02951358_18762.png,n02951358_18762.png,0.0,-2.13297,-0.39057308,-1.2320608
alexnet_w1_mlp_simclrhn_probe2,1,591,NaN,bear,bear,32-0-10,0591_eid_dnn_32-0-10_bear_10_n02134418_2633.png,n02134418_2633.png,1.0,0.21013987,-0.2500019,0.3253694
alexnet_w1_mlp_simclrhn_probe2,1,592,NaN,oven,airplane,64-0-10,0592_eid_dnn_64-0-10_airplane_10_n02690373_1169.png,n02690373_1169.png,0.0,-3.8213015,-0.30843377,-2.4839725
alexnet_w1_mlp_simclrhn_probe2,1,593,NaN,bicycle,bicycle,2-0-10,0593_eid_dnn_2-0-10_bicycle_10_n03792782_12704.png,n03792782_12704.png,1.0,-0.1706927,-0.9846,0.5755194
alexnet_w1_mlp_simclrhn_probe2,1,594,NaN,oven,dog,64-0-10,0594_eid_dnn_64-0-10_dog_10_n02088238_2973.png,n02088238_2973.png,0.0,-1.6108593,-0.22863942,-0.977377
alexnet_w1_mlp_simclrhn_probe2,1,595,NaN,oven,knife,32-0-10,0595_eid_dnn_32-0-10_knife_10_n03041632_41493.png,n03041632_41493.png,0.0,-1.7648726,0.09729339,-1.3167502
alexnet_w1_mlp_simclrhn_probe2,1,596,NaN,bird,bottle,128-0-10,0596_eid_dnn_128-0-10_bottle_10_n03983396_2959.png,n03983396_2959.png,0.0,-2.2563105,-1.1917987,-0.7527235
alexnet_w1_mlp_simclrhn_probe2,1,597,NaN,clock,clock,1-0-10,0597_eid_dnn_1-0-10_clock_10_n02708093_2843.png,n02708093_2843.png,1.0,0.9959011,0.23711336,0.53654397
alexnet_w1_mlp_simclrhn_probe2,1,598,NaN,bear,oven,8-0-10,0598_eid_dnn_8-0-10_oven_10_n04111531_12952.png,n04111531_12952.png,0.0,-1.1925822,0.6977506,-1.3366673
alexnet_w1_mlp_simclrhn_probe2,1,599,NaN,bear,bear,16-0-10,0599_eid_dnn_16-0-10_bear_10_n02134418_2891.png,n02134418_2891.png,1.0,0.8669851,-0.008138701,0.618806
alexnet_w1_mlp_simclrhn_probe2,1,600,NaN,oven,truck,32-0-10,0600_eid_dnn_32-0-10_truck_10_n03417042_3862.png,n03417042_3862.png,0.0,-3.5850244,0.62799513,-2.9790547
alexnet_w1_mlp_simclrhn_probe2,1,601,NaN,oven,elephant,16-0-10,0601_eid_dnn_16-0-10_elephant_10_n02504458_2054.png,n02504458_2054.png,0.0,-0.13043427,0.47576118,-0.42864493
alexnet_w1_mlp_simclrhn_probe2,1,602,NaN,airplane,airplane,1-0-10,0602_eid_dnn_1-0-10_airplane_10_n02690373_7355.png,n02690373_7355.png,1.0,4.476274,0.5625438,2.767425
