subj,session,trial,rt,object_response,category,condition,imagename,filename,is_correct,targ_act,max_nontarg_act,decision_margin
alexnet_w1_mlp_simclrhn_probe3,1,1,NaN,bear,oven,16-0-10,0001_eid_dnn_16-0-10_oven_10_n04111531_13542.png,n04111531_13542.png,0.0,0.6083847,0.91527444,-0.2170038
alexnet_w1_mlp_simclrhn_probe3,1,2,NaN,car,car,4-0-10,0002_eid_dnn_4-0-10_car_10_n03100240_5570.png,n03100240_5570.png,1.0,1.0022975,0.5561673,0.3154617
alexnet_w1_mlp_simclrhn_probe3,1,3,NaN,oven,bird,8-0-10,0003_eid_dnn_8-0-10_bird_10_n01820546_4847.png,n01820546_4847.png,0.0,-0.24313831,0.879323,-0.79370004
alexnet_w1_mlp_simclrhn_probe3,1,4,NaN,bear,bear,32-0-10,0004_eid_dnn_32-0-10_bear_10_n02133161_15561.png,n02133161_15561.png,1.0,0.6248987,0.5177807,0.07574383
alexnet_w1_mlp_simclrhn_probe3,1,5,NaN,oven,bird,64-0-10,0005_eid_dnn_64-0-10_bird_10_n01531178_9584.png,n01531178_9584.png,0.0,-0.12635668,0.33530292,-0.32644266
alexnet_w1_mlp_simclrhn_probe3,1,6,NaN,bear,bicycle,8-0-10,0006_eid_dnn_8-0-10_bicycle_10_n02835271_18846.png,n02835271_18846.png,0.0,-0.06852766,1.5335519,-1.1328413
alexnet_w1_mlp_simclrhn_probe3,1,7,NaN,oven,oven,4-0-10,0007_eid_dnn_4-0-10_oven_10_n04111531_73.png,n04111531_73.png,1.0,1.5922959,1.3517488,0.17009246
alexnet_w1_mlp_simclrhn_probe3,1,8,NaN,cat,clock,2-0-10,0008_eid_dnn_2-0-10_clock_10_n04548280_6159.png,n04548280_6159.png,0.0,-0.09395143,0.87238866,-0.6833056
alexnet_w1_mlp_simclrhn_probe3,1,9,NaN,oven,chair,32-0-10,0009_eid_dnn_32-0-10_chair_10_n03376595_9395.png,n03376595_9395.png,0.0,0.082367204,1.1637805,-0.76467466
alexnet_w1_mlp_simclrhn_probe3,1,10,NaN,oven,bicycle,64-0-10,0010_eid_dnn_64-0-10_bicycle_10_n02835271_1918.png,n02835271_1918.png,0.0,-0.045841075,0.1807699,-0.16023818
alexnet_w1_mlp_simclrhn_probe3,1,11,NaN,oven,bicycle,128-0-10,0011_eid_dnn_128-0-10_bicycle_10_n02835271_42320.png,n02835271_42320.png,0.0,-0.21633585,0.43740064,-0.4622615
alexnet_w1_mlp_simclrhn_probe3,1,12,NaN,elephant,elephant,1-0-10,0012_eid_dnn_1-0-10_elephant_10_n02504458_3628.png,n02504458_3628.png,1.0,5.4844856,2.1155343,2.3822083
alexnet_w1_mlp_simclrhn_probe3,1,13,NaN,oven,knife,64-0-10,0013_eid_dnn_64-0-10_knife_10_n03041632_86554.png,n03041632_86554.png,0.0,0.07149108,0.48819897,-0.29465696
alexnet_w1_mlp_simclrhn_probe3,1,14,NaN,bear,cat,8-0-10,0014_eid_dnn_8-0-10_cat_10_n02123394_1726.png,n02123394_1726.png,0.0,0.48283103,0.5500133,-0.04750504
alexnet_w1_mlp_simclrhn_probe3,1,15,NaN,bear,cat,32-0-10,0015_eid_dnn_32-0-10_cat_10_n02123597_6721.png,n02123597_6721.png,0.0,0.12722284,0.4665177,-0.2399177
alexnet_w1_mlp_simclrhn_probe3,1,16,NaN,oven,oven,2-0-10,0016_eid_dnn_2-0-10_oven_10_n04111531_21869.png,n04111531_21869.png,1.0,1.7854996,1.0725317,0.50414443
alexnet_w1_mlp_simclrhn_probe3,1,17,NaN,bear,bear,4-0-10,0017_eid_dnn_4-0-10_bear_10_n02134084_2949.png,n02134084_2949.png,1.0,1.0953654,0.654608,0.31166255
alexnet_w1_mlp_simclrhn_probe3,1,18,NaN,bear,truck,8-0-10,0018_eid_dnn_8-0-10_truck_10_n03417042_18743.png,n03417042_18743.png,0.0,-0.32194012,1.1277914,-1.025115
alexnet_w1_mlp_simclrhn_probe3,1,19,NaN,bear,bird,16-0-10,0019_eid_dnn_16-0-10_bird_10_n01616318_4246.png,n01616318_4246.png,0.0,-0.1012963,0.7350439,-0.59138185
alexnet_w1_mlp_simclrhn_probe3,1,20,NaN,bear,bicycle,8-0-10,0020_eid_dnn_8-0-10_bicycle_10_n03792782_66771.png,n03792782_66771.png,0.0,-0.068099014,0.7628234,-0.5875509
alexnet_w1_mlp_simclrhn_probe3,1,21,NaN,keyboard,keyboard,2-0-10,0021_eid_dnn_2-0-10_keyboard_10_n04505470_3531.png,n04505470_3531.png,1.0,3.4285877,1.0505949,1.6814947
alexnet_w1_mlp_simclrhn_probe3,1,22,NaN,oven,clock,8-0-10,0022_eid_dnn_8-0-10_clock_10_n04548280_6463.png,n04548280_6463.png,0.0,-0.08613137,0.88283396,-0.685162
alexnet_w1_mlp_simclrhn_probe3,1,23,NaN,oven,keyboard,16-0-10,0023_eid_dnn_16-0-10_keyboard_10_n04505470_4974.png,n04505470_4974.png,0.0,-0.20617662,0.63973415,-0.59814924
alexnet_w1_mlp_simclrhn_probe3,1,24,NaN,oven,chair,4-0-10,0024_eid_dnn_4-0-10_chair_10_n03376595_360.png,n03376595_360.png,0.0,-0.6028363,0.51272655,-0.7888221
alexnet_w1_mlp_simclrhn_probe3,1,25,NaN,bear,dog,16-0-10,0025_eid_dnn_16-0-10_dog_10_n02097130_2752.png,n02097130_2752.png,0.0,0.039313544,0.813294,-0.5472868
alexnet_w1_mlp_simclrhn_probe3,1,26,NaN,oven,bicycle,2-0-10,0026_eid_dnn_2-0-10_bicycle_10_n02835271_3406.png,n02835271_3406.png,0.0,0.016033694,1.3756914,-0.9614232
alexnet_w1_mlp_simclrhn_probe3,1,27,NaN,oven,bottle,16-0-10,0027_eid_dnn_16-0-10_bottle_10_n04560804_11732.png,n04560804_11732.png,0.0,0.09151477,0.8746867,-0.5537862
alexnet_w1_mlp_simclrhn_probe3,1,28,NaN,oven,bottle,32-0-10,0028_eid_dnn_32-0-10_bottle_10_n04591713_13589.png,n04591713_13589.png,0.0,0.102631845,0.8727292,-0.54454106
alexnet_w1_mlp_simclrhn_probe3,1,29,NaN,cat,cat,2-0-10,0029_eid_dnn_2-0-10_cat_10_n02123045_4009.png,n02123045_4009.png,1.0,3.7106273,0.6001383,2.1994479
alexnet_w1_mlp_simclrhn_probe3,1,30,NaN,cat,chair,8-0-10,0030_eid_dnn_8-0-10_chair_10_n02791124_1704.png,n02791124_1704.png,0.0,-0.35261846,0.7616074,-0.78787667
alexnet_w1_mlp_simclrhn_probe3,1,31,NaN,oven,bicycle,128-0-10,0031_eid_dnn_128-0-10_bicycle_10_n03792782_28395.png,n03792782_28395.png,0.0,-0.08409819,0.2553842,-0.24005032
alexnet_w1_mlp_simclrhn_probe3,1,32,NaN,bear,truck,16-0-10,0032_eid_dnn_16-0-10_truck_10_n03417042_4288.png,n03417042_4288.png,0.0,-0.31398216,0.9776106,-0.91329396
alexnet_w1_mlp_simclrhn_probe3,1,33,NaN,keyboard,keyboard,1-0-10,0033_eid_dnn_1-0-10_keyboard_10_n04505470_3371.png,n04505470_3371.png,1.0,3.0668654,1.1861515,1.3298656
alexnet_w1_mlp_simclrhn_probe3,1,34,NaN,cat,cat,1-0-10,0034_eid_dnn_1-0-10_cat_10_n02124075_13436.png,n02124075_13436.png,1.0,2.859724,1.0503398,1.2794279
alexnet_w1_mlp_simclrhn_probe3,1,35,NaN,oven,dog,32-0-10,0035_eid_dnn_32-0-10_dog_10_n02097209_8270.png,n02097209_8270.png,0.0,-0.13154954,0.73732954,-0.6143903
alexnet_w1_mlp_simclrhn_probe3,1,36,NaN,oven,clock,128-0-10,0036_eid_dnn_128-0-10_clock_10_n04548280_7795.png,n04548280_7795.png,0.0,-0.07324251,0.22707814,-0.21235877
alexnet_w1_mlp_simclrhn_probe3,1,37,NaN,oven,car,32-0-10,0037_eid_dnn_32-0-10_car_10_n03100240_21737.png,n03100240_21737.png,0.0,-0.34195003,0.5361301,-0.6208964
alexnet_w1_mlp_simclrhn_probe3,1,38,NaN,oven,clock,128-0-10,0038_eid_dnn_128-0-10_clock_10_n02708093_1862.png,n02708093_1862.png,0.0,0.09013439,0.32147744,-0.16358425
alexnet_w1_mlp_simclrhn_probe3,1,39,NaN,bird,bicycle,64-0-10,0039_eid_dnn_64-0-10_bicycle_10_n03792782_9412.png,n03792782_9412.png,0.0,0.05586011,0.095569715,-0.028078932
alexnet_w1_mlp_simclrhn_probe3,1,40,NaN,bear,bear,32-0-10,0040_eid_dnn_32-0-10_bear_10_n02134418_163.png,n02134418_163.png,1.0,0.41225588,0.320575,0.06482818
alexnet_w1_mlp_simclrhn_probe3,1,41,NaN,bear,keyboard,16-0-10,0041_eid_dnn_16-0-10_keyboard_10_n03085013_25675.png,n03085013_25675.png,0.0,-0.060670435,0.41859928,-0.33889487
alexnet_w1_mlp_simclrhn_probe3,1,42,NaN,oven,truck,2-0-10,0042_eid_dnn_2-0-10_truck_10_n03417042_1716.png,n03417042_1716.png,0.0,0.43213522,1.2714393,-0.5934776
alexnet_w1_mlp_simclrhn_probe3,1,43,NaN,elephant,keyboard,128-0-10,0043_eid_dnn_128-0-10_keyboard_10_n03085013_18854.png,n03085013_18854.png,0.0,0.031488225,0.034394808,-0.0020552648
alexnet_w1_mlp_simclrhn_probe3,1,44,NaN,oven,bottle,32-0-10,0044_eid_dnn_32-0-10_bottle_10_n04591713_4865.png,n04591713_4865.png,0.0,0.07959738,0.96259654,-0.62437475
alexnet_w1_mlp_simclrhn_probe3,1,45,NaN,bear,bicycle,32-0-10,0045_eid_dnn_32-0-10_bicycle_10_n03792782_693.png,n03792782_693.png,0.0,0.16419098,0.7463676,-0.411661
alexnet_w1_mlp_simclrhn_probe3,1,46,NaN,dog,bottle,1-0-10,0046_eid_dnn_1-0-10_bottle_10_n04557648_264.png,n04557648_264.png,0.0,-0.05047997,0.7844026,-0.5903511
alexnet_w1_mlp_simclrhn_probe3,1,47,NaN,oven,knife,2-0-10,0047_eid_dnn_2-0-10_knife_10_n03041632_25512.png,n03041632_25512.png,0.0,0.27719122,0.33564946,-0.041336216
alexnet_w1_mlp_simclrhn_probe3,1,48,NaN,bear,boat,16-0-10,0048_eid_dnn_16-0-10_boat_10_n03344393_2381.png,n03344393_2381.png,0.0,-0.035518598,0.5649575,-0.42460072
alexnet_w1_mlp_simclrhn_probe3,1,49,NaN,keyboard,dog,128-0-10,0049_eid_dnn_128-0-10_dog_10_n02110627_17670.png,n02110627_17670.png,0.0,-0.036607437,0.48577672,-0.3693814
alexnet_w1_mlp_simclrhn_probe3,1,50,NaN,keyboard,bear,64-0-10,0050_eid_dnn_64-0-10_bear_10_n02133161_15981.png,n02133161_15981.png,0.0,0.014854625,0.47400895,-0.32467112
alexnet_w1_mlp_simclrhn_probe3,1,51,NaN,bear,elephant,16-0-10,0051_eid_dnn_16-0-10_elephant_10_n02504458_3570.png,n02504458_3570.png,0.0,0.6451193,0.9679011,-0.2282412
alexnet_w1_mlp_simclrhn_probe3,1,52,NaN,bottle,truck,4-0-10,0052_eid_dnn_4-0-10_truck_10_n03417042_6241.png,n03417042_6241.png,0.0,-0.111102514,1.7191639,-1.2941937
alexnet_w1_mlp_simclrhn_probe3,1,53,NaN,bear,bird,8-0-10,0053_eid_dnn_8-0-10_bird_10_n02025239_17670.png,n02025239_17670.png,0.0,-0.015091273,0.6245499,-0.45229465
alexnet_w1_mlp_simclrhn_probe3,1,54,NaN,bear,dog,16-0-10,0054_eid_dnn_16-0-10_dog_10_n02106030_19249.png,n02106030_19249.png,0.0,-0.004801477,0.48260406,-0.34464777
alexnet_w1_mlp_simclrhn_probe3,1,55,NaN,bear,keyboard,32-0-10,0055_eid_dnn_32-0-10_keyboard_10_n04505470_2326.png,n04505470_2326.png,0.0,-0.022867218,0.54038787,-0.39828148
alexnet_w1_mlp_simclrhn_probe3,1,56,NaN,bear,dog,16-0-10,0056_eid_dnn_16-0-10_dog_10_n02107142_9379.png,n02107142_9379.png,0.0,-0.0121876495,0.44312572,-0.32195517
alexnet_w1_mlp_simclrhn_probe3,1,57,NaN,bear,cat,64-0-10,0057_eid_dnn_64-0-10_cat_10_n02123394_1828.png,n02123394_1828.png,0.0,0.0108615905,0.34527317,-0.2364647
alexnet_w1_mlp_simclrhn_probe3,1,58,NaN,oven,car,32-0-10,0058_eid_dnn_32-0-10_car_10_n03100240_4605.png,n03100240_4605.png,0.0,-0.28330708,1.0207522,-0.9221092
alexnet_w1_mlp_simclrhn_probe3,1,59,NaN,oven,bicycle,4-0-10,0059_eid_dnn_4-0-10_bicycle_10_n03792782_6765.png,n03792782_6765.png,0.0,0.1851987,0.8702714,-0.48441952
alexnet_w1_mlp_simclrhn_probe3,1,60,NaN,bear,boat,8-0-10,0060_eid_dnn_8-0-10_boat_10_n03344393_8455.png,n03344393_8455.png,0.0,-0.40370983,0.56662995,-0.68613386
alexnet_w1_mlp_simclrhn_probe3,1,61,NaN,oven,oven,16-0-10,0061_eid_dnn_16-0-10_oven_10_n04111531_8603.png,n04111531_8603.png,1.0,1.1560158,0.65524846,0.35409597
alexnet_w1_mlp_simclrhn_probe3,1,62,NaN,bird,bird,2-0-10,0062_eid_dnn_2-0-10_bird_10_n02051845_2574.png,n02051845_2574.png,1.0,1.6940079,0.7124331,0.6940782
alexnet_w1_mlp_simclrhn_probe3,1,63,NaN,boat,boat,4-0-10,0063_eid_dnn_4-0-10_boat_10_n04612504_15875.png,n04612504_15875.png,1.0,1.5839119,0.30888188,0.90158236
alexnet_w1_mlp_simclrhn_probe3,1,64,NaN,oven,bottle,4-0-10,0064_eid_dnn_4-0-10_bottle_10_n03983396_7337.png,n03983396_7337.png,0.0,0.5338631,0.6336945,-0.070591465
alexnet_w1_mlp_simclrhn_probe3,1,65,NaN,cat,clock,8-0-10,0065_eid_dnn_8-0-10_clock_10_n02708093_6822.png,n02708093_6822.png,0.0,-0.13296793,1.021958,-0.816656
alexnet_w1_mlp_simclrhn_probe3,1,66,NaN,oven,truck,2-0-10,0066_eid_dnn_2-0-10_truck_10_n04467665_15994.png,n04467665_15994.png,0.0,0.5044011,0.94426996,-0.31103426
alexnet_w1_mlp_simclrhn_probe3,1,67,NaN,bottle,cat,128-0-10,0067_eid_dnn_128-0-10_cat_10_n02123597_6291.png,n02123597_6291.png,0.0,-0.12545246,0.07508601,-0.14180212
alexnet_w1_mlp_simclrhn_probe3,1,68,NaN,cat,bird,8-0-10,0068_eid_dnn_8-0-10_bird_10_n01817953_1734.png,n01817953_1734.png,0.0,0.13028777,1.7965437,-1.1782209
alexnet_w1_mlp_simclrhn_probe3,1,69,NaN,oven,elephant,32-0-10,0069_eid_dnn_32-0-10_elephant_10_n02504458_6880.png,n02504458_6880.png,0.0,0.25090256,0.88717806,-0.44991475
alexnet_w1_mlp_simclrhn_probe3,1,70,NaN,oven,cat,16-0-10,0070_eid_dnn_16-0-10_cat_10_n02123597_13197.png,n02123597_13197.png,0.0,0.41405693,0.91870296,-0.35683867
alexnet_w1_mlp_simclrhn_probe3,1,71,NaN,bear,bicycle,64-0-10,0071_eid_dnn_64-0-10_bicycle_10_n03792782_973.png,n03792782_973.png,0.0,0.10719436,0.25849843,-0.10698813
alexnet_w1_mlp_simclrhn_probe3,1,72,NaN,cat,cat,2-0-10,0072_eid_dnn_2-0-10_cat_10_n02124075_8310.png,n02124075_8310.png,1.0,3.5911152,1.2228903,1.6745881
alexnet_w1_mlp_simclrhn_probe3,1,73,NaN,oven,oven,32-0-10,0073_eid_dnn_32-0-10_oven_10_n04111531_5168.png,n04111531_5168.png,1.0,0.67780554,0.3171019,0.255056
alexnet_w1_mlp_simclrhn_probe3,1,74,NaN,airplane,airplane,1-0-10,0074_eid_dnn_1-0-10_airplane_10_n02690373_4893.png,n02690373_4893.png,1.0,4.627926,0.37732574,3.0056283
alexnet_w1_mlp_simclrhn_probe3,1,75,NaN,keyboard,dog,1-0-10,0075_eid_dnn_1-0-10_dog_10_n02086240_3614.png,n02086240_3614.png,0.0,0.48429736,0.9078394,-0.29948947
alexnet_w1_mlp_simclrhn_probe3,1,76,NaN,oven,oven,16-0-10,0076_eid_dnn_16-0-10_oven_10_n04111531_2937.png,n04111531_2937.png,1.0,1.0030892,0.5822719,0.29756278
alexnet_w1_mlp_simclrhn_probe3,1,77,NaN,airplane,clock,1-0-10,0077_eid_dnn_1-0-10_clock_10_n03196217_2022.png,n03196217_2022.png,0.0,0.24700426,0.6347066,-0.27414697
alexnet_w1_mlp_simclrhn_probe3,1,78,NaN,oven,bottle,64-0-10,0078_eid_dnn_64-0-10_bottle_10_n04591713_2732.png,n04591713_2732.png,0.0,0.11193602,0.2731027,-0.113962054
alexnet_w1_mlp_simclrhn_probe3,1,79,NaN,car,car,2-0-10,0079_eid_dnn_2-0-10_car_10_n03100240_8794.png,n03100240_8794.png,1.0,2.4919908,1.4573588,0.7315953
alexnet_w1_mlp_simclrhn_probe3,1,80,NaN,oven,airplane,16-0-10,0080_eid_dnn_16-0-10_airplane_10_n02690373_3640.png,n02690373_3640.png,0.0,-0.08946289,0.75298786,-0.59570265
alexnet_w1_mlp_simclrhn_probe3,1,81,NaN,oven,bicycle,64-0-10,0081_eid_dnn_64-0-10_bicycle_10_n03792782_41097.png,n03792782_41097.png,0.0,0.025281593,0.42640176,-0.2836348
alexnet_w1_mlp_simclrhn_probe3,1,82,NaN,oven,dog,64-0-10,0082_eid_dnn_64-0-10_dog_10_n02090721_6770.png,n02090721_6770.png,0.0,-0.07166176,0.1827758,-0.17991453
alexnet_w1_mlp_simclrhn_probe3,1,83,NaN,bear,cat,16-0-10,0083_eid_dnn_16-0-10_cat_10_n02123597_28968.png,n02123597_28968.png,0.0,0.3430946,0.4690287,-0.08904888
alexnet_w1_mlp_simclrhn_probe3,1,84,NaN,elephant,elephant,1-0-10,0084_eid_dnn_1-0-10_elephant_10_n02504013_5894.png,n02504013_5894.png,1.0,9.709154,2.8596816,4.8433084
alexnet_w1_mlp_simclrhn_probe3,1,85,NaN,oven,oven,32-0-10,0085_eid_dnn_32-0-10_oven_10_n04111531_9314.png,n04111531_9314.png,1.0,0.5241713,0.15186904,0.26325744
alexnet_w1_mlp_simclrhn_probe3,1,86,NaN,elephant,elephant,1-0-10,0086_eid_dnn_1-0-10_elephant_10_n02504458_12074.png,n02504458_12074.png,1.0,3.3596106,1.3726926,1.4049633
alexnet_w1_mlp_simclrhn_probe3,1,87,NaN,boat,boat,4-0-10,0087_eid_dnn_4-0-10_boat_10_n03344393_3773.png,n03344393_3773.png,1.0,0.9833039,0.616883,0.25909874
alexnet_w1_mlp_simclrhn_probe3,1,88,NaN,oven,truck,128-0-10,0088_eid_dnn_128-0-10_truck_10_n04467665_80153.png,n04467665_80153.png,0.0,-0.31259015,0.2968085,-0.43090993
alexnet_w1_mlp_simclrhn_probe3,1,89,NaN,oven,chair,128-0-10,0089_eid_dnn_128-0-10_chair_10_n04099969_20604.png,n04099969_20604.png,0.0,0.020875454,0.28225714,-0.18482476
alexnet_w1_mlp_simclrhn_probe3,1,90,NaN,oven,keyboard,32-0-10,0090_eid_dnn_32-0-10_keyboard_10_n03085013_23625.png,n03085013_23625.png,0.0,0.013439663,0.54731923,-0.37750986
alexnet_w1_mlp_simclrhn_probe3,1,91,NaN,elephant,truck,64-0-10,0091_eid_dnn_64-0-10_truck_10_n03796401_1458.png,n03796401_1458.png,0.0,-0.3140997,0.30216187,-0.43576276
alexnet_w1_mlp_simclrhn_probe3,1,92,NaN,oven,car,4-0-10,0092_eid_dnn_4-0-10_car_10_n03100240_18711.png,n03100240_18711.png,0.0,-0.47545195,0.639743,-0.7885619
alexnet_w1_mlp_simclrhn_probe3,1,93,NaN,elephant,truck,128-0-10,0093_eid_dnn_128-0-10_truck_10_n03796401_2988.png,n03796401_2988.png,0.0,-0.31702882,0.214922,-0.37614605
alexnet_w1_mlp_simclrhn_probe3,1,94,NaN,truck,truck,2-0-10,0094_eid_dnn_2-0-10_truck_10_n03417042_7096.png,n03417042_7096.png,1.0,3.3044283,0.44955125,2.018703
alexnet_w1_mlp_simclrhn_probe3,1,95,NaN,cat,dog,8-0-10,0095_eid_dnn_8-0-10_dog_10_n02105855_9345.png,n02105855_9345.png,0.0,0.34653357,1.424109,-0.7619609
alexnet_w1_mlp_simclrhn_probe3,1,96,NaN,bear,bird,32-0-10,0096_eid_dnn_32-0-10_bird_10_n01796340_8342.png,n01796340_8342.png,0.0,-0.11063523,0.30431154,-0.29341167
alexnet_w1_mlp_simclrhn_probe3,1,97,NaN,cat,airplane,8-0-10,0097_eid_dnn_8-0-10_airplane_10_n02690373_7293.png,n02690373_7293.png,0.0,-0.15691458,0.9155605,-0.7583544
alexnet_w1_mlp_simclrhn_probe3,1,98,NaN,oven,car,64-0-10,0098_eid_dnn_64-0-10_car_10_n04285008_9811.png,n04285008_9811.png,0.0,-0.4682877,0.49313527,-0.6798287
alexnet_w1_mlp_simclrhn_probe3,1,99,NaN,bear,knife,8-0-10,0099_eid_dnn_8-0-10_knife_10_n03041632_86783.png,n03041632_86783.png,0.0,-0.053418696,1.096643,-0.8132164
alexnet_w1_mlp_simclrhn_probe3,1,100,NaN,oven,oven,16-0-10,0100_eid_dnn_16-0-10_oven_10_n04111531_9867.png,n04111531_9867.png,1.0,1.2014117,1.059103,0.10062746
alexnet_w1_mlp_simclrhn_probe3,1,101,NaN,keyboard,truck,128-0-10,0101_eid_dnn_128-0-10_truck_10_n04467665_22573.png,n04467665_22573.png,0.0,-0.28124696,0.30003598,-0.41102913
alexnet_w1_mlp_simclrhn_probe3,1,102,NaN,elephant,car,128-0-10,0102_eid_dnn_128-0-10_car_10_n02814533_23512.png,n02814533_23512.png,0.0,-0.47293627,0.13987377,-0.43332213
alexnet_w1_mlp_simclrhn_probe3,1,103,NaN,oven,bicycle,16-0-10,0103_eid_dnn_16-0-10_bicycle_10_n03792782_4895.png,n03792782_4895.png,0.0,-0.20406254,0.70517325,-0.6429268
alexnet_w1_mlp_simclrhn_probe3,1,104,NaN,keyboard,keyboard,2-0-10,0104_eid_dnn_2-0-10_keyboard_10_n03085013_23554.png,n03085013_23554.png,1.0,0.8117587,0.7388924,0.05152427
alexnet_w1_mlp_simclrhn_probe3,1,105,NaN,elephant,bear,1-0-10,0105_eid_dnn_1-0-10_bear_10_n02134084_8601.png,n02134084_8601.png,0.0,2.1882448,2.2434292,-0.03902124
alexnet_w1_mlp_simclrhn_probe3,1,106,NaN,bear,bicycle,8-0-10,0106_eid_dnn_8-0-10_bicycle_10_n03792782_126.png,n03792782_126.png,0.0,-0.38089633,0.9316231,-0.9280914
alexnet_w1_mlp_simclrhn_probe3,1,107,NaN,chair,chair,1-0-10,0107_eid_dnn_1-0-10_chair_10_n04099969_3583.png,n04099969_3583.png,1.0,2.3162837,1.8885514,0.30245245
alexnet_w1_mlp_simclrhn_probe3,1,108,NaN,cat,bicycle,8-0-10,0108_eid_dnn_8-0-10_bicycle_10_n02835271_976.png,n02835271_976.png,0.0,-0.43390092,1.1812445,-1.1420803
alexnet_w1_mlp_simclrhn_probe3,1,109,NaN,oven,oven,32-0-10,0109_eid_dnn_32-0-10_oven_10_n04111531_10313.png,n04111531_10313.png,1.0,0.8409148,0.41362152,0.30214196
alexnet_w1_mlp_simclrhn_probe3,1,110,NaN,oven,oven,1-0-10,0110_eid_dnn_1-0-10_oven_10_n04111531_8984.png,n04111531_8984.png,1.0,5.7458534,2.33874,2.409193
alexnet_w1_mlp_simclrhn_probe3,1,111,NaN,bear,elephant,8-0-10,0111_eid_dnn_8-0-10_elephant_10_n02504013_3181.png,n02504013_3181.png,0.0,1.1091361,1.2370057,-0.09041747
alexnet_w1_mlp_simclrhn_probe3,1,112,NaN,oven,keyboard,64-0-10,0112_eid_dnn_64-0-10_keyboard_10_n03085013_21490.png,n03085013_21490.png,0.0,-0.19099003,0.19013512,-0.26949617
alexnet_w1_mlp_simclrhn_probe3,1,113,NaN,knife,bird,4-0-10,0113_eid_dnn_4-0-10_bird_10_n01614925_2708.png,n01614925_2708.png,0.0,0.10261755,0.9353483,-0.5888295
alexnet_w1_mlp_simclrhn_probe3,1,114,NaN,oven,bottle,16-0-10,0114_eid_dnn_16-0-10_bottle_10_n03983396_3109.png,n03983396_3109.png,0.0,0.07347698,0.83451724,-0.5381367
alexnet_w1_mlp_simclrhn_probe3,1,115,NaN,elephant,bear,128-0-10,0115_eid_dnn_128-0-10_bear_10_n02134418_377.png,n02134418_377.png,0.0,0.02258972,0.15869114,-0.09623824
alexnet_w1_mlp_simclrhn_probe3,1,116,NaN,oven,knife,16-0-10,0116_eid_dnn_16-0-10_knife_10_n03041632_7680.png,n03041632_7680.png,0.0,0.08730137,0.95928276,-0.61658394
alexnet_w1_mlp_simclrhn_probe3,1,117,NaN,bear,truck,4-0-10,0117_eid_dnn_4-0-10_truck_10_n03417042_3807.png,n03417042_3807.png,0.0,0.15837778,0.9347415,-0.5489721
alexnet_w1_mlp_simclrhn_probe3,1,118,NaN,oven,elephant,128-0-10,0118_eid_dnn_128-0-10_elephant_10_n02504013_6501.png,n02504013_6501.png,0.0,0.19242686,0.45633405,-0.18661056
alexnet_w1_mlp_simclrhn_probe3,1,119,NaN,oven,bicycle,32-0-10,0119_eid_dnn_32-0-10_bicycle_10_n03792782_5517.png,n03792782_5517.png,0.0,-0.15476318,0.28526166,-0.31114456
alexnet_w1_mlp_simclrhn_probe3,1,120,NaN,keyboard,bottle,128-0-10,0120_eid_dnn_128-0-10_bottle_10_n02823428_5791.png,n02823428_5791.png,0.0,0.08959092,0.37050653,-0.19863734
alexnet_w1_mlp_simclrhn_probe3,1,121,NaN,oven,car,128-0-10,0121_eid_dnn_128-0-10_car_10_n04285008_10144.png,n04285008_10144.png,0.0,-0.50983053,0.25210413,-0.5387692
alexnet_w1_mlp_simclrhn_probe3,1,122,NaN,cat,cat,4-0-10,0122_eid_dnn_4-0-10_cat_10_n02123159_5764.png,n02123159_5764.png,1.0,4.2498355,1.1151024,2.2165911
alexnet_w1_mlp_simclrhn_probe3,1,123,NaN,oven,dog,16-0-10,0123_eid_dnn_16-0-10_dog_10_n02085936_4491.png,n02085936_4491.png,0.0,0.036137536,0.21630082,-0.12739468
alexnet_w1_mlp_simclrhn_probe3,1,124,NaN,oven,bicycle,32-0-10,0124_eid_dnn_32-0-10_bicycle_10_n03792782_6159.png,n03792782_6159.png,0.0,-0.19239119,0.61838883,-0.57330805
alexnet_w1_mlp_simclrhn_probe3,1,125,NaN,clock,clock,4-0-10,0125_eid_dnn_4-0-10_clock_10_n04548280_2404.png,n04548280_2404.png,1.0,2.1739233,0.27494687,1.342779
alexnet_w1_mlp_simclrhn_probe3,1,126,NaN,oven,bottle,64-0-10,0126_eid_dnn_64-0-10_bottle_10_n04591713_360.png,n04591713_360.png,0.0,0.1950804,1.0212431,-0.58418524
alexnet_w1_mlp_simclrhn_probe3,1,127,NaN,bear,airplane,16-0-10,0127_eid_dnn_16-0-10_airplane_10_n02690373_1909.png,n02690373_1909.png,0.0,-0.014696032,0.83329827,-0.59962255
alexnet_w1_mlp_simclrhn_probe3,1,128,NaN,bear,bear,2-0-10,0128_eid_dnn_2-0-10_bear_10_n02133161_9724.png,n02133161_9724.png,1.0,1.7071431,1.0084375,0.49405944
alexnet_w1_mlp_simclrhn_probe3,1,129,NaN,car,car,2-0-10,0129_eid_dnn_2-0-10_car_10_n04285008_5897.png,n04285008_5897.png,1.0,7.6947265,1.9598066,4.055201
alexnet_w1_mlp_simclrhn_probe3,1,130,NaN,bicycle,bicycle,1-0-10,0130_eid_dnn_1-0-10_bicycle_10_n02835271_9807.png,n02835271_9807.png,1.0,4.1144094,0.42210415,2.6108541
alexnet_w1_mlp_simclrhn_probe3,1,131,NaN,knife,keyboard,1-0-10,0131_eid_dnn_1-0-10_keyboard_10_n03085013_23286.png,n03085013_23286.png,0.0,-0.1593863,1.0606849,-0.8627206
alexnet_w1_mlp_simclrhn_probe3,1,132,NaN,oven,clock,2-0-10,0132_eid_dnn_2-0-10_clock_10_n02708093_772.png,n02708093_772.png,0.0,0.290506,1.3899729,-0.77744055
alexnet_w1_mlp_simclrhn_probe3,1,133,NaN,keyboard,clock,4-0-10,0133_eid_dnn_4-0-10_clock_10_n03196217_820.png,n03196217_820.png,0.0,0.4368492,1.3189081,-0.6237098
alexnet_w1_mlp_simclrhn_probe3,1,134,NaN,oven,dog,32-0-10,0134_eid_dnn_32-0-10_dog_10_n02093754_6351.png,n02093754_6351.png,0.0,-0.07693074,0.544799,-0.43962932
alexnet_w1_mlp_simclrhn_probe3,1,135,NaN,cat,truck,8-0-10,0135_eid_dnn_8-0-10_truck_10_n03417042_27093.png,n03417042_27093.png,0.0,-0.51182806,1.3055893,-1.2851082
alexnet_w1_mlp_simclrhn_probe3,1,136,NaN,bear,bicycle,4-0-10,0136_eid_dnn_4-0-10_bicycle_10_n03792782_30530.png,n03792782_30530.png,0.0,-0.49239197,1.7448092,-1.5819402
alexnet_w1_mlp_simclrhn_probe3,1,137,NaN,bottle,bottle,4-0-10,0137_eid_dnn_4-0-10_bottle_10_n03937543_5215.png,n03937543_5215.png,1.0,0.49527565,0.18875615,0.21674202
alexnet_w1_mlp_simclrhn_probe3,1,138,NaN,bicycle,boat,2-0-10,0138_eid_dnn_2-0-10_boat_10_n02951358_9933.png,n02951358_9933.png,0.0,0.1111259,0.5881393,-0.33729944
alexnet_w1_mlp_simclrhn_probe3,1,139,NaN,dog,dog,4-0-10,0139_eid_dnn_4-0-10_dog_10_n02086910_8694.png,n02086910_8694.png,1.0,0.6978645,0.6339456,0.04519748
alexnet_w1_mlp_simclrhn_probe3,1,140,NaN,cat,knife,8-0-10,0140_eid_dnn_8-0-10_knife_10_n03041632_3504.png,n03041632_3504.png,0.0,0.053339325,0.52334887,-0.33234695
alexnet_w1_mlp_simclrhn_probe3,1,141,NaN,keyboard,knife,128-0-10,0141_eid_dnn_128-0-10_knife_10_n03041632_15754.png,n03041632_15754.png,0.0,-0.06518239,0.23758562,-0.2140893
alexnet_w1_mlp_simclrhn_probe3,1,142,NaN,oven,truck,8-0-10,0142_eid_dnn_8-0-10_truck_10_n04467665_45306.png,n04467665_45306.png,0.0,-0.15931587,0.29585797,-0.32185653
alexnet_w1_mlp_simclrhn_probe3,1,143,NaN,elephant,elephant,1-0-10,0143_eid_dnn_1-0-10_elephant_10_n02504013_5351.png,n02504013_5351.png,1.0,1.7035019,0.7524529,0.6724932
alexnet_w1_mlp_simclrhn_probe3,1,144,NaN,oven,bottle,2-0-10,0144_eid_dnn_2-0-10_bottle_10_n03937543_7763.png,n03937543_7763.png,0.0,0.05194587,0.98360217,-0.6587805
alexnet_w1_mlp_simclrhn_probe3,1,145,NaN,bottle,bird,32-0-10,0145_eid_dnn_32-0-10_bird_10_n01843383_91.png,n01843383_91.png,0.0,0.019536773,0.13767852,-0.08353883
alexnet_w1_mlp_simclrhn_probe3,1,146,NaN,bottle,clock,4-0-10,0146_eid_dnn_4-0-10_clock_10_n04548280_28.png,n04548280_28.png,0.0,0.19225113,0.6057569,-0.2923927
alexnet_w1_mlp_simclrhn_probe3,1,147,NaN,oven,knife,16-0-10,0147_eid_dnn_16-0-10_knife_10_n03041632_102828.png,n03041632_102828.png,0.0,0.093895316,0.94332224,-0.6006355
alexnet_w1_mlp_simclrhn_probe3,1,148,NaN,oven,car,128-0-10,0148_eid_dnn_128-0-10_car_10_n03100240_7520.png,n03100240_7520.png,0.0,-0.48724136,0.23629573,-0.511618
alexnet_w1_mlp_simclrhn_probe3,1,149,NaN,oven,knife,16-0-10,0149_eid_dnn_16-0-10_knife_10_n03041632_53874.png,n03041632_53874.png,0.0,0.15162274,0.8449204,-0.49023545
alexnet_w1_mlp_simclrhn_probe3,1,150,NaN,bear,boat,16-0-10,0150_eid_dnn_16-0-10_boat_10_n04273569_3896.png,n04273569_3896.png,0.0,0.08029294,0.5908147,-0.36099342
alexnet_w1_mlp_simclrhn_probe3,1,151,NaN,airplane,airplane,2-0-10,0151_eid_dnn_2-0-10_airplane_10_n02690373_6002.png,n02690373_6002.png,1.0,3.9349942,2.049136,1.3335032
alexnet_w1_mlp_simclrhn_probe3,1,152,NaN,cat,chair,8-0-10,0152_eid_dnn_8-0-10_chair_10_n04099969_7191.png,n04099969_7191.png,0.0,-0.18299936,0.9182909,-0.7787298
alexnet_w1_mlp_simclrhn_probe3,1,153,NaN,oven,dog,32-0-10,0153_eid_dnn_32-0-10_dog_10_n02101388_4808.png,n02101388_4808.png,0.0,-0.12608385,0.6048245,-0.51683027
alexnet_w1_mlp_simclrhn_probe3,1,154,NaN,cat,keyboard,16-0-10,0154_eid_dnn_16-0-10_keyboard_10_n03085013_24538.png,n03085013_24538.png,0.0,0.13003543,0.9571126,-0.5848319
alexnet_w1_mlp_simclrhn_probe3,1,155,NaN,keyboard,knife,128-0-10,0155_eid_dnn_128-0-10_knife_10_n03041632_85488.png,n03041632_85488.png,0.0,-0.27371937,0.5368981,-0.57319313
alexnet_w1_mlp_simclrhn_probe3,1,156,NaN,cat,car,4-0-10,0156_eid_dnn_4-0-10_car_10_n04285008_7630.png,n04285008_7630.png,0.0,-0.36864173,1.4079818,-1.2562625
alexnet_w1_mlp_simclrhn_probe3,1,157,NaN,bear,airplane,8-0-10,0157_eid_dnn_8-0-10_airplane_10_n02690373_2941.png,n02690373_2941.png,0.0,-0.59380615,0.92614925,-1.0747708
alexnet_w1_mlp_simclrhn_probe3,1,158,NaN,oven,bird,64-0-10,0158_eid_dnn_64-0-10_bird_10_n01514859_6021.png,n01514859_6021.png,0.0,-0.12893243,0.17833629,-0.21727182
alexnet_w1_mlp_simclrhn_probe3,1,159,NaN,oven,clock,64-0-10,0159_eid_dnn_64-0-10_clock_10_n04548280_3293.png,n04548280_3293.png,0.0,-0.042050127,0.53920144,-0.41100693
alexnet_w1_mlp_simclrhn_probe3,1,160,NaN,cat,oven,4-0-10,0160_eid_dnn_4-0-10_oven_10_n04111531_4998.png,n04111531_4998.png,0.0,0.562595,0.6762252,-0.08034867
alexnet_w1_mlp_simclrhn_probe3,1,161,NaN,oven,bird,128-0-10,0161_eid_dnn_128-0-10_bird_10_n02028035_32993.png,n02028035_32993.png,0.0,-0.23170638,0.16532499,-0.28074357
alexnet_w1_mlp_simclrhn_probe3,1,162,NaN,clock,bird,2-0-10,0162_eid_dnn_2-0-10_bird_10_n01843383_7800.png,n01843383_7800.png,0.0,0.048841067,0.09671267,-0.03385034
alexnet_w1_mlp_simclrhn_probe3,1,163,NaN,oven,bear,64-0-10,0163_eid_dnn_64-0-10_bear_10_n02132136_15174.png,n02132136_15174.png,0.0,0.079180054,0.33020097,-0.1774986
alexnet_w1_mlp_simclrhn_probe3,1,164,NaN,oven,oven,4-0-10,0164_eid_dnn_4-0-10_oven_10_n04111531_7266.png,n04111531_7266.png,1.0,1.4700718,0.46642414,0.7096861
alexnet_w1_mlp_simclrhn_probe3,1,165,NaN,oven,cat,128-0-10,0165_eid_dnn_128-0-10_cat_10_n02124075_6464.png,n02124075_6464.png,0.0,-0.04023591,0.48851168,-0.37388104
alexnet_w1_mlp_simclrhn_probe3,1,166,NaN,oven,bicycle,16-0-10,0166_eid_dnn_16-0-10_bicycle_10_n02835271_4667.png,n02835271_4667.png,0.0,-0.08246446,0.6559353,-0.52212745
alexnet_w1_mlp_simclrhn_probe3,1,167,NaN,oven,chair,32-0-10,0167_eid_dnn_32-0-10_chair_10_n04099969_2532.png,n04099969_2532.png,0.0,0.033674948,0.5778314,-0.3847767
alexnet_w1_mlp_simclrhn_probe3,1,168,NaN,bottle,bottle,4-0-10,0168_eid_dnn_4-0-10_bottle_10_n04560804_15683.png,n04560804_15683.png,1.0,2.2071018,0.92633307,0.9056403
alexnet_w1_mlp_simclrhn_probe3,1,169,NaN,cat,chair,8-0-10,0169_eid_dnn_8-0-10_chair_10_n04099969_6825.png,n04099969_6825.png,0.0,-0.23459025,1.1523607,-0.9807224
alexnet_w1_mlp_simclrhn_probe3,1,170,NaN,oven,oven,1-0-10,0170_eid_dnn_1-0-10_oven_10_n04111531_1612.png,n04111531_1612.png,1.0,3.3115506,2.7212846,0.41738108
alexnet_w1_mlp_simclrhn_probe3,1,171,NaN,clock,clock,2-0-10,0171_eid_dnn_2-0-10_clock_10_n02708093_1701.png,n02708093_1701.png,1.0,4.0621276,0.31356326,2.6506352
alexnet_w1_mlp_simclrhn_probe3,1,172,NaN,bear,elephant,32-0-10,0172_eid_dnn_32-0-10_elephant_10_n02504013_782.png,n02504013_782.png,0.0,0.12343953,0.39730453,-0.19365181
alexnet_w1_mlp_simclrhn_probe3,1,173,NaN,keyboard,dog,128-0-10,0173_eid_dnn_128-0-10_dog_10_n02107908_8814.png,n02107908_8814.png,0.0,0.017090628,0.20865974,-0.13545981
alexnet_w1_mlp_simclrhn_probe3,1,174,NaN,bear,elephant,4-0-10,0174_eid_dnn_4-0-10_elephant_10_n02504458_5816.png,n02504458_5816.png,0.0,1.0633738,1.4327468,-0.26118612
alexnet_w1_mlp_simclrhn_probe3,1,175,NaN,car,car,2-0-10,0175_eid_dnn_2-0-10_car_10_n03100240_18788.png,n03100240_18788.png,1.0,4.5461516,0.2952074,3.0058715
alexnet_w1_mlp_simclrhn_probe3,1,176,NaN,oven,airplane,16-0-10,0176_eid_dnn_16-0-10_airplane_10_n02690373_7915.png,n02690373_7915.png,0.0,-0.07272532,0.47868833,-0.38990834
alexnet_w1_mlp_simclrhn_probe3,1,177,NaN,oven,chair,4-0-10,0177_eid_dnn_4-0-10_chair_10_n04429376_10544.png,n04429376_10544.png,0.0,0.3179665,2.0484173,-1.2236136
alexnet_w1_mlp_simclrhn_probe3,1,178,NaN,oven,knife,32-0-10,0178_eid_dnn_32-0-10_knife_10_n03041632_24883.png,n03041632_24883.png,0.0,-0.022455841,0.4241313,-0.3157848
alexnet_w1_mlp_simclrhn_probe3,1,179,NaN,keyboard,bicycle,128-0-10,0179_eid_dnn_128-0-10_bicycle_10_n03792782_10367.png,n03792782_10367.png,0.0,-0.27777892,0.5164838,-0.5616286
alexnet_w1_mlp_simclrhn_probe3,1,180,NaN,oven,oven,1-0-10,0180_eid_dnn_1-0-10_oven_10_n04111531_3121.png,n04111531_3121.png,1.0,2.6281023,1.1954073,1.0130684
alexnet_w1_mlp_simclrhn_probe3,1,181,NaN,oven,car,128-0-10,0181_eid_dnn_128-0-10_car_10_n02814533_10995.png,n02814533_10995.png,0.0,-0.48360062,0.1435195,-0.4434409
alexnet_w1_mlp_simclrhn_probe3,1,182,NaN,keyboard,dog,128-0-10,0182_eid_dnn_128-0-10_dog_10_n02112350_502.png,n02112350_502.png,0.0,-0.07072611,0.21809725,-0.20422897
alexnet_w1_mlp_simclrhn_probe3,1,183,NaN,keyboard,clock,128-0-10,0183_eid_dnn_128-0-10_clock_10_n04548280_5278.png,n04548280_5278.png,0.0,-0.33425006,0.32631204,-0.46708795
alexnet_w1_mlp_simclrhn_probe3,1,184,NaN,bear,bird,4-0-10,0184_eid_dnn_4-0-10_bird_10_n02006656_713.png,n02006656_713.png,0.0,-0.10517337,0.36504212,-0.33249256
alexnet_w1_mlp_simclrhn_probe3,1,185,NaN,elephant,bottle,128-0-10,0185_eid_dnn_128-0-10_bottle_10_n04557648_4106.png,n04557648_4106.png,0.0,0.098028675,0.23972169,-0.10019209
alexnet_w1_mlp_simclrhn_probe3,1,186,NaN,elephant,clock,64-0-10,0186_eid_dnn_64-0-10_clock_10_n02708093_1430.png,n02708093_1430.png,0.0,-0.14618738,0.083474256,-0.16239531
alexnet_w1_mlp_simclrhn_probe3,1,187,NaN,oven,oven,1-0-10,0187_eid_dnn_1-0-10_oven_10_n04111531_7664.png,n04111531_7664.png,1.0,4.2525034,1.3923557,2.02243
alexnet_w1_mlp_simclrhn_probe3,1,188,NaN,car,car,1-0-10,0188_eid_dnn_1-0-10_car_10_n02814533_149.png,n02814533_149.png,1.0,4.603478,4.0825977,0.36831793
alexnet_w1_mlp_simclrhn_probe3,1,189,NaN,elephant,clock,64-0-10,0189_eid_dnn_64-0-10_clock_10_n04548280_8296.png,n04548280_8296.png,0.0,-0.008619723,0.101808906,-0.078084834
alexnet_w1_mlp_simclrhn_probe3,1,190,NaN,oven,bottle,64-0-10,0190_eid_dnn_64-0-10_bottle_10_n04591713_5815.png,n04591713_5815.png,0.0,0.10469001,0.6008306,-0.3508244
alexnet_w1_mlp_simclrhn_probe3,1,191,NaN,bottle,knife,2-0-10,0191_eid_dnn_2-0-10_knife_10_n03041632_90125.png,n03041632_90125.png,0.0,0.49587837,1.1491226,-0.46191347
alexnet_w1_mlp_simclrhn_probe3,1,192,NaN,oven,bird,64-0-10,0192_eid_dnn_64-0-10_bird_10_n01534433_16586.png,n01534433_16586.png,0.0,-0.152026,0.34144568,-0.34893718
alexnet_w1_mlp_simclrhn_probe3,1,193,NaN,cat,cat,4-0-10,0193_eid_dnn_4-0-10_cat_10_n02123394_2559.png,n02123394_2559.png,1.0,1.3860674,0.48546824,0.6368198
alexnet_w1_mlp_simclrhn_probe3,1,194,NaN,elephant,elephant,4-0-10,0194_eid_dnn_4-0-10_elephant_10_n02504458_5995.png,n02504458_5995.png,1.0,2.3497586,1.8272009,0.36950412
alexnet_w1_mlp_simclrhn_probe3,1,195,NaN,car,car,2-0-10,0195_eid_dnn_2-0-10_car_10_n02814533_211.png,n02814533_211.png,1.0,5.265645,2.6389802,1.8573326
alexnet_w1_mlp_simclrhn_probe3,1,196,NaN,chair,chair,1-0-10,0196_eid_dnn_1-0-10_chair_10_n04429376_13328.png,n04429376_13328.png,1.0,2.4205267,1.1934624,0.8676655
alexnet_w1_mlp_simclrhn_probe3,1,197,NaN,bear,keyboard,16-0-10,0197_eid_dnn_16-0-10_keyboard_10_n03085013_24618.png,n03085013_24618.png,0.0,-0.03867621,0.5307811,-0.4026671
alexnet_w1_mlp_simclrhn_probe3,1,198,NaN,oven,oven,4-0-10,0198_eid_dnn_4-0-10_oven_10_n04111531_2186.png,n04111531_2186.png,1.0,1.7036284,0.9328393,0.54503024
alexnet_w1_mlp_simclrhn_probe3,1,199,NaN,cat,oven,8-0-10,0199_eid_dnn_8-0-10_oven_10_n04111531_114.png,n04111531_114.png,0.0,0.38863704,1.1132498,-0.5123786
alexnet_w1_mlp_simclrhn_probe3,1,200,NaN,car,car,1-0-10,0200_eid_dnn_1-0-10_car_10_n03100240_1745.png,n03100240_1745.png,1.0,7.3524284,1.6074076,4.062343
alexnet_w1_mlp_simclrhn_probe3,1,201,NaN,cat,cat,4-0-10,0201_eid_dnn_4-0-10_cat_10_n02123394_1259.png,n02123394_1259.png,1.0,1.3880256,0.5920628,0.56283075
alexnet_w1_mlp_simclrhn_probe3,1,202,NaN,oven,oven,4-0-10,0202_eid_dnn_4-0-10_oven_10_n04111531_5801.png,n04111531_5801.png,1.0,0.7905509,0.63860387,0.107442774
alexnet_w1_mlp_simclrhn_probe3,1,203,NaN,oven,airplane,32-0-10,0203_eid_dnn_32-0-10_airplane_10_n02690373_2024.png,n02690373_2024.png,0.0,0.10303055,0.5182599,-0.29361147
alexnet_w1_mlp_simclrhn_probe3,1,204,NaN,bear,cat,8-0-10,0204_eid_dnn_8-0-10_cat_10_n02123045_12181.png,n02123045_12181.png,0.0,0.6145914,0.6559982,-0.029278995
alexnet_w1_mlp_simclrhn_probe3,1,205,NaN,oven,airplane,64-0-10,0205_eid_dnn_64-0-10_airplane_10_n02690373_3313.png,n02690373_3313.png,0.0,0.020055398,0.6297976,-0.43115282
alexnet_w1_mlp_simclrhn_probe3,1,206,NaN,oven,truck,64-0-10,0206_eid_dnn_64-0-10_truck_10_n04467665_80465.png,n04467665_80465.png,0.0,-0.2873447,0.21595675,-0.35588786
alexnet_w1_mlp_simclrhn_probe3,1,207,NaN,keyboard,elephant,2-0-10,0207_eid_dnn_2-0-10_elephant_10_n02504013_8626.png,n02504013_8626.png,0.0,0.33477095,0.5151442,-0.12754317
alexnet_w1_mlp_simclrhn_probe3,1,208,NaN,oven,car,16-0-10,0208_eid_dnn_16-0-10_car_10_n04285008_7904.png,n04285008_7904.png,0.0,-0.47951886,1.3549035,-1.2971325
alexnet_w1_mlp_simclrhn_probe3,1,209,NaN,bear,airplane,8-0-10,0209_eid_dnn_8-0-10_airplane_10_n02690373_6363.png,n02690373_6363.png,0.0,-2.0072112,1.0711814,-2.1767523
alexnet_w1_mlp_simclrhn_probe3,1,210,NaN,cat,cat,4-0-10,0210_eid_dnn_4-0-10_cat_10_n02123045_7294.png,n02123045_7294.png,1.0,0.650717,0.4689167,0.12855223
alexnet_w1_mlp_simclrhn_probe3,1,211,NaN,keyboard,airplane,128-0-10,0211_eid_dnn_128-0-10_airplane_10_n02690373_6988.png,n02690373_6988.png,0.0,-0.14326465,0.47176102,-0.4348888
alexnet_w1_mlp_simclrhn_probe3,1,212,NaN,cat,cat,4-0-10,0212_eid_dnn_4-0-10_cat_10_n02125311_25749.png,n02125311_25749.png,1.0,0.8614591,0.3559013,0.35748333
alexnet_w1_mlp_simclrhn_probe3,1,213,NaN,oven,bird,64-0-10,0213_eid_dnn_64-0-10_bird_10_n02018207_12980.png,n02018207_12980.png,0.0,-0.1808471,0.4635271,-0.45564136
alexnet_w1_mlp_simclrhn_probe3,1,214,NaN,oven,cat,32-0-10,0214_eid_dnn_32-0-10_cat_10_n02123394_2814.png,n02123394_2814.png,0.0,0.17166908,0.46764413,-0.20928596
alexnet_w1_mlp_simclrhn_probe3,1,215,NaN,car,car,4-0-10,0215_eid_dnn_4-0-10_car_10_n04285008_662.png,n04285008_662.png,1.0,0.7825648,0.17215285,0.43162647
alexnet_w1_mlp_simclrhn_probe3,1,216,NaN,bicycle,bicycle,2-0-10,0216_eid_dnn_2-0-10_bicycle_10_n03792782_11679.png,n03792782_11679.png,1.0,0.79339033,0.3889193,0.28600422
alexnet_w1_mlp_simclrhn_probe3,1,217,NaN,bear,dog,16-0-10,0217_eid_dnn_16-0-10_dog_10_n02093428_17769.png,n02093428_17769.png,0.0,0.21650927,0.73719454,-0.3681801
alexnet_w1_mlp_simclrhn_probe3,1,218,NaN,oven,dog,64-0-10,0218_eid_dnn_64-0-10_dog_10_n02106030_17418.png,n02106030_17418.png,0.0,-0.112761125,0.46457916,-0.40824124
alexnet_w1_mlp_simclrhn_probe3,1,219,NaN,oven,chair,64-0-10,0219_eid_dnn_64-0-10_chair_10_n02791124_7142.png,n02791124_7142.png,0.0,0.08179167,0.8677453,-0.5557532
alexnet_w1_mlp_simclrhn_probe3,1,220,NaN,oven,bear,1-0-10,0220_eid_dnn_1-0-10_bear_10_n02134084_18083.png,n02134084_18083.png,0.0,0.5707236,0.5911008,-0.01440887
alexnet_w1_mlp_simclrhn_probe3,1,221,NaN,keyboard,keyboard,2-0-10,0221_eid_dnn_2-0-10_keyboard_10_n03085013_7536.png,n03085013_7536.png,1.0,3.2849288,1.2964585,1.4060608
alexnet_w1_mlp_simclrhn_probe3,1,222,NaN,bird,bird,1-0-10,0222_eid_dnn_1-0-10_bird_10_n01616318_2473.png,n01616318_2473.png,1.0,2.0127547,1.4950505,0.36607212
alexnet_w1_mlp_simclrhn_probe3,1,223,NaN,elephant,elephant,1-0-10,0223_eid_dnn_1-0-10_elephant_10_n02504458_5951.png,n02504458_5951.png,1.0,7.141412,3.104754,2.8543482
alexnet_w1_mlp_simclrhn_probe3,1,224,NaN,airplane,airplane,4-0-10,0224_eid_dnn_4-0-10_airplane_10_n02690373_5164.png,n02690373_5164.png,1.0,0.55533653,0.33879894,0.1531152
alexnet_w1_mlp_simclrhn_probe3,1,225,NaN,elephant,elephant,4-0-10,0225_eid_dnn_4-0-10_elephant_10_n02504013_1865.png,n02504013_1865.png,1.0,3.557628,2.3128498,0.8801911
alexnet_w1_mlp_simclrhn_probe3,1,226,NaN,knife,knife,1-0-10,0226_eid_dnn_1-0-10_knife_10_n03041632_56454.png,n03041632_56454.png,1.0,1.7170528,0.7211863,0.704184
alexnet_w1_mlp_simclrhn_probe3,1,227,NaN,oven,bird,64-0-10,0227_eid_dnn_64-0-10_bird_10_n01824575_5820.png,n01824575_5820.png,0.0,-0.1342328,0.4826219,-0.43618217
alexnet_w1_mlp_simclrhn_probe3,1,228,NaN,bear,oven,4-0-10,0228_eid_dnn_4-0-10_oven_10_n04111531_4332.png,n04111531_4332.png,0.0,0.562848,0.7086914,-0.10312689
alexnet_w1_mlp_simclrhn_probe3,1,229,NaN,truck,truck,2-0-10,0229_eid_dnn_2-0-10_truck_10_n04467665_41352.png,n04467665_41352.png,1.0,6.0722027,1.3318131,3.3519619
alexnet_w1_mlp_simclrhn_probe3,1,230,NaN,bear,bird,8-0-10,0230_eid_dnn_8-0-10_bird_10_n01514859_5668.png,n01514859_5668.png,0.0,0.14006907,0.27310613,-0.09407141
alexnet_w1_mlp_simclrhn_probe3,1,231,NaN,bottle,oven,32-0-10,0231_eid_dnn_32-0-10_oven_10_n04111531_4438.png,n04111531_4438.png,0.0,0.01643312,0.093910344,-0.05478467
alexnet_w1_mlp_simclrhn_probe3,1,232,NaN,cat,cat,1-0-10,0232_eid_dnn_1-0-10_cat_10_n02123394_6693.png,n02123394_6693.png,1.0,1.8595119,0.32709664,1.0835812
alexnet_w1_mlp_simclrhn_probe3,1,233,NaN,oven,elephant,32-0-10,0233_eid_dnn_32-0-10_elephant_10_n02504458_6302.png,n02504458_6302.png,0.0,0.0067533962,0.50615996,-0.35313377
alexnet_w1_mlp_simclrhn_probe3,1,234,NaN,oven,bottle,16-0-10,0234_eid_dnn_16-0-10_bottle_10_n03937543_2329.png,n03937543_2329.png,0.0,-0.0074985134,0.5394812,-0.38677308
alexnet_w1_mlp_simclrhn_probe3,1,235,NaN,bear,elephant,16-0-10,0235_eid_dnn_16-0-10_elephant_10_n02504458_5155.png,n02504458_5155.png,0.0,0.46405122,0.7977886,-0.23598799
alexnet_w1_mlp_simclrhn_probe3,1,236,NaN,oven,bear,1-0-10,0236_eid_dnn_1-0-10_bear_10_n02134084_1694.png,n02134084_1694.png,0.0,0.72469056,1.718312,-0.7025965
alexnet_w1_mlp_simclrhn_probe3,1,237,NaN,keyboard,bear,128-0-10,0237_eid_dnn_128-0-10_bear_10_n02133161_1624.png,n02133161_1624.png,0.0,-0.12371799,0.2923367,-0.29419512
alexnet_w1_mlp_simclrhn_probe3,1,238,NaN,oven,bear,64-0-10,0238_eid_dnn_64-0-10_bear_10_n02132136_11027.png,n02132136_11027.png,0.0,0.28308523,0.6034049,-0.2265002
alexnet_w1_mlp_simclrhn_probe3,1,239,NaN,oven,elephant,64-0-10,0239_eid_dnn_64-0-10_elephant_10_n02504013_24621.png,n02504013_24621.png,0.0,0.011232007,0.39279833,-0.26980814
alexnet_w1_mlp_simclrhn_probe3,1,240,NaN,oven,knife,16-0-10,0240_eid_dnn_16-0-10_knife_10_n03041632_27134.png,n03041632_27134.png,0.0,0.06314318,1.0424159,-0.69245034
alexnet_w1_mlp_simclrhn_probe3,1,241,NaN,oven,keyboard,32-0-10,0241_eid_dnn_32-0-10_keyboard_10_n03085013_24316.png,n03085013_24316.png,0.0,-0.008603454,0.64068747,-0.459118
alexnet_w1_mlp_simclrhn_probe3,1,242,NaN,cat,cat,2-0-10,0242_eid_dnn_2-0-10_cat_10_n02123159_3026.png,n02123159_3026.png,1.0,5.415123,0.8581503,3.2222662
alexnet_w1_mlp_simclrhn_probe3,1,243,NaN,keyboard,bicycle,128-0-10,0243_eid_dnn_128-0-10_bicycle_10_n03792782_1475.png,n03792782_1475.png,0.0,-0.37298968,0.44996917,-0.5819198
alexnet_w1_mlp_simclrhn_probe3,1,244,NaN,oven,cat,16-0-10,0244_eid_dnn_16-0-10_cat_10_n02123045_20507.png,n02123045_20507.png,0.0,0.66181403,0.6709831,-0.006483492
alexnet_w1_mlp_simclrhn_probe3,1,245,NaN,oven,boat,64-0-10,0245_eid_dnn_64-0-10_boat_10_n02951358_23759.png,n02951358_23759.png,0.0,-0.19708991,0.400712,-0.4227098
alexnet_w1_mlp_simclrhn_probe3,1,246,NaN,bear,bear,16-0-10,0246_eid_dnn_16-0-10_bear_10_n02132136_1858.png,n02132136_1858.png,1.0,0.6806936,0.66139823,0.013643905
alexnet_w1_mlp_simclrhn_probe3,1,247,NaN,keyboard,boat,128-0-10,0247_eid_dnn_128-0-10_boat_10_n02951358_6465.png,n02951358_6465.png,0.0,-0.34233466,0.2853902,-0.44386852
alexnet_w1_mlp_simclrhn_probe3,1,248,NaN,bottle,airplane,128-0-10,0248_eid_dnn_128-0-10_airplane_10_n02690373_6223.png,n02690373_6223.png,0.0,-0.33116332,0.040061448,-0.26249555
alexnet_w1_mlp_simclrhn_probe3,1,249,NaN,oven,boat,128-0-10,0249_eid_dnn_128-0-10_boat_10_n03344393_2412.png,n03344393_2412.png,0.0,-0.24448137,0.5410857,-0.5554798
alexnet_w1_mlp_simclrhn_probe3,1,250,NaN,cat,knife,8-0-10,0250_eid_dnn_8-0-10_knife_10_n03041632_6446.png,n03041632_6446.png,0.0,0.095951706,0.7350045,-0.45187855
alexnet_w1_mlp_simclrhn_probe3,1,251,NaN,oven,bottle,64-0-10,0251_eid_dnn_64-0-10_bottle_10_n04591713_7940.png,n04591713_7940.png,0.0,0.061336268,0.21098864,-0.10582021
alexnet_w1_mlp_simclrhn_probe3,1,252,NaN,cat,cat,4-0-10,0252_eid_dnn_4-0-10_cat_10_n02124075_13568.png,n02124075_13568.png,1.0,2.6929266,0.7142417,1.3991416
alexnet_w1_mlp_simclrhn_probe3,1,253,NaN,boat,boat,2-0-10,0253_eid_dnn_2-0-10_boat_10_n03662601_2171.png,n03662601_2171.png,1.0,2.1270666,0.82616377,0.91987723
alexnet_w1_mlp_simclrhn_probe3,1,254,NaN,elephant,elephant,1-0-10,0254_eid_dnn_1-0-10_elephant_10_n02504458_415.png,n02504458_415.png,1.0,1.7857279,1.4380963,0.24581265
alexnet_w1_mlp_simclrhn_probe3,1,255,NaN,oven,car,16-0-10,0255_eid_dnn_16-0-10_car_10_n03100240_3386.png,n03100240_3386.png,0.0,-0.33387348,0.91853034,-0.8855833
alexnet_w1_mlp_simclrhn_probe3,1,256,NaN,cat,bird,16-0-10,0256_eid_dnn_16-0-10_bird_10_n02056570_6633.png,n02056570_6633.png,0.0,-0.058522847,0.49210107,-0.3893499
alexnet_w1_mlp_simclrhn_probe3,1,257,NaN,oven,bottle,32-0-10,0257_eid_dnn_32-0-10_bottle_10_n02823428_4232.png,n02823428_4232.png,0.0,0.12888984,0.47196501,-0.24259077
alexnet_w1_mlp_simclrhn_probe3,1,258,NaN,oven,boat,128-0-10,0258_eid_dnn_128-0-10_boat_10_n04273569_2396.png,n04273569_2396.png,0.0,-0.37256208,0.13794748,-0.36098477
alexnet_w1_mlp_simclrhn_probe3,1,259,NaN,knife,knife,1-0-10,0259_eid_dnn_1-0-10_knife_10_n03041632_38996.png,n03041632_38996.png,1.0,1.2577374,0.601969,0.4636983
alexnet_w1_mlp_simclrhn_probe3,1,260,NaN,cat,oven,8-0-10,0260_eid_dnn_8-0-10_oven_10_n04111531_10420.png,n04111531_10420.png,0.0,0.8034575,1.096819,-0.20743795
alexnet_w1_mlp_simclrhn_probe3,1,261,NaN,keyboard,dog,128-0-10,0261_eid_dnn_128-0-10_dog_10_n02094114_2394.png,n02094114_2394.png,0.0,-0.04421055,0.70536745,-0.5300317
alexnet_w1_mlp_simclrhn_probe3,1,262,NaN,oven,elephant,128-0-10,0262_eid_dnn_128-0-10_elephant_10_n02504013_4247.png,n02504013_4247.png,0.0,0.06074013,0.3614003,-0.21259886
alexnet_w1_mlp_simclrhn_probe3,1,263,NaN,oven,chair,32-0-10,0263_eid_dnn_32-0-10_chair_10_n03376595_8137.png,n03376595_8137.png,0.0,-0.019424558,0.26501185,-0.20112692
alexnet_w1_mlp_simclrhn_probe3,1,264,NaN,oven,airplane,128-0-10,0264_eid_dnn_128-0-10_airplane_10_n02690373_8524.png,n02690373_8524.png,0.0,-0.13729995,0.6051271,-0.52497524
alexnet_w1_mlp_simclrhn_probe3,1,265,NaN,oven,car,64-0-10,0265_eid_dnn_64-0-10_car_10_n03100240_18410.png,n03100240_18410.png,0.0,-0.36871013,0.4619047,-0.5873334
alexnet_w1_mlp_simclrhn_probe3,1,266,NaN,oven,clock,64-0-10,0266_eid_dnn_64-0-10_clock_10_n04548280_2588.png,n04548280_2588.png,0.0,0.016661733,0.6457428,-0.44482747
alexnet_w1_mlp_simclrhn_probe3,1,267,NaN,oven,keyboard,32-0-10,0267_eid_dnn_32-0-10_keyboard_10_n03085013_24030.png,n03085013_24030.png,0.0,-0.5182169,0.60895497,-0.79703087
alexnet_w1_mlp_simclrhn_probe3,1,268,NaN,clock,clock,2-0-10,0268_eid_dnn_2-0-10_clock_10_n03196217_6375.png,n03196217_6375.png,1.0,1.6668167,1.5516335,0.08144685
alexnet_w1_mlp_simclrhn_probe3,1,269,NaN,oven,airplane,32-0-10,0269_eid_dnn_32-0-10_airplane_10_n02690373_4150.png,n02690373_4150.png,0.0,-0.022430256,0.74023724,-0.5392873
alexnet_w1_mlp_simclrhn_probe3,1,270,NaN,cat,dog,4-0-10,0270_eid_dnn_4-0-10_dog_10_n02086646_6567.png,n02086646_6567.png,0.0,0.16176051,0.7637987,-0.4257053
alexnet_w1_mlp_simclrhn_probe3,1,271,NaN,oven,clock,64-0-10,0271_eid_dnn_64-0-10_clock_10_n03196217_775.png,n03196217_775.png,0.0,-0.20077269,0.45062894,-0.46061054
alexnet_w1_mlp_simclrhn_probe3,1,272,NaN,truck,car,1-0-10,0272_eid_dnn_1-0-10_car_10_n02814533_57353.png,n02814533_57353.png,0.0,6.1222825,7.6594114,-1.0869143
alexnet_w1_mlp_simclrhn_probe3,1,273,NaN,oven,bottle,16-0-10,0273_eid_dnn_16-0-10_bottle_10_n04560804_183.png,n04560804_183.png,0.0,0.005534916,0.76943505,-0.540159
alexnet_w1_mlp_simclrhn_probe3,1,274,NaN,car,car,2-0-10,0274_eid_dnn_2-0-10_car_10_n04285008_10631.png,n04285008_10631.png,1.0,5.7035613,0.57806534,3.624273
alexnet_w1_mlp_simclrhn_probe3,1,275,NaN,bear,bear,2-0-10,0275_eid_dnn_2-0-10_bear_10_n02132136_10057.png,n02132136_10057.png,1.0,7.402297,6.521985,0.62247455
alexnet_w1_mlp_simclrhn_probe3,1,276,NaN,keyboard,boat,128-0-10,0276_eid_dnn_128-0-10_boat_10_n04273569_4605.png,n04273569_4605.png,0.0,-0.5201335,0.28847626,-0.5717734
alexnet_w1_mlp_simclrhn_probe3,1,277,NaN,oven,cat,64-0-10,0277_eid_dnn_64-0-10_cat_10_n02123597_12711.png,n02123597_12711.png,0.0,-0.076446205,0.33775583,-0.29288507
alexnet_w1_mlp_simclrhn_probe3,1,278,NaN,bottle,bottle,1-0-10,0278_eid_dnn_1-0-10_bottle_10_n04560804_5610.png,n04560804_5610.png,1.0,5.5047154,0.62454516,3.4508016
alexnet_w1_mlp_simclrhn_probe3,1,279,NaN,oven,clock,32-0-10,0279_eid_dnn_32-0-10_clock_10_n04548280_8412.png,n04548280_8412.png,0.0,0.13746034,0.6621844,-0.37103596
alexnet_w1_mlp_simclrhn_probe3,1,280,NaN,cat,cat,2-0-10,0280_eid_dnn_2-0-10_cat_10_n02123597_13834.png,n02123597_13834.png,1.0,1.504332,0.6511987,0.60325634
alexnet_w1_mlp_simclrhn_probe3,1,281,NaN,bottle,dog,128-0-10,0281_eid_dnn_128-0-10_dog_10_n02091831_538.png,n02091831_538.png,0.0,-0.07672356,0.0040122205,-0.05708882
alexnet_w1_mlp_simclrhn_probe3,1,282,NaN,bottle,bicycle,32-0-10,0282_eid_dnn_32-0-10_bicycle_10_n03792782_10437.png,n03792782_10437.png,0.0,0.079061255,0.1416497,-0.04425671
alexnet_w1_mlp_simclrhn_probe3,1,283,NaN,bear,bear,2-0-10,0283_eid_dnn_2-0-10_bear_10_n02132136_2372.png,n02132136_2372.png,1.0,2.757666,1.8558834,0.6376567
alexnet_w1_mlp_simclrhn_probe3,1,284,NaN,elephant,bicycle,128-0-10,0284_eid_dnn_128-0-10_bicycle_10_n03792782_4540.png,n03792782_4540.png,0.0,0.030086063,0.17748699,-0.10422819
alexnet_w1_mlp_simclrhn_probe3,1,285,NaN,elephant,elephant,2-0-10,0285_eid_dnn_2-0-10_elephant_10_n02504013_10152.png,n02504013_10152.png,1.0,1.7111602,1.2922978,0.2961804
alexnet_w1_mlp_simclrhn_probe3,1,286,NaN,oven,boat,64-0-10,0286_eid_dnn_64-0-10_boat_10_n02951358_7603.png,n02951358_7603.png,0.0,-0.1712247,0.488163,-0.46625754
alexnet_w1_mlp_simclrhn_probe3,1,287,NaN,bear,bear,2-0-10,0287_eid_dnn_2-0-10_bear_10_n02133161_9371.png,n02133161_9371.png,1.0,2.6014676,0.44963622,1.5215746
alexnet_w1_mlp_simclrhn_probe3,1,288,NaN,bear,truck,8-0-10,0288_eid_dnn_8-0-10_truck_10_n04467665_69892.png,n04467665_69892.png,0.0,0.0377047,1.0085999,-0.6865266
alexnet_w1_mlp_simclrhn_probe3,1,289,NaN,knife,knife,1-0-10,0289_eid_dnn_1-0-10_knife_10_n03041632_19275.png,n03041632_19275.png,1.0,0.8502188,0.6821095,0.11887123
alexnet_w1_mlp_simclrhn_probe3,1,290,NaN,oven,keyboard,16-0-10,0290_eid_dnn_16-0-10_keyboard_10_n04505470_9446.png,n04505470_9446.png,0.0,-0.22096999,0.8049233,-0.7254161
alexnet_w1_mlp_simclrhn_probe3,1,291,NaN,elephant,elephant,1-0-10,0291_eid_dnn_1-0-10_elephant_10_n02504013_9141.png,n02504013_9141.png,1.0,3.0233703,1.5441449,1.0459703
alexnet_w1_mlp_simclrhn_probe3,1,292,NaN,oven,bird,128-0-10,0292_eid_dnn_128-0-10_bird_10_n02056570_8553.png,n02056570_8553.png,0.0,-0.2107958,0.29524568,-0.35782537
alexnet_w1_mlp_simclrhn_probe3,1,293,NaN,car,car,1-0-10,0293_eid_dnn_1-0-10_car_10_n03100240_9171.png,n03100240_9171.png,1.0,6.5127435,4.1070194,1.7011038
alexnet_w1_mlp_simclrhn_probe3,1,294,NaN,dog,dog,8-0-10,0294_eid_dnn_8-0-10_dog_10_n02102177_1533.png,n02102177_1533.png,1.0,0.575614,0.5605242,0.010670065
alexnet_w1_mlp_simclrhn_probe3,1,295,NaN,oven,cat,64-0-10,0295_eid_dnn_64-0-10_cat_10_n02124075_12464.png,n02124075_12464.png,0.0,-0.1635344,0.39369833,-0.39402306
alexnet_w1_mlp_simclrhn_probe3,1,296,NaN,bottle,chair,4-0-10,0296_eid_dnn_4-0-10_chair_10_n04429376_33792.png,n04429376_33792.png,0.0,-0.8363528,2.3649049,-2.263631
alexnet_w1_mlp_simclrhn_probe3,1,297,NaN,elephant,bear,128-0-10,0297_eid_dnn_128-0-10_bear_10_n02133161_3258.png,n02133161_3258.png,0.0,-0.051074587,0.22731999,-0.1968547
alexnet_w1_mlp_simclrhn_probe3,1,298,NaN,elephant,dog,4-0-10,0298_eid_dnn_4-0-10_dog_10_n02097130_1442.png,n02097130_1442.png,0.0,0.3947349,1.5998226,-0.85212576
alexnet_w1_mlp_simclrhn_probe3,1,299,NaN,oven,chair,4-0-10,0299_eid_dnn_4-0-10_chair_10_n02791124_8970.png,n02791124_8970.png,0.0,0.011416762,0.87057734,-0.6075183
alexnet_w1_mlp_simclrhn_probe3,1,300,NaN,bear,car,8-0-10,0300_eid_dnn_8-0-10_car_10_n04285008_8545.png,n04285008_8545.png,0.0,-0.77507114,1.2949318,-1.4637132
alexnet_w1_mlp_simclrhn_probe3,1,301,NaN,truck,truck,1-0-10,0301_eid_dnn_1-0-10_truck_10_n03417042_2204.png,n03417042_2204.png,1.0,3.4135785,0.6438733,1.9584774
alexnet_w1_mlp_simclrhn_probe3,1,302,NaN,bear,bear,2-0-10,0302_eid_dnn_2-0-10_bear_10_n02133161_15593.png,n02133161_15593.png,1.0,2.456475,2.0829768,0.2641031
alexnet_w1_mlp_simclrhn_probe3,1,303,NaN,clock,clock,2-0-10,0303_eid_dnn_2-0-10_clock_10_n04548280_5845.png,n04548280_5845.png,1.0,0.5181778,0.36315164,0.10962006
alexnet_w1_mlp_simclrhn_probe3,1,304,NaN,cat,knife,4-0-10,0304_eid_dnn_4-0-10_knife_10_n03041632_4975.png,n03041632_4975.png,0.0,0.011667177,0.4195912,-0.28844583
alexnet_w1_mlp_simclrhn_probe3,1,305,NaN,oven,clock,32-0-10,0305_eid_dnn_32-0-10_clock_10_n03196217_4849.png,n03196217_4849.png,0.0,0.026526064,0.31785163,-0.20599829
alexnet_w1_mlp_simclrhn_probe3,1,306,NaN,bicycle,bicycle,2-0-10,0306_eid_dnn_2-0-10_bicycle_10_n03792782_15752.png,n03792782_15752.png,1.0,1.32516,1.1159344,0.14794488
alexnet_w1_mlp_simclrhn_probe3,1,307,NaN,cat,bicycle,16-0-10,0307_eid_dnn_16-0-10_bicycle_10_n02835271_29741.png,n02835271_29741.png,0.0,-0.19544715,0.416314,-0.43258047
alexnet_w1_mlp_simclrhn_probe3,1,308,NaN,oven,chair,4-0-10,0308_eid_dnn_4-0-10_chair_10_n04099969_16619.png,n04099969_16619.png,0.0,0.45251453,1.0482397,-0.4212413
alexnet_w1_mlp_simclrhn_probe3,1,309,NaN,keyboard,keyboard,4-0-10,0309_eid_dnn_4-0-10_keyboard_10_n04505470_4552.png,n04505470_4552.png,1.0,1.3770871,0.8064367,0.40351078
alexnet_w1_mlp_simclrhn_probe3,1,310,NaN,bear,boat,8-0-10,0310_eid_dnn_8-0-10_boat_10_n02951358_13144.png,n02951358_13144.png,0.0,-0.10828024,0.8472841,-0.675686
alexnet_w1_mlp_simclrhn_probe3,1,311,NaN,oven,bird,32-0-10,0311_eid_dnn_32-0-10_bird_10_n01797886_14611.png,n01797886_14611.png,0.0,0.025611855,0.21883526,-0.1366296
alexnet_w1_mlp_simclrhn_probe3,1,312,NaN,knife,knife,1-0-10,0312_eid_dnn_1-0-10_knife_10_n03041632_3326.png,n03041632_3326.png,1.0,1.0055832,0.41050747,0.4207821
alexnet_w1_mlp_simclrhn_probe3,1,313,NaN,bear,elephant,8-0-10,0313_eid_dnn_8-0-10_elephant_10_n02504013_5829.png,n02504013_5829.png,0.0,0.9566227,1.0907634,-0.09485182
alexnet_w1_mlp_simclrhn_probe3,1,314,NaN,oven,dog,16-0-10,0314_eid_dnn_16-0-10_dog_10_n02088094_2292.png,n02088094_2292.png,0.0,-0.07506687,0.74853987,-0.5823779
alexnet_w1_mlp_simclrhn_probe3,1,315,NaN,oven,oven,8-0-10,0315_eid_dnn_8-0-10_oven_10_n04111531_4944.png,n04111531_4944.png,1.0,1.0960901,0.7660549,0.2333701
alexnet_w1_mlp_simclrhn_probe3,1,316,NaN,oven,oven,32-0-10,0316_eid_dnn_32-0-10_oven_10_n04111531_669.png,n04111531_669.png,1.0,0.40704808,0.12327912,0.20065495
alexnet_w1_mlp_simclrhn_probe3,1,317,NaN,oven,car,64-0-10,0317_eid_dnn_64-0-10_car_10_n02814533_6716.png,n02814533_6716.png,0.0,-0.43904337,0.8960653,-0.9440644
alexnet_w1_mlp_simclrhn_probe3,1,318,NaN,oven,bear,32-0-10,0318_eid_dnn_32-0-10_bear_10_n02132136_26438.png,n02132136_26438.png,0.0,0.2730774,0.80373347,-0.37523052
alexnet_w1_mlp_simclrhn_probe3,1,319,NaN,oven,bottle,4-0-10,0319_eid_dnn_4-0-10_bottle_10_n03983396_3027.png,n03983396_3027.png,0.0,0.02991424,0.37034768,-0.2407228
alexnet_w1_mlp_simclrhn_probe3,1,320,NaN,elephant,elephant,2-0-10,0320_eid_dnn_2-0-10_elephant_10_n02504013_9299.png,n02504013_9299.png,1.0,11.976958,3.7113404,5.844674
alexnet_w1_mlp_simclrhn_probe3,1,321,NaN,oven,knife,2-0-10,0321_eid_dnn_2-0-10_knife_10_n03041632_13846.png,n03041632_13846.png,0.0,0.45302796,0.67127836,-0.15432633
alexnet_w1_mlp_simclrhn_probe3,1,322,NaN,oven,airplane,64-0-10,0322_eid_dnn_64-0-10_airplane_10_n02690373_16250.png,n02690373_16250.png,0.0,-0.31661093,0.24314943,-0.39581034
alexnet_w1_mlp_simclrhn_probe3,1,323,NaN,keyboard,boat,64-0-10,0323_eid_dnn_64-0-10_boat_10_n03662601_13696.png,n03662601_13696.png,0.0,-0.14489093,0.41681683,-0.39718735
alexnet_w1_mlp_simclrhn_probe3,1,324,NaN,cat,cat,1-0-10,0324_eid_dnn_1-0-10_cat_10_n02123597_5692.png,n02123597_5692.png,1.0,1.2113343,0.27843222,0.6596614
alexnet_w1_mlp_simclrhn_probe3,1,325,NaN,bear,clock,8-0-10,0325_eid_dnn_8-0-10_clock_10_n02708093_3171.png,n02708093_3171.png,0.0,0.16742332,1.0932199,-0.65463704
alexnet_w1_mlp_simclrhn_probe3,1,326,NaN,oven,keyboard,128-0-10,0326_eid_dnn_128-0-10_keyboard_10_n04505470_4902.png,n04505470_4902.png,0.0,0.12274243,0.22686186,-0.07362356
alexnet_w1_mlp_simclrhn_probe3,1,327,NaN,cat,dog,2-0-10,0327_eid_dnn_2-0-10_dog_10_n02113624_1170.png,n02113624_1170.png,0.0,0.2722001,0.8553867,-0.41237518
alexnet_w1_mlp_simclrhn_probe3,1,328,NaN,clock,clock,2-0-10,0328_eid_dnn_2-0-10_clock_10_n03196217_1272.png,n03196217_1272.png,1.0,2.1795294,1.7031071,0.33688146
alexnet_w1_mlp_simclrhn_probe3,1,329,NaN,oven,cat,128-0-10,0329_eid_dnn_128-0-10_cat_10_n02123394_8946.png,n02123394_8946.png,0.0,0.0014675508,0.35505906,-0.25002694
alexnet_w1_mlp_simclrhn_probe3,1,330,NaN,cat,car,8-0-10,0330_eid_dnn_8-0-10_car_10_n03100240_7134.png,n03100240_7134.png,0.0,-0.69371223,0.32026497,-0.7169902
alexnet_w1_mlp_simclrhn_probe3,1,331,NaN,bicycle,bicycle,4-0-10,0331_eid_dnn_4-0-10_bicycle_10_n03792782_16034.png,n03792782_16034.png,1.0,0.46497965,0.29025054,0.123552136
alexnet_w1_mlp_simclrhn_probe3,1,332,NaN,bear,dog,8-0-10,0332_eid_dnn_8-0-10_dog_10_n02104029_5465.png,n02104029_5465.png,0.0,0.13996881,1.050606,-0.64391774
alexnet_w1_mlp_simclrhn_probe3,1,333,NaN,keyboard,keyboard,4-0-10,0333_eid_dnn_4-0-10_keyboard_10_n04505470_5011.png,n04505470_5011.png,1.0,3.084627,0.7706822,1.6362062
alexnet_w1_mlp_simclrhn_probe3,1,334,NaN,cat,bird,8-0-10,0334_eid_dnn_8-0-10_bird_10_n02009912_27132.png,n02009912_27132.png,0.0,-0.010332533,0.439755,-0.31825995
alexnet_w1_mlp_simclrhn_probe3,1,335,NaN,oven,knife,64-0-10,0335_eid_dnn_64-0-10_knife_10_n03041632_3171.png,n03041632_3171.png,0.0,0.0943656,0.27081433,-0.1247681
alexnet_w1_mlp_simclrhn_probe3,1,336,NaN,oven,bear,32-0-10,0336_eid_dnn_32-0-10_bear_10_n02134084_21170.png,n02134084_21170.png,0.0,0.27097455,0.78124774,-0.36081767
alexnet_w1_mlp_simclrhn_probe3,1,337,NaN,bear,dog,4-0-10,0337_eid_dnn_4-0-10_dog_10_n02086079_29044.png,n02086079_29044.png,0.0,0.017660566,0.5386046,-0.36836308
alexnet_w1_mlp_simclrhn_probe3,1,338,NaN,cat,cat,4-0-10,0338_eid_dnn_4-0-10_cat_10_n02124075_8465.png,n02124075_8465.png,1.0,1.5460352,0.78166217,0.54049337
alexnet_w1_mlp_simclrhn_probe3,1,339,NaN,oven,bird,128-0-10,0339_eid_dnn_128-0-10_bird_10_n01855032_982.png,n01855032_982.png,0.0,-0.1720306,0.26621917,-0.30988938
alexnet_w1_mlp_simclrhn_probe3,1,340,NaN,oven,truck,32-0-10,0340_eid_dnn_32-0-10_truck_10_n03417042_6373.png,n03417042_6373.png,0.0,-0.30880383,0.38797012,-0.4926936
alexnet_w1_mlp_simclrhn_probe3,1,341,NaN,bear,airplane,16-0-10,0341_eid_dnn_16-0-10_airplane_10_n02690373_9959.png,n02690373_9959.png,0.0,-0.19948216,0.6634848,-0.6102098
alexnet_w1_mlp_simclrhn_probe3,1,342,NaN,oven,clock,32-0-10,0342_eid_dnn_32-0-10_clock_10_n04548280_2260.png,n04548280_2260.png,0.0,0.026479656,0.79747033,-0.54517275
alexnet_w1_mlp_simclrhn_probe3,1,343,NaN,cat,bottle,16-0-10,0343_eid_dnn_16-0-10_bottle_10_n03983396_5281.png,n03983396_5281.png,0.0,0.057431497,0.53146106,-0.33518952
alexnet_w1_mlp_simclrhn_probe3,1,344,NaN,cat,cat,4-0-10,0344_eid_dnn_4-0-10_cat_10_n02123159_1113.png,n02123159_1113.png,1.0,2.6216838,0.53955483,1.4722875
alexnet_w1_mlp_simclrhn_probe3,1,345,NaN,oven,keyboard,64-0-10,0345_eid_dnn_64-0-10_keyboard_10_n03085013_20460.png,n03085013_20460.png,0.0,-0.013828889,0.2717967,-0.20196779
alexnet_w1_mlp_simclrhn_probe3,1,346,NaN,oven,clock,8-0-10,0346_eid_dnn_8-0-10_clock_10_n03196217_884.png,n03196217_884.png,0.0,-0.13354467,1.2097299,-0.9498386
alexnet_w1_mlp_simclrhn_probe3,1,347,NaN,cat,clock,8-0-10,0347_eid_dnn_8-0-10_clock_10_n03196217_6257.png,n03196217_6257.png,0.0,-0.34037995,0.7369156,-0.761763
alexnet_w1_mlp_simclrhn_probe3,1,348,NaN,oven,dog,32-0-10,0348_eid_dnn_32-0-10_dog_10_n02113624_2109.png,n02113624_2109.png,0.0,-0.031541742,0.83922666,-0.6157263
alexnet_w1_mlp_simclrhn_probe3,1,349,NaN,keyboard,keyboard,1-0-10,0349_eid_dnn_1-0-10_keyboard_10_n03085013_20416.png,n03085013_20416.png,1.0,4.4031143,2.1768026,1.5742401
alexnet_w1_mlp_simclrhn_probe3,1,350,NaN,bird,bird,2-0-10,0350_eid_dnn_2-0-10_bird_10_n01820546_4609.png,n01820546_4609.png,1.0,1.8809195,0.43139008,1.0249721
alexnet_w1_mlp_simclrhn_probe3,1,351,NaN,oven,cat,64-0-10,0351_eid_dnn_64-0-10_cat_10_n02125311_47792.png,n02125311_47792.png,0.0,-0.1559438,0.442811,-0.4233836
alexnet_w1_mlp_simclrhn_probe3,1,352,NaN,oven,boat,16-0-10,0352_eid_dnn_16-0-10_boat_10_n04612504_1491.png,n04612504_1491.png,0.0,0.11891717,0.55563176,-0.30880386
alexnet_w1_mlp_simclrhn_probe3,1,353,NaN,bear,truck,16-0-10,0353_eid_dnn_16-0-10_truck_10_n03417042_910.png,n03417042_910.png,0.0,-0.31211507,1.1248443,-1.0160837
alexnet_w1_mlp_simclrhn_probe3,1,354,NaN,oven,airplane,64-0-10,0354_eid_dnn_64-0-10_airplane_10_n02690373_2038.png,n02690373_2038.png,0.0,-0.11293787,0.5171132,-0.4455134
alexnet_w1_mlp_simclrhn_probe3,1,355,NaN,cat,cat,2-0-10,0355_eid_dnn_2-0-10_cat_10_n02123394_8164.png,n02123394_8164.png,1.0,2.0019581,0.4756107,1.0792906
alexnet_w1_mlp_simclrhn_probe3,1,356,NaN,oven,oven,2-0-10,0356_eid_dnn_2-0-10_oven_10_n04111531_22097.png,n04111531_22097.png,1.0,2.7559524,0.8682024,1.3348408
alexnet_w1_mlp_simclrhn_probe3,1,357,NaN,keyboard,bear,128-0-10,0357_eid_dnn_128-0-10_bear_10_n02134418_278.png,n02134418_278.png,0.0,-0.01747948,0.34630704,-0.2572359
alexnet_w1_mlp_simclrhn_probe3,1,358,NaN,bird,bird,4-0-10,0358_eid_dnn_4-0-10_bird_10_n01592084_9109.png,n01592084_9109.png,1.0,0.75686395,-0.004889717,0.5386412
alexnet_w1_mlp_simclrhn_probe3,1,359,NaN,oven,clock,32-0-10,0359_eid_dnn_32-0-10_clock_10_n03196217_3695.png,n03196217_3695.png,0.0,0.0381806,0.41533276,-0.26668686
alexnet_w1_mlp_simclrhn_probe3,1,360,NaN,oven,elephant,128-0-10,0360_eid_dnn_128-0-10_elephant_10_n02504458_8939.png,n02504458_8939.png,0.0,0.06976831,0.3455916,-0.19503653
alexnet_w1_mlp_simclrhn_probe3,1,361,NaN,bicycle,elephant,2-0-10,0361_eid_dnn_2-0-10_elephant_10_n02504013_7926.png,n02504013_7926.png,0.0,0.5757395,0.59733796,-0.015272416
alexnet_w1_mlp_simclrhn_probe3,1,362,NaN,elephant,bear,4-0-10,0362_eid_dnn_4-0-10_bear_10_n02133161_11816.png,n02133161_11816.png,0.0,1.4765123,1.949589,-0.33451575
alexnet_w1_mlp_simclrhn_probe3,1,363,NaN,bird,bird,2-0-10,0363_eid_dnn_2-0-10_bird_10_n02056570_18300.png,n02056570_18300.png,1.0,0.54537535,0.27233854,0.19306618
alexnet_w1_mlp_simclrhn_probe3,1,364,NaN,elephant,chair,2-0-10,0364_eid_dnn_2-0-10_chair_10_n02791124_7063.png,n02791124_7063.png,0.0,-0.23197483,0.6194556,-0.6020522
alexnet_w1_mlp_simclrhn_probe3,1,365,NaN,cat,chair,8-0-10,0365_eid_dnn_8-0-10_chair_10_n03376595_8289.png,n03376595_8289.png,0.0,-0.16073084,0.39839235,-0.39535978
alexnet_w1_mlp_simclrhn_probe3,1,366,NaN,bear,airplane,4-0-10,0366_eid_dnn_4-0-10_airplane_10_n02690373_4434.png,n02690373_4434.png,0.0,-0.19418326,0.45804605,-0.46119577
alexnet_w1_mlp_simclrhn_probe3,1,367,NaN,truck,truck,1-0-10,0367_eid_dnn_1-0-10_truck_10_n03417042_8953.png,n03417042_8953.png,1.0,7.1998463,2.3706956,3.4147253
alexnet_w1_mlp_simclrhn_probe3,1,368,NaN,oven,bear,64-0-10,0368_eid_dnn_64-0-10_bear_10_n02132136_699.png,n02132136_699.png,0.0,0.15890242,0.37560767,-0.15323375
alexnet_w1_mlp_simclrhn_probe3,1,369,NaN,cat,knife,8-0-10,0369_eid_dnn_8-0-10_knife_10_n03041632_20517.png,n03041632_20517.png,0.0,0.012034081,0.32019296,-0.21790123
alexnet_w1_mlp_simclrhn_probe3,1,370,NaN,oven,bottle,32-0-10,0370_eid_dnn_32-0-10_bottle_10_n03983396_1910.png,n03983396_1910.png,0.0,0.05292497,0.6682348,-0.43508977
alexnet_w1_mlp_simclrhn_probe3,1,371,NaN,oven,oven,8-0-10,0371_eid_dnn_8-0-10_oven_10_n04111531_16198.png,n04111531_16198.png,1.0,0.88636154,0.3658256,0.3680745
alexnet_w1_mlp_simclrhn_probe3,1,372,NaN,oven,elephant,64-0-10,0372_eid_dnn_64-0-10_elephant_10_n02504013_13427.png,n02504013_13427.png,0.0,0.00677301,0.5504321,-0.38442504
alexnet_w1_mlp_simclrhn_probe3,1,373,NaN,oven,airplane,16-0-10,0373_eid_dnn_16-0-10_airplane_10_n02690373_1075.png,n02690373_1075.png,0.0,0.0018794946,0.5680057,-0.40031165
alexnet_w1_mlp_simclrhn_probe3,1,374,NaN,oven,car,64-0-10,0374_eid_dnn_64-0-10_car_10_n03100240_5527.png,n03100240_5527.png,0.0,-0.44616273,0.45321548,-0.6359564
alexnet_w1_mlp_simclrhn_probe3,1,375,NaN,bear,bear,1-0-10,0375_eid_dnn_1-0-10_bear_10_n02132136_4632.png,n02132136_4632.png,1.0,3.7335517,0.72467387,2.1275978
alexnet_w1_mlp_simclrhn_probe3,1,376,NaN,boat,boat,1-0-10,0376_eid_dnn_1-0-10_boat_10_n04273569_6158.png,n04273569_6158.png,1.0,5.513504,1.0779791,3.1363897
alexnet_w1_mlp_simclrhn_probe3,1,377,NaN,oven,knife,32-0-10,0377_eid_dnn_32-0-10_knife_10_n03041632_18141.png,n03041632_18141.png,0.0,0.060025815,1.0126778,-0.67362666
alexnet_w1_mlp_simclrhn_probe3,1,378,NaN,oven,bear,16-0-10,0378_eid_dnn_16-0-10_bear_10_n02132136_6378.png,n02132136_6378.png,0.0,0.45101172,0.57497627,-0.08765618
alexnet_w1_mlp_simclrhn_probe3,1,379,NaN,elephant,elephant,2-0-10,0379_eid_dnn_2-0-10_elephant_10_n02504458_5095.png,n02504458_5095.png,1.0,5.4077635,1.6711617,2.6421766
alexnet_w1_mlp_simclrhn_probe3,1,380,NaN,elephant,elephant,4-0-10,0380_eid_dnn_4-0-10_elephant_10_n02504013_10582.png,n02504013_10582.png,1.0,4.620468,3.1051743,1.0714746
alexnet_w1_mlp_simclrhn_probe3,1,381,NaN,bear,chair,16-0-10,0381_eid_dnn_16-0-10_chair_10_n04099969_28139.png,n04099969_28139.png,0.0,-0.036819056,0.90589124,-0.66659683
alexnet_w1_mlp_simclrhn_probe3,1,382,NaN,keyboard,keyboard,2-0-10,0382_eid_dnn_2-0-10_keyboard_10_n04505470_279.png,n04505470_279.png,1.0,11.233812,1.6198177,6.798121
alexnet_w1_mlp_simclrhn_probe3,1,383,NaN,bear,car,8-0-10,0383_eid_dnn_8-0-10_car_10_n02814533_79696.png,n02814533_79696.png,0.0,-0.8018877,1.1364772,-1.3706311
alexnet_w1_mlp_simclrhn_probe3,1,384,NaN,oven,cat,64-0-10,0384_eid_dnn_64-0-10_cat_10_n02124075_7984.png,n02124075_7984.png,0.0,-0.15828118,0.4593479,-0.4367297
alexnet_w1_mlp_simclrhn_probe3,1,385,NaN,oven,car,4-0-10,0385_eid_dnn_4-0-10_car_10_n02814533_27327.png,n02814533_27327.png,0.0,-0.44254816,1.3669266,-1.2794919
alexnet_w1_mlp_simclrhn_probe3,1,386,NaN,cat,bear,4-0-10,0386_eid_dnn_4-0-10_bear_10_n02134084_967.png,n02134084_967.png,0.0,1.0200214,1.1291605,-0.07717299
alexnet_w1_mlp_simclrhn_probe3,1,387,NaN,oven,bear,64-0-10,0387_eid_dnn_64-0-10_bear_10_n02132136_949.png,n02132136_949.png,0.0,0.14237481,0.46152577,-0.22567381
alexnet_w1_mlp_simclrhn_probe3,1,388,NaN,oven,bicycle,16-0-10,0388_eid_dnn_16-0-10_bicycle_10_n03792782_2905.png,n03792782_2905.png,0.0,-0.052589394,0.43466967,-0.3445442
alexnet_w1_mlp_simclrhn_probe3,1,389,NaN,oven,bicycle,8-0-10,0389_eid_dnn_8-0-10_bicycle_10_n03792782_34550.png,n03792782_34550.png,0.0,-0.27938977,1.0053214,-0.90842795
alexnet_w1_mlp_simclrhn_probe3,1,390,NaN,elephant,bear,16-0-10,0390_eid_dnn_16-0-10_bear_10_n02132136_9055.png,n02132136_9055.png,0.0,1.2880079,1.4717879,-0.12995213
alexnet_w1_mlp_simclrhn_probe3,1,391,NaN,oven,bear,64-0-10,0391_eid_dnn_64-0-10_bear_10_n02134084_7904.png,n02134084_7904.png,0.0,0.022321817,0.1512566,-0.09117066
alexnet_w1_mlp_simclrhn_probe3,1,392,NaN,bottle,clock,4-0-10,0392_eid_dnn_4-0-10_clock_10_n04548280_4526.png,n04548280_4526.png,0.0,0.9748238,1.6953051,-0.50945723
alexnet_w1_mlp_simclrhn_probe3,1,393,NaN,keyboard,bottle,1-0-10,0393_eid_dnn_1-0-10_bottle_10_n02823428_685.png,n02823428_685.png,0.0,1.0697658,1.0791477,-0.0066339984
alexnet_w1_mlp_simclrhn_probe3,1,394,NaN,oven,keyboard,64-0-10,0394_eid_dnn_64-0-10_keyboard_10_n04505470_3935.png,n04505470_3935.png,0.0,-0.08769296,0.47662157,-0.39903066
alexnet_w1_mlp_simclrhn_probe3,1,395,NaN,oven,dog,64-0-10,0395_eid_dnn_64-0-10_dog_10_n02096051_3825.png,n02096051_3825.png,0.0,-0.027322585,0.51075405,-0.38047764
alexnet_w1_mlp_simclrhn_probe3,1,396,NaN,dog,dog,2-0-10,0396_eid_dnn_2-0-10_dog_10_n02089078_10601.png,n02089078_10601.png,1.0,1.1177093,0.4218001,0.4920821
alexnet_w1_mlp_simclrhn_probe3,1,397,NaN,clock,clock,2-0-10,0397_eid_dnn_2-0-10_clock_10_n02708093_5236.png,n02708093_5236.png,1.0,8.250368,0.08400772,5.7744894
alexnet_w1_mlp_simclrhn_probe3,1,398,NaN,cat,cat,2-0-10,0398_eid_dnn_2-0-10_cat_10_n02123159_2682.png,n02123159_2682.png,1.0,4.4295263,0.2277287,2.9711196
alexnet_w1_mlp_simclrhn_probe3,1,399,NaN,chair,oven,1-0-10,0399_eid_dnn_1-0-10_oven_10_n04111531_10216.png,n04111531_10216.png,0.0,1.5919338,1.8432118,-0.17768033
alexnet_w1_mlp_simclrhn_probe3,1,400,NaN,boat,boat,2-0-10,0400_eid_dnn_2-0-10_boat_10_n02951358_7137.png,n02951358_7137.png,1.0,0.9448144,0.8648834,0.056519724
alexnet_w1_mlp_simclrhn_probe3,1,401,NaN,oven,bird,64-0-10,0401_eid_dnn_64-0-10_bird_10_n02007558_6127.png,n02007558_6127.png,0.0,-0.21332315,0.585053,-0.5645372
alexnet_w1_mlp_simclrhn_probe3,1,402,NaN,bear,dog,16-0-10,0402_eid_dnn_16-0-10_dog_10_n02096051_4804.png,n02096051_4804.png,0.0,0.1841436,0.9695695,-0.55538
alexnet_w1_mlp_simclrhn_probe3,1,403,NaN,bear,bottle,8-0-10,0403_eid_dnn_8-0-10_bottle_10_n03983396_13764.png,n03983396_13764.png,0.0,0.10949056,0.46223408,-0.24942733
alexnet_w1_mlp_simclrhn_probe3,1,404,NaN,oven,knife,32-0-10,0404_eid_dnn_32-0-10_knife_10_n03041632_105081.png,n03041632_105081.png,0.0,0.063693404,0.796986,-0.5185162
alexnet_w1_mlp_simclrhn_probe3,1,405,NaN,bear,boat,8-0-10,0405_eid_dnn_8-0-10_boat_10_n03344393_3535.png,n03344393_3535.png,0.0,-0.25341457,0.35095122,-0.42735118
alexnet_w1_mlp_simclrhn_probe3,1,406,NaN,oven,keyboard,64-0-10,0406_eid_dnn_64-0-10_keyboard_10_n03085013_22929.png,n03085013_22929.png,0.0,-0.075247064,0.22585781,-0.2129133
alexnet_w1_mlp_simclrhn_probe3,1,407,NaN,bottle,bottle,1-0-10,0407_eid_dnn_1-0-10_bottle_10_n04579145_5979.png,n04579145_5979.png,1.0,2.5802267,0.8171835,1.2466598
alexnet_w1_mlp_simclrhn_probe3,1,408,NaN,knife,knife,2-0-10,0408_eid_dnn_2-0-10_knife_10_n03041632_31301.png,n03041632_31301.png,1.0,1.751018,0.30973583,1.0191405
alexnet_w1_mlp_simclrhn_probe3,1,409,NaN,keyboard,car,128-0-10,0409_eid_dnn_128-0-10_car_10_n04285008_14653.png,n04285008_14653.png,0.0,-0.57356244,0.5110955,-0.76696897
alexnet_w1_mlp_simclrhn_probe3,1,410,NaN,oven,clock,16-0-10,0410_eid_dnn_16-0-10_clock_10_n03196217_1601.png,n03196217_1601.png,0.0,-0.018030927,1.0271091,-0.7390256
alexnet_w1_mlp_simclrhn_probe3,1,411,NaN,oven,bicycle,8-0-10,0411_eid_dnn_8-0-10_bicycle_10_n02835271_25268.png,n02835271_25268.png,0.0,-0.25729266,0.6126685,-0.61515546
alexnet_w1_mlp_simclrhn_probe3,1,412,NaN,bear,bird,16-0-10,0412_eid_dnn_16-0-10_bird_10_n02037110_875.png,n02037110_875.png,0.0,0.008078747,0.49626204,-0.3451977
alexnet_w1_mlp_simclrhn_probe3,1,413,NaN,elephant,airplane,128-0-10,0413_eid_dnn_128-0-10_airplane_10_n02690373_6807.png,n02690373_6807.png,0.0,-0.36961344,0.04242766,-0.29135707
alexnet_w1_mlp_simclrhn_probe3,1,414,NaN,oven,clock,16-0-10,0414_eid_dnn_16-0-10_clock_10_n04548280_10066.png,n04548280_10066.png,0.0,0.15740441,0.39583108,-0.16859312
alexnet_w1_mlp_simclrhn_probe3,1,415,NaN,oven,boat,64-0-10,0415_eid_dnn_64-0-10_boat_10_n02951358_15252.png,n02951358_15252.png,0.0,-0.1493348,0.43000174,-0.4096528
alexnet_w1_mlp_simclrhn_probe3,1,416,NaN,keyboard,car,64-0-10,0416_eid_dnn_64-0-10_car_10_n02814533_4803.png,n02814533_4803.png,0.0,-0.44939208,0.47224402,-0.65169513
alexnet_w1_mlp_simclrhn_probe3,1,417,NaN,oven,car,16-0-10,0417_eid_dnn_16-0-10_car_10_n03100240_24544.png,n03100240_24544.png,0.0,-0.55689466,1.016507,-1.112563
alexnet_w1_mlp_simclrhn_probe3,1,418,NaN,elephant,bear,128-0-10,0418_eid_dnn_128-0-10_bear_10_n02132136_4219.png,n02132136_4219.png,0.0,-0.015962686,0.115131274,-0.092697434
alexnet_w1_mlp_simclrhn_probe3,1,419,NaN,bear,bicycle,32-0-10,0419_eid_dnn_32-0-10_bicycle_10_n02835271_507.png,n02835271_507.png,0.0,0.19934082,0.48237348,-0.2001343
alexnet_w1_mlp_simclrhn_probe3,1,420,NaN,boat,boat,1-0-10,0420_eid_dnn_1-0-10_boat_10_n04273569_13290.png,n04273569_13290.png,1.0,4.1048594,1.3249879,1.965666
alexnet_w1_mlp_simclrhn_probe3,1,421,NaN,bear,bicycle,2-0-10,0421_eid_dnn_2-0-10_bicycle_10_n03792782_42626.png,n03792782_42626.png,0.0,1.0149729,1.0654302,-0.035678655
alexnet_w1_mlp_simclrhn_probe3,1,422,NaN,cat,dog,8-0-10,0422_eid_dnn_8-0-10_dog_10_n02106382_3856.png,n02106382_3856.png,0.0,0.5155066,0.8254242,-0.21914482
alexnet_w1_mlp_simclrhn_probe3,1,423,NaN,oven,clock,1-0-10,0423_eid_dnn_1-0-10_clock_10_n02708093_274.png,n02708093_274.png,0.0,0.20634131,1.357863,-0.8142488
alexnet_w1_mlp_simclrhn_probe3,1,424,NaN,oven,bottle,32-0-10,0424_eid_dnn_32-0-10_bottle_10_n04591713_5921.png,n04591713_5921.png,0.0,0.08336949,0.7545616,-0.4746045
alexnet_w1_mlp_simclrhn_probe3,1,425,NaN,elephant,elephant,1-0-10,0425_eid_dnn_1-0-10_elephant_10_n02504458_3851.png,n02504458_3851.png,1.0,8.11358,2.1263268,4.2336273
alexnet_w1_mlp_simclrhn_probe3,1,426,NaN,oven,dog,32-0-10,0426_eid_dnn_32-0-10_dog_10_n02105855_995.png,n02105855_995.png,0.0,-0.071187235,0.30847612,-0.26846254
alexnet_w1_mlp_simclrhn_probe3,1,427,NaN,airplane,airplane,2-0-10,0427_eid_dnn_2-0-10_airplane_10_n02690373_1979.png,n02690373_1979.png,1.0,0.69299394,0.4430592,0.17673054
alexnet_w1_mlp_simclrhn_probe3,1,428,NaN,airplane,airplane,1-0-10,0428_eid_dnn_1-0-10_airplane_10_n02690373_6455.png,n02690373_6455.png,1.0,4.8496428,1.6151819,2.2871091
alexnet_w1_mlp_simclrhn_probe3,1,429,NaN,oven,oven,1-0-10,0429_eid_dnn_1-0-10_oven_10_n04111531_18979.png,n04111531_18979.png,1.0,3.0698948,0.39705086,1.8899862
alexnet_w1_mlp_simclrhn_probe3,1,430,NaN,oven,oven,32-0-10,0430_eid_dnn_32-0-10_oven_10_n04111531_16795.png,n04111531_16795.png,1.0,0.3453784,0.17259054,0.12217947
alexnet_w1_mlp_simclrhn_probe3,1,431,NaN,oven,truck,4-0-10,0431_eid_dnn_4-0-10_truck_10_n04467665_41076.png,n04467665_41076.png,0.0,-0.22011709,0.71917176,-0.66417754
alexnet_w1_mlp_simclrhn_probe3,1,432,NaN,oven,bird,16-0-10,0432_eid_dnn_16-0-10_bird_10_n01534433_31697.png,n01534433_31697.png,0.0,-0.0966952,0.63514954,-0.51749235
alexnet_w1_mlp_simclrhn_probe3,1,433,NaN,keyboard,keyboard,128-0-10,0433_eid_dnn_128-0-10_keyboard_10_n04505470_4289.png,n04505470_4289.png,1.0,0.22348338,0.21322908,0.007250891
alexnet_w1_mlp_simclrhn_probe3,1,434,NaN,keyboard,keyboard,4-0-10,0434_eid_dnn_4-0-10_keyboard_10_n03085013_20727.png,n03085013_20727.png,1.0,3.776094,0.5165997,2.3048105
alexnet_w1_mlp_simclrhn_probe3,1,435,NaN,bear,boat,8-0-10,0435_eid_dnn_8-0-10_boat_10_n04273569_7315.png,n04273569_7315.png,0.0,-0.16504209,0.44472957,-0.43117368
alexnet_w1_mlp_simclrhn_probe3,1,436,NaN,car,car,1-0-10,0436_eid_dnn_1-0-10_car_10_n03100240_16646.png,n03100240_16646.png,1.0,3.4213421,0.7983444,1.8547395
alexnet_w1_mlp_simclrhn_probe3,1,437,NaN,oven,car,16-0-10,0437_eid_dnn_16-0-10_car_10_n03100240_5281.png,n03100240_5281.png,0.0,-0.31836197,0.93892133,-0.88903356
alexnet_w1_mlp_simclrhn_probe3,1,438,NaN,bottle,airplane,128-0-10,0438_eid_dnn_128-0-10_airplane_10_n02690373_1670.png,n02690373_1670.png,0.0,-0.302028,0.07055465,-0.26345572
alexnet_w1_mlp_simclrhn_probe3,1,439,NaN,keyboard,airplane,128-0-10,0439_eid_dnn_128-0-10_airplane_10_n02690373_9293.png,n02690373_9293.png,0.0,-0.49694058,0.18809769,-0.4843952
alexnet_w1_mlp_simclrhn_probe3,1,440,NaN,keyboard,truck,128-0-10,0440_eid_dnn_128-0-10_truck_10_n03796401_15846.png,n03796401_15846.png,0.0,-0.2631475,0.4956959,-0.53658336
alexnet_w1_mlp_simclrhn_probe3,1,441,NaN,oven,truck,32-0-10,0441_eid_dnn_32-0-10_truck_10_n03796401_6971.png,n03796401_6971.png,0.0,-0.23207034,0.81511915,-0.7404748
alexnet_w1_mlp_simclrhn_probe3,1,442,NaN,oven,oven,128-0-10,0442_eid_dnn_128-0-10_oven_10_n04111531_10724.png,n04111531_10724.png,1.0,0.477308,0.18636277,0.20572935
alexnet_w1_mlp_simclrhn_probe3,1,443,NaN,cat,keyboard,8-0-10,0443_eid_dnn_8-0-10_keyboard_10_n03085013_22187.png,n03085013_22187.png,0.0,-0.21165708,1.7816262,-1.4094641
alexnet_w1_mlp_simclrhn_probe3,1,444,NaN,bear,oven,8-0-10,0444_eid_dnn_8-0-10_oven_10_n04111531_4671.png,n04111531_4671.png,0.0,0.36076754,0.85180837,-0.3472183
alexnet_w1_mlp_simclrhn_probe3,1,445,NaN,airplane,airplane,4-0-10,0445_eid_dnn_4-0-10_airplane_10_n02690373_5142.png,n02690373_5142.png,1.0,0.748925,0.4121748,0.23811834
alexnet_w1_mlp_simclrhn_probe3,1,446,NaN,elephant,elephant,4-0-10,0446_eid_dnn_4-0-10_elephant_10_n02504013_8562.png,n02504013_8562.png,1.0,3.1809702,1.7425002,1.017152
alexnet_w1_mlp_simclrhn_probe3,1,447,NaN,truck,truck,1-0-10,0447_eid_dnn_1-0-10_truck_10_n03417042_9668.png,n03417042_9668.png,1.0,2.3922696,0.8831981,1.0670748
alexnet_w1_mlp_simclrhn_probe3,1,448,NaN,cat,bottle,8-0-10,0448_eid_dnn_8-0-10_bottle_10_n03983396_10330.png,n03983396_10330.png,0.0,0.013470614,0.5134121,-0.35351202
alexnet_w1_mlp_simclrhn_probe3,1,449,NaN,keyboard,elephant,128-0-10,0449_eid_dnn_128-0-10_elephant_10_n02504458_4395.png,n02504458_4395.png,0.0,-0.015335567,0.5925808,-0.42986178
alexnet_w1_mlp_simclrhn_probe3,1,450,NaN,oven,boat,64-0-10,0450_eid_dnn_64-0-10_boat_10_n03344393_4562.png,n03344393_4562.png,0.0,-0.16187428,0.5004111,-0.46830648
alexnet_w1_mlp_simclrhn_probe3,1,451,NaN,oven,oven,2-0-10,0451_eid_dnn_2-0-10_oven_10_n04111531_10011.png,n04111531_10011.png,1.0,1.5435572,0.3310697,0.8573581
alexnet_w1_mlp_simclrhn_probe3,1,452,NaN,oven,oven,64-0-10,0452_eid_dnn_64-0-10_oven_10_n04111531_13797.png,n04111531_13797.png,1.0,0.64770865,0.42709604,0.15599668
alexnet_w1_mlp_simclrhn_probe3,1,453,NaN,airplane,boat,2-0-10,0453_eid_dnn_2-0-10_boat_10_n03662601_840.png,n03662601_840.png,0.0,1.0744646,1.1402745,-0.046534672
alexnet_w1_mlp_simclrhn_probe3,1,454,NaN,oven,truck,16-0-10,0454_eid_dnn_16-0-10_truck_10_n03417042_17037.png,n03417042_17037.png,0.0,-0.294407,0.7397392,-0.7312518
alexnet_w1_mlp_simclrhn_probe3,1,455,NaN,oven,cat,64-0-10,0455_eid_dnn_64-0-10_cat_10_n02125311_2576.png,n02125311_2576.png,0.0,-0.077201836,0.45736432,-0.37799537
alexnet_w1_mlp_simclrhn_probe3,1,456,NaN,oven,keyboard,32-0-10,0456_eid_dnn_32-0-10_keyboard_10_n03085013_3264.png,n03085013_3264.png,0.0,-0.16716371,0.16993955,-0.23836799
alexnet_w1_mlp_simclrhn_probe3,1,457,NaN,keyboard,dog,64-0-10,0457_eid_dnn_64-0-10_dog_10_n02097130_3519.png,n02097130_3519.png,0.0,-0.093744785,0.18189535,-0.19490701
alexnet_w1_mlp_simclrhn_probe3,1,458,NaN,bear,airplane,16-0-10,0458_eid_dnn_16-0-10_airplane_10_n02690373_4486.png,n02690373_4486.png,0.0,-0.012525842,0.463103,-0.3363204
alexnet_w1_mlp_simclrhn_probe3,1,459,NaN,oven,bottle,16-0-10,0459_eid_dnn_16-0-10_bottle_10_n03983396_19635.png,n03983396_19635.png,0.0,0.08314594,1.1392548,-0.7467817
alexnet_w1_mlp_simclrhn_probe3,1,460,NaN,bear,airplane,16-0-10,0460_eid_dnn_16-0-10_airplane_10_n02690373_1426.png,n02690373_1426.png,0.0,0.07764826,0.61276275,-0.37838307
alexnet_w1_mlp_simclrhn_probe3,1,461,NaN,oven,oven,4-0-10,0461_eid_dnn_4-0-10_oven_10_n04111531_5279.png,n04111531_5279.png,1.0,1.240531,0.9717581,0.19005111
alexnet_w1_mlp_simclrhn_probe3,1,462,NaN,oven,bottle,64-0-10,0462_eid_dnn_64-0-10_bottle_10_n03983396_4024.png,n03983396_4024.png,0.0,0.10100844,0.19351879,-0.0654147
alexnet_w1_mlp_simclrhn_probe3,1,463,NaN,bear,bear,8-0-10,0463_eid_dnn_8-0-10_bear_10_n02133161_12751.png,n02133161_12751.png,1.0,0.80426705,0.68291646,0.08580782
alexnet_w1_mlp_simclrhn_probe3,1,464,NaN,bear,car,8-0-10,0464_eid_dnn_8-0-10_car_10_n02814533_12271.png,n02814533_12271.png,0.0,-0.7792718,1.580142,-1.6683576
alexnet_w1_mlp_simclrhn_probe3,1,465,NaN,cat,bottle,16-0-10,0465_eid_dnn_16-0-10_bottle_10_n04560804_5068.png,n04560804_5068.png,0.0,0.08122329,0.7345529,-0.46197382
alexnet_w1_mlp_simclrhn_probe3,1,466,NaN,bottle,bottle,128-0-10,0466_eid_dnn_128-0-10_bottle_10_n04579145_1168.png,n04579145_1168.png,1.0,0.101656735,0.018213337,0.05900339
alexnet_w1_mlp_simclrhn_probe3,1,467,NaN,oven,knife,64-0-10,0467_eid_dnn_64-0-10_knife_10_n03041632_2973.png,n03041632_2973.png,0.0,0.07638275,0.4343023,-0.25308734
alexnet_w1_mlp_simclrhn_probe3,1,468,NaN,bear,airplane,16-0-10,0468_eid_dnn_16-0-10_airplane_10_n02690373_19329.png,n02690373_19329.png,0.0,0.15625912,0.7002591,-0.3846661
alexnet_w1_mlp_simclrhn_probe3,1,469,NaN,oven,bottle,32-0-10,0469_eid_dnn_32-0-10_bottle_10_n04560804_1356.png,n04560804_1356.png,0.0,0.11899232,0.65195906,-0.3768644
alexnet_w1_mlp_simclrhn_probe3,1,470,NaN,bear,bear,8-0-10,0470_eid_dnn_8-0-10_bear_10_n02134084_3960.png,n02134084_3960.png,1.0,1.2996788,1.0185797,0.19876707
alexnet_w1_mlp_simclrhn_probe3,1,471,NaN,boat,boat,4-0-10,0471_eid_dnn_4-0-10_boat_10_n04612504_27504.png,n04612504_27504.png,1.0,0.4991413,0.43584514,0.04475715
alexnet_w1_mlp_simclrhn_probe3,1,472,NaN,dog,dog,4-0-10,0472_eid_dnn_4-0-10_dog_10_n02099601_9973.png,n02099601_9973.png,1.0,0.9794247,0.5825779,0.2806131
alexnet_w1_mlp_simclrhn_probe3,1,473,NaN,oven,truck,64-0-10,0473_eid_dnn_64-0-10_truck_10_n03417042_26843.png,n03417042_26843.png,0.0,-0.3588707,0.80038124,-0.8197149
alexnet_w1_mlp_simclrhn_probe3,1,474,NaN,oven,knife,64-0-10,0474_eid_dnn_64-0-10_knife_10_n03041632_55711.png,n03041632_55711.png,0.0,0.077447735,0.17934643,-0.07205326
alexnet_w1_mlp_simclrhn_probe3,1,475,NaN,bear,elephant,8-0-10,0475_eid_dnn_8-0-10_elephant_10_n02504013_1986.png,n02504013_1986.png,0.0,0.87408096,2.1966677,-0.9352101
alexnet_w1_mlp_simclrhn_probe3,1,476,NaN,keyboard,keyboard,4-0-10,0476_eid_dnn_4-0-10_keyboard_10_n03085013_9475.png,n03085013_9475.png,1.0,0.37068722,0.21811785,0.107882835
alexnet_w1_mlp_simclrhn_probe3,1,477,NaN,oven,elephant,32-0-10,0477_eid_dnn_32-0-10_elephant_10_n02504458_3381.png,n02504458_3381.png,0.0,-0.016354322,0.30403265,-0.22654781
alexnet_w1_mlp_simclrhn_probe3,1,478,NaN,cat,airplane,8-0-10,0478_eid_dnn_8-0-10_airplane_10_n02690373_1161.png,n02690373_1161.png,0.0,0.06212384,0.7694904,-0.5001837
alexnet_w1_mlp_simclrhn_probe3,1,479,NaN,oven,cat,64-0-10,0479_eid_dnn_64-0-10_cat_10_n02124075_7474.png,n02124075_7474.png,0.0,-0.19581406,0.29693308,-0.34842485
alexnet_w1_mlp_simclrhn_probe3,1,480,NaN,cat,cat,4-0-10,0480_eid_dnn_4-0-10_cat_10_n02125311_9074.png,n02125311_9074.png,1.0,0.6263168,0.3256072,0.21263379
alexnet_w1_mlp_simclrhn_probe3,1,481,NaN,oven,airplane,128-0-10,0481_eid_dnn_128-0-10_airplane_10_n02690373_2867.png,n02690373_2867.png,0.0,-0.27546424,0.43827942,-0.50469303
alexnet_w1_mlp_simclrhn_probe3,1,482,NaN,elephant,elephant,2-0-10,0482_eid_dnn_2-0-10_elephant_10_n02504013_1692.png,n02504013_1692.png,1.0,1.6932454,1.3895967,0.21471207
alexnet_w1_mlp_simclrhn_probe3,1,483,NaN,bear,bird,8-0-10,0483_eid_dnn_8-0-10_bird_10_n02009912_11813.png,n02009912_11813.png,0.0,-0.1475067,0.47500008,-0.44017878
alexnet_w1_mlp_simclrhn_probe3,1,484,NaN,bear,bottle,16-0-10,0484_eid_dnn_16-0-10_bottle_10_n04557648_10302.png,n04557648_10302.png,0.0,-0.12394536,0.29852805,-0.2987338
alexnet_w1_mlp_simclrhn_probe3,1,485,NaN,oven,keyboard,4-0-10,0485_eid_dnn_4-0-10_keyboard_10_n03085013_20302.png,n03085013_20302.png,0.0,0.43798885,1.6839546,-0.8810308
alexnet_w1_mlp_simclrhn_probe3,1,486,NaN,keyboard,elephant,128-0-10,0486_eid_dnn_128-0-10_elephant_10_n02504458_5827.png,n02504458_5827.png,0.0,0.058814652,0.3428684,-0.20085633
alexnet_w1_mlp_simclrhn_probe3,1,487,NaN,keyboard,knife,1-0-10,0487_eid_dnn_1-0-10_knife_10_n03041632_11327.png,n03041632_11327.png,0.0,0.16003726,1.4297895,-0.89785045
alexnet_w1_mlp_simclrhn_probe3,1,488,NaN,chair,bird,4-0-10,0488_eid_dnn_4-0-10_bird_10_n01795545_17770.png,n01795545_17770.png,0.0,0.077775404,0.32220545,-0.17283815
alexnet_w1_mlp_simclrhn_probe3,1,489,NaN,oven,bicycle,4-0-10,0489_eid_dnn_4-0-10_bicycle_10_n02835271_10932.png,n02835271_10932.png,0.0,-0.116148815,0.78692913,-0.6385726
alexnet_w1_mlp_simclrhn_probe3,1,490,NaN,cat,cat,2-0-10,0490_eid_dnn_2-0-10_cat_10_n02123597_14233.png,n02123597_14233.png,1.0,1.0573295,0.7280117,0.23286286
alexnet_w1_mlp_simclrhn_probe3,1,491,NaN,bird,bird,1-0-10,0491_eid_dnn_1-0-10_bird_10_n01614925_7662.png,n01614925_7662.png,1.0,2.7637186,0.72158945,1.4440033
alexnet_w1_mlp_simclrhn_probe3,1,492,NaN,oven,truck,16-0-10,0492_eid_dnn_16-0-10_truck_10_n03417042_5875.png,n03417042_5875.png,0.0,-0.31383842,0.76575845,-0.7633903
alexnet_w1_mlp_simclrhn_probe3,1,493,NaN,bear,bear,1-0-10,0493_eid_dnn_1-0-10_bear_10_n02134418_304.png,n02134418_304.png,1.0,3.1004279,1.9405442,0.8201616
alexnet_w1_mlp_simclrhn_probe3,1,494,NaN,cat,bird,1-0-10,0494_eid_dnn_1-0-10_bird_10_n01622779_5148.png,n01622779_5148.png,0.0,0.30788648,1.3677177,-0.7494139
alexnet_w1_mlp_simclrhn_probe3,1,495,NaN,elephant,knife,1-0-10,0495_eid_dnn_1-0-10_knife_10_n03041632_44230.png,n03041632_44230.png,0.0,0.48993173,0.66458416,-0.12349792
alexnet_w1_mlp_simclrhn_probe3,1,496,NaN,oven,boat,32-0-10,0496_eid_dnn_32-0-10_boat_10_n03662601_8650.png,n03662601_8650.png,0.0,-0.15835698,0.40749276,-0.40011618
alexnet_w1_mlp_simclrhn_probe3,1,497,NaN,oven,oven,16-0-10,0497_eid_dnn_16-0-10_oven_10_n04111531_4346.png,n04111531_4346.png,1.0,0.66697454,0.65881896,0.005766869
alexnet_w1_mlp_simclrhn_probe3,1,498,NaN,clock,clock,2-0-10,0498_eid_dnn_2-0-10_clock_10_n03196217_2201.png,n03196217_2201.png,1.0,0.68306255,0.6019133,0.05738121
alexnet_w1_mlp_simclrhn_probe3,1,499,NaN,oven,bicycle,64-0-10,0499_eid_dnn_64-0-10_bicycle_10_n02835271_8757.png,n02835271_8757.png,0.0,-0.018973261,0.27457738,-0.20757166
alexnet_w1_mlp_simclrhn_probe3,1,500,NaN,cat,keyboard,8-0-10,0500_eid_dnn_8-0-10_keyboard_10_n03085013_23563.png,n03085013_23563.png,0.0,-0.44435865,1.4057951,-1.3082563
alexnet_w1_mlp_simclrhn_probe3,1,501,NaN,oven,boat,64-0-10,0501_eid_dnn_64-0-10_boat_10_n04273569_15879.png,n04273569_15879.png,0.0,-0.14320159,0.37449098,-0.36606392
alexnet_w1_mlp_simclrhn_probe3,1,502,NaN,elephant,truck,64-0-10,0502_eid_dnn_64-0-10_truck_10_n04467665_30588.png,n04467665_30588.png,0.0,-0.29561046,0.16679466,-0.3269698
alexnet_w1_mlp_simclrhn_probe3,1,503,NaN,oven,truck,16-0-10,0503_eid_dnn_16-0-10_truck_10_n03417042_1875.png,n03417042_1875.png,0.0,-0.36339644,1.1551738,-1.0737913
alexnet_w1_mlp_simclrhn_probe3,1,504,NaN,oven,cat,128-0-10,0504_eid_dnn_128-0-10_cat_10_n02123394_6014.png,n02123394_6014.png,0.0,-0.23295885,0.28826547,-0.36856127
alexnet_w1_mlp_simclrhn_probe3,1,505,NaN,boat,boat,1-0-10,0505_eid_dnn_1-0-10_boat_10_n04273569_10847.png,n04273569_10847.png,1.0,3.509657,1.4957111,1.4240748
alexnet_w1_mlp_simclrhn_probe3,1,506,NaN,oven,elephant,64-0-10,0506_eid_dnn_64-0-10_elephant_10_n02504013_5495.png,n02504013_5495.png,0.0,0.08224384,0.3058799,-0.15813458
alexnet_w1_mlp_simclrhn_probe3,1,507,NaN,oven,bottle,128-0-10,0507_eid_dnn_128-0-10_bottle_10_n04560804_16276.png,n04560804_16276.png,0.0,0.11194373,0.23298894,-0.08559189
alexnet_w1_mlp_simclrhn_probe3,1,508,NaN,truck,car,1-0-10,0508_eid_dnn_1-0-10_car_10_n04285008_1243.png,n04285008_1243.png,0.0,1.2203239,2.0585258,-0.5926982
alexnet_w1_mlp_simclrhn_probe3,1,509,NaN,oven,keyboard,32-0-10,0509_eid_dnn_32-0-10_keyboard_10_n03085013_22027.png,n03085013_22027.png,0.0,-0.24109761,0.2178705,-0.32453945
alexnet_w1_mlp_simclrhn_probe3,1,510,NaN,oven,cat,32-0-10,0510_eid_dnn_32-0-10_cat_10_n02123045_12766.png,n02123045_12766.png,0.0,0.021986863,0.6185444,-0.4218299
alexnet_w1_mlp_simclrhn_probe3,1,511,NaN,oven,chair,64-0-10,0511_eid_dnn_64-0-10_chair_10_n04429376_29954.png,n04429376_29954.png,0.0,0.03759533,0.09800972,-0.042719424
alexnet_w1_mlp_simclrhn_probe3,1,512,NaN,oven,elephant,32-0-10,0512_eid_dnn_32-0-10_elephant_10_n02504013_5678.png,n02504013_5678.png,0.0,0.15291743,0.5723221,-0.29656386
alexnet_w1_mlp_simclrhn_probe3,1,513,NaN,cat,chair,4-0-10,0513_eid_dnn_4-0-10_chair_10_n03376595_6333.png,n03376595_6333.png,0.0,0.08171716,0.34959248,-0.18941645
alexnet_w1_mlp_simclrhn_probe3,1,514,NaN,oven,keyboard,2-0-10,0514_eid_dnn_2-0-10_keyboard_10_n03085013_22605.png,n03085013_22605.png,0.0,0.7364297,1.6246659,-0.6280778
alexnet_w1_mlp_simclrhn_probe3,1,515,NaN,oven,car,32-0-10,0515_eid_dnn_32-0-10_car_10_n04285008_16557.png,n04285008_16557.png,0.0,-0.34021196,1.5863025,-1.3622515
alexnet_w1_mlp_simclrhn_probe3,1,516,NaN,oven,bottle,64-0-10,0516_eid_dnn_64-0-10_bottle_10_n02823428_1034.png,n02823428_1034.png,0.0,0.14894472,0.6478929,-0.35280964
alexnet_w1_mlp_simclrhn_probe3,1,517,NaN,oven,elephant,16-0-10,0517_eid_dnn_16-0-10_elephant_10_n02504013_7777.png,n02504013_7777.png,0.0,0.08485619,0.9208833,-0.5911604
alexnet_w1_mlp_simclrhn_probe3,1,518,NaN,bottle,knife,4-0-10,0518_eid_dnn_4-0-10_knife_10_n03041632_14293.png,n03041632_14293.png,0.0,0.20274988,0.23656759,-0.023912732
alexnet_w1_mlp_simclrhn_probe3,1,519,NaN,cat,knife,8-0-10,0519_eid_dnn_8-0-10_knife_10_n03041632_50423.png,n03041632_50423.png,0.0,-0.07081139,0.8393484,-0.64358014
alexnet_w1_mlp_simclrhn_probe3,1,520,NaN,chair,chair,2-0-10,0520_eid_dnn_2-0-10_chair_10_n03376595_3043.png,n03376595_3043.png,1.0,1.0071794,0.85216033,0.10961502
alexnet_w1_mlp_simclrhn_probe3,1,521,NaN,bear,cat,8-0-10,0521_eid_dnn_8-0-10_cat_10_n02123394_2434.png,n02123394_2434.png,0.0,0.7422132,0.7722267,-0.021222752
alexnet_w1_mlp_simclrhn_probe3,1,522,NaN,truck,truck,1-0-10,0522_eid_dnn_1-0-10_truck_10_n04467665_54079.png,n04467665_54079.png,1.0,1.67028,1.3931476,0.19596219
alexnet_w1_mlp_simclrhn_probe3,1,523,NaN,bear,bird,2-0-10,0523_eid_dnn_2-0-10_bird_10_n01855672_1001.png,n01855672_1001.png,0.0,0.785908,1.2714717,-0.34334543
alexnet_w1_mlp_simclrhn_probe3,1,524,NaN,bottle,bottle,1-0-10,0524_eid_dnn_1-0-10_bottle_10_n04560804_6112.png,n04560804_6112.png,1.0,1.6847582,1.0484087,0.449967
alexnet_w1_mlp_simclrhn_probe3,1,525,NaN,oven,keyboard,1-0-10,0525_eid_dnn_1-0-10_keyboard_10_n04505470_1744.png,n04505470_1744.png,0.0,2.6325257,3.5177605,-0.6259556
alexnet_w1_mlp_simclrhn_probe3,1,526,NaN,oven,boat,32-0-10,0526_eid_dnn_32-0-10_boat_10_n02951358_15087.png,n02951358_15087.png,0.0,-0.10405519,1.1477971,-0.8851932
alexnet_w1_mlp_simclrhn_probe3,1,527,NaN,elephant,bottle,4-0-10,0527_eid_dnn_4-0-10_bottle_10_n04557648_10051.png,n04557648_10051.png,0.0,0.17686401,1.1266606,-0.6716076
alexnet_w1_mlp_simclrhn_probe3,1,528,NaN,oven,bear,64-0-10,0528_eid_dnn_64-0-10_bear_10_n02134084_5794.png,n02134084_5794.png,0.0,0.05136113,0.52936697,-0.33800116
alexnet_w1_mlp_simclrhn_probe3,1,529,NaN,keyboard,keyboard,4-0-10,0529_eid_dnn_4-0-10_keyboard_10_n04505470_751.png,n04505470_751.png,1.0,1.9742124,0.47185197,1.0623293
alexnet_w1_mlp_simclrhn_probe3,1,530,NaN,oven,boat,128-0-10,0530_eid_dnn_128-0-10_boat_10_n04273569_9306.png,n04273569_9306.png,0.0,-0.35442814,0.3774549,-0.5175195
alexnet_w1_mlp_simclrhn_probe3,1,531,NaN,oven,chair,16-0-10,0531_eid_dnn_16-0-10_chair_10_n02791124_9162.png,n02791124_9162.png,0.0,-0.021146566,0.6579415,-0.48018783
alexnet_w1_mlp_simclrhn_probe3,1,532,NaN,elephant,bicycle,128-0-10,0532_eid_dnn_128-0-10_bicycle_10_n02835271_25033.png,n02835271_25033.png,0.0,0.03411922,0.1998588,-0.117195584
alexnet_w1_mlp_simclrhn_probe3,1,533,NaN,keyboard,keyboard,128-0-10,0533_eid_dnn_128-0-10_keyboard_10_n04505470_3905.png,n04505470_3905.png,1.0,0.53735995,0.114080235,0.29930395
alexnet_w1_mlp_simclrhn_probe3,1,534,NaN,bottle,knife,4-0-10,0534_eid_dnn_4-0-10_knife_10_n03041632_32054.png,n03041632_32054.png,0.0,0.29206175,0.35764065,-0.046371292
alexnet_w1_mlp_simclrhn_probe3,1,535,NaN,cat,clock,8-0-10,0535_eid_dnn_8-0-10_clock_10_n03196217_13380.png,n03196217_13380.png,0.0,-0.22735824,0.6728018,-0.63650924
alexnet_w1_mlp_simclrhn_probe3,1,536,NaN,bird,chair,32-0-10,0536_eid_dnn_32-0-10_chair_10_n03376595_8083.png,n03376595_8083.png,0.0,-0.17192581,0.25628892,-0.30279353
alexnet_w1_mlp_simclrhn_probe3,1,537,NaN,bear,cat,8-0-10,0537_eid_dnn_8-0-10_cat_10_n02125311_47927.png,n02125311_47927.png,0.0,0.9338471,1.1997504,-0.18802203
alexnet_w1_mlp_simclrhn_probe3,1,538,NaN,oven,boat,64-0-10,0538_eid_dnn_64-0-10_boat_10_n04273569_1141.png,n04273569_1141.png,0.0,-0.2581527,0.8360267,-0.77370167
alexnet_w1_mlp_simclrhn_probe3,1,539,NaN,oven,dog,64-0-10,0539_eid_dnn_64-0-10_dog_10_n02097130_5859.png,n02097130_5859.png,0.0,-0.09145734,0.38009736,-0.33343953
alexnet_w1_mlp_simclrhn_probe3,1,540,NaN,bear,dog,16-0-10,0540_eid_dnn_16-0-10_dog_10_n02090721_835.png,n02090721_835.png,0.0,-0.006577811,0.37642652,-0.27082497
alexnet_w1_mlp_simclrhn_probe3,1,541,NaN,oven,bear,128-0-10,0541_eid_dnn_128-0-10_bear_10_n02132136_15806.png,n02132136_15806.png,0.0,-0.008579314,0.15655349,-0.11676653
alexnet_w1_mlp_simclrhn_probe3,1,542,NaN,oven,cat,128-0-10,0542_eid_dnn_128-0-10_cat_10_n02124075_12069.png,n02124075_12069.png,0.0,-0.080229275,0.4103424,-0.34688658
alexnet_w1_mlp_simclrhn_probe3,1,543,NaN,oven,oven,2-0-10,0543_eid_dnn_2-0-10_oven_10_n04111531_21382.png,n04111531_21382.png,1.0,3.0931125,0.31635794,1.963462
alexnet_w1_mlp_simclrhn_probe3,1,544,NaN,knife,cat,1-0-10,0544_eid_dnn_1-0-10_cat_10_n02123597_2009.png,n02123597_2009.png,0.0,-0.032966096,0.29456872,-0.2316021
alexnet_w1_mlp_simclrhn_probe3,1,545,NaN,oven,oven,32-0-10,0545_eid_dnn_32-0-10_oven_10_n04111531_4392.png,n04111531_4392.png,1.0,0.6573879,0.2812438,0.26597404
alexnet_w1_mlp_simclrhn_probe3,1,546,NaN,boat,boat,4-0-10,0546_eid_dnn_4-0-10_boat_10_n03344393_640.png,n03344393_640.png,1.0,0.64409816,0.5545546,0.063316874
alexnet_w1_mlp_simclrhn_probe3,1,547,NaN,oven,car,4-0-10,0547_eid_dnn_4-0-10_car_10_n02814533_245.png,n02814533_245.png,0.0,-0.41060868,0.8397929,-0.8841675
alexnet_w1_mlp_simclrhn_probe3,1,548,NaN,bird,bird,1-0-10,0548_eid_dnn_1-0-10_bird_10_n01530575_3831.png,n01530575_3831.png,1.0,0.8779079,0.116749905,0.53822
alexnet_w1_mlp_simclrhn_probe3,1,549,NaN,truck,truck,2-0-10,0549_eid_dnn_2-0-10_truck_10_n04467665_32276.png,n04467665_32276.png,1.0,3.6632078,2.406276,0.888785
alexnet_w1_mlp_simclrhn_probe3,1,550,NaN,oven,elephant,64-0-10,0550_eid_dnn_64-0-10_elephant_10_n02504458_5941.png,n02504458_5941.png,0.0,-0.11165599,0.26546195,-0.26666266
alexnet_w1_mlp_simclrhn_probe3,1,551,NaN,elephant,elephant,4-0-10,0551_eid_dnn_4-0-10_elephant_10_n02504013_9796.png,n02504013_9796.png,1.0,2.5494618,2.2274392,0.22770442
alexnet_w1_mlp_simclrhn_probe3,1,552,NaN,oven,airplane,4-0-10,0552_eid_dnn_4-0-10_airplane_10_n02690373_8214.png,n02690373_8214.png,0.0,0.83452827,0.8830987,-0.034344498
alexnet_w1_mlp_simclrhn_probe3,1,553,NaN,airplane,airplane,1-0-10,0553_eid_dnn_1-0-10_airplane_10_n02690373_8967.png,n02690373_8967.png,1.0,7.7624774,0.8651231,4.877166
alexnet_w1_mlp_simclrhn_probe3,1,554,NaN,oven,elephant,64-0-10,0554_eid_dnn_64-0-10_elephant_10_n02504458_7642.png,n02504458_7642.png,0.0,0.03156648,0.43604523,-0.28600967
alexnet_w1_mlp_simclrhn_probe3,1,555,NaN,boat,boat,1-0-10,0555_eid_dnn_1-0-10_boat_10_n04273569_15455.png,n04273569_15455.png,1.0,1.6534109,0.34311166,0.92652154
alexnet_w1_mlp_simclrhn_probe3,1,556,NaN,bear,knife,8-0-10,0556_eid_dnn_8-0-10_knife_10_n03041632_3063.png,n03041632_3063.png,0.0,0.021308493,0.9231856,-0.63772345
alexnet_w1_mlp_simclrhn_probe3,1,557,NaN,oven,bottle,4-0-10,0557_eid_dnn_4-0-10_bottle_10_n03937543_4912.png,n03937543_4912.png,0.0,1.054299,1.2645487,-0.14866896
alexnet_w1_mlp_simclrhn_probe3,1,558,NaN,cat,oven,4-0-10,0558_eid_dnn_4-0-10_oven_10_n04111531_5776.png,n04111531_5776.png,0.0,0.48180386,0.9478175,-0.32952142
alexnet_w1_mlp_simclrhn_probe3,1,559,NaN,oven,bottle,128-0-10,0559_eid_dnn_128-0-10_bottle_10_n03983396_4540.png,n03983396_4540.png,0.0,0.1441511,0.36889622,-0.1589188
alexnet_w1_mlp_simclrhn_probe3,1,560,NaN,knife,knife,2-0-10,0560_eid_dnn_2-0-10_knife_10_n03041632_965.png,n03041632_965.png,1.0,1.4667509,0.48293686,0.69566154
alexnet_w1_mlp_simclrhn_probe3,1,561,NaN,oven,knife,32-0-10,0561_eid_dnn_32-0-10_knife_10_n03041632_12949.png,n03041632_12949.png,0.0,0.079139136,0.61043227,-0.375681
alexnet_w1_mlp_simclrhn_probe3,1,562,NaN,bear,knife,16-0-10,0562_eid_dnn_16-0-10_knife_10_n03041632_18766.png,n03041632_18766.png,0.0,0.100013226,0.6232155,-0.3699599
alexnet_w1_mlp_simclrhn_probe3,1,563,NaN,oven,keyboard,8-0-10,0563_eid_dnn_8-0-10_keyboard_10_n04505470_2869.png,n04505470_2869.png,0.0,0.3010104,1.2563425,-0.67552185
alexnet_w1_mlp_simclrhn_probe3,1,564,NaN,elephant,bicycle,4-0-10,0564_eid_dnn_4-0-10_bicycle_10_n02835271_18537.png,n02835271_18537.png,0.0,0.6603638,1.2530243,-0.4190743
alexnet_w1_mlp_simclrhn_probe3,1,565,NaN,bottle,clock,32-0-10,0565_eid_dnn_32-0-10_clock_10_n04548280_1119.png,n04548280_1119.png,0.0,0.026877927,0.069608055,-0.030214766
alexnet_w1_mlp_simclrhn_probe3,1,566,NaN,oven,oven,1-0-10,0566_eid_dnn_1-0-10_oven_10_n04111531_687.png,n04111531_687.png,1.0,4.702186,0.64377075,2.869733
alexnet_w1_mlp_simclrhn_probe3,1,567,NaN,oven,chair,64-0-10,0567_eid_dnn_64-0-10_chair_10_n03376595_3038.png,n03376595_3038.png,0.0,0.09046106,0.5540167,-0.32778335
alexnet_w1_mlp_simclrhn_probe3,1,568,NaN,oven,bicycle,16-0-10,0568_eid_dnn_16-0-10_bicycle_10_n02835271_3989.png,n02835271_3989.png,0.0,0.08425408,0.60419255,-0.36765203
alexnet_w1_mlp_simclrhn_probe3,1,569,NaN,oven,dog,64-0-10,0569_eid_dnn_64-0-10_dog_10_n02096437_4563.png,n02096437_4563.png,0.0,-0.12040295,0.58165926,-0.49643293
alexnet_w1_mlp_simclrhn_probe3,1,570,NaN,oven,clock,32-0-10,0570_eid_dnn_32-0-10_clock_10_n02708093_685.png,n02708093_685.png,0.0,-0.13583986,0.28698808,-0.29898453
alexnet_w1_mlp_simclrhn_probe3,1,571,NaN,oven,boat,32-0-10,0571_eid_dnn_32-0-10_boat_10_n03662601_8360.png,n03662601_8360.png,0.0,-0.013421947,0.85563207,-0.614514
alexnet_w1_mlp_simclrhn_probe3,1,572,NaN,oven,keyboard,8-0-10,0572_eid_dnn_8-0-10_keyboard_10_n03085013_17035.png,n03085013_17035.png,0.0,-0.33816597,0.29496568,-0.44769168
alexnet_w1_mlp_simclrhn_probe3,1,573,NaN,oven,dog,64-0-10,0573_eid_dnn_64-0-10_dog_10_n02110063_12166.png,n02110063_12166.png,0.0,-0.09819993,0.70116585,-0.565237
alexnet_w1_mlp_simclrhn_probe3,1,574,NaN,elephant,dog,2-0-10,0574_eid_dnn_2-0-10_dog_10_n02108422_6951.png,n02108422_6951.png,0.0,1.7037246,2.1563194,-0.32003284
alexnet_w1_mlp_simclrhn_probe3,1,575,NaN,oven,bear,64-0-10,0575_eid_dnn_64-0-10_bear_10_n02134418_912.png,n02134418_912.png,0.0,-0.014840677,0.13779403,-0.10792904
alexnet_w1_mlp_simclrhn_probe3,1,576,NaN,clock,clock,4-0-10,0576_eid_dnn_4-0-10_clock_10_n02708093_564.png,n02708093_564.png,1.0,0.8698794,0.45041636,0.2966052
alexnet_w1_mlp_simclrhn_probe3,1,577,NaN,oven,car,64-0-10,0577_eid_dnn_64-0-10_car_10_n04285008_11893.png,n04285008_11893.png,0.0,-0.4503937,0.3817404,-0.5884077
alexnet_w1_mlp_simclrhn_probe3,1,578,NaN,oven,knife,64-0-10,0578_eid_dnn_64-0-10_knife_10_n03041632_20504.png,n03041632_20504.png,0.0,0.095519155,0.36332813,-0.18936954
alexnet_w1_mlp_simclrhn_probe3,1,579,NaN,clock,clock,4-0-10,0579_eid_dnn_4-0-10_clock_10_n04548280_4557.png,n04548280_4557.png,1.0,0.38845253,0.2094227,0.12659322
alexnet_w1_mlp_simclrhn_probe3,1,580,NaN,bird,clock,32-0-10,0580_eid_dnn_32-0-10_clock_10_n02708093_3360.png,n02708093_3360.png,0.0,-0.102626555,0.062178075,-0.11653448
alexnet_w1_mlp_simclrhn_probe3,1,581,NaN,cat,bear,16-0-10,0581_eid_dnn_16-0-10_bear_10_n02134084_617.png,n02134084_617.png,0.0,0.38549924,0.39943907,-0.009856947
alexnet_w1_mlp_simclrhn_probe3,1,582,NaN,knife,dog,1-0-10,0582_eid_dnn_1-0-10_dog_10_n02093991_4081.png,n02093991_4081.png,0.0,-0.46362713,0.94899213,-0.99887264
alexnet_w1_mlp_simclrhn_probe3,1,583,NaN,bear,elephant,16-0-10,0583_eid_dnn_16-0-10_elephant_10_n02504458_1727.png,n02504458_1727.png,0.0,0.78251517,0.895355,-0.0797898
alexnet_w1_mlp_simclrhn_probe3,1,584,NaN,bottle,clock,32-0-10,0584_eid_dnn_32-0-10_clock_10_n04548280_16295.png,n04548280_16295.png,0.0,0.0641769,0.12735741,-0.044675365
alexnet_w1_mlp_simclrhn_probe3,1,585,NaN,bear,boat,4-0-10,0585_eid_dnn_4-0-10_boat_10_n02951358_16217.png,n02951358_16217.png,0.0,0.26702616,2.2687602,-1.4154397
alexnet_w1_mlp_simclrhn_probe3,1,586,NaN,bear,airplane,8-0-10,0586_eid_dnn_8-0-10_airplane_10_n02690373_7536.png,n02690373_7536.png,0.0,-0.21221203,0.7607584,-0.687994
alexnet_w1_mlp_simclrhn_probe3,1,587,NaN,cat,cat,8-0-10,0587_eid_dnn_8-0-10_cat_10_n02123597_22140.png,n02123597_22140.png,1.0,0.77831006,0.5523459,0.15978082
alexnet_w1_mlp_simclrhn_probe3,1,588,NaN,oven,bottle,128-0-10,0588_eid_dnn_128-0-10_bottle_10_n04591713_8914.png,n04591713_8914.png,0.0,0.09270428,0.1134818,-0.014691923
alexnet_w1_mlp_simclrhn_probe3,1,589,NaN,oven,car,128-0-10,0589_eid_dnn_128-0-10_car_10_n03100240_963.png,n03100240_963.png,0.0,-0.54439425,0.34037927,-0.62562937
alexnet_w1_mlp_simclrhn_probe3,1,590,NaN,oven,boat,32-0-10,0590_eid_dnn_32-0-10_boat_10_n02951358_18762.png,n02951358_18762.png,0.0,-0.16269442,0.23252015,-0.2794589
alexnet_w1_mlp_simclrhn_probe3,1,591,NaN,oven,bear,32-0-10,0591_eid_dnn_32-0-10_bear_10_n02134418_2633.png,n02134418_2633.png,0.0,0.597856,0.7220003,-0.08778329
alexnet_w1_mlp_simclrhn_probe3,1,592,NaN,oven,airplane,64-0-10,0592_eid_dnn_64-0-10_airplane_10_n02690373_1169.png,n02690373_1169.png,0.0,-0.1993261,0.29090208,-0.3466437
alexnet_w1_mlp_simclrhn_probe3,1,593,NaN,bicycle,bicycle,2-0-10,0593_eid_dnn_2-0-10_bicycle_10_n03792782_12704.png,n03792782_12704.png,1.0,0.7854341,0.47437736,0.21995035
alexnet_w1_mlp_simclrhn_probe3,1,594,NaN,oven,dog,64-0-10,0594_eid_dnn_64-0-10_dog_10_n02088238_2973.png,n02088238_2973.png,0.0,-0.06466704,0.2624229,-0.23128751
alexnet_w1_mlp_simclrhn_probe3,1,595,NaN,oven,knife,32-0-10,0595_eid_dnn_32-0-10_knife_10_n03041632_41493.png,n03041632_41493.png,0.0,0.019115124,0.5991508,-0.41014713
alexnet_w1_mlp_simclrhn_probe3,1,596,NaN,elephant,bottle,128-0-10,0596_eid_dnn_128-0-10_bottle_10_n03983396_2959.png,n03983396_2959.png,0.0,0.02872576,0.22014746,-0.13535559
alexnet_w1_mlp_simclrhn_probe3,1,597,NaN,oven,clock,1-0-10,0597_eid_dnn_1-0-10_clock_10_n02708093_2843.png,n02708093_2843.png,0.0,1.5758996,2.9178224,-0.9488827
alexnet_w1_mlp_simclrhn_probe3,1,598,NaN,bear,oven,8-0-10,0598_eid_dnn_8-0-10_oven_10_n04111531_12952.png,n04111531_12952.png,0.0,0.27873054,1.1708506,-0.6308242
alexnet_w1_mlp_simclrhn_probe3,1,599,NaN,bear,bear,16-0-10,0599_eid_dnn_16-0-10_bear_10_n02134418_2891.png,n02134418_2891.png,1.0,1.2204562,0.739858,0.3398343
alexnet_w1_mlp_simclrhn_probe3,1,600,NaN,oven,truck,32-0-10,0600_eid_dnn_32-0-10_truck_10_n03417042_3862.png,n03417042_3862.png,0.0,-0.2643411,0.85396016,-0.79075843
