subj,session,trial,rt,object_response,category,condition,imagename,filename,is_correct,targ_act,max_nontarg_act,decision_margin
bagnet33,1,1,NaN,cat,car,64-3-10,0001_eid_dnn_64-3-10_car_10_n04285008_8113.png,n04285008_8113.png,0.0,-5.122918,5.4546,-7.479435
bagnet33,1,2,NaN,elephant,oven,8-3-10,0002_eid_dnn_8-3-10_oven_10_n04111531_11848.png,n04111531_11848.png,0.0,3.0102057,4.5818415,-1.1113143
bagnet33,1,3,NaN,knife,truck,8-3-10,0003_eid_dnn_8-3-10_truck_10_n03417042_25458.png,n03417042_25458.png,0.0,-1.0416701,3.490578,-3.2047834
bagnet33,1,4,NaN,elephant,chair,16-3-10,0004_eid_dnn_16-3-10_chair_10_n03376595_6208.png,n03376595_6208.png,0.0,-0.3988083,3.0831962,-2.462149
bagnet33,1,5,NaN,elephant,cat,32-3-10,0005_eid_dnn_32-3-10_cat_10_n02123045_12084.png,n02123045_12084.png,0.0,1.9438406,3.7245862,-1.2591773
bagnet33,1,6,NaN,knife,keyboard,8-3-10,0006_eid_dnn_8-3-10_keyboard_10_n03085013_20884.png,n03085013_20884.png,0.0,0.5142826,2.023796,-1.0673872
bagnet33,1,7,NaN,bottle,airplane,4-3-10,0007_eid_dnn_4-3-10_airplane_10_n02690373_5992.png,n02690373_5992.png,0.0,2.2249675,3.2142148,-0.6995035
bagnet33,1,8,NaN,elephant,bear,32-3-10,0008_eid_dnn_32-3-10_bear_10_n02132136_6641.png,n02132136_6641.png,0.0,3.548647,4.8811913,-0.94225115
bagnet33,1,9,NaN,oven,oven,2-3-10,0009_eid_dnn_2-3-10_oven_10_n04111531_2797.png,n04111531_2797.png,1.0,4.2495646,2.669066,1.1175814
bagnet33,1,10,NaN,airplane,airplane,2-3-10,0010_eid_dnn_2-3-10_airplane_10_n02690373_7457.png,n02690373_7457.png,1.0,17.342346,4.6288333,8.989811
bagnet33,1,11,NaN,elephant,truck,16-3-10,0011_eid_dnn_16-3-10_truck_10_n03796401_2751.png,n03796401_2751.png,0.0,-1.67271,4.296203,-4.220659
bagnet33,1,12,NaN,bear,bear,2-3-10,0012_eid_dnn_2-3-10_bear_10_n02134418_860.png,n02134418_860.png,1.0,2.4425516,2.4160964,0.018706625
bagnet33,1,13,NaN,knife,knife,4-3-10,0013_eid_dnn_4-3-10_knife_10_n03041632_2058.png,n03041632_2058.png,1.0,4.285762,2.3339489,1.3801402
bagnet33,1,14,NaN,cat,airplane,32-3-10,0014_eid_dnn_32-3-10_airplane_10_n02690373_10510.png,n02690373_10510.png,0.0,-3.4056892,2.1046135,-3.8963723
bagnet33,1,15,NaN,elephant,keyboard,64-3-10,0015_eid_dnn_64-3-10_keyboard_10_n03085013_6313.png,n03085013_6313.png,0.0,-1.7127526,8.556503,-7.2614603
bagnet33,1,16,NaN,bottle,bicycle,4-3-10,0016_eid_dnn_4-3-10_bicycle_10_n02835271_6278.png,n02835271_6278.png,0.0,-0.3538216,3.0036604,-2.3740983
bagnet33,1,17,NaN,keyboard,keyboard,2-3-10,0017_eid_dnn_2-3-10_keyboard_10_n03085013_24192.png,n03085013_24192.png,1.0,34.541904,9.154081,17.951902
bagnet33,1,18,NaN,car,car,2-3-10,0018_eid_dnn_2-3-10_car_10_n04285008_8255.png,n04285008_8255.png,1.0,7.710409,7.654319,0.03966187
bagnet33,1,19,NaN,airplane,airplane,2-3-10,0019_eid_dnn_2-3-10_airplane_10_n02690373_4591.png,n02690373_4591.png,1.0,3.5027738,1.8140345,1.194119
bagnet33,1,20,NaN,airplane,airplane,4-3-10,0020_eid_dnn_4-3-10_airplane_10_n02690373_7075.png,n02690373_7075.png,1.0,6.37692,3.2129579,2.2372594
bagnet33,1,21,NaN,knife,bicycle,4-3-10,0021_eid_dnn_4-3-10_bicycle_10_n02835271_21464.png,n02835271_21464.png,0.0,0.007695198,2.0311527,-1.4308006
bagnet33,1,22,NaN,elephant,car,64-3-10,0022_eid_dnn_64-3-10_car_10_n03100240_362.png,n03100240_362.png,0.0,-4.1409163,3.7802038,-5.601078
bagnet33,1,23,NaN,elephant,truck,32-3-10,0023_eid_dnn_32-3-10_truck_10_n04467665_50927.png,n04467665_50927.png,0.0,-2.209179,3.9269056,-4.338867
bagnet33,1,24,NaN,elephant,car,16-3-10,0024_eid_dnn_16-3-10_car_10_n04285008_3651.png,n04285008_3651.png,0.0,-3.762635,3.5558283,-5.1749353
bagnet33,1,25,NaN,knife,bottle,8-3-10,0025_eid_dnn_8-3-10_bottle_10_n04557648_4974.png,n04557648_4974.png,0.0,3.6124973,4.0746365,-0.32678172
bagnet33,1,26,NaN,cat,bird,16-3-10,0026_eid_dnn_16-3-10_bird_10_n01537544_23499.png,n01537544_23499.png,0.0,0.23973314,2.0841167,-1.3041762
bagnet33,1,27,NaN,boat,boat,1-3-10,0027_eid_dnn_1-3-10_boat_10_n04612504_11387.png,n04612504_11387.png,1.0,5.0445747,3.113513,1.3654668
bagnet33,1,28,NaN,bottle,bottle,4-3-10,0028_eid_dnn_4-3-10_bottle_10_n03983396_4300.png,n03983396_4300.png,1.0,4.8742394,2.6703608,1.5583775
bagnet33,1,29,NaN,dog,bottle,64-3-10,0029_eid_dnn_64-3-10_bottle_10_n04591713_6961.png,n04591713_6961.png,0.0,-3.3828049,5.110055,-6.0053587
bagnet33,1,30,NaN,bear,clock,128-3-10,0030_eid_dnn_128-3-10_clock_10_n02708093_3361.png,n02708093_3361.png,0.0,-4.528203,5.531512,-7.113293
bagnet33,1,31,NaN,elephant,truck,32-3-10,0031_eid_dnn_32-3-10_truck_10_n03417042_18374.png,n03417042_18374.png,0.0,-2.4957864,4.3668365,-4.8526077
bagnet33,1,32,NaN,elephant,knife,64-3-10,0032_eid_dnn_64-3-10_knife_10_n03041632_36280.png,n03041632_36280.png,0.0,2.1628926,4.335436,-1.5362201
bagnet33,1,33,NaN,cat,bird,8-3-10,0033_eid_dnn_8-3-10_bird_10_n01614925_47.png,n01614925_47.png,0.0,-0.2625507,2.4132345,-1.8920658
bagnet33,1,34,NaN,elephant,bicycle,8-3-10,0034_eid_dnn_8-3-10_bicycle_10_n02835271_20099.png,n02835271_20099.png,0.0,-0.544937,3.257272,-2.6885676
bagnet33,1,35,NaN,dog,bear,4-3-10,0035_eid_dnn_4-3-10_bear_10_n02134084_12070.png,n02134084_12070.png,0.0,1.9725469,2.465795,-0.34877908
bagnet33,1,36,NaN,elephant,bottle,8-3-10,0036_eid_dnn_8-3-10_bottle_10_n02823428_8525.png,n02823428_8525.png,0.0,1.1443015,2.4458342,-0.92032254
bagnet33,1,37,NaN,elephant,truck,32-3-10,0037_eid_dnn_32-3-10_truck_10_n04467665_37953.png,n04467665_37953.png,0.0,-2.305065,5.796969,-5.729003
bagnet33,1,38,NaN,elephant,oven,128-3-10,0038_eid_dnn_128-3-10_oven_10_n04111531_4868.png,n04111531_4868.png,0.0,2.282373,6.4708195,-2.961679
bagnet33,1,39,NaN,elephant,boat,32-3-10,0039_eid_dnn_32-3-10_boat_10_n03662601_19840.png,n03662601_19840.png,0.0,-1.0412772,3.5152366,-3.221942
bagnet33,1,40,NaN,elephant,truck,8-3-10,0040_eid_dnn_8-3-10_truck_10_n04467665_9331.png,n04467665_9331.png,0.0,-0.35772747,4.28859,-3.2854426
bagnet33,1,41,NaN,elephant,dog,64-3-10,0041_eid_dnn_64-3-10_dog_10_n02111277_16090.png,n02111277_16090.png,0.0,3.61399,6.372789,-1.9507654
bagnet33,1,42,NaN,bottle,bottle,4-3-10,0042_eid_dnn_4-3-10_bottle_10_n02823428_6731.png,n02823428_6731.png,1.0,8.259333,3.0291774,3.6982782
bagnet33,1,43,NaN,elephant,elephant,8-3-10,0043_eid_dnn_8-3-10_elephant_10_n02504013_8930.png,n02504013_8930.png,1.0,5.175647,3.9491928,0.867234
bagnet33,1,44,NaN,bottle,car,4-3-10,0044_eid_dnn_4-3-10_car_10_n03100240_13673.png,n03100240_13673.png,0.0,1.4907513,4.4192476,-2.0707598
bagnet33,1,45,NaN,elephant,bird,128-3-10,0045_eid_dnn_128-3-10_bird_10_n02018207_6819.png,n02018207_6819.png,0.0,0.58955187,3.753879,-2.237517
bagnet33,1,46,NaN,oven,elephant,4-3-10,0046_eid_dnn_4-3-10_elephant_10_n02504013_6065.png,n02504013_6065.png,0.0,2.6865892,3.197556,-0.36130807
bagnet33,1,47,NaN,cat,cat,1-3-10,0047_eid_dnn_1-3-10_cat_10_n02123394_384.png,n02123394_384.png,1.0,4.217713,2.6626391,1.0996032
bagnet33,1,48,NaN,dog,bicycle,16-3-10,0048_eid_dnn_16-3-10_bicycle_10_n02835271_12608.png,n02835271_12608.png,0.0,-1.9781342,3.8401809,-4.11417
bagnet33,1,49,NaN,knife,chair,2-3-10,0049_eid_dnn_2-3-10_chair_10_n03376595_13949.png,n03376595_13949.png,0.0,1.5541795,3.132577,-1.1160955
bagnet33,1,50,NaN,elephant,airplane,128-3-10,0050_eid_dnn_128-3-10_airplane_10_n02690373_3561.png,n02690373_3561.png,0.0,-0.5015039,4.1578255,-3.2946434
bagnet33,1,51,NaN,elephant,bicycle,32-3-10,0051_eid_dnn_32-3-10_bicycle_10_n02835271_8203.png,n02835271_8203.png,0.0,-1.8669236,4.2593446,-4.331926
bagnet33,1,52,NaN,bicycle,bicycle,2-3-10,0052_eid_dnn_2-3-10_bicycle_10_n03792782_5665.png,n03792782_5665.png,1.0,9.372164,2.6869614,4.7271523
bagnet33,1,53,NaN,elephant,bicycle,128-3-10,0053_eid_dnn_128-3-10_bicycle_10_n02835271_15028.png,n02835271_15028.png,0.0,-2.2165918,4.5134363,-4.7588487
bagnet33,1,54,NaN,clock,clock,1-3-10,0054_eid_dnn_1-3-10_clock_10_n04548280_3318.png,n04548280_3318.png,1.0,18.356499,6.5349026,8.359131
bagnet33,1,55,NaN,elephant,cat,128-3-10,0055_eid_dnn_128-3-10_cat_10_n02123045_8784.png,n02123045_8784.png,0.0,3.1169567,3.4316845,-0.22254616
bagnet33,1,56,NaN,elephant,knife,128-3-10,0056_eid_dnn_128-3-10_knife_10_n03041632_3247.png,n03041632_3247.png,0.0,-1.4760911,4.0586815,-3.9136755
bagnet33,1,57,NaN,cat,dog,8-3-10,0057_eid_dnn_8-3-10_dog_10_n02110185_11414.png,n02110185_11414.png,0.0,2.3047206,2.6105657,-0.2162651
bagnet33,1,58,NaN,elephant,dog,32-3-10,0058_eid_dnn_32-3-10_dog_10_n02113712_2715.png,n02113712_2715.png,0.0,1.8946897,4.8489647,-2.088988
bagnet33,1,59,NaN,cat,elephant,2-3-10,0059_eid_dnn_2-3-10_elephant_10_n02504458_1210.png,n02504458_1210.png,0.0,1.1553468,2.218016,-0.75142056
bagnet33,1,60,NaN,elephant,car,16-3-10,0060_eid_dnn_16-3-10_car_10_n02814533_32337.png,n02814533_32337.png,0.0,-3.6943932,4.4719667,-5.7744884
bagnet33,1,61,NaN,bottle,car,4-3-10,0061_eid_dnn_4-3-10_car_10_n02814533_55326.png,n02814533_55326.png,0.0,-0.851896,3.1294358,-2.8152268
bagnet33,1,62,NaN,cat,knife,64-3-10,0062_eid_dnn_64-3-10_knife_10_n03041632_32774.png,n03041632_32774.png,0.0,-2.0691686,5.329059,-5.231337
bagnet33,1,63,NaN,bear,bicycle,8-3-10,0063_eid_dnn_8-3-10_bicycle_10_n02835271_11921.png,n02835271_11921.png,0.0,-1.3814149,3.678567,-3.5779476
bagnet33,1,64,NaN,elephant,chair,32-3-10,0064_eid_dnn_32-3-10_chair_10_n03376595_6115.png,n03376595_6115.png,0.0,1.2315614,4.353449,-2.2075078
bagnet33,1,65,NaN,elephant,bear,16-3-10,0065_eid_dnn_16-3-10_bear_10_n02133161_79.png,n02133161_79.png,0.0,2.3135207,2.4562252,-0.10090731
bagnet33,1,66,NaN,boat,boat,1-3-10,0066_eid_dnn_1-3-10_boat_10_n03662601_34796.png,n03662601_34796.png,1.0,7.0480833,5.946241,0.77912027
bagnet33,1,67,NaN,cat,bird,4-3-10,0067_eid_dnn_4-3-10_bird_10_n02051845_8976.png,n02051845_8976.png,0.0,0.33216295,1.9835688,-1.1677203
bagnet33,1,68,NaN,elephant,boat,4-3-10,0068_eid_dnn_4-3-10_boat_10_n03344393_7362.png,n03344393_7362.png,0.0,0.6612501,2.3089788,-1.1651201
bagnet33,1,69,NaN,elephant,car,32-3-10,0069_eid_dnn_32-3-10_car_10_n02814533_34289.png,n02814533_34289.png,0.0,-3.6820157,3.293169,-4.9322004
bagnet33,1,70,NaN,oven,keyboard,16-3-10,0070_eid_dnn_16-3-10_keyboard_10_n03085013_2166.png,n03085013_2166.png,0.0,-1.6190709,3.4902363,-3.6128259
bagnet33,1,71,NaN,bear,bear,2-3-10,0071_eid_dnn_2-3-10_bear_10_n02133161_10167.png,n02133161_10167.png,1.0,4.262819,2.6221561,1.1601237
bagnet33,1,72,NaN,oven,keyboard,16-3-10,0072_eid_dnn_16-3-10_keyboard_10_n04505470_430.png,n04505470_430.png,0.0,0.646492,5.698073,-3.5720072
bagnet33,1,73,NaN,bird,boat,128-3-10,0073_eid_dnn_128-3-10_boat_10_n03662601_17001.png,n03662601_17001.png,0.0,-4.4296694,2.9406111,-5.211575
bagnet33,1,74,NaN,cat,bear,128-3-10,0074_eid_dnn_128-3-10_bear_10_n02133161_5157.png,n02133161_5157.png,0.0,1.2743125,3.5193117,-1.5874542
bagnet33,1,75,NaN,cat,boat,2-3-10,0075_eid_dnn_2-3-10_boat_10_n02951358_17870.png,n02951358_17870.png,0.0,1.3057082,2.6113522,-0.92322975
bagnet33,1,76,NaN,elephant,cat,64-3-10,0076_eid_dnn_64-3-10_cat_10_n02123159_1102.png,n02123159_1102.png,0.0,1.9783993,4.238165,-1.5978956
bagnet33,1,77,NaN,cat,cat,32-3-10,0077_eid_dnn_32-3-10_cat_10_n02123045_4252.png,n02123045_4252.png,1.0,3.2665558,2.621654,0.45601442
bagnet33,1,78,NaN,keyboard,keyboard,2-3-10,0078_eid_dnn_2-3-10_keyboard_10_n04505470_4294.png,n04505470_4294.png,1.0,25.8186,6.937276,13.351113
bagnet33,1,79,NaN,truck,truck,2-3-10,0079_eid_dnn_2-3-10_truck_10_n04467665_1101.png,n04467665_1101.png,1.0,10.298775,6.564208,2.6407375
bagnet33,1,80,NaN,elephant,airplane,64-3-10,0080_eid_dnn_64-3-10_airplane_10_n02690373_2078.png,n02690373_2078.png,0.0,-1.0277021,3.5931208,-3.2674153
bagnet33,1,81,NaN,elephant,boat,64-3-10,0081_eid_dnn_64-3-10_boat_10_n04612504_5535.png,n04612504_5535.png,0.0,-3.577912,4.4709735,-5.6914215
bagnet33,1,82,NaN,elephant,cat,16-3-10,0082_eid_dnn_16-3-10_cat_10_n02125311_15099.png,n02125311_15099.png,0.0,3.4754574,5.5121546,-1.4401624
bagnet33,1,83,NaN,elephant,airplane,64-3-10,0083_eid_dnn_64-3-10_airplane_10_n02690373_4671.png,n02690373_4671.png,0.0,-1.6908327,3.5613747,-3.7138715
bagnet33,1,84,NaN,truck,truck,1-3-10,0084_eid_dnn_1-3-10_truck_10_n03417042_9062.png,n03417042_9062.png,1.0,7.3916254,5.2278204,1.5300412
bagnet33,1,85,NaN,cat,cat,4-3-10,0085_eid_dnn_4-3-10_cat_10_n02123394_283.png,n02123394_283.png,1.0,2.7640827,1.6333452,0.79955214
bagnet33,1,86,NaN,car,car,1-3-10,0086_eid_dnn_1-3-10_car_10_n02814533_3375.png,n02814533_3375.png,1.0,15.042263,13.027473,1.4246714
bagnet33,1,87,NaN,cat,cat,2-3-10,0087_eid_dnn_2-3-10_cat_10_n02124075_9706.png,n02124075_9706.png,1.0,8.047786,1.8770859,4.3633437
bagnet33,1,88,NaN,car,car,2-3-10,0088_eid_dnn_2-3-10_car_10_n04285008_10563.png,n04285008_10563.png,1.0,5.19535,4.6422462,0.39110354
bagnet33,1,89,NaN,cat,clock,64-3-10,0089_eid_dnn_64-3-10_clock_10_n03196217_3283.png,n03196217_3283.png,0.0,-1.2451761,2.6474822,-2.752525
bagnet33,1,90,NaN,cat,oven,128-3-10,0090_eid_dnn_128-3-10_oven_10_n04111531_21120.png,n04111531_21120.png,0.0,-2.4103541,3.311636,-4.046058
bagnet33,1,91,NaN,bicycle,bird,1-3-10,0091_eid_dnn_1-3-10_bird_10_n01824575_6186.png,n01824575_6186.png,0.0,0.47258627,2.0281763,-1.0999683
bagnet33,1,92,NaN,dog,dog,4-3-10,0092_eid_dnn_4-3-10_dog_10_n02102318_11155.png,n02102318_11155.png,1.0,8.578173,3.8203804,3.3642673
bagnet33,1,93,NaN,elephant,clock,16-3-10,0093_eid_dnn_16-3-10_clock_10_n04548280_2283.png,n04548280_2283.png,0.0,-0.97209424,3.9578648,-3.4860075
bagnet33,1,94,NaN,elephant,chair,128-3-10,0094_eid_dnn_128-3-10_chair_10_n03376595_18787.png,n03376595_18787.png,0.0,-0.22145475,3.481434,-2.6183379
bagnet33,1,95,NaN,keyboard,keyboard,8-3-10,0095_eid_dnn_8-3-10_keyboard_10_n04505470_1903.png,n04505470_1903.png,1.0,2.86348,2.015435,0.5996584
bagnet33,1,96,NaN,knife,clock,16-3-10,0096_eid_dnn_16-3-10_clock_10_n03196217_6185.png,n03196217_6185.png,0.0,-0.6188066,3.4463654,-2.8745108
bagnet33,1,97,NaN,bottle,clock,2-3-10,0097_eid_dnn_2-3-10_clock_10_n03196217_10424.png,n03196217_10424.png,0.0,2.379032,4.38382,-1.4175993
bagnet33,1,98,NaN,knife,knife,2-3-10,0098_eid_dnn_2-3-10_knife_10_n03041632_43436.png,n03041632_43436.png,1.0,6.987657,5.828231,0.81983817
bagnet33,1,99,NaN,bicycle,dog,1-3-10,0099_eid_dnn_1-3-10_dog_10_n02093647_5955.png,n02093647_5955.png,0.0,1.6623135,2.563775,-0.6374296
bagnet33,1,100,NaN,elephant,boat,32-3-10,0100_eid_dnn_32-3-10_boat_10_n03662601_5423.png,n03662601_5423.png,0.0,-2.0184326,5.161416,-5.0769196
bagnet33,1,101,NaN,cat,keyboard,128-3-10,0101_eid_dnn_128-3-10_keyboard_10_n04505470_9457.png,n04505470_9457.png,0.0,-2.430973,6.2688127,-6.151677
bagnet33,1,102,NaN,bird,knife,128-3-10,0102_eid_dnn_128-3-10_knife_10_n03041632_38535.png,n03041632_38535.png,0.0,1.365701,4.2908196,-2.0683713
bagnet33,1,103,NaN,elephant,elephant,8-3-10,0103_eid_dnn_8-3-10_elephant_10_n02504458_8141.png,n02504458_8141.png,1.0,3.877803,3.7068558,0.120878
bagnet33,1,104,NaN,knife,airplane,4-3-10,0104_eid_dnn_4-3-10_airplane_10_n02690373_9086.png,n02690373_9086.png,0.0,2.108854,3.196014,-0.76873815
bagnet33,1,105,NaN,elephant,bicycle,16-3-10,0105_eid_dnn_16-3-10_bicycle_10_n03792782_19116.png,n03792782_19116.png,0.0,-0.56993735,2.364994,-2.0753098
bagnet33,1,106,NaN,elephant,elephant,4-3-10,0106_eid_dnn_4-3-10_elephant_10_n02504458_2343.png,n02504458_2343.png,1.0,4.76242,1.6628317,2.19174
bagnet33,1,107,NaN,airplane,airplane,16-3-10,0107_eid_dnn_16-3-10_airplane_10_n02690373_7093.png,n02690373_7093.png,1.0,2.0285308,1.7995117,0.161941
bagnet33,1,108,NaN,elephant,car,32-3-10,0108_eid_dnn_32-3-10_car_10_n03100240_7935.png,n03100240_7935.png,0.0,-4.850012,5.270666,-7.1564
bagnet33,1,109,NaN,elephant,airplane,16-3-10,0109_eid_dnn_16-3-10_airplane_10_n02690373_8611.png,n02690373_8611.png,0.0,0.80354977,2.8138943,-1.4215282
bagnet33,1,110,NaN,bear,bear,2-3-10,0110_eid_dnn_2-3-10_bear_10_n02133161_7332.png,n02133161_7332.png,1.0,6.366944,5.3194685,0.74067694
bagnet33,1,111,NaN,car,car,2-3-10,0111_eid_dnn_2-3-10_car_10_n03100240_9387.png,n03100240_9387.png,1.0,8.9522505,8.277705,0.47697556
bagnet33,1,112,NaN,cat,cat,4-3-10,0112_eid_dnn_4-3-10_cat_10_n02124075_521.png,n02124075_521.png,1.0,7.4668717,3.4371176,2.8494666
bagnet33,1,113,NaN,cat,bottle,128-3-10,0113_eid_dnn_128-3-10_bottle_10_n04560804_3746.png,n04560804_3746.png,0.0,-4.0444207,4.766257,-6.23009
bagnet33,1,114,NaN,elephant,elephant,16-3-10,0114_eid_dnn_16-3-10_elephant_10_n02504458_1127.png,n02504458_1127.png,1.0,7.8219028,4.952308,2.0291097
bagnet33,1,115,NaN,knife,knife,8-3-10,0115_eid_dnn_8-3-10_knife_10_n03041632_14132.png,n03041632_14132.png,1.0,2.8956134,1.4046198,1.0542917
bagnet33,1,116,NaN,oven,oven,1-3-10,0116_eid_dnn_1-3-10_oven_10_n04111531_18916.png,n04111531_18916.png,1.0,8.958811,2.555734,4.5276594
bagnet33,1,117,NaN,knife,oven,1-3-10,0117_eid_dnn_1-3-10_oven_10_n04111531_19274.png,n04111531_19274.png,0.0,2.1269407,3.0987039,-0.6871403
bagnet33,1,118,NaN,bottle,bird,2-3-10,0118_eid_dnn_2-3-10_bird_10_n01843383_277.png,n01843383_277.png,0.0,-1.9368784,1.9470001,-2.746317
bagnet33,1,119,NaN,elephant,boat,64-3-10,0119_eid_dnn_64-3-10_boat_10_n03344393_6799.png,n03344393_6799.png,0.0,-2.8816843,5.1474733,-5.677472
bagnet33,1,120,NaN,dog,dog,2-3-10,0120_eid_dnn_2-3-10_dog_10_n02093428_16887.png,n02093428_16887.png,1.0,4.012093,2.5515594,1.0327532
bagnet33,1,121,NaN,knife,elephant,64-3-10,0121_eid_dnn_64-3-10_elephant_10_n02504458_6163.png,n02504458_6163.png,0.0,2.2060313,2.6618416,-0.32230657
bagnet33,1,122,NaN,bird,bottle,64-3-10,0122_eid_dnn_64-3-10_bottle_10_n04591713_2826.png,n04591713_2826.png,0.0,-2.4143584,3.5284252,-4.2021823
bagnet33,1,123,NaN,bird,bottle,64-3-10,0123_eid_dnn_64-3-10_bottle_10_n04557648_3598.png,n04557648_3598.png,0.0,-1.1704606,2.8726857,-2.858936
bagnet33,1,124,NaN,bear,truck,8-3-10,0124_eid_dnn_8-3-10_truck_10_n04467665_80629.png,n04467665_80629.png,0.0,-0.32487637,2.037943,-1.6707655
bagnet33,1,125,NaN,cat,bear,4-3-10,0125_eid_dnn_4-3-10_bear_10_n02134084_6869.png,n02134084_6869.png,0.0,2.3251543,2.6873224,-0.2560915
bagnet33,1,126,NaN,elephant,bird,1-3-10,0126_eid_dnn_1-3-10_bird_10_n01820546_4457.png,n01820546_4457.png,0.0,3.311392,4.0060124,-0.4911708
bagnet33,1,127,NaN,cat,clock,64-3-10,0127_eid_dnn_64-3-10_clock_10_n04548280_7565.png,n04548280_7565.png,0.0,-0.67696637,3.7555907,-3.1342912
bagnet33,1,128,NaN,elephant,elephant,16-3-10,0128_eid_dnn_16-3-10_elephant_10_n02504458_98.png,n02504458_98.png,1.0,3.9371285,2.5746155,0.96344227
bagnet33,1,129,NaN,elephant,bicycle,64-3-10,0129_eid_dnn_64-3-10_bicycle_10_n03792782_7143.png,n03792782_7143.png,0.0,-0.4908423,2.1082082,-1.8378062
bagnet33,1,130,NaN,cat,dog,16-3-10,0130_eid_dnn_16-3-10_dog_10_n02096051_5524.png,n02096051_5524.png,0.0,3.0998895,3.422156,-0.22787689
bagnet33,1,131,NaN,elephant,cat,16-3-10,0131_eid_dnn_16-3-10_cat_10_n02123045_9465.png,n02123045_9465.png,0.0,2.5020719,3.457405,-0.6755226
bagnet33,1,132,NaN,elephant,cat,64-3-10,0132_eid_dnn_64-3-10_cat_10_n02123159_9450.png,n02123159_9450.png,0.0,0.79023623,3.836124,-2.1537678
bagnet33,1,133,NaN,clock,clock,4-3-10,0133_eid_dnn_4-3-10_clock_10_n02708093_8204.png,n02708093_8204.png,1.0,3.3812656,2.2850487,0.77514243
bagnet33,1,134,NaN,elephant,airplane,32-3-10,0134_eid_dnn_32-3-10_airplane_10_n02690373_2619.png,n02690373_2619.png,0.0,-0.2793277,1.769242,-1.4485575
bagnet33,1,135,NaN,car,car,2-3-10,0135_eid_dnn_2-3-10_car_10_n04285008_11295.png,n04285008_11295.png,1.0,8.596332,4.081065,3.1927755
bagnet33,1,136,NaN,bear,bear,8-3-10,0136_eid_dnn_8-3-10_bear_10_n02133161_15481.png,n02133161_15481.png,1.0,5.0817246,3.4710956,1.1388868
bagnet33,1,137,NaN,cat,truck,64-3-10,0137_eid_dnn_64-3-10_truck_10_n03417042_8139.png,n03417042_8139.png,0.0,-2.2565446,3.7275364,-4.2313848
bagnet33,1,138,NaN,cat,bottle,16-3-10,0138_eid_dnn_16-3-10_bottle_10_n04557648_4490.png,n04557648_4490.png,0.0,-0.06147469,2.7321675,-1.9754034
bagnet33,1,139,NaN,clock,clock,1-3-10,0139_eid_dnn_1-3-10_clock_10_n03196217_5399.png,n03196217_5399.png,1.0,11.943493,3.8330412,5.7349553
bagnet33,1,140,NaN,boat,boat,1-3-10,0140_eid_dnn_1-3-10_boat_10_n04273569_4136.png,n04273569_4136.png,1.0,4.861665,4.486223,0.26547727
bagnet33,1,141,NaN,bottle,clock,4-3-10,0141_eid_dnn_4-3-10_clock_10_n04548280_2127.png,n04548280_2127.png,0.0,1.6973382,3.935346,-1.5825104
bagnet33,1,142,NaN,bottle,boat,2-3-10,0142_eid_dnn_2-3-10_boat_10_n03344393_10038.png,n03344393_10038.png,0.0,1.6523044,2.5706215,-0.64934826
bagnet33,1,143,NaN,elephant,elephant,2-3-10,0143_eid_dnn_2-3-10_elephant_10_n02504013_10793.png,n02504013_10793.png,1.0,9.359276,2.392883,4.9259834
bagnet33,1,144,NaN,cat,oven,128-3-10,0144_eid_dnn_128-3-10_oven_10_n04111531_6590.png,n04111531_6590.png,0.0,-1.2426338,3.2346408,-3.1659114
bagnet33,1,145,NaN,chair,keyboard,16-3-10,0145_eid_dnn_16-3-10_keyboard_10_n03085013_10984.png,n03085013_10984.png,0.0,-2.287152,1.664354,-2.7941368
bagnet33,1,146,NaN,clock,bicycle,2-3-10,0146_eid_dnn_2-3-10_bicycle_10_n02835271_14879.png,n02835271_14879.png,0.0,0.81335247,2.8602998,-1.4474105
bagnet33,1,147,NaN,cat,knife,64-3-10,0147_eid_dnn_64-3-10_knife_10_n03041632_22241.png,n03041632_22241.png,0.0,-1.0941535,4.1504073,-3.7084646
bagnet33,1,148,NaN,dog,oven,64-3-10,0148_eid_dnn_64-3-10_oven_10_n04111531_892.png,n04111531_892.png,0.0,-0.76985765,3.9203744,-3.3164952
bagnet33,1,149,NaN,elephant,bear,64-3-10,0149_eid_dnn_64-3-10_bear_10_n02134418_14850.png,n02134418_14850.png,0.0,2.338687,3.9978771,-1.1732247
bagnet33,1,150,NaN,cat,knife,64-3-10,0150_eid_dnn_64-3-10_knife_10_n03041632_48071.png,n03041632_48071.png,0.0,-2.0922096,4.2344446,-4.4736204
bagnet33,1,151,NaN,elephant,clock,16-3-10,0151_eid_dnn_16-3-10_clock_10_n04548280_64.png,n04548280_64.png,0.0,-0.99660176,2.4074113,-2.4070008
bagnet33,1,152,NaN,elephant,truck,64-3-10,0152_eid_dnn_64-3-10_truck_10_n03796401_6285.png,n03796401_6285.png,0.0,-2.5666637,2.8033798,-3.7971945
bagnet33,1,153,NaN,airplane,airplane,4-3-10,0153_eid_dnn_4-3-10_airplane_10_n02690373_6682.png,n02690373_6682.png,1.0,1.702862,1.0881217,0.4346871
bagnet33,1,154,NaN,cat,knife,64-3-10,0154_eid_dnn_64-3-10_knife_10_n03041632_17285.png,n03041632_17285.png,0.0,-1.8726766,3.8844423,-4.070898
bagnet33,1,155,NaN,elephant,boat,2-3-10,0155_eid_dnn_2-3-10_boat_10_n02951358_8184.png,n02951358_8184.png,0.0,3.0171964,3.4942076,-0.33729786
bagnet33,1,156,NaN,bear,bear,1-3-10,0156_eid_dnn_1-3-10_bear_10_n02132136_2346.png,n02132136_2346.png,1.0,3.8911426,2.6253974,0.895017
bagnet33,1,157,NaN,elephant,bear,8-3-10,0157_eid_dnn_8-3-10_bear_10_n02134418_2187.png,n02134418_2187.png,0.0,5.7099423,5.943986,-0.16549382
bagnet33,1,158,NaN,cat,cat,32-3-10,0158_eid_dnn_32-3-10_cat_10_n02124075_10162.png,n02124075_10162.png,1.0,2.4539146,2.2627816,0.13515146
bagnet33,1,159,NaN,elephant,truck,128-3-10,0159_eid_dnn_128-3-10_truck_10_n03417042_8998.png,n03417042_8998.png,0.0,-2.122074,3.4369838,-3.9308474
bagnet33,1,160,NaN,cat,cat,64-3-10,0160_eid_dnn_64-3-10_cat_10_n02123597_13835.png,n02123597_13835.png,1.0,4.3044543,3.3911045,0.6458359
bagnet33,1,161,NaN,clock,clock,1-3-10,0161_eid_dnn_1-3-10_clock_10_n04548280_18914.png,n04548280_18914.png,1.0,15.680003,4.7545834,7.7254386
bagnet33,1,162,NaN,keyboard,keyboard,2-3-10,0162_eid_dnn_2-3-10_keyboard_10_n03085013_2676.png,n03085013_2676.png,1.0,11.2572365,6.233493,3.5523233
bagnet33,1,163,NaN,elephant,airplane,16-3-10,0163_eid_dnn_16-3-10_airplane_10_n02690373_7600.png,n02690373_7600.png,0.0,0.118739426,4.613415,-3.1782153
bagnet33,1,164,NaN,dog,chair,16-3-10,0164_eid_dnn_16-3-10_chair_10_n04429376_17917.png,n04429376_17917.png,0.0,0.030791834,2.7594094,-1.929424
bagnet33,1,165,NaN,oven,keyboard,4-3-10,0165_eid_dnn_4-3-10_keyboard_10_n04505470_4492.png,n04505470_4492.png,0.0,2.0438683,6.404279,-3.083276
bagnet33,1,166,NaN,bear,bear,1-3-10,0166_eid_dnn_1-3-10_bear_10_n02134418_3148.png,n02134418_3148.png,1.0,8.253524,8.099637,0.108814396
bagnet33,1,167,NaN,elephant,cat,4-3-10,0167_eid_dnn_4-3-10_cat_10_n02125311_20388.png,n02125311_20388.png,0.0,2.0076149,6.819355,-3.402414
bagnet33,1,168,NaN,cat,cat,64-3-10,0168_eid_dnn_64-3-10_cat_10_n02123394_2153.png,n02123394_2153.png,1.0,4.3625703,4.3206763,0.029623503
bagnet33,1,169,NaN,truck,clock,1-3-10,0169_eid_dnn_1-3-10_clock_10_n04548280_5327.png,n04548280_5327.png,0.0,3.4199479,3.5978215,-0.12577564
bagnet33,1,170,NaN,cat,bicycle,8-3-10,0170_eid_dnn_8-3-10_bicycle_10_n03792782_63054.png,n03792782_63054.png,0.0,-0.27555302,4.8074174,-3.594203
bagnet33,1,171,NaN,elephant,chair,32-3-10,0171_eid_dnn_32-3-10_chair_10_n03376595_14138.png,n03376595_14138.png,0.0,0.46992826,3.0054407,-1.792878
bagnet33,1,172,NaN,elephant,elephant,2-3-10,0172_eid_dnn_2-3-10_elephant_10_n02504458_4849.png,n02504458_4849.png,1.0,6.1136384,2.8638773,2.297928
bagnet33,1,173,NaN,elephant,dog,128-3-10,0173_eid_dnn_128-3-10_dog_10_n02113624_4844.png,n02113624_4844.png,0.0,2.7732043,4.362402,-1.1237324
bagnet33,1,174,NaN,cat,elephant,2-3-10,0174_eid_dnn_2-3-10_elephant_10_n02504013_2549.png,n02504013_2549.png,0.0,2.2193966,2.8900769,-0.4742426
bagnet33,1,175,NaN,elephant,bear,8-3-10,0175_eid_dnn_8-3-10_bear_10_n02134084_4593.png,n02134084_4593.png,0.0,4.1473646,5.0178623,-0.61553484
bagnet33,1,176,NaN,elephant,bicycle,64-3-10,0176_eid_dnn_64-3-10_bicycle_10_n02835271_75.png,n02835271_75.png,0.0,-1.7321596,2.8636074,-3.2496982
bagnet33,1,177,NaN,bottle,truck,4-3-10,0177_eid_dnn_4-3-10_truck_10_n03796401_20943.png,n03796401_20943.png,0.0,2.7600827,6.112867,-2.3707764
bagnet33,1,178,NaN,knife,knife,2-3-10,0178_eid_dnn_2-3-10_knife_10_n03041632_32048.png,n03041632_32048.png,1.0,3.2674475,3.0957575,0.12140316
bagnet33,1,179,NaN,cat,cat,1-3-10,0179_eid_dnn_1-3-10_cat_10_n02123159_3536.png,n02123159_3536.png,1.0,2.1910756,1.9416355,0.17638077
bagnet33,1,180,NaN,knife,bicycle,1-3-10,0180_eid_dnn_1-3-10_bicycle_10_n03792782_6716.png,n03792782_6716.png,0.0,0.37138197,1.4896791,-0.79075545
bagnet33,1,181,NaN,clock,clock,2-3-10,0181_eid_dnn_2-3-10_clock_10_n03196217_1754.png,n03196217_1754.png,1.0,13.945554,11.554401,1.6908001
bagnet33,1,182,NaN,bicycle,bicycle,1-3-10,0182_eid_dnn_1-3-10_bicycle_10_n03792782_5404.png,n03792782_5404.png,1.0,7.5485077,4.199452,2.36814
bagnet33,1,183,NaN,bear,dog,64-3-10,0183_eid_dnn_64-3-10_dog_10_n02096294_3014.png,n02096294_3014.png,0.0,3.4954808,4.1605577,-0.47028044
bagnet33,1,184,NaN,clock,bear,4-3-10,0184_eid_dnn_4-3-10_bear_10_n02134084_23382.png,n02134084_23382.png,0.0,1.4873488,1.5047582,-0.012310336
bagnet33,1,185,NaN,truck,car,4-3-10,0185_eid_dnn_4-3-10_car_10_n03100240_310.png,n03100240_310.png,0.0,1.0182155,2.856781,-1.3000622
bagnet33,1,186,NaN,dog,dog,4-3-10,0186_eid_dnn_4-3-10_dog_10_n02093256_1653.png,n02093256_1653.png,1.0,3.0699532,1.9012643,0.8263879
bagnet33,1,187,NaN,elephant,elephant,4-3-10,0187_eid_dnn_4-3-10_elephant_10_n02504013_1740.png,n02504013_1740.png,1.0,6.660783,1.9169642,3.3543866
bagnet33,1,188,NaN,dog,bear,64-3-10,0188_eid_dnn_64-3-10_bear_10_n02134084_34375.png,n02134084_34375.png,0.0,1.3282857,3.8290997,-1.7683425
bagnet33,1,189,NaN,knife,keyboard,8-3-10,0189_eid_dnn_8-3-10_keyboard_10_n03085013_23254.png,n03085013_23254.png,0.0,-1.5292704,2.234191,-2.661169
bagnet33,1,190,NaN,elephant,elephant,32-3-10,0190_eid_dnn_32-3-10_elephant_10_n02504013_1512.png,n02504013_1512.png,1.0,3.5575743,3.5139992,0.030812213
bagnet33,1,191,NaN,bottle,car,8-3-10,0191_eid_dnn_8-3-10_car_10_n04285008_6454.png,n04285008_6454.png,0.0,-2.7257583,2.457203,-3.6649072
bagnet33,1,192,NaN,keyboard,keyboard,4-3-10,0192_eid_dnn_4-3-10_keyboard_10_n04505470_7721.png,n04505470_7721.png,1.0,10.0199795,5.970961,2.8630884
bagnet33,1,193,NaN,elephant,keyboard,16-3-10,0193_eid_dnn_16-3-10_keyboard_10_n04505470_3388.png,n04505470_3388.png,0.0,-1.3120011,2.9732513,-3.030131
bagnet33,1,194,NaN,boat,boat,2-3-10,0194_eid_dnn_2-3-10_boat_10_n03344393_4221.png,n03344393_4221.png,1.0,3.9909434,3.0380752,0.6737796
bagnet33,1,195,NaN,elephant,cat,128-3-10,0195_eid_dnn_128-3-10_cat_10_n02123597_14361.png,n02123597_14361.png,0.0,2.5685213,3.1852248,-0.43607524
bagnet33,1,196,NaN,elephant,bird,128-3-10,0196_eid_dnn_128-3-10_bird_10_n02006656_10058.png,n02006656_10058.png,0.0,1.6551987,4.790757,-2.2171748
bagnet33,1,197,NaN,cat,clock,32-3-10,0197_eid_dnn_32-3-10_clock_10_n02708093_8104.png,n02708093_8104.png,0.0,-0.23243709,1.3148267,-1.0940808
bagnet33,1,198,NaN,truck,truck,1-3-10,0198_eid_dnn_1-3-10_truck_10_n03417042_3845.png,n03417042_3845.png,1.0,4.7293525,4.169917,0.39558056
bagnet33,1,199,NaN,elephant,boat,64-3-10,0199_eid_dnn_64-3-10_boat_10_n03662601_36741.png,n03662601_36741.png,0.0,-3.2774014,6.6197762,-6.9983616
bagnet33,1,200,NaN,knife,knife,1-3-10,0200_eid_dnn_1-3-10_knife_10_n03041632_22570.png,n03041632_22570.png,1.0,5.9486303,4.9777603,0.6865088
bagnet33,1,201,NaN,keyboard,keyboard,1-3-10,0201_eid_dnn_1-3-10_keyboard_10_n04505470_4109.png,n04505470_4109.png,1.0,8.938678,4.5685143,3.0901723
bagnet33,1,202,NaN,airplane,airplane,1-3-10,0202_eid_dnn_1-3-10_airplane_10_n02690373_10404.png,n02690373_10404.png,1.0,9.623286,3.3043175,4.468186
bagnet33,1,203,NaN,elephant,elephant,4-3-10,0203_eid_dnn_4-3-10_elephant_10_n02504458_4725.png,n02504458_4725.png,1.0,8.110719,5.0045824,2.1963701
bagnet33,1,204,NaN,airplane,airplane,1-3-10,0204_eid_dnn_1-3-10_airplane_10_n02690373_1325.png,n02690373_1325.png,1.0,10.855961,3.9221435,4.9029493
bagnet33,1,205,NaN,elephant,bicycle,8-3-10,0205_eid_dnn_8-3-10_bicycle_10_n03792782_6841.png,n03792782_6841.png,0.0,-1.5100956,4.30157,-4.109468
bagnet33,1,206,NaN,chair,chair,2-3-10,0206_eid_dnn_2-3-10_chair_10_n04099969_1669.png,n04099969_1669.png,1.0,5.638115,2.8456848,1.9745463
bagnet33,1,207,NaN,elephant,bottle,32-3-10,0207_eid_dnn_32-3-10_bottle_10_n03937543_5324.png,n03937543_5324.png,0.0,-0.058193803,2.54024,-1.8373703
bagnet33,1,208,NaN,bottle,bottle,4-3-10,0208_eid_dnn_4-3-10_bottle_10_n03937543_2143.png,n03937543_2143.png,1.0,11.932245,3.614256,5.8817067
bagnet33,1,209,NaN,bottle,bottle,2-3-10,0209_eid_dnn_2-3-10_bottle_10_n04557648_2575.png,n04557648_2575.png,1.0,6.3752546,3.6659915,1.9157383
bagnet33,1,210,NaN,knife,knife,8-3-10,0210_eid_dnn_8-3-10_knife_10_n03041632_9671.png,n03041632_9671.png,1.0,3.3586607,3.173582,0.13087036
bagnet33,1,211,NaN,elephant,bottle,16-3-10,0211_eid_dnn_16-3-10_bottle_10_n04560804_4145.png,n04560804_4145.png,0.0,-0.12035017,2.2599635,-1.683136
bagnet33,1,212,NaN,cat,clock,64-3-10,0212_eid_dnn_64-3-10_clock_10_n03196217_1187.png,n03196217_1187.png,0.0,-2.1767504,5.2852015,-5.276397
bagnet33,1,213,NaN,clock,clock,4-3-10,0213_eid_dnn_4-3-10_clock_10_n04548280_2111.png,n04548280_2111.png,1.0,5.1898365,3.6799178,1.0676738
bagnet33,1,214,NaN,cat,dog,128-3-10,0214_eid_dnn_128-3-10_dog_10_n02086079_6578.png,n02086079_6578.png,0.0,4.055366,6.704888,-1.8734949
bagnet33,1,215,NaN,elephant,car,16-3-10,0215_eid_dnn_16-3-10_car_10_n03100240_14045.png,n03100240_14045.png,0.0,-3.4280303,4.2712526,-5.4442153
bagnet33,1,216,NaN,elephant,boat,8-3-10,0216_eid_dnn_8-3-10_boat_10_n02951358_30908.png,n02951358_30908.png,0.0,-0.6350794,4.575365,-3.6843407
bagnet33,1,217,NaN,oven,oven,4-3-10,0217_eid_dnn_4-3-10_oven_10_n04111531_2199.png,n04111531_2199.png,1.0,2.689172,1.933871,0.5340785
bagnet33,1,218,NaN,elephant,elephant,8-3-10,0218_eid_dnn_8-3-10_elephant_10_n02504013_5641.png,n02504013_5641.png,1.0,6.1305976,3.9680126,1.5291785
bagnet33,1,219,NaN,keyboard,keyboard,2-3-10,0219_eid_dnn_2-3-10_keyboard_10_n03085013_6740.png,n03085013_6740.png,1.0,9.799036,4.4249225,3.8000722
bagnet33,1,220,NaN,clock,clock,2-3-10,0220_eid_dnn_2-3-10_clock_10_n04548280_319.png,n04548280_319.png,1.0,17.151236,8.1396,6.372189
bagnet33,1,221,NaN,bird,knife,32-3-10,0221_eid_dnn_32-3-10_knife_10_n03041632_43506.png,n03041632_43506.png,0.0,0.94498736,3.0554953,-1.4923545
bagnet33,1,222,NaN,knife,boat,16-3-10,0222_eid_dnn_16-3-10_boat_10_n03344393_9712.png,n03344393_9712.png,0.0,-0.5954828,2.2149239,-1.9872576
bagnet33,1,223,NaN,knife,knife,1-3-10,0223_eid_dnn_1-3-10_knife_10_n03041632_9963.png,n03041632_9963.png,1.0,7.8326826,1.7644517,4.290887
bagnet33,1,224,NaN,bird,bird,1-3-10,0224_eid_dnn_1-3-10_bird_10_n02002556_18595.png,n02002556_18595.png,1.0,1.6673033,1.4251733,0.1712118
bagnet33,1,225,NaN,knife,bird,4-3-10,0225_eid_dnn_4-3-10_bird_10_n01860187_20777.png,n01860187_20777.png,0.0,-0.9714116,2.312729,-2.3222382
bagnet33,1,226,NaN,cat,keyboard,32-3-10,0226_eid_dnn_32-3-10_keyboard_10_n03085013_24626.png,n03085013_24626.png,0.0,-1.0859314,4.2538004,-3.7757607
bagnet33,1,227,NaN,cat,oven,16-3-10,0227_eid_dnn_16-3-10_oven_10_n04111531_7097.png,n04111531_7097.png,0.0,1.6534472,2.0403502,-0.27358177
bagnet33,1,228,NaN,elephant,chair,16-3-10,0228_eid_dnn_16-3-10_chair_10_n02791124_12486.png,n02791124_12486.png,0.0,0.5983124,5.361958,-3.3684063
bagnet33,1,229,NaN,elephant,cat,128-3-10,0229_eid_dnn_128-3-10_cat_10_n02123045_6629.png,n02123045_6629.png,0.0,2.1900942,2.3895755,-0.14105454
bagnet33,1,230,NaN,elephant,bird,16-3-10,0230_eid_dnn_16-3-10_bird_10_n01819313_5388.png,n01819313_5388.png,0.0,0.031948227,2.1281567,-1.4822432
bagnet33,1,231,NaN,elephant,truck,32-3-10,0231_eid_dnn_32-3-10_truck_10_n04467665_4940.png,n04467665_4940.png,0.0,-1.5967412,4.13989,-4.0564113
bagnet33,1,232,NaN,knife,knife,8-3-10,0232_eid_dnn_8-3-10_knife_10_n03041632_20433.png,n03041632_20433.png,1.0,3.4357152,2.0623403,0.97112274
bagnet33,1,233,NaN,clock,clock,2-3-10,0233_eid_dnn_2-3-10_clock_10_n04548280_6792.png,n04548280_6792.png,1.0,9.07563,3.669826,3.822481
bagnet33,1,234,NaN,elephant,bicycle,4-3-10,0234_eid_dnn_4-3-10_bicycle_10_n02835271_5413.png,n02835271_5413.png,0.0,0.5207271,2.8100228,-1.6187766
bagnet33,1,235,NaN,car,car,2-3-10,0235_eid_dnn_2-3-10_car_10_n04285008_5005.png,n04285008_5005.png,1.0,9.5604515,6.3644266,2.2599308
bagnet33,1,236,NaN,bottle,car,2-3-10,0236_eid_dnn_2-3-10_car_10_n02814533_88088.png,n02814533_88088.png,0.0,0.563471,2.6616147,-1.4836116
bagnet33,1,237,NaN,elephant,elephant,64-3-10,0237_eid_dnn_64-3-10_elephant_10_n02504458_11345.png,n02504458_11345.png,1.0,4.1514916,4.0944314,0.040347684
bagnet33,1,238,NaN,elephant,elephant,16-3-10,0238_eid_dnn_16-3-10_elephant_10_n02504013_1900.png,n02504013_1900.png,1.0,3.995298,2.723412,0.89935917
bagnet33,1,239,NaN,elephant,bear,128-3-10,0239_eid_dnn_128-3-10_bear_10_n02133161_5708.png,n02133161_5708.png,0.0,2.959672,3.6582434,-0.4939646
bagnet33,1,240,NaN,cat,cat,8-3-10,0240_eid_dnn_8-3-10_cat_10_n02124075_5828.png,n02124075_5828.png,1.0,2.643895,2.5632641,0.057014573
bagnet33,1,241,NaN,elephant,bird,64-3-10,0241_eid_dnn_64-3-10_bird_10_n01582220_9392.png,n01582220_9392.png,0.0,1.7515166,3.311614,-1.1031555
bagnet33,1,242,NaN,clock,clock,1-3-10,0242_eid_dnn_1-3-10_clock_10_n02708093_4597.png,n02708093_4597.png,1.0,32.09096,7.6860943,17.256847
bagnet33,1,243,NaN,elephant,bicycle,128-3-10,0243_eid_dnn_128-3-10_bicycle_10_n03792782_26306.png,n03792782_26306.png,0.0,-2.3422885,4.143418,-4.586087
bagnet33,1,244,NaN,elephant,bear,32-3-10,0244_eid_dnn_32-3-10_bear_10_n02132136_1795.png,n02132136_1795.png,0.0,1.9317786,4.710327,-1.9647306
bagnet33,1,245,NaN,bird,clock,128-3-10,0245_eid_dnn_128-3-10_clock_10_n02708093_3638.png,n02708093_3638.png,0.0,-1.0772904,2.8261187,-2.760127
bagnet33,1,246,NaN,bottle,keyboard,4-3-10,0246_eid_dnn_4-3-10_keyboard_10_n03085013_21272.png,n03085013_21272.png,0.0,1.2850761,5.8255105,-3.210572
bagnet33,1,247,NaN,bottle,chair,8-3-10,0247_eid_dnn_8-3-10_chair_10_n02791124_16926.png,n02791124_16926.png,0.0,-0.8899927,2.1035914,-2.1167836
bagnet33,1,248,NaN,knife,knife,8-3-10,0248_eid_dnn_8-3-10_knife_10_n03041632_84048.png,n03041632_84048.png,1.0,2.0002317,1.2940087,0.49937508
bagnet33,1,249,NaN,chair,oven,2-3-10,0249_eid_dnn_2-3-10_oven_10_n04111531_550.png,n04111531_550.png,0.0,4.4466476,4.5081377,-0.04348004
bagnet33,1,250,NaN,cat,boat,128-3-10,0250_eid_dnn_128-3-10_boat_10_n03662601_21992.png,n03662601_21992.png,0.0,-4.339287,5.053431,-6.6416545
bagnet33,1,251,NaN,elephant,bear,32-3-10,0251_eid_dnn_32-3-10_bear_10_n02134418_280.png,n02134418_280.png,0.0,3.257776,3.4930706,-0.1663784
bagnet33,1,252,NaN,elephant,bottle,8-3-10,0252_eid_dnn_8-3-10_bottle_10_n04560804_8385.png,n04560804_8385.png,0.0,0.99515396,3.3537328,-1.6677672
bagnet33,1,253,NaN,elephant,elephant,64-3-10,0253_eid_dnn_64-3-10_elephant_10_n02504013_4183.png,n02504013_4183.png,1.0,6.0819197,2.396272,2.6061466
bagnet33,1,254,NaN,bicycle,bird,1-3-10,0254_eid_dnn_1-3-10_bird_10_n01560419_19608.png,n01560419_19608.png,0.0,2.3982697,3.175086,-0.54929215
bagnet33,1,255,NaN,dog,bird,4-3-10,0255_eid_dnn_4-3-10_bird_10_n02056570_8865.png,n02056570_8865.png,0.0,-1.572047,1.4924916,-2.166956
bagnet33,1,256,NaN,cat,cat,2-3-10,0256_eid_dnn_2-3-10_cat_10_n02123394_2553.png,n02123394_2553.png,1.0,5.104853,4.923791,0.12803033
bagnet33,1,257,NaN,elephant,bear,128-3-10,0257_eid_dnn_128-3-10_bear_10_n02132136_10113.png,n02132136_10113.png,0.0,2.9709253,3.4525113,-0.34053272
bagnet33,1,258,NaN,elephant,oven,8-3-10,0258_eid_dnn_8-3-10_oven_10_n04111531_2758.png,n04111531_2758.png,0.0,0.79498994,2.8154583,-1.4286869
bagnet33,1,259,NaN,elephant,keyboard,64-3-10,0259_eid_dnn_64-3-10_keyboard_10_n04505470_4824.png,n04505470_4824.png,0.0,-1.7213713,4.9945593,-4.74888
bagnet33,1,260,NaN,bicycle,bicycle,2-3-10,0260_eid_dnn_2-3-10_bicycle_10_n02835271_8654.png,n02835271_8654.png,1.0,2.9722466,1.3819263,1.1245264
bagnet33,1,261,NaN,bear,keyboard,128-3-10,0261_eid_dnn_128-3-10_keyboard_10_n03085013_34973.png,n03085013_34973.png,0.0,-0.8307738,3.1768012,-2.8337836
bagnet33,1,262,NaN,bottle,cat,4-3-10,0262_eid_dnn_4-3-10_cat_10_n02123394_4228.png,n02123394_4228.png,0.0,1.4437686,2.0431929,-0.42385694
bagnet33,1,263,NaN,elephant,keyboard,32-3-10,0263_eid_dnn_32-3-10_keyboard_10_n03085013_24416.png,n03085013_24416.png,0.0,-1.863056,3.2705903,-3.6300359
bagnet33,1,264,NaN,cat,cat,8-3-10,0264_eid_dnn_8-3-10_cat_10_n02124075_5729.png,n02124075_5729.png,1.0,3.0605023,2.4753582,0.41375932
bagnet33,1,265,NaN,knife,clock,32-3-10,0265_eid_dnn_32-3-10_clock_10_n03196217_6357.png,n03196217_6357.png,0.0,0.87034386,2.6670275,-1.2704471
bagnet33,1,266,NaN,cat,truck,128-3-10,0266_eid_dnn_128-3-10_truck_10_n03417042_29478.png,n03417042_29478.png,0.0,-3.0513167,3.3378563,-4.5178275
bagnet33,1,267,NaN,elephant,chair,128-3-10,0267_eid_dnn_128-3-10_chair_10_n04099969_18678.png,n04099969_18678.png,0.0,0.37295306,2.1511827,-1.2573982
bagnet33,1,268,NaN,elephant,clock,32-3-10,0268_eid_dnn_32-3-10_clock_10_n02708093_4286.png,n02708093_4286.png,0.0,-0.22564737,3.673259,-2.7569432
bagnet33,1,269,NaN,elephant,car,128-3-10,0269_eid_dnn_128-3-10_car_10_n03100240_21971.png,n03100240_21971.png,0.0,-3.970855,3.7414346,-5.4534125
bagnet33,1,270,NaN,car,car,1-3-10,0270_eid_dnn_1-3-10_car_10_n03100240_84.png,n03100240_84.png,1.0,11.111417,9.852356,0.8902905
bagnet33,1,271,NaN,cat,dog,1-3-10,0271_eid_dnn_1-3-10_dog_10_n02094433_3186.png,n02094433_3186.png,0.0,3.5943036,5.6608453,-1.4612657
bagnet33,1,272,NaN,dog,dog,4-3-10,0272_eid_dnn_4-3-10_dog_10_n02088364_10195.png,n02088364_10195.png,1.0,5.051836,2.8286102,1.5720581
bagnet33,1,273,NaN,elephant,knife,16-3-10,0273_eid_dnn_16-3-10_knife_10_n03041632_11358.png,n03041632_11358.png,0.0,2.6455297,5.267126,-1.8537486
bagnet33,1,274,NaN,bird,bird,64-3-10,0274_eid_dnn_64-3-10_bird_10_n01531178_10630.png,n01531178_10630.png,1.0,2.7167568,2.6760983,0.028749883
bagnet33,1,275,NaN,elephant,elephant,1-3-10,0275_eid_dnn_1-3-10_elephant_10_n02504458_4058.png,n02504458_4058.png,1.0,6.339285,2.1286025,2.9774022
bagnet33,1,276,NaN,elephant,keyboard,32-3-10,0276_eid_dnn_32-3-10_keyboard_10_n03085013_24336.png,n03085013_24336.png,0.0,-0.102984756,3.3543875,-2.4447315
bagnet33,1,277,NaN,bottle,clock,4-3-10,0277_eid_dnn_4-3-10_clock_10_n02708093_386.png,n02708093_386.png,0.0,5.266482,5.9388213,-0.4754158
bagnet33,1,278,NaN,knife,chair,4-3-10,0278_eid_dnn_4-3-10_chair_10_n04429376_16370.png,n04429376_16370.png,0.0,2.177518,3.629804,-1.0269213
bagnet33,1,279,NaN,bottle,bottle,1-3-10,0279_eid_dnn_1-3-10_bottle_10_n04557648_10167.png,n04557648_10167.png,1.0,4.864967,3.6862457,0.8334818
bagnet33,1,280,NaN,bicycle,bicycle,1-3-10,0280_eid_dnn_1-3-10_bicycle_10_n02835271_15717.png,n02835271_15717.png,1.0,8.694469,5.153324,2.503968
bagnet33,1,281,NaN,elephant,car,128-3-10,0281_eid_dnn_128-3-10_car_10_n03100240_22593.png,n03100240_22593.png,0.0,-4.1456923,4.3598156,-6.0143027
bagnet33,1,282,NaN,car,car,1-3-10,0282_eid_dnn_1-3-10_car_10_n04285008_11240.png,n04285008_11240.png,1.0,13.5632715,6.507211,4.989388
bagnet33,1,283,NaN,boat,boat,1-3-10,0283_eid_dnn_1-3-10_boat_10_n03344393_3337.png,n03344393_3337.png,1.0,2.5571015,1.3238988,0.872006
bagnet33,1,284,NaN,cat,bottle,128-3-10,0284_eid_dnn_128-3-10_bottle_10_n04579145_1660.png,n04579145_1660.png,0.0,-2.7035997,2.856043,-3.9312613
bagnet33,1,285,NaN,elephant,dog,64-3-10,0285_eid_dnn_64-3-10_dog_10_n02091244_9305.png,n02091244_9305.png,0.0,3.9703982,5.2114224,-0.87753665
bagnet33,1,286,NaN,elephant,chair,32-3-10,0286_eid_dnn_32-3-10_chair_10_n03376595_3912.png,n03376595_3912.png,0.0,-0.2833541,3.544315,-2.7065709
bagnet33,1,287,NaN,elephant,bottle,64-3-10,0287_eid_dnn_64-3-10_bottle_10_n02823428_6793.png,n02823428_6793.png,0.0,-2.7532172,5.700107,-5.977403
bagnet33,1,288,NaN,cat,dog,32-3-10,0288_eid_dnn_32-3-10_dog_10_n02093754_4949.png,n02093754_4949.png,0.0,3.3438523,3.9282863,-0.41325727
bagnet33,1,289,NaN,cat,dog,128-3-10,0289_eid_dnn_128-3-10_dog_10_n02105855_10394.png,n02105855_10394.png,0.0,2.2250774,3.0593588,-0.58992606
bagnet33,1,290,NaN,clock,clock,2-3-10,0290_eid_dnn_2-3-10_clock_10_n04548280_9533.png,n04548280_9533.png,1.0,4.3175206,3.346608,0.68653893
bagnet33,1,291,NaN,oven,cat,1-3-10,0291_eid_dnn_1-3-10_cat_10_n02125311_7527.png,n02125311_7527.png,0.0,1.3356096,7.357349,-4.258013
bagnet33,1,292,NaN,bottle,car,4-3-10,0292_eid_dnn_4-3-10_car_10_n03100240_4537.png,n03100240_4537.png,0.0,1.6671818,6.3887215,-3.3386326
bagnet33,1,293,NaN,elephant,bicycle,8-3-10,0293_eid_dnn_8-3-10_bicycle_10_n03792782_11609.png,n03792782_11609.png,0.0,-1.481245,3.5261362,-3.5407534
bagnet33,1,294,NaN,cat,oven,128-3-10,0294_eid_dnn_128-3-10_oven_10_n04111531_6134.png,n04111531_6134.png,0.0,0.86798954,3.863332,-2.118027
bagnet33,1,295,NaN,elephant,bottle,8-3-10,0295_eid_dnn_8-3-10_bottle_10_n04591713_715.png,n04591713_715.png,0.0,-1.9441334,4.7101383,-4.705281
bagnet33,1,296,NaN,airplane,elephant,32-3-10,0296_eid_dnn_32-3-10_elephant_10_n02504458_7818.png,n02504458_7818.png,0.0,2.5047083,3.0956511,-0.4178597
bagnet33,1,297,NaN,bird,airplane,64-3-10,0297_eid_dnn_64-3-10_airplane_10_n02690373_7107.png,n02690373_7107.png,0.0,-1.6117532,1.6653514,-2.317263
bagnet33,1,298,NaN,elephant,car,32-3-10,0298_eid_dnn_32-3-10_car_10_n04285008_8363.png,n04285008_8363.png,0.0,-3.9686594,2.0488749,-4.255039
bagnet33,1,299,NaN,elephant,clock,4-3-10,0299_eid_dnn_4-3-10_clock_10_n04548280_4249.png,n04548280_4249.png,0.0,0.5773594,1.9616458,-0.9788383
bagnet33,1,300,NaN,cat,cat,128-3-10,0300_eid_dnn_128-3-10_cat_10_n02123597_7269.png,n02123597_7269.png,1.0,6.009629,5.835078,0.12342621
bagnet33,1,301,NaN,bicycle,bicycle,1-3-10,0301_eid_dnn_1-3-10_bicycle_10_n03792782_4864.png,n03792782_4864.png,1.0,10.461737,4.2501545,4.392252
bagnet33,1,302,NaN,bear,bear,2-3-10,0302_eid_dnn_2-3-10_bear_10_n02132136_8011.png,n02132136_8011.png,1.0,3.5469577,1.8256602,1.2171412
bagnet33,1,303,NaN,elephant,boat,128-3-10,0303_eid_dnn_128-3-10_boat_10_n02951358_4810.png,n02951358_4810.png,0.0,-3.9982102,3.985384,-5.6452537
bagnet33,1,304,NaN,elephant,clock,128-3-10,0304_eid_dnn_128-3-10_clock_10_n03196217_5137.png,n03196217_5137.png,0.0,-0.7535506,3.7212555,-3.164166
bagnet33,1,305,NaN,bicycle,bicycle,2-3-10,0305_eid_dnn_2-3-10_bicycle_10_n02835271_158.png,n02835271_158.png,1.0,4.4349456,2.8077722,1.1505854
bagnet33,1,306,NaN,knife,bear,64-3-10,0306_eid_dnn_64-3-10_bear_10_n02132136_11217.png,n02132136_11217.png,0.0,-0.16624647,2.3526988,-1.7811632
bagnet33,1,307,NaN,cat,dog,64-3-10,0307_eid_dnn_64-3-10_dog_10_n02092002_6122.png,n02092002_6122.png,0.0,3.2521048,4.590423,-0.946334
bagnet33,1,308,NaN,elephant,chair,32-3-10,0308_eid_dnn_32-3-10_chair_10_n04429376_29223.png,n04429376_29223.png,0.0,-1.4024736,5.965086,-5.2096515
bagnet33,1,309,NaN,elephant,bear,128-3-10,0309_eid_dnn_128-3-10_bear_10_n02133161_5723.png,n02133161_5723.png,0.0,3.1679468,3.2735023,-0.07463904
bagnet33,1,310,NaN,cat,dog,128-3-10,0310_eid_dnn_128-3-10_dog_10_n02100583_1343.png,n02100583_1343.png,0.0,3.3100429,3.8822098,-0.40458313
bagnet33,1,311,NaN,elephant,boat,128-3-10,0311_eid_dnn_128-3-10_boat_10_n03344393_6352.png,n03344393_6352.png,0.0,-3.4186988,2.5471015,-4.2184577
bagnet33,1,312,NaN,knife,bird,4-3-10,0312_eid_dnn_4-3-10_bird_10_n01560419_8247.png,n01560419_8247.png,0.0,0.47710013,2.5598898,-1.4727547
bagnet33,1,313,NaN,elephant,dog,4-3-10,0313_eid_dnn_4-3-10_dog_10_n02105251_8210.png,n02105251_8210.png,0.0,2.0300233,2.7555099,-0.51299644
bagnet33,1,314,NaN,cat,oven,128-3-10,0314_eid_dnn_128-3-10_oven_10_n04111531_9702.png,n04111531_9702.png,0.0,-1.4861983,4.4409137,-4.191101
bagnet33,1,315,NaN,elephant,bear,8-3-10,0315_eid_dnn_8-3-10_bear_10_n02133161_12161.png,n02133161_12161.png,0.0,0.91962564,4.812911,-2.7529685
bagnet33,1,316,NaN,elephant,bear,8-3-10,0316_eid_dnn_8-3-10_bear_10_n02133161_13556.png,n02133161_13556.png,0.0,1.837744,2.3178625,-0.33949506
bagnet33,1,317,NaN,elephant,bear,128-3-10,0317_eid_dnn_128-3-10_bear_10_n02134084_635.png,n02134084_635.png,0.0,-0.93941927,3.2139516,-2.9368768
bagnet33,1,318,NaN,bear,chair,128-3-10,0318_eid_dnn_128-3-10_chair_10_n02791124_6956.png,n02791124_6956.png,0.0,-1.967795,3.5534174,-3.9040868
bagnet33,1,319,NaN,bottle,car,4-3-10,0319_eid_dnn_4-3-10_car_10_n02814533_18077.png,n02814533_18077.png,0.0,-0.72559005,3.5639155,-3.0331385
bagnet33,1,320,NaN,knife,dog,2-3-10,0320_eid_dnn_2-3-10_dog_10_n02088364_11105.png,n02088364_11105.png,0.0,1.3136431,3.774823,-1.7403169
bagnet33,1,321,NaN,elephant,airplane,64-3-10,0321_eid_dnn_64-3-10_airplane_10_n02690373_1053.png,n02690373_1053.png,0.0,-1.4927304,4.188058,-4.016924
bagnet33,1,322,NaN,elephant,car,16-3-10,0322_eid_dnn_16-3-10_car_10_n02814533_96407.png,n02814533_96407.png,0.0,-3.8795407,3.3732176,-5.128474
bagnet33,1,323,NaN,bottle,chair,4-3-10,0323_eid_dnn_4-3-10_chair_10_n04099969_31891.png,n04099969_31891.png,0.0,2.9437578,4.305103,-0.9626163
bagnet33,1,324,NaN,knife,bottle,16-3-10,0324_eid_dnn_16-3-10_bottle_10_n04557648_4470.png,n04557648_4470.png,0.0,0.7017499,1.5361243,-0.5899918
bagnet33,1,325,NaN,knife,clock,8-3-10,0325_eid_dnn_8-3-10_clock_10_n02708093_2588.png,n02708093_2588.png,0.0,-0.43240282,3.8585947,-3.0341935
bagnet33,1,326,NaN,elephant,elephant,128-3-10,0326_eid_dnn_128-3-10_elephant_10_n02504458_6696.png,n02504458_6696.png,1.0,3.505326,1.8860401,1.1450081
bagnet33,1,327,NaN,elephant,elephant,32-3-10,0327_eid_dnn_32-3-10_elephant_10_n02504013_4071.png,n02504013_4071.png,1.0,4.3395224,2.6273353,1.2106991
bagnet33,1,328,NaN,knife,keyboard,8-3-10,0328_eid_dnn_8-3-10_keyboard_10_n03085013_8339.png,n03085013_8339.png,0.0,-0.9413914,2.7314,-2.597056
bagnet33,1,329,NaN,elephant,elephant,64-3-10,0329_eid_dnn_64-3-10_elephant_10_n02504013_6976.png,n02504013_6976.png,1.0,2.9777634,2.4709616,0.35836303
bagnet33,1,330,NaN,elephant,boat,4-3-10,0330_eid_dnn_4-3-10_boat_10_n02951358_9146.png,n02951358_9146.png,0.0,-1.0294017,1.568734,-1.8371594
bagnet33,1,331,NaN,elephant,boat,32-3-10,0331_eid_dnn_32-3-10_boat_10_n04273569_4087.png,n04273569_4087.png,0.0,-1.6605923,2.2004354,-2.730159
bagnet33,1,332,NaN,elephant,oven,64-3-10,0332_eid_dnn_64-3-10_oven_10_n04111531_2922.png,n04111531_2922.png,0.0,-2.0988283,3.4641266,-3.9336033
bagnet33,1,333,NaN,bear,bear,4-3-10,0333_eid_dnn_4-3-10_bear_10_n02133161_5325.png,n02133161_5325.png,1.0,3.2443123,3.2245674,0.013961734
bagnet33,1,334,NaN,elephant,bottle,64-3-10,0334_eid_dnn_64-3-10_bottle_10_n04557648_3109.png,n04557648_3109.png,0.0,-1.7755678,3.956576,-4.053238
bagnet33,1,335,NaN,oven,oven,1-3-10,0335_eid_dnn_1-3-10_oven_10_n04111531_15912.png,n04111531_15912.png,1.0,4.525526,3.6391382,0.62677085
bagnet33,1,336,NaN,cat,truck,16-3-10,0336_eid_dnn_16-3-10_truck_10_n03417042_17099.png,n03417042_17099.png,0.0,-1.5705445,3.9472244,-3.9016519
bagnet33,1,337,NaN,car,car,2-3-10,0337_eid_dnn_2-3-10_car_10_n04285008_8641.png,n04285008_8641.png,1.0,5.9683356,5.449501,0.36687148
bagnet33,1,338,NaN,elephant,keyboard,32-3-10,0338_eid_dnn_32-3-10_keyboard_10_n04505470_524.png,n04505470_524.png,0.0,-0.96030045,3.7184339,-3.3083649
bagnet33,1,339,NaN,elephant,bottle,8-3-10,0339_eid_dnn_8-3-10_bottle_10_n04557648_5935.png,n04557648_5935.png,0.0,-1.1489927,4.723859,-4.1527333
bagnet33,1,340,NaN,bottle,bottle,1-3-10,0340_eid_dnn_1-3-10_bottle_10_n04591713_3776.png,n04591713_3776.png,1.0,17.69521,6.6106234,7.837986
bagnet33,1,341,NaN,truck,truck,2-3-10,0341_eid_dnn_2-3-10_truck_10_n03796401_3651.png,n03796401_3651.png,1.0,10.9528675,5.3172035,3.9850163
bagnet33,1,342,NaN,dog,bicycle,128-3-10,0342_eid_dnn_128-3-10_bicycle_10_n03792782_15757.png,n03792782_15757.png,0.0,-1.1147934,3.4805043,-3.2493663
bagnet33,1,343,NaN,elephant,cat,32-3-10,0343_eid_dnn_32-3-10_cat_10_n02123597_8698.png,n02123597_8698.png,0.0,2.0356066,3.6187851,-1.1194763
bagnet33,1,344,NaN,truck,boat,1-3-10,0344_eid_dnn_1-3-10_boat_10_n03662601_273.png,n03662601_273.png,0.0,4.101758,4.4840384,-0.27031302
bagnet33,1,345,NaN,knife,knife,1-3-10,0345_eid_dnn_1-3-10_knife_10_n03041632_24376.png,n03041632_24376.png,1.0,6.4861436,3.063023,2.4205117
bagnet33,1,346,NaN,keyboard,keyboard,1-3-10,0346_eid_dnn_1-3-10_keyboard_10_n04505470_2608.png,n04505470_2608.png,1.0,8.9619465,5.441288,2.4894814
bagnet33,1,347,NaN,bear,boat,16-3-10,0347_eid_dnn_16-3-10_boat_10_n04273569_10665.png,n04273569_10665.png,0.0,-1.189327,3.164588,-3.0786831
bagnet33,1,348,NaN,cat,bear,64-3-10,0348_eid_dnn_64-3-10_bear_10_n02133161_5267.png,n02133161_5267.png,0.0,3.8663914,5.5139403,-1.164993
bagnet33,1,349,NaN,bear,bear,128-3-10,0349_eid_dnn_128-3-10_bear_10_n02133161_5020.png,n02133161_5020.png,1.0,3.4392352,3.1744728,0.1872153
bagnet33,1,350,NaN,cat,knife,128-3-10,0350_eid_dnn_128-3-10_knife_10_n03041632_21723.png,n03041632_21723.png,0.0,-3.7343614,5.4200835,-6.47317
bagnet33,1,351,NaN,dog,boat,32-3-10,0351_eid_dnn_32-3-10_boat_10_n02951358_31101.png,n02951358_31101.png,0.0,-0.99058074,2.242161,-2.2858937
bagnet33,1,352,NaN,bird,dog,128-3-10,0352_eid_dnn_128-3-10_dog_10_n02102177_4180.png,n02102177_4180.png,0.0,1.7845091,2.8554933,-0.75730026
bagnet33,1,353,NaN,bottle,bottle,4-3-10,0353_eid_dnn_4-3-10_bottle_10_n04579145_4186.png,n04579145_4186.png,1.0,7.0705285,6.981745,0.06277958
bagnet33,1,354,NaN,elephant,bicycle,64-3-10,0354_eid_dnn_64-3-10_bicycle_10_n03792782_2246.png,n03792782_2246.png,0.0,-1.8092945,4.3473835,-4.353429
bagnet33,1,355,NaN,dog,dog,1-3-10,0355_eid_dnn_1-3-10_dog_10_n02110958_1526.png,n02110958_1526.png,1.0,6.503717,4.4502406,1.4520271
bagnet33,1,356,NaN,elephant,keyboard,128-3-10,0356_eid_dnn_128-3-10_keyboard_10_n04505470_255.png,n04505470_255.png,0.0,-1.8539755,4.5432186,-4.5234995
bagnet33,1,357,NaN,knife,elephant,4-3-10,0357_eid_dnn_4-3-10_elephant_10_n02504458_1933.png,n02504458_1933.png,0.0,0.8726333,2.0535908,-0.8350631
bagnet33,1,358,NaN,cat,cat,2-3-10,0358_eid_dnn_2-3-10_cat_10_n02123159_5749.png,n02123159_5749.png,1.0,13.527095,2.3346615,7.9142456
bagnet33,1,359,NaN,cat,airplane,128-3-10,0359_eid_dnn_128-3-10_airplane_10_n02690373_2967.png,n02690373_2967.png,0.0,-3.3963223,2.8809345,-4.438691
bagnet33,1,360,NaN,knife,chair,8-3-10,0360_eid_dnn_8-3-10_chair_10_n04099969_72.png,n04099969_72.png,0.0,-0.70039773,2.3145885,-2.1319172
bagnet33,1,361,NaN,bear,cat,32-3-10,0361_eid_dnn_32-3-10_cat_10_n02123045_4089.png,n02123045_4089.png,0.0,2.4952357,3.3078754,-0.57462305
bagnet33,1,362,NaN,cat,bird,128-3-10,0362_eid_dnn_128-3-10_bird_10_n01616318_13293.png,n01616318_13293.png,0.0,2.6959848,3.7579195,-0.7509012
bagnet33,1,363,NaN,cat,cat,4-3-10,0363_eid_dnn_4-3-10_cat_10_n02124075_13719.png,n02124075_13719.png,1.0,1.951243,1.7557055,0.13826594
bagnet33,1,364,NaN,cat,oven,32-3-10,0364_eid_dnn_32-3-10_oven_10_n04111531_22466.png,n04111531_22466.png,0.0,1.0741127,5.0303173,-2.7974591
bagnet33,1,365,NaN,elephant,airplane,128-3-10,0365_eid_dnn_128-3-10_airplane_10_n02690373_2525.png,n02690373_2525.png,0.0,-2.8672652,4.647434,-5.313695
bagnet33,1,366,NaN,cat,cat,1-3-10,0366_eid_dnn_1-3-10_cat_10_n02124075_5369.png,n02124075_5369.png,1.0,15.927563,6.0503225,6.9842634
bagnet33,1,367,NaN,bird,bird,64-3-10,0367_eid_dnn_64-3-10_bird_10_n01843065_4182.png,n01843065_4182.png,1.0,3.3575513,3.3178911,0.028044008
bagnet33,1,368,NaN,truck,truck,2-3-10,0368_eid_dnn_2-3-10_truck_10_n03796401_6472.png,n03796401_6472.png,1.0,3.8060257,2.557004,0.88319176
bagnet33,1,369,NaN,elephant,airplane,64-3-10,0369_eid_dnn_64-3-10_airplane_10_n02690373_3090.png,n02690373_3090.png,0.0,-1.1489192,4.074703,-3.6936588
bagnet33,1,370,NaN,elephant,bear,64-3-10,0370_eid_dnn_64-3-10_bear_10_n02134418_2964.png,n02134418_2964.png,0.0,3.3207445,4.5907993,-0.8980644
bagnet33,1,371,NaN,elephant,elephant,16-3-10,0371_eid_dnn_16-3-10_elephant_10_n02504013_6904.png,n02504013_6904.png,1.0,4.649702,3.6871953,0.6805951
bagnet33,1,372,NaN,elephant,bottle,32-3-10,0372_eid_dnn_32-3-10_bottle_10_n02823428_13488.png,n02823428_13488.png,0.0,-1.0229132,4.038324,-3.5788352
bagnet33,1,373,NaN,car,car,1-3-10,0373_eid_dnn_1-3-10_car_10_n02814533_49499.png,n02814533_49499.png,1.0,15.704299,10.265457,3.845842
bagnet33,1,374,NaN,elephant,clock,64-3-10,0374_eid_dnn_64-3-10_clock_10_n03196217_1000.png,n03196217_1000.png,0.0,-1.173339,2.8908005,-2.8737805
bagnet33,1,375,NaN,bear,boat,16-3-10,0375_eid_dnn_16-3-10_boat_10_n04612504_13446.png,n04612504_13446.png,0.0,-0.6693536,2.0940804,-1.9540429
bagnet33,1,376,NaN,bear,cat,8-3-10,0376_eid_dnn_8-3-10_cat_10_n02123159_7239.png,n02123159_7239.png,0.0,3.4425824,3.7058334,-0.18614662
bagnet33,1,377,NaN,airplane,airplane,8-3-10,0377_eid_dnn_8-3-10_airplane_10_n02690373_7499.png,n02690373_7499.png,1.0,3.0370543,1.7177006,0.932924
bagnet33,1,378,NaN,knife,dog,64-3-10,0378_eid_dnn_64-3-10_dog_10_n02100877_8862.png,n02100877_8862.png,0.0,1.0670142,2.8723133,-1.2765392
bagnet33,1,379,NaN,keyboard,keyboard,2-3-10,0379_eid_dnn_2-3-10_keyboard_10_n03085013_7152.png,n03085013_7152.png,1.0,18.437458,3.7173495,10.408689
bagnet33,1,380,NaN,elephant,bottle,32-3-10,0380_eid_dnn_32-3-10_bottle_10_n03937543_3344.png,n03937543_3344.png,0.0,-1.0874809,4.14952,-3.703119
bagnet33,1,381,NaN,bear,bicycle,64-3-10,0381_eid_dnn_64-3-10_bicycle_10_n02835271_1721.png,n02835271_1721.png,0.0,-1.7742946,4.325492,-4.3132005
bagnet33,1,382,NaN,boat,boat,2-3-10,0382_eid_dnn_2-3-10_boat_10_n04273569_7039.png,n04273569_7039.png,1.0,5.6642485,2.5397305,2.2093678
bagnet33,1,383,NaN,airplane,airplane,1-3-10,0383_eid_dnn_1-3-10_airplane_10_n02690373_5790.png,n02690373_5790.png,1.0,9.91254,6.717406,2.2593014
bagnet33,1,384,NaN,elephant,bird,2-3-10,0384_eid_dnn_2-3-10_bird_10_n02007558_4629.png,n02007558_4629.png,0.0,0.6159489,3.2713256,-1.8776349
bagnet33,1,385,NaN,knife,airplane,8-3-10,0385_eid_dnn_8-3-10_airplane_10_n02690373_2313.png,n02690373_2313.png,0.0,-0.036890388,1.9483813,-1.403799
bagnet33,1,386,NaN,car,car,2-3-10,0386_eid_dnn_2-3-10_car_10_n02814533_65093.png,n02814533_65093.png,1.0,8.486717,6.8039703,1.1898818
bagnet33,1,387,NaN,bottle,bicycle,2-3-10,0387_eid_dnn_2-3-10_bicycle_10_n03792782_4559.png,n03792782_4559.png,0.0,3.745901,3.8131585,-0.047558166
bagnet33,1,388,NaN,chair,oven,2-3-10,0388_eid_dnn_2-3-10_oven_10_n04111531_16696.png,n04111531_16696.png,0.0,0.97441596,5.3829412,-3.1172984
bagnet33,1,389,NaN,elephant,boat,32-3-10,0389_eid_dnn_32-3-10_boat_10_n04273569_5593.png,n04273569_5593.png,0.0,-2.2168975,3.2189865,-3.8437505
bagnet33,1,390,NaN,elephant,bottle,128-3-10,0390_eid_dnn_128-3-10_bottle_10_n03937543_6624.png,n03937543_6624.png,0.0,-1.5340755,4.2484083,-4.088834
bagnet33,1,391,NaN,airplane,airplane,1-3-10,0391_eid_dnn_1-3-10_airplane_10_n02690373_12436.png,n02690373_12436.png,1.0,17.028778,3.8513854,9.317824
bagnet33,1,392,NaN,knife,bird,2-3-10,0392_eid_dnn_2-3-10_bird_10_n01828970_6924.png,n01828970_6924.png,0.0,0.75111794,2.7616925,-1.421691
bagnet33,1,393,NaN,bottle,airplane,4-3-10,0393_eid_dnn_4-3-10_airplane_10_n02690373_9605.png,n02690373_9605.png,0.0,2.550026,2.7300813,-0.12731838
bagnet33,1,394,NaN,elephant,truck,128-3-10,0394_eid_dnn_128-3-10_truck_10_n03796401_1335.png,n03796401_1335.png,0.0,-3.1628895,2.149634,-3.7565215
bagnet33,1,395,NaN,elephant,chair,64-3-10,0395_eid_dnn_64-3-10_chair_10_n04429376_10476.png,n04429376_10476.png,0.0,-2.0243535,4.3053126,-4.47575
bagnet33,1,396,NaN,bottle,bottle,1-3-10,0396_eid_dnn_1-3-10_bottle_10_n04560804_32760.png,n04560804_32760.png,1.0,7.1103797,5.166771,1.374339
bagnet33,1,397,NaN,knife,airplane,32-3-10,0397_eid_dnn_32-3-10_airplane_10_n02690373_10817.png,n02690373_10817.png,0.0,-0.35064143,1.6968644,-1.4478053
bagnet33,1,398,NaN,elephant,car,32-3-10,0398_eid_dnn_32-3-10_car_10_n03100240_5946.png,n03100240_5946.png,0.0,-3.762038,4.6312366,-5.9349413
bagnet33,1,399,NaN,elephant,clock,64-3-10,0399_eid_dnn_64-3-10_clock_10_n02708093_2875.png,n02708093_2875.png,0.0,-3.4135582,5.533229,-6.326334
bagnet33,1,400,NaN,bear,bear,2-3-10,0400_eid_dnn_2-3-10_bear_10_n02133161_2456.png,n02133161_2456.png,1.0,2.2188244,1.7049253,0.36338153
bagnet33,1,401,NaN,bear,bird,8-3-10,0401_eid_dnn_8-3-10_bird_10_n01855672_15317.png,n01855672_15317.png,0.0,-0.63755643,2.540861,-2.2474804
bagnet33,1,402,NaN,dog,dog,8-3-10,0402_eid_dnn_8-3-10_dog_10_n02098286_2242.png,n02098286_2242.png,1.0,5.463179,4.0371804,1.0083333
bagnet33,1,403,NaN,knife,knife,2-3-10,0403_eid_dnn_2-3-10_knife_10_n03041632_43289.png,n03041632_43289.png,1.0,5.035,3.065351,1.392752
bagnet33,1,404,NaN,bottle,bottle,4-3-10,0404_eid_dnn_4-3-10_bottle_10_n02823428_4387.png,n02823428_4387.png,1.0,10.788681,3.3515186,5.258868
bagnet33,1,405,NaN,elephant,knife,64-3-10,0405_eid_dnn_64-3-10_knife_10_n03041632_13194.png,n03041632_13194.png,0.0,-1.326651,3.1298301,-3.151208
bagnet33,1,406,NaN,knife,airplane,8-3-10,0406_eid_dnn_8-3-10_airplane_10_n02690373_7465.png,n02690373_7465.png,0.0,0.73034936,2.9370055,-1.5603416
bagnet33,1,407,NaN,knife,bird,4-3-10,0407_eid_dnn_4-3-10_bird_10_n02018207_2282.png,n02018207_2282.png,0.0,0.9366231,1.3877378,-0.31898624
bagnet33,1,408,NaN,elephant,chair,64-3-10,0408_eid_dnn_64-3-10_chair_10_n04099969_34351.png,n04099969_34351.png,0.0,-0.8881044,4.8044624,-4.025253
bagnet33,1,409,NaN,cat,bottle,64-3-10,0409_eid_dnn_64-3-10_bottle_10_n03937543_49.png,n03937543_49.png,0.0,-0.27384502,1.9836651,-1.5963008
bagnet33,1,410,NaN,elephant,bicycle,8-3-10,0410_eid_dnn_8-3-10_bicycle_10_n03792782_9833.png,n03792782_9833.png,0.0,-0.087727636,3.1783566,-2.3094704
bagnet33,1,411,NaN,bottle,clock,4-3-10,0411_eid_dnn_4-3-10_clock_10_n03196217_10384.png,n03196217_10384.png,0.0,0.797393,6.3596473,-3.9331079
bagnet33,1,412,NaN,elephant,truck,64-3-10,0412_eid_dnn_64-3-10_truck_10_n04467665_4492.png,n04467665_4492.png,0.0,-2.9382505,4.0541854,-4.944399
bagnet33,1,413,NaN,dog,bottle,128-3-10,0413_eid_dnn_128-3-10_bottle_10_n03983396_5148.png,n03983396_5148.png,0.0,-2.395479,3.0364738,-3.8409705
bagnet33,1,414,NaN,bird,clock,128-3-10,0414_eid_dnn_128-3-10_clock_10_n04548280_4364.png,n04548280_4364.png,0.0,0.3824462,2.6175222,-1.5804374
bagnet33,1,415,NaN,cat,cat,1-3-10,0415_eid_dnn_1-3-10_cat_10_n02123394_6792.png,n02123394_6792.png,1.0,10.769408,3.2883282,5.2899227
bagnet33,1,416,NaN,elephant,oven,16-3-10,0416_eid_dnn_16-3-10_oven_10_n04111531_1298.png,n04111531_1298.png,0.0,2.0798314,5.689683,-2.5525506
bagnet33,1,417,NaN,dog,clock,8-3-10,0417_eid_dnn_8-3-10_clock_10_n04548280_2334.png,n04548280_2334.png,0.0,-0.39742073,2.5595174,-2.0908709
bagnet33,1,418,NaN,elephant,car,32-3-10,0418_eid_dnn_32-3-10_car_10_n04285008_15570.png,n04285008_15570.png,0.0,-3.792181,4.668091,-5.9823155
bagnet33,1,419,NaN,knife,dog,32-3-10,0419_eid_dnn_32-3-10_dog_10_n02087394_7569.png,n02087394_7569.png,0.0,0.8046631,2.1656113,-0.96233565
bagnet33,1,420,NaN,dog,clock,32-3-10,0420_eid_dnn_32-3-10_clock_10_n03196217_11445.png,n03196217_11445.png,0.0,0.361598,2.86597,-1.7708584
bagnet33,1,421,NaN,elephant,chair,32-3-10,0421_eid_dnn_32-3-10_chair_10_n04099969_3095.png,n04099969_3095.png,0.0,-0.012981519,4.512005,-3.1996486
bagnet33,1,422,NaN,elephant,bird,64-3-10,0422_eid_dnn_64-3-10_bird_10_n01601694_935.png,n01601694_935.png,0.0,0.42759424,3.3284974,-2.0512483
bagnet33,1,423,NaN,cat,bird,2-3-10,0423_eid_dnn_2-3-10_bird_10_n01592084_3570.png,n01592084_3570.png,0.0,0.66015756,2.6737661,-1.4238362
bagnet33,1,424,NaN,dog,dog,64-3-10,0424_eid_dnn_64-3-10_dog_10_n02090379_605.png,n02090379_605.png,1.0,4.442588,4.411781,0.021783851
bagnet33,1,425,NaN,airplane,airplane,1-3-10,0425_eid_dnn_1-3-10_airplane_10_n02690373_3912.png,n02690373_3912.png,1.0,20.65995,4.569989,11.377321
bagnet33,1,426,NaN,cat,oven,128-3-10,0426_eid_dnn_128-3-10_oven_10_n04111531_986.png,n04111531_986.png,0.0,-2.3585725,2.9768913,-3.7727425
bagnet33,1,427,NaN,elephant,knife,32-3-10,0427_eid_dnn_32-3-10_knife_10_n03041632_23736.png,n03041632_23736.png,0.0,0.79337645,3.6532047,-2.022204
bagnet33,1,428,NaN,bottle,clock,4-3-10,0428_eid_dnn_4-3-10_clock_10_n04548280_10686.png,n04548280_10686.png,0.0,0.7044912,5.10511,-3.1117077
bagnet33,1,429,NaN,elephant,oven,32-3-10,0429_eid_dnn_32-3-10_oven_10_n04111531_21460.png,n04111531_21460.png,0.0,1.0429626,4.31789,-2.3157237
bagnet33,1,430,NaN,bird,bottle,32-3-10,0430_eid_dnn_32-3-10_bottle_10_n04557648_3675.png,n04557648_3675.png,0.0,-1.6364654,3.4592712,-3.60323
bagnet33,1,431,NaN,bottle,chair,8-3-10,0431_eid_dnn_8-3-10_chair_10_n02791124_495.png,n02791124_495.png,0.0,0.67513496,1.4607705,-0.5555282
bagnet33,1,432,NaN,elephant,chair,128-3-10,0432_eid_dnn_128-3-10_chair_10_n04429376_9165.png,n04429376_9165.png,0.0,-1.0792342,4.5720315,-3.9960482
bagnet33,1,433,NaN,clock,clock,1-3-10,0433_eid_dnn_1-3-10_clock_10_n04548280_2937.png,n04548280_2937.png,1.0,13.089462,4.8040385,5.8586793
bagnet33,1,434,NaN,cat,bear,32-3-10,0434_eid_dnn_32-3-10_bear_10_n02134418_5849.png,n02134418_5849.png,0.0,0.9353953,1.898302,-0.68087786
bagnet33,1,435,NaN,cat,bottle,128-3-10,0435_eid_dnn_128-3-10_bottle_10_n04560804_2521.png,n04560804_2521.png,0.0,-3.9568095,4.6010995,-6.0513554
bagnet33,1,436,NaN,dog,car,8-3-10,0436_eid_dnn_8-3-10_car_10_n04285008_11600.png,n04285008_11600.png,0.0,-1.1039423,2.0910103,-2.2591727
bagnet33,1,437,NaN,knife,knife,2-3-10,0437_eid_dnn_2-3-10_knife_10_n03041632_79317.png,n03041632_79317.png,1.0,6.0284953,2.484569,2.5059342
bagnet33,1,438,NaN,elephant,truck,32-3-10,0438_eid_dnn_32-3-10_truck_10_n03417042_6467.png,n03417042_6467.png,0.0,-2.139884,6.275633,-5.9506693
bagnet33,1,439,NaN,bottle,airplane,64-3-10,0439_eid_dnn_64-3-10_airplane_10_n02690373_303.png,n02690373_303.png,0.0,-1.452831,3.82233,-3.730102
bagnet33,1,440,NaN,elephant,chair,64-3-10,0440_eid_dnn_64-3-10_chair_10_n04099969_2354.png,n04099969_2354.png,0.0,-0.7488383,8.202365,-6.329457
bagnet33,1,441,NaN,elephant,clock,128-3-10,0441_eid_dnn_128-3-10_clock_10_n04548280_377.png,n04548280_377.png,0.0,-2.7053654,4.120199,-4.826403
bagnet33,1,442,NaN,bird,bicycle,32-3-10,0442_eid_dnn_32-3-10_bicycle_10_n03792782_11597.png,n03792782_11597.png,0.0,-0.51185775,1.7821417,-1.6221026
bagnet33,1,443,NaN,bottle,bottle,2-3-10,0443_eid_dnn_2-3-10_bottle_10_n04579145_215.png,n04579145_215.png,1.0,7.0175447,2.1823375,3.4190078
bagnet33,1,444,NaN,chair,car,4-3-10,0444_eid_dnn_4-3-10_car_10_n02814533_95669.png,n02814533_95669.png,0.0,2.0302575,4.8309345,-1.9803778
bagnet33,1,445,NaN,elephant,chair,32-3-10,0445_eid_dnn_32-3-10_chair_10_n04429376_51025.png,n04429376_51025.png,0.0,-0.34767342,3.563472,-2.7655976
bagnet33,1,446,NaN,cat,cat,4-3-10,0446_eid_dnn_4-3-10_cat_10_n02123045_2757.png,n02123045_2757.png,1.0,5.316318,2.9540644,1.6703656
bagnet33,1,447,NaN,bottle,bottle,4-3-10,0447_eid_dnn_4-3-10_bottle_10_n03937543_2135.png,n03937543_2135.png,1.0,3.4366224,2.6919122,0.52658963
bagnet33,1,448,NaN,bottle,bird,2-3-10,0448_eid_dnn_2-3-10_bird_10_n01855032_7457.png,n01855032_7457.png,0.0,-0.3713143,1.7347043,-1.48918
bagnet33,1,449,NaN,elephant,car,16-3-10,0449_eid_dnn_16-3-10_car_10_n02814533_24935.png,n02814533_24935.png,0.0,-3.0175111,6.057866,-6.417261
bagnet33,1,450,NaN,bottle,keyboard,4-3-10,0450_eid_dnn_4-3-10_keyboard_10_n04505470_1371.png,n04505470_1371.png,0.0,3.7963314,5.1457963,-0.95421576
bagnet33,1,451,NaN,elephant,dog,16-3-10,0451_eid_dnn_16-3-10_dog_10_n02099267_2379.png,n02099267_2379.png,0.0,2.3996563,3.9711022,-1.1111801
bagnet33,1,452,NaN,cat,cat,8-3-10,0452_eid_dnn_8-3-10_cat_10_n02123394_8009.png,n02123394_8009.png,1.0,6.557094,4.7366004,1.2872834
bagnet33,1,453,NaN,keyboard,keyboard,2-3-10,0453_eid_dnn_2-3-10_keyboard_10_n03085013_29042.png,n03085013_29042.png,1.0,13.650164,4.619943,6.3853297
bagnet33,1,454,NaN,elephant,airplane,128-3-10,0454_eid_dnn_128-3-10_airplane_10_n02690373_2131.png,n02690373_2131.png,0.0,-2.3034592,3.159668,-3.8630142
bagnet33,1,455,NaN,knife,car,8-3-10,0455_eid_dnn_8-3-10_car_10_n03100240_327.png,n03100240_327.png,0.0,-2.143387,2.6480389,-3.3880496
bagnet33,1,456,NaN,elephant,elephant,2-3-10,0456_eid_dnn_2-3-10_elephant_10_n02504458_4163.png,n02504458_4163.png,1.0,7.8407254,2.145108,4.02741
bagnet33,1,457,NaN,knife,knife,1-3-10,0457_eid_dnn_1-3-10_knife_10_n03041632_9635.png,n03041632_9635.png,1.0,3.9613643,2.362947,1.1302518
bagnet33,1,458,NaN,elephant,airplane,16-3-10,0458_eid_dnn_16-3-10_airplane_10_n02690373_1044.png,n02690373_1044.png,0.0,-1.7108703,3.5705478,-3.7345264
bagnet33,1,459,NaN,knife,bottle,16-3-10,0459_eid_dnn_16-3-10_bottle_10_n04560804_5441.png,n04560804_5441.png,0.0,-0.01859208,2.5369582,-1.807047
bagnet33,1,460,NaN,cat,cat,8-3-10,0460_eid_dnn_8-3-10_cat_10_n02123159_988.png,n02123159_988.png,1.0,2.9063952,2.8932483,0.009296246
bagnet33,1,461,NaN,dog,bird,64-3-10,0461_eid_dnn_64-3-10_bird_10_n01843383_4667.png,n01843383_4667.png,0.0,1.5014693,3.7544415,-1.5930918
bagnet33,1,462,NaN,knife,airplane,2-3-10,0462_eid_dnn_2-3-10_airplane_10_n02690373_6978.png,n02690373_6978.png,0.0,2.961049,4.5234585,-1.1047903
bagnet33,1,463,NaN,cat,chair,128-3-10,0463_eid_dnn_128-3-10_chair_10_n04099969_5901.png,n04099969_5901.png,0.0,-1.6528378,4.488505,-4.342585
bagnet33,1,464,NaN,elephant,truck,8-3-10,0464_eid_dnn_8-3-10_truck_10_n03417042_29849.png,n03417042_29849.png,0.0,0.29664725,3.414637,-2.2047517
bagnet33,1,465,NaN,airplane,airplane,1-3-10,0465_eid_dnn_1-3-10_airplane_10_n02690373_427.png,n02690373_427.png,1.0,6.904055,2.5705757,3.0642328
bagnet33,1,466,NaN,bottle,bottle,4-3-10,0466_eid_dnn_4-3-10_bottle_10_n03983396_2305.png,n03983396_2305.png,1.0,8.953837,3.194851,4.0722184
bagnet33,1,467,NaN,bird,oven,64-3-10,0467_eid_dnn_64-3-10_oven_10_n04111531_15296.png,n04111531_15296.png,0.0,-1.8667948,3.5493999,-3.8298283
bagnet33,1,468,NaN,cat,cat,4-3-10,0468_eid_dnn_4-3-10_cat_10_n02123159_6728.png,n02123159_6728.png,1.0,1.5516309,1.5059394,0.032308765
bagnet33,1,469,NaN,elephant,elephant,4-3-10,0469_eid_dnn_4-3-10_elephant_10_n02504458_12449.png,n02504458_12449.png,1.0,5.769002,2.3809981,2.3956804
bagnet33,1,470,NaN,elephant,elephant,128-3-10,0470_eid_dnn_128-3-10_elephant_10_n02504458_12165.png,n02504458_12165.png,1.0,7.547886,5.9797854,1.1088145
bagnet33,1,471,NaN,airplane,airplane,8-3-10,0471_eid_dnn_8-3-10_airplane_10_n02690373_5010.png,n02690373_5010.png,1.0,1.6737857,1.4772248,0.13898952
bagnet33,1,472,NaN,elephant,dog,64-3-10,0472_eid_dnn_64-3-10_dog_10_n02100236_4549.png,n02100236_4549.png,0.0,3.251954,3.4352803,-0.12963124
bagnet33,1,473,NaN,boat,boat,4-3-10,0473_eid_dnn_4-3-10_boat_10_n03344393_4289.png,n03344393_4289.png,1.0,2.823832,2.190904,0.4475478
bagnet33,1,474,NaN,elephant,chair,64-3-10,0474_eid_dnn_64-3-10_chair_10_n04099969_48169.png,n04099969_48169.png,0.0,0.35182852,4.549784,-2.9684029
bagnet33,1,475,NaN,knife,airplane,4-3-10,0475_eid_dnn_4-3-10_airplane_10_n02690373_1996.png,n02690373_1996.png,0.0,0.69842184,3.770604,-2.172361
bagnet33,1,476,NaN,cat,truck,128-3-10,0476_eid_dnn_128-3-10_truck_10_n03417042_28078.png,n03417042_28078.png,0.0,-3.6145666,3.548076,-5.064753
bagnet33,1,477,NaN,bottle,truck,8-3-10,0477_eid_dnn_8-3-10_truck_10_n04467665_3098.png,n04467665_3098.png,0.0,0.15652215,2.2677498,-1.4928633
bagnet33,1,478,NaN,elephant,elephant,4-3-10,0478_eid_dnn_4-3-10_elephant_10_n02504458_847.png,n02504458_847.png,1.0,4.460956,1.5734059,2.0418065
bagnet33,1,479,NaN,elephant,bicycle,8-3-10,0479_eid_dnn_8-3-10_bicycle_10_n03792782_5880.png,n03792782_5880.png,0.0,-1.7069813,3.2287288,-3.490074
bagnet33,1,480,NaN,elephant,bear,128-3-10,0480_eid_dnn_128-3-10_bear_10_n02132136_30976.png,n02132136_30976.png,0.0,1.9917524,3.4022992,-0.9974072
bagnet33,1,481,NaN,dog,chair,64-3-10,0481_eid_dnn_64-3-10_chair_10_n02791124_2057.png,n02791124_2057.png,0.0,0.82231724,3.1089175,-1.6168705
bagnet33,1,482,NaN,cat,keyboard,128-3-10,0482_eid_dnn_128-3-10_keyboard_10_n03085013_7286.png,n03085013_7286.png,0.0,-0.8732775,4.3250985,-3.675807
bagnet33,1,483,NaN,elephant,clock,32-3-10,0483_eid_dnn_32-3-10_clock_10_n04548280_1323.png,n04548280_1323.png,0.0,-1.0382833,4.7882442,-4.1199775
bagnet33,1,484,NaN,elephant,bottle,128-3-10,0484_eid_dnn_128-3-10_bottle_10_n03983396_18508.png,n03983396_18508.png,0.0,-2.8679626,3.8379931,-4.7418265
bagnet33,1,485,NaN,cat,bottle,8-3-10,0485_eid_dnn_8-3-10_bottle_10_n03983396_3880.png,n03983396_3880.png,0.0,1.244688,2.1408381,-0.63367385
bagnet33,1,486,NaN,cat,dog,128-3-10,0486_eid_dnn_128-3-10_dog_10_n02095570_601.png,n02095570_601.png,0.0,1.9899919,2.9396675,-0.671522
bagnet33,1,487,NaN,elephant,bird,32-3-10,0487_eid_dnn_32-3-10_bird_10_n01797886_21510.png,n01797886_21510.png,0.0,1.6247511,2.7511184,-0.796462
bagnet33,1,488,NaN,chair,chair,1-3-10,0488_eid_dnn_1-3-10_chair_10_n04099969_9425.png,n04099969_9425.png,1.0,9.755836,8.007507,1.2362548
bagnet33,1,489,NaN,cat,keyboard,8-3-10,0489_eid_dnn_8-3-10_keyboard_10_n04505470_4228.png,n04505470_4228.png,0.0,-0.10980576,2.823127,-2.0738966
bagnet33,1,490,NaN,dog,elephant,32-3-10,0490_eid_dnn_32-3-10_elephant_10_n02504013_7553.png,n02504013_7553.png,0.0,3.4350786,4.9738736,-1.0880924
bagnet33,1,491,NaN,elephant,cat,64-3-10,0491_eid_dnn_64-3-10_cat_10_n02125311_8090.png,n02125311_8090.png,0.0,1.9269385,3.5721338,-1.1633288
bagnet33,1,492,NaN,oven,keyboard,8-3-10,0492_eid_dnn_8-3-10_keyboard_10_n04505470_10041.png,n04505470_10041.png,0.0,-0.16026449,4.188289,-3.0748918
bagnet33,1,493,NaN,bottle,bicycle,4-3-10,0493_eid_dnn_4-3-10_bicycle_10_n03792782_1833.png,n03792782_1833.png,0.0,0.15227918,1.9620712,-1.2797163
bagnet33,1,494,NaN,knife,bottle,4-3-10,0494_eid_dnn_4-3-10_bottle_10_n04557648_11642.png,n04557648_11642.png,0.0,1.974467,3.234521,-0.89099264
bagnet33,1,495,NaN,cat,car,128-3-10,0495_eid_dnn_128-3-10_car_10_n03100240_7219.png,n03100240_7219.png,0.0,-4.0741563,3.1318636,-5.0954256
bagnet33,1,496,NaN,truck,truck,1-3-10,0496_eid_dnn_1-3-10_truck_10_n03796401_9642.png,n03796401_9642.png,1.0,20.18018,12.343091,5.5416584
bagnet33,1,497,NaN,oven,cat,1-3-10,0497_eid_dnn_1-3-10_cat_10_n02125311_13348.png,n02125311_13348.png,0.0,0.97220373,2.295314,-0.9355803
bagnet33,1,498,NaN,elephant,bottle,128-3-10,0498_eid_dnn_128-3-10_bottle_10_n04560804_5540.png,n04560804_5540.png,0.0,-2.2433481,3.2491946,-3.8838143
bagnet33,1,499,NaN,bottle,bottle,4-3-10,0499_eid_dnn_4-3-10_bottle_10_n03983396_9604.png,n03983396_9604.png,1.0,7.8107505,2.1873925,3.9763145
bagnet33,1,500,NaN,elephant,truck,32-3-10,0500_eid_dnn_32-3-10_truck_10_n03417042_5180.png,n03417042_5180.png,0.0,-1.9272361,3.2893734,-3.6887
bagnet33,1,501,NaN,cat,dog,16-3-10,0501_eid_dnn_16-3-10_dog_10_n02109525_3364.png,n02109525_3364.png,0.0,3.8217282,5.1423616,-0.93382883
bagnet33,1,502,NaN,clock,clock,2-3-10,0502_eid_dnn_2-3-10_clock_10_n04548280_353.png,n04548280_353.png,1.0,6.8458953,4.715791,1.506211
bagnet33,1,503,NaN,dog,dog,1-3-10,0503_eid_dnn_1-3-10_dog_10_n02111129_4423.png,n02111129_4423.png,1.0,3.826511,2.5985644,0.86828935
bagnet33,1,504,NaN,bear,dog,16-3-10,0504_eid_dnn_16-3-10_dog_10_n02108000_1538.png,n02108000_1538.png,0.0,2.4374535,4.2792425,-1.3023415
bagnet33,1,505,NaN,bear,keyboard,16-3-10,0505_eid_dnn_16-3-10_keyboard_10_n03085013_3439.png,n03085013_3439.png,0.0,-1.0973027,2.0794446,-2.2462995
bagnet33,1,506,NaN,bottle,truck,8-3-10,0506_eid_dnn_8-3-10_truck_10_n03417042_4016.png,n03417042_4016.png,0.0,-0.27183962,2.1199176,-1.6912278
bagnet33,1,507,NaN,elephant,knife,32-3-10,0507_eid_dnn_32-3-10_knife_10_n03041632_39883.png,n03041632_39883.png,0.0,1.3789895,5.029651,-2.5814078
bagnet33,1,508,NaN,elephant,bear,16-3-10,0508_eid_dnn_16-3-10_bear_10_n02132136_21181.png,n02132136_21181.png,0.0,3.8043315,4.0234838,-0.15496401
bagnet33,1,509,NaN,elephant,elephant,8-3-10,0509_eid_dnn_8-3-10_elephant_10_n02504013_718.png,n02504013_718.png,1.0,3.513579,3.1204865,0.2779583
bagnet33,1,510,NaN,oven,oven,2-3-10,0510_eid_dnn_2-3-10_oven_10_n04111531_4146.png,n04111531_4146.png,1.0,7.9157267,7.2484145,0.47186095
bagnet33,1,511,NaN,dog,airplane,8-3-10,0511_eid_dnn_8-3-10_airplane_10_n02690373_10769.png,n02690373_10769.png,0.0,0.43968,1.0308329,-0.41800824
bagnet33,1,512,NaN,cat,dog,16-3-10,0512_eid_dnn_16-3-10_dog_10_n02109525_4516.png,n02109525_4516.png,0.0,4.0801253,5.2590623,-0.8336343
bagnet33,1,513,NaN,bear,boat,4-3-10,0513_eid_dnn_4-3-10_boat_10_n02951358_12333.png,n02951358_12333.png,0.0,-1.5368793,1.7775352,-2.343645
bagnet33,1,514,NaN,elephant,chair,8-3-10,0514_eid_dnn_8-3-10_chair_10_n04099969_20421.png,n04099969_20421.png,0.0,-0.1274234,5.6319776,-4.0725117
bagnet33,1,515,NaN,knife,knife,4-3-10,0515_eid_dnn_4-3-10_knife_10_n03041632_21165.png,n03041632_21165.png,1.0,2.126633,1.7131252,0.2923941
bagnet33,1,516,NaN,bicycle,bicycle,1-3-10,0516_eid_dnn_1-3-10_bicycle_10_n02835271_21439.png,n02835271_21439.png,1.0,8.489708,3.8367593,3.2901313
bagnet33,1,517,NaN,airplane,boat,1-3-10,0517_eid_dnn_1-3-10_boat_10_n04273569_24526.png,n04273569_24526.png,0.0,3.8221257,4.6473455,-0.58351856
bagnet33,1,518,NaN,elephant,bottle,32-3-10,0518_eid_dnn_32-3-10_bottle_10_n04579145_2276.png,n04579145_2276.png,0.0,-1.1847378,3.0801644,-3.0157413
bagnet33,1,519,NaN,bear,bear,8-3-10,0519_eid_dnn_8-3-10_bear_10_n02134418_1642.png,n02134418_1642.png,1.0,2.5425355,2.4569185,0.060540408
bagnet33,1,520,NaN,bicycle,bicycle,1-3-10,0520_eid_dnn_1-3-10_bicycle_10_n02835271_15468.png,n02835271_15468.png,1.0,17.182415,2.2968278,10.525701
bagnet33,1,521,NaN,knife,keyboard,64-3-10,0521_eid_dnn_64-3-10_keyboard_10_n03085013_26532.png,n03085013_26532.png,0.0,-2.615247,3.4224038,-4.269264
bagnet33,1,522,NaN,dog,clock,64-3-10,0522_eid_dnn_64-3-10_clock_10_n03196217_6809.png,n03196217_6809.png,0.0,-0.938344,4.002758,-3.4938867
bagnet33,1,523,NaN,elephant,bear,64-3-10,0523_eid_dnn_64-3-10_bear_10_n02134418_4384.png,n02134418_4384.png,0.0,2.186646,3.2737346,-0.7686877
bagnet33,1,524,NaN,dog,dog,4-3-10,0524_eid_dnn_4-3-10_dog_10_n02086240_1183.png,n02086240_1183.png,1.0,8.968249,5.126395,2.7166011
bagnet33,1,525,NaN,chair,chair,1-3-10,0525_eid_dnn_1-3-10_chair_10_n04429376_294.png,n04429376_294.png,1.0,6.179213,4.04359,1.5101135
bagnet33,1,526,NaN,elephant,clock,64-3-10,0526_eid_dnn_64-3-10_clock_10_n02708093_4893.png,n02708093_4893.png,0.0,-0.042728823,3.1688533,-2.2709315
bagnet33,1,527,NaN,elephant,keyboard,64-3-10,0527_eid_dnn_64-3-10_keyboard_10_n03085013_3098.png,n03085013_3098.png,0.0,-1.3224859,3.9262204,-3.711396
bagnet33,1,528,NaN,elephant,cat,16-3-10,0528_eid_dnn_16-3-10_cat_10_n02125311_22073.png,n02125311_22073.png,0.0,2.2743416,3.8913283,-1.1433823
bagnet33,1,529,NaN,knife,bird,2-3-10,0529_eid_dnn_2-3-10_bird_10_n01558993_869.png,n01558993_869.png,0.0,-1.2709197,3.4400988,-3.3311932
bagnet33,1,530,NaN,elephant,bird,1-3-10,0530_eid_dnn_1-3-10_bird_10_n01817953_8025.png,n01817953_8025.png,0.0,6.4843116,6.810259,-0.23047954
bagnet33,1,531,NaN,chair,chair,2-3-10,0531_eid_dnn_2-3-10_chair_10_n04099969_24235.png,n04099969_24235.png,1.0,3.4416938,3.257898,0.12996317
bagnet33,1,532,NaN,cat,knife,128-3-10,0532_eid_dnn_128-3-10_knife_10_n03041632_1201.png,n03041632_1201.png,0.0,-0.82421553,3.3585718,-2.9576774
bagnet33,1,533,NaN,oven,bicycle,4-3-10,0533_eid_dnn_4-3-10_bicycle_10_n03792782_16212.png,n03792782_16212.png,0.0,0.5532327,5.416549,-3.4388843
bagnet33,1,534,NaN,bottle,oven,4-3-10,0534_eid_dnn_4-3-10_oven_10_n04111531_11655.png,n04111531_11655.png,0.0,-0.26759166,4.1071954,-3.0934415
bagnet33,1,535,NaN,elephant,bicycle,16-3-10,0535_eid_dnn_16-3-10_bicycle_10_n02835271_5152.png,n02835271_5152.png,0.0,-1.8339114,5.651226,-5.2927914
bagnet33,1,536,NaN,knife,bear,16-3-10,0536_eid_dnn_16-3-10_bear_10_n02132136_19290.png,n02132136_19290.png,0.0,0.6195432,2.850214,-1.5773226
bagnet33,1,537,NaN,elephant,car,32-3-10,0537_eid_dnn_32-3-10_car_10_n03100240_6103.png,n03100240_6103.png,0.0,-4.0873256,6.3391776,-7.372651
bagnet33,1,538,NaN,knife,airplane,16-3-10,0538_eid_dnn_16-3-10_airplane_10_n02690373_5714.png,n02690373_5714.png,0.0,-1.5487545,2.8387792,-3.102455
bagnet33,1,539,NaN,clock,chair,1-3-10,0539_eid_dnn_1-3-10_chair_10_n04429376_2915.png,n04429376_2915.png,0.0,3.8318305,6.772654,-2.0794764
bagnet33,1,540,NaN,knife,clock,64-3-10,0540_eid_dnn_64-3-10_clock_10_n02708093_7827.png,n02708093_7827.png,0.0,1.2682172,2.4355576,-0.8254343
bagnet33,1,541,NaN,truck,truck,2-3-10,0541_eid_dnn_2-3-10_truck_10_n03417042_6247.png,n03417042_6247.png,1.0,6.548004,4.3236327,1.5728681
bagnet33,1,542,NaN,cat,elephant,32-3-10,0542_eid_dnn_32-3-10_elephant_10_n02504013_947.png,n02504013_947.png,0.0,2.3935661,2.9949646,-0.42525294
bagnet33,1,543,NaN,truck,truck,1-3-10,0543_eid_dnn_1-3-10_truck_10_n03417042_2074.png,n03417042_2074.png,1.0,14.986257,7.435131,5.3394523
bagnet33,1,544,NaN,elephant,airplane,8-3-10,0544_eid_dnn_8-3-10_airplane_10_n02690373_5221.png,n02690373_5221.png,0.0,0.20004076,1.9710412,-1.2522864
bagnet33,1,545,NaN,knife,oven,4-3-10,0545_eid_dnn_4-3-10_oven_10_n04111531_6629.png,n04111531_6629.png,0.0,-0.8964366,2.7495093,-2.5780733
bagnet33,1,546,NaN,knife,knife,1-3-10,0546_eid_dnn_1-3-10_knife_10_n03041632_36277.png,n03041632_36277.png,1.0,10.424763,3.878579,4.628851
bagnet33,1,547,NaN,elephant,cat,64-3-10,0547_eid_dnn_64-3-10_cat_10_n02123597_4700.png,n02123597_4700.png,0.0,2.1608162,2.4989989,-0.23913127
bagnet33,1,548,NaN,elephant,airplane,16-3-10,0548_eid_dnn_16-3-10_airplane_10_n02690373_20042.png,n02690373_20042.png,0.0,-0.35079098,2.7453964,-2.189335
bagnet33,1,549,NaN,elephant,chair,32-3-10,0549_eid_dnn_32-3-10_chair_10_n02791124_15539.png,n02791124_15539.png,0.0,-0.38272473,2.7057524,-2.1838832
bagnet33,1,550,NaN,cat,cat,1-3-10,0550_eid_dnn_1-3-10_cat_10_n02123394_5700.png,n02123394_5700.png,1.0,7.1554112,6.858197,0.21016206
bagnet33,1,551,NaN,bottle,car,4-3-10,0551_eid_dnn_4-3-10_car_10_n04285008_13595.png,n04285008_13595.png,0.0,1.9185404,3.478988,-1.1034031
bagnet33,1,552,NaN,elephant,chair,8-3-10,0552_eid_dnn_8-3-10_chair_10_n02791124_2282.png,n02791124_2282.png,0.0,-0.23210818,3.648426,-2.743952
bagnet33,1,553,NaN,elephant,dog,2-3-10,0553_eid_dnn_2-3-10_dog_10_n02100877_3973.png,n02100877_3973.png,0.0,1.9728298,2.300376,-0.23161009
bagnet33,1,554,NaN,elephant,truck,64-3-10,0554_eid_dnn_64-3-10_truck_10_n03417042_12297.png,n03417042_12297.png,0.0,-2.5212102,3.210735,-4.0530972
bagnet33,1,555,NaN,knife,elephant,8-3-10,0555_eid_dnn_8-3-10_elephant_10_n02504013_6303.png,n02504013_6303.png,0.0,2.304037,3.2283516,-0.65358907
bagnet33,1,556,NaN,elephant,car,8-3-10,0556_eid_dnn_8-3-10_car_10_n02814533_43990.png,n02814533_43990.png,0.0,-2.5287573,2.7582464,-3.738476
bagnet33,1,557,NaN,elephant,truck,16-3-10,0557_eid_dnn_16-3-10_truck_10_n04467665_58456.png,n04467665_58456.png,0.0,-2.1385088,4.5770607,-4.748625
bagnet33,1,558,NaN,knife,dog,4-3-10,0558_eid_dnn_4-3-10_dog_10_n02098105_526.png,n02098105_526.png,0.0,-0.48365197,3.1147718,-2.5444698
bagnet33,1,559,NaN,bird,bird,2-3-10,0559_eid_dnn_2-3-10_bird_10_n02037110_27907.png,n02037110_27907.png,1.0,2.5113385,2.126501,0.27212113
bagnet33,1,560,NaN,bird,keyboard,64-3-10,0560_eid_dnn_64-3-10_keyboard_10_n03085013_20849.png,n03085013_20849.png,0.0,-0.5294627,3.2418897,-2.6667488
bagnet33,1,561,NaN,chair,chair,1-3-10,0561_eid_dnn_1-3-10_chair_10_n03376595_12524.png,n03376595_12524.png,1.0,7.69565,4.3987546,2.331257
bagnet33,1,562,NaN,elephant,bird,64-3-10,0562_eid_dnn_64-3-10_bird_10_n02056570_27055.png,n02056570_27055.png,0.0,2.6358824,3.5472684,-0.64444727
bagnet33,1,563,NaN,elephant,truck,64-3-10,0563_eid_dnn_64-3-10_truck_10_n03417042_4934.png,n03417042_4934.png,0.0,-2.0111854,4.362814,-4.507098
bagnet33,1,564,NaN,knife,knife,16-3-10,0564_eid_dnn_16-3-10_knife_10_n03041632_3210.png,n03041632_3210.png,1.0,2.386146,1.1859148,0.8486917
bagnet33,1,565,NaN,cat,dog,8-3-10,0565_eid_dnn_8-3-10_dog_10_n02096585_2118.png,n02096585_2118.png,0.0,2.1377199,2.4276888,-0.20503902
bagnet33,1,566,NaN,keyboard,keyboard,1-3-10,0566_eid_dnn_1-3-10_keyboard_10_n03085013_3539.png,n03085013_3539.png,1.0,14.898532,5.6092834,6.5684905
bagnet33,1,567,NaN,bottle,truck,4-3-10,0567_eid_dnn_4-3-10_truck_10_n03417042_17215.png,n03417042_17215.png,0.0,2.7951236,4.1945596,-0.9895507
bagnet33,1,568,NaN,cat,cat,8-3-10,0568_eid_dnn_8-3-10_cat_10_n02123045_12657.png,n02123045_12657.png,1.0,5.4032893,3.605169,1.271463
bagnet33,1,569,NaN,knife,knife,64-3-10,0569_eid_dnn_64-3-10_knife_10_n03041632_20576.png,n03041632_20576.png,1.0,2.7061348,2.695496,0.007522707
bagnet33,1,570,NaN,oven,truck,8-3-10,0570_eid_dnn_8-3-10_truck_10_n04467665_23905.png,n04467665_23905.png,0.0,-0.67805284,1.8558984,-1.7917742
bagnet33,1,571,NaN,elephant,oven,128-3-10,0571_eid_dnn_128-3-10_oven_10_n04111531_9427.png,n04111531_9427.png,0.0,0.42175454,3.6591702,-2.2891986
bagnet33,1,572,NaN,elephant,oven,16-3-10,0572_eid_dnn_16-3-10_oven_10_n04111531_14329.png,n04111531_14329.png,0.0,1.0570064,4.1962833,-2.219804
bagnet33,1,573,NaN,elephant,bird,64-3-10,0573_eid_dnn_64-3-10_bird_10_n01614925_19422.png,n01614925_19422.png,0.0,1.6656518,5.9338894,-3.0180998
bagnet33,1,574,NaN,elephant,bottle,128-3-10,0574_eid_dnn_128-3-10_bottle_10_n02823428_1154.png,n02823428_1154.png,0.0,-2.751929,3.9447067,-4.7352366
bagnet33,1,575,NaN,bear,dog,4-3-10,0575_eid_dnn_4-3-10_dog_10_n02093859_4797.png,n02093859_4797.png,0.0,3.2455635,3.9770641,-0.51724905
bagnet33,1,576,NaN,airplane,airplane,1-3-10,0576_eid_dnn_1-3-10_airplane_10_n02690373_2632.png,n02690373_2632.png,1.0,14.151955,5.279065,6.2740803
bagnet33,1,577,NaN,elephant,keyboard,32-3-10,0577_eid_dnn_32-3-10_keyboard_10_n03085013_15825.png,n03085013_15825.png,0.0,-1.1602015,4.060772,-3.6917858
bagnet33,1,578,NaN,bottle,car,4-3-10,0578_eid_dnn_4-3-10_car_10_n02814533_52674.png,n02814533_52674.png,0.0,-0.9082064,5.6607857,-4.644979
bagnet33,1,579,NaN,elephant,truck,32-3-10,0579_eid_dnn_32-3-10_truck_10_n04467665_32937.png,n04467665_32937.png,0.0,-2.229686,2.2026167,-3.1341112
bagnet33,1,580,NaN,knife,bird,4-3-10,0580_eid_dnn_4-3-10_bird_10_n01537544_20.png,n01537544_20.png,0.0,-1.0210154,3.423983,-3.1430888
bagnet33,1,581,NaN,bottle,clock,8-3-10,0581_eid_dnn_8-3-10_clock_10_n03196217_564.png,n03196217_564.png,0.0,1.0020272,1.88754,-0.62615216
bagnet33,1,582,NaN,keyboard,knife,1-3-10,0582_eid_dnn_1-3-10_knife_10_n03041632_76163.png,n03041632_76163.png,0.0,3.9736195,6.2687926,-1.6229326
bagnet33,1,583,NaN,elephant,airplane,32-3-10,0583_eid_dnn_32-3-10_airplane_10_n02690373_8559.png,n02690373_8559.png,0.0,-0.7040571,3.7701473,-3.1637404
bagnet33,1,584,NaN,keyboard,keyboard,2-3-10,0584_eid_dnn_2-3-10_keyboard_10_n04505470_3941.png,n04505470_3941.png,1.0,46.331375,15.941887,21.488613
bagnet33,1,585,NaN,elephant,oven,64-3-10,0585_eid_dnn_64-3-10_oven_10_n04111531_9910.png,n04111531_9910.png,0.0,-2.4504526,4.227557,-4.7220664
bagnet33,1,586,NaN,elephant,bottle,128-3-10,0586_eid_dnn_128-3-10_bottle_10_n03937543_7191.png,n03937543_7191.png,0.0,-2.4153502,4.1281056,-4.626922
bagnet33,1,587,NaN,boat,boat,4-3-10,0587_eid_dnn_4-3-10_boat_10_n03662601_14818.png,n03662601_14818.png,1.0,2.5188203,1.2223315,0.91675603
bagnet33,1,588,NaN,bear,boat,128-3-10,0588_eid_dnn_128-3-10_boat_10_n02951358_588.png,n02951358_588.png,0.0,-2.0116408,4.794836,-4.812906
bagnet33,1,589,NaN,bear,bear,1-3-10,0589_eid_dnn_1-3-10_bear_10_n02133161_2851.png,n02133161_2851.png,1.0,8.871359,4.377446,3.1776762
bagnet33,1,590,NaN,chair,chair,2-3-10,0590_eid_dnn_2-3-10_chair_10_n03376595_16212.png,n03376595_16212.png,1.0,4.844566,4.193263,0.46054065
bagnet33,1,591,NaN,elephant,boat,8-3-10,0591_eid_dnn_8-3-10_boat_10_n04612504_1613.png,n04612504_1613.png,0.0,-1.17929,2.7600427,-2.785529
bagnet33,1,592,NaN,cat,chair,128-3-10,0592_eid_dnn_128-3-10_chair_10_n02791124_3198.png,n02791124_3198.png,0.0,-0.44803074,2.8669145,-2.3440204
bagnet33,1,593,NaN,knife,knife,16-3-10,0593_eid_dnn_16-3-10_knife_10_n03041632_32785.png,n03041632_32785.png,1.0,2.399719,0.9492712,1.0256215
bagnet33,1,594,NaN,elephant,oven,32-3-10,0594_eid_dnn_32-3-10_oven_10_n04111531_22797.png,n04111531_22797.png,0.0,-0.8315339,3.181758,-2.837826
bagnet33,1,595,NaN,elephant,oven,128-3-10,0595_eid_dnn_128-3-10_oven_10_n04111531_5077.png,n04111531_5077.png,0.0,-1.9025663,2.9968247,-3.464393
bagnet33,1,596,NaN,cat,bear,1-3-10,0596_eid_dnn_1-3-10_bear_10_n02134418_2569.png,n02134418_2569.png,0.0,4.9881654,5.9883256,-0.7072201
bagnet33,1,597,NaN,car,car,1-3-10,0597_eid_dnn_1-3-10_car_10_n03100240_15284.png,n03100240_15284.png,1.0,8.594823,6.7335095,1.3161473
bagnet33,1,598,NaN,keyboard,keyboard,2-3-10,0598_eid_dnn_2-3-10_keyboard_10_n04505470_4791.png,n04505470_4791.png,1.0,28.050823,8.550509,13.788804
bagnet33,1,599,NaN,elephant,bicycle,64-3-10,0599_eid_dnn_64-3-10_bicycle_10_n03792782_551.png,n03792782_551.png,0.0,-2.9134274,3.842659,-4.7772746
bagnet33,1,600,NaN,bottle,bottle,1-3-10,0600_eid_dnn_1-3-10_bottle_10_n03937543_2999.png,n03937543_2999.png,1.0,7.657894,3.3618033,3.0377953
bagnet33,1,601,NaN,knife,airplane,16-3-10,0601_eid_dnn_16-3-10_airplane_10_n02690373_7279.png,n02690373_7279.png,0.0,0.8409192,1.7387326,-0.63484997
bagnet33,1,602,NaN,elephant,airplane,128-3-10,0602_eid_dnn_128-3-10_airplane_10_n02690373_9312.png,n02690373_9312.png,0.0,-4.265868,3.292764,-5.34476
bagnet33,1,603,NaN,cat,chair,8-3-10,0603_eid_dnn_8-3-10_chair_10_n04429376_2591.png,n04429376_2591.png,0.0,-0.54304945,3.2397082,-2.6748137
bagnet33,1,604,NaN,bird,dog,32-3-10,0604_eid_dnn_32-3-10_dog_10_n02109525_175.png,n02109525_175.png,0.0,1.8795911,3.1058056,-0.8670646
bagnet33,1,605,NaN,chair,dog,1-3-10,0605_eid_dnn_1-3-10_dog_10_n02106166_476.png,n02106166_476.png,0.0,0.68524814,2.6890106,-1.416874
bagnet33,1,606,NaN,boat,boat,1-3-10,0606_eid_dnn_1-3-10_boat_10_n02951358_1136.png,n02951358_1136.png,1.0,3.597917,2.6207075,0.6909915
bagnet33,1,607,NaN,oven,knife,2-3-10,0607_eid_dnn_2-3-10_knife_10_n03041632_3079.png,n03041632_3079.png,0.0,3.01545,3.3637507,-0.24628578
bagnet33,1,608,NaN,elephant,truck,128-3-10,0608_eid_dnn_128-3-10_truck_10_n03417042_18603.png,n03417042_18603.png,0.0,-3.072741,4.8144717,-5.5771017
bagnet33,1,609,NaN,elephant,cat,128-3-10,0609_eid_dnn_128-3-10_cat_10_n02123045_9492.png,n02123045_9492.png,0.0,4.163506,4.848219,-0.48416513
bagnet33,1,610,NaN,elephant,boat,64-3-10,0610_eid_dnn_64-3-10_boat_10_n03344393_8642.png,n03344393_8642.png,0.0,-2.4490457,2.785946,-3.701698
bagnet33,1,611,NaN,knife,bird,32-3-10,0611_eid_dnn_32-3-10_bird_10_n02009229_6228.png,n02009229_6228.png,0.0,1.6278584,1.9602368,-0.23502702
bagnet33,1,612,NaN,cat,chair,8-3-10,0612_eid_dnn_8-3-10_chair_10_n02791124_13704.png,n02791124_13704.png,0.0,-0.60892034,3.2160785,-2.7046826
bagnet33,1,613,NaN,elephant,knife,64-3-10,0613_eid_dnn_64-3-10_knife_10_n03041632_28129.png,n03041632_28129.png,0.0,-2.063206,3.2077427,-3.7271235
bagnet33,1,614,NaN,bear,keyboard,32-3-10,0614_eid_dnn_32-3-10_keyboard_10_n04505470_8244.png,n04505470_8244.png,0.0,-1.0038509,4.056642,-3.578309
bagnet33,1,615,NaN,keyboard,knife,4-3-10,0615_eid_dnn_4-3-10_knife_10_n03041632_30196.png,n03041632_30196.png,0.0,2.526571,2.681058,-0.10923874
bagnet33,1,616,NaN,elephant,keyboard,32-3-10,0616_eid_dnn_32-3-10_keyboard_10_n04505470_5109.png,n04505470_5109.png,0.0,0.6197202,2.3119802,-1.1966085
bagnet33,1,617,NaN,knife,knife,8-3-10,0617_eid_dnn_8-3-10_knife_10_n03041632_44738.png,n03041632_44738.png,1.0,2.396638,1.6470212,0.5300591
bagnet33,1,618,NaN,truck,car,1-3-10,0618_eid_dnn_1-3-10_car_10_n02814533_4726.png,n02814533_4726.png,0.0,9.310921,9.762535,-0.3193396
bagnet33,1,619,NaN,elephant,elephant,2-3-10,0619_eid_dnn_2-3-10_elephant_10_n02504458_13583.png,n02504458_13583.png,1.0,11.686825,2.157087,6.738542
bagnet33,1,620,NaN,boat,boat,1-3-10,0620_eid_dnn_1-3-10_boat_10_n03662601_26396.png,n03662601_26396.png,1.0,7.023745,5.6784167,0.9512908
bagnet33,1,621,NaN,knife,boat,4-3-10,0621_eid_dnn_4-3-10_boat_10_n04273569_4518.png,n04273569_4518.png,0.0,1.3907447,2.5962248,-0.85240316
bagnet33,1,622,NaN,elephant,bird,16-3-10,0622_eid_dnn_16-3-10_bird_10_n01843383_3274.png,n01843383_3274.png,0.0,-0.23158844,4.4737988,-3.3272111
bagnet33,1,623,NaN,bear,clock,16-3-10,0623_eid_dnn_16-3-10_clock_10_n02708093_3621.png,n02708093_3621.png,0.0,-0.6459837,3.6978061,-3.0715234
bagnet33,1,624,NaN,airplane,boat,16-3-10,0624_eid_dnn_16-3-10_boat_10_n02951358_1360.png,n02951358_1360.png,0.0,-0.06451569,1.6989942,-1.2469898
bagnet33,1,625,NaN,keyboard,keyboard,4-3-10,0625_eid_dnn_4-3-10_keyboard_10_n03085013_5819.png,n03085013_5819.png,1.0,9.710924,6.6984324,2.1301534
bagnet33,1,626,NaN,elephant,dog,64-3-10,0626_eid_dnn_64-3-10_dog_10_n02087046_15420.png,n02087046_15420.png,0.0,3.764531,4.279479,-0.3641233
bagnet33,1,627,NaN,bottle,bottle,1-3-10,0627_eid_dnn_1-3-10_bottle_10_n03937543_1358.png,n03937543_1358.png,1.0,11.28268,3.2040732,5.7124376
bagnet33,1,628,NaN,elephant,bottle,16-3-10,0628_eid_dnn_16-3-10_bottle_10_n02823428_12643.png,n02823428_12643.png,0.0,-1.3862264,4.7621813,-4.347581
bagnet33,1,629,NaN,keyboard,keyboard,1-3-10,0629_eid_dnn_1-3-10_keyboard_10_n04505470_1245.png,n04505470_1245.png,1.0,54.433422,15.658524,27.417994
bagnet33,1,630,NaN,elephant,car,16-3-10,0630_eid_dnn_16-3-10_car_10_n02814533_47325.png,n02814533_47325.png,0.0,-3.26847,6.2089825,-6.701571
bagnet33,1,631,NaN,elephant,car,32-3-10,0631_eid_dnn_32-3-10_car_10_n04285008_4331.png,n04285008_4331.png,0.0,-3.7283905,6.2138114,-7.030198
bagnet33,1,632,NaN,elephant,elephant,1-3-10,0632_eid_dnn_1-3-10_elephant_10_n02504013_2984.png,n02504013_2984.png,1.0,7.519739,6.278,0.8780423
bagnet33,1,633,NaN,bottle,cat,2-3-10,0633_eid_dnn_2-3-10_cat_10_n02124075_13278.png,n02124075_13278.png,0.0,0.35052124,3.3696446,-2.1348426
bagnet33,1,634,NaN,elephant,truck,16-3-10,0634_eid_dnn_16-3-10_truck_10_n04467665_8189.png,n04467665_8189.png,0.0,-2.089999,3.946118,-4.2681794
bagnet33,1,635,NaN,bottle,bottle,2-3-10,0635_eid_dnn_2-3-10_bottle_10_n02823428_13931.png,n02823428_13931.png,1.0,11.402475,5.5273027,4.1543746
bagnet33,1,636,NaN,cat,cat,128-3-10,0636_eid_dnn_128-3-10_cat_10_n02124075_12350.png,n02124075_12350.png,1.0,3.9112823,3.6710646,0.16985956
bagnet33,1,637,NaN,bear,elephant,16-3-10,0637_eid_dnn_16-3-10_elephant_10_n02504013_4590.png,n02504013_4590.png,0.0,3.043939,4.12019,-0.7610244
bagnet33,1,638,NaN,elephant,bird,32-3-10,0638_eid_dnn_32-3-10_bird_10_n01855672_6144.png,n01855672_6144.png,0.0,1.4194884,3.831044,-1.7052273
bagnet33,1,639,NaN,elephant,bear,128-3-10,0639_eid_dnn_128-3-10_bear_10_n02132136_15262.png,n02132136_15262.png,0.0,2.977026,3.4495888,-0.33415237
bagnet33,1,640,NaN,elephant,cat,2-3-10,0640_eid_dnn_2-3-10_cat_10_n02125311_15293.png,n02125311_15293.png,0.0,1.8461957,3.68934,-1.3032999
bagnet33,1,641,NaN,bottle,bicycle,4-3-10,0641_eid_dnn_4-3-10_bicycle_10_n02835271_1487.png,n02835271_1487.png,0.0,-0.32390636,4.228036,-3.2187095
bagnet33,1,642,NaN,dog,dog,4-3-10,0642_eid_dnn_4-3-10_dog_10_n02107574_5896.png,n02107574_5896.png,1.0,2.5756128,2.0430746,0.37656137
bagnet33,1,643,NaN,keyboard,keyboard,4-3-10,0643_eid_dnn_4-3-10_keyboard_10_n03085013_15365.png,n03085013_15365.png,1.0,10.16296,6.6555033,2.4801464
bagnet33,1,644,NaN,elephant,truck,32-3-10,0644_eid_dnn_32-3-10_truck_10_n04467665_67927.png,n04467665_67927.png,0.0,-2.4925075,2.591936,-3.5952446
bagnet33,1,645,NaN,keyboard,bottle,2-3-10,0645_eid_dnn_2-3-10_bottle_10_n04591713_3085.png,n04591713_3085.png,0.0,6.0544095,6.135926,-0.057640705
bagnet33,1,646,NaN,clock,clock,4-3-10,0646_eid_dnn_4-3-10_clock_10_n04548280_5096.png,n04548280_5096.png,1.0,4.698801,4.279444,0.29653007
bagnet33,1,647,NaN,elephant,cat,16-3-10,0647_eid_dnn_16-3-10_cat_10_n02123159_13611.png,n02123159_13611.png,0.0,2.0236359,4.1263394,-1.486836
bagnet33,1,648,NaN,elephant,oven,128-3-10,0648_eid_dnn_128-3-10_oven_10_n04111531_15568.png,n04111531_15568.png,0.0,0.473548,3.894081,-2.4186823
bagnet33,1,649,NaN,elephant,knife,32-3-10,0649_eid_dnn_32-3-10_knife_10_n03041632_8618.png,n03041632_8618.png,0.0,-1.2846057,4.2841187,-3.937683
bagnet33,1,650,NaN,bottle,oven,4-3-10,0650_eid_dnn_4-3-10_oven_10_n04111531_6445.png,n04111531_6445.png,0.0,4.351376,6.102307,-1.238095
bagnet33,1,651,NaN,knife,bicycle,128-3-10,0651_eid_dnn_128-3-10_bicycle_10_n03792782_70724.png,n03792782_70724.png,0.0,-1.6533234,3.090621,-3.3544753
bagnet33,1,652,NaN,elephant,knife,32-3-10,0652_eid_dnn_32-3-10_knife_10_n03041632_45326.png,n03041632_45326.png,0.0,2.0089076,4.692182,-1.8973616
bagnet33,1,653,NaN,elephant,oven,32-3-10,0653_eid_dnn_32-3-10_oven_10_n04111531_7134.png,n04111531_7134.png,0.0,2.2151735,7.543528,-3.767716
bagnet33,1,654,NaN,cat,keyboard,64-3-10,0654_eid_dnn_64-3-10_keyboard_10_n03085013_23828.png,n03085013_23828.png,0.0,-1.6681707,4.184999,-4.138816
bagnet33,1,655,NaN,bear,bear,2-3-10,0655_eid_dnn_2-3-10_bear_10_n02134084_7193.png,n02134084_7193.png,1.0,3.7950058,3.5982895,0.13909943
bagnet33,1,656,NaN,knife,clock,8-3-10,0656_eid_dnn_8-3-10_clock_10_n02708093_1431.png,n02708093_1431.png,0.0,0.6316116,2.4298682,-1.2715595
bagnet33,1,657,NaN,elephant,airplane,64-3-10,0657_eid_dnn_64-3-10_airplane_10_n02690373_4364.png,n02690373_4364.png,0.0,-2.6142607,2.95297,-3.9366267
bagnet33,1,658,NaN,elephant,bottle,64-3-10,0658_eid_dnn_64-3-10_bottle_10_n02823428_12997.png,n02823428_12997.png,0.0,-2.891192,4.050935,-4.908825
bagnet33,1,659,NaN,elephant,boat,8-3-10,0659_eid_dnn_8-3-10_boat_10_n02951358_9837.png,n02951358_9837.png,0.0,-2.2188704,4.2596035,-4.5809727
bagnet33,1,660,NaN,elephant,elephant,64-3-10,0660_eid_dnn_64-3-10_elephant_10_n02504013_7746.png,n02504013_7746.png,1.0,4.299312,3.0016062,0.91761667
bagnet33,1,661,NaN,elephant,cat,32-3-10,0661_eid_dnn_32-3-10_cat_10_n02123597_6548.png,n02123597_6548.png,0.0,2.9167979,4.3490148,-1.0127302
bagnet33,1,662,NaN,elephant,knife,32-3-10,0662_eid_dnn_32-3-10_knife_10_n03041632_30286.png,n03041632_30286.png,0.0,0.09323907,4.640873,-3.215663
bagnet33,1,663,NaN,knife,bear,16-3-10,0663_eid_dnn_16-3-10_bear_10_n02132136_33437.png,n02132136_33437.png,0.0,1.2361102,2.1733341,-0.6627174
bagnet33,1,664,NaN,cat,bear,2-3-10,0664_eid_dnn_2-3-10_bear_10_n02134084_14360.png,n02134084_14360.png,0.0,1.7250078,2.7978995,-0.758649
bagnet33,1,665,NaN,bear,bottle,32-3-10,0665_eid_dnn_32-3-10_bottle_10_n02823428_13280.png,n02823428_13280.png,0.0,-2.123108,4.845726,-4.9277096
bagnet33,1,666,NaN,elephant,boat,32-3-10,0666_eid_dnn_32-3-10_boat_10_n03344393_2142.png,n03344393_2142.png,0.0,-2.4967268,4.0558496,-4.633371
bagnet33,1,667,NaN,elephant,bottle,16-3-10,0667_eid_dnn_16-3-10_bottle_10_n04557648_9415.png,n04557648_9415.png,0.0,-2.165795,4.215901,-4.5125403
bagnet33,1,668,NaN,elephant,airplane,32-3-10,0668_eid_dnn_32-3-10_airplane_10_n02690373_2564.png,n02690373_2564.png,0.0,-2.0309558,2.3191366,-3.07598
bagnet33,1,669,NaN,elephant,dog,128-3-10,0669_eid_dnn_128-3-10_dog_10_n02095889_1087.png,n02095889_1087.png,0.0,3.313408,4.5005283,-0.8394209
bagnet33,1,670,NaN,oven,dog,2-3-10,0670_eid_dnn_2-3-10_dog_10_n02092339_3615.png,n02092339_3615.png,0.0,2.13743,6.960982,-3.4107664
bagnet33,1,671,NaN,oven,truck,2-3-10,0671_eid_dnn_2-3-10_truck_10_n03417042_2978.png,n03417042_2978.png,0.0,1.6722287,6.083437,-3.1191952
bagnet33,1,672,NaN,elephant,bottle,32-3-10,0672_eid_dnn_32-3-10_bottle_10_n04557648_3768.png,n04557648_3768.png,0.0,-0.3078203,4.32658,-3.277016
bagnet33,1,673,NaN,elephant,boat,64-3-10,0673_eid_dnn_64-3-10_boat_10_n04273569_5901.png,n04273569_5901.png,0.0,-2.356683,3.414186,-4.080621
bagnet33,1,674,NaN,elephant,car,8-3-10,0674_eid_dnn_8-3-10_car_10_n02814533_3573.png,n02814533_3573.png,0.0,-0.43216753,3.4930096,-2.7755194
bagnet33,1,675,NaN,truck,truck,4-3-10,0675_eid_dnn_4-3-10_truck_10_n04467665_1840.png,n04467665_1840.png,1.0,3.9366045,2.5528376,0.978471
bagnet33,1,676,NaN,knife,bird,8-3-10,0676_eid_dnn_8-3-10_bird_10_n02028035_7406.png,n02028035_7406.png,0.0,0.08964124,1.7151495,-1.149408
bagnet33,1,677,NaN,knife,clock,16-3-10,0677_eid_dnn_16-3-10_clock_10_n04548280_575.png,n04548280_575.png,0.0,-1.0249861,2.5478177,-2.526354
bagnet33,1,678,NaN,bottle,bottle,1-3-10,0678_eid_dnn_1-3-10_bottle_10_n04560804_9169.png,n04560804_9169.png,1.0,12.479836,3.7651176,6.1622367
bagnet33,1,679,NaN,elephant,cat,2-3-10,0679_eid_dnn_2-3-10_cat_10_n02125311_22949.png,n02125311_22949.png,0.0,0.17625342,1.2367526,-0.74988616
bagnet33,1,680,NaN,elephant,elephant,8-3-10,0680_eid_dnn_8-3-10_elephant_10_n02504013_848.png,n02504013_848.png,1.0,5.1600914,2.9565082,1.5581686
bagnet33,1,681,NaN,bear,bicycle,16-3-10,0681_eid_dnn_16-3-10_bicycle_10_n02835271_1974.png,n02835271_1974.png,0.0,-0.94931424,4.04805,-3.53367
bagnet33,1,682,NaN,knife,oven,4-3-10,0682_eid_dnn_4-3-10_oven_10_n04111531_6217.png,n04111531_6217.png,0.0,0.8371336,3.949865,-2.2010336
bagnet33,1,683,NaN,elephant,elephant,2-3-10,0683_eid_dnn_2-3-10_elephant_10_n02504458_5882.png,n02504458_5882.png,1.0,4.7319393,3.3118722,1.0041391
bagnet33,1,684,NaN,elephant,bird,1-3-10,0684_eid_dnn_1-3-10_bird_10_n02011460_6726.png,n02011460_6726.png,0.0,2.9866507,2.995719,-0.0064122216
bagnet33,1,685,NaN,elephant,bear,128-3-10,0685_eid_dnn_128-3-10_bear_10_n02133161_13089.png,n02133161_13089.png,0.0,4.3630133,4.4544306,-0.0646418
bagnet33,1,686,NaN,elephant,bird,32-3-10,0686_eid_dnn_32-3-10_bird_10_n01795545_17639.png,n01795545_17639.png,0.0,0.7554461,3.213185,-1.7378838
bagnet33,1,687,NaN,elephant,car,128-3-10,0687_eid_dnn_128-3-10_car_10_n02814533_83588.png,n02814533_83588.png,0.0,-4.2835994,3.7112741,-5.653229
bagnet33,1,688,NaN,cat,oven,16-3-10,0688_eid_dnn_16-3-10_oven_10_n04111531_10064.png,n04111531_10064.png,0.0,-0.82937515,2.345509,-2.2449822
bagnet33,1,689,NaN,dog,dog,2-3-10,0689_eid_dnn_2-3-10_dog_10_n02113712_5246.png,n02113712_5246.png,1.0,2.7842114,2.5205991,0.18640202
bagnet33,1,690,NaN,cat,cat,16-3-10,0690_eid_dnn_16-3-10_cat_10_n02125311_46738.png,n02125311_46738.png,1.0,3.9668615,3.7539713,0.15053608
bagnet33,1,691,NaN,elephant,dog,1-3-10,0691_eid_dnn_1-3-10_dog_10_n02100236_9311.png,n02100236_9311.png,0.0,3.9801915,4.0067387,-0.0187717
bagnet33,1,692,NaN,elephant,elephant,128-3-10,0692_eid_dnn_128-3-10_elephant_10_n02504458_5844.png,n02504458_5844.png,1.0,3.469048,3.0194645,0.31790358
bagnet33,1,693,NaN,cat,bear,32-3-10,0693_eid_dnn_32-3-10_bear_10_n02132136_3378.png,n02132136_3378.png,0.0,1.974045,4.4009824,-1.7161039
bagnet33,1,694,NaN,truck,truck,1-3-10,0694_eid_dnn_1-3-10_truck_10_n03417042_1263.png,n03417042_1263.png,1.0,7.1630163,4.882812,1.612348
bagnet33,1,695,NaN,truck,truck,1-3-10,0695_eid_dnn_1-3-10_truck_10_n03417042_19596.png,n03417042_19596.png,1.0,13.796574,6.1500964,5.406876
bagnet33,1,696,NaN,keyboard,keyboard,1-3-10,0696_eid_dnn_1-3-10_keyboard_10_n04505470_1351.png,n04505470_1351.png,1.0,26.420906,12.857361,9.590875
bagnet33,1,697,NaN,bottle,oven,2-3-10,0697_eid_dnn_2-3-10_oven_10_n04111531_3902.png,n04111531_3902.png,0.0,0.45855618,3.9328177,-2.4566739
