subj,session,trial,rt,object_response,category,condition,imagename,filename,is_correct,targ_act,max_nontarg_act,decision_margin
alexnet2023_baseline_pgd,1,1,NaN,bear,car,64-3-10,0001_eid_dnn_64-3-10_car_10_n04285008_8113.png,n04285008_8113.png,0.0,-3.953474,2.2435505,-4.381958
alexnet2023_baseline_pgd,1,2,NaN,elephant,oven,8-3-10,0002_eid_dnn_8-3-10_oven_10_n04111531_11848.png,n04111531_11848.png,0.0,5.1126866,6.033911,-0.65140414
alexnet2023_baseline_pgd,1,3,NaN,elephant,truck,8-3-10,0003_eid_dnn_8-3-10_truck_10_n03417042_25458.png,n03417042_25458.png,0.0,-0.64702636,3.4721804,-2.9127192
alexnet2023_baseline_pgd,1,4,NaN,bear,chair,16-3-10,0004_eid_dnn_16-3-10_chair_10_n03376595_6208.png,n03376595_6208.png,0.0,-2.0929608,0.91861165,-2.1295033
alexnet2023_baseline_pgd,1,5,NaN,airplane,cat,32-3-10,0005_eid_dnn_32-3-10_cat_10_n02123045_12084.png,n02123045_12084.png,0.0,0.33755922,1.6931183,-0.95852506
alexnet2023_baseline_pgd,1,6,NaN,keyboard,keyboard,8-3-10,0006_eid_dnn_8-3-10_keyboard_10_n03085013_20884.png,n03085013_20884.png,1.0,3.79969,1.6043589,1.5523335
alexnet2023_baseline_pgd,1,7,NaN,airplane,airplane,4-3-10,0007_eid_dnn_4-3-10_airplane_10_n02690373_5992.png,n02690373_5992.png,1.0,12.389292,4.9420424,5.2660007
alexnet2023_baseline_pgd,1,8,NaN,elephant,bear,32-3-10,0008_eid_dnn_32-3-10_bear_10_n02132136_6641.png,n02132136_6641.png,0.0,0.5570075,2.7001407,-1.515424
alexnet2023_baseline_pgd,1,9,NaN,oven,oven,2-3-10,0009_eid_dnn_2-3-10_oven_10_n04111531_2797.png,n04111531_2797.png,1.0,7.2375107,0.7095161,4.615989
alexnet2023_baseline_pgd,1,10,NaN,airplane,airplane,2-3-10,0010_eid_dnn_2-3-10_airplane_10_n02690373_7457.png,n02690373_7457.png,1.0,20.828568,7.212424,9.628068
alexnet2023_baseline_pgd,1,11,NaN,elephant,truck,16-3-10,0011_eid_dnn_16-3-10_truck_10_n03796401_2751.png,n03796401_2751.png,0.0,-1.2565145,4.51851,-4.083559
alexnet2023_baseline_pgd,1,12,NaN,elephant,bear,2-3-10,0012_eid_dnn_2-3-10_bear_10_n02134418_860.png,n02134418_860.png,0.0,5.0825853,6.1079564,-0.7250469
alexnet2023_baseline_pgd,1,13,NaN,knife,knife,4-3-10,0013_eid_dnn_4-3-10_knife_10_n03041632_2058.png,n03041632_2058.png,1.0,9.519619,4.080889,3.8457627
alexnet2023_baseline_pgd,1,14,NaN,oven,airplane,32-3-10,0014_eid_dnn_32-3-10_airplane_10_n02690373_10510.png,n02690373_10510.png,0.0,2.4199615,2.4310594,-0.007847406
alexnet2023_baseline_pgd,1,15,NaN,elephant,keyboard,64-3-10,0015_eid_dnn_64-3-10_keyboard_10_n03085013_6313.png,n03085013_6313.png,0.0,-1.8409286,3.624338,-3.864527
alexnet2023_baseline_pgd,1,16,NaN,airplane,bicycle,4-3-10,0016_eid_dnn_4-3-10_bicycle_10_n02835271_6278.png,n02835271_6278.png,0.0,1.450159,5.5250316,-2.88137
alexnet2023_baseline_pgd,1,17,NaN,keyboard,keyboard,2-3-10,0017_eid_dnn_2-3-10_keyboard_10_n03085013_24192.png,n03085013_24192.png,1.0,15.637924,5.464204,7.193907
alexnet2023_baseline_pgd,1,18,NaN,car,car,2-3-10,0018_eid_dnn_2-3-10_car_10_n04285008_8255.png,n04285008_8255.png,1.0,16.212797,8.687025,5.3215246
alexnet2023_baseline_pgd,1,19,NaN,airplane,airplane,2-3-10,0019_eid_dnn_2-3-10_airplane_10_n02690373_4591.png,n02690373_4591.png,1.0,10.952406,4.703329,4.4187646
alexnet2023_baseline_pgd,1,20,NaN,airplane,airplane,4-3-10,0020_eid_dnn_4-3-10_airplane_10_n02690373_7075.png,n02690373_7075.png,1.0,9.68016,5.375298,3.0439968
alexnet2023_baseline_pgd,1,21,NaN,bicycle,bicycle,4-3-10,0021_eid_dnn_4-3-10_bicycle_10_n02835271_21464.png,n02835271_21464.png,1.0,4.120402,3.1141672,0.71151537
alexnet2023_baseline_pgd,1,22,NaN,oven,car,64-3-10,0022_eid_dnn_64-3-10_car_10_n03100240_362.png,n03100240_362.png,0.0,-2.6632059,1.8881793,-3.2183151
alexnet2023_baseline_pgd,1,23,NaN,elephant,truck,32-3-10,0023_eid_dnn_32-3-10_truck_10_n04467665_50927.png,n04467665_50927.png,0.0,-0.67351687,3.7586555,-3.1340191
alexnet2023_baseline_pgd,1,24,NaN,elephant,car,16-3-10,0024_eid_dnn_16-3-10_car_10_n04285008_3651.png,n04285008_3651.png,0.0,-1.6024208,4.1863236,-4.0932603
alexnet2023_baseline_pgd,1,25,NaN,bottle,bottle,8-3-10,0025_eid_dnn_8-3-10_bottle_10_n04557648_4974.png,n04557648_4974.png,1.0,3.5548587,2.4657934,0.77008545
alexnet2023_baseline_pgd,1,26,NaN,bird,bird,16-3-10,0026_eid_dnn_16-3-10_bird_10_n01537544_23499.png,n01537544_23499.png,1.0,2.791687,2.6669602,0.088195145
alexnet2023_baseline_pgd,1,27,NaN,boat,boat,1-3-10,0027_eid_dnn_1-3-10_boat_10_n04612504_11387.png,n04612504_11387.png,1.0,9.197029,4.2788363,3.4776876
alexnet2023_baseline_pgd,1,28,NaN,bottle,bottle,4-3-10,0028_eid_dnn_4-3-10_bottle_10_n03983396_4300.png,n03983396_4300.png,1.0,7.360047,2.2988136,3.5788326
alexnet2023_baseline_pgd,1,29,NaN,elephant,bottle,64-3-10,0029_eid_dnn_64-3-10_bottle_10_n04591713_6961.png,n04591713_6961.png,0.0,0.264544,1.7856457,-1.0755813
alexnet2023_baseline_pgd,1,30,NaN,cat,clock,128-3-10,0030_eid_dnn_128-3-10_clock_10_n02708093_3361.png,n02708093_3361.png,0.0,-0.08460754,3.139218,-2.279589
alexnet2023_baseline_pgd,1,31,NaN,elephant,truck,32-3-10,0031_eid_dnn_32-3-10_truck_10_n03417042_18374.png,n03417042_18374.png,0.0,-3.0418682,3.651884,-4.7331977
alexnet2023_baseline_pgd,1,32,NaN,airplane,knife,64-3-10,0032_eid_dnn_64-3-10_knife_10_n03041632_36280.png,n03041632_36280.png,0.0,-2.3260498,1.8362,-2.943155
alexnet2023_baseline_pgd,1,33,NaN,bird,bird,8-3-10,0033_eid_dnn_8-3-10_bird_10_n01614925_47.png,n01614925_47.png,1.0,2.8034365,2.7262673,0.054566853
alexnet2023_baseline_pgd,1,34,NaN,elephant,bicycle,8-3-10,0034_eid_dnn_8-3-10_bicycle_10_n02835271_20099.png,n02835271_20099.png,0.0,1.9868528,3.3722935,-0.97965455
alexnet2023_baseline_pgd,1,35,NaN,bear,bear,4-3-10,0035_eid_dnn_4-3-10_bear_10_n02134084_12070.png,n02134084_12070.png,1.0,4.397212,4.333538,0.045024298
alexnet2023_baseline_pgd,1,36,NaN,bottle,bottle,8-3-10,0036_eid_dnn_8-3-10_bottle_10_n02823428_8525.png,n02823428_8525.png,1.0,4.341332,2.376556,1.3893064
alexnet2023_baseline_pgd,1,37,NaN,oven,truck,32-3-10,0037_eid_dnn_32-3-10_truck_10_n04467665_37953.png,n04467665_37953.png,0.0,-1.8023204,2.1671045,-2.8068073
alexnet2023_baseline_pgd,1,38,NaN,dog,oven,128-3-10,0038_eid_dnn_128-3-10_oven_10_n04111531_4868.png,n04111531_4868.png,0.0,0.81942976,1.0732765,-0.17949677
alexnet2023_baseline_pgd,1,39,NaN,airplane,boat,32-3-10,0039_eid_dnn_32-3-10_boat_10_n03662601_19840.png,n03662601_19840.png,0.0,-0.6064994,2.4993436,-2.1961627
alexnet2023_baseline_pgd,1,40,NaN,elephant,truck,8-3-10,0040_eid_dnn_8-3-10_truck_10_n04467665_9331.png,n04467665_9331.png,0.0,1.7410617,3.1835198,-1.019972
alexnet2023_baseline_pgd,1,41,NaN,oven,dog,64-3-10,0041_eid_dnn_64-3-10_dog_10_n02111277_16090.png,n02111277_16090.png,0.0,0.32962498,2.4989164,-1.5339208
alexnet2023_baseline_pgd,1,42,NaN,oven,bottle,4-3-10,0042_eid_dnn_4-3-10_bottle_10_n02823428_6731.png,n02823428_6731.png,0.0,4.6158366,6.2418904,-1.1497937
alexnet2023_baseline_pgd,1,43,NaN,elephant,elephant,8-3-10,0043_eid_dnn_8-3-10_elephant_10_n02504013_8930.png,n02504013_8930.png,1.0,6.430856,3.391354,2.1492527
alexnet2023_baseline_pgd,1,44,NaN,car,car,4-3-10,0044_eid_dnn_4-3-10_car_10_n03100240_13673.png,n03100240_13673.png,1.0,8.278184,5.005927,2.3138351
alexnet2023_baseline_pgd,1,45,NaN,clock,bird,128-3-10,0045_eid_dnn_128-3-10_bird_10_n02018207_6819.png,n02018207_6819.png,0.0,0.3724818,1.4996495,-0.79702795
alexnet2023_baseline_pgd,1,46,NaN,elephant,elephant,4-3-10,0046_eid_dnn_4-3-10_elephant_10_n02504013_6065.png,n02504013_6065.png,1.0,8.927457,3.7220027,3.680812
alexnet2023_baseline_pgd,1,47,NaN,cat,cat,1-3-10,0047_eid_dnn_1-3-10_cat_10_n02123394_384.png,n02123394_384.png,1.0,4.9659863,3.806587,0.8198191
alexnet2023_baseline_pgd,1,48,NaN,elephant,bicycle,16-3-10,0048_eid_dnn_16-3-10_bicycle_10_n02835271_12608.png,n02835271_12608.png,0.0,1.6122096,3.027008,-1.0004137
alexnet2023_baseline_pgd,1,49,NaN,bicycle,chair,2-3-10,0049_eid_dnn_2-3-10_chair_10_n03376595_13949.png,n03376595_13949.png,0.0,2.027842,3.837477,-1.2796052
alexnet2023_baseline_pgd,1,50,NaN,bear,airplane,128-3-10,0050_eid_dnn_128-3-10_airplane_10_n02690373_3561.png,n02690373_3561.png,0.0,-0.81967413,1.2530183,-1.4656149
alexnet2023_baseline_pgd,1,51,NaN,elephant,bicycle,32-3-10,0051_eid_dnn_32-3-10_bicycle_10_n02835271_8203.png,n02835271_8203.png,0.0,-0.7001708,1.9892087,-1.9016784
alexnet2023_baseline_pgd,1,52,NaN,bicycle,bicycle,2-3-10,0052_eid_dnn_2-3-10_bicycle_10_n03792782_5665.png,n03792782_5665.png,1.0,12.036512,2.1645448,6.980535
alexnet2023_baseline_pgd,1,53,NaN,airplane,bicycle,128-3-10,0053_eid_dnn_128-3-10_bicycle_10_n02835271_15028.png,n02835271_15028.png,0.0,-0.61666435,1.4429281,-1.4563519
alexnet2023_baseline_pgd,1,54,NaN,clock,clock,1-3-10,0054_eid_dnn_1-3-10_clock_10_n04548280_3318.png,n04548280_3318.png,1.0,11.790462,4.474938,5.1728563
alexnet2023_baseline_pgd,1,55,NaN,clock,cat,128-3-10,0055_eid_dnn_128-3-10_cat_10_n02123045_8784.png,n02123045_8784.png,0.0,-0.5320057,0.29586032,-0.58538973
alexnet2023_baseline_pgd,1,56,NaN,oven,knife,128-3-10,0056_eid_dnn_128-3-10_knife_10_n03041632_3247.png,n03041632_3247.png,0.0,-1.1906778,0.97030604,-1.5280464
alexnet2023_baseline_pgd,1,57,NaN,cat,dog,8-3-10,0057_eid_dnn_8-3-10_dog_10_n02110185_11414.png,n02110185_11414.png,0.0,2.8647182,3.478276,-0.4338509
alexnet2023_baseline_pgd,1,58,NaN,elephant,dog,32-3-10,0058_eid_dnn_32-3-10_dog_10_n02113712_2715.png,n02113712_2715.png,0.0,1.1824982,3.6699102,-1.758866
alexnet2023_baseline_pgd,1,59,NaN,bird,elephant,2-3-10,0059_eid_dnn_2-3-10_elephant_10_n02504458_1210.png,n02504458_1210.png,0.0,2.273887,3.9949415,-1.2169694
alexnet2023_baseline_pgd,1,60,NaN,elephant,car,16-3-10,0060_eid_dnn_16-3-10_car_10_n02814533_32337.png,n02814533_32337.png,0.0,-1.400215,6.3196964,-5.4588017
alexnet2023_baseline_pgd,1,61,NaN,car,car,4-3-10,0061_eid_dnn_4-3-10_car_10_n02814533_55326.png,n02814533_55326.png,1.0,7.9527335,7.7867613,0.11736009
alexnet2023_baseline_pgd,1,62,NaN,bottle,knife,64-3-10,0062_eid_dnn_64-3-10_knife_10_n03041632_32774.png,n03041632_32774.png,0.0,-3.035349,1.376428,-3.1195974
alexnet2023_baseline_pgd,1,63,NaN,elephant,bicycle,8-3-10,0063_eid_dnn_8-3-10_bicycle_10_n02835271_11921.png,n02835271_11921.png,0.0,-0.47803003,5.393347,-4.1516905
alexnet2023_baseline_pgd,1,64,NaN,oven,chair,32-3-10,0064_eid_dnn_32-3-10_chair_10_n03376595_6115.png,n03376595_6115.png,0.0,0.31708282,2.6837416,-1.6734804
alexnet2023_baseline_pgd,1,65,NaN,elephant,bear,16-3-10,0065_eid_dnn_16-3-10_bear_10_n02133161_79.png,n02133161_79.png,0.0,1.1115248,2.5626287,-1.0260855
alexnet2023_baseline_pgd,1,66,NaN,boat,boat,1-3-10,0066_eid_dnn_1-3-10_boat_10_n03662601_34796.png,n03662601_34796.png,1.0,12.070079,5.6794653,4.518846
alexnet2023_baseline_pgd,1,67,NaN,bird,bird,4-3-10,0067_eid_dnn_4-3-10_bird_10_n02051845_8976.png,n02051845_8976.png,1.0,4.1210175,2.6978064,1.0063622
alexnet2023_baseline_pgd,1,68,NaN,boat,boat,4-3-10,0068_eid_dnn_4-3-10_boat_10_n03344393_7362.png,n03344393_7362.png,1.0,5.565585,5.5506005,0.0105957175
alexnet2023_baseline_pgd,1,69,NaN,elephant,car,32-3-10,0069_eid_dnn_32-3-10_car_10_n02814533_34289.png,n02814533_34289.png,0.0,-0.98399854,1.9140062,-2.0491989
alexnet2023_baseline_pgd,1,70,NaN,oven,keyboard,16-3-10,0070_eid_dnn_16-3-10_keyboard_10_n03085013_2166.png,n03085013_2166.png,0.0,-2.792971,3.6329358,-4.5438023
alexnet2023_baseline_pgd,1,71,NaN,bear,bear,2-3-10,0071_eid_dnn_2-3-10_bear_10_n02133161_10167.png,n02133161_10167.png,1.0,11.788017,11.673769,0.08078573
alexnet2023_baseline_pgd,1,72,NaN,bird,keyboard,16-3-10,0072_eid_dnn_16-3-10_keyboard_10_n04505470_430.png,n04505470_430.png,0.0,0.3846472,1.6367987,-0.8854048
alexnet2023_baseline_pgd,1,73,NaN,bird,boat,128-3-10,0073_eid_dnn_128-3-10_boat_10_n03662601_17001.png,n03662601_17001.png,0.0,-3.5234935,2.1750476,-4.029477
alexnet2023_baseline_pgd,1,74,NaN,airplane,bear,128-3-10,0074_eid_dnn_128-3-10_bear_10_n02133161_5157.png,n02133161_5157.png,0.0,-0.94922936,2.5468535,-2.4721038
alexnet2023_baseline_pgd,1,75,NaN,bicycle,boat,2-3-10,0075_eid_dnn_2-3-10_boat_10_n02951358_17870.png,n02951358_17870.png,0.0,3.1397276,3.1699762,-0.02138902
alexnet2023_baseline_pgd,1,76,NaN,airplane,cat,64-3-10,0076_eid_dnn_64-3-10_cat_10_n02123159_1102.png,n02123159_1102.png,0.0,-0.16913623,1.2036405,-0.9706998
alexnet2023_baseline_pgd,1,77,NaN,airplane,cat,32-3-10,0077_eid_dnn_32-3-10_cat_10_n02123045_4252.png,n02123045_4252.png,0.0,0.432816,2.127219,-1.1981238
alexnet2023_baseline_pgd,1,78,NaN,keyboard,keyboard,2-3-10,0078_eid_dnn_2-3-10_keyboard_10_n04505470_4294.png,n04505470_4294.png,1.0,8.064085,3.184592,3.4503224
alexnet2023_baseline_pgd,1,79,NaN,truck,truck,2-3-10,0079_eid_dnn_2-3-10_truck_10_n04467665_1101.png,n04467665_1101.png,1.0,11.844051,8.786687,2.161883
alexnet2023_baseline_pgd,1,80,NaN,elephant,airplane,64-3-10,0080_eid_dnn_64-3-10_airplane_10_n02690373_2078.png,n02690373_2078.png,0.0,1.6630564,2.551436,-0.62817925
alexnet2023_baseline_pgd,1,81,NaN,bear,boat,64-3-10,0081_eid_dnn_64-3-10_boat_10_n04612504_5535.png,n04612504_5535.png,0.0,-1.4631488,2.3151333,-2.671649
alexnet2023_baseline_pgd,1,82,NaN,oven,cat,16-3-10,0082_eid_dnn_16-3-10_cat_10_n02125311_15099.png,n02125311_15099.png,0.0,-0.49904355,3.7544103,-3.007646
alexnet2023_baseline_pgd,1,83,NaN,elephant,airplane,64-3-10,0083_eid_dnn_64-3-10_airplane_10_n02690373_4671.png,n02690373_4671.png,0.0,0.73670965,0.91376233,-0.12519515
alexnet2023_baseline_pgd,1,84,NaN,truck,truck,1-3-10,0084_eid_dnn_1-3-10_truck_10_n03417042_9062.png,n03417042_9062.png,1.0,10.498819,6.397741,2.8999004
alexnet2023_baseline_pgd,1,85,NaN,airplane,cat,4-3-10,0085_eid_dnn_4-3-10_cat_10_n02123394_283.png,n02123394_283.png,0.0,2.5570886,3.187871,-0.4460305
alexnet2023_baseline_pgd,1,86,NaN,car,car,1-3-10,0086_eid_dnn_1-3-10_car_10_n02814533_3375.png,n02814533_3375.png,1.0,19.004326,10.041752,6.3374968
alexnet2023_baseline_pgd,1,87,NaN,cat,cat,2-3-10,0087_eid_dnn_2-3-10_cat_10_n02124075_9706.png,n02124075_9706.png,1.0,5.6729527,3.864956,1.2784468
alexnet2023_baseline_pgd,1,88,NaN,car,car,2-3-10,0088_eid_dnn_2-3-10_car_10_n04285008_10563.png,n04285008_10563.png,1.0,11.29478,3.337923,5.6263475
alexnet2023_baseline_pgd,1,89,NaN,oven,clock,64-3-10,0089_eid_dnn_64-3-10_clock_10_n03196217_3283.png,n03196217_3283.png,0.0,-1.4494667,1.8577734,-2.3385718
alexnet2023_baseline_pgd,1,90,NaN,cat,oven,128-3-10,0090_eid_dnn_128-3-10_oven_10_n04111531_21120.png,n04111531_21120.png,0.0,0.08814277,2.5846999,-1.7653325
alexnet2023_baseline_pgd,1,91,NaN,bird,bird,1-3-10,0091_eid_dnn_1-3-10_bird_10_n01824575_6186.png,n01824575_6186.png,1.0,7.799131,1.0023227,4.8060694
alexnet2023_baseline_pgd,1,92,NaN,dog,dog,4-3-10,0092_eid_dnn_4-3-10_dog_10_n02102318_11155.png,n02102318_11155.png,1.0,7.693267,3.7405572,2.794988
alexnet2023_baseline_pgd,1,93,NaN,bear,clock,16-3-10,0093_eid_dnn_16-3-10_clock_10_n04548280_2283.png,n04548280_2283.png,0.0,-1.1909043,2.4884605,-2.6017036
alexnet2023_baseline_pgd,1,94,NaN,bottle,chair,128-3-10,0094_eid_dnn_128-3-10_chair_10_n03376595_18787.png,n03376595_18787.png,0.0,-2.0616305,2.1292052,-2.9633687
alexnet2023_baseline_pgd,1,95,NaN,elephant,keyboard,8-3-10,0095_eid_dnn_8-3-10_keyboard_10_n04505470_1903.png,n04505470_1903.png,0.0,3.5277865,3.5923872,-0.0456796
alexnet2023_baseline_pgd,1,96,NaN,oven,clock,16-3-10,0096_eid_dnn_16-3-10_clock_10_n03196217_6185.png,n03196217_6185.png,0.0,-2.0594304,4.965163,-4.967138
alexnet2023_baseline_pgd,1,97,NaN,clock,clock,2-3-10,0097_eid_dnn_2-3-10_clock_10_n03196217_10424.png,n03196217_10424.png,1.0,7.9422746,5.2729654,1.8874866
alexnet2023_baseline_pgd,1,98,NaN,knife,knife,2-3-10,0098_eid_dnn_2-3-10_knife_10_n03041632_43436.png,n03041632_43436.png,1.0,6.8915596,3.1729114,2.6294813
alexnet2023_baseline_pgd,1,99,NaN,elephant,dog,1-3-10,0099_eid_dnn_1-3-10_dog_10_n02093647_5955.png,n02093647_5955.png,0.0,1.2138964,4.9295855,-2.627389
alexnet2023_baseline_pgd,1,100,NaN,airplane,boat,32-3-10,0100_eid_dnn_32-3-10_boat_10_n03662601_5423.png,n03662601_5423.png,0.0,-0.3707214,1.8448501,-1.5666456
alexnet2023_baseline_pgd,1,101,NaN,cat,keyboard,128-3-10,0101_eid_dnn_128-3-10_keyboard_10_n04505470_9457.png,n04505470_9457.png,0.0,-1.5209719,2.058873,-2.5313327
alexnet2023_baseline_pgd,1,102,NaN,bear,knife,128-3-10,0102_eid_dnn_128-3-10_knife_10_n03041632_38535.png,n03041632_38535.png,0.0,-0.9538809,0.946412,-1.34371
alexnet2023_baseline_pgd,1,103,NaN,elephant,elephant,8-3-10,0103_eid_dnn_8-3-10_elephant_10_n02504458_8141.png,n02504458_8141.png,1.0,7.6493263,4.152345,2.4727392
alexnet2023_baseline_pgd,1,104,NaN,airplane,airplane,4-3-10,0104_eid_dnn_4-3-10_airplane_10_n02690373_9086.png,n02690373_9086.png,1.0,10.82028,4.333635,4.586751
alexnet2023_baseline_pgd,1,105,NaN,elephant,bicycle,16-3-10,0105_eid_dnn_16-3-10_bicycle_10_n03792782_19116.png,n03792782_19116.png,0.0,0.7448219,2.3603168,-1.1423274
alexnet2023_baseline_pgd,1,106,NaN,elephant,elephant,4-3-10,0106_eid_dnn_4-3-10_elephant_10_n02504458_2343.png,n02504458_2343.png,1.0,11.17024,4.138817,4.971967
alexnet2023_baseline_pgd,1,107,NaN,elephant,airplane,16-3-10,0107_eid_dnn_16-3-10_airplane_10_n02690373_7093.png,n02690373_7093.png,0.0,-0.24490972,3.7197964,-2.8034706
alexnet2023_baseline_pgd,1,108,NaN,elephant,car,32-3-10,0108_eid_dnn_32-3-10_car_10_n03100240_7935.png,n03100240_7935.png,0.0,-1.2784868,3.2727408,-3.218204
alexnet2023_baseline_pgd,1,109,NaN,elephant,airplane,16-3-10,0109_eid_dnn_16-3-10_airplane_10_n02690373_8611.png,n02690373_8611.png,0.0,-0.05437027,4.479005,-3.2055805
alexnet2023_baseline_pgd,1,110,NaN,bear,bear,2-3-10,0110_eid_dnn_2-3-10_bear_10_n02133161_7332.png,n02133161_7332.png,1.0,9.777539,5.477193,3.0408041
alexnet2023_baseline_pgd,1,111,NaN,car,car,2-3-10,0111_eid_dnn_2-3-10_car_10_n03100240_9387.png,n03100240_9387.png,1.0,14.207616,8.578748,3.9802108
alexnet2023_baseline_pgd,1,112,NaN,cat,cat,4-3-10,0112_eid_dnn_4-3-10_cat_10_n02124075_521.png,n02124075_521.png,1.0,8.448138,4.13405,3.0505211
alexnet2023_baseline_pgd,1,113,NaN,oven,bottle,128-3-10,0113_eid_dnn_128-3-10_bottle_10_n04560804_3746.png,n04560804_3746.png,0.0,-0.34755704,0.7942428,-0.8073744
alexnet2023_baseline_pgd,1,114,NaN,bear,elephant,16-3-10,0114_eid_dnn_16-3-10_elephant_10_n02504458_1127.png,n02504458_1127.png,0.0,2.8067703,3.6473613,-0.5943876
alexnet2023_baseline_pgd,1,115,NaN,knife,knife,8-3-10,0115_eid_dnn_8-3-10_knife_10_n03041632_14132.png,n03041632_14132.png,1.0,5.165449,1.6182432,2.5082533
alexnet2023_baseline_pgd,1,116,NaN,oven,oven,1-3-10,0116_eid_dnn_1-3-10_oven_10_n04111531_18916.png,n04111531_18916.png,1.0,5.943756,2.5803685,2.3782742
alexnet2023_baseline_pgd,1,117,NaN,oven,oven,1-3-10,0117_eid_dnn_1-3-10_oven_10_n04111531_19274.png,n04111531_19274.png,1.0,8.135713,1.1529562,4.937555
alexnet2023_baseline_pgd,1,118,NaN,bird,bird,2-3-10,0118_eid_dnn_2-3-10_bird_10_n01843383_277.png,n01843383_277.png,1.0,4.7494073,1.9899964,1.9511982
alexnet2023_baseline_pgd,1,119,NaN,airplane,boat,64-3-10,0119_eid_dnn_64-3-10_boat_10_n03344393_6799.png,n03344393_6799.png,0.0,0.39311725,2.3354228,-1.3734175
alexnet2023_baseline_pgd,1,120,NaN,dog,dog,2-3-10,0120_eid_dnn_2-3-10_dog_10_n02093428_16887.png,n02093428_16887.png,1.0,5.123096,3.1972563,1.3617743
alexnet2023_baseline_pgd,1,121,NaN,knife,elephant,64-3-10,0121_eid_dnn_64-3-10_elephant_10_n02504458_6163.png,n02504458_6163.png,0.0,0.6212263,1.207212,-0.41435444
alexnet2023_baseline_pgd,1,122,NaN,clock,bottle,64-3-10,0122_eid_dnn_64-3-10_bottle_10_n04591713_2826.png,n04591713_2826.png,0.0,-0.9979393,0.78614134,-1.2615355
alexnet2023_baseline_pgd,1,123,NaN,clock,bottle,64-3-10,0123_eid_dnn_64-3-10_bottle_10_n04557648_3598.png,n04557648_3598.png,0.0,-0.43234363,0.44292688,-0.6189097
alexnet2023_baseline_pgd,1,124,NaN,bicycle,truck,8-3-10,0124_eid_dnn_8-3-10_truck_10_n04467665_80629.png,n04467665_80629.png,0.0,1.2775857,3.7179291,-1.7255834
alexnet2023_baseline_pgd,1,125,NaN,elephant,bear,4-3-10,0125_eid_dnn_4-3-10_bear_10_n02134084_6869.png,n02134084_6869.png,0.0,5.0672235,5.5522785,-0.34298566
alexnet2023_baseline_pgd,1,126,NaN,elephant,bird,1-3-10,0126_eid_dnn_1-3-10_bird_10_n01820546_4457.png,n01820546_4457.png,0.0,4.9764113,5.243932,-0.18916552
alexnet2023_baseline_pgd,1,127,NaN,cat,clock,64-3-10,0127_eid_dnn_64-3-10_clock_10_n04548280_7565.png,n04548280_7565.png,0.0,-0.47625747,1.3394467,-1.2838967
alexnet2023_baseline_pgd,1,128,NaN,elephant,elephant,16-3-10,0128_eid_dnn_16-3-10_elephant_10_n02504458_98.png,n02504458_98.png,1.0,3.849153,2.554121,0.91572595
alexnet2023_baseline_pgd,1,129,NaN,airplane,bicycle,64-3-10,0129_eid_dnn_64-3-10_bicycle_10_n03792782_7143.png,n03792782_7143.png,0.0,-0.58752304,1.5413648,-1.5053511
alexnet2023_baseline_pgd,1,130,NaN,elephant,dog,16-3-10,0130_eid_dnn_16-3-10_dog_10_n02096051_5524.png,n02096051_5524.png,0.0,1.6230222,2.728948,-0.78200775
alexnet2023_baseline_pgd,1,131,NaN,elephant,cat,16-3-10,0131_eid_dnn_16-3-10_cat_10_n02123045_9465.png,n02123045_9465.png,0.0,4.324451,5.2081447,-0.62486583
alexnet2023_baseline_pgd,1,132,NaN,airplane,cat,64-3-10,0132_eid_dnn_64-3-10_cat_10_n02123159_9450.png,n02123159_9450.png,0.0,-1.0703868,1.805639,-2.0336573
alexnet2023_baseline_pgd,1,133,NaN,knife,clock,4-3-10,0133_eid_dnn_4-3-10_clock_10_n02708093_8204.png,n02708093_8204.png,0.0,3.924204,4.7112083,-0.556496
alexnet2023_baseline_pgd,1,134,NaN,elephant,airplane,32-3-10,0134_eid_dnn_32-3-10_airplane_10_n02690373_2619.png,n02690373_2619.png,0.0,0.8995649,2.3420274,-1.019975
alexnet2023_baseline_pgd,1,135,NaN,car,car,2-3-10,0135_eid_dnn_2-3-10_car_10_n04285008_11295.png,n04285008_11295.png,1.0,12.233876,5.272052,4.9227533
alexnet2023_baseline_pgd,1,136,NaN,bear,bear,8-3-10,0136_eid_dnn_8-3-10_bear_10_n02133161_15481.png,n02133161_15481.png,1.0,6.053911,5.3050246,0.5295428
alexnet2023_baseline_pgd,1,137,NaN,airplane,truck,64-3-10,0137_eid_dnn_64-3-10_truck_10_n03417042_8139.png,n03417042_8139.png,0.0,-1.6715142,2.9646516,-3.2782643
alexnet2023_baseline_pgd,1,138,NaN,dog,bottle,16-3-10,0138_eid_dnn_16-3-10_bottle_10_n04557648_4490.png,n04557648_4490.png,0.0,0.59065276,2.4004948,-1.2797517
alexnet2023_baseline_pgd,1,139,NaN,clock,clock,1-3-10,0139_eid_dnn_1-3-10_clock_10_n03196217_5399.png,n03196217_5399.png,1.0,6.259767,4.299336,1.3862342
alexnet2023_baseline_pgd,1,140,NaN,boat,boat,1-3-10,0140_eid_dnn_1-3-10_boat_10_n04273569_4136.png,n04273569_4136.png,1.0,6.4457426,4.7454977,1.2022548
alexnet2023_baseline_pgd,1,141,NaN,clock,clock,4-3-10,0141_eid_dnn_4-3-10_clock_10_n04548280_2127.png,n04548280_2127.png,1.0,7.1000953,2.8159509,3.0293477
alexnet2023_baseline_pgd,1,142,NaN,boat,boat,2-3-10,0142_eid_dnn_2-3-10_boat_10_n03344393_10038.png,n03344393_10038.png,1.0,7.928575,5.758937,1.5341659
alexnet2023_baseline_pgd,1,143,NaN,elephant,elephant,2-3-10,0143_eid_dnn_2-3-10_elephant_10_n02504013_10793.png,n02504013_10793.png,1.0,25.843113,9.7985115,11.345246
alexnet2023_baseline_pgd,1,144,NaN,cat,oven,128-3-10,0144_eid_dnn_128-3-10_oven_10_n04111531_6590.png,n04111531_6590.png,0.0,0.39540118,2.3111885,-1.3546661
alexnet2023_baseline_pgd,1,145,NaN,bear,keyboard,16-3-10,0145_eid_dnn_16-3-10_keyboard_10_n03085013_10984.png,n03085013_10984.png,0.0,-3.6643753,3.2522109,-4.8907647
alexnet2023_baseline_pgd,1,146,NaN,bicycle,bicycle,2-3-10,0146_eid_dnn_2-3-10_bicycle_10_n02835271_14879.png,n02835271_14879.png,1.0,5.0049686,2.740681,1.6010932
alexnet2023_baseline_pgd,1,147,NaN,bear,knife,64-3-10,0147_eid_dnn_64-3-10_knife_10_n03041632_22241.png,n03041632_22241.png,0.0,-0.12857383,1.0689688,-0.84679055
alexnet2023_baseline_pgd,1,148,NaN,oven,oven,64-3-10,0148_eid_dnn_64-3-10_oven_10_n04111531_892.png,n04111531_892.png,1.0,1.9361398,1.6645788,0.19202265
alexnet2023_baseline_pgd,1,149,NaN,cat,bear,64-3-10,0149_eid_dnn_64-3-10_bear_10_n02134418_14850.png,n02134418_14850.png,0.0,0.9786271,1.5367355,-0.39464226
alexnet2023_baseline_pgd,1,150,NaN,cat,knife,64-3-10,0150_eid_dnn_64-3-10_knife_10_n03041632_48071.png,n03041632_48071.png,0.0,-2.0175893,1.3537487,-2.3838959
alexnet2023_baseline_pgd,1,151,NaN,bear,clock,16-3-10,0151_eid_dnn_16-3-10_clock_10_n04548280_64.png,n04548280_64.png,0.0,-2.12692,3.317525,-3.8498037
alexnet2023_baseline_pgd,1,152,NaN,bird,truck,64-3-10,0152_eid_dnn_64-3-10_truck_10_n03796401_6285.png,n03796401_6285.png,0.0,-2.1332932,1.1501132,-2.321719
alexnet2023_baseline_pgd,1,153,NaN,airplane,airplane,4-3-10,0153_eid_dnn_4-3-10_airplane_10_n02690373_6682.png,n02690373_6682.png,1.0,10.685472,3.2620268,5.2491684
alexnet2023_baseline_pgd,1,154,NaN,cat,knife,64-3-10,0154_eid_dnn_64-3-10_knife_10_n03041632_17285.png,n03041632_17285.png,0.0,-0.78144747,1.5613381,-1.6565996
alexnet2023_baseline_pgd,1,155,NaN,boat,boat,2-3-10,0155_eid_dnn_2-3-10_boat_10_n02951358_8184.png,n02951358_8184.png,1.0,8.6163025,5.255755,2.376266
alexnet2023_baseline_pgd,1,156,NaN,bicycle,bear,1-3-10,0156_eid_dnn_1-3-10_bear_10_n02132136_2346.png,n02132136_2346.png,0.0,0.33089286,3.2662055,-2.0755796
alexnet2023_baseline_pgd,1,157,NaN,bear,bear,8-3-10,0157_eid_dnn_8-3-10_bear_10_n02134418_2187.png,n02134418_2187.png,1.0,6.033063,4.624191,0.99622303
alexnet2023_baseline_pgd,1,158,NaN,knife,cat,32-3-10,0158_eid_dnn_32-3-10_cat_10_n02124075_10162.png,n02124075_10162.png,0.0,0.18880521,1.8402953,-1.1677799
alexnet2023_baseline_pgd,1,159,NaN,elephant,truck,128-3-10,0159_eid_dnn_128-3-10_truck_10_n03417042_8998.png,n03417042_8998.png,0.0,-1.0722511,1.1170752,-1.5480875
alexnet2023_baseline_pgd,1,160,NaN,dog,cat,64-3-10,0160_eid_dnn_64-3-10_cat_10_n02123597_13835.png,n02123597_13835.png,0.0,1.1887392,2.2949624,-0.782218
alexnet2023_baseline_pgd,1,161,NaN,clock,clock,1-3-10,0161_eid_dnn_1-3-10_clock_10_n04548280_18914.png,n04548280_18914.png,1.0,13.427783,4.822282,6.085008
alexnet2023_baseline_pgd,1,162,NaN,keyboard,keyboard,2-3-10,0162_eid_dnn_2-3-10_keyboard_10_n03085013_2676.png,n03085013_2676.png,1.0,14.583411,5.8942003,6.1442
alexnet2023_baseline_pgd,1,163,NaN,elephant,airplane,16-3-10,0163_eid_dnn_16-3-10_airplane_10_n02690373_7600.png,n02690373_7600.png,0.0,1.8060613,2.5496237,-0.52577806
alexnet2023_baseline_pgd,1,164,NaN,dog,chair,16-3-10,0164_eid_dnn_16-3-10_chair_10_n04429376_17917.png,n04429376_17917.png,0.0,-1.1097249,4.0617414,-3.656779
alexnet2023_baseline_pgd,1,165,NaN,keyboard,keyboard,4-3-10,0165_eid_dnn_4-3-10_keyboard_10_n04505470_4492.png,n04505470_4492.png,1.0,3.8013248,3.331633,0.33212224
alexnet2023_baseline_pgd,1,166,NaN,bear,bear,1-3-10,0166_eid_dnn_1-3-10_bear_10_n02134418_3148.png,n02134418_3148.png,1.0,9.633501,5.343845,3.033245
alexnet2023_baseline_pgd,1,167,NaN,elephant,cat,4-3-10,0167_eid_dnn_4-3-10_cat_10_n02125311_20388.png,n02125311_20388.png,0.0,3.4588826,6.342441,-2.0389838
alexnet2023_baseline_pgd,1,168,NaN,airplane,cat,64-3-10,0168_eid_dnn_64-3-10_cat_10_n02123394_2153.png,n02123394_2153.png,0.0,0.16050489,1.1070476,-0.66930676
alexnet2023_baseline_pgd,1,169,NaN,truck,clock,1-3-10,0169_eid_dnn_1-3-10_clock_10_n04548280_5327.png,n04548280_5327.png,0.0,3.175636,3.3755188,-0.14133845
alexnet2023_baseline_pgd,1,170,NaN,cat,bicycle,8-3-10,0170_eid_dnn_8-3-10_bicycle_10_n03792782_63054.png,n03792782_63054.png,0.0,-0.7200936,5.470556,-4.3774505
alexnet2023_baseline_pgd,1,171,NaN,bottle,chair,32-3-10,0171_eid_dnn_32-3-10_chair_10_n03376595_14138.png,n03376595_14138.png,0.0,0.026655972,1.8782406,-1.3092681
alexnet2023_baseline_pgd,1,172,NaN,elephant,elephant,2-3-10,0172_eid_dnn_2-3-10_elephant_10_n02504458_4849.png,n02504458_4849.png,1.0,13.541788,4.3735404,6.4829297
alexnet2023_baseline_pgd,1,173,NaN,oven,dog,128-3-10,0173_eid_dnn_128-3-10_dog_10_n02113624_4844.png,n02113624_4844.png,0.0,-0.28289902,1.4121797,-1.1986017
alexnet2023_baseline_pgd,1,174,NaN,elephant,elephant,2-3-10,0174_eid_dnn_2-3-10_elephant_10_n02504013_2549.png,n02504013_2549.png,1.0,10.169889,6.964913,2.2662606
alexnet2023_baseline_pgd,1,175,NaN,elephant,bear,8-3-10,0175_eid_dnn_8-3-10_bear_10_n02134084_4593.png,n02134084_4593.png,0.0,6.0184717,6.8615594,-0.596153
alexnet2023_baseline_pgd,1,176,NaN,bicycle,bicycle,64-3-10,0176_eid_dnn_64-3-10_bicycle_10_n02835271_75.png,n02835271_75.png,1.0,1.0564157,0.5073242,0.3882663
alexnet2023_baseline_pgd,1,177,NaN,bottle,truck,4-3-10,0177_eid_dnn_4-3-10_truck_10_n03796401_20943.png,n03796401_20943.png,0.0,3.391261,4.837963,-1.0229728
alexnet2023_baseline_pgd,1,178,NaN,knife,knife,2-3-10,0178_eid_dnn_2-3-10_knife_10_n03041632_32048.png,n03041632_32048.png,1.0,3.8632553,3.5418,0.22730318
alexnet2023_baseline_pgd,1,179,NaN,bicycle,cat,1-3-10,0179_eid_dnn_1-3-10_cat_10_n02123159_3536.png,n02123159_3536.png,0.0,1.1291528,2.0231228,-0.6321323
alexnet2023_baseline_pgd,1,180,NaN,boat,bicycle,1-3-10,0180_eid_dnn_1-3-10_bicycle_10_n03792782_6716.png,n03792782_6716.png,0.0,1.2225683,2.6995633,-1.0443932
alexnet2023_baseline_pgd,1,181,NaN,clock,clock,2-3-10,0181_eid_dnn_2-3-10_clock_10_n03196217_1754.png,n03196217_1754.png,1.0,12.113636,7.3754725,3.3503876
alexnet2023_baseline_pgd,1,182,NaN,bicycle,bicycle,1-3-10,0182_eid_dnn_1-3-10_bicycle_10_n03792782_5404.png,n03792782_5404.png,1.0,7.349306,4.71268,1.8643763
alexnet2023_baseline_pgd,1,183,NaN,airplane,dog,64-3-10,0183_eid_dnn_64-3-10_dog_10_n02096294_3014.png,n02096294_3014.png,0.0,0.014190643,2.769195,-1.9480823
alexnet2023_baseline_pgd,1,184,NaN,bear,bear,4-3-10,0184_eid_dnn_4-3-10_bear_10_n02134084_23382.png,n02134084_23382.png,1.0,2.637324,2.3449357,0.20674986
alexnet2023_baseline_pgd,1,185,NaN,car,car,4-3-10,0185_eid_dnn_4-3-10_car_10_n03100240_310.png,n03100240_310.png,1.0,6.7588997,3.3233757,2.4292824
alexnet2023_baseline_pgd,1,186,NaN,dog,dog,4-3-10,0186_eid_dnn_4-3-10_dog_10_n02093256_1653.png,n02093256_1653.png,1.0,3.944836,3.941186,0.0025809044
alexnet2023_baseline_pgd,1,187,NaN,elephant,elephant,4-3-10,0187_eid_dnn_4-3-10_elephant_10_n02504013_1740.png,n02504013_1740.png,1.0,20.0957,7.9443903,8.592273
alexnet2023_baseline_pgd,1,188,NaN,oven,bear,64-3-10,0188_eid_dnn_64-3-10_bear_10_n02134084_34375.png,n02134084_34375.png,0.0,0.38994345,1.816505,-1.0087314
alexnet2023_baseline_pgd,1,189,NaN,airplane,keyboard,8-3-10,0189_eid_dnn_8-3-10_keyboard_10_n03085013_23254.png,n03085013_23254.png,0.0,-2.7793412,2.7556877,-3.9138565
alexnet2023_baseline_pgd,1,190,NaN,airplane,elephant,32-3-10,0190_eid_dnn_32-3-10_elephant_10_n02504013_1512.png,n02504013_1512.png,0.0,0.12957278,3.0712314,-2.0800667
alexnet2023_baseline_pgd,1,191,NaN,elephant,car,8-3-10,0191_eid_dnn_8-3-10_car_10_n04285008_6454.png,n04285008_6454.png,0.0,-0.10949389,5.343712,-3.8559988
alexnet2023_baseline_pgd,1,192,NaN,keyboard,keyboard,4-3-10,0192_eid_dnn_4-3-10_keyboard_10_n04505470_7721.png,n04505470_7721.png,1.0,11.245984,3.4411685,5.518838
alexnet2023_baseline_pgd,1,193,NaN,bear,keyboard,16-3-10,0193_eid_dnn_16-3-10_keyboard_10_n04505470_3388.png,n04505470_3388.png,0.0,-5.6410933,3.269167,-6.3005056
alexnet2023_baseline_pgd,1,194,NaN,boat,boat,2-3-10,0194_eid_dnn_2-3-10_boat_10_n03344393_4221.png,n03344393_4221.png,1.0,10.783618,6.7362275,2.8619373
alexnet2023_baseline_pgd,1,195,NaN,airplane,cat,128-3-10,0195_eid_dnn_128-3-10_cat_10_n02123597_14361.png,n02123597_14361.png,0.0,0.2619222,1.18481,-0.65258026
alexnet2023_baseline_pgd,1,196,NaN,bear,bird,128-3-10,0196_eid_dnn_128-3-10_bird_10_n02006656_10058.png,n02006656_10058.png,0.0,0.5275068,1.0815675,-0.39178008
alexnet2023_baseline_pgd,1,197,NaN,bear,clock,32-3-10,0197_eid_dnn_32-3-10_clock_10_n02708093_8104.png,n02708093_8104.png,0.0,-1.6443983,2.7172883,-3.0841782
alexnet2023_baseline_pgd,1,198,NaN,truck,truck,1-3-10,0198_eid_dnn_1-3-10_truck_10_n03417042_3845.png,n03417042_3845.png,1.0,8.480274,6.6509447,1.2935313
alexnet2023_baseline_pgd,1,199,NaN,oven,boat,64-3-10,0199_eid_dnn_64-3-10_boat_10_n03662601_36741.png,n03662601_36741.png,0.0,-2.5837696,3.2395935,-4.1177397
alexnet2023_baseline_pgd,1,200,NaN,knife,knife,1-3-10,0200_eid_dnn_1-3-10_knife_10_n03041632_22570.png,n03041632_22570.png,1.0,5.5613613,3.58526,1.3973147
alexnet2023_baseline_pgd,1,201,NaN,keyboard,keyboard,1-3-10,0201_eid_dnn_1-3-10_keyboard_10_n04505470_4109.png,n04505470_4109.png,1.0,13.482887,7.1124067,4.50461
alexnet2023_baseline_pgd,1,202,NaN,airplane,airplane,1-3-10,0202_eid_dnn_1-3-10_airplane_10_n02690373_10404.png,n02690373_10404.png,1.0,12.074542,4.944089,5.0419917
alexnet2023_baseline_pgd,1,203,NaN,elephant,elephant,4-3-10,0203_eid_dnn_4-3-10_elephant_10_n02504458_4725.png,n02504458_4725.png,1.0,10.466793,6.0795617,3.102241
alexnet2023_baseline_pgd,1,204,NaN,airplane,airplane,1-3-10,0204_eid_dnn_1-3-10_airplane_10_n02690373_1325.png,n02690373_1325.png,1.0,17.080688,6.2845235,7.634042
alexnet2023_baseline_pgd,1,205,NaN,elephant,bicycle,8-3-10,0205_eid_dnn_8-3-10_bicycle_10_n03792782_6841.png,n03792782_6841.png,0.0,-0.36671638,5.488023,-4.139926
alexnet2023_baseline_pgd,1,206,NaN,chair,chair,2-3-10,0206_eid_dnn_2-3-10_chair_10_n04099969_1669.png,n04099969_1669.png,1.0,10.439797,2.6066976,5.538838
alexnet2023_baseline_pgd,1,207,NaN,airplane,bottle,32-3-10,0207_eid_dnn_32-3-10_bottle_10_n03937543_5324.png,n03937543_5324.png,0.0,-0.3374441,2.0629172,-1.6973118
alexnet2023_baseline_pgd,1,208,NaN,bottle,bottle,4-3-10,0208_eid_dnn_4-3-10_bottle_10_n03937543_2143.png,n03937543_2143.png,1.0,9.993176,4.6141014,3.8035805
alexnet2023_baseline_pgd,1,209,NaN,bottle,bottle,2-3-10,0209_eid_dnn_2-3-10_bottle_10_n04557648_2575.png,n04557648_2575.png,1.0,2.790605,2.1584597,0.4469943
alexnet2023_baseline_pgd,1,210,NaN,knife,knife,8-3-10,0210_eid_dnn_8-3-10_knife_10_n03041632_9671.png,n03041632_9671.png,1.0,5.719824,2.856207,2.024883
alexnet2023_baseline_pgd,1,211,NaN,bear,bottle,16-3-10,0211_eid_dnn_16-3-10_bottle_10_n04560804_4145.png,n04560804_4145.png,0.0,1.3431932,2.113265,-0.54452306
alexnet2023_baseline_pgd,1,212,NaN,cat,clock,64-3-10,0212_eid_dnn_64-3-10_clock_10_n03196217_1187.png,n03196217_1187.png,0.0,-1.5571102,1.939229,-2.4722853
alexnet2023_baseline_pgd,1,213,NaN,clock,clock,4-3-10,0213_eid_dnn_4-3-10_clock_10_n04548280_2111.png,n04548280_2111.png,1.0,9.682283,4.3426056,3.7757225
alexnet2023_baseline_pgd,1,214,NaN,cat,dog,128-3-10,0214_eid_dnn_128-3-10_dog_10_n02086079_6578.png,n02086079_6578.png,0.0,0.39942974,3.0217876,-1.854287
alexnet2023_baseline_pgd,1,215,NaN,bear,car,16-3-10,0215_eid_dnn_16-3-10_car_10_n03100240_14045.png,n03100240_14045.png,0.0,-1.7879009,3.5114849,-3.747232
alexnet2023_baseline_pgd,1,216,NaN,elephant,boat,8-3-10,0216_eid_dnn_8-3-10_boat_10_n02951358_30908.png,n02951358_30908.png,0.0,3.0304666,3.5738683,-0.38424304
alexnet2023_baseline_pgd,1,217,NaN,elephant,oven,4-3-10,0217_eid_dnn_4-3-10_oven_10_n04111531_2199.png,n04111531_2199.png,0.0,3.750451,4.3107824,-0.3962141
alexnet2023_baseline_pgd,1,218,NaN,elephant,elephant,8-3-10,0218_eid_dnn_8-3-10_elephant_10_n02504013_5641.png,n02504013_5641.png,1.0,6.5335064,3.6719675,2.0234137
alexnet2023_baseline_pgd,1,219,NaN,keyboard,keyboard,2-3-10,0219_eid_dnn_2-3-10_keyboard_10_n03085013_6740.png,n03085013_6740.png,1.0,11.21936,5.962539,3.717134
alexnet2023_baseline_pgd,1,220,NaN,clock,clock,2-3-10,0220_eid_dnn_2-3-10_clock_10_n04548280_319.png,n04548280_319.png,1.0,14.123635,4.06095,7.115393
alexnet2023_baseline_pgd,1,221,NaN,knife,knife,32-3-10,0221_eid_dnn_32-3-10_knife_10_n03041632_43506.png,n03041632_43506.png,1.0,1.2073992,1.0867646,0.0853016
alexnet2023_baseline_pgd,1,222,NaN,elephant,boat,16-3-10,0222_eid_dnn_16-3-10_boat_10_n03344393_9712.png,n03344393_9712.png,0.0,2.5761514,3.7351007,-0.819501
alexnet2023_baseline_pgd,1,223,NaN,knife,knife,1-3-10,0223_eid_dnn_1-3-10_knife_10_n03041632_9963.png,n03041632_9963.png,1.0,13.59124,2.3727546,7.932667
alexnet2023_baseline_pgd,1,224,NaN,elephant,bird,1-3-10,0224_eid_dnn_1-3-10_bird_10_n02002556_18595.png,n02002556_18595.png,0.0,2.0871305,3.0173345,-0.6577535
alexnet2023_baseline_pgd,1,225,NaN,bear,bird,4-3-10,0225_eid_dnn_4-3-10_bird_10_n01860187_20777.png,n01860187_20777.png,0.0,2.1033537,3.9262326,-1.28897
alexnet2023_baseline_pgd,1,226,NaN,oven,keyboard,32-3-10,0226_eid_dnn_32-3-10_keyboard_10_n03085013_24626.png,n03085013_24626.png,0.0,-4.4629464,1.5474252,-4.2499747
alexnet2023_baseline_pgd,1,227,NaN,oven,oven,16-3-10,0227_eid_dnn_16-3-10_oven_10_n04111531_7097.png,n04111531_7097.png,1.0,2.68252,1.8518264,0.587389
alexnet2023_baseline_pgd,1,228,NaN,elephant,chair,16-3-10,0228_eid_dnn_16-3-10_chair_10_n02791124_12486.png,n02791124_12486.png,0.0,0.8332141,4.843849,-2.8359473
alexnet2023_baseline_pgd,1,229,NaN,cat,cat,128-3-10,0229_eid_dnn_128-3-10_cat_10_n02123045_6629.png,n02123045_6629.png,1.0,1.5413138,1.4191227,0.08640213
alexnet2023_baseline_pgd,1,230,NaN,elephant,bird,16-3-10,0230_eid_dnn_16-3-10_bird_10_n01819313_5388.png,n01819313_5388.png,0.0,1.5819997,2.5309496,-0.67100894
alexnet2023_baseline_pgd,1,231,NaN,airplane,truck,32-3-10,0231_eid_dnn_32-3-10_truck_10_n04467665_4940.png,n04467665_4940.png,0.0,-0.1009507,2.2396429,-1.6550496
alexnet2023_baseline_pgd,1,232,NaN,bottle,knife,8-3-10,0232_eid_dnn_8-3-10_knife_10_n03041632_20433.png,n03041632_20433.png,0.0,0.24797612,3.40635,-2.2333076
alexnet2023_baseline_pgd,1,233,NaN,clock,clock,2-3-10,0233_eid_dnn_2-3-10_clock_10_n04548280_6792.png,n04548280_6792.png,1.0,7.3462367,4.331862,2.1314847
alexnet2023_baseline_pgd,1,234,NaN,bicycle,bicycle,4-3-10,0234_eid_dnn_4-3-10_bicycle_10_n02835271_5413.png,n02835271_5413.png,1.0,3.919604,3.2787247,0.45317018
alexnet2023_baseline_pgd,1,235,NaN,car,car,2-3-10,0235_eid_dnn_2-3-10_car_10_n04285008_5005.png,n04285008_5005.png,1.0,13.892095,6.0831275,5.521774
alexnet2023_baseline_pgd,1,236,NaN,elephant,car,2-3-10,0236_eid_dnn_2-3-10_car_10_n02814533_88088.png,n02814533_88088.png,0.0,4.0672684,5.025565,-0.67761815
alexnet2023_baseline_pgd,1,237,NaN,elephant,elephant,64-3-10,0237_eid_dnn_64-3-10_elephant_10_n02504458_11345.png,n02504458_11345.png,1.0,2.658947,1.0732794,1.1212363
alexnet2023_baseline_pgd,1,238,NaN,elephant,elephant,16-3-10,0238_eid_dnn_16-3-10_elephant_10_n02504013_1900.png,n02504013_1900.png,1.0,5.6339693,2.6499095,2.110049
alexnet2023_baseline_pgd,1,239,NaN,bicycle,bear,128-3-10,0239_eid_dnn_128-3-10_bear_10_n02133161_5708.png,n02133161_5708.png,0.0,0.16331352,1.0635468,-0.63656104
alexnet2023_baseline_pgd,1,240,NaN,cat,cat,8-3-10,0240_eid_dnn_8-3-10_cat_10_n02124075_5828.png,n02124075_5828.png,1.0,6.4027343,3.4007177,2.1227462
alexnet2023_baseline_pgd,1,241,NaN,oven,bird,64-3-10,0241_eid_dnn_64-3-10_bird_10_n01582220_9392.png,n01582220_9392.png,0.0,-0.4935595,2.0357134,-1.7884661
alexnet2023_baseline_pgd,1,242,NaN,clock,clock,1-3-10,0242_eid_dnn_1-3-10_clock_10_n02708093_4597.png,n02708093_4597.png,1.0,17.068832,5.7676897,7.9911146
alexnet2023_baseline_pgd,1,243,NaN,airplane,bicycle,128-3-10,0243_eid_dnn_128-3-10_bicycle_10_n03792782_26306.png,n03792782_26306.png,0.0,0.7124593,1.0407902,-0.232165
alexnet2023_baseline_pgd,1,244,NaN,elephant,bear,32-3-10,0244_eid_dnn_32-3-10_bear_10_n02132136_1795.png,n02132136_1795.png,0.0,1.9340166,3.9269714,-1.4092319
alexnet2023_baseline_pgd,1,245,NaN,bird,clock,128-3-10,0245_eid_dnn_128-3-10_clock_10_n02708093_3638.png,n02708093_3638.png,0.0,-0.5472583,0.89991486,-1.0233059
alexnet2023_baseline_pgd,1,246,NaN,keyboard,keyboard,4-3-10,0246_eid_dnn_4-3-10_keyboard_10_n03085013_21272.png,n03085013_21272.png,1.0,4.6185083,1.8594106,1.9509766
alexnet2023_baseline_pgd,1,247,NaN,bottle,chair,8-3-10,0247_eid_dnn_8-3-10_chair_10_n02791124_16926.png,n02791124_16926.png,0.0,2.0266309,2.7457013,-0.50845957
alexnet2023_baseline_pgd,1,248,NaN,elephant,knife,8-3-10,0248_eid_dnn_8-3-10_knife_10_n03041632_84048.png,n03041632_84048.png,0.0,-2.0394442,4.174364,-4.393826
alexnet2023_baseline_pgd,1,249,NaN,oven,oven,2-3-10,0249_eid_dnn_2-3-10_oven_10_n04111531_550.png,n04111531_550.png,1.0,8.134324,4.7725935,2.3771026
alexnet2023_baseline_pgd,1,250,NaN,bird,boat,128-3-10,0250_eid_dnn_128-3-10_boat_10_n03662601_21992.png,n03662601_21992.png,0.0,-2.4250019,2.3076475,-3.3464885
alexnet2023_baseline_pgd,1,251,NaN,bear,bear,32-3-10,0251_eid_dnn_32-3-10_bear_10_n02134418_280.png,n02134418_280.png,1.0,1.9525194,1.7373446,0.15215155
alexnet2023_baseline_pgd,1,252,NaN,bottle,bottle,8-3-10,0252_eid_dnn_8-3-10_bottle_10_n04560804_8385.png,n04560804_8385.png,1.0,5.1816206,3.3680656,1.282377
alexnet2023_baseline_pgd,1,253,NaN,elephant,elephant,64-3-10,0253_eid_dnn_64-3-10_elephant_10_n02504013_4183.png,n02504013_4183.png,1.0,3.2974937,1.8826218,1.0004655
alexnet2023_baseline_pgd,1,254,NaN,bird,bird,1-3-10,0254_eid_dnn_1-3-10_bird_10_n01560419_19608.png,n01560419_19608.png,1.0,5.243115,1.1868734,2.868196
alexnet2023_baseline_pgd,1,255,NaN,elephant,bird,4-3-10,0255_eid_dnn_4-3-10_bird_10_n02056570_8865.png,n02056570_8865.png,0.0,1.6515282,2.1432638,-0.34770957
alexnet2023_baseline_pgd,1,256,NaN,cat,cat,2-3-10,0256_eid_dnn_2-3-10_cat_10_n02123394_2553.png,n02123394_2553.png,1.0,5.604343,3.3803182,1.572623
alexnet2023_baseline_pgd,1,257,NaN,airplane,bear,128-3-10,0257_eid_dnn_128-3-10_bear_10_n02132136_10113.png,n02132136_10113.png,0.0,0.30800676,1.4901822,-0.83592427
alexnet2023_baseline_pgd,1,258,NaN,cat,oven,8-3-10,0258_eid_dnn_8-3-10_oven_10_n04111531_2758.png,n04111531_2758.png,0.0,1.7320234,2.2280328,-0.35073167
alexnet2023_baseline_pgd,1,259,NaN,dog,keyboard,64-3-10,0259_eid_dnn_64-3-10_keyboard_10_n04505470_4824.png,n04505470_4824.png,0.0,-3.8171492,1.8759375,-4.0256205
alexnet2023_baseline_pgd,1,260,NaN,bicycle,bicycle,2-3-10,0260_eid_dnn_2-3-10_bicycle_10_n02835271_8654.png,n02835271_8654.png,1.0,7.1200843,4.76688,1.6639667
alexnet2023_baseline_pgd,1,261,NaN,cat,keyboard,128-3-10,0261_eid_dnn_128-3-10_keyboard_10_n03085013_34973.png,n03085013_34973.png,0.0,-1.7309039,2.462949,-2.9655018
alexnet2023_baseline_pgd,1,262,NaN,elephant,cat,4-3-10,0262_eid_dnn_4-3-10_cat_10_n02123394_4228.png,n02123394_4228.png,0.0,1.7024034,3.105706,-0.9922848
alexnet2023_baseline_pgd,1,263,NaN,airplane,keyboard,32-3-10,0263_eid_dnn_32-3-10_keyboard_10_n03085013_24416.png,n03085013_24416.png,0.0,-1.7143137,1.3928478,-2.197095
alexnet2023_baseline_pgd,1,264,NaN,cat,cat,8-3-10,0264_eid_dnn_8-3-10_cat_10_n02124075_5729.png,n02124075_5729.png,1.0,5.6674957,4.542163,0.7957305
alexnet2023_baseline_pgd,1,265,NaN,bear,clock,32-3-10,0265_eid_dnn_32-3-10_clock_10_n03196217_6357.png,n03196217_6357.png,0.0,-0.008041938,2.0632007,-1.4645897
alexnet2023_baseline_pgd,1,266,NaN,cat,truck,128-3-10,0266_eid_dnn_128-3-10_truck_10_n03417042_29478.png,n03417042_29478.png,0.0,-3.3898337,1.1289383,-3.1952546
alexnet2023_baseline_pgd,1,267,NaN,knife,chair,128-3-10,0267_eid_dnn_128-3-10_chair_10_n04099969_18678.png,n04099969_18678.png,0.0,-1.2773052,0.6910845,-1.3918618
alexnet2023_baseline_pgd,1,268,NaN,oven,clock,32-3-10,0268_eid_dnn_32-3-10_clock_10_n02708093_4286.png,n02708093_4286.png,0.0,-0.5664401,4.8398843,-3.8228488
alexnet2023_baseline_pgd,1,269,NaN,clock,car,128-3-10,0269_eid_dnn_128-3-10_car_10_n03100240_21971.png,n03100240_21971.png,0.0,-2.4151366,0.66876096,-2.180645
alexnet2023_baseline_pgd,1,270,NaN,car,car,1-3-10,0270_eid_dnn_1-3-10_car_10_n03100240_84.png,n03100240_84.png,1.0,15.789684,10.807475,3.522954
alexnet2023_baseline_pgd,1,271,NaN,cat,dog,1-3-10,0271_eid_dnn_1-3-10_dog_10_n02094433_3186.png,n02094433_3186.png,0.0,4.2101984,5.3371644,-0.7968853
alexnet2023_baseline_pgd,1,272,NaN,dog,dog,4-3-10,0272_eid_dnn_4-3-10_dog_10_n02088364_10195.png,n02088364_10195.png,1.0,6.1987877,3.366457,2.0027602
alexnet2023_baseline_pgd,1,273,NaN,elephant,knife,16-3-10,0273_eid_dnn_16-3-10_knife_10_n03041632_11358.png,n03041632_11358.png,0.0,-1.8257992,4.2500024,-4.296241
alexnet2023_baseline_pgd,1,274,NaN,bear,bird,64-3-10,0274_eid_dnn_64-3-10_bird_10_n01531178_10630.png,n01531178_10630.png,0.0,0.7685089,1.4020224,-0.44796166
alexnet2023_baseline_pgd,1,275,NaN,elephant,elephant,1-3-10,0275_eid_dnn_1-3-10_elephant_10_n02504458_4058.png,n02504458_4058.png,1.0,13.111702,5.9075103,5.094133
alexnet2023_baseline_pgd,1,276,NaN,oven,keyboard,32-3-10,0276_eid_dnn_32-3-10_keyboard_10_n03085013_24336.png,n03085013_24336.png,0.0,-4.2257667,3.4265354,-5.4109945
alexnet2023_baseline_pgd,1,277,NaN,clock,clock,4-3-10,0277_eid_dnn_4-3-10_clock_10_n02708093_386.png,n02708093_386.png,1.0,9.182408,8.087831,0.7739834
alexnet2023_baseline_pgd,1,278,NaN,elephant,chair,4-3-10,0278_eid_dnn_4-3-10_chair_10_n04429376_16370.png,n04429376_16370.png,0.0,2.6386545,3.4938154,-0.60469013
alexnet2023_baseline_pgd,1,279,NaN,bottle,bottle,1-3-10,0279_eid_dnn_1-3-10_bottle_10_n04557648_10167.png,n04557648_10167.png,1.0,4.782844,2.7276237,1.4532603
alexnet2023_baseline_pgd,1,280,NaN,bicycle,bicycle,1-3-10,0280_eid_dnn_1-3-10_bicycle_10_n02835271_15717.png,n02835271_15717.png,1.0,8.69925,4.0799384,3.2663467
alexnet2023_baseline_pgd,1,281,NaN,oven,car,128-3-10,0281_eid_dnn_128-3-10_car_10_n03100240_22593.png,n03100240_22593.png,0.0,-3.1983902,1.2199111,-3.124211
alexnet2023_baseline_pgd,1,282,NaN,car,car,1-3-10,0282_eid_dnn_1-3-10_car_10_n04285008_11240.png,n04285008_11240.png,1.0,14.656224,5.7948217,6.265958
alexnet2023_baseline_pgd,1,283,NaN,boat,boat,1-3-10,0283_eid_dnn_1-3-10_boat_10_n03344393_3337.png,n03344393_3337.png,1.0,6.777536,2.816902,2.8005912
alexnet2023_baseline_pgd,1,284,NaN,cat,bottle,128-3-10,0284_eid_dnn_128-3-10_bottle_10_n04579145_1660.png,n04579145_1660.png,0.0,-0.6187634,2.6148558,-2.286514
alexnet2023_baseline_pgd,1,285,NaN,oven,dog,64-3-10,0285_eid_dnn_64-3-10_dog_10_n02091244_9305.png,n02091244_9305.png,0.0,0.5877173,0.9901408,-0.2845564
alexnet2023_baseline_pgd,1,286,NaN,elephant,chair,32-3-10,0286_eid_dnn_32-3-10_chair_10_n03376595_3912.png,n03376595_3912.png,0.0,-0.9316832,2.2213514,-2.2295322
alexnet2023_baseline_pgd,1,287,NaN,cat,bottle,64-3-10,0287_eid_dnn_64-3-10_bottle_10_n02823428_6793.png,n02823428_6793.png,0.0,0.12916349,2.0021205,-1.3243806
alexnet2023_baseline_pgd,1,288,NaN,airplane,dog,32-3-10,0288_eid_dnn_32-3-10_dog_10_n02093754_4949.png,n02093754_4949.png,0.0,0.20089538,2.0146642,-1.2825282
alexnet2023_baseline_pgd,1,289,NaN,oven,dog,128-3-10,0289_eid_dnn_128-3-10_dog_10_n02105855_10394.png,n02105855_10394.png,0.0,0.113042146,2.1209936,-1.4198362
alexnet2023_baseline_pgd,1,290,NaN,clock,clock,2-3-10,0290_eid_dnn_2-3-10_clock_10_n04548280_9533.png,n04548280_9533.png,1.0,6.5693,3.3528981,2.2743397
alexnet2023_baseline_pgd,1,291,NaN,bear,cat,1-3-10,0291_eid_dnn_1-3-10_cat_10_n02125311_7527.png,n02125311_7527.png,0.0,4.2408967,8.92243,-3.310344
alexnet2023_baseline_pgd,1,292,NaN,car,car,4-3-10,0292_eid_dnn_4-3-10_car_10_n03100240_4537.png,n03100240_4537.png,1.0,6.731173,3.8299198,2.0514958
alexnet2023_baseline_pgd,1,293,NaN,elephant,bicycle,8-3-10,0293_eid_dnn_8-3-10_bicycle_10_n03792782_11609.png,n03792782_11609.png,0.0,-0.960601,6.1295013,-5.013459
alexnet2023_baseline_pgd,1,294,NaN,airplane,oven,128-3-10,0294_eid_dnn_128-3-10_oven_10_n04111531_6134.png,n04111531_6134.png,0.0,0.40021312,1.00301,-0.4262418
alexnet2023_baseline_pgd,1,295,NaN,bottle,bottle,8-3-10,0295_eid_dnn_8-3-10_bottle_10_n04591713_715.png,n04591713_715.png,1.0,1.5284294,0.7944277,0.5190176
alexnet2023_baseline_pgd,1,296,NaN,elephant,elephant,32-3-10,0296_eid_dnn_32-3-10_elephant_10_n02504458_7818.png,n02504458_7818.png,1.0,2.5561194,1.9212117,0.44894755
alexnet2023_baseline_pgd,1,297,NaN,bear,airplane,64-3-10,0297_eid_dnn_64-3-10_airplane_10_n02690373_7107.png,n02690373_7107.png,0.0,-1.309148,1.3059604,-1.849161
alexnet2023_baseline_pgd,1,298,NaN,elephant,car,32-3-10,0298_eid_dnn_32-3-10_car_10_n04285008_8363.png,n04285008_8363.png,0.0,-3.207695,3.1040833,-4.4631014
alexnet2023_baseline_pgd,1,299,NaN,oven,clock,4-3-10,0299_eid_dnn_4-3-10_clock_10_n04548280_4249.png,n04548280_4249.png,0.0,2.0709503,2.4089997,-0.23903704
alexnet2023_baseline_pgd,1,300,NaN,cat,cat,128-3-10,0300_eid_dnn_128-3-10_cat_10_n02123597_7269.png,n02123597_7269.png,1.0,2.421803,1.8340659,0.41559288
alexnet2023_baseline_pgd,1,301,NaN,bicycle,bicycle,1-3-10,0301_eid_dnn_1-3-10_bicycle_10_n03792782_4864.png,n03792782_4864.png,1.0,15.495548,4.2936163,7.9209623
alexnet2023_baseline_pgd,1,302,NaN,elephant,bear,2-3-10,0302_eid_dnn_2-3-10_bear_10_n02132136_8011.png,n02132136_8011.png,0.0,7.4850583,8.020588,-0.37867662
alexnet2023_baseline_pgd,1,303,NaN,oven,boat,128-3-10,0303_eid_dnn_128-3-10_boat_10_n02951358_4810.png,n02951358_4810.png,0.0,-1.9905831,0.58073866,-1.818199
alexnet2023_baseline_pgd,1,304,NaN,knife,clock,128-3-10,0304_eid_dnn_128-3-10_clock_10_n03196217_5137.png,n03196217_5137.png,0.0,0.0023717482,0.7236667,-0.5100326
alexnet2023_baseline_pgd,1,305,NaN,bicycle,bicycle,2-3-10,0305_eid_dnn_2-3-10_bicycle_10_n02835271_158.png,n02835271_158.png,1.0,9.706094,3.3125567,4.5209136
alexnet2023_baseline_pgd,1,306,NaN,cat,bear,64-3-10,0306_eid_dnn_64-3-10_bear_10_n02132136_11217.png,n02132136_11217.png,0.0,1.7744955,1.8108941,-0.025737733
alexnet2023_baseline_pgd,1,307,NaN,oven,dog,64-3-10,0307_eid_dnn_64-3-10_dog_10_n02092002_6122.png,n02092002_6122.png,0.0,0.12153197,1.9605694,-1.3003958
alexnet2023_baseline_pgd,1,308,NaN,elephant,chair,32-3-10,0308_eid_dnn_32-3-10_chair_10_n04429376_29223.png,n04429376_29223.png,0.0,-0.31982565,2.4951706,-1.990503
alexnet2023_baseline_pgd,1,309,NaN,cat,bear,128-3-10,0309_eid_dnn_128-3-10_bear_10_n02133161_5723.png,n02133161_5723.png,0.0,-0.21485147,2.9058383,-2.2066607
alexnet2023_baseline_pgd,1,310,NaN,bear,dog,128-3-10,0310_eid_dnn_128-3-10_dog_10_n02100583_1343.png,n02100583_1343.png,0.0,-0.0341614,1.4194076,-1.0278286
alexnet2023_baseline_pgd,1,311,NaN,oven,boat,128-3-10,0311_eid_dnn_128-3-10_boat_10_n03344393_6352.png,n03344393_6352.png,0.0,-2.6138625,2.6697083,-3.7360487
alexnet2023_baseline_pgd,1,312,NaN,bird,bird,4-3-10,0312_eid_dnn_4-3-10_bird_10_n01560419_8247.png,n01560419_8247.png,1.0,6.0539513,2.1693585,2.7468219
alexnet2023_baseline_pgd,1,313,NaN,dog,dog,4-3-10,0313_eid_dnn_4-3-10_dog_10_n02105251_8210.png,n02105251_8210.png,1.0,5.56711,3.140605,1.7157983
alexnet2023_baseline_pgd,1,314,NaN,bicycle,oven,128-3-10,0314_eid_dnn_128-3-10_oven_10_n04111531_9702.png,n04111531_9702.png,0.0,0.062812716,1.2825776,-0.86250407
alexnet2023_baseline_pgd,1,315,NaN,elephant,bear,8-3-10,0315_eid_dnn_8-3-10_bear_10_n02133161_12161.png,n02133161_12161.png,0.0,2.3618424,4.6735554,-1.6346279
alexnet2023_baseline_pgd,1,316,NaN,bear,bear,8-3-10,0316_eid_dnn_8-3-10_bear_10_n02133161_13556.png,n02133161_13556.png,1.0,4.454685,4.010885,0.3138143
alexnet2023_baseline_pgd,1,317,NaN,bear,bear,128-3-10,0317_eid_dnn_128-3-10_bear_10_n02134084_635.png,n02134084_635.png,1.0,0.72278774,0.59895664,0.08756181
alexnet2023_baseline_pgd,1,318,NaN,cat,chair,128-3-10,0318_eid_dnn_128-3-10_chair_10_n02791124_6956.png,n02791124_6956.png,0.0,-1.9777255,2.1128118,-2.8924465
alexnet2023_baseline_pgd,1,319,NaN,car,car,4-3-10,0319_eid_dnn_4-3-10_car_10_n02814533_18077.png,n02814533_18077.png,1.0,5.5047536,4.1922274,0.92809623
alexnet2023_baseline_pgd,1,320,NaN,knife,dog,2-3-10,0320_eid_dnn_2-3-10_dog_10_n02088364_11105.png,n02088364_11105.png,0.0,2.3951273,3.37216,-0.6908664
alexnet2023_baseline_pgd,1,321,NaN,bicycle,airplane,64-3-10,0321_eid_dnn_64-3-10_airplane_10_n02690373_1053.png,n02690373_1053.png,0.0,0.1901865,1.3706503,-0.834714
alexnet2023_baseline_pgd,1,322,NaN,oven,car,16-3-10,0322_eid_dnn_16-3-10_car_10_n02814533_96407.png,n02814533_96407.png,0.0,-2.5783222,4.535081,-5.029936
alexnet2023_baseline_pgd,1,323,NaN,chair,chair,4-3-10,0323_eid_dnn_4-3-10_chair_10_n04099969_31891.png,n04099969_31891.png,1.0,6.569491,3.5314898,2.1481912
alexnet2023_baseline_pgd,1,324,NaN,elephant,bottle,16-3-10,0324_eid_dnn_16-3-10_bottle_10_n04557648_4470.png,n04557648_4470.png,0.0,0.4715418,2.6930103,-1.5708154
alexnet2023_baseline_pgd,1,325,NaN,bottle,clock,8-3-10,0325_eid_dnn_8-3-10_clock_10_n02708093_2588.png,n02708093_2588.png,0.0,-1.0921377,3.8028162,-3.461255
alexnet2023_baseline_pgd,1,326,NaN,cat,elephant,128-3-10,0326_eid_dnn_128-3-10_elephant_10_n02504458_6696.png,n02504458_6696.png,0.0,-1.0840584,1.5685731,-1.8756938
alexnet2023_baseline_pgd,1,327,NaN,cat,elephant,32-3-10,0327_eid_dnn_32-3-10_elephant_10_n02504013_4071.png,n02504013_4071.png,0.0,1.0478091,1.6854558,-0.45088428
alexnet2023_baseline_pgd,1,328,NaN,elephant,keyboard,8-3-10,0328_eid_dnn_8-3-10_keyboard_10_n03085013_8339.png,n03085013_8339.png,0.0,-1.8398782,2.495014,-3.0652318
alexnet2023_baseline_pgd,1,329,NaN,cat,elephant,64-3-10,0329_eid_dnn_64-3-10_elephant_10_n02504013_6976.png,n02504013_6976.png,0.0,-0.42649773,2.929651,-2.3731556
alexnet2023_baseline_pgd,1,330,NaN,bear,boat,4-3-10,0330_eid_dnn_4-3-10_boat_10_n02951358_9146.png,n02951358_9146.png,0.0,0.9115655,3.6529422,-1.938446
alexnet2023_baseline_pgd,1,331,NaN,airplane,boat,32-3-10,0331_eid_dnn_32-3-10_boat_10_n04273569_4087.png,n04273569_4087.png,0.0,0.119002774,1.781704,-1.1757072
alexnet2023_baseline_pgd,1,332,NaN,bicycle,oven,64-3-10,0332_eid_dnn_64-3-10_oven_10_n04111531_2922.png,n04111531_2922.png,0.0,-0.8531301,0.97779226,-1.2946576
alexnet2023_baseline_pgd,1,333,NaN,bear,bear,4-3-10,0333_eid_dnn_4-3-10_bear_10_n02133161_5325.png,n02133161_5325.png,1.0,4.7457843,3.1660783,1.1170208
alexnet2023_baseline_pgd,1,334,NaN,elephant,bottle,64-3-10,0334_eid_dnn_64-3-10_bottle_10_n04557648_3109.png,n04557648_3109.png,0.0,-0.44414854,1.7943182,-1.5828351
alexnet2023_baseline_pgd,1,335,NaN,oven,oven,1-3-10,0335_eid_dnn_1-3-10_oven_10_n04111531_15912.png,n04111531_15912.png,1.0,9.315651,2.99491,4.4694386
alexnet2023_baseline_pgd,1,336,NaN,oven,truck,16-3-10,0336_eid_dnn_16-3-10_truck_10_n03417042_17099.png,n03417042_17099.png,0.0,-2.5268073,5.1128244,-5.4020357
alexnet2023_baseline_pgd,1,337,NaN,car,car,2-3-10,0337_eid_dnn_2-3-10_car_10_n04285008_8641.png,n04285008_8641.png,1.0,8.481402,6.6533623,1.2926196
alexnet2023_baseline_pgd,1,338,NaN,dog,keyboard,32-3-10,0338_eid_dnn_32-3-10_keyboard_10_n04505470_524.png,n04505470_524.png,0.0,-3.7973347,0.91217506,-3.3301265
alexnet2023_baseline_pgd,1,339,NaN,elephant,bottle,8-3-10,0339_eid_dnn_8-3-10_bottle_10_n04557648_5935.png,n04557648_5935.png,0.0,4.2878447,5.1612644,-0.61760104
alexnet2023_baseline_pgd,1,340,NaN,bottle,bottle,1-3-10,0340_eid_dnn_1-3-10_bottle_10_n04591713_3776.png,n04591713_3776.png,1.0,6.6452746,3.652103,2.116492
alexnet2023_baseline_pgd,1,341,NaN,truck,truck,2-3-10,0341_eid_dnn_2-3-10_truck_10_n03796401_3651.png,n03796401_3651.png,1.0,10.627264,5.037009,3.9529076
alexnet2023_baseline_pgd,1,342,NaN,cat,bicycle,128-3-10,0342_eid_dnn_128-3-10_bicycle_10_n03792782_15757.png,n03792782_15757.png,0.0,0.92294437,0.92752904,-0.0032418515
alexnet2023_baseline_pgd,1,343,NaN,cat,cat,32-3-10,0343_eid_dnn_32-3-10_cat_10_n02123597_8698.png,n02123597_8698.png,1.0,2.7503538,2.5994248,0.106722906
alexnet2023_baseline_pgd,1,344,NaN,truck,boat,1-3-10,0344_eid_dnn_1-3-10_boat_10_n03662601_273.png,n03662601_273.png,0.0,5.2808256,5.9405956,-0.46652785
alexnet2023_baseline_pgd,1,345,NaN,bicycle,knife,1-3-10,0345_eid_dnn_1-3-10_knife_10_n03041632_24376.png,n03041632_24376.png,0.0,1.7718878,1.8529637,-0.057329323
alexnet2023_baseline_pgd,1,346,NaN,keyboard,keyboard,1-3-10,0346_eid_dnn_1-3-10_keyboard_10_n04505470_2608.png,n04505470_2608.png,1.0,6.0317464,2.9208994,2.199701
alexnet2023_baseline_pgd,1,347,NaN,airplane,boat,16-3-10,0347_eid_dnn_16-3-10_boat_10_n04273569_10665.png,n04273569_10665.png,0.0,1.9374593,4.100896,-1.5297806
alexnet2023_baseline_pgd,1,348,NaN,airplane,bear,64-3-10,0348_eid_dnn_64-3-10_bear_10_n02133161_5267.png,n02133161_5267.png,0.0,1.1873953,1.7199397,-0.37656575
alexnet2023_baseline_pgd,1,349,NaN,airplane,bear,128-3-10,0349_eid_dnn_128-3-10_bear_10_n02133161_5020.png,n02133161_5020.png,0.0,0.13952312,1.729322,-1.1241575
alexnet2023_baseline_pgd,1,350,NaN,cat,knife,128-3-10,0350_eid_dnn_128-3-10_knife_10_n03041632_21723.png,n03041632_21723.png,0.0,-1.1303817,2.7760222,-2.7622447
alexnet2023_baseline_pgd,1,351,NaN,airplane,boat,32-3-10,0351_eid_dnn_32-3-10_boat_10_n02951358_31101.png,n02951358_31101.png,0.0,0.03955283,3.023136,-2.109712
alexnet2023_baseline_pgd,1,352,NaN,clock,dog,128-3-10,0352_eid_dnn_128-3-10_dog_10_n02102177_4180.png,n02102177_4180.png,0.0,-0.5609254,0.20657797,-0.54270685
alexnet2023_baseline_pgd,1,353,NaN,bottle,bottle,4-3-10,0353_eid_dnn_4-3-10_bottle_10_n04579145_4186.png,n04579145_4186.png,1.0,7.0465684,3.1434271,2.7599378
alexnet2023_baseline_pgd,1,354,NaN,cat,bicycle,64-3-10,0354_eid_dnn_64-3-10_bicycle_10_n03792782_2246.png,n03792782_2246.png,0.0,-0.87184227,1.5747452,-1.7299987
alexnet2023_baseline_pgd,1,355,NaN,dog,dog,1-3-10,0355_eid_dnn_1-3-10_dog_10_n02110958_1526.png,n02110958_1526.png,1.0,1.4150879,1.3838302,0.022102566
alexnet2023_baseline_pgd,1,356,NaN,elephant,keyboard,128-3-10,0356_eid_dnn_128-3-10_keyboard_10_n04505470_255.png,n04505470_255.png,0.0,-3.1156259,0.86225337,-2.8127854
alexnet2023_baseline_pgd,1,357,NaN,elephant,elephant,4-3-10,0357_eid_dnn_4-3-10_elephant_10_n02504458_1933.png,n02504458_1933.png,1.0,5.6068535,4.201474,0.99375325
alexnet2023_baseline_pgd,1,358,NaN,cat,cat,2-3-10,0358_eid_dnn_2-3-10_cat_10_n02123159_5749.png,n02123159_5749.png,1.0,12.284703,2.6611984,6.8048453
alexnet2023_baseline_pgd,1,359,NaN,bird,airplane,128-3-10,0359_eid_dnn_128-3-10_airplane_10_n02690373_2967.png,n02690373_2967.png,0.0,-0.7950054,1.500561,-1.6232105
alexnet2023_baseline_pgd,1,360,NaN,dog,chair,8-3-10,0360_eid_dnn_8-3-10_chair_10_n04099969_72.png,n04099969_72.png,0.0,-0.13411555,2.5030506,-1.864758
alexnet2023_baseline_pgd,1,361,NaN,oven,cat,32-3-10,0361_eid_dnn_32-3-10_cat_10_n02123045_4089.png,n02123045_4089.png,0.0,2.007066,2.0565577,-0.034995876
alexnet2023_baseline_pgd,1,362,NaN,cat,bird,128-3-10,0362_eid_dnn_128-3-10_bird_10_n01616318_13293.png,n01616318_13293.png,0.0,0.080566265,2.4303825,-1.661571
alexnet2023_baseline_pgd,1,363,NaN,dog,cat,4-3-10,0363_eid_dnn_4-3-10_cat_10_n02124075_13719.png,n02124075_13719.png,0.0,3.1408703,3.206431,-0.046358332
alexnet2023_baseline_pgd,1,364,NaN,bear,oven,32-3-10,0364_eid_dnn_32-3-10_oven_10_n04111531_22466.png,n04111531_22466.png,0.0,0.09373261,4.390046,-3.0379524
alexnet2023_baseline_pgd,1,365,NaN,elephant,airplane,128-3-10,0365_eid_dnn_128-3-10_airplane_10_n02690373_2525.png,n02690373_2525.png,0.0,-3.5140648,4.2724175,-5.5058746
alexnet2023_baseline_pgd,1,366,NaN,cat,cat,1-3-10,0366_eid_dnn_1-3-10_cat_10_n02124075_5369.png,n02124075_5369.png,1.0,8.233333,5.862496,1.6764348
alexnet2023_baseline_pgd,1,367,NaN,elephant,bird,64-3-10,0367_eid_dnn_64-3-10_bird_10_n01843065_4182.png,n01843065_4182.png,0.0,0.27244878,0.762524,-0.34653553
alexnet2023_baseline_pgd,1,368,NaN,truck,truck,2-3-10,0368_eid_dnn_2-3-10_truck_10_n03796401_6472.png,n03796401_6472.png,1.0,7.3444676,5.743795,1.1318465
alexnet2023_baseline_pgd,1,369,NaN,airplane,airplane,64-3-10,0369_eid_dnn_64-3-10_airplane_10_n02690373_3090.png,n02690373_3090.png,1.0,2.7707882,2.2903304,0.33973497
alexnet2023_baseline_pgd,1,370,NaN,oven,bear,64-3-10,0370_eid_dnn_64-3-10_bear_10_n02134418_2964.png,n02134418_2964.png,0.0,1.5813801,1.9933751,-0.2913244
alexnet2023_baseline_pgd,1,371,NaN,elephant,elephant,16-3-10,0371_eid_dnn_16-3-10_elephant_10_n02504013_6904.png,n02504013_6904.png,1.0,7.91868,3.618865,3.0404286
alexnet2023_baseline_pgd,1,372,NaN,elephant,bottle,32-3-10,0372_eid_dnn_32-3-10_bottle_10_n02823428_13488.png,n02823428_13488.png,0.0,-0.19787714,2.3632352,-1.81098
alexnet2023_baseline_pgd,1,373,NaN,car,car,1-3-10,0373_eid_dnn_1-3-10_car_10_n02814533_49499.png,n02814533_49499.png,1.0,21.530172,13.1472225,5.927641
alexnet2023_baseline_pgd,1,374,NaN,bicycle,clock,64-3-10,0374_eid_dnn_64-3-10_clock_10_n03196217_1000.png,n03196217_1000.png,0.0,-0.33254865,1.4546133,-1.2637143
alexnet2023_baseline_pgd,1,375,NaN,elephant,boat,16-3-10,0375_eid_dnn_16-3-10_boat_10_n04612504_13446.png,n04612504_13446.png,0.0,2.2541957,3.9169426,-1.1757396
alexnet2023_baseline_pgd,1,376,NaN,elephant,cat,8-3-10,0376_eid_dnn_8-3-10_cat_10_n02123159_7239.png,n02123159_7239.png,0.0,3.0437038,4.2212834,-0.83267456
alexnet2023_baseline_pgd,1,377,NaN,airplane,airplane,8-3-10,0377_eid_dnn_8-3-10_airplane_10_n02690373_7499.png,n02690373_7499.png,1.0,5.6536894,4.9501877,0.49745083
alexnet2023_baseline_pgd,1,378,NaN,elephant,dog,64-3-10,0378_eid_dnn_64-3-10_dog_10_n02100877_8862.png,n02100877_8862.png,0.0,0.07893772,2.1834865,-1.4881407
alexnet2023_baseline_pgd,1,379,NaN,keyboard,keyboard,2-3-10,0379_eid_dnn_2-3-10_keyboard_10_n03085013_7152.png,n03085013_7152.png,1.0,14.523819,4.992612,6.739581
alexnet2023_baseline_pgd,1,380,NaN,oven,bottle,32-3-10,0380_eid_dnn_32-3-10_bottle_10_n03937543_3344.png,n03937543_3344.png,0.0,0.4901526,2.4989223,-1.4204147
alexnet2023_baseline_pgd,1,381,NaN,elephant,bicycle,64-3-10,0381_eid_dnn_64-3-10_bicycle_10_n02835271_1721.png,n02835271_1721.png,0.0,0.0011008009,2.5683525,-1.8153211
alexnet2023_baseline_pgd,1,382,NaN,boat,boat,2-3-10,0382_eid_dnn_2-3-10_boat_10_n04273569_7039.png,n04273569_7039.png,1.0,10.370707,4.443681,4.19104
alexnet2023_baseline_pgd,1,383,NaN,airplane,airplane,1-3-10,0383_eid_dnn_1-3-10_airplane_10_n02690373_5790.png,n02690373_5790.png,1.0,15.462424,4.829836,7.5183754
alexnet2023_baseline_pgd,1,384,NaN,boat,bird,2-3-10,0384_eid_dnn_2-3-10_bird_10_n02007558_4629.png,n02007558_4629.png,0.0,3.0842154,6.1875315,-2.194376
alexnet2023_baseline_pgd,1,385,NaN,airplane,airplane,8-3-10,0385_eid_dnn_8-3-10_airplane_10_n02690373_2313.png,n02690373_2313.png,1.0,8.797734,4.2722864,3.199975
alexnet2023_baseline_pgd,1,386,NaN,car,car,2-3-10,0386_eid_dnn_2-3-10_car_10_n02814533_65093.png,n02814533_65093.png,1.0,15.479968,9.397224,4.3011494
alexnet2023_baseline_pgd,1,387,NaN,bicycle,bicycle,2-3-10,0387_eid_dnn_2-3-10_bicycle_10_n03792782_4559.png,n03792782_4559.png,1.0,8.5071335,1.6685119,4.8356357
alexnet2023_baseline_pgd,1,388,NaN,oven,oven,2-3-10,0388_eid_dnn_2-3-10_oven_10_n04111531_16696.png,n04111531_16696.png,1.0,12.673287,4.2832503,5.9326525
alexnet2023_baseline_pgd,1,389,NaN,elephant,boat,32-3-10,0389_eid_dnn_32-3-10_boat_10_n04273569_5593.png,n04273569_5593.png,0.0,-0.36933598,2.5355737,-2.0540812
alexnet2023_baseline_pgd,1,390,NaN,airplane,bottle,128-3-10,0390_eid_dnn_128-3-10_bottle_10_n03937543_6624.png,n03937543_6624.png,0.0,-0.011582928,1.8573997,-1.3215704
alexnet2023_baseline_pgd,1,391,NaN,airplane,airplane,1-3-10,0391_eid_dnn_1-3-10_airplane_10_n02690373_12436.png,n02690373_12436.png,1.0,18.616243,5.612462,9.195062
alexnet2023_baseline_pgd,1,392,NaN,bird,bird,2-3-10,0392_eid_dnn_2-3-10_bird_10_n01828970_6924.png,n01828970_6924.png,1.0,8.36645,2.1426618,4.400883
alexnet2023_baseline_pgd,1,393,NaN,airplane,airplane,4-3-10,0393_eid_dnn_4-3-10_airplane_10_n02690373_9605.png,n02690373_9605.png,1.0,12.635689,1.2241127,8.069203
alexnet2023_baseline_pgd,1,394,NaN,airplane,truck,128-3-10,0394_eid_dnn_128-3-10_truck_10_n03796401_1335.png,n03796401_1335.png,0.0,-2.4730577,1.7286832,-2.9710798
alexnet2023_baseline_pgd,1,395,NaN,cat,chair,64-3-10,0395_eid_dnn_64-3-10_chair_10_n04429376_10476.png,n04429376_10476.png,0.0,-2.0787952,1.4132422,-2.4692433
alexnet2023_baseline_pgd,1,396,NaN,bottle,bottle,1-3-10,0396_eid_dnn_1-3-10_bottle_10_n04560804_32760.png,n04560804_32760.png,1.0,8.172763,4.1428075,2.849609
alexnet2023_baseline_pgd,1,397,NaN,oven,airplane,32-3-10,0397_eid_dnn_32-3-10_airplane_10_n02690373_10817.png,n02690373_10817.png,0.0,1.1145959,2.50693,-0.98452896
alexnet2023_baseline_pgd,1,398,NaN,elephant,car,32-3-10,0398_eid_dnn_32-3-10_car_10_n03100240_5946.png,n03100240_5946.png,0.0,-1.5102926,2.8096967,-3.0546937
alexnet2023_baseline_pgd,1,399,NaN,bicycle,clock,64-3-10,0399_eid_dnn_64-3-10_clock_10_n02708093_2875.png,n02708093_2875.png,0.0,0.3833355,2.4890919,-1.4889946
alexnet2023_baseline_pgd,1,400,NaN,bear,bear,2-3-10,0400_eid_dnn_2-3-10_bear_10_n02133161_2456.png,n02133161_2456.png,1.0,9.561678,8.462496,0.77723914
alexnet2023_baseline_pgd,1,401,NaN,elephant,bird,8-3-10,0401_eid_dnn_8-3-10_bird_10_n01855672_15317.png,n01855672_15317.png,0.0,4.205304,4.4812937,-0.19515407
alexnet2023_baseline_pgd,1,402,NaN,dog,dog,8-3-10,0402_eid_dnn_8-3-10_dog_10_n02098286_2242.png,n02098286_2242.png,1.0,4.5092745,3.3311052,0.8330915
alexnet2023_baseline_pgd,1,403,NaN,knife,knife,2-3-10,0403_eid_dnn_2-3-10_knife_10_n03041632_43289.png,n03041632_43289.png,1.0,9.006895,4.275144,3.3458533
alexnet2023_baseline_pgd,1,404,NaN,bottle,bottle,4-3-10,0404_eid_dnn_4-3-10_bottle_10_n02823428_4387.png,n02823428_4387.png,1.0,9.793147,5.7599897,2.851873
alexnet2023_baseline_pgd,1,405,NaN,oven,knife,64-3-10,0405_eid_dnn_64-3-10_knife_10_n03041632_13194.png,n03041632_13194.png,0.0,1.1496013,2.1746063,-0.724788
alexnet2023_baseline_pgd,1,406,NaN,airplane,airplane,8-3-10,0406_eid_dnn_8-3-10_airplane_10_n02690373_7465.png,n02690373_7465.png,1.0,3.8987465,3.5678556,0.2339752
alexnet2023_baseline_pgd,1,407,NaN,boat,bird,4-3-10,0407_eid_dnn_4-3-10_bird_10_n02018207_2282.png,n02018207_2282.png,0.0,2.9590645,3.2237754,-0.18717888
alexnet2023_baseline_pgd,1,408,NaN,bear,chair,64-3-10,0408_eid_dnn_64-3-10_chair_10_n04099969_34351.png,n04099969_34351.png,0.0,-1.0710248,1.4022745,-1.7488867
alexnet2023_baseline_pgd,1,409,NaN,elephant,bottle,64-3-10,0409_eid_dnn_64-3-10_bottle_10_n03937543_49.png,n03937543_49.png,0.0,-0.32361072,1.6209326,-1.3749998
alexnet2023_baseline_pgd,1,410,NaN,elephant,bicycle,8-3-10,0410_eid_dnn_8-3-10_bicycle_10_n03792782_9833.png,n03792782_9833.png,0.0,2.9132967,4.244816,-0.94152623
alexnet2023_baseline_pgd,1,411,NaN,knife,clock,4-3-10,0411_eid_dnn_4-3-10_clock_10_n03196217_10384.png,n03196217_10384.png,0.0,3.5260255,8.530489,-3.5386899
alexnet2023_baseline_pgd,1,412,NaN,elephant,truck,64-3-10,0412_eid_dnn_64-3-10_truck_10_n04467665_4492.png,n04467665_4492.png,0.0,-1.5677257,1.8041961,-2.3843088
alexnet2023_baseline_pgd,1,413,NaN,clock,bottle,128-3-10,0413_eid_dnn_128-3-10_bottle_10_n03983396_5148.png,n03983396_5148.png,0.0,-0.33794728,0.8398502,-0.8328286
alexnet2023_baseline_pgd,1,414,NaN,dog,clock,128-3-10,0414_eid_dnn_128-3-10_clock_10_n04548280_4364.png,n04548280_4364.png,0.0,-0.35444424,0.95610446,-0.92669785
alexnet2023_baseline_pgd,1,415,NaN,cat,cat,1-3-10,0415_eid_dnn_1-3-10_cat_10_n02123394_6792.png,n02123394_6792.png,1.0,7.6742826,2.112038,3.9331007
alexnet2023_baseline_pgd,1,416,NaN,elephant,oven,16-3-10,0416_eid_dnn_16-3-10_oven_10_n04111531_1298.png,n04111531_1298.png,0.0,0.93291664,4.0349984,-2.1935031
alexnet2023_baseline_pgd,1,417,NaN,bottle,clock,8-3-10,0417_eid_dnn_8-3-10_clock_10_n04548280_2334.png,n04548280_2334.png,0.0,3.1760857,5.880173,-1.9120786
alexnet2023_baseline_pgd,1,418,NaN,oven,car,32-3-10,0418_eid_dnn_32-3-10_car_10_n04285008_15570.png,n04285008_15570.png,0.0,-2.013807,5.189892,-5.093785
alexnet2023_baseline_pgd,1,419,NaN,elephant,dog,32-3-10,0419_eid_dnn_32-3-10_dog_10_n02087394_7569.png,n02087394_7569.png,0.0,0.6349467,0.89425457,-0.18335836
alexnet2023_baseline_pgd,1,420,NaN,bicycle,clock,32-3-10,0420_eid_dnn_32-3-10_clock_10_n03196217_11445.png,n03196217_11445.png,0.0,-1.2185206,3.3382661,-3.2221348
alexnet2023_baseline_pgd,1,421,NaN,elephant,chair,32-3-10,0421_eid_dnn_32-3-10_chair_10_n04099969_3095.png,n04099969_3095.png,0.0,0.06117612,2.3790677,-1.6389968
alexnet2023_baseline_pgd,1,422,NaN,airplane,bird,64-3-10,0422_eid_dnn_64-3-10_bird_10_n01601694_935.png,n01601694_935.png,0.0,0.70290405,3.3025484,-1.8382262
alexnet2023_baseline_pgd,1,423,NaN,cat,bird,2-3-10,0423_eid_dnn_2-3-10_bird_10_n01592084_3570.png,n01592084_3570.png,0.0,2.613242,4.1685567,-1.0997736
alexnet2023_baseline_pgd,1,424,NaN,airplane,dog,64-3-10,0424_eid_dnn_64-3-10_dog_10_n02090379_605.png,n02090379_605.png,0.0,0.4835014,2.689347,-1.5597684
alexnet2023_baseline_pgd,1,425,NaN,airplane,airplane,1-3-10,0425_eid_dnn_1-3-10_airplane_10_n02690373_3912.png,n02690373_3912.png,1.0,19.153673,4.9695315,10.029702
alexnet2023_baseline_pgd,1,426,NaN,clock,oven,128-3-10,0426_eid_dnn_128-3-10_oven_10_n04111531_986.png,n04111531_986.png,0.0,-1.2080477,0.75456977,-1.3877802
alexnet2023_baseline_pgd,1,427,NaN,bear,knife,32-3-10,0427_eid_dnn_32-3-10_knife_10_n03041632_23736.png,n03041632_23736.png,0.0,-1.9412781,2.1530802,-2.8951488
alexnet2023_baseline_pgd,1,428,NaN,clock,clock,4-3-10,0428_eid_dnn_4-3-10_clock_10_n04548280_10686.png,n04548280_10686.png,1.0,1.8971301,1.8686432,0.020143328
alexnet2023_baseline_pgd,1,429,NaN,elephant,oven,32-3-10,0429_eid_dnn_32-3-10_oven_10_n04111531_21460.png,n04111531_21460.png,0.0,3.3686795,4.2064285,-0.592378
alexnet2023_baseline_pgd,1,430,NaN,elephant,bottle,32-3-10,0430_eid_dnn_32-3-10_bottle_10_n04557648_3675.png,n04557648_3675.png,0.0,-0.37500662,2.694193,-2.1702518
alexnet2023_baseline_pgd,1,431,NaN,bottle,chair,8-3-10,0431_eid_dnn_8-3-10_chair_10_n02791124_495.png,n02791124_495.png,0.0,-0.31729007,2.549598,-2.027196
alexnet2023_baseline_pgd,1,432,NaN,cat,chair,128-3-10,0432_eid_dnn_128-3-10_chair_10_n04429376_9165.png,n04429376_9165.png,0.0,-2.7844687,1.5378648,-3.0563512
alexnet2023_baseline_pgd,1,433,NaN,clock,clock,1-3-10,0433_eid_dnn_1-3-10_clock_10_n04548280_2937.png,n04548280_2937.png,1.0,9.876946,2.3682327,5.3094625
alexnet2023_baseline_pgd,1,434,NaN,bottle,bear,32-3-10,0434_eid_dnn_32-3-10_bear_10_n02134418_5849.png,n02134418_5849.png,0.0,0.4872153,1.2761918,-0.55789065
alexnet2023_baseline_pgd,1,435,NaN,oven,bottle,128-3-10,0435_eid_dnn_128-3-10_bottle_10_n04560804_2521.png,n04560804_2521.png,0.0,0.09133402,2.0247068,-1.3671011
alexnet2023_baseline_pgd,1,436,NaN,car,car,8-3-10,0436_eid_dnn_8-3-10_car_10_n04285008_11600.png,n04285008_11600.png,1.0,3.6244907,3.0642872,0.39612374
alexnet2023_baseline_pgd,1,437,NaN,knife,knife,2-3-10,0437_eid_dnn_2-3-10_knife_10_n03041632_79317.png,n03041632_79317.png,1.0,12.387826,2.6782875,6.8656807
alexnet2023_baseline_pgd,1,438,NaN,elephant,truck,32-3-10,0438_eid_dnn_32-3-10_truck_10_n03417042_6467.png,n03417042_6467.png,0.0,-1.1341993,3.219242,-3.078348
alexnet2023_baseline_pgd,1,439,NaN,bird,airplane,64-3-10,0439_eid_dnn_64-3-10_airplane_10_n02690373_303.png,n02690373_303.png,0.0,-1.6714535,2.0735474,-2.6481156
alexnet2023_baseline_pgd,1,440,NaN,bear,chair,64-3-10,0440_eid_dnn_64-3-10_chair_10_n04099969_2354.png,n04099969_2354.png,0.0,-0.96652627,1.84725,-1.9896404
alexnet2023_baseline_pgd,1,441,NaN,cat,clock,128-3-10,0441_eid_dnn_128-3-10_clock_10_n04548280_377.png,n04548280_377.png,0.0,0.6122847,3.0872314,-1.7500516
alexnet2023_baseline_pgd,1,442,NaN,airplane,bicycle,32-3-10,0442_eid_dnn_32-3-10_bicycle_10_n03792782_11597.png,n03792782_11597.png,0.0,-0.4528906,1.9263123,-1.6823505
alexnet2023_baseline_pgd,1,443,NaN,bottle,bottle,2-3-10,0443_eid_dnn_2-3-10_bottle_10_n04579145_215.png,n04579145_215.png,1.0,7.483972,1.4331381,4.2785854
alexnet2023_baseline_pgd,1,444,NaN,car,car,4-3-10,0444_eid_dnn_4-3-10_car_10_n02814533_95669.png,n02814533_95669.png,1.0,11.42627,6.100452,3.7659218
alexnet2023_baseline_pgd,1,445,NaN,elephant,chair,32-3-10,0445_eid_dnn_32-3-10_chair_10_n04429376_51025.png,n04429376_51025.png,0.0,-0.55354017,3.1885366,-2.646048
alexnet2023_baseline_pgd,1,446,NaN,cat,cat,4-3-10,0446_eid_dnn_4-3-10_cat_10_n02123045_2757.png,n02123045_2757.png,1.0,9.849559,4.406444,3.8488634
alexnet2023_baseline_pgd,1,447,NaN,knife,bottle,4-3-10,0447_eid_dnn_4-3-10_bottle_10_n03937543_2135.png,n03937543_2135.png,0.0,2.8775756,3.1250596,-0.1749976
alexnet2023_baseline_pgd,1,448,NaN,bird,bird,2-3-10,0448_eid_dnn_2-3-10_bird_10_n01855032_7457.png,n01855032_7457.png,1.0,6.104588,2.6083658,2.4722025
alexnet2023_baseline_pgd,1,449,NaN,elephant,car,16-3-10,0449_eid_dnn_16-3-10_car_10_n02814533_24935.png,n02814533_24935.png,0.0,-1.4062214,4.47053,-4.155491
alexnet2023_baseline_pgd,1,450,NaN,bottle,keyboard,4-3-10,0450_eid_dnn_4-3-10_keyboard_10_n04505470_1371.png,n04505470_1371.png,0.0,2.5692844,6.234288,-2.5915492
alexnet2023_baseline_pgd,1,451,NaN,bear,dog,16-3-10,0451_eid_dnn_16-3-10_dog_10_n02099267_2379.png,n02099267_2379.png,0.0,2.0063756,5.183967,-2.2468965
alexnet2023_baseline_pgd,1,452,NaN,cat,cat,8-3-10,0452_eid_dnn_8-3-10_cat_10_n02123394_8009.png,n02123394_8009.png,1.0,6.346203,3.7863164,1.8101131
alexnet2023_baseline_pgd,1,453,NaN,keyboard,keyboard,2-3-10,0453_eid_dnn_2-3-10_keyboard_10_n03085013_29042.png,n03085013_29042.png,1.0,6.5876923,4.8873763,1.202305
alexnet2023_baseline_pgd,1,454,NaN,airplane,airplane,128-3-10,0454_eid_dnn_128-3-10_airplane_10_n02690373_2131.png,n02690373_2131.png,1.0,2.1971915,0.7394192,1.0308007
alexnet2023_baseline_pgd,1,455,NaN,elephant,car,8-3-10,0455_eid_dnn_8-3-10_car_10_n03100240_327.png,n03100240_327.png,0.0,0.3671066,2.6453218,-1.6109414
alexnet2023_baseline_pgd,1,456,NaN,elephant,elephant,2-3-10,0456_eid_dnn_2-3-10_elephant_10_n02504458_4163.png,n02504458_4163.png,1.0,18.689747,7.01036,8.258574
alexnet2023_baseline_pgd,1,457,NaN,airplane,knife,1-3-10,0457_eid_dnn_1-3-10_knife_10_n03041632_9635.png,n03041632_9635.png,0.0,1.1715648,2.546058,-0.9719134
alexnet2023_baseline_pgd,1,458,NaN,elephant,airplane,16-3-10,0458_eid_dnn_16-3-10_airplane_10_n02690373_1044.png,n02690373_1044.png,0.0,-0.45191813,4.3218713,-3.3755789
alexnet2023_baseline_pgd,1,459,NaN,cat,bottle,16-3-10,0459_eid_dnn_16-3-10_bottle_10_n04560804_5441.png,n04560804_5441.png,0.0,0.85692155,1.472992,-0.43562755
alexnet2023_baseline_pgd,1,460,NaN,cat,cat,8-3-10,0460_eid_dnn_8-3-10_cat_10_n02123159_988.png,n02123159_988.png,1.0,4.804659,3.3274148,1.0445694
alexnet2023_baseline_pgd,1,461,NaN,dog,bird,64-3-10,0461_eid_dnn_64-3-10_bird_10_n01843383_4667.png,n01843383_4667.png,0.0,0.117589794,2.6750667,-1.8084093
alexnet2023_baseline_pgd,1,462,NaN,airplane,airplane,2-3-10,0462_eid_dnn_2-3-10_airplane_10_n02690373_6978.png,n02690373_6978.png,1.0,12.515365,5.422211,5.015617
alexnet2023_baseline_pgd,1,463,NaN,bird,chair,128-3-10,0463_eid_dnn_128-3-10_chair_10_n04099969_5901.png,n04099969_5901.png,0.0,-3.0090113,2.042525,-3.5719757
alexnet2023_baseline_pgd,1,464,NaN,elephant,truck,8-3-10,0464_eid_dnn_8-3-10_truck_10_n03417042_29849.png,n03417042_29849.png,0.0,0.1969411,9.867764,-6.8383045
alexnet2023_baseline_pgd,1,465,NaN,airplane,airplane,1-3-10,0465_eid_dnn_1-3-10_airplane_10_n02690373_427.png,n02690373_427.png,1.0,11.767997,5.1399817,4.6867146
alexnet2023_baseline_pgd,1,466,NaN,bottle,bottle,4-3-10,0466_eid_dnn_4-3-10_bottle_10_n03983396_2305.png,n03983396_2305.png,1.0,8.992889,2.7736053,4.397698
alexnet2023_baseline_pgd,1,467,NaN,knife,oven,64-3-10,0467_eid_dnn_64-3-10_oven_10_n04111531_15296.png,n04111531_15296.png,0.0,-0.8862171,0.8519083,-1.2290403
alexnet2023_baseline_pgd,1,468,NaN,cat,cat,4-3-10,0468_eid_dnn_4-3-10_cat_10_n02123159_6728.png,n02123159_6728.png,1.0,5.423614,3.2830029,1.5136406
alexnet2023_baseline_pgd,1,469,NaN,elephant,elephant,4-3-10,0469_eid_dnn_4-3-10_elephant_10_n02504458_12449.png,n02504458_12449.png,1.0,13.764377,7.5692177,4.380639
alexnet2023_baseline_pgd,1,470,NaN,bear,elephant,128-3-10,0470_eid_dnn_128-3-10_elephant_10_n02504458_12165.png,n02504458_12165.png,0.0,1.5479617,1.8113996,-0.1862787
alexnet2023_baseline_pgd,1,471,NaN,elephant,airplane,8-3-10,0471_eid_dnn_8-3-10_airplane_10_n02690373_5010.png,n02690373_5010.png,0.0,2.5733447,5.542988,-2.0998547
alexnet2023_baseline_pgd,1,472,NaN,elephant,dog,64-3-10,0472_eid_dnn_64-3-10_dog_10_n02100236_4549.png,n02100236_4549.png,0.0,0.4620148,1.2773521,-0.5765305
alexnet2023_baseline_pgd,1,473,NaN,boat,boat,4-3-10,0473_eid_dnn_4-3-10_boat_10_n03344393_4289.png,n03344393_4289.png,1.0,6.978237,6.2273245,0.53097546
alexnet2023_baseline_pgd,1,474,NaN,airplane,chair,64-3-10,0474_eid_dnn_64-3-10_chair_10_n04099969_48169.png,n04099969_48169.png,0.0,-0.68907535,2.1504498,-2.0078475
alexnet2023_baseline_pgd,1,475,NaN,airplane,airplane,4-3-10,0475_eid_dnn_4-3-10_airplane_10_n02690373_1996.png,n02690373_1996.png,1.0,11.442605,3.1659749,5.852462
alexnet2023_baseline_pgd,1,476,NaN,bird,truck,128-3-10,0476_eid_dnn_128-3-10_truck_10_n03417042_28078.png,n03417042_28078.png,0.0,-2.5082312,1.249635,-2.6572127
alexnet2023_baseline_pgd,1,477,NaN,elephant,truck,8-3-10,0477_eid_dnn_8-3-10_truck_10_n04467665_3098.png,n04467665_3098.png,0.0,1.2095246,2.2806687,-0.75741327
alexnet2023_baseline_pgd,1,478,NaN,elephant,elephant,4-3-10,0478_eid_dnn_4-3-10_elephant_10_n02504458_847.png,n02504458_847.png,1.0,14.166684,6.861307,5.165682
alexnet2023_baseline_pgd,1,479,NaN,oven,bicycle,8-3-10,0479_eid_dnn_8-3-10_bicycle_10_n03792782_5880.png,n03792782_5880.png,0.0,1.0291783,3.521338,-1.7622231
alexnet2023_baseline_pgd,1,480,NaN,airplane,bear,128-3-10,0480_eid_dnn_128-3-10_bear_10_n02132136_30976.png,n02132136_30976.png,0.0,0.8224694,1.3793869,-0.39380014
alexnet2023_baseline_pgd,1,481,NaN,elephant,chair,64-3-10,0481_eid_dnn_64-3-10_chair_10_n02791124_2057.png,n02791124_2057.png,0.0,-0.49291235,2.2623296,-1.9482503
alexnet2023_baseline_pgd,1,482,NaN,dog,keyboard,128-3-10,0482_eid_dnn_128-3-10_keyboard_10_n03085013_7286.png,n03085013_7286.png,0.0,-1.4528997,1.3006899,-1.9470819
alexnet2023_baseline_pgd,1,483,NaN,elephant,clock,32-3-10,0483_eid_dnn_32-3-10_clock_10_n04548280_1323.png,n04548280_1323.png,0.0,0.21881966,2.4248428,-1.559894
alexnet2023_baseline_pgd,1,484,NaN,cat,bottle,128-3-10,0484_eid_dnn_128-3-10_bottle_10_n03983396_18508.png,n03983396_18508.png,0.0,-0.9030305,0.7446301,-1.165072
alexnet2023_baseline_pgd,1,485,NaN,cat,bottle,8-3-10,0485_eid_dnn_8-3-10_bottle_10_n03983396_3880.png,n03983396_3880.png,0.0,2.4501684,3.9414527,-1.0544974
alexnet2023_baseline_pgd,1,486,NaN,cat,dog,128-3-10,0486_eid_dnn_128-3-10_dog_10_n02095570_601.png,n02095570_601.png,0.0,-0.15490744,1.511679,-1.1784546
alexnet2023_baseline_pgd,1,487,NaN,airplane,bird,32-3-10,0487_eid_dnn_32-3-10_bird_10_n01797886_21510.png,n01797886_21510.png,0.0,1.5600464,2.9024944,-0.9492541
alexnet2023_baseline_pgd,1,488,NaN,chair,chair,1-3-10,0488_eid_dnn_1-3-10_chair_10_n04099969_9425.png,n04099969_9425.png,1.0,8.303564,4.3688083,2.7822926
alexnet2023_baseline_pgd,1,489,NaN,elephant,keyboard,8-3-10,0489_eid_dnn_8-3-10_keyboard_10_n04505470_4228.png,n04505470_4228.png,0.0,-0.9810379,1.5387818,-1.7817817
alexnet2023_baseline_pgd,1,490,NaN,elephant,elephant,32-3-10,0490_eid_dnn_32-3-10_elephant_10_n02504013_7553.png,n02504013_7553.png,1.0,3.0158043,1.8816103,0.8019963
alexnet2023_baseline_pgd,1,491,NaN,airplane,cat,64-3-10,0491_eid_dnn_64-3-10_cat_10_n02125311_8090.png,n02125311_8090.png,0.0,-1.2301308,2.8424387,-2.8797414
alexnet2023_baseline_pgd,1,492,NaN,oven,keyboard,8-3-10,0492_eid_dnn_8-3-10_keyboard_10_n04505470_10041.png,n04505470_10041.png,0.0,-0.6949934,3.4164326,-2.9072173
alexnet2023_baseline_pgd,1,493,NaN,bicycle,bicycle,4-3-10,0493_eid_dnn_4-3-10_bicycle_10_n03792782_1833.png,n03792782_1833.png,1.0,4.9959717,1.9806792,2.132134
alexnet2023_baseline_pgd,1,494,NaN,bottle,bottle,4-3-10,0494_eid_dnn_4-3-10_bottle_10_n04557648_11642.png,n04557648_11642.png,1.0,4.890892,4.034023,0.605898
alexnet2023_baseline_pgd,1,495,NaN,cat,car,128-3-10,0495_eid_dnn_128-3-10_car_10_n03100240_7219.png,n03100240_7219.png,0.0,-2.490043,2.938778,-3.8387558
alexnet2023_baseline_pgd,1,496,NaN,truck,truck,1-3-10,0496_eid_dnn_1-3-10_truck_10_n03796401_9642.png,n03796401_9642.png,1.0,16.787594,13.797362,2.114413
alexnet2023_baseline_pgd,1,497,NaN,bear,cat,1-3-10,0497_eid_dnn_1-3-10_cat_10_n02125311_13348.png,n02125311_13348.png,0.0,-0.0500292,2.687632,-1.9358189
alexnet2023_baseline_pgd,1,498,NaN,bird,bottle,128-3-10,0498_eid_dnn_128-3-10_bottle_10_n04560804_5540.png,n04560804_5540.png,0.0,-0.15428224,0.54989564,-0.49792895
alexnet2023_baseline_pgd,1,499,NaN,bottle,bottle,4-3-10,0499_eid_dnn_4-3-10_bottle_10_n03983396_9604.png,n03983396_9604.png,1.0,8.357867,2.9936528,3.7930725
alexnet2023_baseline_pgd,1,500,NaN,airplane,truck,32-3-10,0500_eid_dnn_32-3-10_truck_10_n03417042_5180.png,n03417042_5180.png,0.0,0.37699747,3.8903728,-2.4843316
alexnet2023_baseline_pgd,1,501,NaN,bear,dog,16-3-10,0501_eid_dnn_16-3-10_dog_10_n02109525_3364.png,n02109525_3364.png,0.0,1.6733218,2.6406457,-0.6840013
alexnet2023_baseline_pgd,1,502,NaN,bottle,clock,2-3-10,0502_eid_dnn_2-3-10_clock_10_n04548280_353.png,n04548280_353.png,0.0,5.2211843,6.68895,-1.0378672
alexnet2023_baseline_pgd,1,503,NaN,dog,dog,1-3-10,0503_eid_dnn_1-3-10_dog_10_n02111129_4423.png,n02111129_4423.png,1.0,4.7773952,3.9474137,0.58688563
alexnet2023_baseline_pgd,1,504,NaN,elephant,dog,16-3-10,0504_eid_dnn_16-3-10_dog_10_n02108000_1538.png,n02108000_1538.png,0.0,0.033300772,1.5786896,-1.092755
alexnet2023_baseline_pgd,1,505,NaN,elephant,keyboard,16-3-10,0505_eid_dnn_16-3-10_keyboard_10_n03085013_3439.png,n03085013_3439.png,0.0,-3.3792987,2.1749918,-3.9274766
alexnet2023_baseline_pgd,1,506,NaN,elephant,truck,8-3-10,0506_eid_dnn_8-3-10_truck_10_n03417042_4016.png,n03417042_4016.png,0.0,2.564382,5.303464,-1.9368234
alexnet2023_baseline_pgd,1,507,NaN,oven,knife,32-3-10,0507_eid_dnn_32-3-10_knife_10_n03041632_39883.png,n03041632_39883.png,0.0,-0.22183928,3.374911,-2.5432866
alexnet2023_baseline_pgd,1,508,NaN,elephant,bear,16-3-10,0508_eid_dnn_16-3-10_bear_10_n02132136_21181.png,n02132136_21181.png,0.0,1.4969794,2.9570913,-1.0324551
alexnet2023_baseline_pgd,1,509,NaN,elephant,elephant,8-3-10,0509_eid_dnn_8-3-10_elephant_10_n02504013_718.png,n02504013_718.png,1.0,11.464773,5.0431757,4.5407553
alexnet2023_baseline_pgd,1,510,NaN,oven,oven,2-3-10,0510_eid_dnn_2-3-10_oven_10_n04111531_4146.png,n04111531_4146.png,1.0,14.286166,5.335956,6.328755
alexnet2023_baseline_pgd,1,511,NaN,airplane,airplane,8-3-10,0511_eid_dnn_8-3-10_airplane_10_n02690373_10769.png,n02690373_10769.png,1.0,6.6332273,4.6310797,1.4157323
alexnet2023_baseline_pgd,1,512,NaN,bear,dog,16-3-10,0512_eid_dnn_16-3-10_dog_10_n02109525_4516.png,n02109525_4516.png,0.0,4.0294394,4.059598,-0.021325294
alexnet2023_baseline_pgd,1,513,NaN,elephant,boat,4-3-10,0513_eid_dnn_4-3-10_boat_10_n02951358_12333.png,n02951358_12333.png,0.0,5.0123324,6.603692,-1.1252612
alexnet2023_baseline_pgd,1,514,NaN,oven,chair,8-3-10,0514_eid_dnn_8-3-10_chair_10_n04099969_20421.png,n04099969_20421.png,0.0,-0.094978765,3.9568357,-2.8650656
alexnet2023_baseline_pgd,1,515,NaN,elephant,knife,4-3-10,0515_eid_dnn_4-3-10_knife_10_n03041632_21165.png,n03041632_21165.png,0.0,1.2671953,2.3041978,-0.7332715
alexnet2023_baseline_pgd,1,516,NaN,bicycle,bicycle,1-3-10,0516_eid_dnn_1-3-10_bicycle_10_n02835271_21439.png,n02835271_21439.png,1.0,7.0838947,2.742721,3.0696733
alexnet2023_baseline_pgd,1,517,NaN,boat,boat,1-3-10,0517_eid_dnn_1-3-10_boat_10_n04273569_24526.png,n04273569_24526.png,1.0,8.791757,7.2577,1.0847418
alexnet2023_baseline_pgd,1,518,NaN,bear,bottle,32-3-10,0518_eid_dnn_32-3-10_bottle_10_n04579145_2276.png,n04579145_2276.png,0.0,0.057868533,1.3618739,-0.92207104
alexnet2023_baseline_pgd,1,519,NaN,bear,bear,8-3-10,0519_eid_dnn_8-3-10_bear_10_n02134418_1642.png,n02134418_1642.png,1.0,4.137268,2.5096092,1.1509286
alexnet2023_baseline_pgd,1,520,NaN,bicycle,bicycle,1-3-10,0520_eid_dnn_1-3-10_bicycle_10_n02835271_15468.png,n02835271_15468.png,1.0,18.017849,1.5477394,11.646127
alexnet2023_baseline_pgd,1,521,NaN,elephant,keyboard,64-3-10,0521_eid_dnn_64-3-10_keyboard_10_n03085013_26532.png,n03085013_26532.png,0.0,-2.6585534,0.6876221,-2.3661034
alexnet2023_baseline_pgd,1,522,NaN,airplane,clock,64-3-10,0522_eid_dnn_64-3-10_clock_10_n03196217_6809.png,n03196217_6809.png,0.0,-0.46913818,2.462444,-2.0729418
alexnet2023_baseline_pgd,1,523,NaN,airplane,bear,64-3-10,0523_eid_dnn_64-3-10_bear_10_n02134418_4384.png,n02134418_4384.png,0.0,0.58036834,2.344145,-1.2471786
alexnet2023_baseline_pgd,1,524,NaN,dog,dog,4-3-10,0524_eid_dnn_4-3-10_dog_10_n02086240_1183.png,n02086240_1183.png,1.0,5.293153,3.6192505,1.1836277
alexnet2023_baseline_pgd,1,525,NaN,chair,chair,1-3-10,0525_eid_dnn_1-3-10_chair_10_n04429376_294.png,n04429376_294.png,1.0,2.1933947,1.1176668,0.76065445
alexnet2023_baseline_pgd,1,526,NaN,oven,clock,64-3-10,0526_eid_dnn_64-3-10_clock_10_n02708093_4893.png,n02708093_4893.png,0.0,-0.3142388,1.2859846,-1.1315289
alexnet2023_baseline_pgd,1,527,NaN,knife,keyboard,64-3-10,0527_eid_dnn_64-3-10_keyboard_10_n03085013_3098.png,n03085013_3098.png,0.0,-3.4745598,0.61953235,-2.8949606
alexnet2023_baseline_pgd,1,528,NaN,elephant,cat,16-3-10,0528_eid_dnn_16-3-10_cat_10_n02125311_22073.png,n02125311_22073.png,0.0,0.071190394,4.9872146,-3.476154
alexnet2023_baseline_pgd,1,529,NaN,elephant,bird,2-3-10,0529_eid_dnn_2-3-10_bird_10_n01558993_869.png,n01558993_869.png,0.0,-0.32962635,1.0287104,-0.9604891
alexnet2023_baseline_pgd,1,530,NaN,bird,bird,1-3-10,0530_eid_dnn_1-3-10_bird_10_n01817953_8025.png,n01817953_8025.png,1.0,7.055992,4.699101,1.6665738
alexnet2023_baseline_pgd,1,531,NaN,chair,chair,2-3-10,0531_eid_dnn_2-3-10_chair_10_n04099969_24235.png,n04099969_24235.png,1.0,5.786471,3.6261148,1.5276024
alexnet2023_baseline_pgd,1,532,NaN,knife,knife,128-3-10,0532_eid_dnn_128-3-10_knife_10_n03041632_1201.png,n03041632_1201.png,1.0,1.5434244,1.1302983,0.29212427
alexnet2023_baseline_pgd,1,533,NaN,oven,bicycle,4-3-10,0533_eid_dnn_4-3-10_bicycle_10_n03792782_16212.png,n03792782_16212.png,0.0,0.6061281,3.5276623,-2.0658367
alexnet2023_baseline_pgd,1,534,NaN,oven,oven,4-3-10,0534_eid_dnn_4-3-10_oven_10_n04111531_11655.png,n04111531_11655.png,1.0,5.411839,3.5816324,1.2941515
alexnet2023_baseline_pgd,1,535,NaN,elephant,bicycle,16-3-10,0535_eid_dnn_16-3-10_bicycle_10_n02835271_5152.png,n02835271_5152.png,0.0,-0.67919433,3.5862122,-3.016098
alexnet2023_baseline_pgd,1,536,NaN,elephant,bear,16-3-10,0536_eid_dnn_16-3-10_bear_10_n02132136_19290.png,n02132136_19290.png,0.0,0.35932216,1.4920901,-0.8009879
alexnet2023_baseline_pgd,1,537,NaN,elephant,car,32-3-10,0537_eid_dnn_32-3-10_car_10_n03100240_6103.png,n03100240_6103.png,0.0,-1.6345516,2.8835168,-3.1947567
alexnet2023_baseline_pgd,1,538,NaN,bird,airplane,16-3-10,0538_eid_dnn_16-3-10_airplane_10_n02690373_5714.png,n02690373_5714.png,0.0,0.9828596,3.4415264,-1.73854
alexnet2023_baseline_pgd,1,539,NaN,chair,chair,1-3-10,0539_eid_dnn_1-3-10_chair_10_n04429376_2915.png,n04429376_2915.png,1.0,5.3676734,4.673897,0.49057415
alexnet2023_baseline_pgd,1,540,NaN,bottle,clock,64-3-10,0540_eid_dnn_64-3-10_clock_10_n02708093_7827.png,n02708093_7827.png,0.0,0.38942719,1.4026299,-0.71644247
alexnet2023_baseline_pgd,1,541,NaN,truck,truck,2-3-10,0541_eid_dnn_2-3-10_truck_10_n03417042_6247.png,n03417042_6247.png,1.0,5.0233836,4.502177,0.3685489
alexnet2023_baseline_pgd,1,542,NaN,elephant,elephant,32-3-10,0542_eid_dnn_32-3-10_elephant_10_n02504013_947.png,n02504013_947.png,1.0,2.000549,1.0473452,0.67401695
alexnet2023_baseline_pgd,1,543,NaN,truck,truck,1-3-10,0543_eid_dnn_1-3-10_truck_10_n03417042_2074.png,n03417042_2074.png,1.0,14.152637,10.610171,2.5049012
alexnet2023_baseline_pgd,1,544,NaN,elephant,airplane,8-3-10,0544_eid_dnn_8-3-10_airplane_10_n02690373_5221.png,n02690373_5221.png,0.0,4.323094,5.9270887,-1.1341957
alexnet2023_baseline_pgd,1,545,NaN,knife,oven,4-3-10,0545_eid_dnn_4-3-10_oven_10_n04111531_6629.png,n04111531_6629.png,0.0,3.6660457,3.8380694,-0.12163918
alexnet2023_baseline_pgd,1,546,NaN,knife,knife,1-3-10,0546_eid_dnn_1-3-10_knife_10_n03041632_36277.png,n03041632_36277.png,1.0,11.192936,2.8364682,5.9089155
alexnet2023_baseline_pgd,1,547,NaN,cat,cat,64-3-10,0547_eid_dnn_64-3-10_cat_10_n02123597_4700.png,n02123597_4700.png,1.0,1.2350475,1.0461982,0.13353656
alexnet2023_baseline_pgd,1,548,NaN,elephant,airplane,16-3-10,0548_eid_dnn_16-3-10_airplane_10_n02690373_20042.png,n02690373_20042.png,0.0,0.90625757,5.1424427,-2.9954352
alexnet2023_baseline_pgd,1,549,NaN,bear,chair,32-3-10,0549_eid_dnn_32-3-10_chair_10_n02791124_15539.png,n02791124_15539.png,0.0,-0.4788063,3.078352,-2.5152907
alexnet2023_baseline_pgd,1,550,NaN,cat,cat,1-3-10,0550_eid_dnn_1-3-10_cat_10_n02123394_5700.png,n02123394_5700.png,1.0,6.064766,4.0189986,1.446576
alexnet2023_baseline_pgd,1,551,NaN,car,car,4-3-10,0551_eid_dnn_4-3-10_car_10_n04285008_13595.png,n04285008_13595.png,1.0,10.886477,4.3388157,4.629896
alexnet2023_baseline_pgd,1,552,NaN,elephant,chair,8-3-10,0552_eid_dnn_8-3-10_chair_10_n02791124_2282.png,n02791124_2282.png,0.0,-0.057860777,3.098058,-2.2315717
alexnet2023_baseline_pgd,1,553,NaN,elephant,dog,2-3-10,0553_eid_dnn_2-3-10_dog_10_n02100877_3973.png,n02100877_3973.png,0.0,4.6209784,6.700295,-1.4702989
alexnet2023_baseline_pgd,1,554,NaN,elephant,truck,64-3-10,0554_eid_dnn_64-3-10_truck_10_n03417042_12297.png,n03417042_12297.png,0.0,-2.4314666,1.0465097,-2.4593008
alexnet2023_baseline_pgd,1,555,NaN,elephant,elephant,8-3-10,0555_eid_dnn_8-3-10_elephant_10_n02504013_6303.png,n02504013_6303.png,1.0,6.0047975,4.458923,1.0930984
alexnet2023_baseline_pgd,1,556,NaN,car,car,8-3-10,0556_eid_dnn_8-3-10_car_10_n02814533_43990.png,n02814533_43990.png,1.0,4.1423554,4.1166987,0.018142028
alexnet2023_baseline_pgd,1,557,NaN,bear,truck,16-3-10,0557_eid_dnn_16-3-10_truck_10_n04467665_58456.png,n04467665_58456.png,0.0,-1.8961674,3.8641095,-4.073131
alexnet2023_baseline_pgd,1,558,NaN,cat,dog,4-3-10,0558_eid_dnn_4-3-10_dog_10_n02098105_526.png,n02098105_526.png,0.0,2.8497636,3.6197402,-0.5444557
alexnet2023_baseline_pgd,1,559,NaN,bird,bird,2-3-10,0559_eid_dnn_2-3-10_bird_10_n02037110_27907.png,n02037110_27907.png,1.0,5.848957,1.27975,3.2309175
alexnet2023_baseline_pgd,1,560,NaN,cat,keyboard,64-3-10,0560_eid_dnn_64-3-10_keyboard_10_n03085013_20849.png,n03085013_20849.png,0.0,-1.9008472,1.5876406,-2.4667335
alexnet2023_baseline_pgd,1,561,NaN,chair,chair,1-3-10,0561_eid_dnn_1-3-10_chair_10_n03376595_12524.png,n03376595_12524.png,1.0,9.169743,2.5980742,4.6468716
alexnet2023_baseline_pgd,1,562,NaN,oven,bird,64-3-10,0562_eid_dnn_64-3-10_bird_10_n02056570_27055.png,n02056570_27055.png,0.0,0.29110524,2.5112364,-1.5698699
alexnet2023_baseline_pgd,1,563,NaN,bicycle,truck,64-3-10,0563_eid_dnn_64-3-10_truck_10_n03417042_4934.png,n03417042_4934.png,0.0,0.23580162,1.9535642,-1.2146416
alexnet2023_baseline_pgd,1,564,NaN,elephant,knife,16-3-10,0564_eid_dnn_16-3-10_knife_10_n03041632_3210.png,n03041632_3210.png,0.0,1.189679,3.5906115,-1.6977155
alexnet2023_baseline_pgd,1,565,NaN,cat,dog,8-3-10,0565_eid_dnn_8-3-10_dog_10_n02096585_2118.png,n02096585_2118.png,0.0,2.5786881,3.411492,-0.5888813
alexnet2023_baseline_pgd,1,566,NaN,keyboard,keyboard,1-3-10,0566_eid_dnn_1-3-10_keyboard_10_n03085013_3539.png,n03085013_3539.png,1.0,14.034372,4.2130055,6.9447556
alexnet2023_baseline_pgd,1,567,NaN,truck,truck,4-3-10,0567_eid_dnn_4-3-10_truck_10_n03417042_17215.png,n03417042_17215.png,1.0,8.099284,5.344305,1.9480644
alexnet2023_baseline_pgd,1,568,NaN,cat,cat,8-3-10,0568_eid_dnn_8-3-10_cat_10_n02123045_12657.png,n02123045_12657.png,1.0,2.5352676,2.1288452,0.28738403
alexnet2023_baseline_pgd,1,569,NaN,oven,knife,64-3-10,0569_eid_dnn_64-3-10_knife_10_n03041632_20576.png,n03041632_20576.png,0.0,-0.9438173,2.4652567,-2.4105794
alexnet2023_baseline_pgd,1,570,NaN,elephant,truck,8-3-10,0570_eid_dnn_8-3-10_truck_10_n04467665_23905.png,n04467665_23905.png,0.0,2.0888226,4.8782964,-1.9724559
alexnet2023_baseline_pgd,1,571,NaN,cat,oven,128-3-10,0571_eid_dnn_128-3-10_oven_10_n04111531_9427.png,n04111531_9427.png,0.0,0.96297807,1.8783025,-0.6472321
alexnet2023_baseline_pgd,1,572,NaN,bear,oven,16-3-10,0572_eid_dnn_16-3-10_oven_10_n04111531_14329.png,n04111531_14329.png,0.0,1.6264575,1.9588641,-0.235047
alexnet2023_baseline_pgd,1,573,NaN,cat,bird,64-3-10,0573_eid_dnn_64-3-10_bird_10_n01614925_19422.png,n01614925_19422.png,0.0,-0.41587943,2.7519677,-2.2400062
alexnet2023_baseline_pgd,1,574,NaN,bird,bottle,128-3-10,0574_eid_dnn_128-3-10_bottle_10_n02823428_1154.png,n02823428_1154.png,0.0,-0.86945003,1.9084787,-1.9642923
alexnet2023_baseline_pgd,1,575,NaN,dog,dog,4-3-10,0575_eid_dnn_4-3-10_dog_10_n02093859_4797.png,n02093859_4797.png,1.0,4.8461637,3.9524038,0.63198376
alexnet2023_baseline_pgd,1,576,NaN,airplane,airplane,1-3-10,0576_eid_dnn_1-3-10_airplane_10_n02690373_2632.png,n02690373_2632.png,1.0,17.631882,8.889338,6.1819124
alexnet2023_baseline_pgd,1,577,NaN,bear,keyboard,32-3-10,0577_eid_dnn_32-3-10_keyboard_10_n03085013_15825.png,n03085013_15825.png,0.0,-1.2858917,2.143139,-2.4246907
alexnet2023_baseline_pgd,1,578,NaN,car,car,4-3-10,0578_eid_dnn_4-3-10_car_10_n02814533_52674.png,n02814533_52674.png,1.0,13.214498,6.7449684,4.574648
alexnet2023_baseline_pgd,1,579,NaN,bear,truck,32-3-10,0579_eid_dnn_32-3-10_truck_10_n04467665_32937.png,n04467665_32937.png,0.0,-2.8707488,3.3011427,-4.3641863
alexnet2023_baseline_pgd,1,580,NaN,oven,bird,4-3-10,0580_eid_dnn_4-3-10_bird_10_n01537544_20.png,n01537544_20.png,0.0,3.1233532,3.656342,-0.37688
alexnet2023_baseline_pgd,1,581,NaN,bear,clock,8-3-10,0581_eid_dnn_8-3-10_clock_10_n03196217_564.png,n03196217_564.png,0.0,0.7954604,2.7921705,-1.4118873
alexnet2023_baseline_pgd,1,582,NaN,knife,knife,1-3-10,0582_eid_dnn_1-3-10_knife_10_n03041632_76163.png,n03041632_76163.png,1.0,3.578994,2.7113438,0.6135214
alexnet2023_baseline_pgd,1,583,NaN,elephant,airplane,32-3-10,0583_eid_dnn_32-3-10_airplane_10_n02690373_8559.png,n02690373_8559.png,0.0,-2.1703753,2.6639066,-3.4183536
alexnet2023_baseline_pgd,1,584,NaN,keyboard,keyboard,2-3-10,0584_eid_dnn_2-3-10_keyboard_10_n04505470_3941.png,n04505470_3941.png,1.0,15.84799,4.429272,8.074253
alexnet2023_baseline_pgd,1,585,NaN,airplane,oven,64-3-10,0585_eid_dnn_64-3-10_oven_10_n04111531_9910.png,n04111531_9910.png,0.0,-0.5485061,1.8471844,-1.694009
alexnet2023_baseline_pgd,1,586,NaN,elephant,bottle,128-3-10,0586_eid_dnn_128-3-10_bottle_10_n03937543_7191.png,n03937543_7191.png,0.0,-1.1957136,1.6561549,-2.0165756
alexnet2023_baseline_pgd,1,587,NaN,boat,boat,4-3-10,0587_eid_dnn_4-3-10_boat_10_n03662601_14818.png,n03662601_14818.png,1.0,5.178263,2.8489726,1.6470572
alexnet2023_baseline_pgd,1,588,NaN,cat,boat,128-3-10,0588_eid_dnn_128-3-10_boat_10_n02951358_588.png,n02951358_588.png,0.0,-1.4594791,0.7499606,-1.5623099
alexnet2023_baseline_pgd,1,589,NaN,bear,bear,1-3-10,0589_eid_dnn_1-3-10_bear_10_n02133161_2851.png,n02133161_2851.png,1.0,10.152089,9.216511,0.6615538
alexnet2023_baseline_pgd,1,590,NaN,chair,chair,2-3-10,0590_eid_dnn_2-3-10_chair_10_n03376595_16212.png,n03376595_16212.png,1.0,6.6619053,6.0550833,0.42908797
alexnet2023_baseline_pgd,1,591,NaN,elephant,boat,8-3-10,0591_eid_dnn_8-3-10_boat_10_n04612504_1613.png,n04612504_1613.png,0.0,2.3232274,3.389306,-0.75383145
alexnet2023_baseline_pgd,1,592,NaN,elephant,chair,128-3-10,0592_eid_dnn_128-3-10_chair_10_n02791124_3198.png,n02791124_3198.png,0.0,-2.027358,1.2371266,-2.3083394
alexnet2023_baseline_pgd,1,593,NaN,knife,knife,16-3-10,0593_eid_dnn_16-3-10_knife_10_n03041632_32785.png,n03041632_32785.png,1.0,2.6494076,2.1517274,0.35191303
alexnet2023_baseline_pgd,1,594,NaN,elephant,oven,32-3-10,0594_eid_dnn_32-3-10_oven_10_n04111531_22797.png,n04111531_22797.png,0.0,0.81403303,1.106777,-0.20700121
alexnet2023_baseline_pgd,1,595,NaN,cat,oven,128-3-10,0595_eid_dnn_128-3-10_oven_10_n04111531_5077.png,n04111531_5077.png,0.0,-0.15459451,1.4930334,-1.165049
alexnet2023_baseline_pgd,1,596,NaN,bear,bear,1-3-10,0596_eid_dnn_1-3-10_bear_10_n02134418_2569.png,n02134418_2569.png,1.0,6.517769,6.326098,0.1355318
alexnet2023_baseline_pgd,1,597,NaN,car,car,1-3-10,0597_eid_dnn_1-3-10_car_10_n03100240_15284.png,n03100240_15284.png,1.0,10.878986,6.0665064,3.4029372
alexnet2023_baseline_pgd,1,598,NaN,keyboard,keyboard,2-3-10,0598_eid_dnn_2-3-10_keyboard_10_n04505470_4791.png,n04505470_4791.png,1.0,13.267359,6.427023,4.836848
alexnet2023_baseline_pgd,1,599,NaN,airplane,bicycle,64-3-10,0599_eid_dnn_64-3-10_bicycle_10_n03792782_551.png,n03792782_551.png,0.0,0.18686134,2.5423343,-1.665571
alexnet2023_baseline_pgd,1,600,NaN,bottle,bottle,1-3-10,0600_eid_dnn_1-3-10_bottle_10_n03937543_2999.png,n03937543_2999.png,1.0,4.0983963,2.2197633,1.3283942
alexnet2023_baseline_pgd,1,601,NaN,elephant,airplane,16-3-10,0601_eid_dnn_16-3-10_airplane_10_n02690373_7279.png,n02690373_7279.png,0.0,0.13414398,2.1206822,-1.4046947
alexnet2023_baseline_pgd,1,602,NaN,bear,airplane,128-3-10,0602_eid_dnn_128-3-10_airplane_10_n02690373_9312.png,n02690373_9312.png,0.0,0.387476,1.354707,-0.68393564
alexnet2023_baseline_pgd,1,603,NaN,dog,chair,8-3-10,0603_eid_dnn_8-3-10_chair_10_n04429376_2591.png,n04429376_2591.png,0.0,-2.6303115,2.9170132,-3.922551
alexnet2023_baseline_pgd,1,604,NaN,elephant,dog,32-3-10,0604_eid_dnn_32-3-10_dog_10_n02109525_175.png,n02109525_175.png,0.0,0.71234924,3.2294183,-1.7798367
alexnet2023_baseline_pgd,1,605,NaN,dog,dog,1-3-10,0605_eid_dnn_1-3-10_dog_10_n02106166_476.png,n02106166_476.png,1.0,3.6491034,3.3409297,0.21791169
alexnet2023_baseline_pgd,1,606,NaN,boat,boat,1-3-10,0606_eid_dnn_1-3-10_boat_10_n02951358_1136.png,n02951358_1136.png,1.0,6.4345145,3.808003,1.8572242
alexnet2023_baseline_pgd,1,607,NaN,elephant,knife,2-3-10,0607_eid_dnn_2-3-10_knife_10_n03041632_3079.png,n03041632_3079.png,0.0,1.182677,4.1934366,-2.1289287
alexnet2023_baseline_pgd,1,608,NaN,cat,truck,128-3-10,0608_eid_dnn_128-3-10_truck_10_n03417042_18603.png,n03417042_18603.png,0.0,-2.2112248,1.428914,-2.5739667
alexnet2023_baseline_pgd,1,609,NaN,oven,cat,128-3-10,0609_eid_dnn_128-3-10_cat_10_n02123045_9492.png,n02123045_9492.png,0.0,-0.07478154,1.5672975,-1.1611252
alexnet2023_baseline_pgd,1,610,NaN,airplane,boat,64-3-10,0610_eid_dnn_64-3-10_boat_10_n03344393_8642.png,n03344393_8642.png,0.0,-0.9459263,2.3522446,-2.332159
alexnet2023_baseline_pgd,1,611,NaN,airplane,bird,32-3-10,0611_eid_dnn_32-3-10_bird_10_n02009229_6228.png,n02009229_6228.png,0.0,-0.11050395,4.591434,-3.3247724
alexnet2023_baseline_pgd,1,612,NaN,oven,chair,8-3-10,0612_eid_dnn_8-3-10_chair_10_n02791124_13704.png,n02791124_13704.png,0.0,-0.3452891,3.3040872,-2.580499
alexnet2023_baseline_pgd,1,613,NaN,clock,knife,64-3-10,0613_eid_dnn_64-3-10_knife_10_n03041632_28129.png,n03041632_28129.png,0.0,0.5390551,0.73971575,-0.1418885
alexnet2023_baseline_pgd,1,614,NaN,elephant,keyboard,32-3-10,0614_eid_dnn_32-3-10_keyboard_10_n04505470_8244.png,n04505470_8244.png,0.0,-2.672285,5.1847916,-5.5557923
alexnet2023_baseline_pgd,1,615,NaN,knife,knife,4-3-10,0615_eid_dnn_4-3-10_knife_10_n03041632_30196.png,n03041632_30196.png,1.0,2.6013865,2.5132713,0.062306866
alexnet2023_baseline_pgd,1,616,NaN,dog,keyboard,32-3-10,0616_eid_dnn_32-3-10_keyboard_10_n04505470_5109.png,n04505470_5109.png,0.0,-2.8324163,0.4990669,-2.3557143
alexnet2023_baseline_pgd,1,617,NaN,knife,knife,8-3-10,0617_eid_dnn_8-3-10_knife_10_n03041632_44738.png,n03041632_44738.png,1.0,7.1727614,4.3960595,1.9634248
alexnet2023_baseline_pgd,1,618,NaN,car,car,1-3-10,0618_eid_dnn_1-3-10_car_10_n02814533_4726.png,n02814533_4726.png,1.0,13.976157,11.355984,1.8527424
alexnet2023_baseline_pgd,1,619,NaN,elephant,elephant,2-3-10,0619_eid_dnn_2-3-10_elephant_10_n02504458_13583.png,n02504458_13583.png,1.0,18.938202,8.755352,7.200362
alexnet2023_baseline_pgd,1,620,NaN,boat,boat,1-3-10,0620_eid_dnn_1-3-10_boat_10_n03662601_26396.png,n03662601_26396.png,1.0,14.312955,6.3754334,5.612675
alexnet2023_baseline_pgd,1,621,NaN,boat,boat,4-3-10,0621_eid_dnn_4-3-10_boat_10_n04273569_4518.png,n04273569_4518.png,1.0,6.045751,5.941667,0.07359851
alexnet2023_baseline_pgd,1,622,NaN,elephant,bird,16-3-10,0622_eid_dnn_16-3-10_bird_10_n01843383_3274.png,n01843383_3274.png,0.0,2.0924735,5.7439475,-2.5819821
alexnet2023_baseline_pgd,1,623,NaN,elephant,clock,16-3-10,0623_eid_dnn_16-3-10_clock_10_n02708093_3621.png,n02708093_3621.png,0.0,-0.35516223,4.297166,-3.2896926
alexnet2023_baseline_pgd,1,624,NaN,elephant,boat,16-3-10,0624_eid_dnn_16-3-10_boat_10_n02951358_1360.png,n02951358_1360.png,0.0,0.56596905,4.348876,-2.6749191
alexnet2023_baseline_pgd,1,625,NaN,keyboard,keyboard,4-3-10,0625_eid_dnn_4-3-10_keyboard_10_n03085013_5819.png,n03085013_5819.png,1.0,14.76358,5.2965913,6.6941724
alexnet2023_baseline_pgd,1,626,NaN,cat,dog,64-3-10,0626_eid_dnn_64-3-10_dog_10_n02087046_15420.png,n02087046_15420.png,0.0,0.5939085,1.4992832,-0.6401966
alexnet2023_baseline_pgd,1,627,NaN,bottle,bottle,1-3-10,0627_eid_dnn_1-3-10_bottle_10_n03937543_1358.png,n03937543_1358.png,1.0,9.449986,3.8768194,3.940824
