subj,session,trial,rt,object_response,category,condition,imagename,filename,is_correct,targ_act,max_nontarg_act,decision_margin
alexnet_w1_mlp_simclrhn_probe1,1,1,NaN,oven,car,64-3-10,0001_eid_dnn_64-3-10_car_10_n04285008_8113.png,n04285008_8113.png,0.0,-10.625268,2.0452745,-8.959427
alexnet_w1_mlp_simclrhn_probe1,1,2,NaN,oven,oven,8-3-10,0002_eid_dnn_8-3-10_oven_10_n04111531_11848.png,n04111531_11848.png,1.0,1.0247965,0.84418,0.12771516
alexnet_w1_mlp_simclrhn_probe1,1,3,NaN,oven,truck,8-3-10,0003_eid_dnn_8-3-10_truck_10_n03417042_25458.png,n03417042_25458.png,0.0,-4.964864,-0.028225482,-3.4907305
alexnet_w1_mlp_simclrhn_probe1,1,4,NaN,oven,chair,16-3-10,0004_eid_dnn_16-3-10_chair_10_n03376595_6208.png,n03376595_6208.png,0.0,-5.8308377,-0.13449973,-4.0279193
alexnet_w1_mlp_simclrhn_probe1,1,5,NaN,oven,cat,32-3-10,0005_eid_dnn_32-3-10_cat_10_n02123045_12084.png,n02123045_12084.png,0.0,-1.077454,0.09395173,-0.8283089
alexnet_w1_mlp_simclrhn_probe1,1,6,NaN,keyboard,keyboard,8-3-10,0006_eid_dnn_8-3-10_keyboard_10_n03085013_20884.png,n03085013_20884.png,1.0,-0.8477067,-1.5462176,0.4939218
alexnet_w1_mlp_simclrhn_probe1,1,7,NaN,airplane,airplane,4-3-10,0007_eid_dnn_4-3-10_airplane_10_n02690373_5992.png,n02690373_5992.png,1.0,3.0739787,0.6671363,1.7018945
alexnet_w1_mlp_simclrhn_probe1,1,8,NaN,bear,bear,32-3-10,0008_eid_dnn_32-3-10_bear_10_n02132136_6641.png,n02132136_6641.png,1.0,0.9719646,0.21928826,0.53222257
alexnet_w1_mlp_simclrhn_probe1,1,9,NaN,oven,oven,2-3-10,0009_eid_dnn_2-3-10_oven_10_n04111531_2797.png,n04111531_2797.png,1.0,2.4336262,-2.257816,3.3173509
alexnet_w1_mlp_simclrhn_probe1,1,10,NaN,airplane,airplane,2-3-10,0010_eid_dnn_2-3-10_airplane_10_n02690373_7457.png,n02690373_7457.png,1.0,7.123516,1.062578,4.2857304
alexnet_w1_mlp_simclrhn_probe1,1,11,NaN,bear,truck,16-3-10,0011_eid_dnn_16-3-10_truck_10_n03796401_2751.png,n03796401_2751.png,0.0,-6.402655,-0.08004582,-4.47076
alexnet_w1_mlp_simclrhn_probe1,1,12,NaN,bear,bear,2-3-10,0012_eid_dnn_2-3-10_bear_10_n02134418_860.png,n02134418_860.png,1.0,1.6021249,0.9400773,0.46813837
alexnet_w1_mlp_simclrhn_probe1,1,13,NaN,knife,knife,4-3-10,0013_eid_dnn_4-3-10_knife_10_n03041632_2058.png,n03041632_2058.png,1.0,0.9333799,-0.61873317,1.0975097
alexnet_w1_mlp_simclrhn_probe1,1,14,NaN,oven,airplane,32-3-10,0014_eid_dnn_32-3-10_airplane_10_n02690373_10510.png,n02690373_10510.png,0.0,-7.1392946,0.0122329,-5.056894
alexnet_w1_mlp_simclrhn_probe1,1,15,NaN,bear,keyboard,64-3-10,0015_eid_dnn_64-3-10_keyboard_10_n03085013_6313.png,n03085013_6313.png,0.0,-6.800107,1.1350865,-5.611029
alexnet_w1_mlp_simclrhn_probe1,1,16,NaN,airplane,bicycle,4-3-10,0016_eid_dnn_4-3-10_bicycle_10_n02835271_6278.png,n02835271_6278.png,0.0,-3.5585833,0.26079804,-2.7007105
alexnet_w1_mlp_simclrhn_probe1,1,17,NaN,keyboard,keyboard,2-3-10,0017_eid_dnn_2-3-10_keyboard_10_n03085013_24192.png,n03085013_24192.png,1.0,5.080635,0.12853183,3.5016658
alexnet_w1_mlp_simclrhn_probe1,1,18,NaN,car,car,2-3-10,0018_eid_dnn_2-3-10_car_10_n04285008_8255.png,n04285008_8255.png,1.0,4.5687947,2.2762525,1.6210722
alexnet_w1_mlp_simclrhn_probe1,1,19,NaN,airplane,airplane,2-3-10,0019_eid_dnn_2-3-10_airplane_10_n02690373_4591.png,n02690373_4591.png,1.0,2.0869987,-0.66627765,1.9468604
alexnet_w1_mlp_simclrhn_probe1,1,20,NaN,airplane,airplane,4-3-10,0020_eid_dnn_4-3-10_airplane_10_n02690373_7075.png,n02690373_7075.png,1.0,2.3867598,-0.5354313,2.066301
alexnet_w1_mlp_simclrhn_probe1,1,21,NaN,oven,bicycle,4-3-10,0021_eid_dnn_4-3-10_bicycle_10_n02835271_21464.png,n02835271_21464.png,0.0,-2.3746116,-2.0328987,-0.24162754
alexnet_w1_mlp_simclrhn_probe1,1,22,NaN,oven,car,64-3-10,0022_eid_dnn_64-3-10_car_10_n03100240_362.png,n03100240_362.png,0.0,-11.804345,2.727835,-10.275803
alexnet_w1_mlp_simclrhn_probe1,1,23,NaN,oven,truck,32-3-10,0023_eid_dnn_32-3-10_truck_10_n04467665_50927.png,n04467665_50927.png,0.0,-5.2751846,0.045213684,-3.7620897
alexnet_w1_mlp_simclrhn_probe1,1,24,NaN,bear,car,16-3-10,0024_eid_dnn_16-3-10_car_10_n04285008_3651.png,n04285008_3651.png,0.0,-7.580654,0.018875867,-5.3736796
alexnet_w1_mlp_simclrhn_probe1,1,25,NaN,bottle,bottle,8-3-10,0025_eid_dnn_8-3-10_bottle_10_n04557648_4974.png,n04557648_4974.png,1.0,-0.324431,-0.94224405,0.43685982
alexnet_w1_mlp_simclrhn_probe1,1,26,NaN,bear,bird,16-3-10,0026_eid_dnn_16-3-10_bird_10_n01537544_23499.png,n01537544_23499.png,0.0,-1.3775694,-0.38696977,-0.7004597
alexnet_w1_mlp_simclrhn_probe1,1,27,NaN,boat,boat,1-3-10,0027_eid_dnn_1-3-10_boat_10_n04612504_11387.png,n04612504_11387.png,1.0,1.8535973,-0.5338815,1.6882025
alexnet_w1_mlp_simclrhn_probe1,1,28,NaN,bottle,bottle,4-3-10,0028_eid_dnn_4-3-10_bottle_10_n03983396_4300.png,n03983396_4300.png,1.0,-0.38964275,-0.71981585,0.23346764
alexnet_w1_mlp_simclrhn_probe1,1,29,NaN,oven,bottle,64-3-10,0029_eid_dnn_64-3-10_bottle_10_n04591713_6961.png,n04591713_6961.png,0.0,-3.4612134,-0.48887265,-2.1017623
alexnet_w1_mlp_simclrhn_probe1,1,30,NaN,cat,clock,128-3-10,0030_eid_dnn_128-3-10_clock_10_n02708093_3361.png,n02708093_3361.png,0.0,-5.7837143,-1.5029812,-3.0269356
alexnet_w1_mlp_simclrhn_probe1,1,31,NaN,oven,truck,32-3-10,0031_eid_dnn_32-3-10_truck_10_n03417042_18374.png,n03417042_18374.png,0.0,-6.4267626,1.1490028,-5.3568754
alexnet_w1_mlp_simclrhn_probe1,1,32,NaN,oven,knife,64-3-10,0032_eid_dnn_64-3-10_knife_10_n03041632_36280.png,n03041632_36280.png,0.0,-1.9605815,-0.3509782,-1.1381615
alexnet_w1_mlp_simclrhn_probe1,1,33,NaN,cat,bird,8-3-10,0033_eid_dnn_8-3-10_bird_10_n01614925_47.png,n01614925_47.png,0.0,-2.639029,-0.8021521,-1.2988681
alexnet_w1_mlp_simclrhn_probe1,1,34,NaN,oven,bicycle,8-3-10,0034_eid_dnn_8-3-10_bicycle_10_n02835271_20099.png,n02835271_20099.png,0.0,-2.7861285,0.35983723,-2.2245338
alexnet_w1_mlp_simclrhn_probe1,1,35,NaN,dog,bear,4-3-10,0035_eid_dnn_4-3-10_bear_10_n02134084_12070.png,n02134084_12070.png,0.0,-0.37504318,-0.03257172,-0.2421639
alexnet_w1_mlp_simclrhn_probe1,1,36,NaN,oven,bottle,8-3-10,0036_eid_dnn_8-3-10_bottle_10_n02823428_8525.png,n02823428_8525.png,0.0,-1.8758948,0.19206244,-1.4622666
alexnet_w1_mlp_simclrhn_probe1,1,37,NaN,oven,truck,32-3-10,0037_eid_dnn_32-3-10_truck_10_n04467665_37953.png,n04467665_37953.png,0.0,-8.633606,1.2668803,-7.000701
alexnet_w1_mlp_simclrhn_probe1,1,38,NaN,oven,oven,128-3-10,0038_eid_dnn_128-3-10_oven_10_n04111531_4868.png,n04111531_4868.png,1.0,-1.0541067,-1.5851535,0.37550676
alexnet_w1_mlp_simclrhn_probe1,1,39,NaN,bear,boat,32-3-10,0039_eid_dnn_32-3-10_boat_10_n03662601_19840.png,n03662601_19840.png,0.0,-3.7711701,-0.5044897,-2.309892
alexnet_w1_mlp_simclrhn_probe1,1,40,NaN,elephant,truck,8-3-10,0040_eid_dnn_8-3-10_truck_10_n04467665_9331.png,n04467665_9331.png,0.0,-2.1700811,-1.0769393,-0.772968
alexnet_w1_mlp_simclrhn_probe1,1,41,NaN,oven,dog,64-3-10,0041_eid_dnn_64-3-10_dog_10_n02111277_16090.png,n02111277_16090.png,0.0,-1.6795003,0.7651158,-1.7286047
alexnet_w1_mlp_simclrhn_probe1,1,42,NaN,oven,bottle,4-3-10,0042_eid_dnn_4-3-10_bottle_10_n02823428_6731.png,n02823428_6731.png,0.0,-0.52680385,1.463372,-1.4072669
alexnet_w1_mlp_simclrhn_probe1,1,43,NaN,bear,elephant,8-3-10,0043_eid_dnn_8-3-10_elephant_10_n02504013_8930.png,n02504013_8930.png,0.0,2.2116446,2.7458172,-0.37771702
alexnet_w1_mlp_simclrhn_probe1,1,44,NaN,car,car,4-3-10,0044_eid_dnn_4-3-10_car_10_n03100240_13673.png,n03100240_13673.png,1.0,1.3475672,-0.969553,1.6384513
alexnet_w1_mlp_simclrhn_probe1,1,45,NaN,oven,bird,128-3-10,0045_eid_dnn_128-3-10_bird_10_n02018207_6819.png,n02018207_6819.png,0.0,-2.6696148,-1.528379,-0.8069756
alexnet_w1_mlp_simclrhn_probe1,1,46,NaN,elephant,elephant,4-3-10,0046_eid_dnn_4-3-10_elephant_10_n02504013_6065.png,n02504013_6065.png,1.0,1.1768341,0.50164187,0.47743303
alexnet_w1_mlp_simclrhn_probe1,1,47,NaN,oven,cat,1-3-10,0047_eid_dnn_1-3-10_cat_10_n02123394_384.png,n02123394_384.png,0.0,-2.3982303,-1.2933863,-0.78124267
alexnet_w1_mlp_simclrhn_probe1,1,48,NaN,bear,bicycle,16-3-10,0048_eid_dnn_16-3-10_bicycle_10_n02835271_12608.png,n02835271_12608.png,0.0,-6.7986865,1.3814487,-5.7842298
alexnet_w1_mlp_simclrhn_probe1,1,49,NaN,bicycle,chair,2-3-10,0049_eid_dnn_2-3-10_chair_10_n03376595_13949.png,n03376595_13949.png,0.0,-4.2062244,-1.614703,-1.8324823
alexnet_w1_mlp_simclrhn_probe1,1,50,NaN,oven,airplane,128-3-10,0050_eid_dnn_128-3-10_airplane_10_n02690373_3561.png,n02690373_3561.png,0.0,-7.5472646,-0.6380538,-4.88555
alexnet_w1_mlp_simclrhn_probe1,1,51,NaN,oven,bicycle,32-3-10,0051_eid_dnn_32-3-10_bicycle_10_n02835271_8203.png,n02835271_8203.png,0.0,-4.481917,-0.20951648,-3.0210433
alexnet_w1_mlp_simclrhn_probe1,1,52,NaN,bicycle,bicycle,2-3-10,0052_eid_dnn_2-3-10_bicycle_10_n03792782_5665.png,n03792782_5665.png,1.0,4.1762257,-3.0927947,5.1399736
alexnet_w1_mlp_simclrhn_probe1,1,53,NaN,oven,bicycle,128-3-10,0053_eid_dnn_128-3-10_bicycle_10_n02835271_15028.png,n02835271_15028.png,0.0,-3.119728,-0.4601168,-1.8806292
alexnet_w1_mlp_simclrhn_probe1,1,54,NaN,clock,clock,1-3-10,0054_eid_dnn_1-3-10_clock_10_n04548280_3318.png,n04548280_3318.png,1.0,3.1324508,-0.12269382,2.301735
alexnet_w1_mlp_simclrhn_probe1,1,55,NaN,oven,cat,128-3-10,0055_eid_dnn_128-3-10_cat_10_n02123045_8784.png,n02123045_8784.png,0.0,-3.2840903,-0.13187428,-2.2289534
alexnet_w1_mlp_simclrhn_probe1,1,56,NaN,oven,knife,128-3-10,0056_eid_dnn_128-3-10_knife_10_n03041632_3247.png,n03041632_3247.png,0.0,-2.6957092,-0.79080814,-1.3469684
alexnet_w1_mlp_simclrhn_probe1,1,57,NaN,cat,dog,8-3-10,0057_eid_dnn_8-3-10_dog_10_n02110185_11414.png,n02110185_11414.png,0.0,0.2257901,1.5673633,-0.94863546
alexnet_w1_mlp_simclrhn_probe1,1,58,NaN,bear,dog,32-3-10,0058_eid_dnn_32-3-10_dog_10_n02113712_2715.png,n02113712_2715.png,0.0,-1.1456271,1.215653,-1.6696771
alexnet_w1_mlp_simclrhn_probe1,1,59,NaN,bird,elephant,2-3-10,0059_eid_dnn_2-3-10_elephant_10_n02504458_1210.png,n02504458_1210.png,0.0,-3.8018832,-1.6354452,-1.5319031
alexnet_w1_mlp_simclrhn_probe1,1,60,NaN,bear,car,16-3-10,0060_eid_dnn_16-3-10_car_10_n02814533_32337.png,n02814533_32337.png,0.0,-7.833174,1.2252071,-6.405243
alexnet_w1_mlp_simclrhn_probe1,1,61,NaN,car,car,4-3-10,0061_eid_dnn_4-3-10_car_10_n02814533_55326.png,n02814533_55326.png,1.0,1.3181268,0.21767938,0.77813387
alexnet_w1_mlp_simclrhn_probe1,1,62,NaN,oven,knife,64-3-10,0062_eid_dnn_64-3-10_knife_10_n03041632_32774.png,n03041632_32774.png,0.0,-3.1924527,0.46873635,-2.5888517
alexnet_w1_mlp_simclrhn_probe1,1,63,NaN,elephant,bicycle,8-3-10,0063_eid_dnn_8-3-10_bicycle_10_n02835271_11921.png,n02835271_11921.png,0.0,-6.0957675,1.5696527,-5.4202704
alexnet_w1_mlp_simclrhn_probe1,1,64,NaN,oven,chair,32-3-10,0064_eid_dnn_32-3-10_chair_10_n03376595_6115.png,n03376595_6115.png,0.0,-5.7516203,0.8031193,-4.634901
alexnet_w1_mlp_simclrhn_probe1,1,65,NaN,bear,bear,16-3-10,0065_eid_dnn_16-3-10_bear_10_n02133161_79.png,n02133161_79.png,1.0,0.23507817,-0.63090485,0.6123425
alexnet_w1_mlp_simclrhn_probe1,1,66,NaN,boat,boat,1-3-10,0066_eid_dnn_1-3-10_boat_10_n03662601_34796.png,n03662601_34796.png,1.0,4.2220044,1.265365,2.0906596
alexnet_w1_mlp_simclrhn_probe1,1,67,NaN,bird,bird,4-3-10,0067_eid_dnn_4-3-10_bird_10_n02051845_8976.png,n02051845_8976.png,1.0,-0.83255786,-2.095632,0.89312834
alexnet_w1_mlp_simclrhn_probe1,1,68,NaN,elephant,boat,4-3-10,0068_eid_dnn_4-3-10_boat_10_n03344393_7362.png,n03344393_7362.png,0.0,-0.86982375,0.8576804,-1.22153
alexnet_w1_mlp_simclrhn_probe1,1,69,NaN,oven,car,32-3-10,0069_eid_dnn_32-3-10_car_10_n02814533_34289.png,n02814533_34289.png,0.0,-8.753552,-0.090959996,-6.125378
alexnet_w1_mlp_simclrhn_probe1,1,70,NaN,oven,keyboard,16-3-10,0070_eid_dnn_16-3-10_keyboard_10_n03085013_2166.png,n03085013_2166.png,0.0,-7.8778677,1.4903883,-6.624357
alexnet_w1_mlp_simclrhn_probe1,1,71,NaN,bear,bear,2-3-10,0071_eid_dnn_2-3-10_bear_10_n02133161_10167.png,n02133161_10167.png,1.0,4.5877705,3.348651,0.8761898
alexnet_w1_mlp_simclrhn_probe1,1,72,NaN,oven,keyboard,16-3-10,0072_eid_dnn_16-3-10_keyboard_10_n04505470_430.png,n04505470_430.png,0.0,-3.551855,0.77451164,-3.0592034
alexnet_w1_mlp_simclrhn_probe1,1,73,NaN,cat,boat,128-3-10,0073_eid_dnn_128-3-10_boat_10_n03662601_17001.png,n03662601_17001.png,0.0,-9.02499,-2.2338777,-4.8020415
alexnet_w1_mlp_simclrhn_probe1,1,74,NaN,cat,bear,128-3-10,0074_eid_dnn_128-3-10_bear_10_n02133161_5157.png,n02133161_5157.png,0.0,-2.266303,-0.5388475,-1.2214956
alexnet_w1_mlp_simclrhn_probe1,1,75,NaN,bear,boat,2-3-10,0075_eid_dnn_2-3-10_boat_10_n02951358_17870.png,n02951358_17870.png,0.0,-3.0130718,-0.36719757,-1.8709157
alexnet_w1_mlp_simclrhn_probe1,1,76,NaN,oven,cat,64-3-10,0076_eid_dnn_64-3-10_cat_10_n02123159_1102.png,n02123159_1102.png,0.0,-2.3576357,-1.2904139,-0.75463986
alexnet_w1_mlp_simclrhn_probe1,1,77,NaN,cat,cat,32-3-10,0077_eid_dnn_32-3-10_cat_10_n02123045_4252.png,n02123045_4252.png,1.0,-0.8193353,-1.0678105,0.17569853
alexnet_w1_mlp_simclrhn_probe1,1,78,NaN,keyboard,keyboard,2-3-10,0078_eid_dnn_2-3-10_keyboard_10_n04505470_4294.png,n04505470_4294.png,1.0,2.6432817,-0.9040971,2.5083756
alexnet_w1_mlp_simclrhn_probe1,1,79,NaN,truck,truck,2-3-10,0079_eid_dnn_2-3-10_truck_10_n04467665_1101.png,n04467665_1101.png,1.0,4.9322853,2.4599946,1.7481736
alexnet_w1_mlp_simclrhn_probe1,1,80,NaN,oven,airplane,64-3-10,0080_eid_dnn_64-3-10_airplane_10_n02690373_2078.png,n02690373_2078.png,0.0,-5.27742,-0.039709114,-3.703621
alexnet_w1_mlp_simclrhn_probe1,1,81,NaN,oven,boat,64-3-10,0081_eid_dnn_64-3-10_boat_10_n04612504_5535.png,n04612504_5535.png,0.0,-7.252786,0.24407932,-5.3010845
alexnet_w1_mlp_simclrhn_probe1,1,82,NaN,bear,cat,16-3-10,0082_eid_dnn_16-3-10_cat_10_n02125311_15099.png,n02125311_15099.png,0.0,-1.4172648,1.3894078,-1.9846172
alexnet_w1_mlp_simclrhn_probe1,1,83,NaN,oven,airplane,64-3-10,0083_eid_dnn_64-3-10_airplane_10_n02690373_4671.png,n02690373_4671.png,0.0,-6.2093363,0.32765716,-4.6223526
alexnet_w1_mlp_simclrhn_probe1,1,84,NaN,truck,truck,1-3-10,0084_eid_dnn_1-3-10_truck_10_n03417042_9062.png,n03417042_9062.png,1.0,3.0756898,1.8564984,0.8620985
alexnet_w1_mlp_simclrhn_probe1,1,85,NaN,cat,cat,4-3-10,0085_eid_dnn_4-3-10_cat_10_n02123394_283.png,n02123394_283.png,1.0,-0.46275267,-1.4482136,0.6968261
alexnet_w1_mlp_simclrhn_probe1,1,86,NaN,car,car,1-3-10,0086_eid_dnn_1-3-10_car_10_n02814533_3375.png,n02814533_3375.png,1.0,8.700564,5.6551914,2.153404
alexnet_w1_mlp_simclrhn_probe1,1,87,NaN,cat,cat,2-3-10,0087_eid_dnn_2-3-10_cat_10_n02124075_9706.png,n02124075_9706.png,1.0,0.6861951,-1.2679389,1.3817815
alexnet_w1_mlp_simclrhn_probe1,1,88,NaN,car,car,2-3-10,0088_eid_dnn_2-3-10_car_10_n04285008_10563.png,n04285008_10563.png,1.0,3.5294073,1.1375551,1.6912949
alexnet_w1_mlp_simclrhn_probe1,1,89,NaN,oven,clock,64-3-10,0089_eid_dnn_64-3-10_clock_10_n03196217_3283.png,n03196217_3283.png,0.0,-7.3005404,-0.97274137,-4.4744296
alexnet_w1_mlp_simclrhn_probe1,1,90,NaN,cat,oven,128-3-10,0090_eid_dnn_128-3-10_oven_10_n04111531_21120.png,n04111531_21120.png,0.0,-0.9760984,-0.8295779,-0.103605635
alexnet_w1_mlp_simclrhn_probe1,1,91,NaN,bird,bird,1-3-10,0091_eid_dnn_1-3-10_bird_10_n01824575_6186.png,n01824575_6186.png,1.0,0.38572246,-1.4143572,1.2728485
alexnet_w1_mlp_simclrhn_probe1,1,92,NaN,dog,dog,4-3-10,0092_eid_dnn_4-3-10_dog_10_n02102318_11155.png,n02102318_11155.png,1.0,1.6628957,-0.5052197,1.5330892
alexnet_w1_mlp_simclrhn_probe1,1,93,NaN,bear,clock,16-3-10,0093_eid_dnn_16-3-10_clock_10_n04548280_2283.png,n04548280_2283.png,0.0,-5.463074,1.6454737,-5.0265026
alexnet_w1_mlp_simclrhn_probe1,1,94,NaN,oven,chair,128-3-10,0094_eid_dnn_128-3-10_chair_10_n03376595_18787.png,n03376595_18787.png,0.0,-5.9261484,-0.21441518,-4.0388055
alexnet_w1_mlp_simclrhn_probe1,1,95,NaN,oven,keyboard,8-3-10,0095_eid_dnn_8-3-10_keyboard_10_n04505470_1903.png,n04505470_1903.png,0.0,-1.6914506,0.73207724,-1.7136929
alexnet_w1_mlp_simclrhn_probe1,1,96,NaN,oven,clock,16-3-10,0096_eid_dnn_16-3-10_clock_10_n03196217_6185.png,n03196217_6185.png,0.0,-7.863943,-0.54155,-5.177714
alexnet_w1_mlp_simclrhn_probe1,1,97,NaN,clock,clock,2-3-10,0097_eid_dnn_2-3-10_clock_10_n03196217_10424.png,n03196217_10424.png,1.0,1.6339775,1.3922852,0.17090227
alexnet_w1_mlp_simclrhn_probe1,1,98,NaN,knife,knife,2-3-10,0098_eid_dnn_2-3-10_knife_10_n03041632_43436.png,n03041632_43436.png,1.0,-0.9013832,-2.0232408,0.79327315
alexnet_w1_mlp_simclrhn_probe1,1,99,NaN,dog,dog,1-3-10,0099_eid_dnn_1-3-10_dog_10_n02093647_5955.png,n02093647_5955.png,1.0,-0.07018585,-1.0687073,0.70606136
alexnet_w1_mlp_simclrhn_probe1,1,100,NaN,bear,boat,32-3-10,0100_eid_dnn_32-3-10_boat_10_n03662601_5423.png,n03662601_5423.png,0.0,-3.621125,0.13224614,-2.6540344
alexnet_w1_mlp_simclrhn_probe1,1,101,NaN,oven,keyboard,128-3-10,0101_eid_dnn_128-3-10_keyboard_10_n04505470_9457.png,n04505470_9457.png,0.0,-7.496955,-0.12895992,-5.209959
alexnet_w1_mlp_simclrhn_probe1,1,102,NaN,cat,knife,128-3-10,0102_eid_dnn_128-3-10_knife_10_n03041632_38535.png,n03041632_38535.png,0.0,-2.844742,-0.99947023,-1.3048042
alexnet_w1_mlp_simclrhn_probe1,1,103,NaN,bear,elephant,8-3-10,0103_eid_dnn_8-3-10_elephant_10_n02504458_8141.png,n02504458_8141.png,0.0,0.12872297,1.6317275,-1.0627847
alexnet_w1_mlp_simclrhn_probe1,1,104,NaN,airplane,airplane,4-3-10,0104_eid_dnn_4-3-10_airplane_10_n02690373_9086.png,n02690373_9086.png,1.0,1.8689905,-1.4477475,2.345288
alexnet_w1_mlp_simclrhn_probe1,1,105,NaN,bear,bicycle,16-3-10,0105_eid_dnn_16-3-10_bicycle_10_n03792782_19116.png,n03792782_19116.png,0.0,-1.4261328,0.027764723,-1.0280608
alexnet_w1_mlp_simclrhn_probe1,1,106,NaN,elephant,elephant,4-3-10,0106_eid_dnn_4-3-10_elephant_10_n02504458_2343.png,n02504458_2343.png,1.0,2.6034627,1.0862709,1.0728166
alexnet_w1_mlp_simclrhn_probe1,1,107,NaN,airplane,airplane,16-3-10,0107_eid_dnn_16-3-10_airplane_10_n02690373_7093.png,n02690373_7093.png,1.0,-1.1591076,-1.323819,0.1164686
alexnet_w1_mlp_simclrhn_probe1,1,108,NaN,oven,car,32-3-10,0108_eid_dnn_32-3-10_car_10_n03100240_7935.png,n03100240_7935.png,0.0,-7.559761,0.6749196,-5.8227983
alexnet_w1_mlp_simclrhn_probe1,1,109,NaN,bear,airplane,16-3-10,0109_eid_dnn_16-3-10_airplane_10_n02690373_8611.png,n02690373_8611.png,0.0,-2.6181734,-1.2753353,-0.9495299
alexnet_w1_mlp_simclrhn_probe1,1,110,NaN,bear,bear,2-3-10,0110_eid_dnn_2-3-10_bear_10_n02133161_7332.png,n02133161_7332.png,1.0,5.204733,1.4339203,2.666367
alexnet_w1_mlp_simclrhn_probe1,1,111,NaN,car,car,2-3-10,0111_eid_dnn_2-3-10_car_10_n03100240_9387.png,n03100240_9387.png,1.0,6.889643,4.5736237,1.6376731
alexnet_w1_mlp_simclrhn_probe1,1,112,NaN,cat,cat,4-3-10,0112_eid_dnn_4-3-10_cat_10_n02124075_521.png,n02124075_521.png,1.0,1.3335428,0.39511773,0.6635667
alexnet_w1_mlp_simclrhn_probe1,1,113,NaN,oven,bottle,128-3-10,0113_eid_dnn_128-3-10_bottle_10_n04560804_3746.png,n04560804_3746.png,0.0,-4.6501656,0.2951631,-3.4968755
alexnet_w1_mlp_simclrhn_probe1,1,114,NaN,bear,elephant,16-3-10,0114_eid_dnn_16-3-10_elephant_10_n02504458_1127.png,n02504458_1127.png,0.0,0.4286505,1.3704879,-0.6659796
alexnet_w1_mlp_simclrhn_probe1,1,115,NaN,knife,knife,8-3-10,0115_eid_dnn_8-3-10_knife_10_n03041632_14132.png,n03041632_14132.png,1.0,-0.79759455,-1.6131629,0.5766939
alexnet_w1_mlp_simclrhn_probe1,1,116,NaN,oven,oven,1-3-10,0116_eid_dnn_1-3-10_oven_10_n04111531_18916.png,n04111531_18916.png,1.0,2.1704636,-1.0217358,2.2572258
alexnet_w1_mlp_simclrhn_probe1,1,117,NaN,oven,oven,1-3-10,0117_eid_dnn_1-3-10_oven_10_n04111531_19274.png,n04111531_19274.png,1.0,1.0291951,-4.023535,3.5728195
alexnet_w1_mlp_simclrhn_probe1,1,118,NaN,bird,bird,2-3-10,0118_eid_dnn_2-3-10_bird_10_n01843383_277.png,n01843383_277.png,1.0,-0.96636,-3.0650826,1.484021
alexnet_w1_mlp_simclrhn_probe1,1,119,NaN,oven,boat,64-3-10,0119_eid_dnn_64-3-10_boat_10_n03344393_6799.png,n03344393_6799.png,0.0,-6.372659,-0.87346303,-3.8885188
alexnet_w1_mlp_simclrhn_probe1,1,120,NaN,cat,dog,2-3-10,0120_eid_dnn_2-3-10_dog_10_n02093428_16887.png,n02093428_16887.png,0.0,0.3854788,0.87609005,-0.34691456
alexnet_w1_mlp_simclrhn_probe1,1,121,NaN,oven,elephant,64-3-10,0121_eid_dnn_64-3-10_elephant_10_n02504458_6163.png,n02504458_6163.png,0.0,-1.5473771,-1.4989526,-0.03424128
alexnet_w1_mlp_simclrhn_probe1,1,122,NaN,oven,bottle,64-3-10,0122_eid_dnn_64-3-10_bottle_10_n04591713_2826.png,n04591713_2826.png,0.0,-2.9865966,-0.8012779,-1.5452538
alexnet_w1_mlp_simclrhn_probe1,1,123,NaN,bear,bottle,64-3-10,0123_eid_dnn_64-3-10_bottle_10_n04557648_3598.png,n04557648_3598.png,0.0,-2.3996549,-1.4906455,-0.64276665
alexnet_w1_mlp_simclrhn_probe1,1,124,NaN,bear,truck,8-3-10,0124_eid_dnn_8-3-10_truck_10_n04467665_80629.png,n04467665_80629.png,0.0,-5.691221,-1.0486122,-3.2828205
alexnet_w1_mlp_simclrhn_probe1,1,125,NaN,bear,bear,4-3-10,0125_eid_dnn_4-3-10_bear_10_n02134084_6869.png,n02134084_6869.png,1.0,0.70792377,-0.07032171,0.5503026
alexnet_w1_mlp_simclrhn_probe1,1,126,NaN,cat,bird,1-3-10,0126_eid_dnn_1-3-10_bird_10_n01820546_4457.png,n01820546_4457.png,0.0,-2.3679264,-0.9461139,-1.0053734
alexnet_w1_mlp_simclrhn_probe1,1,127,NaN,oven,clock,64-3-10,0127_eid_dnn_64-3-10_clock_10_n04548280_7565.png,n04548280_7565.png,0.0,-5.9511523,-0.26626426,-4.019823
alexnet_w1_mlp_simclrhn_probe1,1,128,NaN,bear,elephant,16-3-10,0128_eid_dnn_16-3-10_elephant_10_n02504458_98.png,n02504458_98.png,0.0,0.09239754,0.9625027,-0.61525726
alexnet_w1_mlp_simclrhn_probe1,1,129,NaN,oven,bicycle,64-3-10,0129_eid_dnn_64-3-10_bicycle_10_n03792782_7143.png,n03792782_7143.png,0.0,-2.5078678,-0.8940761,-1.141123
alexnet_w1_mlp_simclrhn_probe1,1,130,NaN,bear,dog,16-3-10,0130_eid_dnn_16-3-10_dog_10_n02096051_5524.png,n02096051_5524.png,0.0,-1.0880812,1.2805352,-1.6748649
alexnet_w1_mlp_simclrhn_probe1,1,131,NaN,bear,cat,16-3-10,0131_eid_dnn_16-3-10_cat_10_n02123045_9465.png,n02123045_9465.png,0.0,-1.7678913,0.20084761,-1.3921087
alexnet_w1_mlp_simclrhn_probe1,1,132,NaN,oven,cat,64-3-10,0132_eid_dnn_64-3-10_cat_10_n02123159_9450.png,n02123159_9450.png,0.0,-1.3844966,-0.36370984,-0.7218053
alexnet_w1_mlp_simclrhn_probe1,1,133,NaN,clock,clock,4-3-10,0133_eid_dnn_4-3-10_clock_10_n02708093_8204.png,n02708093_8204.png,1.0,-1.4657494,-1.5317032,0.046636418
alexnet_w1_mlp_simclrhn_probe1,1,134,NaN,bear,airplane,32-3-10,0134_eid_dnn_32-3-10_airplane_10_n02690373_2619.png,n02690373_2619.png,0.0,-2.7925124,-0.60928863,-1.5437723
alexnet_w1_mlp_simclrhn_probe1,1,135,NaN,car,car,2-3-10,0135_eid_dnn_2-3-10_car_10_n04285008_11295.png,n04285008_11295.png,1.0,6.240439,2.3463907,2.7535079
alexnet_w1_mlp_simclrhn_probe1,1,136,NaN,bear,bear,8-3-10,0136_eid_dnn_8-3-10_bear_10_n02133161_15481.png,n02133161_15481.png,1.0,3.0292246,0.8127393,1.5672917
alexnet_w1_mlp_simclrhn_probe1,1,137,NaN,oven,truck,64-3-10,0137_eid_dnn_64-3-10_truck_10_n03417042_8139.png,n03417042_8139.png,0.0,-7.5642633,-0.16128801,-5.2346945
alexnet_w1_mlp_simclrhn_probe1,1,138,NaN,bear,bottle,16-3-10,0138_eid_dnn_16-3-10_bottle_10_n04557648_4490.png,n04557648_4490.png,0.0,-3.02356,-0.64338726,-1.6830363
alexnet_w1_mlp_simclrhn_probe1,1,139,NaN,clock,clock,1-3-10,0139_eid_dnn_1-3-10_clock_10_n03196217_5399.png,n03196217_5399.png,1.0,0.04488452,-0.17266972,0.15383407
alexnet_w1_mlp_simclrhn_probe1,1,140,NaN,boat,boat,1-3-10,0140_eid_dnn_1-3-10_boat_10_n04273569_4136.png,n04273569_4136.png,1.0,1.072747,-0.8751888,1.3773986
alexnet_w1_mlp_simclrhn_probe1,1,141,NaN,clock,clock,4-3-10,0141_eid_dnn_4-3-10_clock_10_n04548280_2127.png,n04548280_2127.png,1.0,-0.63156015,-1.5527575,0.6513849
alexnet_w1_mlp_simclrhn_probe1,1,142,NaN,airplane,boat,2-3-10,0142_eid_dnn_2-3-10_boat_10_n03344393_10038.png,n03344393_10038.png,0.0,0.14157471,1.3546866,-0.85779965
alexnet_w1_mlp_simclrhn_probe1,1,143,NaN,elephant,elephant,2-3-10,0143_eid_dnn_2-3-10_elephant_10_n02504013_10793.png,n02504013_10793.png,1.0,8.206999,2.782166,3.835936
alexnet_w1_mlp_simclrhn_probe1,1,144,NaN,cat,oven,128-3-10,0144_eid_dnn_128-3-10_oven_10_n04111531_6590.png,n04111531_6590.png,0.0,-1.584223,-0.9857807,-0.42316264
alexnet_w1_mlp_simclrhn_probe1,1,145,NaN,cat,keyboard,16-3-10,0145_eid_dnn_16-3-10_keyboard_10_n03085013_10984.png,n03085013_10984.png,0.0,-4.4483657,-1.4564279,-2.1156194
alexnet_w1_mlp_simclrhn_probe1,1,146,NaN,airplane,bicycle,2-3-10,0146_eid_dnn_2-3-10_bicycle_10_n02835271_14879.png,n02835271_14879.png,0.0,0.03466107,0.2100383,-0.124010436
alexnet_w1_mlp_simclrhn_probe1,1,147,NaN,bear,knife,64-3-10,0147_eid_dnn_64-3-10_knife_10_n03041632_22241.png,n03041632_22241.png,0.0,-2.7707908,-0.032620706,-1.9361787
alexnet_w1_mlp_simclrhn_probe1,1,148,NaN,oven,oven,64-3-10,0148_eid_dnn_64-3-10_oven_10_n04111531_892.png,n04111531_892.png,1.0,0.05971521,-0.09135199,0.10682064
alexnet_w1_mlp_simclrhn_probe1,1,149,NaN,oven,bear,64-3-10,0149_eid_dnn_64-3-10_bear_10_n02134418_14850.png,n02134418_14850.png,0.0,-0.983032,-0.34900296,-0.44832623
alexnet_w1_mlp_simclrhn_probe1,1,150,NaN,oven,knife,64-3-10,0150_eid_dnn_64-3-10_knife_10_n03041632_48071.png,n03041632_48071.png,0.0,-2.9245484,0.34980565,-2.3153179
alexnet_w1_mlp_simclrhn_probe1,1,151,NaN,cat,clock,16-3-10,0151_eid_dnn_16-3-10_clock_10_n04548280_64.png,n04548280_64.png,0.0,-6.279106,-1.7517837,-3.2013004
alexnet_w1_mlp_simclrhn_probe1,1,152,NaN,bird,truck,64-3-10,0152_eid_dnn_64-3-10_truck_10_n03796401_6285.png,n03796401_6285.png,0.0,-6.099763,-1.595254,-3.185169
alexnet_w1_mlp_simclrhn_probe1,1,153,NaN,airplane,airplane,4-3-10,0153_eid_dnn_4-3-10_airplane_10_n02690373_6682.png,n02690373_6682.png,1.0,1.8873119,-1.1954406,2.1798353
alexnet_w1_mlp_simclrhn_probe1,1,154,NaN,oven,knife,64-3-10,0154_eid_dnn_64-3-10_knife_10_n03041632_17285.png,n03041632_17285.png,0.0,-3.0487866,0.032304153,-2.1786602
alexnet_w1_mlp_simclrhn_probe1,1,155,NaN,elephant,boat,2-3-10,0155_eid_dnn_2-3-10_boat_10_n02951358_8184.png,n02951358_8184.png,0.0,0.7361282,1.3797643,-0.45511946
alexnet_w1_mlp_simclrhn_probe1,1,156,NaN,bicycle,bear,1-3-10,0156_eid_dnn_1-3-10_bear_10_n02132136_2346.png,n02132136_2346.png,0.0,-1.4058233,-0.62053573,-0.55528224
alexnet_w1_mlp_simclrhn_probe1,1,157,NaN,bear,bear,8-3-10,0157_eid_dnn_8-3-10_bear_10_n02134418_2187.png,n02134418_2187.png,1.0,4.3490224,0.81925094,2.4959252
alexnet_w1_mlp_simclrhn_probe1,1,158,NaN,bear,cat,32-3-10,0158_eid_dnn_32-3-10_cat_10_n02124075_10162.png,n02124075_10162.png,0.0,-1.3546275,-0.19315757,-0.8212833
alexnet_w1_mlp_simclrhn_probe1,1,159,NaN,oven,truck,128-3-10,0159_eid_dnn_128-3-10_truck_10_n03417042_8998.png,n03417042_8998.png,0.0,-5.791861,-0.9509845,-3.4230168
alexnet_w1_mlp_simclrhn_probe1,1,160,NaN,cat,cat,64-3-10,0160_eid_dnn_64-3-10_cat_10_n02123597_13835.png,n02123597_13835.png,1.0,-0.35970533,-0.96203697,0.4259128
alexnet_w1_mlp_simclrhn_probe1,1,161,NaN,clock,clock,1-3-10,0161_eid_dnn_1-3-10_clock_10_n04548280_18914.png,n04548280_18914.png,1.0,2.679313,-0.66999847,2.3683207
alexnet_w1_mlp_simclrhn_probe1,1,162,NaN,keyboard,keyboard,2-3-10,0162_eid_dnn_2-3-10_keyboard_10_n03085013_2676.png,n03085013_2676.png,1.0,3.9518914,0.5288179,2.4204786
alexnet_w1_mlp_simclrhn_probe1,1,163,NaN,bear,airplane,16-3-10,0163_eid_dnn_16-3-10_airplane_10_n02690373_7600.png,n02690373_7600.png,0.0,-5.3835816,0.8939619,-4.438894
alexnet_w1_mlp_simclrhn_probe1,1,164,NaN,bear,chair,16-3-10,0164_eid_dnn_16-3-10_chair_10_n04429376_17917.png,n04429376_17917.png,0.0,-6.331175,1.2588949,-5.36699
alexnet_w1_mlp_simclrhn_probe1,1,165,NaN,bottle,keyboard,4-3-10,0165_eid_dnn_4-3-10_keyboard_10_n04505470_4492.png,n04505470_4492.png,0.0,-1.2830329,-1.1962382,-0.061373144
alexnet_w1_mlp_simclrhn_probe1,1,166,NaN,bear,bear,1-3-10,0166_eid_dnn_1-3-10_bear_10_n02134418_3148.png,n02134418_3148.png,1.0,3.1138692,1.4168142,1.1999991
alexnet_w1_mlp_simclrhn_probe1,1,167,NaN,elephant,cat,4-3-10,0167_eid_dnn_4-3-10_cat_10_n02125311_20388.png,n02125311_20388.png,0.0,-0.2822279,1.4512314,-1.2257408
alexnet_w1_mlp_simclrhn_probe1,1,168,NaN,oven,cat,64-3-10,0168_eid_dnn_64-3-10_cat_10_n02123394_2153.png,n02123394_2153.png,0.0,-1.4284682,0.09066059,-1.0741863
alexnet_w1_mlp_simclrhn_probe1,1,169,NaN,elephant,clock,1-3-10,0169_eid_dnn_1-3-10_clock_10_n04548280_5327.png,n04548280_5327.png,0.0,-2.1148736,-1.8153054,-0.21182677
alexnet_w1_mlp_simclrhn_probe1,1,170,NaN,cat,bicycle,8-3-10,0170_eid_dnn_8-3-10_bicycle_10_n03792782_63054.png,n03792782_63054.png,0.0,-6.6574154,0.8247893,-5.2907176
alexnet_w1_mlp_simclrhn_probe1,1,171,NaN,cat,chair,32-3-10,0171_eid_dnn_32-3-10_chair_10_n03376595_14138.png,n03376595_14138.png,0.0,-5.248251,-0.30406535,-3.4960673
alexnet_w1_mlp_simclrhn_probe1,1,172,NaN,elephant,elephant,2-3-10,0172_eid_dnn_2-3-10_elephant_10_n02504458_4849.png,n02504458_4849.png,1.0,1.3567619,-0.25613877,1.140493
alexnet_w1_mlp_simclrhn_probe1,1,173,NaN,oven,dog,128-3-10,0173_eid_dnn_128-3-10_dog_10_n02113624_4844.png,n02113624_4844.png,0.0,-3.011431,0.19913647,-2.270214
alexnet_w1_mlp_simclrhn_probe1,1,174,NaN,elephant,elephant,2-3-10,0174_eid_dnn_2-3-10_elephant_10_n02504013_2549.png,n02504013_2549.png,1.0,3.3199873,2.4267073,0.63164437
alexnet_w1_mlp_simclrhn_probe1,1,175,NaN,bear,bear,8-3-10,0175_eid_dnn_8-3-10_bear_10_n02134084_4593.png,n02134084_4593.png,1.0,1.3496845,-0.6576573,1.4194051
alexnet_w1_mlp_simclrhn_probe1,1,176,NaN,elephant,bicycle,64-3-10,0176_eid_dnn_64-3-10_bicycle_10_n02835271_75.png,n02835271_75.png,0.0,-2.1853948,-1.8078076,-0.26699448
alexnet_w1_mlp_simclrhn_probe1,1,177,NaN,oven,truck,4-3-10,0177_eid_dnn_4-3-10_truck_10_n03796401_20943.png,n03796401_20943.png,0.0,-2.0715654,-0.036931813,-1.4387033
alexnet_w1_mlp_simclrhn_probe1,1,178,NaN,knife,knife,2-3-10,0178_eid_dnn_2-3-10_knife_10_n03041632_32048.png,n03041632_32048.png,1.0,-0.6144903,-1.4519659,0.5921847
alexnet_w1_mlp_simclrhn_probe1,1,179,NaN,bicycle,cat,1-3-10,0179_eid_dnn_1-3-10_cat_10_n02123159_3536.png,n02123159_3536.png,0.0,-2.3253849,-1.3807042,-0.66799015
alexnet_w1_mlp_simclrhn_probe1,1,180,NaN,bear,bicycle,1-3-10,0180_eid_dnn_1-3-10_bicycle_10_n03792782_6716.png,n03792782_6716.png,0.0,-2.0094285,-0.4767647,-1.083757
alexnet_w1_mlp_simclrhn_probe1,1,181,NaN,clock,clock,2-3-10,0181_eid_dnn_2-3-10_clock_10_n03196217_1754.png,n03196217_1754.png,1.0,0.5105694,0.49204272,0.013100336
alexnet_w1_mlp_simclrhn_probe1,1,182,NaN,bicycle,bicycle,1-3-10,0182_eid_dnn_1-3-10_bicycle_10_n03792782_5404.png,n03792782_5404.png,1.0,1.6723799,-2.0490112,2.631421
alexnet_w1_mlp_simclrhn_probe1,1,183,NaN,bear,dog,64-3-10,0183_eid_dnn_64-3-10_dog_10_n02096294_3014.png,n02096294_3014.png,0.0,-1.2536354,-0.27164137,-0.6943747
alexnet_w1_mlp_simclrhn_probe1,1,184,NaN,bear,bear,4-3-10,0184_eid_dnn_4-3-10_bear_10_n02134084_23382.png,n02134084_23382.png,1.0,-0.14615895,-0.6477801,0.35469976
alexnet_w1_mlp_simclrhn_probe1,1,185,NaN,oven,car,4-3-10,0185_eid_dnn_4-3-10_car_10_n03100240_310.png,n03100240_310.png,0.0,-1.8273048,-0.90517366,-0.65204525
alexnet_w1_mlp_simclrhn_probe1,1,186,NaN,cat,dog,4-3-10,0186_eid_dnn_4-3-10_dog_10_n02093256_1653.png,n02093256_1653.png,0.0,0.04665434,0.06325287,-0.011736936
alexnet_w1_mlp_simclrhn_probe1,1,187,NaN,elephant,elephant,4-3-10,0187_eid_dnn_4-3-10_elephant_10_n02504013_1740.png,n02504013_1740.png,1.0,7.0975876,2.5140567,3.241046
alexnet_w1_mlp_simclrhn_probe1,1,188,NaN,oven,bear,64-3-10,0188_eid_dnn_64-3-10_bear_10_n02134084_34375.png,n02134084_34375.png,0.0,-2.0601566,1.1591107,-2.2763658
alexnet_w1_mlp_simclrhn_probe1,1,189,NaN,cat,keyboard,8-3-10,0189_eid_dnn_8-3-10_keyboard_10_n03085013_23254.png,n03085013_23254.png,0.0,-3.2356417,-0.5139889,-1.9244992
alexnet_w1_mlp_simclrhn_probe1,1,190,NaN,oven,elephant,32-3-10,0190_eid_dnn_32-3-10_elephant_10_n02504013_1512.png,n02504013_1512.png,0.0,-2.0482886,0.56805056,-1.8500313
alexnet_w1_mlp_simclrhn_probe1,1,191,NaN,elephant,car,8-3-10,0191_eid_dnn_8-3-10_car_10_n04285008_6454.png,n04285008_6454.png,0.0,-4.6103244,-0.47717038,-2.9225812
alexnet_w1_mlp_simclrhn_probe1,1,192,NaN,keyboard,keyboard,4-3-10,0192_eid_dnn_4-3-10_keyboard_10_n04505470_7721.png,n04505470_7721.png,1.0,5.8162775,-0.3957354,4.392556
alexnet_w1_mlp_simclrhn_probe1,1,193,NaN,oven,keyboard,16-3-10,0193_eid_dnn_16-3-10_keyboard_10_n04505470_3388.png,n04505470_3388.png,0.0,-8.3977,-0.28073844,-5.7395587
alexnet_w1_mlp_simclrhn_probe1,1,194,NaN,boat,boat,2-3-10,0194_eid_dnn_2-3-10_boat_10_n03344393_4221.png,n03344393_4221.png,1.0,3.3235157,1.5637885,1.244315
alexnet_w1_mlp_simclrhn_probe1,1,195,NaN,bear,cat,128-3-10,0195_eid_dnn_128-3-10_cat_10_n02123597_14361.png,n02123597_14361.png,0.0,-1.2546893,-1.2005439,-0.03828662
alexnet_w1_mlp_simclrhn_probe1,1,196,NaN,oven,bird,128-3-10,0196_eid_dnn_128-3-10_bird_10_n02006656_10058.png,n02006656_10058.png,0.0,-5.2492843,-0.32191068,-3.4841793
alexnet_w1_mlp_simclrhn_probe1,1,197,NaN,bear,clock,32-3-10,0197_eid_dnn_32-3-10_clock_10_n02708093_8104.png,n02708093_8104.png,0.0,-8.018725,-0.97526264,-4.98048
alexnet_w1_mlp_simclrhn_probe1,1,198,NaN,bicycle,truck,1-3-10,0198_eid_dnn_1-3-10_truck_10_n03417042_3845.png,n03417042_3845.png,0.0,-1.201052,0.38786885,-1.1235367
alexnet_w1_mlp_simclrhn_probe1,1,199,NaN,oven,boat,64-3-10,0199_eid_dnn_64-3-10_boat_10_n03662601_36741.png,n03662601_36741.png,0.0,-5.776056,0.9630553,-4.765271
alexnet_w1_mlp_simclrhn_probe1,1,200,NaN,knife,knife,1-3-10,0200_eid_dnn_1-3-10_knife_10_n03041632_22570.png,n03041632_22570.png,1.0,0.6330997,-0.47194856,0.7813871
alexnet_w1_mlp_simclrhn_probe1,1,201,NaN,keyboard,keyboard,1-3-10,0201_eid_dnn_1-3-10_keyboard_10_n04505470_4109.png,n04505470_4109.png,1.0,3.6662943,0.63656926,2.1423392
alexnet_w1_mlp_simclrhn_probe1,1,202,NaN,airplane,airplane,1-3-10,0202_eid_dnn_1-3-10_airplane_10_n02690373_10404.png,n02690373_10404.png,1.0,3.608953,1.0798088,1.7883751
alexnet_w1_mlp_simclrhn_probe1,1,203,NaN,elephant,elephant,4-3-10,0203_eid_dnn_4-3-10_elephant_10_n02504458_4725.png,n02504458_4725.png,1.0,5.400845,-0.050950315,3.8550017
alexnet_w1_mlp_simclrhn_probe1,1,204,NaN,airplane,airplane,1-3-10,0204_eid_dnn_1-3-10_airplane_10_n02690373_1325.png,n02690373_1325.png,1.0,5.0464253,-1.1575036,4.3868403
alexnet_w1_mlp_simclrhn_probe1,1,205,NaN,bear,bicycle,8-3-10,0205_eid_dnn_8-3-10_bicycle_10_n03792782_6841.png,n03792782_6841.png,0.0,-5.1160946,1.1297934,-4.4165096
alexnet_w1_mlp_simclrhn_probe1,1,206,NaN,chair,chair,2-3-10,0206_eid_dnn_2-3-10_chair_10_n04099969_1669.png,n04099969_1669.png,1.0,2.0957654,-0.46761686,1.8125849
alexnet_w1_mlp_simclrhn_probe1,1,207,NaN,bear,bottle,32-3-10,0207_eid_dnn_32-3-10_bottle_10_n03937543_5324.png,n03937543_5324.png,0.0,-2.7064564,-0.5871245,-1.4985939
alexnet_w1_mlp_simclrhn_probe1,1,208,NaN,bottle,bottle,4-3-10,0208_eid_dnn_4-3-10_bottle_10_n03937543_2143.png,n03937543_2143.png,1.0,2.5005836,-1.215253,2.6274931
alexnet_w1_mlp_simclrhn_probe1,1,209,NaN,clock,bottle,2-3-10,0209_eid_dnn_2-3-10_bottle_10_n04557648_2575.png,n04557648_2575.png,0.0,-0.31168482,-0.26151478,-0.03547557
alexnet_w1_mlp_simclrhn_probe1,1,210,NaN,bottle,knife,8-3-10,0210_eid_dnn_8-3-10_knife_10_n03041632_9671.png,n03041632_9671.png,0.0,-1.0729276,-0.93532383,-0.09730055
alexnet_w1_mlp_simclrhn_probe1,1,211,NaN,bear,bottle,16-3-10,0211_eid_dnn_16-3-10_bottle_10_n04560804_4145.png,n04560804_4145.png,0.0,-3.1111858,-0.54550135,-1.8142128
alexnet_w1_mlp_simclrhn_probe1,1,212,NaN,oven,clock,64-3-10,0212_eid_dnn_64-3-10_clock_10_n03196217_1187.png,n03196217_1187.png,0.0,-7.0768523,-0.2256134,-4.8445573
alexnet_w1_mlp_simclrhn_probe1,1,213,NaN,clock,clock,4-3-10,0213_eid_dnn_4-3-10_clock_10_n04548280_2111.png,n04548280_2111.png,1.0,1.6188064,-0.8517795,1.746968
alexnet_w1_mlp_simclrhn_probe1,1,214,NaN,cat,dog,128-3-10,0214_eid_dnn_128-3-10_dog_10_n02086079_6578.png,n02086079_6578.png,0.0,-1.6708987,-0.6563283,-0.7174096
alexnet_w1_mlp_simclrhn_probe1,1,215,NaN,bear,car,16-3-10,0215_eid_dnn_16-3-10_car_10_n03100240_14045.png,n03100240_14045.png,0.0,-8.454607,2.3606915,-7.6475706
alexnet_w1_mlp_simclrhn_probe1,1,216,NaN,bear,boat,8-3-10,0216_eid_dnn_8-3-10_boat_10_n02951358_30908.png,n02951358_30908.png,0.0,-2.844356,0.6558937,-2.4750504
alexnet_w1_mlp_simclrhn_probe1,1,217,NaN,oven,oven,4-3-10,0217_eid_dnn_4-3-10_oven_10_n04111531_2199.png,n04111531_2199.png,1.0,0.27223745,-0.15591975,0.30275288
alexnet_w1_mlp_simclrhn_probe1,1,218,NaN,bear,elephant,8-3-10,0218_eid_dnn_8-3-10_elephant_10_n02504013_5641.png,n02504013_5641.png,0.0,0.7558004,2.520439,-1.2477878
alexnet_w1_mlp_simclrhn_probe1,1,219,NaN,keyboard,keyboard,2-3-10,0219_eid_dnn_2-3-10_keyboard_10_n03085013_6740.png,n03085013_6740.png,1.0,2.8807266,-0.4141295,2.3298151
alexnet_w1_mlp_simclrhn_probe1,1,220,NaN,clock,clock,2-3-10,0220_eid_dnn_2-3-10_clock_10_n04548280_319.png,n04548280_319.png,1.0,5.607345,-0.4153702,4.2587028
alexnet_w1_mlp_simclrhn_probe1,1,221,NaN,oven,knife,32-3-10,0221_eid_dnn_32-3-10_knife_10_n03041632_43506.png,n03041632_43506.png,0.0,-1.8816341,-0.2940432,-1.1225964
alexnet_w1_mlp_simclrhn_probe1,1,222,NaN,bear,boat,16-3-10,0222_eid_dnn_16-3-10_boat_10_n03344393_9712.png,n03344393_9712.png,0.0,-2.1336923,-0.10852143,-1.4320121
alexnet_w1_mlp_simclrhn_probe1,1,223,NaN,knife,knife,1-3-10,0223_eid_dnn_1-3-10_knife_10_n03041632_9963.png,n03041632_9963.png,1.0,1.3291767,-1.0525416,1.6841291
alexnet_w1_mlp_simclrhn_probe1,1,224,NaN,bicycle,bird,1-3-10,0224_eid_dnn_1-3-10_bird_10_n02002556_18595.png,n02002556_18595.png,0.0,-0.62653846,-0.5463408,-0.05670829
alexnet_w1_mlp_simclrhn_probe1,1,225,NaN,elephant,bird,4-3-10,0225_eid_dnn_4-3-10_bird_10_n01860187_20777.png,n01860187_20777.png,0.0,-4.006847,-0.78414345,-2.2787955
alexnet_w1_mlp_simclrhn_probe1,1,226,NaN,oven,keyboard,32-3-10,0226_eid_dnn_32-3-10_keyboard_10_n03085013_24626.png,n03085013_24626.png,0.0,-6.716153,-0.51943535,-4.381741
alexnet_w1_mlp_simclrhn_probe1,1,227,NaN,oven,oven,16-3-10,0227_eid_dnn_16-3-10_oven_10_n04111531_7097.png,n04111531_7097.png,1.0,1.6564902,-0.8439719,1.7680937
alexnet_w1_mlp_simclrhn_probe1,1,228,NaN,bear,chair,16-3-10,0228_eid_dnn_16-3-10_chair_10_n02791124_12486.png,n02791124_12486.png,0.0,-6.9676833,1.9842634,-6.329982
alexnet_w1_mlp_simclrhn_probe1,1,229,NaN,oven,cat,128-3-10,0229_eid_dnn_128-3-10_cat_10_n02123045_6629.png,n02123045_6629.png,0.0,-1.8667437,-0.3503065,-1.072283
alexnet_w1_mlp_simclrhn_probe1,1,230,NaN,bear,bird,16-3-10,0230_eid_dnn_16-3-10_bird_10_n01819313_5388.png,n01819313_5388.png,0.0,-2.7887912,-1.5428994,-0.8809786
alexnet_w1_mlp_simclrhn_probe1,1,231,NaN,oven,truck,32-3-10,0231_eid_dnn_32-3-10_truck_10_n04467665_4940.png,n04467665_4940.png,0.0,-7.079978,0.27446425,-5.200376
alexnet_w1_mlp_simclrhn_probe1,1,232,NaN,bottle,knife,8-3-10,0232_eid_dnn_8-3-10_knife_10_n03041632_20433.png,n03041632_20433.png,0.0,-3.2947345,-2.613466,-0.48172954
alexnet_w1_mlp_simclrhn_probe1,1,233,NaN,clock,clock,2-3-10,0233_eid_dnn_2-3-10_clock_10_n04548280_6792.png,n04548280_6792.png,1.0,1.9088026,-0.5563056,1.7430947
alexnet_w1_mlp_simclrhn_probe1,1,234,NaN,oven,bicycle,4-3-10,0234_eid_dnn_4-3-10_bicycle_10_n02835271_5413.png,n02835271_5413.png,0.0,-1.5208056,-0.22743465,-0.9145514
alexnet_w1_mlp_simclrhn_probe1,1,235,NaN,car,car,2-3-10,0235_eid_dnn_2-3-10_car_10_n04285008_5005.png,n04285008_5005.png,1.0,4.3546853,1.0957321,2.3044279
alexnet_w1_mlp_simclrhn_probe1,1,236,NaN,oven,car,2-3-10,0236_eid_dnn_2-3-10_car_10_n02814533_88088.png,n02814533_88088.png,0.0,-2.296055,-0.22616053,-1.4636365
alexnet_w1_mlp_simclrhn_probe1,1,237,NaN,oven,elephant,64-3-10,0237_eid_dnn_64-3-10_elephant_10_n02504458_11345.png,n02504458_11345.png,0.0,-2.1758745,-0.76500976,-0.997632
alexnet_w1_mlp_simclrhn_probe1,1,238,NaN,elephant,elephant,16-3-10,0238_eid_dnn_16-3-10_elephant_10_n02504013_1900.png,n02504013_1900.png,1.0,1.2301378,0.4756691,0.53348994
alexnet_w1_mlp_simclrhn_probe1,1,239,NaN,oven,bear,128-3-10,0239_eid_dnn_128-3-10_bear_10_n02133161_5708.png,n02133161_5708.png,0.0,-2.2923002,-0.9044908,-0.98132944
alexnet_w1_mlp_simclrhn_probe1,1,240,NaN,cat,cat,8-3-10,0240_eid_dnn_8-3-10_cat_10_n02124075_5828.png,n02124075_5828.png,1.0,2.3759267,-0.22891362,1.8419002
alexnet_w1_mlp_simclrhn_probe1,1,241,NaN,bear,bird,64-3-10,0241_eid_dnn_64-3-10_bird_10_n01582220_9392.png,n01582220_9392.png,0.0,-4.1286197,0.041196257,-2.9485052
alexnet_w1_mlp_simclrhn_probe1,1,242,NaN,clock,clock,1-3-10,0242_eid_dnn_1-3-10_clock_10_n02708093_4597.png,n02708093_4597.png,1.0,5.5220356,1.3312644,2.9633226
alexnet_w1_mlp_simclrhn_probe1,1,243,NaN,oven,bicycle,128-3-10,0243_eid_dnn_128-3-10_bicycle_10_n03792782_26306.png,n03792782_26306.png,0.0,-2.8937998,-0.9373872,-1.3833926
alexnet_w1_mlp_simclrhn_probe1,1,244,NaN,bear,bear,32-3-10,0244_eid_dnn_32-3-10_bear_10_n02132136_1795.png,n02132136_1795.png,1.0,0.3719077,0.19894624,0.122302234
alexnet_w1_mlp_simclrhn_probe1,1,245,NaN,oven,clock,128-3-10,0245_eid_dnn_128-3-10_clock_10_n02708093_3638.png,n02708093_3638.png,0.0,-4.4236517,-1.1223093,-2.3344016
alexnet_w1_mlp_simclrhn_probe1,1,246,NaN,keyboard,keyboard,4-3-10,0246_eid_dnn_4-3-10_keyboard_10_n03085013_21272.png,n03085013_21272.png,1.0,-1.8630078,-1.8752768,0.008675507
alexnet_w1_mlp_simclrhn_probe1,1,247,NaN,bottle,chair,8-3-10,0247_eid_dnn_8-3-10_chair_10_n02791124_16926.png,n02791124_16926.png,0.0,-3.2192364,-1.043683,-1.5383486
alexnet_w1_mlp_simclrhn_probe1,1,248,NaN,dog,knife,8-3-10,0248_eid_dnn_8-3-10_knife_10_n03041632_84048.png,n03041632_84048.png,0.0,-2.0848665,-0.65463734,-1.0113248
alexnet_w1_mlp_simclrhn_probe1,1,249,NaN,oven,oven,2-3-10,0249_eid_dnn_2-3-10_oven_10_n04111531_550.png,n04111531_550.png,1.0,1.8919172,-0.9317701,1.9966484
alexnet_w1_mlp_simclrhn_probe1,1,250,NaN,bear,boat,128-3-10,0250_eid_dnn_128-3-10_boat_10_n03662601_21992.png,n03662601_21992.png,0.0,-8.239083,-1.4562073,-4.796218
alexnet_w1_mlp_simclrhn_probe1,1,251,NaN,bear,bear,32-3-10,0251_eid_dnn_32-3-10_bear_10_n02134418_280.png,n02134418_280.png,1.0,0.920015,-0.5255317,1.0221559
alexnet_w1_mlp_simclrhn_probe1,1,252,NaN,oven,bottle,8-3-10,0252_eid_dnn_8-3-10_bottle_10_n04560804_8385.png,n04560804_8385.png,0.0,-2.1123412,-0.5289577,-1.1196212
alexnet_w1_mlp_simclrhn_probe1,1,253,NaN,bear,elephant,64-3-10,0253_eid_dnn_64-3-10_elephant_10_n02504013_4183.png,n02504013_4183.png,0.0,-0.26253933,0.11535698,-0.26721305
alexnet_w1_mlp_simclrhn_probe1,1,254,NaN,bird,bird,1-3-10,0254_eid_dnn_1-3-10_bird_10_n01560419_19608.png,n01560419_19608.png,1.0,0.56623656,-3.0782328,2.577029
alexnet_w1_mlp_simclrhn_probe1,1,255,NaN,dog,bird,4-3-10,0255_eid_dnn_4-3-10_bird_10_n02056570_8865.png,n02056570_8865.png,0.0,-3.513983,-1.0870554,-1.716097
alexnet_w1_mlp_simclrhn_probe1,1,256,NaN,cat,cat,2-3-10,0256_eid_dnn_2-3-10_cat_10_n02123394_2553.png,n02123394_2553.png,1.0,1.1832324,-0.6166235,1.2726904
alexnet_w1_mlp_simclrhn_probe1,1,257,NaN,oven,bear,128-3-10,0257_eid_dnn_128-3-10_bear_10_n02132136_10113.png,n02132136_10113.png,0.0,-2.9993584,0.22264457,-2.2783003
alexnet_w1_mlp_simclrhn_probe1,1,258,NaN,oven,oven,8-3-10,0258_eid_dnn_8-3-10_oven_10_n04111531_2758.png,n04111531_2758.png,1.0,0.20008999,-0.073004566,0.19310702
alexnet_w1_mlp_simclrhn_probe1,1,259,NaN,bird,keyboard,64-3-10,0259_eid_dnn_64-3-10_keyboard_10_n04505470_4824.png,n04505470_4824.png,0.0,-4.9556665,-1.5927756,-2.377923
alexnet_w1_mlp_simclrhn_probe1,1,260,NaN,bicycle,bicycle,2-3-10,0260_eid_dnn_2-3-10_bicycle_10_n02835271_8654.png,n02835271_8654.png,1.0,-0.188681,-0.91769856,0.5154933
alexnet_w1_mlp_simclrhn_probe1,1,261,NaN,oven,keyboard,128-3-10,0261_eid_dnn_128-3-10_keyboard_10_n03085013_34973.png,n03085013_34973.png,0.0,-4.079463,-1.0611899,-2.1342413
alexnet_w1_mlp_simclrhn_probe1,1,262,NaN,cat,cat,4-3-10,0262_eid_dnn_4-3-10_cat_10_n02123394_4228.png,n02123394_4228.png,1.0,0.17429614,-1.0037105,0.8329765
alexnet_w1_mlp_simclrhn_probe1,1,263,NaN,bear,keyboard,32-3-10,0263_eid_dnn_32-3-10_keyboard_10_n03085013_24416.png,n03085013_24416.png,0.0,-3.3884656,-0.20666479,-2.249873
alexnet_w1_mlp_simclrhn_probe1,1,264,NaN,cat,cat,8-3-10,0264_eid_dnn_8-3-10_cat_10_n02124075_5729.png,n02124075_5729.png,1.0,1.8138834,0.079399444,1.2264653
alexnet_w1_mlp_simclrhn_probe1,1,265,NaN,bear,clock,32-3-10,0265_eid_dnn_32-3-10_clock_10_n03196217_6357.png,n03196217_6357.png,0.0,-3.3673916,-0.19291238,-2.244696
alexnet_w1_mlp_simclrhn_probe1,1,266,NaN,oven,truck,128-3-10,0266_eid_dnn_128-3-10_truck_10_n03417042_29478.png,n03417042_29478.png,0.0,-5.709772,-1.7007778,-2.834787
alexnet_w1_mlp_simclrhn_probe1,1,267,NaN,bird,chair,128-3-10,0267_eid_dnn_128-3-10_chair_10_n04099969_18678.png,n04099969_18678.png,0.0,-3.6567364,-1.586227,-1.4640713
alexnet_w1_mlp_simclrhn_probe1,1,268,NaN,oven,clock,32-3-10,0268_eid_dnn_32-3-10_clock_10_n02708093_4286.png,n02708093_4286.png,0.0,-5.0886235,0.7181576,-4.1060147
alexnet_w1_mlp_simclrhn_probe1,1,269,NaN,oven,car,128-3-10,0269_eid_dnn_128-3-10_car_10_n03100240_21971.png,n03100240_21971.png,0.0,-9.420651,0.18557787,-6.79263
alexnet_w1_mlp_simclrhn_probe1,1,270,NaN,car,car,1-3-10,0270_eid_dnn_1-3-10_car_10_n03100240_84.png,n03100240_84.png,1.0,4.9989457,4.917097,0.057875715
alexnet_w1_mlp_simclrhn_probe1,1,271,NaN,cat,dog,1-3-10,0271_eid_dnn_1-3-10_dog_10_n02094433_3186.png,n02094433_3186.png,0.0,-0.79559875,0.09877753,-0.6324195
alexnet_w1_mlp_simclrhn_probe1,1,272,NaN,dog,dog,4-3-10,0272_eid_dnn_4-3-10_dog_10_n02088364_10195.png,n02088364_10195.png,1.0,1.4552019,0.35410294,0.7785945
alexnet_w1_mlp_simclrhn_probe1,1,273,NaN,bear,knife,16-3-10,0273_eid_dnn_16-3-10_knife_10_n03041632_11358.png,n03041632_11358.png,0.0,-2.509509,0.4385722,-2.0846083
alexnet_w1_mlp_simclrhn_probe1,1,274,NaN,bird,bird,64-3-10,0274_eid_dnn_64-3-10_bird_10_n01531178_10630.png,n01531178_10630.png,1.0,-1.2049094,-1.3739184,0.11950739
alexnet_w1_mlp_simclrhn_probe1,1,275,NaN,elephant,elephant,1-3-10,0275_eid_dnn_1-3-10_elephant_10_n02504458_4058.png,n02504458_4058.png,1.0,0.8282447,-0.5243813,0.956451
alexnet_w1_mlp_simclrhn_probe1,1,276,NaN,oven,keyboard,32-3-10,0276_eid_dnn_32-3-10_keyboard_10_n03085013_24336.png,n03085013_24336.png,0.0,-5.085512,-0.9575932,-2.9188797
alexnet_w1_mlp_simclrhn_probe1,1,277,NaN,bottle,clock,4-3-10,0277_eid_dnn_4-3-10_clock_10_n02708093_386.png,n02708093_386.png,0.0,-1.1206098,0.11699338,-0.8751176
alexnet_w1_mlp_simclrhn_probe1,1,278,NaN,elephant,chair,4-3-10,0278_eid_dnn_4-3-10_chair_10_n04429376_16370.png,n04429376_16370.png,0.0,-3.8092844,0.80589837,-3.2634273
alexnet_w1_mlp_simclrhn_probe1,1,279,NaN,knife,bottle,1-3-10,0279_eid_dnn_1-3-10_bottle_10_n04557648_10167.png,n04557648_10167.png,0.0,-1.4469907,-0.7774066,-0.4734675
alexnet_w1_mlp_simclrhn_probe1,1,280,NaN,bicycle,bicycle,1-3-10,0280_eid_dnn_1-3-10_bicycle_10_n02835271_15717.png,n02835271_15717.png,1.0,2.23387,-1.061654,2.3302875
alexnet_w1_mlp_simclrhn_probe1,1,281,NaN,oven,car,128-3-10,0281_eid_dnn_128-3-10_car_10_n03100240_22593.png,n03100240_22593.png,0.0,-9.904119,0.025308281,-7.0211654
alexnet_w1_mlp_simclrhn_probe1,1,282,NaN,car,car,1-3-10,0282_eid_dnn_1-3-10_car_10_n04285008_11240.png,n04285008_11240.png,1.0,6.901028,2.3500288,3.2180429
alexnet_w1_mlp_simclrhn_probe1,1,283,NaN,boat,boat,1-3-10,0283_eid_dnn_1-3-10_boat_10_n03344393_3337.png,n03344393_3337.png,1.0,0.10006587,-0.57979727,0.48073587
alexnet_w1_mlp_simclrhn_probe1,1,284,NaN,oven,bottle,128-3-10,0284_eid_dnn_128-3-10_bottle_10_n04579145_1660.png,n04579145_1660.png,0.0,-3.5935626,-0.807068,-1.9703493
alexnet_w1_mlp_simclrhn_probe1,1,285,NaN,oven,dog,64-3-10,0285_eid_dnn_64-3-10_dog_10_n02091244_9305.png,n02091244_9305.png,0.0,-1.8927264,-0.22289127,-1.1807517
alexnet_w1_mlp_simclrhn_probe1,1,286,NaN,oven,chair,32-3-10,0286_eid_dnn_32-3-10_chair_10_n03376595_3912.png,n03376595_3912.png,0.0,-3.6173685,-0.41612512,-2.2636209
alexnet_w1_mlp_simclrhn_probe1,1,287,NaN,oven,bottle,64-3-10,0287_eid_dnn_64-3-10_bottle_10_n02823428_6793.png,n02823428_6793.png,0.0,-3.2797072,0.049195737,-2.35389
alexnet_w1_mlp_simclrhn_probe1,1,288,NaN,bear,dog,32-3-10,0288_eid_dnn_32-3-10_dog_10_n02093754_4949.png,n02093754_4949.png,0.0,-2.2435064,0.15847838,-1.6984597
alexnet_w1_mlp_simclrhn_probe1,1,289,NaN,oven,dog,128-3-10,0289_eid_dnn_128-3-10_dog_10_n02105855_10394.png,n02105855_10394.png,0.0,-2.1923983,0.30214763,-1.7639104
alexnet_w1_mlp_simclrhn_probe1,1,290,NaN,bottle,clock,2-3-10,0290_eid_dnn_2-3-10_clock_10_n04548280_9533.png,n04548280_9533.png,0.0,-1.3274202,-0.8261293,-0.3544662
alexnet_w1_mlp_simclrhn_probe1,1,291,NaN,cat,cat,1-3-10,0291_eid_dnn_1-3-10_cat_10_n02125311_7527.png,n02125311_7527.png,1.0,0.49867406,-0.49437746,0.7021935
alexnet_w1_mlp_simclrhn_probe1,1,292,NaN,car,car,4-3-10,0292_eid_dnn_4-3-10_car_10_n03100240_4537.png,n03100240_4537.png,1.0,0.66791147,-0.31245852,0.6932263
alexnet_w1_mlp_simclrhn_probe1,1,293,NaN,cat,bicycle,8-3-10,0293_eid_dnn_8-3-10_bicycle_10_n03792782_11609.png,n03792782_11609.png,0.0,-4.839463,1.1442466,-4.231122
alexnet_w1_mlp_simclrhn_probe1,1,294,NaN,oven,oven,128-3-10,0294_eid_dnn_128-3-10_oven_10_n04111531_6134.png,n04111531_6134.png,1.0,-0.24286948,-1.0947858,0.60239583
alexnet_w1_mlp_simclrhn_probe1,1,295,NaN,bottle,bottle,8-3-10,0295_eid_dnn_8-3-10_bottle_10_n04591713_715.png,n04591713_715.png,1.0,-2.0007122,-2.2396526,0.16895643
alexnet_w1_mlp_simclrhn_probe1,1,296,NaN,elephant,elephant,32-3-10,0296_eid_dnn_32-3-10_elephant_10_n02504458_7818.png,n02504458_7818.png,1.0,-0.23841132,-0.46826357,0.16253008
alexnet_w1_mlp_simclrhn_probe1,1,297,NaN,oven,airplane,64-3-10,0297_eid_dnn_64-3-10_airplane_10_n02690373_7107.png,n02690373_7107.png,0.0,-5.9025097,0.42646536,-4.475261
alexnet_w1_mlp_simclrhn_probe1,1,298,NaN,bear,car,32-3-10,0298_eid_dnn_32-3-10_car_10_n04285008_8363.png,n04285008_8363.png,0.0,-6.174297,0.16613963,-4.4833655
alexnet_w1_mlp_simclrhn_probe1,1,299,NaN,oven,clock,4-3-10,0299_eid_dnn_4-3-10_clock_10_n04548280_4249.png,n04548280_4249.png,0.0,-3.6936162,0.114225835,-2.692551
alexnet_w1_mlp_simclrhn_probe1,1,300,NaN,cat,cat,128-3-10,0300_eid_dnn_128-3-10_cat_10_n02123597_7269.png,n02123597_7269.png,1.0,0.5408129,-0.10731304,0.45829427
alexnet_w1_mlp_simclrhn_probe1,1,301,NaN,bicycle,bicycle,1-3-10,0301_eid_dnn_1-3-10_bicycle_10_n03792782_4864.png,n03792782_4864.png,1.0,4.7891884,-0.5902521,3.8038387
alexnet_w1_mlp_simclrhn_probe1,1,302,NaN,bear,bear,2-3-10,0302_eid_dnn_2-3-10_bear_10_n02132136_8011.png,n02132136_8011.png,1.0,2.5062132,-0.041738935,1.8016742
alexnet_w1_mlp_simclrhn_probe1,1,303,NaN,oven,boat,128-3-10,0303_eid_dnn_128-3-10_boat_10_n02951358_4810.png,n02951358_4810.png,0.0,-6.735045,-1.017237,-4.043101
alexnet_w1_mlp_simclrhn_probe1,1,304,NaN,oven,clock,128-3-10,0304_eid_dnn_128-3-10_clock_10_n03196217_5137.png,n03196217_5137.png,0.0,-4.7001367,-1.5065928,-2.2581766
alexnet_w1_mlp_simclrhn_probe1,1,305,NaN,bicycle,bicycle,2-3-10,0305_eid_dnn_2-3-10_bicycle_10_n02835271_158.png,n02835271_158.png,1.0,1.7535217,-0.93558574,1.9014862
alexnet_w1_mlp_simclrhn_probe1,1,306,NaN,oven,bear,64-3-10,0306_eid_dnn_64-3-10_bear_10_n02132136_11217.png,n02132136_11217.png,0.0,-1.2883742,0.13833919,-1.0088387
alexnet_w1_mlp_simclrhn_probe1,1,307,NaN,oven,dog,64-3-10,0307_eid_dnn_64-3-10_dog_10_n02092002_6122.png,n02092002_6122.png,0.0,-1.3184745,-0.80714923,-0.3615616
alexnet_w1_mlp_simclrhn_probe1,1,308,NaN,bear,chair,32-3-10,0308_eid_dnn_32-3-10_chair_10_n04429376_29223.png,n04429376_29223.png,0.0,-7.802389,0.12278098,-5.6039414
alexnet_w1_mlp_simclrhn_probe1,1,309,NaN,oven,bear,128-3-10,0309_eid_dnn_128-3-10_bear_10_n02133161_5723.png,n02133161_5723.png,0.0,-4.757753,-1.6487488,-2.1983979
alexnet_w1_mlp_simclrhn_probe1,1,310,NaN,oven,dog,128-3-10,0310_eid_dnn_128-3-10_dog_10_n02100583_1343.png,n02100583_1343.png,0.0,-1.891988,-0.7126051,-0.8339497
alexnet_w1_mlp_simclrhn_probe1,1,311,NaN,oven,boat,128-3-10,0311_eid_dnn_128-3-10_boat_10_n03344393_6352.png,n03344393_6352.png,0.0,-5.071453,-0.23284476,-3.4214127
alexnet_w1_mlp_simclrhn_probe1,1,312,NaN,bird,bird,4-3-10,0312_eid_dnn_4-3-10_bird_10_n01560419_8247.png,n01560419_8247.png,1.0,-0.7558636,-2.4971383,1.2312671
alexnet_w1_mlp_simclrhn_probe1,1,313,NaN,dog,dog,4-3-10,0313_eid_dnn_4-3-10_dog_10_n02105251_8210.png,n02105251_8210.png,1.0,0.934309,0.8538889,0.056865584
alexnet_w1_mlp_simclrhn_probe1,1,314,NaN,oven,oven,128-3-10,0314_eid_dnn_128-3-10_oven_10_n04111531_9702.png,n04111531_9702.png,1.0,-1.1259694,-1.4745175,0.24646069
alexnet_w1_mlp_simclrhn_probe1,1,315,NaN,bear,bear,8-3-10,0315_eid_dnn_8-3-10_bear_10_n02133161_12161.png,n02133161_12161.png,1.0,0.31970885,0.2623079,0.040588595
alexnet_w1_mlp_simclrhn_probe1,1,316,NaN,bear,bear,8-3-10,0316_eid_dnn_8-3-10_bear_10_n02133161_13556.png,n02133161_13556.png,1.0,2.3042345,0.9895651,0.9296116
alexnet_w1_mlp_simclrhn_probe1,1,317,NaN,oven,bear,128-3-10,0317_eid_dnn_128-3-10_bear_10_n02134084_635.png,n02134084_635.png,0.0,-2.46946,-1.4053202,-0.75246054
alexnet_w1_mlp_simclrhn_probe1,1,318,NaN,oven,chair,128-3-10,0318_eid_dnn_128-3-10_chair_10_n02791124_6956.png,n02791124_6956.png,0.0,-6.4253545,-0.56986535,-4.140456
alexnet_w1_mlp_simclrhn_probe1,1,319,NaN,oven,car,4-3-10,0319_eid_dnn_4-3-10_car_10_n02814533_18077.png,n02814533_18077.png,0.0,-0.9319542,-0.1908912,-0.52401066
alexnet_w1_mlp_simclrhn_probe1,1,320,NaN,knife,dog,2-3-10,0320_eid_dnn_2-3-10_dog_10_n02088364_11105.png,n02088364_11105.png,0.0,-2.0643628,-0.34730417,-1.2141439
alexnet_w1_mlp_simclrhn_probe1,1,321,NaN,oven,airplane,64-3-10,0321_eid_dnn_64-3-10_airplane_10_n02690373_1053.png,n02690373_1053.png,0.0,-5.1688013,-1.0164506,-2.936155
alexnet_w1_mlp_simclrhn_probe1,1,322,NaN,oven,car,16-3-10,0322_eid_dnn_16-3-10_car_10_n02814533_96407.png,n02814533_96407.png,0.0,-7.3638425,1.6740029,-6.390722
alexnet_w1_mlp_simclrhn_probe1,1,323,NaN,oven,chair,4-3-10,0323_eid_dnn_4-3-10_chair_10_n04099969_31891.png,n04099969_31891.png,0.0,-0.4433301,1.8626235,-1.6305554
alexnet_w1_mlp_simclrhn_probe1,1,324,NaN,cat,bottle,16-3-10,0324_eid_dnn_16-3-10_bottle_10_n04557648_4470.png,n04557648_4470.png,0.0,-2.8329048,-1.1270896,-1.2061936
alexnet_w1_mlp_simclrhn_probe1,1,325,NaN,oven,clock,8-3-10,0325_eid_dnn_8-3-10_clock_10_n02708093_2588.png,n02708093_2588.png,0.0,-6.712015,-2.1202884,-3.2468412
alexnet_w1_mlp_simclrhn_probe1,1,326,NaN,oven,elephant,128-3-10,0326_eid_dnn_128-3-10_elephant_10_n02504458_6696.png,n02504458_6696.png,0.0,-3.255373,-1.1091254,-1.5176263
alexnet_w1_mlp_simclrhn_probe1,1,327,NaN,oven,elephant,32-3-10,0327_eid_dnn_32-3-10_elephant_10_n02504013_4071.png,n02504013_4071.png,0.0,-1.2010404,-0.22299656,-0.6915814
alexnet_w1_mlp_simclrhn_probe1,1,328,NaN,knife,keyboard,8-3-10,0328_eid_dnn_8-3-10_keyboard_10_n03085013_8339.png,n03085013_8339.png,0.0,-3.8468423,-0.24292903,-2.5483515
alexnet_w1_mlp_simclrhn_probe1,1,329,NaN,bear,elephant,64-3-10,0329_eid_dnn_64-3-10_elephant_10_n02504013_6976.png,n02504013_6976.png,0.0,-1.7559046,-1.0475553,-0.5008786
alexnet_w1_mlp_simclrhn_probe1,1,330,NaN,bear,boat,4-3-10,0330_eid_dnn_4-3-10_boat_10_n02951358_9146.png,n02951358_9146.png,0.0,-2.783676,1.3584824,-2.9289484
alexnet_w1_mlp_simclrhn_probe1,1,331,NaN,bear,boat,32-3-10,0331_eid_dnn_32-3-10_boat_10_n04273569_4087.png,n04273569_4087.png,0.0,-3.1521354,-1.3040422,-1.3067992
alexnet_w1_mlp_simclrhn_probe1,1,332,NaN,oven,oven,64-3-10,0332_eid_dnn_64-3-10_oven_10_n04111531_2922.png,n04111531_2922.png,1.0,-0.9440402,-1.2259445,0.19933647
alexnet_w1_mlp_simclrhn_probe1,1,333,NaN,bear,bear,4-3-10,0333_eid_dnn_4-3-10_bear_10_n02133161_5325.png,n02133161_5325.png,1.0,2.62568,-0.25110993,2.0341976
alexnet_w1_mlp_simclrhn_probe1,1,334,NaN,oven,bottle,64-3-10,0334_eid_dnn_64-3-10_bottle_10_n04557648_3109.png,n04557648_3109.png,0.0,-2.7347374,-0.4209089,-1.6361238
alexnet_w1_mlp_simclrhn_probe1,1,335,NaN,oven,oven,1-3-10,0335_eid_dnn_1-3-10_oven_10_n04111531_15912.png,n04111531_15912.png,1.0,2.8670044,-0.21569239,2.1797957
alexnet_w1_mlp_simclrhn_probe1,1,336,NaN,oven,truck,16-3-10,0336_eid_dnn_16-3-10_truck_10_n03417042_17099.png,n03417042_17099.png,0.0,-8.79505,1.3824705,-7.1965933
alexnet_w1_mlp_simclrhn_probe1,1,337,NaN,car,car,2-3-10,0337_eid_dnn_2-3-10_car_10_n04285008_8641.png,n04285008_8641.png,1.0,1.2408367,-0.15052849,0.98384386
alexnet_w1_mlp_simclrhn_probe1,1,338,NaN,bear,keyboard,32-3-10,0338_eid_dnn_32-3-10_keyboard_10_n04505470_524.png,n04505470_524.png,0.0,-5.9522142,-0.9911485,-3.5080032
alexnet_w1_mlp_simclrhn_probe1,1,339,NaN,elephant,bottle,8-3-10,0339_eid_dnn_8-3-10_bottle_10_n04557648_5935.png,n04557648_5935.png,0.0,-4.452189,1.6153733,-4.2904143
alexnet_w1_mlp_simclrhn_probe1,1,340,NaN,oven,bottle,1-3-10,0340_eid_dnn_1-3-10_bottle_10_n04591713_3776.png,n04591713_3776.png,0.0,-0.6404953,0.23289302,-0.6175788
alexnet_w1_mlp_simclrhn_probe1,1,341,NaN,truck,truck,2-3-10,0341_eid_dnn_2-3-10_truck_10_n03796401_3651.png,n03796401_3651.png,1.0,3.4511971,0.75592744,1.9058434
alexnet_w1_mlp_simclrhn_probe1,1,342,NaN,bear,bicycle,128-3-10,0342_eid_dnn_128-3-10_bicycle_10_n03792782_15757.png,n03792782_15757.png,0.0,-3.3932686,-1.411781,-1.4011234
alexnet_w1_mlp_simclrhn_probe1,1,343,NaN,oven,cat,32-3-10,0343_eid_dnn_32-3-10_cat_10_n02123597_8698.png,n02123597_8698.png,0.0,-0.84132856,0.22787106,-0.75603825
alexnet_w1_mlp_simclrhn_probe1,1,344,NaN,boat,boat,1-3-10,0344_eid_dnn_1-3-10_boat_10_n03662601_273.png,n03662601_273.png,1.0,-0.65991336,-1.3385447,0.47986484
alexnet_w1_mlp_simclrhn_probe1,1,345,NaN,knife,knife,1-3-10,0345_eid_dnn_1-3-10_knife_10_n03041632_24376.png,n03041632_24376.png,1.0,-0.45739242,-0.9549149,0.35180154
alexnet_w1_mlp_simclrhn_probe1,1,346,NaN,bottle,keyboard,1-3-10,0346_eid_dnn_1-3-10_keyboard_10_n04505470_2608.png,n04505470_2608.png,0.0,-1.6159995,-1.0862507,-0.37458897
alexnet_w1_mlp_simclrhn_probe1,1,347,NaN,bear,boat,16-3-10,0347_eid_dnn_16-3-10_boat_10_n04273569_10665.png,n04273569_10665.png,0.0,-4.2680454,-0.33959493,-2.7778342
alexnet_w1_mlp_simclrhn_probe1,1,348,NaN,oven,bear,64-3-10,0348_eid_dnn_64-3-10_bear_10_n02133161_5267.png,n02133161_5267.png,0.0,-0.98940945,-0.6553042,-0.23624809
alexnet_w1_mlp_simclrhn_probe1,1,349,NaN,oven,bear,128-3-10,0349_eid_dnn_128-3-10_bear_10_n02133161_5020.png,n02133161_5020.png,0.0,-1.3613799,-1.1377211,-0.15815066
alexnet_w1_mlp_simclrhn_probe1,1,350,NaN,oven,knife,128-3-10,0350_eid_dnn_128-3-10_knife_10_n03041632_21723.png,n03041632_21723.png,0.0,-3.6864944,-0.07718894,-2.5521643
alexnet_w1_mlp_simclrhn_probe1,1,351,NaN,oven,boat,32-3-10,0351_eid_dnn_32-3-10_boat_10_n02951358_31101.png,n02951358_31101.png,0.0,-4.259767,-0.66417825,-2.5424652
alexnet_w1_mlp_simclrhn_probe1,1,352,NaN,oven,dog,128-3-10,0352_eid_dnn_128-3-10_dog_10_n02102177_4180.png,n02102177_4180.png,0.0,-2.716957,-1.7724669,-0.66785544
alexnet_w1_mlp_simclrhn_probe1,1,353,NaN,bottle,bottle,4-3-10,0353_eid_dnn_4-3-10_bottle_10_n04579145_4186.png,n04579145_4186.png,1.0,3.099696,0.3674353,1.9320002
alexnet_w1_mlp_simclrhn_probe1,1,354,NaN,bear,bicycle,64-3-10,0354_eid_dnn_64-3-10_bicycle_10_n03792782_2246.png,n03792782_2246.png,0.0,-4.123966,0.3005692,-3.128619
alexnet_w1_mlp_simclrhn_probe1,1,355,NaN,dog,dog,1-3-10,0355_eid_dnn_1-3-10_dog_10_n02110958_1526.png,n02110958_1526.png,1.0,0.20797679,-4.8455486,3.5733821
alexnet_w1_mlp_simclrhn_probe1,1,356,NaN,bear,keyboard,128-3-10,0356_eid_dnn_128-3-10_keyboard_10_n04505470_255.png,n04505470_255.png,0.0,-7.2325716,-1.2042282,-4.2626824
alexnet_w1_mlp_simclrhn_probe1,1,357,NaN,elephant,elephant,4-3-10,0357_eid_dnn_4-3-10_elephant_10_n02504458_1933.png,n02504458_1933.png,1.0,0.28416318,0.12799677,0.11042633
alexnet_w1_mlp_simclrhn_probe1,1,358,NaN,cat,cat,2-3-10,0358_eid_dnn_2-3-10_cat_10_n02123159_5749.png,n02123159_5749.png,1.0,2.2954981,-1.3396777,2.5704575
alexnet_w1_mlp_simclrhn_probe1,1,359,NaN,bear,airplane,128-3-10,0359_eid_dnn_128-3-10_airplane_10_n02690373_2967.png,n02690373_2967.png,0.0,-7.8443556,-1.5815037,-4.428505
alexnet_w1_mlp_simclrhn_probe1,1,360,NaN,cat,chair,8-3-10,0360_eid_dnn_8-3-10_chair_10_n04099969_72.png,n04099969_72.png,0.0,-5.989344,-0.47202194,-3.901336
alexnet_w1_mlp_simclrhn_probe1,1,361,NaN,oven,cat,32-3-10,0361_eid_dnn_32-3-10_cat_10_n02123045_4089.png,n02123045_4089.png,0.0,-0.4416639,-0.015192136,-0.3015611
alexnet_w1_mlp_simclrhn_probe1,1,362,NaN,oven,bird,128-3-10,0362_eid_dnn_128-3-10_bird_10_n01616318_13293.png,n01616318_13293.png,0.0,-6.5376887,-0.55293256,-4.2318616
alexnet_w1_mlp_simclrhn_probe1,1,363,NaN,cat,cat,4-3-10,0363_eid_dnn_4-3-10_cat_10_n02124075_13719.png,n02124075_13719.png,1.0,0.6237994,-0.098981686,0.5110834
alexnet_w1_mlp_simclrhn_probe1,1,364,NaN,bear,oven,32-3-10,0364_eid_dnn_32-3-10_oven_10_n04111531_22466.png,n04111531_22466.png,0.0,-0.8694407,-0.70088637,-0.119185895
alexnet_w1_mlp_simclrhn_probe1,1,365,NaN,oven,airplane,128-3-10,0365_eid_dnn_128-3-10_airplane_10_n02690373_2525.png,n02690373_2525.png,0.0,-8.83182,-1.1331854,-5.4437566
alexnet_w1_mlp_simclrhn_probe1,1,366,NaN,cat,cat,1-3-10,0366_eid_dnn_1-3-10_cat_10_n02124075_5369.png,n02124075_5369.png,1.0,2.140141,0.5938673,1.0933807
alexnet_w1_mlp_simclrhn_probe1,1,367,NaN,oven,bird,64-3-10,0367_eid_dnn_64-3-10_bird_10_n01843065_4182.png,n01843065_4182.png,0.0,-2.21278,-0.8055502,-0.99506176
alexnet_w1_mlp_simclrhn_probe1,1,368,NaN,truck,truck,2-3-10,0368_eid_dnn_2-3-10_truck_10_n03796401_6472.png,n03796401_6472.png,1.0,0.63602185,-0.1493069,0.55531126
alexnet_w1_mlp_simclrhn_probe1,1,369,NaN,oven,airplane,64-3-10,0369_eid_dnn_64-3-10_airplane_10_n02690373_3090.png,n02690373_3090.png,0.0,-5.0348206,0.26169208,-3.7452002
alexnet_w1_mlp_simclrhn_probe1,1,370,NaN,bear,bear,64-3-10,0370_eid_dnn_64-3-10_bear_10_n02134418_2964.png,n02134418_2964.png,1.0,0.4408701,-0.44536617,0.62666374
alexnet_w1_mlp_simclrhn_probe1,1,371,NaN,bear,elephant,16-3-10,0371_eid_dnn_16-3-10_elephant_10_n02504013_6904.png,n02504013_6904.png,0.0,2.2133508,2.6855624,-0.33390403
alexnet_w1_mlp_simclrhn_probe1,1,372,NaN,bear,bottle,32-3-10,0372_eid_dnn_32-3-10_bottle_10_n02823428_13488.png,n02823428_13488.png,0.0,-4.2588754,0.55200374,-3.4018054
alexnet_w1_mlp_simclrhn_probe1,1,373,NaN,car,car,1-3-10,0373_eid_dnn_1-3-10_car_10_n02814533_49499.png,n02814533_49499.png,1.0,11.867565,6.2051854,4.003907
alexnet_w1_mlp_simclrhn_probe1,1,374,NaN,oven,clock,64-3-10,0374_eid_dnn_64-3-10_clock_10_n03196217_1000.png,n03196217_1000.png,0.0,-5.23437,-1.7327789,-2.4759989
alexnet_w1_mlp_simclrhn_probe1,1,375,NaN,bear,boat,16-3-10,0375_eid_dnn_16-3-10_boat_10_n04612504_13446.png,n04612504_13446.png,0.0,-2.691957,0.69780946,-2.3969269
alexnet_w1_mlp_simclrhn_probe1,1,376,NaN,bear,cat,8-3-10,0376_eid_dnn_8-3-10_cat_10_n02123159_7239.png,n02123159_7239.png,0.0,-0.08886839,0.35351455,-0.31281197
alexnet_w1_mlp_simclrhn_probe1,1,377,NaN,oven,airplane,8-3-10,0377_eid_dnn_8-3-10_airplane_10_n02690373_7499.png,n02690373_7499.png,0.0,-2.1800408,-0.94701505,-0.8718809
alexnet_w1_mlp_simclrhn_probe1,1,378,NaN,oven,dog,64-3-10,0378_eid_dnn_64-3-10_dog_10_n02100877_8862.png,n02100877_8862.png,0.0,-1.867064,-0.4999526,-0.9666938
alexnet_w1_mlp_simclrhn_probe1,1,379,NaN,keyboard,keyboard,2-3-10,0379_eid_dnn_2-3-10_keyboard_10_n03085013_7152.png,n03085013_7152.png,1.0,3.3741243,0.19908206,2.2450938
alexnet_w1_mlp_simclrhn_probe1,1,380,NaN,bear,bottle,32-3-10,0380_eid_dnn_32-3-10_bottle_10_n03937543_3344.png,n03937543_3344.png,0.0,-3.807212,0.25717765,-2.8739576
alexnet_w1_mlp_simclrhn_probe1,1,381,NaN,bear,bicycle,64-3-10,0381_eid_dnn_64-3-10_bicycle_10_n02835271_1721.png,n02835271_1721.png,0.0,-4.775053,-1.163239,-2.5539382
alexnet_w1_mlp_simclrhn_probe1,1,382,NaN,boat,boat,2-3-10,0382_eid_dnn_2-3-10_boat_10_n04273569_7039.png,n04273569_7039.png,1.0,1.3091935,-1.5212963,2.0014584
alexnet_w1_mlp_simclrhn_probe1,1,383,NaN,airplane,airplane,1-3-10,0383_eid_dnn_1-3-10_airplane_10_n02690373_5790.png,n02690373_5790.png,1.0,3.0842814,-0.47654566,2.517885
alexnet_w1_mlp_simclrhn_probe1,1,384,NaN,elephant,bird,2-3-10,0384_eid_dnn_2-3-10_bird_10_n02007558_4629.png,n02007558_4629.png,0.0,-2.051934,-1.1043155,-0.6700675
alexnet_w1_mlp_simclrhn_probe1,1,385,NaN,airplane,airplane,8-3-10,0385_eid_dnn_8-3-10_airplane_10_n02690373_2313.png,n02690373_2313.png,1.0,0.64224875,-1.164456,1.2775332
alexnet_w1_mlp_simclrhn_probe1,1,386,NaN,car,car,2-3-10,0386_eid_dnn_2-3-10_car_10_n02814533_65093.png,n02814533_65093.png,1.0,6.7818465,4.0017724,1.9658093
alexnet_w1_mlp_simclrhn_probe1,1,387,NaN,bicycle,bicycle,2-3-10,0387_eid_dnn_2-3-10_bicycle_10_n03792782_4559.png,n03792782_4559.png,1.0,1.4020109,-2.512804,2.7681923
alexnet_w1_mlp_simclrhn_probe1,1,388,NaN,oven,oven,2-3-10,0388_eid_dnn_2-3-10_oven_10_n04111531_16696.png,n04111531_16696.png,1.0,3.4749758,0.2465258,2.282859
alexnet_w1_mlp_simclrhn_probe1,1,389,NaN,oven,boat,32-3-10,0389_eid_dnn_32-3-10_boat_10_n04273569_5593.png,n04273569_5593.png,0.0,-3.3567271,-0.14628142,-2.270128
alexnet_w1_mlp_simclrhn_probe1,1,390,NaN,oven,bottle,128-3-10,0390_eid_dnn_128-3-10_bottle_10_n03937543_6624.png,n03937543_6624.png,0.0,-2.2562263,-0.6845499,-1.111343
alexnet_w1_mlp_simclrhn_probe1,1,391,NaN,airplane,airplane,1-3-10,0391_eid_dnn_1-3-10_airplane_10_n02690373_12436.png,n02690373_12436.png,1.0,5.9034595,1.9906543,2.766771
alexnet_w1_mlp_simclrhn_probe1,1,392,NaN,bird,bird,2-3-10,0392_eid_dnn_2-3-10_bird_10_n01828970_6924.png,n01828970_6924.png,1.0,1.4436884,-2.4552443,2.7569618
alexnet_w1_mlp_simclrhn_probe1,1,393,NaN,airplane,airplane,4-3-10,0393_eid_dnn_4-3-10_airplane_10_n02690373_9605.png,n02690373_9605.png,1.0,1.6022799,-2.2739084,2.740879
alexnet_w1_mlp_simclrhn_probe1,1,394,NaN,oven,truck,128-3-10,0394_eid_dnn_128-3-10_truck_10_n03796401_1335.png,n03796401_1335.png,0.0,-6.4422493,-0.6473477,-4.0976143
alexnet_w1_mlp_simclrhn_probe1,1,395,NaN,bear,chair,64-3-10,0395_eid_dnn_64-3-10_chair_10_n04429376_10476.png,n04429376_10476.png,0.0,-11.948965,0.42742783,-8.751431
alexnet_w1_mlp_simclrhn_probe1,1,396,NaN,bottle,bottle,1-3-10,0396_eid_dnn_1-3-10_bottle_10_n04560804_32760.png,n04560804_32760.png,1.0,2.2271755,-0.27476394,1.7691382
alexnet_w1_mlp_simclrhn_probe1,1,397,NaN,oven,airplane,32-3-10,0397_eid_dnn_32-3-10_airplane_10_n02690373_10817.png,n02690373_10817.png,0.0,-3.6586266,-0.9446807,-1.9190495
alexnet_w1_mlp_simclrhn_probe1,1,398,NaN,oven,car,32-3-10,0398_eid_dnn_32-3-10_car_10_n03100240_5946.png,n03100240_5946.png,0.0,-8.56972,0.24208617,-6.2308884
alexnet_w1_mlp_simclrhn_probe1,1,399,NaN,oven,clock,64-3-10,0399_eid_dnn_64-3-10_clock_10_n02708093_2875.png,n02708093_2875.png,0.0,-7.2804093,-0.5646703,-4.748745
alexnet_w1_mlp_simclrhn_probe1,1,400,NaN,bear,bear,2-3-10,0400_eid_dnn_2-3-10_bear_10_n02133161_2456.png,n02133161_2456.png,1.0,3.7317653,0.42356372,2.3392518
alexnet_w1_mlp_simclrhn_probe1,1,401,NaN,bear,bird,8-3-10,0401_eid_dnn_8-3-10_bird_10_n01855672_15317.png,n01855672_15317.png,0.0,-2.6763701,-0.007994071,-1.8868268
alexnet_w1_mlp_simclrhn_probe1,1,402,NaN,dog,dog,8-3-10,0402_eid_dnn_8-3-10_dog_10_n02098286_2242.png,n02098286_2242.png,1.0,1.0512693,-0.4140041,1.0361048
alexnet_w1_mlp_simclrhn_probe1,1,403,NaN,knife,knife,2-3-10,0403_eid_dnn_2-3-10_knife_10_n03041632_43289.png,n03041632_43289.png,1.0,-0.29883566,-0.8838737,0.4136844
alexnet_w1_mlp_simclrhn_probe1,1,404,NaN,bottle,bottle,4-3-10,0404_eid_dnn_4-3-10_bottle_10_n02823428_4387.png,n02823428_4387.png,1.0,2.633278,0.95966524,1.1834228
alexnet_w1_mlp_simclrhn_probe1,1,405,NaN,oven,knife,64-3-10,0405_eid_dnn_64-3-10_knife_10_n03041632_13194.png,n03041632_13194.png,0.0,-2.736795,0.8772702,-2.55553
alexnet_w1_mlp_simclrhn_probe1,1,406,NaN,airplane,airplane,8-3-10,0406_eid_dnn_8-3-10_airplane_10_n02690373_7465.png,n02690373_7465.png,1.0,0.5918859,-1.7243063,1.6377952
alexnet_w1_mlp_simclrhn_probe1,1,407,NaN,bear,bird,4-3-10,0407_eid_dnn_4-3-10_bird_10_n02018207_2282.png,n02018207_2282.png,0.0,-1.3135304,-0.5973236,-0.50643474
alexnet_w1_mlp_simclrhn_probe1,1,408,NaN,oven,chair,64-3-10,0408_eid_dnn_64-3-10_chair_10_n04099969_34351.png,n04099969_34351.png,0.0,-3.708069,-0.2707882,-2.4305246
alexnet_w1_mlp_simclrhn_probe1,1,409,NaN,cat,bottle,64-3-10,0409_eid_dnn_64-3-10_bottle_10_n03937543_49.png,n03937543_49.png,0.0,-2.3850303,-0.5905111,-1.2689167
alexnet_w1_mlp_simclrhn_probe1,1,410,NaN,bicycle,bicycle,8-3-10,0410_eid_dnn_8-3-10_bicycle_10_n03792782_9833.png,n03792782_9833.png,1.0,-0.035613656,-1.367889,0.942061
alexnet_w1_mlp_simclrhn_probe1,1,411,NaN,bottle,clock,4-3-10,0411_eid_dnn_4-3-10_clock_10_n03196217_10384.png,n03196217_10384.png,0.0,-0.98571485,0.14623325,-0.8004082
alexnet_w1_mlp_simclrhn_probe1,1,412,NaN,oven,truck,64-3-10,0412_eid_dnn_64-3-10_truck_10_n04467665_4492.png,n04467665_4492.png,0.0,-5.6677217,-0.7825881,-3.4543114
alexnet_w1_mlp_simclrhn_probe1,1,413,NaN,oven,bottle,128-3-10,0413_eid_dnn_128-3-10_bottle_10_n03983396_5148.png,n03983396_5148.png,0.0,-2.9040139,-1.2953993,-1.1374623
alexnet_w1_mlp_simclrhn_probe1,1,414,NaN,oven,clock,128-3-10,0414_eid_dnn_128-3-10_clock_10_n04548280_4364.png,n04548280_4364.png,0.0,-3.8366973,-0.5076276,-2.3540077
alexnet_w1_mlp_simclrhn_probe1,1,415,NaN,cat,cat,1-3-10,0415_eid_dnn_1-3-10_cat_10_n02123394_6792.png,n02123394_6792.png,1.0,1.9154811,-0.291252,1.5603958
alexnet_w1_mlp_simclrhn_probe1,1,416,NaN,bear,oven,16-3-10,0416_eid_dnn_16-3-10_oven_10_n04111531_1298.png,n04111531_1298.png,0.0,0.501553,1.0343336,-0.37673277
alexnet_w1_mlp_simclrhn_probe1,1,417,NaN,oven,clock,8-3-10,0417_eid_dnn_8-3-10_clock_10_n04548280_2334.png,n04548280_2334.png,0.0,-3.551033,0.15365827,-2.6196125
alexnet_w1_mlp_simclrhn_probe1,1,418,NaN,oven,car,32-3-10,0418_eid_dnn_32-3-10_car_10_n04285008_15570.png,n04285008_15570.png,0.0,-8.061335,0.8452485,-6.2979054
alexnet_w1_mlp_simclrhn_probe1,1,419,NaN,bear,dog,32-3-10,0419_eid_dnn_32-3-10_dog_10_n02087394_7569.png,n02087394_7569.png,0.0,-1.3484101,-0.10522387,-0.87906545
alexnet_w1_mlp_simclrhn_probe1,1,420,NaN,oven,clock,32-3-10,0420_eid_dnn_32-3-10_clock_10_n03196217_11445.png,n03196217_11445.png,0.0,-5.9439926,-0.614998,-3.7681684
alexnet_w1_mlp_simclrhn_probe1,1,421,NaN,bear,chair,32-3-10,0421_eid_dnn_32-3-10_chair_10_n04099969_3095.png,n04099969_3095.png,0.0,-4.785389,0.08596005,-3.4445639
alexnet_w1_mlp_simclrhn_probe1,1,422,NaN,bear,bird,64-3-10,0422_eid_dnn_64-3-10_bird_10_n01601694_935.png,n01601694_935.png,0.0,-2.1695147,-0.5807355,-1.1234366
alexnet_w1_mlp_simclrhn_probe1,1,423,NaN,cat,bird,2-3-10,0423_eid_dnn_2-3-10_bird_10_n01592084_3570.png,n01592084_3570.png,0.0,-3.322535,0.9359266,-3.011187
alexnet_w1_mlp_simclrhn_probe1,1,424,NaN,oven,dog,64-3-10,0424_eid_dnn_64-3-10_dog_10_n02090379_605.png,n02090379_605.png,0.0,-1.1853597,0.1106236,-0.9163986
alexnet_w1_mlp_simclrhn_probe1,1,425,NaN,airplane,airplane,1-3-10,0425_eid_dnn_1-3-10_airplane_10_n02690373_3912.png,n02690373_3912.png,1.0,7.2361245,-0.7634658,5.6565647
alexnet_w1_mlp_simclrhn_probe1,1,426,NaN,oven,oven,128-3-10,0426_eid_dnn_128-3-10_oven_10_n04111531_986.png,n04111531_986.png,1.0,-1.2542219,-1.5796272,0.23009625
alexnet_w1_mlp_simclrhn_probe1,1,427,NaN,bear,knife,32-3-10,0427_eid_dnn_32-3-10_knife_10_n03041632_23736.png,n03041632_23736.png,0.0,-3.0539327,0.053613916,-2.1973672
alexnet_w1_mlp_simclrhn_probe1,1,428,NaN,elephant,clock,4-3-10,0428_eid_dnn_4-3-10_clock_10_n04548280_10686.png,n04548280_10686.png,0.0,-1.800808,-1.5227118,-0.19664371
alexnet_w1_mlp_simclrhn_probe1,1,429,NaN,oven,oven,32-3-10,0429_eid_dnn_32-3-10_oven_10_n04111531_21460.png,n04111531_21460.png,1.0,0.8330168,0.584218,0.17592731
alexnet_w1_mlp_simclrhn_probe1,1,430,NaN,oven,bottle,32-3-10,0430_eid_dnn_32-3-10_bottle_10_n04557648_3675.png,n04557648_3675.png,0.0,-3.7667809,1.1708485,-3.4914312
alexnet_w1_mlp_simclrhn_probe1,1,431,NaN,oven,chair,8-3-10,0431_eid_dnn_8-3-10_chair_10_n02791124_495.png,n02791124_495.png,0.0,-4.2304463,-0.19178614,-2.855764
alexnet_w1_mlp_simclrhn_probe1,1,432,NaN,oven,chair,128-3-10,0432_eid_dnn_128-3-10_chair_10_n04429376_9165.png,n04429376_9165.png,0.0,-6.608351,-0.35069406,-4.424832
alexnet_w1_mlp_simclrhn_probe1,1,433,NaN,clock,clock,1-3-10,0433_eid_dnn_1-3-10_clock_10_n04548280_2937.png,n04548280_2937.png,1.0,-0.5665137,-0.69328254,0.0896391
alexnet_w1_mlp_simclrhn_probe1,1,434,NaN,bear,bear,32-3-10,0434_eid_dnn_32-3-10_bear_10_n02134418_5849.png,n02134418_5849.png,1.0,-0.22042373,-1.5433344,0.9354391
alexnet_w1_mlp_simclrhn_probe1,1,435,NaN,oven,bottle,128-3-10,0435_eid_dnn_128-3-10_bottle_10_n04560804_2521.png,n04560804_2521.png,0.0,-2.7686098,-1.0070934,-1.2455802
alexnet_w1_mlp_simclrhn_probe1,1,436,NaN,elephant,car,8-3-10,0436_eid_dnn_8-3-10_car_10_n04285008_11600.png,n04285008_11600.png,0.0,-3.4273312,-0.86509126,-1.8117772
alexnet_w1_mlp_simclrhn_probe1,1,437,NaN,knife,knife,2-3-10,0437_eid_dnn_2-3-10_knife_10_n03041632_79317.png,n03041632_79317.png,1.0,1.5910211,-2.2052655,2.68438
alexnet_w1_mlp_simclrhn_probe1,1,438,NaN,bear,truck,32-3-10,0438_eid_dnn_32-3-10_truck_10_n03417042_6467.png,n03417042_6467.png,0.0,-7.573766,1.3655982,-6.3210855
alexnet_w1_mlp_simclrhn_probe1,1,439,NaN,bird,airplane,64-3-10,0439_eid_dnn_64-3-10_airplane_10_n02690373_303.png,n02690373_303.png,0.0,-3.4860487,-1.3414963,-1.5164274
alexnet_w1_mlp_simclrhn_probe1,1,440,NaN,bear,chair,64-3-10,0440_eid_dnn_64-3-10_chair_10_n04099969_2354.png,n04099969_2354.png,0.0,-6.8928046,-0.19632146,-4.735129
alexnet_w1_mlp_simclrhn_probe1,1,441,NaN,oven,clock,128-3-10,0441_eid_dnn_128-3-10_clock_10_n04548280_377.png,n04548280_377.png,0.0,-4.537258,-1.5411737,-2.1185517
alexnet_w1_mlp_simclrhn_probe1,1,442,NaN,elephant,bicycle,32-3-10,0442_eid_dnn_32-3-10_bicycle_10_n03792782_11597.png,n03792782_11597.png,0.0,-1.7334638,-0.7984665,-0.6611429
alexnet_w1_mlp_simclrhn_probe1,1,443,NaN,bottle,bottle,2-3-10,0443_eid_dnn_2-3-10_bottle_10_n04579145_215.png,n04579145_215.png,1.0,1.7985642,-1.8812723,2.6020374
alexnet_w1_mlp_simclrhn_probe1,1,444,NaN,car,car,4-3-10,0444_eid_dnn_4-3-10_car_10_n02814533_95669.png,n02814533_95669.png,1.0,3.064031,0.46372855,1.8386914
alexnet_w1_mlp_simclrhn_probe1,1,445,NaN,oven,chair,32-3-10,0445_eid_dnn_32-3-10_chair_10_n04429376_51025.png,n04429376_51025.png,0.0,-5.9405546,-0.22168219,-4.0438538
alexnet_w1_mlp_simclrhn_probe1,1,446,NaN,cat,cat,4-3-10,0446_eid_dnn_4-3-10_cat_10_n02123045_2757.png,n02123045_2757.png,1.0,2.7788632,0.4709922,1.6319112
alexnet_w1_mlp_simclrhn_probe1,1,447,NaN,bottle,bottle,4-3-10,0447_eid_dnn_4-3-10_bottle_10_n03937543_2135.png,n03937543_2135.png,1.0,-0.5433942,-0.897011,0.25004482
alexnet_w1_mlp_simclrhn_probe1,1,448,NaN,bird,bird,2-3-10,0448_eid_dnn_2-3-10_bird_10_n01855032_7457.png,n01855032_7457.png,1.0,-0.040252004,-1.0431015,0.70912176
alexnet_w1_mlp_simclrhn_probe1,1,449,NaN,bear,car,16-3-10,0449_eid_dnn_16-3-10_car_10_n02814533_24935.png,n02814533_24935.png,0.0,-9.254191,1.0860107,-7.3116274
alexnet_w1_mlp_simclrhn_probe1,1,450,NaN,oven,keyboard,4-3-10,0450_eid_dnn_4-3-10_keyboard_10_n04505470_1371.png,n04505470_1371.png,0.0,-1.2866068,2.6665196,-2.7952826
alexnet_w1_mlp_simclrhn_probe1,1,451,NaN,bear,dog,16-3-10,0451_eid_dnn_16-3-10_dog_10_n02099267_2379.png,n02099267_2379.png,0.0,-0.8729592,2.3034754,-2.2460785
alexnet_w1_mlp_simclrhn_probe1,1,452,NaN,cat,cat,8-3-10,0452_eid_dnn_8-3-10_cat_10_n02123394_8009.png,n02123394_8009.png,1.0,1.7898782,0.30734572,1.0483088
alexnet_w1_mlp_simclrhn_probe1,1,453,NaN,keyboard,keyboard,2-3-10,0453_eid_dnn_2-3-10_keyboard_10_n03085013_29042.png,n03085013_29042.png,1.0,1.2672485,-0.5184691,1.262693
alexnet_w1_mlp_simclrhn_probe1,1,454,NaN,oven,airplane,128-3-10,0454_eid_dnn_128-3-10_airplane_10_n02690373_2131.png,n02690373_2131.png,0.0,-7.8194613,0.006393358,-5.5337152
alexnet_w1_mlp_simclrhn_probe1,1,455,NaN,cat,car,8-3-10,0455_eid_dnn_8-3-10_car_10_n03100240_327.png,n03100240_327.png,0.0,-4.1972637,-1.5405248,-1.878598
alexnet_w1_mlp_simclrhn_probe1,1,456,NaN,elephant,elephant,2-3-10,0456_eid_dnn_2-3-10_elephant_10_n02504458_4163.png,n02504458_4163.png,1.0,6.0576196,1.8470708,2.9773078
alexnet_w1_mlp_simclrhn_probe1,1,457,NaN,knife,knife,1-3-10,0457_eid_dnn_1-3-10_knife_10_n03041632_9635.png,n03041632_9635.png,1.0,-0.50325537,-1.8520374,0.95373297
alexnet_w1_mlp_simclrhn_probe1,1,458,NaN,bear,airplane,16-3-10,0458_eid_dnn_16-3-10_airplane_10_n02690373_1044.png,n02690373_1044.png,0.0,-4.8375807,-0.116417125,-3.338367
alexnet_w1_mlp_simclrhn_probe1,1,459,NaN,bear,bottle,16-3-10,0459_eid_dnn_16-3-10_bottle_10_n04560804_5441.png,n04560804_5441.png,0.0,-3.037292,-0.14577052,-2.0446146
alexnet_w1_mlp_simclrhn_probe1,1,460,NaN,cat,cat,8-3-10,0460_eid_dnn_8-3-10_cat_10_n02123159_988.png,n02123159_988.png,1.0,1.4192518,-0.3345422,1.2401196
alexnet_w1_mlp_simclrhn_probe1,1,461,NaN,cat,bird,64-3-10,0461_eid_dnn_64-3-10_bird_10_n01843383_4667.png,n01843383_4667.png,0.0,-5.83266,0.6181679,-4.5614243
alexnet_w1_mlp_simclrhn_probe1,1,462,NaN,airplane,airplane,2-3-10,0462_eid_dnn_2-3-10_airplane_10_n02690373_6978.png,n02690373_6978.png,1.0,3.764639,-0.09218246,2.7271845
alexnet_w1_mlp_simclrhn_probe1,1,463,NaN,oven,chair,128-3-10,0463_eid_dnn_128-3-10_chair_10_n04099969_5901.png,n04099969_5901.png,0.0,-7.3716006,-0.17580321,-5.088197
alexnet_w1_mlp_simclrhn_probe1,1,464,NaN,elephant,truck,8-3-10,0464_eid_dnn_8-3-10_truck_10_n03417042_29849.png,n03417042_29849.png,0.0,-4.86625,2.8713317,-5.471297
alexnet_w1_mlp_simclrhn_probe1,1,465,NaN,airplane,airplane,1-3-10,0465_eid_dnn_1-3-10_airplane_10_n02690373_427.png,n02690373_427.png,1.0,2.0992286,-0.97165316,2.1714413
alexnet_w1_mlp_simclrhn_probe1,1,466,NaN,bottle,bottle,4-3-10,0466_eid_dnn_4-3-10_bottle_10_n03983396_2305.png,n03983396_2305.png,1.0,2.56937,0.078021884,1.7616493
alexnet_w1_mlp_simclrhn_probe1,1,467,NaN,oven,oven,64-3-10,0467_eid_dnn_64-3-10_oven_10_n04111531_15296.png,n04111531_15296.png,1.0,-0.41071284,-1.3946887,0.69577605
alexnet_w1_mlp_simclrhn_probe1,1,468,NaN,cat,cat,4-3-10,0468_eid_dnn_4-3-10_cat_10_n02123159_6728.png,n02123159_6728.png,1.0,1.5826021,-0.08096847,1.1763221
alexnet_w1_mlp_simclrhn_probe1,1,469,NaN,elephant,elephant,4-3-10,0469_eid_dnn_4-3-10_elephant_10_n02504458_12449.png,n02504458_12449.png,1.0,4.8603983,2.3150883,1.799806
alexnet_w1_mlp_simclrhn_probe1,1,470,NaN,oven,elephant,128-3-10,0470_eid_dnn_128-3-10_elephant_10_n02504458_12165.png,n02504458_12165.png,0.0,-3.246117,0.44921747,-2.6129963
alexnet_w1_mlp_simclrhn_probe1,1,471,NaN,bear,airplane,8-3-10,0471_eid_dnn_8-3-10_airplane_10_n02690373_5010.png,n02690373_5010.png,0.0,-0.8508927,-0.51443124,-0.2379142
alexnet_w1_mlp_simclrhn_probe1,1,472,NaN,oven,dog,64-3-10,0472_eid_dnn_64-3-10_dog_10_n02100236_4549.png,n02100236_4549.png,0.0,-2.3110988,-0.84863937,-1.034115
alexnet_w1_mlp_simclrhn_probe1,1,473,NaN,boat,boat,4-3-10,0473_eid_dnn_4-3-10_boat_10_n03344393_4289.png,n03344393_4289.png,1.0,1.6154063,1.0613652,0.39176616
alexnet_w1_mlp_simclrhn_probe1,1,474,NaN,oven,chair,64-3-10,0474_eid_dnn_64-3-10_chair_10_n04099969_48169.png,n04099969_48169.png,0.0,-4.841568,-0.3935691,-3.1452103
alexnet_w1_mlp_simclrhn_probe1,1,475,NaN,airplane,airplane,4-3-10,0475_eid_dnn_4-3-10_airplane_10_n02690373_1996.png,n02690373_1996.png,1.0,2.6437187,-1.547469,2.9636173
alexnet_w1_mlp_simclrhn_probe1,1,476,NaN,oven,truck,128-3-10,0476_eid_dnn_128-3-10_truck_10_n03417042_28078.png,n03417042_28078.png,0.0,-7.542598,-1.1086887,-4.549461
alexnet_w1_mlp_simclrhn_probe1,1,477,NaN,oven,truck,8-3-10,0477_eid_dnn_8-3-10_truck_10_n04467665_3098.png,n04467665_3098.png,0.0,-4.465893,-0.2609561,-2.973339
alexnet_w1_mlp_simclrhn_probe1,1,478,NaN,elephant,elephant,4-3-10,0478_eid_dnn_4-3-10_elephant_10_n02504458_847.png,n02504458_847.png,1.0,4.9909344,4.3168116,0.47667682
alexnet_w1_mlp_simclrhn_probe1,1,479,NaN,cat,bicycle,8-3-10,0479_eid_dnn_8-3-10_bicycle_10_n03792782_5880.png,n03792782_5880.png,0.0,-4.3700194,0.783474,-3.6440701
alexnet_w1_mlp_simclrhn_probe1,1,480,NaN,oven,bear,128-3-10,0480_eid_dnn_128-3-10_bear_10_n02132136_30976.png,n02132136_30976.png,0.0,-1.3084745,-0.73711455,-0.40401253
alexnet_w1_mlp_simclrhn_probe1,1,481,NaN,oven,chair,64-3-10,0481_eid_dnn_64-3-10_chair_10_n02791124_2057.png,n02791124_2057.png,0.0,-4.588714,-0.77168363,-2.699048
alexnet_w1_mlp_simclrhn_probe1,1,482,NaN,oven,keyboard,128-3-10,0482_eid_dnn_128-3-10_keyboard_10_n03085013_7286.png,n03085013_7286.png,0.0,-5.2184353,-0.22463325,-3.5311513
alexnet_w1_mlp_simclrhn_probe1,1,483,NaN,oven,clock,32-3-10,0483_eid_dnn_32-3-10_clock_10_n04548280_1323.png,n04548280_1323.png,0.0,-4.832027,0.06291054,-3.4612436
alexnet_w1_mlp_simclrhn_probe1,1,484,NaN,oven,bottle,128-3-10,0484_eid_dnn_128-3-10_bottle_10_n03983396_18508.png,n03983396_18508.png,0.0,-3.3805869,-1.1868491,-1.5512068
alexnet_w1_mlp_simclrhn_probe1,1,485,NaN,cat,bottle,8-3-10,0485_eid_dnn_8-3-10_bottle_10_n03983396_3880.png,n03983396_3880.png,0.0,-2.66936,0.8044591,-2.456361
alexnet_w1_mlp_simclrhn_probe1,1,486,NaN,oven,dog,128-3-10,0486_eid_dnn_128-3-10_dog_10_n02095570_601.png,n02095570_601.png,0.0,-3.0328424,-0.19259334,-2.0083594
alexnet_w1_mlp_simclrhn_probe1,1,487,NaN,bear,bird,32-3-10,0487_eid_dnn_32-3-10_bird_10_n01797886_21510.png,n01797886_21510.png,0.0,-2.8310015,-0.6439213,-1.5464993
alexnet_w1_mlp_simclrhn_probe1,1,488,NaN,keyboard,chair,1-3-10,0488_eid_dnn_1-3-10_chair_10_n04099969_9425.png,n04099969_9425.png,0.0,1.1753141,1.7138815,-0.38082469
alexnet_w1_mlp_simclrhn_probe1,1,489,NaN,oven,keyboard,8-3-10,0489_eid_dnn_8-3-10_keyboard_10_n04505470_4228.png,n04505470_4228.png,0.0,-5.171258,-0.38129535,-3.387015
alexnet_w1_mlp_simclrhn_probe1,1,490,NaN,bear,elephant,32-3-10,0490_eid_dnn_32-3-10_elephant_10_n02504013_7553.png,n02504013_7553.png,0.0,-0.4258354,0.58385783,-0.71396095
alexnet_w1_mlp_simclrhn_probe1,1,491,NaN,oven,cat,64-3-10,0491_eid_dnn_64-3-10_cat_10_n02125311_8090.png,n02125311_8090.png,0.0,-1.567345,0.14489903,-1.2107394
alexnet_w1_mlp_simclrhn_probe1,1,492,NaN,oven,keyboard,8-3-10,0492_eid_dnn_8-3-10_keyboard_10_n04505470_10041.png,n04505470_10041.png,0.0,-5.1920977,0.7607163,-4.2092752
alexnet_w1_mlp_simclrhn_probe1,1,493,NaN,cat,bicycle,4-3-10,0493_eid_dnn_4-3-10_bicycle_10_n03792782_1833.png,n03792782_1833.png,0.0,-1.3497884,-0.9242258,-0.30091822
alexnet_w1_mlp_simclrhn_probe1,1,494,NaN,elephant,bottle,4-3-10,0494_eid_dnn_4-3-10_bottle_10_n04557648_11642.png,n04557648_11642.png,0.0,-1.5697066,0.041207157,-1.139088
alexnet_w1_mlp_simclrhn_probe1,1,495,NaN,oven,car,128-3-10,0495_eid_dnn_128-3-10_car_10_n03100240_7219.png,n03100240_7219.png,0.0,-9.3126,-1.7533038,-5.34523
alexnet_w1_mlp_simclrhn_probe1,1,496,NaN,car,truck,1-3-10,0496_eid_dnn_1-3-10_truck_10_n03796401_9642.png,n03796401_9642.png,0.0,6.937007,7.258692,-0.22746554
alexnet_w1_mlp_simclrhn_probe1,1,497,NaN,oven,cat,1-3-10,0497_eid_dnn_1-3-10_cat_10_n02125311_13348.png,n02125311_13348.png,0.0,-1.6057825,-0.28617498,-0.93310344
alexnet_w1_mlp_simclrhn_probe1,1,498,NaN,bicycle,bottle,128-3-10,0498_eid_dnn_128-3-10_bottle_10_n04560804_5540.png,n04560804_5540.png,0.0,-3.7469258,-2.5223393,-0.86591345
alexnet_w1_mlp_simclrhn_probe1,1,499,NaN,bottle,bottle,4-3-10,0499_eid_dnn_4-3-10_bottle_10_n03983396_9604.png,n03983396_9604.png,1.0,3.051792,-2.7364836,4.092929
alexnet_w1_mlp_simclrhn_probe1,1,500,NaN,bear,truck,32-3-10,0500_eid_dnn_32-3-10_truck_10_n03417042_5180.png,n03417042_5180.png,0.0,-5.77521,-0.38008434,-3.8149297
alexnet_w1_mlp_simclrhn_probe1,1,501,NaN,bear,dog,16-3-10,0501_eid_dnn_16-3-10_dog_10_n02109525_3364.png,n02109525_3364.png,0.0,-0.5124329,0.36380428,-0.61959326
alexnet_w1_mlp_simclrhn_probe1,1,502,NaN,bottle,clock,2-3-10,0502_eid_dnn_2-3-10_clock_10_n04548280_353.png,n04548280_353.png,0.0,-0.7467602,0.10194532,-0.60012543
alexnet_w1_mlp_simclrhn_probe1,1,503,NaN,dog,dog,1-3-10,0503_eid_dnn_1-3-10_dog_10_n02111129_4423.png,n02111129_4423.png,1.0,1.1141418,1.0147973,0.070247166
alexnet_w1_mlp_simclrhn_probe1,1,504,NaN,bear,dog,16-3-10,0504_eid_dnn_16-3-10_dog_10_n02108000_1538.png,n02108000_1538.png,0.0,-1.6912371,0.7624264,-1.735002
alexnet_w1_mlp_simclrhn_probe1,1,505,NaN,bear,keyboard,16-3-10,0505_eid_dnn_16-3-10_keyboard_10_n03085013_3439.png,n03085013_3439.png,0.0,-6.7891936,0.05123899,-4.8369164
alexnet_w1_mlp_simclrhn_probe1,1,506,NaN,elephant,truck,8-3-10,0506_eid_dnn_8-3-10_truck_10_n03417042_4016.png,n03417042_4016.png,0.0,-4.317451,-1.0634359,-2.300936
alexnet_w1_mlp_simclrhn_probe1,1,507,NaN,bear,knife,32-3-10,0507_eid_dnn_32-3-10_knife_10_n03041632_39883.png,n03041632_39883.png,0.0,-2.821153,0.5250644,-2.366133
alexnet_w1_mlp_simclrhn_probe1,1,508,NaN,bear,bear,16-3-10,0508_eid_dnn_16-3-10_bear_10_n02132136_21181.png,n02132136_21181.png,1.0,0.5839058,-0.6890505,0.9001161
alexnet_w1_mlp_simclrhn_probe1,1,509,NaN,elephant,elephant,8-3-10,0509_eid_dnn_8-3-10_elephant_10_n02504013_718.png,n02504013_718.png,1.0,3.0326293,2.147568,0.62583286
alexnet_w1_mlp_simclrhn_probe1,1,510,NaN,oven,oven,2-3-10,0510_eid_dnn_2-3-10_oven_10_n04111531_4146.png,n04111531_4146.png,1.0,3.9035032,-0.20755625,2.9069579
alexnet_w1_mlp_simclrhn_probe1,1,511,NaN,airplane,airplane,8-3-10,0511_eid_dnn_8-3-10_airplane_10_n02690373_10769.png,n02690373_10769.png,1.0,-0.37080723,-0.9404104,0.40277025
alexnet_w1_mlp_simclrhn_probe1,1,512,NaN,dog,dog,16-3-10,0512_eid_dnn_16-3-10_dog_10_n02109525_4516.png,n02109525_4516.png,1.0,1.3322532,1.0734165,0.18302523
alexnet_w1_mlp_simclrhn_probe1,1,513,NaN,elephant,boat,4-3-10,0513_eid_dnn_4-3-10_boat_10_n02951358_12333.png,n02951358_12333.png,0.0,-0.8718298,0.59277916,-1.0356349
alexnet_w1_mlp_simclrhn_probe1,1,514,NaN,cat,chair,8-3-10,0514_eid_dnn_8-3-10_chair_10_n04099969_20421.png,n04099969_20421.png,0.0,-7.3395853,1.0285639,-5.917175
alexnet_w1_mlp_simclrhn_probe1,1,515,NaN,cat,knife,4-3-10,0515_eid_dnn_4-3-10_knife_10_n03041632_21165.png,n03041632_21165.png,0.0,-0.5488328,-0.28301698,-0.18796015
alexnet_w1_mlp_simclrhn_probe1,1,516,NaN,bicycle,bicycle,1-3-10,0516_eid_dnn_1-3-10_bicycle_10_n02835271_21439.png,n02835271_21439.png,1.0,1.8989298,-1.1962637,2.1886322
alexnet_w1_mlp_simclrhn_probe1,1,517,NaN,airplane,boat,1-3-10,0517_eid_dnn_1-3-10_boat_10_n04273569_24526.png,n04273569_24526.png,0.0,1.2708819,1.8212628,-0.3891781
alexnet_w1_mlp_simclrhn_probe1,1,518,NaN,bear,bottle,32-3-10,0518_eid_dnn_32-3-10_bottle_10_n04579145_2276.png,n04579145_2276.png,0.0,-4.613401,0.4207145,-3.559657
alexnet_w1_mlp_simclrhn_probe1,1,519,NaN,bear,bear,8-3-10,0519_eid_dnn_8-3-10_bear_10_n02134418_1642.png,n02134418_1642.png,1.0,1.7350085,-0.15730822,1.33807
alexnet_w1_mlp_simclrhn_probe1,1,520,NaN,bicycle,bicycle,1-3-10,0520_eid_dnn_1-3-10_bicycle_10_n02835271_15468.png,n02835271_15468.png,1.0,5.954515,-1.3775866,5.184579
alexnet_w1_mlp_simclrhn_probe1,1,521,NaN,cat,keyboard,64-3-10,0521_eid_dnn_64-3-10_keyboard_10_n03085013_26532.png,n03085013_26532.png,0.0,-3.0714507,-1.2203289,-1.3089408
alexnet_w1_mlp_simclrhn_probe1,1,522,NaN,bear,clock,64-3-10,0522_eid_dnn_64-3-10_clock_10_n03196217_6809.png,n03196217_6809.png,0.0,-4.904146,-0.17862496,-3.341448
alexnet_w1_mlp_simclrhn_probe1,1,523,NaN,oven,bear,64-3-10,0523_eid_dnn_64-3-10_bear_10_n02134418_4384.png,n02134418_4384.png,0.0,-0.99900603,-0.4995749,-0.35315114
alexnet_w1_mlp_simclrhn_probe1,1,524,NaN,dog,dog,4-3-10,0524_eid_dnn_4-3-10_dog_10_n02086240_1183.png,n02086240_1183.png,1.0,1.6935619,0.694952,0.7061238
alexnet_w1_mlp_simclrhn_probe1,1,525,NaN,chair,chair,1-3-10,0525_eid_dnn_1-3-10_chair_10_n04429376_294.png,n04429376_294.png,1.0,-2.740839,-3.4378939,0.49289224
alexnet_w1_mlp_simclrhn_probe1,1,526,NaN,oven,clock,64-3-10,0526_eid_dnn_64-3-10_clock_10_n02708093_4893.png,n02708093_4893.png,0.0,-4.01887,0.027198538,-2.8610022
alexnet_w1_mlp_simclrhn_probe1,1,527,NaN,oven,keyboard,64-3-10,0527_eid_dnn_64-3-10_keyboard_10_n03085013_3098.png,n03085013_3098.png,0.0,-5.9314904,-0.019730598,-4.1802454
alexnet_w1_mlp_simclrhn_probe1,1,528,NaN,bear,cat,16-3-10,0528_eid_dnn_16-3-10_cat_10_n02125311_22073.png,n02125311_22073.png,0.0,-2.0793433,0.23798728,-1.6386002
alexnet_w1_mlp_simclrhn_probe1,1,529,NaN,elephant,bird,2-3-10,0529_eid_dnn_2-3-10_bird_10_n01558993_869.png,n01558993_869.png,0.0,-2.4877088,-1.5623865,-0.6543017
alexnet_w1_mlp_simclrhn_probe1,1,530,NaN,elephant,bird,1-3-10,0530_eid_dnn_1-3-10_bird_10_n01817953_8025.png,n01817953_8025.png,0.0,-1.07934,-0.91562355,-0.115765005
alexnet_w1_mlp_simclrhn_probe1,1,531,NaN,oven,chair,2-3-10,0531_eid_dnn_2-3-10_chair_10_n04099969_24235.png,n04099969_24235.png,0.0,-1.143092,1.9546041,-2.190402
alexnet_w1_mlp_simclrhn_probe1,1,532,NaN,oven,knife,128-3-10,0532_eid_dnn_128-3-10_knife_10_n03041632_1201.png,n03041632_1201.png,0.0,-2.6514354,-0.32972574,-1.6416967
alexnet_w1_mlp_simclrhn_probe1,1,533,NaN,bear,bicycle,4-3-10,0533_eid_dnn_4-3-10_bicycle_10_n03792782_16212.png,n03792782_16212.png,0.0,-5.0225315,-0.34768853,-3.305613
alexnet_w1_mlp_simclrhn_probe1,1,534,NaN,oven,oven,4-3-10,0534_eid_dnn_4-3-10_oven_10_n04111531_11655.png,n04111531_11655.png,1.0,0.72002685,-0.9373092,1.1719135
alexnet_w1_mlp_simclrhn_probe1,1,535,NaN,bear,bicycle,16-3-10,0535_eid_dnn_16-3-10_bicycle_10_n02835271_5152.png,n02835271_5152.png,0.0,-4.4086995,1.5443587,-4.209448
alexnet_w1_mlp_simclrhn_probe1,1,536,NaN,bear,bear,16-3-10,0536_eid_dnn_16-3-10_bear_10_n02132136_19290.png,n02132136_19290.png,1.0,-0.0060566664,-0.48189843,0.33647093
alexnet_w1_mlp_simclrhn_probe1,1,537,NaN,bear,car,32-3-10,0537_eid_dnn_32-3-10_car_10_n03100240_6103.png,n03100240_6103.png,0.0,-6.378761,-0.35387862,-4.2602353
alexnet_w1_mlp_simclrhn_probe1,1,538,NaN,bird,airplane,16-3-10,0538_eid_dnn_16-3-10_airplane_10_n02690373_5714.png,n02690373_5714.png,0.0,-3.6670156,-1.5822742,-1.4741348
alexnet_w1_mlp_simclrhn_probe1,1,539,NaN,clock,chair,1-3-10,0539_eid_dnn_1-3-10_chair_10_n04429376_2915.png,n04429376_2915.png,0.0,-1.5842011,-0.94967294,-0.44867918
alexnet_w1_mlp_simclrhn_probe1,1,540,NaN,cat,clock,64-3-10,0540_eid_dnn_64-3-10_clock_10_n02708093_7827.png,n02708093_7827.png,0.0,-4.668283,-1.6965551,-2.1013288
alexnet_w1_mlp_simclrhn_probe1,1,541,NaN,truck,truck,2-3-10,0541_eid_dnn_2-3-10_truck_10_n03417042_6247.png,n03417042_6247.png,1.0,2.157587,0.5291154,1.1515033
alexnet_w1_mlp_simclrhn_probe1,1,542,NaN,oven,elephant,32-3-10,0542_eid_dnn_32-3-10_elephant_10_n02504013_947.png,n02504013_947.png,0.0,-0.8065754,0.2808168,-0.7689024
alexnet_w1_mlp_simclrhn_probe1,1,543,NaN,truck,truck,1-3-10,0543_eid_dnn_1-3-10_truck_10_n03417042_2074.png,n03417042_2074.png,1.0,4.5857286,2.9703338,1.1422566
alexnet_w1_mlp_simclrhn_probe1,1,544,NaN,airplane,airplane,8-3-10,0544_eid_dnn_8-3-10_airplane_10_n02690373_5221.png,n02690373_5221.png,1.0,-0.08483952,-1.724322,1.1592892
alexnet_w1_mlp_simclrhn_probe1,1,545,NaN,knife,oven,4-3-10,0545_eid_dnn_4-3-10_oven_10_n04111531_6629.png,n04111531_6629.png,0.0,-0.47888276,-0.23865709,-0.1698652
alexnet_w1_mlp_simclrhn_probe1,1,546,NaN,knife,knife,1-3-10,0546_eid_dnn_1-3-10_knife_10_n03041632_36277.png,n03041632_36277.png,1.0,1.242748,-1.9573371,2.262802
alexnet_w1_mlp_simclrhn_probe1,1,547,NaN,oven,cat,64-3-10,0547_eid_dnn_64-3-10_cat_10_n02123597_4700.png,n02123597_4700.png,0.0,-1.5446934,-0.4671297,-0.7619526
alexnet_w1_mlp_simclrhn_probe1,1,548,NaN,bear,airplane,16-3-10,0548_eid_dnn_16-3-10_airplane_10_n02690373_20042.png,n02690373_20042.png,0.0,-2.6653242,-1.0871677,-1.1159252
alexnet_w1_mlp_simclrhn_probe1,1,549,NaN,oven,chair,32-3-10,0549_eid_dnn_32-3-10_chair_10_n02791124_15539.png,n02791124_15539.png,0.0,-6.7649,0.196127,-4.9221897
alexnet_w1_mlp_simclrhn_probe1,1,550,NaN,cat,cat,1-3-10,0550_eid_dnn_1-3-10_cat_10_n02123394_5700.png,n02123394_5700.png,1.0,1.7338253,0.9039186,0.58683264
alexnet_w1_mlp_simclrhn_probe1,1,551,NaN,car,car,4-3-10,0551_eid_dnn_4-3-10_car_10_n04285008_13595.png,n04285008_13595.png,1.0,1.2077075,-1.5124153,1.9234173
alexnet_w1_mlp_simclrhn_probe1,1,552,NaN,oven,chair,8-3-10,0552_eid_dnn_8-3-10_chair_10_n02791124_2282.png,n02791124_2282.png,0.0,-6.3272614,-0.15677667,-4.3631916
alexnet_w1_mlp_simclrhn_probe1,1,553,NaN,bear,dog,2-3-10,0553_eid_dnn_2-3-10_dog_10_n02100877_3973.png,n02100877_3973.png,0.0,0.16754602,0.48482957,-0.22435337
alexnet_w1_mlp_simclrhn_probe1,1,554,NaN,oven,truck,64-3-10,0554_eid_dnn_64-3-10_truck_10_n03417042_12297.png,n03417042_12297.png,0.0,-6.709095,-0.1102224,-4.6661077
alexnet_w1_mlp_simclrhn_probe1,1,555,NaN,bear,elephant,8-3-10,0555_eid_dnn_8-3-10_elephant_10_n02504013_6303.png,n02504013_6303.png,0.0,-0.6952319,-0.56807387,-0.089914314
alexnet_w1_mlp_simclrhn_probe1,1,556,NaN,dog,car,8-3-10,0556_eid_dnn_8-3-10_car_10_n02814533_43990.png,n02814533_43990.png,0.0,-4.215084,-0.7949599,-2.418393
alexnet_w1_mlp_simclrhn_probe1,1,557,NaN,bear,truck,16-3-10,0557_eid_dnn_16-3-10_truck_10_n04467665_58456.png,n04467665_58456.png,0.0,-8.262836,1.6872983,-7.0358076
alexnet_w1_mlp_simclrhn_probe1,1,558,NaN,cat,dog,4-3-10,0558_eid_dnn_4-3-10_dog_10_n02098105_526.png,n02098105_526.png,0.0,-1.2246182,-0.59627897,-0.44430295
alexnet_w1_mlp_simclrhn_probe1,1,559,NaN,bird,bird,2-3-10,0559_eid_dnn_2-3-10_bird_10_n02037110_27907.png,n02037110_27907.png,1.0,0.70931345,-2.0983703,1.9853323
alexnet_w1_mlp_simclrhn_probe1,1,560,NaN,oven,keyboard,64-3-10,0560_eid_dnn_64-3-10_keyboard_10_n03085013_20849.png,n03085013_20849.png,0.0,-4.5842285,-1.0635653,-2.489485
alexnet_w1_mlp_simclrhn_probe1,1,561,NaN,chair,chair,1-3-10,0561_eid_dnn_1-3-10_chair_10_n03376595_12524.png,n03376595_12524.png,1.0,2.9639554,-2.213776,3.661209
alexnet_w1_mlp_simclrhn_probe1,1,562,NaN,oven,bird,64-3-10,0562_eid_dnn_64-3-10_bird_10_n02056570_27055.png,n02056570_27055.png,0.0,-4.126528,-0.19036826,-2.7832851
alexnet_w1_mlp_simclrhn_probe1,1,563,NaN,oven,truck,64-3-10,0563_eid_dnn_64-3-10_truck_10_n03417042_4934.png,n03417042_4934.png,0.0,-6.1648064,-0.88269675,-3.7350156
alexnet_w1_mlp_simclrhn_probe1,1,564,NaN,bear,knife,16-3-10,0564_eid_dnn_16-3-10_knife_10_n03041632_3210.png,n03041632_3210.png,0.0,-1.6875288,-0.4633724,-0.8656093
alexnet_w1_mlp_simclrhn_probe1,1,565,NaN,cat,dog,8-3-10,0565_eid_dnn_8-3-10_dog_10_n02096585_2118.png,n02096585_2118.png,0.0,-0.2539936,0.38824382,-0.45413044
alexnet_w1_mlp_simclrhn_probe1,1,566,NaN,keyboard,keyboard,1-3-10,0566_eid_dnn_1-3-10_keyboard_10_n03085013_3539.png,n03085013_3539.png,1.0,3.8047702,0.013242945,2.6810148
alexnet_w1_mlp_simclrhn_probe1,1,567,NaN,truck,truck,4-3-10,0567_eid_dnn_4-3-10_truck_10_n03417042_17215.png,n03417042_17215.png,1.0,-0.029226303,-0.3503005,0.22703373
alexnet_w1_mlp_simclrhn_probe1,1,568,NaN,bear,cat,8-3-10,0568_eid_dnn_8-3-10_cat_10_n02123045_12657.png,n02123045_12657.png,0.0,-0.58254224,0.4362474,-0.72039306
alexnet_w1_mlp_simclrhn_probe1,1,569,NaN,oven,knife,64-3-10,0569_eid_dnn_64-3-10_knife_10_n03041632_20576.png,n03041632_20576.png,0.0,-1.9106396,-0.38723865,-1.0772072
alexnet_w1_mlp_simclrhn_probe1,1,570,NaN,elephant,truck,8-3-10,0570_eid_dnn_8-3-10_truck_10_n04467665_23905.png,n04467665_23905.png,0.0,-4.5424805,-1.0150514,-2.4942691
alexnet_w1_mlp_simclrhn_probe1,1,571,NaN,oven,oven,128-3-10,0571_eid_dnn_128-3-10_oven_10_n04111531_9427.png,n04111531_9427.png,1.0,-0.55319107,-2.245021,1.1963046
alexnet_w1_mlp_simclrhn_probe1,1,572,NaN,bear,oven,16-3-10,0572_eid_dnn_16-3-10_oven_10_n04111531_14329.png,n04111531_14329.png,0.0,-0.6602377,-0.3298668,-0.23360753
alexnet_w1_mlp_simclrhn_probe1,1,573,NaN,oven,bird,64-3-10,0573_eid_dnn_64-3-10_bird_10_n01614925_19422.png,n01614925_19422.png,0.0,-4.354411,-0.80610085,-2.5090344
alexnet_w1_mlp_simclrhn_probe1,1,574,NaN,cat,bottle,128-3-10,0574_eid_dnn_128-3-10_bottle_10_n02823428_1154.png,n02823428_1154.png,0.0,-4.9398723,-1.5466775,-2.3993511
alexnet_w1_mlp_simclrhn_probe1,1,575,NaN,bear,dog,4-3-10,0575_eid_dnn_4-3-10_dog_10_n02093859_4797.png,n02093859_4797.png,0.0,0.6484372,1.6443839,-0.7042407
alexnet_w1_mlp_simclrhn_probe1,1,576,NaN,airplane,airplane,1-3-10,0576_eid_dnn_1-3-10_airplane_10_n02690373_2632.png,n02690373_2632.png,1.0,4.8084207,0.7360972,2.8795674
alexnet_w1_mlp_simclrhn_probe1,1,577,NaN,bear,keyboard,32-3-10,0577_eid_dnn_32-3-10_keyboard_10_n03085013_15825.png,n03085013_15825.png,0.0,-5.621885,0.7893455,-4.5334244
alexnet_w1_mlp_simclrhn_probe1,1,578,NaN,car,car,4-3-10,0578_eid_dnn_4-3-10_car_10_n02814533_52674.png,n02814533_52674.png,1.0,2.8291976,0.329694,1.767416
alexnet_w1_mlp_simclrhn_probe1,1,579,NaN,bear,truck,32-3-10,0579_eid_dnn_32-3-10_truck_10_n04467665_32937.png,n04467665_32937.png,0.0,-4.600178,-0.67060006,-2.7786312
alexnet_w1_mlp_simclrhn_probe1,1,580,NaN,oven,bird,4-3-10,0580_eid_dnn_4-3-10_bird_10_n01537544_20.png,n01537544_20.png,0.0,-1.8438888,-0.51804703,-0.9375116
alexnet_w1_mlp_simclrhn_probe1,1,581,NaN,cat,clock,8-3-10,0581_eid_dnn_8-3-10_clock_10_n03196217_564.png,n03196217_564.png,0.0,-2.2342901,-0.8265915,-0.9953933
alexnet_w1_mlp_simclrhn_probe1,1,582,NaN,keyboard,knife,1-3-10,0582_eid_dnn_1-3-10_knife_10_n03041632_76163.png,n03041632_76163.png,0.0,-2.1109564,0.094949335,-1.5598109
alexnet_w1_mlp_simclrhn_probe1,1,583,NaN,bird,airplane,32-3-10,0583_eid_dnn_32-3-10_airplane_10_n02690373_8559.png,n02690373_8559.png,0.0,-5.3688326,-1.3761867,-2.823227
alexnet_w1_mlp_simclrhn_probe1,1,584,NaN,keyboard,keyboard,2-3-10,0584_eid_dnn_2-3-10_keyboard_10_n04505470_3941.png,n04505470_3941.png,1.0,9.398276,0.5854908,6.2315803
alexnet_w1_mlp_simclrhn_probe1,1,585,NaN,oven,oven,64-3-10,0585_eid_dnn_64-3-10_oven_10_n04111531_9910.png,n04111531_9910.png,1.0,-0.411097,-0.8147666,0.28543752
alexnet_w1_mlp_simclrhn_probe1,1,586,NaN,oven,bottle,128-3-10,0586_eid_dnn_128-3-10_bottle_10_n03937543_7191.png,n03937543_7191.png,0.0,-3.2710824,0.3444281,-2.556552
alexnet_w1_mlp_simclrhn_probe1,1,587,NaN,boat,boat,4-3-10,0587_eid_dnn_4-3-10_boat_10_n03662601_14818.png,n03662601_14818.png,1.0,0.31925267,-0.46490473,0.554483
alexnet_w1_mlp_simclrhn_probe1,1,588,NaN,bear,boat,128-3-10,0588_eid_dnn_128-3-10_boat_10_n02951358_588.png,n02951358_588.png,0.0,-5.528053,-0.6114769,-3.4765441
alexnet_w1_mlp_simclrhn_probe1,1,589,NaN,bear,bear,1-3-10,0589_eid_dnn_1-3-10_bear_10_n02133161_2851.png,n02133161_2851.png,1.0,4.033696,2.5530176,1.0469979
alexnet_w1_mlp_simclrhn_probe1,1,590,NaN,bottle,chair,2-3-10,0590_eid_dnn_2-3-10_chair_10_n03376595_16212.png,n03376595_16212.png,0.0,-1.6602483,1.3366162,-2.1191032
alexnet_w1_mlp_simclrhn_probe1,1,591,NaN,bear,boat,8-3-10,0591_eid_dnn_8-3-10_boat_10_n04612504_1613.png,n04612504_1613.png,0.0,-2.1354616,-0.25022876,-1.333061
alexnet_w1_mlp_simclrhn_probe1,1,592,NaN,bird,chair,128-3-10,0592_eid_dnn_128-3-10_chair_10_n02791124_3198.png,n02791124_3198.png,0.0,-4.8269453,-1.7469065,-2.1779163
alexnet_w1_mlp_simclrhn_probe1,1,593,NaN,bear,knife,16-3-10,0593_eid_dnn_16-3-10_knife_10_n03041632_32785.png,n03041632_32785.png,0.0,-1.2469358,-0.15027928,-0.7754533
alexnet_w1_mlp_simclrhn_probe1,1,594,NaN,oven,oven,32-3-10,0594_eid_dnn_32-3-10_oven_10_n04111531_22797.png,n04111531_22797.png,1.0,0.17566481,-0.04967065,0.15933624
alexnet_w1_mlp_simclrhn_probe1,1,595,NaN,oven,oven,128-3-10,0595_eid_dnn_128-3-10_oven_10_n04111531_5077.png,n04111531_5077.png,1.0,-0.8588697,-1.8688122,0.7141372
alexnet_w1_mlp_simclrhn_probe1,1,596,NaN,bear,bear,1-3-10,0596_eid_dnn_1-3-10_bear_10_n02134418_2569.png,n02134418_2569.png,1.0,3.5424535,1.845794,1.1997195
alexnet_w1_mlp_simclrhn_probe1,1,597,NaN,car,car,1-3-10,0597_eid_dnn_1-3-10_car_10_n03100240_15284.png,n03100240_15284.png,1.0,3.939996,2.0215907,1.3565174
alexnet_w1_mlp_simclrhn_probe1,1,598,NaN,keyboard,keyboard,2-3-10,0598_eid_dnn_2-3-10_keyboard_10_n04505470_4791.png,n04505470_4791.png,1.0,3.4085126,0.86256784,1.8002548
alexnet_w1_mlp_simclrhn_probe1,1,599,NaN,oven,bicycle,64-3-10,0599_eid_dnn_64-3-10_bicycle_10_n03792782_551.png,n03792782_551.png,0.0,-4.700174,-0.66410077,-2.8539348
alexnet_w1_mlp_simclrhn_probe1,1,600,NaN,bottle,bottle,1-3-10,0600_eid_dnn_1-3-10_bottle_10_n03937543_2999.png,n03937543_2999.png,1.0,-0.10263522,-0.5271111,0.3001498
alexnet_w1_mlp_simclrhn_probe1,1,601,NaN,bear,airplane,16-3-10,0601_eid_dnn_16-3-10_airplane_10_n02690373_7279.png,n02690373_7279.png,0.0,-2.251329,-0.18122974,-1.4637811
alexnet_w1_mlp_simclrhn_probe1,1,602,NaN,oven,airplane,128-3-10,0602_eid_dnn_128-3-10_airplane_10_n02690373_9312.png,n02690373_9312.png,0.0,-8.051096,-0.5587064,-5.2979198
alexnet_w1_mlp_simclrhn_probe1,1,603,NaN,oven,chair,8-3-10,0603_eid_dnn_8-3-10_chair_10_n04429376_2591.png,n04429376_2591.png,0.0,-5.7428384,1.5869169,-5.18292
