subj,session,trial,rt,object_response,category,condition,imagename,filename,is_correct,targ_act,max_nontarg_act,decision_margin
alexnet,1,1,NaN,cat,car,64-3-10,0001_eid_dnn_64-3-10_car_10_n04285008_8113.png,n04285008_8113.png,0.0,-3.5080783,3.0261335,-4.6203856
alexnet,1,2,NaN,oven,oven,8-3-10,0002_eid_dnn_8-3-10_oven_10_n04111531_11848.png,n04111531_11848.png,1.0,3.9415364,3.3603172,0.41098404
alexnet,1,3,NaN,oven,truck,8-3-10,0003_eid_dnn_8-3-10_truck_10_n03417042_25458.png,n03417042_25458.png,0.0,-0.5072507,2.5810375,-2.1837497
alexnet,1,4,NaN,cat,chair,16-3-10,0004_eid_dnn_16-3-10_chair_10_n03376595_6208.png,n03376595_6208.png,0.0,0.43416536,3.2870977,-2.017328
alexnet,1,5,NaN,bear,cat,32-3-10,0005_eid_dnn_32-3-10_cat_10_n02123045_12084.png,n02123045_12084.png,0.0,2.8858273,3.0420313,-0.1104529
alexnet,1,6,NaN,keyboard,keyboard,8-3-10,0006_eid_dnn_8-3-10_keyboard_10_n03085013_20884.png,n03085013_20884.png,1.0,6.6096416,3.015001,2.5417948
alexnet,1,7,NaN,airplane,airplane,4-3-10,0007_eid_dnn_4-3-10_airplane_10_n02690373_5992.png,n02690373_5992.png,1.0,11.393069,4.2929482,5.0205436
alexnet,1,8,NaN,oven,bear,32-3-10,0008_eid_dnn_32-3-10_bear_10_n02132136_6641.png,n02132136_6641.png,0.0,2.7940345,3.6248336,-0.5874637
alexnet,1,9,NaN,oven,oven,2-3-10,0009_eid_dnn_2-3-10_oven_10_n04111531_2797.png,n04111531_2797.png,1.0,2.3915768,0.39998507,1.408268
alexnet,1,10,NaN,airplane,airplane,2-3-10,0010_eid_dnn_2-3-10_airplane_10_n02690373_7457.png,n02690373_7457.png,1.0,16.3054,5.309545,7.775244
alexnet,1,11,NaN,cat,truck,16-3-10,0011_eid_dnn_16-3-10_truck_10_n03796401_2751.png,n03796401_2751.png,0.0,-0.24270195,3.369354,-2.5541093
alexnet,1,12,NaN,bear,bear,2-3-10,0012_eid_dnn_2-3-10_bear_10_n02134418_860.png,n02134418_860.png,1.0,3.0396695,1.8521475,0.83970493
alexnet,1,13,NaN,knife,knife,4-3-10,0013_eid_dnn_4-3-10_knife_10_n03041632_2058.png,n03041632_2058.png,1.0,8.874386,3.009898,4.146819
alexnet,1,14,NaN,oven,airplane,32-3-10,0014_eid_dnn_32-3-10_airplane_10_n02690373_10510.png,n02690373_10510.png,0.0,0.59578097,3.372127,-1.9631733
alexnet,1,15,NaN,bear,keyboard,64-3-10,0015_eid_dnn_64-3-10_keyboard_10_n03085013_6313.png,n03085013_6313.png,0.0,-3.0134506,4.955373,-5.634809
alexnet,1,16,NaN,airplane,bicycle,4-3-10,0016_eid_dnn_4-3-10_bicycle_10_n02835271_6278.png,n02835271_6278.png,0.0,0.23393446,2.381775,-1.5187526
alexnet,1,17,NaN,keyboard,keyboard,2-3-10,0017_eid_dnn_2-3-10_keyboard_10_n03085013_24192.png,n03085013_24192.png,1.0,17.32859,5.451784,8.39817
alexnet,1,18,NaN,car,car,2-3-10,0018_eid_dnn_2-3-10_car_10_n04285008_8255.png,n04285008_8255.png,1.0,12.154274,6.9592595,3.67343
alexnet,1,19,NaN,airplane,airplane,2-3-10,0019_eid_dnn_2-3-10_airplane_10_n02690373_4591.png,n02690373_4591.png,1.0,9.25432,5.0215034,2.9930534
alexnet,1,20,NaN,airplane,airplane,4-3-10,0020_eid_dnn_4-3-10_airplane_10_n02690373_7075.png,n02690373_7075.png,1.0,8.862095,4.2781663,3.241327
alexnet,1,21,NaN,bicycle,bicycle,4-3-10,0021_eid_dnn_4-3-10_bicycle_10_n02835271_21464.png,n02835271_21464.png,1.0,2.8895402,0.81019956,1.4703159
alexnet,1,22,NaN,dog,car,64-3-10,0022_eid_dnn_64-3-10_car_10_n03100240_362.png,n03100240_362.png,0.0,-2.7604015,2.6290956,-3.8109498
alexnet,1,23,NaN,oven,truck,32-3-10,0023_eid_dnn_32-3-10_truck_10_n04467665_50927.png,n04467665_50927.png,0.0,0.51031226,3.1585927,-1.872617
alexnet,1,24,NaN,oven,car,16-3-10,0024_eid_dnn_16-3-10_car_10_n04285008_3651.png,n04285008_3651.png,0.0,-2.0776145,2.9077377,-3.5251765
alexnet,1,25,NaN,dog,bottle,8-3-10,0025_eid_dnn_8-3-10_bottle_10_n04557648_4974.png,n04557648_4974.png,0.0,2.8974583,3.27545,-0.2672805
alexnet,1,26,NaN,oven,bird,16-3-10,0026_eid_dnn_16-3-10_bird_10_n01537544_23499.png,n01537544_23499.png,0.0,0.42025495,2.0657306,-1.163527
alexnet,1,27,NaN,boat,boat,1-3-10,0027_eid_dnn_1-3-10_boat_10_n04612504_11387.png,n04612504_11387.png,1.0,5.2233887,4.017425,0.85274506
alexnet,1,28,NaN,bottle,bottle,4-3-10,0028_eid_dnn_4-3-10_bottle_10_n03983396_4300.png,n03983396_4300.png,1.0,4.6798415,2.1645613,1.7785717
alexnet,1,29,NaN,cat,bottle,64-3-10,0029_eid_dnn_64-3-10_bottle_10_n04591713_6961.png,n04591713_6961.png,0.0,-0.16254123,3.144667,-2.3385494
alexnet,1,30,NaN,cat,clock,128-3-10,0030_eid_dnn_128-3-10_clock_10_n02708093_3361.png,n02708093_3361.png,0.0,0.9866595,3.8283303,-2.0093646
alexnet,1,31,NaN,oven,truck,32-3-10,0031_eid_dnn_32-3-10_truck_10_n03417042_18374.png,n03417042_18374.png,0.0,-0.9101951,3.133449,-2.8592882
alexnet,1,32,NaN,elephant,knife,64-3-10,0032_eid_dnn_64-3-10_knife_10_n03041632_36280.png,n03041632_36280.png,0.0,0.21884857,2.752215,-1.7913606
alexnet,1,33,NaN,cat,bird,8-3-10,0033_eid_dnn_8-3-10_bird_10_n01614925_47.png,n01614925_47.png,0.0,0.4715387,3.142915,-1.8889483
alexnet,1,34,NaN,bear,bicycle,8-3-10,0034_eid_dnn_8-3-10_bicycle_10_n02835271_20099.png,n02835271_20099.png,0.0,0.9381172,3.533814,-1.8354348
alexnet,1,35,NaN,dog,bear,4-3-10,0035_eid_dnn_4-3-10_bear_10_n02134084_12070.png,n02134084_12070.png,0.0,1.3647156,3.1396818,-1.2550907
alexnet,1,36,NaN,cat,bottle,8-3-10,0036_eid_dnn_8-3-10_bottle_10_n02823428_8525.png,n02823428_8525.png,0.0,3.4632506,4.1388927,-0.47775105
alexnet,1,37,NaN,cat,truck,32-3-10,0037_eid_dnn_32-3-10_truck_10_n04467665_37953.png,n04467665_37953.png,0.0,-0.536302,3.8687048,-3.1148102
alexnet,1,38,NaN,cat,oven,128-3-10,0038_eid_dnn_128-3-10_oven_10_n04111531_4868.png,n04111531_4868.png,0.0,-1.222096,1.8550383,-2.1758626
alexnet,1,39,NaN,elephant,boat,32-3-10,0039_eid_dnn_32-3-10_boat_10_n03662601_19840.png,n03662601_19840.png,0.0,0.23161736,3.5838351,-2.3703759
alexnet,1,40,NaN,bear,truck,8-3-10,0040_eid_dnn_8-3-10_truck_10_n04467665_9331.png,n04467665_9331.png,0.0,2.7578282,4.268689,-1.0683401
alexnet,1,41,NaN,oven,dog,64-3-10,0041_eid_dnn_64-3-10_dog_10_n02111277_16090.png,n02111277_16090.png,0.0,1.6934171,2.9052935,-0.856926
alexnet,1,42,NaN,oven,bottle,4-3-10,0042_eid_dnn_4-3-10_bottle_10_n02823428_6731.png,n02823428_6731.png,0.0,4.9064965,5.916196,-0.71396524
alexnet,1,43,NaN,cat,elephant,8-3-10,0043_eid_dnn_8-3-10_elephant_10_n02504013_8930.png,n02504013_8930.png,0.0,2.1531646,2.3837974,-0.163082
alexnet,1,44,NaN,car,car,4-3-10,0044_eid_dnn_4-3-10_car_10_n03100240_13673.png,n03100240_13673.png,1.0,6.6259007,4.0016117,1.8556526
alexnet,1,45,NaN,clock,bird,128-3-10,0045_eid_dnn_128-3-10_bird_10_n02018207_6819.png,n02018207_6819.png,0.0,-1.5414469,2.0052989,-2.5079281
alexnet,1,46,NaN,elephant,elephant,4-3-10,0046_eid_dnn_4-3-10_elephant_10_n02504013_6065.png,n02504013_6065.png,1.0,4.5076494,1.9387021,1.8165201
alexnet,1,47,NaN,keyboard,cat,1-3-10,0047_eid_dnn_1-3-10_cat_10_n02123394_384.png,n02123394_384.png,0.0,2.4914792,3.902407,-0.9976766
alexnet,1,48,NaN,dog,bicycle,16-3-10,0048_eid_dnn_16-3-10_bicycle_10_n02835271_12608.png,n02835271_12608.png,0.0,-0.044150025,3.119671,-2.2371595
alexnet,1,49,NaN,knife,chair,2-3-10,0049_eid_dnn_2-3-10_chair_10_n03376595_13949.png,n03376595_13949.png,0.0,-0.4937406,1.6431549,-1.5110133
alexnet,1,50,NaN,elephant,airplane,128-3-10,0050_eid_dnn_128-3-10_airplane_10_n02690373_3561.png,n02690373_3561.png,0.0,-3.5327573,2.701052,-4.407969
alexnet,1,51,NaN,oven,bicycle,32-3-10,0051_eid_dnn_32-3-10_bicycle_10_n02835271_8203.png,n02835271_8203.png,0.0,0.900684,3.1913638,-1.6197554
alexnet,1,52,NaN,bicycle,bicycle,2-3-10,0052_eid_dnn_2-3-10_bicycle_10_n03792782_5665.png,n03792782_5665.png,1.0,10.86275,1.5239792,6.6035085
alexnet,1,53,NaN,bicycle,bicycle,128-3-10,0053_eid_dnn_128-3-10_bicycle_10_n02835271_15028.png,n02835271_15028.png,1.0,1.7998748,1.5280622,0.19220051
alexnet,1,54,NaN,clock,clock,1-3-10,0054_eid_dnn_1-3-10_clock_10_n04548280_3318.png,n04548280_3318.png,1.0,14.059974,4.8000064,6.547786
alexnet,1,55,NaN,cat,cat,128-3-10,0055_eid_dnn_128-3-10_cat_10_n02123045_8784.png,n02123045_8784.png,1.0,2.2350123,1.4331641,0.5669923
alexnet,1,56,NaN,cat,knife,128-3-10,0056_eid_dnn_128-3-10_knife_10_n03041632_3247.png,n03041632_3247.png,0.0,-1.028745,2.6016006,-2.567042
alexnet,1,57,NaN,cat,dog,8-3-10,0057_eid_dnn_8-3-10_dog_10_n02110185_11414.png,n02110185_11414.png,0.0,2.6973848,4.1548386,-1.0305754
alexnet,1,58,NaN,cat,dog,32-3-10,0058_eid_dnn_32-3-10_dog_10_n02113712_2715.png,n02113712_2715.png,0.0,2.6654608,3.4379501,-0.54623246
alexnet,1,59,NaN,bottle,elephant,2-3-10,0059_eid_dnn_2-3-10_elephant_10_n02504458_1210.png,n02504458_1210.png,0.0,-1.6378092,2.3920665,-2.8495526
alexnet,1,60,NaN,bear,car,16-3-10,0060_eid_dnn_16-3-10_car_10_n02814533_32337.png,n02814533_32337.png,0.0,-3.5529644,3.9189124,-5.283415
alexnet,1,61,NaN,truck,car,4-3-10,0061_eid_dnn_4-3-10_car_10_n02814533_55326.png,n02814533_55326.png,0.0,2.858637,4.171061,-0.9280239
alexnet,1,62,NaN,dog,knife,64-3-10,0062_eid_dnn_64-3-10_knife_10_n03041632_32774.png,n03041632_32774.png,0.0,-0.6658449,2.2254448,-2.0444505
alexnet,1,63,NaN,cat,bicycle,8-3-10,0063_eid_dnn_8-3-10_bicycle_10_n02835271_11921.png,n02835271_11921.png,0.0,-0.58166695,4.230648,-3.4028206
alexnet,1,64,NaN,oven,chair,32-3-10,0064_eid_dnn_32-3-10_chair_10_n03376595_6115.png,n03376595_6115.png,0.0,1.2249825,4.025487,-1.9802557
alexnet,1,65,NaN,bear,bear,16-3-10,0065_eid_dnn_16-3-10_bear_10_n02133161_79.png,n02133161_79.png,1.0,2.9530988,2.3518348,0.42515785
alexnet,1,66,NaN,boat,boat,1-3-10,0066_eid_dnn_1-3-10_boat_10_n03662601_34796.png,n03662601_34796.png,1.0,7.810315,4.7389116,2.1718104
alexnet,1,67,NaN,dog,bird,4-3-10,0067_eid_dnn_4-3-10_bird_10_n02051845_8976.png,n02051845_8976.png,0.0,0.159761,2.612091,-1.7340593
alexnet,1,68,NaN,boat,boat,4-3-10,0068_eid_dnn_4-3-10_boat_10_n03344393_7362.png,n03344393_7362.png,1.0,4.408421,4.102635,0.21622345
alexnet,1,69,NaN,bear,car,32-3-10,0069_eid_dnn_32-3-10_car_10_n02814533_34289.png,n02814533_34289.png,0.0,-1.5459366,2.956567,-3.1837506
alexnet,1,70,NaN,oven,keyboard,16-3-10,0070_eid_dnn_16-3-10_keyboard_10_n03085013_2166.png,n03085013_2166.png,0.0,-1.789434,3.8585067,-3.9936972
alexnet,1,71,NaN,bear,bear,2-3-10,0071_eid_dnn_2-3-10_bear_10_n02133161_10167.png,n02133161_10167.png,1.0,5.451849,4.1809025,0.89869493
alexnet,1,72,NaN,keyboard,keyboard,16-3-10,0072_eid_dnn_16-3-10_keyboard_10_n04505470_430.png,n04505470_430.png,1.0,3.02182,1.2565981,1.2482004
alexnet,1,73,NaN,cat,boat,128-3-10,0073_eid_dnn_128-3-10_boat_10_n03662601_17001.png,n03662601_17001.png,0.0,-2.2590168,0.9879256,-2.295935
alexnet,1,74,NaN,cat,bear,128-3-10,0074_eid_dnn_128-3-10_bear_10_n02133161_5157.png,n02133161_5157.png,0.0,0.22024143,3.7438223,-2.491548
alexnet,1,75,NaN,boat,boat,2-3-10,0075_eid_dnn_2-3-10_boat_10_n02951358_17870.png,n02951358_17870.png,1.0,5.47912,3.1176672,1.6697992
alexnet,1,76,NaN,bicycle,cat,64-3-10,0076_eid_dnn_64-3-10_cat_10_n02123159_1102.png,n02123159_1102.png,0.0,0.57839525,1.4954293,-0.648441
alexnet,1,77,NaN,oven,cat,32-3-10,0077_eid_dnn_32-3-10_cat_10_n02123045_4252.png,n02123045_4252.png,0.0,0.95775574,2.9631746,-1.4180453
alexnet,1,78,NaN,keyboard,keyboard,2-3-10,0078_eid_dnn_2-3-10_keyboard_10_n04505470_4294.png,n04505470_4294.png,1.0,6.570389,3.465865,2.19523
alexnet,1,79,NaN,truck,truck,2-3-10,0079_eid_dnn_2-3-10_truck_10_n04467665_1101.png,n04467665_1101.png,1.0,11.561118,7.845509,2.6273324
alexnet,1,80,NaN,oven,airplane,64-3-10,0080_eid_dnn_64-3-10_airplane_10_n02690373_2078.png,n02690373_2078.png,0.0,0.20519125,1.9579511,-1.2393883
alexnet,1,81,NaN,dog,boat,64-3-10,0081_eid_dnn_64-3-10_boat_10_n04612504_5535.png,n04612504_5535.png,0.0,-1.7688824,2.7827632,-3.2184997
alexnet,1,82,NaN,oven,cat,16-3-10,0082_eid_dnn_16-3-10_cat_10_n02125311_15099.png,n02125311_15099.png,0.0,1.7381605,3.4181023,-1.1878983
alexnet,1,83,NaN,oven,airplane,64-3-10,0083_eid_dnn_64-3-10_airplane_10_n02690373_4671.png,n02690373_4671.png,0.0,-2.012746,1.8974656,-2.7649372
alexnet,1,84,NaN,truck,truck,1-3-10,0084_eid_dnn_1-3-10_truck_10_n03417042_9062.png,n03417042_9062.png,1.0,11.245125,6.9080696,3.0667613
alexnet,1,85,NaN,knife,cat,4-3-10,0085_eid_dnn_4-3-10_cat_10_n02123394_283.png,n02123394_283.png,0.0,2.732818,3.8160853,-0.7659858
alexnet,1,86,NaN,car,car,1-3-10,0086_eid_dnn_1-3-10_car_10_n02814533_3375.png,n02814533_3375.png,1.0,12.7738085,7.0625734,4.038453
alexnet,1,87,NaN,cat,cat,2-3-10,0087_eid_dnn_2-3-10_cat_10_n02124075_9706.png,n02124075_9706.png,1.0,5.042156,2.498844,1.7983934
alexnet,1,88,NaN,car,car,2-3-10,0088_eid_dnn_2-3-10_car_10_n04285008_10563.png,n04285008_10563.png,1.0,8.644405,5.696716,2.0843313
alexnet,1,89,NaN,dog,clock,64-3-10,0089_eid_dnn_64-3-10_clock_10_n03196217_3283.png,n03196217_3283.png,0.0,1.5871472,2.1752288,-0.41583648
alexnet,1,90,NaN,bicycle,oven,128-3-10,0090_eid_dnn_128-3-10_oven_10_n04111531_21120.png,n04111531_21120.png,0.0,-0.7937611,2.1761162,-2.1000204
alexnet,1,91,NaN,bottle,bird,1-3-10,0091_eid_dnn_1-3-10_bird_10_n01824575_6186.png,n01824575_6186.png,0.0,0.32110077,2.649514,-1.6464368
alexnet,1,92,NaN,dog,dog,4-3-10,0092_eid_dnn_4-3-10_dog_10_n02102318_11155.png,n02102318_11155.png,1.0,6.443123,3.4249868,2.1341445
alexnet,1,93,NaN,bear,clock,16-3-10,0093_eid_dnn_16-3-10_clock_10_n04548280_2283.png,n04548280_2283.png,0.0,0.57012844,4.8654757,-3.037269
alexnet,1,94,NaN,bear,chair,128-3-10,0094_eid_dnn_128-3-10_chair_10_n03376595_18787.png,n03376595_18787.png,0.0,-0.50995415,2.4086437,-2.0637605
alexnet,1,95,NaN,airplane,keyboard,8-3-10,0095_eid_dnn_8-3-10_keyboard_10_n04505470_1903.png,n04505470_1903.png,0.0,1.9981999,3.4812508,-1.0486753
alexnet,1,96,NaN,cat,clock,16-3-10,0096_eid_dnn_16-3-10_clock_10_n03196217_6185.png,n03196217_6185.png,0.0,-1.857358,3.2149951,-3.5866954
alexnet,1,97,NaN,clock,clock,2-3-10,0097_eid_dnn_2-3-10_clock_10_n03196217_10424.png,n03196217_10424.png,1.0,9.609765,6.923748,1.8993009
alexnet,1,98,NaN,knife,knife,2-3-10,0098_eid_dnn_2-3-10_knife_10_n03041632_43436.png,n03041632_43436.png,1.0,7.893894,3.9821668,2.766009
alexnet,1,99,NaN,keyboard,dog,1-3-10,0099_eid_dnn_1-3-10_dog_10_n02093647_5955.png,n02093647_5955.png,0.0,1.9635892,2.7881122,-0.5830258
alexnet,1,100,NaN,oven,boat,32-3-10,0100_eid_dnn_32-3-10_boat_10_n03662601_5423.png,n03662601_5423.png,0.0,0.13766918,2.924039,-1.970261
alexnet,1,101,NaN,cat,keyboard,128-3-10,0101_eid_dnn_128-3-10_keyboard_10_n04505470_9457.png,n04505470_9457.png,0.0,-2.6147254,2.9278126,-3.919166
alexnet,1,102,NaN,cat,knife,128-3-10,0102_eid_dnn_128-3-10_knife_10_n03041632_38535.png,n03041632_38535.png,0.0,-1.4111166,2.2302659,-2.5748463
alexnet,1,103,NaN,elephant,elephant,8-3-10,0103_eid_dnn_8-3-10_elephant_10_n02504458_8141.png,n02504458_8141.png,1.0,5.3760524,3.427784,1.3776338
alexnet,1,104,NaN,airplane,airplane,4-3-10,0104_eid_dnn_4-3-10_airplane_10_n02690373_9086.png,n02690373_9086.png,1.0,9.81824,5.0519485,3.3702772
alexnet,1,105,NaN,bear,bicycle,16-3-10,0105_eid_dnn_16-3-10_bicycle_10_n03792782_19116.png,n03792782_19116.png,0.0,2.1730945,2.5126219,-0.24008211
alexnet,1,106,NaN,elephant,elephant,4-3-10,0106_eid_dnn_4-3-10_elephant_10_n02504458_2343.png,n02504458_2343.png,1.0,6.678347,1.9581283,3.3376987
alexnet,1,107,NaN,boat,airplane,16-3-10,0107_eid_dnn_16-3-10_airplane_10_n02690373_7093.png,n02690373_7093.png,0.0,1.3011887,3.6384416,-1.6526874
alexnet,1,108,NaN,cat,car,32-3-10,0108_eid_dnn_32-3-10_car_10_n03100240_7935.png,n03100240_7935.png,0.0,-2.1243029,2.8146667,-3.492379
alexnet,1,109,NaN,bicycle,airplane,16-3-10,0109_eid_dnn_16-3-10_airplane_10_n02690373_8611.png,n02690373_8611.png,0.0,-0.7340043,2.6095686,-2.364263
alexnet,1,110,NaN,bear,bear,2-3-10,0110_eid_dnn_2-3-10_bear_10_n02133161_7332.png,n02133161_7332.png,1.0,6.4835024,3.3338177,2.2271633
alexnet,1,111,NaN,car,car,2-3-10,0111_eid_dnn_2-3-10_car_10_n03100240_9387.png,n03100240_9387.png,1.0,10.408042,6.4845033,2.774361
alexnet,1,112,NaN,cat,cat,4-3-10,0112_eid_dnn_4-3-10_cat_10_n02124075_521.png,n02124075_521.png,1.0,6.874857,2.9441652,2.7794187
alexnet,1,113,NaN,dog,bottle,128-3-10,0113_eid_dnn_128-3-10_bottle_10_n04560804_3746.png,n04560804_3746.png,0.0,-0.5200449,1.3400965,-1.3153186
alexnet,1,114,NaN,bear,elephant,16-3-10,0114_eid_dnn_16-3-10_elephant_10_n02504458_1127.png,n02504458_1127.png,0.0,1.7713004,3.3294578,-1.1017836
alexnet,1,115,NaN,knife,knife,8-3-10,0115_eid_dnn_8-3-10_knife_10_n03041632_14132.png,n03041632_14132.png,1.0,4.871642,2.2571132,1.8487512
alexnet,1,116,NaN,oven,oven,1-3-10,0116_eid_dnn_1-3-10_oven_10_n04111531_18916.png,n04111531_18916.png,1.0,5.3701553,2.6494985,1.923795
alexnet,1,117,NaN,oven,oven,1-3-10,0117_eid_dnn_1-3-10_oven_10_n04111531_19274.png,n04111531_19274.png,1.0,4.137835,2.807241,0.9408721
alexnet,1,118,NaN,bicycle,bird,2-3-10,0118_eid_dnn_2-3-10_bird_10_n01843383_277.png,n01843383_277.png,0.0,-0.23667324,3.2241483,-2.4471705
alexnet,1,119,NaN,elephant,boat,64-3-10,0119_eid_dnn_64-3-10_boat_10_n03344393_6799.png,n03344393_6799.png,0.0,-0.7430086,3.665904,-3.117572
alexnet,1,120,NaN,dog,dog,2-3-10,0120_eid_dnn_2-3-10_dog_10_n02093428_16887.png,n02093428_16887.png,1.0,5.1515675,3.838174,0.9287094
alexnet,1,121,NaN,bicycle,elephant,64-3-10,0121_eid_dnn_64-3-10_elephant_10_n02504458_6163.png,n02504458_6163.png,0.0,0.84124696,1.7641413,-0.65258485
alexnet,1,122,NaN,elephant,bottle,64-3-10,0122_eid_dnn_64-3-10_bottle_10_n04591713_2826.png,n04591713_2826.png,0.0,0.040235102,1.3479414,-0.92468804
alexnet,1,123,NaN,bicycle,bottle,64-3-10,0123_eid_dnn_64-3-10_bottle_10_n04557648_3598.png,n04557648_3598.png,0.0,0.14122865,2.1251564,-1.4028487
alexnet,1,124,NaN,boat,truck,8-3-10,0124_eid_dnn_8-3-10_truck_10_n04467665_80629.png,n04467665_80629.png,0.0,1.3011514,6.893767,-3.9545765
alexnet,1,125,NaN,cat,bear,4-3-10,0125_eid_dnn_4-3-10_bear_10_n02134084_6869.png,n02134084_6869.png,0.0,2.4331183,3.4462235,-0.71637356
alexnet,1,126,NaN,knife,bird,1-3-10,0126_eid_dnn_1-3-10_bird_10_n01820546_4457.png,n01820546_4457.png,0.0,2.3898733,3.2642257,-0.61826056
alexnet,1,127,NaN,bicycle,clock,64-3-10,0127_eid_dnn_64-3-10_clock_10_n04548280_7565.png,n04548280_7565.png,0.0,-0.5309264,1.772319,-1.6286404
alexnet,1,128,NaN,oven,elephant,16-3-10,0128_eid_dnn_16-3-10_elephant_10_n02504458_98.png,n02504458_98.png,0.0,1.5116599,3.5208678,-1.4207246
alexnet,1,129,NaN,oven,bicycle,64-3-10,0129_eid_dnn_64-3-10_bicycle_10_n03792782_7143.png,n03792782_7143.png,0.0,0.9922012,1.3125148,-0.2264959
alexnet,1,130,NaN,cat,dog,16-3-10,0130_eid_dnn_16-3-10_dog_10_n02096051_5524.png,n02096051_5524.png,0.0,2.301933,2.8843782,-0.41185093
alexnet,1,131,NaN,cat,cat,16-3-10,0131_eid_dnn_16-3-10_cat_10_n02123045_9465.png,n02123045_9465.png,1.0,2.5716999,2.4932878,0.055445697
alexnet,1,132,NaN,oven,cat,64-3-10,0132_eid_dnn_64-3-10_cat_10_n02123159_9450.png,n02123159_9450.png,0.0,0.31942123,0.88276786,-0.39834622
alexnet,1,133,NaN,clock,clock,4-3-10,0133_eid_dnn_4-3-10_clock_10_n02708093_8204.png,n02708093_8204.png,1.0,6.358471,5.3120933,0.73990077
alexnet,1,134,NaN,elephant,airplane,32-3-10,0134_eid_dnn_32-3-10_airplane_10_n02690373_2619.png,n02690373_2619.png,0.0,-0.030428737,1.7260729,-1.2420343
alexnet,1,135,NaN,car,car,2-3-10,0135_eid_dnn_2-3-10_car_10_n04285008_11295.png,n04285008_11295.png,1.0,11.675621,6.0729046,3.9617188
alexnet,1,136,NaN,bear,bear,8-3-10,0136_eid_dnn_8-3-10_bear_10_n02133161_15481.png,n02133161_15481.png,1.0,5.853486,4.399242,1.0283059
alexnet,1,137,NaN,oven,truck,64-3-10,0137_eid_dnn_64-3-10_truck_10_n03417042_8139.png,n03417042_8139.png,0.0,0.52604544,1.3409762,-0.5762431
alexnet,1,138,NaN,dog,bottle,16-3-10,0138_eid_dnn_16-3-10_bottle_10_n04557648_4490.png,n04557648_4490.png,0.0,0.9266254,3.6048334,-1.893779
alexnet,1,139,NaN,clock,clock,1-3-10,0139_eid_dnn_1-3-10_clock_10_n03196217_5399.png,n03196217_5399.png,1.0,8.762109,5.709544,2.1584892
alexnet,1,140,NaN,airplane,boat,1-3-10,0140_eid_dnn_1-3-10_boat_10_n04273569_4136.png,n04273569_4136.png,0.0,7.8279123,7.8446417,-0.0118294405
alexnet,1,141,NaN,clock,clock,4-3-10,0141_eid_dnn_4-3-10_clock_10_n04548280_2127.png,n04548280_2127.png,1.0,4.9235463,4.2070436,0.5066439
alexnet,1,142,NaN,airplane,boat,2-3-10,0142_eid_dnn_2-3-10_boat_10_n03344393_10038.png,n03344393_10038.png,0.0,7.1804442,8.32066,-0.806254
alexnet,1,143,NaN,elephant,elephant,2-3-10,0143_eid_dnn_2-3-10_elephant_10_n02504013_10793.png,n02504013_10793.png,1.0,15.548303,8.773441,4.7905507
alexnet,1,144,NaN,dog,oven,128-3-10,0144_eid_dnn_128-3-10_oven_10_n04111531_6590.png,n04111531_6590.png,0.0,-0.47434747,2.105754,-1.8244073
alexnet,1,145,NaN,knife,keyboard,16-3-10,0145_eid_dnn_16-3-10_keyboard_10_n03085013_10984.png,n03085013_10984.png,0.0,-3.4315925,1.3785412,-3.4012785
alexnet,1,146,NaN,clock,bicycle,2-3-10,0146_eid_dnn_2-3-10_bicycle_10_n02835271_14879.png,n02835271_14879.png,0.0,2.7520542,3.9838238,-0.8709926
alexnet,1,147,NaN,elephant,knife,64-3-10,0147_eid_dnn_64-3-10_knife_10_n03041632_22241.png,n03041632_22241.png,0.0,0.10382694,2.260687,-1.5251304
alexnet,1,148,NaN,dog,oven,64-3-10,0148_eid_dnn_64-3-10_oven_10_n04111531_892.png,n04111531_892.png,0.0,0.51151353,1.8079906,-0.91674775
alexnet,1,149,NaN,cat,bear,64-3-10,0149_eid_dnn_64-3-10_bear_10_n02134418_14850.png,n02134418_14850.png,0.0,2.2617092,2.876154,-0.43447804
alexnet,1,150,NaN,cat,knife,64-3-10,0150_eid_dnn_64-3-10_knife_10_n03041632_48071.png,n03041632_48071.png,0.0,-2.1774874,2.724639,-3.4663267
alexnet,1,151,NaN,knife,clock,16-3-10,0151_eid_dnn_16-3-10_clock_10_n04548280_64.png,n04548280_64.png,0.0,0.70303315,3.3222566,-1.8520706
alexnet,1,152,NaN,elephant,truck,64-3-10,0152_eid_dnn_64-3-10_truck_10_n03796401_6285.png,n03796401_6285.png,0.0,-1.0071617,1.830142,-2.0062766
alexnet,1,153,NaN,airplane,airplane,4-3-10,0153_eid_dnn_4-3-10_airplane_10_n02690373_6682.png,n02690373_6682.png,1.0,7.944699,4.1930094,2.6528451
alexnet,1,154,NaN,cat,knife,64-3-10,0154_eid_dnn_64-3-10_knife_10_n03041632_17285.png,n03041632_17285.png,0.0,-0.68039274,2.9913476,-2.5963125
alexnet,1,155,NaN,boat,boat,2-3-10,0155_eid_dnn_2-3-10_boat_10_n02951358_8184.png,n02951358_8184.png,1.0,5.9308343,3.8229232,1.4905182
alexnet,1,156,NaN,bicycle,bear,1-3-10,0156_eid_dnn_1-3-10_bear_10_n02132136_2346.png,n02132136_2346.png,0.0,1.8789661,2.1065145,-0.160901
alexnet,1,157,NaN,bear,bear,8-3-10,0157_eid_dnn_8-3-10_bear_10_n02134418_2187.png,n02134418_2187.png,1.0,4.2356977,3.3007495,0.66110826
alexnet,1,158,NaN,elephant,cat,32-3-10,0158_eid_dnn_32-3-10_cat_10_n02124075_10162.png,n02124075_10162.png,0.0,1.5316406,2.5393715,-0.71257335
alexnet,1,159,NaN,bicycle,truck,128-3-10,0159_eid_dnn_128-3-10_truck_10_n03417042_8998.png,n03417042_8998.png,0.0,1.0803844,2.105386,-0.7247856
alexnet,1,160,NaN,cat,cat,64-3-10,0160_eid_dnn_64-3-10_cat_10_n02123597_13835.png,n02123597_13835.png,1.0,2.1941693,1.8070135,0.27376047
alexnet,1,161,NaN,clock,clock,1-3-10,0161_eid_dnn_1-3-10_clock_10_n04548280_18914.png,n04548280_18914.png,1.0,14.286038,5.740279,6.042764
alexnet,1,162,NaN,keyboard,keyboard,2-3-10,0162_eid_dnn_2-3-10_keyboard_10_n03085013_2676.png,n03085013_2676.png,1.0,12.256228,4.078282,5.7826815
alexnet,1,163,NaN,oven,airplane,16-3-10,0163_eid_dnn_16-3-10_airplane_10_n02690373_7600.png,n02690373_7600.png,0.0,-1.1539567,2.895265,-2.8632324
alexnet,1,164,NaN,cat,chair,16-3-10,0164_eid_dnn_16-3-10_chair_10_n04429376_17917.png,n04429376_17917.png,0.0,0.67349917,3.2202072,-1.8007946
alexnet,1,165,NaN,keyboard,keyboard,4-3-10,0165_eid_dnn_4-3-10_keyboard_10_n04505470_4492.png,n04505470_4492.png,1.0,7.612069,1.6868099,4.189791
alexnet,1,166,NaN,cat,bear,1-3-10,0166_eid_dnn_1-3-10_bear_10_n02134418_3148.png,n02134418_3148.png,0.0,6.946231,7.0360146,-0.06348664
alexnet,1,167,NaN,elephant,cat,4-3-10,0167_eid_dnn_4-3-10_cat_10_n02125311_20388.png,n02125311_20388.png,0.0,1.568689,3.9999819,-1.7191838
alexnet,1,168,NaN,cat,cat,64-3-10,0168_eid_dnn_64-3-10_cat_10_n02123394_2153.png,n02123394_2153.png,1.0,1.9157995,1.8393977,0.054024253
alexnet,1,169,NaN,clock,clock,1-3-10,0169_eid_dnn_1-3-10_clock_10_n04548280_5327.png,n04548280_5327.png,1.0,4.3562665,3.0057995,0.95492435
alexnet,1,170,NaN,cat,bicycle,8-3-10,0170_eid_dnn_8-3-10_bicycle_10_n03792782_63054.png,n03792782_63054.png,0.0,-0.21321496,4.843796,-3.5758467
alexnet,1,171,NaN,oven,chair,32-3-10,0171_eid_dnn_32-3-10_chair_10_n03376595_14138.png,n03376595_14138.png,0.0,1.217007,2.8913696,-1.1839532
alexnet,1,172,NaN,elephant,elephant,2-3-10,0172_eid_dnn_2-3-10_elephant_10_n02504458_4849.png,n02504458_4849.png,1.0,8.397028,4.3959336,2.829201
alexnet,1,173,NaN,cat,dog,128-3-10,0173_eid_dnn_128-3-10_dog_10_n02113624_4844.png,n02113624_4844.png,0.0,1.1052954,1.7352833,-0.44546866
alexnet,1,174,NaN,elephant,elephant,2-3-10,0174_eid_dnn_2-3-10_elephant_10_n02504013_2549.png,n02504013_2549.png,1.0,4.771693,4.651465,0.08501424
alexnet,1,175,NaN,cat,bear,8-3-10,0175_eid_dnn_8-3-10_bear_10_n02134084_4593.png,n02134084_4593.png,0.0,2.4137383,2.870533,-0.32300267
alexnet,1,176,NaN,bicycle,bicycle,64-3-10,0176_eid_dnn_64-3-10_bicycle_10_n02835271_75.png,n02835271_75.png,1.0,3.1274896,1.4905682,1.1574782
alexnet,1,177,NaN,boat,truck,4-3-10,0177_eid_dnn_4-3-10_truck_10_n03796401_20943.png,n03796401_20943.png,0.0,2.8427238,3.7414684,-0.6355084
alexnet,1,178,NaN,keyboard,knife,2-3-10,0178_eid_dnn_2-3-10_knife_10_n03041632_32048.png,n03041632_32048.png,0.0,2.6183147,4.283661,-1.1775776
alexnet,1,179,NaN,knife,cat,1-3-10,0179_eid_dnn_1-3-10_cat_10_n02123159_3536.png,n02123159_3536.png,0.0,0.34867334,2.6014705,-1.5929681
alexnet,1,180,NaN,boat,bicycle,1-3-10,0180_eid_dnn_1-3-10_bicycle_10_n03792782_6716.png,n03792782_6716.png,0.0,0.07276547,2.490501,-1.7095972
alexnet,1,181,NaN,clock,clock,2-3-10,0181_eid_dnn_2-3-10_clock_10_n03196217_1754.png,n03196217_1754.png,1.0,9.871806,6.6207833,2.2988203
alexnet,1,182,NaN,bicycle,bicycle,1-3-10,0182_eid_dnn_1-3-10_bicycle_10_n03792782_5404.png,n03792782_5404.png,1.0,5.725157,2.301065,2.4211986
alexnet,1,183,NaN,cat,dog,64-3-10,0183_eid_dnn_64-3-10_dog_10_n02096294_3014.png,n02096294_3014.png,0.0,1.8946656,2.6334505,-0.52239984
alexnet,1,184,NaN,bear,bear,4-3-10,0184_eid_dnn_4-3-10_bear_10_n02134084_23382.png,n02134084_23382.png,1.0,2.4691172,2.012986,0.3225335
alexnet,1,185,NaN,truck,car,4-3-10,0185_eid_dnn_4-3-10_car_10_n03100240_310.png,n03100240_310.png,0.0,2.7149906,3.2909853,-0.40728977
alexnet,1,186,NaN,dog,dog,4-3-10,0186_eid_dnn_4-3-10_dog_10_n02093256_1653.png,n02093256_1653.png,1.0,3.2717912,2.113158,0.8192774
alexnet,1,187,NaN,elephant,elephant,4-3-10,0187_eid_dnn_4-3-10_elephant_10_n02504013_1740.png,n02504013_1740.png,1.0,15.817538,8.284714,5.3265114
alexnet,1,188,NaN,dog,bear,64-3-10,0188_eid_dnn_64-3-10_bear_10_n02134084_34375.png,n02134084_34375.png,0.0,1.4362276,2.398621,-0.680515
alexnet,1,189,NaN,dog,keyboard,8-3-10,0189_eid_dnn_8-3-10_keyboard_10_n03085013_23254.png,n03085013_23254.png,0.0,-0.6538439,1.9750642,-1.8589188
alexnet,1,190,NaN,oven,elephant,32-3-10,0190_eid_dnn_32-3-10_elephant_10_n02504013_1512.png,n02504013_1512.png,0.0,0.030442089,3.2179415,-2.2539027
alexnet,1,191,NaN,knife,car,8-3-10,0191_eid_dnn_8-3-10_car_10_n04285008_6454.png,n04285008_6454.png,0.0,-1.0121144,2.864295,-2.7410355
alexnet,1,192,NaN,keyboard,keyboard,4-3-10,0192_eid_dnn_4-3-10_keyboard_10_n04505470_7721.png,n04505470_7721.png,1.0,8.965283,3.2130663,4.067432
alexnet,1,193,NaN,dog,keyboard,16-3-10,0193_eid_dnn_16-3-10_keyboard_10_n04505470_3388.png,n04505470_3388.png,0.0,-2.8885462,3.7226388,-4.6748137
alexnet,1,194,NaN,boat,boat,2-3-10,0194_eid_dnn_2-3-10_boat_10_n03344393_4221.png,n03344393_4221.png,1.0,7.647151,5.653782,1.4095248
alexnet,1,195,NaN,elephant,cat,128-3-10,0195_eid_dnn_128-3-10_cat_10_n02123597_14361.png,n02123597_14361.png,0.0,1.0112534,1.8004558,-0.5580504
alexnet,1,196,NaN,bear,bird,128-3-10,0196_eid_dnn_128-3-10_bird_10_n02006656_10058.png,n02006656_10058.png,0.0,-1.8875997,1.4541018,-2.3629398
alexnet,1,197,NaN,dog,clock,32-3-10,0197_eid_dnn_32-3-10_clock_10_n02708093_8104.png,n02708093_8104.png,0.0,0.19600634,3.0836508,-2.041873
alexnet,1,198,NaN,truck,truck,1-3-10,0198_eid_dnn_1-3-10_truck_10_n03417042_3845.png,n03417042_3845.png,1.0,5.5820913,4.0635967,1.0737379
alexnet,1,199,NaN,oven,boat,64-3-10,0199_eid_dnn_64-3-10_boat_10_n03662601_36741.png,n03662601_36741.png,0.0,-2.4349043,2.8867104,-3.76295
alexnet,1,200,NaN,knife,knife,1-3-10,0200_eid_dnn_1-3-10_knife_10_n03041632_22570.png,n03041632_22570.png,1.0,5.0897846,4.5805936,0.36005244
alexnet,1,201,NaN,keyboard,keyboard,1-3-10,0201_eid_dnn_1-3-10_keyboard_10_n04505470_4109.png,n04505470_4109.png,1.0,11.511885,9.521669,1.4072948
alexnet,1,202,NaN,airplane,airplane,1-3-10,0202_eid_dnn_1-3-10_airplane_10_n02690373_10404.png,n02690373_10404.png,1.0,12.649354,6.369358,4.4406276
alexnet,1,203,NaN,elephant,elephant,4-3-10,0203_eid_dnn_4-3-10_elephant_10_n02504458_4725.png,n02504458_4725.png,1.0,8.490166,5.255991,2.286907
alexnet,1,204,NaN,airplane,airplane,1-3-10,0204_eid_dnn_1-3-10_airplane_10_n02690373_1325.png,n02690373_1325.png,1.0,15.536278,4.3410606,7.916214
alexnet,1,205,NaN,bear,bicycle,8-3-10,0205_eid_dnn_8-3-10_bicycle_10_n03792782_6841.png,n03792782_6841.png,0.0,0.27423888,4.7018433,-3.130789
alexnet,1,206,NaN,chair,chair,2-3-10,0206_eid_dnn_2-3-10_chair_10_n04099969_1669.png,n04099969_1669.png,1.0,7.9482107,2.4330363,3.8998172
alexnet,1,207,NaN,oven,bottle,32-3-10,0207_eid_dnn_32-3-10_bottle_10_n03937543_5324.png,n03937543_5324.png,0.0,0.38990402,3.5783346,-2.254561
alexnet,1,208,NaN,bottle,bottle,4-3-10,0208_eid_dnn_4-3-10_bottle_10_n03937543_2143.png,n03937543_2143.png,1.0,7.4630446,3.1910405,3.0207632
alexnet,1,209,NaN,bottle,bottle,2-3-10,0209_eid_dnn_2-3-10_bottle_10_n04557648_2575.png,n04557648_2575.png,1.0,5.421547,3.4221745,1.4137698
alexnet,1,210,NaN,knife,knife,8-3-10,0210_eid_dnn_8-3-10_knife_10_n03041632_9671.png,n03041632_9671.png,1.0,5.952959,2.2113469,2.6457193
alexnet,1,211,NaN,dog,bottle,16-3-10,0211_eid_dnn_16-3-10_bottle_10_n04560804_4145.png,n04560804_4145.png,0.0,0.38711166,2.7786381,-1.6910646
alexnet,1,212,NaN,cat,clock,64-3-10,0212_eid_dnn_64-3-10_clock_10_n03196217_1187.png,n03196217_1187.png,0.0,0.19059716,2.6999865,-1.7744063
alexnet,1,213,NaN,clock,clock,4-3-10,0213_eid_dnn_4-3-10_clock_10_n04548280_2111.png,n04548280_2111.png,1.0,9.480992,8.798378,0.4826812
alexnet,1,214,NaN,cat,dog,128-3-10,0214_eid_dnn_128-3-10_dog_10_n02086079_6578.png,n02086079_6578.png,0.0,1.7088184,4.714943,-2.1256511
alexnet,1,215,NaN,oven,car,16-3-10,0215_eid_dnn_16-3-10_car_10_n03100240_14045.png,n03100240_14045.png,0.0,-1.9396354,3.2670138,-3.681657
alexnet,1,216,NaN,bear,boat,8-3-10,0216_eid_dnn_8-3-10_boat_10_n02951358_30908.png,n02951358_30908.png,0.0,2.0799458,3.7530608,-1.183071
alexnet,1,217,NaN,oven,oven,4-3-10,0217_eid_dnn_4-3-10_oven_10_n04111531_2199.png,n04111531_2199.png,1.0,2.296523,2.1027176,0.13704115
alexnet,1,218,NaN,bear,elephant,8-3-10,0218_eid_dnn_8-3-10_elephant_10_n02504013_5641.png,n02504013_5641.png,0.0,3.4470985,4.415526,-0.6847816
alexnet,1,219,NaN,keyboard,keyboard,2-3-10,0219_eid_dnn_2-3-10_keyboard_10_n03085013_6740.png,n03085013_6740.png,1.0,12.984347,5.0125475,5.636914
alexnet,1,220,NaN,clock,clock,2-3-10,0220_eid_dnn_2-3-10_clock_10_n04548280_319.png,n04548280_319.png,1.0,10.288148,2.9343338,5.199932
alexnet,1,221,NaN,oven,knife,32-3-10,0221_eid_dnn_32-3-10_knife_10_n03041632_43506.png,n03041632_43506.png,0.0,0.6282916,1.8605906,-0.871367
alexnet,1,222,NaN,airplane,boat,16-3-10,0222_eid_dnn_16-3-10_boat_10_n03344393_9712.png,n03344393_9712.png,0.0,2.1836085,2.7283297,-0.385176
alexnet,1,223,NaN,knife,knife,1-3-10,0223_eid_dnn_1-3-10_knife_10_n03041632_9963.png,n03041632_9963.png,1.0,12.526691,3.250322,6.5593834
alexnet,1,224,NaN,bicycle,bird,1-3-10,0224_eid_dnn_1-3-10_bird_10_n02002556_18595.png,n02002556_18595.png,0.0,1.3334086,3.2311125,-1.3418794
alexnet,1,225,NaN,cat,bird,4-3-10,0225_eid_dnn_4-3-10_bird_10_n01860187_20777.png,n01860187_20777.png,0.0,-1.970423,3.0413103,-3.5438304
alexnet,1,226,NaN,oven,keyboard,32-3-10,0226_eid_dnn_32-3-10_keyboard_10_n03085013_24626.png,n03085013_24626.png,0.0,-3.7371674,2.4394336,-4.3675165
alexnet,1,227,NaN,cat,oven,16-3-10,0227_eid_dnn_16-3-10_oven_10_n04111531_7097.png,n04111531_7097.png,0.0,1.775909,2.0052288,-0.1621536
alexnet,1,228,NaN,oven,chair,16-3-10,0228_eid_dnn_16-3-10_chair_10_n02791124_12486.png,n02791124_12486.png,0.0,0.6670355,4.1687603,-2.4760933
alexnet,1,229,NaN,cat,cat,128-3-10,0229_eid_dnn_128-3-10_cat_10_n02123045_6629.png,n02123045_6629.png,1.0,2.2452385,1.8031201,0.31262493
alexnet,1,230,NaN,oven,bird,16-3-10,0230_eid_dnn_16-3-10_bird_10_n01819313_5388.png,n01819313_5388.png,0.0,-0.6077018,3.0023284,-2.552677
alexnet,1,231,NaN,oven,truck,32-3-10,0231_eid_dnn_32-3-10_truck_10_n04467665_4940.png,n04467665_4940.png,0.0,1.7039129,2.8222046,-0.7907517
alexnet,1,232,NaN,bottle,knife,8-3-10,0232_eid_dnn_8-3-10_knife_10_n03041632_20433.png,n03041632_20433.png,0.0,1.6597295,2.87077,-0.856335
alexnet,1,233,NaN,clock,clock,2-3-10,0233_eid_dnn_2-3-10_clock_10_n04548280_6792.png,n04548280_6792.png,1.0,7.9753394,5.720205,1.594621
alexnet,1,234,NaN,bicycle,bicycle,4-3-10,0234_eid_dnn_4-3-10_bicycle_10_n02835271_5413.png,n02835271_5413.png,1.0,3.903642,3.1195467,0.5544391
alexnet,1,235,NaN,car,car,2-3-10,0235_eid_dnn_2-3-10_car_10_n04285008_5005.png,n04285008_5005.png,1.0,13.61525,7.0347114,4.6531434
alexnet,1,236,NaN,car,car,2-3-10,0236_eid_dnn_2-3-10_car_10_n02814533_88088.png,n02814533_88088.png,1.0,3.660639,2.9001732,0.5377306
alexnet,1,237,NaN,bear,elephant,64-3-10,0237_eid_dnn_64-3-10_elephant_10_n02504458_11345.png,n02504458_11345.png,0.0,1.1306659,2.3885393,-0.88945085
alexnet,1,238,NaN,oven,elephant,16-3-10,0238_eid_dnn_16-3-10_elephant_10_n02504013_1900.png,n02504013_1900.png,0.0,2.129125,4.1701703,-1.443237
alexnet,1,239,NaN,elephant,bear,128-3-10,0239_eid_dnn_128-3-10_bear_10_n02133161_5708.png,n02133161_5708.png,0.0,1.1672409,2.1722877,-0.7106755
alexnet,1,240,NaN,cat,cat,8-3-10,0240_eid_dnn_8-3-10_cat_10_n02124075_5828.png,n02124075_5828.png,1.0,5.4791446,3.273392,1.5597026
alexnet,1,241,NaN,cat,bird,64-3-10,0241_eid_dnn_64-3-10_bird_10_n01582220_9392.png,n01582220_9392.png,0.0,-0.8364021,2.7087505,-2.5068016
alexnet,1,242,NaN,clock,clock,1-3-10,0242_eid_dnn_1-3-10_clock_10_n02708093_4597.png,n02708093_4597.png,1.0,15.259004,6.065664,6.5006733
alexnet,1,243,NaN,bicycle,bicycle,128-3-10,0243_eid_dnn_128-3-10_bicycle_10_n03792782_26306.png,n03792782_26306.png,1.0,2.4741194,2.1115484,0.25637642
alexnet,1,244,NaN,oven,bear,32-3-10,0244_eid_dnn_32-3-10_bear_10_n02132136_1795.png,n02132136_1795.png,0.0,1.5697942,2.89922,-0.940046
alexnet,1,245,NaN,cat,clock,128-3-10,0245_eid_dnn_128-3-10_clock_10_n02708093_3638.png,n02708093_3638.png,0.0,-1.4967545,3.323506,-3.408439
alexnet,1,246,NaN,keyboard,keyboard,4-3-10,0246_eid_dnn_4-3-10_keyboard_10_n03085013_21272.png,n03085013_21272.png,1.0,3.6524868,1.9576924,1.1984006
alexnet,1,247,NaN,bottle,chair,8-3-10,0247_eid_dnn_8-3-10_chair_10_n02791124_16926.png,n02791124_16926.png,0.0,0.8967613,3.6937387,-1.9777619
alexnet,1,248,NaN,dog,knife,8-3-10,0248_eid_dnn_8-3-10_knife_10_n03041632_84048.png,n03041632_84048.png,0.0,1.8851917,2.7357676,-0.601448
alexnet,1,249,NaN,chair,oven,2-3-10,0249_eid_dnn_2-3-10_oven_10_n04111531_550.png,n04111531_550.png,0.0,3.913939,4.5807457,-0.47150356
alexnet,1,250,NaN,cat,boat,128-3-10,0250_eid_dnn_128-3-10_boat_10_n03662601_21992.png,n03662601_21992.png,0.0,-2.3330731,1.6590949,-2.822889
alexnet,1,251,NaN,bear,bear,32-3-10,0251_eid_dnn_32-3-10_bear_10_n02134418_280.png,n02134418_280.png,1.0,3.081815,2.467661,0.43427253
alexnet,1,252,NaN,oven,bottle,8-3-10,0252_eid_dnn_8-3-10_bottle_10_n04560804_8385.png,n04560804_8385.png,0.0,3.9917476,4.295811,-0.21500541
alexnet,1,253,NaN,elephant,elephant,64-3-10,0253_eid_dnn_64-3-10_elephant_10_n02504013_4183.png,n02504013_4183.png,1.0,3.5319421,3.2656767,0.18827806
alexnet,1,254,NaN,bird,bird,1-3-10,0254_eid_dnn_1-3-10_bird_10_n01560419_19608.png,n01560419_19608.png,1.0,2.688973,1.2505308,1.0171322
alexnet,1,255,NaN,dog,bird,4-3-10,0255_eid_dnn_4-3-10_bird_10_n02056570_8865.png,n02056570_8865.png,0.0,-1.6637312,2.7109647,-3.093377
alexnet,1,256,NaN,cat,cat,2-3-10,0256_eid_dnn_2-3-10_cat_10_n02123394_2553.png,n02123394_2553.png,1.0,4.63583,2.4278812,1.5612555
alexnet,1,257,NaN,cat,bear,128-3-10,0257_eid_dnn_128-3-10_bear_10_n02132136_10113.png,n02132136_10113.png,0.0,0.88573694,2.468438,-1.1191386
alexnet,1,258,NaN,bottle,oven,8-3-10,0258_eid_dnn_8-3-10_oven_10_n04111531_2758.png,n04111531_2758.png,0.0,-0.090269774,1.5059332,-1.128686
alexnet,1,259,NaN,elephant,keyboard,64-3-10,0259_eid_dnn_64-3-10_keyboard_10_n04505470_4824.png,n04505470_4824.png,0.0,-4.5549,2.1659431,-4.752354
alexnet,1,260,NaN,bicycle,bicycle,2-3-10,0260_eid_dnn_2-3-10_bicycle_10_n02835271_8654.png,n02835271_8654.png,1.0,3.7114933,1.9340298,1.2568564
alexnet,1,261,NaN,cat,keyboard,128-3-10,0261_eid_dnn_128-3-10_keyboard_10_n03085013_34973.png,n03085013_34973.png,0.0,-1.5429392,3.147277,-3.3164837
alexnet,1,262,NaN,bottle,cat,4-3-10,0262_eid_dnn_4-3-10_cat_10_n02123394_4228.png,n02123394_4228.png,0.0,1.6140951,3.5850997,-1.3937107
alexnet,1,263,NaN,cat,keyboard,32-3-10,0263_eid_dnn_32-3-10_keyboard_10_n03085013_24416.png,n03085013_24416.png,0.0,-2.887002,1.4968332,-3.0998397
alexnet,1,264,NaN,cat,cat,8-3-10,0264_eid_dnn_8-3-10_cat_10_n02124075_5729.png,n02124075_5729.png,1.0,5.9797254,3.0211926,2.0919986
alexnet,1,265,NaN,oven,clock,32-3-10,0265_eid_dnn_32-3-10_clock_10_n03196217_6357.png,n03196217_6357.png,0.0,0.24050713,2.3920312,-1.5213573
alexnet,1,266,NaN,cat,truck,128-3-10,0266_eid_dnn_128-3-10_truck_10_n03417042_29478.png,n03417042_29478.png,0.0,-0.0761603,2.0847826,-1.5280173
alexnet,1,267,NaN,bicycle,chair,128-3-10,0267_eid_dnn_128-3-10_chair_10_n04099969_18678.png,n04099969_18678.png,0.0,-0.10852584,3.2786882,-2.395122
alexnet,1,268,NaN,oven,clock,32-3-10,0268_eid_dnn_32-3-10_clock_10_n02708093_4286.png,n02708093_4286.png,0.0,0.28384614,2.858529,-1.8205758
alexnet,1,269,NaN,cat,car,128-3-10,0269_eid_dnn_128-3-10_car_10_n03100240_21971.png,n03100240_21971.png,0.0,-2.6130693,2.3449268,-3.505833
alexnet,1,270,NaN,car,car,1-3-10,0270_eid_dnn_1-3-10_car_10_n03100240_84.png,n03100240_84.png,1.0,11.845983,10.571785,0.90099376
alexnet,1,271,NaN,cat,dog,1-3-10,0271_eid_dnn_1-3-10_dog_10_n02094433_3186.png,n02094433_3186.png,0.0,4.2904243,4.909494,-0.4377483
alexnet,1,272,NaN,dog,dog,4-3-10,0272_eid_dnn_4-3-10_dog_10_n02088364_10195.png,n02088364_10195.png,1.0,3.9581962,1.7205776,1.5822352
alexnet,1,273,NaN,oven,knife,16-3-10,0273_eid_dnn_16-3-10_knife_10_n03041632_11358.png,n03041632_11358.png,0.0,1.6896148,2.489954,-0.5659253
alexnet,1,274,NaN,bicycle,bird,64-3-10,0274_eid_dnn_64-3-10_bird_10_n01531178_10630.png,n01531178_10630.png,0.0,0.06037643,2.299497,-1.5832973
alexnet,1,275,NaN,elephant,elephant,1-3-10,0275_eid_dnn_1-3-10_elephant_10_n02504458_4058.png,n02504458_4058.png,1.0,5.1570807,3.1263757,1.4359252
alexnet,1,276,NaN,elephant,keyboard,32-3-10,0276_eid_dnn_32-3-10_keyboard_10_n03085013_24336.png,n03085013_24336.png,0.0,-3.0422113,3.2191017,-4.427417
alexnet,1,277,NaN,clock,clock,4-3-10,0277_eid_dnn_4-3-10_clock_10_n02708093_386.png,n02708093_386.png,1.0,9.516078,7.702958,1.2820694
alexnet,1,278,NaN,elephant,chair,4-3-10,0278_eid_dnn_4-3-10_chair_10_n04429376_16370.png,n04429376_16370.png,0.0,0.9203087,3.358157,-1.7238189
alexnet,1,279,NaN,bottle,bottle,1-3-10,0279_eid_dnn_1-3-10_bottle_10_n04557648_10167.png,n04557648_10167.png,1.0,3.014072,2.8177698,0.1388066
alexnet,1,280,NaN,bicycle,bicycle,1-3-10,0280_eid_dnn_1-3-10_bicycle_10_n02835271_15717.png,n02835271_15717.png,1.0,8.915119,4.9119296,2.8306825
alexnet,1,281,NaN,cat,car,128-3-10,0281_eid_dnn_128-3-10_car_10_n03100240_22593.png,n03100240_22593.png,0.0,-1.9179673,2.05035,-2.806024
alexnet,1,282,NaN,car,car,1-3-10,0282_eid_dnn_1-3-10_car_10_n04285008_11240.png,n04285008_11240.png,1.0,13.922119,6.6707635,5.127483
alexnet,1,283,NaN,boat,boat,1-3-10,0283_eid_dnn_1-3-10_boat_10_n03344393_3337.png,n03344393_3337.png,1.0,5.846148,3.787532,1.4556613
alexnet,1,284,NaN,cat,bottle,128-3-10,0284_eid_dnn_128-3-10_bottle_10_n04579145_1660.png,n04579145_1660.png,0.0,-0.08246284,2.6445613,-1.9282973
alexnet,1,285,NaN,oven,dog,64-3-10,0285_eid_dnn_64-3-10_dog_10_n02091244_9305.png,n02091244_9305.png,0.0,2.0467484,2.2454596,-0.14051001
alexnet,1,286,NaN,dog,chair,32-3-10,0286_eid_dnn_32-3-10_chair_10_n03376595_3912.png,n03376595_3912.png,0.0,0.41202396,1.8780632,-1.0366462
alexnet,1,287,NaN,elephant,bottle,64-3-10,0287_eid_dnn_64-3-10_bottle_10_n02823428_6793.png,n02823428_6793.png,0.0,-0.74801785,3.5198827,-3.0178614
alexnet,1,288,NaN,oven,dog,32-3-10,0288_eid_dnn_32-3-10_dog_10_n02093754_4949.png,n02093754_4949.png,0.0,1.9868101,3.3518267,-0.9652125
alexnet,1,289,NaN,cat,dog,128-3-10,0289_eid_dnn_128-3-10_dog_10_n02105855_10394.png,n02105855_10394.png,0.0,1.2730987,3.0753186,-1.274362
alexnet,1,290,NaN,clock,clock,2-3-10,0290_eid_dnn_2-3-10_clock_10_n04548280_9533.png,n04548280_9533.png,1.0,5.9481072,4.160266,1.2641947
alexnet,1,291,NaN,bear,cat,1-3-10,0291_eid_dnn_1-3-10_cat_10_n02125311_7527.png,n02125311_7527.png,0.0,1.9456745,2.8754177,-0.6574277
alexnet,1,292,NaN,car,car,4-3-10,0292_eid_dnn_4-3-10_car_10_n03100240_4537.png,n03100240_4537.png,1.0,4.364959,3.552831,0.5742611
alexnet,1,293,NaN,elephant,bicycle,8-3-10,0293_eid_dnn_8-3-10_bicycle_10_n03792782_11609.png,n03792782_11609.png,0.0,-0.14999172,3.0770192,-2.2818413
alexnet,1,294,NaN,cat,oven,128-3-10,0294_eid_dnn_128-3-10_oven_10_n04111531_6134.png,n04111531_6134.png,0.0,-1.9641,3.3125308,-3.7311416
alexnet,1,295,NaN,dog,bottle,8-3-10,0295_eid_dnn_8-3-10_bottle_10_n04591713_715.png,n04591713_715.png,0.0,2.2221658,2.4153762,-0.13662036
alexnet,1,296,NaN,oven,elephant,32-3-10,0296_eid_dnn_32-3-10_elephant_10_n02504458_7818.png,n02504458_7818.png,0.0,0.8228905,2.498641,-1.1849346
alexnet,1,297,NaN,bear,airplane,64-3-10,0297_eid_dnn_64-3-10_airplane_10_n02690373_7107.png,n02690373_7107.png,0.0,-2.3524182,2.4069865,-3.3654075
alexnet,1,298,NaN,oven,car,32-3-10,0298_eid_dnn_32-3-10_car_10_n04285008_8363.png,n04285008_8363.png,0.0,-2.444791,2.5022225,-3.4980671
alexnet,1,299,NaN,clock,clock,4-3-10,0299_eid_dnn_4-3-10_clock_10_n04548280_4249.png,n04548280_4249.png,1.0,3.5269234,1.540113,1.4048872
alexnet,1,300,NaN,cat,cat,128-3-10,0300_eid_dnn_128-3-10_cat_10_n02123597_7269.png,n02123597_7269.png,1.0,2.9992714,2.222747,0.5490856
alexnet,1,301,NaN,bicycle,bicycle,1-3-10,0301_eid_dnn_1-3-10_bicycle_10_n03792782_4864.png,n03792782_4864.png,1.0,9.647165,4.475463,3.656946
alexnet,1,302,NaN,bear,bear,2-3-10,0302_eid_dnn_2-3-10_bear_10_n02132136_8011.png,n02132136_8011.png,1.0,6.152716,4.485464,1.1789253
alexnet,1,303,NaN,clock,boat,128-3-10,0303_eid_dnn_128-3-10_boat_10_n02951358_4810.png,n02951358_4810.png,0.0,-1.2870166,2.5326464,-2.7009096
alexnet,1,304,NaN,bicycle,clock,128-3-10,0304_eid_dnn_128-3-10_clock_10_n03196217_5137.png,n03196217_5137.png,0.0,-0.9327772,2.803506,-2.641951
alexnet,1,305,NaN,bicycle,bicycle,2-3-10,0305_eid_dnn_2-3-10_bicycle_10_n02835271_158.png,n02835271_158.png,1.0,6.519868,3.8549335,1.8843932
alexnet,1,306,NaN,oven,bear,64-3-10,0306_eid_dnn_64-3-10_bear_10_n02132136_11217.png,n02132136_11217.png,0.0,0.7170465,1.9908146,-0.9006901
alexnet,1,307,NaN,dog,dog,64-3-10,0307_eid_dnn_64-3-10_dog_10_n02092002_6122.png,n02092002_6122.png,1.0,2.1237044,1.3841826,0.5229209
alexnet,1,308,NaN,bear,chair,32-3-10,0308_eid_dnn_32-3-10_chair_10_n04429376_29223.png,n04429376_29223.png,0.0,-0.20762897,3.0538306,-2.3062003
alexnet,1,309,NaN,cat,bear,128-3-10,0309_eid_dnn_128-3-10_bear_10_n02133161_5723.png,n02133161_5723.png,0.0,-0.48065078,3.228649,-2.622871
alexnet,1,310,NaN,cat,dog,128-3-10,0310_eid_dnn_128-3-10_dog_10_n02100583_1343.png,n02100583_1343.png,0.0,1.3403097,3.0171325,-1.1856928
alexnet,1,311,NaN,oven,boat,128-3-10,0311_eid_dnn_128-3-10_boat_10_n03344393_6352.png,n03344393_6352.png,0.0,-1.2569205,2.4792843,-2.6418958
alexnet,1,312,NaN,bird,bird,4-3-10,0312_eid_dnn_4-3-10_bird_10_n01560419_8247.png,n01560419_8247.png,1.0,2.7067735,1.7401285,0.6835213
alexnet,1,313,NaN,dog,dog,4-3-10,0313_eid_dnn_4-3-10_dog_10_n02105251_8210.png,n02105251_8210.png,1.0,5.2378454,4.2658305,0.6873183
alexnet,1,314,NaN,dog,oven,128-3-10,0314_eid_dnn_128-3-10_oven_10_n04111531_9702.png,n04111531_9702.png,0.0,-0.7447372,1.4891558,-1.5796008
alexnet,1,315,NaN,bottle,bear,8-3-10,0315_eid_dnn_8-3-10_bear_10_n02133161_12161.png,n02133161_12161.png,0.0,0.27268785,1.9564396,-1.1905924
alexnet,1,316,NaN,bear,bear,8-3-10,0316_eid_dnn_8-3-10_bear_10_n02133161_13556.png,n02133161_13556.png,1.0,4.5840077,4.5382967,0.032322586
alexnet,1,317,NaN,dog,bear,128-3-10,0317_eid_dnn_128-3-10_bear_10_n02134084_635.png,n02134084_635.png,0.0,0.85959107,2.2565217,-0.9877792
alexnet,1,318,NaN,cat,chair,128-3-10,0318_eid_dnn_128-3-10_chair_10_n02791124_6956.png,n02791124_6956.png,0.0,-0.54407805,2.8588006,-2.4061987
alexnet,1,319,NaN,oven,car,4-3-10,0319_eid_dnn_4-3-10_car_10_n02814533_18077.png,n02814533_18077.png,0.0,1.951105,3.5271637,-1.1144419
alexnet,1,320,NaN,knife,dog,2-3-10,0320_eid_dnn_2-3-10_dog_10_n02088364_11105.png,n02088364_11105.png,0.0,2.3292685,4.56166,-1.5785391
alexnet,1,321,NaN,elephant,airplane,64-3-10,0321_eid_dnn_64-3-10_airplane_10_n02690373_1053.png,n02690373_1053.png,0.0,-3.0919325,2.2132545,-3.751334
alexnet,1,322,NaN,oven,car,16-3-10,0322_eid_dnn_16-3-10_car_10_n02814533_96407.png,n02814533_96407.png,0.0,-2.9204667,3.9697156,-4.8720946
alexnet,1,323,NaN,clock,chair,4-3-10,0323_eid_dnn_4-3-10_chair_10_n04099969_31891.png,n04099969_31891.png,0.0,4.202376,4.2273707,-0.017674029
alexnet,1,324,NaN,cat,bottle,16-3-10,0324_eid_dnn_16-3-10_bottle_10_n04557648_4470.png,n04557648_4470.png,0.0,1.3615786,2.0014286,-0.4524423
alexnet,1,325,NaN,dog,clock,8-3-10,0325_eid_dnn_8-3-10_clock_10_n02708093_2588.png,n02708093_2588.png,0.0,0.015717646,3.772611,-2.6565247
alexnet,1,326,NaN,cat,elephant,128-3-10,0326_eid_dnn_128-3-10_elephant_10_n02504458_6696.png,n02504458_6696.png,0.0,0.39090872,3.4725974,-2.1790829
alexnet,1,327,NaN,cat,elephant,32-3-10,0327_eid_dnn_32-3-10_elephant_10_n02504013_4071.png,n02504013_4071.png,0.0,2.279409,3.1061773,-0.58461356
alexnet,1,328,NaN,knife,keyboard,8-3-10,0328_eid_dnn_8-3-10_keyboard_10_n03085013_8339.png,n03085013_8339.png,0.0,-1.3828886,3.0838106,-3.1584332
alexnet,1,329,NaN,cat,elephant,64-3-10,0329_eid_dnn_64-3-10_elephant_10_n02504013_6976.png,n02504013_6976.png,0.0,-0.5577615,2.8850887,-2.4344628
alexnet,1,330,NaN,oven,boat,4-3-10,0330_eid_dnn_4-3-10_boat_10_n02951358_9146.png,n02951358_9146.png,0.0,0.12156246,3.7336283,-2.5541162
alexnet,1,331,NaN,oven,boat,32-3-10,0331_eid_dnn_32-3-10_boat_10_n04273569_4087.png,n04273569_4087.png,0.0,0.32730883,1.8370994,-1.0675832
alexnet,1,332,NaN,elephant,oven,64-3-10,0332_eid_dnn_64-3-10_oven_10_n04111531_2922.png,n04111531_2922.png,0.0,-0.41350085,2.1872053,-1.838977
alexnet,1,333,NaN,cat,bear,4-3-10,0333_eid_dnn_4-3-10_bear_10_n02133161_5325.png,n02133161_5325.png,0.0,4.1936264,4.2236276,-0.021214027
alexnet,1,334,NaN,elephant,bottle,64-3-10,0334_eid_dnn_64-3-10_bottle_10_n04557648_3109.png,n04557648_3109.png,0.0,-0.0104467785,2.5330067,-1.7984933
alexnet,1,335,NaN,oven,oven,1-3-10,0335_eid_dnn_1-3-10_oven_10_n04111531_15912.png,n04111531_15912.png,1.0,5.861741,3.1022015,1.9512892
alexnet,1,336,NaN,dog,truck,16-3-10,0336_eid_dnn_16-3-10_truck_10_n03417042_17099.png,n03417042_17099.png,0.0,-1.5184604,4.1611733,-4.0161076
alexnet,1,337,NaN,car,car,2-3-10,0337_eid_dnn_2-3-10_car_10_n04285008_8641.png,n04285008_8641.png,1.0,9.392011,6.1902676,2.2639744
alexnet,1,338,NaN,elephant,keyboard,32-3-10,0338_eid_dnn_32-3-10_keyboard_10_n04505470_524.png,n04505470_524.png,0.0,-5.1635585,3.0293272,-5.793245
alexnet,1,339,NaN,dog,bottle,8-3-10,0339_eid_dnn_8-3-10_bottle_10_n04557648_5935.png,n04557648_5935.png,0.0,2.2404213,4.3321,-1.4790401
alexnet,1,340,NaN,bottle,bottle,1-3-10,0340_eid_dnn_1-3-10_bottle_10_n04591713_3776.png,n04591713_3776.png,1.0,4.368434,4.11029,0.1825353
alexnet,1,341,NaN,truck,truck,2-3-10,0341_eid_dnn_2-3-10_truck_10_n03796401_3651.png,n03796401_3651.png,1.0,10.3106575,7.408563,2.0520906
alexnet,1,342,NaN,bicycle,bicycle,128-3-10,0342_eid_dnn_128-3-10_bicycle_10_n03792782_15757.png,n03792782_15757.png,1.0,3.0705423,2.1135015,0.67673004
alexnet,1,343,NaN,oven,cat,32-3-10,0343_eid_dnn_32-3-10_cat_10_n02123597_8698.png,n02123597_8698.png,0.0,1.4609839,3.4974809,-1.4400209
alexnet,1,344,NaN,car,boat,1-3-10,0344_eid_dnn_1-3-10_boat_10_n03662601_273.png,n03662601_273.png,0.0,4.6407614,5.1771502,-0.3792842
alexnet,1,345,NaN,knife,knife,1-3-10,0345_eid_dnn_1-3-10_knife_10_n03041632_24376.png,n03041632_24376.png,1.0,3.5454404,3.1952891,0.24759436
alexnet,1,346,NaN,keyboard,keyboard,1-3-10,0346_eid_dnn_1-3-10_keyboard_10_n04505470_2608.png,n04505470_2608.png,1.0,5.5979176,2.9208164,1.8929964
alexnet,1,347,NaN,oven,boat,16-3-10,0347_eid_dnn_16-3-10_boat_10_n04273569_10665.png,n04273569_10665.png,0.0,0.3774813,2.0260932,-1.1657447
alexnet,1,348,NaN,bear,bear,64-3-10,0348_eid_dnn_64-3-10_bear_10_n02133161_5267.png,n02133161_5267.png,1.0,2.7832086,2.7397907,0.030701114
alexnet,1,349,NaN,cat,bear,128-3-10,0349_eid_dnn_128-3-10_bear_10_n02133161_5020.png,n02133161_5020.png,0.0,0.7814909,2.215267,-1.0138328
alexnet,1,350,NaN,cat,knife,128-3-10,0350_eid_dnn_128-3-10_knife_10_n03041632_21723.png,n03041632_21723.png,0.0,-1.4843268,2.425051,-2.7643476
alexnet,1,351,NaN,dog,boat,32-3-10,0351_eid_dnn_32-3-10_boat_10_n02951358_31101.png,n02951358_31101.png,0.0,1.1770086,1.5847788,-0.28833705
alexnet,1,352,NaN,elephant,dog,128-3-10,0352_eid_dnn_128-3-10_dog_10_n02102177_4180.png,n02102177_4180.png,0.0,0.65053004,1.9954345,-0.95099103
alexnet,1,353,NaN,bottle,bottle,4-3-10,0353_eid_dnn_4-3-10_bottle_10_n04579145_4186.png,n04579145_4186.png,1.0,5.672894,4.4429874,0.8696753
alexnet,1,354,NaN,bear,bicycle,64-3-10,0354_eid_dnn_64-3-10_bicycle_10_n03792782_2246.png,n03792782_2246.png,0.0,1.8881326,2.1076388,-0.15521437
alexnet,1,355,NaN,dog,dog,1-3-10,0355_eid_dnn_1-3-10_dog_10_n02110958_1526.png,n02110958_1526.png,1.0,3.0724711,1.6460159,1.0086563
alexnet,1,356,NaN,cat,keyboard,128-3-10,0356_eid_dnn_128-3-10_keyboard_10_n04505470_255.png,n04505470_255.png,0.0,-4.1172223,2.9231033,-4.978262
alexnet,1,357,NaN,bear,elephant,4-3-10,0357_eid_dnn_4-3-10_elephant_10_n02504458_1933.png,n02504458_1933.png,0.0,1.6902375,1.7851323,-0.06710073
alexnet,1,358,NaN,cat,cat,2-3-10,0358_eid_dnn_2-3-10_cat_10_n02123159_5749.png,n02123159_5749.png,1.0,8.903543,2.1622207,4.7668347
alexnet,1,359,NaN,dog,airplane,128-3-10,0359_eid_dnn_128-3-10_airplane_10_n02690373_2967.png,n02690373_2967.png,0.0,-1.7495778,2.4233298,-2.9506915
alexnet,1,360,NaN,dog,chair,8-3-10,0360_eid_dnn_8-3-10_chair_10_n04099969_72.png,n04099969_72.png,0.0,-2.1268206,2.4292164,-3.2216046
alexnet,1,361,NaN,cat,cat,32-3-10,0361_eid_dnn_32-3-10_cat_10_n02123045_4089.png,n02123045_4089.png,1.0,3.5907516,2.6255155,0.68252504
alexnet,1,362,NaN,cat,bird,128-3-10,0362_eid_dnn_128-3-10_bird_10_n01616318_13293.png,n01616318_13293.png,0.0,-1.6493012,3.0481434,-3.321595
alexnet,1,363,NaN,cat,cat,4-3-10,0363_eid_dnn_4-3-10_cat_10_n02124075_13719.png,n02124075_13719.png,1.0,4.758174,3.7473662,0.71474904
alexnet,1,364,NaN,cat,oven,32-3-10,0364_eid_dnn_32-3-10_oven_10_n04111531_22466.png,n04111531_22466.png,0.0,1.360502,4.1903863,-2.0010304
alexnet,1,365,NaN,elephant,airplane,128-3-10,0365_eid_dnn_128-3-10_airplane_10_n02690373_2525.png,n02690373_2525.png,0.0,-4.379482,3.167148,-5.336273
alexnet,1,366,NaN,cat,cat,1-3-10,0366_eid_dnn_1-3-10_cat_10_n02124075_5369.png,n02124075_5369.png,1.0,8.482343,5.1761227,2.3378506
alexnet,1,367,NaN,dog,bird,64-3-10,0367_eid_dnn_64-3-10_bird_10_n01843065_4182.png,n01843065_4182.png,0.0,-0.9655334,1.7498586,-1.9200722
alexnet,1,368,NaN,truck,truck,2-3-10,0368_eid_dnn_2-3-10_truck_10_n03796401_6472.png,n03796401_6472.png,1.0,8.002869,5.442488,1.8104625
alexnet,1,369,NaN,oven,airplane,64-3-10,0369_eid_dnn_64-3-10_airplane_10_n02690373_3090.png,n02690373_3090.png,0.0,-1.5981288,2.9059482,-3.1848633
alexnet,1,370,NaN,bear,bear,64-3-10,0370_eid_dnn_64-3-10_bear_10_n02134418_2964.png,n02134418_2964.png,1.0,2.1881795,1.928241,0.18380426
alexnet,1,371,NaN,elephant,elephant,16-3-10,0371_eid_dnn_16-3-10_elephant_10_n02504013_6904.png,n02504013_6904.png,1.0,5.7998853,4.6833086,0.7895389
alexnet,1,372,NaN,elephant,bottle,32-3-10,0372_eid_dnn_32-3-10_bottle_10_n02823428_13488.png,n02823428_13488.png,0.0,0.99519116,3.596356,-1.8393013
alexnet,1,373,NaN,car,car,1-3-10,0373_eid_dnn_1-3-10_car_10_n02814533_49499.png,n02814533_49499.png,1.0,14.052194,8.274883,4.0851755
alexnet,1,374,NaN,bicycle,clock,64-3-10,0374_eid_dnn_64-3-10_clock_10_n03196217_1000.png,n03196217_1000.png,0.0,0.72334987,2.7324233,-1.4206295
alexnet,1,375,NaN,boat,boat,16-3-10,0375_eid_dnn_16-3-10_boat_10_n04612504_13446.png,n04612504_13446.png,1.0,3.1870039,2.3966095,0.5588932
alexnet,1,376,NaN,cat,cat,8-3-10,0376_eid_dnn_8-3-10_cat_10_n02123159_7239.png,n02123159_7239.png,1.0,4.428405,3.1571121,0.89893967
alexnet,1,377,NaN,boat,airplane,8-3-10,0377_eid_dnn_8-3-10_airplane_10_n02690373_7499.png,n02690373_7499.png,0.0,2.5385098,3.0361314,-0.35187158
alexnet,1,378,NaN,bear,dog,64-3-10,0378_eid_dnn_64-3-10_dog_10_n02100877_8862.png,n02100877_8862.png,0.0,1.251861,1.7936338,-0.38309127
alexnet,1,379,NaN,keyboard,keyboard,2-3-10,0379_eid_dnn_2-3-10_keyboard_10_n03085013_7152.png,n03085013_7152.png,1.0,12.047329,5.75484,4.449462
alexnet,1,380,NaN,bear,bottle,32-3-10,0380_eid_dnn_32-3-10_bottle_10_n03937543_3344.png,n03937543_3344.png,0.0,0.4692504,2.756833,-1.6175653
alexnet,1,381,NaN,cat,bicycle,64-3-10,0381_eid_dnn_64-3-10_bicycle_10_n02835271_1721.png,n02835271_1721.png,0.0,0.6220672,3.1948376,-1.8192234
alexnet,1,382,NaN,boat,boat,2-3-10,0382_eid_dnn_2-3-10_boat_10_n04273569_7039.png,n04273569_7039.png,1.0,8.527085,3.1991005,3.7674541
alexnet,1,383,NaN,airplane,airplane,1-3-10,0383_eid_dnn_1-3-10_airplane_10_n02690373_5790.png,n02690373_5790.png,1.0,7.6080017,6.1314764,1.0440611
alexnet,1,384,NaN,boat,bird,2-3-10,0384_eid_dnn_2-3-10_bird_10_n02007558_4629.png,n02007558_4629.png,0.0,-0.20284139,3.6102664,-2.6962743
alexnet,1,385,NaN,airplane,airplane,8-3-10,0385_eid_dnn_8-3-10_airplane_10_n02690373_2313.png,n02690373_2313.png,1.0,9.077631,2.8439078,4.407908
alexnet,1,386,NaN,car,car,2-3-10,0386_eid_dnn_2-3-10_car_10_n02814533_65093.png,n02814533_65093.png,1.0,7.8327928,4.206807,2.5639591
alexnet,1,387,NaN,bicycle,bicycle,2-3-10,0387_eid_dnn_2-3-10_bicycle_10_n03792782_4559.png,n03792782_4559.png,1.0,8.257044,2.473294,4.089729
alexnet,1,388,NaN,oven,oven,2-3-10,0388_eid_dnn_2-3-10_oven_10_n04111531_16696.png,n04111531_16696.png,1.0,10.78702,5.8745465,3.473643
alexnet,1,389,NaN,oven,boat,32-3-10,0389_eid_dnn_32-3-10_boat_10_n04273569_5593.png,n04273569_5593.png,0.0,-0.5052379,2.784252,-2.3260205
alexnet,1,390,NaN,elephant,bottle,128-3-10,0390_eid_dnn_128-3-10_bottle_10_n03937543_6624.png,n03937543_6624.png,0.0,0.28782937,1.8731563,-1.1209954
alexnet,1,391,NaN,airplane,airplane,1-3-10,0391_eid_dnn_1-3-10_airplane_10_n02690373_12436.png,n02690373_12436.png,1.0,16.497467,5.745784,7.602588
alexnet,1,392,NaN,bird,bird,2-3-10,0392_eid_dnn_2-3-10_bird_10_n01828970_6924.png,n01828970_6924.png,1.0,4.738571,2.1854393,1.8053368
alexnet,1,393,NaN,airplane,airplane,4-3-10,0393_eid_dnn_4-3-10_airplane_10_n02690373_9605.png,n02690373_9605.png,1.0,8.514364,1.8784529,4.692298
alexnet,1,394,NaN,oven,truck,128-3-10,0394_eid_dnn_128-3-10_truck_10_n03796401_1335.png,n03796401_1335.png,0.0,-0.3678088,1.7704736,-1.5119939
alexnet,1,395,NaN,bear,chair,64-3-10,0395_eid_dnn_64-3-10_chair_10_n04429376_10476.png,n04429376_10476.png,0.0,-0.6153964,2.9204214,-2.5002007
alexnet,1,396,NaN,bottle,bottle,1-3-10,0396_eid_dnn_1-3-10_bottle_10_n04560804_32760.png,n04560804_32760.png,1.0,7.4144616,3.499111,2.7685711
alexnet,1,397,NaN,oven,airplane,32-3-10,0397_eid_dnn_32-3-10_airplane_10_n02690373_10817.png,n02690373_10817.png,0.0,-0.3927623,2.007814,-1.6974636
alexnet,1,398,NaN,oven,car,32-3-10,0398_eid_dnn_32-3-10_car_10_n03100240_5946.png,n03100240_5946.png,0.0,-3.6190813,2.928399,-4.629768
alexnet,1,399,NaN,bear,clock,64-3-10,0399_eid_dnn_64-3-10_clock_10_n02708093_2875.png,n02708093_2875.png,0.0,-0.7426773,4.1800284,-3.4808786
alexnet,1,400,NaN,bear,bear,2-3-10,0400_eid_dnn_2-3-10_bear_10_n02133161_2456.png,n02133161_2456.png,1.0,7.9316297,4.886695,2.153094
alexnet,1,401,NaN,dog,bird,8-3-10,0401_eid_dnn_8-3-10_bird_10_n01855672_15317.png,n01855672_15317.png,0.0,-1.7126226,1.9864146,-2.6156142
alexnet,1,402,NaN,dog,dog,8-3-10,0402_eid_dnn_8-3-10_dog_10_n02098286_2242.png,n02098286_2242.png,1.0,3.7733586,2.3890555,0.9788501
alexnet,1,403,NaN,knife,knife,2-3-10,0403_eid_dnn_2-3-10_knife_10_n03041632_43289.png,n03041632_43289.png,1.0,4.0936236,3.6312668,0.32693565
alexnet,1,404,NaN,bottle,bottle,4-3-10,0404_eid_dnn_4-3-10_bottle_10_n02823428_4387.png,n02823428_4387.png,1.0,5.774918,4.4805784,0.91523635
alexnet,1,405,NaN,oven,knife,64-3-10,0405_eid_dnn_64-3-10_knife_10_n03041632_13194.png,n03041632_13194.png,0.0,0.65194285,1.8416698,-0.841264
alexnet,1,406,NaN,airplane,airplane,8-3-10,0406_eid_dnn_8-3-10_airplane_10_n02690373_7465.png,n02690373_7465.png,1.0,4.276614,3.5526907,0.5118912
alexnet,1,407,NaN,bottle,bird,4-3-10,0407_eid_dnn_4-3-10_bird_10_n02018207_2282.png,n02018207_2282.png,0.0,0.26663294,1.8822931,-1.1424443
alexnet,1,408,NaN,bicycle,chair,64-3-10,0408_eid_dnn_64-3-10_chair_10_n04099969_34351.png,n04099969_34351.png,0.0,0.3492139,1.9783874,-1.1519997
alexnet,1,409,NaN,bear,bottle,64-3-10,0409_eid_dnn_64-3-10_bottle_10_n03937543_49.png,n03937543_49.png,0.0,-0.67412573,2.3071465,-2.1080778
alexnet,1,410,NaN,bicycle,bicycle,8-3-10,0410_eid_dnn_8-3-10_bicycle_10_n03792782_9833.png,n03792782_9833.png,1.0,4.5095606,2.7795508,1.2233016
alexnet,1,411,NaN,knife,clock,4-3-10,0411_eid_dnn_4-3-10_clock_10_n03196217_10384.png,n03196217_10384.png,0.0,4.693499,8.096722,-2.4064417
alexnet,1,412,NaN,bicycle,truck,64-3-10,0412_eid_dnn_64-3-10_truck_10_n04467665_4492.png,n04467665_4492.png,0.0,-0.06758562,3.0363476,-2.1948123
alexnet,1,413,NaN,elephant,bottle,128-3-10,0413_eid_dnn_128-3-10_bottle_10_n03983396_5148.png,n03983396_5148.png,0.0,-0.64828545,2.397497,-2.1536934
alexnet,1,414,NaN,oven,clock,128-3-10,0414_eid_dnn_128-3-10_clock_10_n04548280_4364.png,n04548280_4364.png,0.0,0.00854523,2.3881617,-1.6826429
alexnet,1,415,NaN,cat,cat,1-3-10,0415_eid_dnn_1-3-10_cat_10_n02123394_6792.png,n02123394_6792.png,1.0,5.909652,3.073611,2.005384
alexnet,1,416,NaN,bear,oven,16-3-10,0416_eid_dnn_16-3-10_oven_10_n04111531_1298.png,n04111531_1298.png,0.0,3.6338303,4.782894,-0.81251085
alexnet,1,417,NaN,bottle,clock,8-3-10,0417_eid_dnn_8-3-10_clock_10_n04548280_2334.png,n04548280_2334.png,0.0,3.0184116,5.203179,-1.5448638
alexnet,1,418,NaN,oven,car,32-3-10,0418_eid_dnn_32-3-10_car_10_n04285008_15570.png,n04285008_15570.png,0.0,-3.2054608,3.5796824,-4.7978206
alexnet,1,419,NaN,elephant,dog,32-3-10,0419_eid_dnn_32-3-10_dog_10_n02087394_7569.png,n02087394_7569.png,0.0,0.74193805,1.9878689,-0.8810062
alexnet,1,420,NaN,dog,clock,32-3-10,0420_eid_dnn_32-3-10_clock_10_n03196217_11445.png,n03196217_11445.png,0.0,1.2148576,1.5258982,-0.21993895
alexnet,1,421,NaN,bear,chair,32-3-10,0421_eid_dnn_32-3-10_chair_10_n04099969_3095.png,n04099969_3095.png,0.0,1.2662466,3.6517932,-1.6868362
alexnet,1,422,NaN,elephant,bird,64-3-10,0422_eid_dnn_64-3-10_bird_10_n01601694_935.png,n01601694_935.png,0.0,-0.3649895,2.696816,-2.1650236
alexnet,1,423,NaN,cat,bird,2-3-10,0423_eid_dnn_2-3-10_bird_10_n01592084_3570.png,n01592084_3570.png,0.0,-1.0257788,2.6877816,-2.6258838
alexnet,1,424,NaN,cat,dog,64-3-10,0424_eid_dnn_64-3-10_dog_10_n02090379_605.png,n02090379_605.png,0.0,2.2637572,2.4708688,-0.14645001
alexnet,1,425,NaN,airplane,airplane,1-3-10,0425_eid_dnn_1-3-10_airplane_10_n02690373_3912.png,n02690373_3912.png,1.0,17.738438,4.837037,9.122668
alexnet,1,426,NaN,cat,oven,128-3-10,0426_eid_dnn_128-3-10_oven_10_n04111531_986.png,n04111531_986.png,0.0,-3.5494401,3.0258331,-4.6494207
alexnet,1,427,NaN,cat,knife,32-3-10,0427_eid_dnn_32-3-10_knife_10_n03041632_23736.png,n03041632_23736.png,0.0,-0.47720563,3.5617774,-2.8559923
alexnet,1,428,NaN,knife,clock,4-3-10,0428_eid_dnn_4-3-10_clock_10_n04548280_10686.png,n04548280_10686.png,0.0,5.2034354,7.1478753,-1.3749267
alexnet,1,429,NaN,oven,oven,32-3-10,0429_eid_dnn_32-3-10_oven_10_n04111531_21460.png,n04111531_21460.png,1.0,3.367435,2.7481747,0.43788317
alexnet,1,430,NaN,oven,bottle,32-3-10,0430_eid_dnn_32-3-10_bottle_10_n04557648_3675.png,n04557648_3675.png,0.0,-0.45564142,2.3028727,-1.9505641
alexnet,1,431,NaN,bottle,chair,8-3-10,0431_eid_dnn_8-3-10_chair_10_n02791124_495.png,n02791124_495.png,0.0,1.4556774,3.0740101,-1.1443341
alexnet,1,432,NaN,cat,chair,128-3-10,0432_eid_dnn_128-3-10_chair_10_n04429376_9165.png,n04429376_9165.png,0.0,-0.94636804,2.842532,-2.6791568
alexnet,1,433,NaN,clock,clock,1-3-10,0433_eid_dnn_1-3-10_clock_10_n04548280_2937.png,n04548280_2937.png,1.0,7.3947167,1.8320221,3.933419
alexnet,1,434,NaN,oven,bear,32-3-10,0434_eid_dnn_32-3-10_bear_10_n02134418_5849.png,n02134418_5849.png,0.0,0.6245724,1.8136756,-0.840823
alexnet,1,435,NaN,cat,bottle,128-3-10,0435_eid_dnn_128-3-10_bottle_10_n04560804_2521.png,n04560804_2521.png,0.0,0.2873467,2.5565767,-1.604588
alexnet,1,436,NaN,cat,car,8-3-10,0436_eid_dnn_8-3-10_car_10_n04285008_11600.png,n04285008_11600.png,0.0,-0.857249,2.4723737,-2.354399
alexnet,1,437,NaN,knife,knife,2-3-10,0437_eid_dnn_2-3-10_knife_10_n03041632_79317.png,n03041632_79317.png,1.0,8.496861,2.4715874,4.2605124
alexnet,1,438,NaN,dog,truck,32-3-10,0438_eid_dnn_32-3-10_truck_10_n03417042_6467.png,n03417042_6467.png,0.0,-0.5848802,3.05999,-2.5773125
alexnet,1,439,NaN,bottle,airplane,64-3-10,0439_eid_dnn_64-3-10_airplane_10_n02690373_303.png,n02690373_303.png,0.0,-1.3971728,2.3345218,-2.6387067
alexnet,1,440,NaN,bear,chair,64-3-10,0440_eid_dnn_64-3-10_chair_10_n04099969_2354.png,n04099969_2354.png,0.0,0.18392383,3.0832472,-2.0501313
alexnet,1,441,NaN,cat,clock,128-3-10,0441_eid_dnn_128-3-10_clock_10_n04548280_377.png,n04548280_377.png,0.0,0.20252411,2.5165622,-1.6362721
alexnet,1,442,NaN,dog,bicycle,32-3-10,0442_eid_dnn_32-3-10_bicycle_10_n03792782_11597.png,n03792782_11597.png,0.0,1.1019917,1.8209807,-0.508402
alexnet,1,443,NaN,bottle,bottle,2-3-10,0443_eid_dnn_2-3-10_bottle_10_n04579145_215.png,n04579145_215.png,1.0,5.096855,3.8778338,0.86197823
alexnet,1,444,NaN,car,car,4-3-10,0444_eid_dnn_4-3-10_car_10_n02814533_95669.png,n02814533_95669.png,1.0,7.6531982,6.474282,0.83361983
alexnet,1,445,NaN,bear,chair,32-3-10,0445_eid_dnn_32-3-10_chair_10_n04429376_51025.png,n04429376_51025.png,0.0,1.8246472,3.4788952,-1.16973
alexnet,1,446,NaN,cat,cat,4-3-10,0446_eid_dnn_4-3-10_cat_10_n02123045_2757.png,n02123045_2757.png,1.0,9.415549,3.108287,4.459908
alexnet,1,447,NaN,bottle,bottle,4-3-10,0447_eid_dnn_4-3-10_bottle_10_n03937543_2135.png,n03937543_2135.png,1.0,3.849278,3.0597181,0.5583031
alexnet,1,448,NaN,dog,bird,2-3-10,0448_eid_dnn_2-3-10_bird_10_n01855032_7457.png,n01855032_7457.png,0.0,2.1558676,3.7464924,-1.1247416
alexnet,1,449,NaN,bear,car,16-3-10,0449_eid_dnn_16-3-10_car_10_n02814533_24935.png,n02814533_24935.png,0.0,-2.8931618,3.412993,-4.459125
alexnet,1,450,NaN,keyboard,keyboard,4-3-10,0450_eid_dnn_4-3-10_keyboard_10_n04505470_1371.png,n04505470_1371.png,1.0,5.4185114,5.1441903,0.1939743
alexnet,1,451,NaN,oven,dog,16-3-10,0451_eid_dnn_16-3-10_dog_10_n02099267_2379.png,n02099267_2379.png,0.0,2.0225227,2.90577,-0.6245502
alexnet,1,452,NaN,cat,cat,8-3-10,0452_eid_dnn_8-3-10_cat_10_n02123394_8009.png,n02123394_8009.png,1.0,4.8107367,2.4097793,1.6977333
alexnet,1,453,NaN,keyboard,keyboard,2-3-10,0453_eid_dnn_2-3-10_keyboard_10_n03085013_29042.png,n03085013_29042.png,1.0,9.972538,7.857581,1.4955003
alexnet,1,454,NaN,elephant,airplane,128-3-10,0454_eid_dnn_128-3-10_airplane_10_n02690373_2131.png,n02690373_2131.png,0.0,-1.3531346,2.2438815,-2.5434744
alexnet,1,455,NaN,cat,car,8-3-10,0455_eid_dnn_8-3-10_car_10_n03100240_327.png,n03100240_327.png,0.0,0.8711621,2.7075403,-1.2985154
alexnet,1,456,NaN,elephant,elephant,2-3-10,0456_eid_dnn_2-3-10_elephant_10_n02504458_4163.png,n02504458_4163.png,1.0,10.964687,5.7451224,3.6907897
alexnet,1,457,NaN,knife,knife,1-3-10,0457_eid_dnn_1-3-10_knife_10_n03041632_9635.png,n03041632_9635.png,1.0,3.4864259,2.742756,0.5258541
alexnet,1,458,NaN,clock,airplane,16-3-10,0458_eid_dnn_16-3-10_airplane_10_n02690373_1044.png,n02690373_1044.png,0.0,0.4738964,2.3421772,-1.321074
alexnet,1,459,NaN,oven,bottle,16-3-10,0459_eid_dnn_16-3-10_bottle_10_n04560804_5441.png,n04560804_5441.png,0.0,0.29178613,1.8290114,-1.0869824
alexnet,1,460,NaN,cat,cat,8-3-10,0460_eid_dnn_8-3-10_cat_10_n02123159_988.png,n02123159_988.png,1.0,2.7881765,1.4517378,0.94500494
alexnet,1,461,NaN,dog,bird,64-3-10,0461_eid_dnn_64-3-10_bird_10_n01843383_4667.png,n01843383_4667.png,0.0,-0.44532716,2.6234887,-2.1699805
alexnet,1,462,NaN,airplane,airplane,2-3-10,0462_eid_dnn_2-3-10_airplane_10_n02690373_6978.png,n02690373_6978.png,1.0,13.663424,5.727557,5.611505
alexnet,1,463,NaN,cat,chair,128-3-10,0463_eid_dnn_128-3-10_chair_10_n04099969_5901.png,n04099969_5901.png,0.0,-1.6703792,1.8153907,-2.4648116
alexnet,1,464,NaN,elephant,truck,8-3-10,0464_eid_dnn_8-3-10_truck_10_n03417042_29849.png,n03417042_29849.png,0.0,2.8879719,4.4156246,-1.0802137
alexnet,1,465,NaN,airplane,airplane,1-3-10,0465_eid_dnn_1-3-10_airplane_10_n02690373_427.png,n02690373_427.png,1.0,9.272455,3.9365454,3.7730582
alexnet,1,466,NaN,bottle,bottle,4-3-10,0466_eid_dnn_4-3-10_bottle_10_n03983396_2305.png,n03983396_2305.png,1.0,7.2657285,4.866994,1.6961615
alexnet,1,467,NaN,dog,oven,64-3-10,0467_eid_dnn_64-3-10_oven_10_n04111531_15296.png,n04111531_15296.png,0.0,0.5898006,1.3326379,-0.52526534
alexnet,1,468,NaN,cat,cat,4-3-10,0468_eid_dnn_4-3-10_cat_10_n02123159_6728.png,n02123159_6728.png,1.0,3.327844,2.9602795,0.2599073
alexnet,1,469,NaN,elephant,elephant,4-3-10,0469_eid_dnn_4-3-10_elephant_10_n02504458_12449.png,n02504458_12449.png,1.0,7.9737973,5.788262,1.5454069
alexnet,1,470,NaN,elephant,elephant,128-3-10,0470_eid_dnn_128-3-10_elephant_10_n02504458_12165.png,n02504458_12165.png,1.0,3.179752,2.5684621,0.4322473
alexnet,1,471,NaN,boat,airplane,8-3-10,0471_eid_dnn_8-3-10_airplane_10_n02690373_5010.png,n02690373_5010.png,0.0,1.2724459,3.4571834,-1.5448427
alexnet,1,472,NaN,elephant,dog,64-3-10,0472_eid_dnn_64-3-10_dog_10_n02100236_4549.png,n02100236_4549.png,0.0,0.60689825,2.451113,-1.3040568
alexnet,1,473,NaN,boat,boat,4-3-10,0473_eid_dnn_4-3-10_boat_10_n03344393_4289.png,n03344393_4289.png,1.0,6.897938,5.1869335,1.2098627
alexnet,1,474,NaN,oven,chair,64-3-10,0474_eid_dnn_64-3-10_chair_10_n04099969_48169.png,n04099969_48169.png,0.0,1.31966,2.6981404,-0.9747329
alexnet,1,475,NaN,airplane,airplane,4-3-10,0475_eid_dnn_4-3-10_airplane_10_n02690373_1996.png,n02690373_1996.png,1.0,11.585073,3.6781535,5.591037
alexnet,1,476,NaN,cat,truck,128-3-10,0476_eid_dnn_128-3-10_truck_10_n03417042_28078.png,n03417042_28078.png,0.0,-1.5014439,2.1591823,-2.5884535
alexnet,1,477,NaN,truck,truck,8-3-10,0477_eid_dnn_8-3-10_truck_10_n04467665_3098.png,n04467665_3098.png,1.0,3.2567368,2.4082074,0.60000086
alexnet,1,478,NaN,elephant,elephant,4-3-10,0478_eid_dnn_4-3-10_elephant_10_n02504458_847.png,n02504458_847.png,1.0,10.527059,7.9846926,1.7977242
alexnet,1,479,NaN,dog,bicycle,8-3-10,0479_eid_dnn_8-3-10_bicycle_10_n03792782_5880.png,n03792782_5880.png,0.0,-1.6352336,2.794386,-3.1322143
alexnet,1,480,NaN,cat,bear,128-3-10,0480_eid_dnn_128-3-10_bear_10_n02132136_30976.png,n02132136_30976.png,0.0,1.0751104,1.4823503,-0.2879621
alexnet,1,481,NaN,elephant,chair,64-3-10,0481_eid_dnn_64-3-10_chair_10_n02791124_2057.png,n02791124_2057.png,0.0,0.9746723,2.745872,-1.2524273
alexnet,1,482,NaN,cat,keyboard,128-3-10,0482_eid_dnn_128-3-10_keyboard_10_n03085013_7286.png,n03085013_7286.png,0.0,-2.9149413,3.7517805,-4.714084
alexnet,1,483,NaN,bear,clock,32-3-10,0483_eid_dnn_32-3-10_clock_10_n04548280_1323.png,n04548280_1323.png,0.0,0.5061491,1.9563116,-1.0254197
alexnet,1,484,NaN,cat,bottle,128-3-10,0484_eid_dnn_128-3-10_bottle_10_n03983396_18508.png,n03983396_18508.png,0.0,0.77067435,2.483583,-1.2112093
alexnet,1,485,NaN,cat,bottle,8-3-10,0485_eid_dnn_8-3-10_bottle_10_n03983396_3880.png,n03983396_3880.png,0.0,1.2365206,3.8052614,-1.8163741
alexnet,1,486,NaN,cat,dog,128-3-10,0486_eid_dnn_128-3-10_dog_10_n02095570_601.png,n02095570_601.png,0.0,1.1558464,1.3192385,-0.11553572
alexnet,1,487,NaN,cat,bird,32-3-10,0487_eid_dnn_32-3-10_bird_10_n01797886_21510.png,n01797886_21510.png,0.0,-0.75686413,2.4650311,-2.278224
alexnet,1,488,NaN,chair,chair,1-3-10,0488_eid_dnn_1-3-10_chair_10_n04099969_9425.png,n04099969_9425.png,1.0,6.828943,5.8313107,0.70543236
alexnet,1,489,NaN,cat,keyboard,8-3-10,0489_eid_dnn_8-3-10_keyboard_10_n04505470_4228.png,n04505470_4228.png,0.0,0.16114533,1.991867,-1.2945157
alexnet,1,490,NaN,oven,elephant,32-3-10,0490_eid_dnn_32-3-10_elephant_10_n02504013_7553.png,n02504013_7553.png,0.0,0.2782926,2.2864754,-1.4199997
alexnet,1,491,NaN,oven,cat,64-3-10,0491_eid_dnn_64-3-10_cat_10_n02125311_8090.png,n02125311_8090.png,0.0,-0.2582896,2.4058528,-1.8838332
alexnet,1,492,NaN,cat,keyboard,8-3-10,0492_eid_dnn_8-3-10_keyboard_10_n04505470_10041.png,n04505470_10041.png,0.0,-0.04697755,3.4098184,-2.4443238
alexnet,1,493,NaN,bicycle,bicycle,4-3-10,0493_eid_dnn_4-3-10_bicycle_10_n03792782_1833.png,n03792782_1833.png,1.0,3.4164472,2.4786549,0.6631193
alexnet,1,494,NaN,oven,bottle,4-3-10,0494_eid_dnn_4-3-10_bottle_10_n04557648_11642.png,n04557648_11642.png,0.0,3.049635,3.5423133,-0.34837624
alexnet,1,495,NaN,cat,car,128-3-10,0495_eid_dnn_128-3-10_car_10_n03100240_7219.png,n03100240_7219.png,0.0,-2.8170302,2.6083584,-3.836329
alexnet,1,496,NaN,truck,truck,1-3-10,0496_eid_dnn_1-3-10_truck_10_n03796401_9642.png,n03796401_9642.png,1.0,12.8964405,11.34241,1.0988655
alexnet,1,497,NaN,bear,cat,1-3-10,0497_eid_dnn_1-3-10_cat_10_n02125311_13348.png,n02125311_13348.png,0.0,1.4404649,4.0766273,-1.8640482
alexnet,1,498,NaN,bicycle,bottle,128-3-10,0498_eid_dnn_128-3-10_bottle_10_n04560804_5540.png,n04560804_5540.png,0.0,-0.12071629,3.4801111,-2.5461695
alexnet,1,499,NaN,bottle,bottle,4-3-10,0499_eid_dnn_4-3-10_bottle_10_n03983396_9604.png,n03983396_9604.png,1.0,6.585974,3.132625,2.4418867
alexnet,1,500,NaN,oven,truck,32-3-10,0500_eid_dnn_32-3-10_truck_10_n03417042_5180.png,n03417042_5180.png,0.0,1.1553943,1.8613305,-0.49917227
alexnet,1,501,NaN,cat,dog,16-3-10,0501_eid_dnn_16-3-10_dog_10_n02109525_3364.png,n02109525_3364.png,0.0,2.3848286,3.9201915,-1.0856656
alexnet,1,502,NaN,bottle,clock,2-3-10,0502_eid_dnn_2-3-10_clock_10_n04548280_353.png,n04548280_353.png,0.0,4.515309,6.120243,-1.1348599
alexnet,1,503,NaN,dog,dog,1-3-10,0503_eid_dnn_1-3-10_dog_10_n02111129_4423.png,n02111129_4423.png,1.0,4.1162224,3.4776409,0.45154533
alexnet,1,504,NaN,bear,dog,16-3-10,0504_eid_dnn_16-3-10_dog_10_n02108000_1538.png,n02108000_1538.png,0.0,1.590068,4.111715,-1.7830737
alexnet,1,505,NaN,cat,keyboard,16-3-10,0505_eid_dnn_16-3-10_keyboard_10_n03085013_3439.png,n03085013_3439.png,0.0,-1.8900716,3.8711197,-4.0737777
alexnet,1,506,NaN,truck,truck,8-3-10,0506_eid_dnn_8-3-10_truck_10_n03417042_4016.png,n03417042_4016.png,1.0,3.2338886,2.6299348,0.42705986
alexnet,1,507,NaN,oven,knife,32-3-10,0507_eid_dnn_32-3-10_knife_10_n03041632_39883.png,n03041632_39883.png,0.0,0.32379416,3.8638792,-2.5032182
alexnet,1,508,NaN,oven,bear,16-3-10,0508_eid_dnn_16-3-10_bear_10_n02132136_21181.png,n02132136_21181.png,0.0,2.9699101,3.2507472,-0.19858178
alexnet,1,509,NaN,elephant,elephant,8-3-10,0509_eid_dnn_8-3-10_elephant_10_n02504013_718.png,n02504013_718.png,1.0,5.3786736,3.4634318,1.3542805
alexnet,1,510,NaN,oven,oven,2-3-10,0510_eid_dnn_2-3-10_oven_10_n04111531_4146.png,n04111531_4146.png,1.0,11.953561,6.7843056,3.6552155
alexnet,1,511,NaN,airplane,airplane,8-3-10,0511_eid_dnn_8-3-10_airplane_10_n02690373_10769.png,n02690373_10769.png,1.0,7.109776,2.2983654,3.4021814
alexnet,1,512,NaN,dog,dog,16-3-10,0512_eid_dnn_16-3-10_dog_10_n02109525_4516.png,n02109525_4516.png,1.0,4.518345,3.4132433,0.7814248
alexnet,1,513,NaN,bear,boat,4-3-10,0513_eid_dnn_4-3-10_boat_10_n02951358_12333.png,n02951358_12333.png,0.0,1.9705051,2.562462,-0.4185768
alexnet,1,514,NaN,cat,chair,8-3-10,0514_eid_dnn_8-3-10_chair_10_n04099969_20421.png,n04099969_20421.png,0.0,-0.3672098,2.9341385,-2.3344057
alexnet,1,515,NaN,knife,knife,4-3-10,0515_eid_dnn_4-3-10_knife_10_n03041632_21165.png,n03041632_21165.png,1.0,2.6483123,1.4093424,0.876084
alexnet,1,516,NaN,keyboard,bicycle,1-3-10,0516_eid_dnn_1-3-10_bicycle_10_n02835271_21439.png,n02835271_21439.png,0.0,4.4606533,5.2891583,-0.58584154
alexnet,1,517,NaN,boat,boat,1-3-10,0517_eid_dnn_1-3-10_boat_10_n04273569_24526.png,n04273569_24526.png,1.0,7.1444182,6.3175297,0.5846985
alexnet,1,518,NaN,dog,bottle,32-3-10,0518_eid_dnn_32-3-10_bottle_10_n04579145_2276.png,n04579145_2276.png,0.0,-0.34061688,3.554633,-2.7543576
alexnet,1,519,NaN,cat,bear,8-3-10,0519_eid_dnn_8-3-10_bear_10_n02134418_1642.png,n02134418_1642.png,0.0,2.526683,3.6284754,-0.77908486
alexnet,1,520,NaN,bicycle,bicycle,1-3-10,0520_eid_dnn_1-3-10_bicycle_10_n02835271_15468.png,n02835271_15468.png,1.0,12.947632,2.7396505,7.218133
alexnet,1,521,NaN,elephant,keyboard,64-3-10,0521_eid_dnn_64-3-10_keyboard_10_n03085013_26532.png,n03085013_26532.png,0.0,-3.3440418,2.8598077,-4.3867846
alexnet,1,522,NaN,cat,clock,64-3-10,0522_eid_dnn_64-3-10_clock_10_n03196217_6809.png,n03196217_6809.png,0.0,0.62621325,2.5494545,-1.3599368
alexnet,1,523,NaN,elephant,bear,64-3-10,0523_eid_dnn_64-3-10_bear_10_n02134418_4384.png,n02134418_4384.png,0.0,1.7108928,2.4933743,-0.553298
alexnet,1,524,NaN,dog,dog,4-3-10,0524_eid_dnn_4-3-10_dog_10_n02086240_1183.png,n02086240_1183.png,1.0,5.1665683,2.8775024,1.618614
alexnet,1,525,NaN,chair,chair,1-3-10,0525_eid_dnn_1-3-10_chair_10_n04429376_294.png,n04429376_294.png,1.0,2.7432885,2.4555361,0.20347168
alexnet,1,526,NaN,cat,clock,64-3-10,0526_eid_dnn_64-3-10_clock_10_n02708093_4893.png,n02708093_4893.png,0.0,1.011315,2.086791,-0.7604764
alexnet,1,527,NaN,oven,keyboard,64-3-10,0527_eid_dnn_64-3-10_keyboard_10_n03085013_3098.png,n03085013_3098.png,0.0,-4.751621,1.6440585,-4.5224285
alexnet,1,528,NaN,oven,cat,16-3-10,0528_eid_dnn_16-3-10_cat_10_n02125311_22073.png,n02125311_22073.png,0.0,0.29829925,2.6937091,-1.6938106
alexnet,1,529,NaN,knife,bird,2-3-10,0529_eid_dnn_2-3-10_bird_10_n01558993_869.png,n01558993_869.png,0.0,-1.2617772,1.4826615,-1.9406112
alexnet,1,530,NaN,elephant,bird,1-3-10,0530_eid_dnn_1-3-10_bird_10_n01817953_8025.png,n01817953_8025.png,0.0,3.4052715,3.4881299,-0.058589682
alexnet,1,531,NaN,oven,chair,2-3-10,0531_eid_dnn_2-3-10_chair_10_n04099969_24235.png,n04099969_24235.png,0.0,1.7884187,2.4921105,-0.49758527
alexnet,1,532,NaN,dog,knife,128-3-10,0532_eid_dnn_128-3-10_knife_10_n03041632_1201.png,n03041632_1201.png,0.0,-2.0805426,2.784941,-3.4404163
alexnet,1,533,NaN,oven,bicycle,4-3-10,0533_eid_dnn_4-3-10_bicycle_10_n03792782_16212.png,n03792782_16212.png,0.0,1.4363899,2.2095082,-0.5466772
alexnet,1,534,NaN,oven,oven,4-3-10,0534_eid_dnn_4-3-10_oven_10_n04111531_11655.png,n04111531_11655.png,1.0,5.4463983,4.0313206,1.0006111
alexnet,1,535,NaN,bear,bicycle,16-3-10,0535_eid_dnn_16-3-10_bicycle_10_n02835271_5152.png,n02835271_5152.png,0.0,-0.5252106,3.4310646,-2.7975092
alexnet,1,536,NaN,cat,bear,16-3-10,0536_eid_dnn_16-3-10_bear_10_n02132136_19290.png,n02132136_19290.png,0.0,1.7051846,1.7670609,-0.04375315
alexnet,1,537,NaN,oven,car,32-3-10,0537_eid_dnn_32-3-10_car_10_n03100240_6103.png,n03100240_6103.png,0.0,-2.4042604,3.7518845,-4.353052
alexnet,1,538,NaN,boat,airplane,16-3-10,0538_eid_dnn_16-3-10_airplane_10_n02690373_5714.png,n02690373_5714.png,0.0,0.8311196,2.2384982,-0.995167
alexnet,1,539,NaN,clock,chair,1-3-10,0539_eid_dnn_1-3-10_chair_10_n04429376_2915.png,n04429376_2915.png,0.0,2.87143,4.7337995,-1.3168942
alexnet,1,540,NaN,clock,clock,64-3-10,0540_eid_dnn_64-3-10_clock_10_n02708093_7827.png,n02708093_7827.png,1.0,1.563694,1.2929732,0.19142854
alexnet,1,541,NaN,truck,truck,2-3-10,0541_eid_dnn_2-3-10_truck_10_n03417042_6247.png,n03417042_6247.png,1.0,6.7338347,5.150174,1.1198171
alexnet,1,542,NaN,oven,elephant,32-3-10,0542_eid_dnn_32-3-10_elephant_10_n02504013_947.png,n02504013_947.png,0.0,1.3728564,2.1695745,-0.5633648
alexnet,1,543,NaN,truck,truck,1-3-10,0543_eid_dnn_1-3-10_truck_10_n03417042_2074.png,n03417042_2074.png,1.0,9.560206,6.402455,2.2328675
alexnet,1,544,NaN,airplane,airplane,8-3-10,0544_eid_dnn_8-3-10_airplane_10_n02690373_5221.png,n02690373_5221.png,1.0,4.405025,3.1599624,0.8803922
alexnet,1,545,NaN,knife,oven,4-3-10,0545_eid_dnn_4-3-10_oven_10_n04111531_6629.png,n04111531_6629.png,0.0,-1.5383528,3.6581028,-3.674449
alexnet,1,546,NaN,knife,knife,1-3-10,0546_eid_dnn_1-3-10_knife_10_n03041632_36277.png,n03041632_36277.png,1.0,8.902824,4.3535447,3.2168267
alexnet,1,547,NaN,dog,cat,64-3-10,0547_eid_dnn_64-3-10_cat_10_n02123597_4700.png,n02123597_4700.png,0.0,1.9720608,2.406023,-0.30685765
alexnet,1,548,NaN,airplane,airplane,16-3-10,0548_eid_dnn_16-3-10_airplane_10_n02690373_20042.png,n02690373_20042.png,1.0,2.0522418,2.0234957,0.020326583
alexnet,1,549,NaN,oven,chair,32-3-10,0549_eid_dnn_32-3-10_chair_10_n02791124_15539.png,n02791124_15539.png,0.0,-1.1412971,2.777028,-2.7706745
alexnet,1,550,NaN,cat,cat,1-3-10,0550_eid_dnn_1-3-10_cat_10_n02123394_5700.png,n02123394_5700.png,1.0,4.0076184,3.629632,0.26727676
alexnet,1,551,NaN,car,car,4-3-10,0551_eid_dnn_4-3-10_car_10_n04285008_13595.png,n04285008_13595.png,1.0,3.2918522,3.128515,0.11549687
alexnet,1,552,NaN,cat,chair,8-3-10,0552_eid_dnn_8-3-10_chair_10_n02791124_2282.png,n02791124_2282.png,0.0,-0.06462562,2.9577112,-2.137115
alexnet,1,553,NaN,bear,dog,2-3-10,0553_eid_dnn_2-3-10_dog_10_n02100877_3973.png,n02100877_3973.png,0.0,3.3447385,3.9643004,-0.43809643
alexnet,1,554,NaN,elephant,truck,64-3-10,0554_eid_dnn_64-3-10_truck_10_n03417042_12297.png,n03417042_12297.png,0.0,0.23255357,2.3256352,-1.4800323
alexnet,1,555,NaN,cat,elephant,8-3-10,0555_eid_dnn_8-3-10_elephant_10_n02504013_6303.png,n02504013_6303.png,0.0,-0.6318816,5.413814,-4.2749524
alexnet,1,556,NaN,cat,car,8-3-10,0556_eid_dnn_8-3-10_car_10_n02814533_43990.png,n02814533_43990.png,0.0,1.1686012,3.1311944,-1.387763
alexnet,1,557,NaN,bear,truck,16-3-10,0557_eid_dnn_16-3-10_truck_10_n04467665_58456.png,n04467665_58456.png,0.0,-1.5968279,4.356155,-4.2093945
alexnet,1,558,NaN,cat,dog,4-3-10,0558_eid_dnn_4-3-10_dog_10_n02098105_526.png,n02098105_526.png,0.0,2.8003342,3.0388882,-0.16868316
alexnet,1,559,NaN,bicycle,bird,2-3-10,0559_eid_dnn_2-3-10_bird_10_n02037110_27907.png,n02037110_27907.png,0.0,0.7144379,2.7588055,-1.4455862
alexnet,1,560,NaN,dog,keyboard,64-3-10,0560_eid_dnn_64-3-10_keyboard_10_n03085013_20849.png,n03085013_20849.png,0.0,-2.5246453,1.9356912,-3.1539345
alexnet,1,561,NaN,chair,chair,1-3-10,0561_eid_dnn_1-3-10_chair_10_n03376595_12524.png,n03376595_12524.png,1.0,9.027327,3.5506406,3.872602
alexnet,1,562,NaN,cat,bird,64-3-10,0562_eid_dnn_64-3-10_bird_10_n02056570_27055.png,n02056570_27055.png,0.0,-0.73806405,1.9320034,-1.8880228
alexnet,1,563,NaN,cat,truck,64-3-10,0563_eid_dnn_64-3-10_truck_10_n03417042_4934.png,n03417042_4934.png,0.0,0.08446315,2.3792312,-1.6226461
alexnet,1,564,NaN,cat,knife,16-3-10,0564_eid_dnn_16-3-10_knife_10_n03041632_3210.png,n03041632_3210.png,0.0,1.9813973,2.131729,-0.10630051
alexnet,1,565,NaN,cat,dog,8-3-10,0565_eid_dnn_8-3-10_dog_10_n02096585_2118.png,n02096585_2118.png,0.0,1.8754346,2.870719,-0.7037723
alexnet,1,566,NaN,keyboard,keyboard,1-3-10,0566_eid_dnn_1-3-10_keyboard_10_n03085013_3539.png,n03085013_3539.png,1.0,16.498215,4.4048963,8.551268
alexnet,1,567,NaN,truck,truck,4-3-10,0567_eid_dnn_4-3-10_truck_10_n03417042_17215.png,n03417042_17215.png,1.0,4.6325817,2.2498817,1.6848233
alexnet,1,568,NaN,cat,cat,8-3-10,0568_eid_dnn_8-3-10_cat_10_n02123045_12657.png,n02123045_12657.png,1.0,4.481218,2.8528101,1.1514581
alexnet,1,569,NaN,oven,knife,64-3-10,0569_eid_dnn_64-3-10_knife_10_n03041632_20576.png,n03041632_20576.png,0.0,0.5136208,2.1353416,-1.1467298
alexnet,1,570,NaN,cat,truck,8-3-10,0570_eid_dnn_8-3-10_truck_10_n04467665_23905.png,n04467665_23905.png,0.0,0.8462639,3.7009017,-2.0185337
alexnet,1,571,NaN,cat,oven,128-3-10,0571_eid_dnn_128-3-10_oven_10_n04111531_9427.png,n04111531_9427.png,0.0,-0.6797485,1.9047403,-1.8275096
alexnet,1,572,NaN,oven,oven,16-3-10,0572_eid_dnn_16-3-10_oven_10_n04111531_14329.png,n04111531_14329.png,1.0,3.6680393,2.3737361,0.91521055
alexnet,1,573,NaN,cat,bird,64-3-10,0573_eid_dnn_64-3-10_bird_10_n01614925_19422.png,n01614925_19422.png,0.0,-1.5901937,2.4775734,-2.8763459
alexnet,1,574,NaN,bicycle,bottle,128-3-10,0574_eid_dnn_128-3-10_bottle_10_n02823428_1154.png,n02823428_1154.png,0.0,-0.68517244,2.6706073,-2.3728945
alexnet,1,575,NaN,dog,dog,4-3-10,0575_eid_dnn_4-3-10_dog_10_n02093859_4797.png,n02093859_4797.png,1.0,4.263936,3.3829231,0.6229702
alexnet,1,576,NaN,airplane,airplane,1-3-10,0576_eid_dnn_1-3-10_airplane_10_n02690373_2632.png,n02690373_2632.png,1.0,11.500759,5.9842377,3.9007697
alexnet,1,577,NaN,bear,keyboard,32-3-10,0577_eid_dnn_32-3-10_keyboard_10_n03085013_15825.png,n03085013_15825.png,0.0,-1.9662924,3.4623785,-3.83865
alexnet,1,578,NaN,car,car,4-3-10,0578_eid_dnn_4-3-10_car_10_n02814533_52674.png,n02814533_52674.png,1.0,5.65958,4.2134933,1.0225378
alexnet,1,579,NaN,oven,truck,32-3-10,0579_eid_dnn_32-3-10_truck_10_n04467665_32937.png,n04467665_32937.png,0.0,0.30536112,2.2044182,-1.3428361
alexnet,1,580,NaN,knife,bird,4-3-10,0580_eid_dnn_4-3-10_bird_10_n01537544_20.png,n01537544_20.png,0.0,-0.11510267,3.0493808,-2.2376277
alexnet,1,581,NaN,dog,clock,8-3-10,0581_eid_dnn_8-3-10_clock_10_n03196217_564.png,n03196217_564.png,0.0,2.4050465,2.5873334,-0.12889636
alexnet,1,582,NaN,keyboard,knife,1-3-10,0582_eid_dnn_1-3-10_knife_10_n03041632_76163.png,n03041632_76163.png,0.0,4.668151,5.025794,-0.2528919
alexnet,1,583,NaN,bicycle,airplane,32-3-10,0583_eid_dnn_32-3-10_airplane_10_n02690373_8559.png,n02690373_8559.png,0.0,-2.890061,2.1336553,-3.5523038
alexnet,1,584,NaN,keyboard,keyboard,2-3-10,0584_eid_dnn_2-3-10_keyboard_10_n04505470_3941.png,n04505470_3941.png,1.0,11.78121,3.7349484,5.689566
alexnet,1,585,NaN,bear,oven,64-3-10,0585_eid_dnn_64-3-10_oven_10_n04111531_9910.png,n04111531_9910.png,0.0,2.1015568,2.6319532,-0.37504694
alexnet,1,586,NaN,elephant,bottle,128-3-10,0586_eid_dnn_128-3-10_bottle_10_n03937543_7191.png,n03937543_7191.png,0.0,-0.10327764,2.386314,-1.7604071
alexnet,1,587,NaN,boat,boat,4-3-10,0587_eid_dnn_4-3-10_boat_10_n03662601_14818.png,n03662601_14818.png,1.0,5.272174,3.4387455,1.2964296
alexnet,1,588,NaN,cat,boat,128-3-10,0588_eid_dnn_128-3-10_boat_10_n02951358_588.png,n02951358_588.png,0.0,-0.7788178,3.3331215,-2.9075804
alexnet,1,589,NaN,bear,bear,1-3-10,0589_eid_dnn_1-3-10_bear_10_n02133161_2851.png,n02133161_2851.png,1.0,10.859638,4.677809,4.3712134
alexnet,1,590,NaN,bottle,chair,2-3-10,0590_eid_dnn_2-3-10_chair_10_n03376595_16212.png,n03376595_16212.png,0.0,5.6237383,5.6524987,-0.020336697
alexnet,1,591,NaN,boat,boat,8-3-10,0591_eid_dnn_8-3-10_boat_10_n04612504_1613.png,n04612504_1613.png,1.0,3.2296386,3.2226133,0.0049675964
alexnet,1,592,NaN,bicycle,chair,128-3-10,0592_eid_dnn_128-3-10_chair_10_n02791124_3198.png,n02791124_3198.png,0.0,-0.020346105,2.7934928,-1.9896847
alexnet,1,593,NaN,cat,knife,16-3-10,0593_eid_dnn_16-3-10_knife_10_n03041632_32785.png,n03041632_32785.png,0.0,1.4183049,3.072607,-1.1697682
alexnet,1,594,NaN,bear,oven,32-3-10,0594_eid_dnn_32-3-10_oven_10_n04111531_22797.png,n04111531_22797.png,0.0,2.617247,2.982451,-0.25823814
alexnet,1,595,NaN,cat,oven,128-3-10,0595_eid_dnn_128-3-10_oven_10_n04111531_5077.png,n04111531_5077.png,0.0,-0.15345609,2.8907979,-2.1526124
alexnet,1,596,NaN,dog,bear,1-3-10,0596_eid_dnn_1-3-10_bear_10_n02134418_2569.png,n02134418_2569.png,0.0,4.9456196,5.1550207,-0.14806896
alexnet,1,597,NaN,car,car,1-3-10,0597_eid_dnn_1-3-10_car_10_n03100240_15284.png,n03100240_15284.png,1.0,7.3791256,5.485997,1.3386439
alexnet,1,598,NaN,keyboard,keyboard,2-3-10,0598_eid_dnn_2-3-10_keyboard_10_n04505470_4791.png,n04505470_4791.png,1.0,11.247455,5.987966,3.7190201
alexnet,1,599,NaN,elephant,bicycle,64-3-10,0599_eid_dnn_64-3-10_bicycle_10_n03792782_551.png,n03792782_551.png,0.0,0.95688975,2.315061,-0.9603722
alexnet,1,600,NaN,bottle,bottle,1-3-10,0600_eid_dnn_1-3-10_bottle_10_n03937543_2999.png,n03937543_2999.png,1.0,4.7979665,4.652632,0.102766834
alexnet,1,601,NaN,boat,airplane,16-3-10,0601_eid_dnn_16-3-10_airplane_10_n02690373_7279.png,n02690373_7279.png,0.0,-0.19222054,2.518413,-1.9167074
alexnet,1,602,NaN,dog,airplane,128-3-10,0602_eid_dnn_128-3-10_airplane_10_n02690373_9312.png,n02690373_9312.png,0.0,-3.8294344,1.8084241,-3.986568
alexnet,1,603,NaN,dog,chair,8-3-10,0603_eid_dnn_8-3-10_chair_10_n04429376_2591.png,n04429376_2591.png,0.0,-1.6142944,3.1632068,-3.3782034
alexnet,1,604,NaN,oven,dog,32-3-10,0604_eid_dnn_32-3-10_dog_10_n02109525_175.png,n02109525_175.png,0.0,0.9559085,1.4248507,-0.33159223
alexnet,1,605,NaN,dog,dog,1-3-10,0605_eid_dnn_1-3-10_dog_10_n02106166_476.png,n02106166_476.png,1.0,3.7997334,2.8596766,0.66472054
alexnet,1,606,NaN,boat,boat,1-3-10,0606_eid_dnn_1-3-10_boat_10_n02951358_1136.png,n02951358_1136.png,1.0,4.4795346,3.08296,0.9875275
alexnet,1,607,NaN,knife,knife,2-3-10,0607_eid_dnn_2-3-10_knife_10_n03041632_3079.png,n03041632_3079.png,1.0,3.3726697,3.1860127,0.1319864
alexnet,1,608,NaN,cat,truck,128-3-10,0608_eid_dnn_128-3-10_truck_10_n03417042_18603.png,n03417042_18603.png,0.0,-1.4708893,1.8106607,-2.3204062
alexnet,1,609,NaN,cat,cat,128-3-10,0609_eid_dnn_128-3-10_cat_10_n02123045_9492.png,n02123045_9492.png,1.0,1.6178619,1.5659121,0.036734015
alexnet,1,610,NaN,oven,boat,64-3-10,0610_eid_dnn_64-3-10_boat_10_n03344393_8642.png,n03344393_8642.png,0.0,0.01793697,2.1493258,-1.5071195
alexnet,1,611,NaN,oven,bird,32-3-10,0611_eid_dnn_32-3-10_bird_10_n02009229_6228.png,n02009229_6228.png,0.0,-0.35472694,2.00066,-1.6655102
alexnet,1,612,NaN,oven,chair,8-3-10,0612_eid_dnn_8-3-10_chair_10_n02791124_13704.png,n02791124_13704.png,0.0,0.51509243,3.5662732,-2.1575108
alexnet,1,613,NaN,bicycle,knife,64-3-10,0613_eid_dnn_64-3-10_knife_10_n03041632_28129.png,n03041632_28129.png,0.0,-0.30598593,2.0328488,-1.653806
alexnet,1,614,NaN,bear,keyboard,32-3-10,0614_eid_dnn_32-3-10_keyboard_10_n04505470_8244.png,n04505470_8244.png,0.0,-1.629632,4.8379784,-4.5732913
alexnet,1,615,NaN,knife,knife,4-3-10,0615_eid_dnn_4-3-10_knife_10_n03041632_30196.png,n03041632_30196.png,1.0,3.9681952,2.7035341,0.89425045
alexnet,1,616,NaN,bicycle,keyboard,32-3-10,0616_eid_dnn_32-3-10_keyboard_10_n04505470_5109.png,n04505470_5109.png,0.0,-4.4381213,1.9380164,-4.5086102
alexnet,1,617,NaN,knife,knife,8-3-10,0617_eid_dnn_8-3-10_knife_10_n03041632_44738.png,n03041632_44738.png,1.0,7.8976374,2.4274116,3.868034
alexnet,1,618,NaN,car,car,1-3-10,0618_eid_dnn_1-3-10_car_10_n02814533_4726.png,n02814533_4726.png,1.0,8.984764,8.059097,0.6545453
alexnet,1,619,NaN,elephant,elephant,2-3-10,0619_eid_dnn_2-3-10_elephant_10_n02504458_13583.png,n02504458_13583.png,1.0,11.7028,7.989779,2.6255023
alexnet,1,620,NaN,boat,boat,1-3-10,0620_eid_dnn_1-3-10_boat_10_n03662601_26396.png,n03662601_26396.png,1.0,11.874507,5.641231,4.407592
alexnet,1,621,NaN,airplane,boat,4-3-10,0621_eid_dnn_4-3-10_boat_10_n04273569_4518.png,n04273569_4518.png,0.0,6.880351,7.8545976,-0.6888963
alexnet,1,622,NaN,cat,bird,16-3-10,0622_eid_dnn_16-3-10_bird_10_n01843383_3274.png,n01843383_3274.png,0.0,-1.6006057,3.952706,-3.9267845
alexnet,1,623,NaN,bear,clock,16-3-10,0623_eid_dnn_16-3-10_clock_10_n02708093_3621.png,n02708093_3621.png,0.0,-0.7364653,5.461929,-4.382927
alexnet,1,624,NaN,cat,boat,16-3-10,0624_eid_dnn_16-3-10_boat_10_n02951358_1360.png,n02951358_1360.png,0.0,0.02298441,3.8326519,-2.6938417
alexnet,1,625,NaN,keyboard,keyboard,4-3-10,0625_eid_dnn_4-3-10_keyboard_10_n03085013_5819.png,n03085013_5819.png,1.0,10.909056,3.9617643,4.912477
alexnet,1,626,NaN,dog,dog,64-3-10,0626_eid_dnn_64-3-10_dog_10_n02087046_15420.png,n02087046_15420.png,1.0,2.6322834,2.3844728,0.17522857
alexnet,1,627,NaN,bottle,bottle,1-3-10,0627_eid_dnn_1-3-10_bottle_10_n03937543_1358.png,n03937543_1358.png,1.0,9.585713,5.1553097,3.1327686
alexnet,1,628,NaN,dog,bottle,16-3-10,0628_eid_dnn_16-3-10_bottle_10_n02823428_12643.png,n02823428_12643.png,0.0,0.07451157,3.6951284,-2.5601628
alexnet,1,629,NaN,keyboard,keyboard,1-3-10,0629_eid_dnn_1-3-10_keyboard_10_n04505470_1245.png,n04505470_1245.png,1.0,15.627343,5.388304,7.2400937
alexnet,1,630,NaN,oven,car,16-3-10,0630_eid_dnn_16-3-10_car_10_n02814533_47325.png,n02814533_47325.png,0.0,-1.8297038,3.4743538,-3.7505352
alexnet,1,631,NaN,oven,car,32-3-10,0631_eid_dnn_32-3-10_car_10_n04285008_4331.png,n04285008_4331.png,0.0,-1.5265837,3.0050735,-3.2043655
alexnet,1,632,NaN,elephant,elephant,1-3-10,0632_eid_dnn_1-3-10_elephant_10_n02504013_2984.png,n02504013_2984.png,1.0,3.8088036,2.1393092,1.1805109
alexnet,1,633,NaN,cat,cat,2-3-10,0633_eid_dnn_2-3-10_cat_10_n02124075_13278.png,n02124075_13278.png,1.0,3.9908183,2.8350067,0.8172822
alexnet,1,634,NaN,oven,truck,16-3-10,0634_eid_dnn_16-3-10_truck_10_n04467665_8189.png,n04467665_8189.png,0.0,0.9264189,3.6700788,-1.9400606
alexnet,1,635,NaN,bottle,bottle,2-3-10,0635_eid_dnn_2-3-10_bottle_10_n02823428_13931.png,n02823428_13931.png,1.0,12.096318,5.4290032,4.714504
alexnet,1,636,NaN,cat,cat,128-3-10,0636_eid_dnn_128-3-10_cat_10_n02124075_12350.png,n02124075_12350.png,1.0,3.153381,1.7499018,0.99240977
alexnet,1,637,NaN,bear,elephant,16-3-10,0637_eid_dnn_16-3-10_elephant_10_n02504013_4590.png,n02504013_4590.png,0.0,3.3818703,3.8138506,-0.30545625
alexnet,1,638,NaN,oven,bird,32-3-10,0638_eid_dnn_32-3-10_bird_10_n01855672_6144.png,n01855672_6144.png,0.0,-1.8867695,2.9140515,-3.3946934
alexnet,1,639,NaN,bicycle,bear,128-3-10,0639_eid_dnn_128-3-10_bear_10_n02132136_15262.png,n02132136_15262.png,0.0,0.32310203,2.2924743,-1.3925565
alexnet,1,640,NaN,elephant,cat,2-3-10,0640_eid_dnn_2-3-10_cat_10_n02125311_15293.png,n02125311_15293.png,0.0,2.4967577,4.8389435,-1.6561755
alexnet,1,641,NaN,bicycle,bicycle,4-3-10,0641_eid_dnn_4-3-10_bicycle_10_n02835271_1487.png,n02835271_1487.png,1.0,4.792988,4.0788074,0.50500184
alexnet,1,642,NaN,dog,dog,4-3-10,0642_eid_dnn_4-3-10_dog_10_n02107574_5896.png,n02107574_5896.png,1.0,4.6143203,2.0860887,1.7877297
alexnet,1,643,NaN,keyboard,keyboard,4-3-10,0643_eid_dnn_4-3-10_keyboard_10_n03085013_15365.png,n03085013_15365.png,1.0,13.929939,6.6880937,5.120758
alexnet,1,644,NaN,oven,truck,32-3-10,0644_eid_dnn_32-3-10_truck_10_n04467665_67927.png,n04467665_67927.png,0.0,1.4726732,4.2688084,-1.9771662
alexnet,1,645,NaN,keyboard,bottle,2-3-10,0645_eid_dnn_2-3-10_bottle_10_n04591713_3085.png,n04591713_3085.png,0.0,4.663013,8.658536,-2.8252614
alexnet,1,646,NaN,knife,clock,4-3-10,0646_eid_dnn_4-3-10_clock_10_n04548280_5096.png,n04548280_5096.png,0.0,0.73012275,3.0072968,-1.6102052
alexnet,1,647,NaN,dog,cat,16-3-10,0647_eid_dnn_16-3-10_cat_10_n02123159_13611.png,n02123159_13611.png,0.0,0.76888925,3.8310564,-2.1652792
alexnet,1,648,NaN,elephant,oven,128-3-10,0648_eid_dnn_128-3-10_oven_10_n04111531_15568.png,n04111531_15568.png,0.0,-0.5754702,1.9912686,-1.8149585
alexnet,1,649,NaN,bear,knife,32-3-10,0649_eid_dnn_32-3-10_knife_10_n03041632_8618.png,n03041632_8618.png,0.0,-0.36625934,2.8215027,-2.2540882
alexnet,1,650,NaN,bottle,oven,4-3-10,0650_eid_dnn_4-3-10_oven_10_n04111531_6445.png,n04111531_6445.png,0.0,2.8835123,5.1853704,-1.6276596
alexnet,1,651,NaN,bicycle,bicycle,128-3-10,0651_eid_dnn_128-3-10_bicycle_10_n03792782_70724.png,n03792782_70724.png,1.0,1.9633489,1.4387616,0.37093922
alexnet,1,652,NaN,oven,knife,32-3-10,0652_eid_dnn_32-3-10_knife_10_n03041632_45326.png,n03041632_45326.png,0.0,2.2395303,2.840242,-0.42476726
alexnet,1,653,NaN,oven,oven,32-3-10,0653_eid_dnn_32-3-10_oven_10_n04111531_7134.png,n04111531_7134.png,1.0,3.3511863,3.0798628,0.19185466
alexnet,1,654,NaN,bear,keyboard,64-3-10,0654_eid_dnn_64-3-10_keyboard_10_n03085013_23828.png,n03085013_23828.png,0.0,-3.219547,3.0193112,-4.411539
alexnet,1,655,NaN,dog,bear,2-3-10,0655_eid_dnn_2-3-10_bear_10_n02134084_7193.png,n02134084_7193.png,0.0,3.5967224,4.0564957,-0.32510883
alexnet,1,656,NaN,clock,clock,8-3-10,0656_eid_dnn_8-3-10_clock_10_n02708093_1431.png,n02708093_1431.png,1.0,3.2551756,2.083584,0.8284403
alexnet,1,657,NaN,oven,airplane,64-3-10,0657_eid_dnn_64-3-10_airplane_10_n02690373_4364.png,n02690373_4364.png,0.0,-0.87567705,2.8412712,-2.6282794
alexnet,1,658,NaN,bicycle,bottle,64-3-10,0658_eid_dnn_64-3-10_bottle_10_n02823428_12997.png,n02823428_12997.png,0.0,0.45391306,2.0290895,-1.1138179
alexnet,1,659,NaN,dog,boat,8-3-10,0659_eid_dnn_8-3-10_boat_10_n02951358_9837.png,n02951358_9837.png,0.0,0.83464384,3.5490403,-1.9193681
alexnet,1,660,NaN,oven,elephant,64-3-10,0660_eid_dnn_64-3-10_elephant_10_n02504013_7746.png,n02504013_7746.png,0.0,1.9831345,2.3656533,-0.27048162
alexnet,1,661,NaN,oven,cat,32-3-10,0661_eid_dnn_32-3-10_cat_10_n02123597_6548.png,n02123597_6548.png,0.0,1.7568916,2.9310784,-0.8302755
alexnet,1,662,NaN,bear,knife,32-3-10,0662_eid_dnn_32-3-10_knife_10_n03041632_30286.png,n03041632_30286.png,0.0,1.8494728,3.7593884,-1.3505144
alexnet,1,663,NaN,bear,bear,16-3-10,0663_eid_dnn_16-3-10_bear_10_n02132136_33437.png,n02132136_33437.png,1.0,1.5462109,1.3124552,0.16529025
alexnet,1,664,NaN,dog,bear,2-3-10,0664_eid_dnn_2-3-10_bear_10_n02134084_14360.png,n02134084_14360.png,0.0,3.2413175,3.338443,-0.068678126
alexnet,1,665,NaN,bear,bottle,32-3-10,0665_eid_dnn_32-3-10_bottle_10_n02823428_13280.png,n02823428_13280.png,0.0,-0.8571911,4.462104,-3.7613096
alexnet,1,666,NaN,cat,boat,32-3-10,0666_eid_dnn_32-3-10_boat_10_n03344393_2142.png,n03344393_2142.png,0.0,-0.35402673,1.9139227,-1.6036824
alexnet,1,667,NaN,oven,bottle,16-3-10,0667_eid_dnn_16-3-10_bottle_10_n04557648_9415.png,n04557648_9415.png,0.0,-0.17341498,3.8827167,-2.8681183
alexnet,1,668,NaN,oven,airplane,32-3-10,0668_eid_dnn_32-3-10_airplane_10_n02690373_2564.png,n02690373_2564.png,0.0,-2.7677236,3.4662473,-4.408083
alexnet,1,669,NaN,dog,dog,128-3-10,0669_eid_dnn_128-3-10_dog_10_n02095889_1087.png,n02095889_1087.png,1.0,2.4008858,1.8940976,0.3583534
alexnet,1,670,NaN,bear,dog,2-3-10,0670_eid_dnn_2-3-10_dog_10_n02092339_3615.png,n02092339_3615.png,0.0,2.0285962,2.4253416,-0.2805414
alexnet,1,671,NaN,bicycle,truck,2-3-10,0671_eid_dnn_2-3-10_truck_10_n03417042_2978.png,n03417042_2978.png,0.0,2.652437,3.0254357,-0.26374993
alexnet,1,672,NaN,bear,bottle,32-3-10,0672_eid_dnn_32-3-10_bottle_10_n04557648_3768.png,n04557648_3768.png,0.0,0.49310154,2.6490722,-1.5245014
alexnet,1,673,NaN,cat,boat,64-3-10,0673_eid_dnn_64-3-10_boat_10_n04273569_5901.png,n04273569_5901.png,0.0,-0.8367869,3.6446114,-3.168827
alexnet,1,674,NaN,car,car,8-3-10,0674_eid_dnn_8-3-10_car_10_n02814533_3573.png,n02814533_3573.png,1.0,4.818716,4.0477114,0.54518265
alexnet,1,675,NaN,truck,truck,4-3-10,0675_eid_dnn_4-3-10_truck_10_n04467665_1840.png,n04467665_1840.png,1.0,6.6995955,3.9390285,1.9520156
alexnet,1,676,NaN,boat,bird,8-3-10,0676_eid_dnn_8-3-10_bird_10_n02028035_7406.png,n02028035_7406.png,0.0,-0.07185787,2.8374627,-2.0572004
alexnet,1,677,NaN,clock,clock,16-3-10,0677_eid_dnn_16-3-10_clock_10_n04548280_575.png,n04548280_575.png,1.0,2.1373982,2.0701702,0.04753743
alexnet,1,678,NaN,bottle,bottle,1-3-10,0678_eid_dnn_1-3-10_bottle_10_n04560804_9169.png,n04560804_9169.png,1.0,6.004624,5.9783306,0.018592155
alexnet,1,679,NaN,elephant,cat,2-3-10,0679_eid_dnn_2-3-10_cat_10_n02125311_22949.png,n02125311_22949.png,0.0,2.8000548,6.0960627,-2.3306296
alexnet,1,680,NaN,bear,elephant,8-3-10,0680_eid_dnn_8-3-10_elephant_10_n02504013_848.png,n02504013_848.png,0.0,3.5702846,3.632083,-0.04369802
alexnet,1,681,NaN,bear,bicycle,16-3-10,0681_eid_dnn_16-3-10_bicycle_10_n02835271_1974.png,n02835271_1974.png,0.0,0.2675092,6.075846,-4.107115
alexnet,1,682,NaN,bottle,oven,4-3-10,0682_eid_dnn_4-3-10_oven_10_n04111531_6217.png,n04111531_6217.png,0.0,1.8490498,2.6189723,-0.54441744
alexnet,1,683,NaN,truck,elephant,2-3-10,0683_eid_dnn_2-3-10_elephant_10_n02504458_5882.png,n02504458_5882.png,0.0,3.9058719,5.1959214,-0.9122028
alexnet,1,684,NaN,elephant,bird,1-3-10,0684_eid_dnn_1-3-10_bird_10_n02011460_6726.png,n02011460_6726.png,0.0,2.8875499,3.9008894,-0.71653926
alexnet,1,685,NaN,cat,bear,128-3-10,0685_eid_dnn_128-3-10_bear_10_n02133161_13089.png,n02133161_13089.png,0.0,2.3489842,2.7418168,-0.27777454
alexnet,1,686,NaN,airplane,bird,32-3-10,0686_eid_dnn_32-3-10_bird_10_n01795545_17639.png,n01795545_17639.png,0.0,-0.47242442,1.8746369,-1.659623
alexnet,1,687,NaN,bicycle,car,128-3-10,0687_eid_dnn_128-3-10_car_10_n02814533_83588.png,n02814533_83588.png,0.0,-1.2142719,2.4249864,-2.5733442
alexnet,1,688,NaN,oven,oven,16-3-10,0688_eid_dnn_16-3-10_oven_10_n04111531_10064.png,n04111531_10064.png,1.0,2.808735,2.5603452,0.17563806
alexnet,1,689,NaN,cat,dog,2-3-10,0689_eid_dnn_2-3-10_dog_10_n02113712_5246.png,n02113712_5246.png,0.0,2.7489245,3.317537,-0.4020698
alexnet,1,690,NaN,oven,cat,16-3-10,0690_eid_dnn_16-3-10_cat_10_n02125311_46738.png,n02125311_46738.png,0.0,0.5987858,2.8793762,-1.612621
alexnet,1,691,NaN,elephant,dog,1-3-10,0691_eid_dnn_1-3-10_dog_10_n02100236_9311.png,n02100236_9311.png,0.0,2.3860495,4.8629065,-1.7514024
alexnet,1,692,NaN,cat,elephant,128-3-10,0692_eid_dnn_128-3-10_elephant_10_n02504458_5844.png,n02504458_5844.png,0.0,1.2001593,2.1444092,-0.6676855
alexnet,1,693,NaN,cat,bear,32-3-10,0693_eid_dnn_32-3-10_bear_10_n02132136_3378.png,n02132136_3378.png,0.0,1.9948354,3.8990443,-1.346479
alexnet,1,694,NaN,truck,truck,1-3-10,0694_eid_dnn_1-3-10_truck_10_n03417042_1263.png,n03417042_1263.png,1.0,8.822563,4.516234,3.0450346
alexnet,1,695,NaN,truck,truck,1-3-10,0695_eid_dnn_1-3-10_truck_10_n03417042_19596.png,n03417042_19596.png,1.0,14.745351,8.955915,4.093749
alexnet,1,696,NaN,keyboard,keyboard,1-3-10,0696_eid_dnn_1-3-10_keyboard_10_n04505470_1351.png,n04505470_1351.png,1.0,11.457798,4.623829,4.832346
alexnet,1,697,NaN,bottle,oven,2-3-10,0697_eid_dnn_2-3-10_oven_10_n04111531_3902.png,n04111531_3902.png,0.0,2.7122383,3.259906,-0.38725957
alexnet,1,698,NaN,airplane,airplane,2-3-10,0698_eid_dnn_2-3-10_airplane_10_n02690373_19345.png,n02690373_19345.png,1.0,15.498825,2.7645445,9.004497
alexnet,1,699,NaN,clock,bottle,64-3-10,0699_eid_dnn_64-3-10_bottle_10_n03937543_4523.png,n03937543_4523.png,0.0,-0.25172058,1.7117876,-1.38841
alexnet,1,700,NaN,bicycle,bicycle,64-3-10,0700_eid_dnn_64-3-10_bicycle_10_n02835271_22448.png,n02835271_22448.png,1.0,1.7924069,1.6624327,0.091905676
alexnet,1,701,NaN,bear,bear,1-3-10,0701_eid_dnn_1-3-10_bear_10_n02132136_11198.png,n02132136_11198.png,1.0,14.441521,6.4915137,5.621504
alexnet,1,702,NaN,cat,bird,8-3-10,0702_eid_dnn_8-3-10_bird_10_n01798484_3266.png,n01798484_3266.png,0.0,-0.19853753,6.156751,-4.493868
alexnet,1,703,NaN,cat,bird,128-3-10,0703_eid_dnn_128-3-10_bird_10_n02017213_15742.png,n02017213_15742.png,0.0,-1.1208656,2.1728203,-2.3289876
alexnet,1,704,NaN,knife,knife,4-3-10,0704_eid_dnn_4-3-10_knife_10_n03041632_15431.png,n03041632_15431.png,1.0,7.453455,3.1952374,3.0110147
alexnet,1,705,NaN,oven,oven,1-3-10,0705_eid_dnn_1-3-10_oven_10_n04111531_5093.png,n04111531_5093.png,1.0,12.675653,5.3893404,5.1522017
alexnet,1,706,NaN,cat,truck,32-3-10,0706_eid_dnn_32-3-10_truck_10_n03417042_11062.png,n03417042_11062.png,0.0,-2.1929896,5.743711,-5.612095
alexnet,1,707,NaN,cat,dog,2-3-10,0707_eid_dnn_2-3-10_dog_10_n02090721_2242.png,n02090721_2242.png,0.0,2.352631,3.9811351,-1.1515262
