subj,session,trial,rt,object_response,category,condition,imagename,filename,is_correct,targ_act,max_nontarg_act,decision_margin
vit_b_16,1,1,NaN,cat,car,64-3-10,0001_eid_dnn_64-3-10_car_10_n04285008_8113.png,n04285008_8113.png,0.0,-0.93662447,1.3944817,-1.6483411
vit_b_16,1,2,NaN,oven,oven,8-3-10,0002_eid_dnn_8-3-10_oven_10_n04111531_11848.png,n04111531_11848.png,1.0,1.7305273,1.2132361,0.36578012
vit_b_16,1,3,NaN,bottle,truck,8-3-10,0003_eid_dnn_8-3-10_truck_10_n03417042_25458.png,n03417042_25458.png,0.0,-0.27726606,2.4541554,-1.9314067
vit_b_16,1,4,NaN,cat,chair,16-3-10,0004_eid_dnn_16-3-10_chair_10_n03376595_6208.png,n03376595_6208.png,0.0,-0.68641466,1.3336768,-1.4284204
vit_b_16,1,5,NaN,dog,cat,32-3-10,0005_eid_dnn_32-3-10_cat_10_n02123045_12084.png,n02123045_12084.png,0.0,0.55252737,1.7022699,-0.8129908
vit_b_16,1,6,NaN,keyboard,keyboard,8-3-10,0006_eid_dnn_8-3-10_keyboard_10_n03085013_20884.png,n03085013_20884.png,1.0,7.2521935,0.76710844,4.5856476
vit_b_16,1,7,NaN,airplane,airplane,4-3-10,0007_eid_dnn_4-3-10_airplane_10_n02690373_5992.png,n02690373_5992.png,1.0,8.642229,2.7693446,4.1527567
vit_b_16,1,8,NaN,oven,bear,32-3-10,0008_eid_dnn_32-3-10_bear_10_n02132136_6641.png,n02132136_6641.png,0.0,1.1730609,2.6982992,-1.0785064
vit_b_16,1,9,NaN,oven,oven,2-3-10,0009_eid_dnn_2-3-10_oven_10_n04111531_2797.png,n04111531_2797.png,1.0,9.145003,0.6987141,5.9724283
vit_b_16,1,10,NaN,airplane,airplane,2-3-10,0010_eid_dnn_2-3-10_airplane_10_n02690373_7457.png,n02690373_7457.png,1.0,9.024579,0.35614485,6.1295085
vit_b_16,1,11,NaN,cat,truck,16-3-10,0011_eid_dnn_16-3-10_truck_10_n03796401_2751.png,n03796401_2751.png,0.0,-0.84643877,1.6987872,-1.7997466
vit_b_16,1,12,NaN,bear,bear,2-3-10,0012_eid_dnn_2-3-10_bear_10_n02134418_860.png,n02134418_860.png,1.0,3.9013531,0.7445968,2.232164
vit_b_16,1,13,NaN,knife,knife,4-3-10,0013_eid_dnn_4-3-10_knife_10_n03041632_2058.png,n03041632_2058.png,1.0,9.509505,0.34803605,6.4781375
vit_b_16,1,14,NaN,airplane,airplane,32-3-10,0014_eid_dnn_32-3-10_airplane_10_n02690373_10510.png,n02690373_10510.png,1.0,1.1967715,0.8402169,0.2521222
vit_b_16,1,15,NaN,keyboard,keyboard,64-3-10,0015_eid_dnn_64-3-10_keyboard_10_n03085013_6313.png,n03085013_6313.png,1.0,2.5023794,1.9346572,0.40144023
vit_b_16,1,16,NaN,bicycle,bicycle,4-3-10,0016_eid_dnn_4-3-10_bicycle_10_n02835271_6278.png,n02835271_6278.png,1.0,1.1319731,1.0901917,0.02954393
vit_b_16,1,17,NaN,keyboard,keyboard,2-3-10,0017_eid_dnn_2-3-10_keyboard_10_n03085013_24192.png,n03085013_24192.png,1.0,6.948615,0.33983272,4.673115
vit_b_16,1,18,NaN,car,car,2-3-10,0018_eid_dnn_2-3-10_car_10_n04285008_8255.png,n04285008_8255.png,1.0,6.136534,0.31388554,4.117234
vit_b_16,1,19,NaN,airplane,airplane,2-3-10,0019_eid_dnn_2-3-10_airplane_10_n02690373_4591.png,n02690373_4591.png,1.0,9.597756,0.32118776,6.5595245
vit_b_16,1,20,NaN,airplane,airplane,4-3-10,0020_eid_dnn_4-3-10_airplane_10_n02690373_7075.png,n02690373_7075.png,1.0,8.971259,0.3783436,6.076109
vit_b_16,1,21,NaN,bicycle,bicycle,4-3-10,0021_eid_dnn_4-3-10_bicycle_10_n02835271_21464.png,n02835271_21464.png,1.0,5.8322153,1.5189571,3.0499341
vit_b_16,1,22,NaN,cat,car,64-3-10,0022_eid_dnn_64-3-10_car_10_n03100240_362.png,n03100240_362.png,0.0,-0.87541646,1.7677766,-1.8690197
vit_b_16,1,23,NaN,cat,truck,32-3-10,0023_eid_dnn_32-3-10_truck_10_n04467665_50927.png,n04467665_50927.png,0.0,-1.4864924,1.2785944,-1.9552115
vit_b_16,1,24,NaN,airplane,car,16-3-10,0024_eid_dnn_16-3-10_car_10_n04285008_3651.png,n04285008_3651.png,0.0,-0.7195057,0.93925774,-1.1729228
vit_b_16,1,25,NaN,bottle,bottle,8-3-10,0025_eid_dnn_8-3-10_bottle_10_n04557648_4974.png,n04557648_4974.png,1.0,1.7794278,0.66601765,0.7872999
vit_b_16,1,26,NaN,airplane,bird,16-3-10,0026_eid_dnn_16-3-10_bird_10_n01537544_23499.png,n01537544_23499.png,0.0,-0.004345856,1.6996397,-1.2048998
vit_b_16,1,27,NaN,boat,boat,1-3-10,0027_eid_dnn_1-3-10_boat_10_n04612504_11387.png,n04612504_11387.png,1.0,3.2142746,0.31694883,2.0487187
vit_b_16,1,28,NaN,bottle,bottle,4-3-10,0028_eid_dnn_4-3-10_bottle_10_n03983396_4300.png,n03983396_4300.png,1.0,3.5126998,0.6481961,2.02551
vit_b_16,1,29,NaN,elephant,bottle,64-3-10,0029_eid_dnn_64-3-10_bottle_10_n04591713_6961.png,n04591713_6961.png,0.0,-0.45243242,1.5367496,-1.4065641
vit_b_16,1,30,NaN,dog,clock,128-3-10,0030_eid_dnn_128-3-10_clock_10_n02708093_3361.png,n02708093_3361.png,0.0,-0.06985871,1.1023276,-0.8288609
vit_b_16,1,31,NaN,elephant,truck,32-3-10,0031_eid_dnn_32-3-10_truck_10_n03417042_18374.png,n03417042_18374.png,0.0,-1.1706007,1.2364566,-1.7020465
vit_b_16,1,32,NaN,elephant,knife,64-3-10,0032_eid_dnn_64-3-10_knife_10_n03041632_36280.png,n03041632_36280.png,0.0,0.5387086,0.8379459,-0.21159269
vit_b_16,1,33,NaN,airplane,bird,8-3-10,0033_eid_dnn_8-3-10_bird_10_n01614925_47.png,n01614925_47.png,0.0,-0.00969944,1.3939766,-0.9925489
vit_b_16,1,34,NaN,dog,bicycle,8-3-10,0034_eid_dnn_8-3-10_bicycle_10_n02835271_20099.png,n02835271_20099.png,0.0,-0.081379816,1.2381824,-0.9330714
vit_b_16,1,35,NaN,bear,bear,4-3-10,0035_eid_dnn_4-3-10_bear_10_n02134084_12070.png,n02134084_12070.png,1.0,3.2955315,0.6207892,1.8913285
vit_b_16,1,36,NaN,bottle,bottle,8-3-10,0036_eid_dnn_8-3-10_bottle_10_n02823428_8525.png,n02823428_8525.png,1.0,2.0601132,0.5431389,1.0726627
vit_b_16,1,37,NaN,cat,truck,32-3-10,0037_eid_dnn_32-3-10_truck_10_n04467665_37953.png,n04467665_37953.png,0.0,-1.2111804,2.323904,-2.4996822
vit_b_16,1,38,NaN,elephant,oven,128-3-10,0038_eid_dnn_128-3-10_oven_10_n04111531_4868.png,n04111531_4868.png,0.0,-1.088161,1.5129094,-1.8392346
vit_b_16,1,39,NaN,elephant,boat,32-3-10,0039_eid_dnn_32-3-10_boat_10_n03662601_19840.png,n03662601_19840.png,0.0,-0.08313305,1.5162435,-1.1309301
vit_b_16,1,40,NaN,truck,truck,8-3-10,0040_eid_dnn_8-3-10_truck_10_n04467665_9331.png,n04467665_9331.png,1.0,3.8033376,1.9039379,1.3430784
vit_b_16,1,41,NaN,clock,dog,64-3-10,0041_eid_dnn_64-3-10_dog_10_n02111277_16090.png,n02111277_16090.png,0.0,1.0801184,1.1134695,-0.023582764
vit_b_16,1,42,NaN,bottle,bottle,4-3-10,0042_eid_dnn_4-3-10_bottle_10_n02823428_6731.png,n02823428_6731.png,1.0,3.244049,0.36434555,2.036258
vit_b_16,1,43,NaN,elephant,elephant,8-3-10,0043_eid_dnn_8-3-10_elephant_10_n02504013_8930.png,n02504013_8930.png,1.0,6.3953967,1.4977875,3.4631329
vit_b_16,1,44,NaN,car,car,4-3-10,0044_eid_dnn_4-3-10_car_10_n03100240_13673.png,n03100240_13673.png,1.0,7.5397716,0.6859899,4.8463554
vit_b_16,1,45,NaN,clock,bird,128-3-10,0045_eid_dnn_128-3-10_bird_10_n02018207_6819.png,n02018207_6819.png,0.0,-0.45573285,1.6617647,-1.497297
vit_b_16,1,46,NaN,elephant,elephant,4-3-10,0046_eid_dnn_4-3-10_elephant_10_n02504013_6065.png,n02504013_6065.png,1.0,5.7701664,0.3056666,3.863985
vit_b_16,1,47,NaN,cat,cat,1-3-10,0047_eid_dnn_1-3-10_cat_10_n02123394_384.png,n02123394_384.png,1.0,2.1163661,0.7320458,0.9788623
vit_b_16,1,48,NaN,bear,bicycle,16-3-10,0048_eid_dnn_16-3-10_bicycle_10_n02835271_12608.png,n02835271_12608.png,0.0,0.27482206,3.6225457,-2.3671982
vit_b_16,1,49,NaN,knife,chair,2-3-10,0049_eid_dnn_2-3-10_chair_10_n03376595_13949.png,n03376595_13949.png,0.0,2.7621956,2.9392347,-0.12518558
vit_b_16,1,50,NaN,elephant,airplane,128-3-10,0050_eid_dnn_128-3-10_airplane_10_n02690373_3561.png,n02690373_3561.png,0.0,-0.1868035,1.0660422,-0.88589567
vit_b_16,1,51,NaN,bear,bicycle,32-3-10,0051_eid_dnn_32-3-10_bicycle_10_n02835271_8203.png,n02835271_8203.png,0.0,-0.40976378,1.9345132,-1.6576542
vit_b_16,1,52,NaN,bicycle,bicycle,2-3-10,0052_eid_dnn_2-3-10_bicycle_10_n03792782_5665.png,n03792782_5665.png,1.0,7.844346,0.59863186,5.1234937
vit_b_16,1,53,NaN,elephant,bicycle,128-3-10,0053_eid_dnn_128-3-10_bicycle_10_n02835271_15028.png,n02835271_15028.png,0.0,0.078441545,1.2161359,-0.80447143
vit_b_16,1,54,NaN,clock,clock,1-3-10,0054_eid_dnn_1-3-10_clock_10_n04548280_3318.png,n04548280_3318.png,1.0,6.124466,0.2648612,4.1433663
vit_b_16,1,55,NaN,clock,cat,128-3-10,0055_eid_dnn_128-3-10_cat_10_n02123045_8784.png,n02123045_8784.png,0.0,-0.28146866,0.82292604,-0.780925
vit_b_16,1,56,NaN,elephant,knife,128-3-10,0056_eid_dnn_128-3-10_knife_10_n03041632_3247.png,n03041632_3247.png,0.0,-0.08877252,1.5492693,-1.1582705
vit_b_16,1,57,NaN,cat,dog,8-3-10,0057_eid_dnn_8-3-10_dog_10_n02110185_11414.png,n02110185_11414.png,0.0,0.42043808,1.6057196,-0.83812064
vit_b_16,1,58,NaN,bear,dog,32-3-10,0058_eid_dnn_32-3-10_dog_10_n02113712_2715.png,n02113712_2715.png,0.0,1.2559285,2.3614278,-0.78170604
vit_b_16,1,59,NaN,elephant,elephant,2-3-10,0059_eid_dnn_2-3-10_elephant_10_n02504458_1210.png,n02504458_1210.png,1.0,6.709096,1.8349941,3.4465103
vit_b_16,1,60,NaN,airplane,car,16-3-10,0060_eid_dnn_16-3-10_car_10_n02814533_32337.png,n02814533_32337.png,0.0,-0.33381248,2.155867,-1.7604693
vit_b_16,1,61,NaN,car,car,4-3-10,0061_eid_dnn_4-3-10_car_10_n02814533_55326.png,n02814533_55326.png,1.0,2.944701,2.5555267,0.27518773
vit_b_16,1,62,NaN,cat,knife,64-3-10,0062_eid_dnn_64-3-10_knife_10_n03041632_32774.png,n03041632_32774.png,0.0,0.63677883,1.7354501,-0.77687794
vit_b_16,1,63,NaN,bear,bicycle,8-3-10,0063_eid_dnn_8-3-10_bicycle_10_n02835271_11921.png,n02835271_11921.png,0.0,-0.58475685,2.5036716,-2.1838489
vit_b_16,1,64,NaN,cat,chair,32-3-10,0064_eid_dnn_32-3-10_chair_10_n03376595_6115.png,n03376595_6115.png,0.0,-0.9157603,1.7385659,-1.8768921
vit_b_16,1,65,NaN,elephant,bear,16-3-10,0065_eid_dnn_16-3-10_bear_10_n02133161_79.png,n02133161_79.png,0.0,1.5208089,2.9335976,-0.99899244
vit_b_16,1,66,NaN,boat,boat,1-3-10,0066_eid_dnn_1-3-10_boat_10_n03662601_34796.png,n03662601_34796.png,1.0,4.70081,0.37153164,3.0612621
vit_b_16,1,67,NaN,bird,bird,4-3-10,0067_eid_dnn_4-3-10_bird_10_n02051845_8976.png,n02051845_8976.png,1.0,0.13004254,0.05255612,0.05479117
vit_b_16,1,68,NaN,elephant,boat,4-3-10,0068_eid_dnn_4-3-10_boat_10_n03344393_7362.png,n03344393_7362.png,0.0,3.166875,3.9592988,-0.56032836
vit_b_16,1,69,NaN,cat,car,32-3-10,0069_eid_dnn_32-3-10_car_10_n02814533_34289.png,n02814533_34289.png,0.0,-0.64905393,1.5304443,-1.5411379
vit_b_16,1,70,NaN,oven,keyboard,16-3-10,0070_eid_dnn_16-3-10_keyboard_10_n03085013_2166.png,n03085013_2166.png,0.0,-0.60236835,1.3199719,-1.3592999
vit_b_16,1,71,NaN,bear,bear,2-3-10,0071_eid_dnn_2-3-10_bear_10_n02133161_10167.png,n02133161_10167.png,1.0,5.7558527,0.59927183,3.6462533
vit_b_16,1,72,NaN,keyboard,keyboard,16-3-10,0072_eid_dnn_16-3-10_keyboard_10_n04505470_430.png,n04505470_430.png,1.0,1.7813604,1.1720784,0.43082744
vit_b_16,1,73,NaN,clock,boat,128-3-10,0073_eid_dnn_128-3-10_boat_10_n03662601_17001.png,n03662601_17001.png,0.0,-1.1944382,1.9242353,-2.2052352
vit_b_16,1,74,NaN,clock,bear,128-3-10,0074_eid_dnn_128-3-10_bear_10_n02133161_5157.png,n02133161_5157.png,0.0,-0.47252005,2.3395755,-1.988452
vit_b_16,1,75,NaN,boat,boat,2-3-10,0075_eid_dnn_2-3-10_boat_10_n02951358_17870.png,n02951358_17870.png,1.0,3.6503518,0.76078546,2.043232
vit_b_16,1,76,NaN,elephant,cat,64-3-10,0076_eid_dnn_64-3-10_cat_10_n02123159_1102.png,n02123159_1102.png,0.0,0.63642836,2.7921238,-1.5243069
vit_b_16,1,77,NaN,elephant,cat,32-3-10,0077_eid_dnn_32-3-10_cat_10_n02123045_4252.png,n02123045_4252.png,0.0,1.0257417,1.6374242,-0.4325249
vit_b_16,1,78,NaN,keyboard,keyboard,2-3-10,0078_eid_dnn_2-3-10_keyboard_10_n04505470_4294.png,n04505470_4294.png,1.0,5.0393505,1.5499288,2.4673939
vit_b_16,1,79,NaN,truck,truck,2-3-10,0079_eid_dnn_2-3-10_truck_10_n04467665_1101.png,n04467665_1101.png,1.0,3.7973223,0.6037544,2.2581935
vit_b_16,1,80,NaN,knife,airplane,64-3-10,0080_eid_dnn_64-3-10_airplane_10_n02690373_2078.png,n02690373_2078.png,0.0,0.7300968,1.6429571,-0.6454897
vit_b_16,1,81,NaN,cat,boat,64-3-10,0081_eid_dnn_64-3-10_boat_10_n04612504_5535.png,n04612504_5535.png,0.0,-1.2425116,1.7628137,-2.1250858
vit_b_16,1,82,NaN,dog,cat,16-3-10,0082_eid_dnn_16-3-10_cat_10_n02125311_15099.png,n02125311_15099.png,0.0,-0.026283108,1.3525559,-0.97498643
vit_b_16,1,83,NaN,bottle,airplane,64-3-10,0083_eid_dnn_64-3-10_airplane_10_n02690373_4671.png,n02690373_4671.png,0.0,-0.20701738,0.918475,-0.7958433
vit_b_16,1,84,NaN,truck,truck,1-3-10,0084_eid_dnn_1-3-10_truck_10_n03417042_9062.png,n03417042_9062.png,1.0,1.4835312,0.111027464,0.9705067
vit_b_16,1,85,NaN,cat,cat,4-3-10,0085_eid_dnn_4-3-10_cat_10_n02123394_283.png,n02123394_283.png,1.0,1.8169264,0.3515719,1.0361621
vit_b_16,1,86,NaN,car,car,1-3-10,0086_eid_dnn_1-3-10_car_10_n02814533_3375.png,n02814533_3375.png,1.0,2.6410623,0.9337104,1.2072802
vit_b_16,1,87,NaN,cat,cat,2-3-10,0087_eid_dnn_2-3-10_cat_10_n02124075_9706.png,n02124075_9706.png,1.0,3.9892216,1.769147,1.5698298
vit_b_16,1,88,NaN,car,car,2-3-10,0088_eid_dnn_2-3-10_car_10_n04285008_10563.png,n04285008_10563.png,1.0,6.996985,0.14631143,4.8441577
vit_b_16,1,89,NaN,bottle,clock,64-3-10,0089_eid_dnn_64-3-10_clock_10_n03196217_3283.png,n03196217_3283.png,0.0,-0.06971351,1.4550135,-1.0781448
vit_b_16,1,90,NaN,dog,oven,128-3-10,0090_eid_dnn_128-3-10_oven_10_n04111531_21120.png,n04111531_21120.png,0.0,-0.5676806,1.3320217,-1.3432924
vit_b_16,1,91,NaN,bird,bird,1-3-10,0091_eid_dnn_1-3-10_bird_10_n01824575_6186.png,n01824575_6186.png,1.0,0.76965755,0.6418003,0.09040874
vit_b_16,1,92,NaN,bottle,dog,4-3-10,0092_eid_dnn_4-3-10_dog_10_n02102318_11155.png,n02102318_11155.png,0.0,-0.108548716,0.36246282,-0.33305544
vit_b_16,1,93,NaN,bear,clock,16-3-10,0093_eid_dnn_16-3-10_clock_10_n04548280_2283.png,n04548280_2283.png,0.0,0.34595868,1.7650447,-1.0034454
vit_b_16,1,94,NaN,bear,chair,128-3-10,0094_eid_dnn_128-3-10_chair_10_n03376595_18787.png,n03376595_18787.png,0.0,-0.52350676,1.0273539,-1.0966241
vit_b_16,1,95,NaN,knife,keyboard,8-3-10,0095_eid_dnn_8-3-10_keyboard_10_n04505470_1903.png,n04505470_1903.png,0.0,1.123724,1.7923397,-0.4727827
vit_b_16,1,96,NaN,bottle,clock,16-3-10,0096_eid_dnn_16-3-10_clock_10_n03196217_6185.png,n03196217_6185.png,0.0,0.7292442,1.482684,-0.5327624
vit_b_16,1,97,NaN,clock,clock,2-3-10,0097_eid_dnn_2-3-10_clock_10_n03196217_10424.png,n03196217_10424.png,1.0,4.2195835,0.93722755,2.3209763
vit_b_16,1,98,NaN,knife,knife,2-3-10,0098_eid_dnn_2-3-10_knife_10_n03041632_43436.png,n03041632_43436.png,1.0,7.114143,1.2135644,4.172339
vit_b_16,1,99,NaN,knife,dog,1-3-10,0099_eid_dnn_1-3-10_dog_10_n02093647_5955.png,n02093647_5955.png,0.0,0.13581824,0.2632219,-0.09008799
vit_b_16,1,100,NaN,bird,boat,32-3-10,0100_eid_dnn_32-3-10_boat_10_n03662601_5423.png,n03662601_5423.png,0.0,-0.5776036,0.7826838,-0.96186846
vit_b_16,1,101,NaN,cat,keyboard,128-3-10,0101_eid_dnn_128-3-10_keyboard_10_n04505470_9457.png,n04505470_9457.png,0.0,-0.4416926,1.1518195,-1.1267833
vit_b_16,1,102,NaN,clock,knife,128-3-10,0102_eid_dnn_128-3-10_knife_10_n03041632_38535.png,n03041632_38535.png,0.0,0.09296732,0.9171894,-0.582813
vit_b_16,1,103,NaN,bear,elephant,8-3-10,0103_eid_dnn_8-3-10_elephant_10_n02504458_8141.png,n02504458_8141.png,0.0,0.090946704,1.4138292,-0.9354192
vit_b_16,1,104,NaN,airplane,airplane,4-3-10,0104_eid_dnn_4-3-10_airplane_10_n02690373_9086.png,n02690373_9086.png,1.0,7.638274,0.28201088,5.2016635
vit_b_16,1,105,NaN,elephant,bicycle,16-3-10,0105_eid_dnn_16-3-10_bicycle_10_n03792782_19116.png,n03792782_19116.png,0.0,0.16814029,2.0111647,-1.303215
vit_b_16,1,106,NaN,elephant,elephant,4-3-10,0106_eid_dnn_4-3-10_elephant_10_n02504458_2343.png,n02504458_2343.png,1.0,6.7185593,0.21332496,4.5998955
vit_b_16,1,107,NaN,airplane,airplane,16-3-10,0107_eid_dnn_16-3-10_airplane_10_n02690373_7093.png,n02690373_7093.png,1.0,3.5109673,1.0222094,1.7598176
vit_b_16,1,108,NaN,airplane,car,32-3-10,0108_eid_dnn_32-3-10_car_10_n03100240_7935.png,n03100240_7935.png,0.0,-0.57893896,1.1175872,-1.1996251
vit_b_16,1,109,NaN,airplane,airplane,16-3-10,0109_eid_dnn_16-3-10_airplane_10_n02690373_8611.png,n02690373_8611.png,1.0,3.0368173,0.93797386,1.4841065
vit_b_16,1,110,NaN,bear,bear,2-3-10,0110_eid_dnn_2-3-10_bear_10_n02133161_7332.png,n02133161_7332.png,1.0,6.1343565,0.5045173,3.9808974
vit_b_16,1,111,NaN,car,car,2-3-10,0111_eid_dnn_2-3-10_car_10_n03100240_9387.png,n03100240_9387.png,1.0,6.3894024,0.96818817,3.8333774
vit_b_16,1,112,NaN,cat,cat,4-3-10,0112_eid_dnn_4-3-10_cat_10_n02124075_521.png,n02124075_521.png,1.0,3.1693783,1.0783155,1.4786047
vit_b_16,1,113,NaN,clock,bottle,128-3-10,0113_eid_dnn_128-3-10_bottle_10_n04560804_3746.png,n04560804_3746.png,0.0,0.21562684,0.82065654,-0.42782062
vit_b_16,1,114,NaN,bear,elephant,16-3-10,0114_eid_dnn_16-3-10_elephant_10_n02504458_1127.png,n02504458_1127.png,0.0,1.2370784,1.8612899,-0.44138414
vit_b_16,1,115,NaN,bottle,knife,8-3-10,0115_eid_dnn_8-3-10_knife_10_n03041632_14132.png,n03041632_14132.png,0.0,0.42330405,0.5918808,-0.119201764
vit_b_16,1,116,NaN,oven,oven,1-3-10,0116_eid_dnn_1-3-10_oven_10_n04111531_18916.png,n04111531_18916.png,1.0,9.619886,1.0596142,6.0530267
vit_b_16,1,117,NaN,knife,oven,1-3-10,0117_eid_dnn_1-3-10_oven_10_n04111531_19274.png,n04111531_19274.png,0.0,5.191293,5.24973,-0.041321445
vit_b_16,1,118,NaN,bicycle,bird,2-3-10,0118_eid_dnn_2-3-10_bird_10_n01843383_277.png,n01843383_277.png,0.0,0.7952932,3.7989888,-2.1239336
vit_b_16,1,119,NaN,dog,boat,64-3-10,0119_eid_dnn_64-3-10_boat_10_n03344393_6799.png,n03344393_6799.png,0.0,-1.0374597,0.94226307,-1.3998754
vit_b_16,1,120,NaN,dog,dog,2-3-10,0120_eid_dnn_2-3-10_dog_10_n02093428_16887.png,n02093428_16887.png,1.0,0.6923113,0.1785118,0.3633111
vit_b_16,1,121,NaN,elephant,elephant,64-3-10,0121_eid_dnn_64-3-10_elephant_10_n02504458_6163.png,n02504458_6163.png,1.0,1.9457905,0.9073854,0.73426336
vit_b_16,1,122,NaN,elephant,bottle,64-3-10,0122_eid_dnn_64-3-10_bottle_10_n04591713_2826.png,n04591713_2826.png,0.0,0.008906244,1.3879848,-0.9751558
vit_b_16,1,123,NaN,elephant,bottle,64-3-10,0123_eid_dnn_64-3-10_bottle_10_n04557648_3598.png,n04557648_3598.png,0.0,-0.11105777,1.766845,-1.3278778
vit_b_16,1,124,NaN,boat,truck,8-3-10,0124_eid_dnn_8-3-10_truck_10_n04467665_80629.png,n04467665_80629.png,0.0,0.09182061,1.7019202,-1.1385124
vit_b_16,1,125,NaN,bear,bear,4-3-10,0125_eid_dnn_4-3-10_bear_10_n02134084_6869.png,n02134084_6869.png,1.0,2.8511384,1.087463,1.2471068
vit_b_16,1,126,NaN,bird,bird,1-3-10,0126_eid_dnn_1-3-10_bird_10_n01820546_4457.png,n01820546_4457.png,1.0,2.0719323,1.2548926,0.57773435
vit_b_16,1,127,NaN,elephant,clock,64-3-10,0127_eid_dnn_64-3-10_clock_10_n04548280_7565.png,n04548280_7565.png,0.0,0.2763169,0.8504363,-0.4059637
vit_b_16,1,128,NaN,bear,elephant,16-3-10,0128_eid_dnn_16-3-10_elephant_10_n02504458_98.png,n02504458_98.png,0.0,2.3007963,2.355864,-0.038938798
vit_b_16,1,129,NaN,bear,bicycle,64-3-10,0129_eid_dnn_64-3-10_bicycle_10_n03792782_7143.png,n03792782_7143.png,0.0,0.12993088,1.8029752,-1.183021
vit_b_16,1,130,NaN,dog,dog,16-3-10,0130_eid_dnn_16-3-10_dog_10_n02096051_5524.png,n02096051_5524.png,1.0,1.617806,0.36318344,0.8871521
vit_b_16,1,131,NaN,dog,cat,16-3-10,0131_eid_dnn_16-3-10_cat_10_n02123045_9465.png,n02123045_9465.png,0.0,0.829072,1.6484712,-0.57940274
vit_b_16,1,132,NaN,elephant,cat,64-3-10,0132_eid_dnn_64-3-10_cat_10_n02123159_9450.png,n02123159_9450.png,0.0,0.9314011,1.7471464,-0.57681906
vit_b_16,1,133,NaN,clock,clock,4-3-10,0133_eid_dnn_4-3-10_clock_10_n02708093_8204.png,n02708093_8204.png,1.0,4.5533614,1.0969517,2.4440508
vit_b_16,1,134,NaN,airplane,airplane,32-3-10,0134_eid_dnn_32-3-10_airplane_10_n02690373_2619.png,n02690373_2619.png,1.0,3.191793,0.7177099,1.7494409
vit_b_16,1,135,NaN,car,car,2-3-10,0135_eid_dnn_2-3-10_car_10_n04285008_11295.png,n04285008_11295.png,1.0,4.5250344,0.39357826,2.9213808
vit_b_16,1,136,NaN,bear,bear,8-3-10,0136_eid_dnn_8-3-10_bear_10_n02133161_15481.png,n02133161_15481.png,1.0,2.5131552,0.28869712,1.5729295
vit_b_16,1,137,NaN,elephant,truck,64-3-10,0137_eid_dnn_64-3-10_truck_10_n03417042_8139.png,n03417042_8139.png,0.0,-1.3672291,1.3174176,-1.8983319
vit_b_16,1,138,NaN,bear,bottle,16-3-10,0138_eid_dnn_16-3-10_bottle_10_n04557648_4490.png,n04557648_4490.png,0.0,-0.28853014,2.5118165,-1.9801441
vit_b_16,1,139,NaN,clock,clock,1-3-10,0139_eid_dnn_1-3-10_clock_10_n03196217_5399.png,n03196217_5399.png,1.0,2.9458997,0.37443858,1.8182976
vit_b_16,1,140,NaN,boat,boat,1-3-10,0140_eid_dnn_1-3-10_boat_10_n04273569_4136.png,n04273569_4136.png,1.0,2.9461899,0.5370719,1.7035036
vit_b_16,1,141,NaN,clock,clock,4-3-10,0141_eid_dnn_4-3-10_clock_10_n04548280_2127.png,n04548280_2127.png,1.0,5.76782,0.3724503,3.8151023
vit_b_16,1,142,NaN,boat,boat,2-3-10,0142_eid_dnn_2-3-10_boat_10_n03344393_10038.png,n03344393_10038.png,1.0,2.467283,0.38197553,1.4745352
vit_b_16,1,143,NaN,elephant,elephant,2-3-10,0143_eid_dnn_2-3-10_elephant_10_n02504013_10793.png,n02504013_10793.png,1.0,6.3723116,0.47867092,4.1674333
vit_b_16,1,144,NaN,clock,oven,128-3-10,0144_eid_dnn_128-3-10_oven_10_n04111531_6590.png,n04111531_6590.png,0.0,-1.5388612,1.234567,-1.9611099
vit_b_16,1,145,NaN,oven,keyboard,16-3-10,0145_eid_dnn_16-3-10_keyboard_10_n03085013_10984.png,n03085013_10984.png,0.0,-0.27377623,1.9745482,-1.5898055
vit_b_16,1,146,NaN,bicycle,bicycle,2-3-10,0146_eid_dnn_2-3-10_bicycle_10_n02835271_14879.png,n02835271_14879.png,1.0,6.2626004,0.83679503,3.836624
vit_b_16,1,147,NaN,cat,knife,64-3-10,0147_eid_dnn_64-3-10_knife_10_n03041632_22241.png,n03041632_22241.png,0.0,-0.36427742,1.730565,-1.4812773
vit_b_16,1,148,NaN,clock,oven,64-3-10,0148_eid_dnn_64-3-10_oven_10_n04111531_892.png,n04111531_892.png,0.0,-0.76783913,0.6631021,-1.0118283
vit_b_16,1,149,NaN,bear,bear,64-3-10,0149_eid_dnn_64-3-10_bear_10_n02134418_14850.png,n02134418_14850.png,1.0,2.3678503,1.9904554,0.26685852
vit_b_16,1,150,NaN,cat,knife,64-3-10,0150_eid_dnn_64-3-10_knife_10_n03041632_48071.png,n03041632_48071.png,0.0,-0.16349648,0.71947795,-0.6243572
vit_b_16,1,151,NaN,knife,clock,16-3-10,0151_eid_dnn_16-3-10_clock_10_n04548280_64.png,n04548280_64.png,0.0,0.15440618,1.5069643,-0.956403
vit_b_16,1,152,NaN,elephant,truck,64-3-10,0152_eid_dnn_64-3-10_truck_10_n03796401_6285.png,n03796401_6285.png,0.0,-1.2455828,1.4900745,-1.9344018
vit_b_16,1,153,NaN,airplane,airplane,4-3-10,0153_eid_dnn_4-3-10_airplane_10_n02690373_6682.png,n02690373_6682.png,1.0,6.139898,0.23098631,4.1782317
vit_b_16,1,154,NaN,bear,knife,64-3-10,0154_eid_dnn_64-3-10_knife_10_n03041632_17285.png,n03041632_17285.png,0.0,0.044175386,1.8515408,-1.2780004
vit_b_16,1,155,NaN,boat,boat,2-3-10,0155_eid_dnn_2-3-10_boat_10_n02951358_8184.png,n02951358_8184.png,1.0,2.724608,0.33955833,1.6864848
vit_b_16,1,156,NaN,bear,bear,1-3-10,0156_eid_dnn_1-3-10_bear_10_n02132136_2346.png,n02132136_2346.png,1.0,3.898716,3.1026175,0.56292665
vit_b_16,1,157,NaN,bear,bear,8-3-10,0157_eid_dnn_8-3-10_bear_10_n02134418_2187.png,n02134418_2187.png,1.0,2.151569,0.7665935,0.97932553
vit_b_16,1,158,NaN,dog,cat,32-3-10,0158_eid_dnn_32-3-10_cat_10_n02124075_10162.png,n02124075_10162.png,0.0,0.973429,1.2480688,-0.19419965
vit_b_16,1,159,NaN,elephant,truck,128-3-10,0159_eid_dnn_128-3-10_truck_10_n03417042_8998.png,n03417042_8998.png,0.0,-1.4988382,1.4244802,-2.0670984
vit_b_16,1,160,NaN,cat,cat,64-3-10,0160_eid_dnn_64-3-10_cat_10_n02123597_13835.png,n02123597_13835.png,1.0,1.0155741,0.71628904,0.2116265
vit_b_16,1,161,NaN,clock,clock,1-3-10,0161_eid_dnn_1-3-10_clock_10_n04548280_18914.png,n04548280_18914.png,1.0,6.155951,0.23915447,4.183807
vit_b_16,1,162,NaN,keyboard,keyboard,2-3-10,0162_eid_dnn_2-3-10_keyboard_10_n03085013_2676.png,n03085013_2676.png,1.0,6.934433,0.52214396,4.534173
vit_b_16,1,163,NaN,airplane,airplane,16-3-10,0163_eid_dnn_16-3-10_airplane_10_n02690373_7600.png,n02690373_7600.png,1.0,2.4700887,1.6156158,0.6042036
vit_b_16,1,164,NaN,dog,chair,16-3-10,0164_eid_dnn_16-3-10_chair_10_n04429376_17917.png,n04429376_17917.png,0.0,-0.6084284,1.2758299,-1.3323718
vit_b_16,1,165,NaN,keyboard,keyboard,4-3-10,0165_eid_dnn_4-3-10_keyboard_10_n04505470_4492.png,n04505470_4492.png,1.0,6.157376,1.2541243,3.4671226
vit_b_16,1,166,NaN,bear,bear,1-3-10,0166_eid_dnn_1-3-10_bear_10_n02134418_3148.png,n02134418_3148.png,1.0,6.5232306,0.2917097,4.4063506
vit_b_16,1,167,NaN,cat,cat,4-3-10,0167_eid_dnn_4-3-10_cat_10_n02125311_20388.png,n02125311_20388.png,1.0,2.2527666,2.0434523,0.1480076
vit_b_16,1,168,NaN,elephant,cat,64-3-10,0168_eid_dnn_64-3-10_cat_10_n02123394_2153.png,n02123394_2153.png,0.0,0.3778399,1.9976077,-1.1453488
vit_b_16,1,169,NaN,clock,clock,1-3-10,0169_eid_dnn_1-3-10_clock_10_n04548280_5327.png,n04548280_5327.png,1.0,2.8544395,1.8700832,0.69604504
vit_b_16,1,170,NaN,cat,bicycle,8-3-10,0170_eid_dnn_8-3-10_bicycle_10_n03792782_63054.png,n03792782_63054.png,0.0,2.5858903,2.6537535,-0.04798655
vit_b_16,1,171,NaN,bottle,chair,32-3-10,0171_eid_dnn_32-3-10_chair_10_n03376595_14138.png,n03376595_14138.png,0.0,-0.93093854,1.2929538,-1.5725294
vit_b_16,1,172,NaN,elephant,elephant,2-3-10,0172_eid_dnn_2-3-10_elephant_10_n02504458_4849.png,n02504458_4849.png,1.0,8.059797,0.83147705,5.111194
vit_b_16,1,173,NaN,elephant,dog,128-3-10,0173_eid_dnn_128-3-10_dog_10_n02113624_4844.png,n02113624_4844.png,0.0,0.24929376,2.3156428,-1.4611294
vit_b_16,1,174,NaN,elephant,elephant,2-3-10,0174_eid_dnn_2-3-10_elephant_10_n02504013_2549.png,n02504013_2549.png,1.0,6.530932,0.4992213,4.265064
vit_b_16,1,175,NaN,bear,bear,8-3-10,0175_eid_dnn_8-3-10_bear_10_n02134084_4593.png,n02134084_4593.png,1.0,2.9920814,2.5083811,0.34202775
vit_b_16,1,176,NaN,elephant,bicycle,64-3-10,0176_eid_dnn_64-3-10_bicycle_10_n02835271_75.png,n02835271_75.png,0.0,0.7360806,1.9380293,-0.849906
vit_b_16,1,177,NaN,truck,truck,4-3-10,0177_eid_dnn_4-3-10_truck_10_n03796401_20943.png,n03796401_20943.png,1.0,3.7252975,2.75151,0.6885718
vit_b_16,1,178,NaN,knife,knife,2-3-10,0178_eid_dnn_2-3-10_knife_10_n03041632_32048.png,n03041632_32048.png,1.0,5.6764627,1.1654451,3.1897714
vit_b_16,1,179,NaN,cat,cat,1-3-10,0179_eid_dnn_1-3-10_cat_10_n02123159_3536.png,n02123159_3536.png,1.0,2.164319,1.5789852,0.41389352
vit_b_16,1,180,NaN,bicycle,bicycle,1-3-10,0180_eid_dnn_1-3-10_bicycle_10_n03792782_6716.png,n03792782_6716.png,1.0,1.307877,1.1694788,0.09786229
vit_b_16,1,181,NaN,clock,clock,2-3-10,0181_eid_dnn_2-3-10_clock_10_n03196217_1754.png,n03196217_1754.png,1.0,3.6527646,0.20914784,2.4350047
vit_b_16,1,182,NaN,bicycle,bicycle,1-3-10,0182_eid_dnn_1-3-10_bicycle_10_n03792782_5404.png,n03792782_5404.png,1.0,7.5962114,0.27874824,5.174228
vit_b_16,1,183,NaN,bear,dog,64-3-10,0183_eid_dnn_64-3-10_dog_10_n02096294_3014.png,n02096294_3014.png,0.0,0.83209604,1.6275438,-0.5624665
vit_b_16,1,184,NaN,bear,bear,4-3-10,0184_eid_dnn_4-3-10_bear_10_n02134084_23382.png,n02134084_23382.png,1.0,3.4346426,0.5466389,2.042127
vit_b_16,1,185,NaN,car,car,4-3-10,0185_eid_dnn_4-3-10_car_10_n03100240_310.png,n03100240_310.png,1.0,5.837175,1.2660844,3.2322493
vit_b_16,1,186,NaN,dog,dog,4-3-10,0186_eid_dnn_4-3-10_dog_10_n02093256_1653.png,n02093256_1653.png,1.0,1.7379887,-0.22108111,1.3852715
vit_b_16,1,187,NaN,elephant,elephant,4-3-10,0187_eid_dnn_4-3-10_elephant_10_n02504013_1740.png,n02504013_1740.png,1.0,6.6491566,0.34430644,4.4582024
vit_b_16,1,188,NaN,bottle,bear,64-3-10,0188_eid_dnn_64-3-10_bear_10_n02134084_34375.png,n02134084_34375.png,0.0,1.4696279,2.280444,-0.57333356
vit_b_16,1,189,NaN,airplane,keyboard,8-3-10,0189_eid_dnn_8-3-10_keyboard_10_n03085013_23254.png,n03085013_23254.png,0.0,0.18161634,1.7647694,-1.1194583
vit_b_16,1,190,NaN,dog,elephant,32-3-10,0190_eid_dnn_32-3-10_elephant_10_n02504013_1512.png,n02504013_1512.png,0.0,-0.074942134,1.5318602,-1.1361809
vit_b_16,1,191,NaN,knife,car,8-3-10,0191_eid_dnn_8-3-10_car_10_n04285008_6454.png,n04285008_6454.png,0.0,0.055687208,1.012664,-0.6766848
vit_b_16,1,192,NaN,keyboard,keyboard,4-3-10,0192_eid_dnn_4-3-10_keyboard_10_n04505470_7721.png,n04505470_7721.png,1.0,5.74489,0.77071697,3.5172715
vit_b_16,1,193,NaN,dog,keyboard,16-3-10,0193_eid_dnn_16-3-10_keyboard_10_n04505470_3388.png,n04505470_3388.png,0.0,-0.69265985,0.6547857,-0.9527879
vit_b_16,1,194,NaN,boat,boat,2-3-10,0194_eid_dnn_2-3-10_boat_10_n03344393_4221.png,n03344393_4221.png,1.0,3.5774217,1.5897185,1.4055184
vit_b_16,1,195,NaN,elephant,cat,128-3-10,0195_eid_dnn_128-3-10_cat_10_n02123597_14361.png,n02123597_14361.png,0.0,0.5076702,1.2517109,-0.5261162
vit_b_16,1,196,NaN,clock,bird,128-3-10,0196_eid_dnn_128-3-10_bird_10_n02006656_10058.png,n02006656_10058.png,0.0,-0.16532728,0.863936,-0.72779906
vit_b_16,1,197,NaN,dog,clock,32-3-10,0197_eid_dnn_32-3-10_clock_10_n02708093_8104.png,n02708093_8104.png,0.0,-0.3394395,0.90641576,-0.8809528
vit_b_16,1,198,NaN,truck,truck,1-3-10,0198_eid_dnn_1-3-10_truck_10_n03417042_3845.png,n03417042_3845.png,1.0,3.5699492,0.64379716,2.069102
vit_b_16,1,199,NaN,elephant,boat,64-3-10,0199_eid_dnn_64-3-10_boat_10_n03662601_36741.png,n03662601_36741.png,0.0,-0.3597526,1.4981704,-1.31375
vit_b_16,1,200,NaN,knife,knife,1-3-10,0200_eid_dnn_1-3-10_knife_10_n03041632_22570.png,n03041632_22570.png,1.0,5.5723844,0.6205495,3.501476
vit_b_16,1,201,NaN,keyboard,keyboard,1-3-10,0201_eid_dnn_1-3-10_keyboard_10_n04505470_4109.png,n04505470_4109.png,1.0,5.556376,0.47187984,3.5952816
vit_b_16,1,202,NaN,airplane,airplane,1-3-10,0202_eid_dnn_1-3-10_airplane_10_n02690373_10404.png,n02690373_10404.png,1.0,8.844319,0.13645339,6.157391
vit_b_16,1,203,NaN,elephant,elephant,4-3-10,0203_eid_dnn_4-3-10_elephant_10_n02504458_4725.png,n02504458_4725.png,1.0,7.744046,0.66340315,5.006771
vit_b_16,1,204,NaN,airplane,airplane,1-3-10,0204_eid_dnn_1-3-10_airplane_10_n02690373_1325.png,n02690373_1325.png,1.0,9.17608,0.26638988,6.300102
vit_b_16,1,205,NaN,bear,bicycle,8-3-10,0205_eid_dnn_8-3-10_bicycle_10_n03792782_6841.png,n03792782_6841.png,0.0,-0.43885472,2.153336,-1.8329557
vit_b_16,1,206,NaN,chair,chair,2-3-10,0206_eid_dnn_2-3-10_chair_10_n04099969_1669.png,n04099969_1669.png,1.0,3.0274506,0.35432455,1.8901856
vit_b_16,1,207,NaN,airplane,bottle,32-3-10,0207_eid_dnn_32-3-10_bottle_10_n03937543_5324.png,n03937543_5324.png,0.0,0.24611536,1.8891112,-1.1617736
vit_b_16,1,208,NaN,bottle,bottle,4-3-10,0208_eid_dnn_4-3-10_bottle_10_n03937543_2143.png,n03937543_2143.png,1.0,1.235135,0.41823012,0.577639
vit_b_16,1,209,NaN,bottle,bottle,2-3-10,0209_eid_dnn_2-3-10_bottle_10_n04557648_2575.png,n04557648_2575.png,1.0,4.112329,0.3518543,2.6590571
vit_b_16,1,210,NaN,knife,knife,8-3-10,0210_eid_dnn_8-3-10_knife_10_n03041632_9671.png,n03041632_9671.png,1.0,9.286197,0.29239482,6.3595786
vit_b_16,1,211,NaN,oven,bottle,16-3-10,0211_eid_dnn_16-3-10_bottle_10_n04560804_4145.png,n04560804_4145.png,0.0,0.8226315,1.0097914,-0.13234204
vit_b_16,1,212,NaN,bear,clock,64-3-10,0212_eid_dnn_64-3-10_clock_10_n03196217_1187.png,n03196217_1187.png,0.0,-0.0056018233,1.5728583,-1.1161399
vit_b_16,1,213,NaN,clock,clock,4-3-10,0213_eid_dnn_4-3-10_clock_10_n04548280_2111.png,n04548280_2111.png,1.0,5.7428,0.58561003,3.6466844
vit_b_16,1,214,NaN,cat,dog,128-3-10,0214_eid_dnn_128-3-10_dog_10_n02086079_6578.png,n02086079_6578.png,0.0,0.66455364,0.9189043,-0.17985308
vit_b_16,1,215,NaN,bear,car,16-3-10,0215_eid_dnn_16-3-10_car_10_n03100240_14045.png,n03100240_14045.png,0.0,-0.47667536,1.7281905,-1.5590757
vit_b_16,1,216,NaN,boat,boat,8-3-10,0216_eid_dnn_8-3-10_boat_10_n02951358_30908.png,n02951358_30908.png,1.0,2.7358305,1.7179248,0.71976805
vit_b_16,1,217,NaN,bicycle,oven,4-3-10,0217_eid_dnn_4-3-10_oven_10_n04111531_2199.png,n04111531_2199.png,0.0,1.940483,3.3979363,-1.0305752
vit_b_16,1,218,NaN,elephant,elephant,8-3-10,0218_eid_dnn_8-3-10_elephant_10_n02504013_5641.png,n02504013_5641.png,1.0,6.461341,1.6404353,3.4088953
vit_b_16,1,219,NaN,keyboard,keyboard,2-3-10,0219_eid_dnn_2-3-10_keyboard_10_n03085013_6740.png,n03085013_6740.png,1.0,6.799595,0.3843122,4.53629
vit_b_16,1,220,NaN,clock,clock,2-3-10,0220_eid_dnn_2-3-10_clock_10_n04548280_319.png,n04548280_319.png,1.0,6.3002834,0.4012024,4.1712804
vit_b_16,1,221,NaN,elephant,knife,32-3-10,0221_eid_dnn_32-3-10_knife_10_n03041632_43506.png,n03041632_43506.png,0.0,0.33468327,1.934356,-1.1311394
vit_b_16,1,222,NaN,airplane,boat,16-3-10,0222_eid_dnn_16-3-10_boat_10_n03344393_9712.png,n03344393_9712.png,0.0,0.66070086,2.1337147,-1.0415782
vit_b_16,1,223,NaN,knife,knife,1-3-10,0223_eid_dnn_1-3-10_knife_10_n03041632_9963.png,n03041632_9963.png,1.0,9.468903,0.3213405,6.468303
vit_b_16,1,224,NaN,bicycle,bird,1-3-10,0224_eid_dnn_1-3-10_bird_10_n02002556_18595.png,n02002556_18595.png,0.0,0.54074794,1.673444,-0.8009371
vit_b_16,1,225,NaN,bird,bird,4-3-10,0225_eid_dnn_4-3-10_bird_10_n01860187_20777.png,n01860187_20777.png,1.0,2.2348495,0.80705994,1.0095996
vit_b_16,1,226,NaN,airplane,keyboard,32-3-10,0226_eid_dnn_32-3-10_keyboard_10_n03085013_24626.png,n03085013_24626.png,0.0,-0.6456419,1.1925389,-1.2997901
vit_b_16,1,227,NaN,oven,oven,16-3-10,0227_eid_dnn_16-3-10_oven_10_n04111531_7097.png,n04111531_7097.png,1.0,1.2223128,0.78181994,0.3114755
vit_b_16,1,228,NaN,bear,chair,16-3-10,0228_eid_dnn_16-3-10_chair_10_n02791124_12486.png,n02791124_12486.png,0.0,-0.88208723,2.0620036,-2.0817866
vit_b_16,1,229,NaN,bear,cat,128-3-10,0229_eid_dnn_128-3-10_cat_10_n02123045_6629.png,n02123045_6629.png,0.0,0.6222968,1.029702,-0.28807893
vit_b_16,1,230,NaN,airplane,bird,16-3-10,0230_eid_dnn_16-3-10_bird_10_n01819313_5388.png,n01819313_5388.png,0.0,-0.3108997,1.1485316,-1.0319738
vit_b_16,1,231,NaN,cat,truck,32-3-10,0231_eid_dnn_32-3-10_truck_10_n04467665_4940.png,n04467665_4940.png,0.0,-0.8329722,1.9135488,-1.9420836
vit_b_16,1,232,NaN,bottle,knife,8-3-10,0232_eid_dnn_8-3-10_knife_10_n03041632_20433.png,n03041632_20433.png,0.0,0.78040123,2.5184937,-1.2290169
vit_b_16,1,233,NaN,clock,clock,2-3-10,0233_eid_dnn_2-3-10_clock_10_n04548280_6792.png,n04548280_6792.png,1.0,6.357763,0.12476837,4.407393
vit_b_16,1,234,NaN,bicycle,bicycle,4-3-10,0234_eid_dnn_4-3-10_bicycle_10_n02835271_5413.png,n02835271_5413.png,1.0,8.555075,0.38553303,5.776738
vit_b_16,1,235,NaN,car,car,2-3-10,0235_eid_dnn_2-3-10_car_10_n04285008_5005.png,n04285008_5005.png,1.0,6.1002755,0.14940281,4.2079024
vit_b_16,1,236,NaN,car,car,2-3-10,0236_eid_dnn_2-3-10_car_10_n02814533_88088.png,n02814533_88088.png,1.0,6.5105515,2.906219,2.5486479
vit_b_16,1,237,NaN,elephant,elephant,64-3-10,0237_eid_dnn_64-3-10_elephant_10_n02504458_11345.png,n02504458_11345.png,1.0,1.405828,1.1995454,0.14586385
vit_b_16,1,238,NaN,elephant,elephant,16-3-10,0238_eid_dnn_16-3-10_elephant_10_n02504013_1900.png,n02504013_1900.png,1.0,2.4205923,1.6218258,0.5648132
vit_b_16,1,239,NaN,elephant,bear,128-3-10,0239_eid_dnn_128-3-10_bear_10_n02133161_5708.png,n02133161_5708.png,0.0,0.6773329,1.2388546,-0.39705586
vit_b_16,1,240,NaN,cat,cat,8-3-10,0240_eid_dnn_8-3-10_cat_10_n02124075_5828.png,n02124075_5828.png,1.0,4.8688335,1.1957196,2.5972838
vit_b_16,1,241,NaN,elephant,bird,64-3-10,0241_eid_dnn_64-3-10_bird_10_n01582220_9392.png,n01582220_9392.png,0.0,0.71329975,1.3178039,-0.42744896
vit_b_16,1,242,NaN,clock,clock,1-3-10,0242_eid_dnn_1-3-10_clock_10_n02708093_4597.png,n02708093_4597.png,1.0,5.896499,0.3071971,3.9522336
vit_b_16,1,243,NaN,elephant,bicycle,128-3-10,0243_eid_dnn_128-3-10_bicycle_10_n03792782_26306.png,n03792782_26306.png,0.0,0.29752293,1.7117724,-1.0000255
vit_b_16,1,244,NaN,oven,bear,32-3-10,0244_eid_dnn_32-3-10_bear_10_n02132136_1795.png,n02132136_1795.png,0.0,0.8546855,3.0829248,-1.5756031
vit_b_16,1,245,NaN,clock,clock,128-3-10,0245_eid_dnn_128-3-10_clock_10_n02708093_3638.png,n02708093_3638.png,1.0,1.7987041,1.0763777,0.5107619
vit_b_16,1,246,NaN,keyboard,keyboard,4-3-10,0246_eid_dnn_4-3-10_keyboard_10_n03085013_21272.png,n03085013_21272.png,1.0,5.855957,0.75389796,3.6077006
vit_b_16,1,247,NaN,bottle,chair,8-3-10,0247_eid_dnn_8-3-10_chair_10_n02791124_16926.png,n02791124_16926.png,0.0,0.2451537,1.0837348,-0.5929664
vit_b_16,1,248,NaN,bottle,knife,8-3-10,0248_eid_dnn_8-3-10_knife_10_n03041632_84048.png,n03041632_84048.png,0.0,-0.052551255,1.6483192,-1.202697
vit_b_16,1,249,NaN,oven,oven,2-3-10,0249_eid_dnn_2-3-10_oven_10_n04111531_550.png,n04111531_550.png,1.0,9.038942,0.9600213,5.7126603
vit_b_16,1,250,NaN,keyboard,boat,128-3-10,0250_eid_dnn_128-3-10_boat_10_n03662601_21992.png,n03662601_21992.png,0.0,-1.8286226,0.891114,-1.9231442
vit_b_16,1,251,NaN,dog,bear,32-3-10,0251_eid_dnn_32-3-10_bear_10_n02134418_280.png,n02134418_280.png,0.0,0.72601235,1.1146898,-0.27483648
vit_b_16,1,252,NaN,bottle,bottle,8-3-10,0252_eid_dnn_8-3-10_bottle_10_n04560804_8385.png,n04560804_8385.png,1.0,2.397692,0.52611566,1.3234043
vit_b_16,1,253,NaN,elephant,elephant,64-3-10,0253_eid_dnn_64-3-10_elephant_10_n02504013_4183.png,n02504013_4183.png,1.0,1.6153655,1.370667,0.17302799
vit_b_16,1,254,NaN,airplane,bird,1-3-10,0254_eid_dnn_1-3-10_bird_10_n01560419_19608.png,n01560419_19608.png,0.0,0.9589188,1.0893795,-0.09224968
vit_b_16,1,255,NaN,airplane,bird,4-3-10,0255_eid_dnn_4-3-10_bird_10_n02056570_8865.png,n02056570_8865.png,0.0,0.37455714,0.94493604,-0.4033188
vit_b_16,1,256,NaN,cat,cat,2-3-10,0256_eid_dnn_2-3-10_cat_10_n02123394_2553.png,n02123394_2553.png,1.0,3.0799387,1.0326576,1.4476464
vit_b_16,1,257,NaN,dog,bear,128-3-10,0257_eid_dnn_128-3-10_bear_10_n02132136_10113.png,n02132136_10113.png,0.0,0.78213656,1.5733603,-0.5594797
vit_b_16,1,258,NaN,chair,oven,8-3-10,0258_eid_dnn_8-3-10_oven_10_n04111531_2758.png,n04111531_2758.png,0.0,0.47866517,2.6068008,-1.5048192
vit_b_16,1,259,NaN,dog,keyboard,64-3-10,0259_eid_dnn_64-3-10_keyboard_10_n04505470_4824.png,n04505470_4824.png,0.0,-0.7292383,0.71845675,-1.023675
vit_b_16,1,260,NaN,bicycle,bicycle,2-3-10,0260_eid_dnn_2-3-10_bicycle_10_n02835271_8654.png,n02835271_8654.png,1.0,7.1883984,0.8611009,4.474075
vit_b_16,1,261,NaN,cat,keyboard,128-3-10,0261_eid_dnn_128-3-10_keyboard_10_n03085013_34973.png,n03085013_34973.png,0.0,-0.52269995,1.026873,-1.0957136
vit_b_16,1,262,NaN,cat,cat,4-3-10,0262_eid_dnn_4-3-10_cat_10_n02123394_4228.png,n02123394_4228.png,1.0,2.773948,0.995809,1.2573341
vit_b_16,1,263,NaN,bear,keyboard,32-3-10,0263_eid_dnn_32-3-10_keyboard_10_n03085013_24416.png,n03085013_24416.png,0.0,0.22471768,1.4927303,-0.8966203
vit_b_16,1,264,NaN,cat,cat,8-3-10,0264_eid_dnn_8-3-10_cat_10_n02124075_5729.png,n02124075_5729.png,1.0,1.5496716,1.1609056,0.27489913
vit_b_16,1,265,NaN,airplane,clock,32-3-10,0265_eid_dnn_32-3-10_clock_10_n03196217_6357.png,n03196217_6357.png,0.0,0.7922781,0.86935854,-0.054504097
vit_b_16,1,266,NaN,cat,truck,128-3-10,0266_eid_dnn_128-3-10_truck_10_n03417042_29478.png,n03417042_29478.png,0.0,-1.3370655,1.2225084,-1.809892
vit_b_16,1,267,NaN,elephant,chair,128-3-10,0267_eid_dnn_128-3-10_chair_10_n04099969_18678.png,n04099969_18678.png,0.0,-0.30686578,1.6049626,-1.3518668
vit_b_16,1,268,NaN,elephant,clock,32-3-10,0268_eid_dnn_32-3-10_clock_10_n02708093_4286.png,n02708093_4286.png,0.0,0.99681145,1.2128505,-0.15276265
vit_b_16,1,269,NaN,elephant,car,128-3-10,0269_eid_dnn_128-3-10_car_10_n03100240_21971.png,n03100240_21971.png,0.0,-1.0793558,1.1093508,-1.5476494
vit_b_16,1,270,NaN,car,car,1-3-10,0270_eid_dnn_1-3-10_car_10_n03100240_84.png,n03100240_84.png,1.0,5.4465346,1.2385135,2.9755204
vit_b_16,1,271,NaN,dog,dog,1-3-10,0271_eid_dnn_1-3-10_dog_10_n02094433_3186.png,n02094433_3186.png,1.0,0.8880678,0.28737688,0.42475262
vit_b_16,1,272,NaN,elephant,dog,4-3-10,0272_eid_dnn_4-3-10_dog_10_n02088364_10195.png,n02088364_10195.png,0.0,0.3410327,0.49938548,-0.11197232
vit_b_16,1,273,NaN,airplane,knife,16-3-10,0273_eid_dnn_16-3-10_knife_10_n03041632_11358.png,n03041632_11358.png,0.0,1.3219129,2.3103614,-0.69893867
vit_b_16,1,274,NaN,elephant,bird,64-3-10,0274_eid_dnn_64-3-10_bird_10_n01531178_10630.png,n01531178_10630.png,0.0,-0.5839168,1.2335801,-1.2851644
vit_b_16,1,275,NaN,elephant,elephant,1-3-10,0275_eid_dnn_1-3-10_elephant_10_n02504458_4058.png,n02504458_4058.png,1.0,7.2770195,0.18274331,5.016411
vit_b_16,1,276,NaN,cat,keyboard,32-3-10,0276_eid_dnn_32-3-10_keyboard_10_n03085013_24336.png,n03085013_24336.png,0.0,-0.5671825,1.2267344,-1.2684909
vit_b_16,1,277,NaN,clock,clock,4-3-10,0277_eid_dnn_4-3-10_clock_10_n02708093_386.png,n02708093_386.png,1.0,5.48206,0.23598862,3.7095327
vit_b_16,1,278,NaN,chair,chair,4-3-10,0278_eid_dnn_4-3-10_chair_10_n04429376_16370.png,n04429376_16370.png,1.0,3.9687228,1.0546843,2.0605366
vit_b_16,1,279,NaN,bottle,bottle,1-3-10,0279_eid_dnn_1-3-10_bottle_10_n04557648_10167.png,n04557648_10167.png,1.0,3.5080884,0.5948099,2.059999
vit_b_16,1,280,NaN,bicycle,bicycle,1-3-10,0280_eid_dnn_1-3-10_bicycle_10_n02835271_15717.png,n02835271_15717.png,1.0,5.9742827,0.22245552,4.0671563
vit_b_16,1,281,NaN,cat,car,128-3-10,0281_eid_dnn_128-3-10_car_10_n03100240_22593.png,n03100240_22593.png,0.0,-1.3117723,0.7788618,-1.4783015
vit_b_16,1,282,NaN,car,car,1-3-10,0282_eid_dnn_1-3-10_car_10_n04285008_11240.png,n04285008_11240.png,1.0,5.80491,0.4304116,3.8003442
vit_b_16,1,283,NaN,boat,boat,1-3-10,0283_eid_dnn_1-3-10_boat_10_n03344393_3337.png,n03344393_3337.png,1.0,2.2514129,0.2990129,1.3805553
vit_b_16,1,284,NaN,elephant,bottle,128-3-10,0284_eid_dnn_128-3-10_bottle_10_n04579145_1660.png,n04579145_1660.png,0.0,-0.3685315,1.7118354,-1.4710416
vit_b_16,1,285,NaN,cat,dog,64-3-10,0285_eid_dnn_64-3-10_dog_10_n02091244_9305.png,n02091244_9305.png,0.0,0.54842097,1.251649,-0.49725732
vit_b_16,1,286,NaN,clock,chair,32-3-10,0286_eid_dnn_32-3-10_chair_10_n03376595_3912.png,n03376595_3912.png,0.0,-0.6184651,1.0140343,-1.1543515
vit_b_16,1,287,NaN,elephant,bottle,64-3-10,0287_eid_dnn_64-3-10_bottle_10_n02823428_6793.png,n02823428_6793.png,0.0,-0.31971842,1.7690489,-1.4769815
vit_b_16,1,288,NaN,dog,dog,32-3-10,0288_eid_dnn_32-3-10_dog_10_n02093754_4949.png,n02093754_4949.png,1.0,1.2804198,0.65317357,0.44353008
vit_b_16,1,289,NaN,elephant,dog,128-3-10,0289_eid_dnn_128-3-10_dog_10_n02105855_10394.png,n02105855_10394.png,0.0,0.5649959,1.2611196,-0.4922338
vit_b_16,1,290,NaN,clock,clock,2-3-10,0290_eid_dnn_2-3-10_clock_10_n04548280_9533.png,n04548280_9533.png,1.0,5.808636,0.85177505,3.5050302
vit_b_16,1,291,NaN,cat,cat,1-3-10,0291_eid_dnn_1-3-10_cat_10_n02125311_7527.png,n02125311_7527.png,1.0,1.6925745,1.476869,0.15252684
vit_b_16,1,292,NaN,car,car,4-3-10,0292_eid_dnn_4-3-10_car_10_n03100240_4537.png,n03100240_4537.png,1.0,6.380829,0.54798293,4.124445
vit_b_16,1,293,NaN,elephant,bicycle,8-3-10,0293_eid_dnn_8-3-10_bicycle_10_n03792782_11609.png,n03792782_11609.png,0.0,0.5549257,2.154732,-1.1312339
vit_b_16,1,294,NaN,cat,oven,128-3-10,0294_eid_dnn_128-3-10_oven_10_n04111531_6134.png,n04111531_6134.png,0.0,-1.141633,0.8729856,-1.4245505
vit_b_16,1,295,NaN,bottle,bottle,8-3-10,0295_eid_dnn_8-3-10_bottle_10_n04591713_715.png,n04591713_715.png,1.0,2.426899,0.54797727,1.3285984
vit_b_16,1,296,NaN,airplane,elephant,32-3-10,0296_eid_dnn_32-3-10_elephant_10_n02504458_7818.png,n02504458_7818.png,0.0,0.80940455,3.5697296,-1.9518446
vit_b_16,1,297,NaN,clock,airplane,64-3-10,0297_eid_dnn_64-3-10_airplane_10_n02690373_7107.png,n02690373_7107.png,0.0,-0.45695293,1.0149876,-1.0408192
vit_b_16,1,298,NaN,elephant,car,32-3-10,0298_eid_dnn_32-3-10_car_10_n04285008_8363.png,n04285008_8363.png,0.0,-0.7967239,1.1334281,-1.3648236
vit_b_16,1,299,NaN,clock,clock,4-3-10,0299_eid_dnn_4-3-10_clock_10_n04548280_4249.png,n04548280_4249.png,1.0,3.8568676,1.7251728,1.5073359
vit_b_16,1,300,NaN,cat,cat,128-3-10,0300_eid_dnn_128-3-10_cat_10_n02123597_7269.png,n02123597_7269.png,1.0,1.6359295,0.9576965,0.47958314
vit_b_16,1,301,NaN,bicycle,bicycle,1-3-10,0301_eid_dnn_1-3-10_bicycle_10_n03792782_4864.png,n03792782_4864.png,1.0,6.9563274,1.2888354,4.007522
vit_b_16,1,302,NaN,bear,bear,2-3-10,0302_eid_dnn_2-3-10_bear_10_n02132136_8011.png,n02132136_8011.png,1.0,5.679306,1.5832745,2.8963318
vit_b_16,1,303,NaN,cat,boat,128-3-10,0303_eid_dnn_128-3-10_boat_10_n02951358_4810.png,n02951358_4810.png,0.0,-0.91722536,1.0410434,-1.3847052
vit_b_16,1,304,NaN,elephant,clock,128-3-10,0304_eid_dnn_128-3-10_clock_10_n03196217_5137.png,n03196217_5137.png,0.0,0.1391111,1.9685738,-1.2936256
vit_b_16,1,305,NaN,bicycle,bicycle,2-3-10,0305_eid_dnn_2-3-10_bicycle_10_n02835271_158.png,n02835271_158.png,1.0,5.522134,0.16958441,3.7848241
vit_b_16,1,306,NaN,bear,bear,64-3-10,0306_eid_dnn_64-3-10_bear_10_n02132136_11217.png,n02132136_11217.png,1.0,0.9495188,0.8208165,0.09100626
vit_b_16,1,307,NaN,cat,dog,64-3-10,0307_eid_dnn_64-3-10_dog_10_n02092002_6122.png,n02092002_6122.png,0.0,0.8886883,1.4798379,-0.41800588
vit_b_16,1,308,NaN,elephant,chair,32-3-10,0308_eid_dnn_32-3-10_chair_10_n04429376_29223.png,n04429376_29223.png,0.0,-0.9512758,1.4705942,-1.7125207
vit_b_16,1,309,NaN,elephant,bear,128-3-10,0309_eid_dnn_128-3-10_bear_10_n02133161_5723.png,n02133161_5723.png,0.0,0.58502555,1.0956318,-0.36105317
vit_b_16,1,310,NaN,elephant,dog,128-3-10,0310_eid_dnn_128-3-10_dog_10_n02100583_1343.png,n02100583_1343.png,0.0,0.7674006,0.8515855,-0.059527703
vit_b_16,1,311,NaN,clock,boat,128-3-10,0311_eid_dnn_128-3-10_boat_10_n03344393_6352.png,n03344393_6352.png,0.0,-0.57963645,1.4779477,-1.4549319
vit_b_16,1,312,NaN,car,bird,4-3-10,0312_eid_dnn_4-3-10_bird_10_n01560419_8247.png,n01560419_8247.png,0.0,0.23816891,0.6632087,-0.30054855
vit_b_16,1,313,NaN,knife,dog,4-3-10,0313_eid_dnn_4-3-10_dog_10_n02105251_8210.png,n02105251_8210.png,0.0,0.38431776,0.47491607,-0.064062685
vit_b_16,1,314,NaN,bicycle,oven,128-3-10,0314_eid_dnn_128-3-10_oven_10_n04111531_9702.png,n04111531_9702.png,0.0,-1.04353,2.457178,-2.4753745
vit_b_16,1,315,NaN,elephant,bear,8-3-10,0315_eid_dnn_8-3-10_bear_10_n02133161_12161.png,n02133161_12161.png,0.0,1.0725158,1.4445262,-0.26305103
vit_b_16,1,316,NaN,bear,bear,8-3-10,0316_eid_dnn_8-3-10_bear_10_n02133161_13556.png,n02133161_13556.png,1.0,4.703823,0.38138133,3.0564277
vit_b_16,1,317,NaN,elephant,bear,128-3-10,0317_eid_dnn_128-3-10_bear_10_n02134084_635.png,n02134084_635.png,0.0,0.4209871,1.1109864,-0.48790315
vit_b_16,1,318,NaN,keyboard,chair,128-3-10,0318_eid_dnn_128-3-10_chair_10_n02791124_6956.png,n02791124_6956.png,0.0,0.01220575,1.3292699,-0.931305
vit_b_16,1,319,NaN,car,car,4-3-10,0319_eid_dnn_4-3-10_car_10_n02814533_18077.png,n02814533_18077.png,1.0,4.700709,1.8126757,2.0421479
vit_b_16,1,320,NaN,dog,dog,2-3-10,0320_eid_dnn_2-3-10_dog_10_n02088364_11105.png,n02088364_11105.png,1.0,0.6152098,0.60578,0.0066678845
vit_b_16,1,321,NaN,cat,airplane,64-3-10,0321_eid_dnn_64-3-10_airplane_10_n02690373_1053.png,n02690373_1053.png,0.0,-0.028808862,1.2285281,-0.8890715
vit_b_16,1,322,NaN,oven,car,16-3-10,0322_eid_dnn_16-3-10_car_10_n02814533_96407.png,n02814533_96407.png,0.0,-0.7523206,1.1965445,-1.3780558
vit_b_16,1,323,NaN,chair,chair,4-3-10,0323_eid_dnn_4-3-10_chair_10_n04099969_31891.png,n04099969_31891.png,1.0,3.4659538,1.2150103,1.5916575
vit_b_16,1,324,NaN,bear,bottle,16-3-10,0324_eid_dnn_16-3-10_bottle_10_n04557648_4470.png,n04557648_4470.png,0.0,0.04402917,0.85035175,-0.57015616
vit_b_16,1,325,NaN,bottle,clock,8-3-10,0325_eid_dnn_8-3-10_clock_10_n02708093_2588.png,n02708093_2588.png,0.0,0.045807917,1.4796621,-1.013888
vit_b_16,1,326,NaN,elephant,elephant,128-3-10,0326_eid_dnn_128-3-10_elephant_10_n02504458_6696.png,n02504458_6696.png,1.0,0.79114056,0.79043996,0.00049539405
vit_b_16,1,327,NaN,dog,elephant,32-3-10,0327_eid_dnn_32-3-10_elephant_10_n02504013_4071.png,n02504013_4071.png,0.0,1.4909477,2.1066728,-0.43538335
vit_b_16,1,328,NaN,knife,keyboard,8-3-10,0328_eid_dnn_8-3-10_keyboard_10_n03085013_8339.png,n03085013_8339.png,0.0,0.4724981,1.1047171,-0.4470464
vit_b_16,1,329,NaN,cat,elephant,64-3-10,0329_eid_dnn_64-3-10_elephant_10_n02504013_6976.png,n02504013_6976.png,0.0,0.20372581,2.0132685,-1.27954
vit_b_16,1,330,NaN,elephant,boat,4-3-10,0330_eid_dnn_4-3-10_boat_10_n02951358_9146.png,n02951358_9146.png,0.0,-0.7638889,3.1186411,-2.7453632
vit_b_16,1,331,NaN,airplane,boat,32-3-10,0331_eid_dnn_32-3-10_boat_10_n04273569_4087.png,n04273569_4087.png,0.0,0.030167485,1.046419,-0.71859837
vit_b_16,1,332,NaN,elephant,oven,64-3-10,0332_eid_dnn_64-3-10_oven_10_n04111531_2922.png,n04111531_2922.png,0.0,-0.5367616,1.6560636,-1.5505615
vit_b_16,1,333,NaN,bear,bear,4-3-10,0333_eid_dnn_4-3-10_bear_10_n02133161_5325.png,n02133161_5325.png,1.0,5.181736,1.3337547,2.720934
vit_b_16,1,334,NaN,elephant,bottle,64-3-10,0334_eid_dnn_64-3-10_bottle_10_n04557648_3109.png,n04557648_3109.png,0.0,0.000878466,1.418087,-1.0021178
vit_b_16,1,335,NaN,oven,oven,1-3-10,0335_eid_dnn_1-3-10_oven_10_n04111531_15912.png,n04111531_15912.png,1.0,8.939388,0.94069326,5.6559315
vit_b_16,1,336,NaN,dog,truck,16-3-10,0336_eid_dnn_16-3-10_truck_10_n03417042_17099.png,n03417042_17099.png,0.0,-1.2331022,1.3526237,-1.8283843
vit_b_16,1,337,NaN,car,car,2-3-10,0337_eid_dnn_2-3-10_car_10_n04285008_8641.png,n04285008_8641.png,1.0,4.847099,0.30024856,3.2151086
vit_b_16,1,338,NaN,oven,keyboard,32-3-10,0338_eid_dnn_32-3-10_keyboard_10_n04505470_524.png,n04505470_524.png,0.0,-0.83931965,0.67534333,-1.0710285
vit_b_16,1,339,NaN,bottle,bottle,8-3-10,0339_eid_dnn_8-3-10_bottle_10_n04557648_5935.png,n04557648_5935.png,1.0,3.1342008,1.4950857,1.1590294
vit_b_16,1,340,NaN,bottle,bottle,1-3-10,0340_eid_dnn_1-3-10_bottle_10_n04591713_3776.png,n04591713_3776.png,1.0,3.3350105,0.6495198,1.8989286
vit_b_16,1,341,NaN,truck,truck,2-3-10,0341_eid_dnn_2-3-10_truck_10_n03796401_3651.png,n03796401_3651.png,1.0,1.6783438,0.15341413,1.0782881
vit_b_16,1,342,NaN,elephant,bicycle,128-3-10,0342_eid_dnn_128-3-10_bicycle_10_n03792782_15757.png,n03792782_15757.png,0.0,0.31724527,1.4272836,-0.7849157
vit_b_16,1,343,NaN,cat,cat,32-3-10,0343_eid_dnn_32-3-10_cat_10_n02123597_8698.png,n02123597_8698.png,1.0,1.0343263,0.943646,0.06412066
vit_b_16,1,344,NaN,boat,boat,1-3-10,0344_eid_dnn_1-3-10_boat_10_n03662601_273.png,n03662601_273.png,1.0,3.068092,1.2194934,1.3071567
vit_b_16,1,345,NaN,knife,knife,1-3-10,0345_eid_dnn_1-3-10_knife_10_n03041632_24376.png,n03041632_24376.png,1.0,9.975981,0.23675762,6.886671
vit_b_16,1,346,NaN,keyboard,keyboard,1-3-10,0346_eid_dnn_1-3-10_keyboard_10_n04505470_2608.png,n04505470_2608.png,1.0,5.9093595,0.758342,3.6423192
vit_b_16,1,347,NaN,airplane,boat,16-3-10,0347_eid_dnn_16-3-10_boat_10_n04273569_10665.png,n04273569_10665.png,0.0,1.1864183,3.1494713,-1.3880881
vit_b_16,1,348,NaN,bicycle,bear,64-3-10,0348_eid_dnn_64-3-10_bear_10_n02133161_5267.png,n02133161_5267.png,0.0,0.27084926,0.99960494,-0.51530814
vit_b_16,1,349,NaN,cat,bear,128-3-10,0349_eid_dnn_128-3-10_bear_10_n02133161_5020.png,n02133161_5020.png,0.0,0.33288813,1.0919572,-0.5367429
vit_b_16,1,350,NaN,cat,knife,128-3-10,0350_eid_dnn_128-3-10_knife_10_n03041632_21723.png,n03041632_21723.png,0.0,-0.59537685,1.6413714,-1.5816199
vit_b_16,1,351,NaN,elephant,boat,32-3-10,0351_eid_dnn_32-3-10_boat_10_n02951358_31101.png,n02951358_31101.png,0.0,-0.47229677,1.0147464,-1.0514983
vit_b_16,1,352,NaN,clock,dog,128-3-10,0352_eid_dnn_128-3-10_dog_10_n02102177_4180.png,n02102177_4180.png,0.0,0.0930312,1.6024975,-1.0673538
vit_b_16,1,353,NaN,bottle,bottle,4-3-10,0353_eid_dnn_4-3-10_bottle_10_n04579145_4186.png,n04579145_4186.png,1.0,1.8591152,0.34042758,1.0738744
vit_b_16,1,354,NaN,elephant,bicycle,64-3-10,0354_eid_dnn_64-3-10_bicycle_10_n03792782_2246.png,n03792782_2246.png,0.0,-0.252645,1.3154006,-1.1087757
vit_b_16,1,355,NaN,dog,dog,1-3-10,0355_eid_dnn_1-3-10_dog_10_n02110958_1526.png,n02110958_1526.png,1.0,1.1333424,0.4134263,0.5090576
vit_b_16,1,356,NaN,dog,keyboard,128-3-10,0356_eid_dnn_128-3-10_keyboard_10_n04505470_255.png,n04505470_255.png,0.0,-0.57059836,0.95559365,-1.0791807
vit_b_16,1,357,NaN,elephant,elephant,4-3-10,0357_eid_dnn_4-3-10_elephant_10_n02504458_1933.png,n02504458_1933.png,1.0,2.6555467,1.1021802,1.098396
vit_b_16,1,358,NaN,cat,cat,2-3-10,0358_eid_dnn_2-3-10_cat_10_n02123159_5749.png,n02123159_5749.png,1.0,4.238862,0.34817952,2.751128
vit_b_16,1,359,NaN,cat,airplane,128-3-10,0359_eid_dnn_128-3-10_airplane_10_n02690373_2967.png,n02690373_2967.png,0.0,-0.5770127,0.8682485,-1.021954
vit_b_16,1,360,NaN,chair,chair,8-3-10,0360_eid_dnn_8-3-10_chair_10_n04099969_72.png,n04099969_72.png,1.0,1.4375714,0.12403482,0.92881066
vit_b_16,1,361,NaN,bear,cat,32-3-10,0361_eid_dnn_32-3-10_cat_10_n02123045_4089.png,n02123045_4089.png,0.0,0.73741794,1.6607772,-0.65291363
vit_b_16,1,362,NaN,clock,bird,128-3-10,0362_eid_dnn_128-3-10_bird_10_n01616318_13293.png,n01616318_13293.png,0.0,-0.6678187,2.6955888,-2.3782883
vit_b_16,1,363,NaN,cat,cat,4-3-10,0363_eid_dnn_4-3-10_cat_10_n02124075_13719.png,n02124075_13719.png,1.0,3.2641346,0.14178221,2.2078366
vit_b_16,1,364,NaN,dog,oven,32-3-10,0364_eid_dnn_32-3-10_oven_10_n04111531_22466.png,n04111531_22466.png,0.0,-0.51954526,1.3084059,-1.2925568
vit_b_16,1,365,NaN,elephant,airplane,128-3-10,0365_eid_dnn_128-3-10_airplane_10_n02690373_2525.png,n02690373_2525.png,0.0,-0.78555006,2.3715608,-2.2324145
vit_b_16,1,366,NaN,cat,cat,1-3-10,0366_eid_dnn_1-3-10_cat_10_n02124075_5369.png,n02124075_5369.png,1.0,4.494477,0.41080436,2.8875926
vit_b_16,1,367,NaN,clock,bird,64-3-10,0367_eid_dnn_64-3-10_bird_10_n01843065_4182.png,n01843065_4182.png,0.0,-0.26233003,0.5813463,-0.59656924
vit_b_16,1,368,NaN,truck,truck,2-3-10,0368_eid_dnn_2-3-10_truck_10_n03796401_6472.png,n03796401_6472.png,1.0,2.8821187,0.30202022,1.8244051
vit_b_16,1,369,NaN,elephant,airplane,64-3-10,0369_eid_dnn_64-3-10_airplane_10_n02690373_3090.png,n02690373_3090.png,0.0,0.51096547,1.1337461,-0.44037244
vit_b_16,1,370,NaN,bear,bear,64-3-10,0370_eid_dnn_64-3-10_bear_10_n02134418_2964.png,n02134418_2964.png,1.0,1.4332018,0.90476793,0.37365916
vit_b_16,1,371,NaN,elephant,elephant,16-3-10,0371_eid_dnn_16-3-10_elephant_10_n02504013_6904.png,n02504013_6904.png,1.0,3.6780953,2.6266074,0.74351424
vit_b_16,1,372,NaN,elephant,bottle,32-3-10,0372_eid_dnn_32-3-10_bottle_10_n02823428_13488.png,n02823428_13488.png,0.0,-0.3306971,1.3565168,-1.1930404
vit_b_16,1,373,NaN,car,car,1-3-10,0373_eid_dnn_1-3-10_car_10_n02814533_49499.png,n02814533_49499.png,1.0,4.7039237,0.7338757,2.8072479
vit_b_16,1,374,NaN,elephant,clock,64-3-10,0374_eid_dnn_64-3-10_clock_10_n03196217_1000.png,n03196217_1000.png,0.0,0.68447584,1.9814904,-0.9171277
vit_b_16,1,375,NaN,bear,boat,16-3-10,0375_eid_dnn_16-3-10_boat_10_n04612504_13446.png,n04612504_13446.png,0.0,0.5754238,1.4970986,-0.6517225
vit_b_16,1,376,NaN,cat,cat,8-3-10,0376_eid_dnn_8-3-10_cat_10_n02123159_7239.png,n02123159_7239.png,1.0,1.7592325,1.039244,0.5091087
vit_b_16,1,377,NaN,bottle,airplane,8-3-10,0377_eid_dnn_8-3-10_airplane_10_n02690373_7499.png,n02690373_7499.png,0.0,1.7073034,1.9053265,-0.14002347
vit_b_16,1,378,NaN,bear,dog,64-3-10,0378_eid_dnn_64-3-10_dog_10_n02100877_8862.png,n02100877_8862.png,0.0,0.78218514,1.1795741,-0.28099647
vit_b_16,1,379,NaN,keyboard,keyboard,2-3-10,0379_eid_dnn_2-3-10_keyboard_10_n03085013_7152.png,n03085013_7152.png,1.0,6.32775,0.3986907,4.192478
vit_b_16,1,380,NaN,bear,bottle,32-3-10,0380_eid_dnn_32-3-10_bottle_10_n03937543_3344.png,n03937543_3344.png,0.0,-0.4142923,1.74786,-1.5288726
vit_b_16,1,381,NaN,bear,bicycle,64-3-10,0381_eid_dnn_64-3-10_bicycle_10_n02835271_1721.png,n02835271_1721.png,0.0,-0.46307492,1.1294891,-1.1261128
vit_b_16,1,382,NaN,boat,boat,2-3-10,0382_eid_dnn_2-3-10_boat_10_n04273569_7039.png,n04273569_7039.png,1.0,2.924334,0.6718376,1.5927556
vit_b_16,1,383,NaN,airplane,airplane,1-3-10,0383_eid_dnn_1-3-10_airplane_10_n02690373_5790.png,n02690373_5790.png,1.0,8.421401,0.7068335,5.4550233
vit_b_16,1,384,NaN,bird,bird,2-3-10,0384_eid_dnn_2-3-10_bird_10_n02007558_4629.png,n02007558_4629.png,1.0,0.47870213,0.43413448,0.031514086
vit_b_16,1,385,NaN,airplane,airplane,8-3-10,0385_eid_dnn_8-3-10_airplane_10_n02690373_2313.png,n02690373_2313.png,1.0,9.3822775,0.78154254,6.081638
vit_b_16,1,386,NaN,car,car,2-3-10,0386_eid_dnn_2-3-10_car_10_n02814533_65093.png,n02814533_65093.png,1.0,2.802452,1.9608259,0.5951196
vit_b_16,1,387,NaN,bicycle,bicycle,2-3-10,0387_eid_dnn_2-3-10_bicycle_10_n03792782_4559.png,n03792782_4559.png,1.0,7.5388527,0.38266176,5.060191
vit_b_16,1,388,NaN,oven,oven,2-3-10,0388_eid_dnn_2-3-10_oven_10_n04111531_16696.png,n04111531_16696.png,1.0,10.019936,1.4144545,6.0849943
vit_b_16,1,389,NaN,bear,boat,32-3-10,0389_eid_dnn_32-3-10_boat_10_n04273569_5593.png,n04273569_5593.png,0.0,-0.7988944,1.6885152,-1.7588642
vit_b_16,1,390,NaN,knife,bottle,128-3-10,0390_eid_dnn_128-3-10_bottle_10_n03937543_6624.png,n03937543_6624.png,0.0,0.049770057,1.0437604,-0.7028573
vit_b_16,1,391,NaN,airplane,airplane,1-3-10,0391_eid_dnn_1-3-10_airplane_10_n02690373_12436.png,n02690373_12436.png,1.0,9.1417265,0.14228363,6.3635674
vit_b_16,1,392,NaN,car,bird,2-3-10,0392_eid_dnn_2-3-10_bird_10_n01828970_6924.png,n01828970_6924.png,0.0,0.08388442,0.31997684,-0.16694255
vit_b_16,1,393,NaN,airplane,airplane,4-3-10,0393_eid_dnn_4-3-10_airplane_10_n02690373_9605.png,n02690373_9605.png,1.0,8.779111,0.35655427,5.955647
vit_b_16,1,394,NaN,dog,truck,128-3-10,0394_eid_dnn_128-3-10_truck_10_n03796401_1335.png,n03796401_1335.png,0.0,-1.6544079,0.95027316,-1.8417877
vit_b_16,1,395,NaN,bear,chair,64-3-10,0395_eid_dnn_64-3-10_chair_10_n04429376_10476.png,n04429376_10476.png,0.0,-0.91248107,1.5920169,-1.7709476
vit_b_16,1,396,NaN,bottle,bottle,1-3-10,0396_eid_dnn_1-3-10_bottle_10_n04560804_32760.png,n04560804_32760.png,1.0,2.1931634,0.1754536,1.4267362
vit_b_16,1,397,NaN,airplane,airplane,32-3-10,0397_eid_dnn_32-3-10_airplane_10_n02690373_10817.png,n02690373_10817.png,1.0,3.9545426,1.537428,1.7091583
vit_b_16,1,398,NaN,bottle,car,32-3-10,0398_eid_dnn_32-3-10_car_10_n03100240_5946.png,n03100240_5946.png,0.0,-1.1015838,2.213609,-2.3441954
vit_b_16,1,399,NaN,bear,clock,64-3-10,0399_eid_dnn_64-3-10_clock_10_n02708093_2875.png,n02708093_2875.png,0.0,0.3658832,1.6275529,-0.89213514
vit_b_16,1,400,NaN,bear,bear,2-3-10,0400_eid_dnn_2-3-10_bear_10_n02133161_2456.png,n02133161_2456.png,1.0,5.4535484,1.1267399,3.0595157
vit_b_16,1,401,NaN,bear,bird,8-3-10,0401_eid_dnn_8-3-10_bird_10_n01855672_15317.png,n01855672_15317.png,0.0,-0.23401424,1.3317096,-1.107134
vit_b_16,1,402,NaN,dog,dog,8-3-10,0402_eid_dnn_8-3-10_dog_10_n02098286_2242.png,n02098286_2242.png,1.0,1.3864982,0.20714784,0.8339267
vit_b_16,1,403,NaN,knife,knife,2-3-10,0403_eid_dnn_2-3-10_knife_10_n03041632_43289.png,n03041632_43289.png,1.0,7.731963,1.397049,4.4794607
vit_b_16,1,404,NaN,bottle,bottle,4-3-10,0404_eid_dnn_4-3-10_bottle_10_n02823428_4387.png,n02823428_4387.png,1.0,4.0937853,0.33470964,2.658068
vit_b_16,1,405,NaN,bear,knife,64-3-10,0405_eid_dnn_64-3-10_knife_10_n03041632_13194.png,n03041632_13194.png,0.0,0.10784288,1.6689168,-1.103846
vit_b_16,1,406,NaN,airplane,airplane,8-3-10,0406_eid_dnn_8-3-10_airplane_10_n02690373_7465.png,n02690373_7465.png,1.0,3.932385,0.8380623,2.1880167
vit_b_16,1,407,NaN,knife,bird,4-3-10,0407_eid_dnn_4-3-10_bird_10_n02018207_2282.png,n02018207_2282.png,0.0,0.17354684,1.4454339,-0.89936
vit_b_16,1,408,NaN,elephant,chair,64-3-10,0408_eid_dnn_64-3-10_chair_10_n04099969_34351.png,n04099969_34351.png,0.0,-0.7577305,1.9163463,-1.8908578
vit_b_16,1,409,NaN,dog,bottle,64-3-10,0409_eid_dnn_64-3-10_bottle_10_n03937543_49.png,n03937543_49.png,0.0,0.17014648,1.0156316,-0.59784824
vit_b_16,1,410,NaN,bicycle,bicycle,8-3-10,0410_eid_dnn_8-3-10_bicycle_10_n03792782_9833.png,n03792782_9833.png,1.0,2.9089909,1.1181101,1.266344
vit_b_16,1,411,NaN,clock,clock,4-3-10,0411_eid_dnn_4-3-10_clock_10_n03196217_10384.png,n03196217_10384.png,1.0,4.363096,1.8319987,1.7897562
vit_b_16,1,412,NaN,elephant,truck,64-3-10,0412_eid_dnn_64-3-10_truck_10_n04467665_4492.png,n04467665_4492.png,0.0,-1.1176472,1.5368859,-1.8770382
vit_b_16,1,413,NaN,elephant,bottle,128-3-10,0413_eid_dnn_128-3-10_bottle_10_n03983396_5148.png,n03983396_5148.png,0.0,0.03368241,1.1358466,-0.7793478
vit_b_16,1,414,NaN,clock,clock,128-3-10,0414_eid_dnn_128-3-10_clock_10_n04548280_4364.png,n04548280_4364.png,1.0,1.413371,0.2600316,0.8155341
vit_b_16,1,415,NaN,cat,cat,1-3-10,0415_eid_dnn_1-3-10_cat_10_n02123394_6792.png,n02123394_6792.png,1.0,3.597825,0.16976516,2.4240043
vit_b_16,1,416,NaN,bear,oven,16-3-10,0416_eid_dnn_16-3-10_oven_10_n04111531_1298.png,n04111531_1298.png,0.0,-0.44604138,2.8727884,-2.3467672
vit_b_16,1,417,NaN,knife,clock,8-3-10,0417_eid_dnn_8-3-10_clock_10_n04548280_2334.png,n04548280_2334.png,0.0,0.04840408,1.0272485,-0.69214755
vit_b_16,1,418,NaN,oven,car,32-3-10,0418_eid_dnn_32-3-10_car_10_n04285008_15570.png,n04285008_15570.png,0.0,-0.8428753,4.5324693,-3.800943
vit_b_16,1,419,NaN,elephant,dog,32-3-10,0419_eid_dnn_32-3-10_dog_10_n02087394_7569.png,n02087394_7569.png,0.0,0.45127684,1.9936585,-1.0906286
vit_b_16,1,420,NaN,bicycle,clock,32-3-10,0420_eid_dnn_32-3-10_clock_10_n03196217_11445.png,n03196217_11445.png,0.0,1.0896072,1.9582884,-0.61425036
vit_b_16,1,421,NaN,elephant,chair,32-3-10,0421_eid_dnn_32-3-10_chair_10_n04099969_3095.png,n04099969_3095.png,0.0,-0.50342053,1.6372523,-1.5136844
vit_b_16,1,422,NaN,elephant,bird,64-3-10,0422_eid_dnn_64-3-10_bird_10_n01601694_935.png,n01601694_935.png,0.0,0.2901505,1.0033736,-0.5043249
vit_b_16,1,423,NaN,bird,bird,2-3-10,0423_eid_dnn_2-3-10_bird_10_n01592084_3570.png,n01592084_3570.png,1.0,0.80379736,0.64798,0.110179536
vit_b_16,1,424,NaN,dog,dog,64-3-10,0424_eid_dnn_64-3-10_dog_10_n02090379_605.png,n02090379_605.png,1.0,0.9582487,0.9408864,0.012276998
vit_b_16,1,425,NaN,airplane,airplane,1-3-10,0425_eid_dnn_1-3-10_airplane_10_n02690373_3912.png,n02690373_3912.png,1.0,9.112183,0.26902804,6.253055
vit_b_16,1,426,NaN,elephant,oven,128-3-10,0426_eid_dnn_128-3-10_oven_10_n04111531_986.png,n04111531_986.png,0.0,-1.6745771,1.1131444,-1.9712169
vit_b_16,1,427,NaN,elephant,knife,32-3-10,0427_eid_dnn_32-3-10_knife_10_n03041632_23736.png,n03041632_23736.png,0.0,0.08071901,1.4988418,-1.0027642
vit_b_16,1,428,NaN,clock,clock,4-3-10,0428_eid_dnn_4-3-10_clock_10_n04548280_10686.png,n04548280_10686.png,1.0,1.8327984,1.147522,0.4845636
vit_b_16,1,429,NaN,bear,oven,32-3-10,0429_eid_dnn_32-3-10_oven_10_n04111531_21460.png,n04111531_21460.png,0.0,-0.2650793,1.3436483,-1.1375422
vit_b_16,1,430,NaN,elephant,bottle,32-3-10,0430_eid_dnn_32-3-10_bottle_10_n04557648_3675.png,n04557648_3675.png,0.0,-0.3314073,1.042455,-0.9714673
vit_b_16,1,431,NaN,clock,chair,8-3-10,0431_eid_dnn_8-3-10_chair_10_n02791124_495.png,n02791124_495.png,0.0,0.5009371,0.718674,-0.15396324
vit_b_16,1,432,NaN,dog,chair,128-3-10,0432_eid_dnn_128-3-10_chair_10_n04429376_9165.png,n04429376_9165.png,0.0,-0.9940868,1.3822544,-1.6803269
vit_b_16,1,433,NaN,clock,clock,1-3-10,0433_eid_dnn_1-3-10_clock_10_n04548280_2937.png,n04548280_2937.png,1.0,5.3784013,0.7356763,3.2829025
vit_b_16,1,434,NaN,bottle,bear,32-3-10,0434_eid_dnn_32-3-10_bear_10_n02134418_5849.png,n02134418_5849.png,0.0,0.67268455,0.9209076,-0.17552021
vit_b_16,1,435,NaN,clock,bottle,128-3-10,0435_eid_dnn_128-3-10_bottle_10_n04560804_2521.png,n04560804_2521.png,0.0,0.014673301,2.451327,-1.7229745
vit_b_16,1,436,NaN,car,car,8-3-10,0436_eid_dnn_8-3-10_car_10_n04285008_11600.png,n04285008_11600.png,1.0,4.005876,3.4111586,0.4205288
vit_b_16,1,437,NaN,knife,knife,2-3-10,0437_eid_dnn_2-3-10_knife_10_n03041632_79317.png,n03041632_79317.png,1.0,7.7891803,1.0085055,4.7946615
vit_b_16,1,438,NaN,airplane,truck,32-3-10,0438_eid_dnn_32-3-10_truck_10_n03417042_6467.png,n03417042_6467.png,0.0,-0.43362546,3.0373483,-2.454349
vit_b_16,1,439,NaN,airplane,airplane,64-3-10,0439_eid_dnn_64-3-10_airplane_10_n02690373_303.png,n02690373_303.png,1.0,0.72969866,0.48780614,0.17104384
vit_b_16,1,440,NaN,elephant,chair,64-3-10,0440_eid_dnn_64-3-10_chair_10_n04099969_2354.png,n04099969_2354.png,0.0,-0.72757816,1.017941,-1.2342684
vit_b_16,1,441,NaN,elephant,clock,128-3-10,0441_eid_dnn_128-3-10_clock_10_n04548280_377.png,n04548280_377.png,0.0,0.48090467,1.0723904,-0.4182436
vit_b_16,1,442,NaN,elephant,bicycle,32-3-10,0442_eid_dnn_32-3-10_bicycle_10_n03792782_11597.png,n03792782_11597.png,0.0,0.8137286,3.140541,-1.6453049
vit_b_16,1,443,NaN,bottle,bottle,2-3-10,0443_eid_dnn_2-3-10_bottle_10_n04579145_215.png,n04579145_215.png,1.0,2.0512722,0.3613567,1.1949507
vit_b_16,1,444,NaN,car,car,4-3-10,0444_eid_dnn_4-3-10_car_10_n02814533_95669.png,n02814533_95669.png,1.0,5.869539,0.7880877,3.5931284
vit_b_16,1,445,NaN,elephant,chair,32-3-10,0445_eid_dnn_32-3-10_chair_10_n04429376_51025.png,n04429376_51025.png,0.0,-0.6439482,2.1891603,-2.0033102
vit_b_16,1,446,NaN,cat,cat,4-3-10,0446_eid_dnn_4-3-10_cat_10_n02123045_2757.png,n02123045_2757.png,1.0,4.318852,1.3095616,2.1278896
vit_b_16,1,447,NaN,bottle,bottle,4-3-10,0447_eid_dnn_4-3-10_bottle_10_n03937543_2135.png,n03937543_2135.png,1.0,3.5911202,0.51715744,2.17362
vit_b_16,1,448,NaN,airplane,bird,2-3-10,0448_eid_dnn_2-3-10_bird_10_n01855032_7457.png,n01855032_7457.png,0.0,0.21759315,0.6753605,-0.3236904
vit_b_16,1,449,NaN,airplane,car,16-3-10,0449_eid_dnn_16-3-10_car_10_n02814533_24935.png,n02814533_24935.png,0.0,0.13550459,2.733089,-1.8367696
vit_b_16,1,450,NaN,keyboard,keyboard,4-3-10,0450_eid_dnn_4-3-10_keyboard_10_n04505470_1371.png,n04505470_1371.png,1.0,5.3163114,1.9062946,2.411246
vit_b_16,1,451,NaN,bear,dog,16-3-10,0451_eid_dnn_16-3-10_dog_10_n02099267_2379.png,n02099267_2379.png,0.0,0.77045035,2.3539333,-1.1196916
vit_b_16,1,452,NaN,cat,cat,8-3-10,0452_eid_dnn_8-3-10_cat_10_n02123394_8009.png,n02123394_8009.png,1.0,1.9506221,0.57335776,0.9738729
vit_b_16,1,453,NaN,keyboard,keyboard,2-3-10,0453_eid_dnn_2-3-10_keyboard_10_n03085013_29042.png,n03085013_29042.png,1.0,6.525668,2.269202,3.0097759
vit_b_16,1,454,NaN,dog,airplane,128-3-10,0454_eid_dnn_128-3-10_airplane_10_n02690373_2131.png,n02690373_2131.png,0.0,-0.8133707,1.3490157,-1.5290381
vit_b_16,1,455,NaN,car,car,8-3-10,0455_eid_dnn_8-3-10_car_10_n03100240_327.png,n03100240_327.png,1.0,2.666549,0.8584156,1.2785434
vit_b_16,1,456,NaN,elephant,elephant,2-3-10,0456_eid_dnn_2-3-10_elephant_10_n02504458_4163.png,n02504458_4163.png,1.0,6.42639,0.24241832,4.3727283
vit_b_16,1,457,NaN,airplane,knife,1-3-10,0457_eid_dnn_1-3-10_knife_10_n03041632_9635.png,n03041632_9635.png,0.0,1.4060138,3.485703,-1.4705622
vit_b_16,1,458,NaN,cat,airplane,16-3-10,0458_eid_dnn_16-3-10_airplane_10_n02690373_1044.png,n02690373_1044.png,0.0,0.28607404,1.0123135,-0.5135288
vit_b_16,1,459,NaN,dog,bottle,16-3-10,0459_eid_dnn_16-3-10_bottle_10_n04560804_5441.png,n04560804_5441.png,0.0,0.18318184,1.1744127,-0.7009061
vit_b_16,1,460,NaN,cat,cat,8-3-10,0460_eid_dnn_8-3-10_cat_10_n02123159_988.png,n02123159_988.png,1.0,3.6247263,0.8000253,1.9973654
vit_b_16,1,461,NaN,elephant,bird,64-3-10,0461_eid_dnn_64-3-10_bird_10_n01843383_4667.png,n01843383_4667.png,0.0,-0.5396266,0.9477952,-1.051766
vit_b_16,1,462,NaN,airplane,airplane,2-3-10,0462_eid_dnn_2-3-10_airplane_10_n02690373_6978.png,n02690373_6978.png,1.0,8.972773,0.2802256,6.146559
vit_b_16,1,463,NaN,dog,chair,128-3-10,0463_eid_dnn_128-3-10_chair_10_n04099969_5901.png,n04099969_5901.png,0.0,-0.6573304,1.094188,-1.2385105
vit_b_16,1,464,NaN,elephant,truck,8-3-10,0464_eid_dnn_8-3-10_truck_10_n03417042_29849.png,n03417042_29849.png,0.0,1.5729003,3.2026114,-1.1523799
vit_b_16,1,465,NaN,airplane,airplane,1-3-10,0465_eid_dnn_1-3-10_airplane_10_n02690373_427.png,n02690373_427.png,1.0,8.870475,0.37396878,6.007937
vit_b_16,1,466,NaN,bottle,bottle,4-3-10,0466_eid_dnn_4-3-10_bottle_10_n03983396_2305.png,n03983396_2305.png,1.0,4.6720138,0.44201773,2.991059
vit_b_16,1,467,NaN,clock,oven,64-3-10,0467_eid_dnn_64-3-10_oven_10_n04111531_15296.png,n04111531_15296.png,0.0,-1.3247578,1.3053693,-1.8597807
vit_b_16,1,468,NaN,cat,cat,4-3-10,0468_eid_dnn_4-3-10_cat_10_n02123159_6728.png,n02123159_6728.png,1.0,3.458395,1.8386862,1.1453071
vit_b_16,1,469,NaN,elephant,elephant,4-3-10,0469_eid_dnn_4-3-10_elephant_10_n02504458_12449.png,n02504458_12449.png,1.0,6.7721825,0.23906411,4.619612
vit_b_16,1,470,NaN,elephant,elephant,128-3-10,0470_eid_dnn_128-3-10_elephant_10_n02504458_12165.png,n02504458_12165.png,1.0,1.2371029,1.0384828,0.1404456
vit_b_16,1,471,NaN,airplane,airplane,8-3-10,0471_eid_dnn_8-3-10_airplane_10_n02690373_5010.png,n02690373_5010.png,1.0,4.992086,2.485977,1.7720867
vit_b_16,1,472,NaN,elephant,dog,64-3-10,0472_eid_dnn_64-3-10_dog_10_n02100236_4549.png,n02100236_4549.png,0.0,0.8594312,1.7318028,-0.6168599
vit_b_16,1,473,NaN,boat,boat,4-3-10,0473_eid_dnn_4-3-10_boat_10_n03344393_4289.png,n03344393_4289.png,1.0,4.404627,1.9055231,1.7671332
vit_b_16,1,474,NaN,elephant,chair,64-3-10,0474_eid_dnn_64-3-10_chair_10_n04099969_48169.png,n04099969_48169.png,0.0,-0.98892355,1.3591092,-1.6603099
vit_b_16,1,475,NaN,airplane,airplane,4-3-10,0475_eid_dnn_4-3-10_airplane_10_n02690373_1996.png,n02690373_1996.png,1.0,9.988184,0.46125063,6.7365594
vit_b_16,1,476,NaN,cat,truck,128-3-10,0476_eid_dnn_128-3-10_truck_10_n03417042_28078.png,n03417042_28078.png,0.0,-1.4160392,2.029967,-2.4366944
vit_b_16,1,477,NaN,truck,truck,8-3-10,0477_eid_dnn_8-3-10_truck_10_n04467665_3098.png,n04467665_3098.png,1.0,2.6496067,1.314478,0.94407856
vit_b_16,1,478,NaN,elephant,elephant,4-3-10,0478_eid_dnn_4-3-10_elephant_10_n02504458_847.png,n02504458_847.png,1.0,7.5423365,0.5037999,4.976997
vit_b_16,1,479,NaN,bottle,bicycle,8-3-10,0479_eid_dnn_8-3-10_bicycle_10_n03792782_5880.png,n03792782_5880.png,0.0,0.09284887,0.97269213,-0.62214315
vit_b_16,1,480,NaN,clock,bear,128-3-10,0480_eid_dnn_128-3-10_bear_10_n02132136_30976.png,n02132136_30976.png,0.0,0.40180963,1.4581045,-0.7469133
vit_b_16,1,481,NaN,elephant,chair,64-3-10,0481_eid_dnn_64-3-10_chair_10_n02791124_2057.png,n02791124_2057.png,0.0,-0.27953205,1.6751802,-1.3821903
vit_b_16,1,482,NaN,cat,keyboard,128-3-10,0482_eid_dnn_128-3-10_keyboard_10_n03085013_7286.png,n03085013_7286.png,0.0,-0.10127313,1.2462424,-0.9528374
vit_b_16,1,483,NaN,clock,clock,32-3-10,0483_eid_dnn_32-3-10_clock_10_n04548280_1323.png,n04548280_1323.png,1.0,0.84186727,0.78440344,0.04063306
vit_b_16,1,484,NaN,elephant,bottle,128-3-10,0484_eid_dnn_128-3-10_bottle_10_n03983396_18508.png,n03983396_18508.png,0.0,-0.51143944,1.7904279,-1.6276661
vit_b_16,1,485,NaN,knife,bottle,8-3-10,0485_eid_dnn_8-3-10_bottle_10_n03983396_3880.png,n03983396_3880.png,0.0,0.14303568,0.7601423,-0.43636033
vit_b_16,1,486,NaN,elephant,dog,128-3-10,0486_eid_dnn_128-3-10_dog_10_n02095570_601.png,n02095570_601.png,0.0,0.5695123,0.7145717,-0.10257249
vit_b_16,1,487,NaN,cat,bird,32-3-10,0487_eid_dnn_32-3-10_bird_10_n01797886_21510.png,n01797886_21510.png,0.0,-0.103158385,1.6806382,-1.2613347
vit_b_16,1,488,NaN,chair,chair,1-3-10,0488_eid_dnn_1-3-10_chair_10_n04099969_9425.png,n04099969_9425.png,1.0,2.53716,0.69668853,1.3014098
vit_b_16,1,489,NaN,knife,keyboard,8-3-10,0489_eid_dnn_8-3-10_keyboard_10_n04505470_4228.png,n04505470_4228.png,0.0,0.76890296,2.2592864,-1.0538602
vit_b_16,1,490,NaN,dog,elephant,32-3-10,0490_eid_dnn_32-3-10_elephant_10_n02504013_7553.png,n02504013_7553.png,0.0,0.1870332,1.2069201,-0.721169
vit_b_16,1,491,NaN,cat,cat,64-3-10,0491_eid_dnn_64-3-10_cat_10_n02125311_8090.png,n02125311_8090.png,1.0,1.2905368,1.0251434,0.18766145
vit_b_16,1,492,NaN,clock,keyboard,8-3-10,0492_eid_dnn_8-3-10_keyboard_10_n04505470_10041.png,n04505470_10041.png,0.0,0.27453923,1.1396549,-0.61172915
vit_b_16,1,493,NaN,bicycle,bicycle,4-3-10,0493_eid_dnn_4-3-10_bicycle_10_n03792782_1833.png,n03792782_1833.png,1.0,8.680515,0.5533591,5.7467675
vit_b_16,1,494,NaN,knife,bottle,4-3-10,0494_eid_dnn_4-3-10_bottle_10_n04557648_11642.png,n04557648_11642.png,0.0,1.2316618,2.0781136,-0.5985318
vit_b_16,1,495,NaN,cat,car,128-3-10,0495_eid_dnn_128-3-10_car_10_n03100240_7219.png,n03100240_7219.png,0.0,-0.8104778,0.691829,-1.0622914
vit_b_16,1,496,NaN,truck,truck,1-3-10,0496_eid_dnn_1-3-10_truck_10_n03796401_9642.png,n03796401_9642.png,1.0,1.5994217,0.33328116,0.89529663
vit_b_16,1,497,NaN,bear,cat,1-3-10,0497_eid_dnn_1-3-10_cat_10_n02125311_13348.png,n02125311_13348.png,0.0,1.2392181,4.303834,-2.1670105
vit_b_16,1,498,NaN,cat,bottle,128-3-10,0498_eid_dnn_128-3-10_bottle_10_n04560804_5540.png,n04560804_5540.png,0.0,-0.5970303,1.3810703,-1.3987284
vit_b_16,1,499,NaN,bottle,bottle,4-3-10,0499_eid_dnn_4-3-10_bottle_10_n03983396_9604.png,n03983396_9604.png,1.0,3.090263,0.3446858,1.9414163
vit_b_16,1,500,NaN,airplane,truck,32-3-10,0500_eid_dnn_32-3-10_truck_10_n03417042_5180.png,n03417042_5180.png,0.0,-0.57989347,2.0624313,-1.8684059
vit_b_16,1,501,NaN,bear,dog,16-3-10,0501_eid_dnn_16-3-10_dog_10_n02109525_3364.png,n02109525_3364.png,0.0,0.5917338,1.3808651,-0.5580001
vit_b_16,1,502,NaN,clock,clock,2-3-10,0502_eid_dnn_2-3-10_clock_10_n04548280_353.png,n04548280_353.png,1.0,6.1044517,0.3610666,4.0611863
vit_b_16,1,503,NaN,dog,dog,1-3-10,0503_eid_dnn_1-3-10_dog_10_n02111129_4423.png,n02111129_4423.png,1.0,0.19146508,0.07935491,0.079273865
vit_b_16,1,504,NaN,bear,dog,16-3-10,0504_eid_dnn_16-3-10_dog_10_n02108000_1538.png,n02108000_1538.png,0.0,1.182813,2.5137436,-0.9411101
vit_b_16,1,505,NaN,airplane,keyboard,16-3-10,0505_eid_dnn_16-3-10_keyboard_10_n03085013_3439.png,n03085013_3439.png,0.0,-0.4236007,3.2775512,-2.6171095
vit_b_16,1,506,NaN,truck,truck,8-3-10,0506_eid_dnn_8-3-10_truck_10_n03417042_4016.png,n03417042_4016.png,1.0,4.128409,1.202249,2.0691075
vit_b_16,1,507,NaN,elephant,knife,32-3-10,0507_eid_dnn_32-3-10_knife_10_n03041632_39883.png,n03041632_39883.png,0.0,0.15329875,1.4219074,-0.8970418
vit_b_16,1,508,NaN,elephant,bear,16-3-10,0508_eid_dnn_16-3-10_bear_10_n02132136_21181.png,n02132136_21181.png,0.0,1.9255509,2.0058491,-0.056779392
vit_b_16,1,509,NaN,elephant,elephant,8-3-10,0509_eid_dnn_8-3-10_elephant_10_n02504013_718.png,n02504013_718.png,1.0,6.350791,2.0211549,3.061515
vit_b_16,1,510,NaN,oven,oven,2-3-10,0510_eid_dnn_2-3-10_oven_10_n04111531_4146.png,n04111531_4146.png,1.0,8.690733,0.09437837,6.078541
vit_b_16,1,511,NaN,airplane,airplane,8-3-10,0511_eid_dnn_8-3-10_airplane_10_n02690373_10769.png,n02690373_10769.png,1.0,7.0337315,0.9472307,4.303806
vit_b_16,1,512,NaN,dog,dog,16-3-10,0512_eid_dnn_16-3-10_dog_10_n02109525_4516.png,n02109525_4516.png,1.0,0.8155882,0.4837539,0.23464228
vit_b_16,1,513,NaN,elephant,boat,4-3-10,0513_eid_dnn_4-3-10_boat_10_n02951358_12333.png,n02951358_12333.png,0.0,2.6215222,2.6278727,-0.004490494
vit_b_16,1,514,NaN,oven,chair,8-3-10,0514_eid_dnn_8-3-10_chair_10_n04099969_20421.png,n04099969_20421.png,0.0,1.7764113,1.7945215,-0.012805814
vit_b_16,1,515,NaN,chair,knife,4-3-10,0515_eid_dnn_4-3-10_knife_10_n03041632_21165.png,n03041632_21165.png,0.0,1.9557201,2.1147974,-0.11248463
vit_b_16,1,516,NaN,bicycle,bicycle,1-3-10,0516_eid_dnn_1-3-10_bicycle_10_n02835271_21439.png,n02835271_21439.png,1.0,6.124545,1.9603746,2.944513
vit_b_16,1,517,NaN,boat,boat,1-3-10,0517_eid_dnn_1-3-10_boat_10_n04273569_24526.png,n04273569_24526.png,1.0,1.6210676,0.431143,0.84140384
vit_b_16,1,518,NaN,dog,bottle,32-3-10,0518_eid_dnn_32-3-10_bottle_10_n04579145_2276.png,n04579145_2276.png,0.0,-0.018060816,1.0802307,-0.7766094
vit_b_16,1,519,NaN,bear,bear,8-3-10,0519_eid_dnn_8-3-10_bear_10_n02134418_1642.png,n02134418_1642.png,1.0,2.526317,1.5251999,0.70789665
vit_b_16,1,520,NaN,bicycle,bicycle,1-3-10,0520_eid_dnn_1-3-10_bicycle_10_n02835271_15468.png,n02835271_15468.png,1.0,5.3058596,0.29304394,3.544596
vit_b_16,1,521,NaN,clock,keyboard,64-3-10,0521_eid_dnn_64-3-10_keyboard_10_n03085013_26532.png,n03085013_26532.png,0.0,-0.3527785,2.4346588,-1.9710158
vit_b_16,1,522,NaN,cat,clock,64-3-10,0522_eid_dnn_64-3-10_clock_10_n03196217_6809.png,n03196217_6809.png,0.0,0.17279153,1.2313646,-0.74852425
vit_b_16,1,523,NaN,elephant,bear,64-3-10,0523_eid_dnn_64-3-10_bear_10_n02134418_4384.png,n02134418_4384.png,0.0,0.6238487,1.5885428,-0.6821418
vit_b_16,1,524,NaN,dog,dog,4-3-10,0524_eid_dnn_4-3-10_dog_10_n02086240_1183.png,n02086240_1183.png,1.0,0.669565,0.59522134,0.052568924
vit_b_16,1,525,NaN,chair,chair,1-3-10,0525_eid_dnn_1-3-10_chair_10_n04429376_294.png,n04429376_294.png,1.0,2.839541,0.752486,1.4757707
vit_b_16,1,526,NaN,elephant,clock,64-3-10,0526_eid_dnn_64-3-10_clock_10_n02708093_4893.png,n02708093_4893.png,0.0,1.3219835,1.5577278,-0.16669643
vit_b_16,1,527,NaN,bicycle,keyboard,64-3-10,0527_eid_dnn_64-3-10_keyboard_10_n03085013_3098.png,n03085013_3098.png,0.0,-0.52460957,2.0002463,-1.7853427
vit_b_16,1,528,NaN,bear,cat,16-3-10,0528_eid_dnn_16-3-10_cat_10_n02125311_22073.png,n02125311_22073.png,0.0,0.28526428,1.3716866,-0.7682166
vit_b_16,1,529,NaN,oven,bird,2-3-10,0529_eid_dnn_2-3-10_bird_10_n01558993_869.png,n01558993_869.png,0.0,-0.4249753,1.6061718,-1.436238
vit_b_16,1,530,NaN,airplane,bird,1-3-10,0530_eid_dnn_1-3-10_bird_10_n01817953_8025.png,n01817953_8025.png,0.0,0.21805094,0.53948045,-0.22728498
vit_b_16,1,531,NaN,chair,chair,2-3-10,0531_eid_dnn_2-3-10_chair_10_n04099969_24235.png,n04099969_24235.png,1.0,4.729657,1.8054093,2.0677555
vit_b_16,1,532,NaN,cat,knife,128-3-10,0532_eid_dnn_128-3-10_knife_10_n03041632_1201.png,n03041632_1201.png,0.0,0.03153196,1.4596556,-1.009836
vit_b_16,1,533,NaN,bicycle,bicycle,4-3-10,0533_eid_dnn_4-3-10_bicycle_10_n03792782_16212.png,n03792782_16212.png,1.0,5.8041654,0.3593313,3.8500793
vit_b_16,1,534,NaN,oven,oven,4-3-10,0534_eid_dnn_4-3-10_oven_10_n04111531_11655.png,n04111531_11655.png,1.0,4.5611253,3.3910022,0.827402
vit_b_16,1,535,NaN,airplane,bicycle,16-3-10,0535_eid_dnn_16-3-10_bicycle_10_n02835271_5152.png,n02835271_5152.png,0.0,-0.44867203,1.618684,-1.4618416
vit_b_16,1,536,NaN,airplane,bear,16-3-10,0536_eid_dnn_16-3-10_bear_10_n02132136_19290.png,n02132136_19290.png,0.0,0.763441,2.0698118,-0.9237436
vit_b_16,1,537,NaN,airplane,car,32-3-10,0537_eid_dnn_32-3-10_car_10_n03100240_6103.png,n03100240_6103.png,0.0,-0.58211476,2.0498295,-1.8610656
vit_b_16,1,538,NaN,airplane,airplane,16-3-10,0538_eid_dnn_16-3-10_airplane_10_n02690373_5714.png,n02690373_5714.png,1.0,3.0143228,1.1413075,1.3244219
vit_b_16,1,539,NaN,chair,chair,1-3-10,0539_eid_dnn_1-3-10_chair_10_n04429376_2915.png,n04429376_2915.png,1.0,3.8117108,1.2996434,1.7762998
vit_b_16,1,540,NaN,clock,clock,64-3-10,0540_eid_dnn_64-3-10_clock_10_n02708093_7827.png,n02708093_7827.png,1.0,1.1776263,0.9842038,0.13677032
vit_b_16,1,541,NaN,truck,truck,2-3-10,0541_eid_dnn_2-3-10_truck_10_n03417042_6247.png,n03417042_6247.png,1.0,2.9060879,0.5165416,1.6896645
vit_b_16,1,542,NaN,elephant,elephant,32-3-10,0542_eid_dnn_32-3-10_elephant_10_n02504013_947.png,n02504013_947.png,1.0,1.8614469,1.8086467,0.037335366
vit_b_16,1,543,NaN,truck,truck,1-3-10,0543_eid_dnn_1-3-10_truck_10_n03417042_2074.png,n03417042_2074.png,1.0,4.4274197,0.23852652,2.961995
vit_b_16,1,544,NaN,airplane,airplane,8-3-10,0544_eid_dnn_8-3-10_airplane_10_n02690373_5221.png,n02690373_5221.png,1.0,1.9214956,1.6751779,0.17417286
vit_b_16,1,545,NaN,oven,oven,4-3-10,0545_eid_dnn_4-3-10_oven_10_n04111531_6629.png,n04111531_6629.png,1.0,7.1981287,4.0703106,2.2117014
vit_b_16,1,546,NaN,knife,knife,1-3-10,0546_eid_dnn_1-3-10_knife_10_n03041632_36277.png,n03041632_36277.png,1.0,9.735053,0.34556192,6.639373
vit_b_16,1,547,NaN,cat,cat,64-3-10,0547_eid_dnn_64-3-10_cat_10_n02123597_4700.png,n02123597_4700.png,1.0,2.0501068,1.0958567,0.6747567
vit_b_16,1,548,NaN,airplane,airplane,16-3-10,0548_eid_dnn_16-3-10_airplane_10_n02690373_20042.png,n02690373_20042.png,1.0,3.6874478,0.8150598,2.031085
vit_b_16,1,549,NaN,dog,chair,32-3-10,0549_eid_dnn_32-3-10_chair_10_n02791124_15539.png,n02791124_15539.png,0.0,-0.9651967,1.1375165,-1.4868428
vit_b_16,1,550,NaN,keyboard,cat,1-3-10,0550_eid_dnn_1-3-10_cat_10_n02123394_5700.png,n02123394_5700.png,0.0,1.9344076,1.9805602,-0.03263481
vit_b_16,1,551,NaN,car,car,4-3-10,0551_eid_dnn_4-3-10_car_10_n04285008_13595.png,n04285008_13595.png,1.0,6.2052803,0.43031234,4.083519
vit_b_16,1,552,NaN,chair,chair,8-3-10,0552_eid_dnn_8-3-10_chair_10_n02791124_2282.png,n02791124_2282.png,1.0,2.0398066,1.3624012,0.47899792
vit_b_16,1,553,NaN,elephant,dog,2-3-10,0553_eid_dnn_2-3-10_dog_10_n02100877_3973.png,n02100877_3973.png,0.0,0.9663263,1.0806735,-0.08085565
vit_b_16,1,554,NaN,dog,truck,64-3-10,0554_eid_dnn_64-3-10_truck_10_n03417042_12297.png,n03417042_12297.png,0.0,-1.5360779,0.83813787,-1.678824
vit_b_16,1,555,NaN,bear,elephant,8-3-10,0555_eid_dnn_8-3-10_elephant_10_n02504013_6303.png,n02504013_6303.png,0.0,2.0462728,3.7761145,-1.2231828
vit_b_16,1,556,NaN,car,car,8-3-10,0556_eid_dnn_8-3-10_car_10_n02814533_43990.png,n02814533_43990.png,1.0,4.8372884,3.7436202,0.7733402
vit_b_16,1,557,NaN,cat,truck,16-3-10,0557_eid_dnn_16-3-10_truck_10_n04467665_58456.png,n04467665_58456.png,0.0,-1.2222449,1.4091502,-1.8606774
vit_b_16,1,558,NaN,cat,dog,4-3-10,0558_eid_dnn_4-3-10_dog_10_n02098105_526.png,n02098105_526.png,0.0,1.7051582,1.8492771,-0.101907454
vit_b_16,1,559,NaN,bicycle,bird,2-3-10,0559_eid_dnn_2-3-10_bird_10_n02037110_27907.png,n02037110_27907.png,0.0,-0.12830377,0.3798037,-0.35928622
vit_b_16,1,560,NaN,cat,keyboard,64-3-10,0560_eid_dnn_64-3-10_keyboard_10_n03085013_20849.png,n03085013_20849.png,0.0,-0.7290342,1.0099938,-1.2296785
vit_b_16,1,561,NaN,chair,chair,1-3-10,0561_eid_dnn_1-3-10_chair_10_n03376595_12524.png,n03376595_12524.png,1.0,3.908793,0.63010514,2.3183825
vit_b_16,1,562,NaN,dog,bird,64-3-10,0562_eid_dnn_64-3-10_bird_10_n02056570_27055.png,n02056570_27055.png,0.0,-0.62456733,1.1878033,-1.2815396
vit_b_16,1,563,NaN,elephant,truck,64-3-10,0563_eid_dnn_64-3-10_truck_10_n03417042_4934.png,n03417042_4934.png,0.0,-1.3176141,1.0500665,-1.674203
vit_b_16,1,564,NaN,airplane,knife,16-3-10,0564_eid_dnn_16-3-10_knife_10_n03041632_3210.png,n03041632_3210.png,0.0,0.4407032,3.0391042,-1.837347
vit_b_16,1,565,NaN,dog,dog,8-3-10,0565_eid_dnn_8-3-10_dog_10_n02096585_2118.png,n02096585_2118.png,1.0,0.57765204,0.3203332,0.1819519
vit_b_16,1,566,NaN,keyboard,keyboard,1-3-10,0566_eid_dnn_1-3-10_keyboard_10_n03085013_3539.png,n03085013_3539.png,1.0,6.67264,0.5843146,4.305096
vit_b_16,1,567,NaN,truck,truck,4-3-10,0567_eid_dnn_4-3-10_truck_10_n03417042_17215.png,n03417042_17215.png,1.0,1.7436571,0.38905853,0.9578458
vit_b_16,1,568,NaN,dog,cat,8-3-10,0568_eid_dnn_8-3-10_cat_10_n02123045_12657.png,n02123045_12657.png,0.0,1.4979709,1.6257666,-0.09036521
vit_b_16,1,569,NaN,airplane,knife,64-3-10,0569_eid_dnn_64-3-10_knife_10_n03041632_20576.png,n03041632_20576.png,0.0,0.6286969,1.2268324,-0.42294565
vit_b_16,1,570,NaN,knife,truck,8-3-10,0570_eid_dnn_8-3-10_truck_10_n04467665_23905.png,n04467665_23905.png,0.0,1.4326692,3.4894757,-1.454382
vit_b_16,1,571,NaN,dog,oven,128-3-10,0571_eid_dnn_128-3-10_oven_10_n04111531_9427.png,n04111531_9427.png,0.0,-0.38619235,0.6094161,-0.7040015
vit_b_16,1,572,NaN,airplane,oven,16-3-10,0572_eid_dnn_16-3-10_oven_10_n04111531_14329.png,n04111531_14329.png,0.0,0.23113304,2.827424,-1.835855
vit_b_16,1,573,NaN,elephant,bird,64-3-10,0573_eid_dnn_64-3-10_bird_10_n01614925_19422.png,n01614925_19422.png,0.0,-0.4646399,2.4741387,-2.0780303
vit_b_16,1,574,NaN,elephant,bottle,128-3-10,0574_eid_dnn_128-3-10_bottle_10_n02823428_1154.png,n02823428_1154.png,0.0,-0.78792953,2.2452836,-2.1448057
vit_b_16,1,575,NaN,dog,dog,4-3-10,0575_eid_dnn_4-3-10_dog_10_n02093859_4797.png,n02093859_4797.png,1.0,0.5394353,0.41363376,0.08895514
vit_b_16,1,576,NaN,airplane,airplane,1-3-10,0576_eid_dnn_1-3-10_airplane_10_n02690373_2632.png,n02690373_2632.png,1.0,9.268708,0.3032231,6.3395557
vit_b_16,1,577,NaN,bear,keyboard,32-3-10,0577_eid_dnn_32-3-10_keyboard_10_n03085013_15825.png,n03085013_15825.png,0.0,-0.6499984,1.280129,-1.3648062
vit_b_16,1,578,NaN,car,car,4-3-10,0578_eid_dnn_4-3-10_car_10_n02814533_52674.png,n02814533_52674.png,1.0,4.8338747,3.843562,0.70025694
vit_b_16,1,579,NaN,airplane,truck,32-3-10,0579_eid_dnn_32-3-10_truck_10_n04467665_32937.png,n04467665_32937.png,0.0,-0.7709025,2.163589,-2.0749989
vit_b_16,1,580,NaN,bear,bird,4-3-10,0580_eid_dnn_4-3-10_bird_10_n01537544_20.png,n01537544_20.png,0.0,0.9063935,1.3991718,-0.34844688
vit_b_16,1,581,NaN,clock,clock,8-3-10,0581_eid_dnn_8-3-10_clock_10_n03196217_564.png,n03196217_564.png,1.0,3.6862202,0.9609814,1.9270349
vit_b_16,1,582,NaN,knife,knife,1-3-10,0582_eid_dnn_1-3-10_knife_10_n03041632_76163.png,n03041632_76163.png,1.0,6.8436704,3.0193274,2.7042189
vit_b_16,1,583,NaN,elephant,airplane,32-3-10,0583_eid_dnn_32-3-10_airplane_10_n02690373_8559.png,n02690373_8559.png,0.0,-0.33107775,0.813061,-0.8090283
vit_b_16,1,584,NaN,keyboard,keyboard,2-3-10,0584_eid_dnn_2-3-10_keyboard_10_n04505470_3941.png,n04505470_3941.png,1.0,5.01149,0.75518423,3.0096626
vit_b_16,1,585,NaN,elephant,oven,64-3-10,0585_eid_dnn_64-3-10_oven_10_n04111531_9910.png,n04111531_9910.png,0.0,-0.5350613,1.219447,-1.2406247
vit_b_16,1,586,NaN,elephant,bottle,128-3-10,0586_eid_dnn_128-3-10_bottle_10_n03937543_7191.png,n03937543_7191.png,0.0,-0.37785766,1.0858049,-1.0349658
vit_b_16,1,587,NaN,boat,boat,4-3-10,0587_eid_dnn_4-3-10_boat_10_n03662601_14818.png,n03662601_14818.png,1.0,3.38613,1.5510691,1.297584
vit_b_16,1,588,NaN,bear,boat,128-3-10,0588_eid_dnn_128-3-10_boat_10_n02951358_588.png,n02951358_588.png,0.0,-0.8193982,1.46409,-1.61467
vit_b_16,1,589,NaN,bear,bear,1-3-10,0589_eid_dnn_1-3-10_bear_10_n02133161_2851.png,n02133161_2851.png,1.0,5.398026,0.18510109,3.6860948
vit_b_16,1,590,NaN,chair,chair,2-3-10,0590_eid_dnn_2-3-10_chair_10_n03376595_16212.png,n03376595_16212.png,1.0,2.875151,2.1259558,0.52976096
vit_b_16,1,591,NaN,boat,boat,8-3-10,0591_eid_dnn_8-3-10_boat_10_n04612504_1613.png,n04612504_1613.png,1.0,0.9423742,0.78894556,0.10849046
vit_b_16,1,592,NaN,cat,chair,128-3-10,0592_eid_dnn_128-3-10_chair_10_n02791124_3198.png,n02791124_3198.png,0.0,-0.46897894,1.1245481,-1.1267939
vit_b_16,1,593,NaN,airplane,knife,16-3-10,0593_eid_dnn_16-3-10_knife_10_n03041632_32785.png,n03041632_32785.png,0.0,0.8815726,4.4987793,-2.5577514
vit_b_16,1,594,NaN,cat,oven,32-3-10,0594_eid_dnn_32-3-10_oven_10_n04111531_22797.png,n04111531_22797.png,0.0,-0.010795488,1.3317994,-0.9493579
vit_b_16,1,595,NaN,bicycle,oven,128-3-10,0595_eid_dnn_128-3-10_oven_10_n04111531_5077.png,n04111531_5077.png,0.0,-1.0616797,0.6757505,-1.2285488
vit_b_16,1,596,NaN,bear,bear,1-3-10,0596_eid_dnn_1-3-10_bear_10_n02134418_2569.png,n02134418_2569.png,1.0,2.9052606,0.2204604,1.8984405
vit_b_16,1,597,NaN,car,car,1-3-10,0597_eid_dnn_1-3-10_car_10_n03100240_15284.png,n03100240_15284.png,1.0,5.3384595,2.6704059,1.8865988
vit_b_16,1,598,NaN,keyboard,keyboard,2-3-10,0598_eid_dnn_2-3-10_keyboard_10_n04505470_4791.png,n04505470_4791.png,1.0,5.656145,0.35960954,3.7452161
vit_b_16,1,599,NaN,elephant,bicycle,64-3-10,0599_eid_dnn_64-3-10_bicycle_10_n03792782_551.png,n03792782_551.png,0.0,-0.31668532,0.839172,-0.81731457
vit_b_16,1,600,NaN,cat,bottle,1-3-10,0600_eid_dnn_1-3-10_bottle_10_n03937543_2999.png,n03937543_2999.png,0.0,1.0239679,3.6217754,-1.8369273
vit_b_16,1,601,NaN,airplane,airplane,16-3-10,0601_eid_dnn_16-3-10_airplane_10_n02690373_7279.png,n02690373_7279.png,1.0,1.8383273,0.82699096,0.71512276
vit_b_16,1,602,NaN,clock,airplane,128-3-10,0602_eid_dnn_128-3-10_airplane_10_n02690373_9312.png,n02690373_9312.png,0.0,-0.86100346,1.2834169,-1.5163342
vit_b_16,1,603,NaN,cat,chair,8-3-10,0603_eid_dnn_8-3-10_chair_10_n04429376_2591.png,n04429376_2591.png,0.0,-0.6958594,1.3378962,-1.4380823
vit_b_16,1,604,NaN,elephant,dog,32-3-10,0604_eid_dnn_32-3-10_dog_10_n02109525_175.png,n02109525_175.png,0.0,-0.17265336,0.92155766,-0.773724
vit_b_16,1,605,NaN,chair,dog,1-3-10,0605_eid_dnn_1-3-10_dog_10_n02106166_476.png,n02106166_476.png,0.0,0.9676509,1.6908717,-0.5113944
vit_b_16,1,606,NaN,boat,boat,1-3-10,0606_eid_dnn_1-3-10_boat_10_n02951358_1136.png,n02951358_1136.png,1.0,3.730329,3.6322203,0.06937338
vit_b_16,1,607,NaN,boat,knife,2-3-10,0607_eid_dnn_2-3-10_knife_10_n03041632_3079.png,n03041632_3079.png,0.0,0.3292033,3.1064253,-1.9637924
vit_b_16,1,608,NaN,elephant,truck,128-3-10,0608_eid_dnn_128-3-10_truck_10_n03417042_18603.png,n03417042_18603.png,0.0,-1.4653889,1.2166561,-1.8964922
vit_b_16,1,609,NaN,clock,cat,128-3-10,0609_eid_dnn_128-3-10_cat_10_n02123045_9492.png,n02123045_9492.png,0.0,0.26542333,1.3793736,-0.7876818
vit_b_16,1,610,NaN,airplane,boat,64-3-10,0610_eid_dnn_64-3-10_boat_10_n03344393_8642.png,n03344393_8642.png,0.0,-0.4098516,1.7997139,-1.5623987
vit_b_16,1,611,NaN,airplane,bird,32-3-10,0611_eid_dnn_32-3-10_bird_10_n02009229_6228.png,n02009229_6228.png,0.0,-0.8520813,2.5183425,-2.3832495
vit_b_16,1,612,NaN,oven,chair,8-3-10,0612_eid_dnn_8-3-10_chair_10_n02791124_13704.png,n02791124_13704.png,0.0,-0.22324459,1.2504649,-1.04207
vit_b_16,1,613,NaN,elephant,knife,64-3-10,0613_eid_dnn_64-3-10_knife_10_n03041632_28129.png,n03041632_28129.png,0.0,-0.5216519,1.3946002,-1.3549949
vit_b_16,1,614,NaN,bear,keyboard,32-3-10,0614_eid_dnn_32-3-10_keyboard_10_n04505470_8244.png,n04505470_8244.png,0.0,-0.75561774,0.9313754,-1.1928843
vit_b_16,1,615,NaN,knife,knife,4-3-10,0615_eid_dnn_4-3-10_knife_10_n03041632_30196.png,n03041632_30196.png,1.0,7.0578003,0.5552933,4.597967
vit_b_16,1,616,NaN,cat,keyboard,32-3-10,0616_eid_dnn_32-3-10_keyboard_10_n04505470_5109.png,n04505470_5109.png,0.0,-0.27672902,0.76126844,-0.73397505
vit_b_16,1,617,NaN,knife,knife,8-3-10,0617_eid_dnn_8-3-10_knife_10_n03041632_44738.png,n03041632_44738.png,1.0,8.252931,1.1349581,5.0331664
vit_b_16,1,618,NaN,car,car,1-3-10,0618_eid_dnn_1-3-10_car_10_n02814533_4726.png,n02814533_4726.png,1.0,3.2246664,2.0316954,0.8435579
vit_b_16,1,619,NaN,elephant,elephant,2-3-10,0619_eid_dnn_2-3-10_elephant_10_n02504458_13583.png,n02504458_13583.png,1.0,7.1117496,0.61703944,4.5924535
vit_b_16,1,620,NaN,boat,boat,1-3-10,0620_eid_dnn_1-3-10_boat_10_n03662601_26396.png,n03662601_26396.png,1.0,4.3048325,0.46051654,2.718342
vit_b_16,1,621,NaN,boat,boat,4-3-10,0621_eid_dnn_4-3-10_boat_10_n04273569_4518.png,n04273569_4518.png,1.0,3.2220764,1.8209555,0.9907421
vit_b_16,1,622,NaN,dog,bird,16-3-10,0622_eid_dnn_16-3-10_bird_10_n01843383_3274.png,n01843383_3274.png,0.0,-0.8368591,1.7925006,-1.8592381
vit_b_16,1,623,NaN,bear,clock,16-3-10,0623_eid_dnn_16-3-10_clock_10_n02708093_3621.png,n02708093_3621.png,0.0,-0.6852283,1.0005641,-1.1920353
vit_b_16,1,624,NaN,airplane,boat,16-3-10,0624_eid_dnn_16-3-10_boat_10_n02951358_1360.png,n02951358_1360.png,0.0,-0.040702127,1.7905635,-1.2949003
vit_b_16,1,625,NaN,keyboard,keyboard,4-3-10,0625_eid_dnn_4-3-10_keyboard_10_n03085013_5819.png,n03085013_5819.png,1.0,7.607266,0.5653788,4.9793663
vit_b_16,1,626,NaN,dog,dog,64-3-10,0626_eid_dnn_64-3-10_dog_10_n02087046_15420.png,n02087046_15420.png,1.0,0.5310037,0.44130954,0.06342336
vit_b_16,1,627,NaN,bottle,bottle,1-3-10,0627_eid_dnn_1-3-10_bottle_10_n03937543_1358.png,n03937543_1358.png,1.0,1.7969881,0.94564456,0.6019908
vit_b_16,1,628,NaN,cat,bottle,16-3-10,0628_eid_dnn_16-3-10_bottle_10_n02823428_12643.png,n02823428_12643.png,0.0,0.016880628,1.6044456,-1.1225779
vit_b_16,1,629,NaN,keyboard,keyboard,1-3-10,0629_eid_dnn_1-3-10_keyboard_10_n04505470_1245.png,n04505470_1245.png,1.0,4.64883,0.15478314,3.1777709
vit_b_16,1,630,NaN,oven,car,16-3-10,0630_eid_dnn_16-3-10_car_10_n02814533_47325.png,n02814533_47325.png,0.0,-0.45703998,1.9407026,-1.69546
vit_b_16,1,631,NaN,cat,car,32-3-10,0631_eid_dnn_32-3-10_car_10_n04285008_4331.png,n04285008_4331.png,0.0,-0.8427115,2.564694,-2.4093995
vit_b_16,1,632,NaN,elephant,elephant,1-3-10,0632_eid_dnn_1-3-10_elephant_10_n02504013_2984.png,n02504013_2984.png,1.0,8.077677,1.8093861,4.4323506
vit_b_16,1,633,NaN,cat,cat,2-3-10,0633_eid_dnn_2-3-10_cat_10_n02124075_13278.png,n02124075_13278.png,1.0,4.115028,0.32330468,2.6811533
vit_b_16,1,634,NaN,knife,truck,16-3-10,0634_eid_dnn_16-3-10_truck_10_n04467665_8189.png,n04467665_8189.png,0.0,-0.83903897,1.2052202,-1.4455094
vit_b_16,1,635,NaN,bottle,bottle,2-3-10,0635_eid_dnn_2-3-10_bottle_10_n02823428_13931.png,n02823428_13931.png,1.0,3.7169719,0.44033954,2.3169289
vit_b_16,1,636,NaN,elephant,cat,128-3-10,0636_eid_dnn_128-3-10_cat_10_n02124075_12350.png,n02124075_12350.png,0.0,0.6320166,1.1617045,-0.37454593
vit_b_16,1,637,NaN,elephant,elephant,16-3-10,0637_eid_dnn_16-3-10_elephant_10_n02504013_4590.png,n02504013_4590.png,1.0,3.200295,1.516743,1.190451
vit_b_16,1,638,NaN,elephant,bird,32-3-10,0638_eid_dnn_32-3-10_bird_10_n01855672_6144.png,n01855672_6144.png,0.0,-0.40543705,2.663951,-2.1703851
vit_b_16,1,639,NaN,elephant,bear,128-3-10,0639_eid_dnn_128-3-10_bear_10_n02132136_15262.png,n02132136_15262.png,0.0,0.51517797,2.4184246,-1.3457986
vit_b_16,1,640,NaN,cat,cat,2-3-10,0640_eid_dnn_2-3-10_cat_10_n02125311_15293.png,n02125311_15293.png,1.0,1.3798054,0.32357565,0.7468673
vit_b_16,1,641,NaN,bicycle,bicycle,4-3-10,0641_eid_dnn_4-3-10_bicycle_10_n02835271_1487.png,n02835271_1487.png,1.0,6.0963326,0.23758206,4.142762
vit_b_16,1,642,NaN,dog,dog,4-3-10,0642_eid_dnn_4-3-10_dog_10_n02107574_5896.png,n02107574_5896.png,1.0,0.2731892,0.18663356,0.061204072
vit_b_16,1,643,NaN,keyboard,keyboard,4-3-10,0643_eid_dnn_4-3-10_keyboard_10_n03085013_15365.png,n03085013_15365.png,1.0,7.0250254,0.74051464,4.44382
vit_b_16,1,644,NaN,airplane,truck,32-3-10,0644_eid_dnn_32-3-10_truck_10_n04467665_67927.png,n04467665_67927.png,0.0,-0.4779343,2.0192938,-1.765807
vit_b_16,1,645,NaN,bottle,bottle,2-3-10,0645_eid_dnn_2-3-10_bottle_10_n04591713_3085.png,n04591713_3085.png,1.0,2.2597244,0.76866025,1.0543416
vit_b_16,1,646,NaN,clock,clock,4-3-10,0646_eid_dnn_4-3-10_clock_10_n04548280_5096.png,n04548280_5096.png,1.0,4.7616153,0.41292325,3.0749896
vit_b_16,1,647,NaN,bear,cat,16-3-10,0647_eid_dnn_16-3-10_cat_10_n02123159_13611.png,n02123159_13611.png,0.0,1.4663706,1.9088999,-0.31291547
vit_b_16,1,648,NaN,clock,oven,128-3-10,0648_eid_dnn_128-3-10_oven_10_n04111531_15568.png,n04111531_15568.png,0.0,-1.2867048,1.0476941,-1.6506692
vit_b_16,1,649,NaN,elephant,knife,32-3-10,0649_eid_dnn_32-3-10_knife_10_n03041632_8618.png,n03041632_8618.png,0.0,-0.046244174,2.0423765,-1.4768778
vit_b_16,1,650,NaN,bottle,oven,4-3-10,0650_eid_dnn_4-3-10_oven_10_n04111531_6445.png,n04111531_6445.png,0.0,1.5907557,1.9457808,-0.25104064
vit_b_16,1,651,NaN,elephant,bicycle,128-3-10,0651_eid_dnn_128-3-10_bicycle_10_n03792782_70724.png,n03792782_70724.png,0.0,0.15349635,1.798084,-1.1628991
vit_b_16,1,652,NaN,airplane,knife,32-3-10,0652_eid_dnn_32-3-10_knife_10_n03041632_45326.png,n03041632_45326.png,0.0,0.93226874,1.9579293,-0.7252515
vit_b_16,1,653,NaN,bear,oven,32-3-10,0653_eid_dnn_32-3-10_oven_10_n04111531_7134.png,n04111531_7134.png,0.0,-0.76483697,1.615864,-1.6834099
vit_b_16,1,654,NaN,airplane,keyboard,64-3-10,0654_eid_dnn_64-3-10_keyboard_10_n03085013_23828.png,n03085013_23828.png,0.0,-0.7861383,1.0966375,-1.3313235
vit_b_16,1,655,NaN,bear,bear,2-3-10,0655_eid_dnn_2-3-10_bear_10_n02134084_7193.png,n02134084_7193.png,1.0,2.6288471,0.412595,1.5671269
vit_b_16,1,656,NaN,clock,clock,8-3-10,0656_eid_dnn_8-3-10_clock_10_n02708093_1431.png,n02708093_1431.png,1.0,1.7588497,1.0267125,0.5176992
vit_b_16,1,657,NaN,bear,airplane,64-3-10,0657_eid_dnn_64-3-10_airplane_10_n02690373_4364.png,n02690373_4364.png,0.0,-0.5835161,0.6019097,-0.8382226
vit_b_16,1,658,NaN,cat,bottle,64-3-10,0658_eid_dnn_64-3-10_bottle_10_n02823428_12997.png,n02823428_12997.png,0.0,-0.25677457,1.2651795,-1.076184
vit_b_16,1,659,NaN,dog,boat,8-3-10,0659_eid_dnn_8-3-10_boat_10_n02951358_9837.png,n02951358_9837.png,0.0,-0.19983193,1.3784447,-1.1160102
vit_b_16,1,660,NaN,elephant,elephant,64-3-10,0660_eid_dnn_64-3-10_elephant_10_n02504013_7746.png,n02504013_7746.png,1.0,2.029769,1.3866395,0.4547612
vit_b_16,1,661,NaN,airplane,cat,32-3-10,0661_eid_dnn_32-3-10_cat_10_n02123597_6548.png,n02123597_6548.png,0.0,0.7381976,1.8316039,-0.773155
vit_b_16,1,662,NaN,cat,knife,32-3-10,0662_eid_dnn_32-3-10_knife_10_n03041632_30286.png,n03041632_30286.png,0.0,-0.09640901,1.471384,-1.108597
vit_b_16,1,663,NaN,elephant,bear,16-3-10,0663_eid_dnn_16-3-10_bear_10_n02132136_33437.png,n02132136_33437.png,0.0,1.4611965,3.8680415,-1.7018965
vit_b_16,1,664,NaN,bear,bear,2-3-10,0664_eid_dnn_2-3-10_bear_10_n02134084_14360.png,n02134084_14360.png,1.0,3.22889,0.6957428,1.7912055
vit_b_16,1,665,NaN,bear,bottle,32-3-10,0665_eid_dnn_32-3-10_bottle_10_n02823428_13280.png,n02823428_13280.png,0.0,-0.1896358,3.7065103,-2.7549913
vit_b_16,1,666,NaN,elephant,boat,32-3-10,0666_eid_dnn_32-3-10_boat_10_n03344393_2142.png,n03344393_2142.png,0.0,-0.40991527,1.4993945,-1.350086
vit_b_16,1,667,NaN,airplane,bottle,16-3-10,0667_eid_dnn_16-3-10_bottle_10_n04557648_9415.png,n04557648_9415.png,0.0,-0.49938083,1.5814611,-1.4713775
vit_b_16,1,668,NaN,airplane,airplane,32-3-10,0668_eid_dnn_32-3-10_airplane_10_n02690373_2564.png,n02690373_2564.png,1.0,2.1462626,0.75110435,0.9865259
vit_b_16,1,669,NaN,cat,dog,128-3-10,0669_eid_dnn_128-3-10_dog_10_n02095889_1087.png,n02095889_1087.png,0.0,1.0885874,1.1431109,-0.038553916
vit_b_16,1,670,NaN,bear,dog,2-3-10,0670_eid_dnn_2-3-10_dog_10_n02092339_3615.png,n02092339_3615.png,0.0,0.84409374,1.3965856,-0.39067075
vit_b_16,1,671,NaN,truck,truck,2-3-10,0671_eid_dnn_2-3-10_truck_10_n03417042_2978.png,n03417042_2978.png,1.0,1.4952638,1.1034051,0.27708596
vit_b_16,1,672,NaN,elephant,bottle,32-3-10,0672_eid_dnn_32-3-10_bottle_10_n04557648_3768.png,n04557648_3768.png,0.0,-0.3708467,1.780635,-1.5213273
vit_b_16,1,673,NaN,cat,boat,64-3-10,0673_eid_dnn_64-3-10_boat_10_n04273569_5901.png,n04273569_5901.png,0.0,-0.4522945,1.3730221,-1.2906938
vit_b_16,1,674,NaN,car,car,8-3-10,0674_eid_dnn_8-3-10_car_10_n02814533_3573.png,n02814533_3573.png,1.0,6.201893,3.0280511,2.244245
vit_b_16,1,675,NaN,truck,truck,4-3-10,0675_eid_dnn_4-3-10_truck_10_n04467665_1840.png,n04467665_1840.png,1.0,3.3223166,0.6818825,1.867069
vit_b_16,1,676,NaN,bird,bird,8-3-10,0676_eid_dnn_8-3-10_bird_10_n02028035_7406.png,n02028035_7406.png,1.0,0.8170299,0.6874647,0.09161642
vit_b_16,1,677,NaN,bear,clock,16-3-10,0677_eid_dnn_16-3-10_clock_10_n04548280_575.png,n04548280_575.png,0.0,0.3958298,1.0596416,-0.46938583
vit_b_16,1,678,NaN,bottle,bottle,1-3-10,0678_eid_dnn_1-3-10_bottle_10_n04560804_9169.png,n04560804_9169.png,1.0,3.190187,0.07603695,2.2020366
vit_b_16,1,679,NaN,cat,cat,2-3-10,0679_eid_dnn_2-3-10_cat_10_n02125311_22949.png,n02125311_22949.png,1.0,1.7499658,1.1924874,0.39419678
vit_b_16,1,680,NaN,elephant,elephant,8-3-10,0680_eid_dnn_8-3-10_elephant_10_n02504013_848.png,n02504013_848.png,1.0,6.766596,0.5225685,4.415194
vit_b_16,1,681,NaN,bear,bicycle,16-3-10,0681_eid_dnn_16-3-10_bicycle_10_n02835271_1974.png,n02835271_1974.png,0.0,-0.4283456,2.0946033,-1.7839943
vit_b_16,1,682,NaN,oven,oven,4-3-10,0682_eid_dnn_4-3-10_oven_10_n04111531_6217.png,n04111531_6217.png,1.0,5.3121705,1.1750251,2.9254036
vit_b_16,1,683,NaN,elephant,elephant,2-3-10,0683_eid_dnn_2-3-10_elephant_10_n02504458_5882.png,n02504458_5882.png,1.0,2.0232515,1.7966291,0.16024628
vit_b_16,1,684,NaN,clock,bird,1-3-10,0684_eid_dnn_1-3-10_bird_10_n02011460_6726.png,n02011460_6726.png,0.0,0.035381336,0.20254888,-0.11820531
vit_b_16,1,685,NaN,elephant,bear,128-3-10,0685_eid_dnn_128-3-10_bear_10_n02133161_13089.png,n02133161_13089.png,0.0,0.80929434,1.6348705,-0.5837705
vit_b_16,1,686,NaN,airplane,bird,32-3-10,0686_eid_dnn_32-3-10_bird_10_n01795545_17639.png,n01795545_17639.png,0.0,0.13312875,1.4452314,-0.9277967
vit_b_16,1,687,NaN,cat,car,128-3-10,0687_eid_dnn_128-3-10_car_10_n02814533_83588.png,n02814533_83588.png,0.0,-0.57018733,1.7124931,-1.6140989
vit_b_16,1,688,NaN,airplane,oven,16-3-10,0688_eid_dnn_16-3-10_oven_10_n04111531_10064.png,n04111531_10064.png,0.0,0.8358473,2.2432966,-0.9952169
vit_b_16,1,689,NaN,cat,dog,2-3-10,0689_eid_dnn_2-3-10_dog_10_n02113712_5246.png,n02113712_5246.png,0.0,1.3669609,1.9567032,-0.41701078
vit_b_16,1,690,NaN,cat,cat,16-3-10,0690_eid_dnn_16-3-10_cat_10_n02125311_46738.png,n02125311_46738.png,1.0,1.3622023,0.9247562,0.30932108
vit_b_16,1,691,NaN,airplane,dog,1-3-10,0691_eid_dnn_1-3-10_dog_10_n02100236_9311.png,n02100236_9311.png,0.0,-0.11720111,0.34611797,-0.32761607
vit_b_16,1,692,NaN,keyboard,elephant,128-3-10,0692_eid_dnn_128-3-10_elephant_10_n02504458_5844.png,n02504458_5844.png,0.0,0.69571847,3.461781,-1.9559016
vit_b_16,1,693,NaN,cat,bear,32-3-10,0693_eid_dnn_32-3-10_bear_10_n02132136_3378.png,n02132136_3378.png,0.0,1.1961812,2.242059,-0.7395473
vit_b_16,1,694,NaN,truck,truck,1-3-10,0694_eid_dnn_1-3-10_truck_10_n03417042_1263.png,n03417042_1263.png,1.0,1.4514518,0.17254008,0.90432715
vit_b_16,1,695,NaN,truck,truck,1-3-10,0695_eid_dnn_1-3-10_truck_10_n03417042_19596.png,n03417042_19596.png,1.0,3.8223839,0.52802444,2.329464
vit_b_16,1,696,NaN,keyboard,keyboard,1-3-10,0696_eid_dnn_1-3-10_keyboard_10_n04505470_1351.png,n04505470_1351.png,1.0,4.559152,0.6209641,2.7847195
