subj,session,trial,rt,object_response,category,condition,imagename,filename,is_correct,targ_act,max_nontarg_act,decision_margin
alexnet_w1_mlp_simclrhn_probe0,1,1,NaN,oven,car,64-3-10,0001_eid_dnn_64-3-10_car_10_n04285008_8113.png,n04285008_8113.png,0.0,-11.742467,1.7493,-9.54012
alexnet_w1_mlp_simclrhn_probe0,1,2,NaN,oven,oven,8-3-10,0002_eid_dnn_8-3-10_oven_10_n04111531_11848.png,n04111531_11848.png,1.0,0.35895392,-0.49732906,0.6054835
alexnet_w1_mlp_simclrhn_probe0,1,3,NaN,oven,truck,8-3-10,0003_eid_dnn_8-3-10_truck_10_n03417042_25458.png,n03417042_25458.png,0.0,-5.6335096,-1.5608724,-2.8797894
alexnet_w1_mlp_simclrhn_probe0,1,4,NaN,oven,chair,16-3-10,0004_eid_dnn_16-3-10_chair_10_n03376595_6208.png,n03376595_6208.png,0.0,-6.763418,-0.39593935,-4.5024877
alexnet_w1_mlp_simclrhn_probe0,1,5,NaN,bear,cat,32-3-10,0005_eid_dnn_32-3-10_cat_10_n02123045_12084.png,n02123045_12084.png,0.0,-0.5041079,0.24705511,-0.5311525
alexnet_w1_mlp_simclrhn_probe0,1,6,NaN,keyboard,keyboard,8-3-10,0006_eid_dnn_8-3-10_keyboard_10_n03085013_20884.png,n03085013_20884.png,1.0,-1.0190823,-2.700098,1.1886576
alexnet_w1_mlp_simclrhn_probe0,1,7,NaN,airplane,airplane,4-3-10,0007_eid_dnn_4-3-10_airplane_10_n02690373_5992.png,n02690373_5992.png,1.0,2.341933,-1.7304499,2.8796096
alexnet_w1_mlp_simclrhn_probe0,1,8,NaN,bear,bear,32-3-10,0008_eid_dnn_32-3-10_bear_10_n02132136_6641.png,n02132136_6641.png,1.0,1.2665493,0.99736035,0.19034538
alexnet_w1_mlp_simclrhn_probe0,1,9,NaN,oven,oven,2-3-10,0009_eid_dnn_2-3-10_oven_10_n04111531_2797.png,n04111531_2797.png,1.0,1.6445405,-2.5283053,2.9506476
alexnet_w1_mlp_simclrhn_probe0,1,10,NaN,airplane,airplane,2-3-10,0010_eid_dnn_2-3-10_airplane_10_n02690373_7457.png,n02690373_7457.png,1.0,7.711446,-0.8383932,6.045649
alexnet_w1_mlp_simclrhn_probe0,1,11,NaN,bear,truck,16-3-10,0011_eid_dnn_16-3-10_truck_10_n03796401_2751.png,n03796401_2751.png,0.0,-6.272641,-0.94709563,-3.7657292
alexnet_w1_mlp_simclrhn_probe0,1,12,NaN,bear,bear,2-3-10,0012_eid_dnn_2-3-10_bear_10_n02134418_860.png,n02134418_860.png,1.0,-0.6775,-1.7143935,0.7331944
alexnet_w1_mlp_simclrhn_probe0,1,13,NaN,knife,knife,4-3-10,0013_eid_dnn_4-3-10_knife_10_n03041632_2058.png,n03041632_2058.png,1.0,0.2474725,-1.3804975,1.1511487
alexnet_w1_mlp_simclrhn_probe0,1,14,NaN,oven,airplane,32-3-10,0014_eid_dnn_32-3-10_airplane_10_n02690373_10510.png,n02690373_10510.png,0.0,-10.613278,-1.1174605,-6.7145576
alexnet_w1_mlp_simclrhn_probe0,1,15,NaN,bear,keyboard,64-3-10,0015_eid_dnn_64-3-10_keyboard_10_n03085013_6313.png,n03085013_6313.png,0.0,-8.412835,1.1686084,-6.775104
alexnet_w1_mlp_simclrhn_probe0,1,16,NaN,airplane,bicycle,4-3-10,0016_eid_dnn_4-3-10_bicycle_10_n02835271_6278.png,n02835271_6278.png,0.0,-3.775858,-0.07435594,-2.6173573
alexnet_w1_mlp_simclrhn_probe0,1,17,NaN,keyboard,keyboard,2-3-10,0017_eid_dnn_2-3-10_keyboard_10_n03085013_24192.png,n03085013_24192.png,1.0,6.3519907,-0.17143469,4.6127586
alexnet_w1_mlp_simclrhn_probe0,1,18,NaN,car,car,2-3-10,0018_eid_dnn_2-3-10_car_10_n04285008_8255.png,n04285008_8255.png,1.0,3.2225513,1.1131175,1.491595
alexnet_w1_mlp_simclrhn_probe0,1,19,NaN,airplane,airplane,2-3-10,0019_eid_dnn_2-3-10_airplane_10_n02690373_4591.png,n02690373_4591.png,1.0,2.0101197,-0.78462285,1.9761815
alexnet_w1_mlp_simclrhn_probe0,1,20,NaN,airplane,airplane,4-3-10,0020_eid_dnn_4-3-10_airplane_10_n02690373_7075.png,n02690373_7075.png,1.0,0.6838376,-1.5104834,1.5516192
alexnet_w1_mlp_simclrhn_probe0,1,21,NaN,bicycle,bicycle,4-3-10,0021_eid_dnn_4-3-10_bicycle_10_n02835271_21464.png,n02835271_21464.png,1.0,-2.7192364,-2.9754212,0.18115002
alexnet_w1_mlp_simclrhn_probe0,1,22,NaN,oven,car,64-3-10,0022_eid_dnn_64-3-10_car_10_n03100240_362.png,n03100240_362.png,0.0,-11.159017,1.0291604,-8.618342
alexnet_w1_mlp_simclrhn_probe0,1,23,NaN,bear,truck,32-3-10,0023_eid_dnn_32-3-10_truck_10_n04467665_50927.png,n04467665_50927.png,0.0,-5.94393,-0.026758619,-4.184072
alexnet_w1_mlp_simclrhn_probe0,1,24,NaN,oven,car,16-3-10,0024_eid_dnn_16-3-10_car_10_n04285008_3651.png,n04285008_3651.png,0.0,-9.231576,-1.4294562,-5.516932
alexnet_w1_mlp_simclrhn_probe0,1,25,NaN,bottle,bottle,8-3-10,0025_eid_dnn_8-3-10_bottle_10_n04557648_4974.png,n04557648_4974.png,1.0,-1.6512274,-2.9645545,0.9286626
alexnet_w1_mlp_simclrhn_probe0,1,26,NaN,bear,bird,16-3-10,0026_eid_dnn_16-3-10_bird_10_n01537544_23499.png,n01537544_23499.png,0.0,-2.4806678,-0.6383264,-1.3027321
alexnet_w1_mlp_simclrhn_probe0,1,27,NaN,boat,boat,1-3-10,0027_eid_dnn_1-3-10_boat_10_n04612504_11387.png,n04612504_11387.png,1.0,0.5644261,-1.7429186,1.6315391
alexnet_w1_mlp_simclrhn_probe0,1,28,NaN,bottle,bottle,4-3-10,0028_eid_dnn_4-3-10_bottle_10_n03983396_4300.png,n03983396_4300.png,1.0,-1.5586424,-2.1101925,0.39000484
alexnet_w1_mlp_simclrhn_probe0,1,29,NaN,bear,bottle,64-3-10,0029_eid_dnn_64-3-10_bottle_10_n04591713_6961.png,n04591713_6961.png,0.0,-4.886206,-0.6323683,-3.0079174
alexnet_w1_mlp_simclrhn_probe0,1,30,NaN,bear,clock,128-3-10,0030_eid_dnn_128-3-10_clock_10_n02708093_3361.png,n02708093_3361.png,0.0,-7.284004,-0.54413164,-4.7658095
alexnet_w1_mlp_simclrhn_probe0,1,31,NaN,oven,truck,32-3-10,0031_eid_dnn_32-3-10_truck_10_n03417042_18374.png,n03417042_18374.png,0.0,-6.7741823,1.0187829,-5.5104585
alexnet_w1_mlp_simclrhn_probe0,1,32,NaN,oven,knife,64-3-10,0032_eid_dnn_64-3-10_knife_10_n03041632_36280.png,n03041632_36280.png,0.0,-2.7195518,-0.19002566,-1.7886451
alexnet_w1_mlp_simclrhn_probe0,1,33,NaN,cat,bird,8-3-10,0033_eid_dnn_8-3-10_bird_10_n01614925_47.png,n01614925_47.png,0.0,-1.7572054,-1.3733364,-0.27143633
alexnet_w1_mlp_simclrhn_probe0,1,34,NaN,dog,bicycle,8-3-10,0034_eid_dnn_8-3-10_bicycle_10_n02835271_20099.png,n02835271_20099.png,0.0,-3.8435516,-1.5012068,-1.6562879
alexnet_w1_mlp_simclrhn_probe0,1,35,NaN,dog,bear,4-3-10,0035_eid_dnn_4-3-10_bear_10_n02134084_12070.png,n02134084_12070.png,0.0,-2.027397,-1.5878547,-0.31080326
alexnet_w1_mlp_simclrhn_probe0,1,36,NaN,oven,bottle,8-3-10,0036_eid_dnn_8-3-10_bottle_10_n02823428_8525.png,n02823428_8525.png,0.0,-3.5253704,-1.2910384,-1.5799114
alexnet_w1_mlp_simclrhn_probe0,1,37,NaN,oven,truck,32-3-10,0037_eid_dnn_32-3-10_truck_10_n04467665_37953.png,n04467665_37953.png,0.0,-9.070469,0.59953916,-6.837728
alexnet_w1_mlp_simclrhn_probe0,1,38,NaN,oven,oven,128-3-10,0038_eid_dnn_128-3-10_oven_10_n04111531_4868.png,n04111531_4868.png,1.0,-1.0767378,-1.946277,0.61485714
alexnet_w1_mlp_simclrhn_probe0,1,39,NaN,bear,boat,32-3-10,0039_eid_dnn_32-3-10_boat_10_n03662601_19840.png,n03662601_19840.png,0.0,-3.0761833,-0.0930773,-2.1093745
alexnet_w1_mlp_simclrhn_probe0,1,40,NaN,bear,truck,8-3-10,0040_eid_dnn_8-3-10_truck_10_n04467665_9331.png,n04467665_9331.png,0.0,-4.5156507,-2.7966182,-1.2155396
alexnet_w1_mlp_simclrhn_probe0,1,41,NaN,oven,dog,64-3-10,0041_eid_dnn_64-3-10_dog_10_n02111277_16090.png,n02111277_16090.png,0.0,-1.6881441,0.18158813,-1.3221004
alexnet_w1_mlp_simclrhn_probe0,1,42,NaN,oven,bottle,4-3-10,0042_eid_dnn_4-3-10_bottle_10_n02823428_6731.png,n02823428_6731.png,0.0,-2.0503983,-0.51326126,-1.08692
alexnet_w1_mlp_simclrhn_probe0,1,43,NaN,elephant,elephant,8-3-10,0043_eid_dnn_8-3-10_elephant_10_n02504013_8930.png,n02504013_8930.png,1.0,1.4400723,1.397686,0.029971637
alexnet_w1_mlp_simclrhn_probe0,1,44,NaN,car,car,4-3-10,0044_eid_dnn_4-3-10_car_10_n03100240_13673.png,n03100240_13673.png,1.0,0.5031902,-2.2002292,1.9116063
alexnet_w1_mlp_simclrhn_probe0,1,45,NaN,bear,bird,128-3-10,0045_eid_dnn_128-3-10_bird_10_n02018207_6819.png,n02018207_6819.png,0.0,-1.60301,-0.44619638,-0.8179908
alexnet_w1_mlp_simclrhn_probe0,1,46,NaN,elephant,elephant,4-3-10,0046_eid_dnn_4-3-10_elephant_10_n02504013_6065.png,n02504013_6065.png,1.0,0.13378978,-0.8851135,0.7204734
alexnet_w1_mlp_simclrhn_probe0,1,47,NaN,dog,cat,1-3-10,0047_eid_dnn_1-3-10_cat_10_n02123394_384.png,n02123394_384.png,0.0,-4.230883,-3.9435809,-0.20315337
alexnet_w1_mlp_simclrhn_probe0,1,48,NaN,bear,bicycle,16-3-10,0048_eid_dnn_16-3-10_bicycle_10_n02835271_12608.png,n02835271_12608.png,0.0,-7.036685,0.9656798,-5.658527
alexnet_w1_mlp_simclrhn_probe0,1,49,NaN,knife,chair,2-3-10,0049_eid_dnn_2-3-10_chair_10_n03376595_13949.png,n03376595_13949.png,0.0,-5.9731216,-3.3371887,-1.8638861
alexnet_w1_mlp_simclrhn_probe0,1,50,NaN,oven,airplane,128-3-10,0050_eid_dnn_128-3-10_airplane_10_n02690373_3561.png,n02690373_3561.png,0.0,-8.8683605,-0.041834444,-6.2412963
alexnet_w1_mlp_simclrhn_probe0,1,51,NaN,bear,bicycle,32-3-10,0051_eid_dnn_32-3-10_bicycle_10_n02835271_8203.png,n02835271_8203.png,0.0,-4.690381,-0.1739173,-3.193622
alexnet_w1_mlp_simclrhn_probe0,1,52,NaN,bicycle,bicycle,2-3-10,0052_eid_dnn_2-3-10_bicycle_10_n03792782_5665.png,n03792782_5665.png,1.0,3.5962884,-4.3247776,5.60104
alexnet_w1_mlp_simclrhn_probe0,1,53,NaN,oven,bicycle,128-3-10,0053_eid_dnn_128-3-10_bicycle_10_n02835271_15028.png,n02835271_15028.png,0.0,-2.5615633,-0.5401713,-1.4293399
alexnet_w1_mlp_simclrhn_probe0,1,54,NaN,clock,clock,1-3-10,0054_eid_dnn_1-3-10_clock_10_n04548280_3318.png,n04548280_3318.png,1.0,2.8303356,-1.0901381,2.7721934
alexnet_w1_mlp_simclrhn_probe0,1,55,NaN,oven,cat,128-3-10,0055_eid_dnn_128-3-10_cat_10_n02123045_8784.png,n02123045_8784.png,0.0,-1.9160761,0.0267056,-1.3737541
alexnet_w1_mlp_simclrhn_probe0,1,56,NaN,oven,knife,128-3-10,0056_eid_dnn_128-3-10_knife_10_n03041632_3247.png,n03041632_3247.png,0.0,-3.2086236,-0.53861314,-1.8879826
alexnet_w1_mlp_simclrhn_probe0,1,57,NaN,cat,dog,8-3-10,0057_eid_dnn_8-3-10_dog_10_n02110185_11414.png,n02110185_11414.png,0.0,-1.3232172,-0.016061476,-0.9242987
alexnet_w1_mlp_simclrhn_probe0,1,58,NaN,bear,dog,32-3-10,0058_eid_dnn_32-3-10_dog_10_n02113712_2715.png,n02113712_2715.png,0.0,-1.686073,0.48741415,-1.5368875
alexnet_w1_mlp_simclrhn_probe0,1,59,NaN,bird,elephant,2-3-10,0059_eid_dnn_2-3-10_elephant_10_n02504458_1210.png,n02504458_1210.png,0.0,-4.019308,-2.1416988,-1.3276702
alexnet_w1_mlp_simclrhn_probe0,1,60,NaN,oven,car,16-3-10,0060_eid_dnn_16-3-10_car_10_n02814533_32337.png,n02814533_32337.png,0.0,-8.288731,0.37679195,-6.12745
alexnet_w1_mlp_simclrhn_probe0,1,61,NaN,car,car,4-3-10,0061_eid_dnn_4-3-10_car_10_n02814533_55326.png,n02814533_55326.png,1.0,-1.8271803,-2.8938148,0.75422454
alexnet_w1_mlp_simclrhn_probe0,1,62,NaN,oven,knife,64-3-10,0062_eid_dnn_64-3-10_knife_10_n03041632_32774.png,n03041632_32774.png,0.0,-4.143795,-0.05103904,-2.8940153
alexnet_w1_mlp_simclrhn_probe0,1,63,NaN,elephant,bicycle,8-3-10,0063_eid_dnn_8-3-10_bicycle_10_n02835271_11921.png,n02835271_11921.png,0.0,-7.242289,1.3794177,-6.0964675
alexnet_w1_mlp_simclrhn_probe0,1,64,NaN,oven,chair,32-3-10,0064_eid_dnn_32-3-10_chair_10_n03376595_6115.png,n03376595_6115.png,0.0,-6.384771,-0.28346738,-4.3142734
alexnet_w1_mlp_simclrhn_probe0,1,65,NaN,bear,bear,16-3-10,0065_eid_dnn_16-3-10_bear_10_n02133161_79.png,n02133161_79.png,1.0,0.0142776705,-0.57569164,0.41717133
alexnet_w1_mlp_simclrhn_probe0,1,66,NaN,boat,boat,1-3-10,0066_eid_dnn_1-3-10_boat_10_n03662601_34796.png,n03662601_34796.png,1.0,3.6814907,0.9006521,1.9663498
alexnet_w1_mlp_simclrhn_probe0,1,67,NaN,bird,bird,4-3-10,0067_eid_dnn_4-3-10_bird_10_n02051845_8976.png,n02051845_8976.png,1.0,-2.474062,-3.0702353,0.42155817
alexnet_w1_mlp_simclrhn_probe0,1,68,NaN,elephant,boat,4-3-10,0068_eid_dnn_4-3-10_boat_10_n03344393_7362.png,n03344393_7362.png,0.0,-0.5587343,0.81074286,-0.9683666
alexnet_w1_mlp_simclrhn_probe0,1,69,NaN,bear,car,32-3-10,0069_eid_dnn_32-3-10_car_10_n02814533_34289.png,n02814533_34289.png,0.0,-7.8177514,1.10769,-6.3112407
alexnet_w1_mlp_simclrhn_probe0,1,70,NaN,oven,keyboard,16-3-10,0070_eid_dnn_16-3-10_keyboard_10_n03085013_2166.png,n03085013_2166.png,0.0,-8.847877,0.007870212,-6.261959
alexnet_w1_mlp_simclrhn_probe0,1,71,NaN,bear,bear,2-3-10,0071_eid_dnn_2-3-10_bear_10_n02133161_10167.png,n02133161_10167.png,1.0,1.688442,0.2552501,1.0134197
alexnet_w1_mlp_simclrhn_probe0,1,72,NaN,oven,keyboard,16-3-10,0072_eid_dnn_16-3-10_keyboard_10_n04505470_430.png,n04505470_430.png,0.0,-3.4551113,0.7452398,-2.9700968
alexnet_w1_mlp_simclrhn_probe0,1,73,NaN,bear,boat,128-3-10,0073_eid_dnn_128-3-10_boat_10_n03662601_17001.png,n03662601_17001.png,0.0,-7.350679,-1.7646371,-3.9499283
alexnet_w1_mlp_simclrhn_probe0,1,74,NaN,cat,bear,128-3-10,0074_eid_dnn_128-3-10_bear_10_n02133161_5157.png,n02133161_5157.png,0.0,-1.93757,-0.77643055,-0.82104963
alexnet_w1_mlp_simclrhn_probe0,1,75,NaN,bear,boat,2-3-10,0075_eid_dnn_2-3-10_boat_10_n02951358_17870.png,n02951358_17870.png,0.0,-1.9180481,-0.81650305,-0.77891004
alexnet_w1_mlp_simclrhn_probe0,1,76,NaN,bear,cat,64-3-10,0076_eid_dnn_64-3-10_cat_10_n02123159_1102.png,n02123159_1102.png,0.0,-2.1086516,-0.6003082,-1.0665599
alexnet_w1_mlp_simclrhn_probe0,1,77,NaN,cat,cat,32-3-10,0077_eid_dnn_32-3-10_cat_10_n02123045_4252.png,n02123045_4252.png,1.0,-0.6397175,-1.05944,0.29678863
alexnet_w1_mlp_simclrhn_probe0,1,78,NaN,keyboard,keyboard,2-3-10,0078_eid_dnn_2-3-10_keyboard_10_n04505470_4294.png,n04505470_4294.png,1.0,0.15537396,-3.204369,2.3756971
alexnet_w1_mlp_simclrhn_probe0,1,79,NaN,truck,truck,2-3-10,0079_eid_dnn_2-3-10_truck_10_n04467665_1101.png,n04467665_1101.png,1.0,2.9725885,-0.33565524,2.3392816
alexnet_w1_mlp_simclrhn_probe0,1,80,NaN,oven,airplane,64-3-10,0080_eid_dnn_64-3-10_airplane_10_n02690373_2078.png,n02690373_2078.png,0.0,-6.3318133,-0.033863023,-4.4533234
alexnet_w1_mlp_simclrhn_probe0,1,81,NaN,oven,boat,64-3-10,0081_eid_dnn_64-3-10_boat_10_n04612504_5535.png,n04612504_5535.png,0.0,-7.5945992,0.5236954,-5.7405014
alexnet_w1_mlp_simclrhn_probe0,1,82,NaN,bear,cat,16-3-10,0082_eid_dnn_16-3-10_cat_10_n02125311_15099.png,n02125311_15099.png,0.0,-1.2648131,1.2183948,-1.755893
alexnet_w1_mlp_simclrhn_probe0,1,83,NaN,bear,airplane,64-3-10,0083_eid_dnn_64-3-10_airplane_10_n02690373_4671.png,n02690373_4671.png,0.0,-7.685058,-0.7430147,-4.908766
alexnet_w1_mlp_simclrhn_probe0,1,84,NaN,truck,truck,1-3-10,0084_eid_dnn_1-3-10_truck_10_n03417042_9062.png,n03417042_9062.png,1.0,0.70643824,-1.1313881,1.2995394
alexnet_w1_mlp_simclrhn_probe0,1,85,NaN,cat,cat,4-3-10,0085_eid_dnn_4-3-10_cat_10_n02123394_283.png,n02123394_283.png,1.0,-1.539403,-1.8350074,0.20902392
alexnet_w1_mlp_simclrhn_probe0,1,86,NaN,car,car,1-3-10,0086_eid_dnn_1-3-10_car_10_n02814533_3375.png,n02814533_3375.png,1.0,6.703436,3.340321,2.3780813
alexnet_w1_mlp_simclrhn_probe0,1,87,NaN,cat,cat,2-3-10,0087_eid_dnn_2-3-10_cat_10_n02124075_9706.png,n02124075_9706.png,1.0,-0.9368408,-2.9880693,1.4504377
alexnet_w1_mlp_simclrhn_probe0,1,88,NaN,car,car,2-3-10,0088_eid_dnn_2-3-10_car_10_n04285008_10563.png,n04285008_10563.png,1.0,2.3901718,-0.08929886,1.7532506
alexnet_w1_mlp_simclrhn_probe0,1,89,NaN,oven,clock,64-3-10,0089_eid_dnn_64-3-10_clock_10_n03196217_3283.png,n03196217_3283.png,0.0,-8.331866,-1.1255687,-5.095622
alexnet_w1_mlp_simclrhn_probe0,1,90,NaN,bear,oven,128-3-10,0090_eid_dnn_128-3-10_oven_10_n04111531_21120.png,n04111531_21120.png,0.0,-0.5822731,-0.5562824,-0.018378219
alexnet_w1_mlp_simclrhn_probe0,1,91,NaN,bird,bird,1-3-10,0091_eid_dnn_1-3-10_bird_10_n01824575_6186.png,n01824575_6186.png,1.0,-0.33122706,-1.9958112,1.1770388
alexnet_w1_mlp_simclrhn_probe0,1,92,NaN,dog,dog,4-3-10,0092_eid_dnn_4-3-10_dog_10_n02102318_11155.png,n02102318_11155.png,1.0,-0.0392241,-1.2774013,0.8755235
alexnet_w1_mlp_simclrhn_probe0,1,93,NaN,bear,clock,16-3-10,0093_eid_dnn_16-3-10_clock_10_n04548280_2283.png,n04548280_2283.png,0.0,-5.7260747,1.1995409,-4.8971496
alexnet_w1_mlp_simclrhn_probe0,1,94,NaN,oven,chair,128-3-10,0094_eid_dnn_128-3-10_chair_10_n03376595_18787.png,n03376595_18787.png,0.0,-5.906025,-0.3393702,-3.9362195
alexnet_w1_mlp_simclrhn_probe0,1,95,NaN,oven,keyboard,8-3-10,0095_eid_dnn_8-3-10_keyboard_10_n04505470_1903.png,n04505470_1903.png,0.0,-2.4423301,-0.23402488,-1.5615077
alexnet_w1_mlp_simclrhn_probe0,1,96,NaN,oven,clock,16-3-10,0096_eid_dnn_16-3-10_clock_10_n03196217_6185.png,n03196217_6185.png,0.0,-9.0428095,-0.89692277,-5.7600117
alexnet_w1_mlp_simclrhn_probe0,1,97,NaN,bottle,clock,2-3-10,0097_eid_dnn_2-3-10_clock_10_n03196217_10424.png,n03196217_10424.png,0.0,-0.8026082,-0.7935408,-0.0064116316
alexnet_w1_mlp_simclrhn_probe0,1,98,NaN,knife,knife,2-3-10,0098_eid_dnn_2-3-10_knife_10_n03041632_43436.png,n03041632_43436.png,1.0,-0.96830165,-2.6748729,1.2067281
alexnet_w1_mlp_simclrhn_probe0,1,99,NaN,dog,dog,1-3-10,0099_eid_dnn_1-3-10_dog_10_n02093647_5955.png,n02093647_5955.png,1.0,-3.028794,-4.2194815,0.84194314
alexnet_w1_mlp_simclrhn_probe0,1,100,NaN,bear,boat,32-3-10,0100_eid_dnn_32-3-10_boat_10_n03662601_5423.png,n03662601_5423.png,0.0,-4.025715,0.3801265,-3.1154003
alexnet_w1_mlp_simclrhn_probe0,1,101,NaN,oven,keyboard,128-3-10,0101_eid_dnn_128-3-10_keyboard_10_n04505470_9457.png,n04505470_9457.png,0.0,-9.714794,-0.7494406,-6.3394628
alexnet_w1_mlp_simclrhn_probe0,1,102,NaN,cat,knife,128-3-10,0102_eid_dnn_128-3-10_knife_10_n03041632_38535.png,n03041632_38535.png,0.0,-3.8271213,-0.67278975,-2.2304492
alexnet_w1_mlp_simclrhn_probe0,1,103,NaN,bear,elephant,8-3-10,0103_eid_dnn_8-3-10_elephant_10_n02504458_8141.png,n02504458_8141.png,0.0,-0.23697178,0.15536524,-0.2774242
alexnet_w1_mlp_simclrhn_probe0,1,104,NaN,airplane,airplane,4-3-10,0104_eid_dnn_4-3-10_airplane_10_n02690373_9086.png,n02690373_9086.png,1.0,1.3774478,-1.902845,2.3195174
alexnet_w1_mlp_simclrhn_probe0,1,105,NaN,bear,bicycle,16-3-10,0105_eid_dnn_16-3-10_bicycle_10_n03792782_19116.png,n03792782_19116.png,0.0,-1.5876377,0.010484947,-1.1300434
alexnet_w1_mlp_simclrhn_probe0,1,106,NaN,elephant,elephant,4-3-10,0106_eid_dnn_4-3-10_elephant_10_n02504458_2343.png,n02504458_2343.png,1.0,1.4315464,-0.81770194,1.5904589
alexnet_w1_mlp_simclrhn_probe0,1,107,NaN,oven,airplane,16-3-10,0107_eid_dnn_16-3-10_airplane_10_n02690373_7093.png,n02690373_7093.png,0.0,-1.4026175,-1.354417,-0.034082893
alexnet_w1_mlp_simclrhn_probe0,1,108,NaN,bear,car,32-3-10,0108_eid_dnn_32-3-10_car_10_n03100240_7935.png,n03100240_7935.png,0.0,-8.308706,0.4227128,-6.1740456
alexnet_w1_mlp_simclrhn_probe0,1,109,NaN,oven,airplane,16-3-10,0109_eid_dnn_16-3-10_airplane_10_n02690373_8611.png,n02690373_8611.png,0.0,-4.0636363,-1.159424,-2.0535884
alexnet_w1_mlp_simclrhn_probe0,1,110,NaN,bear,bear,2-3-10,0110_eid_dnn_2-3-10_bear_10_n02133161_7332.png,n02133161_7332.png,1.0,3.8532128,0.030700266,2.7029247
alexnet_w1_mlp_simclrhn_probe0,1,111,NaN,car,car,2-3-10,0111_eid_dnn_2-3-10_car_10_n03100240_9387.png,n03100240_9387.png,1.0,3.2828553,1.2868385,1.411397
alexnet_w1_mlp_simclrhn_probe0,1,112,NaN,cat,cat,4-3-10,0112_eid_dnn_4-3-10_cat_10_n02124075_521.png,n02124075_521.png,1.0,-0.0118272705,-1.6926869,1.1885473
alexnet_w1_mlp_simclrhn_probe0,1,113,NaN,oven,bottle,128-3-10,0113_eid_dnn_128-3-10_bottle_10_n04560804_3746.png,n04560804_3746.png,0.0,-6.722749,1.0408227,-5.489674
alexnet_w1_mlp_simclrhn_probe0,1,114,NaN,bear,elephant,16-3-10,0114_eid_dnn_16-3-10_elephant_10_n02504458_1127.png,n02504458_1127.png,0.0,-0.6175164,0.46312237,-0.764127
alexnet_w1_mlp_simclrhn_probe0,1,115,NaN,knife,knife,8-3-10,0115_eid_dnn_8-3-10_knife_10_n03041632_14132.png,n03041632_14132.png,1.0,-1.5155642,-1.9495163,0.30685046
alexnet_w1_mlp_simclrhn_probe0,1,116,NaN,oven,oven,1-3-10,0116_eid_dnn_1-3-10_oven_10_n04111531_18916.png,n04111531_18916.png,1.0,1.5408703,-3.3780096,3.4781735
alexnet_w1_mlp_simclrhn_probe0,1,117,NaN,oven,oven,1-3-10,0117_eid_dnn_1-3-10_oven_10_n04111531_19274.png,n04111531_19274.png,1.0,-0.48522276,-4.8715153,3.1015773
alexnet_w1_mlp_simclrhn_probe0,1,118,NaN,bird,bird,2-3-10,0118_eid_dnn_2-3-10_bird_10_n01843383_277.png,n01843383_277.png,1.0,-3.0144565,-4.1229596,0.78383005
alexnet_w1_mlp_simclrhn_probe0,1,119,NaN,bear,boat,64-3-10,0119_eid_dnn_64-3-10_boat_10_n03344393_6799.png,n03344393_6799.png,0.0,-7.0350027,-0.9454006,-4.305999
alexnet_w1_mlp_simclrhn_probe0,1,120,NaN,dog,dog,2-3-10,0120_eid_dnn_2-3-10_dog_10_n02093428_16887.png,n02093428_16887.png,1.0,-1.6559061,-1.9697037,0.22188841
alexnet_w1_mlp_simclrhn_probe0,1,121,NaN,oven,elephant,64-3-10,0121_eid_dnn_64-3-10_elephant_10_n02504458_6163.png,n02504458_6163.png,0.0,-1.2645684,-1.0870552,-0.12552083
alexnet_w1_mlp_simclrhn_probe0,1,122,NaN,oven,bottle,64-3-10,0122_eid_dnn_64-3-10_bottle_10_n04591713_2826.png,n04591713_2826.png,0.0,-3.4438965,-0.2189934,-2.280351
alexnet_w1_mlp_simclrhn_probe0,1,123,NaN,bear,bottle,64-3-10,0123_eid_dnn_64-3-10_bottle_10_n04557648_3598.png,n04557648_3598.png,0.0,-2.8996065,-0.7056643,-1.5513513
alexnet_w1_mlp_simclrhn_probe0,1,124,NaN,bear,truck,8-3-10,0124_eid_dnn_8-3-10_truck_10_n04467665_80629.png,n04467665_80629.png,0.0,-5.065485,-1.398624,-2.5928624
alexnet_w1_mlp_simclrhn_probe0,1,125,NaN,bear,bear,4-3-10,0125_eid_dnn_4-3-10_bear_10_n02134084_6869.png,n02134084_6869.png,1.0,-0.38556567,-0.6534483,0.18942162
alexnet_w1_mlp_simclrhn_probe0,1,126,NaN,cat,bird,1-3-10,0126_eid_dnn_1-3-10_bird_10_n01820546_4457.png,n01820546_4457.png,0.0,-3.3718626,-2.2619011,-0.7848613
alexnet_w1_mlp_simclrhn_probe0,1,127,NaN,oven,clock,64-3-10,0127_eid_dnn_64-3-10_clock_10_n04548280_7565.png,n04548280_7565.png,0.0,-7.1749725,-0.035687476,-5.048237
alexnet_w1_mlp_simclrhn_probe0,1,128,NaN,bear,elephant,16-3-10,0128_eid_dnn_16-3-10_elephant_10_n02504458_98.png,n02504458_98.png,0.0,0.10414299,0.8941667,-0.5586311
alexnet_w1_mlp_simclrhn_probe0,1,129,NaN,bear,bicycle,64-3-10,0129_eid_dnn_64-3-10_bicycle_10_n03792782_7143.png,n03792782_7143.png,0.0,-2.3678985,-0.54003614,-1.2924938
alexnet_w1_mlp_simclrhn_probe0,1,130,NaN,bear,dog,16-3-10,0130_eid_dnn_16-3-10_dog_10_n02096051_5524.png,n02096051_5524.png,0.0,-1.1597459,0.84597373,-1.418258
alexnet_w1_mlp_simclrhn_probe0,1,131,NaN,bear,cat,16-3-10,0131_eid_dnn_16-3-10_cat_10_n02123045_9465.png,n02123045_9465.png,0.0,-1.5852919,0.25085047,-1.2983487
alexnet_w1_mlp_simclrhn_probe0,1,132,NaN,bear,cat,64-3-10,0132_eid_dnn_64-3-10_cat_10_n02123159_9450.png,n02123159_9450.png,0.0,-1.3233639,-0.10832207,-0.85916436
alexnet_w1_mlp_simclrhn_probe0,1,133,NaN,clock,clock,4-3-10,0133_eid_dnn_4-3-10_clock_10_n02708093_8204.png,n02708093_8204.png,1.0,-1.2699188,-1.7290334,0.32464302
alexnet_w1_mlp_simclrhn_probe0,1,134,NaN,bear,airplane,32-3-10,0134_eid_dnn_32-3-10_airplane_10_n02690373_2619.png,n02690373_2619.png,0.0,-3.5443728,-1.0487386,-1.7646798
alexnet_w1_mlp_simclrhn_probe0,1,135,NaN,car,car,2-3-10,0135_eid_dnn_2-3-10_car_10_n04285008_11295.png,n04285008_11295.png,1.0,3.6158943,-0.16890143,2.6762547
alexnet_w1_mlp_simclrhn_probe0,1,136,NaN,bear,bear,8-3-10,0136_eid_dnn_8-3-10_bear_10_n02133161_15481.png,n02133161_15481.png,1.0,1.6870694,0.035778806,1.1676389
alexnet_w1_mlp_simclrhn_probe0,1,137,NaN,oven,truck,64-3-10,0137_eid_dnn_64-3-10_truck_10_n03417042_8139.png,n03417042_8139.png,0.0,-7.1967983,-0.14235395,-4.9882455
alexnet_w1_mlp_simclrhn_probe0,1,138,NaN,cat,bottle,16-3-10,0138_eid_dnn_16-3-10_bottle_10_n04557648_4490.png,n04557648_4490.png,0.0,-3.5674455,-0.9355111,-1.8610587
alexnet_w1_mlp_simclrhn_probe0,1,139,NaN,clock,clock,1-3-10,0139_eid_dnn_1-3-10_clock_10_n03196217_5399.png,n03196217_5399.png,1.0,-1.5858641,-1.8253008,0.16930735
alexnet_w1_mlp_simclrhn_probe0,1,140,NaN,boat,boat,1-3-10,0140_eid_dnn_1-3-10_boat_10_n04273569_4136.png,n04273569_4136.png,1.0,1.3034617,-0.4346673,1.2290428
alexnet_w1_mlp_simclrhn_probe0,1,141,NaN,cat,clock,4-3-10,0141_eid_dnn_4-3-10_clock_10_n04548280_2127.png,n04548280_2127.png,0.0,-3.267699,-2.9166327,-0.2482414
alexnet_w1_mlp_simclrhn_probe0,1,142,NaN,airplane,boat,2-3-10,0142_eid_dnn_2-3-10_boat_10_n03344393_10038.png,n03344393_10038.png,0.0,0.37857842,1.6636386,-0.9086748
alexnet_w1_mlp_simclrhn_probe0,1,143,NaN,elephant,elephant,2-3-10,0143_eid_dnn_2-3-10_elephant_10_n02504013_10793.png,n02504013_10793.png,1.0,6.908701,0.9199274,4.234702
alexnet_w1_mlp_simclrhn_probe0,1,144,NaN,bear,oven,128-3-10,0144_eid_dnn_128-3-10_oven_10_n04111531_6590.png,n04111531_6590.png,0.0,-1.9372418,-0.6577592,-0.90473086
alexnet_w1_mlp_simclrhn_probe0,1,145,NaN,oven,keyboard,16-3-10,0145_eid_dnn_16-3-10_keyboard_10_n03085013_10984.png,n03085013_10984.png,0.0,-4.964609,-1.4620464,-2.476686
alexnet_w1_mlp_simclrhn_probe0,1,146,NaN,bicycle,bicycle,2-3-10,0146_eid_dnn_2-3-10_bicycle_10_n02835271_14879.png,n02835271_14879.png,1.0,-0.6033591,-0.94521284,0.2417271
alexnet_w1_mlp_simclrhn_probe0,1,147,NaN,bear,knife,64-3-10,0147_eid_dnn_64-3-10_knife_10_n03041632_22241.png,n03041632_22241.png,0.0,-3.9733438,0.5373207,-3.1895216
alexnet_w1_mlp_simclrhn_probe0,1,148,NaN,oven,oven,64-3-10,0148_eid_dnn_64-3-10_oven_10_n04111531_892.png,n04111531_892.png,1.0,0.07532012,-0.6026669,0.47940925
alexnet_w1_mlp_simclrhn_probe0,1,149,NaN,oven,bear,64-3-10,0149_eid_dnn_64-3-10_bear_10_n02134418_14850.png,n02134418_14850.png,0.0,-0.5315855,-0.45290005,-0.055639025
alexnet_w1_mlp_simclrhn_probe0,1,150,NaN,oven,knife,64-3-10,0150_eid_dnn_64-3-10_knife_10_n03041632_48071.png,n03041632_48071.png,0.0,-4.1155725,0.22037582,-3.0659785
alexnet_w1_mlp_simclrhn_probe0,1,151,NaN,cat,clock,16-3-10,0151_eid_dnn_16-3-10_clock_10_n04548280_64.png,n04548280_64.png,0.0,-7.6337085,-2.3629847,-3.7269647
alexnet_w1_mlp_simclrhn_probe0,1,152,NaN,bird,truck,64-3-10,0152_eid_dnn_64-3-10_truck_10_n03796401_6285.png,n03796401_6285.png,0.0,-6.0645695,-1.4207342,-3.2836874
alexnet_w1_mlp_simclrhn_probe0,1,153,NaN,airplane,airplane,4-3-10,0153_eid_dnn_4-3-10_airplane_10_n02690373_6682.png,n02690373_6682.png,1.0,1.2317394,-1.3815657,1.8478857
alexnet_w1_mlp_simclrhn_probe0,1,154,NaN,oven,knife,64-3-10,0154_eid_dnn_64-3-10_knife_10_n03041632_17285.png,n03041632_17285.png,0.0,-4.4332485,0.09339943,-3.2008235
alexnet_w1_mlp_simclrhn_probe0,1,155,NaN,boat,boat,2-3-10,0155_eid_dnn_2-3-10_boat_10_n02951358_8184.png,n02951358_8184.png,1.0,0.4093032,0.25342476,0.11022269
alexnet_w1_mlp_simclrhn_probe0,1,156,NaN,bicycle,bear,1-3-10,0156_eid_dnn_1-3-10_bear_10_n02132136_2346.png,n02132136_2346.png,0.0,-1.3763896,-0.60965836,-0.54216087
alexnet_w1_mlp_simclrhn_probe0,1,157,NaN,bear,bear,8-3-10,0157_eid_dnn_8-3-10_bear_10_n02134418_2187.png,n02134418_2187.png,1.0,2.1601686,-0.44129544,1.839513
alexnet_w1_mlp_simclrhn_probe0,1,158,NaN,bear,cat,32-3-10,0158_eid_dnn_32-3-10_cat_10_n02124075_10162.png,n02124075_10162.png,0.0,-1.3005668,-0.08132339,-0.8621353
alexnet_w1_mlp_simclrhn_probe0,1,159,NaN,bear,truck,128-3-10,0159_eid_dnn_128-3-10_truck_10_n03417042_8998.png,n03417042_8998.png,0.0,-5.111858,-0.3327073,-3.3793697
alexnet_w1_mlp_simclrhn_probe0,1,160,NaN,cat,cat,64-3-10,0160_eid_dnn_64-3-10_cat_10_n02123597_13835.png,n02123597_13835.png,1.0,-0.33377048,-0.41918766,0.06039907
alexnet_w1_mlp_simclrhn_probe0,1,161,NaN,clock,clock,1-3-10,0161_eid_dnn_1-3-10_clock_10_n04548280_18914.png,n04548280_18914.png,1.0,3.0768278,-1.2110571,3.0319924
alexnet_w1_mlp_simclrhn_probe0,1,162,NaN,keyboard,keyboard,2-3-10,0162_eid_dnn_2-3-10_keyboard_10_n03085013_2676.png,n03085013_2676.png,1.0,4.188655,0.258578,2.778984
alexnet_w1_mlp_simclrhn_probe0,1,163,NaN,bear,airplane,16-3-10,0163_eid_dnn_16-3-10_airplane_10_n02690373_7600.png,n02690373_7600.png,0.0,-7.436171,-0.20342273,-5.1143255
alexnet_w1_mlp_simclrhn_probe0,1,164,NaN,bear,chair,16-3-10,0164_eid_dnn_16-3-10_chair_10_n04429376_17917.png,n04429376_17917.png,0.0,-6.973558,0.55052954,-5.3203335
alexnet_w1_mlp_simclrhn_probe0,1,165,NaN,keyboard,keyboard,4-3-10,0165_eid_dnn_4-3-10_keyboard_10_n04505470_4492.png,n04505470_4492.png,1.0,-0.5402349,-1.2701684,0.51614094
alexnet_w1_mlp_simclrhn_probe0,1,166,NaN,bear,bear,1-3-10,0166_eid_dnn_1-3-10_bear_10_n02134418_3148.png,n02134418_3148.png,1.0,2.531376,0.7363654,1.2692642
alexnet_w1_mlp_simclrhn_probe0,1,167,NaN,elephant,cat,4-3-10,0167_eid_dnn_4-3-10_cat_10_n02125311_20388.png,n02125311_20388.png,0.0,-1.1414082,-0.08539969,-0.74671084
alexnet_w1_mlp_simclrhn_probe0,1,168,NaN,oven,cat,64-3-10,0168_eid_dnn_64-3-10_cat_10_n02123394_2153.png,n02123394_2153.png,0.0,-0.8876858,-0.056633756,-0.5876425
alexnet_w1_mlp_simclrhn_probe0,1,169,NaN,truck,clock,1-3-10,0169_eid_dnn_1-3-10_clock_10_n04548280_5327.png,n04548280_5327.png,0.0,-3.8873205,-3.8041453,-0.058813736
alexnet_w1_mlp_simclrhn_probe0,1,170,NaN,cat,bicycle,8-3-10,0170_eid_dnn_8-3-10_bicycle_10_n03792782_63054.png,n03792782_63054.png,0.0,-6.696963,-0.88522416,-4.10952
alexnet_w1_mlp_simclrhn_probe0,1,171,NaN,cat,chair,32-3-10,0171_eid_dnn_32-3-10_chair_10_n03376595_14138.png,n03376595_14138.png,0.0,-6.308375,-1.1637355,-3.6378095
alexnet_w1_mlp_simclrhn_probe0,1,172,NaN,elephant,elephant,2-3-10,0172_eid_dnn_2-3-10_elephant_10_n02504458_4849.png,n02504458_4849.png,1.0,1.2779126,-1.1201781,1.6957064
alexnet_w1_mlp_simclrhn_probe0,1,173,NaN,oven,dog,128-3-10,0173_eid_dnn_128-3-10_dog_10_n02113624_4844.png,n02113624_4844.png,0.0,-2.0327675,-0.37742522,-1.1705039
alexnet_w1_mlp_simclrhn_probe0,1,174,NaN,elephant,elephant,2-3-10,0174_eid_dnn_2-3-10_elephant_10_n02504013_2549.png,n02504013_2549.png,1.0,1.6356597,-0.40797555,1.4450685
alexnet_w1_mlp_simclrhn_probe0,1,175,NaN,bear,bear,8-3-10,0175_eid_dnn_8-3-10_bear_10_n02134084_4593.png,n02134084_4593.png,1.0,0.5420629,-0.9592397,1.0615813
alexnet_w1_mlp_simclrhn_probe0,1,176,NaN,bicycle,bicycle,64-3-10,0176_eid_dnn_64-3-10_bicycle_10_n02835271_75.png,n02835271_75.png,1.0,-0.88553035,-0.9139626,0.020104637
alexnet_w1_mlp_simclrhn_probe0,1,177,NaN,oven,truck,4-3-10,0177_eid_dnn_4-3-10_truck_10_n03796401_20943.png,n03796401_20943.png,0.0,-3.3245196,-2.391956,-0.65942204
alexnet_w1_mlp_simclrhn_probe0,1,178,NaN,knife,knife,2-3-10,0178_eid_dnn_2-3-10_knife_10_n03041632_32048.png,n03041632_32048.png,1.0,-3.6454754,-3.7814584,0.096154496
alexnet_w1_mlp_simclrhn_probe0,1,179,NaN,elephant,cat,1-3-10,0179_eid_dnn_1-3-10_cat_10_n02123159_3536.png,n02123159_3536.png,0.0,-3.3231442,-2.8078918,-0.36433843
alexnet_w1_mlp_simclrhn_probe0,1,180,NaN,bear,bicycle,1-3-10,0180_eid_dnn_1-3-10_bicycle_10_n03792782_6716.png,n03792782_6716.png,0.0,-1.915464,-0.49398792,-1.0051354
alexnet_w1_mlp_simclrhn_probe0,1,181,NaN,clock,clock,2-3-10,0181_eid_dnn_2-3-10_clock_10_n03196217_1754.png,n03196217_1754.png,1.0,0.59729344,-0.1272522,0.5123311
alexnet_w1_mlp_simclrhn_probe0,1,182,NaN,bicycle,bicycle,1-3-10,0182_eid_dnn_1-3-10_bicycle_10_n03792782_5404.png,n03792782_5404.png,1.0,-2.5481005,-4.7844553,1.5813417
alexnet_w1_mlp_simclrhn_probe0,1,183,NaN,bear,dog,64-3-10,0183_eid_dnn_64-3-10_dog_10_n02096294_3014.png,n02096294_3014.png,0.0,-1.1164969,0.2199395,-0.9450033
alexnet_w1_mlp_simclrhn_probe0,1,184,NaN,bear,bear,4-3-10,0184_eid_dnn_4-3-10_bear_10_n02134084_23382.png,n02134084_23382.png,1.0,-0.7318196,-1.3226023,0.41774642
alexnet_w1_mlp_simclrhn_probe0,1,185,NaN,car,car,4-3-10,0185_eid_dnn_4-3-10_car_10_n03100240_310.png,n03100240_310.png,1.0,-2.789477,-2.936136,0.10370351
alexnet_w1_mlp_simclrhn_probe0,1,186,NaN,cat,dog,4-3-10,0186_eid_dnn_4-3-10_dog_10_n02093256_1653.png,n02093256_1653.png,0.0,-1.7131237,-1.6460028,-0.04746165
alexnet_w1_mlp_simclrhn_probe0,1,187,NaN,elephant,elephant,4-3-10,0187_eid_dnn_4-3-10_elephant_10_n02504013_1740.png,n02504013_1740.png,1.0,4.97849,0.6215763,3.0808032
alexnet_w1_mlp_simclrhn_probe0,1,188,NaN,oven,bear,64-3-10,0188_eid_dnn_64-3-10_bear_10_n02134084_34375.png,n02134084_34375.png,0.0,-1.2097095,1.4883393,-1.9078087
alexnet_w1_mlp_simclrhn_probe0,1,189,NaN,cat,keyboard,8-3-10,0189_eid_dnn_8-3-10_keyboard_10_n03085013_23254.png,n03085013_23254.png,0.0,-4.612196,-1.7056309,-2.055252
alexnet_w1_mlp_simclrhn_probe0,1,190,NaN,oven,elephant,32-3-10,0190_eid_dnn_32-3-10_elephant_10_n02504013_1512.png,n02504013_1512.png,0.0,-1.818462,0.110379145,-1.3638966
alexnet_w1_mlp_simclrhn_probe0,1,191,NaN,elephant,car,8-3-10,0191_eid_dnn_8-3-10_car_10_n04285008_6454.png,n04285008_6454.png,0.0,-6.150789,-1.01531,-3.6313322
alexnet_w1_mlp_simclrhn_probe0,1,192,NaN,keyboard,keyboard,4-3-10,0192_eid_dnn_4-3-10_keyboard_10_n04505470_7721.png,n04505470_7721.png,1.0,7.276432,0.71214586,4.641651
alexnet_w1_mlp_simclrhn_probe0,1,193,NaN,oven,keyboard,16-3-10,0193_eid_dnn_16-3-10_keyboard_10_n04505470_3388.png,n04505470_3388.png,0.0,-9.046097,-0.8177064,-5.818351
alexnet_w1_mlp_simclrhn_probe0,1,194,NaN,boat,boat,2-3-10,0194_eid_dnn_2-3-10_boat_10_n03344393_4221.png,n03344393_4221.png,1.0,2.4940255,-0.03154392,1.7858473
alexnet_w1_mlp_simclrhn_probe0,1,195,NaN,bear,cat,128-3-10,0195_eid_dnn_128-3-10_cat_10_n02123597_14361.png,n02123597_14361.png,0.0,-1.2968091,-0.5548368,-0.5246536
alexnet_w1_mlp_simclrhn_probe0,1,196,NaN,oven,bird,128-3-10,0196_eid_dnn_128-3-10_bird_10_n02006656_10058.png,n02006656_10058.png,0.0,-5.3563576,-0.23363145,-3.6223142
alexnet_w1_mlp_simclrhn_probe0,1,197,NaN,bear,clock,32-3-10,0197_eid_dnn_32-3-10_clock_10_n02708093_8104.png,n02708093_8104.png,0.0,-8.705499,-2.3440638,-4.498214
alexnet_w1_mlp_simclrhn_probe0,1,198,NaN,bicycle,truck,1-3-10,0198_eid_dnn_1-3-10_truck_10_n03417042_3845.png,n03417042_3845.png,0.0,-2.675516,-0.34321785,-1.6491838
alexnet_w1_mlp_simclrhn_probe0,1,199,NaN,oven,boat,64-3-10,0199_eid_dnn_64-3-10_boat_10_n03662601_36741.png,n03662601_36741.png,0.0,-6.5345087,0.7246531,-5.1330028
alexnet_w1_mlp_simclrhn_probe0,1,200,NaN,knife,knife,1-3-10,0200_eid_dnn_1-3-10_knife_10_n03041632_22570.png,n03041632_22570.png,1.0,-0.3194069,-0.568112,0.17586108
alexnet_w1_mlp_simclrhn_probe0,1,201,NaN,keyboard,keyboard,1-3-10,0201_eid_dnn_1-3-10_keyboard_10_n04505470_4109.png,n04505470_4109.png,1.0,2.8650537,-0.2763646,2.2213182
alexnet_w1_mlp_simclrhn_probe0,1,202,NaN,airplane,airplane,1-3-10,0202_eid_dnn_1-3-10_airplane_10_n02690373_10404.png,n02690373_10404.png,1.0,4.4356384,0.38251936,2.865988
alexnet_w1_mlp_simclrhn_probe0,1,203,NaN,elephant,elephant,4-3-10,0203_eid_dnn_4-3-10_elephant_10_n02504458_4725.png,n02504458_4725.png,1.0,2.4471412,-1.7654518,2.978753
alexnet_w1_mlp_simclrhn_probe0,1,204,NaN,airplane,airplane,1-3-10,0204_eid_dnn_1-3-10_airplane_10_n02690373_1325.png,n02690373_1325.png,1.0,3.8828063,-1.4524442,3.7725918
alexnet_w1_mlp_simclrhn_probe0,1,205,NaN,elephant,bicycle,8-3-10,0205_eid_dnn_8-3-10_bicycle_10_n03792782_6841.png,n03792782_6841.png,0.0,-6.9382553,0.469744,-5.238247
alexnet_w1_mlp_simclrhn_probe0,1,206,NaN,chair,chair,2-3-10,0206_eid_dnn_2-3-10_chair_10_n04099969_1669.png,n04099969_1669.png,1.0,1.3912629,-1.4432943,2.0043344
alexnet_w1_mlp_simclrhn_probe0,1,207,NaN,bear,bottle,32-3-10,0207_eid_dnn_32-3-10_bottle_10_n03937543_5324.png,n03937543_5324.png,0.0,-2.8278427,-0.4032615,-1.7144378
alexnet_w1_mlp_simclrhn_probe0,1,208,NaN,bottle,bottle,4-3-10,0208_eid_dnn_4-3-10_bottle_10_n03937543_2143.png,n03937543_2143.png,1.0,1.3036181,-1.9585502,2.3067014
alexnet_w1_mlp_simclrhn_probe0,1,209,NaN,bottle,bottle,2-3-10,0209_eid_dnn_2-3-10_bottle_10_n04557648_2575.png,n04557648_2575.png,1.0,-0.9209151,-1.2685801,0.24583624
alexnet_w1_mlp_simclrhn_probe0,1,210,NaN,knife,knife,8-3-10,0210_eid_dnn_8-3-10_knife_10_n03041632_9671.png,n03041632_9671.png,1.0,-1.586696,-2.204836,0.4370909
alexnet_w1_mlp_simclrhn_probe0,1,211,NaN,bear,bottle,16-3-10,0211_eid_dnn_16-3-10_bottle_10_n04560804_4145.png,n04560804_4145.png,0.0,-4.5286593,-1.0554894,-2.4559019
alexnet_w1_mlp_simclrhn_probe0,1,212,NaN,bear,clock,64-3-10,0212_eid_dnn_64-3-10_clock_10_n03196217_1187.png,n03196217_1187.png,0.0,-8.333815,-1.1449478,-5.0832963
alexnet_w1_mlp_simclrhn_probe0,1,213,NaN,clock,clock,4-3-10,0213_eid_dnn_4-3-10_clock_10_n04548280_2111.png,n04548280_2111.png,1.0,0.20364816,-2.018103,1.5710152
alexnet_w1_mlp_simclrhn_probe0,1,214,NaN,cat,dog,128-3-10,0214_eid_dnn_128-3-10_dog_10_n02086079_6578.png,n02086079_6578.png,0.0,-1.5405433,-0.19633354,-0.9504999
alexnet_w1_mlp_simclrhn_probe0,1,215,NaN,bear,car,16-3-10,0215_eid_dnn_16-3-10_car_10_n03100240_14045.png,n03100240_14045.png,0.0,-8.855949,0.8179026,-6.8404465
alexnet_w1_mlp_simclrhn_probe0,1,216,NaN,elephant,boat,8-3-10,0216_eid_dnn_8-3-10_boat_10_n02951358_30908.png,n02951358_30908.png,0.0,-4.2164154,-0.6861888,-2.4962473
alexnet_w1_mlp_simclrhn_probe0,1,217,NaN,oven,oven,4-3-10,0217_eid_dnn_4-3-10_oven_10_n04111531_2199.png,n04111531_2199.png,1.0,-1.483339,-1.995625,0.36224097
alexnet_w1_mlp_simclrhn_probe0,1,218,NaN,bear,elephant,8-3-10,0218_eid_dnn_8-3-10_elephant_10_n02504013_5641.png,n02504013_5641.png,0.0,0.23396939,1.4262784,-0.8430897
alexnet_w1_mlp_simclrhn_probe0,1,219,NaN,keyboard,keyboard,2-3-10,0219_eid_dnn_2-3-10_keyboard_10_n03085013_6740.png,n03085013_6740.png,1.0,2.287704,-1.0623535,2.3688486
alexnet_w1_mlp_simclrhn_probe0,1,220,NaN,clock,clock,2-3-10,0220_eid_dnn_2-3-10_clock_10_n04548280_319.png,n04548280_319.png,1.0,4.7599597,-0.9563762,4.04206
alexnet_w1_mlp_simclrhn_probe0,1,221,NaN,bear,knife,32-3-10,0221_eid_dnn_32-3-10_knife_10_n03041632_43506.png,n03041632_43506.png,0.0,-2.346938,0.12768744,-1.7498244
alexnet_w1_mlp_simclrhn_probe0,1,222,NaN,elephant,boat,16-3-10,0222_eid_dnn_16-3-10_boat_10_n03344393_9712.png,n03344393_9712.png,0.0,-2.9257843,-0.109617114,-1.9913311
alexnet_w1_mlp_simclrhn_probe0,1,223,NaN,knife,knife,1-3-10,0223_eid_dnn_1-3-10_knife_10_n03041632_9963.png,n03041632_9963.png,1.0,1.1048595,-1.1662307,1.6059031
alexnet_w1_mlp_simclrhn_probe0,1,224,NaN,bird,bird,1-3-10,0224_eid_dnn_1-3-10_bird_10_n02002556_18595.png,n02002556_18595.png,1.0,-1.4231551,-1.5057983,0.05843762
alexnet_w1_mlp_simclrhn_probe0,1,225,NaN,bear,bird,4-3-10,0225_eid_dnn_4-3-10_bird_10_n01860187_20777.png,n01860187_20777.png,0.0,-4.556331,-1.6343012,-2.0661871
alexnet_w1_mlp_simclrhn_probe0,1,226,NaN,bear,keyboard,32-3-10,0226_eid_dnn_32-3-10_keyboard_10_n03085013_24626.png,n03085013_24626.png,0.0,-8.683839,0.02952528,-6.1612787
alexnet_w1_mlp_simclrhn_probe0,1,227,NaN,oven,oven,16-3-10,0227_eid_dnn_16-3-10_oven_10_n04111531_7097.png,n04111531_7097.png,1.0,0.76543033,-0.9893434,1.2408124
alexnet_w1_mlp_simclrhn_probe0,1,228,NaN,bear,chair,16-3-10,0228_eid_dnn_16-3-10_chair_10_n02791124_12486.png,n02791124_12486.png,0.0,-7.9050255,0.41111258,-5.880398
alexnet_w1_mlp_simclrhn_probe0,1,229,NaN,oven,cat,128-3-10,0229_eid_dnn_128-3-10_cat_10_n02123045_6629.png,n02123045_6629.png,0.0,-0.9647201,0.019249246,-0.6957714
alexnet_w1_mlp_simclrhn_probe0,1,230,NaN,bear,bird,16-3-10,0230_eid_dnn_16-3-10_bird_10_n01819313_5388.png,n01819313_5388.png,0.0,-3.4034362,-1.8503404,-1.0982046
alexnet_w1_mlp_simclrhn_probe0,1,231,NaN,oven,truck,32-3-10,0231_eid_dnn_32-3-10_truck_10_n04467665_4940.png,n04467665_4940.png,0.0,-6.281757,-0.43836597,-4.1319013
alexnet_w1_mlp_simclrhn_probe0,1,232,NaN,cat,knife,8-3-10,0232_eid_dnn_8-3-10_knife_10_n03041632_20433.png,n03041632_20433.png,0.0,-4.4358516,-3.4824457,-0.67415977
alexnet_w1_mlp_simclrhn_probe0,1,233,NaN,clock,clock,2-3-10,0233_eid_dnn_2-3-10_clock_10_n04548280_6792.png,n04548280_6792.png,1.0,2.0892875,-0.60736185,1.9068191
alexnet_w1_mlp_simclrhn_probe0,1,234,NaN,oven,bicycle,4-3-10,0234_eid_dnn_4-3-10_bicycle_10_n02835271_5413.png,n02835271_5413.png,0.0,-2.2711005,-2.2209547,-0.035458483
alexnet_w1_mlp_simclrhn_probe0,1,235,NaN,car,car,2-3-10,0235_eid_dnn_2-3-10_car_10_n04285008_5005.png,n04285008_5005.png,1.0,2.7190526,-0.3453324,2.1668475
alexnet_w1_mlp_simclrhn_probe0,1,236,NaN,oven,car,2-3-10,0236_eid_dnn_2-3-10_car_10_n02814533_88088.png,n02814533_88088.png,0.0,-2.565924,-0.92953867,-1.1570991
alexnet_w1_mlp_simclrhn_probe0,1,237,NaN,bear,elephant,64-3-10,0237_eid_dnn_64-3-10_elephant_10_n02504458_11345.png,n02504458_11345.png,0.0,-0.74198943,0.19345252,-0.66145736
alexnet_w1_mlp_simclrhn_probe0,1,238,NaN,elephant,elephant,16-3-10,0238_eid_dnn_16-3-10_elephant_10_n02504013_1900.png,n02504013_1900.png,1.0,1.9625144,0.14033976,1.288472
alexnet_w1_mlp_simclrhn_probe0,1,239,NaN,oven,bear,128-3-10,0239_eid_dnn_128-3-10_bear_10_n02133161_5708.png,n02133161_5708.png,0.0,-1.4135337,-0.81923234,-0.42023453
alexnet_w1_mlp_simclrhn_probe0,1,240,NaN,cat,cat,8-3-10,0240_eid_dnn_8-3-10_cat_10_n02124075_5828.png,n02124075_5828.png,1.0,1.553924,-1.3685639,2.066511
alexnet_w1_mlp_simclrhn_probe0,1,241,NaN,oven,bird,64-3-10,0241_eid_dnn_64-3-10_bird_10_n01582220_9392.png,n01582220_9392.png,0.0,-3.7920492,0.15064193,-2.7879035
alexnet_w1_mlp_simclrhn_probe0,1,242,NaN,clock,clock,1-3-10,0242_eid_dnn_1-3-10_clock_10_n02708093_4597.png,n02708093_4597.png,1.0,4.9298096,-0.35206428,3.7348487
alexnet_w1_mlp_simclrhn_probe0,1,243,NaN,oven,bicycle,128-3-10,0243_eid_dnn_128-3-10_bicycle_10_n03792782_26306.png,n03792782_26306.png,0.0,-2.115085,-0.62015533,-1.0570748
alexnet_w1_mlp_simclrhn_probe0,1,244,NaN,bear,bear,32-3-10,0244_eid_dnn_32-3-10_bear_10_n02132136_1795.png,n02132136_1795.png,1.0,0.84341824,0.25052223,0.41924077
alexnet_w1_mlp_simclrhn_probe0,1,245,NaN,oven,clock,128-3-10,0245_eid_dnn_128-3-10_clock_10_n02708093_3638.png,n02708093_3638.png,0.0,-5.193253,-1.0550194,-2.9261732
alexnet_w1_mlp_simclrhn_probe0,1,246,NaN,keyboard,keyboard,4-3-10,0246_eid_dnn_4-3-10_keyboard_10_n03085013_21272.png,n03085013_21272.png,1.0,-0.7740423,-1.8784144,0.78090894
alexnet_w1_mlp_simclrhn_probe0,1,247,NaN,bottle,chair,8-3-10,0247_eid_dnn_8-3-10_chair_10_n02791124_16926.png,n02791124_16926.png,0.0,-4.51998,-2.3604827,-1.5269952
alexnet_w1_mlp_simclrhn_probe0,1,248,NaN,dog,knife,8-3-10,0248_eid_dnn_8-3-10_knife_10_n03041632_84048.png,n03041632_84048.png,0.0,-3.7405663,-2.1561003,-1.1203866
alexnet_w1_mlp_simclrhn_probe0,1,249,NaN,oven,oven,2-3-10,0249_eid_dnn_2-3-10_oven_10_n04111531_550.png,n04111531_550.png,1.0,1.6337149,-1.7093865,2.3639297
alexnet_w1_mlp_simclrhn_probe0,1,250,NaN,bear,boat,128-3-10,0250_eid_dnn_128-3-10_boat_10_n03662601_21992.png,n03662601_21992.png,0.0,-9.314817,-1.214277,-5.7279468
alexnet_w1_mlp_simclrhn_probe0,1,251,NaN,bear,bear,32-3-10,0251_eid_dnn_32-3-10_bear_10_n02134418_280.png,n02134418_280.png,1.0,0.9685398,-0.37102008,0.9472118
alexnet_w1_mlp_simclrhn_probe0,1,252,NaN,oven,bottle,8-3-10,0252_eid_dnn_8-3-10_bottle_10_n04560804_8385.png,n04560804_8385.png,0.0,-2.9594395,-1.3938617,-1.1070307
alexnet_w1_mlp_simclrhn_probe0,1,253,NaN,elephant,elephant,64-3-10,0253_eid_dnn_64-3-10_elephant_10_n02504013_4183.png,n02504013_4183.png,1.0,0.09702112,-0.47118583,0.40178302
alexnet_w1_mlp_simclrhn_probe0,1,254,NaN,bird,bird,1-3-10,0254_eid_dnn_1-3-10_bird_10_n01560419_19608.png,n01560419_19608.png,1.0,-0.41249517,-2.419397,1.419094
alexnet_w1_mlp_simclrhn_probe0,1,255,NaN,dog,bird,4-3-10,0255_eid_dnn_4-3-10_bird_10_n02056570_8865.png,n02056570_8865.png,0.0,-3.5599802,-1.9704762,-1.123949
alexnet_w1_mlp_simclrhn_probe0,1,256,NaN,cat,cat,2-3-10,0256_eid_dnn_2-3-10_cat_10_n02123394_2553.png,n02123394_2553.png,1.0,-0.491354,-1.5041078,0.71612513
alexnet_w1_mlp_simclrhn_probe0,1,257,NaN,oven,bear,128-3-10,0257_eid_dnn_128-3-10_bear_10_n02132136_10113.png,n02132136_10113.png,0.0,-1.3428628,-0.45421892,-0.6283662
alexnet_w1_mlp_simclrhn_probe0,1,258,NaN,oven,oven,8-3-10,0258_eid_dnn_8-3-10_oven_10_n04111531_2758.png,n04111531_2758.png,1.0,0.5408495,-1.1431863,1.1907932
alexnet_w1_mlp_simclrhn_probe0,1,259,NaN,elephant,keyboard,64-3-10,0259_eid_dnn_64-3-10_keyboard_10_n04505470_4824.png,n04505470_4824.png,0.0,-5.082178,-1.333323,-2.650841
alexnet_w1_mlp_simclrhn_probe0,1,260,NaN,bicycle,bicycle,2-3-10,0260_eid_dnn_2-3-10_bicycle_10_n02835271_8654.png,n02835271_8654.png,1.0,-0.82426184,-2.4939046,1.1806157
alexnet_w1_mlp_simclrhn_probe0,1,261,NaN,bear,keyboard,128-3-10,0261_eid_dnn_128-3-10_keyboard_10_n03085013_34973.png,n03085013_34973.png,0.0,-6.4816446,-0.16283089,-4.468076
alexnet_w1_mlp_simclrhn_probe0,1,262,NaN,cat,cat,4-3-10,0262_eid_dnn_4-3-10_cat_10_n02123394_4228.png,n02123394_4228.png,1.0,-1.6303306,-2.6004417,0.68597215
alexnet_w1_mlp_simclrhn_probe0,1,263,NaN,bear,keyboard,32-3-10,0263_eid_dnn_32-3-10_keyboard_10_n03085013_24416.png,n03085013_24416.png,0.0,-4.931613,-0.3740639,-3.222674
alexnet_w1_mlp_simclrhn_probe0,1,264,NaN,cat,cat,8-3-10,0264_eid_dnn_8-3-10_cat_10_n02124075_5729.png,n02124075_5729.png,1.0,0.12058992,-0.9100899,0.7288007
alexnet_w1_mlp_simclrhn_probe0,1,265,NaN,bear,clock,32-3-10,0265_eid_dnn_32-3-10_clock_10_n03196217_6357.png,n03196217_6357.png,0.0,-4.210371,-0.42866975,-2.6740668
alexnet_w1_mlp_simclrhn_probe0,1,266,NaN,oven,truck,128-3-10,0266_eid_dnn_128-3-10_truck_10_n03417042_29478.png,n03417042_29478.png,0.0,-5.1910667,-1.1321515,-2.8700864
alexnet_w1_mlp_simclrhn_probe0,1,267,NaN,bird,chair,128-3-10,0267_eid_dnn_128-3-10_chair_10_n04099969_18678.png,n04099969_18678.png,0.0,-3.4609666,-1.1304642,-1.6479142
alexnet_w1_mlp_simclrhn_probe0,1,268,NaN,oven,clock,32-3-10,0268_eid_dnn_32-3-10_clock_10_n02708093_4286.png,n02708093_4286.png,0.0,-6.8915024,0.09698406,-4.941606
alexnet_w1_mlp_simclrhn_probe0,1,269,NaN,oven,car,128-3-10,0269_eid_dnn_128-3-10_car_10_n03100240_21971.png,n03100240_21971.png,0.0,-8.839539,-0.29192057,-6.044079
alexnet_w1_mlp_simclrhn_probe0,1,270,NaN,car,car,1-3-10,0270_eid_dnn_1-3-10_car_10_n03100240_84.png,n03100240_84.png,1.0,2.7321951,2.3400674,0.2772762
alexnet_w1_mlp_simclrhn_probe0,1,271,NaN,cat,dog,1-3-10,0271_eid_dnn_1-3-10_dog_10_n02094433_3186.png,n02094433_3186.png,0.0,-1.9175993,-0.879539,-0.7340195
alexnet_w1_mlp_simclrhn_probe0,1,272,NaN,dog,dog,4-3-10,0272_eid_dnn_4-3-10_dog_10_n02088364_10195.png,n02088364_10195.png,1.0,-0.86696106,-1.4767046,0.4311538
alexnet_w1_mlp_simclrhn_probe0,1,273,NaN,bear,knife,16-3-10,0273_eid_dnn_16-3-10_knife_10_n03041632_11358.png,n03041632_11358.png,0.0,-4.1678553,-0.21545099,-2.794772
alexnet_w1_mlp_simclrhn_probe0,1,274,NaN,oven,bird,64-3-10,0274_eid_dnn_64-3-10_bird_10_n01531178_10630.png,n01531178_10630.png,0.0,-1.3088614,-0.6753557,-0.44795617
alexnet_w1_mlp_simclrhn_probe0,1,275,NaN,elephant,elephant,1-3-10,0275_eid_dnn_1-3-10_elephant_10_n02504458_4058.png,n02504458_4058.png,1.0,1.4011894,0.19106422,0.85568774
alexnet_w1_mlp_simclrhn_probe0,1,276,NaN,oven,keyboard,32-3-10,0276_eid_dnn_32-3-10_keyboard_10_n03085013_24336.png,n03085013_24336.png,0.0,-6.7636776,-0.18807214,-4.6496553
alexnet_w1_mlp_simclrhn_probe0,1,277,NaN,bottle,clock,4-3-10,0277_eid_dnn_4-3-10_clock_10_n02708093_386.png,n02708093_386.png,0.0,-2.0391681,-1.2397192,-0.5652958
alexnet_w1_mlp_simclrhn_probe0,1,278,NaN,elephant,chair,4-3-10,0278_eid_dnn_4-3-10_chair_10_n04429376_16370.png,n04429376_16370.png,0.0,-5.856788,-1.1829835,-3.3048792
alexnet_w1_mlp_simclrhn_probe0,1,279,NaN,knife,bottle,1-3-10,0279_eid_dnn_1-3-10_bottle_10_n04557648_10167.png,n04557648_10167.png,0.0,-3.4190981,-2.6381528,-0.5522117
alexnet_w1_mlp_simclrhn_probe0,1,280,NaN,bicycle,bicycle,1-3-10,0280_eid_dnn_1-3-10_bicycle_10_n02835271_15717.png,n02835271_15717.png,1.0,0.76152223,-3.4625185,2.9868476
alexnet_w1_mlp_simclrhn_probe0,1,281,NaN,oven,car,128-3-10,0281_eid_dnn_128-3-10_car_10_n03100240_22593.png,n03100240_22593.png,0.0,-9.015812,-0.08557321,-6.3146324
alexnet_w1_mlp_simclrhn_probe0,1,282,NaN,car,car,1-3-10,0282_eid_dnn_1-3-10_car_10_n04285008_11240.png,n04285008_11240.png,1.0,4.529369,0.38562864,2.9300668
alexnet_w1_mlp_simclrhn_probe0,1,283,NaN,airplane,boat,1-3-10,0283_eid_dnn_1-3-10_boat_10_n03344393_3337.png,n03344393_3337.png,0.0,-1.024173,-0.9262554,-0.06923821
alexnet_w1_mlp_simclrhn_probe0,1,284,NaN,oven,bottle,128-3-10,0284_eid_dnn_128-3-10_bottle_10_n04579145_1660.png,n04579145_1660.png,0.0,-4.379914,-0.24671422,-2.9226136
alexnet_w1_mlp_simclrhn_probe0,1,285,NaN,oven,dog,64-3-10,0285_eid_dnn_64-3-10_dog_10_n02091244_9305.png,n02091244_9305.png,0.0,-2.0462651,0.36375463,-1.7041414
alexnet_w1_mlp_simclrhn_probe0,1,286,NaN,oven,chair,32-3-10,0286_eid_dnn_32-3-10_chair_10_n03376595_3912.png,n03376595_3912.png,0.0,-4.218571,-0.80626464,-2.4128652
alexnet_w1_mlp_simclrhn_probe0,1,287,NaN,bear,bottle,64-3-10,0287_eid_dnn_64-3-10_bottle_10_n02823428_6793.png,n02823428_6793.png,0.0,-4.738853,-0.06708764,-3.303437
alexnet_w1_mlp_simclrhn_probe0,1,288,NaN,bear,dog,32-3-10,0288_eid_dnn_32-3-10_dog_10_n02093754_4949.png,n02093754_4949.png,0.0,-1.507324,0.65519047,-1.5291287
alexnet_w1_mlp_simclrhn_probe0,1,289,NaN,oven,dog,128-3-10,0289_eid_dnn_128-3-10_dog_10_n02105855_10394.png,n02105855_10394.png,0.0,-1.9939945,0.16626436,-1.5275337
alexnet_w1_mlp_simclrhn_probe0,1,290,NaN,bottle,clock,2-3-10,0290_eid_dnn_2-3-10_clock_10_n04548280_9533.png,n04548280_9533.png,0.0,-2.0797727,-1.5364507,-0.38418666
alexnet_w1_mlp_simclrhn_probe0,1,291,NaN,cat,cat,1-3-10,0291_eid_dnn_1-3-10_cat_10_n02125311_7527.png,n02125311_7527.png,1.0,-1.9334188,-2.508613,0.40672383
alexnet_w1_mlp_simclrhn_probe0,1,292,NaN,car,car,4-3-10,0292_eid_dnn_4-3-10_car_10_n03100240_4537.png,n03100240_4537.png,1.0,-0.27893078,-2.0579224,1.2579371
alexnet_w1_mlp_simclrhn_probe0,1,293,NaN,elephant,bicycle,8-3-10,0293_eid_dnn_8-3-10_bicycle_10_n03792782_11609.png,n03792782_11609.png,0.0,-7.9457836,-0.9198382,-4.968094
alexnet_w1_mlp_simclrhn_probe0,1,294,NaN,cat,oven,128-3-10,0294_eid_dnn_128-3-10_oven_10_n04111531_6134.png,n04111531_6134.png,0.0,-1.8814423,-1.0815058,-0.56564057
alexnet_w1_mlp_simclrhn_probe0,1,295,NaN,oven,bottle,8-3-10,0295_eid_dnn_8-3-10_bottle_10_n04591713_715.png,n04591713_715.png,0.0,-4.1140256,-3.3182452,-0.56270176
alexnet_w1_mlp_simclrhn_probe0,1,296,NaN,bear,elephant,32-3-10,0296_eid_dnn_32-3-10_elephant_10_n02504458_7818.png,n02504458_7818.png,0.0,-0.09128859,-0.0877206,-0.0025229473
alexnet_w1_mlp_simclrhn_probe0,1,297,NaN,oven,airplane,64-3-10,0297_eid_dnn_64-3-10_airplane_10_n02690373_7107.png,n02690373_7107.png,0.0,-6.4687233,-0.23803301,-4.4057636
alexnet_w1_mlp_simclrhn_probe0,1,298,NaN,bear,car,32-3-10,0298_eid_dnn_32-3-10_car_10_n04285008_8363.png,n04285008_8363.png,0.0,-7.053823,-0.5283511,-4.6142054
alexnet_w1_mlp_simclrhn_probe0,1,299,NaN,oven,clock,4-3-10,0299_eid_dnn_4-3-10_clock_10_n04548280_4249.png,n04548280_4249.png,0.0,-5.6155496,-1.3891618,-2.9885077
alexnet_w1_mlp_simclrhn_probe0,1,300,NaN,cat,cat,128-3-10,0300_eid_dnn_128-3-10_cat_10_n02123597_7269.png,n02123597_7269.png,1.0,0.557951,-0.60783666,0.8243364
alexnet_w1_mlp_simclrhn_probe0,1,301,NaN,bicycle,bicycle,1-3-10,0301_eid_dnn_1-3-10_bicycle_10_n03792782_4864.png,n03792782_4864.png,1.0,3.0204182,-2.8469357,4.1488457
alexnet_w1_mlp_simclrhn_probe0,1,302,NaN,bear,bear,2-3-10,0302_eid_dnn_2-3-10_bear_10_n02132136_8011.png,n02132136_8011.png,1.0,1.2450638,-1.090135,1.651235
alexnet_w1_mlp_simclrhn_probe0,1,303,NaN,oven,boat,128-3-10,0303_eid_dnn_128-3-10_boat_10_n02951358_4810.png,n02951358_4810.png,0.0,-5.765525,-1.7538619,-2.8366742
alexnet_w1_mlp_simclrhn_probe0,1,304,NaN,oven,clock,128-3-10,0304_eid_dnn_128-3-10_clock_10_n03196217_5137.png,n03196217_5137.png,0.0,-6.1174073,-0.87812585,-3.7047317
alexnet_w1_mlp_simclrhn_probe0,1,305,NaN,bicycle,bicycle,2-3-10,0305_eid_dnn_2-3-10_bicycle_10_n02835271_158.png,n02835271_158.png,1.0,0.1346362,-3.7060955,2.7158074
alexnet_w1_mlp_simclrhn_probe0,1,306,NaN,oven,bear,64-3-10,0306_eid_dnn_64-3-10_bear_10_n02132136_11217.png,n02132136_11217.png,0.0,-1.9597216,-0.27337828,-1.1924248
alexnet_w1_mlp_simclrhn_probe0,1,307,NaN,oven,dog,64-3-10,0307_eid_dnn_64-3-10_dog_10_n02092002_6122.png,n02092002_6122.png,0.0,-1.5073724,-0.0048121214,-1.0624706
alexnet_w1_mlp_simclrhn_probe0,1,308,NaN,bear,chair,32-3-10,0308_eid_dnn_32-3-10_chair_10_n04429376_29223.png,n04429376_29223.png,0.0,-8.655762,-0.20463257,-5.9758506
alexnet_w1_mlp_simclrhn_probe0,1,309,NaN,oven,bear,128-3-10,0309_eid_dnn_128-3-10_bear_10_n02133161_5723.png,n02133161_5723.png,0.0,-0.8935282,-0.88778293,-0.004062535
alexnet_w1_mlp_simclrhn_probe0,1,310,NaN,oven,dog,128-3-10,0310_eid_dnn_128-3-10_dog_10_n02100583_1343.png,n02100583_1343.png,0.0,-1.6663752,-0.372899,-0.91462576
alexnet_w1_mlp_simclrhn_probe0,1,311,NaN,oven,boat,128-3-10,0311_eid_dnn_128-3-10_boat_10_n03344393_6352.png,n03344393_6352.png,0.0,-5.84961,0.10822643,-4.2128263
alexnet_w1_mlp_simclrhn_probe0,1,312,NaN,bird,bird,4-3-10,0312_eid_dnn_4-3-10_bird_10_n01560419_8247.png,n01560419_8247.png,1.0,-2.4993708,-2.7574768,0.1825085
alexnet_w1_mlp_simclrhn_probe0,1,313,NaN,bear,dog,4-3-10,0313_eid_dnn_4-3-10_dog_10_n02105251_8210.png,n02105251_8210.png,0.0,-0.60282874,-0.5758567,-0.019072123
alexnet_w1_mlp_simclrhn_probe0,1,314,NaN,oven,oven,128-3-10,0314_eid_dnn_128-3-10_oven_10_n04111531_9702.png,n04111531_9702.png,1.0,-0.60544425,-1.112828,0.3587745
alexnet_w1_mlp_simclrhn_probe0,1,315,NaN,bear,bear,8-3-10,0315_eid_dnn_8-3-10_bear_10_n02133161_12161.png,n02133161_12161.png,1.0,0.07958704,-0.20756188,0.20304495
alexnet_w1_mlp_simclrhn_probe0,1,316,NaN,bear,bear,8-3-10,0316_eid_dnn_8-3-10_bear_10_n02133161_13556.png,n02133161_13556.png,1.0,0.48310968,-0.8114393,0.9153844
alexnet_w1_mlp_simclrhn_probe0,1,317,NaN,bear,bear,128-3-10,0317_eid_dnn_128-3-10_bear_10_n02134084_635.png,n02134084_635.png,1.0,-1.5598856,-1.8196465,0.18367867
alexnet_w1_mlp_simclrhn_probe0,1,318,NaN,oven,chair,128-3-10,0318_eid_dnn_128-3-10_chair_10_n02791124_6956.png,n02791124_6956.png,0.0,-6.544609,-0.7847256,-4.0728526
alexnet_w1_mlp_simclrhn_probe0,1,319,NaN,oven,car,4-3-10,0319_eid_dnn_4-3-10_car_10_n02814533_18077.png,n02814533_18077.png,0.0,-3.1378334,-2.2341542,-0.6389977
alexnet_w1_mlp_simclrhn_probe0,1,320,NaN,knife,dog,2-3-10,0320_eid_dnn_2-3-10_dog_10_n02088364_11105.png,n02088364_11105.png,0.0,-3.7465544,-2.55369,-0.84348255
alexnet_w1_mlp_simclrhn_probe0,1,321,NaN,oven,airplane,64-3-10,0321_eid_dnn_64-3-10_airplane_10_n02690373_1053.png,n02690373_1053.png,0.0,-6.725402,-0.85139805,-4.1535482
alexnet_w1_mlp_simclrhn_probe0,1,322,NaN,oven,car,16-3-10,0322_eid_dnn_16-3-10_car_10_n02814533_96407.png,n02814533_96407.png,0.0,-7.651829,0.6651821,-5.881015
alexnet_w1_mlp_simclrhn_probe0,1,323,NaN,oven,chair,4-3-10,0323_eid_dnn_4-3-10_chair_10_n04099969_31891.png,n04099969_31891.png,0.0,-1.4360219,-0.11417024,-0.93469036
alexnet_w1_mlp_simclrhn_probe0,1,324,NaN,cat,bottle,16-3-10,0324_eid_dnn_16-3-10_bottle_10_n04557648_4470.png,n04557648_4470.png,0.0,-2.6302524,-1.3324282,-0.9177003
alexnet_w1_mlp_simclrhn_probe0,1,325,NaN,oven,clock,8-3-10,0325_eid_dnn_8-3-10_clock_10_n02708093_2588.png,n02708093_2588.png,0.0,-6.7726383,-2.9132216,-2.7290199
alexnet_w1_mlp_simclrhn_probe0,1,326,NaN,bear,elephant,128-3-10,0326_eid_dnn_128-3-10_elephant_10_n02504458_6696.png,n02504458_6696.png,0.0,-2.2992086,-1.0736036,-0.86663365
alexnet_w1_mlp_simclrhn_probe0,1,327,NaN,bear,elephant,32-3-10,0327_eid_dnn_32-3-10_elephant_10_n02504013_4071.png,n02504013_4071.png,0.0,-0.18142472,-0.09592242,-0.06045926
alexnet_w1_mlp_simclrhn_probe0,1,328,NaN,knife,keyboard,8-3-10,0328_eid_dnn_8-3-10_keyboard_10_n03085013_8339.png,n03085013_8339.png,0.0,-4.880888,-1.667315,-2.2723393
alexnet_w1_mlp_simclrhn_probe0,1,329,NaN,bear,elephant,64-3-10,0329_eid_dnn_64-3-10_elephant_10_n02504013_6976.png,n02504013_6976.png,0.0,-1.133786,-0.08565134,-0.74114305
alexnet_w1_mlp_simclrhn_probe0,1,330,NaN,bear,boat,4-3-10,0330_eid_dnn_4-3-10_boat_10_n02951358_9146.png,n02951358_9146.png,0.0,-4.656072,-0.4910198,-2.9451368
alexnet_w1_mlp_simclrhn_probe0,1,331,NaN,bear,boat,32-3-10,0331_eid_dnn_32-3-10_boat_10_n04273569_4087.png,n04273569_4087.png,0.0,-3.4081473,-1.0691469,-1.6539232
alexnet_w1_mlp_simclrhn_probe0,1,332,NaN,bear,oven,64-3-10,0332_eid_dnn_64-3-10_oven_10_n04111531_2922.png,n04111531_2922.png,0.0,-1.3139457,-0.45995635,-0.60386163
alexnet_w1_mlp_simclrhn_probe0,1,333,NaN,bear,bear,4-3-10,0333_eid_dnn_4-3-10_bear_10_n02133161_5325.png,n02133161_5325.png,1.0,1.2358577,-1.6249751,2.0229142
alexnet_w1_mlp_simclrhn_probe0,1,334,NaN,oven,bottle,64-3-10,0334_eid_dnn_64-3-10_bottle_10_n04557648_3109.png,n04557648_3109.png,0.0,-3.5817642,0.24376626,-2.7050586
alexnet_w1_mlp_simclrhn_probe0,1,335,NaN,oven,oven,1-3-10,0335_eid_dnn_1-3-10_oven_10_n04111531_15912.png,n04111531_15912.png,1.0,2.4455404,-1.0943861,2.503106
alexnet_w1_mlp_simclrhn_probe0,1,336,NaN,oven,truck,16-3-10,0336_eid_dnn_16-3-10_truck_10_n03417042_17099.png,n03417042_17099.png,0.0,-10.265298,-0.06564655,-7.212243
alexnet_w1_mlp_simclrhn_probe0,1,337,NaN,car,car,2-3-10,0337_eid_dnn_2-3-10_car_10_n04285008_8641.png,n04285008_8641.png,1.0,0.7443328,-0.73507977,1.0461026
alexnet_w1_mlp_simclrhn_probe0,1,338,NaN,bear,keyboard,32-3-10,0338_eid_dnn_32-3-10_keyboard_10_n04505470_524.png,n04505470_524.png,0.0,-7.441897,-0.6693419,-4.7889194
alexnet_w1_mlp_simclrhn_probe0,1,339,NaN,elephant,bottle,8-3-10,0339_eid_dnn_8-3-10_bottle_10_n04557648_5935.png,n04557648_5935.png,0.0,-6.5612,1.0579646,-5.3875628
alexnet_w1_mlp_simclrhn_probe0,1,340,NaN,oven,bottle,1-3-10,0340_eid_dnn_1-3-10_bottle_10_n04591713_3776.png,n04591713_3776.png,0.0,-1.6800045,-1.4102548,-0.1907418
alexnet_w1_mlp_simclrhn_probe0,1,341,NaN,truck,truck,2-3-10,0341_eid_dnn_2-3-10_truck_10_n03796401_3651.png,n03796401_3651.png,1.0,2.2002459,-1.310922,2.4827707
alexnet_w1_mlp_simclrhn_probe0,1,342,NaN,bear,bicycle,128-3-10,0342_eid_dnn_128-3-10_bicycle_10_n03792782_15757.png,n03792782_15757.png,0.0,-2.2910633,-1.1502393,-0.8066844
alexnet_w1_mlp_simclrhn_probe0,1,343,NaN,oven,cat,32-3-10,0343_eid_dnn_32-3-10_cat_10_n02123597_8698.png,n02123597_8698.png,0.0,-1.428401,-0.29196608,-0.8035808
alexnet_w1_mlp_simclrhn_probe0,1,344,NaN,boat,boat,1-3-10,0344_eid_dnn_1-3-10_boat_10_n03662601_273.png,n03662601_273.png,1.0,-1.3693805,-1.5297894,0.113426276
alexnet_w1_mlp_simclrhn_probe0,1,345,NaN,knife,knife,1-3-10,0345_eid_dnn_1-3-10_knife_10_n03041632_24376.png,n03041632_24376.png,1.0,-2.5506577,-3.2643242,0.5046384
alexnet_w1_mlp_simclrhn_probe0,1,346,NaN,keyboard,keyboard,1-3-10,0346_eid_dnn_1-3-10_keyboard_10_n04505470_2608.png,n04505470_2608.png,1.0,-3.3074894,-3.5925994,0.20160322
alexnet_w1_mlp_simclrhn_probe0,1,347,NaN,bear,boat,16-3-10,0347_eid_dnn_16-3-10_boat_10_n04273569_10665.png,n04273569_10665.png,0.0,-4.355794,-0.26670116,-2.8914251
alexnet_w1_mlp_simclrhn_probe0,1,348,NaN,bear,bear,64-3-10,0348_eid_dnn_64-3-10_bear_10_n02133161_5267.png,n02133161_5267.png,1.0,0.15916689,-0.020322252,0.12691799
alexnet_w1_mlp_simclrhn_probe0,1,349,NaN,bear,bear,128-3-10,0349_eid_dnn_128-3-10_bear_10_n02133161_5020.png,n02133161_5020.png,1.0,-0.20714606,-0.88201565,0.4772049
alexnet_w1_mlp_simclrhn_probe0,1,350,NaN,oven,knife,128-3-10,0350_eid_dnn_128-3-10_knife_10_n03041632_21723.png,n03041632_21723.png,0.0,-5.369731,0.22651537,-3.9571438
alexnet_w1_mlp_simclrhn_probe0,1,351,NaN,bear,boat,32-3-10,0351_eid_dnn_32-3-10_boat_10_n02951358_31101.png,n02951358_31101.png,0.0,-4.1727004,-0.65529823,-2.487179
alexnet_w1_mlp_simclrhn_probe0,1,352,NaN,oven,dog,128-3-10,0352_eid_dnn_128-3-10_dog_10_n02102177_4180.png,n02102177_4180.png,0.0,-1.774969,-1.0035044,-0.54550785
alexnet_w1_mlp_simclrhn_probe0,1,353,NaN,bottle,bottle,4-3-10,0353_eid_dnn_4-3-10_bottle_10_n04579145_4186.png,n04579145_4186.png,1.0,1.4876896,-1.4764172,2.09594
alexnet_w1_mlp_simclrhn_probe0,1,354,NaN,bear,bicycle,64-3-10,0354_eid_dnn_64-3-10_bicycle_10_n03792782_2246.png,n03792782_2246.png,0.0,-3.6948447,0.70615125,-3.1119742
alexnet_w1_mlp_simclrhn_probe0,1,355,NaN,dog,dog,1-3-10,0355_eid_dnn_1-3-10_dog_10_n02110958_1526.png,n02110958_1526.png,1.0,-2.9189003,-6.909245,2.8216
alexnet_w1_mlp_simclrhn_probe0,1,356,NaN,bear,keyboard,128-3-10,0356_eid_dnn_128-3-10_keyboard_10_n04505470_255.png,n04505470_255.png,0.0,-7.8254905,-0.14010608,-5.434387
alexnet_w1_mlp_simclrhn_probe0,1,357,NaN,bear,elephant,4-3-10,0357_eid_dnn_4-3-10_elephant_10_n02504458_1933.png,n02504458_1933.png,0.0,-0.7724142,-0.71012634,-0.044044174
alexnet_w1_mlp_simclrhn_probe0,1,358,NaN,cat,cat,2-3-10,0358_eid_dnn_2-3-10_cat_10_n02123159_5749.png,n02123159_5749.png,1.0,0.5228665,-4.0349584,3.2228692
alexnet_w1_mlp_simclrhn_probe0,1,359,NaN,bear,airplane,128-3-10,0359_eid_dnn_128-3-10_airplane_10_n02690373_2967.png,n02690373_2967.png,0.0,-8.471373,-1.7026887,-4.7861824
alexnet_w1_mlp_simclrhn_probe0,1,360,NaN,cat,chair,8-3-10,0360_eid_dnn_8-3-10_chair_10_n04099969_72.png,n04099969_72.png,0.0,-6.193248,-1.9796125,-2.9794903
alexnet_w1_mlp_simclrhn_probe0,1,361,NaN,oven,cat,32-3-10,0361_eid_dnn_32-3-10_cat_10_n02123045_4089.png,n02123045_4089.png,0.0,-1.1057745,-0.69002587,-0.2939787
alexnet_w1_mlp_simclrhn_probe0,1,362,NaN,oven,bird,128-3-10,0362_eid_dnn_128-3-10_bird_10_n01616318_13293.png,n01616318_13293.png,0.0,-5.0442615,-0.78250325,-3.0135183
alexnet_w1_mlp_simclrhn_probe0,1,363,NaN,cat,cat,4-3-10,0363_eid_dnn_4-3-10_cat_10_n02124075_13719.png,n02124075_13719.png,1.0,-1.5712594,-1.874784,0.21462432
alexnet_w1_mlp_simclrhn_probe0,1,364,NaN,cat,oven,32-3-10,0364_eid_dnn_32-3-10_oven_10_n04111531_22466.png,n04111531_22466.png,0.0,-1.9849234,-0.75380707,-0.8705307
alexnet_w1_mlp_simclrhn_probe0,1,365,NaN,oven,airplane,128-3-10,0365_eid_dnn_128-3-10_airplane_10_n02690373_2525.png,n02690373_2525.png,0.0,-8.966192,-1.0517287,-5.5963707
alexnet_w1_mlp_simclrhn_probe0,1,366,NaN,cat,cat,1-3-10,0366_eid_dnn_1-3-10_cat_10_n02124075_5369.png,n02124075_5369.png,1.0,0.6250332,-1.1132205,1.229131
alexnet_w1_mlp_simclrhn_probe0,1,367,NaN,oven,bird,64-3-10,0367_eid_dnn_64-3-10_bird_10_n01843065_4182.png,n01843065_4182.png,0.0,-1.9486746,-0.35250184,-1.1286645
alexnet_w1_mlp_simclrhn_probe0,1,368,NaN,truck,truck,2-3-10,0368_eid_dnn_2-3-10_truck_10_n03796401_6472.png,n03796401_6472.png,1.0,-1.3993057,-1.9604918,0.3968185
alexnet_w1_mlp_simclrhn_probe0,1,369,NaN,oven,airplane,64-3-10,0369_eid_dnn_64-3-10_airplane_10_n02690373_3090.png,n02690373_3090.png,0.0,-6.375752,-0.32110116,-4.281285
alexnet_w1_mlp_simclrhn_probe0,1,370,NaN,bear,bear,64-3-10,0370_eid_dnn_64-3-10_bear_10_n02134418_2964.png,n02134418_2964.png,1.0,0.007187605,-0.62996346,0.45053384
alexnet_w1_mlp_simclrhn_probe0,1,371,NaN,bear,elephant,16-3-10,0371_eid_dnn_16-3-10_elephant_10_n02504013_6904.png,n02504013_6904.png,0.0,1.5230947,1.66682,-0.101629205
alexnet_w1_mlp_simclrhn_probe0,1,372,NaN,bear,bottle,32-3-10,0372_eid_dnn_32-3-10_bottle_10_n02823428_13488.png,n02823428_13488.png,0.0,-5.497653,-0.6826865,-3.4046957
alexnet_w1_mlp_simclrhn_probe0,1,373,NaN,car,car,1-3-10,0373_eid_dnn_1-3-10_car_10_n02814533_49499.png,n02814533_49499.png,1.0,7.5890784,1.8639913,4.048248
alexnet_w1_mlp_simclrhn_probe0,1,374,NaN,bear,clock,64-3-10,0374_eid_dnn_64-3-10_clock_10_n03196217_1000.png,n03196217_1000.png,0.0,-5.614803,-1.0239109,-3.2462509
alexnet_w1_mlp_simclrhn_probe0,1,375,NaN,bear,boat,16-3-10,0375_eid_dnn_16-3-10_boat_10_n04612504_13446.png,n04612504_13446.png,0.0,-3.0199475,0.19176757,-2.2710257
alexnet_w1_mlp_simclrhn_probe0,1,376,NaN,bear,cat,8-3-10,0376_eid_dnn_8-3-10_cat_10_n02123159_7239.png,n02123159_7239.png,0.0,-1.1468033,-0.37559307,-0.54532796
alexnet_w1_mlp_simclrhn_probe0,1,377,NaN,oven,airplane,8-3-10,0377_eid_dnn_8-3-10_airplane_10_n02690373_7499.png,n02690373_7499.png,0.0,-2.1173606,-0.93896556,-0.8332511
alexnet_w1_mlp_simclrhn_probe0,1,378,NaN,bear,dog,64-3-10,0378_eid_dnn_64-3-10_dog_10_n02100877_8862.png,n02100877_8862.png,0.0,-1.6082572,-0.5202949,-0.7693055
alexnet_w1_mlp_simclrhn_probe0,1,379,NaN,keyboard,keyboard,2-3-10,0379_eid_dnn_2-3-10_keyboard_10_n03085013_7152.png,n03085013_7152.png,1.0,3.1069865,-0.024430633,2.2142465
alexnet_w1_mlp_simclrhn_probe0,1,380,NaN,bear,bottle,32-3-10,0380_eid_dnn_32-3-10_bottle_10_n03937543_3344.png,n03937543_3344.png,0.0,-5.1794066,-0.7199123,-3.153339
alexnet_w1_mlp_simclrhn_probe0,1,381,NaN,bear,bicycle,64-3-10,0381_eid_dnn_64-3-10_bicycle_10_n02835271_1721.png,n02835271_1721.png,0.0,-3.5979605,-0.21182156,-2.3943617
alexnet_w1_mlp_simclrhn_probe0,1,382,NaN,boat,boat,2-3-10,0382_eid_dnn_2-3-10_boat_10_n04273569_7039.png,n04273569_7039.png,1.0,0.82757294,-1.5746133,1.6986023
alexnet_w1_mlp_simclrhn_probe0,1,383,NaN,airplane,airplane,1-3-10,0383_eid_dnn_1-3-10_airplane_10_n02690373_5790.png,n02690373_5790.png,1.0,3.1496851,-1.4619303,3.2609043
alexnet_w1_mlp_simclrhn_probe0,1,384,NaN,boat,bird,2-3-10,0384_eid_dnn_2-3-10_bird_10_n02007558_4629.png,n02007558_4629.png,0.0,-3.107656,-1.7318385,-0.9728499
alexnet_w1_mlp_simclrhn_probe0,1,385,NaN,airplane,airplane,8-3-10,0385_eid_dnn_8-3-10_airplane_10_n02690373_2313.png,n02690373_2313.png,1.0,0.64234334,-1.2909459,1.367042
alexnet_w1_mlp_simclrhn_probe0,1,386,NaN,car,car,2-3-10,0386_eid_dnn_2-3-10_car_10_n02814533_65093.png,n02814533_65093.png,1.0,4.4683642,2.1048648,1.6712465
alexnet_w1_mlp_simclrhn_probe0,1,387,NaN,bicycle,bicycle,2-3-10,0387_eid_dnn_2-3-10_bicycle_10_n03792782_4559.png,n03792782_4559.png,1.0,-1.1891172,-5.5549507,3.0871103
alexnet_w1_mlp_simclrhn_probe0,1,388,NaN,oven,oven,2-3-10,0388_eid_dnn_2-3-10_oven_10_n04111531_16696.png,n04111531_16696.png,1.0,2.102635,-0.9734616,2.1751287
alexnet_w1_mlp_simclrhn_probe0,1,389,NaN,bear,boat,32-3-10,0389_eid_dnn_32-3-10_boat_10_n04273569_5593.png,n04273569_5593.png,0.0,-4.111903,-0.37581545,-2.641813
alexnet_w1_mlp_simclrhn_probe0,1,390,NaN,bear,bottle,128-3-10,0390_eid_dnn_128-3-10_bottle_10_n03937543_6624.png,n03937543_6624.png,0.0,-3.1564908,-0.5316515,-1.8560417
alexnet_w1_mlp_simclrhn_probe0,1,391,NaN,airplane,airplane,1-3-10,0391_eid_dnn_1-3-10_airplane_10_n02690373_12436.png,n02690373_12436.png,1.0,7.2766514,1.2775003,4.2420406
alexnet_w1_mlp_simclrhn_probe0,1,392,NaN,bird,bird,2-3-10,0392_eid_dnn_2-3-10_bird_10_n01828970_6924.png,n01828970_6924.png,1.0,0.37771985,-1.6054609,1.4023206
alexnet_w1_mlp_simclrhn_probe0,1,393,NaN,airplane,airplane,4-3-10,0393_eid_dnn_4-3-10_airplane_10_n02690373_9605.png,n02690373_9605.png,1.0,1.0272053,-4.4184055,3.8506286
alexnet_w1_mlp_simclrhn_probe0,1,394,NaN,bear,truck,128-3-10,0394_eid_dnn_128-3-10_truck_10_n03796401_1335.png,n03796401_1335.png,0.0,-6.984539,-0.90800226,-4.2967606
alexnet_w1_mlp_simclrhn_probe0,1,395,NaN,bear,chair,64-3-10,0395_eid_dnn_64-3-10_chair_10_n04429376_10476.png,n04429376_10476.png,0.0,-11.883871,0.0022344887,-8.404746
alexnet_w1_mlp_simclrhn_probe0,1,396,NaN,bottle,bottle,1-3-10,0396_eid_dnn_1-3-10_bottle_10_n04560804_32760.png,n04560804_32760.png,1.0,0.6284894,-1.4007376,1.4348803
alexnet_w1_mlp_simclrhn_probe0,1,397,NaN,oven,airplane,32-3-10,0397_eid_dnn_32-3-10_airplane_10_n02690373_10817.png,n02690373_10817.png,0.0,-3.9142337,-0.8059419,-2.1978943
alexnet_w1_mlp_simclrhn_probe0,1,398,NaN,oven,car,32-3-10,0398_eid_dnn_32-3-10_car_10_n03100240_5946.png,n03100240_5946.png,0.0,-9.518779,-0.42870224,-6.4276547
alexnet_w1_mlp_simclrhn_probe0,1,399,NaN,bear,clock,64-3-10,0399_eid_dnn_64-3-10_clock_10_n02708093_2875.png,n02708093_2875.png,0.0,-9.572711,0.25148547,-6.9467564
alexnet_w1_mlp_simclrhn_probe0,1,400,NaN,bear,bear,2-3-10,0400_eid_dnn_2-3-10_bear_10_n02133161_2456.png,n02133161_2456.png,1.0,2.3967361,-0.3961548,1.9748722
alexnet_w1_mlp_simclrhn_probe0,1,401,NaN,cat,bird,8-3-10,0401_eid_dnn_8-3-10_bird_10_n01855672_15317.png,n01855672_15317.png,0.0,-3.8464112,-1.6036671,-1.5858595
alexnet_w1_mlp_simclrhn_probe0,1,402,NaN,dog,dog,8-3-10,0402_eid_dnn_8-3-10_dog_10_n02098286_2242.png,n02098286_2242.png,1.0,-0.6697924,-1.277091,0.42942497
alexnet_w1_mlp_simclrhn_probe0,1,403,NaN,elephant,knife,2-3-10,0403_eid_dnn_2-3-10_knife_10_n03041632_43289.png,n03041632_43289.png,0.0,-0.7912811,0.30421853,-0.77463526
alexnet_w1_mlp_simclrhn_probe0,1,404,NaN,bottle,bottle,4-3-10,0404_eid_dnn_4-3-10_bottle_10_n02823428_4387.png,n02823428_4387.png,1.0,0.38137794,-1.1009771,1.0481833
alexnet_w1_mlp_simclrhn_probe0,1,405,NaN,oven,knife,64-3-10,0405_eid_dnn_64-3-10_knife_10_n03041632_13194.png,n03041632_13194.png,0.0,-4.147672,0.54435456,-3.3177638
alexnet_w1_mlp_simclrhn_probe0,1,406,NaN,airplane,airplane,8-3-10,0406_eid_dnn_8-3-10_airplane_10_n02690373_7465.png,n02690373_7465.png,1.0,0.09298028,-2.046626,1.5129303
alexnet_w1_mlp_simclrhn_probe0,1,407,NaN,bear,bird,4-3-10,0407_eid_dnn_4-3-10_bird_10_n02018207_2282.png,n02018207_2282.png,0.0,-1.1445601,-0.19838144,-0.6690494
alexnet_w1_mlp_simclrhn_probe0,1,408,NaN,oven,chair,64-3-10,0408_eid_dnn_64-3-10_chair_10_n04099969_34351.png,n04099969_34351.png,0.0,-3.5813959,-0.060270786,-2.4898114
alexnet_w1_mlp_simclrhn_probe0,1,409,NaN,bear,bottle,64-3-10,0409_eid_dnn_64-3-10_bottle_10_n03937543_49.png,n03937543_49.png,0.0,-2.9213626,-0.2380805,-1.897367
alexnet_w1_mlp_simclrhn_probe0,1,410,NaN,elephant,bicycle,8-3-10,0410_eid_dnn_8-3-10_bicycle_10_n03792782_9833.png,n03792782_9833.png,0.0,-1.6152003,-1.5228779,-0.06528176
alexnet_w1_mlp_simclrhn_probe0,1,411,NaN,knife,clock,4-3-10,0411_eid_dnn_4-3-10_clock_10_n03196217_10384.png,n03196217_10384.png,0.0,-2.8062184,-1.5111222,-0.9157713
alexnet_w1_mlp_simclrhn_probe0,1,412,NaN,bear,truck,64-3-10,0412_eid_dnn_64-3-10_truck_10_n04467665_4492.png,n04467665_4492.png,0.0,-6.340167,-0.7329855,-3.9648762
alexnet_w1_mlp_simclrhn_probe0,1,413,NaN,oven,bottle,128-3-10,0413_eid_dnn_128-3-10_bottle_10_n03983396_5148.png,n03983396_5148.png,0.0,-3.4411147,-0.60112685,-2.0081747
alexnet_w1_mlp_simclrhn_probe0,1,414,NaN,oven,clock,128-3-10,0414_eid_dnn_128-3-10_clock_10_n04548280_4364.png,n04548280_4364.png,0.0,-4.8368554,-0.5921237,-3.0014787
alexnet_w1_mlp_simclrhn_probe0,1,415,NaN,cat,cat,1-3-10,0415_eid_dnn_1-3-10_cat_10_n02123394_6792.png,n02123394_6792.png,1.0,0.97047406,-2.511557,2.4621677
alexnet_w1_mlp_simclrhn_probe0,1,416,NaN,bear,oven,16-3-10,0416_eid_dnn_16-3-10_oven_10_n04111531_1298.png,n04111531_1298.png,0.0,-0.83442146,0.7884493,-1.1475428
alexnet_w1_mlp_simclrhn_probe0,1,417,NaN,oven,clock,8-3-10,0417_eid_dnn_8-3-10_clock_10_n04548280_2334.png,n04548280_2334.png,0.0,-4.275366,-0.7776326,-2.473271
alexnet_w1_mlp_simclrhn_probe0,1,418,NaN,oven,car,32-3-10,0418_eid_dnn_32-3-10_car_10_n04285008_15570.png,n04285008_15570.png,0.0,-8.942317,0.6152821,-6.758243
alexnet_w1_mlp_simclrhn_probe0,1,419,NaN,bear,dog,32-3-10,0419_eid_dnn_32-3-10_dog_10_n02087394_7569.png,n02087394_7569.png,0.0,-1.2945775,0.19222087,-1.0513252
alexnet_w1_mlp_simclrhn_probe0,1,420,NaN,oven,clock,32-3-10,0420_eid_dnn_32-3-10_clock_10_n03196217_11445.png,n03196217_11445.png,0.0,-8.063027,-1.035867,-4.968953
alexnet_w1_mlp_simclrhn_probe0,1,421,NaN,bear,chair,32-3-10,0421_eid_dnn_32-3-10_chair_10_n04099969_3095.png,n04099969_3095.png,0.0,-4.938245,0.37576398,-3.7575717
alexnet_w1_mlp_simclrhn_probe0,1,422,NaN,bear,bird,64-3-10,0422_eid_dnn_64-3-10_bird_10_n01601694_935.png,n01601694_935.png,0.0,-2.0896294,-0.21034554,-1.3288544
alexnet_w1_mlp_simclrhn_probe0,1,423,NaN,cat,bird,2-3-10,0423_eid_dnn_2-3-10_bird_10_n01592084_3570.png,n01592084_3570.png,0.0,-4.7749476,-1.4460179,-2.353909
alexnet_w1_mlp_simclrhn_probe0,1,424,NaN,oven,dog,64-3-10,0424_eid_dnn_64-3-10_dog_10_n02090379_605.png,n02090379_605.png,0.0,-1.3319418,0.2842481,-1.1428189
alexnet_w1_mlp_simclrhn_probe0,1,425,NaN,airplane,airplane,1-3-10,0425_eid_dnn_1-3-10_airplane_10_n02690373_3912.png,n02690373_3912.png,1.0,5.586243,-2.731233,5.881344
alexnet_w1_mlp_simclrhn_probe0,1,426,NaN,bird,oven,128-3-10,0426_eid_dnn_128-3-10_oven_10_n04111531_986.png,n04111531_986.png,0.0,-1.6321063,-1.5699337,-0.043962706
alexnet_w1_mlp_simclrhn_probe0,1,427,NaN,bear,knife,32-3-10,0427_eid_dnn_32-3-10_knife_10_n03041632_23736.png,n03041632_23736.png,0.0,-4.3103647,-0.6083645,-2.6177094
alexnet_w1_mlp_simclrhn_probe0,1,428,NaN,cat,clock,4-3-10,0428_eid_dnn_4-3-10_clock_10_n04548280_10686.png,n04548280_10686.png,0.0,-1.9883351,-1.3808823,-0.42953405
alexnet_w1_mlp_simclrhn_probe0,1,429,NaN,bear,oven,32-3-10,0429_eid_dnn_32-3-10_oven_10_n04111531_21460.png,n04111531_21460.png,0.0,-0.54821867,0.76889324,-0.93133885
alexnet_w1_mlp_simclrhn_probe0,1,430,NaN,oven,bottle,32-3-10,0430_eid_dnn_32-3-10_bottle_10_n04557648_3675.png,n04557648_3675.png,0.0,-5.1276846,0.63848084,-4.077295
alexnet_w1_mlp_simclrhn_probe0,1,431,NaN,oven,chair,8-3-10,0431_eid_dnn_8-3-10_chair_10_n02791124_495.png,n02791124_495.png,0.0,-5.537998,-1.6053683,-2.7807894
alexnet_w1_mlp_simclrhn_probe0,1,432,NaN,oven,chair,128-3-10,0432_eid_dnn_128-3-10_chair_10_n04429376_9165.png,n04429376_9165.png,0.0,-6.961187,-0.54883087,-4.53422
alexnet_w1_mlp_simclrhn_probe0,1,433,NaN,clock,clock,1-3-10,0433_eid_dnn_1-3-10_clock_10_n04548280_2937.png,n04548280_2937.png,1.0,-0.5900354,-1.7654496,0.83114344
alexnet_w1_mlp_simclrhn_probe0,1,434,NaN,bear,bear,32-3-10,0434_eid_dnn_32-3-10_bear_10_n02134418_5849.png,n02134418_5849.png,1.0,-0.74075794,-1.6004168,0.6078706
alexnet_w1_mlp_simclrhn_probe0,1,435,NaN,oven,bottle,128-3-10,0435_eid_dnn_128-3-10_bottle_10_n04560804_2521.png,n04560804_2521.png,0.0,-4.0587616,-0.24321513,-2.6979988
alexnet_w1_mlp_simclrhn_probe0,1,436,NaN,cat,car,8-3-10,0436_eid_dnn_8-3-10_car_10_n04285008_11600.png,n04285008_11600.png,0.0,-4.941024,-2.2823102,-1.8799944
alexnet_w1_mlp_simclrhn_probe0,1,437,NaN,knife,knife,2-3-10,0437_eid_dnn_2-3-10_knife_10_n03041632_79317.png,n03041632_79317.png,1.0,1.0628068,-2.8206148,2.7459939
alexnet_w1_mlp_simclrhn_probe0,1,438,NaN,bear,truck,32-3-10,0438_eid_dnn_32-3-10_truck_10_n03417042_6467.png,n03417042_6467.png,0.0,-8.152299,1.478034,-6.809674
alexnet_w1_mlp_simclrhn_probe0,1,439,NaN,bird,airplane,64-3-10,0439_eid_dnn_64-3-10_airplane_10_n02690373_303.png,n02690373_303.png,0.0,-4.3176565,-1.8221391,-1.7645972
alexnet_w1_mlp_simclrhn_probe0,1,440,NaN,bear,chair,64-3-10,0440_eid_dnn_64-3-10_chair_10_n04099969_2354.png,n04099969_2354.png,0.0,-7.1601253,0.44426477,-5.3771157
alexnet_w1_mlp_simclrhn_probe0,1,441,NaN,cat,clock,128-3-10,0441_eid_dnn_128-3-10_clock_10_n04548280_377.png,n04548280_377.png,0.0,-5.452701,-1.1381559,-3.0508442
alexnet_w1_mlp_simclrhn_probe0,1,442,NaN,bear,bicycle,32-3-10,0442_eid_dnn_32-3-10_bicycle_10_n03792782_11597.png,n03792782_11597.png,0.0,-1.6463438,-0.17115259,-1.0431178
alexnet_w1_mlp_simclrhn_probe0,1,443,NaN,bottle,bottle,2-3-10,0443_eid_dnn_2-3-10_bottle_10_n04579145_215.png,n04579145_215.png,1.0,-0.580719,-4.396384,2.6980824
alexnet_w1_mlp_simclrhn_probe0,1,444,NaN,car,car,4-3-10,0444_eid_dnn_4-3-10_car_10_n02814533_95669.png,n02814533_95669.png,1.0,-0.003605773,-2.248657,1.5874909
alexnet_w1_mlp_simclrhn_probe0,1,445,NaN,bear,chair,32-3-10,0445_eid_dnn_32-3-10_chair_10_n04429376_51025.png,n04429376_51025.png,0.0,-6.442861,-0.39135897,-4.2790585
alexnet_w1_mlp_simclrhn_probe0,1,446,NaN,cat,cat,4-3-10,0446_eid_dnn_4-3-10_cat_10_n02123045_2757.png,n02123045_2757.png,1.0,0.75210994,-1.3966386,1.5193948
alexnet_w1_mlp_simclrhn_probe0,1,447,NaN,bottle,bottle,4-3-10,0447_eid_dnn_4-3-10_bottle_10_n03937543_2135.png,n03937543_2135.png,1.0,-0.8601402,-0.8850273,0.017597826
alexnet_w1_mlp_simclrhn_probe0,1,448,NaN,bird,bird,2-3-10,0448_eid_dnn_2-3-10_bird_10_n01855032_7457.png,n01855032_7457.png,1.0,-0.92216897,-2.1285927,0.85307044
alexnet_w1_mlp_simclrhn_probe0,1,449,NaN,bear,car,16-3-10,0449_eid_dnn_16-3-10_car_10_n02814533_24935.png,n02814533_24935.png,0.0,-10.136175,0.23958275,-7.336769
alexnet_w1_mlp_simclrhn_probe0,1,450,NaN,oven,keyboard,4-3-10,0450_eid_dnn_4-3-10_keyboard_10_n04505470_1371.png,n04505470_1371.png,0.0,-3.4460697,0.07015857,-2.4863489
alexnet_w1_mlp_simclrhn_probe0,1,451,NaN,bear,dog,16-3-10,0451_eid_dnn_16-3-10_dog_10_n02099267_2379.png,n02099267_2379.png,0.0,-1.4071159,1.9135278,-2.3480499
alexnet_w1_mlp_simclrhn_probe0,1,452,NaN,cat,cat,8-3-10,0452_eid_dnn_8-3-10_cat_10_n02123394_8009.png,n02123394_8009.png,1.0,1.4751253,-0.6817154,1.5251168
alexnet_w1_mlp_simclrhn_probe0,1,453,NaN,keyboard,keyboard,2-3-10,0453_eid_dnn_2-3-10_keyboard_10_n03085013_29042.png,n03085013_29042.png,1.0,0.79591703,-1.6918907,1.7591457
alexnet_w1_mlp_simclrhn_probe0,1,454,NaN,oven,airplane,128-3-10,0454_eid_dnn_128-3-10_airplane_10_n02690373_2131.png,n02690373_2131.png,0.0,-9.398853,-0.28276795,-6.446046
alexnet_w1_mlp_simclrhn_probe0,1,455,NaN,elephant,car,8-3-10,0455_eid_dnn_8-3-10_car_10_n03100240_327.png,n03100240_327.png,0.0,-4.743188,-2.6769338,-1.4610623
alexnet_w1_mlp_simclrhn_probe0,1,456,NaN,elephant,elephant,2-3-10,0456_eid_dnn_2-3-10_elephant_10_n02504458_4163.png,n02504458_4163.png,1.0,5.4190273,0.31538227,3.6088219
alexnet_w1_mlp_simclrhn_probe0,1,457,NaN,knife,knife,1-3-10,0457_eid_dnn_1-3-10_knife_10_n03041632_9635.png,n03041632_9635.png,1.0,-2.282989,-3.1708603,0.6278198
alexnet_w1_mlp_simclrhn_probe0,1,458,NaN,bear,airplane,16-3-10,0458_eid_dnn_16-3-10_airplane_10_n02690373_1044.png,n02690373_1044.png,0.0,-6.525134,-2.0991282,-3.1296587
alexnet_w1_mlp_simclrhn_probe0,1,459,NaN,bear,bottle,16-3-10,0459_eid_dnn_16-3-10_bottle_10_n04560804_5441.png,n04560804_5441.png,0.0,-3.3559837,-0.696957,-1.8802158
alexnet_w1_mlp_simclrhn_probe0,1,460,NaN,cat,cat,8-3-10,0460_eid_dnn_8-3-10_cat_10_n02123159_988.png,n02123159_988.png,1.0,0.8546732,-0.32201234,0.83204234
alexnet_w1_mlp_simclrhn_probe0,1,461,NaN,oven,bird,64-3-10,0461_eid_dnn_64-3-10_bird_10_n01843383_4667.png,n01843383_4667.png,0.0,-4.396058,0.19882333,-3.2490718
alexnet_w1_mlp_simclrhn_probe0,1,462,NaN,airplane,airplane,2-3-10,0462_eid_dnn_2-3-10_airplane_10_n02690373_6978.png,n02690373_6978.png,1.0,3.6760445,-0.5623896,2.9970253
alexnet_w1_mlp_simclrhn_probe0,1,463,NaN,oven,chair,128-3-10,0463_eid_dnn_128-3-10_chair_10_n04099969_5901.png,n04099969_5901.png,0.0,-7.374787,0.4194262,-5.511341
alexnet_w1_mlp_simclrhn_probe0,1,464,NaN,elephant,truck,8-3-10,0464_eid_dnn_8-3-10_truck_10_n03417042_29849.png,n03417042_29849.png,0.0,-5.95685,0.83092785,-4.799684
alexnet_w1_mlp_simclrhn_probe0,1,465,NaN,airplane,airplane,1-3-10,0465_eid_dnn_1-3-10_airplane_10_n02690373_427.png,n02690373_427.png,1.0,2.3364289,-0.7132314,2.1564355
alexnet_w1_mlp_simclrhn_probe0,1,466,NaN,bottle,bottle,4-3-10,0466_eid_dnn_4-3-10_bottle_10_n03983396_2305.png,n03983396_2305.png,1.0,0.8470038,-2.0379457,2.0399675
alexnet_w1_mlp_simclrhn_probe0,1,467,NaN,oven,oven,64-3-10,0467_eid_dnn_64-3-10_oven_10_n04111531_15296.png,n04111531_15296.png,1.0,-0.1138193,-1.1609459,0.7404303
alexnet_w1_mlp_simclrhn_probe0,1,468,NaN,cat,cat,4-3-10,0468_eid_dnn_4-3-10_cat_10_n02123159_6728.png,n02123159_6728.png,1.0,-0.19523065,-1.5907239,0.98676276
alexnet_w1_mlp_simclrhn_probe0,1,469,NaN,elephant,elephant,4-3-10,0469_eid_dnn_4-3-10_elephant_10_n02504458_12449.png,n02504458_12449.png,1.0,3.6173844,0.54603434,2.1717725
alexnet_w1_mlp_simclrhn_probe0,1,470,NaN,oven,elephant,128-3-10,0470_eid_dnn_128-3-10_elephant_10_n02504458_12165.png,n02504458_12165.png,0.0,-1.910069,1.3434323,-2.3005729
alexnet_w1_mlp_simclrhn_probe0,1,471,NaN,airplane,airplane,8-3-10,0471_eid_dnn_8-3-10_airplane_10_n02690373_5010.png,n02690373_5010.png,1.0,-0.3679091,-0.5245898,0.11078997
alexnet_w1_mlp_simclrhn_probe0,1,472,NaN,oven,dog,64-3-10,0472_eid_dnn_64-3-10_dog_10_n02100236_4549.png,n02100236_4549.png,0.0,-1.5921497,-0.5841272,-0.7127796
alexnet_w1_mlp_simclrhn_probe0,1,473,NaN,boat,boat,4-3-10,0473_eid_dnn_4-3-10_boat_10_n03344393_4289.png,n03344393_4289.png,1.0,0.8798049,0.24907324,0.44599468
alexnet_w1_mlp_simclrhn_probe0,1,474,NaN,bear,chair,64-3-10,0474_eid_dnn_64-3-10_chair_10_n04099969_48169.png,n04099969_48169.png,0.0,-4.763529,-0.35615534,-3.1164837
alexnet_w1_mlp_simclrhn_probe0,1,475,NaN,airplane,airplane,4-3-10,0475_eid_dnn_4-3-10_airplane_10_n02690373_1996.png,n02690373_1996.png,1.0,3.7014723,-1.0181369,3.3372679
alexnet_w1_mlp_simclrhn_probe0,1,476,NaN,oven,truck,128-3-10,0476_eid_dnn_128-3-10_truck_10_n03417042_28078.png,n03417042_28078.png,0.0,-7.1055994,-0.73525256,-4.5045156
alexnet_w1_mlp_simclrhn_probe0,1,477,NaN,oven,truck,8-3-10,0477_eid_dnn_8-3-10_truck_10_n04467665_3098.png,n04467665_3098.png,0.0,-5.160831,-2.8281064,-1.6494853
alexnet_w1_mlp_simclrhn_probe0,1,478,NaN,elephant,elephant,4-3-10,0478_eid_dnn_4-3-10_elephant_10_n02504458_847.png,n02504458_847.png,1.0,4.0148964,3.0316029,0.69529355
alexnet_w1_mlp_simclrhn_probe0,1,479,NaN,cat,bicycle,8-3-10,0479_eid_dnn_8-3-10_bicycle_10_n03792782_5880.png,n03792782_5880.png,0.0,-4.411384,-1.5201305,-2.044425
alexnet_w1_mlp_simclrhn_probe0,1,480,NaN,oven,bear,128-3-10,0480_eid_dnn_128-3-10_bear_10_n02132136_30976.png,n02132136_30976.png,0.0,-0.71518517,-0.5981831,-0.08273296
alexnet_w1_mlp_simclrhn_probe0,1,481,NaN,oven,chair,64-3-10,0481_eid_dnn_64-3-10_chair_10_n02791124_2057.png,n02791124_2057.png,0.0,-4.357305,-0.33691895,-2.8428423
alexnet_w1_mlp_simclrhn_probe0,1,482,NaN,cat,keyboard,128-3-10,0482_eid_dnn_128-3-10_keyboard_10_n03085013_7286.png,n03085013_7286.png,0.0,-7.5410852,-0.8206455,-4.7520685
alexnet_w1_mlp_simclrhn_probe0,1,483,NaN,oven,clock,32-3-10,0483_eid_dnn_32-3-10_clock_10_n04548280_1323.png,n04548280_1323.png,0.0,-5.7517724,0.1642335,-4.183248
alexnet_w1_mlp_simclrhn_probe0,1,484,NaN,oven,bottle,128-3-10,0484_eid_dnn_128-3-10_bottle_10_n03983396_18508.png,n03983396_18508.png,0.0,-3.8138225,-1.0379285,-1.9628537
alexnet_w1_mlp_simclrhn_probe0,1,485,NaN,cat,bottle,8-3-10,0485_eid_dnn_8-3-10_bottle_10_n03983396_3880.png,n03983396_3880.png,0.0,-4.319869,-1.2632847,-2.1613317
alexnet_w1_mlp_simclrhn_probe0,1,486,NaN,oven,dog,128-3-10,0486_eid_dnn_128-3-10_dog_10_n02095570_601.png,n02095570_601.png,0.0,-1.9517266,0.17594497,-1.504491
alexnet_w1_mlp_simclrhn_probe0,1,487,NaN,bear,bird,32-3-10,0487_eid_dnn_32-3-10_bird_10_n01797886_21510.png,n01797886_21510.png,0.0,-3.142618,-0.85136986,-1.6201571
alexnet_w1_mlp_simclrhn_probe0,1,488,NaN,keyboard,chair,1-3-10,0488_eid_dnn_1-3-10_chair_10_n04099969_9425.png,n04099969_9425.png,0.0,0.1086694,0.7431015,-0.44861123
alexnet_w1_mlp_simclrhn_probe0,1,489,NaN,oven,keyboard,8-3-10,0489_eid_dnn_8-3-10_keyboard_10_n04505470_4228.png,n04505470_4228.png,0.0,-5.6354656,-1.381366,-3.008103
alexnet_w1_mlp_simclrhn_probe0,1,490,NaN,bear,elephant,32-3-10,0490_eid_dnn_32-3-10_elephant_10_n02504013_7553.png,n02504013_7553.png,0.0,-0.0705625,0.87453276,-0.6682833
alexnet_w1_mlp_simclrhn_probe0,1,491,NaN,oven,cat,64-3-10,0491_eid_dnn_64-3-10_cat_10_n02125311_8090.png,n02125311_8090.png,0.0,-1.5561166,0.22562934,-1.2598846
alexnet_w1_mlp_simclrhn_probe0,1,492,NaN,oven,keyboard,8-3-10,0492_eid_dnn_8-3-10_keyboard_10_n04505470_10041.png,n04505470_10041.png,0.0,-6.508323,-1.6742799,-3.418185
alexnet_w1_mlp_simclrhn_probe0,1,493,NaN,bicycle,bicycle,4-3-10,0493_eid_dnn_4-3-10_bicycle_10_n03792782_1833.png,n03792782_1833.png,1.0,-2.5989642,-3.3172693,0.5079184
alexnet_w1_mlp_simclrhn_probe0,1,494,NaN,oven,bottle,4-3-10,0494_eid_dnn_4-3-10_bottle_10_n04557648_11642.png,n04557648_11642.png,0.0,-3.4903648,-1.6620284,-1.292829
alexnet_w1_mlp_simclrhn_probe0,1,495,NaN,cat,car,128-3-10,0495_eid_dnn_128-3-10_car_10_n03100240_7219.png,n03100240_7219.png,0.0,-7.86781,-1.4775101,-4.5186243
alexnet_w1_mlp_simclrhn_probe0,1,496,NaN,truck,truck,1-3-10,0496_eid_dnn_1-3-10_truck_10_n03796401_9642.png,n03796401_9642.png,1.0,4.3140574,4.2371345,0.0543927
alexnet_w1_mlp_simclrhn_probe0,1,497,NaN,bear,cat,1-3-10,0497_eid_dnn_1-3-10_cat_10_n02125311_13348.png,n02125311_13348.png,0.0,-2.7731667,-2.4002278,-0.2637076
alexnet_w1_mlp_simclrhn_probe0,1,498,NaN,bicycle,bottle,128-3-10,0498_eid_dnn_128-3-10_bottle_10_n04560804_5540.png,n04560804_5540.png,0.0,-4.6444883,-1.2662026,-2.388809
alexnet_w1_mlp_simclrhn_probe0,1,499,NaN,bottle,bottle,4-3-10,0499_eid_dnn_4-3-10_bottle_10_n03983396_9604.png,n03983396_9604.png,1.0,1.6097053,-4.236999,4.1342444
alexnet_w1_mlp_simclrhn_probe0,1,500,NaN,bear,truck,32-3-10,0500_eid_dnn_32-3-10_truck_10_n03417042_5180.png,n03417042_5180.png,0.0,-6.428204,-0.09807322,-4.4760785
alexnet_w1_mlp_simclrhn_probe0,1,501,NaN,cat,dog,16-3-10,0501_eid_dnn_16-3-10_dog_10_n02109525_3364.png,n02109525_3364.png,0.0,-1.0343596,0.23600574,-0.89828396
alexnet_w1_mlp_simclrhn_probe0,1,502,NaN,oven,clock,2-3-10,0502_eid_dnn_2-3-10_clock_10_n04548280_353.png,n04548280_353.png,0.0,-2.2480195,-1.6815372,-0.40056348
alexnet_w1_mlp_simclrhn_probe0,1,503,NaN,dog,dog,1-3-10,0503_eid_dnn_1-3-10_dog_10_n02111129_4423.png,n02111129_4423.png,1.0,-1.0360262,-1.7472901,0.5029395
alexnet_w1_mlp_simclrhn_probe0,1,504,NaN,bear,dog,16-3-10,0504_eid_dnn_16-3-10_dog_10_n02108000_1538.png,n02108000_1538.png,0.0,-1.4406459,1.2039044,-1.8699795
alexnet_w1_mlp_simclrhn_probe0,1,505,NaN,bear,keyboard,16-3-10,0505_eid_dnn_16-3-10_keyboard_10_n03085013_3439.png,n03085013_3439.png,0.0,-6.5658336,-0.12169847,-4.5566916
alexnet_w1_mlp_simclrhn_probe0,1,506,NaN,elephant,truck,8-3-10,0506_eid_dnn_8-3-10_truck_10_n03417042_4016.png,n03417042_4016.png,0.0,-4.3209887,-2.2184246,-1.4867374
alexnet_w1_mlp_simclrhn_probe0,1,507,NaN,oven,knife,32-3-10,0507_eid_dnn_32-3-10_knife_10_n03041632_39883.png,n03041632_39883.png,0.0,-4.499253,0.22829515,-3.3428814
alexnet_w1_mlp_simclrhn_probe0,1,508,NaN,bear,bear,16-3-10,0508_eid_dnn_16-3-10_bear_10_n02132136_21181.png,n02132136_21181.png,1.0,1.2421784,-0.6515686,1.3390814
alexnet_w1_mlp_simclrhn_probe0,1,509,NaN,elephant,elephant,8-3-10,0509_eid_dnn_8-3-10_elephant_10_n02504013_718.png,n02504013_718.png,1.0,2.1754262,0.69405705,1.0474863
alexnet_w1_mlp_simclrhn_probe0,1,510,NaN,oven,oven,2-3-10,0510_eid_dnn_2-3-10_oven_10_n04111531_4146.png,n04111531_4146.png,1.0,3.837848,-1.110961,3.4993362
alexnet_w1_mlp_simclrhn_probe0,1,511,NaN,airplane,airplane,8-3-10,0511_eid_dnn_8-3-10_airplane_10_n02690373_10769.png,n02690373_10769.png,1.0,-0.21834071,-1.2702721,0.7438278
alexnet_w1_mlp_simclrhn_probe0,1,512,NaN,bear,dog,16-3-10,0512_eid_dnn_16-3-10_dog_10_n02109525_4516.png,n02109525_4516.png,0.0,-0.38620734,-0.2289122,-0.11122446
alexnet_w1_mlp_simclrhn_probe0,1,513,NaN,cat,boat,4-3-10,0513_eid_dnn_4-3-10_boat_10_n02951358_12333.png,n02951358_12333.png,0.0,-2.9085274,-1.2336451,-1.1843207
alexnet_w1_mlp_simclrhn_probe0,1,514,NaN,oven,chair,8-3-10,0514_eid_dnn_8-3-10_chair_10_n04099969_20421.png,n04099969_20421.png,0.0,-8.753958,-1.4503096,-5.164459
alexnet_w1_mlp_simclrhn_probe0,1,515,NaN,knife,knife,4-3-10,0515_eid_dnn_4-3-10_knife_10_n03041632_21165.png,n03041632_21165.png,1.0,-2.2712805,-2.6261861,0.25095618
alexnet_w1_mlp_simclrhn_probe0,1,516,NaN,bicycle,bicycle,1-3-10,0516_eid_dnn_1-3-10_bicycle_10_n02835271_21439.png,n02835271_21439.png,1.0,-1.2693214,-4.7505507,2.4616008
alexnet_w1_mlp_simclrhn_probe0,1,517,NaN,airplane,boat,1-3-10,0517_eid_dnn_1-3-10_boat_10_n04273569_24526.png,n04273569_24526.png,0.0,0.28974524,0.69165707,-0.2841946
alexnet_w1_mlp_simclrhn_probe0,1,518,NaN,bear,bottle,32-3-10,0518_eid_dnn_32-3-10_bottle_10_n04579145_2276.png,n04579145_2276.png,0.0,-5.4509325,0.4808092,-4.194375
alexnet_w1_mlp_simclrhn_probe0,1,519,NaN,bear,bear,8-3-10,0519_eid_dnn_8-3-10_bear_10_n02134418_1642.png,n02134418_1642.png,1.0,0.55199313,-1.5039172,1.4537482
alexnet_w1_mlp_simclrhn_probe0,1,520,NaN,bicycle,bicycle,1-3-10,0520_eid_dnn_1-3-10_bicycle_10_n02835271_15468.png,n02835271_15468.png,1.0,5.552414,-3.1840146,6.177588
alexnet_w1_mlp_simclrhn_probe0,1,521,NaN,bird,keyboard,64-3-10,0521_eid_dnn_64-3-10_keyboard_10_n03085013_26532.png,n03085013_26532.png,0.0,-3.4823196,-1.2703676,-1.5640863
alexnet_w1_mlp_simclrhn_probe0,1,522,NaN,bear,clock,64-3-10,0522_eid_dnn_64-3-10_clock_10_n03196217_6809.png,n03196217_6809.png,0.0,-6.4392,0.049108803,-4.5879273
alexnet_w1_mlp_simclrhn_probe0,1,523,NaN,oven,bear,64-3-10,0523_eid_dnn_64-3-10_bear_10_n02134418_4384.png,n02134418_4384.png,0.0,0.19828308,0.28356797,-0.060305525
alexnet_w1_mlp_simclrhn_probe0,1,524,NaN,dog,dog,4-3-10,0524_eid_dnn_4-3-10_dog_10_n02086240_1183.png,n02086240_1183.png,1.0,0.020653846,-1.1258235,0.81068194
alexnet_w1_mlp_simclrhn_probe0,1,525,NaN,chair,chair,1-3-10,0525_eid_dnn_1-3-10_chair_10_n04429376_294.png,n04429376_294.png,1.0,-2.7849832,-4.3637443,1.1163527
alexnet_w1_mlp_simclrhn_probe0,1,526,NaN,oven,clock,64-3-10,0526_eid_dnn_64-3-10_clock_10_n02708093_4893.png,n02708093_4893.png,0.0,-5.542717,-0.3253799,-3.6892145
alexnet_w1_mlp_simclrhn_probe0,1,527,NaN,oven,keyboard,64-3-10,0527_eid_dnn_64-3-10_keyboard_10_n03085013_3098.png,n03085013_3098.png,0.0,-7.7521663,-0.7773678,-4.9319277
alexnet_w1_mlp_simclrhn_probe0,1,528,NaN,bear,cat,16-3-10,0528_eid_dnn_16-3-10_cat_10_n02125311_22073.png,n02125311_22073.png,0.0,-1.4052895,1.0092424,-1.7073319
alexnet_w1_mlp_simclrhn_probe0,1,529,NaN,elephant,bird,2-3-10,0529_eid_dnn_2-3-10_bird_10_n01558993_869.png,n01558993_869.png,0.0,-3.6777973,-2.5195012,-0.81903905
alexnet_w1_mlp_simclrhn_probe0,1,530,NaN,elephant,bird,1-3-10,0530_eid_dnn_1-3-10_bird_10_n01817953_8025.png,n01817953_8025.png,0.0,-2.528769,-2.49183,-0.026119752
alexnet_w1_mlp_simclrhn_probe0,1,531,NaN,oven,chair,2-3-10,0531_eid_dnn_2-3-10_chair_10_n04099969_24235.png,n04099969_24235.png,0.0,-3.159992,-0.4329136,-1.9283357
alexnet_w1_mlp_simclrhn_probe0,1,532,NaN,oven,knife,128-3-10,0532_eid_dnn_128-3-10_knife_10_n03041632_1201.png,n03041632_1201.png,0.0,-4.370431,-0.98306745,-2.3952277
alexnet_w1_mlp_simclrhn_probe0,1,533,NaN,bear,bicycle,4-3-10,0533_eid_dnn_4-3-10_bicycle_10_n03792782_16212.png,n03792782_16212.png,0.0,-6.491168,-2.5620327,-2.7783182
alexnet_w1_mlp_simclrhn_probe0,1,534,NaN,oven,oven,4-3-10,0534_eid_dnn_4-3-10_oven_10_n04111531_11655.png,n04111531_11655.png,1.0,0.05672081,-1.8117484,1.3212073
alexnet_w1_mlp_simclrhn_probe0,1,535,NaN,bear,bicycle,16-3-10,0535_eid_dnn_16-3-10_bicycle_10_n02835271_5152.png,n02835271_5152.png,0.0,-4.9234548,0.688986,-3.9685948
alexnet_w1_mlp_simclrhn_probe0,1,536,NaN,bear,bear,16-3-10,0536_eid_dnn_16-3-10_bear_10_n02132136_19290.png,n02132136_19290.png,1.0,0.39713407,0.22705945,0.12026092
alexnet_w1_mlp_simclrhn_probe0,1,537,NaN,oven,car,32-3-10,0537_eid_dnn_32-3-10_car_10_n03100240_6103.png,n03100240_6103.png,0.0,-7.271349,-0.624001,-4.700385
alexnet_w1_mlp_simclrhn_probe0,1,538,NaN,bird,airplane,16-3-10,0538_eid_dnn_16-3-10_airplane_10_n02690373_5714.png,n02690373_5714.png,0.0,-3.9629588,-1.5956218,-1.6739601
alexnet_w1_mlp_simclrhn_probe0,1,539,NaN,clock,chair,1-3-10,0539_eid_dnn_1-3-10_chair_10_n04429376_2915.png,n04429376_2915.png,0.0,-3.459934,-2.649813,-0.5728421
alexnet_w1_mlp_simclrhn_probe0,1,540,NaN,cat,clock,64-3-10,0540_eid_dnn_64-3-10_clock_10_n02708093_7827.png,n02708093_7827.png,0.0,-5.6548285,-1.9799004,-2.5985668
alexnet_w1_mlp_simclrhn_probe0,1,541,NaN,truck,truck,2-3-10,0541_eid_dnn_2-3-10_truck_10_n03417042_6247.png,n03417042_6247.png,1.0,0.46446788,-0.7022488,0.8249933
alexnet_w1_mlp_simclrhn_probe0,1,542,NaN,bear,elephant,32-3-10,0542_eid_dnn_32-3-10_elephant_10_n02504013_947.png,n02504013_947.png,0.0,-0.30118477,0.282581,-0.41278473
alexnet_w1_mlp_simclrhn_probe0,1,543,NaN,truck,truck,1-3-10,0543_eid_dnn_1-3-10_truck_10_n03417042_2074.png,n03417042_2074.png,1.0,3.59156,1.6446537,1.3766706
alexnet_w1_mlp_simclrhn_probe0,1,544,NaN,airplane,airplane,8-3-10,0544_eid_dnn_8-3-10_airplane_10_n02690373_5221.png,n02690373_5221.png,1.0,-1.1202269,-2.6739087,1.098619
alexnet_w1_mlp_simclrhn_probe0,1,545,NaN,oven,oven,4-3-10,0545_eid_dnn_4-3-10_oven_10_n04111531_6629.png,n04111531_6629.png,1.0,-2.1395307,-2.1411176,0.0011221177
alexnet_w1_mlp_simclrhn_probe0,1,546,NaN,knife,knife,1-3-10,0546_eid_dnn_1-3-10_knife_10_n03041632_36277.png,n03041632_36277.png,1.0,-0.3424376,-4.666922,3.0578723
alexnet_w1_mlp_simclrhn_probe0,1,547,NaN,bear,cat,64-3-10,0547_eid_dnn_64-3-10_cat_10_n02123597_4700.png,n02123597_4700.png,0.0,-1.0910689,-0.49020246,-0.42487675
alexnet_w1_mlp_simclrhn_probe0,1,548,NaN,bear,airplane,16-3-10,0548_eid_dnn_16-3-10_airplane_10_n02690373_20042.png,n02690373_20042.png,0.0,-3.8775284,-1.7303976,-1.518251
alexnet_w1_mlp_simclrhn_probe0,1,549,NaN,bear,chair,32-3-10,0549_eid_dnn_32-3-10_chair_10_n02791124_15539.png,n02791124_15539.png,0.0,-7.1485157,-0.22773561,-4.8937306
alexnet_w1_mlp_simclrhn_probe0,1,550,NaN,cat,cat,1-3-10,0550_eid_dnn_1-3-10_cat_10_n02123394_5700.png,n02123394_5700.png,1.0,-0.22836858,-0.76294255,0.3780009
alexnet_w1_mlp_simclrhn_probe0,1,551,NaN,car,car,4-3-10,0551_eid_dnn_4-3-10_car_10_n04285008_13595.png,n04285008_13595.png,1.0,0.20420615,-2.6134834,1.9924074
alexnet_w1_mlp_simclrhn_probe0,1,552,NaN,oven,chair,8-3-10,0552_eid_dnn_8-3-10_chair_10_n02791124_2282.png,n02791124_2282.png,0.0,-7.375513,-1.7538198,-3.9751375
alexnet_w1_mlp_simclrhn_probe0,1,553,NaN,bear,dog,2-3-10,0553_eid_dnn_2-3-10_dog_10_n02100877_3973.png,n02100877_3973.png,0.0,-0.4181798,-0.02537255,-0.27775666
alexnet_w1_mlp_simclrhn_probe0,1,554,NaN,bear,truck,64-3-10,0554_eid_dnn_64-3-10_truck_10_n03417042_12297.png,n03417042_12297.png,0.0,-7.147683,0.15070291,-5.1607385
alexnet_w1_mlp_simclrhn_probe0,1,555,NaN,bear,elephant,8-3-10,0555_eid_dnn_8-3-10_elephant_10_n02504013_6303.png,n02504013_6303.png,0.0,-1.6308756,-1.1320903,-0.35269445
alexnet_w1_mlp_simclrhn_probe0,1,556,NaN,cat,car,8-3-10,0556_eid_dnn_8-3-10_car_10_n02814533_43990.png,n02814533_43990.png,0.0,-5.6994605,-1.8517628,-2.7207332
alexnet_w1_mlp_simclrhn_probe0,1,557,NaN,bear,truck,16-3-10,0557_eid_dnn_16-3-10_truck_10_n04467665_58456.png,n04467665_58456.png,0.0,-8.71472,0.5919811,-6.5808315
alexnet_w1_mlp_simclrhn_probe0,1,558,NaN,cat,dog,4-3-10,0558_eid_dnn_4-3-10_dog_10_n02098105_526.png,n02098105_526.png,0.0,-2.0698714,-1.2186147,-0.6019294
alexnet_w1_mlp_simclrhn_probe0,1,559,NaN,bird,bird,2-3-10,0559_eid_dnn_2-3-10_bird_10_n02037110_27907.png,n02037110_27907.png,1.0,0.08800412,-0.96910673,0.7474903
alexnet_w1_mlp_simclrhn_probe0,1,560,NaN,oven,keyboard,64-3-10,0560_eid_dnn_64-3-10_keyboard_10_n03085013_20849.png,n03085013_20849.png,0.0,-5.912917,-0.4256543,-3.8800807
alexnet_w1_mlp_simclrhn_probe0,1,561,NaN,chair,chair,1-3-10,0561_eid_dnn_1-3-10_chair_10_n03376595_12524.png,n03376595_12524.png,1.0,1.1807042,-3.3775327,3.2231605
alexnet_w1_mlp_simclrhn_probe0,1,562,NaN,oven,bird,64-3-10,0562_eid_dnn_64-3-10_bird_10_n02056570_27055.png,n02056570_27055.png,0.0,-3.4985745,0.25450987,-2.6538315
alexnet_w1_mlp_simclrhn_probe0,1,563,NaN,bear,truck,64-3-10,0563_eid_dnn_64-3-10_truck_10_n03417042_4934.png,n03417042_4934.png,0.0,-6.1024437,-0.30388862,-4.100198
alexnet_w1_mlp_simclrhn_probe0,1,564,NaN,elephant,knife,16-3-10,0564_eid_dnn_16-3-10_knife_10_n03041632_3210.png,n03041632_3210.png,0.0,-2.1026003,-0.72324705,-0.9753501
alexnet_w1_mlp_simclrhn_probe0,1,565,NaN,cat,dog,8-3-10,0565_eid_dnn_8-3-10_dog_10_n02096585_2118.png,n02096585_2118.png,0.0,-1.9491025,-1.3534788,-0.42116958
alexnet_w1_mlp_simclrhn_probe0,1,566,NaN,keyboard,keyboard,1-3-10,0566_eid_dnn_1-3-10_keyboard_10_n03085013_3539.png,n03085013_3539.png,1.0,3.3377824,-0.26883736,2.5502653
alexnet_w1_mlp_simclrhn_probe0,1,567,NaN,truck,truck,4-3-10,0567_eid_dnn_4-3-10_truck_10_n03417042_17215.png,n03417042_17215.png,1.0,-2.0625763,-2.908327,0.59803617
alexnet_w1_mlp_simclrhn_probe0,1,568,NaN,bear,cat,8-3-10,0568_eid_dnn_8-3-10_cat_10_n02123045_12657.png,n02123045_12657.png,0.0,-1.0557674,-0.34044555,-0.50580895
alexnet_w1_mlp_simclrhn_probe0,1,569,NaN,oven,knife,64-3-10,0569_eid_dnn_64-3-10_knife_10_n03041632_20576.png,n03041632_20576.png,0.0,-2.5972495,-0.7005052,-1.3412007
alexnet_w1_mlp_simclrhn_probe0,1,570,NaN,elephant,truck,8-3-10,0570_eid_dnn_8-3-10_truck_10_n04467665_23905.png,n04467665_23905.png,0.0,-5.419711,-1.9365808,-2.4629452
alexnet_w1_mlp_simclrhn_probe0,1,571,NaN,oven,oven,128-3-10,0571_eid_dnn_128-3-10_oven_10_n04111531_9427.png,n04111531_9427.png,1.0,-0.2179585,-1.0340321,0.57705116
alexnet_w1_mlp_simclrhn_probe0,1,572,NaN,bear,oven,16-3-10,0572_eid_dnn_16-3-10_oven_10_n04111531_14329.png,n04111531_14329.png,0.0,-1.4813571,-1.2691486,-0.15005408
alexnet_w1_mlp_simclrhn_probe0,1,573,NaN,bear,bird,64-3-10,0573_eid_dnn_64-3-10_bird_10_n01614925_19422.png,n01614925_19422.png,0.0,-3.3869717,0.24291065,-2.5667145
alexnet_w1_mlp_simclrhn_probe0,1,574,NaN,bear,bottle,128-3-10,0574_eid_dnn_128-3-10_bottle_10_n02823428_1154.png,n02823428_1154.png,0.0,-5.0884805,-0.96273345,-2.9173439
alexnet_w1_mlp_simclrhn_probe0,1,575,NaN,bear,dog,4-3-10,0575_eid_dnn_4-3-10_dog_10_n02093859_4797.png,n02093859_4797.png,0.0,-1.310269,0.19216642,-1.0623823
alexnet_w1_mlp_simclrhn_probe0,1,576,NaN,airplane,airplane,1-3-10,0576_eid_dnn_1-3-10_airplane_10_n02690373_2632.png,n02690373_2632.png,1.0,6.0203986,0.18226501,4.128184
alexnet_w1_mlp_simclrhn_probe0,1,577,NaN,bear,keyboard,32-3-10,0577_eid_dnn_32-3-10_keyboard_10_n03085013_15825.png,n03085013_15825.png,0.0,-7.7723284,0.19851154,-5.636235
alexnet_w1_mlp_simclrhn_probe0,1,578,NaN,car,car,4-3-10,0578_eid_dnn_4-3-10_car_10_n02814533_52674.png,n02814533_52674.png,1.0,0.7920523,-2.2268238,2.1346679
alexnet_w1_mlp_simclrhn_probe0,1,579,NaN,bear,truck,32-3-10,0579_eid_dnn_32-3-10_truck_10_n04467665_32937.png,n04467665_32937.png,0.0,-4.9440536,-1.2504076,-2.611802
alexnet_w1_mlp_simclrhn_probe0,1,580,NaN,cat,bird,4-3-10,0580_eid_dnn_4-3-10_bird_10_n01537544_20.png,n01537544_20.png,0.0,-2.8123386,-2.5957322,-0.15316384
alexnet_w1_mlp_simclrhn_probe0,1,581,NaN,knife,clock,8-3-10,0581_eid_dnn_8-3-10_clock_10_n03196217_564.png,n03196217_564.png,0.0,-3.038739,-1.7532512,-0.90897715
alexnet_w1_mlp_simclrhn_probe0,1,582,NaN,keyboard,knife,1-3-10,0582_eid_dnn_1-3-10_knife_10_n03041632_76163.png,n03041632_76163.png,0.0,-2.132027,-0.23319384,-1.3426777
alexnet_w1_mlp_simclrhn_probe0,1,583,NaN,bear,airplane,32-3-10,0583_eid_dnn_32-3-10_airplane_10_n02690373_8559.png,n02690373_8559.png,0.0,-6.0601144,-1.2816353,-3.378895
alexnet_w1_mlp_simclrhn_probe0,1,584,NaN,keyboard,keyboard,2-3-10,0584_eid_dnn_2-3-10_keyboard_10_n04505470_3941.png,n04505470_3941.png,1.0,10.846722,0.27516147,7.4752216
alexnet_w1_mlp_simclrhn_probe0,1,585,NaN,bear,oven,64-3-10,0585_eid_dnn_64-3-10_oven_10_n04111531_9910.png,n04111531_9910.png,0.0,-0.61353254,0.11500491,-0.51515377
alexnet_w1_mlp_simclrhn_probe0,1,586,NaN,oven,bottle,128-3-10,0586_eid_dnn_128-3-10_bottle_10_n03937543_7191.png,n03937543_7191.png,0.0,-4.304765,0.2592098,-3.2272177
alexnet_w1_mlp_simclrhn_probe0,1,587,NaN,boat,boat,4-3-10,0587_eid_dnn_4-3-10_boat_10_n03662601_14818.png,n03662601_14818.png,1.0,-0.030617857,-2.0451994,1.4245242
alexnet_w1_mlp_simclrhn_probe0,1,588,NaN,bear,boat,128-3-10,0588_eid_dnn_128-3-10_boat_10_n02951358_588.png,n02951358_588.png,0.0,-5.2199907,0.17256631,-3.8131137
alexnet_w1_mlp_simclrhn_probe0,1,589,NaN,bear,bear,1-3-10,0589_eid_dnn_1-3-10_bear_10_n02133161_2851.png,n02133161_2851.png,1.0,3.8351536,2.0045414,1.2944384
alexnet_w1_mlp_simclrhn_probe0,1,590,NaN,bottle,chair,2-3-10,0590_eid_dnn_2-3-10_chair_10_n03376595_16212.png,n03376595_16212.png,0.0,-1.2547383,0.21648715,-1.0403136
alexnet_w1_mlp_simclrhn_probe0,1,591,NaN,bear,boat,8-3-10,0591_eid_dnn_8-3-10_boat_10_n04612504_1613.png,n04612504_1613.png,0.0,-4.166646,-1.5951512,-1.8183215
alexnet_w1_mlp_simclrhn_probe0,1,592,NaN,bird,chair,128-3-10,0592_eid_dnn_128-3-10_chair_10_n02791124_3198.png,n02791124_3198.png,0.0,-4.033207,-0.86029536,-2.2435875
alexnet_w1_mlp_simclrhn_probe0,1,593,NaN,bear,knife,16-3-10,0593_eid_dnn_16-3-10_knife_10_n03041632_32785.png,n03041632_32785.png,0.0,-1.8356164,-1.0120058,-0.5823806
alexnet_w1_mlp_simclrhn_probe0,1,594,NaN,bear,oven,32-3-10,0594_eid_dnn_32-3-10_oven_10_n04111531_22797.png,n04111531_22797.png,0.0,0.011288136,0.063656755,-0.037030205
alexnet_w1_mlp_simclrhn_probe0,1,595,NaN,oven,oven,128-3-10,0595_eid_dnn_128-3-10_oven_10_n04111531_5077.png,n04111531_5077.png,1.0,-1.2440995,-1.3247433,0.05702376
alexnet_w1_mlp_simclrhn_probe0,1,596,NaN,bear,bear,1-3-10,0596_eid_dnn_1-3-10_bear_10_n02134418_2569.png,n02134418_2569.png,1.0,1.8817167,-0.20053433,1.4723738
alexnet_w1_mlp_simclrhn_probe0,1,597,NaN,car,car,1-3-10,0597_eid_dnn_1-3-10_car_10_n03100240_15284.png,n03100240_15284.png,1.0,2.0980914,0.025038704,1.4658697
alexnet_w1_mlp_simclrhn_probe0,1,598,NaN,keyboard,keyboard,2-3-10,0598_eid_dnn_2-3-10_keyboard_10_n04505470_4791.png,n04505470_4791.png,1.0,2.7419717,-0.2006059,2.0807166
alexnet_w1_mlp_simclrhn_probe0,1,599,NaN,bear,bicycle,64-3-10,0599_eid_dnn_64-3-10_bicycle_10_n03792782_551.png,n03792782_551.png,0.0,-4.3180776,-0.15666714,-2.9425616
alexnet_w1_mlp_simclrhn_probe0,1,600,NaN,bottle,bottle,1-3-10,0600_eid_dnn_1-3-10_bottle_10_n03937543_2999.png,n03937543_2999.png,1.0,-2.769546,-3.2817688,0.3621962
alexnet_w1_mlp_simclrhn_probe0,1,601,NaN,bear,airplane,16-3-10,0601_eid_dnn_16-3-10_airplane_10_n02690373_7279.png,n02690373_7279.png,0.0,-3.6219928,-0.3925361,-2.2835708
alexnet_w1_mlp_simclrhn_probe0,1,602,NaN,oven,airplane,128-3-10,0602_eid_dnn_128-3-10_airplane_10_n02690373_9312.png,n02690373_9312.png,0.0,-9.339512,-0.46600646,-6.274516
