subj,session,trial,rt,object_response,category,condition,imagename,filename,is_correct,targ_act,max_nontarg_act,decision_margin
convnext_large,1,1,NaN,dog,car,64-3-10,0001_eid_dnn_64-3-10_car_10_n04285008_8113.png,n04285008_8113.png,0.0,-0.44349656,0.90353626,-0.95249605
convnext_large,1,2,NaN,bottle,oven,8-3-10,0002_eid_dnn_8-3-10_oven_10_n04111531_11848.png,n04111531_11848.png,0.0,-0.94180584,1.2154982,-1.5254444
convnext_large,1,3,NaN,bottle,truck,8-3-10,0003_eid_dnn_8-3-10_truck_10_n03417042_25458.png,n03417042_25458.png,0.0,-0.09941642,1.108957,-0.85444903
convnext_large,1,4,NaN,cat,chair,16-3-10,0004_eid_dnn_16-3-10_chair_10_n03376595_6208.png,n03376595_6208.png,0.0,-0.41274467,1.1241461,-1.0867459
convnext_large,1,5,NaN,cat,cat,32-3-10,0005_eid_dnn_32-3-10_cat_10_n02123045_12084.png,n02123045_12084.png,1.0,0.66162866,0.64464474,0.012009449
convnext_large,1,6,NaN,keyboard,keyboard,8-3-10,0006_eid_dnn_8-3-10_keyboard_10_n03085013_20884.png,n03085013_20884.png,1.0,6.251378,0.4964179,4.069371
convnext_large,1,7,NaN,airplane,airplane,4-3-10,0007_eid_dnn_4-3-10_airplane_10_n02690373_5992.png,n02690373_5992.png,1.0,8.049801,2.1289523,4.186672
convnext_large,1,8,NaN,dog,bear,32-3-10,0008_eid_dnn_32-3-10_bear_10_n02132136_6641.png,n02132136_6641.png,0.0,0.14528257,0.8406399,-0.4916919
convnext_large,1,9,NaN,oven,oven,2-3-10,0009_eid_dnn_2-3-10_oven_10_n04111531_2797.png,n04111531_2797.png,1.0,7.8296866,0.8338699,4.9467897
convnext_large,1,10,NaN,airplane,airplane,2-3-10,0010_eid_dnn_2-3-10_airplane_10_n02690373_7457.png,n02690373_7457.png,1.0,8.501316,0.31856167,5.7860813
convnext_large,1,11,NaN,cat,truck,16-3-10,0011_eid_dnn_16-3-10_truck_10_n03796401_2751.png,n03796401_2751.png,0.0,-0.075404525,2.427829,-1.7700534
convnext_large,1,12,NaN,bear,bear,2-3-10,0012_eid_dnn_2-3-10_bear_10_n02134418_860.png,n02134418_860.png,1.0,4.447591,2.1509113,1.6239977
convnext_large,1,13,NaN,knife,knife,4-3-10,0013_eid_dnn_4-3-10_knife_10_n03041632_2058.png,n03041632_2058.png,1.0,8.163274,0.39773244,5.4910674
convnext_large,1,14,NaN,airplane,airplane,32-3-10,0014_eid_dnn_32-3-10_airplane_10_n02690373_10510.png,n02690373_10510.png,1.0,0.99919003,0.8661184,0.09409588
convnext_large,1,15,NaN,dog,keyboard,64-3-10,0015_eid_dnn_64-3-10_keyboard_10_n03085013_6313.png,n03085013_6313.png,0.0,-0.2447705,1.0217755,-0.8955833
convnext_large,1,16,NaN,airplane,bicycle,4-3-10,0016_eid_dnn_4-3-10_bicycle_10_n02835271_6278.png,n02835271_6278.png,0.0,0.09033996,2.0337977,-1.3742323
convnext_large,1,17,NaN,keyboard,keyboard,2-3-10,0017_eid_dnn_2-3-10_keyboard_10_n03085013_24192.png,n03085013_24192.png,1.0,7.0135813,0.64054364,4.506418
convnext_large,1,18,NaN,car,car,2-3-10,0018_eid_dnn_2-3-10_car_10_n04285008_8255.png,n04285008_8255.png,1.0,5.8517804,0.83834344,3.5450351
convnext_large,1,19,NaN,airplane,airplane,2-3-10,0019_eid_dnn_2-3-10_airplane_10_n02690373_4591.png,n02690373_4591.png,1.0,8.024276,0.31289032,5.452773
convnext_large,1,20,NaN,airplane,airplane,4-3-10,0020_eid_dnn_4-3-10_airplane_10_n02690373_7075.png,n02690373_7075.png,1.0,8.673234,0.5730735,5.727679
convnext_large,1,21,NaN,bicycle,bicycle,4-3-10,0021_eid_dnn_4-3-10_bicycle_10_n02835271_21464.png,n02835271_21464.png,1.0,4.4941554,0.90933627,2.53485
convnext_large,1,22,NaN,bear,car,64-3-10,0022_eid_dnn_64-3-10_car_10_n03100240_362.png,n03100240_362.png,0.0,-0.18196549,0.6830424,-0.611653
convnext_large,1,23,NaN,cat,truck,32-3-10,0023_eid_dnn_32-3-10_truck_10_n04467665_50927.png,n04467665_50927.png,0.0,-0.47824147,1.4288527,-1.3485192
convnext_large,1,24,NaN,airplane,car,16-3-10,0024_eid_dnn_16-3-10_car_10_n04285008_3651.png,n04285008_3651.png,0.0,0.15208387,0.81416744,-0.4681638
convnext_large,1,25,NaN,bottle,bottle,8-3-10,0025_eid_dnn_8-3-10_bottle_10_n04557648_4974.png,n04557648_4974.png,1.0,1.6797092,0.85107046,0.58593607
convnext_large,1,26,NaN,bear,bird,16-3-10,0026_eid_dnn_16-3-10_bird_10_n01537544_23499.png,n01537544_23499.png,0.0,-0.14362359,1.783381,-1.3625981
convnext_large,1,27,NaN,boat,boat,1-3-10,0027_eid_dnn_1-3-10_boat_10_n04612504_11387.png,n04612504_11387.png,1.0,2.8843837,0.46535167,1.7105141
convnext_large,1,28,NaN,bottle,bottle,4-3-10,0028_eid_dnn_4-3-10_bottle_10_n03983396_4300.png,n03983396_4300.png,1.0,4.020346,0.05226423,2.8058577
convnext_large,1,29,NaN,elephant,bottle,64-3-10,0029_eid_dnn_64-3-10_bottle_10_n04591713_6961.png,n04591713_6961.png,0.0,-0.38545585,0.77242565,-0.81874585
convnext_large,1,30,NaN,clock,clock,128-3-10,0030_eid_dnn_128-3-10_clock_10_n02708093_3361.png,n02708093_3361.png,1.0,0.77157754,0.4755096,0.20935164
convnext_large,1,31,NaN,cat,truck,32-3-10,0031_eid_dnn_32-3-10_truck_10_n03417042_18374.png,n03417042_18374.png,0.0,-1.0221083,0.8623578,-1.3325188
convnext_large,1,32,NaN,clock,knife,64-3-10,0032_eid_dnn_64-3-10_knife_10_n03041632_36280.png,n03041632_36280.png,0.0,0.801513,2.1968987,-0.98668677
convnext_large,1,33,NaN,bear,bird,8-3-10,0033_eid_dnn_8-3-10_bird_10_n01614925_47.png,n01614925_47.png,0.0,0.1097574,1.4268007,-0.93129027
convnext_large,1,34,NaN,dog,bicycle,8-3-10,0034_eid_dnn_8-3-10_bicycle_10_n02835271_20099.png,n02835271_20099.png,0.0,-0.19088048,1.3827738,-1.1127416
convnext_large,1,35,NaN,bear,bear,4-3-10,0035_eid_dnn_4-3-10_bear_10_n02134084_12070.png,n02134084_12070.png,1.0,2.6817842,0.96649146,1.2128952
convnext_large,1,36,NaN,bottle,bottle,8-3-10,0036_eid_dnn_8-3-10_bottle_10_n02823428_8525.png,n02823428_8525.png,1.0,0.6653978,0.23449636,0.30469334
convnext_large,1,37,NaN,cat,truck,32-3-10,0037_eid_dnn_32-3-10_truck_10_n04467665_37953.png,n04467665_37953.png,0.0,-0.25744626,1.6627992,-1.3578186
convnext_large,1,38,NaN,clock,oven,128-3-10,0038_eid_dnn_128-3-10_oven_10_n04111531_4868.png,n04111531_4868.png,0.0,-1.8757893,1.044597,-2.065025
convnext_large,1,39,NaN,elephant,boat,32-3-10,0039_eid_dnn_32-3-10_boat_10_n03662601_19840.png,n03662601_19840.png,0.0,0.0042900443,2.1324704,-1.5048507
convnext_large,1,40,NaN,truck,truck,8-3-10,0040_eid_dnn_8-3-10_truck_10_n04467665_9331.png,n04467665_9331.png,1.0,2.3895776,1.6272752,0.5390292
convnext_large,1,41,NaN,dog,dog,64-3-10,0041_eid_dnn_64-3-10_dog_10_n02111277_16090.png,n02111277_16090.png,1.0,0.5258855,0.49821898,0.019563198
convnext_large,1,42,NaN,bottle,bottle,4-3-10,0042_eid_dnn_4-3-10_bottle_10_n02823428_6731.png,n02823428_6731.png,1.0,3.6005175,0.2379123,2.3777208
convnext_large,1,43,NaN,elephant,elephant,8-3-10,0043_eid_dnn_8-3-10_elephant_10_n02504013_8930.png,n02504013_8930.png,1.0,2.7591677,2.0755043,0.48342302
convnext_large,1,44,NaN,car,car,4-3-10,0044_eid_dnn_4-3-10_car_10_n03100240_13673.png,n03100240_13673.png,1.0,6.331587,0.6801123,3.996196
convnext_large,1,45,NaN,dog,bird,128-3-10,0045_eid_dnn_128-3-10_bird_10_n02018207_6819.png,n02018207_6819.png,0.0,-1.0576615,0.7142109,-1.2529031
convnext_large,1,46,NaN,elephant,elephant,4-3-10,0046_eid_dnn_4-3-10_elephant_10_n02504013_6065.png,n02504013_6065.png,1.0,5.7397037,0.30337548,3.8440645
convnext_large,1,47,NaN,cat,cat,1-3-10,0047_eid_dnn_1-3-10_cat_10_n02123394_384.png,n02123394_384.png,1.0,1.7272096,0.7523087,0.689359
convnext_large,1,48,NaN,bear,bicycle,16-3-10,0048_eid_dnn_16-3-10_bicycle_10_n02835271_12608.png,n02835271_12608.png,0.0,0.13793024,2.2526727,-1.4953488
convnext_large,1,49,NaN,chair,chair,2-3-10,0049_eid_dnn_2-3-10_chair_10_n03376595_13949.png,n03376595_13949.png,1.0,2.1938019,1.972849,0.15623727
convnext_large,1,50,NaN,cat,airplane,128-3-10,0050_eid_dnn_128-3-10_airplane_10_n02690373_3561.png,n02690373_3561.png,0.0,-0.4783342,0.65067154,-0.79832757
convnext_large,1,51,NaN,dog,bicycle,32-3-10,0051_eid_dnn_32-3-10_bicycle_10_n02835271_8203.png,n02835271_8203.png,0.0,-0.40140927,0.75638765,-0.818686
convnext_large,1,52,NaN,bicycle,bicycle,2-3-10,0052_eid_dnn_2-3-10_bicycle_10_n03792782_5665.png,n03792782_5665.png,1.0,7.5058713,0.62380123,4.8663583
convnext_large,1,53,NaN,bear,bicycle,128-3-10,0053_eid_dnn_128-3-10_bicycle_10_n02835271_15028.png,n02835271_15028.png,0.0,-0.2515869,0.5686413,-0.57998896
convnext_large,1,54,NaN,clock,clock,1-3-10,0054_eid_dnn_1-3-10_clock_10_n04548280_3318.png,n04548280_3318.png,1.0,4.6519217,0.28071144,3.0909123
convnext_large,1,55,NaN,dog,cat,128-3-10,0055_eid_dnn_128-3-10_cat_10_n02123045_8784.png,n02123045_8784.png,0.0,0.23016942,0.6197514,-0.27547607
convnext_large,1,56,NaN,clock,knife,128-3-10,0056_eid_dnn_128-3-10_knife_10_n03041632_3247.png,n03041632_3247.png,0.0,-0.016412735,0.84648466,-0.6101606
convnext_large,1,57,NaN,dog,dog,8-3-10,0057_eid_dnn_8-3-10_dog_10_n02110185_11414.png,n02110185_11414.png,1.0,1.1356938,0.8593137,0.19543022
convnext_large,1,58,NaN,airplane,dog,32-3-10,0058_eid_dnn_32-3-10_dog_10_n02113712_2715.png,n02113712_2715.png,0.0,0.7887995,0.9313897,-0.10082647
convnext_large,1,59,NaN,elephant,elephant,2-3-10,0059_eid_dnn_2-3-10_elephant_10_n02504458_1210.png,n02504458_1210.png,1.0,3.5852585,1.575548,1.4210798
convnext_large,1,60,NaN,elephant,car,16-3-10,0060_eid_dnn_16-3-10_car_10_n02814533_32337.png,n02814533_32337.png,0.0,-0.6674423,3.425807,-2.8943644
convnext_large,1,61,NaN,truck,car,4-3-10,0061_eid_dnn_4-3-10_car_10_n02814533_55326.png,n02814533_55326.png,0.0,2.1323385,2.1735783,-0.0291609
convnext_large,1,62,NaN,clock,knife,64-3-10,0062_eid_dnn_64-3-10_knife_10_n03041632_32774.png,n03041632_32774.png,0.0,0.13854876,1.5084769,-0.9686855
convnext_large,1,63,NaN,elephant,bicycle,8-3-10,0063_eid_dnn_8-3-10_bicycle_10_n02835271_11921.png,n02835271_11921.png,0.0,-0.12504016,4.096591,-2.985144
convnext_large,1,64,NaN,cat,chair,32-3-10,0064_eid_dnn_32-3-10_chair_10_n03376595_6115.png,n03376595_6115.png,0.0,0.096873604,1.1287721,-0.7296624
convnext_large,1,65,NaN,elephant,bear,16-3-10,0065_eid_dnn_16-3-10_bear_10_n02133161_79.png,n02133161_79.png,0.0,0.7070617,1.4549668,-0.52884877
convnext_large,1,66,NaN,boat,boat,1-3-10,0066_eid_dnn_1-3-10_boat_10_n03662601_34796.png,n03662601_34796.png,1.0,2.935899,1.1654253,1.251914
convnext_large,1,67,NaN,airplane,bird,4-3-10,0067_eid_dnn_4-3-10_bird_10_n02051845_8976.png,n02051845_8976.png,0.0,0.4187901,0.6024398,-0.12985997
convnext_large,1,68,NaN,boat,boat,4-3-10,0068_eid_dnn_4-3-10_boat_10_n03344393_7362.png,n03344393_7362.png,1.0,3.423017,2.1982327,0.86605334
convnext_large,1,69,NaN,cat,car,32-3-10,0069_eid_dnn_32-3-10_car_10_n02814533_34289.png,n02814533_34289.png,0.0,-0.2822701,1.0509802,-0.94275033
convnext_large,1,70,NaN,airplane,keyboard,16-3-10,0070_eid_dnn_16-3-10_keyboard_10_n03085013_2166.png,n03085013_2166.png,0.0,-0.310292,1.4434139,-1.2400573
convnext_large,1,71,NaN,bear,bear,2-3-10,0071_eid_dnn_2-3-10_bear_10_n02133161_10167.png,n02133161_10167.png,1.0,5.0045004,0.4070112,3.250916
convnext_large,1,72,NaN,cat,keyboard,16-3-10,0072_eid_dnn_16-3-10_keyboard_10_n04505470_430.png,n04505470_430.png,0.0,-0.7123388,0.61281437,-0.9370248
convnext_large,1,73,NaN,keyboard,boat,128-3-10,0073_eid_dnn_128-3-10_boat_10_n03662601_17001.png,n03662601_17001.png,0.0,-1.135778,0.56866455,-1.2052228
convnext_large,1,74,NaN,clock,bear,128-3-10,0074_eid_dnn_128-3-10_bear_10_n02133161_5157.png,n02133161_5157.png,0.0,-0.65510947,2.1442034,-1.9794132
convnext_large,1,75,NaN,boat,boat,2-3-10,0075_eid_dnn_2-3-10_boat_10_n02951358_17870.png,n02951358_17870.png,1.0,3.3523629,1.3800153,1.3946604
convnext_large,1,76,NaN,dog,cat,64-3-10,0076_eid_dnn_64-3-10_cat_10_n02123159_1102.png,n02123159_1102.png,0.0,0.596621,0.786203,-0.13405475
convnext_large,1,77,NaN,dog,cat,32-3-10,0077_eid_dnn_32-3-10_cat_10_n02123045_4252.png,n02123045_4252.png,0.0,0.48315462,0.8021088,-0.22553468
convnext_large,1,78,NaN,keyboard,keyboard,2-3-10,0078_eid_dnn_2-3-10_keyboard_10_n04505470_4294.png,n04505470_4294.png,1.0,5.046688,0.68113226,3.086914
convnext_large,1,79,NaN,truck,truck,2-3-10,0079_eid_dnn_2-3-10_truck_10_n04467665_1101.png,n04467665_1101.png,1.0,3.9593647,0.6817266,2.31764
convnext_large,1,80,NaN,elephant,airplane,64-3-10,0080_eid_dnn_64-3-10_airplane_10_n02690373_2078.png,n02690373_2078.png,0.0,-0.4455632,1.4485425,-1.339335
convnext_large,1,81,NaN,dog,boat,64-3-10,0081_eid_dnn_64-3-10_boat_10_n04612504_5535.png,n04612504_5535.png,0.0,-0.4310945,0.75816315,-0.84093213
convnext_large,1,82,NaN,airplane,cat,16-3-10,0082_eid_dnn_16-3-10_cat_10_n02125311_15099.png,n02125311_15099.png,0.0,0.4007503,1.969398,-1.1092014
convnext_large,1,83,NaN,airplane,airplane,64-3-10,0083_eid_dnn_64-3-10_airplane_10_n02690373_4671.png,n02690373_4671.png,1.0,0.39410222,0.24824971,0.1031333
convnext_large,1,84,NaN,truck,truck,1-3-10,0084_eid_dnn_1-3-10_truck_10_n03417042_9062.png,n03417042_9062.png,1.0,2.5714922,0.26144576,1.6334496
convnext_large,1,85,NaN,cat,cat,4-3-10,0085_eid_dnn_4-3-10_cat_10_n02123394_283.png,n02123394_283.png,1.0,1.7014917,0.38349807,0.93196225
convnext_large,1,86,NaN,car,car,1-3-10,0086_eid_dnn_1-3-10_car_10_n02814533_3375.png,n02814533_3375.png,1.0,3.09622,0.8271766,1.6044561
convnext_large,1,87,NaN,cat,cat,2-3-10,0087_eid_dnn_2-3-10_cat_10_n02124075_9706.png,n02124075_9706.png,1.0,4.404142,1.911385,1.7626452
convnext_large,1,88,NaN,car,car,2-3-10,0088_eid_dnn_2-3-10_car_10_n04285008_10563.png,n04285008_10563.png,1.0,6.5324655,0.56713045,4.2181287
convnext_large,1,89,NaN,dog,clock,64-3-10,0089_eid_dnn_64-3-10_clock_10_n03196217_3283.png,n03196217_3283.png,0.0,-0.0219102,0.5417861,-0.39859346
convnext_large,1,90,NaN,dog,oven,128-3-10,0090_eid_dnn_128-3-10_oven_10_n04111531_21120.png,n04111531_21120.png,0.0,-1.6719898,0.8219053,-1.7634501
convnext_large,1,91,NaN,bird,bird,1-3-10,0091_eid_dnn_1-3-10_bird_10_n01824575_6186.png,n01824575_6186.png,1.0,0.9771761,0.67722774,0.2120955
convnext_large,1,92,NaN,dog,dog,4-3-10,0092_eid_dnn_4-3-10_dog_10_n02102318_11155.png,n02102318_11155.png,1.0,0.45045123,0.2906539,0.11299376
convnext_large,1,93,NaN,bear,clock,16-3-10,0093_eid_dnn_16-3-10_clock_10_n04548280_2283.png,n04548280_2283.png,0.0,-0.8011494,1.4292473,-1.5771286
convnext_large,1,94,NaN,elephant,chair,128-3-10,0094_eid_dnn_128-3-10_chair_10_n03376595_18787.png,n03376595_18787.png,0.0,-0.17224514,0.96431255,-0.80366766
convnext_large,1,95,NaN,keyboard,keyboard,8-3-10,0095_eid_dnn_8-3-10_keyboard_10_n04505470_1903.png,n04505470_1903.png,1.0,4.227907,1.4262012,1.9811052
convnext_large,1,96,NaN,bottle,clock,16-3-10,0096_eid_dnn_16-3-10_clock_10_n03196217_6185.png,n03196217_6185.png,0.0,-0.61823875,0.7703767,-0.9818994
convnext_large,1,97,NaN,clock,clock,2-3-10,0097_eid_dnn_2-3-10_clock_10_n03196217_10424.png,n03196217_10424.png,1.0,2.7192929,1.1772516,1.0903878
convnext_large,1,98,NaN,knife,knife,2-3-10,0098_eid_dnn_2-3-10_knife_10_n03041632_43436.png,n03041632_43436.png,1.0,7.5723763,1.1819023,4.5187473
convnext_large,1,99,NaN,dog,dog,1-3-10,0099_eid_dnn_1-3-10_dog_10_n02093647_5955.png,n02093647_5955.png,1.0,0.3228565,0.07248259,0.17704108
convnext_large,1,100,NaN,airplane,boat,32-3-10,0100_eid_dnn_32-3-10_boat_10_n03662601_5423.png,n03662601_5423.png,0.0,0.5674779,1.2787151,-0.5029207
convnext_large,1,101,NaN,cat,keyboard,128-3-10,0101_eid_dnn_128-3-10_keyboard_10_n04505470_9457.png,n04505470_9457.png,0.0,-0.28374332,1.3413438,-1.1491101
convnext_large,1,102,NaN,clock,knife,128-3-10,0102_eid_dnn_128-3-10_knife_10_n03041632_38535.png,n03041632_38535.png,0.0,0.1039263,1.5987368,-1.0569906
convnext_large,1,103,NaN,bear,elephant,8-3-10,0103_eid_dnn_8-3-10_elephant_10_n02504458_8141.png,n02504458_8141.png,0.0,1.0068123,1.8672643,-0.6084314
convnext_large,1,104,NaN,airplane,airplane,4-3-10,0104_eid_dnn_4-3-10_airplane_10_n02690373_9086.png,n02690373_9086.png,1.0,8.218357,0.7225193,5.300358
convnext_large,1,105,NaN,elephant,bicycle,16-3-10,0105_eid_dnn_16-3-10_bicycle_10_n03792782_19116.png,n03792782_19116.png,0.0,0.18988578,1.9156798,-1.2203207
convnext_large,1,106,NaN,elephant,elephant,4-3-10,0106_eid_dnn_4-3-10_elephant_10_n02504458_2343.png,n02504458_2343.png,1.0,6.515227,0.34225368,4.364951
convnext_large,1,107,NaN,boat,airplane,16-3-10,0107_eid_dnn_16-3-10_airplane_10_n02690373_7093.png,n02690373_7093.png,0.0,1.6902411,2.2634587,-0.40532607
convnext_large,1,108,NaN,cat,car,32-3-10,0108_eid_dnn_32-3-10_car_10_n03100240_7935.png,n03100240_7935.png,0.0,0.18367593,0.7081266,-0.37084264
convnext_large,1,109,NaN,elephant,airplane,16-3-10,0109_eid_dnn_16-3-10_airplane_10_n02690373_8611.png,n02690373_8611.png,0.0,0.4967761,1.5355237,-0.7345055
convnext_large,1,110,NaN,bear,bear,2-3-10,0110_eid_dnn_2-3-10_bear_10_n02133161_7332.png,n02133161_7332.png,1.0,5.806383,0.5747268,3.6993396
convnext_large,1,111,NaN,car,car,2-3-10,0111_eid_dnn_2-3-10_car_10_n03100240_9387.png,n03100240_9387.png,1.0,5.4398923,0.66698676,3.3749537
convnext_large,1,112,NaN,cat,cat,4-3-10,0112_eid_dnn_4-3-10_cat_10_n02124075_521.png,n02124075_521.png,1.0,3.9480705,0.5002245,2.4379952
convnext_large,1,113,NaN,dog,bottle,128-3-10,0113_eid_dnn_128-3-10_bottle_10_n04560804_3746.png,n04560804_3746.png,0.0,-0.13733771,0.45320675,-0.417578
convnext_large,1,114,NaN,elephant,elephant,16-3-10,0114_eid_dnn_16-3-10_elephant_10_n02504458_1127.png,n02504458_1127.png,1.0,1.2101729,0.85054535,0.25429508
convnext_large,1,115,NaN,knife,knife,8-3-10,0115_eid_dnn_8-3-10_knife_10_n03041632_14132.png,n03041632_14132.png,1.0,0.8746309,0.55228,0.22793652
convnext_large,1,116,NaN,oven,oven,1-3-10,0116_eid_dnn_1-3-10_oven_10_n04111531_18916.png,n04111531_18916.png,1.0,8.988908,0.83704984,5.7642345
convnext_large,1,117,NaN,oven,oven,1-3-10,0117_eid_dnn_1-3-10_oven_10_n04111531_19274.png,n04111531_19274.png,1.0,6.707898,3.6200008,2.183473
convnext_large,1,118,NaN,bird,bird,2-3-10,0118_eid_dnn_2-3-10_bird_10_n01843383_277.png,n01843383_277.png,1.0,0.7232682,0.41842034,0.21556
convnext_large,1,119,NaN,dog,boat,64-3-10,0119_eid_dnn_64-3-10_boat_10_n03344393_6799.png,n03344393_6799.png,0.0,-0.3573118,1.0313483,-0.98193103
convnext_large,1,120,NaN,dog,dog,2-3-10,0120_eid_dnn_2-3-10_dog_10_n02093428_16887.png,n02093428_16887.png,1.0,0.8340339,0.23141296,0.42611736
convnext_large,1,121,NaN,clock,elephant,64-3-10,0121_eid_dnn_64-3-10_elephant_10_n02504458_6163.png,n02504458_6163.png,0.0,-0.35520962,1.7583097,-1.494484
convnext_large,1,122,NaN,dog,bottle,64-3-10,0122_eid_dnn_64-3-10_bottle_10_n04591713_2826.png,n04591713_2826.png,0.0,-0.6892213,0.8133444,-1.0624745
convnext_large,1,123,NaN,clock,bottle,64-3-10,0123_eid_dnn_64-3-10_bottle_10_n04557648_3598.png,n04557648_3598.png,0.0,-0.3057747,0.89815897,-0.8513097
convnext_large,1,124,NaN,boat,truck,8-3-10,0124_eid_dnn_8-3-10_truck_10_n04467665_80629.png,n04467665_80629.png,0.0,0.40523365,1.8195683,-1.0000856
convnext_large,1,125,NaN,bear,bear,4-3-10,0125_eid_dnn_4-3-10_bear_10_n02134084_6869.png,n02134084_6869.png,1.0,3.436756,2.2271547,0.8553172
convnext_large,1,126,NaN,airplane,bird,1-3-10,0126_eid_dnn_1-3-10_bird_10_n01820546_4457.png,n01820546_4457.png,0.0,0.5220647,0.67254317,-0.10640436
convnext_large,1,127,NaN,cat,clock,64-3-10,0127_eid_dnn_64-3-10_clock_10_n04548280_7565.png,n04548280_7565.png,0.0,0.36911583,0.44513455,-0.053753354
convnext_large,1,128,NaN,elephant,elephant,16-3-10,0128_eid_dnn_16-3-10_elephant_10_n02504458_98.png,n02504458_98.png,1.0,1.804137,1.4833937,0.22679979
convnext_large,1,129,NaN,dog,bicycle,64-3-10,0129_eid_dnn_64-3-10_bicycle_10_n03792782_7143.png,n03792782_7143.png,0.0,-0.005248785,0.9842533,-0.69968367
convnext_large,1,130,NaN,dog,dog,16-3-10,0130_eid_dnn_16-3-10_dog_10_n02096051_5524.png,n02096051_5524.png,1.0,1.1682155,1.1413567,0.018992044
convnext_large,1,131,NaN,airplane,cat,16-3-10,0131_eid_dnn_16-3-10_cat_10_n02123045_9465.png,n02123045_9465.png,0.0,0.13057362,0.94469243,-0.57566893
convnext_large,1,132,NaN,clock,cat,64-3-10,0132_eid_dnn_64-3-10_cat_10_n02123159_9450.png,n02123159_9450.png,0.0,0.24115135,2.0255353,-1.2617501
convnext_large,1,133,NaN,clock,clock,4-3-10,0133_eid_dnn_4-3-10_clock_10_n02708093_8204.png,n02708093_8204.png,1.0,2.9728603,1.1369411,1.298191
convnext_large,1,134,NaN,airplane,airplane,32-3-10,0134_eid_dnn_32-3-10_airplane_10_n02690373_2619.png,n02690373_2619.png,1.0,1.507175,0.87607974,0.44625172
convnext_large,1,135,NaN,car,car,2-3-10,0135_eid_dnn_2-3-10_car_10_n04285008_11295.png,n04285008_11295.png,1.0,4.9851007,0.6425904,3.0706184
convnext_large,1,136,NaN,bear,bear,8-3-10,0136_eid_dnn_8-3-10_bear_10_n02133161_15481.png,n02133161_15481.png,1.0,5.1868553,1.9701778,2.2745347
convnext_large,1,137,NaN,cat,truck,64-3-10,0137_eid_dnn_64-3-10_truck_10_n03417042_8139.png,n03417042_8139.png,0.0,-0.9526961,1.2000087,-1.5221921
convnext_large,1,138,NaN,cat,bottle,16-3-10,0138_eid_dnn_16-3-10_bottle_10_n04557648_4490.png,n04557648_4490.png,0.0,1.2389241,1.2489132,-0.007063306
convnext_large,1,139,NaN,clock,clock,1-3-10,0139_eid_dnn_1-3-10_clock_10_n03196217_5399.png,n03196217_5399.png,1.0,4.1968303,0.6441828,2.5121012
convnext_large,1,140,NaN,boat,boat,1-3-10,0140_eid_dnn_1-3-10_boat_10_n04273569_4136.png,n04273569_4136.png,1.0,3.2214425,0.6384413,1.8264576
convnext_large,1,141,NaN,clock,clock,4-3-10,0141_eid_dnn_4-3-10_clock_10_n04548280_2127.png,n04548280_2127.png,1.0,5.102034,0.3904486,3.3315942
convnext_large,1,142,NaN,boat,boat,2-3-10,0142_eid_dnn_2-3-10_boat_10_n03344393_10038.png,n03344393_10038.png,1.0,2.1767964,1.2483798,0.6564897
convnext_large,1,143,NaN,elephant,elephant,2-3-10,0143_eid_dnn_2-3-10_elephant_10_n02504013_10793.png,n02504013_10793.png,1.0,6.5337057,0.38737056,4.346115
convnext_large,1,144,NaN,cat,oven,128-3-10,0144_eid_dnn_128-3-10_oven_10_n04111531_6590.png,n04111531_6590.png,0.0,-2.0585103,0.74738246,-1.9840658
convnext_large,1,145,NaN,oven,keyboard,16-3-10,0145_eid_dnn_16-3-10_keyboard_10_n03085013_10984.png,n03085013_10984.png,0.0,-0.9602833,2.407281,-2.3812275
convnext_large,1,146,NaN,bicycle,bicycle,2-3-10,0146_eid_dnn_2-3-10_bicycle_10_n02835271_14879.png,n02835271_14879.png,1.0,5.4917555,0.51675636,3.5178556
convnext_large,1,147,NaN,dog,knife,64-3-10,0147_eid_dnn_64-3-10_knife_10_n03041632_22241.png,n03041632_22241.png,0.0,-0.2203492,0.7413261,-0.6800071
convnext_large,1,148,NaN,dog,oven,64-3-10,0148_eid_dnn_64-3-10_oven_10_n04111531_892.png,n04111531_892.png,0.0,-1.6848211,0.5054186,-1.5487334
convnext_large,1,149,NaN,cat,bear,64-3-10,0149_eid_dnn_64-3-10_bear_10_n02134418_14850.png,n02134418_14850.png,0.0,0.26577407,0.9226405,-0.4644747
convnext_large,1,150,NaN,cat,knife,64-3-10,0150_eid_dnn_64-3-10_knife_10_n03041632_48071.png,n03041632_48071.png,0.0,0.31701124,0.8033724,-0.34390926
convnext_large,1,151,NaN,bear,clock,16-3-10,0151_eid_dnn_16-3-10_clock_10_n04548280_64.png,n04548280_64.png,0.0,-0.65352404,0.8269113,-1.0468259
convnext_large,1,152,NaN,clock,truck,64-3-10,0152_eid_dnn_64-3-10_truck_10_n03796401_6285.png,n03796401_6285.png,0.0,-1.1522644,0.9356589,-1.4763848
convnext_large,1,153,NaN,airplane,airplane,4-3-10,0153_eid_dnn_4-3-10_airplane_10_n02690373_6682.png,n02690373_6682.png,1.0,7.9480743,0.9707731,4.933697
convnext_large,1,154,NaN,dog,knife,64-3-10,0154_eid_dnn_64-3-10_knife_10_n03041632_17285.png,n03041632_17285.png,0.0,0.14299655,0.6165711,-0.3348678
convnext_large,1,155,NaN,boat,boat,2-3-10,0155_eid_dnn_2-3-10_boat_10_n02951358_8184.png,n02951358_8184.png,1.0,3.0554142,0.7478707,1.6316797
convnext_large,1,156,NaN,bear,bear,1-3-10,0156_eid_dnn_1-3-10_bear_10_n02132136_2346.png,n02132136_2346.png,1.0,2.4539511,1.3645854,0.7702979
convnext_large,1,157,NaN,bear,bear,8-3-10,0157_eid_dnn_8-3-10_bear_10_n02134418_2187.png,n02134418_2187.png,1.0,2.30793,1.0691863,0.87592405
convnext_large,1,158,NaN,cat,cat,32-3-10,0158_eid_dnn_32-3-10_cat_10_n02124075_10162.png,n02124075_10162.png,1.0,0.7715538,0.52001446,0.17786518
convnext_large,1,159,NaN,cat,truck,128-3-10,0159_eid_dnn_128-3-10_truck_10_n03417042_8998.png,n03417042_8998.png,0.0,-1.3587954,1.0556995,-1.7073058
convnext_large,1,160,NaN,cat,cat,64-3-10,0160_eid_dnn_64-3-10_cat_10_n02123597_13835.png,n02123597_13835.png,1.0,1.1191754,0.65087277,0.33114
convnext_large,1,161,NaN,clock,clock,1-3-10,0161_eid_dnn_1-3-10_clock_10_n04548280_18914.png,n04548280_18914.png,1.0,5.2275405,0.2502759,3.5194576
convnext_large,1,162,NaN,keyboard,keyboard,2-3-10,0162_eid_dnn_2-3-10_keyboard_10_n03085013_2676.png,n03085013_2676.png,1.0,7.3384647,0.6377367,4.73813
convnext_large,1,163,NaN,cat,airplane,16-3-10,0163_eid_dnn_16-3-10_airplane_10_n02690373_7600.png,n02690373_7600.png,0.0,0.30729336,1.209822,-0.6381842
convnext_large,1,164,NaN,dog,chair,16-3-10,0164_eid_dnn_16-3-10_chair_10_n04429376_17917.png,n04429376_17917.png,0.0,-0.22353128,1.2831838,-1.0654085
convnext_large,1,165,NaN,keyboard,keyboard,4-3-10,0165_eid_dnn_4-3-10_keyboard_10_n04505470_4492.png,n04505470_4492.png,1.0,3.9476268,1.3141214,1.8621695
convnext_large,1,166,NaN,bear,bear,1-3-10,0166_eid_dnn_1-3-10_bear_10_n02134418_3148.png,n02134418_3148.png,1.0,5.8501115,0.9398472,3.4720814
convnext_large,1,167,NaN,elephant,cat,4-3-10,0167_eid_dnn_4-3-10_cat_10_n02125311_20388.png,n02125311_20388.png,0.0,2.9050124,4.429855,-1.0782264
convnext_large,1,168,NaN,dog,cat,64-3-10,0168_eid_dnn_64-3-10_cat_10_n02123394_2153.png,n02123394_2153.png,0.0,0.8612749,0.94510835,-0.059279207
convnext_large,1,169,NaN,clock,clock,1-3-10,0169_eid_dnn_1-3-10_clock_10_n04548280_5327.png,n04548280_5327.png,1.0,3.972515,1.406402,1.814516
convnext_large,1,170,NaN,cat,bicycle,8-3-10,0170_eid_dnn_8-3-10_bicycle_10_n03792782_63054.png,n03792782_63054.png,0.0,1.1384668,4.025849,-2.0416875
convnext_large,1,171,NaN,cat,chair,32-3-10,0171_eid_dnn_32-3-10_chair_10_n03376595_14138.png,n03376595_14138.png,0.0,-0.5426489,1.3433393,-1.333595
convnext_large,1,172,NaN,elephant,elephant,2-3-10,0172_eid_dnn_2-3-10_elephant_10_n02504458_4849.png,n02504458_4849.png,1.0,7.53934,0.55278295,4.940242
convnext_large,1,173,NaN,clock,dog,128-3-10,0173_eid_dnn_128-3-10_dog_10_n02113624_4844.png,n02113624_4844.png,0.0,0.3421348,0.6540256,-0.2205401
convnext_large,1,174,NaN,elephant,elephant,2-3-10,0174_eid_dnn_2-3-10_elephant_10_n02504013_2549.png,n02504013_2549.png,1.0,6.792705,1.2894006,3.891424
convnext_large,1,175,NaN,bear,bear,8-3-10,0175_eid_dnn_8-3-10_bear_10_n02134084_4593.png,n02134084_4593.png,1.0,2.4831095,2.0627072,0.2972693
convnext_large,1,176,NaN,dog,bicycle,64-3-10,0176_eid_dnn_64-3-10_bicycle_10_n02835271_75.png,n02835271_75.png,0.0,0.44442564,1.2504214,-0.56992507
convnext_large,1,177,NaN,truck,truck,4-3-10,0177_eid_dnn_4-3-10_truck_10_n03796401_20943.png,n03796401_20943.png,1.0,3.5057497,1.3904226,1.4957622
convnext_large,1,178,NaN,knife,knife,2-3-10,0178_eid_dnn_2-3-10_knife_10_n03041632_32048.png,n03041632_32048.png,1.0,8.737597,1.1389717,5.3730397
convnext_large,1,179,NaN,cat,cat,1-3-10,0179_eid_dnn_1-3-10_cat_10_n02123159_3536.png,n02123159_3536.png,1.0,1.4518896,0.62088037,0.5876123
convnext_large,1,180,NaN,bicycle,bicycle,1-3-10,0180_eid_dnn_1-3-10_bicycle_10_n03792782_6716.png,n03792782_6716.png,1.0,1.7038839,1.3573763,0.24501784
convnext_large,1,181,NaN,clock,clock,2-3-10,0181_eid_dnn_2-3-10_clock_10_n03196217_1754.png,n03196217_1754.png,1.0,4.0068336,0.49242467,2.4850624
convnext_large,1,182,NaN,bicycle,bicycle,1-3-10,0182_eid_dnn_1-3-10_bicycle_10_n03792782_5404.png,n03792782_5404.png,1.0,7.696661,0.60289603,5.0160494
convnext_large,1,183,NaN,bear,dog,64-3-10,0183_eid_dnn_64-3-10_dog_10_n02096294_3014.png,n02096294_3014.png,0.0,0.8540138,1.248534,-0.2789679
convnext_large,1,184,NaN,bear,bear,4-3-10,0184_eid_dnn_4-3-10_bear_10_n02134084_23382.png,n02134084_23382.png,1.0,2.8847756,1.0921843,1.2675536
convnext_large,1,185,NaN,car,car,4-3-10,0185_eid_dnn_4-3-10_car_10_n03100240_310.png,n03100240_310.png,1.0,5.868544,1.180311,3.3150816
convnext_large,1,186,NaN,dog,dog,4-3-10,0186_eid_dnn_4-3-10_dog_10_n02093256_1653.png,n02093256_1653.png,1.0,1.8097266,0.041912932,1.250033
convnext_large,1,187,NaN,elephant,elephant,4-3-10,0187_eid_dnn_4-3-10_elephant_10_n02504013_1740.png,n02504013_1740.png,1.0,6.23262,0.6782305,3.9275463
convnext_large,1,188,NaN,dog,bear,64-3-10,0188_eid_dnn_64-3-10_bear_10_n02134084_34375.png,n02134084_34375.png,0.0,0.19801562,0.8474439,-0.45921513
convnext_large,1,189,NaN,cat,keyboard,8-3-10,0189_eid_dnn_8-3-10_keyboard_10_n03085013_23254.png,n03085013_23254.png,0.0,0.29210097,1.0333389,-0.5241344
convnext_large,1,190,NaN,cat,elephant,32-3-10,0190_eid_dnn_32-3-10_elephant_10_n02504013_1512.png,n02504013_1512.png,0.0,-0.23728424,1.4427265,-1.187947
convnext_large,1,191,NaN,bear,car,8-3-10,0191_eid_dnn_8-3-10_car_10_n04285008_6454.png,n04285008_6454.png,0.0,0.40003404,1.5647627,-0.82358754
convnext_large,1,192,NaN,keyboard,keyboard,4-3-10,0192_eid_dnn_4-3-10_keyboard_10_n04505470_7721.png,n04505470_7721.png,1.0,5.869429,0.44250065,3.837418
convnext_large,1,193,NaN,airplane,keyboard,16-3-10,0193_eid_dnn_16-3-10_keyboard_10_n04505470_3388.png,n04505470_3388.png,0.0,-0.37561363,0.5911179,-0.6835824
convnext_large,1,194,NaN,boat,boat,2-3-10,0194_eid_dnn_2-3-10_boat_10_n03344393_4221.png,n03344393_4221.png,1.0,1.7035736,0.48841453,0.8592472
convnext_large,1,195,NaN,cat,cat,128-3-10,0195_eid_dnn_128-3-10_cat_10_n02123597_14361.png,n02123597_14361.png,1.0,0.84906626,0.5037526,0.24417365
convnext_large,1,196,NaN,clock,bird,128-3-10,0196_eid_dnn_128-3-10_bird_10_n02006656_10058.png,n02006656_10058.png,0.0,-0.24901211,0.33687237,-0.4142829
convnext_large,1,197,NaN,dog,clock,32-3-10,0197_eid_dnn_32-3-10_clock_10_n02708093_8104.png,n02708093_8104.png,0.0,-0.5189325,0.9804446,-1.0602198
convnext_large,1,198,NaN,truck,truck,1-3-10,0198_eid_dnn_1-3-10_truck_10_n03417042_3845.png,n03417042_3845.png,1.0,3.0967767,1.1401154,1.3835685
convnext_large,1,199,NaN,airplane,boat,64-3-10,0199_eid_dnn_64-3-10_boat_10_n03662601_36741.png,n03662601_36741.png,0.0,0.23690656,0.45796692,-0.15631329
convnext_large,1,200,NaN,knife,knife,1-3-10,0200_eid_dnn_1-3-10_knife_10_n03041632_22570.png,n03041632_22570.png,1.0,9.010424,0.49369133,6.022239
convnext_large,1,201,NaN,keyboard,keyboard,1-3-10,0201_eid_dnn_1-3-10_keyboard_10_n04505470_4109.png,n04505470_4109.png,1.0,5.1181493,0.86724865,3.0058408
convnext_large,1,202,NaN,airplane,airplane,1-3-10,0202_eid_dnn_1-3-10_airplane_10_n02690373_10404.png,n02690373_10404.png,1.0,8.811937,0.5043359,5.874362
convnext_large,1,203,NaN,elephant,elephant,4-3-10,0203_eid_dnn_4-3-10_elephant_10_n02504458_4725.png,n02504458_4725.png,1.0,7.663281,0.93762606,4.7557564
convnext_large,1,204,NaN,airplane,airplane,1-3-10,0204_eid_dnn_1-3-10_airplane_10_n02690373_1325.png,n02690373_1325.png,1.0,8.607193,0.550645,5.69684
convnext_large,1,205,NaN,cat,bicycle,8-3-10,0205_eid_dnn_8-3-10_bicycle_10_n03792782_6841.png,n03792782_6841.png,0.0,-0.17075963,2.0784762,-1.5904499
convnext_large,1,206,NaN,chair,chair,2-3-10,0206_eid_dnn_2-3-10_chair_10_n04099969_1669.png,n04099969_1669.png,1.0,3.458937,0.27719074,2.2498343
convnext_large,1,207,NaN,cat,bottle,32-3-10,0207_eid_dnn_32-3-10_bottle_10_n03937543_5324.png,n03937543_5324.png,0.0,-0.4240518,1.2424827,-1.1784178
convnext_large,1,208,NaN,bottle,bottle,4-3-10,0208_eid_dnn_4-3-10_bottle_10_n03937543_2143.png,n03937543_2143.png,1.0,1.5711586,0.44526106,0.7961299
convnext_large,1,209,NaN,bottle,bottle,2-3-10,0209_eid_dnn_2-3-10_bottle_10_n04557648_2575.png,n04557648_2575.png,1.0,4.096976,0.5403072,2.5149446
convnext_large,1,210,NaN,knife,knife,8-3-10,0210_eid_dnn_8-3-10_knife_10_n03041632_9671.png,n03041632_9671.png,1.0,8.533972,0.29694167,5.82446
convnext_large,1,211,NaN,elephant,bottle,16-3-10,0211_eid_dnn_16-3-10_bottle_10_n04560804_4145.png,n04560804_4145.png,0.0,0.16813157,0.7654326,-0.4223556
convnext_large,1,212,NaN,cat,clock,64-3-10,0212_eid_dnn_64-3-10_clock_10_n03196217_1187.png,n03196217_1187.png,0.0,-0.036703248,1.3696331,-0.99442995
convnext_large,1,213,NaN,clock,clock,4-3-10,0213_eid_dnn_4-3-10_clock_10_n04548280_2111.png,n04548280_2111.png,1.0,4.464409,0.3141473,2.934678
convnext_large,1,214,NaN,cat,dog,128-3-10,0214_eid_dnn_128-3-10_dog_10_n02086079_6578.png,n02086079_6578.png,0.0,0.8227277,2.0024695,-0.8342035
convnext_large,1,215,NaN,elephant,car,16-3-10,0215_eid_dnn_16-3-10_car_10_n03100240_14045.png,n03100240_14045.png,0.0,-0.5118645,1.6485221,-1.527624
convnext_large,1,216,NaN,boat,boat,8-3-10,0216_eid_dnn_8-3-10_boat_10_n02951358_30908.png,n02951358_30908.png,1.0,3.5410857,1.5079031,1.4376773
convnext_large,1,217,NaN,oven,oven,4-3-10,0217_eid_dnn_4-3-10_oven_10_n04111531_2199.png,n04111531_2199.png,1.0,3.2904139,3.101503,0.13358022
convnext_large,1,218,NaN,elephant,elephant,8-3-10,0218_eid_dnn_8-3-10_elephant_10_n02504013_5641.png,n02504013_5641.png,1.0,5.1682057,1.3746098,2.6824772
convnext_large,1,219,NaN,keyboard,keyboard,2-3-10,0219_eid_dnn_2-3-10_keyboard_10_n03085013_6740.png,n03085013_6740.png,1.0,6.757486,0.47128332,4.4450164
convnext_large,1,220,NaN,clock,clock,2-3-10,0220_eid_dnn_2-3-10_clock_10_n04548280_319.png,n04548280_319.png,1.0,5.788792,0.19339073,3.9565463
convnext_large,1,221,NaN,dog,knife,32-3-10,0221_eid_dnn_32-3-10_knife_10_n03041632_43506.png,n03041632_43506.png,0.0,0.30228606,1.1210297,-0.57893926
convnext_large,1,222,NaN,airplane,boat,16-3-10,0222_eid_dnn_16-3-10_boat_10_n03344393_9712.png,n03344393_9712.png,0.0,1.1752437,2.3302727,-0.81672883
convnext_large,1,223,NaN,knife,knife,1-3-10,0223_eid_dnn_1-3-10_knife_10_n03041632_9963.png,n03041632_9963.png,1.0,8.691142,0.22666216,5.985291
convnext_large,1,224,NaN,bicycle,bird,1-3-10,0224_eid_dnn_1-3-10_bird_10_n02002556_18595.png,n02002556_18595.png,0.0,-0.22292113,1.76846,-1.4081192
convnext_large,1,225,NaN,bird,bird,4-3-10,0225_eid_dnn_4-3-10_bird_10_n01860187_20777.png,n01860187_20777.png,1.0,1.3637737,1.038976,0.2296667
convnext_large,1,226,NaN,cat,keyboard,32-3-10,0226_eid_dnn_32-3-10_keyboard_10_n03085013_24626.png,n03085013_24626.png,0.0,-0.117692895,1.867814,-1.4039654
convnext_large,1,227,NaN,dog,oven,16-3-10,0227_eid_dnn_16-3-10_oven_10_n04111531_7097.png,n04111531_7097.png,0.0,-0.19052896,0.80762714,-0.7058029
convnext_large,1,228,NaN,dog,chair,16-3-10,0228_eid_dnn_16-3-10_chair_10_n02791124_12486.png,n02791124_12486.png,0.0,-0.22737129,1.387524,-1.1419035
convnext_large,1,229,NaN,cat,cat,128-3-10,0229_eid_dnn_128-3-10_cat_10_n02123045_6629.png,n02123045_6629.png,1.0,1.8297268,0.6253952,0.8515911
convnext_large,1,230,NaN,dog,bird,16-3-10,0230_eid_dnn_16-3-10_bird_10_n01819313_5388.png,n01819313_5388.png,0.0,-0.71173817,1.0478618,-1.244225
convnext_large,1,231,NaN,elephant,truck,32-3-10,0231_eid_dnn_32-3-10_truck_10_n04467665_4940.png,n04467665_4940.png,0.0,-0.022390611,1.2378703,-0.8911391
convnext_large,1,232,NaN,cat,knife,8-3-10,0232_eid_dnn_8-3-10_knife_10_n03041632_20433.png,n03041632_20433.png,0.0,-0.93894935,1.0005873,-1.3714596
convnext_large,1,233,NaN,clock,clock,2-3-10,0233_eid_dnn_2-3-10_clock_10_n04548280_6792.png,n04548280_6792.png,1.0,4.193148,0.3104465,2.7454846
convnext_large,1,234,NaN,bicycle,bicycle,4-3-10,0234_eid_dnn_4-3-10_bicycle_10_n02835271_5413.png,n02835271_5413.png,1.0,6.9947243,0.6840234,4.4623394
convnext_large,1,235,NaN,car,car,2-3-10,0235_eid_dnn_2-3-10_car_10_n04285008_5005.png,n04285008_5005.png,1.0,5.7257304,0.50487506,3.6917021
convnext_large,1,236,NaN,car,car,2-3-10,0236_eid_dnn_2-3-10_car_10_n02814533_88088.png,n02814533_88088.png,1.0,5.1595764,2.0984426,2.1645486
convnext_large,1,237,NaN,dog,elephant,64-3-10,0237_eid_dnn_64-3-10_elephant_10_n02504458_11345.png,n02504458_11345.png,0.0,0.6578162,0.9674024,-0.21891053
convnext_large,1,238,NaN,cat,elephant,16-3-10,0238_eid_dnn_16-3-10_elephant_10_n02504013_1900.png,n02504013_1900.png,0.0,2.1041586,2.1067045,-0.0018001762
convnext_large,1,239,NaN,dog,bear,128-3-10,0239_eid_dnn_128-3-10_bear_10_n02133161_5708.png,n02133161_5708.png,0.0,0.27919054,1.1659497,-0.6270334
convnext_large,1,240,NaN,cat,cat,8-3-10,0240_eid_dnn_8-3-10_cat_10_n02124075_5828.png,n02124075_5828.png,1.0,3.4523618,1.2479978,1.5587208
convnext_large,1,241,NaN,elephant,bird,64-3-10,0241_eid_dnn_64-3-10_bird_10_n01582220_9392.png,n01582220_9392.png,0.0,0.25418532,0.85500675,-0.42484492
convnext_large,1,242,NaN,clock,clock,1-3-10,0242_eid_dnn_1-3-10_clock_10_n02708093_4597.png,n02708093_4597.png,1.0,5.573007,0.23558322,3.7741287
convnext_large,1,243,NaN,clock,bicycle,128-3-10,0243_eid_dnn_128-3-10_bicycle_10_n03792782_26306.png,n03792782_26306.png,0.0,-0.33149666,0.9684866,-0.919227
convnext_large,1,244,NaN,dog,bear,32-3-10,0244_eid_dnn_32-3-10_bear_10_n02132136_1795.png,n02132136_1795.png,0.0,0.7106727,0.99711126,-0.20254266
convnext_large,1,245,NaN,cat,clock,128-3-10,0245_eid_dnn_128-3-10_clock_10_n02708093_3638.png,n02708093_3638.png,0.0,0.556691,0.81581616,-0.18322916
convnext_large,1,246,NaN,keyboard,keyboard,4-3-10,0246_eid_dnn_4-3-10_keyboard_10_n03085013_21272.png,n03085013_21272.png,1.0,5.0980206,0.4785173,3.2664819
convnext_large,1,247,NaN,bottle,chair,8-3-10,0247_eid_dnn_8-3-10_chair_10_n02791124_16926.png,n02791124_16926.png,0.0,-0.39768168,0.76905507,-0.82500744
convnext_large,1,248,NaN,dog,knife,8-3-10,0248_eid_dnn_8-3-10_knife_10_n03041632_84048.png,n03041632_84048.png,0.0,0.2664072,0.6210954,-0.25080246
convnext_large,1,249,NaN,oven,oven,2-3-10,0249_eid_dnn_2-3-10_oven_10_n04111531_550.png,n04111531_550.png,1.0,6.811496,1.5548183,3.7170324
convnext_large,1,250,NaN,cat,boat,128-3-10,0250_eid_dnn_128-3-10_boat_10_n03662601_21992.png,n03662601_21992.png,0.0,-1.5226523,1.2503597,-1.9608155
convnext_large,1,251,NaN,cat,bear,32-3-10,0251_eid_dnn_32-3-10_bear_10_n02134418_280.png,n02134418_280.png,0.0,0.8480444,1.3524957,-0.35670093
convnext_large,1,252,NaN,bottle,bottle,8-3-10,0252_eid_dnn_8-3-10_bottle_10_n04560804_8385.png,n04560804_8385.png,1.0,3.0642147,0.3298959,1.9334553
convnext_large,1,253,NaN,bear,elephant,64-3-10,0253_eid_dnn_64-3-10_elephant_10_n02504013_4183.png,n02504013_4183.png,0.0,1.0074142,1.3856084,-0.2674237
convnext_large,1,254,NaN,airplane,bird,1-3-10,0254_eid_dnn_1-3-10_bird_10_n01560419_19608.png,n01560419_19608.png,0.0,1.2643192,1.4006004,-0.0963654
convnext_large,1,255,NaN,bicycle,bird,4-3-10,0255_eid_dnn_4-3-10_bird_10_n02056570_8865.png,n02056570_8865.png,0.0,0.055969607,1.8645848,-1.278884
convnext_large,1,256,NaN,cat,cat,2-3-10,0256_eid_dnn_2-3-10_cat_10_n02123394_2553.png,n02123394_2553.png,1.0,2.3925607,0.45470667,1.3702698
convnext_large,1,257,NaN,dog,bear,128-3-10,0257_eid_dnn_128-3-10_bear_10_n02132136_10113.png,n02132136_10113.png,0.0,0.70909667,0.96481365,-0.18081921
convnext_large,1,258,NaN,cat,oven,8-3-10,0258_eid_dnn_8-3-10_oven_10_n04111531_2758.png,n04111531_2758.png,0.0,-0.5373476,1.311682,-1.3074614
convnext_large,1,259,NaN,cat,keyboard,64-3-10,0259_eid_dnn_64-3-10_keyboard_10_n04505470_4824.png,n04505470_4824.png,0.0,-1.2425647,1.0471668,-1.6190847
convnext_large,1,260,NaN,bicycle,bicycle,2-3-10,0260_eid_dnn_2-3-10_bicycle_10_n02835271_8654.png,n02835271_8654.png,1.0,5.5115266,1.1067481,3.1146488
convnext_large,1,261,NaN,dog,keyboard,128-3-10,0261_eid_dnn_128-3-10_keyboard_10_n03085013_34973.png,n03085013_34973.png,0.0,-0.6625719,0.71894145,-0.97687745
convnext_large,1,262,NaN,cat,cat,4-3-10,0262_eid_dnn_4-3-10_cat_10_n02123394_4228.png,n02123394_4228.png,1.0,1.8985432,0.543297,0.95830387
convnext_large,1,263,NaN,elephant,keyboard,32-3-10,0263_eid_dnn_32-3-10_keyboard_10_n03085013_24416.png,n03085013_24416.png,0.0,-0.57570904,1.5333239,-1.4913114
convnext_large,1,264,NaN,cat,cat,8-3-10,0264_eid_dnn_8-3-10_cat_10_n02124075_5729.png,n02124075_5729.png,1.0,1.4240526,1.2164515,0.14679612
convnext_large,1,265,NaN,dog,clock,32-3-10,0265_eid_dnn_32-3-10_clock_10_n03196217_6357.png,n03196217_6357.png,0.0,-0.09768268,0.68500805,-0.55344594
convnext_large,1,266,NaN,cat,truck,128-3-10,0266_eid_dnn_128-3-10_truck_10_n03417042_29478.png,n03417042_29478.png,0.0,-1.382781,1.6299747,-2.13034
convnext_large,1,267,NaN,dog,chair,128-3-10,0267_eid_dnn_128-3-10_chair_10_n04099969_18678.png,n04099969_18678.png,0.0,-0.025848716,1.6456757,-1.1819463
convnext_large,1,268,NaN,cat,clock,32-3-10,0268_eid_dnn_32-3-10_clock_10_n02708093_4286.png,n02708093_4286.png,0.0,0.32856476,0.89341855,-0.39941195
convnext_large,1,269,NaN,clock,car,128-3-10,0269_eid_dnn_128-3-10_car_10_n03100240_21971.png,n03100240_21971.png,0.0,-0.552609,0.8164707,-0.9680856
convnext_large,1,270,NaN,car,car,1-3-10,0270_eid_dnn_1-3-10_car_10_n03100240_84.png,n03100240_84.png,1.0,5.5090656,1.1527859,3.0803552
convnext_large,1,271,NaN,dog,dog,1-3-10,0271_eid_dnn_1-3-10_dog_10_n02094433_3186.png,n02094433_3186.png,1.0,0.9281941,0.35617465,0.40447885
convnext_large,1,272,NaN,dog,dog,4-3-10,0272_eid_dnn_4-3-10_dog_10_n02088364_10195.png,n02088364_10195.png,1.0,1.0029474,0.24540682,0.5356621
convnext_large,1,273,NaN,bear,knife,16-3-10,0273_eid_dnn_16-3-10_knife_10_n03041632_11358.png,n03041632_11358.png,0.0,0.005854614,1.3014234,-0.9161055
convnext_large,1,274,NaN,dog,bird,64-3-10,0274_eid_dnn_64-3-10_bird_10_n01531178_10630.png,n01531178_10630.png,0.0,-1.0381446,1.3636012,-1.6982908
convnext_large,1,275,NaN,elephant,elephant,1-3-10,0275_eid_dnn_1-3-10_elephant_10_n02504458_4058.png,n02504458_4058.png,1.0,5.4397106,0.70785546,3.345927
convnext_large,1,276,NaN,cat,keyboard,32-3-10,0276_eid_dnn_32-3-10_keyboard_10_n03085013_24336.png,n03085013_24336.png,0.0,-0.4504075,0.7599533,-0.85585433
convnext_large,1,277,NaN,clock,clock,4-3-10,0277_eid_dnn_4-3-10_clock_10_n02708093_386.png,n02708093_386.png,1.0,4.9110594,0.13575011,3.3766534
convnext_large,1,278,NaN,chair,chair,4-3-10,0278_eid_dnn_4-3-10_chair_10_n04429376_16370.png,n04429376_16370.png,1.0,2.8810546,0.87911654,1.4155841
convnext_large,1,279,NaN,bottle,bottle,1-3-10,0279_eid_dnn_1-3-10_bottle_10_n04557648_10167.png,n04557648_10167.png,1.0,2.423128,0.53996366,1.3315982
convnext_large,1,280,NaN,bicycle,bicycle,1-3-10,0280_eid_dnn_1-3-10_bicycle_10_n02835271_15717.png,n02835271_15717.png,1.0,5.6090975,0.64870256,3.507529
convnext_large,1,281,NaN,cat,car,128-3-10,0281_eid_dnn_128-3-10_car_10_n03100240_22593.png,n03100240_22593.png,0.0,-0.78088385,1.0944163,-1.3260375
convnext_large,1,282,NaN,car,car,1-3-10,0282_eid_dnn_1-3-10_car_10_n04285008_11240.png,n04285008_11240.png,1.0,4.6827216,0.42176625,3.0129504
convnext_large,1,283,NaN,boat,boat,1-3-10,0283_eid_dnn_1-3-10_boat_10_n03344393_3337.png,n03344393_3337.png,1.0,2.1895146,1.010158,0.83393115
convnext_large,1,284,NaN,dog,bottle,128-3-10,0284_eid_dnn_128-3-10_bottle_10_n04579145_1660.png,n04579145_1660.png,0.0,-0.41083232,0.8955149,-0.92372704
convnext_large,1,285,NaN,cat,dog,64-3-10,0285_eid_dnn_64-3-10_dog_10_n02091244_9305.png,n02091244_9305.png,0.0,0.30548936,0.61205834,-0.21677701
convnext_large,1,286,NaN,clock,chair,32-3-10,0286_eid_dnn_32-3-10_chair_10_n03376595_3912.png,n03376595_3912.png,0.0,0.36906418,0.78437346,-0.293668
convnext_large,1,287,NaN,cat,bottle,64-3-10,0287_eid_dnn_64-3-10_bottle_10_n02823428_6793.png,n02823428_6793.png,0.0,-0.3611762,1.386993,-1.2361423
convnext_large,1,288,NaN,dog,dog,32-3-10,0288_eid_dnn_32-3-10_dog_10_n02093754_4949.png,n02093754_4949.png,1.0,0.7796614,0.61758447,0.11460571
convnext_large,1,289,NaN,cat,dog,128-3-10,0289_eid_dnn_128-3-10_dog_10_n02105855_10394.png,n02105855_10394.png,0.0,0.71952885,0.77106935,-0.036444634
convnext_large,1,290,NaN,clock,clock,2-3-10,0290_eid_dnn_2-3-10_clock_10_n04548280_9533.png,n04548280_9533.png,1.0,4.1012826,0.48617923,2.5562642
convnext_large,1,291,NaN,bear,cat,1-3-10,0291_eid_dnn_1-3-10_cat_10_n02125311_7527.png,n02125311_7527.png,0.0,1.161681,2.218271,-0.74712193
convnext_large,1,292,NaN,car,car,4-3-10,0292_eid_dnn_4-3-10_car_10_n03100240_4537.png,n03100240_4537.png,1.0,6.947683,0.8412887,4.317873
convnext_large,1,293,NaN,cat,bicycle,8-3-10,0293_eid_dnn_8-3-10_bicycle_10_n03792782_11609.png,n03792782_11609.png,0.0,-1.2266058,2.3375075,-2.5202086
convnext_large,1,294,NaN,dog,oven,128-3-10,0294_eid_dnn_128-3-10_oven_10_n04111531_6134.png,n04111531_6134.png,0.0,-1.5568472,0.77477705,-1.6487074
convnext_large,1,295,NaN,bottle,bottle,8-3-10,0295_eid_dnn_8-3-10_bottle_10_n04591713_715.png,n04591713_715.png,1.0,1.896943,1.166605,0.5164269
convnext_large,1,296,NaN,elephant,elephant,32-3-10,0296_eid_dnn_32-3-10_elephant_10_n02504458_7818.png,n02504458_7818.png,1.0,2.4125507,1.3278137,0.7670249
convnext_large,1,297,NaN,cat,airplane,64-3-10,0297_eid_dnn_64-3-10_airplane_10_n02690373_7107.png,n02690373_7107.png,0.0,-0.81655955,0.68997496,-1.0652808
convnext_large,1,298,NaN,dog,car,32-3-10,0298_eid_dnn_32-3-10_car_10_n04285008_8363.png,n04285008_8363.png,0.0,-0.16708547,0.70558906,-0.6170741
convnext_large,1,299,NaN,clock,clock,4-3-10,0299_eid_dnn_4-3-10_clock_10_n04548280_4249.png,n04548280_4249.png,1.0,4.1169567,0.365766,2.6524923
convnext_large,1,300,NaN,cat,cat,128-3-10,0300_eid_dnn_128-3-10_cat_10_n02123597_7269.png,n02123597_7269.png,1.0,1.5520028,0.7808737,0.5452706
convnext_large,1,301,NaN,bicycle,bicycle,1-3-10,0301_eid_dnn_1-3-10_bicycle_10_n03792782_4864.png,n03792782_4864.png,1.0,6.2656,0.7405219,3.9068203
convnext_large,1,302,NaN,bear,bear,2-3-10,0302_eid_dnn_2-3-10_bear_10_n02132136_8011.png,n02132136_8011.png,1.0,5.8240156,1.3520902,3.1621287
convnext_large,1,303,NaN,cat,boat,128-3-10,0303_eid_dnn_128-3-10_boat_10_n02951358_4810.png,n02951358_4810.png,0.0,-0.75485957,1.6014658,-1.6661737
convnext_large,1,304,NaN,clock,clock,128-3-10,0304_eid_dnn_128-3-10_clock_10_n03196217_5137.png,n03196217_5137.png,1.0,0.5327572,0.34533826,0.13252522
convnext_large,1,305,NaN,bicycle,bicycle,2-3-10,0305_eid_dnn_2-3-10_bicycle_10_n02835271_158.png,n02835271_158.png,1.0,5.143,1.0245932,2.9121535
convnext_large,1,306,NaN,dog,bear,64-3-10,0306_eid_dnn_64-3-10_bear_10_n02132136_11217.png,n02132136_11217.png,0.0,0.08152172,0.7290723,-0.4578874
convnext_large,1,307,NaN,cat,dog,64-3-10,0307_eid_dnn_64-3-10_dog_10_n02092002_6122.png,n02092002_6122.png,0.0,0.5811783,0.84812856,-0.18876234
convnext_large,1,308,NaN,dog,chair,32-3-10,0308_eid_dnn_32-3-10_chair_10_n04429376_29223.png,n04429376_29223.png,0.0,0.077359304,0.7461857,-0.47293168
convnext_large,1,309,NaN,clock,bear,128-3-10,0309_eid_dnn_128-3-10_bear_10_n02133161_5723.png,n02133161_5723.png,0.0,0.29160267,0.67605734,-0.2718505
convnext_large,1,310,NaN,dog,dog,128-3-10,0310_eid_dnn_128-3-10_dog_10_n02100583_1343.png,n02100583_1343.png,1.0,0.7848114,0.7036559,0.05738559
convnext_large,1,311,NaN,clock,boat,128-3-10,0311_eid_dnn_128-3-10_boat_10_n03344393_6352.png,n03344393_6352.png,0.0,-0.76133645,1.169105,-1.3650283
convnext_large,1,312,NaN,bird,bird,4-3-10,0312_eid_dnn_4-3-10_bird_10_n01560419_8247.png,n01560419_8247.png,1.0,0.600553,0.41630206,0.13028508
convnext_large,1,313,NaN,dog,dog,4-3-10,0313_eid_dnn_4-3-10_dog_10_n02105251_8210.png,n02105251_8210.png,1.0,0.8352923,0.461619,0.2642269
convnext_large,1,314,NaN,clock,oven,128-3-10,0314_eid_dnn_128-3-10_oven_10_n04111531_9702.png,n04111531_9702.png,0.0,-2.0054748,0.6668191,-1.8895972
convnext_large,1,315,NaN,cat,bear,8-3-10,0315_eid_dnn_8-3-10_bear_10_n02133161_12161.png,n02133161_12161.png,0.0,0.6545317,0.830353,-0.12432444
convnext_large,1,316,NaN,bear,bear,8-3-10,0316_eid_dnn_8-3-10_bear_10_n02133161_13556.png,n02133161_13556.png,1.0,1.9733406,1.4674553,0.35771498
convnext_large,1,317,NaN,cat,bear,128-3-10,0317_eid_dnn_128-3-10_bear_10_n02134084_635.png,n02134084_635.png,0.0,-0.46874055,1.3682216,-1.2989285
convnext_large,1,318,NaN,cat,chair,128-3-10,0318_eid_dnn_128-3-10_chair_10_n02791124_6956.png,n02791124_6956.png,0.0,-0.63182986,1.777558,-1.7036945
convnext_large,1,319,NaN,car,car,4-3-10,0319_eid_dnn_4-3-10_car_10_n02814533_18077.png,n02814533_18077.png,1.0,4.2136283,2.428021,1.2626151
convnext_large,1,320,NaN,chair,dog,2-3-10,0320_eid_dnn_2-3-10_dog_10_n02088364_11105.png,n02088364_11105.png,0.0,0.38337982,1.1242753,-0.5238922
convnext_large,1,321,NaN,dog,airplane,64-3-10,0321_eid_dnn_64-3-10_airplane_10_n02690373_1053.png,n02690373_1053.png,0.0,-0.53091574,0.6654093,-0.84592956
convnext_large,1,322,NaN,cat,car,16-3-10,0322_eid_dnn_16-3-10_car_10_n02814533_96407.png,n02814533_96407.png,0.0,-0.55761856,1.2345403,-1.2672477
convnext_large,1,323,NaN,chair,chair,4-3-10,0323_eid_dnn_4-3-10_chair_10_n04099969_31891.png,n04099969_31891.png,1.0,3.9299965,2.3559546,1.1130157
convnext_large,1,324,NaN,bear,bottle,16-3-10,0324_eid_dnn_16-3-10_bottle_10_n04557648_4470.png,n04557648_4470.png,0.0,-0.16830185,1.5673347,-1.2272804
convnext_large,1,325,NaN,bottle,clock,8-3-10,0325_eid_dnn_8-3-10_clock_10_n02708093_2588.png,n02708093_2588.png,0.0,-0.57236844,1.6167376,-1.5479317
convnext_large,1,326,NaN,dog,elephant,128-3-10,0326_eid_dnn_128-3-10_elephant_10_n02504458_6696.png,n02504458_6696.png,0.0,-0.25494444,0.8766174,-0.800135
convnext_large,1,327,NaN,dog,elephant,32-3-10,0327_eid_dnn_32-3-10_elephant_10_n02504013_4071.png,n02504013_4071.png,0.0,-0.32225993,1.1515524,-1.0421427
convnext_large,1,328,NaN,bottle,keyboard,8-3-10,0328_eid_dnn_8-3-10_keyboard_10_n03085013_8339.png,n03085013_8339.png,0.0,0.054765508,0.93460375,-0.6221396
convnext_large,1,329,NaN,dog,elephant,64-3-10,0329_eid_dnn_64-3-10_elephant_10_n02504013_6976.png,n02504013_6976.png,0.0,-0.32126546,0.7079556,-0.7277692
convnext_large,1,330,NaN,bicycle,boat,4-3-10,0330_eid_dnn_4-3-10_boat_10_n02951358_9146.png,n02951358_9146.png,0.0,0.38728532,2.0473683,-1.1738559
convnext_large,1,331,NaN,clock,boat,32-3-10,0331_eid_dnn_32-3-10_boat_10_n04273569_4087.png,n04273569_4087.png,0.0,-0.1513178,0.38234925,-0.37735963
convnext_large,1,332,NaN,cat,oven,64-3-10,0332_eid_dnn_64-3-10_oven_10_n04111531_2922.png,n04111531_2922.png,0.0,-2.2590215,1.2090944,-2.4523282
convnext_large,1,333,NaN,bear,bear,4-3-10,0333_eid_dnn_4-3-10_bear_10_n02133161_5325.png,n02133161_5325.png,1.0,4.7449083,1.4404516,2.3366039
convnext_large,1,334,NaN,clock,bottle,64-3-10,0334_eid_dnn_64-3-10_bottle_10_n04557648_3109.png,n04557648_3109.png,0.0,-0.4738837,0.98598224,-1.0322812
convnext_large,1,335,NaN,oven,oven,1-3-10,0335_eid_dnn_1-3-10_oven_10_n04111531_15912.png,n04111531_15912.png,1.0,8.197295,0.80865145,5.2245603
convnext_large,1,336,NaN,dog,truck,16-3-10,0336_eid_dnn_16-3-10_truck_10_n03417042_17099.png,n03417042_17099.png,0.0,-0.34214497,0.84438676,-0.8390047
convnext_large,1,337,NaN,car,car,2-3-10,0337_eid_dnn_2-3-10_car_10_n04285008_8641.png,n04285008_8641.png,1.0,5.072705,0.3068447,3.369972
convnext_large,1,338,NaN,dog,keyboard,32-3-10,0338_eid_dnn_32-3-10_keyboard_10_n04505470_524.png,n04505470_524.png,0.0,-1.2508578,1.2249272,-1.7506444
convnext_large,1,339,NaN,elephant,bottle,8-3-10,0339_eid_dnn_8-3-10_bottle_10_n04557648_5935.png,n04557648_5935.png,0.0,1.570986,2.6186724,-0.74082613
convnext_large,1,340,NaN,bottle,bottle,1-3-10,0340_eid_dnn_1-3-10_bottle_10_n04591713_3776.png,n04591713_3776.png,1.0,3.2342796,1.0033382,1.5775137
convnext_large,1,341,NaN,truck,truck,2-3-10,0341_eid_dnn_2-3-10_truck_10_n03796401_3651.png,n03796401_3651.png,1.0,1.2709614,0.5037669,0.54248846
convnext_large,1,342,NaN,dog,bicycle,128-3-10,0342_eid_dnn_128-3-10_bicycle_10_n03792782_15757.png,n03792782_15757.png,0.0,0.331796,1.1786213,-0.59879595
convnext_large,1,343,NaN,clock,cat,32-3-10,0343_eid_dnn_32-3-10_cat_10_n02123597_8698.png,n02123597_8698.png,0.0,0.13073917,0.55282336,-0.2984586
convnext_large,1,344,NaN,boat,boat,1-3-10,0344_eid_dnn_1-3-10_boat_10_n03662601_273.png,n03662601_273.png,1.0,3.8025424,0.964692,2.0066633
convnext_large,1,345,NaN,knife,knife,1-3-10,0345_eid_dnn_1-3-10_knife_10_n03041632_24376.png,n03041632_24376.png,1.0,7.632025,0.6553544,4.933251
convnext_large,1,346,NaN,keyboard,keyboard,1-3-10,0346_eid_dnn_1-3-10_keyboard_10_n04505470_2608.png,n04505470_2608.png,1.0,5.203148,0.46079507,3.35335
convnext_large,1,347,NaN,airplane,boat,16-3-10,0347_eid_dnn_16-3-10_boat_10_n04273569_10665.png,n04273569_10665.png,0.0,1.12908,1.9908394,-0.60935587
convnext_large,1,348,NaN,cat,bear,64-3-10,0348_eid_dnn_64-3-10_bear_10_n02133161_5267.png,n02133161_5267.png,0.0,0.6596441,0.79244083,-0.093901455
convnext_large,1,349,NaN,cat,bear,128-3-10,0349_eid_dnn_128-3-10_bear_10_n02133161_5020.png,n02133161_5020.png,0.0,0.55122054,1.2886007,-0.52140653
convnext_large,1,350,NaN,dog,knife,128-3-10,0350_eid_dnn_128-3-10_knife_10_n03041632_21723.png,n03041632_21723.png,0.0,-0.4548303,0.70819783,-0.8223851
convnext_large,1,351,NaN,elephant,boat,32-3-10,0351_eid_dnn_32-3-10_boat_10_n02951358_31101.png,n02951358_31101.png,0.0,-0.38656297,0.9350301,-0.9345074
convnext_large,1,352,NaN,dog,dog,128-3-10,0352_eid_dnn_128-3-10_dog_10_n02102177_4180.png,n02102177_4180.png,1.0,1.4936891,0.5761051,0.6488298
convnext_large,1,353,NaN,bottle,bottle,4-3-10,0353_eid_dnn_4-3-10_bottle_10_n04579145_4186.png,n04579145_4186.png,1.0,1.8299806,0.50777155,0.9349431
convnext_large,1,354,NaN,elephant,bicycle,64-3-10,0354_eid_dnn_64-3-10_bicycle_10_n03792782_2246.png,n03792782_2246.png,0.0,0.024367303,0.93330705,-0.6427174
convnext_large,1,355,NaN,knife,dog,1-3-10,0355_eid_dnn_1-3-10_dog_10_n02110958_1526.png,n02110958_1526.png,0.0,0.8747218,0.91711605,-0.029977242
convnext_large,1,356,NaN,dog,keyboard,128-3-10,0356_eid_dnn_128-3-10_keyboard_10_n04505470_255.png,n04505470_255.png,0.0,-0.41017094,0.8585806,-0.8971428
convnext_large,1,357,NaN,boat,elephant,4-3-10,0357_eid_dnn_4-3-10_elephant_10_n02504458_1933.png,n02504458_1933.png,0.0,1.5380907,1.6603781,-0.08647025
convnext_large,1,358,NaN,cat,cat,2-3-10,0358_eid_dnn_2-3-10_cat_10_n02123159_5749.png,n02123159_5749.png,1.0,4.3492785,0.633541,2.627423
convnext_large,1,359,NaN,cat,airplane,128-3-10,0359_eid_dnn_128-3-10_airplane_10_n02690373_2967.png,n02690373_2967.png,0.0,-0.4099799,0.6097398,-0.72105074
convnext_large,1,360,NaN,cat,chair,8-3-10,0360_eid_dnn_8-3-10_chair_10_n04099969_72.png,n04099969_72.png,0.0,-0.20457691,0.9622827,-0.82509434
convnext_large,1,361,NaN,cat,cat,32-3-10,0361_eid_dnn_32-3-10_cat_10_n02123045_4089.png,n02123045_4089.png,1.0,0.68165165,0.61084205,0.05006995
convnext_large,1,362,NaN,cat,bird,128-3-10,0362_eid_dnn_128-3-10_bird_10_n01616318_13293.png,n01616318_13293.png,0.0,0.030329583,0.86403066,-0.5895157
convnext_large,1,363,NaN,cat,cat,4-3-10,0363_eid_dnn_4-3-10_cat_10_n02124075_13719.png,n02124075_13719.png,1.0,4.659086,0.42510563,2.9938765
convnext_large,1,364,NaN,knife,oven,32-3-10,0364_eid_dnn_32-3-10_oven_10_n04111531_22466.png,n04111531_22466.png,0.0,-0.79393995,0.5539328,-0.95308995
convnext_large,1,365,NaN,cat,airplane,128-3-10,0365_eid_dnn_128-3-10_airplane_10_n02690373_2525.png,n02690373_2525.png,0.0,-1.1622152,0.7901318,-1.3805178
convnext_large,1,366,NaN,cat,cat,1-3-10,0366_eid_dnn_1-3-10_cat_10_n02124075_5369.png,n02124075_5369.png,1.0,5.226538,0.86854476,3.0815668
convnext_large,1,367,NaN,dog,bird,64-3-10,0367_eid_dnn_64-3-10_bird_10_n01843065_4182.png,n01843065_4182.png,0.0,-0.6115347,0.62157995,-0.8719438
convnext_large,1,368,NaN,truck,truck,2-3-10,0368_eid_dnn_2-3-10_truck_10_n03796401_6472.png,n03796401_6472.png,1.0,3.5906224,0.5169283,2.17343
convnext_large,1,369,NaN,clock,airplane,64-3-10,0369_eid_dnn_64-3-10_airplane_10_n02690373_3090.png,n02690373_3090.png,0.0,-0.3907819,1.1088246,-1.0603819
convnext_large,1,370,NaN,clock,bear,64-3-10,0370_eid_dnn_64-3-10_bear_10_n02134418_2964.png,n02134418_2964.png,0.0,-0.11419824,0.6301784,-0.5263538
convnext_large,1,371,NaN,elephant,elephant,16-3-10,0371_eid_dnn_16-3-10_elephant_10_n02504013_6904.png,n02504013_6904.png,1.0,2.8356514,1.4083719,1.009239
convnext_large,1,372,NaN,cat,bottle,32-3-10,0372_eid_dnn_32-3-10_bottle_10_n02823428_13488.png,n02823428_13488.png,0.0,-0.31130767,0.693449,-0.71047026
convnext_large,1,373,NaN,car,car,1-3-10,0373_eid_dnn_1-3-10_car_10_n02814533_49499.png,n02814533_49499.png,1.0,5.6886535,0.6720055,3.5473058
convnext_large,1,374,NaN,clock,clock,64-3-10,0374_eid_dnn_64-3-10_clock_10_n03196217_1000.png,n03196217_1000.png,1.0,0.9254799,0.2413546,0.48374966
convnext_large,1,375,NaN,bear,boat,16-3-10,0375_eid_dnn_16-3-10_boat_10_n04612504_13446.png,n04612504_13446.png,0.0,0.72818935,1.1377468,-0.28960085
convnext_large,1,376,NaN,elephant,cat,8-3-10,0376_eid_dnn_8-3-10_cat_10_n02123159_7239.png,n02123159_7239.png,0.0,0.81011814,1.8294374,-0.7207676
convnext_large,1,377,NaN,boat,airplane,8-3-10,0377_eid_dnn_8-3-10_airplane_10_n02690373_7499.png,n02690373_7499.png,0.0,1.0903461,1.2804875,-0.1344503
convnext_large,1,378,NaN,cat,dog,64-3-10,0378_eid_dnn_64-3-10_dog_10_n02100877_8862.png,n02100877_8862.png,0.0,0.81153256,1.248116,-0.30871114
convnext_large,1,379,NaN,keyboard,keyboard,2-3-10,0379_eid_dnn_2-3-10_keyboard_10_n03085013_7152.png,n03085013_7152.png,1.0,6.4729915,0.9118674,3.9323084
convnext_large,1,380,NaN,cat,bottle,32-3-10,0380_eid_dnn_32-3-10_bottle_10_n03937543_3344.png,n03937543_3344.png,0.0,-0.40451577,1.0263993,-1.0118097
convnext_large,1,381,NaN,dog,bicycle,64-3-10,0381_eid_dnn_64-3-10_bicycle_10_n02835271_1721.png,n02835271_1721.png,0.0,0.09298803,1.4115001,-0.9323289
convnext_large,1,382,NaN,boat,boat,2-3-10,0382_eid_dnn_2-3-10_boat_10_n04273569_7039.png,n04273569_7039.png,1.0,3.8606427,0.77677804,2.1806216
convnext_large,1,383,NaN,airplane,airplane,1-3-10,0383_eid_dnn_1-3-10_airplane_10_n02690373_5790.png,n02690373_5790.png,1.0,8.761952,0.76191294,5.656882
convnext_large,1,384,NaN,bird,bird,2-3-10,0384_eid_dnn_2-3-10_bird_10_n02007558_4629.png,n02007558_4629.png,1.0,1.1237309,0.6515399,0.33388945
convnext_large,1,385,NaN,airplane,airplane,8-3-10,0385_eid_dnn_8-3-10_airplane_10_n02690373_2313.png,n02690373_2313.png,1.0,1.823756,1.1415498,0.4823926
convnext_large,1,386,NaN,car,car,2-3-10,0386_eid_dnn_2-3-10_car_10_n02814533_65093.png,n02814533_65093.png,1.0,3.834514,2.3974605,1.0161502
convnext_large,1,387,NaN,bicycle,bicycle,2-3-10,0387_eid_dnn_2-3-10_bicycle_10_n03792782_4559.png,n03792782_4559.png,1.0,7.770507,0.7756597,4.946104
convnext_large,1,388,NaN,oven,oven,2-3-10,0388_eid_dnn_2-3-10_oven_10_n04111531_16696.png,n04111531_16696.png,1.0,8.2913065,0.90169555,5.225244
convnext_large,1,389,NaN,cat,boat,32-3-10,0389_eid_dnn_32-3-10_boat_10_n04273569_5593.png,n04273569_5593.png,0.0,-0.4491647,1.1131319,-1.1047106
convnext_large,1,390,NaN,dog,bottle,128-3-10,0390_eid_dnn_128-3-10_bottle_10_n03937543_6624.png,n03937543_6624.png,0.0,-0.14413252,0.6024298,-0.5278993
convnext_large,1,391,NaN,airplane,airplane,1-3-10,0391_eid_dnn_1-3-10_airplane_10_n02690373_12436.png,n02690373_12436.png,1.0,8.315576,0.4564487,5.557242
convnext_large,1,392,NaN,airplane,bird,2-3-10,0392_eid_dnn_2-3-10_bird_10_n01828970_6924.png,n01828970_6924.png,0.0,0.4631493,0.49395284,-0.021781387
convnext_large,1,393,NaN,airplane,airplane,4-3-10,0393_eid_dnn_4-3-10_airplane_10_n02690373_9605.png,n02690373_9605.png,1.0,9.369553,0.7768022,6.075992
convnext_large,1,394,NaN,clock,truck,128-3-10,0394_eid_dnn_128-3-10_truck_10_n03796401_1335.png,n03796401_1335.png,0.0,-0.90897316,0.93157595,-1.3014648
convnext_large,1,395,NaN,dog,chair,64-3-10,0395_eid_dnn_64-3-10_chair_10_n04429376_10476.png,n04429376_10476.png,0.0,-0.92814624,1.0400747,-1.3917423
convnext_large,1,396,NaN,bottle,bottle,1-3-10,0396_eid_dnn_1-3-10_bottle_10_n04560804_32760.png,n04560804_32760.png,1.0,1.98077,0.31658965,1.1767532
convnext_large,1,397,NaN,airplane,airplane,32-3-10,0397_eid_dnn_32-3-10_airplane_10_n02690373_10817.png,n02690373_10817.png,1.0,0.92210996,0.5293193,0.27774495
convnext_large,1,398,NaN,cat,car,32-3-10,0398_eid_dnn_32-3-10_car_10_n03100240_5946.png,n03100240_5946.png,0.0,-0.69286007,1.179309,-1.3238235
convnext_large,1,399,NaN,dog,clock,64-3-10,0399_eid_dnn_64-3-10_clock_10_n02708093_2875.png,n02708093_2875.png,0.0,0.44181237,1.2027782,-0.5380841
convnext_large,1,400,NaN,bear,bear,2-3-10,0400_eid_dnn_2-3-10_bear_10_n02133161_2456.png,n02133161_2456.png,1.0,4.9490495,0.4207623,3.2019825
convnext_large,1,401,NaN,bird,bird,8-3-10,0401_eid_dnn_8-3-10_bird_10_n01855672_15317.png,n01855672_15317.png,1.0,1.4905533,1.3280399,0.11491431
convnext_large,1,402,NaN,dog,dog,8-3-10,0402_eid_dnn_8-3-10_dog_10_n02098286_2242.png,n02098286_2242.png,1.0,1.3460906,0.80441,0.383026
convnext_large,1,403,NaN,knife,knife,2-3-10,0403_eid_dnn_2-3-10_knife_10_n03041632_43289.png,n03041632_43289.png,1.0,5.873537,0.57026345,3.749981
convnext_large,1,404,NaN,bottle,bottle,4-3-10,0404_eid_dnn_4-3-10_bottle_10_n02823428_4387.png,n02823428_4387.png,1.0,3.8623116,0.49194518,2.383209
convnext_large,1,405,NaN,dog,knife,64-3-10,0405_eid_dnn_64-3-10_knife_10_n03041632_13194.png,n03041632_13194.png,0.0,0.21340182,0.6180552,-0.28613317
convnext_large,1,406,NaN,airplane,airplane,8-3-10,0406_eid_dnn_8-3-10_airplane_10_n02690373_7465.png,n02690373_7465.png,1.0,1.2202845,0.8605345,0.25438166
convnext_large,1,407,NaN,bird,bird,4-3-10,0407_eid_dnn_4-3-10_bird_10_n02018207_2282.png,n02018207_2282.png,1.0,0.75750864,0.4697527,0.20347418
convnext_large,1,408,NaN,dog,chair,64-3-10,0408_eid_dnn_64-3-10_chair_10_n04099969_34351.png,n04099969_34351.png,0.0,-0.32915956,0.85337836,-0.83618057
convnext_large,1,409,NaN,dog,bottle,64-3-10,0409_eid_dnn_64-3-10_bottle_10_n03937543_49.png,n03937543_49.png,0.0,-0.11123304,0.9194699,-0.72881705
convnext_large,1,410,NaN,bicycle,bicycle,8-3-10,0410_eid_dnn_8-3-10_bicycle_10_n03792782_9833.png,n03792782_9833.png,1.0,2.1343875,1.0924399,0.73676825
convnext_large,1,411,NaN,clock,clock,4-3-10,0411_eid_dnn_4-3-10_clock_10_n03196217_10384.png,n03196217_10384.png,1.0,2.1002648,1.4787443,0.43948138
convnext_large,1,412,NaN,cat,truck,64-3-10,0412_eid_dnn_64-3-10_truck_10_n04467665_4492.png,n04467665_4492.png,0.0,-0.8608271,0.6374595,-1.0594486
convnext_large,1,413,NaN,clock,bottle,128-3-10,0413_eid_dnn_128-3-10_bottle_10_n03983396_5148.png,n03983396_5148.png,0.0,-0.16830309,0.7925245,-0.6794077
convnext_large,1,414,NaN,clock,clock,128-3-10,0414_eid_dnn_128-3-10_clock_10_n04548280_4364.png,n04548280_4364.png,1.0,1.2238091,0.6928535,0.37544233
convnext_large,1,415,NaN,cat,cat,1-3-10,0415_eid_dnn_1-3-10_cat_10_n02123394_6792.png,n02123394_6792.png,1.0,2.793395,0.6434322,1.5202534
convnext_large,1,416,NaN,elephant,oven,16-3-10,0416_eid_dnn_16-3-10_oven_10_n04111531_1298.png,n04111531_1298.png,0.0,-0.34416124,3.4277391,-2.6671364
convnext_large,1,417,NaN,bottle,clock,8-3-10,0417_eid_dnn_8-3-10_clock_10_n04548280_2334.png,n04548280_2334.png,0.0,0.029749552,0.6288622,-0.42363662
convnext_large,1,418,NaN,bear,car,32-3-10,0418_eid_dnn_32-3-10_car_10_n04285008_15570.png,n04285008_15570.png,0.0,-0.5318558,0.44086048,-0.68781435
convnext_large,1,419,NaN,cat,dog,32-3-10,0419_eid_dnn_32-3-10_dog_10_n02087394_7569.png,n02087394_7569.png,0.0,0.6842889,0.86720735,-0.12934287
convnext_large,1,420,NaN,dog,clock,32-3-10,0420_eid_dnn_32-3-10_clock_10_n03196217_11445.png,n03196217_11445.png,0.0,-0.13861011,1.0360157,-0.83058596
convnext_large,1,421,NaN,dog,chair,32-3-10,0421_eid_dnn_32-3-10_chair_10_n04099969_3095.png,n04099969_3095.png,0.0,-0.27549392,1.1363896,-0.99835247
convnext_large,1,422,NaN,cat,bird,64-3-10,0422_eid_dnn_64-3-10_bird_10_n01601694_935.png,n01601694_935.png,0.0,-0.44194624,1.1608793,-1.1333688
convnext_large,1,423,NaN,airplane,bird,2-3-10,0423_eid_dnn_2-3-10_bird_10_n01592084_3570.png,n01592084_3570.png,0.0,0.48537838,0.793079,-0.2175772
convnext_large,1,424,NaN,dog,dog,64-3-10,0424_eid_dnn_64-3-10_dog_10_n02090379_605.png,n02090379_605.png,1.0,1.0811294,0.95269305,0.09081824
convnext_large,1,425,NaN,airplane,airplane,1-3-10,0425_eid_dnn_1-3-10_airplane_10_n02690373_3912.png,n02690373_3912.png,1.0,8.805046,0.42151493,5.928052
convnext_large,1,426,NaN,dog,oven,128-3-10,0426_eid_dnn_128-3-10_oven_10_n04111531_986.png,n04111531_986.png,0.0,-2.0815222,0.91020364,-2.1154697
convnext_large,1,427,NaN,cat,knife,32-3-10,0427_eid_dnn_32-3-10_knife_10_n03041632_23736.png,n03041632_23736.png,0.0,-0.18547668,0.8977208,-0.7659363
convnext_large,1,428,NaN,clock,clock,4-3-10,0428_eid_dnn_4-3-10_clock_10_n04548280_10686.png,n04548280_10686.png,1.0,2.4044843,1.6915857,0.50409544
convnext_large,1,429,NaN,cat,oven,32-3-10,0429_eid_dnn_32-3-10_oven_10_n04111531_21460.png,n04111531_21460.png,0.0,-0.72710824,1.4728355,-1.5555952
convnext_large,1,430,NaN,cat,bottle,32-3-10,0430_eid_dnn_32-3-10_bottle_10_n04557648_3675.png,n04557648_3675.png,0.0,-0.41460758,1.2969536,-1.2102566
convnext_large,1,431,NaN,bicycle,chair,8-3-10,0431_eid_dnn_8-3-10_chair_10_n02791124_495.png,n02791124_495.png,0.0,0.37451726,0.39747494,-0.016233534
convnext_large,1,432,NaN,dog,chair,128-3-10,0432_eid_dnn_128-3-10_chair_10_n04429376_9165.png,n04429376_9165.png,0.0,-0.48030806,0.87380767,-0.95750445
convnext_large,1,433,NaN,clock,clock,1-3-10,0433_eid_dnn_1-3-10_clock_10_n04548280_2937.png,n04548280_2937.png,1.0,4.221498,0.30966428,2.7660842
convnext_large,1,434,NaN,knife,bear,32-3-10,0434_eid_dnn_32-3-10_bear_10_n02134418_5849.png,n02134418_5849.png,0.0,-0.383176,0.81851923,-0.84972686
convnext_large,1,435,NaN,cat,bottle,128-3-10,0435_eid_dnn_128-3-10_bottle_10_n04560804_2521.png,n04560804_2521.png,0.0,-0.012970145,1.1714832,-0.83753496
convnext_large,1,436,NaN,bear,car,8-3-10,0436_eid_dnn_8-3-10_car_10_n04285008_11600.png,n04285008_11600.png,0.0,0.034244377,0.7394636,-0.49866533
convnext_large,1,437,NaN,knife,knife,2-3-10,0437_eid_dnn_2-3-10_knife_10_n03041632_79317.png,n03041632_79317.png,1.0,7.787842,0.2983917,5.2958407
convnext_large,1,438,NaN,bear,truck,32-3-10,0438_eid_dnn_32-3-10_truck_10_n03417042_6467.png,n03417042_6467.png,0.0,-0.17612214,1.1701367,-0.9519488
convnext_large,1,439,NaN,bottle,airplane,64-3-10,0439_eid_dnn_64-3-10_airplane_10_n02690373_303.png,n02690373_303.png,0.0,-0.13206217,0.8410888,-0.6881217
convnext_large,1,440,NaN,cat,chair,64-3-10,0440_eid_dnn_64-3-10_chair_10_n04099969_2354.png,n04099969_2354.png,0.0,-0.12286815,0.7344143,-0.6061902
convnext_large,1,441,NaN,cat,clock,128-3-10,0441_eid_dnn_128-3-10_clock_10_n04548280_377.png,n04548280_377.png,0.0,0.15590319,0.9748842,-0.57910705
convnext_large,1,442,NaN,dog,bicycle,32-3-10,0442_eid_dnn_32-3-10_bicycle_10_n03792782_11597.png,n03792782_11597.png,0.0,-0.47759902,0.7985295,-0.9023591
convnext_large,1,443,NaN,bottle,bottle,2-3-10,0443_eid_dnn_2-3-10_bottle_10_n04579145_215.png,n04579145_215.png,1.0,1.852333,0.4077533,1.0214721
convnext_large,1,444,NaN,car,car,4-3-10,0444_eid_dnn_4-3-10_car_10_n02814533_95669.png,n02814533_95669.png,1.0,5.493193,1.8497729,2.5762873
convnext_large,1,445,NaN,cat,chair,32-3-10,0445_eid_dnn_32-3-10_chair_10_n04429376_51025.png,n04429376_51025.png,0.0,0.14533758,1.4202409,-0.9014928
convnext_large,1,446,NaN,cat,cat,4-3-10,0446_eid_dnn_4-3-10_cat_10_n02123045_2757.png,n02123045_2757.png,1.0,4.80124,0.4061289,3.107813
convnext_large,1,447,NaN,bottle,bottle,4-3-10,0447_eid_dnn_4-3-10_bottle_10_n03937543_2135.png,n03937543_2135.png,1.0,3.7276819,1.138639,1.8307298
convnext_large,1,448,NaN,airplane,bird,2-3-10,0448_eid_dnn_2-3-10_bird_10_n01855032_7457.png,n01855032_7457.png,0.0,0.102812484,0.61511016,-0.36224917
convnext_large,1,449,NaN,airplane,car,16-3-10,0449_eid_dnn_16-3-10_car_10_n02814533_24935.png,n02814533_24935.png,0.0,0.36322656,1.8912314,-1.0804626
convnext_large,1,450,NaN,keyboard,keyboard,4-3-10,0450_eid_dnn_4-3-10_keyboard_10_n04505470_1371.png,n04505470_1371.png,1.0,4.716356,1.2010053,2.485728
convnext_large,1,451,NaN,elephant,dog,16-3-10,0451_eid_dnn_16-3-10_dog_10_n02099267_2379.png,n02099267_2379.png,0.0,1.1944072,2.393432,-0.8478385
convnext_large,1,452,NaN,cat,cat,8-3-10,0452_eid_dnn_8-3-10_cat_10_n02123394_8009.png,n02123394_8009.png,1.0,2.1521573,0.30816674,1.3038982
convnext_large,1,453,NaN,keyboard,keyboard,2-3-10,0453_eid_dnn_2-3-10_keyboard_10_n03085013_29042.png,n03085013_29042.png,1.0,5.126193,2.3665698,1.9513484
convnext_large,1,454,NaN,clock,airplane,128-3-10,0454_eid_dnn_128-3-10_airplane_10_n02690373_2131.png,n02690373_2131.png,0.0,-0.36331233,1.1995777,-1.1051302
convnext_large,1,455,NaN,airplane,car,8-3-10,0455_eid_dnn_8-3-10_car_10_n03100240_327.png,n03100240_327.png,0.0,0.8323427,1.6466663,-0.5758138
convnext_large,1,456,NaN,elephant,elephant,2-3-10,0456_eid_dnn_2-3-10_elephant_10_n02504458_4163.png,n02504458_4163.png,1.0,5.879928,0.44891855,3.840304
convnext_large,1,457,NaN,knife,knife,1-3-10,0457_eid_dnn_1-3-10_knife_10_n03041632_9635.png,n03041632_9635.png,1.0,7.0167904,0.9327336,4.302078
convnext_large,1,458,NaN,dog,airplane,16-3-10,0458_eid_dnn_16-3-10_airplane_10_n02690373_1044.png,n02690373_1044.png,0.0,0.30423006,1.7201098,-1.0011781
convnext_large,1,459,NaN,dog,bottle,16-3-10,0459_eid_dnn_16-3-10_bottle_10_n04560804_5441.png,n04560804_5441.png,0.0,-0.28352088,1.1207987,-0.9930039
convnext_large,1,460,NaN,cat,cat,8-3-10,0460_eid_dnn_8-3-10_cat_10_n02123159_988.png,n02123159_988.png,1.0,2.3520129,0.64583087,1.2064528
convnext_large,1,461,NaN,cat,bird,64-3-10,0461_eid_dnn_64-3-10_bird_10_n01843383_4667.png,n01843383_4667.png,0.0,-0.21013166,0.88828045,-0.7766947
convnext_large,1,462,NaN,airplane,airplane,2-3-10,0462_eid_dnn_2-3-10_airplane_10_n02690373_6978.png,n02690373_6978.png,1.0,8.649258,0.26145357,5.931073
convnext_large,1,463,NaN,dog,chair,128-3-10,0463_eid_dnn_128-3-10_chair_10_n04099969_5901.png,n04099969_5901.png,0.0,-0.30366024,0.43311846,-0.52098125
convnext_large,1,464,NaN,boat,truck,8-3-10,0464_eid_dnn_8-3-10_truck_10_n03417042_29849.png,n03417042_29849.png,0.0,0.8784592,1.5876197,-0.50145215
convnext_large,1,465,NaN,airplane,airplane,1-3-10,0465_eid_dnn_1-3-10_airplane_10_n02690373_427.png,n02690373_427.png,1.0,8.171143,1.325401,4.8406706
convnext_large,1,466,NaN,bottle,bottle,4-3-10,0466_eid_dnn_4-3-10_bottle_10_n03983396_2305.png,n03983396_2305.png,1.0,3.7323382,1.2324262,1.7677047
convnext_large,1,467,NaN,dog,oven,64-3-10,0467_eid_dnn_64-3-10_oven_10_n04111531_15296.png,n04111531_15296.png,0.0,-2.2065973,1.1841768,-2.3976395
convnext_large,1,468,NaN,cat,cat,4-3-10,0468_eid_dnn_4-3-10_cat_10_n02123159_6728.png,n02123159_6728.png,1.0,2.4134204,1.8007225,0.4332429
convnext_large,1,469,NaN,elephant,elephant,4-3-10,0469_eid_dnn_4-3-10_elephant_10_n02504458_12449.png,n02504458_12449.png,1.0,7.2533274,0.8604397,4.5204544
convnext_large,1,470,NaN,cat,elephant,128-3-10,0470_eid_dnn_128-3-10_elephant_10_n02504458_12165.png,n02504458_12165.png,0.0,-0.41258913,0.462203,-0.61857146
convnext_large,1,471,NaN,airplane,airplane,8-3-10,0471_eid_dnn_8-3-10_airplane_10_n02690373_5010.png,n02690373_5010.png,1.0,2.5668774,2.0496445,0.3657389
convnext_large,1,472,NaN,dog,dog,64-3-10,0472_eid_dnn_64-3-10_dog_10_n02100236_4549.png,n02100236_4549.png,1.0,1.1553061,0.62514305,0.3748819
convnext_large,1,473,NaN,boat,boat,4-3-10,0473_eid_dnn_4-3-10_boat_10_n03344393_4289.png,n03344393_4289.png,1.0,3.6085114,0.37806252,2.2842724
convnext_large,1,474,NaN,dog,chair,64-3-10,0474_eid_dnn_64-3-10_chair_10_n04099969_48169.png,n04099969_48169.png,0.0,-0.2800956,1.0862677,-0.96616477
convnext_large,1,475,NaN,airplane,airplane,4-3-10,0475_eid_dnn_4-3-10_airplane_10_n02690373_1996.png,n02690373_1996.png,1.0,7.932496,0.53492266,5.2308745
convnext_large,1,476,NaN,cat,truck,128-3-10,0476_eid_dnn_128-3-10_truck_10_n03417042_28078.png,n03417042_28078.png,0.0,-1.4190116,0.68243665,-1.4859483
convnext_large,1,477,NaN,cat,truck,8-3-10,0477_eid_dnn_8-3-10_truck_10_n04467665_3098.png,n04467665_3098.png,0.0,1.091959,1.4310455,-0.2397704
convnext_large,1,478,NaN,elephant,elephant,4-3-10,0478_eid_dnn_4-3-10_elephant_10_n02504458_847.png,n02504458_847.png,1.0,6.0203276,0.4980211,3.9048605
convnext_large,1,479,NaN,bottle,bicycle,8-3-10,0479_eid_dnn_8-3-10_bicycle_10_n03792782_5880.png,n03792782_5880.png,0.0,-0.6457204,1.0727627,-1.2151512
convnext_large,1,480,NaN,cat,bear,128-3-10,0480_eid_dnn_128-3-10_bear_10_n02132136_30976.png,n02132136_30976.png,0.0,0.07142791,1.4987985,-1.0093035
convnext_large,1,481,NaN,cat,chair,64-3-10,0481_eid_dnn_64-3-10_chair_10_n02791124_2057.png,n02791124_2057.png,0.0,-0.03268057,1.3109193,-0.95006853
convnext_large,1,482,NaN,cat,keyboard,128-3-10,0482_eid_dnn_128-3-10_keyboard_10_n03085013_7286.png,n03085013_7286.png,0.0,-0.7191191,1.0959897,-1.2834758
convnext_large,1,483,NaN,cat,clock,32-3-10,0483_eid_dnn_32-3-10_clock_10_n04548280_1323.png,n04548280_1323.png,0.0,0.37912035,1.420836,-0.7366042
convnext_large,1,484,NaN,bear,bottle,128-3-10,0484_eid_dnn_128-3-10_bottle_10_n03983396_18508.png,n03983396_18508.png,0.0,-0.32005706,0.6621809,-0.6945471
convnext_large,1,485,NaN,bottle,bottle,8-3-10,0485_eid_dnn_8-3-10_bottle_10_n03983396_3880.png,n03983396_3880.png,1.0,1.0541589,0.7212867,0.23537621
convnext_large,1,486,NaN,cat,dog,128-3-10,0486_eid_dnn_128-3-10_dog_10_n02095570_601.png,n02095570_601.png,0.0,0.6565648,0.723505,-0.047333904
convnext_large,1,487,NaN,cat,bird,32-3-10,0487_eid_dnn_32-3-10_bird_10_n01797886_21510.png,n01797886_21510.png,0.0,-0.74427444,1.2234501,-1.3913914
convnext_large,1,488,NaN,chair,chair,1-3-10,0488_eid_dnn_1-3-10_chair_10_n04099969_9425.png,n04099969_9425.png,1.0,3.7321036,0.4580085,2.3151348
convnext_large,1,489,NaN,dog,keyboard,8-3-10,0489_eid_dnn_8-3-10_keyboard_10_n04505470_4228.png,n04505470_4228.png,0.0,0.4583131,0.9770818,-0.36682484
convnext_large,1,490,NaN,dog,elephant,32-3-10,0490_eid_dnn_32-3-10_elephant_10_n02504013_7553.png,n02504013_7553.png,0.0,0.17567194,1.2635955,-0.7692781
convnext_large,1,491,NaN,cat,cat,64-3-10,0491_eid_dnn_64-3-10_cat_10_n02125311_8090.png,n02125311_8090.png,1.0,1.5377809,1.2951688,0.17155269
convnext_large,1,492,NaN,keyboard,keyboard,8-3-10,0492_eid_dnn_8-3-10_keyboard_10_n04505470_10041.png,n04505470_10041.png,1.0,3.0018394,1.551026,1.02588
convnext_large,1,493,NaN,bicycle,bicycle,4-3-10,0493_eid_dnn_4-3-10_bicycle_10_n03792782_1833.png,n03792782_1833.png,1.0,6.410323,1.0277718,3.8060386
convnext_large,1,494,NaN,knife,bottle,4-3-10,0494_eid_dnn_4-3-10_bottle_10_n04557648_11642.png,n04557648_11642.png,0.0,1.720863,1.8265889,-0.07475949
convnext_large,1,495,NaN,dog,car,128-3-10,0495_eid_dnn_128-3-10_car_10_n03100240_7219.png,n03100240_7219.png,0.0,-0.94894075,0.51816803,-1.0374025
convnext_large,1,496,NaN,truck,truck,1-3-10,0496_eid_dnn_1-3-10_truck_10_n03796401_9642.png,n03796401_9642.png,1.0,3.3600109,0.93565065,1.7142817
convnext_large,1,497,NaN,bear,cat,1-3-10,0497_eid_dnn_1-3-10_cat_10_n02125311_13348.png,n02125311_13348.png,0.0,0.9362213,2.0038557,-0.7549315
convnext_large,1,498,NaN,bicycle,bottle,128-3-10,0498_eid_dnn_128-3-10_bottle_10_n04560804_5540.png,n04560804_5540.png,0.0,-0.51274425,0.9693069,-1.0479684
convnext_large,1,499,NaN,bottle,bottle,4-3-10,0499_eid_dnn_4-3-10_bottle_10_n03983396_9604.png,n03983396_9604.png,1.0,4.6928983,0.42989737,3.014397
convnext_large,1,500,NaN,elephant,truck,32-3-10,0500_eid_dnn_32-3-10_truck_10_n03417042_5180.png,n03417042_5180.png,0.0,-0.5279349,0.9581838,-1.0508447
convnext_large,1,501,NaN,cat,dog,16-3-10,0501_eid_dnn_16-3-10_dog_10_n02109525_3364.png,n02109525_3364.png,0.0,0.8158734,1.0094451,-0.13687585
convnext_large,1,502,NaN,clock,clock,2-3-10,0502_eid_dnn_2-3-10_clock_10_n04548280_353.png,n04548280_353.png,1.0,4.2719364,1.1283667,2.2228396
convnext_large,1,503,NaN,dog,dog,1-3-10,0503_eid_dnn_1-3-10_dog_10_n02111129_4423.png,n02111129_4423.png,1.0,0.55984867,0.18577233,0.2645119
convnext_large,1,504,NaN,bear,dog,16-3-10,0504_eid_dnn_16-3-10_dog_10_n02108000_1538.png,n02108000_1538.png,0.0,1.0121757,2.0019417,-0.6998703
convnext_large,1,505,NaN,cat,keyboard,16-3-10,0505_eid_dnn_16-3-10_keyboard_10_n03085013_3439.png,n03085013_3439.png,0.0,-0.44887036,1.1950388,-1.1624193
convnext_large,1,506,NaN,truck,truck,8-3-10,0506_eid_dnn_8-3-10_truck_10_n03417042_4016.png,n03417042_4016.png,1.0,2.203124,2.019619,0.12975767
convnext_large,1,507,NaN,elephant,knife,32-3-10,0507_eid_dnn_32-3-10_knife_10_n03041632_39883.png,n03041632_39883.png,0.0,-0.021098822,2.175005,-1.5528799
convnext_large,1,508,NaN,airplane,bear,16-3-10,0508_eid_dnn_16-3-10_bear_10_n02132136_21181.png,n02132136_21181.png,0.0,0.66583705,1.9473917,-0.90619606
convnext_large,1,509,NaN,elephant,elephant,8-3-10,0509_eid_dnn_8-3-10_elephant_10_n02504013_718.png,n02504013_718.png,1.0,6.1295147,2.6166675,2.483958
convnext_large,1,510,NaN,oven,oven,2-3-10,0510_eid_dnn_2-3-10_oven_10_n04111531_4146.png,n04111531_4146.png,1.0,9.512291,0.49612704,6.3753905
convnext_large,1,511,NaN,airplane,airplane,8-3-10,0511_eid_dnn_8-3-10_airplane_10_n02690373_10769.png,n02690373_10769.png,1.0,2.0547552,0.43961835,1.1420742
convnext_large,1,512,NaN,dog,dog,16-3-10,0512_eid_dnn_16-3-10_dog_10_n02109525_4516.png,n02109525_4516.png,1.0,1.3254279,0.9855377,0.24033865
convnext_large,1,513,NaN,elephant,boat,4-3-10,0513_eid_dnn_4-3-10_boat_10_n02951358_12333.png,n02951358_12333.png,0.0,2.493799,2.625772,-0.09331902
convnext_large,1,514,NaN,cat,chair,8-3-10,0514_eid_dnn_8-3-10_chair_10_n04099969_20421.png,n04099969_20421.png,0.0,0.07029695,0.8724251,-0.56719023
convnext_large,1,515,NaN,knife,knife,4-3-10,0515_eid_dnn_4-3-10_knife_10_n03041632_21165.png,n03041632_21165.png,1.0,4.6300564,0.59108484,2.8559842
convnext_large,1,516,NaN,bicycle,bicycle,1-3-10,0516_eid_dnn_1-3-10_bicycle_10_n02835271_21439.png,n02835271_21439.png,1.0,4.839144,1.2471832,2.5399
convnext_large,1,517,NaN,boat,boat,1-3-10,0517_eid_dnn_1-3-10_boat_10_n04273569_24526.png,n04273569_24526.png,1.0,3.1172469,0.91170746,1.559552
convnext_large,1,518,NaN,cat,bottle,32-3-10,0518_eid_dnn_32-3-10_bottle_10_n04579145_2276.png,n04579145_2276.png,0.0,-0.3886561,1.4166055,-1.2765127
convnext_large,1,519,NaN,bear,bear,8-3-10,0519_eid_dnn_8-3-10_bear_10_n02134418_1642.png,n02134418_1642.png,1.0,2.2665796,1.5517985,0.50542665
convnext_large,1,520,NaN,bicycle,bicycle,1-3-10,0520_eid_dnn_1-3-10_bicycle_10_n02835271_15468.png,n02835271_15468.png,1.0,5.3115263,0.5233553,3.3857481
convnext_large,1,521,NaN,clock,keyboard,64-3-10,0521_eid_dnn_64-3-10_keyboard_10_n03085013_26532.png,n03085013_26532.png,0.0,-0.784803,1.6050752,-1.6898992
convnext_large,1,522,NaN,cat,clock,64-3-10,0522_eid_dnn_64-3-10_clock_10_n03196217_6809.png,n03196217_6809.png,0.0,0.49291906,1.1093245,-0.43586442
convnext_large,1,523,NaN,airplane,bear,64-3-10,0523_eid_dnn_64-3-10_bear_10_n02134418_4384.png,n02134418_4384.png,0.0,0.26691705,1.1263764,-0.60772955
convnext_large,1,524,NaN,dog,dog,4-3-10,0524_eid_dnn_4-3-10_dog_10_n02086240_1183.png,n02086240_1183.png,1.0,1.0962658,0.107239366,0.6993473
convnext_large,1,525,NaN,chair,chair,1-3-10,0525_eid_dnn_1-3-10_chair_10_n04429376_294.png,n04429376_294.png,1.0,2.703707,0.314362,1.689522
convnext_large,1,526,NaN,clock,clock,64-3-10,0526_eid_dnn_64-3-10_clock_10_n02708093_4893.png,n02708093_4893.png,1.0,1.4458195,0.43403888,0.71543694
convnext_large,1,527,NaN,clock,keyboard,64-3-10,0527_eid_dnn_64-3-10_keyboard_10_n03085013_3098.png,n03085013_3098.png,0.0,-0.7701695,1.5587157,-1.6467705
convnext_large,1,528,NaN,bear,cat,16-3-10,0528_eid_dnn_16-3-10_cat_10_n02125311_22073.png,n02125311_22073.png,0.0,0.7433401,1.1682732,-0.3004731
convnext_large,1,529,NaN,oven,bird,2-3-10,0529_eid_dnn_2-3-10_bird_10_n01558993_869.png,n01558993_869.png,0.0,-1.0110157,1.0489504,-1.456616
convnext_large,1,530,NaN,bird,bird,1-3-10,0530_eid_dnn_1-3-10_bird_10_n01817953_8025.png,n01817953_8025.png,1.0,0.69186026,0.506894,0.1307909
convnext_large,1,531,NaN,chair,chair,2-3-10,0531_eid_dnn_2-3-10_chair_10_n04099969_24235.png,n04099969_24235.png,1.0,4.0713716,0.96397454,2.1972616
convnext_large,1,532,NaN,cat,knife,128-3-10,0532_eid_dnn_128-3-10_knife_10_n03041632_1201.png,n03041632_1201.png,0.0,-0.16074198,2.3353949,-1.7650354
convnext_large,1,533,NaN,bicycle,bicycle,4-3-10,0533_eid_dnn_4-3-10_bicycle_10_n03792782_16212.png,n03792782_16212.png,1.0,5.9270906,0.38993502,3.9153605
convnext_large,1,534,NaN,oven,oven,4-3-10,0534_eid_dnn_4-3-10_oven_10_n04111531_11655.png,n04111531_11655.png,1.0,3.3180192,1.9478565,0.96885127
convnext_large,1,535,NaN,cat,bicycle,16-3-10,0535_eid_dnn_16-3-10_bicycle_10_n02835271_5152.png,n02835271_5152.png,0.0,-0.3470503,1.6935762,-1.4429408
convnext_large,1,536,NaN,airplane,bear,16-3-10,0536_eid_dnn_16-3-10_bear_10_n02132136_19290.png,n02132136_19290.png,0.0,0.18261354,1.5180042,-0.9442638
convnext_large,1,537,NaN,elephant,car,32-3-10,0537_eid_dnn_32-3-10_car_10_n03100240_6103.png,n03100240_6103.png,0.0,0.0495926,1.7221084,-1.1826472
convnext_large,1,538,NaN,airplane,airplane,16-3-10,0538_eid_dnn_16-3-10_airplane_10_n02690373_5714.png,n02690373_5714.png,1.0,1.0970165,0.94102883,0.11029991
convnext_large,1,539,NaN,chair,chair,1-3-10,0539_eid_dnn_1-3-10_chair_10_n04429376_2915.png,n04429376_2915.png,1.0,2.379322,0.5574615,1.28825
convnext_large,1,540,NaN,cat,clock,64-3-10,0540_eid_dnn_64-3-10_clock_10_n02708093_7827.png,n02708093_7827.png,0.0,0.5111191,1.3750681,-0.61090416
convnext_large,1,541,NaN,truck,truck,2-3-10,0541_eid_dnn_2-3-10_truck_10_n03417042_6247.png,n03417042_6247.png,1.0,2.313716,0.48460847,1.2933743
convnext_large,1,542,NaN,cat,elephant,32-3-10,0542_eid_dnn_32-3-10_elephant_10_n02504013_947.png,n02504013_947.png,0.0,0.44069207,2.394799,-1.3817623
convnext_large,1,543,NaN,truck,truck,1-3-10,0543_eid_dnn_1-3-10_truck_10_n03417042_2074.png,n03417042_2074.png,1.0,3.0218368,0.3190163,1.9111828
convnext_large,1,544,NaN,boat,airplane,8-3-10,0544_eid_dnn_8-3-10_airplane_10_n02690373_5221.png,n02690373_5221.png,0.0,1.2349908,2.176984,-0.66608983
convnext_large,1,545,NaN,knife,oven,4-3-10,0545_eid_dnn_4-3-10_oven_10_n04111531_6629.png,n04111531_6629.png,0.0,1.166713,1.402539,-0.16675417
convnext_large,1,546,NaN,knife,knife,1-3-10,0546_eid_dnn_1-3-10_knife_10_n03041632_36277.png,n03041632_36277.png,1.0,8.675433,0.12309085,6.0474195
convnext_large,1,547,NaN,clock,cat,64-3-10,0547_eid_dnn_64-3-10_cat_10_n02123597_4700.png,n02123597_4700.png,0.0,0.6436848,0.9414139,-0.21052626
convnext_large,1,548,NaN,airplane,airplane,16-3-10,0548_eid_dnn_16-3-10_airplane_10_n02690373_20042.png,n02690373_20042.png,1.0,2.2387962,1.2702523,0.684864
convnext_large,1,549,NaN,cat,chair,32-3-10,0549_eid_dnn_32-3-10_chair_10_n02791124_15539.png,n02791124_15539.png,0.0,-0.3965894,1.2744085,-1.181574
convnext_large,1,550,NaN,cat,cat,1-3-10,0550_eid_dnn_1-3-10_cat_10_n02123394_5700.png,n02123394_5700.png,1.0,2.226864,1.3568712,0.61517787
convnext_large,1,551,NaN,car,car,4-3-10,0551_eid_dnn_4-3-10_car_10_n04285008_13595.png,n04285008_13595.png,1.0,5.9763923,0.76028603,3.6883442
convnext_large,1,552,NaN,bear,chair,8-3-10,0552_eid_dnn_8-3-10_chair_10_n02791124_2282.png,n02791124_2282.png,0.0,-0.025265202,1.5844003,-1.1382054
convnext_large,1,553,NaN,dog,dog,2-3-10,0553_eid_dnn_2-3-10_dog_10_n02100877_3973.png,n02100877_3973.png,1.0,0.82018524,0.3630622,0.3232348
convnext_large,1,554,NaN,cat,truck,64-3-10,0554_eid_dnn_64-3-10_truck_10_n03417042_12297.png,n03417042_12297.png,0.0,-1.3024567,0.87992764,-1.5431789
convnext_large,1,555,NaN,elephant,elephant,8-3-10,0555_eid_dnn_8-3-10_elephant_10_n02504013_6303.png,n02504013_6303.png,1.0,4.171307,2.312073,1.314677
convnext_large,1,556,NaN,car,car,8-3-10,0556_eid_dnn_8-3-10_car_10_n02814533_43990.png,n02814533_43990.png,1.0,2.6861503,1.329371,0.9593879
convnext_large,1,557,NaN,elephant,truck,16-3-10,0557_eid_dnn_16-3-10_truck_10_n04467665_58456.png,n04467665_58456.png,0.0,-0.27902818,0.90501714,-0.8372465
convnext_large,1,558,NaN,dog,dog,4-3-10,0558_eid_dnn_4-3-10_dog_10_n02098105_526.png,n02098105_526.png,1.0,1.0584409,0.580706,0.33780962
convnext_large,1,559,NaN,bird,bird,2-3-10,0559_eid_dnn_2-3-10_bird_10_n02037110_27907.png,n02037110_27907.png,1.0,0.70721036,0.3948323,0.22088464
convnext_large,1,560,NaN,dog,keyboard,64-3-10,0560_eid_dnn_64-3-10_keyboard_10_n03085013_20849.png,n03085013_20849.png,0.0,-0.90180814,0.8962197,-1.2713976
convnext_large,1,561,NaN,chair,chair,1-3-10,0561_eid_dnn_1-3-10_chair_10_n03376595_12524.png,n03376595_12524.png,1.0,3.473258,0.819273,1.8766508
convnext_large,1,562,NaN,cat,bird,64-3-10,0562_eid_dnn_64-3-10_bird_10_n02056570_27055.png,n02056570_27055.png,0.0,-0.28369653,0.94718283,-0.8703631
convnext_large,1,563,NaN,dog,truck,64-3-10,0563_eid_dnn_64-3-10_truck_10_n03417042_4934.png,n03417042_4934.png,0.0,-1.1772285,0.9100887,-1.4759562
convnext_large,1,564,NaN,airplane,knife,16-3-10,0564_eid_dnn_16-3-10_knife_10_n03041632_3210.png,n03041632_3210.png,0.0,-0.053260803,1.959969,-1.4235685
convnext_large,1,565,NaN,dog,dog,8-3-10,0565_eid_dnn_8-3-10_dog_10_n02096585_2118.png,n02096585_2118.png,1.0,1.3988975,0.3141861,0.7670068
convnext_large,1,566,NaN,keyboard,keyboard,1-3-10,0566_eid_dnn_1-3-10_keyboard_10_n03085013_3539.png,n03085013_3539.png,1.0,6.817392,0.3652364,4.562363
convnext_large,1,567,NaN,truck,truck,4-3-10,0567_eid_dnn_4-3-10_truck_10_n03417042_17215.png,n03417042_17215.png,1.0,1.8595415,0.286352,1.1124129
convnext_large,1,568,NaN,cat,cat,8-3-10,0568_eid_dnn_8-3-10_cat_10_n02123045_12657.png,n02123045_12657.png,1.0,1.7366692,1.661083,0.053447515
convnext_large,1,569,NaN,dog,knife,64-3-10,0569_eid_dnn_64-3-10_knife_10_n03041632_20576.png,n03041632_20576.png,0.0,-0.3420797,0.35490054,-0.49283946
convnext_large,1,570,NaN,knife,truck,8-3-10,0570_eid_dnn_8-3-10_truck_10_n04467665_23905.png,n04467665_23905.png,0.0,0.8841634,1.5594474,-0.47749794
convnext_large,1,571,NaN,dog,oven,128-3-10,0571_eid_dnn_128-3-10_oven_10_n04111531_9427.png,n04111531_9427.png,0.0,-1.859278,0.9156362,-1.9621607
convnext_large,1,572,NaN,airplane,oven,16-3-10,0572_eid_dnn_16-3-10_oven_10_n04111531_14329.png,n04111531_14329.png,0.0,-0.4593734,1.1374774,-1.1291441
convnext_large,1,573,NaN,clock,bird,64-3-10,0573_eid_dnn_64-3-10_bird_10_n01614925_19422.png,n01614925_19422.png,0.0,-0.67269063,0.74396783,-1.0017288
convnext_large,1,574,NaN,dog,bottle,128-3-10,0574_eid_dnn_128-3-10_bottle_10_n02823428_1154.png,n02823428_1154.png,0.0,-0.42764667,0.6905103,-0.7906563
convnext_large,1,575,NaN,dog,dog,4-3-10,0575_eid_dnn_4-3-10_dog_10_n02093859_4797.png,n02093859_4797.png,1.0,0.5889291,0.4361838,0.108007245
convnext_large,1,576,NaN,airplane,airplane,1-3-10,0576_eid_dnn_1-3-10_airplane_10_n02690373_2632.png,n02690373_2632.png,1.0,8.366501,0.4617508,5.5895023
convnext_large,1,577,NaN,dog,keyboard,32-3-10,0577_eid_dnn_32-3-10_keyboard_10_n03085013_15825.png,n03085013_15825.png,0.0,-0.19167577,0.74492013,-0.66227335
convnext_large,1,578,NaN,car,car,4-3-10,0578_eid_dnn_4-3-10_car_10_n02814533_52674.png,n02814533_52674.png,1.0,4.3646536,2.9018626,1.0343494
convnext_large,1,579,NaN,elephant,truck,32-3-10,0579_eid_dnn_32-3-10_truck_10_n04467665_32937.png,n04467665_32937.png,0.0,-0.27514514,1.5533366,-1.2929319
convnext_large,1,580,NaN,cat,bird,4-3-10,0580_eid_dnn_4-3-10_bird_10_n01537544_20.png,n01537544_20.png,0.0,0.24892604,0.6894982,-0.31153154
convnext_large,1,581,NaN,boat,clock,8-3-10,0581_eid_dnn_8-3-10_clock_10_n03196217_564.png,n03196217_564.png,0.0,0.8639572,1.3743623,-0.36091092
convnext_large,1,582,NaN,knife,knife,1-3-10,0582_eid_dnn_1-3-10_knife_10_n03041632_76163.png,n03041632_76163.png,1.0,8.268329,1.2377672,4.971358
convnext_large,1,583,NaN,knife,airplane,32-3-10,0583_eid_dnn_32-3-10_airplane_10_n02690373_8559.png,n02690373_8559.png,0.0,-0.64308137,0.5995751,-0.87869084
convnext_large,1,584,NaN,keyboard,keyboard,2-3-10,0584_eid_dnn_2-3-10_keyboard_10_n04505470_3941.png,n04505470_3941.png,1.0,5.207538,0.70855963,3.1812584
convnext_large,1,585,NaN,cat,oven,64-3-10,0585_eid_dnn_64-3-10_oven_10_n04111531_9910.png,n04111531_9910.png,0.0,-2.1809282,0.7581293,-2.0782275
convnext_large,1,586,NaN,clock,bottle,128-3-10,0586_eid_dnn_128-3-10_bottle_10_n03937543_7191.png,n03937543_7191.png,0.0,-0.1722705,0.72097224,-0.63161796
convnext_large,1,587,NaN,boat,boat,4-3-10,0587_eid_dnn_4-3-10_boat_10_n03662601_14818.png,n03662601_14818.png,1.0,4.2447715,1.1628137,2.1792734
convnext_large,1,588,NaN,dog,boat,128-3-10,0588_eid_dnn_128-3-10_boat_10_n02951358_588.png,n02951358_588.png,0.0,-0.5179854,0.7532038,-0.89886653
convnext_large,1,589,NaN,bear,bear,1-3-10,0589_eid_dnn_1-3-10_bear_10_n02133161_2851.png,n02133161_2851.png,1.0,5.3367686,0.39754733,3.492557
convnext_large,1,590,NaN,chair,chair,2-3-10,0590_eid_dnn_2-3-10_chair_10_n03376595_16212.png,n03376595_16212.png,1.0,2.8008633,0.8111373,1.4069487
convnext_large,1,591,NaN,cat,boat,8-3-10,0591_eid_dnn_8-3-10_boat_10_n04612504_1613.png,n04612504_1613.png,0.0,0.77193725,1.2757205,-0.35622853
convnext_large,1,592,NaN,dog,chair,128-3-10,0592_eid_dnn_128-3-10_chair_10_n02791124_3198.png,n02791124_3198.png,0.0,0.055900216,0.7315503,-0.47775674
convnext_large,1,593,NaN,cat,knife,16-3-10,0593_eid_dnn_16-3-10_knife_10_n03041632_32785.png,n03041632_32785.png,0.0,-0.13904005,1.0951523,-0.8727058
convnext_large,1,594,NaN,dog,oven,32-3-10,0594_eid_dnn_32-3-10_oven_10_n04111531_22797.png,n04111531_22797.png,0.0,-1.1110407,0.94100654,-1.4510165
convnext_large,1,595,NaN,dog,oven,128-3-10,0595_eid_dnn_128-3-10_oven_10_n04111531_5077.png,n04111531_5077.png,0.0,-2.19678,0.920484,-2.2042387
convnext_large,1,596,NaN,bear,bear,1-3-10,0596_eid_dnn_1-3-10_bear_10_n02134418_2569.png,n02134418_2569.png,1.0,3.2546344,0.7548334,1.7676262
convnext_large,1,597,NaN,car,car,1-3-10,0597_eid_dnn_1-3-10_car_10_n03100240_15284.png,n03100240_15284.png,1.0,5.556713,2.0794497,2.4587965
convnext_large,1,598,NaN,keyboard,keyboard,2-3-10,0598_eid_dnn_2-3-10_keyboard_10_n04505470_4791.png,n04505470_4791.png,1.0,5.086349,0.2517646,3.4185674
convnext_large,1,599,NaN,dog,bicycle,64-3-10,0599_eid_dnn_64-3-10_bicycle_10_n03792782_551.png,n03792782_551.png,0.0,-0.33766142,0.9405467,-0.90382963
convnext_large,1,600,NaN,cat,bottle,1-3-10,0600_eid_dnn_1-3-10_bottle_10_n03937543_2999.png,n03937543_2999.png,0.0,1.5926877,2.482629,-0.62928355
convnext_large,1,601,NaN,airplane,airplane,16-3-10,0601_eid_dnn_16-3-10_airplane_10_n02690373_7279.png,n02690373_7279.png,1.0,1.3969107,1.3838944,0.009203861
convnext_large,1,602,NaN,clock,airplane,128-3-10,0602_eid_dnn_128-3-10_airplane_10_n02690373_9312.png,n02690373_9312.png,0.0,-0.049146354,0.74342924,-0.5604356
convnext_large,1,603,NaN,bottle,chair,8-3-10,0603_eid_dnn_8-3-10_chair_10_n04429376_2591.png,n04429376_2591.png,0.0,-0.82369775,1.0688094,-1.3382046
convnext_large,1,604,NaN,cat,dog,32-3-10,0604_eid_dnn_32-3-10_dog_10_n02109525_175.png,n02109525_175.png,0.0,0.4287467,0.6830222,-0.17979993
convnext_large,1,605,NaN,dog,dog,1-3-10,0605_eid_dnn_1-3-10_dog_10_n02106166_476.png,n02106166_476.png,1.0,1.4075849,1.3496182,0.040988654
convnext_large,1,606,NaN,boat,boat,1-3-10,0606_eid_dnn_1-3-10_boat_10_n02951358_1136.png,n02951358_1136.png,1.0,3.4469457,2.9994438,0.31643164
convnext_large,1,607,NaN,boat,knife,2-3-10,0607_eid_dnn_2-3-10_knife_10_n03041632_3079.png,n03041632_3079.png,0.0,1.5909138,2.433518,-0.5958111
convnext_large,1,608,NaN,dog,truck,128-3-10,0608_eid_dnn_128-3-10_truck_10_n03417042_18603.png,n03417042_18603.png,0.0,-0.9459468,0.6028401,-1.0951577
convnext_large,1,609,NaN,clock,cat,128-3-10,0609_eid_dnn_128-3-10_cat_10_n02123045_9492.png,n02123045_9492.png,0.0,0.306411,0.60565156,-0.21159503
convnext_large,1,610,NaN,dog,boat,64-3-10,0610_eid_dnn_64-3-10_boat_10_n03344393_8642.png,n03344393_8642.png,0.0,-0.20333996,0.8769736,-0.76389706
convnext_large,1,611,NaN,dog,bird,32-3-10,0611_eid_dnn_32-3-10_bird_10_n02009229_6228.png,n02009229_6228.png,0.0,-0.62722164,1.1269778,-1.2404064
convnext_large,1,612,NaN,bottle,chair,8-3-10,0612_eid_dnn_8-3-10_chair_10_n02791124_13704.png,n02791124_13704.png,0.0,-0.47074902,0.7194187,-0.8415756
convnext_large,1,613,NaN,clock,knife,64-3-10,0613_eid_dnn_64-3-10_knife_10_n03041632_28129.png,n03041632_28129.png,0.0,-0.021056563,0.6924848,-0.50455
convnext_large,1,614,NaN,dog,keyboard,32-3-10,0614_eid_dnn_32-3-10_keyboard_10_n04505470_8244.png,n04505470_8244.png,0.0,-0.5600753,0.6969211,-0.88883066
convnext_large,1,615,NaN,knife,knife,4-3-10,0615_eid_dnn_4-3-10_knife_10_n03041632_30196.png,n03041632_30196.png,1.0,8.131911,0.589651,5.3331833
convnext_large,1,616,NaN,cat,keyboard,32-3-10,0616_eid_dnn_32-3-10_keyboard_10_n04505470_5109.png,n04505470_5109.png,0.0,-0.86581594,0.6245968,-1.0538809
convnext_large,1,617,NaN,knife,knife,8-3-10,0617_eid_dnn_8-3-10_knife_10_n03041632_44738.png,n03041632_44738.png,1.0,7.4147205,0.87178224,4.626556
convnext_large,1,618,NaN,car,car,1-3-10,0618_eid_dnn_1-3-10_car_10_n02814533_4726.png,n02814533_4726.png,1.0,3.080862,1.246635,1.2969944
convnext_large,1,619,NaN,elephant,elephant,2-3-10,0619_eid_dnn_2-3-10_elephant_10_n02504458_13583.png,n02504458_13583.png,1.0,6.843328,0.7282013,4.3240476
convnext_large,1,620,NaN,boat,boat,1-3-10,0620_eid_dnn_1-3-10_boat_10_n03662601_26396.png,n03662601_26396.png,1.0,2.9493196,0.34822416,1.8392522
convnext_large,1,621,NaN,boat,boat,4-3-10,0621_eid_dnn_4-3-10_boat_10_n04273569_4518.png,n04273569_4518.png,1.0,3.5954182,1.2837163,1.6346201
convnext_large,1,622,NaN,elephant,bird,16-3-10,0622_eid_dnn_16-3-10_bird_10_n01843383_3274.png,n01843383_3274.png,0.0,-0.8734719,1.7836728,-1.8788851
convnext_large,1,623,NaN,cat,clock,16-3-10,0623_eid_dnn_16-3-10_clock_10_n02708093_3621.png,n02708093_3621.png,0.0,-0.9154363,1.2230635,-1.5121477
convnext_large,1,624,NaN,airplane,boat,16-3-10,0624_eid_dnn_16-3-10_boat_10_n02951358_1360.png,n02951358_1360.png,0.0,0.7025665,1.2525336,-0.38888544
convnext_large,1,625,NaN,keyboard,keyboard,4-3-10,0625_eid_dnn_4-3-10_keyboard_10_n03085013_5819.png,n03085013_5819.png,1.0,7.1577835,0.57936937,4.6516414
convnext_large,1,626,NaN,cat,dog,64-3-10,0626_eid_dnn_64-3-10_dog_10_n02087046_15420.png,n02087046_15420.png,0.0,0.4133805,0.4361869,-0.016126564
convnext_large,1,627,NaN,bottle,bottle,1-3-10,0627_eid_dnn_1-3-10_bottle_10_n03937543_1358.png,n03937543_1358.png,1.0,1.8224231,1.0411361,0.55245334
convnext_large,1,628,NaN,cat,bottle,16-3-10,0628_eid_dnn_16-3-10_bottle_10_n02823428_12643.png,n02823428_12643.png,0.0,-0.46699834,1.4019891,-1.3215737
convnext_large,1,629,NaN,keyboard,keyboard,1-3-10,0629_eid_dnn_1-3-10_keyboard_10_n04505470_1245.png,n04505470_1245.png,1.0,4.944688,0.5218082,3.1274483
convnext_large,1,630,NaN,elephant,car,16-3-10,0630_eid_dnn_16-3-10_car_10_n02814533_47325.png,n02814533_47325.png,0.0,-0.115244485,4.9208784,-3.5610766
convnext_large,1,631,NaN,cat,car,32-3-10,0631_eid_dnn_32-3-10_car_10_n04285008_4331.png,n04285008_4331.png,0.0,-0.06593474,0.9074836,-0.6883107
convnext_large,1,632,NaN,elephant,elephant,1-3-10,0632_eid_dnn_1-3-10_elephant_10_n02504013_2984.png,n02504013_2984.png,1.0,6.702322,0.22972327,4.5768185
convnext_large,1,633,NaN,cat,cat,2-3-10,0633_eid_dnn_2-3-10_cat_10_n02124075_13278.png,n02124075_13278.png,1.0,3.602835,0.24687782,2.37302
convnext_large,1,634,NaN,bear,truck,16-3-10,0634_eid_dnn_16-3-10_truck_10_n04467665_8189.png,n04467665_8189.png,0.0,-0.20975026,1.4082893,-1.1441268
convnext_large,1,635,NaN,bottle,bottle,2-3-10,0635_eid_dnn_2-3-10_bottle_10_n02823428_13931.png,n02823428_13931.png,1.0,3.1771264,0.89408505,1.6143541
convnext_large,1,636,NaN,dog,cat,128-3-10,0636_eid_dnn_128-3-10_cat_10_n02124075_12350.png,n02124075_12350.png,0.0,0.74102145,1.424187,-0.48307097
convnext_large,1,637,NaN,elephant,elephant,16-3-10,0637_eid_dnn_16-3-10_elephant_10_n02504013_4590.png,n02504013_4590.png,1.0,3.7928061,1.396293,1.6945906
convnext_large,1,638,NaN,elephant,bird,32-3-10,0638_eid_dnn_32-3-10_bird_10_n01855672_6144.png,n01855672_6144.png,0.0,-0.8227092,2.9111886,-2.6402645
convnext_large,1,639,NaN,dog,bear,128-3-10,0639_eid_dnn_128-3-10_bear_10_n02132136_15262.png,n02132136_15262.png,0.0,0.34607613,1.0816479,-0.5201278
convnext_large,1,640,NaN,cat,cat,2-3-10,0640_eid_dnn_2-3-10_cat_10_n02125311_15293.png,n02125311_15293.png,1.0,1.2439817,0.89309,0.24811791
convnext_large,1,641,NaN,bicycle,bicycle,4-3-10,0641_eid_dnn_4-3-10_bicycle_10_n02835271_1487.png,n02835271_1487.png,1.0,5.7203054,1.040798,3.3089113
convnext_large,1,642,NaN,dog,dog,4-3-10,0642_eid_dnn_4-3-10_dog_10_n02107574_5896.png,n02107574_5896.png,1.0,0.6023845,0.2610036,0.24139275
convnext_large,1,643,NaN,keyboard,keyboard,4-3-10,0643_eid_dnn_4-3-10_keyboard_10_n03085013_15365.png,n03085013_15365.png,1.0,7.1532807,0.48716447,4.713656
convnext_large,1,644,NaN,airplane,truck,32-3-10,0644_eid_dnn_32-3-10_truck_10_n04467665_67927.png,n04467665_67927.png,0.0,-0.3866353,0.783671,-0.8275316
convnext_large,1,645,NaN,bottle,bottle,2-3-10,0645_eid_dnn_2-3-10_bottle_10_n04591713_3085.png,n04591713_3085.png,1.0,1.5159582,0.6078367,0.64213884
convnext_large,1,646,NaN,clock,clock,4-3-10,0646_eid_dnn_4-3-10_clock_10_n04548280_5096.png,n04548280_5096.png,1.0,3.816146,0.5620081,2.301023
convnext_large,1,647,NaN,dog,cat,16-3-10,0647_eid_dnn_16-3-10_cat_10_n02123159_13611.png,n02123159_13611.png,0.0,0.7031512,1.1872985,-0.34234387
convnext_large,1,648,NaN,dog,oven,128-3-10,0648_eid_dnn_128-3-10_oven_10_n04111531_15568.png,n04111531_15568.png,0.0,-2.0349321,0.80349475,-2.0070708
convnext_large,1,649,NaN,bear,knife,32-3-10,0649_eid_dnn_32-3-10_knife_10_n03041632_8618.png,n03041632_8618.png,0.0,0.08319247,0.60756606,-0.37078813
convnext_large,1,650,NaN,bottle,oven,4-3-10,0650_eid_dnn_4-3-10_oven_10_n04111531_6445.png,n04111531_6445.png,0.0,1.0140054,2.245128,-0.8705351
convnext_large,1,651,NaN,dog,bicycle,128-3-10,0651_eid_dnn_128-3-10_bicycle_10_n03792782_70724.png,n03792782_70724.png,0.0,0.10460057,1.4312043,-0.9380505
convnext_large,1,652,NaN,cat,knife,32-3-10,0652_eid_dnn_32-3-10_knife_10_n03041632_45326.png,n03041632_45326.png,0.0,-0.17400718,0.71769816,-0.6305309
convnext_large,1,653,NaN,cat,oven,32-3-10,0653_eid_dnn_32-3-10_oven_10_n04111531_7134.png,n04111531_7134.png,0.0,-1.038091,0.83240074,-1.3226374
convnext_large,1,654,NaN,cat,keyboard,64-3-10,0654_eid_dnn_64-3-10_keyboard_10_n03085013_23828.png,n03085013_23828.png,0.0,-0.46709615,1.4726931,-1.3716382
convnext_large,1,655,NaN,bear,bear,2-3-10,0655_eid_dnn_2-3-10_bear_10_n02134084_7193.png,n02134084_7193.png,1.0,3.6388304,0.54573244,2.1871505
convnext_large,1,656,NaN,clock,clock,8-3-10,0656_eid_dnn_8-3-10_clock_10_n02708093_1431.png,n02708093_1431.png,1.0,1.5613695,0.40987128,0.8142323
convnext_large,1,657,NaN,bear,airplane,64-3-10,0657_eid_dnn_64-3-10_airplane_10_n02690373_4364.png,n02690373_4364.png,0.0,0.33837882,0.74861383,-0.29007998
convnext_large,1,658,NaN,cat,bottle,64-3-10,0658_eid_dnn_64-3-10_bottle_10_n02823428_12997.png,n02823428_12997.png,0.0,-0.42902923,1.3269254,-1.2416475
convnext_large,1,659,NaN,boat,boat,8-3-10,0659_eid_dnn_8-3-10_boat_10_n02951358_9837.png,n02951358_9837.png,1.0,1.554532,0.9668686,0.41554084
convnext_large,1,660,NaN,dog,elephant,64-3-10,0660_eid_dnn_64-3-10_elephant_10_n02504013_7746.png,n02504013_7746.png,0.0,0.19712472,0.59035856,-0.27805832
convnext_large,1,661,NaN,dog,cat,32-3-10,0661_eid_dnn_32-3-10_cat_10_n02123597_6548.png,n02123597_6548.png,0.0,0.7031321,0.76856565,-0.046268515
convnext_large,1,662,NaN,dog,knife,32-3-10,0662_eid_dnn_32-3-10_knife_10_n03041632_30286.png,n03041632_30286.png,0.0,-0.47070205,0.86102986,-0.9416767
convnext_large,1,663,NaN,elephant,bear,16-3-10,0663_eid_dnn_16-3-10_bear_10_n02132136_33437.png,n02132136_33437.png,0.0,1.0521569,2.9235458,-1.3232719
convnext_large,1,664,NaN,bear,bear,2-3-10,0664_eid_dnn_2-3-10_bear_10_n02134084_14360.png,n02134084_14360.png,1.0,2.5610127,0.6001241,1.3865577
convnext_large,1,665,NaN,bear,bottle,32-3-10,0665_eid_dnn_32-3-10_bottle_10_n02823428_13280.png,n02823428_13280.png,0.0,-0.38075656,1.3566363,-1.2285223
convnext_large,1,666,NaN,dog,boat,32-3-10,0666_eid_dnn_32-3-10_boat_10_n03344393_2142.png,n03344393_2142.png,0.0,0.03662447,0.91135395,-0.6185271
convnext_large,1,667,NaN,cat,bottle,16-3-10,0667_eid_dnn_16-3-10_bottle_10_n04557648_9415.png,n04557648_9415.png,0.0,-0.80584335,1.356202,-1.528797
convnext_large,1,668,NaN,dog,airplane,32-3-10,0668_eid_dnn_32-3-10_airplane_10_n02690373_2564.png,n02690373_2564.png,0.0,0.68330944,0.85239226,-0.11955961
convnext_large,1,669,NaN,clock,dog,128-3-10,0669_eid_dnn_128-3-10_dog_10_n02095889_1087.png,n02095889_1087.png,0.0,0.41938043,0.43126747,-0.00840541
convnext_large,1,670,NaN,oven,dog,2-3-10,0670_eid_dnn_2-3-10_dog_10_n02092339_3615.png,n02092339_3615.png,0.0,1.502822,2.239248,-0.5207318
