subj,session,trial,rt,object_response,category,condition,imagename,filename,is_correct,targ_act,max_nontarg_act,decision_margin
alexnet_w3_mlp_simclrhn_probe2,1,1,NaN,oven,car,64-3-10,0001_eid_dnn_64-3-10_car_10_n04285008_8113.png,n04285008_8113.png,0.0,-5.174995,0.49946275,-4.0124474
alexnet_w3_mlp_simclrhn_probe2,1,2,NaN,oven,oven,8-3-10,0002_eid_dnn_8-3-10_oven_10_n04111531_11848.png,n04111531_11848.png,1.0,1.0016885,0.458105,0.3843716
alexnet_w3_mlp_simclrhn_probe2,1,3,NaN,oven,truck,8-3-10,0003_eid_dnn_8-3-10_truck_10_n03417042_25458.png,n03417042_25458.png,0.0,-3.2784781,-0.033338055,-2.2946606
alexnet_w3_mlp_simclrhn_probe2,1,4,NaN,oven,chair,16-3-10,0004_eid_dnn_16-3-10_chair_10_n03376595_6208.png,n03376595_6208.png,0.0,-2.9090135,-0.08852093,-1.9943894
alexnet_w3_mlp_simclrhn_probe2,1,5,NaN,bear,cat,32-3-10,0005_eid_dnn_32-3-10_cat_10_n02123045_12084.png,n02123045_12084.png,0.0,-0.5661521,-0.050845273,-0.36437696
alexnet_w3_mlp_simclrhn_probe2,1,6,NaN,keyboard,keyboard,8-3-10,0006_eid_dnn_8-3-10_keyboard_10_n03085013_20884.png,n03085013_20884.png,1.0,0.21499346,-0.18859161,0.28537774
alexnet_w3_mlp_simclrhn_probe2,1,7,NaN,airplane,airplane,4-3-10,0007_eid_dnn_4-3-10_airplane_10_n02690373_5992.png,n02690373_5992.png,1.0,2.138153,0.48354197,1.1699867
alexnet_w3_mlp_simclrhn_probe2,1,8,NaN,oven,bear,32-3-10,0008_eid_dnn_32-3-10_bear_10_n02132136_6641.png,n02132136_6641.png,0.0,0.1352926,0.17355704,-0.027057044
alexnet_w3_mlp_simclrhn_probe2,1,9,NaN,oven,oven,2-3-10,0009_eid_dnn_2-3-10_oven_10_n04111531_2797.png,n04111531_2797.png,1.0,1.7828743,-1.1982286,2.107958
alexnet_w3_mlp_simclrhn_probe2,1,10,NaN,airplane,airplane,2-3-10,0010_eid_dnn_2-3-10_airplane_10_n02690373_7457.png,n02690373_7457.png,1.0,8.346037,1.5868125,4.7794933
alexnet_w3_mlp_simclrhn_probe2,1,11,NaN,bear,truck,16-3-10,0011_eid_dnn_16-3-10_truck_10_n03796401_2751.png,n03796401_2751.png,0.0,-4.7657156,-0.02677223,-3.3509393
alexnet_w3_mlp_simclrhn_probe2,1,12,NaN,bear,bear,2-3-10,0012_eid_dnn_2-3-10_bear_10_n02134418_860.png,n02134418_860.png,1.0,0.9272213,0.91753906,0.006846376
alexnet_w3_mlp_simclrhn_probe2,1,13,NaN,knife,knife,4-3-10,0013_eid_dnn_4-3-10_knife_10_n03041632_2058.png,n03041632_2058.png,1.0,1.0940534,0.41411632,0.4807881
alexnet_w3_mlp_simclrhn_probe2,1,14,NaN,oven,airplane,32-3-10,0014_eid_dnn_32-3-10_airplane_10_n02690373_10510.png,n02690373_10510.png,0.0,-4.6950445,0.20849374,-3.4673252
alexnet_w3_mlp_simclrhn_probe2,1,15,NaN,bear,keyboard,64-3-10,0015_eid_dnn_64-3-10_keyboard_10_n03085013_6313.png,n03085013_6313.png,0.0,-3.4748693,0.008170493,-2.462881
alexnet_w3_mlp_simclrhn_probe2,1,16,NaN,airplane,bicycle,4-3-10,0016_eid_dnn_4-3-10_bicycle_10_n02835271_6278.png,n02835271_6278.png,0.0,-1.5843982,-0.03937775,-1.0924944
alexnet_w3_mlp_simclrhn_probe2,1,17,NaN,keyboard,keyboard,2-3-10,0017_eid_dnn_2-3-10_keyboard_10_n03085013_24192.png,n03085013_24192.png,1.0,6.2815037,0.6490058,3.9827774
alexnet_w3_mlp_simclrhn_probe2,1,18,NaN,car,car,2-3-10,0018_eid_dnn_2-3-10_car_10_n04285008_8255.png,n04285008_8255.png,1.0,3.8064473,2.437487,0.9680012
alexnet_w3_mlp_simclrhn_probe2,1,19,NaN,airplane,airplane,2-3-10,0019_eid_dnn_2-3-10_airplane_10_n02690373_4591.png,n02690373_4591.png,1.0,1.5540044,0.5155279,0.7343138
alexnet_w3_mlp_simclrhn_probe2,1,20,NaN,airplane,airplane,4-3-10,0020_eid_dnn_4-3-10_airplane_10_n02690373_7075.png,n02690373_7075.png,1.0,0.8100917,0.11090014,0.49440306
alexnet_w3_mlp_simclrhn_probe2,1,21,NaN,oven,bicycle,4-3-10,0021_eid_dnn_4-3-10_bicycle_10_n02835271_21464.png,n02835271_21464.png,0.0,-1.2733219,-1.1918023,-0.057643067
alexnet_w3_mlp_simclrhn_probe2,1,22,NaN,oven,car,64-3-10,0022_eid_dnn_64-3-10_car_10_n03100240_362.png,n03100240_362.png,0.0,-6.06043,0.98876846,-4.984536
alexnet_w3_mlp_simclrhn_probe2,1,23,NaN,oven,truck,32-3-10,0023_eid_dnn_32-3-10_truck_10_n04467665_50927.png,n04467665_50927.png,0.0,-2.361196,0.30852333,-1.8877767
alexnet_w3_mlp_simclrhn_probe2,1,24,NaN,oven,car,16-3-10,0024_eid_dnn_16-3-10_car_10_n04285008_3651.png,n04285008_3651.png,0.0,-4.9047136,0.28158742,-3.6672688
alexnet_w3_mlp_simclrhn_probe2,1,25,NaN,bottle,bottle,8-3-10,0025_eid_dnn_8-3-10_bottle_10_n04557648_4974.png,n04557648_4974.png,1.0,-0.049530268,-0.5590561,0.3602892
alexnet_w3_mlp_simclrhn_probe2,1,26,NaN,bear,bird,16-3-10,0026_eid_dnn_16-3-10_bird_10_n01537544_23499.png,n01537544_23499.png,0.0,-0.6388757,-0.3362029,-0.21402201
alexnet_w3_mlp_simclrhn_probe2,1,27,NaN,boat,boat,1-3-10,0027_eid_dnn_1-3-10_boat_10_n04612504_11387.png,n04612504_11387.png,1.0,3.368882,-0.061020136,2.425307
alexnet_w3_mlp_simclrhn_probe2,1,28,NaN,bottle,bottle,4-3-10,0028_eid_dnn_4-3-10_bottle_10_n03983396_4300.png,n03983396_4300.png,1.0,0.65077865,-0.53879493,0.8411555
alexnet_w3_mlp_simclrhn_probe2,1,29,NaN,oven,bottle,64-3-10,0029_eid_dnn_64-3-10_bottle_10_n04591713_6961.png,n04591713_6961.png,0.0,-1.5630771,0.17359924,-1.2280157
alexnet_w3_mlp_simclrhn_probe2,1,30,NaN,oven,clock,128-3-10,0030_eid_dnn_128-3-10_clock_10_n02708093_3361.png,n02708093_3361.png,0.0,-2.7665482,-0.65530974,-1.492871
alexnet_w3_mlp_simclrhn_probe2,1,31,NaN,oven,truck,32-3-10,0031_eid_dnn_32-3-10_truck_10_n03417042_18374.png,n03417042_18374.png,0.0,-3.834903,1.1282886,-3.5095065
alexnet_w3_mlp_simclrhn_probe2,1,32,NaN,oven,knife,64-3-10,0032_eid_dnn_64-3-10_knife_10_n03041632_36280.png,n03041632_36280.png,0.0,-1.3592556,0.29206172,-1.1676576
alexnet_w3_mlp_simclrhn_probe2,1,33,NaN,cat,bird,8-3-10,0033_eid_dnn_8-3-10_bird_10_n01614925_47.png,n01614925_47.png,0.0,-0.7466123,0.08879405,-0.5907215
alexnet_w3_mlp_simclrhn_probe2,1,34,NaN,oven,bicycle,8-3-10,0034_eid_dnn_8-3-10_bicycle_10_n02835271_20099.png,n02835271_20099.png,0.0,-1.9105835,0.11399433,-1.4315927
alexnet_w3_mlp_simclrhn_probe2,1,35,NaN,cat,bear,4-3-10,0035_eid_dnn_4-3-10_bear_10_n02134084_12070.png,n02134084_12070.png,0.0,-1.2062868,-0.0522991,-0.8159925
alexnet_w3_mlp_simclrhn_probe2,1,36,NaN,oven,bottle,8-3-10,0036_eid_dnn_8-3-10_bottle_10_n02823428_8525.png,n02823428_8525.png,0.0,-0.9115414,0.9443263,-1.3122966
alexnet_w3_mlp_simclrhn_probe2,1,37,NaN,oven,truck,32-3-10,0037_eid_dnn_32-3-10_truck_10_n04467665_37953.png,n04467665_37953.png,0.0,-5.359361,1.0142263,-4.5068073
alexnet_w3_mlp_simclrhn_probe2,1,38,NaN,oven,oven,128-3-10,0038_eid_dnn_128-3-10_oven_10_n04111531_4868.png,n04111531_4868.png,1.0,-0.20883907,-1.7565227,1.0943776
alexnet_w3_mlp_simclrhn_probe2,1,39,NaN,bear,boat,32-3-10,0039_eid_dnn_32-3-10_boat_10_n03662601_19840.png,n03662601_19840.png,0.0,-0.9067894,-0.049917057,-0.6059003
alexnet_w3_mlp_simclrhn_probe2,1,40,NaN,elephant,truck,8-3-10,0040_eid_dnn_8-3-10_truck_10_n04467665_9331.png,n04467665_9331.png,0.0,-1.8214808,0.3275251,-1.5195767
alexnet_w3_mlp_simclrhn_probe2,1,41,NaN,oven,dog,64-3-10,0041_eid_dnn_64-3-10_dog_10_n02111277_16090.png,n02111277_16090.png,0.0,-1.2598349,0.44357556,-1.204493
alexnet_w3_mlp_simclrhn_probe2,1,42,NaN,oven,bottle,4-3-10,0042_eid_dnn_4-3-10_bottle_10_n02823428_6731.png,n02823428_6731.png,0.0,0.58996594,2.1387177,-1.0951328
alexnet_w3_mlp_simclrhn_probe2,1,43,NaN,bear,elephant,8-3-10,0043_eid_dnn_8-3-10_elephant_10_n02504013_8930.png,n02504013_8930.png,0.0,1.5695661,1.6430361,-0.051951133
alexnet_w3_mlp_simclrhn_probe2,1,44,NaN,car,car,4-3-10,0044_eid_dnn_4-3-10_car_10_n03100240_13673.png,n03100240_13673.png,1.0,1.5061339,-0.23694237,1.2325411
alexnet_w3_mlp_simclrhn_probe2,1,45,NaN,bear,bird,128-3-10,0045_eid_dnn_128-3-10_bird_10_n02018207_6819.png,n02018207_6819.png,0.0,-0.71975154,-0.6024819,-0.08292215
alexnet_w3_mlp_simclrhn_probe2,1,46,NaN,elephant,elephant,4-3-10,0046_eid_dnn_4-3-10_elephant_10_n02504013_6065.png,n02504013_6065.png,1.0,1.9686507,0.68402815,0.9083653
alexnet_w3_mlp_simclrhn_probe2,1,47,NaN,cat,cat,1-3-10,0047_eid_dnn_1-3-10_cat_10_n02123394_384.png,n02123394_384.png,1.0,-0.65512425,-0.9496424,0.2082558
alexnet_w3_mlp_simclrhn_probe2,1,48,NaN,bear,bicycle,16-3-10,0048_eid_dnn_16-3-10_bicycle_10_n02835271_12608.png,n02835271_12608.png,0.0,-4.219199,0.44361046,-3.2971046
alexnet_w3_mlp_simclrhn_probe2,1,49,NaN,oven,chair,2-3-10,0049_eid_dnn_2-3-10_chair_10_n03376595_13949.png,n03376595_13949.png,0.0,-2.3707175,-0.8453275,-1.0786136
alexnet_w3_mlp_simclrhn_probe2,1,50,NaN,oven,airplane,128-3-10,0050_eid_dnn_128-3-10_airplane_10_n02690373_3561.png,n02690373_3561.png,0.0,-3.6615827,0.13876459,-2.6872513
alexnet_w3_mlp_simclrhn_probe2,1,51,NaN,oven,bicycle,32-3-10,0051_eid_dnn_32-3-10_bicycle_10_n02835271_8203.png,n02835271_8203.png,0.0,-2.8797207,0.08163218,-2.0939927
alexnet_w3_mlp_simclrhn_probe2,1,52,NaN,bicycle,bicycle,2-3-10,0052_eid_dnn_2-3-10_bicycle_10_n03792782_5665.png,n03792782_5665.png,1.0,5.445423,-0.86604697,4.4628835
alexnet_w3_mlp_simclrhn_probe2,1,53,NaN,oven,bicycle,128-3-10,0053_eid_dnn_128-3-10_bicycle_10_n02835271_15028.png,n02835271_15028.png,0.0,-1.4620934,-0.41226006,-0.74234426
alexnet_w3_mlp_simclrhn_probe2,1,54,NaN,clock,clock,1-3-10,0054_eid_dnn_1-3-10_clock_10_n04548280_3318.png,n04548280_3318.png,1.0,2.523894,-0.12648337,1.8741
alexnet_w3_mlp_simclrhn_probe2,1,55,NaN,oven,cat,128-3-10,0055_eid_dnn_128-3-10_cat_10_n02123045_8784.png,n02123045_8784.png,0.0,-1.6992298,-0.4107019,-0.91112685
alexnet_w3_mlp_simclrhn_probe2,1,56,NaN,oven,knife,128-3-10,0056_eid_dnn_128-3-10_knife_10_n03041632_3247.png,n03041632_3247.png,0.0,-1.2639773,0.037110537,-0.92000806
alexnet_w3_mlp_simclrhn_probe2,1,57,NaN,cat,dog,8-3-10,0057_eid_dnn_8-3-10_dog_10_n02110185_11414.png,n02110185_11414.png,0.0,-0.2925021,1.3874794,-1.1879263
alexnet_w3_mlp_simclrhn_probe2,1,58,NaN,bear,dog,32-3-10,0058_eid_dnn_32-3-10_dog_10_n02113712_2715.png,n02113712_2715.png,0.0,-1.1617038,0.054763403,-0.8601723
alexnet_w3_mlp_simclrhn_probe2,1,59,NaN,bird,elephant,2-3-10,0059_eid_dnn_2-3-10_elephant_10_n02504458_1210.png,n02504458_1210.png,0.0,-0.9880229,0.11564238,-0.7804093
alexnet_w3_mlp_simclrhn_probe2,1,60,NaN,oven,car,16-3-10,0060_eid_dnn_16-3-10_car_10_n02814533_32337.png,n02814533_32337.png,0.0,-6.1226134,0.9330333,-4.9890957
alexnet_w3_mlp_simclrhn_probe2,1,61,NaN,car,car,4-3-10,0061_eid_dnn_4-3-10_car_10_n02814533_55326.png,n02814533_55326.png,1.0,0.876097,0.4261334,0.31817234
alexnet_w3_mlp_simclrhn_probe2,1,62,NaN,oven,knife,64-3-10,0062_eid_dnn_64-3-10_knife_10_n03041632_32774.png,n03041632_32774.png,0.0,-1.5715183,0.09033927,-1.1751108
alexnet_w3_mlp_simclrhn_probe2,1,63,NaN,bear,bicycle,8-3-10,0063_eid_dnn_8-3-10_bicycle_10_n02835271_11921.png,n02835271_11921.png,0.0,-3.9608908,1.3422811,-3.749909
alexnet_w3_mlp_simclrhn_probe2,1,64,NaN,oven,chair,32-3-10,0064_eid_dnn_32-3-10_chair_10_n03376595_6115.png,n03376595_6115.png,0.0,-2.4204106,0.4407867,-2.023172
alexnet_w3_mlp_simclrhn_probe2,1,65,NaN,bear,bear,16-3-10,0065_eid_dnn_16-3-10_bear_10_n02133161_79.png,n02133161_79.png,1.0,0.14958985,-0.06482747,0.15161595
alexnet_w3_mlp_simclrhn_probe2,1,66,NaN,boat,boat,1-3-10,0066_eid_dnn_1-3-10_boat_10_n03662601_34796.png,n03662601_34796.png,1.0,5.273732,1.9174302,2.373264
alexnet_w3_mlp_simclrhn_probe2,1,67,NaN,bird,bird,4-3-10,0067_eid_dnn_4-3-10_bird_10_n02051845_8976.png,n02051845_8976.png,1.0,0.91812736,-1.0342541,1.3805422
alexnet_w3_mlp_simclrhn_probe2,1,68,NaN,elephant,boat,4-3-10,0068_eid_dnn_4-3-10_boat_10_n03344393_7362.png,n03344393_7362.png,0.0,0.3208788,0.7315644,-0.29039857
alexnet_w3_mlp_simclrhn_probe2,1,69,NaN,oven,car,32-3-10,0069_eid_dnn_32-3-10_car_10_n02814533_34289.png,n02814533_34289.png,0.0,-4.014898,0.16396585,-2.954903
alexnet_w3_mlp_simclrhn_probe2,1,70,NaN,bear,keyboard,16-3-10,0070_eid_dnn_16-3-10_keyboard_10_n03085013_2166.png,n03085013_2166.png,0.0,-3.8887153,0.3830812,-3.020616
alexnet_w3_mlp_simclrhn_probe2,1,71,NaN,bear,bear,2-3-10,0071_eid_dnn_2-3-10_bear_10_n02133161_10167.png,n02133161_10167.png,1.0,4.0828757,3.1832259,0.6361485
alexnet_w3_mlp_simclrhn_probe2,1,72,NaN,oven,keyboard,16-3-10,0072_eid_dnn_16-3-10_keyboard_10_n04505470_430.png,n04505470_430.png,0.0,-1.9810338,-0.0219004,-1.3853165
alexnet_w3_mlp_simclrhn_probe2,1,73,NaN,oven,boat,128-3-10,0073_eid_dnn_128-3-10_boat_10_n03662601_17001.png,n03662601_17001.png,0.0,-3.3080354,-0.6881516,-1.8525376
alexnet_w3_mlp_simclrhn_probe2,1,74,NaN,oven,bear,128-3-10,0074_eid_dnn_128-3-10_bear_10_n02133161_5157.png,n02133161_5157.png,0.0,-1.2605175,-0.811057,-0.3178166
alexnet_w3_mlp_simclrhn_probe2,1,75,NaN,bear,boat,2-3-10,0075_eid_dnn_2-3-10_boat_10_n02951358_17870.png,n02951358_17870.png,0.0,-1.0995592,0.08501603,-0.83762115
alexnet_w3_mlp_simclrhn_probe2,1,76,NaN,oven,cat,64-3-10,0076_eid_dnn_64-3-10_cat_10_n02123159_1102.png,n02123159_1102.png,0.0,-1.4415036,-0.32466564,-0.7897237
alexnet_w3_mlp_simclrhn_probe2,1,77,NaN,oven,cat,32-3-10,0077_eid_dnn_32-3-10_cat_10_n02123045_4252.png,n02123045_4252.png,0.0,-0.7063294,-0.16374516,-0.383665
alexnet_w3_mlp_simclrhn_probe2,1,78,NaN,keyboard,keyboard,2-3-10,0078_eid_dnn_2-3-10_keyboard_10_n04505470_4294.png,n04505470_4294.png,1.0,3.4955387,-0.29157227,2.677892
alexnet_w3_mlp_simclrhn_probe2,1,79,NaN,truck,truck,2-3-10,0079_eid_dnn_2-3-10_truck_10_n04467665_1101.png,n04467665_1101.png,1.0,4.804824,3.1809874,1.1482258
alexnet_w3_mlp_simclrhn_probe2,1,80,NaN,oven,airplane,64-3-10,0080_eid_dnn_64-3-10_airplane_10_n02690373_2078.png,n02690373_2078.png,0.0,-2.440762,0.1640949,-1.841912
alexnet_w3_mlp_simclrhn_probe2,1,81,NaN,oven,boat,64-3-10,0081_eid_dnn_64-3-10_boat_10_n04612504_5535.png,n04612504_5535.png,0.0,-2.7741761,0.21539795,-2.113948
alexnet_w3_mlp_simclrhn_probe2,1,82,NaN,bear,cat,16-3-10,0082_eid_dnn_16-3-10_cat_10_n02125311_15099.png,n02125311_15099.png,0.0,-0.4125465,0.5052011,-0.64894557
alexnet_w3_mlp_simclrhn_probe2,1,83,NaN,oven,airplane,64-3-10,0083_eid_dnn_64-3-10_airplane_10_n02690373_4671.png,n02690373_4671.png,0.0,-4.601421,0.33634162,-3.4915252
alexnet_w3_mlp_simclrhn_probe2,1,84,NaN,truck,truck,1-3-10,0084_eid_dnn_1-3-10_truck_10_n03417042_9062.png,n03417042_9062.png,1.0,2.5194783,1.5820707,0.6628473
alexnet_w3_mlp_simclrhn_probe2,1,85,NaN,cat,cat,4-3-10,0085_eid_dnn_4-3-10_cat_10_n02123394_283.png,n02123394_283.png,1.0,0.2052852,-1.5696802,1.2550901
alexnet_w3_mlp_simclrhn_probe2,1,86,NaN,car,car,1-3-10,0086_eid_dnn_1-3-10_car_10_n02814533_3375.png,n02814533_3375.png,1.0,6.770916,5.1970186,1.1129135
alexnet_w3_mlp_simclrhn_probe2,1,87,NaN,cat,cat,2-3-10,0087_eid_dnn_2-3-10_cat_10_n02124075_9706.png,n02124075_9706.png,1.0,1.3477265,-0.7177756,1.4605306
alexnet_w3_mlp_simclrhn_probe2,1,88,NaN,car,car,2-3-10,0088_eid_dnn_2-3-10_car_10_n04285008_10563.png,n04285008_10563.png,1.0,3.5895274,2.1968503,0.98477143
alexnet_w3_mlp_simclrhn_probe2,1,89,NaN,oven,clock,64-3-10,0089_eid_dnn_64-3-10_clock_10_n03196217_3283.png,n03196217_3283.png,0.0,-3.7337484,0.15072605,-2.7467384
alexnet_w3_mlp_simclrhn_probe2,1,90,NaN,oven,oven,128-3-10,0090_eid_dnn_128-3-10_oven_10_n04111531_21120.png,n04111531_21120.png,1.0,-0.19587074,-0.83908105,0.45481837
alexnet_w3_mlp_simclrhn_probe2,1,91,NaN,bird,bird,1-3-10,0091_eid_dnn_1-3-10_bird_10_n01824575_6186.png,n01824575_6186.png,1.0,1.6967012,-2.5003805,2.967785
alexnet_w3_mlp_simclrhn_probe2,1,92,NaN,dog,dog,4-3-10,0092_eid_dnn_4-3-10_dog_10_n02102318_11155.png,n02102318_11155.png,1.0,1.0372819,-0.1713781,0.8546517
alexnet_w3_mlp_simclrhn_probe2,1,93,NaN,bear,clock,16-3-10,0093_eid_dnn_16-3-10_clock_10_n04548280_2283.png,n04548280_2283.png,0.0,-3.674482,0.6223435,-3.0383143
alexnet_w3_mlp_simclrhn_probe2,1,94,NaN,oven,chair,128-3-10,0094_eid_dnn_128-3-10_chair_10_n03376595_18787.png,n03376595_18787.png,0.0,-2.5369997,0.13244753,-1.8875842
alexnet_w3_mlp_simclrhn_probe2,1,95,NaN,oven,keyboard,8-3-10,0095_eid_dnn_8-3-10_keyboard_10_n04505470_1903.png,n04505470_1903.png,0.0,-1.1163775,0.792153,-1.3495349
alexnet_w3_mlp_simclrhn_probe2,1,96,NaN,oven,clock,16-3-10,0096_eid_dnn_16-3-10_clock_10_n03196217_6185.png,n03196217_6185.png,0.0,-3.9494793,1.2956629,-3.7088754
alexnet_w3_mlp_simclrhn_probe2,1,97,NaN,clock,clock,2-3-10,0097_eid_dnn_2-3-10_clock_10_n03196217_10424.png,n03196217_10424.png,1.0,1.096546,1.0007505,0.067737654
alexnet_w3_mlp_simclrhn_probe2,1,98,NaN,knife,knife,2-3-10,0098_eid_dnn_2-3-10_knife_10_n03041632_43436.png,n03041632_43436.png,1.0,0.86366314,-0.6807747,1.0920825
alexnet_w3_mlp_simclrhn_probe2,1,99,NaN,dog,dog,1-3-10,0099_eid_dnn_1-3-10_dog_10_n02093647_5955.png,n02093647_5955.png,1.0,0.403739,-1.687293,1.478583
alexnet_w3_mlp_simclrhn_probe2,1,100,NaN,oven,boat,32-3-10,0100_eid_dnn_32-3-10_boat_10_n03662601_5423.png,n03662601_5423.png,0.0,-1.607043,0.21308935,-1.287028
alexnet_w3_mlp_simclrhn_probe2,1,101,NaN,oven,keyboard,128-3-10,0101_eid_dnn_128-3-10_keyboard_10_n04505470_9457.png,n04505470_9457.png,0.0,-4.9029937,0.11001758,-3.5447345
alexnet_w3_mlp_simclrhn_probe2,1,102,NaN,oven,knife,128-3-10,0102_eid_dnn_128-3-10_knife_10_n03041632_38535.png,n03041632_38535.png,0.0,-1.5408996,-0.19278267,-0.9532627
alexnet_w3_mlp_simclrhn_probe2,1,103,NaN,bear,elephant,8-3-10,0103_eid_dnn_8-3-10_elephant_10_n02504458_8141.png,n02504458_8141.png,0.0,-0.42051736,0.48522675,-0.6404578
alexnet_w3_mlp_simclrhn_probe2,1,104,NaN,airplane,airplane,4-3-10,0104_eid_dnn_4-3-10_airplane_10_n02690373_9086.png,n02690373_9086.png,1.0,1.5695074,-0.53718364,1.4896555
alexnet_w3_mlp_simclrhn_probe2,1,105,NaN,bear,bicycle,16-3-10,0105_eid_dnn_16-3-10_bicycle_10_n03792782_19116.png,n03792782_19116.png,0.0,-0.6416631,0.042711798,-0.48392612
alexnet_w3_mlp_simclrhn_probe2,1,106,NaN,elephant,elephant,4-3-10,0106_eid_dnn_4-3-10_elephant_10_n02504458_2343.png,n02504458_2343.png,1.0,3.732515,1.1446955,1.8298649
alexnet_w3_mlp_simclrhn_probe2,1,107,NaN,oven,airplane,16-3-10,0107_eid_dnn_16-3-10_airplane_10_n02690373_7093.png,n02690373_7093.png,0.0,-0.8922459,-0.2404321,-0.46090198
alexnet_w3_mlp_simclrhn_probe2,1,108,NaN,oven,car,32-3-10,0108_eid_dnn_32-3-10_car_10_n03100240_7935.png,n03100240_7935.png,0.0,-4.6079803,0.5355103,-3.6369972
alexnet_w3_mlp_simclrhn_probe2,1,109,NaN,oven,airplane,16-3-10,0109_eid_dnn_16-3-10_airplane_10_n02690373_8611.png,n02690373_8611.png,0.0,-1.9297428,0.11075993,-1.4428533
alexnet_w3_mlp_simclrhn_probe2,1,110,NaN,bear,bear,2-3-10,0110_eid_dnn_2-3-10_bear_10_n02133161_7332.png,n02133161_7332.png,1.0,4.475585,1.4920201,2.109699
alexnet_w3_mlp_simclrhn_probe2,1,111,NaN,car,car,2-3-10,0111_eid_dnn_2-3-10_car_10_n03100240_9387.png,n03100240_9387.png,1.0,5.1174374,3.415269,1.2036148
alexnet_w3_mlp_simclrhn_probe2,1,112,NaN,cat,cat,4-3-10,0112_eid_dnn_4-3-10_cat_10_n02124075_521.png,n02124075_521.png,1.0,0.4492462,-0.45634317,0.6403484
alexnet_w3_mlp_simclrhn_probe2,1,113,NaN,oven,bottle,128-3-10,0113_eid_dnn_128-3-10_bottle_10_n04560804_3746.png,n04560804_3746.png,0.0,-2.2976077,0.42412895,-1.9245585
alexnet_w3_mlp_simclrhn_probe2,1,114,NaN,bear,elephant,16-3-10,0114_eid_dnn_16-3-10_elephant_10_n02504458_1127.png,n02504458_1127.png,0.0,0.6065423,0.83338016,-0.1603986
alexnet_w3_mlp_simclrhn_probe2,1,115,NaN,knife,knife,8-3-10,0115_eid_dnn_8-3-10_knife_10_n03041632_14132.png,n03041632_14132.png,1.0,-0.26810408,-0.70744985,0.3106644
alexnet_w3_mlp_simclrhn_probe2,1,116,NaN,oven,oven,1-3-10,0116_eid_dnn_1-3-10_oven_10_n04111531_18916.png,n04111531_18916.png,1.0,0.8826142,-1.1384388,1.4291004
alexnet_w3_mlp_simclrhn_probe2,1,117,NaN,oven,oven,1-3-10,0117_eid_dnn_1-3-10_oven_10_n04111531_19274.png,n04111531_19274.png,1.0,0.5805563,-1.7433189,1.6432279
alexnet_w3_mlp_simclrhn_probe2,1,118,NaN,bird,bird,2-3-10,0118_eid_dnn_2-3-10_bird_10_n01843383_277.png,n01843383_277.png,1.0,0.07131326,-1.977221,1.4485326
alexnet_w3_mlp_simclrhn_probe2,1,119,NaN,oven,boat,64-3-10,0119_eid_dnn_64-3-10_boat_10_n03344393_6799.png,n03344393_6799.png,0.0,-2.729337,-0.089984685,-1.8663039
alexnet_w3_mlp_simclrhn_probe2,1,120,NaN,dog,dog,2-3-10,0120_eid_dnn_2-3-10_dog_10_n02093428_16887.png,n02093428_16887.png,1.0,0.874151,0.13536732,0.52239895
alexnet_w3_mlp_simclrhn_probe2,1,121,NaN,oven,elephant,64-3-10,0121_eid_dnn_64-3-10_elephant_10_n02504458_6163.png,n02504458_6163.png,0.0,-0.6432015,-0.26589113,-0.2667987
alexnet_w3_mlp_simclrhn_probe2,1,122,NaN,oven,bottle,64-3-10,0122_eid_dnn_64-3-10_bottle_10_n04591713_2826.png,n04591713_2826.png,0.0,-1.2165583,-0.23775072,-0.6921215
alexnet_w3_mlp_simclrhn_probe2,1,123,NaN,oven,bottle,64-3-10,0123_eid_dnn_64-3-10_bottle_10_n04557648_3598.png,n04557648_3598.png,0.0,-1.1235154,-0.3725454,-0.531016
alexnet_w3_mlp_simclrhn_probe2,1,124,NaN,boat,truck,8-3-10,0124_eid_dnn_8-3-10_truck_10_n04467665_80629.png,n04467665_80629.png,0.0,-1.6874354,0.19291465,-1.3296082
alexnet_w3_mlp_simclrhn_probe2,1,125,NaN,elephant,bear,4-3-10,0125_eid_dnn_4-3-10_bear_10_n02134084_6869.png,n02134084_6869.png,0.0,0.8951268,1.1788788,-0.20064294
alexnet_w3_mlp_simclrhn_probe2,1,126,NaN,bird,bird,1-3-10,0126_eid_dnn_1-3-10_bird_10_n01820546_4457.png,n01820546_4457.png,1.0,-0.07526909,-0.49565116,0.29725504
alexnet_w3_mlp_simclrhn_probe2,1,127,NaN,oven,clock,64-3-10,0127_eid_dnn_64-3-10_clock_10_n04548280_7565.png,n04548280_7565.png,0.0,-1.896362,0.012599364,-1.3498394
alexnet_w3_mlp_simclrhn_probe2,1,128,NaN,bear,elephant,16-3-10,0128_eid_dnn_16-3-10_elephant_10_n02504458_98.png,n02504458_98.png,0.0,-0.014618278,0.5627011,-0.40822646
alexnet_w3_mlp_simclrhn_probe2,1,129,NaN,oven,bicycle,64-3-10,0129_eid_dnn_64-3-10_bicycle_10_n03792782_7143.png,n03792782_7143.png,0.0,-1.201455,-0.20669791,-0.7033995
alexnet_w3_mlp_simclrhn_probe2,1,130,NaN,bear,dog,16-3-10,0130_eid_dnn_16-3-10_dog_10_n02096051_5524.png,n02096051_5524.png,0.0,-0.6911413,0.27098203,-0.68032396
alexnet_w3_mlp_simclrhn_probe2,1,131,NaN,bear,cat,16-3-10,0131_eid_dnn_16-3-10_cat_10_n02123045_9465.png,n02123045_9465.png,0.0,0.16669084,0.320458,-0.1087298
alexnet_w3_mlp_simclrhn_probe2,1,132,NaN,oven,cat,64-3-10,0132_eid_dnn_64-3-10_cat_10_n02123159_9450.png,n02123159_9450.png,0.0,-1.0005952,0.32751212,-0.93911374
alexnet_w3_mlp_simclrhn_probe2,1,133,NaN,bottle,clock,4-3-10,0133_eid_dnn_4-3-10_clock_10_n02708093_8204.png,n02708093_8204.png,0.0,-0.56626415,-0.328411,-0.16818757
alexnet_w3_mlp_simclrhn_probe2,1,134,NaN,oven,airplane,32-3-10,0134_eid_dnn_32-3-10_airplane_10_n02690373_2619.png,n02690373_2619.png,0.0,-1.8170403,-0.3691787,-1.0237929
alexnet_w3_mlp_simclrhn_probe2,1,135,NaN,car,car,2-3-10,0135_eid_dnn_2-3-10_car_10_n04285008_11295.png,n04285008_11295.png,1.0,5.8903923,2.8105032,2.1778104
alexnet_w3_mlp_simclrhn_probe2,1,136,NaN,bear,bear,8-3-10,0136_eid_dnn_8-3-10_bear_10_n02133161_15481.png,n02133161_15481.png,1.0,1.1428939,0.32413507,0.5789499
alexnet_w3_mlp_simclrhn_probe2,1,137,NaN,bear,truck,64-3-10,0137_eid_dnn_64-3-10_truck_10_n03417042_8139.png,n03417042_8139.png,0.0,-3.2633867,-0.59023356,-1.8902048
alexnet_w3_mlp_simclrhn_probe2,1,138,NaN,cat,bottle,16-3-10,0138_eid_dnn_16-3-10_bottle_10_n04557648_4490.png,n04557648_4490.png,0.0,-0.705336,-0.21916263,-0.34377646
alexnet_w3_mlp_simclrhn_probe2,1,139,NaN,bottle,clock,1-3-10,0139_eid_dnn_1-3-10_clock_10_n03196217_5399.png,n03196217_5399.png,0.0,0.15332879,0.47739467,-0.22914918
alexnet_w3_mlp_simclrhn_probe2,1,140,NaN,boat,boat,1-3-10,0140_eid_dnn_1-3-10_boat_10_n04273569_4136.png,n04273569_4136.png,1.0,3.2804565,-0.1369973,2.4165049
alexnet_w3_mlp_simclrhn_probe2,1,141,NaN,clock,clock,4-3-10,0141_eid_dnn_4-3-10_clock_10_n04548280_2127.png,n04548280_2127.png,1.0,-0.35557017,-1.2862167,0.6580665
alexnet_w3_mlp_simclrhn_probe2,1,142,NaN,boat,boat,2-3-10,0142_eid_dnn_2-3-10_boat_10_n03344393_10038.png,n03344393_10038.png,1.0,1.9698454,1.8741105,0.067694835
alexnet_w3_mlp_simclrhn_probe2,1,143,NaN,elephant,elephant,2-3-10,0143_eid_dnn_2-3-10_elephant_10_n02504013_10793.png,n02504013_10793.png,1.0,8.460308,2.4035602,4.282768
alexnet_w3_mlp_simclrhn_probe2,1,144,NaN,oven,oven,128-3-10,0144_eid_dnn_128-3-10_oven_10_n04111531_6590.png,n04111531_6590.png,1.0,-0.54066336,-1.2288778,0.48664108
alexnet_w3_mlp_simclrhn_probe2,1,145,NaN,oven,keyboard,16-3-10,0145_eid_dnn_16-3-10_keyboard_10_n03085013_10984.png,n03085013_10984.png,0.0,-1.9088979,-0.19064274,-1.2149899
alexnet_w3_mlp_simclrhn_probe2,1,146,NaN,bicycle,bicycle,2-3-10,0146_eid_dnn_2-3-10_bicycle_10_n02835271_14879.png,n02835271_14879.png,1.0,0.46352774,0.12299457,0.24079332
alexnet_w3_mlp_simclrhn_probe2,1,147,NaN,bear,knife,64-3-10,0147_eid_dnn_64-3-10_knife_10_n03041632_22241.png,n03041632_22241.png,0.0,-1.036261,0.0206775,-0.74736834
alexnet_w3_mlp_simclrhn_probe2,1,148,NaN,oven,oven,64-3-10,0148_eid_dnn_64-3-10_oven_10_n04111531_892.png,n04111531_892.png,1.0,0.35425866,-0.30478513,0.46601433
alexnet_w3_mlp_simclrhn_probe2,1,149,NaN,oven,bear,64-3-10,0149_eid_dnn_64-3-10_bear_10_n02134418_14850.png,n02134418_14850.png,0.0,-0.6407175,-0.020119756,-0.43882886
alexnet_w3_mlp_simclrhn_probe2,1,150,NaN,oven,knife,64-3-10,0150_eid_dnn_64-3-10_knife_10_n03041632_48071.png,n03041632_48071.png,0.0,-1.4486283,-0.08774632,-0.9622889
alexnet_w3_mlp_simclrhn_probe2,1,151,NaN,oven,clock,16-3-10,0151_eid_dnn_16-3-10_clock_10_n04548280_64.png,n04548280_64.png,0.0,-3.404397,-0.55721784,-2.0132596
alexnet_w3_mlp_simclrhn_probe2,1,152,NaN,bird,truck,64-3-10,0152_eid_dnn_64-3-10_truck_10_n03796401_6285.png,n03796401_6285.png,0.0,-2.256025,-0.48563173,-1.2518572
alexnet_w3_mlp_simclrhn_probe2,1,153,NaN,airplane,airplane,4-3-10,0153_eid_dnn_4-3-10_airplane_10_n02690373_6682.png,n02690373_6682.png,1.0,0.70293736,-0.16113591,0.6109921
alexnet_w3_mlp_simclrhn_probe2,1,154,NaN,oven,knife,64-3-10,0154_eid_dnn_64-3-10_knife_10_n03041632_17285.png,n03041632_17285.png,0.0,-1.6407272,0.66936636,-1.6334827
alexnet_w3_mlp_simclrhn_probe2,1,155,NaN,elephant,boat,2-3-10,0155_eid_dnn_2-3-10_boat_10_n02951358_8184.png,n02951358_8184.png,0.0,1.3285196,1.6017315,-0.19319002
alexnet_w3_mlp_simclrhn_probe2,1,156,NaN,bicycle,bear,1-3-10,0156_eid_dnn_1-3-10_bear_10_n02132136_2346.png,n02132136_2346.png,0.0,-0.47162938,-0.028725922,-0.31318006
alexnet_w3_mlp_simclrhn_probe2,1,157,NaN,bear,bear,8-3-10,0157_eid_dnn_8-3-10_bear_10_n02134418_2187.png,n02134418_2187.png,1.0,1.5379269,0.097385675,1.0186166
alexnet_w3_mlp_simclrhn_probe2,1,158,NaN,bear,cat,32-3-10,0158_eid_dnn_32-3-10_cat_10_n02124075_10162.png,n02124075_10162.png,0.0,-0.7798314,-0.056500167,-0.5114724
alexnet_w3_mlp_simclrhn_probe2,1,159,NaN,oven,truck,128-3-10,0159_eid_dnn_128-3-10_truck_10_n03417042_8998.png,n03417042_8998.png,0.0,-2.9603148,-0.28527611,-1.8915379
alexnet_w3_mlp_simclrhn_probe2,1,160,NaN,oven,cat,64-3-10,0160_eid_dnn_64-3-10_cat_10_n02123597_13835.png,n02123597_13835.png,0.0,-0.8337126,0.059230894,-0.6314064
alexnet_w3_mlp_simclrhn_probe2,1,161,NaN,clock,clock,1-3-10,0161_eid_dnn_1-3-10_clock_10_n04548280_18914.png,n04548280_18914.png,1.0,3.4402707,-0.75848883,2.9689715
alexnet_w3_mlp_simclrhn_probe2,1,162,NaN,keyboard,keyboard,2-3-10,0162_eid_dnn_2-3-10_keyboard_10_n03085013_2676.png,n03085013_2676.png,1.0,3.1240811,0.3052258,1.9932318
alexnet_w3_mlp_simclrhn_probe2,1,163,NaN,oven,airplane,16-3-10,0163_eid_dnn_16-3-10_airplane_10_n02690373_7600.png,n02690373_7600.png,0.0,-3.3572452,0.55121857,-2.7637012
alexnet_w3_mlp_simclrhn_probe2,1,164,NaN,bear,chair,16-3-10,0164_eid_dnn_16-3-10_chair_10_n04429376_17917.png,n04429376_17917.png,0.0,-2.0559752,0.33366856,-1.6897333
alexnet_w3_mlp_simclrhn_probe2,1,165,NaN,bottle,keyboard,4-3-10,0165_eid_dnn_4-3-10_keyboard_10_n04505470_4492.png,n04505470_4492.png,0.0,0.43638948,0.6649512,-0.16161755
alexnet_w3_mlp_simclrhn_probe2,1,166,NaN,bear,bear,1-3-10,0166_eid_dnn_1-3-10_bear_10_n02134418_3148.png,n02134418_3148.png,1.0,1.8454417,0.45812023,0.98098445
alexnet_w3_mlp_simclrhn_probe2,1,167,NaN,elephant,cat,4-3-10,0167_eid_dnn_4-3-10_cat_10_n02125311_20388.png,n02125311_20388.png,0.0,-0.11581155,0.9314403,-0.74051887
alexnet_w3_mlp_simclrhn_probe2,1,168,NaN,oven,cat,64-3-10,0168_eid_dnn_64-3-10_cat_10_n02123394_2153.png,n02123394_2153.png,0.0,-0.9880657,-0.093054876,-0.63286823
alexnet_w3_mlp_simclrhn_probe2,1,169,NaN,oven,clock,1-3-10,0169_eid_dnn_1-3-10_clock_10_n04548280_5327.png,n04548280_5327.png,0.0,-0.19940455,0.6809331,-0.62249273
alexnet_w3_mlp_simclrhn_probe2,1,170,NaN,oven,bicycle,8-3-10,0170_eid_dnn_8-3-10_bicycle_10_n03792782_63054.png,n03792782_63054.png,0.0,-4.2827406,-0.08932328,-2.965194
alexnet_w3_mlp_simclrhn_probe2,1,171,NaN,oven,chair,32-3-10,0171_eid_dnn_32-3-10_chair_10_n03376595_14138.png,n03376595_14138.png,0.0,-2.787008,-0.3294937,-1.737725
alexnet_w3_mlp_simclrhn_probe2,1,172,NaN,elephant,elephant,2-3-10,0172_eid_dnn_2-3-10_elephant_10_n02504458_4849.png,n02504458_4849.png,1.0,1.9697417,1.0116874,0.6774467
alexnet_w3_mlp_simclrhn_probe2,1,173,NaN,oven,dog,128-3-10,0173_eid_dnn_128-3-10_dog_10_n02113624_4844.png,n02113624_4844.png,0.0,-2.2573597,0.19681884,-1.7353663
alexnet_w3_mlp_simclrhn_probe2,1,174,NaN,elephant,elephant,2-3-10,0174_eid_dnn_2-3-10_elephant_10_n02504013_2549.png,n02504013_2549.png,1.0,1.9173169,1.3755984,0.38305283
alexnet_w3_mlp_simclrhn_probe2,1,175,NaN,bear,bear,8-3-10,0175_eid_dnn_8-3-10_bear_10_n02134084_4593.png,n02134084_4593.png,1.0,0.85123384,0.009013623,0.5955396
alexnet_w3_mlp_simclrhn_probe2,1,176,NaN,bird,bicycle,64-3-10,0176_eid_dnn_64-3-10_bicycle_10_n02835271_75.png,n02835271_75.png,0.0,-0.71810734,-0.5610185,-0.11107857
alexnet_w3_mlp_simclrhn_probe2,1,177,NaN,oven,truck,4-3-10,0177_eid_dnn_4-3-10_truck_10_n03796401_20943.png,n03796401_20943.png,0.0,-0.31989804,0.4092884,-0.51561266
alexnet_w3_mlp_simclrhn_probe2,1,178,NaN,oven,knife,2-3-10,0178_eid_dnn_2-3-10_knife_10_n03041632_32048.png,n03041632_32048.png,0.0,-0.37538385,-0.24698302,-0.0907931
alexnet_w3_mlp_simclrhn_probe2,1,179,NaN,cat,cat,1-3-10,0179_eid_dnn_1-3-10_cat_10_n02123159_3536.png,n02123159_3536.png,1.0,-0.42871037,-0.52855146,0.07059831
alexnet_w3_mlp_simclrhn_probe2,1,180,NaN,bear,bicycle,1-3-10,0180_eid_dnn_1-3-10_bicycle_10_n03792782_6716.png,n03792782_6716.png,0.0,-0.5711733,-0.114047095,-0.32323703
alexnet_w3_mlp_simclrhn_probe2,1,181,NaN,clock,clock,2-3-10,0181_eid_dnn_2-3-10_clock_10_n03196217_1754.png,n03196217_1754.png,1.0,1.2592686,0.85305905,0.28723356
alexnet_w3_mlp_simclrhn_probe2,1,182,NaN,bicycle,bicycle,1-3-10,0182_eid_dnn_1-3-10_bicycle_10_n03792782_5404.png,n03792782_5404.png,1.0,2.0596583,-0.49870783,1.809038
alexnet_w3_mlp_simclrhn_probe2,1,183,NaN,bear,dog,64-3-10,0183_eid_dnn_64-3-10_dog_10_n02096294_3014.png,n02096294_3014.png,0.0,-0.9395909,-0.089676656,-0.6009801
alexnet_w3_mlp_simclrhn_probe2,1,184,NaN,bear,bear,4-3-10,0184_eid_dnn_4-3-10_bear_10_n02134084_23382.png,n02134084_23382.png,1.0,-0.12856382,-0.14163281,0.009241171
alexnet_w3_mlp_simclrhn_probe2,1,185,NaN,oven,car,4-3-10,0185_eid_dnn_4-3-10_car_10_n03100240_310.png,n03100240_310.png,0.0,-0.2619079,0.14844131,-0.29016072
alexnet_w3_mlp_simclrhn_probe2,1,186,NaN,dog,dog,4-3-10,0186_eid_dnn_4-3-10_dog_10_n02093256_1653.png,n02093256_1653.png,1.0,-0.04431958,-0.07348406,0.020622402
alexnet_w3_mlp_simclrhn_probe2,1,187,NaN,elephant,elephant,4-3-10,0187_eid_dnn_4-3-10_elephant_10_n02504013_1740.png,n02504013_1740.png,1.0,7.5558314,2.5198257,3.5609941
alexnet_w3_mlp_simclrhn_probe2,1,188,NaN,oven,bear,64-3-10,0188_eid_dnn_64-3-10_bear_10_n02134084_34375.png,n02134084_34375.png,0.0,-0.967517,0.21357688,-0.83515954
alexnet_w3_mlp_simclrhn_probe2,1,189,NaN,cat,keyboard,8-3-10,0189_eid_dnn_8-3-10_keyboard_10_n03085013_23254.png,n03085013_23254.png,0.0,-1.6724275,-0.20768714,-1.0357279
alexnet_w3_mlp_simclrhn_probe2,1,190,NaN,oven,elephant,32-3-10,0190_eid_dnn_32-3-10_elephant_10_n02504013_1512.png,n02504013_1512.png,0.0,-1.0144557,0.46480346,-1.0459942
alexnet_w3_mlp_simclrhn_probe2,1,191,NaN,oven,car,8-3-10,0191_eid_dnn_8-3-10_car_10_n04285008_6454.png,n04285008_6454.png,0.0,-5.4859986,-0.03533414,-3.8542018
alexnet_w3_mlp_simclrhn_probe2,1,192,NaN,keyboard,keyboard,4-3-10,0192_eid_dnn_4-3-10_keyboard_10_n04505470_7721.png,n04505470_7721.png,1.0,6.1718817,1.1476481,3.5526698
alexnet_w3_mlp_simclrhn_probe2,1,193,NaN,bear,keyboard,16-3-10,0193_eid_dnn_16-3-10_keyboard_10_n04505470_3388.png,n04505470_3388.png,0.0,-4.915013,-0.06255681,-3.4312046
alexnet_w3_mlp_simclrhn_probe2,1,194,NaN,boat,boat,2-3-10,0194_eid_dnn_2-3-10_boat_10_n03344393_4221.png,n03344393_4221.png,1.0,3.1431122,1.4947861,1.1655425
alexnet_w3_mlp_simclrhn_probe2,1,195,NaN,oven,cat,128-3-10,0195_eid_dnn_128-3-10_cat_10_n02123597_14361.png,n02123597_14361.png,0.0,-1.5409611,-0.42581797,-0.78852534
alexnet_w3_mlp_simclrhn_probe2,1,196,NaN,oven,bird,128-3-10,0196_eid_dnn_128-3-10_bird_10_n02006656_10058.png,n02006656_10058.png,0.0,-2.5072532,0.08499512,-1.8329964
alexnet_w3_mlp_simclrhn_probe2,1,197,NaN,bear,clock,32-3-10,0197_eid_dnn_32-3-10_clock_10_n02708093_8104.png,n02708093_8104.png,0.0,-4.539425,-0.43930754,-2.8992207
alexnet_w3_mlp_simclrhn_probe2,1,198,NaN,bicycle,truck,1-3-10,0198_eid_dnn_1-3-10_truck_10_n03417042_3845.png,n03417042_3845.png,0.0,-0.41882712,2.138299,-1.8081611
alexnet_w3_mlp_simclrhn_probe2,1,199,NaN,oven,boat,64-3-10,0199_eid_dnn_64-3-10_boat_10_n03662601_36741.png,n03662601_36741.png,0.0,-2.7893517,0.8645782,-2.5837188
alexnet_w3_mlp_simclrhn_probe2,1,200,NaN,knife,knife,1-3-10,0200_eid_dnn_1-3-10_knife_10_n03041632_22570.png,n03041632_22570.png,1.0,0.734694,0.31044555,0.29998896
alexnet_w3_mlp_simclrhn_probe2,1,201,NaN,keyboard,keyboard,1-3-10,0201_eid_dnn_1-3-10_keyboard_10_n04505470_4109.png,n04505470_4109.png,1.0,5.4316974,0.57859766,3.43166
alexnet_w3_mlp_simclrhn_probe2,1,202,NaN,airplane,airplane,1-3-10,0202_eid_dnn_1-3-10_airplane_10_n02690373_10404.png,n02690373_10404.png,1.0,2.9441886,1.3525985,1.1254241
alexnet_w3_mlp_simclrhn_probe2,1,203,NaN,elephant,elephant,4-3-10,0203_eid_dnn_4-3-10_elephant_10_n02504458_4725.png,n02504458_4725.png,1.0,2.444161,0.8643886,1.1170678
alexnet_w3_mlp_simclrhn_probe2,1,204,NaN,airplane,airplane,1-3-10,0204_eid_dnn_1-3-10_airplane_10_n02690373_1325.png,n02690373_1325.png,1.0,5.310069,-0.33374405,3.9907787
alexnet_w3_mlp_simclrhn_probe2,1,205,NaN,bear,bicycle,8-3-10,0205_eid_dnn_8-3-10_bicycle_10_n03792782_6841.png,n03792782_6841.png,0.0,-3.6521413,0.7621092,-3.1213465
alexnet_w3_mlp_simclrhn_probe2,1,206,NaN,chair,chair,2-3-10,0206_eid_dnn_2-3-10_chair_10_n04099969_1669.png,n04099969_1669.png,1.0,2.0579355,0.27633536,1.2597816
alexnet_w3_mlp_simclrhn_probe2,1,207,NaN,oven,bottle,32-3-10,0207_eid_dnn_32-3-10_bottle_10_n03937543_5324.png,n03937543_5324.png,0.0,-1.1279348,-0.18988898,-0.6632986
alexnet_w3_mlp_simclrhn_probe2,1,208,NaN,bottle,bottle,4-3-10,0208_eid_dnn_4-3-10_bottle_10_n03937543_2143.png,n03937543_2143.png,1.0,2.9029243,-0.47788057,2.39059
alexnet_w3_mlp_simclrhn_probe2,1,209,NaN,bottle,bottle,2-3-10,0209_eid_dnn_2-3-10_bottle_10_n04557648_2575.png,n04557648_2575.png,1.0,0.8056486,0.5163775,0.20454557
alexnet_w3_mlp_simclrhn_probe2,1,210,NaN,bottle,knife,8-3-10,0210_eid_dnn_8-3-10_knife_10_n03041632_9671.png,n03041632_9671.png,0.0,-0.2260724,-0.08568499,-0.0992689
alexnet_w3_mlp_simclrhn_probe2,1,211,NaN,oven,bottle,16-3-10,0211_eid_dnn_16-3-10_bottle_10_n04560804_4145.png,n04560804_4145.png,0.0,-1.5083119,-0.0014537275,-1.0655096
alexnet_w3_mlp_simclrhn_probe2,1,212,NaN,oven,clock,64-3-10,0212_eid_dnn_64-3-10_clock_10_n03196217_1187.png,n03196217_1187.png,0.0,-2.5111585,0.05139664,-1.8120002
alexnet_w3_mlp_simclrhn_probe2,1,213,NaN,clock,clock,4-3-10,0213_eid_dnn_4-3-10_clock_10_n04548280_2111.png,n04548280_2111.png,1.0,1.5544227,-0.4037183,1.3846148
alexnet_w3_mlp_simclrhn_probe2,1,214,NaN,oven,dog,128-3-10,0214_eid_dnn_128-3-10_dog_10_n02086079_6578.png,n02086079_6578.png,0.0,-1.7999623,-0.48797333,-0.9277163
alexnet_w3_mlp_simclrhn_probe2,1,215,NaN,oven,car,16-3-10,0215_eid_dnn_16-3-10_car_10_n03100240_14045.png,n03100240_14045.png,0.0,-4.902431,0.6867726,-3.952164
alexnet_w3_mlp_simclrhn_probe2,1,216,NaN,oven,boat,8-3-10,0216_eid_dnn_8-3-10_boat_10_n02951358_30908.png,n02951358_30908.png,0.0,-1.681769,0.51248056,-1.5515689
alexnet_w3_mlp_simclrhn_probe2,1,217,NaN,elephant,oven,4-3-10,0217_eid_dnn_4-3-10_oven_10_n04111531_2199.png,n04111531_2199.png,0.0,-0.21445802,0.3113634,-0.37181193
alexnet_w3_mlp_simclrhn_probe2,1,218,NaN,bear,elephant,8-3-10,0218_eid_dnn_8-3-10_elephant_10_n02504013_5641.png,n02504013_5641.png,0.0,0.9085879,1.2627573,-0.25043562
alexnet_w3_mlp_simclrhn_probe2,1,219,NaN,keyboard,keyboard,2-3-10,0219_eid_dnn_2-3-10_keyboard_10_n03085013_6740.png,n03085013_6740.png,1.0,3.1657271,0.5720825,1.8339838
alexnet_w3_mlp_simclrhn_probe2,1,220,NaN,clock,clock,2-3-10,0220_eid_dnn_2-3-10_clock_10_n04548280_319.png,n04548280_319.png,1.0,4.3087296,-0.36733344,3.3064759
alexnet_w3_mlp_simclrhn_probe2,1,221,NaN,oven,knife,32-3-10,0221_eid_dnn_32-3-10_knife_10_n03041632_43506.png,n03041632_43506.png,0.0,-0.7829968,0.16944233,-0.67347616
alexnet_w3_mlp_simclrhn_probe2,1,222,NaN,bear,boat,16-3-10,0222_eid_dnn_16-3-10_boat_10_n03344393_9712.png,n03344393_9712.png,0.0,-0.61677754,0.0026607662,-0.43800902
alexnet_w3_mlp_simclrhn_probe2,1,223,NaN,knife,knife,1-3-10,0223_eid_dnn_1-3-10_knife_10_n03041632_9963.png,n03041632_9963.png,1.0,1.4405072,-0.73482203,1.53819
alexnet_w3_mlp_simclrhn_probe2,1,224,NaN,bird,bird,1-3-10,0224_eid_dnn_1-3-10_bird_10_n02002556_18595.png,n02002556_18595.png,1.0,0.09153691,-0.16556422,0.18179795
alexnet_w3_mlp_simclrhn_probe2,1,225,NaN,elephant,bird,4-3-10,0225_eid_dnn_4-3-10_bird_10_n01860187_20777.png,n01860187_20777.png,0.0,-1.9454397,0.081518054,-1.4332756
alexnet_w3_mlp_simclrhn_probe2,1,226,NaN,oven,keyboard,32-3-10,0226_eid_dnn_32-3-10_keyboard_10_n03085013_24626.png,n03085013_24626.png,0.0,-3.6605248,0.15457934,-2.6976862
alexnet_w3_mlp_simclrhn_probe2,1,227,NaN,oven,oven,16-3-10,0227_eid_dnn_16-3-10_oven_10_n04111531_7097.png,n04111531_7097.png,1.0,0.45918992,-0.4504053,0.64318097
alexnet_w3_mlp_simclrhn_probe2,1,228,NaN,bear,chair,16-3-10,0228_eid_dnn_16-3-10_chair_10_n02791124_12486.png,n02791124_12486.png,0.0,-3.5215433,0.86862373,-3.1043172
alexnet_w3_mlp_simclrhn_probe2,1,229,NaN,oven,cat,128-3-10,0229_eid_dnn_128-3-10_cat_10_n02123045_6629.png,n02123045_6629.png,0.0,-1.7191811,-0.56482583,-0.81625247
alexnet_w3_mlp_simclrhn_probe2,1,230,NaN,cat,bird,16-3-10,0230_eid_dnn_16-3-10_bird_10_n01819313_5388.png,n01819313_5388.png,0.0,-1.0624155,-0.6250951,-0.3092322
alexnet_w3_mlp_simclrhn_probe2,1,231,NaN,oven,truck,32-3-10,0231_eid_dnn_32-3-10_truck_10_n04467665_4940.png,n04467665_4940.png,0.0,-3.8745928,0.21845514,-2.894222
alexnet_w3_mlp_simclrhn_probe2,1,232,NaN,bottle,knife,8-3-10,0232_eid_dnn_8-3-10_knife_10_n03041632_20433.png,n03041632_20433.png,0.0,-1.0334358,-0.5124003,-0.36842772
alexnet_w3_mlp_simclrhn_probe2,1,233,NaN,clock,clock,2-3-10,0233_eid_dnn_2-3-10_clock_10_n04548280_6792.png,n04548280_6792.png,1.0,2.0908182,-0.086300895,1.5394557
alexnet_w3_mlp_simclrhn_probe2,1,234,NaN,oven,bicycle,4-3-10,0234_eid_dnn_4-3-10_bicycle_10_n02835271_5413.png,n02835271_5413.png,0.0,-0.456031,0.4574256,-0.64591134
alexnet_w3_mlp_simclrhn_probe2,1,235,NaN,car,car,2-3-10,0235_eid_dnn_2-3-10_car_10_n04285008_5005.png,n04285008_5005.png,1.0,4.9429507,2.1474898,1.9766895
alexnet_w3_mlp_simclrhn_probe2,1,236,NaN,oven,car,2-3-10,0236_eid_dnn_2-3-10_car_10_n02814533_88088.png,n02814533_88088.png,0.0,-1.6132959,0.255426,-1.321386
alexnet_w3_mlp_simclrhn_probe2,1,237,NaN,oven,elephant,64-3-10,0237_eid_dnn_64-3-10_elephant_10_n02504458_11345.png,n02504458_11345.png,0.0,-0.67870104,0.074708275,-0.53274083
alexnet_w3_mlp_simclrhn_probe2,1,238,NaN,elephant,elephant,16-3-10,0238_eid_dnn_16-3-10_elephant_10_n02504013_1900.png,n02504013_1900.png,1.0,0.76240164,0.60866195,0.10871038
alexnet_w3_mlp_simclrhn_probe2,1,239,NaN,oven,bear,128-3-10,0239_eid_dnn_128-3-10_bear_10_n02133161_5708.png,n02133161_5708.png,0.0,-1.0310912,-0.65794647,-0.2638532
alexnet_w3_mlp_simclrhn_probe2,1,240,NaN,cat,cat,8-3-10,0240_eid_dnn_8-3-10_cat_10_n02124075_5828.png,n02124075_5828.png,1.0,1.0847589,-0.33265176,1.0022607
alexnet_w3_mlp_simclrhn_probe2,1,241,NaN,oven,bird,64-3-10,0241_eid_dnn_64-3-10_bird_10_n01582220_9392.png,n01582220_9392.png,0.0,-1.1518795,0.30795112,-1.0322561
alexnet_w3_mlp_simclrhn_probe2,1,242,NaN,clock,clock,1-3-10,0242_eid_dnn_1-3-10_clock_10_n02708093_4597.png,n02708093_4597.png,1.0,6.1244087,0.51830417,3.9641144
alexnet_w3_mlp_simclrhn_probe2,1,243,NaN,oven,bicycle,128-3-10,0243_eid_dnn_128-3-10_bicycle_10_n03792782_26306.png,n03792782_26306.png,0.0,-1.2615259,-0.40110502,-0.6084094
alexnet_w3_mlp_simclrhn_probe2,1,244,NaN,oven,bear,32-3-10,0244_eid_dnn_32-3-10_bear_10_n02132136_1795.png,n02132136_1795.png,0.0,-0.041307673,0.45632413,-0.35187882
alexnet_w3_mlp_simclrhn_probe2,1,245,NaN,oven,clock,128-3-10,0245_eid_dnn_128-3-10_clock_10_n02708093_3638.png,n02708093_3638.png,0.0,-1.9867368,-0.48157075,-1.0643132
alexnet_w3_mlp_simclrhn_probe2,1,246,NaN,keyboard,keyboard,4-3-10,0246_eid_dnn_4-3-10_keyboard_10_n03085013_21272.png,n03085013_21272.png,1.0,0.3003255,-0.5964015,0.6340818
alexnet_w3_mlp_simclrhn_probe2,1,247,NaN,bottle,chair,8-3-10,0247_eid_dnn_8-3-10_chair_10_n02791124_16926.png,n02791124_16926.png,0.0,-1.8134375,0.14024088,-1.3814592
alexnet_w3_mlp_simclrhn_probe2,1,248,NaN,cat,knife,8-3-10,0248_eid_dnn_8-3-10_knife_10_n03041632_84048.png,n03041632_84048.png,0.0,-1.5250143,-0.26840734,-0.8885553
alexnet_w3_mlp_simclrhn_probe2,1,249,NaN,oven,oven,2-3-10,0249_eid_dnn_2-3-10_oven_10_n04111531_550.png,n04111531_550.png,1.0,1.3700091,0.24474673,0.7956807
alexnet_w3_mlp_simclrhn_probe2,1,250,NaN,oven,boat,128-3-10,0250_eid_dnn_128-3-10_boat_10_n03662601_21992.png,n03662601_21992.png,0.0,-3.1195142,-0.64212096,-1.7517816
alexnet_w3_mlp_simclrhn_probe2,1,251,NaN,bear,bear,32-3-10,0251_eid_dnn_32-3-10_bear_10_n02134418_280.png,n02134418_280.png,1.0,0.28447145,0.07821205,0.14584742
alexnet_w3_mlp_simclrhn_probe2,1,252,NaN,elephant,bottle,8-3-10,0252_eid_dnn_8-3-10_bottle_10_n04560804_8385.png,n04560804_8385.png,0.0,-1.5653112,-0.32617742,-0.87619996
alexnet_w3_mlp_simclrhn_probe2,1,253,NaN,oven,elephant,64-3-10,0253_eid_dnn_64-3-10_elephant_10_n02504013_4183.png,n02504013_4183.png,0.0,-0.7477553,-0.047313794,-0.49528694
alexnet_w3_mlp_simclrhn_probe2,1,254,NaN,bird,bird,1-3-10,0254_eid_dnn_1-3-10_bird_10_n01560419_19608.png,n01560419_19608.png,1.0,1.6459655,-1.3549107,2.12194
alexnet_w3_mlp_simclrhn_probe2,1,255,NaN,cat,bird,4-3-10,0255_eid_dnn_4-3-10_bird_10_n02056570_8865.png,n02056570_8865.png,0.0,-1.3079678,-0.41467094,-0.6316563
alexnet_w3_mlp_simclrhn_probe2,1,256,NaN,cat,cat,2-3-10,0256_eid_dnn_2-3-10_cat_10_n02123394_2553.png,n02123394_2553.png,1.0,1.0393666,-0.13512795,0.83049303
alexnet_w3_mlp_simclrhn_probe2,1,257,NaN,oven,bear,128-3-10,0257_eid_dnn_128-3-10_bear_10_n02132136_10113.png,n02132136_10113.png,0.0,-1.3894674,-0.24482399,-0.80938506
alexnet_w3_mlp_simclrhn_probe2,1,258,NaN,elephant,oven,8-3-10,0258_eid_dnn_8-3-10_oven_10_n04111531_2758.png,n04111531_2758.png,0.0,-0.14525962,0.46133155,-0.42892474
alexnet_w3_mlp_simclrhn_probe2,1,259,NaN,bear,keyboard,64-3-10,0259_eid_dnn_64-3-10_keyboard_10_n04505470_4824.png,n04505470_4824.png,0.0,-2.7733393,-0.61675096,-1.5249382
alexnet_w3_mlp_simclrhn_probe2,1,260,NaN,bicycle,bicycle,2-3-10,0260_eid_dnn_2-3-10_bicycle_10_n02835271_8654.png,n02835271_8654.png,1.0,0.5692545,-0.7265736,0.91628885
alexnet_w3_mlp_simclrhn_probe2,1,261,NaN,oven,keyboard,128-3-10,0261_eid_dnn_128-3-10_keyboard_10_n03085013_34973.png,n03085013_34973.png,0.0,-3.2847896,-0.42536736,-2.0219169
alexnet_w3_mlp_simclrhn_probe2,1,262,NaN,cat,cat,4-3-10,0262_eid_dnn_4-3-10_cat_10_n02123394_4228.png,n02123394_4228.png,1.0,0.8762576,-0.32442048,0.84900767
alexnet_w3_mlp_simclrhn_probe2,1,263,NaN,bear,keyboard,32-3-10,0263_eid_dnn_32-3-10_keyboard_10_n03085013_24416.png,n03085013_24416.png,0.0,-1.5700868,0.016640546,-1.1219857
alexnet_w3_mlp_simclrhn_probe2,1,264,NaN,cat,cat,8-3-10,0264_eid_dnn_8-3-10_cat_10_n02124075_5729.png,n02124075_5729.png,1.0,1.0784829,0.2797118,0.5648164
alexnet_w3_mlp_simclrhn_probe2,1,265,NaN,oven,clock,32-3-10,0265_eid_dnn_32-3-10_clock_10_n03196217_6357.png,n03196217_6357.png,0.0,-1.0810996,0.028960109,-0.78493077
alexnet_w3_mlp_simclrhn_probe2,1,266,NaN,oven,truck,128-3-10,0266_eid_dnn_128-3-10_truck_10_n03417042_29478.png,n03417042_29478.png,0.0,-2.77134,-0.41582388,-1.6656014
alexnet_w3_mlp_simclrhn_probe2,1,267,NaN,bird,chair,128-3-10,0267_eid_dnn_128-3-10_chair_10_n04099969_18678.png,n04099969_18678.png,0.0,-1.557735,-0.27423856,-0.907569
alexnet_w3_mlp_simclrhn_probe2,1,268,NaN,oven,clock,32-3-10,0268_eid_dnn_32-3-10_clock_10_n02708093_4286.png,n02708093_4286.png,0.0,-2.37858,0.87482977,-2.3005083
alexnet_w3_mlp_simclrhn_probe2,1,269,NaN,oven,car,128-3-10,0269_eid_dnn_128-3-10_car_10_n03100240_21971.png,n03100240_21971.png,0.0,-5.339557,-0.36541262,-3.5172513
alexnet_w3_mlp_simclrhn_probe2,1,270,NaN,car,car,1-3-10,0270_eid_dnn_1-3-10_car_10_n03100240_84.png,n03100240_84.png,1.0,4.6982656,4.1995673,0.3526329
alexnet_w3_mlp_simclrhn_probe2,1,271,NaN,cat,dog,1-3-10,0271_eid_dnn_1-3-10_dog_10_n02094433_3186.png,n02094433_3186.png,0.0,-0.4321982,0.11413852,-0.3863184
alexnet_w3_mlp_simclrhn_probe2,1,272,NaN,dog,dog,4-3-10,0272_eid_dnn_4-3-10_dog_10_n02088364_10195.png,n02088364_10195.png,1.0,0.9399167,-0.4146472,0.9578213
alexnet_w3_mlp_simclrhn_probe2,1,273,NaN,bear,knife,16-3-10,0273_eid_dnn_16-3-10_knife_10_n03041632_11358.png,n03041632_11358.png,0.0,-2.2688274,0.17547196,-1.7283808
alexnet_w3_mlp_simclrhn_probe2,1,274,NaN,oven,bird,64-3-10,0274_eid_dnn_64-3-10_bird_10_n01531178_10630.png,n01531178_10630.png,0.0,-0.38210827,-0.30143034,-0.05704791
alexnet_w3_mlp_simclrhn_probe2,1,275,NaN,elephant,elephant,1-3-10,0275_eid_dnn_1-3-10_elephant_10_n02504458_4058.png,n02504458_4058.png,1.0,2.5527015,0.6632181,1.3360666
alexnet_w3_mlp_simclrhn_probe2,1,276,NaN,oven,keyboard,32-3-10,0276_eid_dnn_32-3-10_keyboard_10_n03085013_24336.png,n03085013_24336.png,0.0,-3.0774045,-0.09194896,-2.1110358
alexnet_w3_mlp_simclrhn_probe2,1,277,NaN,bottle,clock,4-3-10,0277_eid_dnn_4-3-10_clock_10_n02708093_386.png,n02708093_386.png,0.0,0.60900086,0.869301,-0.18406
alexnet_w3_mlp_simclrhn_probe2,1,278,NaN,elephant,chair,4-3-10,0278_eid_dnn_4-3-10_chair_10_n04429376_16370.png,n04429376_16370.png,0.0,-1.6011842,0.9982715,-1.8380929
alexnet_w3_mlp_simclrhn_probe2,1,279,NaN,knife,bottle,1-3-10,0279_eid_dnn_1-3-10_bottle_10_n04557648_10167.png,n04557648_10167.png,0.0,-0.44909176,-0.019781679,-0.30356807
alexnet_w3_mlp_simclrhn_probe2,1,280,NaN,bicycle,bicycle,1-3-10,0280_eid_dnn_1-3-10_bicycle_10_n02835271_15717.png,n02835271_15717.png,1.0,3.8134432,-0.14975941,2.8024075
alexnet_w3_mlp_simclrhn_probe2,1,281,NaN,oven,car,128-3-10,0281_eid_dnn_128-3-10_car_10_n03100240_22593.png,n03100240_22593.png,0.0,-5.112044,-0.0061624274,-3.6104033
alexnet_w3_mlp_simclrhn_probe2,1,282,NaN,car,car,1-3-10,0282_eid_dnn_1-3-10_car_10_n04285008_11240.png,n04285008_11240.png,1.0,5.4284325,1.6984603,2.6374886
alexnet_w3_mlp_simclrhn_probe2,1,283,NaN,boat,boat,1-3-10,0283_eid_dnn_1-3-10_boat_10_n03344393_3337.png,n03344393_3337.png,1.0,1.3206712,1.0393156,0.19894847
alexnet_w3_mlp_simclrhn_probe2,1,284,NaN,oven,bottle,128-3-10,0284_eid_dnn_128-3-10_bottle_10_n04579145_1660.png,n04579145_1660.png,0.0,-1.3684685,-0.26723984,-0.7786863
alexnet_w3_mlp_simclrhn_probe2,1,285,NaN,oven,dog,64-3-10,0285_eid_dnn_64-3-10_dog_10_n02091244_9305.png,n02091244_9305.png,0.0,-1.4403825,0.12399323,-1.1061807
alexnet_w3_mlp_simclrhn_probe2,1,286,NaN,oven,chair,32-3-10,0286_eid_dnn_32-3-10_chair_10_n03376595_3912.png,n03376595_3912.png,0.0,-1.8101064,0.15550272,-1.3898956
alexnet_w3_mlp_simclrhn_probe2,1,287,NaN,oven,bottle,64-3-10,0287_eid_dnn_64-3-10_bottle_10_n02823428_6793.png,n02823428_6793.png,0.0,-1.7597641,0.1963363,-1.3831718
alexnet_w3_mlp_simclrhn_probe2,1,288,NaN,bear,dog,32-3-10,0288_eid_dnn_32-3-10_dog_10_n02093754_4949.png,n02093754_4949.png,0.0,-1.1830608,0.1245827,-0.9246435
alexnet_w3_mlp_simclrhn_probe2,1,289,NaN,oven,dog,128-3-10,0289_eid_dnn_128-3-10_dog_10_n02105855_10394.png,n02105855_10394.png,0.0,-1.8928288,0.04575587,-1.3707864
alexnet_w3_mlp_simclrhn_probe2,1,290,NaN,knife,clock,2-3-10,0290_eid_dnn_2-3-10_clock_10_n04548280_9533.png,n04548280_9533.png,0.0,-0.42534003,0.040434103,-0.32935205
alexnet_w3_mlp_simclrhn_probe2,1,291,NaN,elephant,cat,1-3-10,0291_eid_dnn_1-3-10_cat_10_n02125311_7527.png,n02125311_7527.png,0.0,-0.13052607,1.4526081,-1.119445
alexnet_w3_mlp_simclrhn_probe2,1,292,NaN,car,car,4-3-10,0292_eid_dnn_4-3-10_car_10_n03100240_4537.png,n03100240_4537.png,1.0,0.49505892,-0.0107371295,0.35765183
alexnet_w3_mlp_simclrhn_probe2,1,293,NaN,bear,bicycle,8-3-10,0293_eid_dnn_8-3-10_bicycle_10_n03792782_11609.png,n03792782_11609.png,0.0,-4.2856174,0.52792764,-3.4036906
alexnet_w3_mlp_simclrhn_probe2,1,294,NaN,oven,oven,128-3-10,0294_eid_dnn_128-3-10_oven_10_n04111531_6134.png,n04111531_6134.png,1.0,-0.2577359,-0.81781405,0.39603508
alexnet_w3_mlp_simclrhn_probe2,1,295,NaN,bottle,bottle,8-3-10,0295_eid_dnn_8-3-10_bottle_10_n04591713_715.png,n04591713_715.png,1.0,-1.0778391,-1.886334,0.57169217
alexnet_w3_mlp_simclrhn_probe2,1,296,NaN,oven,elephant,32-3-10,0296_eid_dnn_32-3-10_elephant_10_n02504458_7818.png,n02504458_7818.png,0.0,-0.3702016,0.2425408,-0.43327433
alexnet_w3_mlp_simclrhn_probe2,1,297,NaN,oven,airplane,64-3-10,0297_eid_dnn_64-3-10_airplane_10_n02690373_7107.png,n02690373_7107.png,0.0,-2.207798,-0.1792481,-1.4344014
alexnet_w3_mlp_simclrhn_probe2,1,298,NaN,bear,car,32-3-10,0298_eid_dnn_32-3-10_car_10_n04285008_8363.png,n04285008_8363.png,0.0,-3.9815013,-0.1670767,-2.6972055
alexnet_w3_mlp_simclrhn_probe2,1,299,NaN,oven,clock,4-3-10,0299_eid_dnn_4-3-10_clock_10_n04548280_4249.png,n04548280_4249.png,0.0,-2.4451132,0.16610098,-1.8464073
alexnet_w3_mlp_simclrhn_probe2,1,300,NaN,oven,cat,128-3-10,0300_eid_dnn_128-3-10_cat_10_n02123597_7269.png,n02123597_7269.png,0.0,-0.67335147,-0.09927624,-0.4059325
alexnet_w3_mlp_simclrhn_probe2,1,301,NaN,bicycle,bicycle,1-3-10,0301_eid_dnn_1-3-10_bicycle_10_n03792782_4864.png,n03792782_4864.png,1.0,5.5027423,0.06471521,3.8452659
alexnet_w3_mlp_simclrhn_probe2,1,302,NaN,bear,bear,2-3-10,0302_eid_dnn_2-3-10_bear_10_n02132136_8011.png,n02132136_8011.png,1.0,1.4285061,-0.11190689,1.0892365
alexnet_w3_mlp_simclrhn_probe2,1,303,NaN,oven,boat,128-3-10,0303_eid_dnn_128-3-10_boat_10_n02951358_4810.png,n02951358_4810.png,0.0,-3.1146588,-0.5360363,-1.8233615
alexnet_w3_mlp_simclrhn_probe2,1,304,NaN,oven,clock,128-3-10,0304_eid_dnn_128-3-10_clock_10_n03196217_5137.png,n03196217_5137.png,0.0,-2.2593834,-0.16809323,-1.4787655
alexnet_w3_mlp_simclrhn_probe2,1,305,NaN,bicycle,bicycle,2-3-10,0305_eid_dnn_2-3-10_bicycle_10_n02835271_158.png,n02835271_158.png,1.0,2.7040884,-0.31360734,2.1338332
alexnet_w3_mlp_simclrhn_probe2,1,306,NaN,oven,bear,64-3-10,0306_eid_dnn_64-3-10_bear_10_n02132136_11217.png,n02132136_11217.png,0.0,-0.7801341,-0.01132752,-0.54362833
alexnet_w3_mlp_simclrhn_probe2,1,307,NaN,oven,dog,64-3-10,0307_eid_dnn_64-3-10_dog_10_n02092002_6122.png,n02092002_6122.png,0.0,-1.3468654,-0.03508766,-0.92756695
alexnet_w3_mlp_simclrhn_probe2,1,308,NaN,oven,chair,32-3-10,0308_eid_dnn_32-3-10_chair_10_n04429376_29223.png,n04429376_29223.png,0.0,-3.136446,0.4472024,-2.534022
alexnet_w3_mlp_simclrhn_probe2,1,309,NaN,oven,bear,128-3-10,0309_eid_dnn_128-3-10_bear_10_n02133161_5723.png,n02133161_5723.png,0.0,-1.5641531,-0.7064785,-0.60646755
alexnet_w3_mlp_simclrhn_probe2,1,310,NaN,oven,dog,128-3-10,0310_eid_dnn_128-3-10_dog_10_n02100583_1343.png,n02100583_1343.png,0.0,-1.7588446,-0.32110417,-1.016636
alexnet_w3_mlp_simclrhn_probe2,1,311,NaN,oven,boat,128-3-10,0311_eid_dnn_128-3-10_boat_10_n03344393_6352.png,n03344393_6352.png,0.0,-2.8974392,0.3218985,-2.2764156
alexnet_w3_mlp_simclrhn_probe2,1,312,NaN,bird,bird,4-3-10,0312_eid_dnn_4-3-10_bird_10_n01560419_8247.png,n01560419_8247.png,1.0,0.6591113,-1.5907074,1.5908622
alexnet_w3_mlp_simclrhn_probe2,1,313,NaN,dog,dog,4-3-10,0313_eid_dnn_4-3-10_dog_10_n02105251_8210.png,n02105251_8210.png,1.0,0.7384534,0.6885824,0.0352641
alexnet_w3_mlp_simclrhn_probe2,1,314,NaN,oven,oven,128-3-10,0314_eid_dnn_128-3-10_oven_10_n04111531_9702.png,n04111531_9702.png,1.0,-0.27767807,-0.5805282,0.21414739
alexnet_w3_mlp_simclrhn_probe2,1,315,NaN,oven,bear,8-3-10,0315_eid_dnn_8-3-10_bear_10_n02133161_12161.png,n02133161_12161.png,0.0,-0.010724637,0.16773234,-0.12618814
alexnet_w3_mlp_simclrhn_probe2,1,316,NaN,bear,bear,8-3-10,0316_eid_dnn_8-3-10_bear_10_n02133161_13556.png,n02133161_13556.png,1.0,1.0537767,0.28129178,0.54622936
alexnet_w3_mlp_simclrhn_probe2,1,317,NaN,oven,bear,128-3-10,0317_eid_dnn_128-3-10_bear_10_n02134084_635.png,n02134084_635.png,0.0,-1.1360384,-0.6823352,-0.32081664
alexnet_w3_mlp_simclrhn_probe2,1,318,NaN,oven,chair,128-3-10,0318_eid_dnn_128-3-10_chair_10_n02791124_6956.png,n02791124_6956.png,0.0,-3.273925,-0.41398475,-2.0222833
alexnet_w3_mlp_simclrhn_probe2,1,319,NaN,oven,car,4-3-10,0319_eid_dnn_4-3-10_car_10_n02814533_18077.png,n02814533_18077.png,0.0,-0.8360432,0.061912403,-0.6349505
alexnet_w3_mlp_simclrhn_probe2,1,320,NaN,knife,dog,2-3-10,0320_eid_dnn_2-3-10_dog_10_n02088364_11105.png,n02088364_11105.png,0.0,-1.629376,-0.05009914,-1.1167175
alexnet_w3_mlp_simclrhn_probe2,1,321,NaN,oven,airplane,64-3-10,0321_eid_dnn_64-3-10_airplane_10_n02690373_1053.png,n02690373_1053.png,0.0,-3.37821,-0.0028551146,-2.3867364
alexnet_w3_mlp_simclrhn_probe2,1,322,NaN,oven,car,16-3-10,0322_eid_dnn_16-3-10_car_10_n02814533_96407.png,n02814533_96407.png,0.0,-5.439537,1.4937968,-4.9026074
alexnet_w3_mlp_simclrhn_probe2,1,323,NaN,oven,chair,4-3-10,0323_eid_dnn_4-3-10_chair_10_n04099969_31891.png,n04099969_31891.png,0.0,0.44838196,1.5518134,-0.7802439
alexnet_w3_mlp_simclrhn_probe2,1,324,NaN,bear,bottle,16-3-10,0324_eid_dnn_16-3-10_bottle_10_n04557648_4470.png,n04557648_4470.png,0.0,-1.5276271,-0.2802401,-0.88203585
alexnet_w3_mlp_simclrhn_probe2,1,325,NaN,bottle,clock,8-3-10,0325_eid_dnn_8-3-10_clock_10_n02708093_2588.png,n02708093_2588.png,0.0,-2.2663987,-0.69397134,-1.111874
alexnet_w3_mlp_simclrhn_probe2,1,326,NaN,oven,elephant,128-3-10,0326_eid_dnn_128-3-10_elephant_10_n02504458_6696.png,n02504458_6696.png,0.0,-1.1002638,-0.6265023,-0.335
alexnet_w3_mlp_simclrhn_probe2,1,327,NaN,oven,elephant,32-3-10,0327_eid_dnn_32-3-10_elephant_10_n02504013_4071.png,n02504013_4071.png,0.0,-0.5587085,0.013583057,-0.40467125
alexnet_w3_mlp_simclrhn_probe2,1,328,NaN,knife,keyboard,8-3-10,0328_eid_dnn_8-3-10_keyboard_10_n03085013_8339.png,n03085013_8339.png,0.0,-1.5985334,-0.24003518,-0.9606033
alexnet_w3_mlp_simclrhn_probe2,1,329,NaN,oven,elephant,64-3-10,0329_eid_dnn_64-3-10_elephant_10_n02504013_6976.png,n02504013_6976.png,0.0,-0.69237345,-0.36605668,-0.2307408
alexnet_w3_mlp_simclrhn_probe2,1,330,NaN,bear,boat,4-3-10,0330_eid_dnn_4-3-10_boat_10_n02951358_9146.png,n02951358_9146.png,0.0,-2.5961442,1.1728287,-2.6650662
alexnet_w3_mlp_simclrhn_probe2,1,331,NaN,bear,boat,32-3-10,0331_eid_dnn_32-3-10_boat_10_n04273569_4087.png,n04273569_4087.png,0.0,-1.1185782,-0.35272452,-0.5415403
alexnet_w3_mlp_simclrhn_probe2,1,332,NaN,oven,oven,64-3-10,0332_eid_dnn_64-3-10_oven_10_n04111531_2922.png,n04111531_2922.png,1.0,-0.21189353,-0.37650022,0.11639451
alexnet_w3_mlp_simclrhn_probe2,1,333,NaN,bear,bear,4-3-10,0333_eid_dnn_4-3-10_bear_10_n02133161_5325.png,n02133161_5325.png,1.0,1.9976256,0.781286,0.860082
alexnet_w3_mlp_simclrhn_probe2,1,334,NaN,oven,bottle,64-3-10,0334_eid_dnn_64-3-10_bottle_10_n04557648_3109.png,n04557648_3109.png,0.0,-1.3044641,-0.031844303,-0.89987814
alexnet_w3_mlp_simclrhn_probe2,1,335,NaN,oven,oven,1-3-10,0335_eid_dnn_1-3-10_oven_10_n04111531_15912.png,n04111531_15912.png,1.0,3.0340238,0.14111246,2.045597
alexnet_w3_mlp_simclrhn_probe2,1,336,NaN,oven,truck,16-3-10,0336_eid_dnn_16-3-10_truck_10_n03417042_17099.png,n03417042_17099.png,0.0,-5.3220625,0.22851998,-3.9248545
alexnet_w3_mlp_simclrhn_probe2,1,337,NaN,car,car,2-3-10,0337_eid_dnn_2-3-10_car_10_n04285008_8641.png,n04285008_8641.png,1.0,1.993797,0.25956273,1.2262888
alexnet_w3_mlp_simclrhn_probe2,1,338,NaN,bear,keyboard,32-3-10,0338_eid_dnn_32-3-10_keyboard_10_n04505470_524.png,n04505470_524.png,0.0,-4.244549,-0.60506237,-2.5735054
alexnet_w3_mlp_simclrhn_probe2,1,339,NaN,bear,bottle,8-3-10,0339_eid_dnn_8-3-10_bottle_10_n04557648_5935.png,n04557648_5935.png,0.0,-2.1001196,0.7053382,-1.9837583
alexnet_w3_mlp_simclrhn_probe2,1,340,NaN,bottle,bottle,1-3-10,0340_eid_dnn_1-3-10_bottle_10_n04591713_3776.png,n04591713_3776.png,1.0,1.7603987,0.77606475,0.69602925
alexnet_w3_mlp_simclrhn_probe2,1,341,NaN,truck,truck,2-3-10,0341_eid_dnn_2-3-10_truck_10_n03796401_3651.png,n03796401_3651.png,1.0,4.3779697,0.41761193,2.800396
alexnet_w3_mlp_simclrhn_probe2,1,342,NaN,oven,bicycle,128-3-10,0342_eid_dnn_128-3-10_bicycle_10_n03792782_15757.png,n03792782_15757.png,0.0,-0.92533094,-0.36987126,-0.3927693
alexnet_w3_mlp_simclrhn_probe2,1,343,NaN,oven,cat,32-3-10,0343_eid_dnn_32-3-10_cat_10_n02123597_8698.png,n02123597_8698.png,0.0,-0.8363387,0.7787653,-1.142051
alexnet_w3_mlp_simclrhn_probe2,1,344,NaN,airplane,boat,1-3-10,0344_eid_dnn_1-3-10_boat_10_n03662601_273.png,n03662601_273.png,0.0,1.4324043,1.4867735,-0.03844484
alexnet_w3_mlp_simclrhn_probe2,1,345,NaN,knife,knife,1-3-10,0345_eid_dnn_1-3-10_knife_10_n03041632_24376.png,n03041632_24376.png,1.0,0.63267136,-0.7865179,1.0035183
alexnet_w3_mlp_simclrhn_probe2,1,346,NaN,chair,keyboard,1-3-10,0346_eid_dnn_1-3-10_keyboard_10_n04505470_2608.png,n04505470_2608.png,0.0,-0.7385233,0.22251588,-0.6795573
alexnet_w3_mlp_simclrhn_probe2,1,347,NaN,bear,boat,16-3-10,0347_eid_dnn_16-3-10_boat_10_n04273569_10665.png,n04273569_10665.png,0.0,-0.7173163,-0.028081594,-0.48736256
alexnet_w3_mlp_simclrhn_probe2,1,348,NaN,oven,bear,64-3-10,0348_eid_dnn_64-3-10_bear_10_n02133161_5267.png,n02133161_5267.png,0.0,-0.47499165,0.015123308,-0.3465636
alexnet_w3_mlp_simclrhn_probe2,1,349,NaN,bear,bear,128-3-10,0349_eid_dnn_128-3-10_bear_10_n02133161_5020.png,n02133161_5020.png,1.0,-0.2851854,-0.4361048,0.10671614
alexnet_w3_mlp_simclrhn_probe2,1,350,NaN,oven,knife,128-3-10,0350_eid_dnn_128-3-10_knife_10_n03041632_21723.png,n03041632_21723.png,0.0,-2.2198303,0.311146,-1.7896706
alexnet_w3_mlp_simclrhn_probe2,1,351,NaN,oven,boat,32-3-10,0351_eid_dnn_32-3-10_boat_10_n02951358_31101.png,n02951358_31101.png,0.0,-2.118688,0.188088,-1.631137
alexnet_w3_mlp_simclrhn_probe2,1,352,NaN,oven,dog,128-3-10,0352_eid_dnn_128-3-10_dog_10_n02102177_4180.png,n02102177_4180.png,0.0,-1.3238978,-0.5478425,-0.548754
alexnet_w3_mlp_simclrhn_probe2,1,353,NaN,bottle,bottle,4-3-10,0353_eid_dnn_4-3-10_bottle_10_n04579145_4186.png,n04579145_4186.png,1.0,3.4359562,0.36905327,2.1686277
alexnet_w3_mlp_simclrhn_probe2,1,354,NaN,bear,bicycle,64-3-10,0354_eid_dnn_64-3-10_bicycle_10_n03792782_2246.png,n03792782_2246.png,0.0,-1.0240157,0.12271145,-0.8108585
alexnet_w3_mlp_simclrhn_probe2,1,355,NaN,dog,dog,1-3-10,0355_eid_dnn_1-3-10_dog_10_n02110958_1526.png,n02110958_1526.png,1.0,-0.14721693,-1.8727471,1.2201341
alexnet_w3_mlp_simclrhn_probe2,1,356,NaN,oven,keyboard,128-3-10,0356_eid_dnn_128-3-10_keyboard_10_n04505470_255.png,n04505470_255.png,0.0,-4.3012714,-0.5446156,-2.6563568
alexnet_w3_mlp_simclrhn_probe2,1,357,NaN,bear,elephant,4-3-10,0357_eid_dnn_4-3-10_elephant_10_n02504458_1933.png,n02504458_1933.png,0.0,0.3124866,0.45109513,-0.09801105
alexnet_w3_mlp_simclrhn_probe2,1,358,NaN,cat,cat,2-3-10,0358_eid_dnn_2-3-10_cat_10_n02123159_5749.png,n02123159_5749.png,1.0,3.274247,-0.9552595,2.990713
alexnet_w3_mlp_simclrhn_probe2,1,359,NaN,oven,airplane,128-3-10,0359_eid_dnn_128-3-10_airplane_10_n02690373_2967.png,n02690373_2967.png,0.0,-2.8798783,-0.7454706,-1.5092542
alexnet_w3_mlp_simclrhn_probe2,1,360,NaN,cat,chair,8-3-10,0360_eid_dnn_8-3-10_chair_10_n04099969_72.png,n04099969_72.png,0.0,-3.3660932,-0.031003883,-2.3582642
alexnet_w3_mlp_simclrhn_probe2,1,361,NaN,oven,cat,32-3-10,0361_eid_dnn_32-3-10_cat_10_n02123045_4089.png,n02123045_4089.png,0.0,-0.5029827,0.2971452,-0.5657759
alexnet_w3_mlp_simclrhn_probe2,1,362,NaN,oven,bird,128-3-10,0362_eid_dnn_128-3-10_bird_10_n01616318_13293.png,n01616318_13293.png,0.0,-2.3932722,-0.33024418,-1.458781
alexnet_w3_mlp_simclrhn_probe2,1,363,NaN,cat,cat,4-3-10,0363_eid_dnn_4-3-10_cat_10_n02124075_13719.png,n02124075_13719.png,1.0,0.5016141,-0.39368102,0.6330693
alexnet_w3_mlp_simclrhn_probe2,1,364,NaN,bear,oven,32-3-10,0364_eid_dnn_32-3-10_oven_10_n04111531_22466.png,n04111531_22466.png,0.0,-0.90541595,0.13947645,-0.73885053
alexnet_w3_mlp_simclrhn_probe2,1,365,NaN,oven,airplane,128-3-10,0365_eid_dnn_128-3-10_airplane_10_n02690373_2525.png,n02690373_2525.png,0.0,-4.524957,-0.35270846,-2.9502256
alexnet_w3_mlp_simclrhn_probe2,1,366,NaN,cat,cat,1-3-10,0366_eid_dnn_1-3-10_cat_10_n02124075_5369.png,n02124075_5369.png,1.0,1.324729,0.19128197,0.801468
alexnet_w3_mlp_simclrhn_probe2,1,367,NaN,oven,bird,64-3-10,0367_eid_dnn_64-3-10_bird_10_n01843065_4182.png,n01843065_4182.png,0.0,-0.6858487,-0.19344836,-0.34817964
alexnet_w3_mlp_simclrhn_probe2,1,368,NaN,truck,truck,2-3-10,0368_eid_dnn_2-3-10_truck_10_n03796401_6472.png,n03796401_6472.png,1.0,0.668299,0.23016751,0.30980578
alexnet_w3_mlp_simclrhn_probe2,1,369,NaN,oven,airplane,64-3-10,0369_eid_dnn_64-3-10_airplane_10_n02690373_3090.png,n02690373_3090.png,0.0,-2.989966,0.31537825,-2.3372312
alexnet_w3_mlp_simclrhn_probe2,1,370,NaN,oven,bear,64-3-10,0370_eid_dnn_64-3-10_bear_10_n02134418_2964.png,n02134418_2964.png,0.0,-0.11549783,0.23167181,-0.245486
alexnet_w3_mlp_simclrhn_probe2,1,371,NaN,elephant,elephant,16-3-10,0371_eid_dnn_16-3-10_elephant_10_n02504013_6904.png,n02504013_6904.png,1.0,1.1074231,1.0951078,0.008708213
alexnet_w3_mlp_simclrhn_probe2,1,372,NaN,oven,bottle,32-3-10,0372_eid_dnn_32-3-10_bottle_10_n02823428_13488.png,n02823428_13488.png,0.0,-2.1071994,0.33142915,-1.724371
alexnet_w3_mlp_simclrhn_probe2,1,373,NaN,car,car,1-3-10,0373_eid_dnn_1-3-10_car_10_n02814533_49499.png,n02814533_49499.png,1.0,9.33117,4.388815,3.494773
alexnet_w3_mlp_simclrhn_probe2,1,374,NaN,bird,clock,64-3-10,0374_eid_dnn_64-3-10_clock_10_n03196217_1000.png,n03196217_1000.png,0.0,-2.1403618,-0.63846093,-1.0620043
alexnet_w3_mlp_simclrhn_probe2,1,375,NaN,bear,boat,16-3-10,0375_eid_dnn_16-3-10_boat_10_n04612504_13446.png,n04612504_13446.png,0.0,-1.0040579,0.48845947,-1.0553691
alexnet_w3_mlp_simclrhn_probe2,1,376,NaN,oven,cat,8-3-10,0376_eid_dnn_8-3-10_cat_10_n02123159_7239.png,n02123159_7239.png,0.0,-0.16936857,0.5370934,-0.49954405
alexnet_w3_mlp_simclrhn_probe2,1,377,NaN,bear,airplane,8-3-10,0377_eid_dnn_8-3-10_airplane_10_n02690373_7499.png,n02690373_7499.png,0.0,-0.7511682,0.001778882,-0.532414
alexnet_w3_mlp_simclrhn_probe2,1,378,NaN,oven,dog,64-3-10,0378_eid_dnn_64-3-10_dog_10_n02100877_8862.png,n02100877_8862.png,0.0,-1.11612,0.08788735,-0.8513618
alexnet_w3_mlp_simclrhn_probe2,1,379,NaN,keyboard,keyboard,2-3-10,0379_eid_dnn_2-3-10_keyboard_10_n03085013_7152.png,n03085013_7152.png,1.0,3.4180598,0.1401359,2.3178422
alexnet_w3_mlp_simclrhn_probe2,1,380,NaN,bear,bottle,32-3-10,0380_eid_dnn_32-3-10_bottle_10_n03937543_3344.png,n03937543_3344.png,0.0,-2.1935005,-0.11498533,-1.4697323
alexnet_w3_mlp_simclrhn_probe2,1,381,NaN,oven,bicycle,64-3-10,0381_eid_dnn_64-3-10_bicycle_10_n02835271_1721.png,n02835271_1721.png,0.0,-1.4754927,-0.10126694,-0.97172433
alexnet_w3_mlp_simclrhn_probe2,1,382,NaN,boat,boat,2-3-10,0382_eid_dnn_2-3-10_boat_10_n04273569_7039.png,n04273569_7039.png,1.0,3.0337627,-0.6856054,2.6299903
alexnet_w3_mlp_simclrhn_probe2,1,383,NaN,airplane,airplane,1-3-10,0383_eid_dnn_1-3-10_airplane_10_n02690373_5790.png,n02690373_5790.png,1.0,4.5618095,-0.16264433,3.3406935
alexnet_w3_mlp_simclrhn_probe2,1,384,NaN,elephant,bird,2-3-10,0384_eid_dnn_2-3-10_bird_10_n02007558_4629.png,n02007558_4629.png,0.0,-0.029310314,0.6828739,-0.5035903
alexnet_w3_mlp_simclrhn_probe2,1,385,NaN,airplane,airplane,8-3-10,0385_eid_dnn_8-3-10_airplane_10_n02690373_2313.png,n02690373_2313.png,1.0,0.8259554,-0.3789546,0.85200006
alexnet_w3_mlp_simclrhn_probe2,1,386,NaN,car,car,2-3-10,0386_eid_dnn_2-3-10_car_10_n02814533_65093.png,n02814533_65093.png,1.0,6.909866,4.091455,1.9929174
alexnet_w3_mlp_simclrhn_probe2,1,387,NaN,bicycle,bicycle,2-3-10,0387_eid_dnn_2-3-10_bicycle_10_n03792782_4559.png,n03792782_4559.png,1.0,1.9088576,-1.5824733,2.4687438
alexnet_w3_mlp_simclrhn_probe2,1,388,NaN,oven,oven,2-3-10,0388_eid_dnn_2-3-10_oven_10_n04111531_16696.png,n04111531_16696.png,1.0,3.5884757,0.6957387,2.0454738
alexnet_w3_mlp_simclrhn_probe2,1,389,NaN,oven,boat,32-3-10,0389_eid_dnn_32-3-10_boat_10_n04273569_5593.png,n04273569_5593.png,0.0,-1.5222967,0.08535991,-1.1367849
alexnet_w3_mlp_simclrhn_probe2,1,390,NaN,oven,bottle,128-3-10,0390_eid_dnn_128-3-10_bottle_10_n03937543_6624.png,n03937543_6624.png,0.0,-1.0875889,-0.2562024,-0.58787906
alexnet_w3_mlp_simclrhn_probe2,1,391,NaN,airplane,airplane,1-3-10,0391_eid_dnn_1-3-10_airplane_10_n02690373_12436.png,n02690373_12436.png,1.0,7.0757504,2.6214197,3.1496873
alexnet_w3_mlp_simclrhn_probe2,1,392,NaN,bird,bird,2-3-10,0392_eid_dnn_2-3-10_bird_10_n01828970_6924.png,n01828970_6924.png,1.0,1.5705453,1.176748,0.27845672
alexnet_w3_mlp_simclrhn_probe2,1,393,NaN,airplane,airplane,4-3-10,0393_eid_dnn_4-3-10_airplane_10_n02690373_9605.png,n02690373_9605.png,1.0,0.5748963,-1.3150674,1.3364061
alexnet_w3_mlp_simclrhn_probe2,1,394,NaN,oven,truck,128-3-10,0394_eid_dnn_128-3-10_truck_10_n03796401_1335.png,n03796401_1335.png,0.0,-3.5544097,-0.24318111,-2.3413923
alexnet_w3_mlp_simclrhn_probe2,1,395,NaN,oven,chair,64-3-10,0395_eid_dnn_64-3-10_chair_10_n04429376_10476.png,n04429376_10476.png,0.0,-4.297024,-0.019064486,-3.024974
alexnet_w3_mlp_simclrhn_probe2,1,396,NaN,bottle,bottle,1-3-10,0396_eid_dnn_1-3-10_bottle_10_n04560804_32760.png,n04560804_32760.png,1.0,2.9049814,-0.82540274,2.63778
alexnet_w3_mlp_simclrhn_probe2,1,397,NaN,oven,airplane,32-3-10,0397_eid_dnn_32-3-10_airplane_10_n02690373_10817.png,n02690373_10817.png,0.0,-2.7787056,-0.30528253,-1.7489742
alexnet_w3_mlp_simclrhn_probe2,1,398,NaN,oven,car,32-3-10,0398_eid_dnn_32-3-10_car_10_n03100240_5946.png,n03100240_5946.png,0.0,-5.8115444,0.8096671,-4.681904
alexnet_w3_mlp_simclrhn_probe2,1,399,NaN,oven,clock,64-3-10,0399_eid_dnn_64-3-10_clock_10_n02708093_2875.png,n02708093_2875.png,0.0,-3.848706,0.020955935,-2.7362642
alexnet_w3_mlp_simclrhn_probe2,1,400,NaN,bear,bear,2-3-10,0400_eid_dnn_2-3-10_bear_10_n02133161_2456.png,n02133161_2456.png,1.0,2.8494787,1.1013658,1.2361025
alexnet_w3_mlp_simclrhn_probe2,1,401,NaN,bear,bird,8-3-10,0401_eid_dnn_8-3-10_bird_10_n01855672_15317.png,n01855672_15317.png,0.0,-0.5597198,0.13850634,-0.49372044
alexnet_w3_mlp_simclrhn_probe2,1,402,NaN,dog,dog,8-3-10,0402_eid_dnn_8-3-10_dog_10_n02098286_2242.png,n02098286_2242.png,1.0,0.27593565,-1.0356802,0.92745245
alexnet_w3_mlp_simclrhn_probe2,1,403,NaN,knife,knife,2-3-10,0403_eid_dnn_2-3-10_knife_10_n03041632_43289.png,n03041632_43289.png,1.0,0.62259877,-0.29105136,0.64604825
alexnet_w3_mlp_simclrhn_probe2,1,404,NaN,bottle,bottle,4-3-10,0404_eid_dnn_4-3-10_bottle_10_n02823428_4387.png,n02823428_4387.png,1.0,2.7947164,0.8467195,1.3774418
alexnet_w3_mlp_simclrhn_probe2,1,405,NaN,oven,knife,64-3-10,0405_eid_dnn_64-3-10_knife_10_n03041632_13194.png,n03041632_13194.png,0.0,-2.1229556,0.2542869,-1.6809644
alexnet_w3_mlp_simclrhn_probe2,1,406,NaN,airplane,airplane,8-3-10,0406_eid_dnn_8-3-10_airplane_10_n02690373_7465.png,n02690373_7465.png,1.0,-0.10430044,-1.0533993,0.67111427
alexnet_w3_mlp_simclrhn_probe2,1,407,NaN,boat,bird,4-3-10,0407_eid_dnn_4-3-10_bird_10_n02018207_2282.png,n02018207_2282.png,0.0,-0.12639786,-0.09831789,-0.019855538
alexnet_w3_mlp_simclrhn_probe2,1,408,NaN,oven,chair,64-3-10,0408_eid_dnn_64-3-10_chair_10_n04099969_34351.png,n04099969_34351.png,0.0,-1.7174642,0.028607294,-1.234659
alexnet_w3_mlp_simclrhn_probe2,1,409,NaN,oven,bottle,64-3-10,0409_eid_dnn_64-3-10_bottle_10_n03937543_49.png,n03937543_49.png,0.0,-0.7593633,-0.050087757,-0.50153357
alexnet_w3_mlp_simclrhn_probe2,1,410,NaN,bear,bicycle,8-3-10,0410_eid_dnn_8-3-10_bicycle_10_n03792782_9833.png,n03792782_9833.png,0.0,-0.73394907,-0.61836654,-0.08172919
alexnet_w3_mlp_simclrhn_probe2,1,411,NaN,knife,clock,4-3-10,0411_eid_dnn_4-3-10_clock_10_n03196217_10384.png,n03196217_10384.png,0.0,-0.2638609,0.57319355,-0.59188694
alexnet_w3_mlp_simclrhn_probe2,1,412,NaN,oven,truck,64-3-10,0412_eid_dnn_64-3-10_truck_10_n04467665_4492.png,n04467665_4492.png,0.0,-3.1711206,-0.046346627,-2.209549
alexnet_w3_mlp_simclrhn_probe2,1,413,NaN,oven,bottle,128-3-10,0413_eid_dnn_128-3-10_bottle_10_n03983396_5148.png,n03983396_5148.png,0.0,-1.2783706,-0.21417686,-0.7524986
alexnet_w3_mlp_simclrhn_probe2,1,414,NaN,oven,clock,128-3-10,0414_eid_dnn_128-3-10_clock_10_n04548280_4364.png,n04548280_4364.png,0.0,-1.5079616,-0.066666,-1.0191499
alexnet_w3_mlp_simclrhn_probe2,1,415,NaN,cat,cat,1-3-10,0415_eid_dnn_1-3-10_cat_10_n02123394_6792.png,n02123394_6792.png,1.0,3.3105745,-0.1880804,2.4739225
alexnet_w3_mlp_simclrhn_probe2,1,416,NaN,bear,oven,16-3-10,0416_eid_dnn_16-3-10_oven_10_n04111531_1298.png,n04111531_1298.png,0.0,0.117407,0.28425902,-0.1179822
alexnet_w3_mlp_simclrhn_probe2,1,417,NaN,oven,clock,8-3-10,0417_eid_dnn_8-3-10_clock_10_n04548280_2334.png,n04548280_2334.png,0.0,-2.0961785,-0.20739526,-1.3355714
alexnet_w3_mlp_simclrhn_probe2,1,418,NaN,oven,car,32-3-10,0418_eid_dnn_32-3-10_car_10_n04285008_15570.png,n04285008_15570.png,0.0,-5.59736,0.71252596,-4.4617634
alexnet_w3_mlp_simclrhn_probe2,1,419,NaN,oven,dog,32-3-10,0419_eid_dnn_32-3-10_dog_10_n02087394_7569.png,n02087394_7569.png,0.0,-0.84952575,0.014908567,-0.61124736
alexnet_w3_mlp_simclrhn_probe2,1,420,NaN,oven,clock,32-3-10,0420_eid_dnn_32-3-10_clock_10_n03196217_11445.png,n03196217_11445.png,0.0,-2.8449335,0.5157951,-2.376394
alexnet_w3_mlp_simclrhn_probe2,1,421,NaN,bear,chair,32-3-10,0421_eid_dnn_32-3-10_chair_10_n04099969_3095.png,n04099969_3095.png,0.0,-1.9557359,-0.015292054,-1.3721011
alexnet_w3_mlp_simclrhn_probe2,1,422,NaN,oven,bird,64-3-10,0422_eid_dnn_64-3-10_bird_10_n01601694_935.png,n01601694_935.png,0.0,-0.7230319,-0.1982045,-0.37110898
alexnet_w3_mlp_simclrhn_probe2,1,423,NaN,cat,bird,2-3-10,0423_eid_dnn_2-3-10_bird_10_n01592084_3570.png,n01592084_3570.png,0.0,-2.0855548,0.374132,-1.7392613
alexnet_w3_mlp_simclrhn_probe2,1,424,NaN,oven,dog,64-3-10,0424_eid_dnn_64-3-10_dog_10_n02090379_605.png,n02090379_605.png,0.0,-1.082744,0.4586022,-1.0898963
alexnet_w3_mlp_simclrhn_probe2,1,425,NaN,airplane,airplane,1-3-10,0425_eid_dnn_1-3-10_airplane_10_n02690373_3912.png,n02690373_3912.png,1.0,5.638661,-1.0795448,4.7504888
alexnet_w3_mlp_simclrhn_probe2,1,426,NaN,oven,oven,128-3-10,0426_eid_dnn_128-3-10_oven_10_n04111531_986.png,n04111531_986.png,1.0,-0.7884508,-1.1124966,0.229135
alexnet_w3_mlp_simclrhn_probe2,1,427,NaN,bear,knife,32-3-10,0427_eid_dnn_32-3-10_knife_10_n03041632_23736.png,n03041632_23736.png,0.0,-2.1131063,-0.17630494,-1.3695253
alexnet_w3_mlp_simclrhn_probe2,1,428,NaN,knife,clock,4-3-10,0428_eid_dnn_4-3-10_clock_10_n04548280_10686.png,n04548280_10686.png,0.0,-0.70353675,-0.45548856,-0.17539656
alexnet_w3_mlp_simclrhn_probe2,1,429,NaN,bear,oven,32-3-10,0429_eid_dnn_32-3-10_oven_10_n04111531_21460.png,n04111531_21460.png,0.0,0.15971497,0.34805685,-0.13317783
alexnet_w3_mlp_simclrhn_probe2,1,430,NaN,oven,bottle,32-3-10,0430_eid_dnn_32-3-10_bottle_10_n04557648_3675.png,n04557648_3675.png,0.0,-1.7292732,0.8008944,-1.7890987
alexnet_w3_mlp_simclrhn_probe2,1,431,NaN,oven,chair,8-3-10,0431_eid_dnn_8-3-10_chair_10_n02791124_495.png,n02791124_495.png,0.0,-1.5085485,0.20319737,-1.2103871
alexnet_w3_mlp_simclrhn_probe2,1,432,NaN,oven,chair,128-3-10,0432_eid_dnn_128-3-10_chair_10_n04429376_9165.png,n04429376_9165.png,0.0,-2.5872679,-0.13520831,-1.7338679
alexnet_w3_mlp_simclrhn_probe2,1,433,NaN,clock,clock,1-3-10,0433_eid_dnn_1-3-10_clock_10_n04548280_2937.png,n04548280_2937.png,1.0,0.823654,-0.37159014,0.8451652
alexnet_w3_mlp_simclrhn_probe2,1,434,NaN,bear,bear,32-3-10,0434_eid_dnn_32-3-10_bear_10_n02134418_5849.png,n02134418_5849.png,1.0,-0.37104297,-0.40837044,0.026394507
alexnet_w3_mlp_simclrhn_probe2,1,435,NaN,oven,bottle,128-3-10,0435_eid_dnn_128-3-10_bottle_10_n04560804_2521.png,n04560804_2521.png,0.0,-1.1867468,-0.35040393,-0.59138376
alexnet_w3_mlp_simclrhn_probe2,1,436,NaN,oven,car,8-3-10,0436_eid_dnn_8-3-10_car_10_n04285008_11600.png,n04285008_11600.png,0.0,-3.4244165,-0.21826726,-2.26709
alexnet_w3_mlp_simclrhn_probe2,1,437,NaN,knife,knife,2-3-10,0437_eid_dnn_2-3-10_knife_10_n03041632_79317.png,n03041632_79317.png,1.0,2.1823537,-1.1920259,2.3860466
alexnet_w3_mlp_simclrhn_probe2,1,438,NaN,bear,truck,32-3-10,0438_eid_dnn_32-3-10_truck_10_n03417042_6467.png,n03417042_6467.png,0.0,-3.1880214,0.5532841,-2.6455026
alexnet_w3_mlp_simclrhn_probe2,1,439,NaN,bird,airplane,64-3-10,0439_eid_dnn_64-3-10_airplane_10_n02690373_303.png,n02690373_303.png,0.0,-2.4004583,-0.6383425,-1.2460041
alexnet_w3_mlp_simclrhn_probe2,1,440,NaN,oven,chair,64-3-10,0440_eid_dnn_64-3-10_chair_10_n04099969_2354.png,n04099969_2354.png,0.0,-2.999638,-0.1660337,-2.003661
alexnet_w3_mlp_simclrhn_probe2,1,441,NaN,oven,clock,128-3-10,0441_eid_dnn_128-3-10_clock_10_n04548280_377.png,n04548280_377.png,0.0,-2.5539634,-0.6643609,-1.3361508
alexnet_w3_mlp_simclrhn_probe2,1,442,NaN,bear,bicycle,32-3-10,0442_eid_dnn_32-3-10_bicycle_10_n03792782_11597.png,n03792782_11597.png,0.0,-0.59618795,-0.24482015,-0.24845456
alexnet_w3_mlp_simclrhn_probe2,1,443,NaN,bottle,bottle,2-3-10,0443_eid_dnn_2-3-10_bottle_10_n04579145_215.png,n04579145_215.png,1.0,3.849392,-2.6329541,4.583711
alexnet_w3_mlp_simclrhn_probe2,1,444,NaN,car,car,4-3-10,0444_eid_dnn_4-3-10_car_10_n02814533_95669.png,n02814533_95669.png,1.0,2.8937504,1.218429,1.1846312
alexnet_w3_mlp_simclrhn_probe2,1,445,NaN,oven,chair,32-3-10,0445_eid_dnn_32-3-10_chair_10_n04429376_51025.png,n04429376_51025.png,0.0,-2.5889583,0.24484287,-2.0038
alexnet_w3_mlp_simclrhn_probe2,1,446,NaN,cat,cat,4-3-10,0446_eid_dnn_4-3-10_cat_10_n02123045_2757.png,n02123045_2757.png,1.0,3.4411666,0.08684345,2.3718648
alexnet_w3_mlp_simclrhn_probe2,1,447,NaN,bottle,bottle,4-3-10,0447_eid_dnn_4-3-10_bottle_10_n03937543_2135.png,n03937543_2135.png,1.0,0.47909695,-0.15335435,0.4472106
alexnet_w3_mlp_simclrhn_probe2,1,448,NaN,bird,bird,2-3-10,0448_eid_dnn_2-3-10_bird_10_n01855032_7457.png,n01855032_7457.png,1.0,0.8405255,-0.9280638,1.2505815
alexnet_w3_mlp_simclrhn_probe2,1,449,NaN,oven,car,16-3-10,0449_eid_dnn_16-3-10_car_10_n02814533_24935.png,n02814533_24935.png,0.0,-5.0152555,0.6239226,-3.9875014
alexnet_w3_mlp_simclrhn_probe2,1,450,NaN,oven,keyboard,4-3-10,0450_eid_dnn_4-3-10_keyboard_10_n04505470_1371.png,n04505470_1371.png,0.0,-0.42940274,2.0937583,-1.7841444
alexnet_w3_mlp_simclrhn_probe2,1,451,NaN,bear,dog,16-3-10,0451_eid_dnn_16-3-10_dog_10_n02099267_2379.png,n02099267_2379.png,0.0,-0.67649424,0.91559404,-1.1257764
alexnet_w3_mlp_simclrhn_probe2,1,452,NaN,cat,cat,8-3-10,0452_eid_dnn_8-3-10_cat_10_n02123394_8009.png,n02123394_8009.png,1.0,1.2183598,-0.3374673,1.1001359
alexnet_w3_mlp_simclrhn_probe2,1,453,NaN,keyboard,keyboard,2-3-10,0453_eid_dnn_2-3-10_keyboard_10_n03085013_29042.png,n03085013_29042.png,1.0,2.1565568,0.26219225,1.3395181
alexnet_w3_mlp_simclrhn_probe2,1,454,NaN,oven,airplane,128-3-10,0454_eid_dnn_128-3-10_airplane_10_n02690373_2131.png,n02690373_2131.png,0.0,-4.3079004,0.26962888,-3.236802
alexnet_w3_mlp_simclrhn_probe2,1,455,NaN,bear,car,8-3-10,0455_eid_dnn_8-3-10_car_10_n03100240_327.png,n03100240_327.png,0.0,-3.1377766,-0.21986565,-2.0632746
alexnet_w3_mlp_simclrhn_probe2,1,456,NaN,elephant,elephant,2-3-10,0456_eid_dnn_2-3-10_elephant_10_n02504458_4163.png,n02504458_4163.png,1.0,9.562645,3.0917158,4.575638
alexnet_w3_mlp_simclrhn_probe2,1,457,NaN,knife,knife,1-3-10,0457_eid_dnn_1-3-10_knife_10_n03041632_9635.png,n03041632_9635.png,1.0,0.49234962,-0.8013673,0.914796
alexnet_w3_mlp_simclrhn_probe2,1,458,NaN,bear,airplane,16-3-10,0458_eid_dnn_16-3-10_airplane_10_n02690373_1044.png,n02690373_1044.png,0.0,-2.5201223,-0.062044896,-1.7381233
alexnet_w3_mlp_simclrhn_probe2,1,459,NaN,cat,bottle,16-3-10,0459_eid_dnn_16-3-10_bottle_10_n04560804_5441.png,n04560804_5441.png,0.0,-0.8082422,-0.048067134,-0.53752494
alexnet_w3_mlp_simclrhn_probe2,1,460,NaN,cat,cat,8-3-10,0460_eid_dnn_8-3-10_cat_10_n02123159_988.png,n02123159_988.png,1.0,0.7753027,-0.28942892,0.75287896
alexnet_w3_mlp_simclrhn_probe2,1,461,NaN,oven,bird,64-3-10,0461_eid_dnn_64-3-10_bird_10_n01843383_4667.png,n01843383_4667.png,0.0,-1.3027546,0.14749266,-1.0254797
alexnet_w3_mlp_simclrhn_probe2,1,462,NaN,airplane,airplane,2-3-10,0462_eid_dnn_2-3-10_airplane_10_n02690373_6978.png,n02690373_6978.png,1.0,3.142388,0.28468502,2.0207014
alexnet_w3_mlp_simclrhn_probe2,1,463,NaN,oven,chair,128-3-10,0463_eid_dnn_128-3-10_chair_10_n04099969_5901.png,n04099969_5901.png,0.0,-2.9442139,-0.13908406,-1.9835263
alexnet_w3_mlp_simclrhn_probe2,1,464,NaN,bear,truck,8-3-10,0464_eid_dnn_8-3-10_truck_10_n03417042_29849.png,n03417042_29849.png,0.0,-1.833765,0.8163088,-1.8738852
alexnet_w3_mlp_simclrhn_probe2,1,465,NaN,airplane,airplane,1-3-10,0465_eid_dnn_1-3-10_airplane_10_n02690373_427.png,n02690373_427.png,1.0,1.884538,0.08483529,1.272582
alexnet_w3_mlp_simclrhn_probe2,1,466,NaN,bottle,bottle,4-3-10,0466_eid_dnn_4-3-10_bottle_10_n03983396_2305.png,n03983396_2305.png,1.0,2.5237465,1.1403899,0.9781808
alexnet_w3_mlp_simclrhn_probe2,1,467,NaN,oven,oven,64-3-10,0467_eid_dnn_64-3-10_oven_10_n04111531_15296.png,n04111531_15296.png,1.0,0.053529464,-0.9384823,0.7014582
alexnet_w3_mlp_simclrhn_probe2,1,468,NaN,cat,cat,4-3-10,0468_eid_dnn_4-3-10_cat_10_n02123159_6728.png,n02123159_6728.png,1.0,0.80795604,-0.2879432,0.7749178
alexnet_w3_mlp_simclrhn_probe2,1,469,NaN,elephant,elephant,4-3-10,0469_eid_dnn_4-3-10_elephant_10_n02504458_12449.png,n02504458_12449.png,1.0,4.77314,2.3914645,1.684099
alexnet_w3_mlp_simclrhn_probe2,1,470,NaN,oven,elephant,128-3-10,0470_eid_dnn_128-3-10_elephant_10_n02504458_12165.png,n02504458_12165.png,0.0,-0.98306715,0.47943446,-1.0341449
alexnet_w3_mlp_simclrhn_probe2,1,471,NaN,bear,airplane,8-3-10,0471_eid_dnn_8-3-10_airplane_10_n02690373_5010.png,n02690373_5010.png,0.0,-0.2317185,0.14556527,-0.2667799
alexnet_w3_mlp_simclrhn_probe2,1,472,NaN,oven,dog,64-3-10,0472_eid_dnn_64-3-10_dog_10_n02100236_4549.png,n02100236_4549.png,0.0,-1.2082305,-0.25208786,-0.67609495
alexnet_w3_mlp_simclrhn_probe2,1,473,NaN,boat,boat,4-3-10,0473_eid_dnn_4-3-10_boat_10_n03344393_4289.png,n03344393_4289.png,1.0,2.4199464,1.7273973,0.4897062
alexnet_w3_mlp_simclrhn_probe2,1,474,NaN,oven,chair,64-3-10,0474_eid_dnn_64-3-10_chair_10_n04099969_48169.png,n04099969_48169.png,0.0,-2.0634282,0.104663365,-1.5330722
alexnet_w3_mlp_simclrhn_probe2,1,475,NaN,airplane,airplane,4-3-10,0475_eid_dnn_4-3-10_airplane_10_n02690373_1996.png,n02690373_1996.png,1.0,2.6240368,-0.37850028,2.1231143
alexnet_w3_mlp_simclrhn_probe2,1,476,NaN,oven,truck,128-3-10,0476_eid_dnn_128-3-10_truck_10_n03417042_28078.png,n03417042_28078.png,0.0,-3.4459567,-0.22161937,-2.2799509
alexnet_w3_mlp_simclrhn_probe2,1,477,NaN,oven,truck,8-3-10,0477_eid_dnn_8-3-10_truck_10_n04467665_3098.png,n04467665_3098.png,0.0,-2.7995403,0.2637056,-2.1660419
alexnet_w3_mlp_simclrhn_probe2,1,478,NaN,elephant,elephant,4-3-10,0478_eid_dnn_4-3-10_elephant_10_n02504458_847.png,n02504458_847.png,1.0,4.9282703,3.0715914,1.3128703
alexnet_w3_mlp_simclrhn_probe2,1,479,NaN,cat,bicycle,8-3-10,0479_eid_dnn_8-3-10_bicycle_10_n03792782_5880.png,n03792782_5880.png,0.0,-3.1490788,0.11273441,-2.3064501
alexnet_w3_mlp_simclrhn_probe2,1,480,NaN,oven,bear,128-3-10,0480_eid_dnn_128-3-10_bear_10_n02132136_30976.png,n02132136_30976.png,0.0,-0.75639755,-0.013605997,-0.5252329
alexnet_w3_mlp_simclrhn_probe2,1,481,NaN,oven,chair,64-3-10,0481_eid_dnn_64-3-10_chair_10_n02791124_2057.png,n02791124_2057.png,0.0,-1.9980909,0.11203088,-1.4920814
alexnet_w3_mlp_simclrhn_probe2,1,482,NaN,oven,keyboard,128-3-10,0482_eid_dnn_128-3-10_keyboard_10_n03085013_7286.png,n03085013_7286.png,0.0,-3.183474,-0.41473806,-1.9577919
alexnet_w3_mlp_simclrhn_probe2,1,483,NaN,oven,clock,32-3-10,0483_eid_dnn_32-3-10_clock_10_n04548280_1323.png,n04548280_1323.png,0.0,-2.1015787,0.4722595,-1.8199785
alexnet_w3_mlp_simclrhn_probe2,1,484,NaN,oven,bottle,128-3-10,0484_eid_dnn_128-3-10_bottle_10_n03983396_18508.png,n03983396_18508.png,0.0,-1.8537416,-0.6484293,-0.85228455
alexnet_w3_mlp_simclrhn_probe2,1,485,NaN,elephant,bottle,8-3-10,0485_eid_dnn_8-3-10_bottle_10_n03983396_3880.png,n03983396_3880.png,0.0,-1.08792,0.023211032,-0.7856882
alexnet_w3_mlp_simclrhn_probe2,1,486,NaN,oven,dog,128-3-10,0486_eid_dnn_128-3-10_dog_10_n02095570_601.png,n02095570_601.png,0.0,-1.8956759,-0.2487193,-1.1645741
alexnet_w3_mlp_simclrhn_probe2,1,487,NaN,bear,bird,32-3-10,0487_eid_dnn_32-3-10_bird_10_n01797886_21510.png,n01797886_21510.png,0.0,-0.8991138,-0.22784701,-0.4746573
alexnet_w3_mlp_simclrhn_probe2,1,488,NaN,chair,chair,1-3-10,0488_eid_dnn_1-3-10_chair_10_n04099969_9425.png,n04099969_9425.png,1.0,2.1313758,1.4453642,0.48508343
alexnet_w3_mlp_simclrhn_probe2,1,489,NaN,oven,keyboard,8-3-10,0489_eid_dnn_8-3-10_keyboard_10_n04505470_4228.png,n04505470_4228.png,0.0,-2.9332576,-0.46532032,-1.7450951
alexnet_w3_mlp_simclrhn_probe2,1,490,NaN,oven,elephant,32-3-10,0490_eid_dnn_32-3-10_elephant_10_n02504013_7553.png,n02504013_7553.png,0.0,-0.15620603,0.19382206,-0.24750724
alexnet_w3_mlp_simclrhn_probe2,1,491,NaN,oven,cat,64-3-10,0491_eid_dnn_64-3-10_cat_10_n02125311_8090.png,n02125311_8090.png,0.0,-0.9568417,0.021815814,-0.6920154
alexnet_w3_mlp_simclrhn_probe2,1,492,NaN,oven,keyboard,8-3-10,0492_eid_dnn_8-3-10_keyboard_10_n04505470_10041.png,n04505470_10041.png,0.0,-3.1014304,1.0434806,-2.9308946
alexnet_w3_mlp_simclrhn_probe2,1,493,NaN,oven,bicycle,4-3-10,0493_eid_dnn_4-3-10_bicycle_10_n03792782_1833.png,n03792782_1833.png,0.0,-0.001093328,0.44883496,-0.31814733
alexnet_w3_mlp_simclrhn_probe2,1,494,NaN,oven,bottle,4-3-10,0494_eid_dnn_4-3-10_bottle_10_n04557648_11642.png,n04557648_11642.png,0.0,-0.7178187,0.20699424,-0.6539415
alexnet_w3_mlp_simclrhn_probe2,1,495,NaN,oven,car,128-3-10,0495_eid_dnn_128-3-10_car_10_n03100240_7219.png,n03100240_7219.png,0.0,-4.92234,-1.2049303,-2.6286056
alexnet_w3_mlp_simclrhn_probe2,1,496,NaN,car,truck,1-3-10,0496_eid_dnn_1-3-10_truck_10_n03796401_9642.png,n03796401_9642.png,0.0,5.1870947,6.011429,-0.5828923
alexnet_w3_mlp_simclrhn_probe2,1,497,NaN,oven,cat,1-3-10,0497_eid_dnn_1-3-10_cat_10_n02125311_13348.png,n02125311_13348.png,0.0,-1.1376399,0.3329888,-1.0398916
alexnet_w3_mlp_simclrhn_probe2,1,498,NaN,bird,bottle,128-3-10,0498_eid_dnn_128-3-10_bottle_10_n04560804_5540.png,n04560804_5540.png,0.0,-1.7446263,-0.6805326,-0.7524279
alexnet_w3_mlp_simclrhn_probe2,1,499,NaN,bottle,bottle,4-3-10,0499_eid_dnn_4-3-10_bottle_10_n03983396_9604.png,n03983396_9604.png,1.0,4.881535,-1.8495673,4.7596083
alexnet_w3_mlp_simclrhn_probe2,1,500,NaN,oven,truck,32-3-10,0500_eid_dnn_32-3-10_truck_10_n03417042_5180.png,n03417042_5180.png,0.0,-2.9274275,0.31639498,-2.293729
alexnet_w3_mlp_simclrhn_probe2,1,501,NaN,bear,dog,16-3-10,0501_eid_dnn_16-3-10_dog_10_n02109525_3364.png,n02109525_3364.png,0.0,-0.5840873,0.18171336,-0.54150283
alexnet_w3_mlp_simclrhn_probe2,1,502,NaN,clock,clock,2-3-10,0502_eid_dnn_2-3-10_clock_10_n04548280_353.png,n04548280_353.png,1.0,0.4784069,0.08777882,0.2762158
alexnet_w3_mlp_simclrhn_probe2,1,503,NaN,dog,dog,1-3-10,0503_eid_dnn_1-3-10_dog_10_n02111129_4423.png,n02111129_4423.png,1.0,0.63061386,-0.129582,0.53753966
alexnet_w3_mlp_simclrhn_probe2,1,504,NaN,bear,dog,16-3-10,0504_eid_dnn_16-3-10_dog_10_n02108000_1538.png,n02108000_1538.png,0.0,-0.8739801,0.23708206,-0.7856396
alexnet_w3_mlp_simclrhn_probe2,1,505,NaN,oven,keyboard,16-3-10,0505_eid_dnn_16-3-10_keyboard_10_n03085013_3439.png,n03085013_3439.png,0.0,-2.7245703,0.09588784,-1.9943651
alexnet_w3_mlp_simclrhn_probe2,1,506,NaN,elephant,truck,8-3-10,0506_eid_dnn_8-3-10_truck_10_n03417042_4016.png,n03417042_4016.png,0.0,-1.9896474,-0.21636061,-1.2539032
alexnet_w3_mlp_simclrhn_probe2,1,507,NaN,oven,knife,32-3-10,0507_eid_dnn_32-3-10_knife_10_n03041632_39883.png,n03041632_39883.png,0.0,-1.5002081,0.37715954,-1.3274995
alexnet_w3_mlp_simclrhn_probe2,1,508,NaN,bear,bear,16-3-10,0508_eid_dnn_16-3-10_bear_10_n02132136_21181.png,n02132136_21181.png,1.0,0.22720154,-0.081588686,0.21834765
alexnet_w3_mlp_simclrhn_probe2,1,509,NaN,elephant,elephant,8-3-10,0509_eid_dnn_8-3-10_elephant_10_n02504013_718.png,n02504013_718.png,1.0,1.604583,1.1637063,0.31174693
alexnet_w3_mlp_simclrhn_probe2,1,510,NaN,oven,oven,2-3-10,0510_eid_dnn_2-3-10_oven_10_n04111531_4146.png,n04111531_4146.png,1.0,3.4807148,0.749511,1.9312527
alexnet_w3_mlp_simclrhn_probe2,1,511,NaN,airplane,airplane,8-3-10,0511_eid_dnn_8-3-10_airplane_10_n02690373_10769.png,n02690373_10769.png,1.0,0.29560864,-0.3415227,0.4505199
alexnet_w3_mlp_simclrhn_probe2,1,512,NaN,dog,dog,16-3-10,0512_eid_dnn_16-3-10_dog_10_n02109525_4516.png,n02109525_4516.png,1.0,-0.06629834,-0.49922076,0.3061224
alexnet_w3_mlp_simclrhn_probe2,1,513,NaN,elephant,boat,4-3-10,0513_eid_dnn_4-3-10_boat_10_n02951358_12333.png,n02951358_12333.png,0.0,-0.9469738,0.99644744,-1.3742064
alexnet_w3_mlp_simclrhn_probe2,1,514,NaN,oven,chair,8-3-10,0514_eid_dnn_8-3-10_chair_10_n04099969_20421.png,n04099969_20421.png,0.0,-2.3030076,0.54996854,-2.0173588
alexnet_w3_mlp_simclrhn_probe2,1,515,NaN,knife,knife,4-3-10,0515_eid_dnn_4-3-10_knife_10_n03041632_21165.png,n03041632_21165.png,1.0,-0.4150415,-0.44248438,0.01940504
alexnet_w3_mlp_simclrhn_probe2,1,516,NaN,bicycle,bicycle,1-3-10,0516_eid_dnn_1-3-10_bicycle_10_n02835271_21439.png,n02835271_21439.png,1.0,2.1332192,-0.6710936,1.9829485
alexnet_w3_mlp_simclrhn_probe2,1,517,NaN,boat,boat,1-3-10,0517_eid_dnn_1-3-10_boat_10_n04273569_24526.png,n04273569_24526.png,1.0,2.4158363,1.9606811,0.3218434
alexnet_w3_mlp_simclrhn_probe2,1,518,NaN,bear,bottle,32-3-10,0518_eid_dnn_32-3-10_bottle_10_n04579145_2276.png,n04579145_2276.png,0.0,-1.9444864,0.45086512,-1.6937692
alexnet_w3_mlp_simclrhn_probe2,1,519,NaN,bear,bear,8-3-10,0519_eid_dnn_8-3-10_bear_10_n02134418_1642.png,n02134418_1642.png,1.0,0.658329,0.18188682,0.3368955
alexnet_w3_mlp_simclrhn_probe2,1,520,NaN,bicycle,bicycle,1-3-10,0520_eid_dnn_1-3-10_bicycle_10_n02835271_15468.png,n02835271_15468.png,1.0,9.390195,-1.0090573,7.3533816
alexnet_w3_mlp_simclrhn_probe2,1,521,NaN,oven,keyboard,64-3-10,0521_eid_dnn_64-3-10_keyboard_10_n03085013_26532.png,n03085013_26532.png,0.0,-1.3927809,-0.38315955,-0.71391016
alexnet_w3_mlp_simclrhn_probe2,1,522,NaN,oven,clock,64-3-10,0522_eid_dnn_64-3-10_clock_10_n03196217_6809.png,n03196217_6809.png,0.0,-1.8266114,-0.073583946,-1.2395777
alexnet_w3_mlp_simclrhn_probe2,1,523,NaN,oven,bear,64-3-10,0523_eid_dnn_64-3-10_bear_10_n02134418_4384.png,n02134418_4384.png,0.0,-0.2975849,-0.28403443,-0.009581623
alexnet_w3_mlp_simclrhn_probe2,1,524,NaN,dog,dog,4-3-10,0524_eid_dnn_4-3-10_dog_10_n02086240_1183.png,n02086240_1183.png,1.0,0.26411808,-1.5656608,1.2938491
alexnet_w3_mlp_simclrhn_probe2,1,525,NaN,chair,chair,1-3-10,0525_eid_dnn_1-3-10_chair_10_n04429376_294.png,n04429376_294.png,1.0,0.35205713,-0.7647954,0.789734
alexnet_w3_mlp_simclrhn_probe2,1,526,NaN,oven,clock,64-3-10,0526_eid_dnn_64-3-10_clock_10_n02708093_4893.png,n02708093_4893.png,0.0,-2.558602,0.246256,-1.9833343
alexnet_w3_mlp_simclrhn_probe2,1,527,NaN,oven,keyboard,64-3-10,0527_eid_dnn_64-3-10_keyboard_10_n03085013_3098.png,n03085013_3098.png,0.0,-3.2174442,-0.031970583,-2.25247
alexnet_w3_mlp_simclrhn_probe2,1,528,NaN,oven,cat,16-3-10,0528_eid_dnn_16-3-10_cat_10_n02125311_22073.png,n02125311_22073.png,0.0,-1.0527843,0.084218755,-0.8039826
alexnet_w3_mlp_simclrhn_probe2,1,529,NaN,oven,bird,2-3-10,0529_eid_dnn_2-3-10_bird_10_n01558993_869.png,n01558993_869.png,0.0,-1.5428313,-0.75356245,-0.55809736
alexnet_w3_mlp_simclrhn_probe2,1,530,NaN,bird,bird,1-3-10,0530_eid_dnn_1-3-10_bird_10_n01817953_8025.png,n01817953_8025.png,1.0,2.3884933,-2.1305518,3.1954474
alexnet_w3_mlp_simclrhn_probe2,1,531,NaN,oven,chair,2-3-10,0531_eid_dnn_2-3-10_chair_10_n04099969_24235.png,n04099969_24235.png,0.0,-0.93140376,1.3374916,-1.6043514
alexnet_w3_mlp_simclrhn_probe2,1,532,NaN,oven,knife,128-3-10,0532_eid_dnn_128-3-10_knife_10_n03041632_1201.png,n03041632_1201.png,0.0,-1.5042558,-0.28115922,-0.86485994
alexnet_w3_mlp_simclrhn_probe2,1,533,NaN,oven,bicycle,4-3-10,0533_eid_dnn_4-3-10_bicycle_10_n03792782_16212.png,n03792782_16212.png,0.0,-2.0379424,0.52429384,-1.8117747
alexnet_w3_mlp_simclrhn_probe2,1,534,NaN,oven,oven,4-3-10,0534_eid_dnn_4-3-10_oven_10_n04111531_11655.png,n04111531_11655.png,1.0,0.8486732,0.1661018,0.48265088
alexnet_w3_mlp_simclrhn_probe2,1,535,NaN,bear,bicycle,16-3-10,0535_eid_dnn_16-3-10_bicycle_10_n02835271_5152.png,n02835271_5152.png,0.0,-4.1083035,0.69998235,-3.3999715
alexnet_w3_mlp_simclrhn_probe2,1,536,NaN,bear,bear,16-3-10,0536_eid_dnn_16-3-10_bear_10_n02132136_19290.png,n02132136_19290.png,1.0,0.13345978,-0.13520522,0.18997486
alexnet_w3_mlp_simclrhn_probe2,1,537,NaN,oven,car,32-3-10,0537_eid_dnn_32-3-10_car_10_n03100240_6103.png,n03100240_6103.png,0.0,-3.6710136,0.23331937,-2.7607803
alexnet_w3_mlp_simclrhn_probe2,1,538,NaN,bird,airplane,16-3-10,0538_eid_dnn_16-3-10_airplane_10_n02690373_5714.png,n02690373_5714.png,0.0,-2.2490866,-0.70477355,-1.0919943
alexnet_w3_mlp_simclrhn_probe2,1,539,NaN,clock,chair,1-3-10,0539_eid_dnn_1-3-10_chair_10_n04429376_2915.png,n04429376_2915.png,0.0,-0.38831055,0.2283498,-0.43604472
alexnet_w3_mlp_simclrhn_probe2,1,540,NaN,oven,clock,64-3-10,0540_eid_dnn_64-3-10_clock_10_n02708093_7827.png,n02708093_7827.png,0.0,-2.4537232,-0.08266523,-1.6765912
alexnet_w3_mlp_simclrhn_probe2,1,541,NaN,truck,truck,2-3-10,0541_eid_dnn_2-3-10_truck_10_n03417042_6247.png,n03417042_6247.png,1.0,1.3782587,0.26345292,0.78828675
alexnet_w3_mlp_simclrhn_probe2,1,542,NaN,oven,elephant,32-3-10,0542_eid_dnn_32-3-10_elephant_10_n02504013_947.png,n02504013_947.png,0.0,-0.36724102,0.40993986,-0.5495499
alexnet_w3_mlp_simclrhn_probe2,1,543,NaN,truck,truck,1-3-10,0543_eid_dnn_1-3-10_truck_10_n03417042_2074.png,n03417042_2074.png,1.0,6.379391,3.6167164,1.9535061
alexnet_w3_mlp_simclrhn_probe2,1,544,NaN,bear,airplane,8-3-10,0544_eid_dnn_8-3-10_airplane_10_n02690373_5221.png,n02690373_5221.png,0.0,-0.6683331,-0.29204744,-0.26607415
alexnet_w3_mlp_simclrhn_probe2,1,545,NaN,oven,oven,4-3-10,0545_eid_dnn_4-3-10_oven_10_n04111531_6629.png,n04111531_6629.png,1.0,0.048845757,-0.06080757,0.07753661
alexnet_w3_mlp_simclrhn_probe2,1,546,NaN,knife,knife,1-3-10,0546_eid_dnn_1-3-10_knife_10_n03041632_36277.png,n03041632_36277.png,1.0,0.8921344,-0.7541052,1.1640673
alexnet_w3_mlp_simclrhn_probe2,1,547,NaN,oven,cat,64-3-10,0547_eid_dnn_64-3-10_cat_10_n02123597_4700.png,n02123597_4700.png,0.0,-0.87464124,-0.049560383,-0.5834203
alexnet_w3_mlp_simclrhn_probe2,1,548,NaN,bear,airplane,16-3-10,0548_eid_dnn_16-3-10_airplane_10_n02690373_20042.png,n02690373_20042.png,0.0,-1.8183808,-0.24230829,-1.1144516
alexnet_w3_mlp_simclrhn_probe2,1,549,NaN,bear,chair,32-3-10,0549_eid_dnn_32-3-10_chair_10_n02791124_15539.png,n02791124_15539.png,0.0,-3.147621,-0.11639296,-2.1434019
alexnet_w3_mlp_simclrhn_probe2,1,550,NaN,cat,cat,1-3-10,0550_eid_dnn_1-3-10_cat_10_n02123394_5700.png,n02123394_5700.png,1.0,0.87291044,0.3236786,0.38836557
alexnet_w3_mlp_simclrhn_probe2,1,551,NaN,car,car,4-3-10,0551_eid_dnn_4-3-10_car_10_n04285008_13595.png,n04285008_13595.png,1.0,2.8446743,0.49076352,1.6644664
alexnet_w3_mlp_simclrhn_probe2,1,552,NaN,oven,chair,8-3-10,0552_eid_dnn_8-3-10_chair_10_n02791124_2282.png,n02791124_2282.png,0.0,-3.1953769,0.5729439,-2.6646051
alexnet_w3_mlp_simclrhn_probe2,1,553,NaN,dog,dog,2-3-10,0553_eid_dnn_2-3-10_dog_10_n02100877_3973.png,n02100877_3973.png,1.0,0.27792764,-0.071618244,0.24716628
alexnet_w3_mlp_simclrhn_probe2,1,554,NaN,oven,truck,64-3-10,0554_eid_dnn_64-3-10_truck_10_n03417042_12297.png,n03417042_12297.png,0.0,-3.2473702,0.14436117,-2.3983164
alexnet_w3_mlp_simclrhn_probe2,1,555,NaN,cat,elephant,8-3-10,0555_eid_dnn_8-3-10_elephant_10_n02504013_6303.png,n02504013_6303.png,0.0,-0.96509784,0.12018114,-0.76740813
alexnet_w3_mlp_simclrhn_probe2,1,556,NaN,bear,car,8-3-10,0556_eid_dnn_8-3-10_car_10_n02814533_43990.png,n02814533_43990.png,0.0,-4.6628385,-0.5813556,-2.8860443
alexnet_w3_mlp_simclrhn_probe2,1,557,NaN,bear,truck,16-3-10,0557_eid_dnn_16-3-10_truck_10_n04467665_58456.png,n04467665_58456.png,0.0,-4.8541055,0.7768026,-3.9816532
alexnet_w3_mlp_simclrhn_probe2,1,558,NaN,cat,dog,4-3-10,0558_eid_dnn_4-3-10_dog_10_n02098105_526.png,n02098105_526.png,0.0,-0.69877976,-0.22751541,-0.33323422
alexnet_w3_mlp_simclrhn_probe2,1,559,NaN,bird,bird,2-3-10,0559_eid_dnn_2-3-10_bird_10_n02037110_27907.png,n02037110_27907.png,1.0,1.0686803,-1.496771,1.8140479
alexnet_w3_mlp_simclrhn_probe2,1,560,NaN,oven,keyboard,64-3-10,0560_eid_dnn_64-3-10_keyboard_10_n03085013_20849.png,n03085013_20849.png,0.0,-1.8898412,-0.21550861,-1.183932
alexnet_w3_mlp_simclrhn_probe2,1,561,NaN,chair,chair,1-3-10,0561_eid_dnn_1-3-10_chair_10_n03376595_12524.png,n03376595_12524.png,1.0,2.8269887,-0.8604801,2.6074343
alexnet_w3_mlp_simclrhn_probe2,1,562,NaN,oven,bird,64-3-10,0562_eid_dnn_64-3-10_bird_10_n02056570_27055.png,n02056570_27055.png,0.0,-1.5716528,0.28095582,-1.3099921
alexnet_w3_mlp_simclrhn_probe2,1,563,NaN,bear,truck,64-3-10,0563_eid_dnn_64-3-10_truck_10_n03417042_4934.png,n03417042_4934.png,0.0,-2.9716532,-0.5625511,-1.7034925
alexnet_w3_mlp_simclrhn_probe2,1,564,NaN,bear,knife,16-3-10,0564_eid_dnn_16-3-10_knife_10_n03041632_3210.png,n03041632_3210.png,0.0,-0.9108929,-0.28924328,-0.43957266
alexnet_w3_mlp_simclrhn_probe2,1,565,NaN,cat,dog,8-3-10,0565_eid_dnn_8-3-10_dog_10_n02096585_2118.png,n02096585_2118.png,0.0,-0.11414653,0.073923856,-0.13298585
alexnet_w3_mlp_simclrhn_probe2,1,566,NaN,keyboard,keyboard,1-3-10,0566_eid_dnn_1-3-10_keyboard_10_n03085013_3539.png,n03085013_3539.png,1.0,5.390293,0.23754525,3.6435432
alexnet_w3_mlp_simclrhn_probe2,1,567,NaN,truck,truck,4-3-10,0567_eid_dnn_4-3-10_truck_10_n03417042_17215.png,n03417042_17215.png,1.0,0.668872,0.01567935,0.46187696
alexnet_w3_mlp_simclrhn_probe2,1,568,NaN,bear,cat,8-3-10,0568_eid_dnn_8-3-10_cat_10_n02123045_12657.png,n02123045_12657.png,0.0,0.07741808,0.32215786,-0.17305715
alexnet_w3_mlp_simclrhn_probe2,1,569,NaN,oven,knife,64-3-10,0569_eid_dnn_64-3-10_knife_10_n03041632_20576.png,n03041632_20576.png,0.0,-1.22117,-0.09325153,-0.79755884
alexnet_w3_mlp_simclrhn_probe2,1,570,NaN,bear,truck,8-3-10,0570_eid_dnn_8-3-10_truck_10_n04467665_23905.png,n04467665_23905.png,0.0,-3.779121,0.07943198,-2.728409
alexnet_w3_mlp_simclrhn_probe2,1,571,NaN,oven,oven,128-3-10,0571_eid_dnn_128-3-10_oven_10_n04111531_9427.png,n04111531_9427.png,1.0,-0.3945625,-1.3568794,0.6804608
alexnet_w3_mlp_simclrhn_probe2,1,572,NaN,oven,oven,16-3-10,0572_eid_dnn_16-3-10_oven_10_n04111531_14329.png,n04111531_14329.png,1.0,-0.18297817,-0.49849552,0.22310448
alexnet_w3_mlp_simclrhn_probe2,1,573,NaN,oven,bird,64-3-10,0573_eid_dnn_64-3-10_bird_10_n01614925_19422.png,n01614925_19422.png,0.0,-1.4348358,-0.23583156,-0.847824
alexnet_w3_mlp_simclrhn_probe2,1,574,NaN,oven,bottle,128-3-10,0574_eid_dnn_128-3-10_bottle_10_n02823428_1154.png,n02823428_1154.png,0.0,-1.7443087,-0.5112521,-0.87190264
alexnet_w3_mlp_simclrhn_probe2,1,575,NaN,bear,dog,4-3-10,0575_eid_dnn_4-3-10_dog_10_n02093859_4797.png,n02093859_4797.png,0.0,0.16232604,0.6593747,-0.3514665
alexnet_w3_mlp_simclrhn_probe2,1,576,NaN,airplane,airplane,1-3-10,0576_eid_dnn_1-3-10_airplane_10_n02690373_2632.png,n02690373_2632.png,1.0,4.6876903,1.1421297,2.50709
alexnet_w3_mlp_simclrhn_probe2,1,577,NaN,bear,keyboard,32-3-10,0577_eid_dnn_32-3-10_keyboard_10_n03085013_15825.png,n03085013_15825.png,0.0,-2.9209816,0.15850872,-2.1775286
alexnet_w3_mlp_simclrhn_probe2,1,578,NaN,car,car,4-3-10,0578_eid_dnn_4-3-10_car_10_n02814533_52674.png,n02814533_52674.png,1.0,2.9919274,1.0479498,1.3745998
alexnet_w3_mlp_simclrhn_probe2,1,579,NaN,oven,truck,32-3-10,0579_eid_dnn_32-3-10_truck_10_n04467665_32937.png,n04467665_32937.png,0.0,-2.7685275,-0.17740655,-1.8321992
alexnet_w3_mlp_simclrhn_probe2,1,580,NaN,bird,bird,4-3-10,0580_eid_dnn_4-3-10_bird_10_n01537544_20.png,n01537544_20.png,1.0,0.063630365,-0.7644807,0.58556294
alexnet_w3_mlp_simclrhn_probe2,1,581,NaN,bear,clock,8-3-10,0581_eid_dnn_8-3-10_clock_10_n03196217_564.png,n03196217_564.png,0.0,-0.8539389,-0.3625273,-0.34748045
alexnet_w3_mlp_simclrhn_probe2,1,582,NaN,keyboard,knife,1-3-10,0582_eid_dnn_1-3-10_knife_10_n03041632_76163.png,n03041632_76163.png,0.0,-0.70963675,0.652936,-0.9634844
alexnet_w3_mlp_simclrhn_probe2,1,583,NaN,oven,airplane,32-3-10,0583_eid_dnn_32-3-10_airplane_10_n02690373_8559.png,n02690373_8559.png,0.0,-3.7587037,-0.36949453,-2.396533
alexnet_w3_mlp_simclrhn_probe2,1,584,NaN,keyboard,keyboard,2-3-10,0584_eid_dnn_2-3-10_keyboard_10_n04505470_3941.png,n04505470_3941.png,1.0,10.3852825,0.2711638,7.151762
alexnet_w3_mlp_simclrhn_probe2,1,585,NaN,oven,oven,64-3-10,0585_eid_dnn_64-3-10_oven_10_n04111531_9910.png,n04111531_9910.png,1.0,-0.015921548,-0.35817087,0.24200682
alexnet_w3_mlp_simclrhn_probe2,1,586,NaN,oven,bottle,128-3-10,0586_eid_dnn_128-3-10_bottle_10_n03937543_7191.png,n03937543_7191.png,0.0,-1.4234163,-0.041656442,-0.97705173
alexnet_w3_mlp_simclrhn_probe2,1,587,NaN,boat,boat,4-3-10,0587_eid_dnn_4-3-10_boat_10_n03662601_14818.png,n03662601_14818.png,1.0,0.093106866,-0.030122995,0.08713667
alexnet_w3_mlp_simclrhn_probe2,1,588,NaN,oven,boat,128-3-10,0588_eid_dnn_128-3-10_boat_10_n02951358_588.png,n02951358_588.png,0.0,-2.2043319,-0.28084907,-1.3601078
alexnet_w3_mlp_simclrhn_probe2,1,589,NaN,bear,bear,1-3-10,0589_eid_dnn_1-3-10_bear_10_n02133161_2851.png,n02133161_2851.png,1.0,3.2533195,1.3708962,1.3310742
alexnet_w3_mlp_simclrhn_probe2,1,590,NaN,bottle,chair,2-3-10,0590_eid_dnn_2-3-10_chair_10_n03376595_16212.png,n03376595_16212.png,0.0,-0.36513615,1.8741335,-1.5834029
alexnet_w3_mlp_simclrhn_probe2,1,591,NaN,bear,boat,8-3-10,0591_eid_dnn_8-3-10_boat_10_n04612504_1613.png,n04612504_1613.png,0.0,-1.6087462,0.3307908,-1.3714597
alexnet_w3_mlp_simclrhn_probe2,1,592,NaN,bird,chair,128-3-10,0592_eid_dnn_128-3-10_chair_10_n02791124_3198.png,n02791124_3198.png,0.0,-1.8903675,-0.3059559,-1.1203482
alexnet_w3_mlp_simclrhn_probe2,1,593,NaN,bear,knife,16-3-10,0593_eid_dnn_16-3-10_knife_10_n03041632_32785.png,n03041632_32785.png,0.0,-0.47519177,-0.14729153,-0.23186047
alexnet_w3_mlp_simclrhn_probe2,1,594,NaN,oven,oven,32-3-10,0594_eid_dnn_32-3-10_oven_10_n04111531_22797.png,n04111531_22797.png,1.0,0.33003542,0.20224187,0.09036369
alexnet_w3_mlp_simclrhn_probe2,1,595,NaN,oven,oven,128-3-10,0595_eid_dnn_128-3-10_oven_10_n04111531_5077.png,n04111531_5077.png,1.0,-0.35526612,-0.91676426,0.39703918
alexnet_w3_mlp_simclrhn_probe2,1,596,NaN,bear,bear,1-3-10,0596_eid_dnn_1-3-10_bear_10_n02134418_2569.png,n02134418_2569.png,1.0,1.7252839,0.8042702,0.651255
alexnet_w3_mlp_simclrhn_probe2,1,597,NaN,car,car,1-3-10,0597_eid_dnn_1-3-10_car_10_n03100240_15284.png,n03100240_15284.png,1.0,2.5245466,1.1571829,0.96687216
alexnet_w3_mlp_simclrhn_probe2,1,598,NaN,keyboard,keyboard,2-3-10,0598_eid_dnn_2-3-10_keyboard_10_n04505470_4791.png,n04505470_4791.png,1.0,6.549452,1.0396231,3.896037
alexnet_w3_mlp_simclrhn_probe2,1,599,NaN,oven,bicycle,64-3-10,0599_eid_dnn_64-3-10_bicycle_10_n03792782_551.png,n03792782_551.png,0.0,-1.6190453,-0.12387442,-1.0572455
alexnet_w3_mlp_simclrhn_probe2,1,600,NaN,bottle,bottle,1-3-10,0600_eid_dnn_1-3-10_bottle_10_n03937543_2999.png,n03937543_2999.png,1.0,1.1159908,-1.3295394,1.729251
alexnet_w3_mlp_simclrhn_probe2,1,601,NaN,bear,airplane,16-3-10,0601_eid_dnn_16-3-10_airplane_10_n02690373_7279.png,n02690373_7279.png,0.0,-1.0043378,-0.021219894,-0.6951693
