subj,session,trial,rt,object_response,category,condition,imagename,filename,is_correct,targ_act,max_nontarg_act,decision_margin
alexnet_w1_mlp_simclrhn_probe1,1,1,NaN,oven,car,64-3-10,0001_eid_dnn_64-3-10_car_10_n04285008_8113.png,n04285008_8113.png,0.0,-9.873881,0.53238577,-7.358342
alexnet_w1_mlp_simclrhn_probe1,1,2,NaN,oven,oven,8-3-10,0002_eid_dnn_8-3-10_oven_10_n04111531_11848.png,n04111531_11848.png,1.0,1.6182504,0.64993626,0.6847015
alexnet_w1_mlp_simclrhn_probe1,1,3,NaN,oven,truck,8-3-10,0003_eid_dnn_8-3-10_truck_10_n03417042_25458.png,n03417042_25458.png,0.0,-5.379759,-0.33039832,-3.570437
alexnet_w1_mlp_simclrhn_probe1,1,4,NaN,bear,chair,16-3-10,0004_eid_dnn_16-3-10_chair_10_n03376595_6208.png,n03376595_6208.png,0.0,-5.7204328,-0.6799202,-3.5641806
alexnet_w1_mlp_simclrhn_probe1,1,5,NaN,bear,cat,32-3-10,0005_eid_dnn_32-3-10_cat_10_n02123045_12084.png,n02123045_12084.png,0.0,-1.8367795,-0.5419296,-0.91559714
alexnet_w1_mlp_simclrhn_probe1,1,6,NaN,keyboard,keyboard,8-3-10,0006_eid_dnn_8-3-10_keyboard_10_n03085013_20884.png,n03085013_20884.png,1.0,-0.71691537,-2.1328754,1.001235
alexnet_w1_mlp_simclrhn_probe1,1,7,NaN,airplane,airplane,4-3-10,0007_eid_dnn_4-3-10_airplane_10_n02690373_5992.png,n02690373_5992.png,1.0,2.8927348,-0.30496275,2.2611136
alexnet_w1_mlp_simclrhn_probe1,1,8,NaN,bear,bear,32-3-10,0008_eid_dnn_32-3-10_bear_10_n02132136_6641.png,n02132136_6641.png,1.0,0.2853532,0.1827232,0.07257038
alexnet_w1_mlp_simclrhn_probe1,1,9,NaN,oven,oven,2-3-10,0009_eid_dnn_2-3-10_oven_10_n04111531_2797.png,n04111531_2797.png,1.0,2.353349,-2.3515017,3.3268318
alexnet_w1_mlp_simclrhn_probe1,1,10,NaN,airplane,airplane,2-3-10,0010_eid_dnn_2-3-10_airplane_10_n02690373_7457.png,n02690373_7457.png,1.0,8.714138,0.7844801,5.607115
alexnet_w1_mlp_simclrhn_probe1,1,11,NaN,bear,truck,16-3-10,0011_eid_dnn_16-3-10_truck_10_n03796401_2751.png,n03796401_2751.png,0.0,-5.575987,-0.12280038,-3.8559852
alexnet_w1_mlp_simclrhn_probe1,1,12,NaN,bear,bear,2-3-10,0012_eid_dnn_2-3-10_bear_10_n02134418_860.png,n02134418_860.png,1.0,0.7851478,0.48595214,0.21156327
alexnet_w1_mlp_simclrhn_probe1,1,13,NaN,knife,knife,4-3-10,0013_eid_dnn_4-3-10_knife_10_n03041632_2058.png,n03041632_2058.png,1.0,1.0606129,-0.573202,1.1552817
alexnet_w1_mlp_simclrhn_probe1,1,14,NaN,oven,airplane,32-3-10,0014_eid_dnn_32-3-10_airplane_10_n02690373_10510.png,n02690373_10510.png,0.0,-8.836248,-0.12104812,-6.1625776
alexnet_w1_mlp_simclrhn_probe1,1,15,NaN,bear,keyboard,64-3-10,0015_eid_dnn_64-3-10_keyboard_10_n03085013_6313.png,n03085013_6313.png,0.0,-6.5240326,-0.37571937,-4.347514
alexnet_w1_mlp_simclrhn_probe1,1,16,NaN,airplane,bicycle,4-3-10,0016_eid_dnn_4-3-10_bicycle_10_n02835271_6278.png,n02835271_6278.png,0.0,-2.9083166,-0.12666067,-1.9669279
alexnet_w1_mlp_simclrhn_probe1,1,17,NaN,keyboard,keyboard,2-3-10,0017_eid_dnn_2-3-10_keyboard_10_n03085013_24192.png,n03085013_24192.png,1.0,6.2473354,-0.40278277,4.702344
alexnet_w1_mlp_simclrhn_probe1,1,18,NaN,car,car,2-3-10,0018_eid_dnn_2-3-10_car_10_n04285008_8255.png,n04285008_8255.png,1.0,4.7142844,2.2891295,1.7148435
alexnet_w1_mlp_simclrhn_probe1,1,19,NaN,airplane,airplane,2-3-10,0019_eid_dnn_2-3-10_airplane_10_n02690373_4591.png,n02690373_4591.png,1.0,2.0233397,-0.41831383,1.7265098
alexnet_w1_mlp_simclrhn_probe1,1,20,NaN,airplane,airplane,4-3-10,0020_eid_dnn_4-3-10_airplane_10_n02690373_7075.png,n02690373_7075.png,1.0,0.9676019,-0.95131695,1.3568805
alexnet_w1_mlp_simclrhn_probe1,1,21,NaN,oven,bicycle,4-3-10,0021_eid_dnn_4-3-10_bicycle_10_n02835271_21464.png,n02835271_21464.png,0.0,-2.508582,-1.9957722,-0.36261135
alexnet_w1_mlp_simclrhn_probe1,1,22,NaN,oven,car,64-3-10,0022_eid_dnn_64-3-10_car_10_n03100240_362.png,n03100240_362.png,0.0,-9.944214,1.2887777,-7.9429245
alexnet_w1_mlp_simclrhn_probe1,1,23,NaN,oven,truck,32-3-10,0023_eid_dnn_32-3-10_truck_10_n04467665_50927.png,n04467665_50927.png,0.0,-5.0445013,0.2271572,-3.7276254
alexnet_w1_mlp_simclrhn_probe1,1,24,NaN,oven,car,16-3-10,0024_eid_dnn_16-3-10_car_10_n04285008_3651.png,n04285008_3651.png,0.0,-7.8937263,-0.46540308,-5.252618
alexnet_w1_mlp_simclrhn_probe1,1,25,NaN,bottle,bottle,8-3-10,0025_eid_dnn_8-3-10_bottle_10_n04557648_4974.png,n04557648_4974.png,1.0,-0.103923835,-1.1891712,0.7673858
alexnet_w1_mlp_simclrhn_probe1,1,26,NaN,bear,bird,16-3-10,0026_eid_dnn_16-3-10_bird_10_n01537544_23499.png,n01537544_23499.png,0.0,-1.8371202,-0.8792077,-0.67734647
alexnet_w1_mlp_simclrhn_probe1,1,27,NaN,boat,boat,1-3-10,0027_eid_dnn_1-3-10_boat_10_n04612504_11387.png,n04612504_11387.png,1.0,2.783095,-0.49765655,2.3198416
alexnet_w1_mlp_simclrhn_probe1,1,28,NaN,bottle,bottle,4-3-10,0028_eid_dnn_4-3-10_bottle_10_n03983396_4300.png,n03983396_4300.png,1.0,0.18672593,-1.5866537,1.2539688
alexnet_w1_mlp_simclrhn_probe1,1,29,NaN,oven,bottle,64-3-10,0029_eid_dnn_64-3-10_bottle_10_n04591713_6961.png,n04591713_6961.png,0.0,-3.5994372,-1.1300224,-1.7461399
alexnet_w1_mlp_simclrhn_probe1,1,30,NaN,oven,clock,128-3-10,0030_eid_dnn_128-3-10_clock_10_n02708093_3361.png,n02708093_3361.png,0.0,-4.7950516,-2.5146923,-1.6124575
alexnet_w1_mlp_simclrhn_probe1,1,31,NaN,oven,truck,32-3-10,0031_eid_dnn_32-3-10_truck_10_n03417042_18374.png,n03417042_18374.png,0.0,-6.6100864,1.3596153,-5.6354303
alexnet_w1_mlp_simclrhn_probe1,1,32,NaN,oven,knife,64-3-10,0032_eid_dnn_64-3-10_knife_10_n03041632_36280.png,n03041632_36280.png,0.0,-2.1948593,-0.36990234,-1.2904394
alexnet_w1_mlp_simclrhn_probe1,1,33,NaN,cat,bird,8-3-10,0033_eid_dnn_8-3-10_bird_10_n01614925_47.png,n01614925_47.png,0.0,-2.2153387,-1.2362576,-0.6923149
alexnet_w1_mlp_simclrhn_probe1,1,34,NaN,oven,bicycle,8-3-10,0034_eid_dnn_8-3-10_bicycle_10_n02835271_20099.png,n02835271_20099.png,0.0,-2.7731805,-0.41966093,-1.6641896
alexnet_w1_mlp_simclrhn_probe1,1,35,NaN,dog,bear,4-3-10,0035_eid_dnn_4-3-10_bear_10_n02134084_12070.png,n02134084_12070.png,0.0,-1.2101002,-0.37741834,-0.588795
alexnet_w1_mlp_simclrhn_probe1,1,36,NaN,oven,bottle,8-3-10,0036_eid_dnn_8-3-10_bottle_10_n02823428_8525.png,n02823428_8525.png,0.0,-1.8238745,-0.11718598,-1.2068111
alexnet_w1_mlp_simclrhn_probe1,1,37,NaN,oven,truck,32-3-10,0037_eid_dnn_32-3-10_truck_10_n04467665_37953.png,n04467665_37953.png,0.0,-8.189997,0.8094212,-6.3635497
alexnet_w1_mlp_simclrhn_probe1,1,38,NaN,oven,oven,128-3-10,0038_eid_dnn_128-3-10_oven_10_n04111531_4868.png,n04111531_4868.png,1.0,-1.2674081,-2.7035167,1.0154822
alexnet_w1_mlp_simclrhn_probe1,1,39,NaN,bear,boat,32-3-10,0039_eid_dnn_32-3-10_boat_10_n03662601_19840.png,n03662601_19840.png,0.0,-2.8090942,-0.7787268,-1.4356866
alexnet_w1_mlp_simclrhn_probe1,1,40,NaN,elephant,truck,8-3-10,0040_eid_dnn_8-3-10_truck_10_n04467665_9331.png,n04467665_9331.png,0.0,-2.8656032,-0.42758673,-1.723938
alexnet_w1_mlp_simclrhn_probe1,1,41,NaN,oven,dog,64-3-10,0041_eid_dnn_64-3-10_dog_10_n02111277_16090.png,n02111277_16090.png,0.0,-2.6500776,-0.2480603,-1.6984828
alexnet_w1_mlp_simclrhn_probe1,1,42,NaN,oven,bottle,4-3-10,0042_eid_dnn_4-3-10_bottle_10_n02823428_6731.png,n02823428_6731.png,0.0,-0.59429985,1.8655738,-1.7393934
alexnet_w1_mlp_simclrhn_probe1,1,43,NaN,elephant,elephant,8-3-10,0043_eid_dnn_8-3-10_elephant_10_n02504013_8930.png,n02504013_8930.png,1.0,2.6854372,2.104258,0.41095573
alexnet_w1_mlp_simclrhn_probe1,1,44,NaN,car,car,4-3-10,0044_eid_dnn_4-3-10_car_10_n03100240_13673.png,n03100240_13673.png,1.0,1.7197056,-1.1361723,2.0194106
alexnet_w1_mlp_simclrhn_probe1,1,45,NaN,bear,bird,128-3-10,0045_eid_dnn_128-3-10_bird_10_n02018207_6819.png,n02018207_6819.png,0.0,-2.2831066,-1.5015688,-0.55263066
alexnet_w1_mlp_simclrhn_probe1,1,46,NaN,elephant,elephant,4-3-10,0046_eid_dnn_4-3-10_elephant_10_n02504013_6065.png,n02504013_6065.png,1.0,1.9185143,0.36287624,1.1000023
alexnet_w1_mlp_simclrhn_probe1,1,47,NaN,dog,cat,1-3-10,0047_eid_dnn_1-3-10_cat_10_n02123394_384.png,n02123394_384.png,0.0,-2.1337333,-1.5441952,-0.4168664
alexnet_w1_mlp_simclrhn_probe1,1,48,NaN,bear,bicycle,16-3-10,0048_eid_dnn_16-3-10_bicycle_10_n02835271_12608.png,n02835271_12608.png,0.0,-6.787293,1.2913519,-5.712465
alexnet_w1_mlp_simclrhn_probe1,1,49,NaN,bicycle,chair,2-3-10,0049_eid_dnn_2-3-10_chair_10_n03376595_13949.png,n03376595_13949.png,0.0,-4.2722607,-1.6386043,-1.8622764
alexnet_w1_mlp_simclrhn_probe1,1,50,NaN,oven,airplane,128-3-10,0050_eid_dnn_128-3-10_airplane_10_n02690373_3561.png,n02690373_3561.png,0.0,-7.0242267,-1.1940937,-4.1225266
alexnet_w1_mlp_simclrhn_probe1,1,51,NaN,oven,bicycle,32-3-10,0051_eid_dnn_32-3-10_bicycle_10_n02835271_8203.png,n02835271_8203.png,0.0,-5.494169,-0.7322074,-3.3672156
alexnet_w1_mlp_simclrhn_probe1,1,52,NaN,bicycle,bicycle,2-3-10,0052_eid_dnn_2-3-10_bicycle_10_n03792782_5665.png,n03792782_5665.png,1.0,6.2284207,-3.69009,7.0134463
alexnet_w1_mlp_simclrhn_probe1,1,53,NaN,oven,bicycle,128-3-10,0053_eid_dnn_128-3-10_bicycle_10_n02835271_15028.png,n02835271_15028.png,0.0,-3.5302522,-1.3660557,-1.530318
alexnet_w1_mlp_simclrhn_probe1,1,54,NaN,clock,clock,1-3-10,0054_eid_dnn_1-3-10_clock_10_n04548280_3318.png,n04548280_3318.png,1.0,3.253685,-0.7019846,2.797081
alexnet_w1_mlp_simclrhn_probe1,1,55,NaN,oven,cat,128-3-10,0055_eid_dnn_128-3-10_cat_10_n02123045_8784.png,n02123045_8784.png,0.0,-3.54999,-0.95635283,-1.8339783
alexnet_w1_mlp_simclrhn_probe1,1,56,NaN,oven,knife,128-3-10,0056_eid_dnn_128-3-10_knife_10_n03041632_3247.png,n03041632_3247.png,0.0,-2.4915137,-1.1310433,-0.96199787
alexnet_w1_mlp_simclrhn_probe1,1,57,NaN,cat,dog,8-3-10,0057_eid_dnn_8-3-10_dog_10_n02110185_11414.png,n02110185_11414.png,0.0,-0.43525314,1.3622509,-1.2710273
alexnet_w1_mlp_simclrhn_probe1,1,58,NaN,bear,dog,32-3-10,0058_eid_dnn_32-3-10_dog_10_n02113712_2715.png,n02113712_2715.png,0.0,-2.3760302,-0.08419396,-1.620573
alexnet_w1_mlp_simclrhn_probe1,1,59,NaN,bird,elephant,2-3-10,0059_eid_dnn_2-3-10_elephant_10_n02504458_1210.png,n02504458_1210.png,0.0,-2.44993,-1.3234035,-0.79657453
alexnet_w1_mlp_simclrhn_probe1,1,60,NaN,oven,car,16-3-10,0060_eid_dnn_16-3-10_car_10_n02814533_32337.png,n02814533_32337.png,0.0,-8.731963,1.3744682,-7.146326
alexnet_w1_mlp_simclrhn_probe1,1,61,NaN,car,car,4-3-10,0061_eid_dnn_4-3-10_car_10_n02814533_55326.png,n02814533_55326.png,1.0,0.7036443,-0.5622289,0.8951075
alexnet_w1_mlp_simclrhn_probe1,1,62,NaN,oven,knife,64-3-10,0062_eid_dnn_64-3-10_knife_10_n03041632_32774.png,n03041632_32774.png,0.0,-3.0868711,-0.54019237,-1.8007739
alexnet_w1_mlp_simclrhn_probe1,1,63,NaN,elephant,bicycle,8-3-10,0063_eid_dnn_8-3-10_bicycle_10_n02835271_11921.png,n02835271_11921.png,0.0,-7.001937,1.6856656,-6.143063
alexnet_w1_mlp_simclrhn_probe1,1,64,NaN,oven,chair,32-3-10,0064_eid_dnn_32-3-10_chair_10_n03376595_6115.png,n03376595_6115.png,0.0,-5.279909,-0.34688586,-3.4881744
alexnet_w1_mlp_simclrhn_probe1,1,65,NaN,bear,bear,16-3-10,0065_eid_dnn_16-3-10_bear_10_n02133161_79.png,n02133161_79.png,1.0,-0.11804201,-0.5390864,0.29772335
alexnet_w1_mlp_simclrhn_probe1,1,66,NaN,boat,boat,1-3-10,0066_eid_dnn_1-3-10_boat_10_n03662601_34796.png,n03662601_34796.png,1.0,5.364591,0.76343906,3.2535057
alexnet_w1_mlp_simclrhn_probe1,1,67,NaN,bird,bird,4-3-10,0067_eid_dnn_4-3-10_bird_10_n02051845_8976.png,n02051845_8976.png,1.0,-0.8662784,-2.1262543,0.8909375
alexnet_w1_mlp_simclrhn_probe1,1,68,NaN,elephant,boat,4-3-10,0068_eid_dnn_4-3-10_boat_10_n03344393_7362.png,n03344393_7362.png,0.0,-0.50589573,-0.01004225,-0.35062137
alexnet_w1_mlp_simclrhn_probe1,1,69,NaN,oven,car,32-3-10,0069_eid_dnn_32-3-10_car_10_n02814533_34289.png,n02814533_34289.png,0.0,-7.4514084,-0.19528055,-5.1308575
alexnet_w1_mlp_simclrhn_probe1,1,70,NaN,bear,keyboard,16-3-10,0070_eid_dnn_16-3-10_keyboard_10_n03085013_2166.png,n03085013_2166.png,0.0,-7.5049906,0.55077016,-5.696283
alexnet_w1_mlp_simclrhn_probe1,1,71,NaN,bear,bear,2-3-10,0071_eid_dnn_2-3-10_bear_10_n02133161_10167.png,n02133161_10167.png,1.0,4.766168,2.535736,1.5771537
alexnet_w1_mlp_simclrhn_probe1,1,72,NaN,oven,keyboard,16-3-10,0072_eid_dnn_16-3-10_keyboard_10_n04505470_430.png,n04505470_430.png,0.0,-2.622905,-0.2865228,-1.6520717
alexnet_w1_mlp_simclrhn_probe1,1,73,NaN,bear,boat,128-3-10,0073_eid_dnn_128-3-10_boat_10_n03662601_17001.png,n03662601_17001.png,0.0,-6.0001616,-2.4945967,-2.4788089
alexnet_w1_mlp_simclrhn_probe1,1,74,NaN,cat,bear,128-3-10,0074_eid_dnn_128-3-10_bear_10_n02133161_5157.png,n02133161_5157.png,0.0,-2.2422369,-1.0438565,-0.8473829
alexnet_w1_mlp_simclrhn_probe1,1,75,NaN,bear,boat,2-3-10,0075_eid_dnn_2-3-10_boat_10_n02951358_17870.png,n02951358_17870.png,0.0,-1.2978055,-0.6248008,-0.47588623
alexnet_w1_mlp_simclrhn_probe1,1,76,NaN,oven,cat,64-3-10,0076_eid_dnn_64-3-10_cat_10_n02123159_1102.png,n02123159_1102.png,0.0,-3.0305507,-1.5179107,-1.0695981
alexnet_w1_mlp_simclrhn_probe1,1,77,NaN,cat,cat,32-3-10,0077_eid_dnn_32-3-10_cat_10_n02123045_4252.png,n02123045_4252.png,1.0,-1.439329,-1.8145669,0.2653332
alexnet_w1_mlp_simclrhn_probe1,1,78,NaN,keyboard,keyboard,2-3-10,0078_eid_dnn_2-3-10_keyboard_10_n04505470_4294.png,n04505470_4294.png,1.0,2.494631,-1.1039603,2.5445883
alexnet_w1_mlp_simclrhn_probe1,1,79,NaN,truck,truck,2-3-10,0079_eid_dnn_2-3-10_truck_10_n04467665_1101.png,n04467665_1101.png,1.0,6.380456,4.0380244,1.6563493
alexnet_w1_mlp_simclrhn_probe1,1,80,NaN,oven,airplane,64-3-10,0080_eid_dnn_64-3-10_airplane_10_n02690373_2078.png,n02690373_2078.png,0.0,-5.012519,-0.5089482,-3.1845052
alexnet_w1_mlp_simclrhn_probe1,1,81,NaN,oven,boat,64-3-10,0081_eid_dnn_64-3-10_boat_10_n04612504_5535.png,n04612504_5535.png,0.0,-7.056183,-0.6348779,-4.5405483
alexnet_w1_mlp_simclrhn_probe1,1,82,NaN,bear,cat,16-3-10,0082_eid_dnn_16-3-10_cat_10_n02125311_15099.png,n02125311_15099.png,0.0,-2.1807392,1.0570214,-2.2894425
alexnet_w1_mlp_simclrhn_probe1,1,83,NaN,oven,airplane,64-3-10,0083_eid_dnn_64-3-10_airplane_10_n02690373_4671.png,n02690373_4671.png,0.0,-6.367568,-0.79101837,-3.943216
alexnet_w1_mlp_simclrhn_probe1,1,84,NaN,truck,truck,1-3-10,0084_eid_dnn_1-3-10_truck_10_n03417042_9062.png,n03417042_9062.png,1.0,2.4478927,0.82299286,1.1489778
alexnet_w1_mlp_simclrhn_probe1,1,85,NaN,cat,cat,4-3-10,0085_eid_dnn_4-3-10_cat_10_n02123394_283.png,n02123394_283.png,1.0,-0.43774652,-1.8824033,1.0215266
alexnet_w1_mlp_simclrhn_probe1,1,86,NaN,car,car,1-3-10,0086_eid_dnn_1-3-10_car_10_n02814533_3375.png,n02814533_3375.png,1.0,10.079844,6.8064675,2.3146272
alexnet_w1_mlp_simclrhn_probe1,1,87,NaN,cat,cat,2-3-10,0087_eid_dnn_2-3-10_cat_10_n02124075_9706.png,n02124075_9706.png,1.0,1.2011409,-1.5951179,1.9772537
alexnet_w1_mlp_simclrhn_probe1,1,88,NaN,car,car,2-3-10,0088_eid_dnn_2-3-10_car_10_n04285008_10563.png,n04285008_10563.png,1.0,4.425587,1.8598521,1.8142487
alexnet_w1_mlp_simclrhn_probe1,1,89,NaN,oven,clock,64-3-10,0089_eid_dnn_64-3-10_clock_10_n03196217_3283.png,n03196217_3283.png,0.0,-5.8710217,-0.8662437,-3.5389125
alexnet_w1_mlp_simclrhn_probe1,1,90,NaN,oven,oven,128-3-10,0090_eid_dnn_128-3-10_oven_10_n04111531_21120.png,n04111531_21120.png,1.0,-1.2706535,-1.6070517,0.23786949
alexnet_w1_mlp_simclrhn_probe1,1,91,NaN,bird,bird,1-3-10,0091_eid_dnn_1-3-10_bird_10_n01824575_6186.png,n01824575_6186.png,1.0,1.1571323,-2.331639,2.466934
alexnet_w1_mlp_simclrhn_probe1,1,92,NaN,dog,dog,4-3-10,0092_eid_dnn_4-3-10_dog_10_n02102318_11155.png,n02102318_11155.png,1.0,0.82573247,-1.508395,1.6504774
alexnet_w1_mlp_simclrhn_probe1,1,93,NaN,bear,clock,16-3-10,0093_eid_dnn_16-3-10_clock_10_n04548280_2283.png,n04548280_2283.png,0.0,-5.0926695,0.803182,-4.168997
alexnet_w1_mlp_simclrhn_probe1,1,94,NaN,oven,chair,128-3-10,0094_eid_dnn_128-3-10_chair_10_n03376595_18787.png,n03376595_18787.png,0.0,-5.305792,-0.5103875,-3.390863
alexnet_w1_mlp_simclrhn_probe1,1,95,NaN,oven,keyboard,8-3-10,0095_eid_dnn_8-3-10_keyboard_10_n04505470_1903.png,n04505470_1903.png,0.0,-2.4278631,0.6171025,-2.153116
alexnet_w1_mlp_simclrhn_probe1,1,96,NaN,oven,clock,16-3-10,0096_eid_dnn_16-3-10_clock_10_n03196217_6185.png,n03196217_6185.png,0.0,-7.2480893,0.02845078,-5.145291
alexnet_w1_mlp_simclrhn_probe1,1,97,NaN,bottle,clock,2-3-10,0097_eid_dnn_2-3-10_clock_10_n03196217_10424.png,n03196217_10424.png,0.0,0.88554364,1.0583597,-0.12219944
alexnet_w1_mlp_simclrhn_probe1,1,98,NaN,knife,knife,2-3-10,0098_eid_dnn_2-3-10_knife_10_n03041632_43436.png,n03041632_43436.png,1.0,0.2900345,-2.3235967,1.8481164
alexnet_w1_mlp_simclrhn_probe1,1,99,NaN,dog,dog,1-3-10,0099_eid_dnn_1-3-10_dog_10_n02093647_5955.png,n02093647_5955.png,1.0,-0.12329527,-1.6772958,1.0988443
alexnet_w1_mlp_simclrhn_probe1,1,100,NaN,oven,boat,32-3-10,0100_eid_dnn_32-3-10_boat_10_n03662601_5423.png,n03662601_5423.png,0.0,-3.6818738,-0.62946534,-2.1583788
alexnet_w1_mlp_simclrhn_probe1,1,101,NaN,oven,keyboard,128-3-10,0101_eid_dnn_128-3-10_keyboard_10_n04505470_9457.png,n04505470_9457.png,0.0,-7.8509555,-1.3879068,-4.570066
alexnet_w1_mlp_simclrhn_probe1,1,102,NaN,cat,knife,128-3-10,0102_eid_dnn_128-3-10_knife_10_n03041632_38535.png,n03041632_38535.png,0.0,-2.7995105,-1.6533552,-0.81045413
alexnet_w1_mlp_simclrhn_probe1,1,103,NaN,elephant,elephant,8-3-10,0103_eid_dnn_8-3-10_elephant_10_n02504458_8141.png,n02504458_8141.png,1.0,0.033724368,-0.06585962,0.07041652
alexnet_w1_mlp_simclrhn_probe1,1,104,NaN,airplane,airplane,4-3-10,0104_eid_dnn_4-3-10_airplane_10_n02690373_9086.png,n02690373_9086.png,1.0,1.4802368,-1.8129059,2.3286037
alexnet_w1_mlp_simclrhn_probe1,1,105,NaN,bear,bicycle,16-3-10,0105_eid_dnn_16-3-10_bicycle_10_n03792782_19116.png,n03792782_19116.png,0.0,-1.6140962,-0.05564571,-1.1019909
alexnet_w1_mlp_simclrhn_probe1,1,106,NaN,elephant,elephant,4-3-10,0106_eid_dnn_4-3-10_elephant_10_n02504458_2343.png,n02504458_2343.png,1.0,3.7877216,1.0899854,1.9075876
alexnet_w1_mlp_simclrhn_probe1,1,107,NaN,oven,airplane,16-3-10,0107_eid_dnn_16-3-10_airplane_10_n02690373_7093.png,n02690373_7093.png,0.0,-2.0106592,-1.7316886,-0.197262
alexnet_w1_mlp_simclrhn_probe1,1,108,NaN,oven,car,32-3-10,0108_eid_dnn_32-3-10_car_10_n03100240_7935.png,n03100240_7935.png,0.0,-8.1248665,0.0625818,-5.7894006
alexnet_w1_mlp_simclrhn_probe1,1,109,NaN,bear,airplane,16-3-10,0109_eid_dnn_16-3-10_airplane_10_n02690373_8611.png,n02690373_8611.png,0.0,-4.0339336,-1.2083523,-1.9979877
alexnet_w1_mlp_simclrhn_probe1,1,110,NaN,bear,bear,2-3-10,0110_eid_dnn_2-3-10_bear_10_n02133161_7332.png,n02133161_7332.png,1.0,5.662717,1.4021294,3.0126905
alexnet_w1_mlp_simclrhn_probe1,1,111,NaN,car,car,2-3-10,0111_eid_dnn_2-3-10_car_10_n03100240_9387.png,n03100240_9387.png,1.0,6.0332427,3.2332947,1.9798622
alexnet_w1_mlp_simclrhn_probe1,1,112,NaN,cat,cat,4-3-10,0112_eid_dnn_4-3-10_cat_10_n02124075_521.png,n02124075_521.png,1.0,1.0149304,-0.5258445,1.0894923
alexnet_w1_mlp_simclrhn_probe1,1,113,NaN,oven,bottle,128-3-10,0113_eid_dnn_128-3-10_bottle_10_n04560804_3746.png,n04560804_3746.png,0.0,-5.2425113,-0.07067752,-3.657039
alexnet_w1_mlp_simclrhn_probe1,1,114,NaN,bear,elephant,16-3-10,0114_eid_dnn_16-3-10_elephant_10_n02504458_1127.png,n02504458_1127.png,0.0,-0.010263324,0.9793541,-0.6997652
alexnet_w1_mlp_simclrhn_probe1,1,115,NaN,knife,knife,8-3-10,0115_eid_dnn_8-3-10_knife_10_n03041632_14132.png,n03041632_14132.png,1.0,-0.6944363,-1.9444141,0.8838678
alexnet_w1_mlp_simclrhn_probe1,1,116,NaN,oven,oven,1-3-10,0116_eid_dnn_1-3-10_oven_10_n04111531_18916.png,n04111531_18916.png,1.0,1.5921543,-1.4404851,2.1444
alexnet_w1_mlp_simclrhn_probe1,1,117,NaN,oven,oven,1-3-10,0117_eid_dnn_1-3-10_oven_10_n04111531_19274.png,n04111531_19274.png,1.0,1.4650822,-3.5377316,3.5375237
alexnet_w1_mlp_simclrhn_probe1,1,118,NaN,bird,bird,2-3-10,0118_eid_dnn_2-3-10_bird_10_n01843383_277.png,n01843383_277.png,1.0,-0.975566,-2.7276103,1.2388824
alexnet_w1_mlp_simclrhn_probe1,1,119,NaN,bear,boat,64-3-10,0119_eid_dnn_64-3-10_boat_10_n03344393_6799.png,n03344393_6799.png,0.0,-6.037036,-1.5130985,-3.1989067
alexnet_w1_mlp_simclrhn_probe1,1,120,NaN,dog,dog,2-3-10,0120_eid_dnn_2-3-10_dog_10_n02093428_16887.png,n02093428_16887.png,1.0,0.3329077,-0.3940426,0.51403147
alexnet_w1_mlp_simclrhn_probe1,1,121,NaN,oven,elephant,64-3-10,0121_eid_dnn_64-3-10_elephant_10_n02504458_6163.png,n02504458_6163.png,0.0,-1.658829,-1.2303367,-0.3029898
alexnet_w1_mlp_simclrhn_probe1,1,122,NaN,oven,bottle,64-3-10,0122_eid_dnn_64-3-10_bottle_10_n04591713_2826.png,n04591713_2826.png,0.0,-2.733638,-1.1419481,-1.1254947
alexnet_w1_mlp_simclrhn_probe1,1,123,NaN,bear,bottle,64-3-10,0123_eid_dnn_64-3-10_bottle_10_n04557648_3598.png,n04557648_3598.png,0.0,-2.6145706,-1.3801508,-0.87286663
alexnet_w1_mlp_simclrhn_probe1,1,124,NaN,boat,truck,8-3-10,0124_eid_dnn_8-3-10_truck_10_n04467665_80629.png,n04467665_80629.png,0.0,-4.4514,-0.98770773,-2.4492004
alexnet_w1_mlp_simclrhn_probe1,1,125,NaN,bear,bear,4-3-10,0125_eid_dnn_4-3-10_bear_10_n02134084_6869.png,n02134084_6869.png,1.0,0.6950959,0.37591624,0.2256941
alexnet_w1_mlp_simclrhn_probe1,1,126,NaN,cat,bird,1-3-10,0126_eid_dnn_1-3-10_bird_10_n01820546_4457.png,n01820546_4457.png,0.0,-1.7740165,-1.4379781,-0.237615
alexnet_w1_mlp_simclrhn_probe1,1,127,NaN,oven,clock,64-3-10,0127_eid_dnn_64-3-10_clock_10_n04548280_7565.png,n04548280_7565.png,0.0,-4.555293,-1.2240536,-2.355542
alexnet_w1_mlp_simclrhn_probe1,1,128,NaN,bear,elephant,16-3-10,0128_eid_dnn_16-3-10_elephant_10_n02504458_98.png,n02504458_98.png,0.0,-0.0675748,0.95742124,-0.7247817
alexnet_w1_mlp_simclrhn_probe1,1,129,NaN,bear,bicycle,64-3-10,0129_eid_dnn_64-3-10_bicycle_10_n03792782_7143.png,n03792782_7143.png,0.0,-2.6057644,-1.0186294,-1.1222739
alexnet_w1_mlp_simclrhn_probe1,1,130,NaN,bear,dog,16-3-10,0130_eid_dnn_16-3-10_dog_10_n02096051_5524.png,n02096051_5524.png,0.0,-1.5937935,0.537275,-1.506893
alexnet_w1_mlp_simclrhn_probe1,1,131,NaN,bear,cat,16-3-10,0131_eid_dnn_16-3-10_cat_10_n02123045_9465.png,n02123045_9465.png,0.0,-1.1364307,0.4679135,-1.1344427
alexnet_w1_mlp_simclrhn_probe1,1,132,NaN,oven,cat,64-3-10,0132_eid_dnn_64-3-10_cat_10_n02123159_9450.png,n02123159_9450.png,0.0,-1.9088529,-0.55000985,-0.9608472
alexnet_w1_mlp_simclrhn_probe1,1,133,NaN,bottle,clock,4-3-10,0133_eid_dnn_4-3-10_clock_10_n02708093_8204.png,n02708093_8204.png,0.0,-1.280651,-1.2069577,-0.052109014
alexnet_w1_mlp_simclrhn_probe1,1,134,NaN,bear,airplane,32-3-10,0134_eid_dnn_32-3-10_airplane_10_n02690373_2619.png,n02690373_2619.png,0.0,-2.649907,-1.2676468,-0.97740567
alexnet_w1_mlp_simclrhn_probe1,1,135,NaN,car,car,2-3-10,0135_eid_dnn_2-3-10_car_10_n04285008_11295.png,n04285008_11295.png,1.0,6.199517,2.3175845,2.7449408
alexnet_w1_mlp_simclrhn_probe1,1,136,NaN,bear,bear,8-3-10,0136_eid_dnn_8-3-10_bear_10_n02133161_15481.png,n02133161_15481.png,1.0,2.2452495,0.4602698,1.2621713
alexnet_w1_mlp_simclrhn_probe1,1,137,NaN,oven,truck,64-3-10,0137_eid_dnn_64-3-10_truck_10_n03417042_8139.png,n03417042_8139.png,0.0,-6.229204,-1.4564869,-3.374821
alexnet_w1_mlp_simclrhn_probe1,1,138,NaN,cat,bottle,16-3-10,0138_eid_dnn_16-3-10_bottle_10_n04557648_4490.png,n04557648_4490.png,0.0,-1.6763793,-0.8404524,-0.5910896
alexnet_w1_mlp_simclrhn_probe1,1,139,NaN,knife,clock,1-3-10,0139_eid_dnn_1-3-10_clock_10_n03196217_5399.png,n03196217_5399.png,0.0,-0.7211702,-0.6683186,-0.037371695
alexnet_w1_mlp_simclrhn_probe1,1,140,NaN,boat,boat,1-3-10,0140_eid_dnn_1-3-10_boat_10_n04273569_4136.png,n04273569_4136.png,1.0,1.8964207,0.3013778,1.1278657
alexnet_w1_mlp_simclrhn_probe1,1,141,NaN,clock,clock,4-3-10,0141_eid_dnn_4-3-10_clock_10_n04548280_2127.png,n04548280_2127.png,1.0,-1.5588237,-2.2368047,0.479405
alexnet_w1_mlp_simclrhn_probe1,1,142,NaN,airplane,boat,2-3-10,0142_eid_dnn_2-3-10_boat_10_n03344393_10038.png,n03344393_10038.png,0.0,1.2216661,1.8386612,-0.4362814
alexnet_w1_mlp_simclrhn_probe1,1,143,NaN,elephant,elephant,2-3-10,0143_eid_dnn_2-3-10_elephant_10_n02504013_10793.png,n02504013_10793.png,1.0,9.812511,2.4790733,5.185524
alexnet_w1_mlp_simclrhn_probe1,1,144,NaN,bear,oven,128-3-10,0144_eid_dnn_128-3-10_oven_10_n04111531_6590.png,n04111531_6590.png,0.0,-2.8252902,-2.5628316,-0.18558623
alexnet_w1_mlp_simclrhn_probe1,1,145,NaN,oven,keyboard,16-3-10,0145_eid_dnn_16-3-10_keyboard_10_n03085013_10984.png,n03085013_10984.png,0.0,-3.8964243,-1.2980461,-1.8373308
alexnet_w1_mlp_simclrhn_probe1,1,146,NaN,bicycle,bicycle,2-3-10,0146_eid_dnn_2-3-10_bicycle_10_n02835271_14879.png,n02835271_14879.png,1.0,0.5344826,-0.119117215,0.46216485
alexnet_w1_mlp_simclrhn_probe1,1,147,NaN,bear,knife,64-3-10,0147_eid_dnn_64-3-10_knife_10_n03041632_22241.png,n03041632_22241.png,0.0,-2.4282255,-0.35283616,-1.4675219
alexnet_w1_mlp_simclrhn_probe1,1,148,NaN,oven,oven,64-3-10,0148_eid_dnn_64-3-10_oven_10_n04111531_892.png,n04111531_892.png,1.0,-0.6363555,-1.35195,0.5060018
alexnet_w1_mlp_simclrhn_probe1,1,149,NaN,oven,bear,64-3-10,0149_eid_dnn_64-3-10_bear_10_n02134418_14850.png,n02134418_14850.png,0.0,-1.6531951,-1.0867692,-0.4005236
alexnet_w1_mlp_simclrhn_probe1,1,150,NaN,oven,knife,64-3-10,0150_eid_dnn_64-3-10_knife_10_n03041632_48071.png,n03041632_48071.png,0.0,-2.661446,-0.9654645,-1.1992401
alexnet_w1_mlp_simclrhn_probe1,1,151,NaN,cat,clock,16-3-10,0151_eid_dnn_16-3-10_clock_10_n04548280_64.png,n04548280_64.png,0.0,-5.6741123,-1.9991401,-2.5985978
alexnet_w1_mlp_simclrhn_probe1,1,152,NaN,bird,truck,64-3-10,0152_eid_dnn_64-3-10_truck_10_n03796401_6285.png,n03796401_6285.png,0.0,-5.580233,-2.1379366,-2.4340713
alexnet_w1_mlp_simclrhn_probe1,1,153,NaN,airplane,airplane,4-3-10,0153_eid_dnn_4-3-10_airplane_10_n02690373_6682.png,n02690373_6682.png,1.0,1.0868399,-1.0402262,1.5040629
alexnet_w1_mlp_simclrhn_probe1,1,154,NaN,oven,knife,64-3-10,0154_eid_dnn_64-3-10_knife_10_n03041632_17285.png,n03041632_17285.png,0.0,-3.019415,-0.053583026,-2.0971599
alexnet_w1_mlp_simclrhn_probe1,1,155,NaN,boat,boat,2-3-10,0155_eid_dnn_2-3-10_boat_10_n02951358_8184.png,n02951358_8184.png,1.0,1.0161791,0.9711133,0.031866305
alexnet_w1_mlp_simclrhn_probe1,1,156,NaN,bicycle,bear,1-3-10,0156_eid_dnn_1-3-10_bear_10_n02132136_2346.png,n02132136_2346.png,0.0,-1.4105258,-0.2821072,-0.7979124
alexnet_w1_mlp_simclrhn_probe1,1,157,NaN,bear,bear,8-3-10,0157_eid_dnn_8-3-10_bear_10_n02134418_2187.png,n02134418_2187.png,1.0,2.8265834,0.49878925,1.645999
alexnet_w1_mlp_simclrhn_probe1,1,158,NaN,bear,cat,32-3-10,0158_eid_dnn_32-3-10_cat_10_n02124075_10162.png,n02124075_10162.png,0.0,-1.904214,-0.2612585,-1.1617451
alexnet_w1_mlp_simclrhn_probe1,1,159,NaN,bear,truck,128-3-10,0159_eid_dnn_128-3-10_truck_10_n03417042_8998.png,n03417042_8998.png,0.0,-5.234031,-1.4203105,-2.6967077
alexnet_w1_mlp_simclrhn_probe1,1,160,NaN,cat,cat,64-3-10,0160_eid_dnn_64-3-10_cat_10_n02123597_13835.png,n02123597_13835.png,1.0,-1.4444939,-1.4995447,0.03892683
alexnet_w1_mlp_simclrhn_probe1,1,161,NaN,clock,clock,1-3-10,0161_eid_dnn_1-3-10_clock_10_n04548280_18914.png,n04548280_18914.png,1.0,4.19932,-1.6719111,4.1515875
alexnet_w1_mlp_simclrhn_probe1,1,162,NaN,keyboard,keyboard,2-3-10,0162_eid_dnn_2-3-10_keyboard_10_n03085013_2676.png,n03085013_2676.png,1.0,3.3786404,-0.38215232,2.6592822
alexnet_w1_mlp_simclrhn_probe1,1,163,NaN,oven,airplane,16-3-10,0163_eid_dnn_16-3-10_airplane_10_n02690373_7600.png,n02690373_7600.png,0.0,-5.794941,0.5440409,-4.482337
alexnet_w1_mlp_simclrhn_probe1,1,164,NaN,bear,chair,16-3-10,0164_eid_dnn_16-3-10_chair_10_n04429376_17917.png,n04429376_17917.png,0.0,-6.1602416,1.0091779,-5.0695453
alexnet_w1_mlp_simclrhn_probe1,1,165,NaN,keyboard,keyboard,4-3-10,0165_eid_dnn_4-3-10_keyboard_10_n04505470_4492.png,n04505470_4492.png,1.0,-0.7819328,-0.8315631,0.035093952
alexnet_w1_mlp_simclrhn_probe1,1,166,NaN,bear,bear,1-3-10,0166_eid_dnn_1-3-10_bear_10_n02134418_3148.png,n02134418_3148.png,1.0,3.2367213,1.0842422,1.5220326
alexnet_w1_mlp_simclrhn_probe1,1,167,NaN,elephant,cat,4-3-10,0167_eid_dnn_4-3-10_cat_10_n02125311_20388.png,n02125311_20388.png,0.0,-0.5730127,1.311925,-1.3328522
alexnet_w1_mlp_simclrhn_probe1,1,168,NaN,oven,cat,64-3-10,0168_eid_dnn_64-3-10_cat_10_n02123394_2153.png,n02123394_2153.png,0.0,-2.2385213,-0.91521394,-0.93571967
alexnet_w1_mlp_simclrhn_probe1,1,169,NaN,clock,clock,1-3-10,0169_eid_dnn_1-3-10_clock_10_n04548280_5327.png,n04548280_5327.png,1.0,-1.5479174,-1.8704803,0.22808644
alexnet_w1_mlp_simclrhn_probe1,1,170,NaN,cat,bicycle,8-3-10,0170_eid_dnn_8-3-10_bicycle_10_n03792782_63054.png,n03792782_63054.png,0.0,-7.013502,-0.669986,-4.4855437
alexnet_w1_mlp_simclrhn_probe1,1,171,NaN,cat,chair,32-3-10,0171_eid_dnn_32-3-10_chair_10_n03376595_14138.png,n03376595_14138.png,0.0,-5.2628474,-1.0022811,-3.0126753
alexnet_w1_mlp_simclrhn_probe1,1,172,NaN,elephant,elephant,2-3-10,0172_eid_dnn_2-3-10_elephant_10_n02504458_4849.png,n02504458_4849.png,1.0,2.4757175,-0.0721786,1.8016347
alexnet_w1_mlp_simclrhn_probe1,1,173,NaN,oven,dog,128-3-10,0173_eid_dnn_128-3-10_dog_10_n02113624_4844.png,n02113624_4844.png,0.0,-3.4566672,-1.2928284,-1.5300652
alexnet_w1_mlp_simclrhn_probe1,1,174,NaN,elephant,elephant,2-3-10,0174_eid_dnn_2-3-10_elephant_10_n02504013_2549.png,n02504013_2549.png,1.0,3.5027187,2.6328547,0.61508673
alexnet_w1_mlp_simclrhn_probe1,1,175,NaN,bear,bear,8-3-10,0175_eid_dnn_8-3-10_bear_10_n02134084_4593.png,n02134084_4593.png,1.0,1.1192045,-0.5172004,1.1571131
alexnet_w1_mlp_simclrhn_probe1,1,176,NaN,bear,bicycle,64-3-10,0176_eid_dnn_64-3-10_bicycle_10_n02835271_75.png,n02835271_75.png,0.0,-2.0000076,-1.7028768,-0.21010323
alexnet_w1_mlp_simclrhn_probe1,1,177,NaN,oven,truck,4-3-10,0177_eid_dnn_4-3-10_truck_10_n03796401_20943.png,n03796401_20943.png,0.0,-1.4802301,-0.41458324,-0.75352615
alexnet_w1_mlp_simclrhn_probe1,1,178,NaN,knife,knife,2-3-10,0178_eid_dnn_2-3-10_knife_10_n03041632_32048.png,n03041632_32048.png,1.0,-0.87387145,-1.2390541,0.25822312
alexnet_w1_mlp_simclrhn_probe1,1,179,NaN,bicycle,cat,1-3-10,0179_eid_dnn_1-3-10_cat_10_n02123159_3536.png,n02123159_3536.png,0.0,-1.4183451,-1.1482935,-0.19095533
alexnet_w1_mlp_simclrhn_probe1,1,180,NaN,bear,bicycle,1-3-10,0180_eid_dnn_1-3-10_bicycle_10_n03792782_6716.png,n03792782_6716.png,0.0,-1.1901597,-0.6445691,-0.3857908
alexnet_w1_mlp_simclrhn_probe1,1,181,NaN,clock,clock,2-3-10,0181_eid_dnn_2-3-10_clock_10_n03196217_1754.png,n03196217_1754.png,1.0,0.63179594,-0.016670117,0.45853475
alexnet_w1_mlp_simclrhn_probe1,1,182,NaN,bicycle,bicycle,1-3-10,0182_eid_dnn_1-3-10_bicycle_10_n03792782_5404.png,n03792782_5404.png,1.0,1.224292,-3.3092294,3.205684
alexnet_w1_mlp_simclrhn_probe1,1,183,NaN,bear,dog,64-3-10,0183_eid_dnn_64-3-10_dog_10_n02096294_3014.png,n02096294_3014.png,0.0,-2.3391297,-1.0956482,-0.87927425
alexnet_w1_mlp_simclrhn_probe1,1,184,NaN,bear,bear,4-3-10,0184_eid_dnn_4-3-10_bear_10_n02134084_23382.png,n02134084_23382.png,1.0,-0.45364136,-1.1801096,0.51369065
alexnet_w1_mlp_simclrhn_probe1,1,185,NaN,car,car,4-3-10,0185_eid_dnn_4-3-10_car_10_n03100240_310.png,n03100240_310.png,1.0,-0.87226844,-1.2768582,0.28608817
alexnet_w1_mlp_simclrhn_probe1,1,186,NaN,dog,dog,4-3-10,0186_eid_dnn_4-3-10_dog_10_n02093256_1653.png,n02093256_1653.png,1.0,-0.67027843,-1.1836692,0.36302212
alexnet_w1_mlp_simclrhn_probe1,1,187,NaN,elephant,elephant,4-3-10,0187_eid_dnn_4-3-10_elephant_10_n02504013_1740.png,n02504013_1740.png,1.0,8.131866,2.6477299,3.8778703
alexnet_w1_mlp_simclrhn_probe1,1,188,NaN,oven,bear,64-3-10,0188_eid_dnn_64-3-10_bear_10_n02134084_34375.png,n02134084_34375.png,0.0,-2.6617558,0.264131,-2.0689144
alexnet_w1_mlp_simclrhn_probe1,1,189,NaN,cat,keyboard,8-3-10,0189_eid_dnn_8-3-10_keyboard_10_n03085013_23254.png,n03085013_23254.png,0.0,-3.6176696,-0.8663489,-1.9454775
alexnet_w1_mlp_simclrhn_probe1,1,190,NaN,oven,elephant,32-3-10,0190_eid_dnn_32-3-10_elephant_10_n02504013_1512.png,n02504013_1512.png,0.0,-3.1885731,-0.45687371,-1.9316032
alexnet_w1_mlp_simclrhn_probe1,1,191,NaN,elephant,car,8-3-10,0191_eid_dnn_8-3-10_car_10_n04285008_6454.png,n04285008_6454.png,0.0,-5.3214335,0.031235278,-3.7849085
alexnet_w1_mlp_simclrhn_probe1,1,192,NaN,keyboard,keyboard,4-3-10,0192_eid_dnn_4-3-10_keyboard_10_n04505470_7721.png,n04505470_7721.png,1.0,6.5340624,-0.24983072,4.796937
alexnet_w1_mlp_simclrhn_probe1,1,193,NaN,oven,keyboard,16-3-10,0193_eid_dnn_16-3-10_keyboard_10_n04505470_3388.png,n04505470_3388.png,0.0,-7.916632,-0.20618218,-5.4521117
alexnet_w1_mlp_simclrhn_probe1,1,194,NaN,boat,boat,2-3-10,0194_eid_dnn_2-3-10_boat_10_n03344393_4221.png,n03344393_4221.png,1.0,2.6483626,0.0781188,1.8174369
alexnet_w1_mlp_simclrhn_probe1,1,195,NaN,oven,cat,128-3-10,0195_eid_dnn_128-3-10_cat_10_n02123597_14361.png,n02123597_14361.png,0.0,-2.181072,-1.4503195,-0.51672006
alexnet_w1_mlp_simclrhn_probe1,1,196,NaN,oven,bird,128-3-10,0196_eid_dnn_128-3-10_bird_10_n02006656_10058.png,n02006656_10058.png,0.0,-6.312459,-1.2240274,-3.5980644
alexnet_w1_mlp_simclrhn_probe1,1,197,NaN,bear,clock,32-3-10,0197_eid_dnn_32-3-10_clock_10_n02708093_8104.png,n02708093_8104.png,0.0,-6.7539635,-1.443856,-3.754813
alexnet_w1_mlp_simclrhn_probe1,1,198,NaN,bicycle,truck,1-3-10,0198_eid_dnn_1-3-10_truck_10_n03417042_3845.png,n03417042_3845.png,0.0,-1.0591321,0.37035763,-1.0108019
alexnet_w1_mlp_simclrhn_probe1,1,199,NaN,oven,boat,64-3-10,0199_eid_dnn_64-3-10_boat_10_n03662601_36741.png,n03662601_36741.png,0.0,-5.629827,0.3382005,-4.2200327
alexnet_w1_mlp_simclrhn_probe1,1,200,NaN,knife,knife,1-3-10,0200_eid_dnn_1-3-10_knife_10_n03041632_22570.png,n03041632_22570.png,1.0,0.669384,-0.3782349,0.74077845
alexnet_w1_mlp_simclrhn_probe1,1,201,NaN,keyboard,keyboard,1-3-10,0201_eid_dnn_1-3-10_keyboard_10_n04505470_4109.png,n04505470_4109.png,1.0,4.3440123,0.3592162,2.8176763
alexnet_w1_mlp_simclrhn_probe1,1,202,NaN,airplane,airplane,1-3-10,0202_eid_dnn_1-3-10_airplane_10_n02690373_10404.png,n02690373_10404.png,1.0,4.053459,0.6836556,2.3828108
alexnet_w1_mlp_simclrhn_probe1,1,203,NaN,elephant,elephant,4-3-10,0203_eid_dnn_4-3-10_elephant_10_n02504458_4725.png,n02504458_4725.png,1.0,4.5901623,0.083535515,3.1866663
alexnet_w1_mlp_simclrhn_probe1,1,204,NaN,airplane,airplane,1-3-10,0204_eid_dnn_1-3-10_airplane_10_n02690373_1325.png,n02690373_1325.png,1.0,5.017703,-1.301122,4.468084
alexnet_w1_mlp_simclrhn_probe1,1,205,NaN,bear,bicycle,8-3-10,0205_eid_dnn_8-3-10_bicycle_10_n03792782_6841.png,n03792782_6841.png,0.0,-5.7851954,0.9216008,-4.742421
alexnet_w1_mlp_simclrhn_probe1,1,206,NaN,chair,chair,2-3-10,0206_eid_dnn_2-3-10_chair_10_n04099969_1669.png,n04099969_1669.png,1.0,2.339551,-0.6750957,2.1316772
alexnet_w1_mlp_simclrhn_probe1,1,207,NaN,oven,bottle,32-3-10,0207_eid_dnn_32-3-10_bottle_10_n03937543_5324.png,n03937543_5324.png,0.0,-2.5895636,-0.9478293,-1.1608815
alexnet_w1_mlp_simclrhn_probe1,1,208,NaN,bottle,bottle,4-3-10,0208_eid_dnn_4-3-10_bottle_10_n03937543_2143.png,n03937543_2143.png,1.0,2.898788,-1.43894,3.067237
alexnet_w1_mlp_simclrhn_probe1,1,209,NaN,bottle,bottle,2-3-10,0209_eid_dnn_2-3-10_bottle_10_n04557648_2575.png,n04557648_2575.png,1.0,-0.059184186,-0.48812065,0.30330387
alexnet_w1_mlp_simclrhn_probe1,1,210,NaN,knife,knife,8-3-10,0210_eid_dnn_8-3-10_knife_10_n03041632_9671.png,n03041632_9671.png,1.0,-0.93065464,-1.2052759,0.19418655
alexnet_w1_mlp_simclrhn_probe1,1,211,NaN,bear,bottle,16-3-10,0211_eid_dnn_16-3-10_bottle_10_n04560804_4145.png,n04560804_4145.png,0.0,-3.154227,-0.75576365,-1.6959697
alexnet_w1_mlp_simclrhn_probe1,1,212,NaN,oven,clock,64-3-10,0212_eid_dnn_64-3-10_clock_10_n03196217_1187.png,n03196217_1187.png,0.0,-4.8614154,-1.078233,-2.675114
alexnet_w1_mlp_simclrhn_probe1,1,213,NaN,clock,clock,4-3-10,0213_eid_dnn_4-3-10_clock_10_n04548280_2111.png,n04548280_2111.png,1.0,0.9635946,-1.3573501,1.6411558
alexnet_w1_mlp_simclrhn_probe1,1,214,NaN,cat,dog,128-3-10,0214_eid_dnn_128-3-10_dog_10_n02086079_6578.png,n02086079_6578.png,0.0,-2.7431636,-1.6352639,-0.7834034
alexnet_w1_mlp_simclrhn_probe1,1,215,NaN,bear,car,16-3-10,0215_eid_dnn_16-3-10_car_10_n03100240_14045.png,n03100240_14045.png,0.0,-8.590459,0.9418822,-6.740383
alexnet_w1_mlp_simclrhn_probe1,1,216,NaN,oven,boat,8-3-10,0216_eid_dnn_8-3-10_boat_10_n02951358_30908.png,n02951358_30908.png,0.0,-3.1398113,0.26214868,-2.405549
alexnet_w1_mlp_simclrhn_probe1,1,217,NaN,bear,oven,4-3-10,0217_eid_dnn_4-3-10_oven_10_n04111531_2199.png,n04111531_2199.png,0.0,-0.63942236,-0.16936955,-0.33237752
alexnet_w1_mlp_simclrhn_probe1,1,218,NaN,bear,elephant,8-3-10,0218_eid_dnn_8-3-10_elephant_10_n02504013_5641.png,n02504013_5641.png,0.0,1.0759523,1.8058628,-0.51612467
alexnet_w1_mlp_simclrhn_probe1,1,219,NaN,keyboard,keyboard,2-3-10,0219_eid_dnn_2-3-10_keyboard_10_n03085013_6740.png,n03085013_6740.png,1.0,3.2638612,-0.26893625,2.498065
alexnet_w1_mlp_simclrhn_probe1,1,220,NaN,clock,clock,2-3-10,0220_eid_dnn_2-3-10_clock_10_n04548280_319.png,n04548280_319.png,1.0,4.4162707,-1.7126936,4.3338323
alexnet_w1_mlp_simclrhn_probe1,1,221,NaN,oven,knife,32-3-10,0221_eid_dnn_32-3-10_knife_10_n03041632_43506.png,n03041632_43506.png,0.0,-1.6009942,-0.3337466,-0.8960794
alexnet_w1_mlp_simclrhn_probe1,1,222,NaN,bear,boat,16-3-10,0222_eid_dnn_16-3-10_boat_10_n03344393_9712.png,n03344393_9712.png,0.0,-1.8244076,-0.67394817,-0.81349766
alexnet_w1_mlp_simclrhn_probe1,1,223,NaN,knife,knife,1-3-10,0223_eid_dnn_1-3-10_knife_10_n03041632_9963.png,n03041632_9963.png,1.0,1.3044221,-1.5711137,2.0333111
alexnet_w1_mlp_simclrhn_probe1,1,224,NaN,bicycle,bird,1-3-10,0224_eid_dnn_1-3-10_bird_10_n02002556_18595.png,n02002556_18595.png,0.0,-1.1191667,-0.9846264,-0.09513438
alexnet_w1_mlp_simclrhn_probe1,1,225,NaN,elephant,bird,4-3-10,0225_eid_dnn_4-3-10_bird_10_n01860187_20777.png,n01860187_20777.png,0.0,-3.8767123,-0.79468954,-2.1793191
alexnet_w1_mlp_simclrhn_probe1,1,226,NaN,bear,keyboard,32-3-10,0226_eid_dnn_32-3-10_keyboard_10_n03085013_24626.png,n03085013_24626.png,0.0,-6.472842,-0.6293199,-4.1319942
alexnet_w1_mlp_simclrhn_probe1,1,227,NaN,oven,oven,16-3-10,0227_eid_dnn_16-3-10_oven_10_n04111531_7097.png,n04111531_7097.png,1.0,0.6094674,-1.2825301,1.3378443
alexnet_w1_mlp_simclrhn_probe1,1,228,NaN,bear,chair,16-3-10,0228_eid_dnn_16-3-10_chair_10_n02791124_12486.png,n02791124_12486.png,0.0,-6.9387927,1.315089,-5.8363757
alexnet_w1_mlp_simclrhn_probe1,1,229,NaN,oven,cat,128-3-10,0229_eid_dnn_128-3-10_cat_10_n02123045_6629.png,n02123045_6629.png,0.0,-2.249881,-1.426838,-0.5819793
alexnet_w1_mlp_simclrhn_probe1,1,230,NaN,oven,bird,16-3-10,0230_eid_dnn_16-3-10_bird_10_n01819313_5388.png,n01819313_5388.png,0.0,-2.748709,-2.3243055,-0.30009854
alexnet_w1_mlp_simclrhn_probe1,1,231,NaN,oven,truck,32-3-10,0231_eid_dnn_32-3-10_truck_10_n04467665_4940.png,n04467665_4940.png,0.0,-6.4240155,-0.9690035,-3.857276
alexnet_w1_mlp_simclrhn_probe1,1,232,NaN,bottle,knife,8-3-10,0232_eid_dnn_8-3-10_knife_10_n03041632_20433.png,n03041632_20433.png,0.0,-2.7008379,-1.847102,-0.6036824
alexnet_w1_mlp_simclrhn_probe1,1,233,NaN,clock,clock,2-3-10,0233_eid_dnn_2-3-10_clock_10_n04548280_6792.png,n04548280_6792.png,1.0,2.1866226,-0.969025,2.23138
alexnet_w1_mlp_simclrhn_probe1,1,234,NaN,oven,bicycle,4-3-10,0234_eid_dnn_4-3-10_bicycle_10_n02835271_5413.png,n02835271_5413.png,0.0,-0.42277476,-0.3450722,-0.054944
alexnet_w1_mlp_simclrhn_probe1,1,235,NaN,car,car,2-3-10,0235_eid_dnn_2-3-10_car_10_n04285008_5005.png,n04285008_5005.png,1.0,4.926436,1.3858719,2.503557
alexnet_w1_mlp_simclrhn_probe1,1,236,NaN,oven,car,2-3-10,0236_eid_dnn_2-3-10_car_10_n02814533_88088.png,n02814533_88088.png,0.0,-2.3347924,-0.1380846,-1.5533069
alexnet_w1_mlp_simclrhn_probe1,1,237,NaN,bear,elephant,64-3-10,0237_eid_dnn_64-3-10_elephant_10_n02504458_11345.png,n02504458_11345.png,0.0,-2.1439867,-1.1856942,-0.6776151
alexnet_w1_mlp_simclrhn_probe1,1,238,NaN,elephant,elephant,16-3-10,0238_eid_dnn_16-3-10_elephant_10_n02504013_1900.png,n02504013_1900.png,1.0,1.6699543,0.751597,0.6493767
alexnet_w1_mlp_simclrhn_probe1,1,239,NaN,oven,bear,128-3-10,0239_eid_dnn_128-3-10_bear_10_n02133161_5708.png,n02133161_5708.png,0.0,-2.5860586,-1.7419367,-0.59688437
alexnet_w1_mlp_simclrhn_probe1,1,240,NaN,cat,cat,8-3-10,0240_eid_dnn_8-3-10_cat_10_n02124075_5828.png,n02124075_5828.png,1.0,1.8132683,-0.7071592,1.7822114
alexnet_w1_mlp_simclrhn_probe1,1,241,NaN,oven,bird,64-3-10,0241_eid_dnn_64-3-10_bird_10_n01582220_9392.png,n01582220_9392.png,0.0,-4.3568807,-0.6319241,-2.6339421
alexnet_w1_mlp_simclrhn_probe1,1,242,NaN,clock,clock,1-3-10,0242_eid_dnn_1-3-10_clock_10_n02708093_4597.png,n02708093_4597.png,1.0,5.942121,-0.089278534,4.264844
alexnet_w1_mlp_simclrhn_probe1,1,243,NaN,oven,bicycle,128-3-10,0243_eid_dnn_128-3-10_bicycle_10_n03792782_26306.png,n03792782_26306.png,0.0,-3.3378694,-1.4291126,-1.349695
alexnet_w1_mlp_simclrhn_probe1,1,244,NaN,bear,bear,32-3-10,0244_eid_dnn_32-3-10_bear_10_n02132136_1795.png,n02132136_1795.png,1.0,0.058191992,-0.39952472,0.3236546
alexnet_w1_mlp_simclrhn_probe1,1,245,NaN,oven,clock,128-3-10,0245_eid_dnn_128-3-10_clock_10_n02708093_3638.png,n02708093_3638.png,0.0,-3.3227508,-2.1330075,-0.8412756
alexnet_w1_mlp_simclrhn_probe1,1,246,NaN,keyboard,keyboard,4-3-10,0246_eid_dnn_4-3-10_keyboard_10_n03085013_21272.png,n03085013_21272.png,1.0,0.0031507313,-1.6311095,1.1555965
alexnet_w1_mlp_simclrhn_probe1,1,247,NaN,bottle,chair,8-3-10,0247_eid_dnn_8-3-10_chair_10_n02791124_16926.png,n02791124_16926.png,0.0,-2.5525527,-0.66349584,-1.335765
alexnet_w1_mlp_simclrhn_probe1,1,248,NaN,dog,knife,8-3-10,0248_eid_dnn_8-3-10_knife_10_n03041632_84048.png,n03041632_84048.png,0.0,-2.1872132,-0.9197437,-0.89623624
alexnet_w1_mlp_simclrhn_probe1,1,249,NaN,oven,oven,2-3-10,0249_eid_dnn_2-3-10_oven_10_n04111531_550.png,n04111531_550.png,1.0,1.9357543,-0.8411879,1.9635947
alexnet_w1_mlp_simclrhn_probe1,1,250,NaN,oven,boat,128-3-10,0250_eid_dnn_128-3-10_boat_10_n03662601_21992.png,n03662601_21992.png,0.0,-6.9996605,-2.469831,-3.2030733
alexnet_w1_mlp_simclrhn_probe1,1,251,NaN,bear,bear,32-3-10,0251_eid_dnn_32-3-10_bear_10_n02134418_280.png,n02134418_280.png,1.0,0.36658671,-0.44767606,0.57577074
alexnet_w1_mlp_simclrhn_probe1,1,252,NaN,elephant,bottle,8-3-10,0252_eid_dnn_8-3-10_bottle_10_n04560804_8385.png,n04560804_8385.png,0.0,-1.9612712,-0.4629786,-1.0594529
alexnet_w1_mlp_simclrhn_probe1,1,253,NaN,oven,elephant,64-3-10,0253_eid_dnn_64-3-10_elephant_10_n02504013_4183.png,n02504013_4183.png,0.0,-1.2704101,-1.1414256,-0.09120578
alexnet_w1_mlp_simclrhn_probe1,1,254,NaN,bird,bird,1-3-10,0254_eid_dnn_1-3-10_bird_10_n01560419_19608.png,n01560419_19608.png,1.0,1.2396674,-3.147492,3.1021903
alexnet_w1_mlp_simclrhn_probe1,1,255,NaN,dog,bird,4-3-10,0255_eid_dnn_4-3-10_bird_10_n02056570_8865.png,n02056570_8865.png,0.0,-2.9820037,-1.23482,-1.2354455
alexnet_w1_mlp_simclrhn_probe1,1,256,NaN,cat,cat,2-3-10,0256_eid_dnn_2-3-10_cat_10_n02123394_2553.png,n02123394_2553.png,1.0,0.37560058,-1.2228202,1.1302541
alexnet_w1_mlp_simclrhn_probe1,1,257,NaN,oven,bear,128-3-10,0257_eid_dnn_128-3-10_bear_10_n02132136_10113.png,n02132136_10113.png,0.0,-3.4752967,-1.722804,-1.2391995
alexnet_w1_mlp_simclrhn_probe1,1,258,NaN,oven,oven,8-3-10,0258_eid_dnn_8-3-10_oven_10_n04111531_2758.png,n04111531_2758.png,1.0,-0.47679028,-0.5742722,0.06893014
alexnet_w1_mlp_simclrhn_probe1,1,259,NaN,bear,keyboard,64-3-10,0259_eid_dnn_64-3-10_keyboard_10_n04505470_4824.png,n04505470_4824.png,0.0,-4.0378666,-1.5142343,-1.7844776
alexnet_w1_mlp_simclrhn_probe1,1,260,NaN,bicycle,bicycle,2-3-10,0260_eid_dnn_2-3-10_bicycle_10_n02835271_8654.png,n02835271_8654.png,1.0,0.70365846,-1.2474316,1.379629
alexnet_w1_mlp_simclrhn_probe1,1,261,NaN,oven,keyboard,128-3-10,0261_eid_dnn_128-3-10_keyboard_10_n03085013_34973.png,n03085013_34973.png,0.0,-5.1101427,-1.6400255,-2.4537435
alexnet_w1_mlp_simclrhn_probe1,1,262,NaN,cat,cat,4-3-10,0262_eid_dnn_4-3-10_cat_10_n02123394_4228.png,n02123394_4228.png,1.0,-0.0075874827,-0.99641067,0.6992036
alexnet_w1_mlp_simclrhn_probe1,1,263,NaN,bear,keyboard,32-3-10,0263_eid_dnn_32-3-10_keyboard_10_n03085013_24416.png,n03085013_24416.png,0.0,-3.355746,-0.31513056,-2.15004
alexnet_w1_mlp_simclrhn_probe1,1,264,NaN,cat,cat,8-3-10,0264_eid_dnn_8-3-10_cat_10_n02124075_5729.png,n02124075_5729.png,1.0,0.9813718,0.19300976,0.55745614
alexnet_w1_mlp_simclrhn_probe1,1,265,NaN,bear,clock,32-3-10,0265_eid_dnn_32-3-10_clock_10_n03196217_6357.png,n03196217_6357.png,0.0,-2.499273,-0.49811393,-1.4150332
alexnet_w1_mlp_simclrhn_probe1,1,266,NaN,oven,truck,128-3-10,0266_eid_dnn_128-3-10_truck_10_n03417042_29478.png,n03417042_29478.png,0.0,-5.0373163,-1.817154,-2.2769988
alexnet_w1_mlp_simclrhn_probe1,1,267,NaN,bird,chair,128-3-10,0267_eid_dnn_128-3-10_chair_10_n04099969_18678.png,n04099969_18678.png,0.0,-3.6137226,-1.6770144,-1.3694595
alexnet_w1_mlp_simclrhn_probe1,1,268,NaN,oven,clock,32-3-10,0268_eid_dnn_32-3-10_clock_10_n02708093_4286.png,n02708093_4286.png,0.0,-4.502454,0.3002069,-3.3959942
alexnet_w1_mlp_simclrhn_probe1,1,269,NaN,oven,car,128-3-10,0269_eid_dnn_128-3-10_car_10_n03100240_21971.png,n03100240_21971.png,0.0,-9.385362,-1.3497496,-5.682036
alexnet_w1_mlp_simclrhn_probe1,1,270,NaN,car,car,1-3-10,0270_eid_dnn_1-3-10_car_10_n03100240_84.png,n03100240_84.png,1.0,5.489824,4.888028,0.4255338
alexnet_w1_mlp_simclrhn_probe1,1,271,NaN,cat,dog,1-3-10,0271_eid_dnn_1-3-10_dog_10_n02094433_3186.png,n02094433_3186.png,0.0,-1.6265663,-0.5183246,-0.7836452
alexnet_w1_mlp_simclrhn_probe1,1,272,NaN,dog,dog,4-3-10,0272_eid_dnn_4-3-10_dog_10_n02088364_10195.png,n02088364_10195.png,1.0,0.60955185,-0.835114,1.0215331
alexnet_w1_mlp_simclrhn_probe1,1,273,NaN,bear,knife,16-3-10,0273_eid_dnn_16-3-10_knife_10_n03041632_11358.png,n03041632_11358.png,0.0,-3.1332545,-0.45493534,-1.8938577
alexnet_w1_mlp_simclrhn_probe1,1,274,NaN,oven,bird,64-3-10,0274_eid_dnn_64-3-10_bird_10_n01531178_10630.png,n01531178_10630.png,0.0,-1.9305439,-1.2966411,-0.44823697
alexnet_w1_mlp_simclrhn_probe1,1,275,NaN,elephant,elephant,1-3-10,0275_eid_dnn_1-3-10_elephant_10_n02504458_4058.png,n02504458_4058.png,1.0,2.4465842,-0.32907397,1.9626868
alexnet_w1_mlp_simclrhn_probe1,1,276,NaN,oven,keyboard,32-3-10,0276_eid_dnn_32-3-10_keyboard_10_n03085013_24336.png,n03085013_24336.png,0.0,-4.9478073,-0.57898295,-3.0892255
alexnet_w1_mlp_simclrhn_probe1,1,277,NaN,bottle,clock,4-3-10,0277_eid_dnn_4-3-10_clock_10_n02708093_386.png,n02708093_386.png,0.0,-0.14941995,1.0495737,-0.84781647
alexnet_w1_mlp_simclrhn_probe1,1,278,NaN,elephant,chair,4-3-10,0278_eid_dnn_4-3-10_chair_10_n04429376_16370.png,n04429376_16370.png,0.0,-4.089259,0.62676656,-3.334734
alexnet_w1_mlp_simclrhn_probe1,1,279,NaN,knife,bottle,1-3-10,0279_eid_dnn_1-3-10_bottle_10_n04557648_10167.png,n04557648_10167.png,0.0,-1.2050699,-0.61331177,-0.4184362
alexnet_w1_mlp_simclrhn_probe1,1,280,NaN,bicycle,bicycle,1-3-10,0280_eid_dnn_1-3-10_bicycle_10_n02835271_15717.png,n02835271_15717.png,1.0,3.6458702,-2.0171633,4.0043693
alexnet_w1_mlp_simclrhn_probe1,1,281,NaN,oven,car,128-3-10,0281_eid_dnn_128-3-10_car_10_n03100240_22593.png,n03100240_22593.png,0.0,-9.095619,-1.3747873,-5.4594526
alexnet_w1_mlp_simclrhn_probe1,1,282,NaN,car,car,1-3-10,0282_eid_dnn_1-3-10_car_10_n04285008_11240.png,n04285008_11240.png,1.0,6.1536336,1.8465717,3.045553
alexnet_w1_mlp_simclrhn_probe1,1,283,NaN,boat,boat,1-3-10,0283_eid_dnn_1-3-10_boat_10_n03344393_3337.png,n03344393_3337.png,1.0,0.58396745,-0.053373713,0.45066825
alexnet_w1_mlp_simclrhn_probe1,1,284,NaN,oven,bottle,128-3-10,0284_eid_dnn_128-3-10_bottle_10_n04579145_1660.png,n04579145_1660.png,0.0,-3.1121402,-1.2378657,-1.3253123
alexnet_w1_mlp_simclrhn_probe1,1,285,NaN,oven,dog,64-3-10,0285_eid_dnn_64-3-10_dog_10_n02091244_9305.png,n02091244_9305.png,0.0,-2.7062726,-0.6617948,-1.4456643
alexnet_w1_mlp_simclrhn_probe1,1,286,NaN,oven,chair,32-3-10,0286_eid_dnn_32-3-10_chair_10_n03376595_3912.png,n03376595_3912.png,0.0,-3.5537562,-1.1731722,-1.6833271
alexnet_w1_mlp_simclrhn_probe1,1,287,NaN,oven,bottle,64-3-10,0287_eid_dnn_64-3-10_bottle_10_n02823428_6793.png,n02823428_6793.png,0.0,-3.6436775,-0.94985133,-1.9048228
alexnet_w1_mlp_simclrhn_probe1,1,288,NaN,bear,dog,32-3-10,0288_eid_dnn_32-3-10_dog_10_n02093754_4949.png,n02093754_4949.png,0.0,-2.8775098,-0.40818077,-1.7460794
alexnet_w1_mlp_simclrhn_probe1,1,289,NaN,oven,dog,128-3-10,0289_eid_dnn_128-3-10_dog_10_n02105855_10394.png,n02105855_10394.png,0.0,-3.3806708,-0.8004496,-1.824492
alexnet_w1_mlp_simclrhn_probe1,1,290,NaN,bottle,clock,2-3-10,0290_eid_dnn_2-3-10_clock_10_n04548280_9533.png,n04548280_9533.png,0.0,-1.2469395,-1.0030488,-0.17245682
alexnet_w1_mlp_simclrhn_probe1,1,291,NaN,bear,cat,1-3-10,0291_eid_dnn_1-3-10_cat_10_n02125311_7527.png,n02125311_7527.png,0.0,-0.06389245,0.23065203,-0.20827441
alexnet_w1_mlp_simclrhn_probe1,1,292,NaN,car,car,4-3-10,0292_eid_dnn_4-3-10_car_10_n03100240_4537.png,n03100240_4537.png,1.0,0.3055834,-0.9503524,0.8880807
alexnet_w1_mlp_simclrhn_probe1,1,293,NaN,elephant,bicycle,8-3-10,0293_eid_dnn_8-3-10_bicycle_10_n03792782_11609.png,n03792782_11609.png,0.0,-5.7799883,0.88386387,-4.712055
alexnet_w1_mlp_simclrhn_probe1,1,294,NaN,oven,oven,128-3-10,0294_eid_dnn_128-3-10_oven_10_n04111531_6134.png,n04111531_6134.png,1.0,-1.2288072,-2.2043922,0.68984276
alexnet_w1_mlp_simclrhn_probe1,1,295,NaN,bottle,bottle,8-3-10,0295_eid_dnn_8-3-10_bottle_10_n04591713_715.png,n04591713_715.png,1.0,-1.9990227,-3.1762202,0.8324043
alexnet_w1_mlp_simclrhn_probe1,1,296,NaN,elephant,elephant,32-3-10,0296_eid_dnn_32-3-10_elephant_10_n02504458_7818.png,n02504458_7818.png,1.0,-0.5261134,-0.6973027,0.12104912
alexnet_w1_mlp_simclrhn_probe1,1,297,NaN,oven,airplane,64-3-10,0297_eid_dnn_64-3-10_airplane_10_n02690373_7107.png,n02690373_7107.png,0.0,-4.9811296,-1.1342481,-2.720156
alexnet_w1_mlp_simclrhn_probe1,1,298,NaN,bear,car,32-3-10,0298_eid_dnn_32-3-10_car_10_n04285008_8363.png,n04285008_8363.png,0.0,-6.133324,-0.17091426,-4.2160606
alexnet_w1_mlp_simclrhn_probe1,1,299,NaN,oven,clock,4-3-10,0299_eid_dnn_4-3-10_clock_10_n04548280_4249.png,n04548280_4249.png,0.0,-2.8145773,-0.11092973,-1.9117676
alexnet_w1_mlp_simclrhn_probe1,1,300,NaN,cat,cat,128-3-10,0300_eid_dnn_128-3-10_cat_10_n02123597_7269.png,n02123597_7269.png,1.0,-0.82493025,-1.4229716,0.4228791
alexnet_w1_mlp_simclrhn_probe1,1,301,NaN,bicycle,bicycle,1-3-10,0301_eid_dnn_1-3-10_bicycle_10_n03792782_4864.png,n03792782_4864.png,1.0,5.628288,-0.64528435,4.436085
alexnet_w1_mlp_simclrhn_probe1,1,302,NaN,bear,bear,2-3-10,0302_eid_dnn_2-3-10_bear_10_n02132136_8011.png,n02132136_8011.png,1.0,2.5260084,-0.30728874,2.0034435
alexnet_w1_mlp_simclrhn_probe1,1,303,NaN,oven,boat,128-3-10,0303_eid_dnn_128-3-10_boat_10_n02951358_4810.png,n02951358_4810.png,0.0,-5.360732,-2.1502233,-2.2701726
alexnet_w1_mlp_simclrhn_probe1,1,304,NaN,oven,clock,128-3-10,0304_eid_dnn_128-3-10_clock_10_n03196217_5137.png,n03196217_5137.png,0.0,-3.9568195,-1.3275175,-1.8591974
alexnet_w1_mlp_simclrhn_probe1,1,305,NaN,bicycle,bicycle,2-3-10,0305_eid_dnn_2-3-10_bicycle_10_n02835271_158.png,n02835271_158.png,1.0,2.1961284,-1.1783166,2.386093
alexnet_w1_mlp_simclrhn_probe1,1,306,NaN,oven,bear,64-3-10,0306_eid_dnn_64-3-10_bear_10_n02132136_11217.png,n02132136_11217.png,0.0,-2.095372,-0.6476604,-1.0236866
alexnet_w1_mlp_simclrhn_probe1,1,307,NaN,oven,dog,64-3-10,0307_eid_dnn_64-3-10_dog_10_n02092002_6122.png,n02092002_6122.png,0.0,-2.326061,-1.1558312,-0.82747746
alexnet_w1_mlp_simclrhn_probe1,1,308,NaN,oven,chair,32-3-10,0308_eid_dnn_32-3-10_chair_10_n04429376_29223.png,n04429376_29223.png,0.0,-7.0951595,-0.2661849,-4.8288145
alexnet_w1_mlp_simclrhn_probe1,1,309,NaN,oven,bear,128-3-10,0309_eid_dnn_128-3-10_bear_10_n02133161_5723.png,n02133161_5723.png,0.0,-3.444364,-2.4102364,-0.7312387
alexnet_w1_mlp_simclrhn_probe1,1,310,NaN,oven,dog,128-3-10,0310_eid_dnn_128-3-10_dog_10_n02100583_1343.png,n02100583_1343.png,0.0,-2.9401743,-1.6667519,-0.9004457
alexnet_w1_mlp_simclrhn_probe1,1,311,NaN,oven,boat,128-3-10,0311_eid_dnn_128-3-10_boat_10_n03344393_6352.png,n03344393_6352.png,0.0,-5.3753915,-0.48924553,-3.455027
alexnet_w1_mlp_simclrhn_probe1,1,312,NaN,bird,bird,4-3-10,0312_eid_dnn_4-3-10_bird_10_n01560419_8247.png,n01560419_8247.png,1.0,-0.8601026,-2.5641832,1.2049669
alexnet_w1_mlp_simclrhn_probe1,1,313,NaN,bear,dog,4-3-10,0313_eid_dnn_4-3-10_dog_10_n02105251_8210.png,n02105251_8210.png,0.0,0.4942788,0.76631945,-0.1923618
alexnet_w1_mlp_simclrhn_probe1,1,314,NaN,oven,oven,128-3-10,0314_eid_dnn_128-3-10_oven_10_n04111531_9702.png,n04111531_9702.png,1.0,-1.3130572,-1.8753848,0.39762568
alexnet_w1_mlp_simclrhn_probe1,1,315,NaN,elephant,bear,8-3-10,0315_eid_dnn_8-3-10_bear_10_n02133161_12161.png,n02133161_12161.png,0.0,-1.1107987,-0.8483016,-0.1856135
alexnet_w1_mlp_simclrhn_probe1,1,316,NaN,bear,bear,8-3-10,0316_eid_dnn_8-3-10_bear_10_n02133161_13556.png,n02133161_13556.png,1.0,1.9501247,0.09732316,1.3101286
alexnet_w1_mlp_simclrhn_probe1,1,317,NaN,cat,bear,128-3-10,0317_eid_dnn_128-3-10_bear_10_n02134084_635.png,n02134084_635.png,0.0,-2.593266,-2.3313856,-0.18517742
alexnet_w1_mlp_simclrhn_probe1,1,318,NaN,oven,chair,128-3-10,0318_eid_dnn_128-3-10_chair_10_n02791124_6956.png,n02791124_6956.png,0.0,-6.640625,-1.9427762,-3.3218808
alexnet_w1_mlp_simclrhn_probe1,1,319,NaN,oven,car,4-3-10,0319_eid_dnn_4-3-10_car_10_n02814533_18077.png,n02814533_18077.png,0.0,-1.410236,-0.41044542,-0.7069587
alexnet_w1_mlp_simclrhn_probe1,1,320,NaN,knife,dog,2-3-10,0320_eid_dnn_2-3-10_dog_10_n02088364_11105.png,n02088364_11105.png,0.0,-2.3287368,-0.48474723,-1.3038976
alexnet_w1_mlp_simclrhn_probe1,1,321,NaN,oven,airplane,64-3-10,0321_eid_dnn_64-3-10_airplane_10_n02690373_1053.png,n02690373_1053.png,0.0,-4.714014,-0.931951,-2.6743224
alexnet_w1_mlp_simclrhn_probe1,1,322,NaN,oven,car,16-3-10,0322_eid_dnn_16-3-10_car_10_n02814533_96407.png,n02814533_96407.png,0.0,-7.677553,1.5213157,-6.5045824
alexnet_w1_mlp_simclrhn_probe1,1,323,NaN,oven,chair,4-3-10,0323_eid_dnn_4-3-10_chair_10_n04099969_31891.png,n04099969_31891.png,0.0,-0.5020357,1.5019808,-1.4170536
alexnet_w1_mlp_simclrhn_probe1,1,324,NaN,bear,bottle,16-3-10,0324_eid_dnn_16-3-10_bottle_10_n04557648_4470.png,n04557648_4470.png,0.0,-2.291628,-1.24454,-0.740403
alexnet_w1_mlp_simclrhn_probe1,1,325,NaN,bottle,clock,8-3-10,0325_eid_dnn_8-3-10_clock_10_n02708093_2588.png,n02708093_2588.png,0.0,-5.736241,-1.9311808,-2.6905837
alexnet_w1_mlp_simclrhn_probe1,1,326,NaN,oven,elephant,128-3-10,0326_eid_dnn_128-3-10_elephant_10_n02504458_6696.png,n02504458_6696.png,0.0,-3.6894646,-2.0194829,-1.1808554
alexnet_w1_mlp_simclrhn_probe1,1,327,NaN,bear,elephant,32-3-10,0327_eid_dnn_32-3-10_elephant_10_n02504013_4071.png,n02504013_4071.png,0.0,-1.1777079,-0.3999626,-0.549949
alexnet_w1_mlp_simclrhn_probe1,1,328,NaN,knife,keyboard,8-3-10,0328_eid_dnn_8-3-10_keyboard_10_n03085013_8339.png,n03085013_8339.png,0.0,-3.6701083,-0.48027277,-2.2555544
alexnet_w1_mlp_simclrhn_probe1,1,329,NaN,bear,elephant,64-3-10,0329_eid_dnn_64-3-10_elephant_10_n02504013_6976.png,n02504013_6976.png,0.0,-1.6166189,-1.1088202,-0.3590679
alexnet_w1_mlp_simclrhn_probe1,1,330,NaN,bear,boat,4-3-10,0330_eid_dnn_4-3-10_boat_10_n02951358_9146.png,n02951358_9146.png,0.0,-2.8916237,0.92194146,-2.6965978
alexnet_w1_mlp_simclrhn_probe1,1,331,NaN,bear,boat,32-3-10,0331_eid_dnn_32-3-10_boat_10_n04273569_4087.png,n04273569_4087.png,0.0,-3.195619,-1.346883,-1.3072538
alexnet_w1_mlp_simclrhn_probe1,1,332,NaN,bear,oven,64-3-10,0332_eid_dnn_64-3-10_oven_10_n04111531_2922.png,n04111531_2922.png,0.0,-1.6188681,-1.2505594,-0.26043355
alexnet_w1_mlp_simclrhn_probe1,1,333,NaN,bear,bear,4-3-10,0333_eid_dnn_4-3-10_bear_10_n02133161_5325.png,n02133161_5325.png,1.0,2.5896816,-0.09120038,1.8956698
alexnet_w1_mlp_simclrhn_probe1,1,334,NaN,oven,bottle,64-3-10,0334_eid_dnn_64-3-10_bottle_10_n04557648_3109.png,n04557648_3109.png,0.0,-2.8587801,-0.7019164,-1.525133
alexnet_w1_mlp_simclrhn_probe1,1,335,NaN,oven,oven,1-3-10,0335_eid_dnn_1-3-10_oven_10_n04111531_15912.png,n04111531_15912.png,1.0,3.1400785,-0.4940943,2.5697484
alexnet_w1_mlp_simclrhn_probe1,1,336,NaN,bear,truck,16-3-10,0336_eid_dnn_16-3-10_truck_10_n03417042_17099.png,n03417042_17099.png,0.0,-9.165814,0.11034939,-6.5592384
alexnet_w1_mlp_simclrhn_probe1,1,337,NaN,car,car,2-3-10,0337_eid_dnn_2-3-10_car_10_n04285008_8641.png,n04285008_8641.png,1.0,2.2051017,-0.73340106,2.0778353
alexnet_w1_mlp_simclrhn_probe1,1,338,NaN,bear,keyboard,32-3-10,0338_eid_dnn_32-3-10_keyboard_10_n04505470_524.png,n04505470_524.png,0.0,-6.4346104,-1.1141897,-3.7621057
alexnet_w1_mlp_simclrhn_probe1,1,339,NaN,elephant,bottle,8-3-10,0339_eid_dnn_8-3-10_bottle_10_n04557648_5935.png,n04557648_5935.png,0.0,-4.8814654,1.7473905,-4.687309
alexnet_w1_mlp_simclrhn_probe1,1,340,NaN,bottle,bottle,1-3-10,0340_eid_dnn_1-3-10_bottle_10_n04591713_3776.png,n04591713_3776.png,1.0,0.85344046,-0.19987911,0.74480945
alexnet_w1_mlp_simclrhn_probe1,1,341,NaN,truck,truck,2-3-10,0341_eid_dnn_2-3-10_truck_10_n03796401_3651.png,n03796401_3651.png,1.0,4.519242,0.3748279,2.9305432
alexnet_w1_mlp_simclrhn_probe1,1,342,NaN,oven,bicycle,128-3-10,0342_eid_dnn_128-3-10_bicycle_10_n03792782_15757.png,n03792782_15757.png,0.0,-3.0895522,-2.006123,-0.76610005
alexnet_w1_mlp_simclrhn_probe1,1,343,NaN,oven,cat,32-3-10,0343_eid_dnn_32-3-10_cat_10_n02123597_8698.png,n02123597_8698.png,0.0,-1.8124219,0.36909544,-1.5425657
alexnet_w1_mlp_simclrhn_probe1,1,344,NaN,boat,boat,1-3-10,0344_eid_dnn_1-3-10_boat_10_n03662601_273.png,n03662601_273.png,1.0,0.38293344,-0.25924045,0.45408553
alexnet_w1_mlp_simclrhn_probe1,1,345,NaN,knife,knife,1-3-10,0345_eid_dnn_1-3-10_knife_10_n03041632_24376.png,n03041632_24376.png,1.0,-0.52861094,-1.9476368,1.0034028
alexnet_w1_mlp_simclrhn_probe1,1,346,NaN,keyboard,keyboard,1-3-10,0346_eid_dnn_1-3-10_keyboard_10_n04505470_2608.png,n04505470_2608.png,1.0,-0.9594449,-1.0453092,0.060715232
alexnet_w1_mlp_simclrhn_probe1,1,347,NaN,bear,boat,16-3-10,0347_eid_dnn_16-3-10_boat_10_n04273569_10665.png,n04273569_10665.png,0.0,-3.2438645,-0.76258093,-1.7545326
alexnet_w1_mlp_simclrhn_probe1,1,348,NaN,oven,bear,64-3-10,0348_eid_dnn_64-3-10_bear_10_n02133161_5267.png,n02133161_5267.png,0.0,-1.9191945,-1.8341639,-0.060125683
alexnet_w1_mlp_simclrhn_probe1,1,349,NaN,bear,bear,128-3-10,0349_eid_dnn_128-3-10_bear_10_n02133161_5020.png,n02133161_5020.png,1.0,-1.3138895,-1.9164314,0.42606148
alexnet_w1_mlp_simclrhn_probe1,1,350,NaN,oven,knife,128-3-10,0350_eid_dnn_128-3-10_knife_10_n03041632_21723.png,n03041632_21723.png,0.0,-3.9640076,-0.7879154,-2.2458363
alexnet_w1_mlp_simclrhn_probe1,1,351,NaN,oven,boat,32-3-10,0351_eid_dnn_32-3-10_boat_10_n02951358_31101.png,n02951358_31101.png,0.0,-4.3459697,-1.6263525,-1.9230597
alexnet_w1_mlp_simclrhn_probe1,1,352,NaN,oven,dog,128-3-10,0352_eid_dnn_128-3-10_dog_10_n02102177_4180.png,n02102177_4180.png,0.0,-2.7381916,-1.9546875,-0.5540211
alexnet_w1_mlp_simclrhn_probe1,1,353,NaN,bottle,bottle,4-3-10,0353_eid_dnn_4-3-10_bottle_10_n04579145_4186.png,n04579145_4186.png,1.0,3.3337572,-0.20764136,2.504147
alexnet_w1_mlp_simclrhn_probe1,1,354,NaN,bear,bicycle,64-3-10,0354_eid_dnn_64-3-10_bicycle_10_n03792782_2246.png,n03792782_2246.png,0.0,-3.13693,-0.41359758,-1.9256868
alexnet_w1_mlp_simclrhn_probe1,1,355,NaN,dog,dog,1-3-10,0355_eid_dnn_1-3-10_dog_10_n02110958_1526.png,n02110958_1526.png,1.0,-1.0043746,-5.8557854,3.4304657
alexnet_w1_mlp_simclrhn_probe1,1,356,NaN,bear,keyboard,128-3-10,0356_eid_dnn_128-3-10_keyboard_10_n04505470_255.png,n04505470_255.png,0.0,-6.7303066,-1.7978253,-3.487791
alexnet_w1_mlp_simclrhn_probe1,1,357,NaN,elephant,elephant,4-3-10,0357_eid_dnn_4-3-10_elephant_10_n02504458_1933.png,n02504458_1933.png,1.0,0.15464282,0.06562911,0.0629422
alexnet_w1_mlp_simclrhn_probe1,1,358,NaN,cat,cat,2-3-10,0358_eid_dnn_2-3-10_cat_10_n02123159_5749.png,n02123159_5749.png,1.0,3.014652,-2.914155,4.1923
alexnet_w1_mlp_simclrhn_probe1,1,359,NaN,oven,airplane,128-3-10,0359_eid_dnn_128-3-10_airplane_10_n02690373_2967.png,n02690373_2967.png,0.0,-6.223536,-2.434145,-2.6795042
alexnet_w1_mlp_simclrhn_probe1,1,360,NaN,cat,chair,8-3-10,0360_eid_dnn_8-3-10_chair_10_n04099969_72.png,n04099969_72.png,0.0,-5.23288,-0.51737994,-3.3343623
alexnet_w1_mlp_simclrhn_probe1,1,361,NaN,oven,cat,32-3-10,0361_eid_dnn_32-3-10_cat_10_n02123045_4089.png,n02123045_4089.png,0.0,-1.2141865,-0.99426866,-0.15550543
alexnet_w1_mlp_simclrhn_probe1,1,362,NaN,oven,bird,128-3-10,0362_eid_dnn_128-3-10_bird_10_n01616318_13293.png,n01616318_13293.png,0.0,-6.1457357,-2.319485,-2.7055678
alexnet_w1_mlp_simclrhn_probe1,1,363,NaN,cat,cat,4-3-10,0363_eid_dnn_4-3-10_cat_10_n02124075_13719.png,n02124075_13719.png,1.0,0.18636489,-0.46742234,0.4622974
alexnet_w1_mlp_simclrhn_probe1,1,364,NaN,cat,oven,32-3-10,0364_eid_dnn_32-3-10_oven_10_n04111531_22466.png,n04111531_22466.png,0.0,-1.1231496,-0.8076193,-0.22311366
alexnet_w1_mlp_simclrhn_probe1,1,365,NaN,oven,airplane,128-3-10,0365_eid_dnn_128-3-10_airplane_10_n02690373_2525.png,n02690373_2525.png,0.0,-7.671674,-1.55446,-4.3255234
alexnet_w1_mlp_simclrhn_probe1,1,366,NaN,cat,cat,1-3-10,0366_eid_dnn_1-3-10_cat_10_n02124075_5369.png,n02124075_5369.png,1.0,2.081959,0.33751905,1.2335054
alexnet_w1_mlp_simclrhn_probe1,1,367,NaN,oven,bird,64-3-10,0367_eid_dnn_64-3-10_bird_10_n01843065_4182.png,n01843065_4182.png,0.0,-2.5143435,-0.99770606,-1.0724247
alexnet_w1_mlp_simclrhn_probe1,1,368,NaN,truck,truck,2-3-10,0368_eid_dnn_2-3-10_truck_10_n03796401_6472.png,n03796401_6472.png,1.0,0.5842569,-0.14043213,0.5124325
alexnet_w1_mlp_simclrhn_probe1,1,369,NaN,oven,airplane,64-3-10,0369_eid_dnn_64-3-10_airplane_10_n02690373_3090.png,n02690373_3090.png,0.0,-5.58311,-0.3720224,-3.6847951
alexnet_w1_mlp_simclrhn_probe1,1,370,NaN,oven,bear,64-3-10,0370_eid_dnn_64-3-10_bear_10_n02134418_2964.png,n02134418_2964.png,0.0,-0.87037957,-0.76533675,-0.074276485
alexnet_w1_mlp_simclrhn_probe1,1,371,NaN,bear,elephant,16-3-10,0371_eid_dnn_16-3-10_elephant_10_n02504013_6904.png,n02504013_6904.png,0.0,1.5092295,1.9989209,-0.3462641
alexnet_w1_mlp_simclrhn_probe1,1,372,NaN,oven,bottle,32-3-10,0372_eid_dnn_32-3-10_bottle_10_n02823428_13488.png,n02823428_13488.png,0.0,-3.990033,-0.6378427,-2.3703566
alexnet_w1_mlp_simclrhn_probe1,1,373,NaN,car,car,1-3-10,0373_eid_dnn_1-3-10_car_10_n02814533_49499.png,n02814533_49499.png,1.0,11.764226,5.627919,4.339024
alexnet_w1_mlp_simclrhn_probe1,1,374,NaN,bear,clock,64-3-10,0374_eid_dnn_64-3-10_clock_10_n03196217_1000.png,n03196217_1000.png,0.0,-3.899231,-1.802842,-1.4823707
alexnet_w1_mlp_simclrhn_probe1,1,375,NaN,bear,boat,16-3-10,0375_eid_dnn_16-3-10_boat_10_n04612504_13446.png,n04612504_13446.png,0.0,-2.0392213,0.6941142,-1.9327601
alexnet_w1_mlp_simclrhn_probe1,1,376,NaN,oven,cat,8-3-10,0376_eid_dnn_8-3-10_cat_10_n02123159_7239.png,n02123159_7239.png,0.0,-1.1050456,-0.15578088,-0.6712315
alexnet_w1_mlp_simclrhn_probe1,1,377,NaN,oven,airplane,8-3-10,0377_eid_dnn_8-3-10_airplane_10_n02690373_7499.png,n02690373_7499.png,0.0,-1.4310458,-0.7049899,-0.513399
alexnet_w1_mlp_simclrhn_probe1,1,378,NaN,oven,dog,64-3-10,0378_eid_dnn_64-3-10_dog_10_n02100877_8862.png,n02100877_8862.png,0.0,-2.1810129,-0.88823557,-0.9141316
alexnet_w1_mlp_simclrhn_probe1,1,379,NaN,keyboard,keyboard,2-3-10,0379_eid_dnn_2-3-10_keyboard_10_n03085013_7152.png,n03085013_7152.png,1.0,3.2034519,-0.66828275,2.7377298
alexnet_w1_mlp_simclrhn_probe1,1,380,NaN,bear,bottle,32-3-10,0380_eid_dnn_32-3-10_bottle_10_n03937543_3344.png,n03937543_3344.png,0.0,-3.9055486,-0.7002688,-2.2664752
alexnet_w1_mlp_simclrhn_probe1,1,381,NaN,bear,bicycle,64-3-10,0381_eid_dnn_64-3-10_bicycle_10_n02835271_1721.png,n02835271_1721.png,0.0,-3.4942048,-1.1274099,-1.6735767
alexnet_w1_mlp_simclrhn_probe1,1,382,NaN,boat,boat,2-3-10,0382_eid_dnn_2-3-10_boat_10_n04273569_7039.png,n04273569_7039.png,1.0,1.85691,-2.2185912,2.8818147
alexnet_w1_mlp_simclrhn_probe1,1,383,NaN,airplane,airplane,1-3-10,0383_eid_dnn_1-3-10_airplane_10_n02690373_5790.png,n02690373_5790.png,1.0,4.1806545,-0.84288603,3.5521796
alexnet_w1_mlp_simclrhn_probe1,1,384,NaN,elephant,bird,2-3-10,0384_eid_dnn_2-3-10_bird_10_n02007558_4629.png,n02007558_4629.png,0.0,-2.1185958,-1.2782854,-0.5941892
alexnet_w1_mlp_simclrhn_probe1,1,385,NaN,airplane,airplane,8-3-10,0385_eid_dnn_8-3-10_airplane_10_n02690373_2313.png,n02690373_2313.png,1.0,0.14482686,-1.1553386,0.91935587
alexnet_w1_mlp_simclrhn_probe1,1,386,NaN,car,car,2-3-10,0386_eid_dnn_2-3-10_car_10_n02814533_65093.png,n02814533_65093.png,1.0,7.582168,4.497435,2.1812356
alexnet_w1_mlp_simclrhn_probe1,1,387,NaN,bicycle,bicycle,2-3-10,0387_eid_dnn_2-3-10_bicycle_10_n03792782_4559.png,n03792782_4559.png,1.0,2.0275912,-2.3316379,3.0824406
alexnet_w1_mlp_simclrhn_probe1,1,388,NaN,oven,oven,2-3-10,0388_eid_dnn_2-3-10_oven_10_n04111531_16696.png,n04111531_16696.png,1.0,3.6153824,-0.15793988,2.6681418
alexnet_w1_mlp_simclrhn_probe1,1,389,NaN,oven,boat,32-3-10,0389_eid_dnn_32-3-10_boat_10_n04273569_5593.png,n04273569_5593.png,0.0,-3.5296788,-0.76369476,-1.9558461
alexnet_w1_mlp_simclrhn_probe1,1,390,NaN,oven,bottle,128-3-10,0390_eid_dnn_128-3-10_bottle_10_n03937543_6624.png,n03937543_6624.png,0.0,-2.3407147,-1.1985137,-0.8076581
alexnet_w1_mlp_simclrhn_probe1,1,391,NaN,airplane,airplane,1-3-10,0391_eid_dnn_1-3-10_airplane_10_n02690373_12436.png,n02690373_12436.png,1.0,8.359035,2.0388818,4.4690228
alexnet_w1_mlp_simclrhn_probe1,1,392,NaN,bird,bird,2-3-10,0392_eid_dnn_2-3-10_bird_10_n01828970_6924.png,n01828970_6924.png,1.0,0.8384183,-1.8465829,1.8985826
alexnet_w1_mlp_simclrhn_probe1,1,393,NaN,airplane,airplane,4-3-10,0393_eid_dnn_4-3-10_airplane_10_n02690373_9605.png,n02690373_9605.png,1.0,1.7444608,-2.4736857,2.9826798
alexnet_w1_mlp_simclrhn_probe1,1,394,NaN,bear,truck,128-3-10,0394_eid_dnn_128-3-10_truck_10_n03796401_1335.png,n03796401_1335.png,0.0,-5.7764645,-1.2823302,-3.177833
alexnet_w1_mlp_simclrhn_probe1,1,395,NaN,bear,chair,64-3-10,0395_eid_dnn_64-3-10_chair_10_n04429376_10476.png,n04429376_10476.png,0.0,-10.411003,-0.39514643,-7.08228
alexnet_w1_mlp_simclrhn_probe1,1,396,NaN,bottle,bottle,1-3-10,0396_eid_dnn_1-3-10_bottle_10_n04560804_32760.png,n04560804_32760.png,1.0,2.4303129,-1.1092279,2.5028334
alexnet_w1_mlp_simclrhn_probe1,1,397,NaN,oven,airplane,32-3-10,0397_eid_dnn_32-3-10_airplane_10_n02690373_10817.png,n02690373_10817.png,0.0,-3.727404,-0.7364459,-2.1149268
alexnet_w1_mlp_simclrhn_probe1,1,398,NaN,oven,car,32-3-10,0398_eid_dnn_32-3-10_car_10_n03100240_5946.png,n03100240_5946.png,0.0,-8.698346,-0.16538388,-6.0337152
alexnet_w1_mlp_simclrhn_probe1,1,399,NaN,bear,clock,64-3-10,0399_eid_dnn_64-3-10_clock_10_n02708093_2875.png,n02708093_2875.png,0.0,-6.187099,-1.377135,-3.4011583
alexnet_w1_mlp_simclrhn_probe1,1,400,NaN,bear,bear,2-3-10,0400_eid_dnn_2-3-10_bear_10_n02133161_2456.png,n02133161_2456.png,1.0,3.4958496,1.0352834,1.739883
alexnet_w1_mlp_simclrhn_probe1,1,401,NaN,bear,bird,8-3-10,0401_eid_dnn_8-3-10_bird_10_n01855672_15317.png,n01855672_15317.png,0.0,-1.7892197,0.006831236,-1.2699999
alexnet_w1_mlp_simclrhn_probe1,1,402,NaN,dog,dog,8-3-10,0402_eid_dnn_8-3-10_dog_10_n02098286_2242.png,n02098286_2242.png,1.0,-0.053893063,-1.926752,1.3243113
alexnet_w1_mlp_simclrhn_probe1,1,403,NaN,knife,knife,2-3-10,0403_eid_dnn_2-3-10_knife_10_n03041632_43289.png,n03041632_43289.png,1.0,0.1911012,-1.111784,0.92127895
alexnet_w1_mlp_simclrhn_probe1,1,404,NaN,bottle,bottle,4-3-10,0404_eid_dnn_4-3-10_bottle_10_n02823428_4387.png,n02823428_4387.png,1.0,2.2752643,0.66036546,1.1419059
alexnet_w1_mlp_simclrhn_probe1,1,405,NaN,oven,knife,64-3-10,0405_eid_dnn_64-3-10_knife_10_n03041632_13194.png,n03041632_13194.png,0.0,-2.597804,0.06632145,-1.8838212
alexnet_w1_mlp_simclrhn_probe1,1,406,NaN,airplane,airplane,8-3-10,0406_eid_dnn_8-3-10_airplane_10_n02690373_7465.png,n02690373_7465.png,1.0,-0.82149506,-1.6340222,0.5745435
alexnet_w1_mlp_simclrhn_probe1,1,407,NaN,bear,bird,4-3-10,0407_eid_dnn_4-3-10_bird_10_n02018207_2282.png,n02018207_2282.png,0.0,-1.015646,-0.49655306,-0.36705413
alexnet_w1_mlp_simclrhn_probe1,1,408,NaN,oven,chair,64-3-10,0408_eid_dnn_64-3-10_chair_10_n04099969_34351.png,n04099969_34351.png,0.0,-3.2948704,-0.6777106,-1.8506114
alexnet_w1_mlp_simclrhn_probe1,1,409,NaN,bear,bottle,64-3-10,0409_eid_dnn_64-3-10_bottle_10_n03937543_49.png,n03937543_49.png,0.0,-2.1277425,-0.6283734,-1.0602142
alexnet_w1_mlp_simclrhn_probe1,1,410,NaN,bicycle,bicycle,8-3-10,0410_eid_dnn_8-3-10_bicycle_10_n03792782_9833.png,n03792782_9833.png,1.0,-0.9853003,-1.6425734,0.46476224
alexnet_w1_mlp_simclrhn_probe1,1,411,NaN,knife,clock,4-3-10,0411_eid_dnn_4-3-10_clock_10_n03196217_10384.png,n03196217_10384.png,0.0,-1.5237036,0.05734291,-1.1179687
alexnet_w1_mlp_simclrhn_probe1,1,412,NaN,bear,truck,64-3-10,0412_eid_dnn_64-3-10_truck_10_n04467665_4492.png,n04467665_4492.png,0.0,-6.152095,-1.1072501,-3.5672438
alexnet_w1_mlp_simclrhn_probe1,1,413,NaN,oven,bottle,128-3-10,0413_eid_dnn_128-3-10_bottle_10_n03983396_5148.png,n03983396_5148.png,0.0,-2.9777772,-1.2657235,-1.2106049
alexnet_w1_mlp_simclrhn_probe1,1,414,NaN,oven,clock,128-3-10,0414_eid_dnn_128-3-10_clock_10_n04548280_4364.png,n04548280_4364.png,0.0,-2.799531,-1.121105,-1.1868265
alexnet_w1_mlp_simclrhn_probe1,1,415,NaN,cat,cat,1-3-10,0415_eid_dnn_1-3-10_cat_10_n02123394_6792.png,n02123394_6792.png,1.0,3.4131517,-0.96497333,3.095802
alexnet_w1_mlp_simclrhn_probe1,1,416,NaN,bear,oven,16-3-10,0416_eid_dnn_16-3-10_oven_10_n04111531_1298.png,n04111531_1298.png,0.0,-0.3290417,0.37956274,-0.501059
alexnet_w1_mlp_simclrhn_probe1,1,417,NaN,oven,clock,8-3-10,0417_eid_dnn_8-3-10_clock_10_n04548280_2334.png,n04548280_2334.png,0.0,-4.232499,-0.45808876,-2.6689112
alexnet_w1_mlp_simclrhn_probe1,1,418,NaN,oven,car,32-3-10,0418_eid_dnn_32-3-10_car_10_n04285008_15570.png,n04285008_15570.png,0.0,-8.367176,0.5862601,-6.331035
alexnet_w1_mlp_simclrhn_probe1,1,419,NaN,bear,dog,32-3-10,0419_eid_dnn_32-3-10_dog_10_n02087394_7569.png,n02087394_7569.png,0.0,-1.7886368,-0.24662441,-1.0903674
alexnet_w1_mlp_simclrhn_probe1,1,420,NaN,oven,clock,32-3-10,0420_eid_dnn_32-3-10_clock_10_n03196217_11445.png,n03196217_11445.png,0.0,-5.4974694,-0.5917163,-3.4688914
alexnet_w1_mlp_simclrhn_probe1,1,421,NaN,bear,chair,32-3-10,0421_eid_dnn_32-3-10_chair_10_n04099969_3095.png,n04099969_3095.png,0.0,-4.48526,-0.20662692,-3.0254505
alexnet_w1_mlp_simclrhn_probe1,1,422,NaN,bear,bird,64-3-10,0422_eid_dnn_64-3-10_bird_10_n01601694_935.png,n01601694_935.png,0.0,-2.3706226,-1.1042805,-0.89543915
alexnet_w1_mlp_simclrhn_probe1,1,423,NaN,cat,bird,2-3-10,0423_eid_dnn_2-3-10_bird_10_n01592084_3570.png,n01592084_3570.png,0.0,-2.618075,-0.044472415,-1.8198118
alexnet_w1_mlp_simclrhn_probe1,1,424,NaN,oven,dog,64-3-10,0424_eid_dnn_64-3-10_dog_10_n02090379_605.png,n02090379_605.png,0.0,-2.1941488,-0.3893515,-1.2761844
alexnet_w1_mlp_simclrhn_probe1,1,425,NaN,airplane,airplane,1-3-10,0425_eid_dnn_1-3-10_airplane_10_n02690373_3912.png,n02690373_3912.png,1.0,7.4412413,-1.2589613,6.151973
alexnet_w1_mlp_simclrhn_probe1,1,426,NaN,knife,oven,128-3-10,0426_eid_dnn_128-3-10_oven_10_n04111531_986.png,n04111531_986.png,0.0,-2.1679518,-1.806303,-0.2557243
alexnet_w1_mlp_simclrhn_probe1,1,427,NaN,bear,knife,32-3-10,0427_eid_dnn_32-3-10_knife_10_n03041632_23736.png,n03041632_23736.png,0.0,-3.2806766,-0.44028097,-2.0084631
alexnet_w1_mlp_simclrhn_probe1,1,428,NaN,knife,clock,4-3-10,0428_eid_dnn_4-3-10_clock_10_n04548280_10686.png,n04548280_10686.png,0.0,-1.6060647,-1.4712663,-0.09531687
alexnet_w1_mlp_simclrhn_probe1,1,429,NaN,bear,oven,32-3-10,0429_eid_dnn_32-3-10_oven_10_n04111531_21460.png,n04111531_21460.png,0.0,-0.14988407,0.312819,-0.3271805
alexnet_w1_mlp_simclrhn_probe1,1,430,NaN,oven,bottle,32-3-10,0430_eid_dnn_32-3-10_bottle_10_n04557648_3675.png,n04557648_3675.png,0.0,-4.4390864,0.19048744,-3.2736032
alexnet_w1_mlp_simclrhn_probe1,1,431,NaN,oven,chair,8-3-10,0431_eid_dnn_8-3-10_chair_10_n02791124_495.png,n02791124_495.png,0.0,-3.39087,0.29462007,-2.606035
alexnet_w1_mlp_simclrhn_probe1,1,432,NaN,oven,chair,128-3-10,0432_eid_dnn_128-3-10_chair_10_n04429376_9165.png,n04429376_9165.png,0.0,-6.715376,-1.4395558,-3.7305684
alexnet_w1_mlp_simclrhn_probe1,1,433,NaN,clock,clock,1-3-10,0433_eid_dnn_1-3-10_clock_10_n04548280_2937.png,n04548280_2937.png,1.0,0.27228618,-1.6369594,1.3500406
alexnet_w1_mlp_simclrhn_probe1,1,434,NaN,oven,bear,32-3-10,0434_eid_dnn_32-3-10_bear_10_n02134418_5849.png,n02134418_5849.png,0.0,-1.556838,-1.5027862,-0.03822045
alexnet_w1_mlp_simclrhn_probe1,1,435,NaN,oven,bottle,128-3-10,0435_eid_dnn_128-3-10_bottle_10_n04560804_2521.png,n04560804_2521.png,0.0,-2.8823292,-1.2129917,-1.1803999
alexnet_w1_mlp_simclrhn_probe1,1,436,NaN,cat,car,8-3-10,0436_eid_dnn_8-3-10_car_10_n04285008_11600.png,n04285008_11600.png,0.0,-4.588471,-1.0155392,-2.5264444
alexnet_w1_mlp_simclrhn_probe1,1,437,NaN,knife,knife,2-3-10,0437_eid_dnn_2-3-10_knife_10_n03041632_79317.png,n03041632_79317.png,1.0,2.3897045,-2.4225724,3.4027936
alexnet_w1_mlp_simclrhn_probe1,1,438,NaN,bear,truck,32-3-10,0438_eid_dnn_32-3-10_truck_10_n03417042_6467.png,n03417042_6467.png,0.0,-7.393467,1.0520526,-5.9718843
alexnet_w1_mlp_simclrhn_probe1,1,439,NaN,bird,airplane,64-3-10,0439_eid_dnn_64-3-10_airplane_10_n02690373_303.png,n02690373_303.png,0.0,-3.7335691,-1.676149,-1.4548159
alexnet_w1_mlp_simclrhn_probe1,1,440,NaN,bear,chair,64-3-10,0440_eid_dnn_64-3-10_chair_10_n04099969_2354.png,n04099969_2354.png,0.0,-6.142814,-0.50697005,-3.9851437
alexnet_w1_mlp_simclrhn_probe1,1,441,NaN,knife,clock,128-3-10,0441_eid_dnn_128-3-10_clock_10_n04548280_377.png,n04548280_377.png,0.0,-4.094301,-2.4937916,-1.1317313
alexnet_w1_mlp_simclrhn_probe1,1,442,NaN,bear,bicycle,32-3-10,0442_eid_dnn_32-3-10_bicycle_10_n03792782_11597.png,n03792782_11597.png,0.0,-1.5429521,-0.55507,-0.6985381
alexnet_w1_mlp_simclrhn_probe1,1,443,NaN,bottle,bottle,2-3-10,0443_eid_dnn_2-3-10_bottle_10_n04579145_215.png,n04579145_215.png,1.0,3.0784917,-2.8747172,4.2095547
alexnet_w1_mlp_simclrhn_probe1,1,444,NaN,car,car,4-3-10,0444_eid_dnn_4-3-10_car_10_n02814533_95669.png,n02814533_95669.png,1.0,2.254239,-0.75833476,2.1302114
alexnet_w1_mlp_simclrhn_probe1,1,445,NaN,bear,chair,32-3-10,0445_eid_dnn_32-3-10_chair_10_n04429376_51025.png,n04429376_51025.png,0.0,-6.1510544,-0.79232216,-3.789196
alexnet_w1_mlp_simclrhn_probe1,1,446,NaN,cat,cat,4-3-10,0446_eid_dnn_4-3-10_cat_10_n02123045_2757.png,n02123045_2757.png,1.0,3.4731169,-0.24050029,2.6259239
alexnet_w1_mlp_simclrhn_probe1,1,447,NaN,bottle,bottle,4-3-10,0447_eid_dnn_4-3-10_bottle_10_n03937543_2135.png,n03937543_2135.png,1.0,-0.28766814,-0.39918688,0.078855656
alexnet_w1_mlp_simclrhn_probe1,1,448,NaN,bird,bird,2-3-10,0448_eid_dnn_2-3-10_bird_10_n01855032_7457.png,n01855032_7457.png,1.0,0.38884798,-1.9703907,1.6682336
alexnet_w1_mlp_simclrhn_probe1,1,449,NaN,bear,car,16-3-10,0449_eid_dnn_16-3-10_car_10_n02814533_24935.png,n02814533_24935.png,0.0,-9.965779,-0.23370458,-6.881616
alexnet_w1_mlp_simclrhn_probe1,1,450,NaN,oven,keyboard,4-3-10,0450_eid_dnn_4-3-10_keyboard_10_n04505470_1371.png,n04505470_1371.png,0.0,-1.22285,2.5652962,-2.6786237
alexnet_w1_mlp_simclrhn_probe1,1,451,NaN,bear,dog,16-3-10,0451_eid_dnn_16-3-10_dog_10_n02099267_2379.png,n02099267_2379.png,0.0,-1.5313269,1.6088212,-2.2204201
alexnet_w1_mlp_simclrhn_probe1,1,452,NaN,cat,cat,8-3-10,0452_eid_dnn_8-3-10_cat_10_n02123394_8009.png,n02123394_8009.png,1.0,1.5128932,-0.7139777,1.5746356
alexnet_w1_mlp_simclrhn_probe1,1,453,NaN,keyboard,keyboard,2-3-10,0453_eid_dnn_2-3-10_keyboard_10_n03085013_29042.png,n03085013_29042.png,1.0,2.4088697,-0.450526,2.0218983
alexnet_w1_mlp_simclrhn_probe1,1,454,NaN,oven,airplane,128-3-10,0454_eid_dnn_128-3-10_airplane_10_n02690373_2131.png,n02690373_2131.png,0.0,-7.7448053,-0.9709958,-4.789807
alexnet_w1_mlp_simclrhn_probe1,1,455,NaN,bear,car,8-3-10,0455_eid_dnn_8-3-10_car_10_n03100240_327.png,n03100240_327.png,0.0,-3.5904233,-1.3010819,-1.6188089
alexnet_w1_mlp_simclrhn_probe1,1,456,NaN,elephant,elephant,2-3-10,0456_eid_dnn_2-3-10_elephant_10_n02504458_4163.png,n02504458_4163.png,1.0,8.720456,2.9090123,4.1093116
alexnet_w1_mlp_simclrhn_probe1,1,457,NaN,knife,knife,1-3-10,0457_eid_dnn_1-3-10_knife_10_n03041632_9635.png,n03041632_9635.png,1.0,-0.10632546,-2.0195324,1.3528416
alexnet_w1_mlp_simclrhn_probe1,1,458,NaN,bear,airplane,16-3-10,0458_eid_dnn_16-3-10_airplane_10_n02690373_1044.png,n02690373_1044.png,0.0,-3.6497016,-0.99100304,-1.8799838
alexnet_w1_mlp_simclrhn_probe1,1,459,NaN,bear,bottle,16-3-10,0459_eid_dnn_16-3-10_bottle_10_n04560804_5441.png,n04560804_5441.png,0.0,-2.2624242,-0.34995827,-1.3523177
alexnet_w1_mlp_simclrhn_probe1,1,460,NaN,cat,cat,8-3-10,0460_eid_dnn_8-3-10_cat_10_n02123159_988.png,n02123159_988.png,1.0,1.0776908,-0.66297394,1.2308358
alexnet_w1_mlp_simclrhn_probe1,1,461,NaN,oven,bird,64-3-10,0461_eid_dnn_64-3-10_bird_10_n01843383_4667.png,n01843383_4667.png,0.0,-4.993756,-0.8727886,-2.913964
alexnet_w1_mlp_simclrhn_probe1,1,462,NaN,airplane,airplane,2-3-10,0462_eid_dnn_2-3-10_airplane_10_n02690373_6978.png,n02690373_6978.png,1.0,4.326051,-0.43758208,3.3683975
alexnet_w1_mlp_simclrhn_probe1,1,463,NaN,oven,chair,128-3-10,0463_eid_dnn_128-3-10_chair_10_n04099969_5901.png,n04099969_5901.png,0.0,-7.041563,-1.2432371,-4.1000357
alexnet_w1_mlp_simclrhn_probe1,1,464,NaN,elephant,truck,8-3-10,0464_eid_dnn_8-3-10_truck_10_n03417042_29849.png,n03417042_29849.png,0.0,-4.912203,1.2647395,-4.367758
alexnet_w1_mlp_simclrhn_probe1,1,465,NaN,airplane,airplane,1-3-10,0465_eid_dnn_1-3-10_airplane_10_n02690373_427.png,n02690373_427.png,1.0,1.8099198,-1.3320072,2.221678
alexnet_w1_mlp_simclrhn_probe1,1,466,NaN,bottle,bottle,4-3-10,0466_eid_dnn_4-3-10_bottle_10_n03983396_2305.png,n03983396_2305.png,1.0,2.6133354,-0.50230205,2.2030883
alexnet_w1_mlp_simclrhn_probe1,1,467,NaN,oven,oven,64-3-10,0467_eid_dnn_64-3-10_oven_10_n04111531_15296.png,n04111531_15296.png,1.0,-0.5476686,-1.8016769,0.8867178
alexnet_w1_mlp_simclrhn_probe1,1,468,NaN,cat,cat,4-3-10,0468_eid_dnn_4-3-10_cat_10_n02123159_6728.png,n02123159_6728.png,1.0,1.0813279,-0.3391743,1.0044467
alexnet_w1_mlp_simclrhn_probe1,1,469,NaN,elephant,elephant,4-3-10,0469_eid_dnn_4-3-10_elephant_10_n02504458_12449.png,n02504458_12449.png,1.0,5.5413637,2.5984058,2.0809855
alexnet_w1_mlp_simclrhn_probe1,1,470,NaN,oven,elephant,128-3-10,0470_eid_dnn_128-3-10_elephant_10_n02504458_12165.png,n02504458_12165.png,0.0,-3.3767574,-0.18375532,-2.2577934
alexnet_w1_mlp_simclrhn_probe1,1,471,NaN,bear,airplane,8-3-10,0471_eid_dnn_8-3-10_airplane_10_n02690373_5010.png,n02690373_5010.png,0.0,-1.509404,-0.772904,-0.52078414
alexnet_w1_mlp_simclrhn_probe1,1,472,NaN,oven,dog,64-3-10,0472_eid_dnn_64-3-10_dog_10_n02100236_4549.png,n02100236_4549.png,0.0,-2.458647,-1.1520144,-0.9239288
alexnet_w1_mlp_simclrhn_probe1,1,473,NaN,boat,boat,4-3-10,0473_eid_dnn_4-3-10_boat_10_n03344393_4289.png,n03344393_4289.png,1.0,1.6636101,0.5880657,0.76052475
alexnet_w1_mlp_simclrhn_probe1,1,474,NaN,bear,chair,64-3-10,0474_eid_dnn_64-3-10_chair_10_n04099969_48169.png,n04099969_48169.png,0.0,-4.498763,-0.9778807,-2.4896398
alexnet_w1_mlp_simclrhn_probe1,1,475,NaN,airplane,airplane,4-3-10,0475_eid_dnn_4-3-10_airplane_10_n02690373_1996.png,n02690373_1996.png,1.0,2.9420974,-1.7254175,3.3004315
alexnet_w1_mlp_simclrhn_probe1,1,476,NaN,oven,truck,128-3-10,0476_eid_dnn_128-3-10_truck_10_n03417042_28078.png,n03417042_28078.png,0.0,-5.8190527,-1.3036427,-3.192877
alexnet_w1_mlp_simclrhn_probe1,1,477,NaN,oven,truck,8-3-10,0477_eid_dnn_8-3-10_truck_10_n04467665_3098.png,n04467665_3098.png,0.0,-4.6393642,-1.1514577,-2.4663224
alexnet_w1_mlp_simclrhn_probe1,1,478,NaN,elephant,elephant,4-3-10,0478_eid_dnn_4-3-10_elephant_10_n02504458_847.png,n02504458_847.png,1.0,5.6965733,4.0765734,1.1455129
alexnet_w1_mlp_simclrhn_probe1,1,479,NaN,cat,bicycle,8-3-10,0479_eid_dnn_8-3-10_bicycle_10_n03792782_5880.png,n03792782_5880.png,0.0,-4.8539762,-0.8969836,-2.7980163
alexnet_w1_mlp_simclrhn_probe1,1,480,NaN,oven,bear,128-3-10,0480_eid_dnn_128-3-10_bear_10_n02132136_30976.png,n02132136_30976.png,0.0,-1.3635404,-1.1614381,-0.14290792
alexnet_w1_mlp_simclrhn_probe1,1,481,NaN,oven,chair,64-3-10,0481_eid_dnn_64-3-10_chair_10_n02791124_2057.png,n02791124_2057.png,0.0,-4.1560564,-0.6444869,-2.4830546
alexnet_w1_mlp_simclrhn_probe1,1,482,NaN,cat,keyboard,128-3-10,0482_eid_dnn_128-3-10_keyboard_10_n03085013_7286.png,n03085013_7286.png,0.0,-5.3917704,-1.8634704,-2.4948847
alexnet_w1_mlp_simclrhn_probe1,1,483,NaN,oven,clock,32-3-10,0483_eid_dnn_32-3-10_clock_10_n04548280_1323.png,n04548280_1323.png,0.0,-4.1222076,-0.2285816,-2.7532094
alexnet_w1_mlp_simclrhn_probe1,1,484,NaN,oven,bottle,128-3-10,0484_eid_dnn_128-3-10_bottle_10_n03983396_18508.png,n03983396_18508.png,0.0,-3.5586984,-2.0585005,-1.0608001
alexnet_w1_mlp_simclrhn_probe1,1,485,NaN,cat,bottle,8-3-10,0485_eid_dnn_8-3-10_bottle_10_n03983396_3880.png,n03983396_3880.png,0.0,-1.8869455,-0.3529388,-1.0847065
alexnet_w1_mlp_simclrhn_probe1,1,486,NaN,oven,dog,128-3-10,0486_eid_dnn_128-3-10_dog_10_n02095570_601.png,n02095570_601.png,0.0,-3.1167767,-0.8803605,-1.5813851
alexnet_w1_mlp_simclrhn_probe1,1,487,NaN,bear,bird,32-3-10,0487_eid_dnn_32-3-10_bird_10_n01797886_21510.png,n01797886_21510.png,0.0,-3.153668,-1.1366031,-1.4262803
alexnet_w1_mlp_simclrhn_probe1,1,488,NaN,keyboard,chair,1-3-10,0488_eid_dnn_1-3-10_chair_10_n04099969_9425.png,n04099969_9425.png,0.0,0.98524016,1.8492953,-0.6109792
alexnet_w1_mlp_simclrhn_probe1,1,489,NaN,oven,keyboard,8-3-10,0489_eid_dnn_8-3-10_keyboard_10_n04505470_4228.png,n04505470_4228.png,0.0,-4.948561,-0.45303863,-3.1788144
alexnet_w1_mlp_simclrhn_probe1,1,490,NaN,bear,elephant,32-3-10,0490_eid_dnn_32-3-10_elephant_10_n02504013_7553.png,n02504013_7553.png,0.0,-0.8528792,0.07226049,-0.6541726
alexnet_w1_mlp_simclrhn_probe1,1,491,NaN,bear,cat,64-3-10,0491_eid_dnn_64-3-10_cat_10_n02125311_8090.png,n02125311_8090.png,0.0,-2.4102678,-0.6748117,-1.2271528
alexnet_w1_mlp_simclrhn_probe1,1,492,NaN,oven,keyboard,8-3-10,0492_eid_dnn_8-3-10_keyboard_10_n04505470_10041.png,n04505470_10041.png,0.0,-4.9681034,0.3202983,-3.7394648
alexnet_w1_mlp_simclrhn_probe1,1,493,NaN,bicycle,bicycle,4-3-10,0493_eid_dnn_4-3-10_bicycle_10_n03792782_1833.png,n03792782_1833.png,1.0,-0.48854458,-1.3490723,0.60848504
alexnet_w1_mlp_simclrhn_probe1,1,494,NaN,oven,bottle,4-3-10,0494_eid_dnn_4-3-10_bottle_10_n04557648_11642.png,n04557648_11642.png,0.0,-2.3478935,-0.6642005,-1.1905507
alexnet_w1_mlp_simclrhn_probe1,1,495,NaN,knife,car,128-3-10,0495_eid_dnn_128-3-10_car_10_n03100240_7219.png,n03100240_7219.png,0.0,-7.8180823,-2.7347562,-3.5944545
alexnet_w1_mlp_simclrhn_probe1,1,496,NaN,car,truck,1-3-10,0496_eid_dnn_1-3-10_truck_10_n03796401_9642.png,n03796401_9642.png,0.0,7.602583,7.812252,-0.14825845
alexnet_w1_mlp_simclrhn_probe1,1,497,NaN,oven,cat,1-3-10,0497_eid_dnn_1-3-10_cat_10_n02125311_13348.png,n02125311_13348.png,0.0,-1.4075712,-0.5174634,-0.62940127
alexnet_w1_mlp_simclrhn_probe1,1,498,NaN,bicycle,bottle,128-3-10,0498_eid_dnn_128-3-10_bottle_10_n04560804_5540.png,n04560804_5540.png,0.0,-3.915819,-2.0171237,-1.3425803
alexnet_w1_mlp_simclrhn_probe1,1,499,NaN,bottle,bottle,4-3-10,0499_eid_dnn_4-3-10_bottle_10_n03983396_9604.png,n03983396_9604.png,1.0,4.2472663,-2.706194,4.916839
alexnet_w1_mlp_simclrhn_probe1,1,500,NaN,oven,truck,32-3-10,0500_eid_dnn_32-3-10_truck_10_n03417042_5180.png,n03417042_5180.png,0.0,-6.051161,-0.87219954,-3.6620786
alexnet_w1_mlp_simclrhn_probe1,1,501,NaN,bear,dog,16-3-10,0501_eid_dnn_16-3-10_dog_10_n02109525_3364.png,n02109525_3364.png,0.0,-1.4477034,-0.73222184,-0.50592184
alexnet_w1_mlp_simclrhn_probe1,1,502,NaN,clock,clock,2-3-10,0502_eid_dnn_2-3-10_clock_10_n04548280_353.png,n04548280_353.png,1.0,0.00936691,-0.6946683,0.4978281
alexnet_w1_mlp_simclrhn_probe1,1,503,NaN,dog,dog,1-3-10,0503_eid_dnn_1-3-10_dog_10_n02111129_4423.png,n02111129_4423.png,1.0,0.7462816,-0.036421597,0.55345476
alexnet_w1_mlp_simclrhn_probe1,1,504,NaN,bear,dog,16-3-10,0504_eid_dnn_16-3-10_dog_10_n02108000_1538.png,n02108000_1538.png,0.0,-2.1839,0.4373737,-1.8535205
alexnet_w1_mlp_simclrhn_probe1,1,505,NaN,bear,keyboard,16-3-10,0505_eid_dnn_16-3-10_keyboard_10_n03085013_3439.png,n03085013_3439.png,0.0,-5.928182,-0.5840384,-3.7788804
alexnet_w1_mlp_simclrhn_probe1,1,506,NaN,elephant,truck,8-3-10,0506_eid_dnn_8-3-10_truck_10_n03417042_4016.png,n03417042_4016.png,0.0,-3.3326075,-0.5900526,-1.9392792
alexnet_w1_mlp_simclrhn_probe1,1,507,NaN,oven,knife,32-3-10,0507_eid_dnn_32-3-10_knife_10_n03041632_39883.png,n03041632_39883.png,0.0,-3.089221,0.23399228,-2.3498666
alexnet_w1_mlp_simclrhn_probe1,1,508,NaN,bear,bear,16-3-10,0508_eid_dnn_16-3-10_bear_10_n02132136_21181.png,n02132136_21181.png,1.0,0.14242475,-1.5786419,1.2169778
alexnet_w1_mlp_simclrhn_probe1,1,509,NaN,elephant,elephant,8-3-10,0509_eid_dnn_8-3-10_elephant_10_n02504013_718.png,n02504013_718.png,1.0,2.9544697,1.4838169,1.0399086
alexnet_w1_mlp_simclrhn_probe1,1,510,NaN,oven,oven,2-3-10,0510_eid_dnn_2-3-10_oven_10_n04111531_4146.png,n04111531_4146.png,1.0,4.3922067,-0.14344087,3.2071872
alexnet_w1_mlp_simclrhn_probe1,1,511,NaN,airplane,airplane,8-3-10,0511_eid_dnn_8-3-10_airplane_10_n02690373_10769.png,n02690373_10769.png,1.0,-0.027330205,-0.9460721,0.6496486
alexnet_w1_mlp_simclrhn_probe1,1,512,NaN,dog,dog,16-3-10,0512_eid_dnn_16-3-10_dog_10_n02109525_4516.png,n02109525_4516.png,1.0,-0.3804587,-0.88905513,0.359632
alexnet_w1_mlp_simclrhn_probe1,1,513,NaN,elephant,boat,4-3-10,0513_eid_dnn_4-3-10_boat_10_n02951358_12333.png,n02951358_12333.png,0.0,-1.7902758,0.103868805,-1.3393625
alexnet_w1_mlp_simclrhn_probe1,1,514,NaN,oven,chair,8-3-10,0514_eid_dnn_8-3-10_chair_10_n04099969_20421.png,n04099969_20421.png,0.0,-5.1618133,0.37306914,-3.913753
alexnet_w1_mlp_simclrhn_probe1,1,515,NaN,knife,knife,4-3-10,0515_eid_dnn_4-3-10_knife_10_n03041632_21165.png,n03041632_21165.png,1.0,-1.3480613,-1.412465,0.045540262
alexnet_w1_mlp_simclrhn_probe1,1,516,NaN,bicycle,bicycle,1-3-10,0516_eid_dnn_1-3-10_bicycle_10_n02835271_21439.png,n02835271_21439.png,1.0,1.9386585,-1.4890957,2.4237883
alexnet_w1_mlp_simclrhn_probe1,1,517,NaN,airplane,boat,1-3-10,0517_eid_dnn_1-3-10_boat_10_n04273569_24526.png,n04273569_24526.png,0.0,1.7573006,1.9837211,-0.16010348
alexnet_w1_mlp_simclrhn_probe1,1,518,NaN,bear,bottle,32-3-10,0518_eid_dnn_32-3-10_bottle_10_n04579145_2276.png,n04579145_2276.png,0.0,-3.97945,0.5502147,-3.2029564
alexnet_w1_mlp_simclrhn_probe1,1,519,NaN,bear,bear,8-3-10,0519_eid_dnn_8-3-10_bear_10_n02134418_1642.png,n02134418_1642.png,1.0,1.297071,-0.16148186,1.0313526
alexnet_w1_mlp_simclrhn_probe1,1,520,NaN,bicycle,bicycle,1-3-10,0520_eid_dnn_1-3-10_bicycle_10_n02835271_15468.png,n02835271_15468.png,1.0,8.890598,-1.9685924,7.6786075
alexnet_w1_mlp_simclrhn_probe1,1,521,NaN,knife,keyboard,64-3-10,0521_eid_dnn_64-3-10_keyboard_10_n03085013_26532.png,n03085013_26532.png,0.0,-2.661555,-1.3600237,-0.92032164
alexnet_w1_mlp_simclrhn_probe1,1,522,NaN,bear,clock,64-3-10,0522_eid_dnn_64-3-10_clock_10_n03196217_6809.png,n03196217_6809.png,0.0,-3.9922733,-0.5829954,-2.4107237
alexnet_w1_mlp_simclrhn_probe1,1,523,NaN,bear,bear,64-3-10,0523_eid_dnn_64-3-10_bear_10_n02134418_4384.png,n02134418_4384.png,1.0,-1.1077614,-1.3525001,0.1730564
alexnet_w1_mlp_simclrhn_probe1,1,524,NaN,dog,dog,4-3-10,0524_eid_dnn_4-3-10_dog_10_n02086240_1183.png,n02086240_1183.png,1.0,0.5488314,-2.232664,1.9668144
alexnet_w1_mlp_simclrhn_probe1,1,525,NaN,chair,chair,1-3-10,0525_eid_dnn_1-3-10_chair_10_n04429376_294.png,n04429376_294.png,1.0,-2.2199247,-3.7225251,1.0624989
alexnet_w1_mlp_simclrhn_probe1,1,526,NaN,oven,clock,64-3-10,0526_eid_dnn_64-3-10_clock_10_n02708093_4893.png,n02708093_4893.png,0.0,-3.5034733,-0.84553415,-1.8794469
alexnet_w1_mlp_simclrhn_probe1,1,527,NaN,oven,keyboard,64-3-10,0527_eid_dnn_64-3-10_keyboard_10_n03085013_3098.png,n03085013_3098.png,0.0,-5.1870847,-1.3160332,-2.7372468
alexnet_w1_mlp_simclrhn_probe1,1,528,NaN,bear,cat,16-3-10,0528_eid_dnn_16-3-10_cat_10_n02125311_22073.png,n02125311_22073.png,0.0,-1.9798821,0.54800266,-1.7874844
alexnet_w1_mlp_simclrhn_probe1,1,529,NaN,knife,bird,2-3-10,0529_eid_dnn_2-3-10_bird_10_n01558993_869.png,n01558993_869.png,0.0,-3.240819,-1.7640707,-1.0442187
alexnet_w1_mlp_simclrhn_probe1,1,530,NaN,bird,bird,1-3-10,0530_eid_dnn_1-3-10_bird_10_n01817953_8025.png,n01817953_8025.png,1.0,0.8722654,-2.2720475,2.223365
alexnet_w1_mlp_simclrhn_probe1,1,531,NaN,oven,chair,2-3-10,0531_eid_dnn_2-3-10_chair_10_n04099969_24235.png,n04099969_24235.png,0.0,-0.9642515,1.5561848,-1.7822176
alexnet_w1_mlp_simclrhn_probe1,1,532,NaN,cat,knife,128-3-10,0532_eid_dnn_128-3-10_knife_10_n03041632_1201.png,n03041632_1201.png,0.0,-3.1561627,-1.9592348,-0.84635586
alexnet_w1_mlp_simclrhn_probe1,1,533,NaN,oven,bicycle,4-3-10,0533_eid_dnn_4-3-10_bicycle_10_n03792782_16212.png,n03792782_16212.png,0.0,-4.5013847,-0.56164944,-2.7858136
alexnet_w1_mlp_simclrhn_probe1,1,534,NaN,oven,oven,4-3-10,0534_eid_dnn_4-3-10_oven_10_n04111531_11655.png,n04111531_11655.png,1.0,1.0057342,-0.68848133,1.1979914
alexnet_w1_mlp_simclrhn_probe1,1,535,NaN,bear,bicycle,16-3-10,0535_eid_dnn_16-3-10_bicycle_10_n02835271_5152.png,n02835271_5152.png,0.0,-5.269883,1.2954206,-4.6423707
alexnet_w1_mlp_simclrhn_probe1,1,536,NaN,bear,bear,16-3-10,0536_eid_dnn_16-3-10_bear_10_n02132136_19290.png,n02132136_19290.png,1.0,-0.19308037,-0.71475613,0.36888048
alexnet_w1_mlp_simclrhn_probe1,1,537,NaN,oven,car,32-3-10,0537_eid_dnn_32-3-10_car_10_n03100240_6103.png,n03100240_6103.png,0.0,-6.39512,-0.5140075,-4.1585746
alexnet_w1_mlp_simclrhn_probe1,1,538,NaN,bird,airplane,16-3-10,0538_eid_dnn_16-3-10_airplane_10_n02690373_5714.png,n02690373_5714.png,0.0,-3.76643,-1.5465988,-1.5696576
alexnet_w1_mlp_simclrhn_probe1,1,539,NaN,clock,chair,1-3-10,0539_eid_dnn_1-3-10_chair_10_n04429376_2915.png,n04429376_2915.png,0.0,-1.1682739,-0.5474613,-0.43898085
alexnet_w1_mlp_simclrhn_probe1,1,540,NaN,knife,clock,64-3-10,0540_eid_dnn_64-3-10_clock_10_n02708093_7827.png,n02708093_7827.png,0.0,-3.433489,-2.3164554,-0.78986216
alexnet_w1_mlp_simclrhn_probe1,1,541,NaN,truck,truck,2-3-10,0541_eid_dnn_2-3-10_truck_10_n03417042_6247.png,n03417042_6247.png,1.0,1.4568509,0.17189968,0.9085977
alexnet_w1_mlp_simclrhn_probe1,1,542,NaN,oven,elephant,32-3-10,0542_eid_dnn_32-3-10_elephant_10_n02504013_947.png,n02504013_947.png,0.0,-1.1608498,0.16152631,-0.93506116
alexnet_w1_mlp_simclrhn_probe1,1,543,NaN,truck,truck,1-3-10,0543_eid_dnn_1-3-10_truck_10_n03417042_2074.png,n03417042_2074.png,1.0,6.4633093,4.2391715,1.5727029
alexnet_w1_mlp_simclrhn_probe1,1,544,NaN,airplane,airplane,8-3-10,0544_eid_dnn_8-3-10_airplane_10_n02690373_5221.png,n02690373_5221.png,1.0,-0.957723,-1.3058014,0.24612857
alexnet_w1_mlp_simclrhn_probe1,1,545,NaN,oven,oven,4-3-10,0545_eid_dnn_4-3-10_oven_10_n04111531_6629.png,n04111531_6629.png,1.0,-0.47463882,-0.7874234,0.22117208
alexnet_w1_mlp_simclrhn_probe1,1,546,NaN,knife,knife,1-3-10,0546_eid_dnn_1-3-10_knife_10_n03041632_36277.png,n03041632_36277.png,1.0,1.3740036,-1.6400015,2.1312234
alexnet_w1_mlp_simclrhn_probe1,1,547,NaN,oven,cat,64-3-10,0547_eid_dnn_64-3-10_cat_10_n02123597_4700.png,n02123597_4700.png,0.0,-1.8761498,-1.3498054,-0.3721817
alexnet_w1_mlp_simclrhn_probe1,1,548,NaN,bear,airplane,16-3-10,0548_eid_dnn_16-3-10_airplane_10_n02690373_20042.png,n02690373_20042.png,0.0,-2.307022,-0.9677181,-0.94703096
alexnet_w1_mlp_simclrhn_probe1,1,549,NaN,bear,chair,32-3-10,0549_eid_dnn_32-3-10_chair_10_n02791124_15539.png,n02791124_15539.png,0.0,-6.7691064,-0.67130053,-4.3118
alexnet_w1_mlp_simclrhn_probe1,1,550,NaN,cat,cat,1-3-10,0550_eid_dnn_1-3-10_cat_10_n02123394_5700.png,n02123394_5700.png,1.0,1.0935098,0.60793835,0.34335086
alexnet_w1_mlp_simclrhn_probe1,1,551,NaN,car,car,4-3-10,0551_eid_dnn_4-3-10_car_10_n04285008_13595.png,n04285008_13595.png,1.0,2.3938124,-1.2339356,2.5652053
alexnet_w1_mlp_simclrhn_probe1,1,552,NaN,oven,chair,8-3-10,0552_eid_dnn_8-3-10_chair_10_n02791124_2282.png,n02791124_2282.png,0.0,-5.871895,0.18157604,-4.2804503
alexnet_w1_mlp_simclrhn_probe1,1,553,NaN,bear,dog,2-3-10,0553_eid_dnn_2-3-10_dog_10_n02100877_3973.png,n02100877_3973.png,0.0,0.15679903,0.29639888,-0.098712
alexnet_w1_mlp_simclrhn_probe1,1,554,NaN,bear,truck,64-3-10,0554_eid_dnn_64-3-10_truck_10_n03417042_12297.png,n03417042_12297.png,0.0,-6.4948783,-0.9024723,-3.9544282
alexnet_w1_mlp_simclrhn_probe1,1,555,NaN,bear,elephant,8-3-10,0555_eid_dnn_8-3-10_elephant_10_n02504013_6303.png,n02504013_6303.png,0.0,-1.035402,-0.41859174,-0.43615076
alexnet_w1_mlp_simclrhn_probe1,1,556,NaN,cat,car,8-3-10,0556_eid_dnn_8-3-10_car_10_n02814533_43990.png,n02814533_43990.png,0.0,-3.7625163,-0.9456208,-1.991846
alexnet_w1_mlp_simclrhn_probe1,1,557,NaN,bear,truck,16-3-10,0557_eid_dnn_16-3-10_truck_10_n04467665_58456.png,n04467665_58456.png,0.0,-7.757319,1.1461244,-6.2956853
alexnet_w1_mlp_simclrhn_probe1,1,558,NaN,cat,dog,4-3-10,0558_eid_dnn_4-3-10_dog_10_n02098105_526.png,n02098105_526.png,0.0,-1.2469555,-0.5838929,-0.4688561
alexnet_w1_mlp_simclrhn_probe1,1,559,NaN,bird,bird,2-3-10,0559_eid_dnn_2-3-10_bird_10_n02037110_27907.png,n02037110_27907.png,1.0,0.3431113,-3.1317532,2.4571004
alexnet_w1_mlp_simclrhn_probe1,1,560,NaN,oven,keyboard,64-3-10,0560_eid_dnn_64-3-10_keyboard_10_n03085013_20849.png,n03085013_20849.png,0.0,-3.9196367,-1.3497353,-1.8171948
alexnet_w1_mlp_simclrhn_probe1,1,561,NaN,chair,chair,1-3-10,0561_eid_dnn_1-3-10_chair_10_n03376595_12524.png,n03376595_12524.png,1.0,2.6947608,-2.6493344,3.778846
alexnet_w1_mlp_simclrhn_probe1,1,562,NaN,oven,bird,64-3-10,0562_eid_dnn_64-3-10_bird_10_n02056570_27055.png,n02056570_27055.png,0.0,-3.85313,-0.7319477,-2.2070093
alexnet_w1_mlp_simclrhn_probe1,1,563,NaN,bear,truck,64-3-10,0563_eid_dnn_64-3-10_truck_10_n03417042_4934.png,n03417042_4934.png,0.0,-5.7834635,-1.5878491,-2.9667473
alexnet_w1_mlp_simclrhn_probe1,1,564,NaN,bear,knife,16-3-10,0564_eid_dnn_16-3-10_knife_10_n03041632_3210.png,n03041632_3210.png,0.0,-1.2473499,-0.94898,-0.21097937
alexnet_w1_mlp_simclrhn_probe1,1,565,NaN,cat,dog,8-3-10,0565_eid_dnn_8-3-10_dog_10_n02096585_2118.png,n02096585_2118.png,0.0,-0.9153361,-0.82109696,-0.06663712
alexnet_w1_mlp_simclrhn_probe1,1,566,NaN,keyboard,keyboard,1-3-10,0566_eid_dnn_1-3-10_keyboard_10_n03085013_3539.png,n03085013_3539.png,1.0,5.2617903,-0.5158289,4.085394
alexnet_w1_mlp_simclrhn_probe1,1,567,NaN,truck,truck,4-3-10,0567_eid_dnn_4-3-10_truck_10_n03417042_17215.png,n03417042_17215.png,1.0,0.46759468,-0.7892436,0.8887189
alexnet_w1_mlp_simclrhn_probe1,1,568,NaN,bear,cat,8-3-10,0568_eid_dnn_8-3-10_cat_10_n02123045_12657.png,n02123045_12657.png,0.0,-0.8569941,0.22039343,-0.76182806
alexnet_w1_mlp_simclrhn_probe1,1,569,NaN,oven,knife,64-3-10,0569_eid_dnn_64-3-10_knife_10_n03041632_20576.png,n03041632_20576.png,0.0,-1.9473995,-0.73507273,-0.8572445
alexnet_w1_mlp_simclrhn_probe1,1,570,NaN,oven,truck,8-3-10,0570_eid_dnn_8-3-10_truck_10_n04467665_23905.png,n04467665_23905.png,0.0,-5.1137486,-1.2160151,-2.7561138
alexnet_w1_mlp_simclrhn_probe1,1,571,NaN,oven,oven,128-3-10,0571_eid_dnn_128-3-10_oven_10_n04111531_9427.png,n04111531_9427.png,1.0,-1.3711052,-2.2941415,0.6526853
alexnet_w1_mlp_simclrhn_probe1,1,572,NaN,oven,oven,16-3-10,0572_eid_dnn_16-3-10_oven_10_n04111531_14329.png,n04111531_14329.png,1.0,-0.6882578,-0.8184337,0.09204826
alexnet_w1_mlp_simclrhn_probe1,1,573,NaN,bear,bird,64-3-10,0573_eid_dnn_64-3-10_bird_10_n01614925_19422.png,n01614925_19422.png,0.0,-4.0458255,-1.2848263,-1.9523213
alexnet_w1_mlp_simclrhn_probe1,1,574,NaN,oven,bottle,128-3-10,0574_eid_dnn_128-3-10_bottle_10_n02823428_1154.png,n02823428_1154.png,0.0,-4.1967306,-1.5480134,-1.8729259
alexnet_w1_mlp_simclrhn_probe1,1,575,NaN,elephant,dog,4-3-10,0575_eid_dnn_4-3-10_dog_10_n02093859_4797.png,n02093859_4797.png,0.0,-0.15533455,1.5914528,-1.2351652
alexnet_w1_mlp_simclrhn_probe1,1,576,NaN,airplane,airplane,1-3-10,0576_eid_dnn_1-3-10_airplane_10_n02690373_2632.png,n02690373_2632.png,1.0,5.778601,0.43380255,3.7793434
alexnet_w1_mlp_simclrhn_probe1,1,577,NaN,bear,keyboard,32-3-10,0577_eid_dnn_32-3-10_keyboard_10_n03085013_15825.png,n03085013_15825.png,0.0,-5.75537,0.08781824,-4.131758
alexnet_w1_mlp_simclrhn_probe1,1,578,NaN,car,car,4-3-10,0578_eid_dnn_4-3-10_car_10_n02814533_52674.png,n02814533_52674.png,1.0,2.8348954,0.004346952,2.0015001
alexnet_w1_mlp_simclrhn_probe1,1,579,NaN,bear,truck,32-3-10,0579_eid_dnn_32-3-10_truck_10_n04467665_32937.png,n04467665_32937.png,0.0,-3.9478707,-0.73827523,-2.2695267
alexnet_w1_mlp_simclrhn_probe1,1,580,NaN,bird,bird,4-3-10,0580_eid_dnn_4-3-10_bird_10_n01537544_20.png,n01537544_20.png,1.0,-0.8486109,-1.4869813,0.45139605
alexnet_w1_mlp_simclrhn_probe1,1,581,NaN,bear,clock,8-3-10,0581_eid_dnn_8-3-10_clock_10_n03196217_564.png,n03196217_564.png,0.0,-1.8804022,-0.6860596,-0.8445278
alexnet_w1_mlp_simclrhn_probe1,1,582,NaN,keyboard,knife,1-3-10,0582_eid_dnn_1-3-10_knife_10_n03041632_76163.png,n03041632_76163.png,0.0,-1.8059919,0.36619133,-1.5359656
alexnet_w1_mlp_simclrhn_probe1,1,583,NaN,bear,airplane,32-3-10,0583_eid_dnn_32-3-10_airplane_10_n02690373_8559.png,n02690373_8559.png,0.0,-5.0473275,-1.482506,-2.5207095
alexnet_w1_mlp_simclrhn_probe1,1,584,NaN,keyboard,keyboard,2-3-10,0584_eid_dnn_2-3-10_keyboard_10_n04505470_3941.png,n04505470_3941.png,1.0,10.790619,-0.6598727,8.096721
alexnet_w1_mlp_simclrhn_probe1,1,585,NaN,bear,oven,64-3-10,0585_eid_dnn_64-3-10_oven_10_n04111531_9910.png,n04111531_9910.png,0.0,-1.3087319,-0.8804368,-0.3028504
alexnet_w1_mlp_simclrhn_probe1,1,586,NaN,oven,bottle,128-3-10,0586_eid_dnn_128-3-10_bottle_10_n03937543_7191.png,n03937543_7191.png,0.0,-3.2228198,-0.6352603,-1.8296809
alexnet_w1_mlp_simclrhn_probe1,1,587,NaN,boat,boat,4-3-10,0587_eid_dnn_4-3-10_boat_10_n03662601_14818.png,n03662601_14818.png,1.0,0.18433213,-1.5360299,1.2164797
alexnet_w1_mlp_simclrhn_probe1,1,588,NaN,bear,boat,128-3-10,0588_eid_dnn_128-3-10_boat_10_n02951358_588.png,n02951358_588.png,0.0,-4.7224727,-1.1611505,-2.5182352
alexnet_w1_mlp_simclrhn_probe1,1,589,NaN,bear,bear,1-3-10,0589_eid_dnn_1-3-10_bear_10_n02133161_2851.png,n02133161_2851.png,1.0,4.4678707,2.0893219,1.6818881
alexnet_w1_mlp_simclrhn_probe1,1,590,NaN,bottle,chair,2-3-10,0590_eid_dnn_2-3-10_chair_10_n03376595_16212.png,n03376595_16212.png,0.0,-2.0787885,0.9865483,-2.1675205
alexnet_w1_mlp_simclrhn_probe1,1,591,NaN,bear,boat,8-3-10,0591_eid_dnn_8-3-10_boat_10_n04612504_1613.png,n04612504_1613.png,0.0,-3.3762527,-0.4360506,-2.0790367
alexnet_w1_mlp_simclrhn_probe1,1,592,NaN,bird,chair,128-3-10,0592_eid_dnn_128-3-10_chair_10_n02791124_3198.png,n02791124_3198.png,0.0,-4.2252493,-1.9216481,-1.6288921
alexnet_w1_mlp_simclrhn_probe1,1,593,NaN,bear,knife,16-3-10,0593_eid_dnn_16-3-10_knife_10_n03041632_32785.png,n03041632_32785.png,0.0,-1.0401748,-0.7698184,-0.19117086
alexnet_w1_mlp_simclrhn_probe1,1,594,NaN,bear,oven,32-3-10,0594_eid_dnn_32-3-10_oven_10_n04111531_22797.png,n04111531_22797.png,0.0,-0.606088,-0.43242905,-0.12279542
alexnet_w1_mlp_simclrhn_probe1,1,595,NaN,oven,oven,128-3-10,0595_eid_dnn_128-3-10_oven_10_n04111531_5077.png,n04111531_5077.png,1.0,-1.3927665,-1.8788538,0.34371564
alexnet_w1_mlp_simclrhn_probe1,1,596,NaN,bear,bear,1-3-10,0596_eid_dnn_1-3-10_bear_10_n02134418_2569.png,n02134418_2569.png,1.0,2.6662183,0.8718606,1.2688025
alexnet_w1_mlp_simclrhn_probe1,1,597,NaN,car,car,1-3-10,0597_eid_dnn_1-3-10_car_10_n03100240_15284.png,n03100240_15284.png,1.0,3.2750866,0.599167,1.8921609
alexnet_w1_mlp_simclrhn_probe1,1,598,NaN,keyboard,keyboard,2-3-10,0598_eid_dnn_2-3-10_keyboard_10_n04505470_4791.png,n04505470_4791.png,1.0,5.02243,0.014207284,3.5413482
alexnet_w1_mlp_simclrhn_probe1,1,599,NaN,bear,bicycle,64-3-10,0599_eid_dnn_64-3-10_bicycle_10_n03792782_551.png,n03792782_551.png,0.0,-4.345213,-1.184027,-2.235296
alexnet_w1_mlp_simclrhn_probe1,1,600,NaN,bottle,bottle,1-3-10,0600_eid_dnn_1-3-10_bottle_10_n03937543_2999.png,n03937543_2999.png,1.0,-0.054476228,-0.7971387,0.5251417
alexnet_w1_mlp_simclrhn_probe1,1,601,NaN,bear,airplane,16-3-10,0601_eid_dnn_16-3-10_airplane_10_n02690373_7279.png,n02690373_7279.png,0.0,-2.5512822,-0.62806123,-1.3599225
alexnet_w1_mlp_simclrhn_probe1,1,602,NaN,oven,airplane,128-3-10,0602_eid_dnn_128-3-10_airplane_10_n02690373_9312.png,n02690373_9312.png,0.0,-7.8679914,-1.0855641,-4.7959003
alexnet_w1_mlp_simclrhn_probe1,1,603,NaN,oven,chair,8-3-10,0603_eid_dnn_8-3-10_chair_10_n04429376_2591.png,n04429376_2591.png,0.0,-5.2101746,1.0160139,-4.4025803
