subj,session,trial,rt,object_response,category,condition,imagename,filename,is_correct,targ_act,max_nontarg_act,decision_margin
alexnet_w3_mlp_simclrhn_probe3,1,1,NaN,oven,car,64-3-10,0001_eid_dnn_64-3-10_car_10_n04285008_8113.png,n04285008_8113.png,0.0,-0.42796966,0.8156114,-0.87934464
alexnet_w3_mlp_simclrhn_probe3,1,2,NaN,oven,oven,8-3-10,0002_eid_dnn_8-3-10_oven_10_n04111531_11848.png,n04111531_11848.png,1.0,1.5030348,0.7003484,0.56758505
alexnet_w3_mlp_simclrhn_probe3,1,3,NaN,oven,truck,8-3-10,0003_eid_dnn_8-3-10_truck_10_n03417042_25458.png,n03417042_25458.png,0.0,-0.5810858,0.51116616,-0.7723388
alexnet_w3_mlp_simclrhn_probe3,1,4,NaN,bear,chair,16-3-10,0004_eid_dnn_16-3-10_chair_10_n03376595_6208.png,n03376595_6208.png,0.0,-0.18696624,0.50881267,-0.49199
alexnet_w3_mlp_simclrhn_probe3,1,5,NaN,oven,cat,32-3-10,0005_eid_dnn_32-3-10_cat_10_n02123045_12084.png,n02123045_12084.png,0.0,0.13297321,0.62053585,-0.34475887
alexnet_w3_mlp_simclrhn_probe3,1,6,NaN,keyboard,keyboard,8-3-10,0006_eid_dnn_8-3-10_keyboard_10_n03085013_20884.png,n03085013_20884.png,1.0,0.9519455,0.533177,0.29611403
alexnet_w3_mlp_simclrhn_probe3,1,7,NaN,airplane,airplane,4-3-10,0007_eid_dnn_4-3-10_airplane_10_n02690373_5992.png,n02690373_5992.png,1.0,1.8730602,0.90803134,0.6823785
alexnet_w3_mlp_simclrhn_probe3,1,8,NaN,oven,bear,32-3-10,0008_eid_dnn_32-3-10_bear_10_n02132136_6641.png,n02132136_6641.png,0.0,0.5658636,0.61258495,-0.033036977
alexnet_w3_mlp_simclrhn_probe3,1,9,NaN,oven,oven,2-3-10,0009_eid_dnn_2-3-10_oven_10_n04111531_2797.png,n04111531_2797.png,1.0,1.4506476,0.2387869,0.8569149
alexnet_w3_mlp_simclrhn_probe3,1,10,NaN,airplane,airplane,2-3-10,0010_eid_dnn_2-3-10_airplane_10_n02690373_7457.png,n02690373_7457.png,1.0,8.921046,1.7799736,5.049501
alexnet_w3_mlp_simclrhn_probe3,1,11,NaN,bear,truck,16-3-10,0011_eid_dnn_16-3-10_truck_10_n03796401_2751.png,n03796401_2751.png,0.0,-0.31234726,0.730252,-0.73722905
alexnet_w3_mlp_simclrhn_probe3,1,12,NaN,elephant,bear,2-3-10,0012_eid_dnn_2-3-10_bear_10_n02134418_860.png,n02134418_860.png,0.0,1.2196712,1.2499628,-0.021419367
alexnet_w3_mlp_simclrhn_probe3,1,13,NaN,knife,knife,4-3-10,0013_eid_dnn_4-3-10_knife_10_n03041632_2058.png,n03041632_2058.png,1.0,1.2253152,0.7342589,0.34722927
alexnet_w3_mlp_simclrhn_probe3,1,14,NaN,oven,airplane,32-3-10,0014_eid_dnn_32-3-10_airplane_10_n02690373_10510.png,n02690373_10510.png,0.0,0.11588817,0.9231167,-0.5707968
alexnet_w3_mlp_simclrhn_probe3,1,15,NaN,bear,keyboard,64-3-10,0015_eid_dnn_64-3-10_keyboard_10_n03085013_6313.png,n03085013_6313.png,0.0,0.03530615,0.59665227,-0.39693165
alexnet_w3_mlp_simclrhn_probe3,1,16,NaN,knife,bicycle,4-3-10,0016_eid_dnn_4-3-10_bicycle_10_n02835271_6278.png,n02835271_6278.png,0.0,-0.3859331,0.55216515,-0.6633356
alexnet_w3_mlp_simclrhn_probe3,1,17,NaN,keyboard,keyboard,2-3-10,0017_eid_dnn_2-3-10_keyboard_10_n03085013_24192.png,n03085013_24192.png,1.0,6.620753,1.0710169,3.924256
alexnet_w3_mlp_simclrhn_probe3,1,18,NaN,car,car,2-3-10,0018_eid_dnn_2-3-10_car_10_n04285008_8255.png,n04285008_8255.png,1.0,5.2763085,4.5620346,0.50506794
alexnet_w3_mlp_simclrhn_probe3,1,19,NaN,airplane,airplane,2-3-10,0019_eid_dnn_2-3-10_airplane_10_n02690373_4591.png,n02690373_4591.png,1.0,0.9321557,0.40359563,0.37374845
alexnet_w3_mlp_simclrhn_probe3,1,20,NaN,boat,airplane,4-3-10,0020_eid_dnn_4-3-10_airplane_10_n02690373_7075.png,n02690373_7075.png,0.0,0.697932,0.76716983,-0.04895854
alexnet_w3_mlp_simclrhn_probe3,1,21,NaN,cat,bicycle,4-3-10,0021_eid_dnn_4-3-10_bicycle_10_n02835271_21464.png,n02835271_21464.png,0.0,0.20119509,0.24510546,-0.03104932
alexnet_w3_mlp_simclrhn_probe3,1,22,NaN,oven,car,64-3-10,0022_eid_dnn_64-3-10_car_10_n03100240_362.png,n03100240_362.png,0.0,-0.36533487,1.1137886,-1.0458982
alexnet_w3_mlp_simclrhn_probe3,1,23,NaN,oven,truck,32-3-10,0023_eid_dnn_32-3-10_truck_10_n04467665_50927.png,n04467665_50927.png,0.0,-0.32215464,0.6013925,-0.6530465
alexnet_w3_mlp_simclrhn_probe3,1,24,NaN,oven,car,16-3-10,0024_eid_dnn_16-3-10_car_10_n04285008_3651.png,n04285008_3651.png,0.0,-0.33484936,0.8761075,-0.8562758
alexnet_w3_mlp_simclrhn_probe3,1,25,NaN,bottle,bottle,8-3-10,0025_eid_dnn_8-3-10_bottle_10_n04557648_4974.png,n04557648_4974.png,1.0,0.95850503,0.75128055,0.14652984
alexnet_w3_mlp_simclrhn_probe3,1,26,NaN,bear,bird,16-3-10,0026_eid_dnn_16-3-10_bird_10_n01537544_23499.png,n01537544_23499.png,0.0,-0.027748084,0.40390572,-0.30522534
alexnet_w3_mlp_simclrhn_probe3,1,27,NaN,boat,boat,1-3-10,0027_eid_dnn_1-3-10_boat_10_n04612504_11387.png,n04612504_11387.png,1.0,5.324369,1.0683796,3.0094388
alexnet_w3_mlp_simclrhn_probe3,1,28,NaN,bottle,bottle,4-3-10,0028_eid_dnn_4-3-10_bottle_10_n03983396_4300.png,n03983396_4300.png,1.0,1.412816,0.58671725,0.58414006
alexnet_w3_mlp_simclrhn_probe3,1,29,NaN,oven,bottle,64-3-10,0029_eid_dnn_64-3-10_bottle_10_n04591713_6961.png,n04591713_6961.png,0.0,0.08545152,0.5030455,-0.29528356
alexnet_w3_mlp_simclrhn_probe3,1,30,NaN,keyboard,clock,128-3-10,0030_eid_dnn_128-3-10_clock_10_n02708093_3361.png,n02708093_3361.png,0.0,-0.037056964,0.2896437,-0.23101225
alexnet_w3_mlp_simclrhn_probe3,1,31,NaN,oven,truck,32-3-10,0031_eid_dnn_32-3-10_truck_10_n03417042_18374.png,n03417042_18374.png,0.0,-0.26627094,1.1776438,-1.0210018
alexnet_w3_mlp_simclrhn_probe3,1,32,NaN,oven,knife,64-3-10,0032_eid_dnn_64-3-10_knife_10_n03041632_36280.png,n03041632_36280.png,0.0,0.12718445,0.63766795,-0.36096635
alexnet_w3_mlp_simclrhn_probe3,1,33,NaN,cat,bird,8-3-10,0033_eid_dnn_8-3-10_bird_10_n01614925_47.png,n01614925_47.png,0.0,0.15591674,0.7426572,-0.41488814
alexnet_w3_mlp_simclrhn_probe3,1,34,NaN,oven,bicycle,8-3-10,0034_eid_dnn_8-3-10_bicycle_10_n02835271_20099.png,n02835271_20099.png,0.0,-0.14784053,0.76043427,-0.64224726
alexnet_w3_mlp_simclrhn_probe3,1,35,NaN,bear,bear,4-3-10,0035_eid_dnn_4-3-10_bear_10_n02134084_12070.png,n02134084_12070.png,1.0,1.0390472,0.6602042,0.2678825
alexnet_w3_mlp_simclrhn_probe3,1,36,NaN,oven,bottle,8-3-10,0036_eid_dnn_8-3-10_bottle_10_n02823428_8525.png,n02823428_8525.png,0.0,0.33826795,1.1803344,-0.59543097
alexnet_w3_mlp_simclrhn_probe3,1,37,NaN,oven,truck,32-3-10,0037_eid_dnn_32-3-10_truck_10_n04467665_37953.png,n04467665_37953.png,0.0,-0.3049134,1.2249949,-1.0818086
alexnet_w3_mlp_simclrhn_probe3,1,38,NaN,oven,oven,128-3-10,0038_eid_dnn_128-3-10_oven_10_n04111531_4868.png,n04111531_4868.png,1.0,0.4049074,0.14442922,0.1841859
alexnet_w3_mlp_simclrhn_probe3,1,39,NaN,oven,boat,32-3-10,0039_eid_dnn_32-3-10_boat_10_n03662601_19840.png,n03662601_19840.png,0.0,0.099036306,0.41774908,-0.22536397
alexnet_w3_mlp_simclrhn_probe3,1,40,NaN,oven,truck,8-3-10,0040_eid_dnn_8-3-10_truck_10_n04467665_9331.png,n04467665_9331.png,0.0,-0.31400853,0.6709294,-0.6964563
alexnet_w3_mlp_simclrhn_probe3,1,41,NaN,oven,dog,64-3-10,0041_eid_dnn_64-3-10_dog_10_n02111277_16090.png,n02111277_16090.png,0.0,-0.11116243,0.75086874,-0.6095481
alexnet_w3_mlp_simclrhn_probe3,1,42,NaN,oven,bottle,4-3-10,0042_eid_dnn_4-3-10_bottle_10_n02823428_6731.png,n02823428_6731.png,0.0,1.4496454,2.6919405,-0.8784353
alexnet_w3_mlp_simclrhn_probe3,1,43,NaN,elephant,elephant,8-3-10,0043_eid_dnn_8-3-10_elephant_10_n02504013_8930.png,n02504013_8930.png,1.0,2.1560767,2.0100284,0.10327175
alexnet_w3_mlp_simclrhn_probe3,1,44,NaN,car,car,4-3-10,0044_eid_dnn_4-3-10_car_10_n03100240_13673.png,n03100240_13673.png,1.0,2.0646665,0.61938465,1.0219686
alexnet_w3_mlp_simclrhn_probe3,1,45,NaN,knife,bird,128-3-10,0045_eid_dnn_128-3-10_bird_10_n02018207_6819.png,n02018207_6819.png,0.0,-0.07085119,0.12244543,-0.13668135
alexnet_w3_mlp_simclrhn_probe3,1,46,NaN,elephant,elephant,4-3-10,0046_eid_dnn_4-3-10_elephant_10_n02504013_6065.png,n02504013_6065.png,1.0,2.7619157,1.2213712,1.0893295
alexnet_w3_mlp_simclrhn_probe3,1,47,NaN,cat,cat,1-3-10,0047_eid_dnn_1-3-10_cat_10_n02123394_384.png,n02123394_384.png,1.0,2.1996794,1.91401,0.20199873
alexnet_w3_mlp_simclrhn_probe3,1,48,NaN,bear,bicycle,16-3-10,0048_eid_dnn_16-3-10_bicycle_10_n02835271_12608.png,n02835271_12608.png,0.0,0.0039159358,1.1878718,-0.83718324
alexnet_w3_mlp_simclrhn_probe3,1,49,NaN,knife,chair,2-3-10,0049_eid_dnn_2-3-10_chair_10_n03376595_13949.png,n03376595_13949.png,0.0,0.006522998,0.4148593,-0.28873736
alexnet_w3_mlp_simclrhn_probe3,1,50,NaN,oven,airplane,128-3-10,0050_eid_dnn_128-3-10_airplane_10_n02690373_3561.png,n02690373_3561.png,0.0,-0.17630336,0.5210242,-0.4930851
alexnet_w3_mlp_simclrhn_probe3,1,51,NaN,oven,bicycle,32-3-10,0051_eid_dnn_32-3-10_bicycle_10_n02835271_8203.png,n02835271_8203.png,0.0,-0.009341791,0.73206156,-0.52425134
alexnet_w3_mlp_simclrhn_probe3,1,52,NaN,bicycle,bicycle,2-3-10,0052_eid_dnn_2-3-10_bicycle_10_n03792782_5665.png,n03792782_5665.png,1.0,7.094469,1.3537843,4.059277
alexnet_w3_mlp_simclrhn_probe3,1,53,NaN,oven,bicycle,128-3-10,0053_eid_dnn_128-3-10_bicycle_10_n02835271_15028.png,n02835271_15028.png,0.0,-0.08303605,0.18546495,-0.18985887
alexnet_w3_mlp_simclrhn_probe3,1,54,NaN,clock,clock,1-3-10,0054_eid_dnn_1-3-10_clock_10_n04548280_3318.png,n04548280_3318.png,1.0,2.7313538,0.31567442,1.7081434
alexnet_w3_mlp_simclrhn_probe3,1,55,NaN,elephant,cat,128-3-10,0055_eid_dnn_128-3-10_cat_10_n02123045_8784.png,n02123045_8784.png,0.0,-0.09785726,0.15290272,-0.17731409
alexnet_w3_mlp_simclrhn_probe3,1,56,NaN,oven,knife,128-3-10,0056_eid_dnn_128-3-10_knife_10_n03041632_3247.png,n03041632_3247.png,0.0,0.028196402,0.31844005,-0.20523326
alexnet_w3_mlp_simclrhn_probe3,1,57,NaN,cat,dog,8-3-10,0057_eid_dnn_8-3-10_dog_10_n02110185_11414.png,n02110185_11414.png,0.0,0.49540272,1.9952375,-1.0605434
alexnet_w3_mlp_simclrhn_probe3,1,58,NaN,bear,dog,32-3-10,0058_eid_dnn_32-3-10_dog_10_n02113712_2715.png,n02113712_2715.png,0.0,0.005779855,0.63811326,-0.44712725
alexnet_w3_mlp_simclrhn_probe3,1,59,NaN,bird,elephant,2-3-10,0059_eid_dnn_2-3-10_elephant_10_n02504458_1210.png,n02504458_1210.png,0.0,-0.48634106,0.79789966,-0.90809536
alexnet_w3_mlp_simclrhn_probe3,1,60,NaN,bear,car,16-3-10,0060_eid_dnn_16-3-10_car_10_n02814533_32337.png,n02814533_32337.png,0.0,-0.7133333,1.4561735,-1.534073
alexnet_w3_mlp_simclrhn_probe3,1,61,NaN,car,car,4-3-10,0061_eid_dnn_4-3-10_car_10_n02814533_55326.png,n02814533_55326.png,1.0,1.4234539,0.88661265,0.3796041
alexnet_w3_mlp_simclrhn_probe3,1,62,NaN,oven,knife,64-3-10,0062_eid_dnn_64-3-10_knife_10_n03041632_32774.png,n03041632_32774.png,0.0,0.07867905,0.6472229,-0.40202123
alexnet_w3_mlp_simclrhn_probe3,1,63,NaN,bear,bicycle,8-3-10,0063_eid_dnn_8-3-10_bicycle_10_n02835271_11921.png,n02835271_11921.png,0.0,-0.33685696,1.9133419,-1.5911309
alexnet_w3_mlp_simclrhn_probe3,1,64,NaN,oven,chair,32-3-10,0064_eid_dnn_32-3-10_chair_10_n03376595_6115.png,n03376595_6115.png,0.0,-0.032832682,0.81282306,-0.59796894
alexnet_w3_mlp_simclrhn_probe3,1,65,NaN,bear,bear,16-3-10,0065_eid_dnn_16-3-10_bear_10_n02133161_79.png,n02133161_79.png,1.0,0.41864595,0.1757712,0.17173839
alexnet_w3_mlp_simclrhn_probe3,1,66,NaN,boat,boat,1-3-10,0066_eid_dnn_1-3-10_boat_10_n03662601_34796.png,n03662601_34796.png,1.0,5.7649307,0.6182643,3.639243
alexnet_w3_mlp_simclrhn_probe3,1,67,NaN,bird,bird,4-3-10,0067_eid_dnn_4-3-10_bird_10_n02051845_8976.png,n02051845_8976.png,1.0,2.4624891,1.1803995,0.90657425
alexnet_w3_mlp_simclrhn_probe3,1,68,NaN,elephant,boat,4-3-10,0068_eid_dnn_4-3-10_boat_10_n03344393_7362.png,n03344393_7362.png,0.0,0.57441324,0.85748386,-0.20016116
alexnet_w3_mlp_simclrhn_probe3,1,69,NaN,oven,car,32-3-10,0069_eid_dnn_32-3-10_car_10_n02814533_34289.png,n02814533_34289.png,0.0,-0.3409947,0.5681049,-0.6428305
alexnet_w3_mlp_simclrhn_probe3,1,70,NaN,bear,keyboard,16-3-10,0070_eid_dnn_16-3-10_keyboard_10_n03085013_2166.png,n03085013_2166.png,0.0,-0.14331025,1.0861903,-0.86938816
alexnet_w3_mlp_simclrhn_probe3,1,71,NaN,bear,bear,2-3-10,0071_eid_dnn_2-3-10_bear_10_n02133161_10167.png,n02133161_10167.png,1.0,4.911045,3.6920912,0.86193055
alexnet_w3_mlp_simclrhn_probe3,1,72,NaN,oven,keyboard,16-3-10,0072_eid_dnn_16-3-10_keyboard_10_n04505470_430.png,n04505470_430.png,0.0,-0.072877176,0.32478774,-0.28119156
alexnet_w3_mlp_simclrhn_probe3,1,73,NaN,keyboard,boat,128-3-10,0073_eid_dnn_128-3-10_boat_10_n03662601_17001.png,n03662601_17001.png,0.0,-0.21554586,0.47303182,-0.48689795
alexnet_w3_mlp_simclrhn_probe3,1,74,NaN,keyboard,bear,128-3-10,0074_eid_dnn_128-3-10_bear_10_n02133161_5157.png,n02133161_5157.png,0.0,-0.04124467,0.21154113,-0.17874655
alexnet_w3_mlp_simclrhn_probe3,1,75,NaN,bear,boat,2-3-10,0075_eid_dnn_2-3-10_boat_10_n02951358_17870.png,n02951358_17870.png,0.0,0.44234505,1.0115108,-0.40246102
alexnet_w3_mlp_simclrhn_probe3,1,76,NaN,oven,cat,64-3-10,0076_eid_dnn_64-3-10_cat_10_n02123159_1102.png,n02123159_1102.png,0.0,-0.18708031,0.25165606,-0.31023347
alexnet_w3_mlp_simclrhn_probe3,1,77,NaN,oven,cat,32-3-10,0077_eid_dnn_32-3-10_cat_10_n02123045_4252.png,n02123045_4252.png,0.0,0.009116419,0.49917,-0.34652022
alexnet_w3_mlp_simclrhn_probe3,1,78,NaN,keyboard,keyboard,2-3-10,0078_eid_dnn_2-3-10_keyboard_10_n04505470_4294.png,n04505470_4294.png,1.0,3.5023468,1.0140404,1.7594985
alexnet_w3_mlp_simclrhn_probe3,1,79,NaN,truck,truck,2-3-10,0079_eid_dnn_2-3-10_truck_10_n04467665_1101.png,n04467665_1101.png,1.0,4.8383694,2.3247912,1.7773682
alexnet_w3_mlp_simclrhn_probe3,1,80,NaN,oven,airplane,64-3-10,0080_eid_dnn_64-3-10_airplane_10_n02690373_2078.png,n02690373_2078.png,0.0,-0.09744882,0.5379152,-0.44927025
alexnet_w3_mlp_simclrhn_probe3,1,81,NaN,oven,boat,64-3-10,0081_eid_dnn_64-3-10_boat_10_n04612504_5535.png,n04612504_5535.png,0.0,-0.07941339,0.7473271,-0.58459383
alexnet_w3_mlp_simclrhn_probe3,1,82,NaN,bear,cat,16-3-10,0082_eid_dnn_16-3-10_cat_10_n02125311_15099.png,n02125311_15099.png,0.0,0.3293688,1.0600692,-0.5166832
alexnet_w3_mlp_simclrhn_probe3,1,83,NaN,oven,airplane,64-3-10,0083_eid_dnn_64-3-10_airplane_10_n02690373_4671.png,n02690373_4671.png,0.0,-0.06849044,0.6860017,-0.5335065
alexnet_w3_mlp_simclrhn_probe3,1,84,NaN,truck,truck,1-3-10,0084_eid_dnn_1-3-10_truck_10_n03417042_9062.png,n03417042_9062.png,1.0,2.5119638,1.2921952,0.8625067
alexnet_w3_mlp_simclrhn_probe3,1,85,NaN,cat,cat,4-3-10,0085_eid_dnn_4-3-10_cat_10_n02123394_283.png,n02123394_283.png,1.0,1.3940319,0.72979486,0.4696865
alexnet_w3_mlp_simclrhn_probe3,1,86,NaN,car,car,1-3-10,0086_eid_dnn_1-3-10_car_10_n02814533_3375.png,n02814533_3375.png,1.0,7.498825,4.679946,1.9932486
alexnet_w3_mlp_simclrhn_probe3,1,87,NaN,cat,cat,2-3-10,0087_eid_dnn_2-3-10_cat_10_n02124075_9706.png,n02124075_9706.png,1.0,2.5695987,0.51834565,1.450455
alexnet_w3_mlp_simclrhn_probe3,1,88,NaN,car,car,2-3-10,0088_eid_dnn_2-3-10_car_10_n04285008_10563.png,n04285008_10563.png,1.0,4.924406,3.2293468,1.1985879
alexnet_w3_mlp_simclrhn_probe3,1,89,NaN,oven,clock,64-3-10,0089_eid_dnn_64-3-10_clock_10_n03196217_3283.png,n03196217_3283.png,0.0,0.010750773,0.7700407,-0.5368991
alexnet_w3_mlp_simclrhn_probe3,1,90,NaN,oven,oven,128-3-10,0090_eid_dnn_128-3-10_oven_10_n04111531_21120.png,n04111531_21120.png,1.0,0.25269222,0.050771464,0.14277954
alexnet_w3_mlp_simclrhn_probe3,1,91,NaN,bird,bird,1-3-10,0091_eid_dnn_1-3-10_bird_10_n01824575_6186.png,n01824575_6186.png,1.0,2.2306654,0.30239192,1.3634953
alexnet_w3_mlp_simclrhn_probe3,1,92,NaN,dog,dog,4-3-10,0092_eid_dnn_4-3-10_dog_10_n02102318_11155.png,n02102318_11155.png,1.0,1.2780354,0.99048835,0.20332648
alexnet_w3_mlp_simclrhn_probe3,1,93,NaN,bear,clock,16-3-10,0093_eid_dnn_16-3-10_clock_10_n04548280_2283.png,n04548280_2283.png,0.0,0.03553565,1.129901,-0.77383316
alexnet_w3_mlp_simclrhn_probe3,1,94,NaN,oven,chair,128-3-10,0094_eid_dnn_128-3-10_chair_10_n03376595_18787.png,n03376595_18787.png,0.0,-0.02650968,0.60499036,-0.44653797
alexnet_w3_mlp_simclrhn_probe3,1,95,NaN,oven,keyboard,8-3-10,0095_eid_dnn_8-3-10_keyboard_10_n04505470_1903.png,n04505470_1903.png,0.0,0.24644145,1.175269,-0.65678024
alexnet_w3_mlp_simclrhn_probe3,1,96,NaN,oven,clock,16-3-10,0096_eid_dnn_16-3-10_clock_10_n03196217_6185.png,n03196217_6185.png,0.0,0.074224964,1.5522189,-1.0450996
alexnet_w3_mlp_simclrhn_probe3,1,97,NaN,clock,clock,2-3-10,0097_eid_dnn_2-3-10_clock_10_n03196217_10424.png,n03196217_10424.png,1.0,1.7251482,1.5614662,0.11574064
alexnet_w3_mlp_simclrhn_probe3,1,98,NaN,knife,knife,2-3-10,0098_eid_dnn_2-3-10_knife_10_n03041632_43436.png,n03041632_43436.png,1.0,1.3947251,0.7749435,0.4382518
alexnet_w3_mlp_simclrhn_probe3,1,99,NaN,dog,dog,1-3-10,0099_eid_dnn_1-3-10_dog_10_n02093647_5955.png,n02093647_5955.png,1.0,1.2799482,0.06907888,0.8562139
alexnet_w3_mlp_simclrhn_probe3,1,100,NaN,oven,boat,32-3-10,0100_eid_dnn_32-3-10_boat_10_n03662601_5423.png,n03662601_5423.png,0.0,-0.010282075,0.6381155,-0.45848638
alexnet_w3_mlp_simclrhn_probe3,1,101,NaN,oven,keyboard,128-3-10,0101_eid_dnn_128-3-10_keyboard_10_n04505470_9457.png,n04505470_9457.png,0.0,0.13680407,0.5330469,-0.280186
alexnet_w3_mlp_simclrhn_probe3,1,102,NaN,oven,knife,128-3-10,0102_eid_dnn_128-3-10_knife_10_n03041632_38535.png,n03041632_38535.png,0.0,0.03213837,0.36529276,-0.23557572
alexnet_w3_mlp_simclrhn_probe3,1,103,NaN,bear,elephant,8-3-10,0103_eid_dnn_8-3-10_elephant_10_n02504458_8141.png,n02504458_8141.png,0.0,0.70034593,1.0794963,-0.26809978
alexnet_w3_mlp_simclrhn_probe3,1,104,NaN,airplane,airplane,4-3-10,0104_eid_dnn_4-3-10_airplane_10_n02690373_9086.png,n02690373_9086.png,1.0,1.7738454,0.32000542,1.0280201
alexnet_w3_mlp_simclrhn_probe3,1,105,NaN,bear,bicycle,16-3-10,0105_eid_dnn_16-3-10_bicycle_10_n03792782_19116.png,n03792782_19116.png,0.0,0.17221701,0.29854774,-0.08932932
alexnet_w3_mlp_simclrhn_probe3,1,106,NaN,elephant,elephant,4-3-10,0106_eid_dnn_4-3-10_elephant_10_n02504458_2343.png,n02504458_2343.png,1.0,5.043672,1.9236324,2.2062013
alexnet_w3_mlp_simclrhn_probe3,1,107,NaN,oven,airplane,16-3-10,0107_eid_dnn_16-3-10_airplane_10_n02690373_7093.png,n02690373_7093.png,0.0,0.116827294,0.7859006,-0.47310627
alexnet_w3_mlp_simclrhn_probe3,1,108,NaN,oven,car,32-3-10,0108_eid_dnn_32-3-10_car_10_n03100240_7935.png,n03100240_7935.png,0.0,-0.36788437,0.8443978,-0.85721296
alexnet_w3_mlp_simclrhn_probe3,1,109,NaN,bear,airplane,16-3-10,0109_eid_dnn_16-3-10_airplane_10_n02690373_8611.png,n02690373_8611.png,0.0,-0.33797824,0.63707733,-0.68946844
alexnet_w3_mlp_simclrhn_probe3,1,110,NaN,bear,bear,2-3-10,0110_eid_dnn_2-3-10_bear_10_n02133161_7332.png,n02133161_7332.png,1.0,5.3691688,2.273891,2.1886919
alexnet_w3_mlp_simclrhn_probe3,1,111,NaN,car,car,2-3-10,0111_eid_dnn_2-3-10_car_10_n03100240_9387.png,n03100240_9387.png,1.0,6.2749553,3.8624308,1.7059125
alexnet_w3_mlp_simclrhn_probe3,1,112,NaN,cat,cat,4-3-10,0112_eid_dnn_4-3-10_cat_10_n02124075_521.png,n02124075_521.png,1.0,1.0835639,0.711595,0.26302177
alexnet_w3_mlp_simclrhn_probe3,1,113,NaN,oven,bottle,128-3-10,0113_eid_dnn_128-3-10_bottle_10_n04560804_3746.png,n04560804_3746.png,0.0,0.06153327,0.5127349,-0.31904772
alexnet_w3_mlp_simclrhn_probe3,1,114,NaN,bear,elephant,16-3-10,0114_eid_dnn_16-3-10_elephant_10_n02504458_1127.png,n02504458_1127.png,0.0,0.94247174,1.2160918,-0.19347857
alexnet_w3_mlp_simclrhn_probe3,1,115,NaN,knife,knife,8-3-10,0115_eid_dnn_8-3-10_knife_10_n03041632_14132.png,n03041632_14132.png,1.0,0.34719574,0.27962518,0.04777961
alexnet_w3_mlp_simclrhn_probe3,1,116,NaN,oven,oven,1-3-10,0116_eid_dnn_1-3-10_oven_10_n04111531_18916.png,n04111531_18916.png,1.0,1.6454124,0.4747311,0.82779676
alexnet_w3_mlp_simclrhn_probe3,1,117,NaN,oven,oven,1-3-10,0117_eid_dnn_1-3-10_oven_10_n04111531_19274.png,n04111531_19274.png,1.0,1.1147811,0.6817617,0.306191
alexnet_w3_mlp_simclrhn_probe3,1,118,NaN,bird,bird,2-3-10,0118_eid_dnn_2-3-10_bird_10_n01843383_277.png,n01843383_277.png,1.0,1.0025284,0.13809651,0.6112457
alexnet_w3_mlp_simclrhn_probe3,1,119,NaN,oven,boat,64-3-10,0119_eid_dnn_64-3-10_boat_10_n03344393_6799.png,n03344393_6799.png,0.0,0.09937306,0.6892431,-0.41710111
alexnet_w3_mlp_simclrhn_probe3,1,120,NaN,dog,dog,2-3-10,0120_eid_dnn_2-3-10_dog_10_n02093428_16887.png,n02093428_16887.png,1.0,1.0534974,0.80301476,0.177118
alexnet_w3_mlp_simclrhn_probe3,1,121,NaN,oven,elephant,64-3-10,0121_eid_dnn_64-3-10_elephant_10_n02504458_6163.png,n02504458_6163.png,0.0,0.008473769,0.26502207,-0.18140703
alexnet_w3_mlp_simclrhn_probe3,1,122,NaN,oven,bottle,64-3-10,0122_eid_dnn_64-3-10_bottle_10_n04591713_2826.png,n04591713_2826.png,0.0,0.0763198,0.14649656,-0.04962247
alexnet_w3_mlp_simclrhn_probe3,1,123,NaN,oven,bottle,64-3-10,0123_eid_dnn_64-3-10_bottle_10_n04557648_3598.png,n04557648_3598.png,0.0,0.113608755,0.1866324,-0.05163551
alexnet_w3_mlp_simclrhn_probe3,1,124,NaN,bear,truck,8-3-10,0124_eid_dnn_8-3-10_truck_10_n04467665_80629.png,n04467665_80629.png,0.0,-0.058317624,0.7607554,-0.5791721
alexnet_w3_mlp_simclrhn_probe3,1,125,NaN,bear,bear,4-3-10,0125_eid_dnn_4-3-10_bear_10_n02134084_6869.png,n02134084_6869.png,1.0,1.4979913,1.3073334,0.13481554
alexnet_w3_mlp_simclrhn_probe3,1,126,NaN,bird,bird,1-3-10,0126_eid_dnn_1-3-10_bird_10_n01820546_4457.png,n01820546_4457.png,1.0,1.9235294,1.1171817,0.570174
alexnet_w3_mlp_simclrhn_probe3,1,127,NaN,oven,clock,64-3-10,0127_eid_dnn_64-3-10_clock_10_n04548280_7565.png,n04548280_7565.png,0.0,0.008915826,0.3415299,-0.23519368
alexnet_w3_mlp_simclrhn_probe3,1,128,NaN,bear,elephant,16-3-10,0128_eid_dnn_16-3-10_elephant_10_n02504458_98.png,n02504458_98.png,0.0,0.50921303,0.830449,-0.22714813
alexnet_w3_mlp_simclrhn_probe3,1,129,NaN,oven,bicycle,64-3-10,0129_eid_dnn_64-3-10_bicycle_10_n03792782_7143.png,n03792782_7143.png,0.0,-0.08236679,0.32070917,-0.28501776
alexnet_w3_mlp_simclrhn_probe3,1,130,NaN,bear,dog,16-3-10,0130_eid_dnn_16-3-10_dog_10_n02096051_5524.png,n02096051_5524.png,0.0,0.15734634,0.7314143,-0.40592736
alexnet_w3_mlp_simclrhn_probe3,1,131,NaN,bear,cat,16-3-10,0131_eid_dnn_16-3-10_cat_10_n02123045_9465.png,n02123045_9465.png,0.0,0.8684556,0.929906,-0.04345201
alexnet_w3_mlp_simclrhn_probe3,1,132,NaN,oven,cat,64-3-10,0132_eid_dnn_64-3-10_cat_10_n02123159_9450.png,n02123159_9450.png,0.0,-0.16090724,0.6325573,-0.5610642
alexnet_w3_mlp_simclrhn_probe3,1,133,NaN,oven,clock,4-3-10,0133_eid_dnn_4-3-10_clock_10_n02708093_8204.png,n02708093_8204.png,0.0,0.16515453,0.27018642,-0.074268766
alexnet_w3_mlp_simclrhn_probe3,1,134,NaN,oven,airplane,32-3-10,0134_eid_dnn_32-3-10_airplane_10_n02690373_2619.png,n02690373_2619.png,0.0,-0.02219759,0.44518343,-0.3304883
alexnet_w3_mlp_simclrhn_probe3,1,135,NaN,car,car,2-3-10,0135_eid_dnn_2-3-10_car_10_n04285008_11295.png,n04285008_11295.png,1.0,5.4535317,0.62078375,3.417269
alexnet_w3_mlp_simclrhn_probe3,1,136,NaN,bear,bear,8-3-10,0136_eid_dnn_8-3-10_bear_10_n02133161_15481.png,n02133161_15481.png,1.0,1.3730571,0.48780885,0.6259651
alexnet_w3_mlp_simclrhn_probe3,1,137,NaN,oven,truck,64-3-10,0137_eid_dnn_64-3-10_truck_10_n03417042_8139.png,n03417042_8139.png,0.0,-0.23983495,0.38403386,-0.44114187
alexnet_w3_mlp_simclrhn_probe3,1,138,NaN,oven,bottle,16-3-10,0138_eid_dnn_16-3-10_bottle_10_n04557648_4490.png,n04557648_4490.png,0.0,0.16701928,0.37316194,-0.14576487
alexnet_w3_mlp_simclrhn_probe3,1,139,NaN,bottle,clock,1-3-10,0139_eid_dnn_1-3-10_clock_10_n03196217_5399.png,n03196217_5399.png,0.0,1.1982335,1.3632786,-0.11670454
alexnet_w3_mlp_simclrhn_probe3,1,140,NaN,boat,boat,1-3-10,0140_eid_dnn_1-3-10_boat_10_n04273569_4136.png,n04273569_4136.png,1.0,4.536093,0.6707778,2.7331908
alexnet_w3_mlp_simclrhn_probe3,1,141,NaN,clock,clock,4-3-10,0141_eid_dnn_4-3-10_clock_10_n04548280_2127.png,n04548280_2127.png,1.0,1.7611041,0.68468934,0.7611402
alexnet_w3_mlp_simclrhn_probe3,1,142,NaN,boat,boat,2-3-10,0142_eid_dnn_2-3-10_boat_10_n03344393_10038.png,n03344393_10038.png,1.0,2.1219819,1.6799576,0.31255832
alexnet_w3_mlp_simclrhn_probe3,1,143,NaN,elephant,elephant,2-3-10,0143_eid_dnn_2-3-10_elephant_10_n02504013_10793.png,n02504013_10793.png,1.0,10.973521,3.2428174,5.466433
alexnet_w3_mlp_simclrhn_probe3,1,144,NaN,keyboard,oven,128-3-10,0144_eid_dnn_128-3-10_oven_10_n04111531_6590.png,n04111531_6590.png,0.0,0.33891797,0.5702534,-0.16357884
alexnet_w3_mlp_simclrhn_probe3,1,145,NaN,oven,keyboard,16-3-10,0145_eid_dnn_16-3-10_keyboard_10_n03085013_10984.png,n03085013_10984.png,0.0,-0.21728273,0.43276635,-0.45965412
alexnet_w3_mlp_simclrhn_probe3,1,146,NaN,bicycle,bicycle,2-3-10,0146_eid_dnn_2-3-10_bicycle_10_n02835271_14879.png,n02835271_14879.png,1.0,0.9601663,0.51355356,0.31580287
alexnet_w3_mlp_simclrhn_probe3,1,147,NaN,oven,knife,64-3-10,0147_eid_dnn_64-3-10_knife_10_n03041632_22241.png,n03041632_22241.png,0.0,0.12137384,0.432163,-0.21976113
alexnet_w3_mlp_simclrhn_probe3,1,148,NaN,oven,oven,64-3-10,0148_eid_dnn_64-3-10_oven_10_n04111531_892.png,n04111531_892.png,1.0,0.6755328,0.18609166,0.34608716
alexnet_w3_mlp_simclrhn_probe3,1,149,NaN,oven,bear,64-3-10,0149_eid_dnn_64-3-10_bear_10_n02134418_14850.png,n02134418_14850.png,0.0,0.16037753,0.5033512,-0.24251902
alexnet_w3_mlp_simclrhn_probe3,1,150,NaN,oven,knife,64-3-10,0150_eid_dnn_64-3-10_knife_10_n03041632_48071.png,n03041632_48071.png,0.0,0.016771257,0.3925531,-0.2657179
alexnet_w3_mlp_simclrhn_probe3,1,151,NaN,oven,clock,16-3-10,0151_eid_dnn_16-3-10_clock_10_n04548280_64.png,n04548280_64.png,0.0,-0.09611731,0.49338126,-0.41683844
alexnet_w3_mlp_simclrhn_probe3,1,152,NaN,bottle,truck,64-3-10,0152_eid_dnn_64-3-10_truck_10_n03796401_6285.png,n03796401_6285.png,0.0,-0.3198284,0.038513374,-0.2533859
alexnet_w3_mlp_simclrhn_probe3,1,153,NaN,airplane,airplane,4-3-10,0153_eid_dnn_4-3-10_airplane_10_n02690373_6682.png,n02690373_6682.png,1.0,0.82224995,0.3761322,0.3154529
alexnet_w3_mlp_simclrhn_probe3,1,154,NaN,oven,knife,64-3-10,0154_eid_dnn_64-3-10_knife_10_n03041632_17285.png,n03041632_17285.png,0.0,0.10386449,0.8080405,-0.49792764
alexnet_w3_mlp_simclrhn_probe3,1,155,NaN,boat,boat,2-3-10,0155_eid_dnn_2-3-10_boat_10_n02951358_8184.png,n02951358_8184.png,1.0,2.2139907,2.1467922,0.047516525
alexnet_w3_mlp_simclrhn_probe3,1,156,NaN,bicycle,bear,1-3-10,0156_eid_dnn_1-3-10_bear_10_n02132136_2346.png,n02132136_2346.png,0.0,0.42126632,1.0284756,-0.42936185
alexnet_w3_mlp_simclrhn_probe3,1,157,NaN,bear,bear,8-3-10,0157_eid_dnn_8-3-10_bear_10_n02134418_2187.png,n02134418_2187.png,1.0,2.0193658,0.9856469,0.7309496
alexnet_w3_mlp_simclrhn_probe3,1,158,NaN,oven,cat,32-3-10,0158_eid_dnn_32-3-10_cat_10_n02124075_10162.png,n02124075_10162.png,0.0,-0.015966713,0.3805157,-0.2803554
alexnet_w3_mlp_simclrhn_probe3,1,159,NaN,oven,truck,128-3-10,0159_eid_dnn_128-3-10_truck_10_n03417042_8998.png,n03417042_8998.png,0.0,-0.28626433,0.3164314,-0.42617023
alexnet_w3_mlp_simclrhn_probe3,1,160,NaN,oven,cat,64-3-10,0160_eid_dnn_64-3-10_cat_10_n02123597_13835.png,n02123597_13835.png,0.0,-0.004399883,0.47557604,-0.33939424
alexnet_w3_mlp_simclrhn_probe3,1,161,NaN,clock,clock,1-3-10,0161_eid_dnn_1-3-10_clock_10_n04548280_18914.png,n04548280_18914.png,1.0,4.003034,0.105065234,2.7562802
alexnet_w3_mlp_simclrhn_probe3,1,162,NaN,keyboard,keyboard,2-3-10,0162_eid_dnn_2-3-10_keyboard_10_n03085013_2676.png,n03085013_2676.png,1.0,3.1374946,0.5765333,1.8108732
alexnet_w3_mlp_simclrhn_probe3,1,163,NaN,bear,airplane,16-3-10,0163_eid_dnn_16-3-10_airplane_10_n02690373_7600.png,n02690373_7600.png,0.0,-0.41143858,0.9063697,-0.9318312
alexnet_w3_mlp_simclrhn_probe3,1,164,NaN,bear,chair,16-3-10,0164_eid_dnn_16-3-10_chair_10_n04429376_17917.png,n04429376_17917.png,0.0,-0.1604058,0.5930209,-0.53275317
alexnet_w3_mlp_simclrhn_probe3,1,165,NaN,keyboard,keyboard,4-3-10,0165_eid_dnn_4-3-10_keyboard_10_n04505470_4492.png,n04505470_4492.png,1.0,1.9170994,1.2429659,0.47668433
alexnet_w3_mlp_simclrhn_probe3,1,166,NaN,bear,bear,1-3-10,0166_eid_dnn_1-3-10_bear_10_n02134418_3148.png,n02134418_3148.png,1.0,2.080168,1.4190894,0.46745315
alexnet_w3_mlp_simclrhn_probe3,1,167,NaN,elephant,cat,4-3-10,0167_eid_dnn_4-3-10_cat_10_n02125311_20388.png,n02125311_20388.png,0.0,0.57249516,1.3616722,-0.5580324
alexnet_w3_mlp_simclrhn_probe3,1,168,NaN,oven,cat,64-3-10,0168_eid_dnn_64-3-10_cat_10_n02123394_2153.png,n02123394_2153.png,0.0,-0.113267206,0.4058602,-0.36707848
alexnet_w3_mlp_simclrhn_probe3,1,169,NaN,oven,clock,1-3-10,0169_eid_dnn_1-3-10_clock_10_n04548280_5327.png,n04548280_5327.png,0.0,0.45230663,1.5827922,-0.799374
alexnet_w3_mlp_simclrhn_probe3,1,170,NaN,cat,bicycle,8-3-10,0170_eid_dnn_8-3-10_bicycle_10_n03792782_63054.png,n03792782_63054.png,0.0,-0.5040687,0.9461008,-1.0254247
alexnet_w3_mlp_simclrhn_probe3,1,171,NaN,oven,chair,32-3-10,0171_eid_dnn_32-3-10_chair_10_n03376595_14138.png,n03376595_14138.png,0.0,-0.047099877,0.6557627,-0.4969989
alexnet_w3_mlp_simclrhn_probe3,1,172,NaN,elephant,elephant,2-3-10,0172_eid_dnn_2-3-10_elephant_10_n02504458_4849.png,n02504458_4849.png,1.0,2.7755678,2.1851287,0.41750348
alexnet_w3_mlp_simclrhn_probe3,1,173,NaN,oven,dog,128-3-10,0173_eid_dnn_128-3-10_dog_10_n02113624_4844.png,n02113624_4844.png,0.0,-0.15910237,0.48092884,-0.4525704
alexnet_w3_mlp_simclrhn_probe3,1,174,NaN,elephant,elephant,2-3-10,0174_eid_dnn_2-3-10_elephant_10_n02504013_2549.png,n02504013_2549.png,1.0,2.590785,1.7172521,0.617681
alexnet_w3_mlp_simclrhn_probe3,1,175,NaN,bear,bear,8-3-10,0175_eid_dnn_8-3-10_bear_10_n02134084_4593.png,n02134084_4593.png,1.0,1.1534998,0.52528125,0.44421762
alexnet_w3_mlp_simclrhn_probe3,1,176,NaN,bottle,bicycle,64-3-10,0176_eid_dnn_64-3-10_bicycle_10_n02835271_75.png,n02835271_75.png,0.0,0.07139825,0.09856736,-0.019211462
alexnet_w3_mlp_simclrhn_probe3,1,177,NaN,oven,truck,4-3-10,0177_eid_dnn_4-3-10_truck_10_n03796401_20943.png,n03796401_20943.png,0.0,1.3285573,1.4408593,-0.079409555
alexnet_w3_mlp_simclrhn_probe3,1,178,NaN,oven,knife,2-3-10,0178_eid_dnn_2-3-10_knife_10_n03041632_32048.png,n03041632_32048.png,0.0,0.62859684,0.8262583,-0.13976777
alexnet_w3_mlp_simclrhn_probe3,1,179,NaN,cat,cat,1-3-10,0179_eid_dnn_1-3-10_cat_10_n02123159_3536.png,n02123159_3536.png,1.0,1.2486149,0.37990564,0.6142702
alexnet_w3_mlp_simclrhn_probe3,1,180,NaN,oven,bicycle,1-3-10,0180_eid_dnn_1-3-10_bicycle_10_n03792782_6716.png,n03792782_6716.png,0.0,0.2960266,0.36830926,-0.051111568
alexnet_w3_mlp_simclrhn_probe3,1,181,NaN,clock,clock,2-3-10,0181_eid_dnn_2-3-10_clock_10_n03196217_1754.png,n03196217_1754.png,1.0,1.9994198,1.6259377,0.26409173
alexnet_w3_mlp_simclrhn_probe3,1,182,NaN,bicycle,bicycle,1-3-10,0182_eid_dnn_1-3-10_bicycle_10_n03792782_5404.png,n03792782_5404.png,1.0,2.8529692,2.332003,0.36837864
alexnet_w3_mlp_simclrhn_probe3,1,183,NaN,bear,dog,64-3-10,0183_eid_dnn_64-3-10_dog_10_n02096294_3014.png,n02096294_3014.png,0.0,-0.05666096,0.32212237,-0.26784027
alexnet_w3_mlp_simclrhn_probe3,1,184,NaN,bear,bear,4-3-10,0184_eid_dnn_4-3-10_bear_10_n02134084_23382.png,n02134084_23382.png,1.0,0.40080494,0.14858893,0.17834365
alexnet_w3_mlp_simclrhn_probe3,1,185,NaN,car,car,4-3-10,0185_eid_dnn_4-3-10_car_10_n03100240_310.png,n03100240_310.png,1.0,1.1169811,1.0638704,0.03755495
alexnet_w3_mlp_simclrhn_probe3,1,186,NaN,cat,dog,4-3-10,0186_eid_dnn_4-3-10_dog_10_n02093256_1653.png,n02093256_1653.png,0.0,0.5686424,0.7229263,-0.10909522
alexnet_w3_mlp_simclrhn_probe3,1,187,NaN,elephant,elephant,4-3-10,0187_eid_dnn_4-3-10_elephant_10_n02504013_1740.png,n02504013_1740.png,1.0,9.23815,3.3474503,4.165354
alexnet_w3_mlp_simclrhn_probe3,1,188,NaN,oven,bear,64-3-10,0188_eid_dnn_64-3-10_bear_10_n02134084_34375.png,n02134084_34375.png,0.0,0.26755735,0.7944987,-0.37260377
alexnet_w3_mlp_simclrhn_probe3,1,189,NaN,bear,keyboard,8-3-10,0189_eid_dnn_8-3-10_keyboard_10_n03085013_23254.png,n03085013_23254.png,0.0,-0.15806328,0.5111171,-0.473182
alexnet_w3_mlp_simclrhn_probe3,1,190,NaN,oven,elephant,32-3-10,0190_eid_dnn_32-3-10_elephant_10_n02504013_1512.png,n02504013_1512.png,0.0,0.15690225,0.91227967,-0.5341325
alexnet_w3_mlp_simclrhn_probe3,1,191,NaN,bear,car,8-3-10,0191_eid_dnn_8-3-10_car_10_n04285008_6454.png,n04285008_6454.png,0.0,-0.65644187,0.8618827,-1.0736177
alexnet_w3_mlp_simclrhn_probe3,1,192,NaN,keyboard,keyboard,4-3-10,0192_eid_dnn_4-3-10_keyboard_10_n04505470_7721.png,n04505470_7721.png,1.0,6.98853,1.6998005,3.7396967
alexnet_w3_mlp_simclrhn_probe3,1,193,NaN,bear,keyboard,16-3-10,0193_eid_dnn_16-3-10_keyboard_10_n04505470_3388.png,n04505470_3388.png,0.0,-0.04314996,0.82986623,-0.61731565
alexnet_w3_mlp_simclrhn_probe3,1,194,NaN,boat,boat,2-3-10,0194_eid_dnn_2-3-10_boat_10_n03344393_4221.png,n03344393_4221.png,1.0,3.2695365,1.0227065,1.5887487
alexnet_w3_mlp_simclrhn_probe3,1,195,NaN,keyboard,cat,128-3-10,0195_eid_dnn_128-3-10_cat_10_n02123597_14361.png,n02123597_14361.png,0.0,-0.2019651,0.37245312,-0.406175
alexnet_w3_mlp_simclrhn_probe3,1,196,NaN,oven,bird,128-3-10,0196_eid_dnn_128-3-10_bird_10_n02006656_10058.png,n02006656_10058.png,0.0,-0.3611662,0.50941086,-0.615591
alexnet_w3_mlp_simclrhn_probe3,1,197,NaN,bear,clock,32-3-10,0197_eid_dnn_32-3-10_clock_10_n02708093_8104.png,n02708093_8104.png,0.0,0.1205542,0.9631963,-0.59583795
alexnet_w3_mlp_simclrhn_probe3,1,198,NaN,bicycle,truck,1-3-10,0198_eid_dnn_1-3-10_truck_10_n03417042_3845.png,n03417042_3845.png,0.0,-0.36537224,3.0139446,-2.3895378
alexnet_w3_mlp_simclrhn_probe3,1,199,NaN,oven,boat,64-3-10,0199_eid_dnn_64-3-10_boat_10_n03662601_36741.png,n03662601_36741.png,0.0,-0.021075845,1.0539725,-0.760174
alexnet_w3_mlp_simclrhn_probe3,1,200,NaN,knife,knife,1-3-10,0200_eid_dnn_1-3-10_knife_10_n03041632_22570.png,n03041632_22570.png,1.0,1.3421255,0.6124448,0.5159622
alexnet_w3_mlp_simclrhn_probe3,1,201,NaN,keyboard,keyboard,1-3-10,0201_eid_dnn_1-3-10_keyboard_10_n04505470_4109.png,n04505470_4109.png,1.0,6.2633886,1.3697054,3.4603567
alexnet_w3_mlp_simclrhn_probe3,1,202,NaN,airplane,airplane,1-3-10,0202_eid_dnn_1-3-10_airplane_10_n02690373_10404.png,n02690373_10404.png,1.0,2.9106338,1.4669087,1.0208678
alexnet_w3_mlp_simclrhn_probe3,1,203,NaN,elephant,elephant,4-3-10,0203_eid_dnn_4-3-10_elephant_10_n02504458_4725.png,n02504458_4725.png,1.0,3.0542746,1.7273186,0.93829954
alexnet_w3_mlp_simclrhn_probe3,1,204,NaN,airplane,airplane,1-3-10,0204_eid_dnn_1-3-10_airplane_10_n02690373_1325.png,n02690373_1325.png,1.0,5.1117067,0.8567834,3.008685
alexnet_w3_mlp_simclrhn_probe3,1,205,NaN,bear,bicycle,8-3-10,0205_eid_dnn_8-3-10_bicycle_10_n03792782_6841.png,n03792782_6841.png,0.0,-0.19947097,1.2457871,-1.0219518
alexnet_w3_mlp_simclrhn_probe3,1,206,NaN,chair,chair,2-3-10,0206_eid_dnn_2-3-10_chair_10_n04099969_1669.png,n04099969_1669.png,1.0,2.3533137,1.0427866,0.9266826
alexnet_w3_mlp_simclrhn_probe3,1,207,NaN,oven,bottle,32-3-10,0207_eid_dnn_32-3-10_bottle_10_n03937543_5324.png,n03937543_5324.png,0.0,0.055920057,0.48863438,-0.30597523
alexnet_w3_mlp_simclrhn_probe3,1,208,NaN,bottle,bottle,4-3-10,0208_eid_dnn_4-3-10_bottle_10_n03937543_2143.png,n03937543_2143.png,1.0,3.667493,0.77923065,2.04231
alexnet_w3_mlp_simclrhn_probe3,1,209,NaN,bottle,bottle,2-3-10,0209_eid_dnn_2-3-10_bottle_10_n04557648_2575.png,n04557648_2575.png,1.0,1.6029377,1.5419496,0.043125078
alexnet_w3_mlp_simclrhn_probe3,1,210,NaN,bottle,knife,8-3-10,0210_eid_dnn_8-3-10_knife_10_n03041632_9671.png,n03041632_9671.png,0.0,0.30455273,0.6927461,-0.27449417
alexnet_w3_mlp_simclrhn_probe3,1,211,NaN,oven,bottle,16-3-10,0211_eid_dnn_16-3-10_bottle_10_n04560804_4145.png,n04560804_4145.png,0.0,0.007017772,0.8644893,-0.60632396
alexnet_w3_mlp_simclrhn_probe3,1,212,NaN,oven,clock,64-3-10,0212_eid_dnn_64-3-10_clock_10_n03196217_1187.png,n03196217_1187.png,0.0,0.12285113,0.6618353,-0.38111937
alexnet_w3_mlp_simclrhn_probe3,1,213,NaN,clock,clock,4-3-10,0213_eid_dnn_4-3-10_clock_10_n04548280_2111.png,n04548280_2111.png,1.0,1.8267889,0.5182884,0.92524964
alexnet_w3_mlp_simclrhn_probe3,1,214,NaN,keyboard,dog,128-3-10,0214_eid_dnn_128-3-10_dog_10_n02086079_6578.png,n02086079_6578.png,0.0,-0.09885765,0.17115349,-0.1909267
alexnet_w3_mlp_simclrhn_probe3,1,215,NaN,bear,car,16-3-10,0215_eid_dnn_16-3-10_car_10_n03100240_14045.png,n03100240_14045.png,0.0,-0.5990546,1.1391046,-1.2290641
alexnet_w3_mlp_simclrhn_probe3,1,216,NaN,bear,boat,8-3-10,0216_eid_dnn_8-3-10_boat_10_n02951358_30908.png,n02951358_30908.png,0.0,-0.38994217,0.84556556,-0.8736359
alexnet_w3_mlp_simclrhn_probe3,1,217,NaN,bear,oven,4-3-10,0217_eid_dnn_4-3-10_oven_10_n04111531_2199.png,n04111531_2199.png,0.0,0.8978672,1.0593255,-0.11416823
alexnet_w3_mlp_simclrhn_probe3,1,218,NaN,bear,elephant,8-3-10,0218_eid_dnn_8-3-10_elephant_10_n02504013_5641.png,n02504013_5641.png,0.0,1.3863935,1.866957,-0.33980966
alexnet_w3_mlp_simclrhn_probe3,1,219,NaN,keyboard,keyboard,2-3-10,0219_eid_dnn_2-3-10_keyboard_10_n03085013_6740.png,n03085013_6740.png,1.0,3.2628922,0.9191619,1.6572677
alexnet_w3_mlp_simclrhn_probe3,1,220,NaN,clock,clock,2-3-10,0220_eid_dnn_2-3-10_clock_10_n04548280_319.png,n04548280_319.png,1.0,4.3044677,0.092030585,2.978643
alexnet_w3_mlp_simclrhn_probe3,1,221,NaN,oven,knife,32-3-10,0221_eid_dnn_32-3-10_knife_10_n03041632_43506.png,n03041632_43506.png,0.0,0.13463928,0.47082767,-0.23772109
alexnet_w3_mlp_simclrhn_probe3,1,222,NaN,bear,boat,16-3-10,0222_eid_dnn_16-3-10_boat_10_n03344393_9712.png,n03344393_9712.png,0.0,0.033188302,0.5454665,-0.3622354
alexnet_w3_mlp_simclrhn_probe3,1,223,NaN,knife,knife,1-3-10,0223_eid_dnn_1-3-10_knife_10_n03041632_9963.png,n03041632_9963.png,1.0,1.5592234,0.4371924,0.7933957
alexnet_w3_mlp_simclrhn_probe3,1,224,NaN,bear,bird,1-3-10,0224_eid_dnn_1-3-10_bird_10_n02002556_18595.png,n02002556_18595.png,0.0,0.3384187,0.419465,-0.0573084
alexnet_w3_mlp_simclrhn_probe3,1,225,NaN,cat,bird,4-3-10,0225_eid_dnn_4-3-10_bird_10_n01860187_20777.png,n01860187_20777.png,0.0,-0.21942374,0.7121784,-0.6587422
alexnet_w3_mlp_simclrhn_probe3,1,226,NaN,oven,keyboard,32-3-10,0226_eid_dnn_32-3-10_keyboard_10_n03085013_24626.png,n03085013_24626.png,0.0,-0.018365309,0.56833804,-0.41486192
alexnet_w3_mlp_simclrhn_probe3,1,227,NaN,oven,oven,16-3-10,0227_eid_dnn_16-3-10_oven_10_n04111531_7097.png,n04111531_7097.png,1.0,0.5794903,0.27372354,0.21620975
alexnet_w3_mlp_simclrhn_probe3,1,228,NaN,bear,chair,16-3-10,0228_eid_dnn_16-3-10_chair_10_n02791124_12486.png,n02791124_12486.png,0.0,-0.057878673,1.1862309,-0.87971836
alexnet_w3_mlp_simclrhn_probe3,1,229,NaN,keyboard,cat,128-3-10,0229_eid_dnn_128-3-10_cat_10_n02123045_6629.png,n02123045_6629.png,0.0,-0.08139193,0.2505141,-0.234693
alexnet_w3_mlp_simclrhn_probe3,1,230,NaN,cat,bird,16-3-10,0230_eid_dnn_16-3-10_bird_10_n01819313_5388.png,n01819313_5388.png,0.0,-0.113208935,0.32626244,-0.3107532
alexnet_w3_mlp_simclrhn_probe3,1,231,NaN,oven,truck,32-3-10,0231_eid_dnn_32-3-10_truck_10_n04467665_4940.png,n04467665_4940.png,0.0,-0.20379283,0.7435534,-0.66987497
alexnet_w3_mlp_simclrhn_probe3,1,232,NaN,bottle,knife,8-3-10,0232_eid_dnn_8-3-10_knife_10_n03041632_20433.png,n03041632_20433.png,0.0,-0.12644783,0.27106923,-0.281087
alexnet_w3_mlp_simclrhn_probe3,1,233,NaN,clock,clock,2-3-10,0233_eid_dnn_2-3-10_clock_10_n04548280_6792.png,n04548280_6792.png,1.0,2.216599,0.18255845,1.4382838
alexnet_w3_mlp_simclrhn_probe3,1,234,NaN,oven,bicycle,4-3-10,0234_eid_dnn_4-3-10_bicycle_10_n02835271_5413.png,n02835271_5413.png,0.0,0.38824257,1.094379,-0.4993138
alexnet_w3_mlp_simclrhn_probe3,1,235,NaN,car,car,2-3-10,0235_eid_dnn_2-3-10_car_10_n04285008_5005.png,n04285008_5005.png,1.0,6.355005,2.9384165,2.4158928
alexnet_w3_mlp_simclrhn_probe3,1,236,NaN,oven,car,2-3-10,0236_eid_dnn_2-3-10_car_10_n02814533_88088.png,n02814533_88088.png,0.0,-0.1865853,1.1678306,-0.9577167
alexnet_w3_mlp_simclrhn_probe3,1,237,NaN,oven,elephant,64-3-10,0237_eid_dnn_64-3-10_elephant_10_n02504458_11345.png,n02504458_11345.png,0.0,0.10218768,0.44442979,-0.24200173
alexnet_w3_mlp_simclrhn_probe3,1,238,NaN,elephant,elephant,16-3-10,0238_eid_dnn_16-3-10_elephant_10_n02504013_1900.png,n02504013_1900.png,1.0,1.143048,1.1196123,0.016571552
alexnet_w3_mlp_simclrhn_probe3,1,239,NaN,bottle,bear,128-3-10,0239_eid_dnn_128-3-10_bear_10_n02133161_5708.png,n02133161_5708.png,0.0,-0.0076843463,0.11705063,-0.08820096
alexnet_w3_mlp_simclrhn_probe3,1,240,NaN,cat,cat,8-3-10,0240_eid_dnn_8-3-10_cat_10_n02124075_5828.png,n02124075_5828.png,1.0,1.4296641,0.35928762,0.7568705
alexnet_w3_mlp_simclrhn_probe3,1,241,NaN,oven,bird,64-3-10,0241_eid_dnn_64-3-10_bird_10_n01582220_9392.png,n01582220_9392.png,0.0,-0.14847358,0.6255673,-0.54732955
alexnet_w3_mlp_simclrhn_probe3,1,242,NaN,clock,clock,1-3-10,0242_eid_dnn_1-3-10_clock_10_n02708093_4597.png,n02708093_4597.png,1.0,6.319465,0.7394965,3.9456336
alexnet_w3_mlp_simclrhn_probe3,1,243,NaN,oven,bicycle,128-3-10,0243_eid_dnn_128-3-10_bicycle_10_n03792782_26306.png,n03792782_26306.png,0.0,-0.16424873,0.115923926,-0.19811198
alexnet_w3_mlp_simclrhn_probe3,1,244,NaN,oven,bear,32-3-10,0244_eid_dnn_32-3-10_bear_10_n02132136_1795.png,n02132136_1795.png,0.0,0.5244559,0.75679976,-0.16429192
alexnet_w3_mlp_simclrhn_probe3,1,245,NaN,bottle,clock,128-3-10,0245_eid_dnn_128-3-10_clock_10_n02708093_3638.png,n02708093_3638.png,0.0,-0.108307086,0.099388875,-0.14686322
alexnet_w3_mlp_simclrhn_probe3,1,246,NaN,keyboard,keyboard,4-3-10,0246_eid_dnn_4-3-10_keyboard_10_n03085013_21272.png,n03085013_21272.png,1.0,1.1134651,0.17397027,0.66432315
alexnet_w3_mlp_simclrhn_probe3,1,247,NaN,bottle,chair,8-3-10,0247_eid_dnn_8-3-10_chair_10_n02791124_16926.png,n02791124_16926.png,0.0,-0.2084384,0.9820938,-0.8418334
alexnet_w3_mlp_simclrhn_probe3,1,248,NaN,cat,knife,8-3-10,0248_eid_dnn_8-3-10_knife_10_n03041632_84048.png,n03041632_84048.png,0.0,0.059727967,0.7000831,-0.45279944
alexnet_w3_mlp_simclrhn_probe3,1,249,NaN,oven,oven,2-3-10,0249_eid_dnn_2-3-10_oven_10_n04111531_550.png,n04111531_550.png,1.0,2.2302089,0.94605005,0.9080374
alexnet_w3_mlp_simclrhn_probe3,1,250,NaN,keyboard,boat,128-3-10,0250_eid_dnn_128-3-10_boat_10_n03662601_21992.png,n03662601_21992.png,0.0,-0.16762793,0.31904393,-0.344129
alexnet_w3_mlp_simclrhn_probe3,1,251,NaN,bear,bear,32-3-10,0251_eid_dnn_32-3-10_bear_10_n02134418_280.png,n02134418_280.png,1.0,0.596231,0.55421394,0.029710537
alexnet_w3_mlp_simclrhn_probe3,1,252,NaN,bear,bottle,8-3-10,0252_eid_dnn_8-3-10_bottle_10_n04560804_8385.png,n04560804_8385.png,0.0,0.09297354,0.7539219,-0.4673611
alexnet_w3_mlp_simclrhn_probe3,1,253,NaN,oven,elephant,64-3-10,0253_eid_dnn_64-3-10_elephant_10_n02504013_4183.png,n02504013_4183.png,0.0,0.21430087,0.5645337,-0.24765202
alexnet_w3_mlp_simclrhn_probe3,1,254,NaN,bird,bird,1-3-10,0254_eid_dnn_1-3-10_bird_10_n01560419_19608.png,n01560419_19608.png,1.0,1.519161,0.25703222,0.89245987
alexnet_w3_mlp_simclrhn_probe3,1,255,NaN,cat,bird,4-3-10,0255_eid_dnn_4-3-10_bird_10_n02056570_8865.png,n02056570_8865.png,0.0,-0.111279935,0.33370343,-0.31465074
alexnet_w3_mlp_simclrhn_probe3,1,256,NaN,cat,cat,2-3-10,0256_eid_dnn_2-3-10_cat_10_n02123394_2553.png,n02123394_2553.png,1.0,1.11967,0.5644704,0.39258543
alexnet_w3_mlp_simclrhn_probe3,1,257,NaN,oven,bear,128-3-10,0257_eid_dnn_128-3-10_bear_10_n02132136_10113.png,n02132136_10113.png,0.0,0.066488475,0.37048143,-0.21495548
alexnet_w3_mlp_simclrhn_probe3,1,258,NaN,cat,oven,8-3-10,0258_eid_dnn_8-3-10_oven_10_n04111531_2758.png,n04111531_2758.png,0.0,0.5346945,0.77886057,-0.17265148
alexnet_w3_mlp_simclrhn_probe3,1,259,NaN,oven,keyboard,64-3-10,0259_eid_dnn_64-3-10_keyboard_10_n04505470_4824.png,n04505470_4824.png,0.0,-0.15468591,0.15802266,-0.22111835
alexnet_w3_mlp_simclrhn_probe3,1,260,NaN,bicycle,bicycle,2-3-10,0260_eid_dnn_2-3-10_bicycle_10_n02835271_8654.png,n02835271_8654.png,1.0,1.3277814,0.45366263,0.61809534
alexnet_w3_mlp_simclrhn_probe3,1,261,NaN,oven,keyboard,128-3-10,0261_eid_dnn_128-3-10_keyboard_10_n03085013_34973.png,n03085013_34973.png,0.0,0.07719168,0.32782483,-0.1772244
alexnet_w3_mlp_simclrhn_probe3,1,262,NaN,cat,cat,4-3-10,0262_eid_dnn_4-3-10_cat_10_n02123394_4228.png,n02123394_4228.png,1.0,1.466695,0.45695493,0.713994
alexnet_w3_mlp_simclrhn_probe3,1,263,NaN,oven,keyboard,32-3-10,0263_eid_dnn_32-3-10_keyboard_10_n03085013_24416.png,n03085013_24416.png,0.0,-0.094989136,0.31763214,-0.2917673
alexnet_w3_mlp_simclrhn_probe3,1,264,NaN,cat,cat,8-3-10,0264_eid_dnn_8-3-10_cat_10_n02124075_5729.png,n02124075_5729.png,1.0,1.5522369,0.8358083,0.50659156
alexnet_w3_mlp_simclrhn_probe3,1,265,NaN,oven,clock,32-3-10,0265_eid_dnn_32-3-10_clock_10_n03196217_6357.png,n03196217_6357.png,0.0,0.12852202,0.5084502,-0.2686498
alexnet_w3_mlp_simclrhn_probe3,1,266,NaN,oven,truck,128-3-10,0266_eid_dnn_128-3-10_truck_10_n03417042_29478.png,n03417042_29478.png,0.0,-0.27718055,0.08725567,-0.25769532
alexnet_w3_mlp_simclrhn_probe3,1,267,NaN,bottle,chair,128-3-10,0267_eid_dnn_128-3-10_chair_10_n04099969_18678.png,n04099969_18678.png,0.0,-0.0747658,0.082571186,-0.111254044
alexnet_w3_mlp_simclrhn_probe3,1,268,NaN,oven,clock,32-3-10,0268_eid_dnn_32-3-10_clock_10_n02708093_4286.png,n02708093_4286.png,0.0,0.059599966,0.9800311,-0.6508431
alexnet_w3_mlp_simclrhn_probe3,1,269,NaN,elephant,car,128-3-10,0269_eid_dnn_128-3-10_car_10_n03100240_21971.png,n03100240_21971.png,0.0,-0.4864038,0.17089447,-0.46478006
alexnet_w3_mlp_simclrhn_probe3,1,270,NaN,car,car,1-3-10,0270_eid_dnn_1-3-10_car_10_n03100240_84.png,n03100240_84.png,1.0,4.0910926,2.758029,0.9426183
alexnet_w3_mlp_simclrhn_probe3,1,271,NaN,bicycle,dog,1-3-10,0271_eid_dnn_1-3-10_dog_10_n02094433_3186.png,n02094433_3186.png,0.0,0.0013307122,0.5903723,-0.41651532
alexnet_w3_mlp_simclrhn_probe3,1,272,NaN,dog,dog,4-3-10,0272_eid_dnn_4-3-10_dog_10_n02088364_10195.png,n02088364_10195.png,1.0,0.90666896,0.49802396,0.28895566
alexnet_w3_mlp_simclrhn_probe3,1,273,NaN,bear,knife,16-3-10,0273_eid_dnn_16-3-10_knife_10_n03041632_11358.png,n03041632_11358.png,0.0,0.07603817,0.79838675,-0.5107776
alexnet_w3_mlp_simclrhn_probe3,1,274,NaN,oven,bird,64-3-10,0274_eid_dnn_64-3-10_bird_10_n01531178_10630.png,n01531178_10630.png,0.0,-0.02622951,0.1903665,-0.15315652
alexnet_w3_mlp_simclrhn_probe3,1,275,NaN,elephant,elephant,1-3-10,0275_eid_dnn_1-3-10_elephant_10_n02504458_4058.png,n02504458_4058.png,1.0,3.308195,1.405017,1.3457502
alexnet_w3_mlp_simclrhn_probe3,1,276,NaN,oven,keyboard,32-3-10,0276_eid_dnn_32-3-10_keyboard_10_n03085013_24336.png,n03085013_24336.png,0.0,-0.26950744,0.4599386,-0.51579624
alexnet_w3_mlp_simclrhn_probe3,1,277,NaN,clock,clock,4-3-10,0277_eid_dnn_4-3-10_clock_10_n02708093_386.png,n02708093_386.png,1.0,1.9678234,1.5731896,0.27904823
alexnet_w3_mlp_simclrhn_probe3,1,278,NaN,elephant,chair,4-3-10,0278_eid_dnn_4-3-10_chair_10_n04429376_16370.png,n04429376_16370.png,0.0,-0.32632437,1.3575494,-1.1906786
alexnet_w3_mlp_simclrhn_probe3,1,279,NaN,knife,bottle,1-3-10,0279_eid_dnn_1-3-10_bottle_10_n04557648_10167.png,n04557648_10167.png,0.0,0.60518396,0.9392775,-0.23623984
alexnet_w3_mlp_simclrhn_probe3,1,280,NaN,bicycle,bicycle,1-3-10,0280_eid_dnn_1-3-10_bicycle_10_n02835271_15717.png,n02835271_15717.png,1.0,5.445756,1.2544968,2.9636679
alexnet_w3_mlp_simclrhn_probe3,1,281,NaN,oven,car,128-3-10,0281_eid_dnn_128-3-10_car_10_n03100240_22593.png,n03100240_22593.png,0.0,-0.4351945,0.3861811,-0.5808003
alexnet_w3_mlp_simclrhn_probe3,1,282,NaN,car,car,1-3-10,0282_eid_dnn_1-3-10_car_10_n04285008_11240.png,n04285008_11240.png,1.0,5.6173577,2.323718,2.328955
alexnet_w3_mlp_simclrhn_probe3,1,283,NaN,boat,boat,1-3-10,0283_eid_dnn_1-3-10_boat_10_n03344393_3337.png,n03344393_3337.png,1.0,1.4786621,0.86324555,0.43516526
alexnet_w3_mlp_simclrhn_probe3,1,284,NaN,oven,bottle,128-3-10,0284_eid_dnn_128-3-10_bottle_10_n04579145_1660.png,n04579145_1660.png,0.0,0.10250894,0.26823896,-0.117188826
alexnet_w3_mlp_simclrhn_probe3,1,285,NaN,oven,dog,64-3-10,0285_eid_dnn_64-3-10_dog_10_n02091244_9305.png,n02091244_9305.png,0.0,-0.106233284,0.4990064,-0.4279691
alexnet_w3_mlp_simclrhn_probe3,1,286,NaN,oven,chair,32-3-10,0286_eid_dnn_32-3-10_chair_10_n03376595_3912.png,n03376595_3912.png,0.0,0.010396056,0.60666317,-0.4216245
alexnet_w3_mlp_simclrhn_probe3,1,287,NaN,oven,bottle,64-3-10,0287_eid_dnn_64-3-10_bottle_10_n02823428_6793.png,n02823428_6793.png,0.0,0.11444702,0.6295963,-0.36426556
alexnet_w3_mlp_simclrhn_probe3,1,288,NaN,bear,dog,32-3-10,0288_eid_dnn_32-3-10_dog_10_n02093754_4949.png,n02093754_4949.png,0.0,-0.018967677,0.795696,-0.5760542
alexnet_w3_mlp_simclrhn_probe3,1,289,NaN,oven,dog,128-3-10,0289_eid_dnn_128-3-10_dog_10_n02105855_10394.png,n02105855_10394.png,0.0,-0.10758495,0.35640994,-0.32809395
alexnet_w3_mlp_simclrhn_probe3,1,290,NaN,bottle,clock,2-3-10,0290_eid_dnn_2-3-10_clock_10_n04548280_9533.png,n04548280_9533.png,0.0,0.23776007,0.43695837,-0.14085448
alexnet_w3_mlp_simclrhn_probe3,1,291,NaN,elephant,cat,1-3-10,0291_eid_dnn_1-3-10_cat_10_n02125311_7527.png,n02125311_7527.png,0.0,1.1627687,2.1235695,-0.67938876
alexnet_w3_mlp_simclrhn_probe3,1,292,NaN,car,car,4-3-10,0292_eid_dnn_4-3-10_car_10_n03100240_4537.png,n03100240_4537.png,1.0,1.4477425,1.2479019,0.1413086
alexnet_w3_mlp_simclrhn_probe3,1,293,NaN,bear,bicycle,8-3-10,0293_eid_dnn_8-3-10_bicycle_10_n03792782_11609.png,n03792782_11609.png,0.0,-0.61718535,1.3890527,-1.4186245
alexnet_w3_mlp_simclrhn_probe3,1,294,NaN,oven,oven,128-3-10,0294_eid_dnn_128-3-10_oven_10_n04111531_6134.png,n04111531_6134.png,1.0,0.42882425,0.17655553,0.17838094
alexnet_w3_mlp_simclrhn_probe3,1,295,NaN,keyboard,bottle,8-3-10,0295_eid_dnn_8-3-10_bottle_10_n04591713_715.png,n04591713_715.png,0.0,0.26629815,1.1138413,-0.5993035
alexnet_w3_mlp_simclrhn_probe3,1,296,NaN,oven,elephant,32-3-10,0296_eid_dnn_32-3-10_elephant_10_n02504458_7818.png,n02504458_7818.png,0.0,0.2986814,0.6858142,-0.27374423
alexnet_w3_mlp_simclrhn_probe3,1,297,NaN,oven,airplane,64-3-10,0297_eid_dnn_64-3-10_airplane_10_n02690373_7107.png,n02690373_7107.png,0.0,0.06881975,0.45889553,-0.27582526
alexnet_w3_mlp_simclrhn_probe3,1,298,NaN,oven,car,32-3-10,0298_eid_dnn_32-3-10_car_10_n04285008_8363.png,n04285008_8363.png,0.0,-0.2853566,0.4692753,-0.53360534
alexnet_w3_mlp_simclrhn_probe3,1,299,NaN,oven,clock,4-3-10,0299_eid_dnn_4-3-10_clock_10_n04548280_4249.png,n04548280_4249.png,0.0,0.36900458,1.0569142,-0.48642555
alexnet_w3_mlp_simclrhn_probe3,1,300,NaN,oven,cat,128-3-10,0300_eid_dnn_128-3-10_cat_10_n02123597_7269.png,n02123597_7269.png,0.0,0.041834995,0.37462905,-0.23532094
alexnet_w3_mlp_simclrhn_probe3,1,301,NaN,bicycle,bicycle,1-3-10,0301_eid_dnn_1-3-10_bicycle_10_n03792782_4864.png,n03792782_4864.png,1.0,6.924484,1.7260423,3.6758533
alexnet_w3_mlp_simclrhn_probe3,1,302,NaN,bear,bear,2-3-10,0302_eid_dnn_2-3-10_bear_10_n02132136_8011.png,n02132136_8011.png,1.0,1.6567577,0.49619913,0.82063884
alexnet_w3_mlp_simclrhn_probe3,1,303,NaN,oven,boat,128-3-10,0303_eid_dnn_128-3-10_boat_10_n02951358_4810.png,n02951358_4810.png,0.0,-0.22677875,0.17522697,-0.284261
alexnet_w3_mlp_simclrhn_probe3,1,304,NaN,oven,clock,128-3-10,0304_eid_dnn_128-3-10_clock_10_n03196217_5137.png,n03196217_5137.png,0.0,-0.012698858,0.33901882,-0.24870196
alexnet_w3_mlp_simclrhn_probe3,1,305,NaN,bicycle,bicycle,2-3-10,0305_eid_dnn_2-3-10_bicycle_10_n02835271_158.png,n02835271_158.png,1.0,3.8584118,0.8965988,2.0943182
alexnet_w3_mlp_simclrhn_probe3,1,306,NaN,oven,bear,64-3-10,0306_eid_dnn_64-3-10_bear_10_n02132136_11217.png,n02132136_11217.png,0.0,0.044148453,0.5634151,-0.36717698
alexnet_w3_mlp_simclrhn_probe3,1,307,NaN,oven,dog,64-3-10,0307_eid_dnn_64-3-10_dog_10_n02092002_6122.png,n02092002_6122.png,0.0,-0.09589565,0.49859768,-0.42037028
alexnet_w3_mlp_simclrhn_probe3,1,308,NaN,oven,chair,32-3-10,0308_eid_dnn_32-3-10_chair_10_n04429376_29223.png,n04429376_29223.png,0.0,0.020419434,0.9326205,-0.6450236
alexnet_w3_mlp_simclrhn_probe3,1,309,NaN,keyboard,bear,128-3-10,0309_eid_dnn_128-3-10_bear_10_n02133161_5723.png,n02133161_5723.png,0.0,0.2043048,0.35963553,-0.109835416
alexnet_w3_mlp_simclrhn_probe3,1,310,NaN,oven,dog,128-3-10,0310_eid_dnn_128-3-10_dog_10_n02100583_1343.png,n02100583_1343.png,0.0,-0.080286525,0.15794334,-0.16845396
alexnet_w3_mlp_simclrhn_probe3,1,311,NaN,oven,boat,128-3-10,0311_eid_dnn_128-3-10_boat_10_n03344393_6352.png,n03344393_6352.png,0.0,-0.23312597,0.6902476,-0.6529237
alexnet_w3_mlp_simclrhn_probe3,1,312,NaN,bird,bird,4-3-10,0312_eid_dnn_4-3-10_bird_10_n01560419_8247.png,n01560419_8247.png,1.0,1.1606368,0.09518806,0.7533861
alexnet_w3_mlp_simclrhn_probe3,1,313,NaN,bear,dog,4-3-10,0313_eid_dnn_4-3-10_dog_10_n02105251_8210.png,n02105251_8210.png,0.0,1.010139,1.2895439,-0.19756909
alexnet_w3_mlp_simclrhn_probe3,1,314,NaN,oven,oven,128-3-10,0314_eid_dnn_128-3-10_oven_10_n04111531_9702.png,n04111531_9702.png,1.0,0.18333724,0.07614308,0.07579772
alexnet_w3_mlp_simclrhn_probe3,1,315,NaN,oven,bear,8-3-10,0315_eid_dnn_8-3-10_bear_10_n02133161_12161.png,n02133161_12161.png,0.0,0.26267338,0.38094282,-0.083629124
alexnet_w3_mlp_simclrhn_probe3,1,316,NaN,bear,bear,8-3-10,0316_eid_dnn_8-3-10_bear_10_n02133161_13556.png,n02133161_13556.png,1.0,1.5293043,0.8649041,0.46980187
alexnet_w3_mlp_simclrhn_probe3,1,317,NaN,bottle,bear,128-3-10,0317_eid_dnn_128-3-10_bear_10_n02134084_635.png,n02134084_635.png,0.0,0.018068556,0.07567615,-0.040734723
alexnet_w3_mlp_simclrhn_probe3,1,318,NaN,oven,chair,128-3-10,0318_eid_dnn_128-3-10_chair_10_n02791124_6956.png,n02791124_6956.png,0.0,0.010439344,0.22557096,-0.15212102
alexnet_w3_mlp_simclrhn_probe3,1,319,NaN,oven,car,4-3-10,0319_eid_dnn_4-3-10_car_10_n02814533_18077.png,n02814533_18077.png,0.0,0.21956252,0.58664256,-0.2595648
alexnet_w3_mlp_simclrhn_probe3,1,320,NaN,knife,dog,2-3-10,0320_eid_dnn_2-3-10_dog_10_n02088364_11105.png,n02088364_11105.png,0.0,0.2021444,1.41161,-0.85522133
alexnet_w3_mlp_simclrhn_probe3,1,321,NaN,oven,airplane,64-3-10,0321_eid_dnn_64-3-10_airplane_10_n02690373_1053.png,n02690373_1053.png,0.0,-0.025919467,0.58942956,-0.43511748
alexnet_w3_mlp_simclrhn_probe3,1,322,NaN,oven,car,16-3-10,0322_eid_dnn_16-3-10_car_10_n02814533_96407.png,n02814533_96407.png,0.0,-0.4207944,1.2120533,-1.1545976
alexnet_w3_mlp_simclrhn_probe3,1,323,NaN,oven,chair,4-3-10,0323_eid_dnn_4-3-10_chair_10_n04099969_31891.png,n04099969_31891.png,0.0,1.183922,2.4001362,-0.8599933
alexnet_w3_mlp_simclrhn_probe3,1,324,NaN,bear,bottle,16-3-10,0324_eid_dnn_16-3-10_bottle_10_n04557648_4470.png,n04557648_4470.png,0.0,0.0071476595,0.34821725,-0.24117261
alexnet_w3_mlp_simclrhn_probe3,1,325,NaN,oven,clock,8-3-10,0325_eid_dnn_8-3-10_clock_10_n02708093_2588.png,n02708093_2588.png,0.0,-0.1964113,0.31789547,-0.3636698
alexnet_w3_mlp_simclrhn_probe3,1,326,NaN,elephant,elephant,128-3-10,0326_eid_dnn_128-3-10_elephant_10_n02504458_6696.png,n02504458_6696.png,1.0,0.10438992,0.08774724,0.011768154
alexnet_w3_mlp_simclrhn_probe3,1,327,NaN,oven,elephant,32-3-10,0327_eid_dnn_32-3-10_elephant_10_n02504013_4071.png,n02504013_4071.png,0.0,0.082647696,0.5935307,-0.36124885
alexnet_w3_mlp_simclrhn_probe3,1,328,NaN,knife,keyboard,8-3-10,0328_eid_dnn_8-3-10_keyboard_10_n03085013_8339.png,n03085013_8339.png,0.0,0.24353088,0.66354007,-0.29699135
alexnet_w3_mlp_simclrhn_probe3,1,329,NaN,oven,elephant,64-3-10,0329_eid_dnn_64-3-10_elephant_10_n02504013_6976.png,n02504013_6976.png,0.0,0.08468512,0.25588766,-0.12105848
alexnet_w3_mlp_simclrhn_probe3,1,330,NaN,bear,boat,4-3-10,0330_eid_dnn_4-3-10_boat_10_n02951358_9146.png,n02951358_9146.png,0.0,-0.25325066,1.5469406,-1.2729274
alexnet_w3_mlp_simclrhn_probe3,1,331,NaN,oven,boat,32-3-10,0331_eid_dnn_32-3-10_boat_10_n04273569_4087.png,n04273569_4087.png,0.0,-0.04709909,0.32159746,-0.26070783
alexnet_w3_mlp_simclrhn_probe3,1,332,NaN,oven,oven,64-3-10,0332_eid_dnn_64-3-10_oven_10_n04111531_2922.png,n04111531_2922.png,1.0,0.33378336,0.14771442,0.1315706
alexnet_w3_mlp_simclrhn_probe3,1,333,NaN,bear,bear,4-3-10,0333_eid_dnn_4-3-10_bear_10_n02133161_5325.png,n02133161_5325.png,1.0,2.6323833,1.2158604,1.001633
alexnet_w3_mlp_simclrhn_probe3,1,334,NaN,oven,bottle,64-3-10,0334_eid_dnn_64-3-10_bottle_10_n04557648_3109.png,n04557648_3109.png,0.0,0.16421339,0.36943942,-0.14511672
alexnet_w3_mlp_simclrhn_probe3,1,335,NaN,oven,oven,1-3-10,0335_eid_dnn_1-3-10_oven_10_n04111531_15912.png,n04111531_15912.png,1.0,3.697317,0.9937846,1.911686
alexnet_w3_mlp_simclrhn_probe3,1,336,NaN,oven,truck,16-3-10,0336_eid_dnn_16-3-10_truck_10_n03417042_17099.png,n03417042_17099.png,0.0,-0.39735723,0.993674,-0.98360765
alexnet_w3_mlp_simclrhn_probe3,1,337,NaN,car,car,2-3-10,0337_eid_dnn_2-3-10_car_10_n04285008_8641.png,n04285008_8641.png,1.0,1.8342314,1.0906367,0.5258008
alexnet_w3_mlp_simclrhn_probe3,1,338,NaN,oven,keyboard,32-3-10,0338_eid_dnn_32-3-10_keyboard_10_n04505470_524.png,n04505470_524.png,0.0,-0.18146116,0.27652177,-0.32384285
alexnet_w3_mlp_simclrhn_probe3,1,339,NaN,elephant,bottle,8-3-10,0339_eid_dnn_8-3-10_bottle_10_n04557648_5935.png,n04557648_5935.png,0.0,-0.07267732,1.1656154,-0.8756053
alexnet_w3_mlp_simclrhn_probe3,1,340,NaN,keyboard,bottle,1-3-10,0340_eid_dnn_1-3-10_bottle_10_n04591713_3776.png,n04591713_3776.png,0.0,2.597141,2.7683928,-0.121093296
alexnet_w3_mlp_simclrhn_probe3,1,341,NaN,truck,truck,2-3-10,0341_eid_dnn_2-3-10_truck_10_n03796401_3651.png,n03796401_3651.png,1.0,4.9593353,1.1399295,2.7007277
alexnet_w3_mlp_simclrhn_probe3,1,342,NaN,oven,bicycle,128-3-10,0342_eid_dnn_128-3-10_bicycle_10_n03792782_15757.png,n03792782_15757.png,0.0,-0.061858207,0.21108156,-0.19299756
alexnet_w3_mlp_simclrhn_probe3,1,343,NaN,oven,cat,32-3-10,0343_eid_dnn_32-3-10_cat_10_n02123597_8698.png,n02123597_8698.png,0.0,0.08049235,0.94078726,-0.6083204
alexnet_w3_mlp_simclrhn_probe3,1,344,NaN,airplane,boat,1-3-10,0344_eid_dnn_1-3-10_boat_10_n03662601_273.png,n03662601_273.png,0.0,2.0012186,2.6283512,-0.44344977
alexnet_w3_mlp_simclrhn_probe3,1,345,NaN,knife,knife,1-3-10,0345_eid_dnn_1-3-10_knife_10_n03041632_24376.png,n03041632_24376.png,1.0,1.6117895,0.9274322,0.4839137
alexnet_w3_mlp_simclrhn_probe3,1,346,NaN,chair,keyboard,1-3-10,0346_eid_dnn_1-3-10_keyboard_10_n04505470_2608.png,n04505470_2608.png,0.0,0.7314351,1.495891,-0.5405519
alexnet_w3_mlp_simclrhn_probe3,1,347,NaN,bear,boat,16-3-10,0347_eid_dnn_16-3-10_boat_10_n04273569_10665.png,n04273569_10665.png,0.0,-0.31764922,0.4972405,-0.5762141
alexnet_w3_mlp_simclrhn_probe3,1,348,NaN,oven,bear,64-3-10,0348_eid_dnn_64-3-10_bear_10_n02133161_5267.png,n02133161_5267.png,0.0,0.35638922,0.56094193,-0.14464061
alexnet_w3_mlp_simclrhn_probe3,1,349,NaN,knife,bear,128-3-10,0349_eid_dnn_128-3-10_bear_10_n02133161_5020.png,n02133161_5020.png,0.0,0.11183475,0.16578954,-0.0381518
alexnet_w3_mlp_simclrhn_probe3,1,350,NaN,oven,knife,128-3-10,0350_eid_dnn_128-3-10_knife_10_n03041632_21723.png,n03041632_21723.png,0.0,-0.031311706,0.5516094,-0.41218746
alexnet_w3_mlp_simclrhn_probe3,1,351,NaN,oven,boat,32-3-10,0351_eid_dnn_32-3-10_boat_10_n02951358_31101.png,n02951358_31101.png,0.0,-0.12287617,0.59383583,-0.50679195
alexnet_w3_mlp_simclrhn_probe3,1,352,NaN,bottle,dog,128-3-10,0352_eid_dnn_128-3-10_dog_10_n02102177_4180.png,n02102177_4180.png,0.0,-0.010583057,0.050513633,-0.043201886
alexnet_w3_mlp_simclrhn_probe3,1,353,NaN,bottle,bottle,4-3-10,0353_eid_dnn_4-3-10_bottle_10_n04579145_4186.png,n04579145_4186.png,1.0,3.7552567,1.2669374,1.7595075
alexnet_w3_mlp_simclrhn_probe3,1,354,NaN,oven,bicycle,64-3-10,0354_eid_dnn_64-3-10_bicycle_10_n03792782_2246.png,n03792782_2246.png,0.0,-0.10304128,0.34308642,-0.31545994
alexnet_w3_mlp_simclrhn_probe3,1,355,NaN,dog,dog,1-3-10,0355_eid_dnn_1-3-10_dog_10_n02110958_1526.png,n02110958_1526.png,1.0,0.6485644,0.44808334,0.14176151
alexnet_w3_mlp_simclrhn_probe3,1,356,NaN,oven,keyboard,128-3-10,0356_eid_dnn_128-3-10_keyboard_10_n04505470_255.png,n04505470_255.png,0.0,-0.13395186,0.2356392,-0.26134035
alexnet_w3_mlp_simclrhn_probe3,1,357,NaN,bear,elephant,4-3-10,0357_eid_dnn_4-3-10_elephant_10_n02504458_1933.png,n02504458_1933.png,0.0,0.43795264,0.7747784,-0.2381718
alexnet_w3_mlp_simclrhn_probe3,1,358,NaN,cat,cat,2-3-10,0358_eid_dnn_2-3-10_cat_10_n02123159_5749.png,n02123159_5749.png,1.0,5.60269,0.7731412,3.4150069
alexnet_w3_mlp_simclrhn_probe3,1,359,NaN,keyboard,airplane,128-3-10,0359_eid_dnn_128-3-10_airplane_10_n02690373_2967.png,n02690373_2967.png,0.0,0.12332903,0.36647272,-0.17192855
alexnet_w3_mlp_simclrhn_probe3,1,360,NaN,cat,chair,8-3-10,0360_eid_dnn_8-3-10_chair_10_n04099969_72.png,n04099969_72.png,0.0,-0.38306886,0.7383468,-0.7929606
alexnet_w3_mlp_simclrhn_probe3,1,361,NaN,oven,cat,32-3-10,0361_eid_dnn_32-3-10_cat_10_n02123045_4089.png,n02123045_4089.png,0.0,0.20010541,0.71576726,-0.364628
alexnet_w3_mlp_simclrhn_probe3,1,362,NaN,keyboard,bird,128-3-10,0362_eid_dnn_128-3-10_bird_10_n01616318_13293.png,n01616318_13293.png,0.0,-0.3294408,0.37284195,-0.49658892
alexnet_w3_mlp_simclrhn_probe3,1,363,NaN,cat,cat,4-3-10,0363_eid_dnn_4-3-10_cat_10_n02124075_13719.png,n02124075_13719.png,1.0,1.1817341,0.51554114,0.47106957
alexnet_w3_mlp_simclrhn_probe3,1,364,NaN,bear,oven,32-3-10,0364_eid_dnn_32-3-10_oven_10_n04111531_22466.png,n04111531_22466.png,0.0,0.5338417,0.88580537,-0.24887589
alexnet_w3_mlp_simclrhn_probe3,1,365,NaN,oven,airplane,128-3-10,0365_eid_dnn_128-3-10_airplane_10_n02690373_2525.png,n02690373_2525.png,0.0,-0.28491664,0.3656702,-0.46003437
alexnet_w3_mlp_simclrhn_probe3,1,366,NaN,cat,cat,1-3-10,0366_eid_dnn_1-3-10_cat_10_n02124075_5369.png,n02124075_5369.png,1.0,1.870824,1.3117982,0.3952909
alexnet_w3_mlp_simclrhn_probe3,1,367,NaN,oven,bird,64-3-10,0367_eid_dnn_64-3-10_bird_10_n01843065_4182.png,n01843065_4182.png,0.0,-0.054079022,0.279386,-0.2357954
alexnet_w3_mlp_simclrhn_probe3,1,368,NaN,truck,truck,2-3-10,0368_eid_dnn_2-3-10_truck_10_n03796401_6472.png,n03796401_6472.png,1.0,1.1608567,0.4508203,0.50207156
alexnet_w3_mlp_simclrhn_probe3,1,369,NaN,oven,airplane,64-3-10,0369_eid_dnn_64-3-10_airplane_10_n02690373_3090.png,n02690373_3090.png,0.0,-0.004508719,0.7552906,-0.5372593
alexnet_w3_mlp_simclrhn_probe3,1,370,NaN,oven,bear,64-3-10,0370_eid_dnn_64-3-10_bear_10_n02134418_2964.png,n02134418_2964.png,0.0,0.35437858,0.6541924,-0.21200038
alexnet_w3_mlp_simclrhn_probe3,1,371,NaN,elephant,elephant,16-3-10,0371_eid_dnn_16-3-10_elephant_10_n02504013_6904.png,n02504013_6904.png,1.0,1.5275095,1.45056,0.054411497
alexnet_w3_mlp_simclrhn_probe3,1,372,NaN,oven,bottle,32-3-10,0372_eid_dnn_32-3-10_bottle_10_n02823428_13488.png,n02823428_13488.png,0.0,0.105706766,0.83135056,-0.51310766
alexnet_w3_mlp_simclrhn_probe3,1,373,NaN,car,car,1-3-10,0373_eid_dnn_1-3-10_car_10_n02814533_49499.png,n02814533_49499.png,1.0,8.528247,0.54496086,5.6450357
alexnet_w3_mlp_simclrhn_probe3,1,374,NaN,elephant,clock,64-3-10,0374_eid_dnn_64-3-10_clock_10_n03196217_1000.png,n03196217_1000.png,0.0,-0.0048572235,0.09190789,-0.06842327
alexnet_w3_mlp_simclrhn_probe3,1,375,NaN,bear,boat,16-3-10,0375_eid_dnn_16-3-10_boat_10_n04612504_13446.png,n04612504_13446.png,0.0,0.1326478,1.0041332,-0.6162332
alexnet_w3_mlp_simclrhn_probe3,1,376,NaN,oven,cat,8-3-10,0376_eid_dnn_8-3-10_cat_10_n02123159_7239.png,n02123159_7239.png,0.0,0.67337734,0.9929248,-0.22595419
alexnet_w3_mlp_simclrhn_probe3,1,377,NaN,bear,airplane,8-3-10,0377_eid_dnn_8-3-10_airplane_10_n02690373_7499.png,n02690373_7499.png,0.0,-0.72280264,0.42814407,-0.81384224
alexnet_w3_mlp_simclrhn_probe3,1,378,NaN,oven,dog,64-3-10,0378_eid_dnn_64-3-10_dog_10_n02100877_8862.png,n02100877_8862.png,0.0,-0.12980303,0.46341583,-0.4194691
alexnet_w3_mlp_simclrhn_probe3,1,379,NaN,keyboard,keyboard,2-3-10,0379_eid_dnn_2-3-10_keyboard_10_n03085013_7152.png,n03085013_7152.png,1.0,3.8384247,0.6243123,2.2727206
alexnet_w3_mlp_simclrhn_probe3,1,380,NaN,bear,bottle,32-3-10,0380_eid_dnn_32-3-10_bottle_10_n03937543_3344.png,n03937543_3344.png,0.0,-0.021562655,0.59537643,-0.4362418
alexnet_w3_mlp_simclrhn_probe3,1,381,NaN,bear,bicycle,64-3-10,0381_eid_dnn_64-3-10_bicycle_10_n02835271_1721.png,n02835271_1721.png,0.0,0.15244153,0.4596886,-0.21725649
alexnet_w3_mlp_simclrhn_probe3,1,382,NaN,boat,boat,2-3-10,0382_eid_dnn_2-3-10_boat_10_n04273569_7039.png,n04273569_7039.png,1.0,4.076545,0.8794056,2.2607188
alexnet_w3_mlp_simclrhn_probe3,1,383,NaN,airplane,airplane,1-3-10,0383_eid_dnn_1-3-10_airplane_10_n02690373_5790.png,n02690373_5790.png,1.0,5.3871965,0.89058864,3.1795819
alexnet_w3_mlp_simclrhn_probe3,1,384,NaN,bird,bird,2-3-10,0384_eid_dnn_2-3-10_bird_10_n02007558_4629.png,n02007558_4629.png,1.0,1.710996,1.5375049,0.12267675
alexnet_w3_mlp_simclrhn_probe3,1,385,NaN,airplane,airplane,8-3-10,0385_eid_dnn_8-3-10_airplane_10_n02690373_2313.png,n02690373_2313.png,1.0,0.93841547,0.4118828,0.3723148
alexnet_w3_mlp_simclrhn_probe3,1,386,NaN,car,car,2-3-10,0386_eid_dnn_2-3-10_car_10_n02814533_65093.png,n02814533_65093.png,1.0,6.86496,2.2518651,3.261951
alexnet_w3_mlp_simclrhn_probe3,1,387,NaN,bicycle,bicycle,2-3-10,0387_eid_dnn_2-3-10_bicycle_10_n03792782_4559.png,n03792782_4559.png,1.0,3.676834,0.12300484,2.5129368
alexnet_w3_mlp_simclrhn_probe3,1,388,NaN,oven,oven,2-3-10,0388_eid_dnn_2-3-10_oven_10_n04111531_16696.png,n04111531_16696.png,1.0,3.2779884,1.2418625,1.4397584
alexnet_w3_mlp_simclrhn_probe3,1,389,NaN,oven,boat,32-3-10,0389_eid_dnn_32-3-10_boat_10_n04273569_5593.png,n04273569_5593.png,0.0,-0.08679981,0.514053,-0.4248671
alexnet_w3_mlp_simclrhn_probe3,1,390,NaN,oven,bottle,128-3-10,0390_eid_dnn_128-3-10_bottle_10_n03937543_6624.png,n03937543_6624.png,0.0,0.13679926,0.2710276,-0.094913766
alexnet_w3_mlp_simclrhn_probe3,1,391,NaN,airplane,airplane,1-3-10,0391_eid_dnn_1-3-10_airplane_10_n02690373_12436.png,n02690373_12436.png,1.0,7.225105,2.8561308,3.089331
alexnet_w3_mlp_simclrhn_probe3,1,392,NaN,airplane,bird,2-3-10,0392_eid_dnn_2-3-10_bird_10_n01828970_6924.png,n01828970_6924.png,0.0,1.4193939,1.7858949,-0.25915533
alexnet_w3_mlp_simclrhn_probe3,1,393,NaN,airplane,airplane,4-3-10,0393_eid_dnn_4-3-10_airplane_10_n02690373_9605.png,n02690373_9605.png,1.0,1.8001329,0.50742626,0.91408163
alexnet_w3_mlp_simclrhn_probe3,1,394,NaN,oven,truck,128-3-10,0394_eid_dnn_128-3-10_truck_10_n03796401_1335.png,n03796401_1335.png,0.0,-0.25323683,0.43538302,-0.48692778
alexnet_w3_mlp_simclrhn_probe3,1,395,NaN,oven,chair,64-3-10,0395_eid_dnn_64-3-10_chair_10_n04429376_10476.png,n04429376_10476.png,0.0,-0.032829702,0.7503517,-0.5537929
alexnet_w3_mlp_simclrhn_probe3,1,396,NaN,bottle,bottle,1-3-10,0396_eid_dnn_1-3-10_bottle_10_n04560804_32760.png,n04560804_32760.png,1.0,3.45989,0.41493422,2.1531088
alexnet_w3_mlp_simclrhn_probe3,1,397,NaN,oven,airplane,32-3-10,0397_eid_dnn_32-3-10_airplane_10_n02690373_10817.png,n02690373_10817.png,0.0,0.009924442,0.6158311,-0.4284407
alexnet_w3_mlp_simclrhn_probe3,1,398,NaN,oven,car,32-3-10,0398_eid_dnn_32-3-10_car_10_n03100240_5946.png,n03100240_5946.png,0.0,-0.38574472,1.0932331,-1.0457952
alexnet_w3_mlp_simclrhn_probe3,1,399,NaN,bear,clock,64-3-10,0399_eid_dnn_64-3-10_clock_10_n02708093_2875.png,n02708093_2875.png,0.0,0.069844685,0.79479945,-0.51262045
alexnet_w3_mlp_simclrhn_probe3,1,400,NaN,bear,bear,2-3-10,0400_eid_dnn_2-3-10_bear_10_n02133161_2456.png,n02133161_2456.png,1.0,3.3524888,1.1449119,1.5609925
alexnet_w3_mlp_simclrhn_probe3,1,401,NaN,bear,bird,8-3-10,0401_eid_dnn_8-3-10_bird_10_n01855672_15317.png,n01855672_15317.png,0.0,0.096050255,1.0173978,-0.65149105
alexnet_w3_mlp_simclrhn_probe3,1,402,NaN,dog,dog,8-3-10,0402_eid_dnn_8-3-10_dog_10_n02098286_2242.png,n02098286_2242.png,1.0,0.5033275,0.30046648,0.1434444
alexnet_w3_mlp_simclrhn_probe3,1,403,NaN,knife,knife,2-3-10,0403_eid_dnn_2-3-10_knife_10_n03041632_43289.png,n03041632_43289.png,1.0,0.82122934,0.44676033,0.26478958
alexnet_w3_mlp_simclrhn_probe3,1,404,NaN,bottle,bottle,4-3-10,0404_eid_dnn_4-3-10_bottle_10_n02823428_4387.png,n02823428_4387.png,1.0,3.161755,2.0588155,0.7798961
alexnet_w3_mlp_simclrhn_probe3,1,405,NaN,oven,knife,64-3-10,0405_eid_dnn_64-3-10_knife_10_n03041632_13194.png,n03041632_13194.png,0.0,0.029393919,0.7255621,-0.49226525
alexnet_w3_mlp_simclrhn_probe3,1,406,NaN,airplane,airplane,8-3-10,0406_eid_dnn_8-3-10_airplane_10_n02690373_7465.png,n02690373_7465.png,1.0,1.0890865,0.55963874,0.37437612
alexnet_w3_mlp_simclrhn_probe3,1,407,NaN,knife,bird,4-3-10,0407_eid_dnn_4-3-10_bird_10_n02018207_2282.png,n02018207_2282.png,0.0,0.18449286,0.24103558,-0.039981745
alexnet_w3_mlp_simclrhn_probe3,1,408,NaN,oven,chair,64-3-10,0408_eid_dnn_64-3-10_chair_10_n04099969_34351.png,n04099969_34351.png,0.0,0.025056168,0.37987277,-0.25089324
alexnet_w3_mlp_simclrhn_probe3,1,409,NaN,oven,bottle,64-3-10,0409_eid_dnn_64-3-10_bottle_10_n03937543_49.png,n03937543_49.png,0.0,0.1355839,0.3200825,-0.1304602
alexnet_w3_mlp_simclrhn_probe3,1,410,NaN,bicycle,bicycle,8-3-10,0410_eid_dnn_8-3-10_bicycle_10_n03792782_9833.png,n03792782_9833.png,1.0,0.36936352,0.28541723,0.05935899
alexnet_w3_mlp_simclrhn_probe3,1,411,NaN,bottle,clock,4-3-10,0411_eid_dnn_4-3-10_clock_10_n03196217_10384.png,n03196217_10384.png,0.0,0.5085834,1.202997,-0.49102452
alexnet_w3_mlp_simclrhn_probe3,1,412,NaN,oven,truck,64-3-10,0412_eid_dnn_64-3-10_truck_10_n04467665_4492.png,n04467665_4492.png,0.0,-0.32880652,0.46194702,-0.5591472
alexnet_w3_mlp_simclrhn_probe3,1,413,NaN,oven,bottle,128-3-10,0413_eid_dnn_128-3-10_bottle_10_n03983396_5148.png,n03983396_5148.png,0.0,0.117866635,0.228354,-0.07812637
alexnet_w3_mlp_simclrhn_probe3,1,414,NaN,oven,clock,128-3-10,0414_eid_dnn_128-3-10_clock_10_n04548280_4364.png,n04548280_4364.png,0.0,-0.05332911,0.25702426,-0.21945298
alexnet_w3_mlp_simclrhn_probe3,1,415,NaN,cat,cat,1-3-10,0415_eid_dnn_1-3-10_cat_10_n02123394_6792.png,n02123394_6792.png,1.0,4.329786,1.0777069,2.2995672
alexnet_w3_mlp_simclrhn_probe3,1,416,NaN,oven,oven,16-3-10,0416_eid_dnn_16-3-10_oven_10_n04111531_1298.png,n04111531_1298.png,1.0,0.82511365,0.6763986,0.10515744
alexnet_w3_mlp_simclrhn_probe3,1,417,NaN,oven,clock,8-3-10,0417_eid_dnn_8-3-10_clock_10_n04548280_2334.png,n04548280_2334.png,0.0,0.024950003,0.8250451,-0.5657527
alexnet_w3_mlp_simclrhn_probe3,1,418,NaN,oven,car,32-3-10,0418_eid_dnn_32-3-10_car_10_n04285008_15570.png,n04285008_15570.png,0.0,-0.29006717,1.052805,-0.949554
alexnet_w3_mlp_simclrhn_probe3,1,419,NaN,oven,dog,32-3-10,0419_eid_dnn_32-3-10_dog_10_n02087394_7569.png,n02087394_7569.png,0.0,-0.08207736,0.42216626,-0.3565541
alexnet_w3_mlp_simclrhn_probe3,1,420,NaN,oven,clock,32-3-10,0420_eid_dnn_32-3-10_clock_10_n03196217_11445.png,n03196217_11445.png,0.0,-0.06813176,0.90444696,-0.687717
alexnet_w3_mlp_simclrhn_probe3,1,421,NaN,oven,chair,32-3-10,0421_eid_dnn_32-3-10_chair_10_n04099969_3095.png,n04099969_3095.png,0.0,0.02018433,0.4272672,-0.28785107
alexnet_w3_mlp_simclrhn_probe3,1,422,NaN,oven,bird,64-3-10,0422_eid_dnn_64-3-10_bird_10_n01601694_935.png,n01601694_935.png,0.0,-0.07842168,0.32049063,-0.28207362
alexnet_w3_mlp_simclrhn_probe3,1,423,NaN,cat,bird,2-3-10,0423_eid_dnn_2-3-10_bird_10_n01592084_3570.png,n01592084_3570.png,0.0,-0.019319318,1.2716883,-0.91288024
alexnet_w3_mlp_simclrhn_probe3,1,424,NaN,oven,dog,64-3-10,0424_eid_dnn_64-3-10_dog_10_n02090379_605.png,n02090379_605.png,0.0,-0.09181247,0.65670085,-0.5292789
alexnet_w3_mlp_simclrhn_probe3,1,425,NaN,airplane,airplane,1-3-10,0425_eid_dnn_1-3-10_airplane_10_n02690373_3912.png,n02690373_3912.png,1.0,5.861895,0.9100051,3.5015152
alexnet_w3_mlp_simclrhn_probe3,1,426,NaN,elephant,oven,128-3-10,0426_eid_dnn_128-3-10_oven_10_n04111531_986.png,n04111531_986.png,0.0,-0.203175,0.10944001,-0.2210522
alexnet_w3_mlp_simclrhn_probe3,1,427,NaN,oven,knife,32-3-10,0427_eid_dnn_32-3-10_knife_10_n03041632_23736.png,n03041632_23736.png,0.0,0.14252302,0.6393046,-0.35127762
alexnet_w3_mlp_simclrhn_probe3,1,428,NaN,clock,clock,4-3-10,0428_eid_dnn_4-3-10_clock_10_n04548280_10686.png,n04548280_10686.png,1.0,0.4274175,0.28799433,0.098587066
alexnet_w3_mlp_simclrhn_probe3,1,429,NaN,bear,oven,32-3-10,0429_eid_dnn_32-3-10_oven_10_n04111531_21460.png,n04111531_21460.png,0.0,0.71301913,0.8355826,-0.086665474
alexnet_w3_mlp_simclrhn_probe3,1,430,NaN,oven,bottle,32-3-10,0430_eid_dnn_32-3-10_bottle_10_n04557648_3675.png,n04557648_3675.png,0.0,0.06475766,0.9342412,-0.61481774
alexnet_w3_mlp_simclrhn_probe3,1,431,NaN,oven,chair,8-3-10,0431_eid_dnn_8-3-10_chair_10_n02791124_495.png,n02791124_495.png,0.0,-0.27273256,0.86255616,-0.8027704
alexnet_w3_mlp_simclrhn_probe3,1,432,NaN,oven,chair,128-3-10,0432_eid_dnn_128-3-10_chair_10_n04429376_9165.png,n04429376_9165.png,0.0,-0.017844312,0.29654017,-0.2223034
alexnet_w3_mlp_simclrhn_probe3,1,433,NaN,clock,clock,1-3-10,0433_eid_dnn_1-3-10_clock_10_n04548280_2937.png,n04548280_2937.png,1.0,0.9722163,0.47512156,0.35149908
alexnet_w3_mlp_simclrhn_probe3,1,434,NaN,oven,bear,32-3-10,0434_eid_dnn_32-3-10_bear_10_n02134418_5849.png,n02134418_5849.png,0.0,0.4021421,0.4395009,-0.026416654
alexnet_w3_mlp_simclrhn_probe3,1,435,NaN,oven,bottle,128-3-10,0435_eid_dnn_128-3-10_bottle_10_n04560804_2521.png,n04560804_2521.png,0.0,0.11499915,0.18781775,-0.051490527
alexnet_w3_mlp_simclrhn_probe3,1,436,NaN,cat,car,8-3-10,0436_eid_dnn_8-3-10_car_10_n04285008_11600.png,n04285008_11600.png,0.0,-0.7641733,0.7063301,-1.039803
alexnet_w3_mlp_simclrhn_probe3,1,437,NaN,knife,knife,2-3-10,0437_eid_dnn_2-3-10_knife_10_n03041632_79317.png,n03041632_79317.png,1.0,1.8233967,0.08645809,1.228201
alexnet_w3_mlp_simclrhn_probe3,1,438,NaN,bear,truck,32-3-10,0438_eid_dnn_32-3-10_truck_10_n03417042_6467.png,n03417042_6467.png,0.0,-0.25838318,0.9651749,-0.8651862
alexnet_w3_mlp_simclrhn_probe3,1,439,NaN,knife,airplane,64-3-10,0439_eid_dnn_64-3-10_airplane_10_n02690373_303.png,n02690373_303.png,0.0,-0.022603896,0.17041624,-0.13648584
alexnet_w3_mlp_simclrhn_probe3,1,440,NaN,oven,chair,64-3-10,0440_eid_dnn_64-3-10_chair_10_n04099969_2354.png,n04099969_2354.png,0.0,0.096896306,0.44705582,-0.24760018
alexnet_w3_mlp_simclrhn_probe3,1,441,NaN,elephant,clock,128-3-10,0441_eid_dnn_128-3-10_clock_10_n04548280_377.png,n04548280_377.png,0.0,-0.08363748,0.20017254,-0.200684
alexnet_w3_mlp_simclrhn_probe3,1,442,NaN,oven,bicycle,32-3-10,0442_eid_dnn_32-3-10_bicycle_10_n03792782_11597.png,n03792782_11597.png,0.0,-0.0021228716,0.16496211,-0.11814693
alexnet_w3_mlp_simclrhn_probe3,1,443,NaN,bottle,bottle,2-3-10,0443_eid_dnn_2-3-10_bottle_10_n04579145_215.png,n04579145_215.png,1.0,4.35926,0.3572163,2.8298724
alexnet_w3_mlp_simclrhn_probe3,1,444,NaN,car,car,4-3-10,0444_eid_dnn_4-3-10_car_10_n02814533_95669.png,n02814533_95669.png,1.0,4.0667253,1.4954758,1.818148
alexnet_w3_mlp_simclrhn_probe3,1,445,NaN,oven,chair,32-3-10,0445_eid_dnn_32-3-10_chair_10_n04429376_51025.png,n04429376_51025.png,0.0,0.014327608,0.70516706,-0.4884973
alexnet_w3_mlp_simclrhn_probe3,1,446,NaN,cat,cat,4-3-10,0446_eid_dnn_4-3-10_cat_10_n02123045_2757.png,n02123045_2757.png,1.0,5.175723,1.4201115,2.6556184
alexnet_w3_mlp_simclrhn_probe3,1,447,NaN,bottle,bottle,4-3-10,0447_eid_dnn_4-3-10_bottle_10_n03937543_2135.png,n03937543_2135.png,1.0,1.1573269,0.30348402,0.6037581
alexnet_w3_mlp_simclrhn_probe3,1,448,NaN,bird,bird,2-3-10,0448_eid_dnn_2-3-10_bird_10_n01855032_7457.png,n01855032_7457.png,1.0,2.1363401,1.1416757,0.703334
alexnet_w3_mlp_simclrhn_probe3,1,449,NaN,oven,car,16-3-10,0449_eid_dnn_16-3-10_car_10_n02814533_24935.png,n02814533_24935.png,0.0,-0.48292276,0.8846898,-0.96704817
alexnet_w3_mlp_simclrhn_probe3,1,450,NaN,oven,keyboard,4-3-10,0450_eid_dnn_4-3-10_keyboard_10_n04505470_1371.png,n04505470_1371.png,0.0,0.69286007,2.7515843,-1.4557378
alexnet_w3_mlp_simclrhn_probe3,1,451,NaN,bear,dog,16-3-10,0451_eid_dnn_16-3-10_dog_10_n02099267_2379.png,n02099267_2379.png,0.0,-0.015259887,1.2100899,-0.8664532
alexnet_w3_mlp_simclrhn_probe3,1,452,NaN,cat,cat,8-3-10,0452_eid_dnn_8-3-10_cat_10_n02123394_8009.png,n02123394_8009.png,1.0,1.4335523,0.22107531,0.8573507
alexnet_w3_mlp_simclrhn_probe3,1,453,NaN,keyboard,keyboard,2-3-10,0453_eid_dnn_2-3-10_keyboard_10_n03085013_29042.png,n03085013_29042.png,1.0,2.6617,0.9180444,1.2329508
alexnet_w3_mlp_simclrhn_probe3,1,454,NaN,oven,airplane,128-3-10,0454_eid_dnn_128-3-10_airplane_10_n02690373_2131.png,n02690373_2131.png,0.0,-0.22036341,0.56382847,-0.5545074
alexnet_w3_mlp_simclrhn_probe3,1,455,NaN,cat,car,8-3-10,0455_eid_dnn_8-3-10_car_10_n03100240_327.png,n03100240_327.png,0.0,-0.8429324,0.5617977,-0.9932942
alexnet_w3_mlp_simclrhn_probe3,1,456,NaN,elephant,elephant,2-3-10,0456_eid_dnn_2-3-10_elephant_10_n02504458_4163.png,n02504458_4163.png,1.0,12.433571,4.447442,5.647046
alexnet_w3_mlp_simclrhn_probe3,1,457,NaN,knife,knife,1-3-10,0457_eid_dnn_1-3-10_knife_10_n03041632_9635.png,n03041632_9635.png,1.0,1.3616853,0.2579869,0.78043264
alexnet_w3_mlp_simclrhn_probe3,1,458,NaN,bear,airplane,16-3-10,0458_eid_dnn_16-3-10_airplane_10_n02690373_1044.png,n02690373_1044.png,0.0,9.870529e-05,0.9997044,-0.706828
alexnet_w3_mlp_simclrhn_probe3,1,459,NaN,bear,bottle,16-3-10,0459_eid_dnn_16-3-10_bottle_10_n04560804_5441.png,n04560804_5441.png,0.0,0.049843997,0.2673233,-0.15378109
alexnet_w3_mlp_simclrhn_probe3,1,460,NaN,cat,cat,8-3-10,0460_eid_dnn_8-3-10_cat_10_n02123159_988.png,n02123159_988.png,1.0,1.0731945,0.3662318,0.49989814
alexnet_w3_mlp_simclrhn_probe3,1,461,NaN,oven,bird,64-3-10,0461_eid_dnn_64-3-10_bird_10_n01843383_4667.png,n01843383_4667.png,0.0,-0.08028914,0.6074153,-0.48628047
alexnet_w3_mlp_simclrhn_probe3,1,462,NaN,airplane,airplane,2-3-10,0462_eid_dnn_2-3-10_airplane_10_n02690373_6978.png,n02690373_6978.png,1.0,2.9650376,0.92904025,1.4396676
alexnet_w3_mlp_simclrhn_probe3,1,463,NaN,keyboard,chair,128-3-10,0463_eid_dnn_128-3-10_chair_10_n04099969_5901.png,n04099969_5901.png,0.0,0.02007918,0.43115598,-0.2906752
alexnet_w3_mlp_simclrhn_probe3,1,464,NaN,bear,truck,8-3-10,0464_eid_dnn_8-3-10_truck_10_n03417042_29849.png,n03417042_29849.png,0.0,-0.37457862,1.1550109,-1.0815831
alexnet_w3_mlp_simclrhn_probe3,1,465,NaN,airplane,airplane,1-3-10,0465_eid_dnn_1-3-10_airplane_10_n02690373_427.png,n02690373_427.png,1.0,1.9941527,0.12130934,1.3243002
alexnet_w3_mlp_simclrhn_probe3,1,466,NaN,bottle,bottle,4-3-10,0466_eid_dnn_4-3-10_bottle_10_n03983396_2305.png,n03983396_2305.png,1.0,2.8490624,2.439221,0.28980175
alexnet_w3_mlp_simclrhn_probe3,1,467,NaN,oven,oven,64-3-10,0467_eid_dnn_64-3-10_oven_10_n04111531_15296.png,n04111531_15296.png,1.0,0.42703,0.092364654,0.23664415
alexnet_w3_mlp_simclrhn_probe3,1,468,NaN,cat,cat,4-3-10,0468_eid_dnn_4-3-10_cat_10_n02123159_6728.png,n02123159_6728.png,1.0,1.3308139,0.5712085,0.53712213
alexnet_w3_mlp_simclrhn_probe3,1,469,NaN,elephant,elephant,4-3-10,0469_eid_dnn_4-3-10_elephant_10_n02504458_12449.png,n02504458_12449.png,1.0,5.9088893,2.9437032,2.0967033
alexnet_w3_mlp_simclrhn_probe3,1,470,NaN,oven,elephant,128-3-10,0470_eid_dnn_128-3-10_elephant_10_n02504458_12165.png,n02504458_12165.png,0.0,0.2727461,0.739109,-0.32976836
alexnet_w3_mlp_simclrhn_probe3,1,471,NaN,bear,airplane,8-3-10,0471_eid_dnn_8-3-10_airplane_10_n02690373_5010.png,n02690373_5010.png,0.0,-0.24261266,0.6221458,-0.61147654
alexnet_w3_mlp_simclrhn_probe3,1,472,NaN,oven,dog,64-3-10,0472_eid_dnn_64-3-10_dog_10_n02100236_4549.png,n02100236_4549.png,0.0,-0.0489843,0.2672265,-0.22359478
alexnet_w3_mlp_simclrhn_probe3,1,473,NaN,boat,boat,4-3-10,0473_eid_dnn_4-3-10_boat_10_n03344393_4289.png,n03344393_4289.png,1.0,3.0748408,1.9280984,0.8108693
alexnet_w3_mlp_simclrhn_probe3,1,474,NaN,oven,chair,64-3-10,0474_eid_dnn_64-3-10_chair_10_n04099969_48169.png,n04099969_48169.png,0.0,0.05400428,0.5047461,-0.31872258
alexnet_w3_mlp_simclrhn_probe3,1,475,NaN,airplane,airplane,4-3-10,0475_eid_dnn_4-3-10_airplane_10_n02690373_1996.png,n02690373_1996.png,1.0,2.3386726,0.31492162,1.4310081
alexnet_w3_mlp_simclrhn_probe3,1,476,NaN,oven,truck,128-3-10,0476_eid_dnn_128-3-10_truck_10_n03417042_28078.png,n03417042_28078.png,0.0,-0.28535354,0.3989091,-0.48384675
alexnet_w3_mlp_simclrhn_probe3,1,477,NaN,oven,truck,8-3-10,0477_eid_dnn_8-3-10_truck_10_n04467665_3098.png,n04467665_3098.png,0.0,0.034818344,1.3262042,-0.91314775
alexnet_w3_mlp_simclrhn_probe3,1,478,NaN,elephant,elephant,4-3-10,0478_eid_dnn_4-3-10_elephant_10_n02504458_847.png,n02504458_847.png,1.0,5.938659,3.8030753,1.5100858
alexnet_w3_mlp_simclrhn_probe3,1,479,NaN,oven,bicycle,8-3-10,0479_eid_dnn_8-3-10_bicycle_10_n03792782_5880.png,n03792782_5880.png,0.0,-0.28834808,0.8774793,-0.8243645
alexnet_w3_mlp_simclrhn_probe3,1,480,NaN,oven,bear,128-3-10,0480_eid_dnn_128-3-10_bear_10_n02132136_30976.png,n02132136_30976.png,0.0,0.080134474,0.53132844,-0.31904233
alexnet_w3_mlp_simclrhn_probe3,1,481,NaN,oven,chair,64-3-10,0481_eid_dnn_64-3-10_chair_10_n02791124_2057.png,n02791124_2057.png,0.0,0.010042019,0.41778013,-0.2883144
alexnet_w3_mlp_simclrhn_probe3,1,482,NaN,oven,keyboard,128-3-10,0482_eid_dnn_128-3-10_keyboard_10_n03085013_7286.png,n03085013_7286.png,0.0,0.14832017,0.3205406,-0.12177824
alexnet_w3_mlp_simclrhn_probe3,1,483,NaN,oven,clock,32-3-10,0483_eid_dnn_32-3-10_clock_10_n04548280_1323.png,n04548280_1323.png,0.0,0.08396403,0.6700878,-0.4144521
alexnet_w3_mlp_simclrhn_probe3,1,484,NaN,elephant,bottle,128-3-10,0484_eid_dnn_128-3-10_bottle_10_n03983396_18508.png,n03983396_18508.png,0.0,0.108999655,0.16160476,-0.03719743
alexnet_w3_mlp_simclrhn_probe3,1,485,NaN,cat,bottle,8-3-10,0485_eid_dnn_8-3-10_bottle_10_n03983396_3880.png,n03983396_3880.png,0.0,0.20775045,0.63167953,-0.29976314
alexnet_w3_mlp_simclrhn_probe3,1,486,NaN,oven,dog,128-3-10,0486_eid_dnn_128-3-10_dog_10_n02095570_601.png,n02095570_601.png,0.0,-0.092280924,0.25122678,-0.24289663
alexnet_w3_mlp_simclrhn_probe3,1,487,NaN,oven,bird,32-3-10,0487_eid_dnn_32-3-10_bird_10_n01797886_21510.png,n01797886_21510.png,0.0,-0.17966186,0.51530707,-0.49141726
alexnet_w3_mlp_simclrhn_probe3,1,488,NaN,chair,chair,1-3-10,0488_eid_dnn_1-3-10_chair_10_n04099969_9425.png,n04099969_9425.png,1.0,3.149983,2.228517,0.6515748
alexnet_w3_mlp_simclrhn_probe3,1,489,NaN,cat,keyboard,8-3-10,0489_eid_dnn_8-3-10_keyboard_10_n04505470_4228.png,n04505470_4228.png,0.0,-0.6474062,0.76844805,-1.0011601
alexnet_w3_mlp_simclrhn_probe3,1,490,NaN,oven,elephant,32-3-10,0490_eid_dnn_32-3-10_elephant_10_n02504013_7553.png,n02504013_7553.png,0.0,0.12274313,0.5159427,-0.2780341
alexnet_w3_mlp_simclrhn_probe3,1,491,NaN,oven,cat,64-3-10,0491_eid_dnn_64-3-10_cat_10_n02125311_8090.png,n02125311_8090.png,0.0,-0.11863322,0.5133407,-0.44687304
alexnet_w3_mlp_simclrhn_probe3,1,492,NaN,oven,keyboard,8-3-10,0492_eid_dnn_8-3-10_keyboard_10_n04505470_10041.png,n04505470_10041.png,0.0,-0.5033148,1.5642959,-1.4620216
alexnet_w3_mlp_simclrhn_probe3,1,493,NaN,oven,bicycle,4-3-10,0493_eid_dnn_4-3-10_bicycle_10_n03792782_1833.png,n03792782_1833.png,0.0,0.77058285,1.0734941,-0.21419059
alexnet_w3_mlp_simclrhn_probe3,1,494,NaN,oven,bottle,4-3-10,0494_eid_dnn_4-3-10_bottle_10_n04557648_11642.png,n04557648_11642.png,0.0,0.4288223,1.0585389,-0.44527692
alexnet_w3_mlp_simclrhn_probe3,1,495,NaN,keyboard,car,128-3-10,0495_eid_dnn_128-3-10_car_10_n03100240_7219.png,n03100240_7219.png,0.0,-0.46547636,0.18819185,-0.46221325
alexnet_w3_mlp_simclrhn_probe3,1,496,NaN,car,truck,1-3-10,0496_eid_dnn_1-3-10_truck_10_n03796401_9642.png,n03796401_9642.png,0.0,2.446158,5.84722,-2.4049141
alexnet_w3_mlp_simclrhn_probe3,1,497,NaN,oven,cat,1-3-10,0497_eid_dnn_1-3-10_cat_10_n02125311_13348.png,n02125311_13348.png,0.0,0.24465305,1.285138,-0.7357339
alexnet_w3_mlp_simclrhn_probe3,1,498,NaN,bicycle,bottle,128-3-10,0498_eid_dnn_128-3-10_bottle_10_n04560804_5540.png,n04560804_5540.png,0.0,0.07644617,0.08771069,-0.007965222
alexnet_w3_mlp_simclrhn_probe3,1,499,NaN,bottle,bottle,4-3-10,0499_eid_dnn_4-3-10_bottle_10_n03983396_9604.png,n03983396_9604.png,1.0,6.166799,0.9177246,3.711656
alexnet_w3_mlp_simclrhn_probe3,1,500,NaN,oven,truck,32-3-10,0500_eid_dnn_32-3-10_truck_10_n03417042_5180.png,n03417042_5180.png,0.0,-0.30943534,0.68740124,-0.70486987
alexnet_w3_mlp_simclrhn_probe3,1,501,NaN,oven,dog,16-3-10,0501_eid_dnn_16-3-10_dog_10_n02109525_3364.png,n02109525_3364.png,0.0,0.056800693,0.5389859,-0.34095645
alexnet_w3_mlp_simclrhn_probe3,1,502,NaN,oven,clock,2-3-10,0502_eid_dnn_2-3-10_clock_10_n04548280_353.png,n04548280_353.png,0.0,0.645899,1.3486885,-0.49694723
alexnet_w3_mlp_simclrhn_probe3,1,503,NaN,dog,dog,1-3-10,0503_eid_dnn_1-3-10_dog_10_n02111129_4423.png,n02111129_4423.png,1.0,1.4084418,1.0909488,0.22450143
alexnet_w3_mlp_simclrhn_probe3,1,504,NaN,bear,dog,16-3-10,0504_eid_dnn_16-3-10_dog_10_n02108000_1538.png,n02108000_1538.png,0.0,-0.012687901,0.5424932,-0.39257237
alexnet_w3_mlp_simclrhn_probe3,1,505,NaN,bear,keyboard,16-3-10,0505_eid_dnn_16-3-10_keyboard_10_n03085013_3439.png,n03085013_3439.png,0.0,-0.263478,0.7195237,-0.6950872
alexnet_w3_mlp_simclrhn_probe3,1,506,NaN,bear,truck,8-3-10,0506_eid_dnn_8-3-10_truck_10_n03417042_4016.png,n03417042_4016.png,0.0,-0.11781001,0.7433728,-0.60894823
alexnet_w3_mlp_simclrhn_probe3,1,507,NaN,oven,knife,32-3-10,0507_eid_dnn_32-3-10_knife_10_n03041632_39883.png,n03041632_39883.png,0.0,0.07584298,0.7455738,-0.47357124
alexnet_w3_mlp_simclrhn_probe3,1,508,NaN,bear,bear,16-3-10,0508_eid_dnn_16-3-10_bear_10_n02132136_21181.png,n02132136_21181.png,1.0,0.5595393,0.4551741,0.07379736
alexnet_w3_mlp_simclrhn_probe3,1,509,NaN,elephant,elephant,8-3-10,0509_eid_dnn_8-3-10_elephant_10_n02504013_718.png,n02504013_718.png,1.0,2.0319254,1.6428826,0.27509484
alexnet_w3_mlp_simclrhn_probe3,1,510,NaN,oven,oven,2-3-10,0510_eid_dnn_2-3-10_oven_10_n04111531_4146.png,n04111531_4146.png,1.0,3.7142978,1.4087489,1.6302693
alexnet_w3_mlp_simclrhn_probe3,1,511,NaN,bear,airplane,8-3-10,0511_eid_dnn_8-3-10_airplane_10_n02690373_10769.png,n02690373_10769.png,0.0,0.4082026,0.44321114,-0.024754783
alexnet_w3_mlp_simclrhn_probe3,1,512,NaN,oven,dog,16-3-10,0512_eid_dnn_16-3-10_dog_10_n02109525_4516.png,n02109525_4516.png,0.0,0.44752586,0.51118755,-0.04501562
alexnet_w3_mlp_simclrhn_probe3,1,513,NaN,elephant,boat,4-3-10,0513_eid_dnn_4-3-10_boat_10_n02951358_12333.png,n02951358_12333.png,0.0,0.5975942,1.4118197,-0.5757444
alexnet_w3_mlp_simclrhn_probe3,1,514,NaN,oven,chair,8-3-10,0514_eid_dnn_8-3-10_chair_10_n04099969_20421.png,n04099969_20421.png,0.0,-0.124443166,1.0178939,-0.80775434
alexnet_w3_mlp_simclrhn_probe3,1,515,NaN,cat,knife,4-3-10,0515_eid_dnn_4-3-10_knife_10_n03041632_21165.png,n03041632_21165.png,0.0,0.6315016,0.71503896,-0.05906982
alexnet_w3_mlp_simclrhn_probe3,1,516,NaN,bicycle,bicycle,1-3-10,0516_eid_dnn_1-3-10_bicycle_10_n02835271_21439.png,n02835271_21439.png,1.0,3.3095102,0.8498769,1.7392235
alexnet_w3_mlp_simclrhn_probe3,1,517,NaN,boat,boat,1-3-10,0517_eid_dnn_1-3-10_boat_10_n04273569_24526.png,n04273569_24526.png,1.0,3.0502903,1.8367878,0.85807586
alexnet_w3_mlp_simclrhn_probe3,1,518,NaN,bear,bottle,32-3-10,0518_eid_dnn_32-3-10_bottle_10_n04579145_2276.png,n04579145_2276.png,0.0,0.04708841,0.7187206,-0.4749157
alexnet_w3_mlp_simclrhn_probe3,1,519,NaN,bear,bear,8-3-10,0519_eid_dnn_8-3-10_bear_10_n02134418_1642.png,n02134418_1642.png,1.0,1.0434358,0.5481746,0.35020256
alexnet_w3_mlp_simclrhn_probe3,1,520,NaN,bicycle,bicycle,1-3-10,0520_eid_dnn_1-3-10_bicycle_10_n02835271_15468.png,n02835271_15468.png,1.0,11.172726,1.1702228,7.0728374
alexnet_w3_mlp_simclrhn_probe3,1,521,NaN,oven,keyboard,64-3-10,0521_eid_dnn_64-3-10_keyboard_10_n03085013_26532.png,n03085013_26532.png,0.0,-0.11760555,0.17175947,-0.20461197
alexnet_w3_mlp_simclrhn_probe3,1,522,NaN,oven,clock,64-3-10,0522_eid_dnn_64-3-10_clock_10_n03196217_6809.png,n03196217_6809.png,0.0,0.037637547,0.49334955,-0.32223707
alexnet_w3_mlp_simclrhn_probe3,1,523,NaN,oven,bear,64-3-10,0523_eid_dnn_64-3-10_bear_10_n02134418_4384.png,n02134418_4384.png,0.0,0.3620392,0.37358412,-0.008163487
alexnet_w3_mlp_simclrhn_probe3,1,524,NaN,elephant,dog,4-3-10,0524_eid_dnn_4-3-10_dog_10_n02086240_1183.png,n02086240_1183.png,0.0,0.063473016,0.90656024,-0.59615266
alexnet_w3_mlp_simclrhn_probe3,1,525,NaN,chair,chair,1-3-10,0525_eid_dnn_1-3-10_chair_10_n04429376_294.png,n04429376_294.png,1.0,1.2784861,0.11146885,0.8252058
alexnet_w3_mlp_simclrhn_probe3,1,526,NaN,oven,clock,64-3-10,0526_eid_dnn_64-3-10_clock_10_n02708093_4893.png,n02708093_4893.png,0.0,-0.056893885,0.53754866,-0.42033437
alexnet_w3_mlp_simclrhn_probe3,1,527,NaN,oven,keyboard,64-3-10,0527_eid_dnn_64-3-10_keyboard_10_n03085013_3098.png,n03085013_3098.png,0.0,-0.13554938,0.4277471,-0.39831078
alexnet_w3_mlp_simclrhn_probe3,1,528,NaN,oven,cat,16-3-10,0528_eid_dnn_16-3-10_cat_10_n02125311_22073.png,n02125311_22073.png,0.0,-0.16473167,0.6263113,-0.55935186
alexnet_w3_mlp_simclrhn_probe3,1,529,NaN,oven,bird,2-3-10,0529_eid_dnn_2-3-10_bird_10_n01558993_869.png,n01558993_869.png,0.0,-0.039248995,0.59227115,-0.4465522
alexnet_w3_mlp_simclrhn_probe3,1,530,NaN,bird,bird,1-3-10,0530_eid_dnn_1-3-10_bird_10_n01817953_8025.png,n01817953_8025.png,1.0,3.4404883,1.0083624,1.7197728
alexnet_w3_mlp_simclrhn_probe3,1,531,NaN,oven,chair,2-3-10,0531_eid_dnn_2-3-10_chair_10_n04099969_24235.png,n04099969_24235.png,0.0,0.870752,2.5565996,-1.1920743
alexnet_w3_mlp_simclrhn_probe3,1,532,NaN,oven,knife,128-3-10,0532_eid_dnn_128-3-10_knife_10_n03041632_1201.png,n03041632_1201.png,0.0,-0.02685494,0.28370708,-0.21960051
alexnet_w3_mlp_simclrhn_probe3,1,533,NaN,oven,bicycle,4-3-10,0533_eid_dnn_4-3-10_bicycle_10_n03792782_16212.png,n03792782_16212.png,0.0,-0.20235975,1.3985469,-1.132012
alexnet_w3_mlp_simclrhn_probe3,1,534,NaN,oven,oven,4-3-10,0534_eid_dnn_4-3-10_oven_10_n04111531_11655.png,n04111531_11655.png,1.0,1.2600039,0.5801336,0.4807409
alexnet_w3_mlp_simclrhn_probe3,1,535,NaN,bear,bicycle,16-3-10,0535_eid_dnn_16-3-10_bicycle_10_n02835271_5152.png,n02835271_5152.png,0.0,-0.066415295,1.3654449,-1.0124781
alexnet_w3_mlp_simclrhn_probe3,1,536,NaN,bear,bear,16-3-10,0536_eid_dnn_16-3-10_bear_10_n02132136_19290.png,n02132136_19290.png,1.0,0.5205201,0.21930732,0.21298961
alexnet_w3_mlp_simclrhn_probe3,1,537,NaN,oven,car,32-3-10,0537_eid_dnn_32-3-10_car_10_n03100240_6103.png,n03100240_6103.png,0.0,-0.288386,0.6592831,-0.67010325
alexnet_w3_mlp_simclrhn_probe3,1,538,NaN,oven,airplane,16-3-10,0538_eid_dnn_16-3-10_airplane_10_n02690373_5714.png,n02690373_5714.png,0.0,-0.03269678,0.4109408,-0.31369916
alexnet_w3_mlp_simclrhn_probe3,1,539,NaN,clock,chair,1-3-10,0539_eid_dnn_1-3-10_chair_10_n04429376_2915.png,n04429376_2915.png,0.0,0.6609691,1.0520747,-0.27655342
alexnet_w3_mlp_simclrhn_probe3,1,540,NaN,oven,clock,64-3-10,0540_eid_dnn_64-3-10_clock_10_n02708093_7827.png,n02708093_7827.png,0.0,-0.0055347756,0.52227354,-0.37321684
alexnet_w3_mlp_simclrhn_probe3,1,541,NaN,truck,truck,2-3-10,0541_eid_dnn_2-3-10_truck_10_n03417042_6247.png,n03417042_6247.png,1.0,1.847026,0.7646576,0.76535004
alexnet_w3_mlp_simclrhn_probe3,1,542,NaN,oven,elephant,32-3-10,0542_eid_dnn_32-3-10_elephant_10_n02504013_947.png,n02504013_947.png,0.0,0.05494018,0.6537415,-0.42341647
alexnet_w3_mlp_simclrhn_probe3,1,543,NaN,truck,truck,1-3-10,0543_eid_dnn_1-3-10_truck_10_n03417042_2074.png,n03417042_2074.png,1.0,7.193237,2.292001,3.465697
alexnet_w3_mlp_simclrhn_probe3,1,544,NaN,bear,airplane,8-3-10,0544_eid_dnn_8-3-10_airplane_10_n02690373_5221.png,n02690373_5221.png,0.0,-0.2753017,0.6360877,-0.64444965
alexnet_w3_mlp_simclrhn_probe3,1,545,NaN,oven,oven,4-3-10,0545_eid_dnn_4-3-10_oven_10_n04111531_6629.png,n04111531_6629.png,1.0,1.1232736,0.58256483,0.38233885
alexnet_w3_mlp_simclrhn_probe3,1,546,NaN,knife,knife,1-3-10,0546_eid_dnn_1-3-10_knife_10_n03041632_36277.png,n03041632_36277.png,1.0,1.2038542,0.6990121,0.35697728
alexnet_w3_mlp_simclrhn_probe3,1,547,NaN,oven,cat,64-3-10,0547_eid_dnn_64-3-10_cat_10_n02123597_4700.png,n02123597_4700.png,0.0,-0.14554945,0.33086804,-0.33687803
alexnet_w3_mlp_simclrhn_probe3,1,548,NaN,bear,airplane,16-3-10,0548_eid_dnn_16-3-10_airplane_10_n02690373_20042.png,n02690373_20042.png,0.0,0.15818049,0.79706585,-0.4517602
alexnet_w3_mlp_simclrhn_probe3,1,549,NaN,oven,chair,32-3-10,0549_eid_dnn_32-3-10_chair_10_n02791124_15539.png,n02791124_15539.png,0.0,0.048581906,0.7005527,-0.461013
alexnet_w3_mlp_simclrhn_probe3,1,550,NaN,cat,cat,1-3-10,0550_eid_dnn_1-3-10_cat_10_n02123394_5700.png,n02123394_5700.png,1.0,1.5968369,0.89454496,0.4965954
alexnet_w3_mlp_simclrhn_probe3,1,551,NaN,car,car,4-3-10,0551_eid_dnn_4-3-10_car_10_n04285008_13595.png,n04285008_13595.png,1.0,3.1789005,0.5957821,1.8265406
alexnet_w3_mlp_simclrhn_probe3,1,552,NaN,oven,chair,8-3-10,0552_eid_dnn_8-3-10_chair_10_n02791124_2282.png,n02791124_2282.png,0.0,-0.56211174,1.0496602,-1.1396949
alexnet_w3_mlp_simclrhn_probe3,1,553,NaN,dog,dog,2-3-10,0553_eid_dnn_2-3-10_dog_10_n02100877_3973.png,n02100877_3973.png,1.0,0.32638228,0.2972738,0.020582793
alexnet_w3_mlp_simclrhn_probe3,1,554,NaN,oven,truck,64-3-10,0554_eid_dnn_64-3-10_truck_10_n03417042_12297.png,n03417042_12297.png,0.0,-0.2580859,0.65910494,-0.6485519
alexnet_w3_mlp_simclrhn_probe3,1,555,NaN,bear,elephant,8-3-10,0555_eid_dnn_8-3-10_elephant_10_n02504013_6303.png,n02504013_6303.png,0.0,0.6168938,0.7558005,-0.09822184
alexnet_w3_mlp_simclrhn_probe3,1,556,NaN,bear,car,8-3-10,0556_eid_dnn_8-3-10_car_10_n02814533_43990.png,n02814533_43990.png,0.0,-1.1312652,0.7346978,-1.3194351
alexnet_w3_mlp_simclrhn_probe3,1,557,NaN,bear,truck,16-3-10,0557_eid_dnn_16-3-10_truck_10_n04467665_58456.png,n04467665_58456.png,0.0,-0.27667153,1.191812,-1.0383747
alexnet_w3_mlp_simclrhn_probe3,1,558,NaN,cat,dog,4-3-10,0558_eid_dnn_4-3-10_dog_10_n02098105_526.png,n02098105_526.png,0.0,0.48889437,0.6168994,-0.09051321
alexnet_w3_mlp_simclrhn_probe3,1,559,NaN,bird,bird,2-3-10,0559_eid_dnn_2-3-10_bird_10_n02037110_27907.png,n02037110_27907.png,1.0,2.0318613,0.14343229,1.335321
alexnet_w3_mlp_simclrhn_probe3,1,560,NaN,oven,keyboard,64-3-10,0560_eid_dnn_64-3-10_keyboard_10_n03085013_20849.png,n03085013_20849.png,0.0,-0.11241382,0.23613265,-0.24645957
alexnet_w3_mlp_simclrhn_probe3,1,561,NaN,chair,chair,1-3-10,0561_eid_dnn_1-3-10_chair_10_n03376595_12524.png,n03376595_12524.png,1.0,3.7986107,1.0385792,1.951637
alexnet_w3_mlp_simclrhn_probe3,1,562,NaN,oven,bird,64-3-10,0562_eid_dnn_64-3-10_bird_10_n02056570_27055.png,n02056570_27055.png,0.0,-0.12757923,0.63865525,-0.5418096
alexnet_w3_mlp_simclrhn_probe3,1,563,NaN,bottle,truck,64-3-10,0563_eid_dnn_64-3-10_truck_10_n03417042_4934.png,n03417042_4934.png,0.0,-0.31450585,0.12306706,-0.30941078
alexnet_w3_mlp_simclrhn_probe3,1,564,NaN,bear,knife,16-3-10,0564_eid_dnn_16-3-10_knife_10_n03041632_3210.png,n03041632_3210.png,0.0,0.080514826,0.4813038,-0.28340062
alexnet_w3_mlp_simclrhn_probe3,1,565,NaN,cat,dog,8-3-10,0565_eid_dnn_8-3-10_dog_10_n02096585_2118.png,n02096585_2118.png,0.0,0.64702976,0.68548614,-0.027192768
alexnet_w3_mlp_simclrhn_probe3,1,566,NaN,keyboard,keyboard,1-3-10,0566_eid_dnn_1-3-10_keyboard_10_n03085013_3539.png,n03085013_3539.png,1.0,5.6783514,0.8099486,3.4424808
alexnet_w3_mlp_simclrhn_probe3,1,567,NaN,truck,truck,4-3-10,0567_eid_dnn_4-3-10_truck_10_n03417042_17215.png,n03417042_17215.png,1.0,1.5772666,1.0486399,0.3737955
alexnet_w3_mlp_simclrhn_probe3,1,568,NaN,bear,cat,8-3-10,0568_eid_dnn_8-3-10_cat_10_n02123045_12657.png,n02123045_12657.png,0.0,0.38513422,0.6161238,-0.1633343
alexnet_w3_mlp_simclrhn_probe3,1,569,NaN,oven,knife,64-3-10,0569_eid_dnn_64-3-10_knife_10_n03041632_20576.png,n03041632_20576.png,0.0,0.1578209,0.5164333,-0.25357726
alexnet_w3_mlp_simclrhn_probe3,1,570,NaN,bear,truck,8-3-10,0570_eid_dnn_8-3-10_truck_10_n04467665_23905.png,n04467665_23905.png,0.0,-0.4844579,0.90052104,-0.9793281
alexnet_w3_mlp_simclrhn_probe3,1,571,NaN,elephant,oven,128-3-10,0571_eid_dnn_128-3-10_oven_10_n04111531_9427.png,n04111531_9427.png,0.0,0.052366547,0.14972208,-0.068840764
alexnet_w3_mlp_simclrhn_probe3,1,572,NaN,bear,oven,16-3-10,0572_eid_dnn_16-3-10_oven_10_n04111531_14329.png,n04111531_14329.png,0.0,0.65186507,0.6544878,-0.0018545457
alexnet_w3_mlp_simclrhn_probe3,1,573,NaN,oven,bird,64-3-10,0573_eid_dnn_64-3-10_bird_10_n01614925_19422.png,n01614925_19422.png,0.0,-0.20160899,0.41218922,-0.43402088
alexnet_w3_mlp_simclrhn_probe3,1,574,NaN,oven,bottle,128-3-10,0574_eid_dnn_128-3-10_bottle_10_n02823428_1154.png,n02823428_1154.png,0.0,0.07215793,0.19597667,-0.08755308
alexnet_w3_mlp_simclrhn_probe3,1,575,NaN,bear,dog,4-3-10,0575_eid_dnn_4-3-10_dog_10_n02093859_4797.png,n02093859_4797.png,0.0,0.7292217,1.2452799,-0.36490828
alexnet_w3_mlp_simclrhn_probe3,1,576,NaN,airplane,airplane,1-3-10,0576_eid_dnn_1-3-10_airplane_10_n02690373_2632.png,n02690373_2632.png,1.0,5.2044854,0.7553505,3.1460135
alexnet_w3_mlp_simclrhn_probe3,1,577,NaN,bear,keyboard,32-3-10,0577_eid_dnn_32-3-10_keyboard_10_n03085013_15825.png,n03085013_15825.png,0.0,-0.02998605,0.66476977,-0.49126655
alexnet_w3_mlp_simclrhn_probe3,1,578,NaN,car,car,4-3-10,0578_eid_dnn_4-3-10_car_10_n02814533_52674.png,n02814533_52674.png,1.0,3.3546839,0.45860156,2.0478396
alexnet_w3_mlp_simclrhn_probe3,1,579,NaN,oven,truck,32-3-10,0579_eid_dnn_32-3-10_truck_10_n04467665_32937.png,n04467665_32937.png,0.0,-0.21885274,0.503002,-0.51042837
alexnet_w3_mlp_simclrhn_probe3,1,580,NaN,bird,bird,4-3-10,0580_eid_dnn_4-3-10_bird_10_n01537544_20.png,n01537544_20.png,1.0,0.765861,0.52171296,0.17263871
alexnet_w3_mlp_simclrhn_probe3,1,581,NaN,bear,clock,8-3-10,0581_eid_dnn_8-3-10_clock_10_n03196217_564.png,n03196217_564.png,0.0,0.027376184,0.30920666,-0.19928426
alexnet_w3_mlp_simclrhn_probe3,1,582,NaN,keyboard,knife,1-3-10,0582_eid_dnn_1-3-10_knife_10_n03041632_76163.png,n03041632_76163.png,0.0,0.0075097457,0.8731505,-0.6121005
alexnet_w3_mlp_simclrhn_probe3,1,583,NaN,oven,airplane,32-3-10,0583_eid_dnn_32-3-10_airplane_10_n02690373_8559.png,n02690373_8559.png,0.0,-0.25042692,0.2682869,-0.36678606
alexnet_w3_mlp_simclrhn_probe3,1,584,NaN,keyboard,keyboard,2-3-10,0584_eid_dnn_2-3-10_keyboard_10_n04505470_3941.png,n04505470_3941.png,1.0,11.467343,1.4271991,7.099454
alexnet_w3_mlp_simclrhn_probe3,1,585,NaN,oven,oven,64-3-10,0585_eid_dnn_64-3-10_oven_10_n04111531_9910.png,n04111531_9910.png,1.0,0.43719867,0.23251754,0.14473142
alexnet_w3_mlp_simclrhn_probe3,1,586,NaN,oven,bottle,128-3-10,0586_eid_dnn_128-3-10_bottle_10_n03937543_7191.png,n03937543_7191.png,0.0,0.11981837,0.3485374,-0.16172877
alexnet_w3_mlp_simclrhn_probe3,1,587,NaN,boat,boat,4-3-10,0587_eid_dnn_4-3-10_boat_10_n03662601_14818.png,n03662601_14818.png,1.0,1.0438144,0.5536838,0.3465747
alexnet_w3_mlp_simclrhn_probe3,1,588,NaN,oven,boat,128-3-10,0588_eid_dnn_128-3-10_boat_10_n02951358_588.png,n02951358_588.png,0.0,-0.15958938,0.3416324,-0.35441732
alexnet_w3_mlp_simclrhn_probe3,1,589,NaN,bear,bear,1-3-10,0589_eid_dnn_1-3-10_bear_10_n02133161_2851.png,n02133161_2851.png,1.0,3.9379878,1.1822011,1.9486355
alexnet_w3_mlp_simclrhn_probe3,1,590,NaN,bottle,chair,2-3-10,0590_eid_dnn_2-3-10_chair_10_n03376595_16212.png,n03376595_16212.png,0.0,0.26210767,2.4788268,-1.5674572
alexnet_w3_mlp_simclrhn_probe3,1,591,NaN,bear,boat,8-3-10,0591_eid_dnn_8-3-10_boat_10_n04612504_1613.png,n04612504_1613.png,0.0,0.08589153,0.9082531,-0.58149743
alexnet_w3_mlp_simclrhn_probe3,1,592,NaN,bird,chair,128-3-10,0592_eid_dnn_128-3-10_chair_10_n02791124_3198.png,n02791124_3198.png,0.0,-0.072970144,0.09964705,-0.122058794
alexnet_w3_mlp_simclrhn_probe3,1,593,NaN,bear,knife,16-3-10,0593_eid_dnn_16-3-10_knife_10_n03041632_32785.png,n03041632_32785.png,0.0,0.1721253,0.29295987,-0.085442945
alexnet_w3_mlp_simclrhn_probe3,1,594,NaN,oven,oven,32-3-10,0594_eid_dnn_32-3-10_oven_10_n04111531_22797.png,n04111531_22797.png,1.0,0.73116124,0.665833,0.046194043
alexnet_w3_mlp_simclrhn_probe3,1,595,NaN,oven,oven,128-3-10,0595_eid_dnn_128-3-10_oven_10_n04111531_5077.png,n04111531_5077.png,1.0,0.27305245,0.11826664,0.1094501
alexnet_w3_mlp_simclrhn_probe3,1,596,NaN,bear,bear,1-3-10,0596_eid_dnn_1-3-10_bear_10_n02134418_2569.png,n02134418_2569.png,1.0,2.5648232,1.152401,0.99873334
alexnet_w3_mlp_simclrhn_probe3,1,597,NaN,car,car,1-3-10,0597_eid_dnn_1-3-10_car_10_n03100240_15284.png,n03100240_15284.png,1.0,3.5999076,2.8916929,0.50078344
alexnet_w3_mlp_simclrhn_probe3,1,598,NaN,keyboard,keyboard,2-3-10,0598_eid_dnn_2-3-10_keyboard_10_n04505470_4791.png,n04505470_4791.png,1.0,7.111342,1.7392906,3.798614
alexnet_w3_mlp_simclrhn_probe3,1,599,NaN,oven,bicycle,64-3-10,0599_eid_dnn_64-3-10_bicycle_10_n03792782_551.png,n03792782_551.png,0.0,-0.028974235,0.39975145,-0.30315486
alexnet_w3_mlp_simclrhn_probe3,1,600,NaN,bottle,bottle,1-3-10,0600_eid_dnn_1-3-10_bottle_10_n03937543_2999.png,n03937543_2999.png,1.0,2.7031767,1.4211391,0.90653753
alexnet_w3_mlp_simclrhn_probe3,1,601,NaN,bear,airplane,16-3-10,0601_eid_dnn_16-3-10_airplane_10_n02690373_7279.png,n02690373_7279.png,0.0,-0.079912506,0.551637,-0.44657293
