subj,session,trial,rt,object_response,category,condition,imagename,filename,is_correct,targ_act,max_nontarg_act,decision_margin
alexnet_w1_mlp_simclrhn_probe2,1,1,NaN,oven,car,64-3-10,0001_eid_dnn_64-3-10_car_10_n04285008_8113.png,n04285008_8113.png,0.0,-4.6543193,0.64462316,-3.7469182
alexnet_w1_mlp_simclrhn_probe2,1,2,NaN,elephant,oven,8-3-10,0002_eid_dnn_8-3-10_oven_10_n04111531_11848.png,n04111531_11848.png,0.0,0.5591884,1.0641222,-0.3570421
alexnet_w1_mlp_simclrhn_probe2,1,3,NaN,oven,truck,8-3-10,0003_eid_dnn_8-3-10_truck_10_n03417042_25458.png,n03417042_25458.png,0.0,-3.3159833,0.036003157,-2.3702123
alexnet_w1_mlp_simclrhn_probe2,1,4,NaN,oven,chair,16-3-10,0004_eid_dnn_16-3-10_chair_10_n03376595_6208.png,n03376595_6208.png,0.0,-3.3423119,0.2527032,-2.5420597
alexnet_w1_mlp_simclrhn_probe2,1,5,NaN,oven,cat,32-3-10,0005_eid_dnn_32-3-10_cat_10_n02123045_12084.png,n02123045_12084.png,0.0,-0.60957044,0.04955249,-0.46607032
alexnet_w1_mlp_simclrhn_probe2,1,6,NaN,keyboard,keyboard,8-3-10,0006_eid_dnn_8-3-10_keyboard_10_n03085013_20884.png,n03085013_20884.png,1.0,-0.041716307,-0.18848291,0.10377966
alexnet_w1_mlp_simclrhn_probe2,1,7,NaN,airplane,airplane,4-3-10,0007_eid_dnn_4-3-10_airplane_10_n02690373_5992.png,n02690373_5992.png,1.0,2.498444,0.9666997,1.0831069
alexnet_w1_mlp_simclrhn_probe2,1,8,NaN,bear,bear,32-3-10,0008_eid_dnn_32-3-10_bear_10_n02132136_6641.png,n02132136_6641.png,1.0,0.35802677,0.16455847,0.13680275
alexnet_w1_mlp_simclrhn_probe2,1,9,NaN,oven,oven,2-3-10,0009_eid_dnn_2-3-10_oven_10_n04111531_2797.png,n04111531_2797.png,1.0,1.2610632,-1.3641679,1.8563188
alexnet_w1_mlp_simclrhn_probe2,1,10,NaN,airplane,airplane,2-3-10,0010_eid_dnn_2-3-10_airplane_10_n02690373_7457.png,n02690373_7457.png,1.0,6.145294,1.5116384,3.2764893
alexnet_w1_mlp_simclrhn_probe2,1,11,NaN,bear,truck,16-3-10,0011_eid_dnn_16-3-10_truck_10_n03796401_2751.png,n03796401_2751.png,0.0,-5.134507,-0.29372683,-3.4229486
alexnet_w1_mlp_simclrhn_probe2,1,12,NaN,elephant,bear,2-3-10,0012_eid_dnn_2-3-10_bear_10_n02134418_860.png,n02134418_860.png,0.0,1.5227659,1.5609596,-0.027007027
alexnet_w1_mlp_simclrhn_probe2,1,13,NaN,knife,knife,4-3-10,0013_eid_dnn_4-3-10_knife_10_n03041632_2058.png,n03041632_2058.png,1.0,1.042449,0.6921839,0.24767482
alexnet_w1_mlp_simclrhn_probe2,1,14,NaN,oven,airplane,32-3-10,0014_eid_dnn_32-3-10_airplane_10_n02690373_10510.png,n02690373_10510.png,0.0,-4.4966106,-0.2140869,-3.0282016
alexnet_w1_mlp_simclrhn_probe2,1,15,NaN,bear,keyboard,64-3-10,0015_eid_dnn_64-3-10_keyboard_10_n03085013_6313.png,n03085013_6313.png,0.0,-3.501334,0.55980814,-2.8716612
alexnet_w1_mlp_simclrhn_probe2,1,16,NaN,airplane,bicycle,4-3-10,0016_eid_dnn_4-3-10_bicycle_10_n02835271_6278.png,n02835271_6278.png,0.0,-1.7690824,0.86874473,-1.8652256
alexnet_w1_mlp_simclrhn_probe2,1,17,NaN,keyboard,keyboard,2-3-10,0017_eid_dnn_2-3-10_keyboard_10_n03085013_24192.png,n03085013_24192.png,1.0,5.1295166,0.3059568,3.4107718
alexnet_w1_mlp_simclrhn_probe2,1,18,NaN,car,car,2-3-10,0018_eid_dnn_2-3-10_car_10_n04285008_8255.png,n04285008_8255.png,1.0,3.2866943,2.166503,0.7920949
alexnet_w1_mlp_simclrhn_probe2,1,19,NaN,airplane,airplane,2-3-10,0019_eid_dnn_2-3-10_airplane_10_n02690373_4591.png,n02690373_4591.png,1.0,1.7614312,0.044765472,1.213866
alexnet_w1_mlp_simclrhn_probe2,1,20,NaN,airplane,airplane,4-3-10,0020_eid_dnn_4-3-10_airplane_10_n02690373_7075.png,n02690373_7075.png,1.0,1.1506897,0.18431544,0.6833298
alexnet_w1_mlp_simclrhn_probe2,1,21,NaN,bicycle,bicycle,4-3-10,0021_eid_dnn_4-3-10_bicycle_10_n02835271_21464.png,n02835271_21464.png,1.0,-1.7688843,-2.2143717,0.31500715
alexnet_w1_mlp_simclrhn_probe2,1,22,NaN,oven,car,64-3-10,0022_eid_dnn_64-3-10_car_10_n03100240_362.png,n03100240_362.png,0.0,-5.3176827,1.1339121,-4.5619664
alexnet_w1_mlp_simclrhn_probe2,1,23,NaN,bear,truck,32-3-10,0023_eid_dnn_32-3-10_truck_10_n04467665_50927.png,n04467665_50927.png,0.0,-3.450482,0.09613169,-2.5078347
alexnet_w1_mlp_simclrhn_probe2,1,24,NaN,oven,car,16-3-10,0024_eid_dnn_16-3-10_car_10_n04285008_3651.png,n04285008_3651.png,0.0,-6.227375,0.29762214,-4.6138697
alexnet_w1_mlp_simclrhn_probe2,1,25,NaN,bottle,bottle,8-3-10,0025_eid_dnn_8-3-10_bottle_10_n04557648_4974.png,n04557648_4974.png,1.0,-0.16976129,-0.8275674,0.46513915
alexnet_w1_mlp_simclrhn_probe2,1,26,NaN,bear,bird,16-3-10,0026_eid_dnn_16-3-10_bird_10_n01537544_23499.png,n01537544_23499.png,0.0,-0.75553,-0.61828876,-0.097044215
alexnet_w1_mlp_simclrhn_probe2,1,27,NaN,boat,boat,1-3-10,0027_eid_dnn_1-3-10_boat_10_n04612504_11387.png,n04612504_11387.png,1.0,1.5291204,-0.37599242,1.3471183
alexnet_w1_mlp_simclrhn_probe2,1,28,NaN,bottle,bottle,4-3-10,0028_eid_dnn_4-3-10_bottle_10_n03983396_4300.png,n03983396_4300.png,1.0,0.52358836,-0.36262533,0.6266477
alexnet_w1_mlp_simclrhn_probe2,1,29,NaN,oven,bottle,64-3-10,0029_eid_dnn_64-3-10_bottle_10_n04591713_6961.png,n04591713_6961.png,0.0,-1.5221564,0.26575676,-1.2642455
alexnet_w1_mlp_simclrhn_probe2,1,30,NaN,oven,clock,128-3-10,0030_eid_dnn_128-3-10_clock_10_n02708093_3361.png,n02708093_3361.png,0.0,-2.4433825,-0.740887,-1.2038462
alexnet_w1_mlp_simclrhn_probe2,1,31,NaN,oven,truck,32-3-10,0031_eid_dnn_32-3-10_truck_10_n03417042_18374.png,n03417042_18374.png,0.0,-4.0465183,0.92626685,-3.51629
alexnet_w1_mlp_simclrhn_probe2,1,32,NaN,oven,knife,64-3-10,0032_eid_dnn_64-3-10_knife_10_n03041632_36280.png,n03041632_36280.png,0.0,-1.5483983,0.05668626,-1.1349661
alexnet_w1_mlp_simclrhn_probe2,1,33,NaN,cat,bird,8-3-10,0033_eid_dnn_8-3-10_bird_10_n01614925_47.png,n01614925_47.png,0.0,-1.1380064,0.23012209,-0.967413
alexnet_w1_mlp_simclrhn_probe2,1,34,NaN,bear,bicycle,8-3-10,0034_eid_dnn_8-3-10_bicycle_10_n02835271_20099.png,n02835271_20099.png,0.0,-2.3368948,0.1981499,-1.7925473
alexnet_w1_mlp_simclrhn_probe2,1,35,NaN,cat,bear,4-3-10,0035_eid_dnn_4-3-10_bear_10_n02134084_12070.png,n02134084_12070.png,0.0,-0.7113407,0.31056368,-0.7225956
alexnet_w1_mlp_simclrhn_probe2,1,36,NaN,oven,bottle,8-3-10,0036_eid_dnn_8-3-10_bottle_10_n02823428_8525.png,n02823428_8525.png,0.0,-1.354964,0.7907907,-1.5172778
alexnet_w1_mlp_simclrhn_probe2,1,37,NaN,oven,truck,32-3-10,0037_eid_dnn_32-3-10_truck_10_n04467665_37953.png,n04467665_37953.png,0.0,-5.2105412,0.8431183,-4.280584
alexnet_w1_mlp_simclrhn_probe2,1,38,NaN,oven,oven,128-3-10,0038_eid_dnn_128-3-10_oven_10_n04111531_4868.png,n04111531_4868.png,1.0,-0.47217876,-1.4437137,0.68697894
alexnet_w1_mlp_simclrhn_probe2,1,39,NaN,oven,boat,32-3-10,0039_eid_dnn_32-3-10_boat_10_n03662601_19840.png,n03662601_19840.png,0.0,-1.5711495,-0.07882209,-1.0552348
alexnet_w1_mlp_simclrhn_probe2,1,40,NaN,oven,truck,8-3-10,0040_eid_dnn_8-3-10_truck_10_n04467665_9331.png,n04467665_9331.png,0.0,-2.0277588,0.36856467,-1.6944566
alexnet_w1_mlp_simclrhn_probe2,1,41,NaN,oven,dog,64-3-10,0041_eid_dnn_64-3-10_dog_10_n02111277_16090.png,n02111277_16090.png,0.0,-1.2453586,0.53728014,-1.260516
alexnet_w1_mlp_simclrhn_probe2,1,42,NaN,oven,bottle,4-3-10,0042_eid_dnn_4-3-10_bottle_10_n02823428_6731.png,n02823428_6731.png,0.0,0.38403633,1.6943679,-0.92654437
alexnet_w1_mlp_simclrhn_probe2,1,43,NaN,bear,elephant,8-3-10,0043_eid_dnn_8-3-10_elephant_10_n02504013_8930.png,n02504013_8930.png,0.0,1.5671407,1.8484548,-0.19891913
alexnet_w1_mlp_simclrhn_probe2,1,44,NaN,car,car,4-3-10,0044_eid_dnn_4-3-10_car_10_n03100240_13673.png,n03100240_13673.png,1.0,0.07573972,-0.24183774,0.22456117
alexnet_w1_mlp_simclrhn_probe2,1,45,NaN,oven,bird,128-3-10,0045_eid_dnn_128-3-10_bird_10_n02018207_6819.png,n02018207_6819.png,0.0,-0.961097,-0.642699,-0.22514139
alexnet_w1_mlp_simclrhn_probe2,1,46,NaN,elephant,elephant,4-3-10,0046_eid_dnn_4-3-10_elephant_10_n02504013_6065.png,n02504013_6065.png,1.0,1.1346972,0.6547301,0.339388
alexnet_w1_mlp_simclrhn_probe2,1,47,NaN,oven,cat,1-3-10,0047_eid_dnn_1-3-10_cat_10_n02123394_384.png,n02123394_384.png,0.0,-1.1145892,-0.19534695,-0.6500024
alexnet_w1_mlp_simclrhn_probe2,1,48,NaN,bear,bicycle,16-3-10,0048_eid_dnn_16-3-10_bicycle_10_n02835271_12608.png,n02835271_12608.png,0.0,-4.651558,0.9034767,-3.9280028
alexnet_w1_mlp_simclrhn_probe2,1,49,NaN,oven,chair,2-3-10,0049_eid_dnn_2-3-10_chair_10_n03376595_13949.png,n03376595_13949.png,0.0,-2.175057,-0.74187374,-1.0134135
alexnet_w1_mlp_simclrhn_probe2,1,50,NaN,oven,airplane,128-3-10,0050_eid_dnn_128-3-10_airplane_10_n02690373_3561.png,n02690373_3561.png,0.0,-4.535448,0.122162074,-3.2934277
alexnet_w1_mlp_simclrhn_probe2,1,51,NaN,oven,bicycle,32-3-10,0051_eid_dnn_32-3-10_bicycle_10_n02835271_8203.png,n02835271_8203.png,0.0,-3.0287755,0.08824946,-2.2040694
alexnet_w1_mlp_simclrhn_probe2,1,52,NaN,bicycle,bicycle,2-3-10,0052_eid_dnn_2-3-10_bicycle_10_n03792782_5665.png,n03792782_5665.png,1.0,4.2986755,-1.9759799,4.4368515
alexnet_w1_mlp_simclrhn_probe2,1,53,NaN,oven,bicycle,128-3-10,0053_eid_dnn_128-3-10_bicycle_10_n02835271_15028.png,n02835271_15028.png,0.0,-1.5559489,-0.38830194,-0.82565105
alexnet_w1_mlp_simclrhn_probe2,1,54,NaN,clock,clock,1-3-10,0054_eid_dnn_1-3-10_clock_10_n04548280_3318.png,n04548280_3318.png,1.0,1.863654,0.19884744,1.177196
alexnet_w1_mlp_simclrhn_probe2,1,55,NaN,oven,cat,128-3-10,0055_eid_dnn_128-3-10_cat_10_n02123045_8784.png,n02123045_8784.png,0.0,-2.4485722,-0.25903752,-1.5482348
alexnet_w1_mlp_simclrhn_probe2,1,56,NaN,oven,knife,128-3-10,0056_eid_dnn_128-3-10_knife_10_n03041632_3247.png,n03041632_3247.png,0.0,-1.6236866,-0.0002162978,-1.1479669
alexnet_w1_mlp_simclrhn_probe2,1,57,NaN,cat,dog,8-3-10,0057_eid_dnn_8-3-10_dog_10_n02110185_11414.png,n02110185_11414.png,0.0,0.27242243,1.6739863,-0.99105537
alexnet_w1_mlp_simclrhn_probe2,1,58,NaN,bear,dog,32-3-10,0058_eid_dnn_32-3-10_dog_10_n02113712_2715.png,n02113712_2715.png,0.0,-0.73973376,0.59690964,-0.94514966
alexnet_w1_mlp_simclrhn_probe2,1,59,NaN,bird,elephant,2-3-10,0059_eid_dnn_2-3-10_elephant_10_n02504458_1210.png,n02504458_1210.png,0.0,-2.3657565,0.13973756,-1.7716519
alexnet_w1_mlp_simclrhn_probe2,1,60,NaN,bear,car,16-3-10,0060_eid_dnn_16-3-10_car_10_n02814533_32337.png,n02814533_32337.png,0.0,-6.8616767,1.2570059,-5.7407756
alexnet_w1_mlp_simclrhn_probe2,1,61,NaN,car,car,4-3-10,0061_eid_dnn_4-3-10_car_10_n02814533_55326.png,n02814533_55326.png,1.0,1.5408274,0.9074766,0.44784665
alexnet_w1_mlp_simclrhn_probe2,1,62,NaN,oven,knife,64-3-10,0062_eid_dnn_64-3-10_knife_10_n03041632_32774.png,n03041632_32774.png,0.0,-1.429924,0.40997577,-1.3010056
alexnet_w1_mlp_simclrhn_probe2,1,63,NaN,bear,bicycle,8-3-10,0063_eid_dnn_8-3-10_bicycle_10_n02835271_11921.png,n02835271_11921.png,0.0,-4.306224,1.6924624,-4.2417116
alexnet_w1_mlp_simclrhn_probe2,1,64,NaN,oven,chair,32-3-10,0064_eid_dnn_32-3-10_chair_10_n03376595_6115.png,n03376595_6115.png,0.0,-3.5686653,0.8391367,-3.1167867
alexnet_w1_mlp_simclrhn_probe2,1,65,NaN,bear,bear,16-3-10,0065_eid_dnn_16-3-10_bear_10_n02133161_79.png,n02133161_79.png,1.0,0.24794109,-0.04826528,0.20944953
alexnet_w1_mlp_simclrhn_probe2,1,66,NaN,boat,boat,1-3-10,0066_eid_dnn_1-3-10_boat_10_n03662601_34796.png,n03662601_34796.png,1.0,3.5195339,0.925377,1.8343458
alexnet_w1_mlp_simclrhn_probe2,1,67,NaN,bird,bird,4-3-10,0067_eid_dnn_4-3-10_bird_10_n02051845_8976.png,n02051845_8976.png,1.0,0.27796504,-1.0185795,0.91679543
alexnet_w1_mlp_simclrhn_probe2,1,68,NaN,elephant,boat,4-3-10,0068_eid_dnn_4-3-10_boat_10_n03344393_7362.png,n03344393_7362.png,0.0,0.52592367,0.8338381,-0.21772839
alexnet_w1_mlp_simclrhn_probe2,1,69,NaN,oven,car,32-3-10,0069_eid_dnn_32-3-10_car_10_n02814533_34289.png,n02814533_34289.png,0.0,-4.72825,0.2155785,-3.4958148
alexnet_w1_mlp_simclrhn_probe2,1,70,NaN,oven,keyboard,16-3-10,0070_eid_dnn_16-3-10_keyboard_10_n03085013_2166.png,n03085013_2166.png,0.0,-5.094486,0.8023279,-4.1696773
alexnet_w1_mlp_simclrhn_probe2,1,71,NaN,bear,bear,2-3-10,0071_eid_dnn_2-3-10_bear_10_n02133161_10167.png,n02133161_10167.png,1.0,4.2696633,3.833109,0.3086906
alexnet_w1_mlp_simclrhn_probe2,1,72,NaN,oven,keyboard,16-3-10,0072_eid_dnn_16-3-10_keyboard_10_n04505470_430.png,n04505470_430.png,0.0,-2.791677,0.14934501,-2.0796165
alexnet_w1_mlp_simclrhn_probe2,1,73,NaN,bird,boat,128-3-10,0073_eid_dnn_128-3-10_boat_10_n03662601_17001.png,n03662601_17001.png,0.0,-3.0496316,-0.7841627,-1.6019284
alexnet_w1_mlp_simclrhn_probe2,1,74,NaN,oven,bear,128-3-10,0074_eid_dnn_128-3-10_bear_10_n02133161_5157.png,n02133161_5157.png,0.0,-1.0924759,-0.6241904,-0.33112785
alexnet_w1_mlp_simclrhn_probe2,1,75,NaN,bear,boat,2-3-10,0075_eid_dnn_2-3-10_boat_10_n02951358_17870.png,n02951358_17870.png,0.0,-2.5582156,0.011527412,-1.8170826
alexnet_w1_mlp_simclrhn_probe2,1,76,NaN,oven,cat,64-3-10,0076_eid_dnn_64-3-10_cat_10_n02123159_1102.png,n02123159_1102.png,0.0,-1.4785881,-0.4853804,-0.7023039
alexnet_w1_mlp_simclrhn_probe2,1,77,NaN,oven,cat,32-3-10,0077_eid_dnn_32-3-10_cat_10_n02123045_4252.png,n02123045_4252.png,0.0,-1.0297836,-0.07197295,-0.6772744
alexnet_w1_mlp_simclrhn_probe2,1,78,NaN,keyboard,keyboard,2-3-10,0078_eid_dnn_2-3-10_keyboard_10_n04505470_4294.png,n04505470_4294.png,1.0,3.06854,-0.11458385,2.2508087
alexnet_w1_mlp_simclrhn_probe2,1,79,NaN,truck,truck,2-3-10,0079_eid_dnn_2-3-10_truck_10_n04467665_1101.png,n04467665_1101.png,1.0,4.84028,2.9457343,1.3396462
alexnet_w1_mlp_simclrhn_probe2,1,80,NaN,oven,airplane,64-3-10,0080_eid_dnn_64-3-10_airplane_10_n02690373_2078.png,n02690373_2078.png,0.0,-2.4253469,0.039093986,-1.7426229
alexnet_w1_mlp_simclrhn_probe2,1,81,NaN,oven,boat,64-3-10,0081_eid_dnn_64-3-10_boat_10_n04612504_5535.png,n04612504_5535.png,0.0,-2.9646146,0.08468838,-2.156183
alexnet_w1_mlp_simclrhn_probe2,1,82,NaN,bear,cat,16-3-10,0082_eid_dnn_16-3-10_cat_10_n02125311_15099.png,n02125311_15099.png,0.0,-0.34301654,0.798234,-0.806986
alexnet_w1_mlp_simclrhn_probe2,1,83,NaN,oven,airplane,64-3-10,0083_eid_dnn_64-3-10_airplane_10_n02690373_4671.png,n02690373_4671.png,0.0,-3.6533506,0.4801191,-2.9228044
alexnet_w1_mlp_simclrhn_probe2,1,84,NaN,truck,truck,1-3-10,0084_eid_dnn_1-3-10_truck_10_n03417042_9062.png,n03417042_9062.png,1.0,2.545113,1.9232936,0.4396928
alexnet_w1_mlp_simclrhn_probe2,1,85,NaN,cat,cat,4-3-10,0085_eid_dnn_4-3-10_cat_10_n02123394_283.png,n02123394_283.png,1.0,-0.08608485,-1.2012161,0.7885169
alexnet_w1_mlp_simclrhn_probe2,1,86,NaN,car,car,1-3-10,0086_eid_dnn_1-3-10_car_10_n02814533_3375.png,n02814533_3375.png,1.0,7.2989845,5.1790986,1.4989858
alexnet_w1_mlp_simclrhn_probe2,1,87,NaN,cat,cat,2-3-10,0087_eid_dnn_2-3-10_cat_10_n02124075_9706.png,n02124075_9706.png,1.0,0.7996538,-0.7959612,1.1282703
alexnet_w1_mlp_simclrhn_probe2,1,88,NaN,car,car,2-3-10,0088_eid_dnn_2-3-10_car_10_n04285008_10563.png,n04285008_10563.png,1.0,2.3127916,1.4967761,0.5770101
alexnet_w1_mlp_simclrhn_probe2,1,89,NaN,oven,clock,64-3-10,0089_eid_dnn_64-3-10_clock_10_n03196217_3283.png,n03196217_3283.png,0.0,-4.057686,0.06308828,-2.9138274
alexnet_w1_mlp_simclrhn_probe2,1,90,NaN,oven,oven,128-3-10,0090_eid_dnn_128-3-10_oven_10_n04111531_21120.png,n04111531_21120.png,1.0,-0.16318534,-0.83672714,0.47626597
alexnet_w1_mlp_simclrhn_probe2,1,91,NaN,bird,bird,1-3-10,0091_eid_dnn_1-3-10_bird_10_n01824575_6186.png,n01824575_6186.png,1.0,1.1142577,-1.7230673,2.0062919
alexnet_w1_mlp_simclrhn_probe2,1,92,NaN,dog,dog,4-3-10,0092_eid_dnn_4-3-10_dog_10_n02102318_11155.png,n02102318_11155.png,1.0,1.3459743,0.017842613,0.9391309
alexnet_w1_mlp_simclrhn_probe2,1,93,NaN,bear,clock,16-3-10,0093_eid_dnn_16-3-10_clock_10_n04548280_2283.png,n04548280_2283.png,0.0,-3.5401518,1.1860777,-3.341949
alexnet_w1_mlp_simclrhn_probe2,1,94,NaN,oven,chair,128-3-10,0094_eid_dnn_128-3-10_chair_10_n03376595_18787.png,n03376595_18787.png,0.0,-2.323503,0.05078144,-1.6788727
alexnet_w1_mlp_simclrhn_probe2,1,95,NaN,oven,keyboard,8-3-10,0095_eid_dnn_8-3-10_keyboard_10_n04505470_1903.png,n04505470_1903.png,0.0,-1.5870886,0.780813,-1.6743593
alexnet_w1_mlp_simclrhn_probe2,1,96,NaN,oven,clock,16-3-10,0096_eid_dnn_16-3-10_clock_10_n03196217_6185.png,n03196217_6185.png,0.0,-5.0869117,0.49926454,-3.9500232
alexnet_w1_mlp_simclrhn_probe2,1,97,NaN,clock,clock,2-3-10,0097_eid_dnn_2-3-10_clock_10_n03196217_10424.png,n03196217_10424.png,1.0,1.5469666,0.8968156,0.45972615
alexnet_w1_mlp_simclrhn_probe2,1,98,NaN,knife,knife,2-3-10,0098_eid_dnn_2-3-10_knife_10_n03041632_43436.png,n03041632_43436.png,1.0,0.19024079,-0.50520027,0.4917511
alexnet_w1_mlp_simclrhn_probe2,1,99,NaN,dog,dog,1-3-10,0099_eid_dnn_1-3-10_dog_10_n02093647_5955.png,n02093647_5955.png,1.0,0.06400857,-0.7055506,0.54416054
alexnet_w1_mlp_simclrhn_probe2,1,100,NaN,bear,boat,32-3-10,0100_eid_dnn_32-3-10_boat_10_n03662601_5423.png,n03662601_5423.png,0.0,-1.2668488,0.12583494,-0.98477614
alexnet_w1_mlp_simclrhn_probe2,1,101,NaN,oven,keyboard,128-3-10,0101_eid_dnn_128-3-10_keyboard_10_n04505470_9457.png,n04505470_9457.png,0.0,-6.1671233,0.21127146,-4.510206
alexnet_w1_mlp_simclrhn_probe2,1,102,NaN,oven,knife,128-3-10,0102_eid_dnn_128-3-10_knife_10_n03041632_38535.png,n03041632_38535.png,0.0,-1.7563136,-0.03640729,-1.2161574
alexnet_w1_mlp_simclrhn_probe2,1,103,NaN,bear,elephant,8-3-10,0103_eid_dnn_8-3-10_elephant_10_n02504458_8141.png,n02504458_8141.png,0.0,-0.50469285,0.64210844,-0.81091094
alexnet_w1_mlp_simclrhn_probe2,1,104,NaN,airplane,airplane,4-3-10,0104_eid_dnn_4-3-10_airplane_10_n02690373_9086.png,n02690373_9086.png,1.0,2.6054208,-0.23491344,2.0084195
alexnet_w1_mlp_simclrhn_probe2,1,105,NaN,bear,bicycle,16-3-10,0105_eid_dnn_16-3-10_bicycle_10_n03792782_19116.png,n03792782_19116.png,0.0,-0.7136624,0.21461369,-0.6563903
alexnet_w1_mlp_simclrhn_probe2,1,106,NaN,elephant,elephant,4-3-10,0106_eid_dnn_4-3-10_elephant_10_n02504458_2343.png,n02504458_2343.png,1.0,2.2962468,0.9854054,0.9269048
alexnet_w1_mlp_simclrhn_probe2,1,107,NaN,oven,airplane,16-3-10,0107_eid_dnn_16-3-10_airplane_10_n02690373_7093.png,n02690373_7093.png,0.0,-0.6551863,-0.477832,-0.12540844
alexnet_w1_mlp_simclrhn_probe2,1,108,NaN,oven,car,32-3-10,0108_eid_dnn_32-3-10_car_10_n03100240_7935.png,n03100240_7935.png,0.0,-4.943393,0.4806008,-3.8353431
alexnet_w1_mlp_simclrhn_probe2,1,109,NaN,oven,airplane,16-3-10,0109_eid_dnn_16-3-10_airplane_10_n02690373_8611.png,n02690373_8611.png,0.0,-2.1099172,0.24102524,-1.6623673
alexnet_w1_mlp_simclrhn_probe2,1,110,NaN,bear,bear,2-3-10,0110_eid_dnn_2-3-10_bear_10_n02133161_7332.png,n02133161_7332.png,1.0,4.296287,1.5441554,1.946051
alexnet_w1_mlp_simclrhn_probe2,1,111,NaN,car,car,2-3-10,0111_eid_dnn_2-3-10_car_10_n03100240_9387.png,n03100240_9387.png,1.0,5.7705326,3.9288588,1.30226
alexnet_w1_mlp_simclrhn_probe2,1,112,NaN,cat,cat,4-3-10,0112_eid_dnn_4-3-10_cat_10_n02124075_521.png,n02124075_521.png,1.0,0.6849706,0.27206245,0.29197016
alexnet_w1_mlp_simclrhn_probe2,1,113,NaN,oven,bottle,128-3-10,0113_eid_dnn_128-3-10_bottle_10_n04560804_3746.png,n04560804_3746.png,0.0,-2.1684756,0.14467274,-1.6356429
alexnet_w1_mlp_simclrhn_probe2,1,114,NaN,bear,elephant,16-3-10,0114_eid_dnn_16-3-10_elephant_10_n02504458_1127.png,n02504458_1127.png,0.0,1.0673258,1.0891565,-0.01543662
alexnet_w1_mlp_simclrhn_probe2,1,115,NaN,knife,knife,8-3-10,0115_eid_dnn_8-3-10_knife_10_n03041632_14132.png,n03041632_14132.png,1.0,-0.5139373,-0.98639727,0.33407965
alexnet_w1_mlp_simclrhn_probe2,1,116,NaN,oven,oven,1-3-10,0116_eid_dnn_1-3-10_oven_10_n04111531_18916.png,n04111531_18916.png,1.0,0.90609795,-0.7506157,1.1714735
alexnet_w1_mlp_simclrhn_probe2,1,117,NaN,oven,oven,1-3-10,0117_eid_dnn_1-3-10_oven_10_n04111531_19274.png,n04111531_19274.png,1.0,0.90609634,-3.0055397,2.7659442
alexnet_w1_mlp_simclrhn_probe2,1,118,NaN,bird,bird,2-3-10,0118_eid_dnn_2-3-10_bird_10_n01843383_277.png,n01843383_277.png,1.0,-0.2546231,-2.3699727,1.495778
alexnet_w1_mlp_simclrhn_probe2,1,119,NaN,oven,boat,64-3-10,0119_eid_dnn_64-3-10_boat_10_n03344393_6799.png,n03344393_6799.png,0.0,-2.6368215,0.13065802,-1.9569035
alexnet_w1_mlp_simclrhn_probe2,1,120,NaN,cat,dog,2-3-10,0120_eid_dnn_2-3-10_dog_10_n02093428_16887.png,n02093428_16887.png,0.0,1.1041255,1.4500576,-0.24461095
alexnet_w1_mlp_simclrhn_probe2,1,121,NaN,oven,elephant,64-3-10,0121_eid_dnn_64-3-10_elephant_10_n02504458_6163.png,n02504458_6163.png,0.0,-0.76394963,-0.5650455,-0.14064649
alexnet_w1_mlp_simclrhn_probe2,1,122,NaN,oven,bottle,64-3-10,0122_eid_dnn_64-3-10_bottle_10_n04591713_2826.png,n04591713_2826.png,0.0,-1.3854635,-0.2694818,-0.78911823
alexnet_w1_mlp_simclrhn_probe2,1,123,NaN,oven,bottle,64-3-10,0123_eid_dnn_64-3-10_bottle_10_n04557648_3598.png,n04557648_3598.png,0.0,-1.1790899,-0.46425632,-0.5054637
alexnet_w1_mlp_simclrhn_probe2,1,124,NaN,boat,truck,8-3-10,0124_eid_dnn_8-3-10_truck_10_n04467665_80629.png,n04467665_80629.png,0.0,-2.7339978,-0.37722498,-1.6664901
alexnet_w1_mlp_simclrhn_probe2,1,125,NaN,elephant,bear,4-3-10,0125_eid_dnn_4-3-10_bear_10_n02134084_6869.png,n02134084_6869.png,0.0,0.6609707,1.0534035,-0.2774919
alexnet_w1_mlp_simclrhn_probe2,1,126,NaN,cat,bird,1-3-10,0126_eid_dnn_1-3-10_bird_10_n01820546_4457.png,n01820546_4457.png,0.0,-1.0313011,0.113832116,-0.8097315
alexnet_w1_mlp_simclrhn_probe2,1,127,NaN,oven,clock,64-3-10,0127_eid_dnn_64-3-10_clock_10_n04548280_7565.png,n04548280_7565.png,0.0,-3.0283124,0.1004899,-2.2123973
alexnet_w1_mlp_simclrhn_probe2,1,128,NaN,bear,elephant,16-3-10,0128_eid_dnn_16-3-10_elephant_10_n02504458_98.png,n02504458_98.png,0.0,0.46274132,0.8183698,-0.25146732
alexnet_w1_mlp_simclrhn_probe2,1,129,NaN,oven,bicycle,64-3-10,0129_eid_dnn_64-3-10_bicycle_10_n03792782_7143.png,n03792782_7143.png,0.0,-1.2318281,-0.070905566,-0.8208962
alexnet_w1_mlp_simclrhn_probe2,1,130,NaN,bear,dog,16-3-10,0130_eid_dnn_16-3-10_dog_10_n02096051_5524.png,n02096051_5524.png,0.0,-0.5407262,0.88644344,-1.0091612
alexnet_w1_mlp_simclrhn_probe2,1,131,NaN,bear,cat,16-3-10,0131_eid_dnn_16-3-10_cat_10_n02123045_9465.png,n02123045_9465.png,0.0,-0.13568424,0.45110947,-0.4149258
alexnet_w1_mlp_simclrhn_probe2,1,132,NaN,oven,cat,64-3-10,0132_eid_dnn_64-3-10_cat_10_n02123159_9450.png,n02123159_9450.png,0.0,-0.97665304,0.23830028,-0.8591017
alexnet_w1_mlp_simclrhn_probe2,1,133,NaN,bottle,clock,4-3-10,0133_eid_dnn_4-3-10_clock_10_n02708093_8204.png,n02708093_8204.png,0.0,-0.6331635,-0.47906426,-0.10896463
alexnet_w1_mlp_simclrhn_probe2,1,134,NaN,oven,airplane,32-3-10,0134_eid_dnn_32-3-10_airplane_10_n02690373_2619.png,n02690373_2619.png,0.0,-1.501744,-0.33740675,-0.8233108
alexnet_w1_mlp_simclrhn_probe2,1,135,NaN,car,car,2-3-10,0135_eid_dnn_2-3-10_car_10_n04285008_11295.png,n04285008_11295.png,1.0,5.8350196,2.519113,2.3447
alexnet_w1_mlp_simclrhn_probe2,1,136,NaN,bear,bear,8-3-10,0136_eid_dnn_8-3-10_bear_10_n02133161_15481.png,n02133161_15481.png,1.0,1.4218576,0.42679977,0.70361215
alexnet_w1_mlp_simclrhn_probe2,1,137,NaN,bird,truck,64-3-10,0137_eid_dnn_64-3-10_truck_10_n03417042_8139.png,n03417042_8139.png,0.0,-3.309608,-0.31953242,-2.1143029
alexnet_w1_mlp_simclrhn_probe2,1,138,NaN,bear,bottle,16-3-10,0138_eid_dnn_16-3-10_bottle_10_n04557648_4490.png,n04557648_4490.png,0.0,-1.4915682,0.31718862,-1.2789842
alexnet_w1_mlp_simclrhn_probe2,1,139,NaN,bottle,clock,1-3-10,0139_eid_dnn_1-3-10_clock_10_n03196217_5399.png,n03196217_5399.png,0.0,0.4830606,0.5718249,-0.062765844
alexnet_w1_mlp_simclrhn_probe2,1,140,NaN,boat,boat,1-3-10,0140_eid_dnn_1-3-10_boat_10_n04273569_4136.png,n04273569_4136.png,1.0,1.3348546,-1.0209315,1.6657923
alexnet_w1_mlp_simclrhn_probe2,1,141,NaN,clock,clock,4-3-10,0141_eid_dnn_4-3-10_clock_10_n04548280_2127.png,n04548280_2127.png,1.0,-0.1690418,-1.421797,0.8858318
alexnet_w1_mlp_simclrhn_probe2,1,142,NaN,airplane,boat,2-3-10,0142_eid_dnn_2-3-10_boat_10_n03344393_10038.png,n03344393_10038.png,0.0,1.09416,1.5560861,-0.3266311
alexnet_w1_mlp_simclrhn_probe2,1,143,NaN,elephant,elephant,2-3-10,0143_eid_dnn_2-3-10_elephant_10_n02504013_10793.png,n02504013_10793.png,1.0,7.7470636,2.5200746,3.6960392
alexnet_w1_mlp_simclrhn_probe2,1,144,NaN,oven,oven,128-3-10,0144_eid_dnn_128-3-10_oven_10_n04111531_6590.png,n04111531_6590.png,1.0,-0.5759489,-1.0915961,0.36461768
alexnet_w1_mlp_simclrhn_probe2,1,145,NaN,oven,keyboard,16-3-10,0145_eid_dnn_16-3-10_keyboard_10_n03085013_10984.png,n03085013_10984.png,0.0,-3.2879658,-0.47582942,-1.9884808
alexnet_w1_mlp_simclrhn_probe2,1,146,NaN,airplane,bicycle,2-3-10,0146_eid_dnn_2-3-10_bicycle_10_n02835271_14879.png,n02835271_14879.png,0.0,0.17071289,0.42639974,-0.1807979
alexnet_w1_mlp_simclrhn_probe2,1,147,NaN,bear,knife,64-3-10,0147_eid_dnn_64-3-10_knife_10_n03041632_22241.png,n03041632_22241.png,0.0,-1.1748326,0.2685023,-1.0205919
alexnet_w1_mlp_simclrhn_probe2,1,148,NaN,bear,oven,64-3-10,0148_eid_dnn_64-3-10_oven_10_n04111531_892.png,n04111531_892.png,0.0,0.043021686,0.073339395,-0.021437857
alexnet_w1_mlp_simclrhn_probe2,1,149,NaN,oven,bear,64-3-10,0149_eid_dnn_64-3-10_bear_10_n02134418_14850.png,n02134418_14850.png,0.0,-0.64854115,-0.012551174,-0.4497128
alexnet_w1_mlp_simclrhn_probe2,1,150,NaN,oven,knife,64-3-10,0150_eid_dnn_64-3-10_knife_10_n03041632_48071.png,n03041632_48071.png,0.0,-1.8943791,0.037735593,-1.3662114
alexnet_w1_mlp_simclrhn_probe2,1,151,NaN,oven,clock,16-3-10,0151_eid_dnn_16-3-10_clock_10_n04548280_64.png,n04548280_64.png,0.0,-3.762636,-0.56768036,-2.2591748
alexnet_w1_mlp_simclrhn_probe2,1,152,NaN,bird,truck,64-3-10,0152_eid_dnn_64-3-10_truck_10_n03796401_6285.png,n03796401_6285.png,0.0,-2.7897706,-0.5687258,-1.5705159
alexnet_w1_mlp_simclrhn_probe2,1,153,NaN,airplane,airplane,4-3-10,0153_eid_dnn_4-3-10_airplane_10_n02690373_6682.png,n02690373_6682.png,1.0,1.1787803,-0.31317297,1.0549703
alexnet_w1_mlp_simclrhn_probe2,1,154,NaN,oven,knife,64-3-10,0154_eid_dnn_64-3-10_knife_10_n03041632_17285.png,n03041632_17285.png,0.0,-2.076429,0.6322839,-1.9153492
alexnet_w1_mlp_simclrhn_probe2,1,155,NaN,elephant,boat,2-3-10,0155_eid_dnn_2-3-10_boat_10_n02951358_8184.png,n02951358_8184.png,0.0,0.98755294,1.7957432,-0.5714768
alexnet_w1_mlp_simclrhn_probe2,1,156,NaN,bicycle,bear,1-3-10,0156_eid_dnn_1-3-10_bear_10_n02132136_2346.png,n02132136_2346.png,0.0,-0.6916649,0.01984188,-0.50311124
alexnet_w1_mlp_simclrhn_probe2,1,157,NaN,bear,bear,8-3-10,0157_eid_dnn_8-3-10_bear_10_n02134418_2187.png,n02134418_2187.png,1.0,2.560738,0.58852535,1.3945651
alexnet_w1_mlp_simclrhn_probe2,1,158,NaN,bear,cat,32-3-10,0158_eid_dnn_32-3-10_cat_10_n02124075_10162.png,n02124075_10162.png,0.0,-0.8838288,-0.033078656,-0.6015712
alexnet_w1_mlp_simclrhn_probe2,1,159,NaN,oven,truck,128-3-10,0159_eid_dnn_128-3-10_truck_10_n03417042_8998.png,n03417042_8998.png,0.0,-2.823675,-0.4044771,-1.7106313
alexnet_w1_mlp_simclrhn_probe2,1,160,NaN,oven,cat,64-3-10,0160_eid_dnn_64-3-10_cat_10_n02123597_13835.png,n02123597_13835.png,0.0,-0.760989,0.0133135095,-0.5475146
alexnet_w1_mlp_simclrhn_probe2,1,161,NaN,clock,clock,1-3-10,0161_eid_dnn_1-3-10_clock_10_n04548280_18914.png,n04548280_18914.png,1.0,2.1440775,-0.6042281,1.9433455
alexnet_w1_mlp_simclrhn_probe2,1,162,NaN,keyboard,keyboard,2-3-10,0162_eid_dnn_2-3-10_keyboard_10_n03085013_2676.png,n03085013_2676.png,1.0,3.4409807,0.418103,2.1374974
alexnet_w1_mlp_simclrhn_probe2,1,163,NaN,bear,airplane,16-3-10,0163_eid_dnn_16-3-10_airplane_10_n02690373_7600.png,n02690373_7600.png,0.0,-4.1332936,0.5564479,-3.316148
alexnet_w1_mlp_simclrhn_probe2,1,164,NaN,bear,chair,16-3-10,0164_eid_dnn_16-3-10_chair_10_n04429376_17917.png,n04429376_17917.png,0.0,-3.170882,0.90536606,-2.8823428
alexnet_w1_mlp_simclrhn_probe2,1,165,NaN,bottle,keyboard,4-3-10,0165_eid_dnn_4-3-10_keyboard_10_n04505470_4492.png,n04505470_4492.png,0.0,-0.7320234,-0.1479534,-0.4129999
alexnet_w1_mlp_simclrhn_probe2,1,166,NaN,bear,bear,1-3-10,0166_eid_dnn_1-3-10_bear_10_n02134418_3148.png,n02134418_3148.png,1.0,2.1516104,0.9638549,0.83987
alexnet_w1_mlp_simclrhn_probe2,1,167,NaN,elephant,cat,4-3-10,0167_eid_dnn_4-3-10_cat_10_n02125311_20388.png,n02125311_20388.png,0.0,-0.023773551,1.5640328,-1.1227486
alexnet_w1_mlp_simclrhn_probe2,1,168,NaN,oven,cat,64-3-10,0168_eid_dnn_64-3-10_cat_10_n02123394_2153.png,n02123394_2153.png,0.0,-1.2034551,0.24572648,-1.0247262
alexnet_w1_mlp_simclrhn_probe2,1,169,NaN,oven,clock,1-3-10,0169_eid_dnn_1-3-10_clock_10_n04548280_5327.png,n04548280_5327.png,0.0,-0.91698116,0.09841743,-0.7179953
alexnet_w1_mlp_simclrhn_probe2,1,170,NaN,cat,bicycle,8-3-10,0170_eid_dnn_8-3-10_bicycle_10_n03792782_63054.png,n03792782_63054.png,0.0,-6.001144,0.8052948,-4.812879
alexnet_w1_mlp_simclrhn_probe2,1,171,NaN,oven,chair,32-3-10,0171_eid_dnn_32-3-10_chair_10_n03376595_14138.png,n03376595_14138.png,0.0,-3.5943215,-0.30340558,-2.327029
alexnet_w1_mlp_simclrhn_probe2,1,172,NaN,elephant,elephant,2-3-10,0172_eid_dnn_2-3-10_elephant_10_n02504458_4849.png,n02504458_4849.png,1.0,1.0418775,0.53796965,0.35631666
alexnet_w1_mlp_simclrhn_probe2,1,173,NaN,oven,dog,128-3-10,0173_eid_dnn_128-3-10_dog_10_n02113624_4844.png,n02113624_4844.png,0.0,-2.425875,0.21738112,-1.8690645
alexnet_w1_mlp_simclrhn_probe2,1,174,NaN,elephant,elephant,2-3-10,0174_eid_dnn_2-3-10_elephant_10_n02504013_2549.png,n02504013_2549.png,1.0,2.2994428,1.7018749,0.42254433
alexnet_w1_mlp_simclrhn_probe2,1,175,NaN,bear,bear,8-3-10,0175_eid_dnn_8-3-10_bear_10_n02134084_4593.png,n02134084_4593.png,1.0,1.0283147,0.18593733,0.59565073
alexnet_w1_mlp_simclrhn_probe2,1,176,NaN,bird,bicycle,64-3-10,0176_eid_dnn_64-3-10_bicycle_10_n02835271_75.png,n02835271_75.png,0.0,-0.8313204,-0.59891516,-0.16433533
alexnet_w1_mlp_simclrhn_probe2,1,177,NaN,oven,truck,4-3-10,0177_eid_dnn_4-3-10_truck_10_n03796401_20943.png,n03796401_20943.png,0.0,-0.8967128,0.8144965,-1.2100077
alexnet_w1_mlp_simclrhn_probe2,1,178,NaN,knife,knife,2-3-10,0178_eid_dnn_2-3-10_knife_10_n03041632_32048.png,n03041632_32048.png,1.0,-0.48114437,-0.74595284,0.18724787
alexnet_w1_mlp_simclrhn_probe2,1,179,NaN,bicycle,cat,1-3-10,0179_eid_dnn_1-3-10_cat_10_n02123159_3536.png,n02123159_3536.png,0.0,-1.23279,-0.33497325,-0.63485235
alexnet_w1_mlp_simclrhn_probe2,1,180,NaN,bear,bicycle,1-3-10,0180_eid_dnn_1-3-10_bicycle_10_n03792782_6716.png,n03792782_6716.png,0.0,-0.75210613,-0.1323869,-0.43820772
alexnet_w1_mlp_simclrhn_probe2,1,181,NaN,oven,clock,2-3-10,0181_eid_dnn_2-3-10_clock_10_n03196217_1754.png,n03196217_1754.png,0.0,0.20585442,0.6555091,-0.31795388
alexnet_w1_mlp_simclrhn_probe2,1,182,NaN,bicycle,bicycle,1-3-10,0182_eid_dnn_1-3-10_bicycle_10_n03792782_5404.png,n03792782_5404.png,1.0,1.8713298,-0.5890963,1.739784
alexnet_w1_mlp_simclrhn_probe2,1,183,NaN,bear,dog,64-3-10,0183_eid_dnn_64-3-10_dog_10_n02096294_3014.png,n02096294_3014.png,0.0,-0.761049,0.047525793,-0.57174873
alexnet_w1_mlp_simclrhn_probe2,1,184,NaN,bear,bear,4-3-10,0184_eid_dnn_4-3-10_bear_10_n02134084_23382.png,n02134084_23382.png,1.0,0.1577827,-0.034715705,0.13611694
alexnet_w1_mlp_simclrhn_probe2,1,185,NaN,oven,car,4-3-10,0185_eid_dnn_4-3-10_car_10_n03100240_310.png,n03100240_310.png,0.0,-1.6083244,0.40216583,-1.4216312
alexnet_w1_mlp_simclrhn_probe2,1,186,NaN,dog,dog,4-3-10,0186_eid_dnn_4-3-10_dog_10_n02093256_1653.png,n02093256_1653.png,1.0,0.2597028,0.18119808,0.055511225
alexnet_w1_mlp_simclrhn_probe2,1,187,NaN,elephant,elephant,4-3-10,0187_eid_dnn_4-3-10_elephant_10_n02504013_1740.png,n02504013_1740.png,1.0,6.9454584,2.6558263,3.033228
alexnet_w1_mlp_simclrhn_probe2,1,188,NaN,oven,bear,64-3-10,0188_eid_dnn_64-3-10_bear_10_n02134084_34375.png,n02134084_34375.png,0.0,-1.1589814,0.28380755,-1.0202059
alexnet_w1_mlp_simclrhn_probe2,1,189,NaN,bear,keyboard,8-3-10,0189_eid_dnn_8-3-10_keyboard_10_n03085013_23254.png,n03085013_23254.png,0.0,-2.000751,-0.19770455,-1.2749465
alexnet_w1_mlp_simclrhn_probe2,1,190,NaN,oven,elephant,32-3-10,0190_eid_dnn_32-3-10_elephant_10_n02504013_1512.png,n02504013_1512.png,0.0,-0.82126683,0.44373628,-0.89449227
alexnet_w1_mlp_simclrhn_probe2,1,191,NaN,oven,car,8-3-10,0191_eid_dnn_8-3-10_car_10_n04285008_6454.png,n04285008_6454.png,0.0,-5.102159,0.26062292,-3.7920597
alexnet_w1_mlp_simclrhn_probe2,1,192,NaN,keyboard,keyboard,4-3-10,0192_eid_dnn_4-3-10_keyboard_10_n04505470_7721.png,n04505470_7721.png,1.0,5.1868334,0.56106466,3.2709124
alexnet_w1_mlp_simclrhn_probe2,1,193,NaN,bear,keyboard,16-3-10,0193_eid_dnn_16-3-10_keyboard_10_n04505470_3388.png,n04505470_3388.png,0.0,-5.6928406,0.18176481,-4.153973
alexnet_w1_mlp_simclrhn_probe2,1,194,NaN,boat,boat,2-3-10,0194_eid_dnn_2-3-10_boat_10_n03344393_4221.png,n03344393_4221.png,1.0,3.074693,1.5991592,1.0433599
alexnet_w1_mlp_simclrhn_probe2,1,195,NaN,oven,cat,128-3-10,0195_eid_dnn_128-3-10_cat_10_n02123597_14361.png,n02123597_14361.png,0.0,-1.4804602,-0.28876513,-0.8426556
alexnet_w1_mlp_simclrhn_probe2,1,196,NaN,oven,bird,128-3-10,0196_eid_dnn_128-3-10_bird_10_n02006656_10058.png,n02006656_10058.png,0.0,-1.7175268,0.015944697,-1.2257495
alexnet_w1_mlp_simclrhn_probe2,1,197,NaN,bear,clock,32-3-10,0197_eid_dnn_32-3-10_clock_10_n02708093_8104.png,n02708093_8104.png,0.0,-4.605479,0.15491684,-3.366108
alexnet_w1_mlp_simclrhn_probe2,1,198,NaN,bicycle,truck,1-3-10,0198_eid_dnn_1-3-10_truck_10_n03417042_3845.png,n03417042_3845.png,0.0,-0.4721642,1.67969,-1.5215908
alexnet_w1_mlp_simclrhn_probe2,1,199,NaN,oven,boat,64-3-10,0199_eid_dnn_64-3-10_boat_10_n03662601_36741.png,n03662601_36741.png,0.0,-3.4567337,0.9838444,-3.139963
alexnet_w1_mlp_simclrhn_probe2,1,200,NaN,knife,knife,1-3-10,0200_eid_dnn_1-3-10_knife_10_n03041632_22570.png,n03041632_22570.png,1.0,0.60973483,-0.2962656,0.64063907
alexnet_w1_mlp_simclrhn_probe2,1,201,NaN,keyboard,keyboard,1-3-10,0201_eid_dnn_1-3-10_keyboard_10_n04505470_4109.png,n04505470_4109.png,1.0,4.259445,0.6350469,2.5628366
alexnet_w1_mlp_simclrhn_probe2,1,202,NaN,airplane,airplane,1-3-10,0202_eid_dnn_1-3-10_airplane_10_n02690373_10404.png,n02690373_10404.png,1.0,2.9063318,1.6541516,0.88542515
alexnet_w1_mlp_simclrhn_probe2,1,203,NaN,elephant,elephant,4-3-10,0203_eid_dnn_4-3-10_elephant_10_n02504458_4725.png,n02504458_4725.png,1.0,4.4116535,0.5975438,2.6969829
alexnet_w1_mlp_simclrhn_probe2,1,204,NaN,airplane,airplane,1-3-10,0204_eid_dnn_1-3-10_airplane_10_n02690373_1325.png,n02690373_1325.png,1.0,4.1249943,-0.104850285,2.9909518
alexnet_w1_mlp_simclrhn_probe2,1,205,NaN,bear,bicycle,8-3-10,0205_eid_dnn_8-3-10_bicycle_10_n03792782_6841.png,n03792782_6841.png,0.0,-3.9131784,0.9382369,-3.4304686
alexnet_w1_mlp_simclrhn_probe2,1,206,NaN,chair,chair,2-3-10,0206_eid_dnn_2-3-10_chair_10_n04099969_1669.png,n04099969_1669.png,1.0,1.9560595,0.1822953,1.2542406
alexnet_w1_mlp_simclrhn_probe2,1,207,NaN,oven,bottle,32-3-10,0207_eid_dnn_32-3-10_bottle_10_n03937543_5324.png,n03937543_5324.png,0.0,-1.457176,-0.27319598,-0.8372003
alexnet_w1_mlp_simclrhn_probe2,1,208,NaN,bottle,bottle,4-3-10,0208_eid_dnn_4-3-10_bottle_10_n03937543_2143.png,n03937543_2143.png,1.0,2.6093247,-1.033032,2.575535
alexnet_w1_mlp_simclrhn_probe2,1,209,NaN,bottle,bottle,2-3-10,0209_eid_dnn_2-3-10_bottle_10_n04557648_2575.png,n04557648_2575.png,1.0,0.3079147,0.20308866,0.07412321
alexnet_w1_mlp_simclrhn_probe2,1,210,NaN,bottle,knife,8-3-10,0210_eid_dnn_8-3-10_knife_10_n03041632_9671.png,n03041632_9671.png,0.0,-0.7849983,-0.16071351,-0.44143602
alexnet_w1_mlp_simclrhn_probe2,1,211,NaN,oven,bottle,16-3-10,0211_eid_dnn_16-3-10_bottle_10_n04560804_4145.png,n04560804_4145.png,0.0,-1.7141637,-0.120003894,-1.1272411
alexnet_w1_mlp_simclrhn_probe2,1,212,NaN,oven,clock,64-3-10,0212_eid_dnn_64-3-10_clock_10_n03196217_1187.png,n03196217_1187.png,0.0,-2.3893428,0.29577696,-1.8986664
alexnet_w1_mlp_simclrhn_probe2,1,213,NaN,clock,clock,4-3-10,0213_eid_dnn_4-3-10_clock_10_n04548280_2111.png,n04548280_2111.png,1.0,1.6541194,-0.32366988,1.3985082
alexnet_w1_mlp_simclrhn_probe2,1,214,NaN,oven,dog,128-3-10,0214_eid_dnn_128-3-10_dog_10_n02086079_6578.png,n02086079_6578.png,0.0,-1.721021,-0.31733713,-0.9925544
alexnet_w1_mlp_simclrhn_probe2,1,215,NaN,bear,car,16-3-10,0215_eid_dnn_16-3-10_car_10_n03100240_14045.png,n03100240_14045.png,0.0,-5.2851987,1.2245181,-4.603065
alexnet_w1_mlp_simclrhn_probe2,1,216,NaN,oven,boat,8-3-10,0216_eid_dnn_8-3-10_boat_10_n02951358_30908.png,n02951358_30908.png,0.0,-1.640783,0.63199055,-1.6070936
alexnet_w1_mlp_simclrhn_probe2,1,217,NaN,bear,oven,4-3-10,0217_eid_dnn_4-3-10_oven_10_n04111531_2199.png,n04111531_2199.png,0.0,-0.34369206,0.20912735,-0.39090237
alexnet_w1_mlp_simclrhn_probe2,1,218,NaN,bear,elephant,8-3-10,0218_eid_dnn_8-3-10_elephant_10_n02504013_5641.png,n02504013_5641.png,0.0,1.3357768,1.9589677,-0.4406625
alexnet_w1_mlp_simclrhn_probe2,1,219,NaN,keyboard,keyboard,2-3-10,0219_eid_dnn_2-3-10_keyboard_10_n03085013_6740.png,n03085013_6740.png,1.0,2.1191297,0.015707746,1.4873439
alexnet_w1_mlp_simclrhn_probe2,1,220,NaN,clock,clock,2-3-10,0220_eid_dnn_2-3-10_clock_10_n04548280_319.png,n04548280_319.png,1.0,5.1017246,-0.23171727,3.771313
alexnet_w1_mlp_simclrhn_probe2,1,221,NaN,oven,knife,32-3-10,0221_eid_dnn_32-3-10_knife_10_n03041632_43506.png,n03041632_43506.png,0.0,-1.153748,0.09587765,-0.88361883
alexnet_w1_mlp_simclrhn_probe2,1,222,NaN,bear,boat,16-3-10,0222_eid_dnn_16-3-10_boat_10_n03344393_9712.png,n03344393_9712.png,0.0,-0.836722,0.21207376,-0.74161065
alexnet_w1_mlp_simclrhn_probe2,1,223,NaN,knife,knife,1-3-10,0223_eid_dnn_1-3-10_knife_10_n03041632_9963.png,n03041632_9963.png,1.0,1.5065286,-0.7125213,1.5691053
alexnet_w1_mlp_simclrhn_probe2,1,224,NaN,bird,bird,1-3-10,0224_eid_dnn_1-3-10_bird_10_n02002556_18595.png,n02002556_18595.png,1.0,-0.1903324,-0.37373686,0.12968653
alexnet_w1_mlp_simclrhn_probe2,1,225,NaN,elephant,bird,4-3-10,0225_eid_dnn_4-3-10_bird_10_n01860187_20777.png,n01860187_20777.png,0.0,-2.350428,-0.045640647,-1.6297308
alexnet_w1_mlp_simclrhn_probe2,1,226,NaN,bear,keyboard,32-3-10,0226_eid_dnn_32-3-10_keyboard_10_n03085013_24626.png,n03085013_24626.png,0.0,-4.2565084,0.17299604,-3.1321325
alexnet_w1_mlp_simclrhn_probe2,1,227,NaN,oven,oven,16-3-10,0227_eid_dnn_16-3-10_oven_10_n04111531_7097.png,n04111531_7097.png,1.0,0.5837748,-0.45373976,0.7336336
alexnet_w1_mlp_simclrhn_probe2,1,228,NaN,bear,chair,16-3-10,0228_eid_dnn_16-3-10_chair_10_n02791124_12486.png,n02791124_12486.png,0.0,-3.4897304,1.2386134,-3.343444
alexnet_w1_mlp_simclrhn_probe2,1,229,NaN,oven,cat,128-3-10,0229_eid_dnn_128-3-10_cat_10_n02123045_6629.png,n02123045_6629.png,0.0,-1.8648305,-0.4394817,-1.0078738
alexnet_w1_mlp_simclrhn_probe2,1,230,NaN,cat,bird,16-3-10,0230_eid_dnn_16-3-10_bird_10_n01819313_5388.png,n01819313_5388.png,0.0,-1.4780872,-0.5623974,-0.64749044
alexnet_w1_mlp_simclrhn_probe2,1,231,NaN,oven,truck,32-3-10,0231_eid_dnn_32-3-10_truck_10_n04467665_4940.png,n04467665_4940.png,0.0,-4.0138764,0.61994606,-3.2766073
alexnet_w1_mlp_simclrhn_probe2,1,232,NaN,bottle,knife,8-3-10,0232_eid_dnn_8-3-10_knife_10_n03041632_20433.png,n03041632_20433.png,0.0,-1.4357407,-0.67076856,-0.540917
alexnet_w1_mlp_simclrhn_probe2,1,233,NaN,clock,clock,2-3-10,0233_eid_dnn_2-3-10_clock_10_n04548280_6792.png,n04548280_6792.png,1.0,1.8253508,0.052679546,1.2534679
alexnet_w1_mlp_simclrhn_probe2,1,234,NaN,oven,bicycle,4-3-10,0234_eid_dnn_4-3-10_bicycle_10_n02835271_5413.png,n02835271_5413.png,0.0,-1.7058656,0.6495711,-1.6655453
alexnet_w1_mlp_simclrhn_probe2,1,235,NaN,car,car,2-3-10,0235_eid_dnn_2-3-10_car_10_n04285008_5005.png,n04285008_5005.png,1.0,3.9756823,1.1731713,1.9816746
alexnet_w1_mlp_simclrhn_probe2,1,236,NaN,oven,car,2-3-10,0236_eid_dnn_2-3-10_car_10_n02814533_88088.png,n02814533_88088.png,0.0,-1.3265013,0.20318237,-1.0816497
alexnet_w1_mlp_simclrhn_probe2,1,237,NaN,oven,elephant,64-3-10,0237_eid_dnn_64-3-10_elephant_10_n02504458_11345.png,n02504458_11345.png,0.0,-0.76303256,-0.12309523,-0.45250404
alexnet_w1_mlp_simclrhn_probe2,1,238,NaN,elephant,elephant,16-3-10,0238_eid_dnn_16-3-10_elephant_10_n02504013_1900.png,n02504013_1900.png,1.0,0.80523723,0.7589367,0.03273942
alexnet_w1_mlp_simclrhn_probe2,1,239,NaN,oven,bear,128-3-10,0239_eid_dnn_128-3-10_bear_10_n02133161_5708.png,n02133161_5708.png,0.0,-0.9809753,-0.45104322,-0.37471855
alexnet_w1_mlp_simclrhn_probe2,1,240,NaN,cat,cat,8-3-10,0240_eid_dnn_8-3-10_cat_10_n02124075_5828.png,n02124075_5828.png,1.0,1.4681168,0.037637275,1.0115018
alexnet_w1_mlp_simclrhn_probe2,1,241,NaN,oven,bird,64-3-10,0241_eid_dnn_64-3-10_bird_10_n01582220_9392.png,n01582220_9392.png,0.0,-1.0963957,0.28335655,-0.9756322
alexnet_w1_mlp_simclrhn_probe2,1,242,NaN,clock,clock,1-3-10,0242_eid_dnn_1-3-10_clock_10_n02708093_4597.png,n02708093_4597.png,1.0,5.493208,0.5607966,3.4877415
alexnet_w1_mlp_simclrhn_probe2,1,243,NaN,oven,bicycle,128-3-10,0243_eid_dnn_128-3-10_bicycle_10_n03792782_26306.png,n03792782_26306.png,0.0,-1.2452245,-0.37915716,-0.6124021
alexnet_w1_mlp_simclrhn_probe2,1,244,NaN,oven,bear,32-3-10,0244_eid_dnn_32-3-10_bear_10_n02132136_1795.png,n02132136_1795.png,0.0,0.1730714,0.3749208,-0.14272907
alexnet_w1_mlp_simclrhn_probe2,1,245,NaN,oven,clock,128-3-10,0245_eid_dnn_128-3-10_clock_10_n02708093_3638.png,n02708093_3638.png,0.0,-2.2398665,-0.4319523,-1.2783885
alexnet_w1_mlp_simclrhn_probe2,1,246,NaN,keyboard,keyboard,4-3-10,0246_eid_dnn_4-3-10_keyboard_10_n03085013_21272.png,n03085013_21272.png,1.0,-0.59235644,-0.70021075,0.076264516
alexnet_w1_mlp_simclrhn_probe2,1,247,NaN,bottle,chair,8-3-10,0247_eid_dnn_8-3-10_chair_10_n02791124_16926.png,n02791124_16926.png,0.0,-2.1163852,0.12437619,-1.5844576
alexnet_w1_mlp_simclrhn_probe2,1,248,NaN,cat,knife,8-3-10,0248_eid_dnn_8-3-10_knife_10_n03041632_84048.png,n03041632_84048.png,0.0,-1.9831862,0.043871537,-1.4333464
alexnet_w1_mlp_simclrhn_probe2,1,249,NaN,oven,oven,2-3-10,0249_eid_dnn_2-3-10_oven_10_n04111531_550.png,n04111531_550.png,1.0,1.5153217,0.34517902,0.8274158
alexnet_w1_mlp_simclrhn_probe2,1,250,NaN,oven,boat,128-3-10,0250_eid_dnn_128-3-10_boat_10_n03662601_21992.png,n03662601_21992.png,0.0,-2.949602,-0.6225079,-1.645504
alexnet_w1_mlp_simclrhn_probe2,1,251,NaN,bear,bear,32-3-10,0251_eid_dnn_32-3-10_bear_10_n02134418_280.png,n02134418_280.png,1.0,0.5790292,0.12039407,0.324304
alexnet_w1_mlp_simclrhn_probe2,1,252,NaN,elephant,bottle,8-3-10,0252_eid_dnn_8-3-10_bottle_10_n04560804_8385.png,n04560804_8385.png,0.0,-1.8553954,-0.4242837,-1.0119488
alexnet_w1_mlp_simclrhn_probe2,1,253,NaN,bear,elephant,64-3-10,0253_eid_dnn_64-3-10_elephant_10_n02504013_4183.png,n02504013_4183.png,0.0,-0.11303063,0.23276234,-0.24451254
alexnet_w1_mlp_simclrhn_probe2,1,254,NaN,bird,bird,1-3-10,0254_eid_dnn_1-3-10_bird_10_n01560419_19608.png,n01560419_19608.png,1.0,1.4851563,-2.535555,2.843072
alexnet_w1_mlp_simclrhn_probe2,1,255,NaN,cat,bird,4-3-10,0255_eid_dnn_4-3-10_bird_10_n02056570_8865.png,n02056570_8865.png,0.0,-1.8303138,-0.40903088,-1.0049988
alexnet_w1_mlp_simclrhn_probe2,1,256,NaN,cat,cat,2-3-10,0256_eid_dnn_2-3-10_cat_10_n02123394_2553.png,n02123394_2553.png,1.0,1.1107793,0.02738157,0.76607794
alexnet_w1_mlp_simclrhn_probe2,1,257,NaN,oven,bear,128-3-10,0257_eid_dnn_128-3-10_bear_10_n02132136_10113.png,n02132136_10113.png,0.0,-1.3349257,-0.16911483,-0.82435274
alexnet_w1_mlp_simclrhn_probe2,1,258,NaN,elephant,oven,8-3-10,0258_eid_dnn_8-3-10_oven_10_n04111531_2758.png,n04111531_2758.png,0.0,-0.50911313,0.433429,-0.6664779
alexnet_w1_mlp_simclrhn_probe2,1,259,NaN,bird,keyboard,64-3-10,0259_eid_dnn_64-3-10_keyboard_10_n04505470_4824.png,n04505470_4824.png,0.0,-3.79281,-0.5820625,-2.2703414
alexnet_w1_mlp_simclrhn_probe2,1,260,NaN,bicycle,bicycle,2-3-10,0260_eid_dnn_2-3-10_bicycle_10_n02835271_8654.png,n02835271_8654.png,1.0,0.12770487,-0.4679076,0.42116162
alexnet_w1_mlp_simclrhn_probe2,1,261,NaN,oven,keyboard,128-3-10,0261_eid_dnn_128-3-10_keyboard_10_n03085013_34973.png,n03085013_34973.png,0.0,-2.3514972,-0.5123171,-1.3004967
alexnet_w1_mlp_simclrhn_probe2,1,262,NaN,cat,cat,4-3-10,0262_eid_dnn_4-3-10_cat_10_n02123394_4228.png,n02123394_4228.png,1.0,0.82244444,-0.1915537,0.71700495
alexnet_w1_mlp_simclrhn_probe2,1,263,NaN,bear,keyboard,32-3-10,0263_eid_dnn_32-3-10_keyboard_10_n03085013_24416.png,n03085013_24416.png,0.0,-1.6680067,0.25499362,-1.3597666
alexnet_w1_mlp_simclrhn_probe2,1,264,NaN,cat,cat,8-3-10,0264_eid_dnn_8-3-10_cat_10_n02124075_5729.png,n02124075_5729.png,1.0,1.5642596,0.47683778,0.7689234
alexnet_w1_mlp_simclrhn_probe2,1,265,NaN,oven,clock,32-3-10,0265_eid_dnn_32-3-10_clock_10_n03196217_6357.png,n03196217_6357.png,0.0,-1.4391994,0.10067925,-1.0888587
alexnet_w1_mlp_simclrhn_probe2,1,266,NaN,oven,truck,128-3-10,0266_eid_dnn_128-3-10_truck_10_n03417042_29478.png,n03417042_29478.png,0.0,-3.1230307,-0.50087035,-1.8541474
alexnet_w1_mlp_simclrhn_probe2,1,267,NaN,bird,chair,128-3-10,0267_eid_dnn_128-3-10_chair_10_n04099969_18678.png,n04099969_18678.png,0.0,-1.9779938,-0.6114847,-0.96626794
alexnet_w1_mlp_simclrhn_probe2,1,268,NaN,oven,clock,32-3-10,0268_eid_dnn_32-3-10_clock_10_n02708093_4286.png,n02708093_4286.png,0.0,-2.8211727,0.7854353,-2.550257
alexnet_w1_mlp_simclrhn_probe2,1,269,NaN,oven,car,128-3-10,0269_eid_dnn_128-3-10_car_10_n03100240_21971.png,n03100240_21971.png,0.0,-5.38061,-0.12773104,-3.7143464
alexnet_w1_mlp_simclrhn_probe2,1,270,NaN,car,car,1-3-10,0270_eid_dnn_1-3-10_car_10_n03100240_84.png,n03100240_84.png,1.0,4.733732,4.5461874,0.13261423
alexnet_w1_mlp_simclrhn_probe2,1,271,NaN,cat,dog,1-3-10,0271_eid_dnn_1-3-10_dog_10_n02094433_3186.png,n02094433_3186.png,0.0,-0.29004988,0.49452296,-0.5547768
alexnet_w1_mlp_simclrhn_probe2,1,272,NaN,dog,dog,4-3-10,0272_eid_dnn_4-3-10_dog_10_n02088364_10195.png,n02088364_10195.png,1.0,1.2756711,0.5147767,0.5380336
alexnet_w1_mlp_simclrhn_probe2,1,273,NaN,bear,knife,16-3-10,0273_eid_dnn_16-3-10_knife_10_n03041632_11358.png,n03041632_11358.png,0.0,-2.5254045,0.42021665,-2.0828686
alexnet_w1_mlp_simclrhn_probe2,1,274,NaN,bird,bird,64-3-10,0274_eid_dnn_64-3-10_bird_10_n01531178_10630.png,n01531178_10630.png,1.0,-0.29512817,-0.3689395,0.052192487
alexnet_w1_mlp_simclrhn_probe2,1,275,NaN,elephant,elephant,1-3-10,0275_eid_dnn_1-3-10_elephant_10_n02504458_4058.png,n02504458_4058.png,1.0,1.3639938,0.2243374,0.80585873
alexnet_w1_mlp_simclrhn_probe2,1,276,NaN,oven,keyboard,32-3-10,0276_eid_dnn_32-3-10_keyboard_10_n03085013_24336.png,n03085013_24336.png,0.0,-3.591386,-0.5030052,-2.183815
alexnet_w1_mlp_simclrhn_probe2,1,277,NaN,bottle,clock,4-3-10,0277_eid_dnn_4-3-10_clock_10_n02708093_386.png,n02708093_386.png,0.0,-0.40768114,0.62701434,-0.7316402
alexnet_w1_mlp_simclrhn_probe2,1,278,NaN,elephant,chair,4-3-10,0278_eid_dnn_4-3-10_chair_10_n04429376_16370.png,n04429376_16370.png,0.0,-2.0488837,0.9033515,-2.0875456
alexnet_w1_mlp_simclrhn_probe2,1,279,NaN,knife,bottle,1-3-10,0279_eid_dnn_1-3-10_bottle_10_n04557648_10167.png,n04557648_10167.png,0.0,-0.8014384,-0.09859896,-0.49698254
alexnet_w1_mlp_simclrhn_probe2,1,280,NaN,bicycle,bicycle,1-3-10,0280_eid_dnn_1-3-10_bicycle_10_n02835271_15717.png,n02835271_15717.png,1.0,1.516475,-0.0053933784,1.0761235
alexnet_w1_mlp_simclrhn_probe2,1,281,NaN,oven,car,128-3-10,0281_eid_dnn_128-3-10_car_10_n03100240_22593.png,n03100240_22593.png,0.0,-6.024662,0.11474216,-4.3412147
alexnet_w1_mlp_simclrhn_probe2,1,282,NaN,car,car,1-3-10,0282_eid_dnn_1-3-10_car_10_n04285008_11240.png,n04285008_11240.png,1.0,5.8040524,1.7014184,2.9010003
alexnet_w1_mlp_simclrhn_probe2,1,283,NaN,boat,boat,1-3-10,0283_eid_dnn_1-3-10_boat_10_n03344393_3337.png,n03344393_3337.png,1.0,0.61157924,0.5935381,0.012757008
alexnet_w1_mlp_simclrhn_probe2,1,284,NaN,oven,bottle,128-3-10,0284_eid_dnn_128-3-10_bottle_10_n04579145_1660.png,n04579145_1660.png,0.0,-1.36214,-0.4442327,-0.6490585
alexnet_w1_mlp_simclrhn_probe2,1,285,NaN,oven,dog,64-3-10,0285_eid_dnn_64-3-10_dog_10_n02091244_9305.png,n02091244_9305.png,0.0,-1.4449425,0.05553755,-1.0609996
alexnet_w1_mlp_simclrhn_probe2,1,286,NaN,oven,chair,32-3-10,0286_eid_dnn_32-3-10_chair_10_n03376595_3912.png,n03376595_3912.png,0.0,-2.2323806,0.162687,-1.6935686
alexnet_w1_mlp_simclrhn_probe2,1,287,NaN,oven,bottle,64-3-10,0287_eid_dnn_64-3-10_bottle_10_n02823428_6793.png,n02823428_6793.png,0.0,-1.6053602,0.14801231,-1.2398216
alexnet_w1_mlp_simclrhn_probe2,1,288,NaN,bear,dog,32-3-10,0288_eid_dnn_32-3-10_dog_10_n02093754_4949.png,n02093754_4949.png,0.0,-1.1519736,0.35892045,-1.0683634
alexnet_w1_mlp_simclrhn_probe2,1,289,NaN,oven,dog,128-3-10,0289_eid_dnn_128-3-10_dog_10_n02105855_10394.png,n02105855_10394.png,0.0,-1.8814985,0.14090288,-1.4300537
alexnet_w1_mlp_simclrhn_probe2,1,290,NaN,bottle,clock,2-3-10,0290_eid_dnn_2-3-10_clock_10_n04548280_9533.png,n04548280_9533.png,0.0,-0.5954427,-0.012760835,-0.41201833
alexnet_w1_mlp_simclrhn_probe2,1,291,NaN,elephant,cat,1-3-10,0291_eid_dnn_1-3-10_cat_10_n02125311_7527.png,n02125311_7527.png,0.0,-0.10609504,0.53206223,-0.45124534
alexnet_w1_mlp_simclrhn_probe2,1,292,NaN,car,car,4-3-10,0292_eid_dnn_4-3-10_car_10_n03100240_4537.png,n03100240_4537.png,1.0,0.27872956,0.14463857,0.09481665
alexnet_w1_mlp_simclrhn_probe2,1,293,NaN,elephant,bicycle,8-3-10,0293_eid_dnn_8-3-10_bicycle_10_n03792782_11609.png,n03792782_11609.png,0.0,-4.589151,0.9214039,-3.8965507
alexnet_w1_mlp_simclrhn_probe2,1,294,NaN,oven,oven,128-3-10,0294_eid_dnn_128-3-10_oven_10_n04111531_6134.png,n04111531_6134.png,1.0,0.05854237,-0.64425546,0.49695313
alexnet_w1_mlp_simclrhn_probe2,1,295,NaN,bottle,bottle,8-3-10,0295_eid_dnn_8-3-10_bottle_10_n04591713_715.png,n04591713_715.png,1.0,-0.95440423,-2.106475,0.8146371
alexnet_w1_mlp_simclrhn_probe2,1,296,NaN,bear,elephant,32-3-10,0296_eid_dnn_32-3-10_elephant_10_n02504458_7818.png,n02504458_7818.png,0.0,-0.076707035,0.11975366,-0.1389187
alexnet_w1_mlp_simclrhn_probe2,1,297,NaN,oven,airplane,64-3-10,0297_eid_dnn_64-3-10_airplane_10_n02690373_7107.png,n02690373_7107.png,0.0,-3.0852337,0.2157774,-2.3341675
alexnet_w1_mlp_simclrhn_probe2,1,298,NaN,bear,car,32-3-10,0298_eid_dnn_32-3-10_car_10_n04285008_8363.png,n04285008_8363.png,0.0,-4.786628,-0.025382347,-3.3667088
alexnet_w1_mlp_simclrhn_probe2,1,299,NaN,oven,clock,4-3-10,0299_eid_dnn_4-3-10_clock_10_n04548280_4249.png,n04548280_4249.png,0.0,-3.2451575,-0.17647226,-2.1698883
alexnet_w1_mlp_simclrhn_probe2,1,300,NaN,oven,cat,128-3-10,0300_eid_dnn_128-3-10_cat_10_n02123597_7269.png,n02123597_7269.png,0.0,-0.18416095,-0.004458919,-0.12706852
alexnet_w1_mlp_simclrhn_probe2,1,301,NaN,bicycle,bicycle,1-3-10,0301_eid_dnn_1-3-10_bicycle_10_n03792782_4864.png,n03792782_4864.png,1.0,5.124245,-0.170672,3.744072
alexnet_w1_mlp_simclrhn_probe2,1,302,NaN,bear,bear,2-3-10,0302_eid_dnn_2-3-10_bear_10_n02132136_8011.png,n02132136_8011.png,1.0,1.6697531,0.22387786,1.0223881
alexnet_w1_mlp_simclrhn_probe2,1,303,NaN,oven,boat,128-3-10,0303_eid_dnn_128-3-10_boat_10_n02951358_4810.png,n02951358_4810.png,0.0,-3.1269474,-0.2111149,-2.061805
alexnet_w1_mlp_simclrhn_probe2,1,304,NaN,oven,clock,128-3-10,0304_eid_dnn_128-3-10_clock_10_n03196217_5137.png,n03196217_5137.png,0.0,-2.8104074,-0.3596539,-1.7329444
alexnet_w1_mlp_simclrhn_probe2,1,305,NaN,bicycle,bicycle,2-3-10,0305_eid_dnn_2-3-10_bicycle_10_n02835271_158.png,n02835271_158.png,1.0,2.2840486,0.15798385,1.5033548
alexnet_w1_mlp_simclrhn_probe2,1,306,NaN,oven,bear,64-3-10,0306_eid_dnn_64-3-10_bear_10_n02132136_11217.png,n02132136_11217.png,0.0,-0.7140814,0.24427782,-0.6776623
alexnet_w1_mlp_simclrhn_probe2,1,307,NaN,oven,dog,64-3-10,0307_eid_dnn_64-3-10_dog_10_n02092002_6122.png,n02092002_6122.png,0.0,-1.1904204,-0.35851836,-0.5882436
alexnet_w1_mlp_simclrhn_probe2,1,308,NaN,oven,chair,32-3-10,0308_eid_dnn_32-3-10_chair_10_n04429376_29223.png,n04429376_29223.png,0.0,-3.4211936,0.118320644,-2.5028145
alexnet_w1_mlp_simclrhn_probe2,1,309,NaN,oven,bear,128-3-10,0309_eid_dnn_128-3-10_bear_10_n02133161_5723.png,n02133161_5723.png,0.0,-2.7983396,-1.1094362,-1.1942351
alexnet_w1_mlp_simclrhn_probe2,1,310,NaN,oven,dog,128-3-10,0310_eid_dnn_128-3-10_dog_10_n02100583_1343.png,n02100583_1343.png,0.0,-1.7710997,-0.34292156,-1.0098745
alexnet_w1_mlp_simclrhn_probe2,1,311,NaN,oven,boat,128-3-10,0311_eid_dnn_128-3-10_boat_10_n03344393_6352.png,n03344393_6352.png,0.0,-3.1965168,0.2476771,-2.435413
alexnet_w1_mlp_simclrhn_probe2,1,312,NaN,bird,bird,4-3-10,0312_eid_dnn_4-3-10_bird_10_n01560419_8247.png,n01560419_8247.png,1.0,0.557211,-1.9629741,1.7820399
alexnet_w1_mlp_simclrhn_probe2,1,313,NaN,dog,dog,4-3-10,0313_eid_dnn_4-3-10_dog_10_n02105251_8210.png,n02105251_8210.png,1.0,1.1344103,0.7251269,0.28940704
alexnet_w1_mlp_simclrhn_probe2,1,314,NaN,oven,oven,128-3-10,0314_eid_dnn_128-3-10_oven_10_n04111531_9702.png,n04111531_9702.png,1.0,-0.40949887,-0.63698673,0.16085821
alexnet_w1_mlp_simclrhn_probe2,1,315,NaN,bear,bear,8-3-10,0315_eid_dnn_8-3-10_bear_10_n02133161_12161.png,n02133161_12161.png,1.0,0.32411617,0.18306057,0.09974137
alexnet_w1_mlp_simclrhn_probe2,1,316,NaN,bear,bear,8-3-10,0316_eid_dnn_8-3-10_bear_10_n02133161_13556.png,n02133161_13556.png,1.0,1.6822104,0.58352166,0.77689034
alexnet_w1_mlp_simclrhn_probe2,1,317,NaN,oven,bear,128-3-10,0317_eid_dnn_128-3-10_bear_10_n02134084_635.png,n02134084_635.png,0.0,-1.35903,-0.5987406,-0.5376058
alexnet_w1_mlp_simclrhn_probe2,1,318,NaN,oven,chair,128-3-10,0318_eid_dnn_128-3-10_chair_10_n02791124_6956.png,n02791124_6956.png,0.0,-3.0838642,-0.41369668,-1.8880936
alexnet_w1_mlp_simclrhn_probe2,1,319,NaN,oven,car,4-3-10,0319_eid_dnn_4-3-10_car_10_n02814533_18077.png,n02814533_18077.png,0.0,-0.96911573,0.015311062,-0.6960949
alexnet_w1_mlp_simclrhn_probe2,1,320,NaN,knife,dog,2-3-10,0320_eid_dnn_2-3-10_dog_10_n02088364_11105.png,n02088364_11105.png,0.0,-1.7065609,0.05129829,-1.2429941
alexnet_w1_mlp_simclrhn_probe2,1,321,NaN,oven,airplane,64-3-10,0321_eid_dnn_64-3-10_airplane_10_n02690373_1053.png,n02690373_1053.png,0.0,-4.018462,-0.12126246,-2.7557364
alexnet_w1_mlp_simclrhn_probe2,1,322,NaN,oven,car,16-3-10,0322_eid_dnn_16-3-10_car_10_n02814533_96407.png,n02814533_96407.png,0.0,-5.3723583,1.5043218,-4.8625474
alexnet_w1_mlp_simclrhn_probe2,1,323,NaN,oven,chair,4-3-10,0323_eid_dnn_4-3-10_chair_10_n04099969_31891.png,n04099969_31891.png,0.0,0.04169768,1.3746027,-0.9425062
alexnet_w1_mlp_simclrhn_probe2,1,324,NaN,bear,bottle,16-3-10,0324_eid_dnn_16-3-10_bottle_10_n04557648_4470.png,n04557648_4470.png,0.0,-1.5923688,-0.5292138,-0.7517642
alexnet_w1_mlp_simclrhn_probe2,1,325,NaN,cat,clock,8-3-10,0325_eid_dnn_8-3-10_clock_10_n02708093_2588.png,n02708093_2588.png,0.0,-4.5690618,-1.570273,-2.1204638
alexnet_w1_mlp_simclrhn_probe2,1,326,NaN,oven,elephant,128-3-10,0326_eid_dnn_128-3-10_elephant_10_n02504458_6696.png,n02504458_6696.png,0.0,-1.3322783,-0.49929345,-0.5890092
alexnet_w1_mlp_simclrhn_probe2,1,327,NaN,bear,elephant,32-3-10,0327_eid_dnn_32-3-10_elephant_10_n02504013_4071.png,n02504013_4071.png,0.0,-0.17785792,0.27756757,-0.32203448
alexnet_w1_mlp_simclrhn_probe2,1,328,NaN,knife,keyboard,8-3-10,0328_eid_dnn_8-3-10_keyboard_10_n03085013_8339.png,n03085013_8339.png,0.0,-2.1971147,-0.53468263,-1.175517
alexnet_w1_mlp_simclrhn_probe2,1,329,NaN,oven,elephant,64-3-10,0329_eid_dnn_64-3-10_elephant_10_n02504013_6976.png,n02504013_6976.png,0.0,-0.5988515,-0.40204856,-0.1391607
alexnet_w1_mlp_simclrhn_probe2,1,330,NaN,bear,boat,4-3-10,0330_eid_dnn_4-3-10_boat_10_n02951358_9146.png,n02951358_9146.png,0.0,-1.9355233,1.5189466,-2.4426792
alexnet_w1_mlp_simclrhn_probe2,1,331,NaN,bear,boat,32-3-10,0331_eid_dnn_32-3-10_boat_10_n04273569_4087.png,n04273569_4087.png,0.0,-0.99329484,-0.29754972,-0.4919661
alexnet_w1_mlp_simclrhn_probe2,1,332,NaN,bear,oven,64-3-10,0332_eid_dnn_64-3-10_oven_10_n04111531_2922.png,n04111531_2922.png,0.0,-0.48510212,-0.282838,-0.14302234
alexnet_w1_mlp_simclrhn_probe2,1,333,NaN,bear,bear,4-3-10,0333_eid_dnn_4-3-10_bear_10_n02133161_5325.png,n02133161_5325.png,1.0,2.058141,0.5591206,1.0599675
alexnet_w1_mlp_simclrhn_probe2,1,334,NaN,oven,bottle,64-3-10,0334_eid_dnn_64-3-10_bottle_10_n04557648_3109.png,n04557648_3109.png,0.0,-1.2511564,-0.10103966,-0.8132554
alexnet_w1_mlp_simclrhn_probe2,1,335,NaN,oven,oven,1-3-10,0335_eid_dnn_1-3-10_oven_10_n04111531_15912.png,n04111531_15912.png,1.0,2.498116,-0.057539254,1.8071212
alexnet_w1_mlp_simclrhn_probe2,1,336,NaN,oven,truck,16-3-10,0336_eid_dnn_16-3-10_truck_10_n03417042_17099.png,n03417042_17099.png,0.0,-4.9627457,0.72694194,-4.0232167
alexnet_w1_mlp_simclrhn_probe2,1,337,NaN,car,car,2-3-10,0337_eid_dnn_2-3-10_car_10_n04285008_8641.png,n04285008_8641.png,1.0,1.0948876,0.3162462,0.55058265
alexnet_w1_mlp_simclrhn_probe2,1,338,NaN,bear,keyboard,32-3-10,0338_eid_dnn_32-3-10_keyboard_10_n04505470_524.png,n04505470_524.png,0.0,-4.8337774,-0.63471174,-2.969188
alexnet_w1_mlp_simclrhn_probe2,1,339,NaN,elephant,bottle,8-3-10,0339_eid_dnn_8-3-10_bottle_10_n04557648_5935.png,n04557648_5935.png,0.0,-2.2792597,0.8487045,-2.2118049
alexnet_w1_mlp_simclrhn_probe2,1,340,NaN,oven,bottle,1-3-10,0340_eid_dnn_1-3-10_bottle_10_n04591713_3776.png,n04591713_3776.png,0.0,0.20885912,0.8154305,-0.4289108
alexnet_w1_mlp_simclrhn_probe2,1,341,NaN,truck,truck,2-3-10,0341_eid_dnn_2-3-10_truck_10_n03796401_3651.png,n03796401_3651.png,1.0,3.6872501,0.7591734,2.070463
alexnet_w1_mlp_simclrhn_probe2,1,342,NaN,bear,bicycle,128-3-10,0342_eid_dnn_128-3-10_bicycle_10_n03792782_15757.png,n03792782_15757.png,0.0,-1.3297979,-0.5898508,-0.5232216
alexnet_w1_mlp_simclrhn_probe2,1,343,NaN,oven,cat,32-3-10,0343_eid_dnn_32-3-10_cat_10_n02123597_8698.png,n02123597_8698.png,0.0,-0.94588065,0.4634992,-0.99658203
alexnet_w1_mlp_simclrhn_probe2,1,344,NaN,airplane,boat,1-3-10,0344_eid_dnn_1-3-10_boat_10_n03662601_273.png,n03662601_273.png,0.0,0.9408032,0.98366034,-0.030304596
alexnet_w1_mlp_simclrhn_probe2,1,345,NaN,knife,knife,1-3-10,0345_eid_dnn_1-3-10_knife_10_n03041632_24376.png,n03041632_24376.png,1.0,0.31594226,-1.0946367,0.99742997
alexnet_w1_mlp_simclrhn_probe2,1,346,NaN,truck,keyboard,1-3-10,0346_eid_dnn_1-3-10_keyboard_10_n04505470_2608.png,n04505470_2608.png,0.0,-2.0711598,-0.2409333,-1.2941656
alexnet_w1_mlp_simclrhn_probe2,1,347,NaN,bear,boat,16-3-10,0347_eid_dnn_16-3-10_boat_10_n04273569_10665.png,n04273569_10665.png,0.0,-0.6831667,-0.18063171,-0.3553459
alexnet_w1_mlp_simclrhn_probe2,1,348,NaN,oven,bear,64-3-10,0348_eid_dnn_64-3-10_bear_10_n02133161_5267.png,n02133161_5267.png,0.0,-0.7982987,-0.011262611,-0.5565186
alexnet_w1_mlp_simclrhn_probe2,1,349,NaN,oven,bear,128-3-10,0349_eid_dnn_128-3-10_bear_10_n02133161_5020.png,n02133161_5020.png,0.0,-0.49939936,-0.40393004,-0.067507006
alexnet_w1_mlp_simclrhn_probe2,1,350,NaN,oven,knife,128-3-10,0350_eid_dnn_128-3-10_knife_10_n03041632_21723.png,n03041632_21723.png,0.0,-2.4336326,0.15984783,-1.8338675
alexnet_w1_mlp_simclrhn_probe2,1,351,NaN,oven,boat,32-3-10,0351_eid_dnn_32-3-10_boat_10_n02951358_31101.png,n02951358_31101.png,0.0,-2.023836,0.17609781,-1.5555881
alexnet_w1_mlp_simclrhn_probe2,1,352,NaN,oven,dog,128-3-10,0352_eid_dnn_128-3-10_dog_10_n02102177_4180.png,n02102177_4180.png,0.0,-1.5774144,-0.61379266,-0.6813835
alexnet_w1_mlp_simclrhn_probe2,1,353,NaN,bottle,bottle,4-3-10,0353_eid_dnn_4-3-10_bottle_10_n04579145_4186.png,n04579145_4186.png,1.0,3.4389572,0.7513547,1.900422
alexnet_w1_mlp_simclrhn_probe2,1,354,NaN,bear,bicycle,64-3-10,0354_eid_dnn_64-3-10_bicycle_10_n03792782_2246.png,n03792782_2246.png,0.0,-1.4770604,0.2235294,-1.2024987
alexnet_w1_mlp_simclrhn_probe2,1,355,NaN,dog,dog,1-3-10,0355_eid_dnn_1-3-10_dog_10_n02110958_1526.png,n02110958_1526.png,1.0,0.38739815,-1.8364935,1.572529
alexnet_w1_mlp_simclrhn_probe2,1,356,NaN,oven,keyboard,128-3-10,0356_eid_dnn_128-3-10_keyboard_10_n04505470_255.png,n04505470_255.png,0.0,-4.7923717,-0.6257243,-2.9462647
alexnet_w1_mlp_simclrhn_probe2,1,357,NaN,bear,elephant,4-3-10,0357_eid_dnn_4-3-10_elephant_10_n02504458_1933.png,n02504458_1933.png,0.0,0.4235354,0.57749015,-0.108862445
alexnet_w1_mlp_simclrhn_probe2,1,358,NaN,cat,cat,2-3-10,0358_eid_dnn_2-3-10_cat_10_n02123159_5749.png,n02123159_5749.png,1.0,2.349029,-0.85780245,2.2675724
alexnet_w1_mlp_simclrhn_probe2,1,359,NaN,oven,airplane,128-3-10,0359_eid_dnn_128-3-10_airplane_10_n02690373_2967.png,n02690373_2967.png,0.0,-1.9823492,-0.73300016,-0.88342315
alexnet_w1_mlp_simclrhn_probe2,1,360,NaN,cat,chair,8-3-10,0360_eid_dnn_8-3-10_chair_10_n04099969_72.png,n04099969_72.png,0.0,-4.083466,0.05158351,-2.9239216
alexnet_w1_mlp_simclrhn_probe2,1,361,NaN,oven,cat,32-3-10,0361_eid_dnn_32-3-10_cat_10_n02123045_4089.png,n02123045_4089.png,0.0,-0.25625965,0.34937412,-0.42824772
alexnet_w1_mlp_simclrhn_probe2,1,362,NaN,oven,bird,128-3-10,0362_eid_dnn_128-3-10_bird_10_n01616318_13293.png,n01616318_13293.png,0.0,-2.4384074,-0.09489032,-1.6571169
alexnet_w1_mlp_simclrhn_probe2,1,363,NaN,cat,cat,4-3-10,0363_eid_dnn_4-3-10_cat_10_n02124075_13719.png,n02124075_13719.png,1.0,1.0175079,0.1837109,0.5895835
alexnet_w1_mlp_simclrhn_probe2,1,364,NaN,bear,oven,32-3-10,0364_eid_dnn_32-3-10_oven_10_n04111531_22466.png,n04111531_22466.png,0.0,-0.41808736,0.37647778,-0.5618424
alexnet_w1_mlp_simclrhn_probe2,1,365,NaN,oven,airplane,128-3-10,0365_eid_dnn_128-3-10_airplane_10_n02690373_2525.png,n02690373_2525.png,0.0,-6.0664396,-0.43458128,-3.9823253
alexnet_w1_mlp_simclrhn_probe2,1,366,NaN,cat,cat,1-3-10,0366_eid_dnn_1-3-10_cat_10_n02124075_5369.png,n02124075_5369.png,1.0,1.3911219,0.67534566,0.5061302
alexnet_w1_mlp_simclrhn_probe2,1,367,NaN,oven,bird,64-3-10,0367_eid_dnn_64-3-10_bird_10_n01843065_4182.png,n01843065_4182.png,0.0,-0.69680643,-0.17873713,-0.3663303
alexnet_w1_mlp_simclrhn_probe2,1,368,NaN,truck,truck,2-3-10,0368_eid_dnn_2-3-10_truck_10_n03796401_6472.png,n03796401_6472.png,1.0,0.760434,0.1463758,0.43420467
alexnet_w1_mlp_simclrhn_probe2,1,369,NaN,oven,airplane,64-3-10,0369_eid_dnn_64-3-10_airplane_10_n02690373_3090.png,n02690373_3090.png,0.0,-3.1254587,0.8075304,-2.7810433
alexnet_w1_mlp_simclrhn_probe2,1,370,NaN,oven,bear,64-3-10,0370_eid_dnn_64-3-10_bear_10_n02134418_2964.png,n02134418_2964.png,0.0,0.05048498,0.06013841,-0.0068260063
alexnet_w1_mlp_simclrhn_probe2,1,371,NaN,elephant,elephant,16-3-10,0371_eid_dnn_16-3-10_elephant_10_n02504013_6904.png,n02504013_6904.png,1.0,1.9727683,1.9400054,0.02316686
alexnet_w1_mlp_simclrhn_probe2,1,372,NaN,bear,bottle,32-3-10,0372_eid_dnn_32-3-10_bottle_10_n02823428_13488.png,n02823428_13488.png,0.0,-2.6750119,0.40988493,-2.1813514
alexnet_w1_mlp_simclrhn_probe2,1,373,NaN,car,car,1-3-10,0373_eid_dnn_1-3-10_car_10_n02814533_49499.png,n02814533_49499.png,1.0,9.831263,4.5506105,3.733985
alexnet_w1_mlp_simclrhn_probe2,1,374,NaN,bird,clock,64-3-10,0374_eid_dnn_64-3-10_clock_10_n03196217_1000.png,n03196217_1000.png,0.0,-2.5224798,-0.64709914,-1.3260944
alexnet_w1_mlp_simclrhn_probe2,1,375,NaN,bear,boat,16-3-10,0375_eid_dnn_16-3-10_boat_10_n04612504_13446.png,n04612504_13446.png,0.0,-1.6138796,0.4165861,-1.435756
alexnet_w1_mlp_simclrhn_probe2,1,376,NaN,bear,cat,8-3-10,0376_eid_dnn_8-3-10_cat_10_n02123159_7239.png,n02123159_7239.png,0.0,0.24041544,0.38584828,-0.10283655
alexnet_w1_mlp_simclrhn_probe2,1,377,NaN,bear,airplane,8-3-10,0377_eid_dnn_8-3-10_airplane_10_n02690373_7499.png,n02690373_7499.png,0.0,-1.5938879,-0.30320922,-0.9126477
alexnet_w1_mlp_simclrhn_probe2,1,378,NaN,oven,dog,64-3-10,0378_eid_dnn_64-3-10_dog_10_n02100877_8862.png,n02100877_8862.png,0.0,-1.0418049,0.067195244,-0.7841816
alexnet_w1_mlp_simclrhn_probe2,1,379,NaN,keyboard,keyboard,2-3-10,0379_eid_dnn_2-3-10_keyboard_10_n03085013_7152.png,n03085013_7152.png,1.0,3.3472738,0.042973604,2.3364933
alexnet_w1_mlp_simclrhn_probe2,1,380,NaN,bear,bottle,32-3-10,0380_eid_dnn_32-3-10_bottle_10_n03937543_3344.png,n03937543_3344.png,0.0,-2.3076243,-0.09146416,-1.567062
alexnet_w1_mlp_simclrhn_probe2,1,381,NaN,bear,bicycle,64-3-10,0381_eid_dnn_64-3-10_bicycle_10_n02835271_1721.png,n02835271_1721.png,0.0,-1.996706,0.12191844,-1.4980937
alexnet_w1_mlp_simclrhn_probe2,1,382,NaN,boat,boat,2-3-10,0382_eid_dnn_2-3-10_boat_10_n04273569_7039.png,n04273569_7039.png,1.0,1.6075773,-0.86046934,1.7451726
alexnet_w1_mlp_simclrhn_probe2,1,383,NaN,airplane,airplane,1-3-10,0383_eid_dnn_1-3-10_airplane_10_n02690373_5790.png,n02690373_5790.png,1.0,3.178429,-0.11795387,2.3308945
alexnet_w1_mlp_simclrhn_probe2,1,384,NaN,elephant,bird,2-3-10,0384_eid_dnn_2-3-10_bird_10_n02007558_4629.png,n02007558_4629.png,0.0,-0.8284996,0.616578,-1.0218242
alexnet_w1_mlp_simclrhn_probe2,1,385,NaN,airplane,airplane,8-3-10,0385_eid_dnn_8-3-10_airplane_10_n02690373_2313.png,n02690373_2313.png,1.0,0.47023726,-0.6680301,0.8048765
alexnet_w1_mlp_simclrhn_probe2,1,386,NaN,car,car,2-3-10,0386_eid_dnn_2-3-10_car_10_n02814533_65093.png,n02814533_65093.png,1.0,6.610745,3.5924897,2.1342287
alexnet_w1_mlp_simclrhn_probe2,1,387,NaN,bicycle,bicycle,2-3-10,0387_eid_dnn_2-3-10_bicycle_10_n03792782_4559.png,n03792782_4559.png,1.0,1.4853601,-2.044794,2.496196
alexnet_w1_mlp_simclrhn_probe2,1,388,NaN,oven,oven,2-3-10,0388_eid_dnn_2-3-10_oven_10_n04111531_16696.png,n04111531_16696.png,1.0,3.425929,0.75417835,1.8892131
alexnet_w1_mlp_simclrhn_probe2,1,389,NaN,oven,boat,32-3-10,0389_eid_dnn_32-3-10_boat_10_n04273569_5593.png,n04273569_5593.png,0.0,-2.1078997,0.032124706,-1.5132258
alexnet_w1_mlp_simclrhn_probe2,1,390,NaN,oven,bottle,128-3-10,0390_eid_dnn_128-3-10_bottle_10_n03937543_6624.png,n03937543_6624.png,0.0,-1.0535,-0.14146161,-0.6449086
alexnet_w1_mlp_simclrhn_probe2,1,391,NaN,airplane,airplane,1-3-10,0391_eid_dnn_1-3-10_airplane_10_n02690373_12436.png,n02690373_12436.png,1.0,5.2689123,2.3579612,2.0583534
alexnet_w1_mlp_simclrhn_probe2,1,392,NaN,bird,bird,2-3-10,0392_eid_dnn_2-3-10_bird_10_n01828970_6924.png,n01828970_6924.png,1.0,1.8962904,0.45899934,1.0163183
alexnet_w1_mlp_simclrhn_probe2,1,393,NaN,airplane,airplane,4-3-10,0393_eid_dnn_4-3-10_airplane_10_n02690373_9605.png,n02690373_9605.png,1.0,0.39740863,-1.5392941,1.3694557
alexnet_w1_mlp_simclrhn_probe2,1,394,NaN,oven,truck,128-3-10,0394_eid_dnn_128-3-10_truck_10_n03796401_1335.png,n03796401_1335.png,0.0,-3.0304515,-0.26073083,-1.9584883
alexnet_w1_mlp_simclrhn_probe2,1,395,NaN,oven,chair,64-3-10,0395_eid_dnn_64-3-10_chair_10_n04429376_10476.png,n04429376_10476.png,0.0,-3.5704308,0.2775133,-2.7209074
alexnet_w1_mlp_simclrhn_probe2,1,396,NaN,bottle,bottle,1-3-10,0396_eid_dnn_1-3-10_bottle_10_n04560804_32760.png,n04560804_32760.png,1.0,2.3825963,-0.5598063,2.0805929
alexnet_w1_mlp_simclrhn_probe2,1,397,NaN,oven,airplane,32-3-10,0397_eid_dnn_32-3-10_airplane_10_n02690373_10817.png,n02690373_10817.png,0.0,-3.325601,-0.37322548,-2.0876448
alexnet_w1_mlp_simclrhn_probe2,1,398,NaN,oven,car,32-3-10,0398_eid_dnn_32-3-10_car_10_n03100240_5946.png,n03100240_5946.png,0.0,-6.0493393,0.83290994,-4.866485
alexnet_w1_mlp_simclrhn_probe2,1,399,NaN,oven,clock,64-3-10,0399_eid_dnn_64-3-10_clock_10_n02708093_2875.png,n02708093_2875.png,0.0,-3.4498937,-0.054842293,-2.4006639
alexnet_w1_mlp_simclrhn_probe2,1,400,NaN,bear,bear,2-3-10,0400_eid_dnn_2-3-10_bear_10_n02133161_2456.png,n02133161_2456.png,1.0,3.292019,0.82953835,1.7412367
alexnet_w1_mlp_simclrhn_probe2,1,401,NaN,bear,bird,8-3-10,0401_eid_dnn_8-3-10_bird_10_n01855672_15317.png,n01855672_15317.png,0.0,-1.791474,0.19448306,-1.4042838
alexnet_w1_mlp_simclrhn_probe2,1,402,NaN,dog,dog,8-3-10,0402_eid_dnn_8-3-10_dog_10_n02098286_2242.png,n02098286_2242.png,1.0,1.0282521,-0.15903223,0.83953685
alexnet_w1_mlp_simclrhn_probe2,1,403,NaN,knife,knife,2-3-10,0403_eid_dnn_2-3-10_knife_10_n03041632_43289.png,n03041632_43289.png,1.0,0.034440346,-0.10377693,0.09773437
alexnet_w1_mlp_simclrhn_probe2,1,404,NaN,bottle,bottle,4-3-10,0404_eid_dnn_4-3-10_bottle_10_n02823428_4387.png,n02823428_4387.png,1.0,2.9643817,1.1759816,1.2645898
alexnet_w1_mlp_simclrhn_probe2,1,405,NaN,oven,knife,64-3-10,0405_eid_dnn_64-3-10_knife_10_n03041632_13194.png,n03041632_13194.png,0.0,-1.8750017,0.52057016,-1.693925
alexnet_w1_mlp_simclrhn_probe2,1,406,NaN,airplane,airplane,8-3-10,0406_eid_dnn_8-3-10_airplane_10_n02690373_7465.png,n02690373_7465.png,1.0,0.29334587,-0.8079772,0.77875304
alexnet_w1_mlp_simclrhn_probe2,1,407,NaN,boat,bird,4-3-10,0407_eid_dnn_4-3-10_bird_10_n02018207_2282.png,n02018207_2282.png,0.0,-0.32202843,0.008801788,-0.23393229
alexnet_w1_mlp_simclrhn_probe2,1,408,NaN,oven,chair,64-3-10,0408_eid_dnn_64-3-10_chair_10_n04099969_34351.png,n04099969_34351.png,0.0,-2.1860175,0.11465554,-1.6268215
alexnet_w1_mlp_simclrhn_probe2,1,409,NaN,oven,bottle,64-3-10,0409_eid_dnn_64-3-10_bottle_10_n03937543_49.png,n03937543_49.png,0.0,-0.84715587,-0.14084318,-0.49943846
alexnet_w1_mlp_simclrhn_probe2,1,410,NaN,bicycle,bicycle,8-3-10,0410_eid_dnn_8-3-10_bicycle_10_n03792782_9833.png,n03792782_9833.png,1.0,-0.14035442,-0.4143014,0.19370976
alexnet_w1_mlp_simclrhn_probe2,1,411,NaN,bottle,clock,4-3-10,0411_eid_dnn_4-3-10_clock_10_n03196217_10384.png,n03196217_10384.png,0.0,-0.44898772,0.49558812,-0.667916
alexnet_w1_mlp_simclrhn_probe2,1,412,NaN,oven,truck,64-3-10,0412_eid_dnn_64-3-10_truck_10_n04467665_4492.png,n04467665_4492.png,0.0,-3.0681643,-0.08381112,-2.1102564
alexnet_w1_mlp_simclrhn_probe2,1,413,NaN,oven,bottle,128-3-10,0413_eid_dnn_128-3-10_bottle_10_n03983396_5148.png,n03983396_5148.png,0.0,-1.3747023,-0.36798963,-0.7118534
alexnet_w1_mlp_simclrhn_probe2,1,414,NaN,oven,clock,128-3-10,0414_eid_dnn_128-3-10_clock_10_n04548280_4364.png,n04548280_4364.png,0.0,-1.7632475,-0.002689615,-1.2449025
alexnet_w1_mlp_simclrhn_probe2,1,415,NaN,cat,cat,1-3-10,0415_eid_dnn_1-3-10_cat_10_n02123394_6792.png,n02123394_6792.png,1.0,2.127194,0.47767943,1.1663829
alexnet_w1_mlp_simclrhn_probe2,1,416,NaN,bear,oven,16-3-10,0416_eid_dnn_16-3-10_oven_10_n04111531_1298.png,n04111531_1298.png,0.0,0.18308428,0.39521256,-0.14999735
alexnet_w1_mlp_simclrhn_probe2,1,417,NaN,oven,clock,8-3-10,0417_eid_dnn_8-3-10_clock_10_n04548280_2334.png,n04548280_2334.png,0.0,-2.356881,0.08375652,-1.7257912
alexnet_w1_mlp_simclrhn_probe2,1,418,NaN,oven,car,32-3-10,0418_eid_dnn_32-3-10_car_10_n04285008_15570.png,n04285008_15570.png,0.0,-5.9977303,0.83063716,-4.828385
alexnet_w1_mlp_simclrhn_probe2,1,419,NaN,bear,dog,32-3-10,0419_eid_dnn_32-3-10_dog_10_n02087394_7569.png,n02087394_7569.png,0.0,-0.88711077,-0.03313402,-0.60385275
alexnet_w1_mlp_simclrhn_probe2,1,420,NaN,oven,clock,32-3-10,0420_eid_dnn_32-3-10_clock_10_n03196217_11445.png,n03196217_11445.png,0.0,-3.0324671,0.05263807,-2.1814988
alexnet_w1_mlp_simclrhn_probe2,1,421,NaN,bear,chair,32-3-10,0421_eid_dnn_32-3-10_chair_10_n04099969_3095.png,n04099969_3095.png,0.0,-2.2070842,0.20841555,-1.7080163
alexnet_w1_mlp_simclrhn_probe2,1,422,NaN,bear,bird,64-3-10,0422_eid_dnn_64-3-10_bird_10_n01601694_935.png,n01601694_935.png,0.0,-0.57985926,-0.12630166,-0.32071367
alexnet_w1_mlp_simclrhn_probe2,1,423,NaN,cat,bird,2-3-10,0423_eid_dnn_2-3-10_bird_10_n01592084_3570.png,n01592084_3570.png,0.0,-1.9223235,0.59828883,-1.7823421
alexnet_w1_mlp_simclrhn_probe2,1,424,NaN,oven,dog,64-3-10,0424_eid_dnn_64-3-10_dog_10_n02090379_605.png,n02090379_605.png,0.0,-1.1382158,0.30178225,-1.0182323
alexnet_w1_mlp_simclrhn_probe2,1,425,NaN,airplane,airplane,1-3-10,0425_eid_dnn_1-3-10_airplane_10_n02690373_3912.png,n02690373_3912.png,1.0,4.8783283,-0.76608294,3.9912014
alexnet_w1_mlp_simclrhn_probe2,1,426,NaN,oven,oven,128-3-10,0426_eid_dnn_128-3-10_oven_10_n04111531_986.png,n04111531_986.png,1.0,-0.5568033,-0.88024706,0.22870928
alexnet_w1_mlp_simclrhn_probe2,1,427,NaN,bear,knife,32-3-10,0427_eid_dnn_32-3-10_knife_10_n03041632_23736.png,n03041632_23736.png,0.0,-2.396325,0.06545373,-1.7407405
alexnet_w1_mlp_simclrhn_probe2,1,428,NaN,clock,clock,4-3-10,0428_eid_dnn_4-3-10_clock_10_n04548280_10686.png,n04548280_10686.png,1.0,-0.6897842,-0.81275976,0.08695683
alexnet_w1_mlp_simclrhn_probe2,1,429,NaN,bear,oven,32-3-10,0429_eid_dnn_32-3-10_oven_10_n04111531_21460.png,n04111531_21460.png,0.0,0.27353334,0.5610447,-0.20330122
alexnet_w1_mlp_simclrhn_probe2,1,430,NaN,oven,bottle,32-3-10,0430_eid_dnn_32-3-10_bottle_10_n04557648_3675.png,n04557648_3675.png,0.0,-1.6880082,0.8116935,-1.7675561
alexnet_w1_mlp_simclrhn_probe2,1,431,NaN,oven,chair,8-3-10,0431_eid_dnn_8-3-10_chair_10_n02791124_495.png,n02791124_495.png,0.0,-1.782331,-0.07765208,-1.20539
alexnet_w1_mlp_simclrhn_probe2,1,432,NaN,oven,chair,128-3-10,0432_eid_dnn_128-3-10_chair_10_n04429376_9165.png,n04429376_9165.png,0.0,-2.7077124,-0.16992751,-1.7944849
alexnet_w1_mlp_simclrhn_probe2,1,433,NaN,clock,clock,1-3-10,0433_eid_dnn_1-3-10_clock_10_n04548280_2937.png,n04548280_2937.png,1.0,0.317492,-0.55094826,0.61408
alexnet_w1_mlp_simclrhn_probe2,1,434,NaN,bear,bear,32-3-10,0434_eid_dnn_32-3-10_bear_10_n02134418_5849.png,n02134418_5849.png,1.0,-0.15721972,-0.51191425,0.25080693
alexnet_w1_mlp_simclrhn_probe2,1,435,NaN,oven,bottle,128-3-10,0435_eid_dnn_128-3-10_bottle_10_n04560804_2521.png,n04560804_2521.png,0.0,-1.2370826,-0.650697,-0.41463724
alexnet_w1_mlp_simclrhn_probe2,1,436,NaN,cat,car,8-3-10,0436_eid_dnn_8-3-10_car_10_n04285008_11600.png,n04285008_11600.png,0.0,-4.361874,-0.34868792,-2.8377512
alexnet_w1_mlp_simclrhn_probe2,1,437,NaN,knife,knife,2-3-10,0437_eid_dnn_2-3-10_knife_10_n03041632_79317.png,n03041632_79317.png,1.0,1.6143444,-1.434902,2.1561427
alexnet_w1_mlp_simclrhn_probe2,1,438,NaN,bear,truck,32-3-10,0438_eid_dnn_32-3-10_truck_10_n03417042_6467.png,n03417042_6467.png,0.0,-3.8291109,0.82785034,-3.292969
alexnet_w1_mlp_simclrhn_probe2,1,439,NaN,bird,airplane,64-3-10,0439_eid_dnn_64-3-10_airplane_10_n02690373_303.png,n02690373_303.png,0.0,-2.6696248,-0.50062567,-1.533714
alexnet_w1_mlp_simclrhn_probe2,1,440,NaN,bear,chair,64-3-10,0440_eid_dnn_64-3-10_chair_10_n04099969_2354.png,n04099969_2354.png,0.0,-3.3866253,0.0915592,-2.4594479
alexnet_w1_mlp_simclrhn_probe2,1,441,NaN,oven,clock,128-3-10,0441_eid_dnn_128-3-10_clock_10_n04548280_377.png,n04548280_377.png,0.0,-3.199046,-0.6222687,-1.8220567
alexnet_w1_mlp_simclrhn_probe2,1,442,NaN,bear,bicycle,32-3-10,0442_eid_dnn_32-3-10_bicycle_10_n03792782_11597.png,n03792782_11597.png,0.0,-0.6751768,-0.24486376,-0.30427727
alexnet_w1_mlp_simclrhn_probe2,1,443,NaN,bottle,bottle,2-3-10,0443_eid_dnn_2-3-10_bottle_10_n04579145_215.png,n04579145_215.png,1.0,2.29145,-2.3081615,3.2524164
alexnet_w1_mlp_simclrhn_probe2,1,444,NaN,car,car,4-3-10,0444_eid_dnn_4-3-10_car_10_n02814533_95669.png,n02814533_95669.png,1.0,2.9642613,0.91765225,1.4471711
alexnet_w1_mlp_simclrhn_probe2,1,445,NaN,oven,chair,32-3-10,0445_eid_dnn_32-3-10_chair_10_n04429376_51025.png,n04429376_51025.png,0.0,-3.5615706,0.30120084,-2.731392
alexnet_w1_mlp_simclrhn_probe2,1,446,NaN,cat,cat,4-3-10,0446_eid_dnn_4-3-10_cat_10_n02123045_2757.png,n02123045_2757.png,1.0,2.990174,0.7528921,1.5819973
alexnet_w1_mlp_simclrhn_probe2,1,447,NaN,bottle,bottle,4-3-10,0447_eid_dnn_4-3-10_bottle_10_n03937543_2135.png,n03937543_2135.png,1.0,0.28947505,-0.28528637,0.4064177
alexnet_w1_mlp_simclrhn_probe2,1,448,NaN,bird,bird,2-3-10,0448_eid_dnn_2-3-10_bird_10_n01855032_7457.png,n01855032_7457.png,1.0,0.17544119,-0.8601663,0.7322851
alexnet_w1_mlp_simclrhn_probe2,1,449,NaN,oven,car,16-3-10,0449_eid_dnn_16-3-10_car_10_n02814533_24935.png,n02814533_24935.png,0.0,-5.4137874,0.5223882,-4.19751
alexnet_w1_mlp_simclrhn_probe2,1,450,NaN,oven,keyboard,4-3-10,0450_eid_dnn_4-3-10_keyboard_10_n04505470_1371.png,n04505470_1371.png,0.0,-1.611581,1.9164984,-2.494729
alexnet_w1_mlp_simclrhn_probe2,1,451,NaN,bear,dog,16-3-10,0451_eid_dnn_16-3-10_dog_10_n02099267_2379.png,n02099267_2379.png,0.0,-0.52670807,1.1091874,-1.1567528
alexnet_w1_mlp_simclrhn_probe2,1,452,NaN,cat,cat,8-3-10,0452_eid_dnn_8-3-10_cat_10_n02123394_8009.png,n02123394_8009.png,1.0,1.1417192,0.068940476,0.7585691
alexnet_w1_mlp_simclrhn_probe2,1,453,NaN,keyboard,keyboard,2-3-10,0453_eid_dnn_2-3-10_keyboard_10_n03085013_29042.png,n03085013_29042.png,1.0,1.2678838,-0.19947937,1.0375824
alexnet_w1_mlp_simclrhn_probe2,1,454,NaN,oven,airplane,128-3-10,0454_eid_dnn_128-3-10_airplane_10_n02690373_2131.png,n02690373_2131.png,0.0,-3.3966923,0.19157648,-2.5372891
alexnet_w1_mlp_simclrhn_probe2,1,455,NaN,cat,car,8-3-10,0455_eid_dnn_8-3-10_car_10_n03100240_327.png,n03100240_327.png,0.0,-5.4338193,-0.43081805,-3.537656
alexnet_w1_mlp_simclrhn_probe2,1,456,NaN,elephant,elephant,2-3-10,0456_eid_dnn_2-3-10_elephant_10_n02504458_4163.png,n02504458_4163.png,1.0,6.751948,2.2188396,3.2053916
alexnet_w1_mlp_simclrhn_probe2,1,457,NaN,knife,knife,1-3-10,0457_eid_dnn_1-3-10_knife_10_n03041632_9635.png,n03041632_9635.png,1.0,0.10967724,-1.4615033,1.1109924
alexnet_w1_mlp_simclrhn_probe2,1,458,NaN,bear,airplane,16-3-10,0458_eid_dnn_16-3-10_airplane_10_n02690373_1044.png,n02690373_1044.png,0.0,-2.722474,0.30256695,-2.139027
alexnet_w1_mlp_simclrhn_probe2,1,459,NaN,bear,bottle,16-3-10,0459_eid_dnn_16-3-10_bottle_10_n04560804_5441.png,n04560804_5441.png,0.0,-1.2111274,0.021343306,-0.87148845
alexnet_w1_mlp_simclrhn_probe2,1,460,NaN,cat,cat,8-3-10,0460_eid_dnn_8-3-10_cat_10_n02123159_988.png,n02123159_988.png,1.0,0.9906688,-0.0037597343,0.70316714
alexnet_w1_mlp_simclrhn_probe2,1,461,NaN,oven,bird,64-3-10,0461_eid_dnn_64-3-10_bird_10_n01843383_4667.png,n01843383_4667.png,0.0,-1.9770883,0.08141703,-1.4555831
alexnet_w1_mlp_simclrhn_probe2,1,462,NaN,airplane,airplane,2-3-10,0462_eid_dnn_2-3-10_airplane_10_n02690373_6978.png,n02690373_6978.png,1.0,3.1223595,0.6112088,1.7756518
alexnet_w1_mlp_simclrhn_probe2,1,463,NaN,oven,chair,128-3-10,0463_eid_dnn_128-3-10_chair_10_n04099969_5901.png,n04099969_5901.png,0.0,-3.0023577,-0.25193328,-1.9448438
alexnet_w1_mlp_simclrhn_probe2,1,464,NaN,elephant,truck,8-3-10,0464_eid_dnn_8-3-10_truck_10_n03417042_29849.png,n03417042_29849.png,0.0,-2.5541606,1.6589041,-2.9790866
alexnet_w1_mlp_simclrhn_probe2,1,465,NaN,airplane,airplane,1-3-10,0465_eid_dnn_1-3-10_airplane_10_n02690373_427.png,n02690373_427.png,1.0,2.313603,0.04167325,1.6064969
alexnet_w1_mlp_simclrhn_probe2,1,466,NaN,bottle,bottle,4-3-10,0466_eid_dnn_4-3-10_bottle_10_n03983396_2305.png,n03983396_2305.png,1.0,2.496489,0.87081283,1.1495266
alexnet_w1_mlp_simclrhn_probe2,1,467,NaN,oven,oven,64-3-10,0467_eid_dnn_64-3-10_oven_10_n04111531_15296.png,n04111531_15296.png,1.0,-0.20880413,-0.7008317,0.34791604
alexnet_w1_mlp_simclrhn_probe2,1,468,NaN,cat,cat,4-3-10,0468_eid_dnn_4-3-10_cat_10_n02123159_6728.png,n02123159_6728.png,1.0,1.1793135,0.11768353,0.7506858
alexnet_w1_mlp_simclrhn_probe2,1,469,NaN,elephant,elephant,4-3-10,0469_eid_dnn_4-3-10_elephant_10_n02504458_12449.png,n02504458_12449.png,1.0,4.3887815,2.3597512,1.4347411
alexnet_w1_mlp_simclrhn_probe2,1,470,NaN,oven,elephant,128-3-10,0470_eid_dnn_128-3-10_elephant_10_n02504458_12165.png,n02504458_12165.png,0.0,-0.76075244,0.2987406,-0.7491747
alexnet_w1_mlp_simclrhn_probe2,1,471,NaN,bear,airplane,8-3-10,0471_eid_dnn_8-3-10_airplane_10_n02690373_5010.png,n02690373_5010.png,0.0,-0.5481749,-0.213883,-0.2363801
alexnet_w1_mlp_simclrhn_probe2,1,472,NaN,oven,dog,64-3-10,0472_eid_dnn_64-3-10_dog_10_n02100236_4549.png,n02100236_4549.png,0.0,-1.5171859,-0.3860301,-0.79984796
alexnet_w1_mlp_simclrhn_probe2,1,473,NaN,boat,boat,4-3-10,0473_eid_dnn_4-3-10_boat_10_n03344393_4289.png,n03344393_4289.png,1.0,2.2674842,1.7598934,0.35892087
alexnet_w1_mlp_simclrhn_probe2,1,474,NaN,oven,chair,64-3-10,0474_eid_dnn_64-3-10_chair_10_n04099969_48169.png,n04099969_48169.png,0.0,-2.2773464,0.08360417,-1.6694441
alexnet_w1_mlp_simclrhn_probe2,1,475,NaN,airplane,airplane,4-3-10,0475_eid_dnn_4-3-10_airplane_10_n02690373_1996.png,n02690373_1996.png,1.0,2.787163,-0.8971214,2.6051826
alexnet_w1_mlp_simclrhn_probe2,1,476,NaN,oven,truck,128-3-10,0476_eid_dnn_128-3-10_truck_10_n03417042_28078.png,n03417042_28078.png,0.0,-3.2381783,-0.49088517,-1.9426296
alexnet_w1_mlp_simclrhn_probe2,1,477,NaN,oven,truck,8-3-10,0477_eid_dnn_8-3-10_truck_10_n04467665_3098.png,n04467665_3098.png,0.0,-3.7356195,0.03249538,-2.6644597
alexnet_w1_mlp_simclrhn_probe2,1,478,NaN,elephant,elephant,4-3-10,0478_eid_dnn_4-3-10_elephant_10_n02504458_847.png,n02504458_847.png,1.0,4.555211,3.1171455,1.0168658
alexnet_w1_mlp_simclrhn_probe2,1,479,NaN,cat,bicycle,8-3-10,0479_eid_dnn_8-3-10_bicycle_10_n03792782_5880.png,n03792782_5880.png,0.0,-4.1159,0.58390856,-3.3232665
alexnet_w1_mlp_simclrhn_probe2,1,480,NaN,oven,bear,128-3-10,0480_eid_dnn_128-3-10_bear_10_n02132136_30976.png,n02132136_30976.png,0.0,-0.78113854,-0.098348334,-0.4828056
alexnet_w1_mlp_simclrhn_probe2,1,481,NaN,oven,chair,64-3-10,0481_eid_dnn_64-3-10_chair_10_n02791124_2057.png,n02791124_2057.png,0.0,-2.3478394,-0.07878368,-1.6044647
alexnet_w1_mlp_simclrhn_probe2,1,482,NaN,oven,keyboard,128-3-10,0482_eid_dnn_128-3-10_keyboard_10_n03085013_7286.png,n03085013_7286.png,0.0,-3.1854072,-0.1580201,-2.140686
alexnet_w1_mlp_simclrhn_probe2,1,483,NaN,oven,clock,32-3-10,0483_eid_dnn_32-3-10_clock_10_n04548280_1323.png,n04548280_1323.png,0.0,-2.7172258,0.41186666,-2.2126026
alexnet_w1_mlp_simclrhn_probe2,1,484,NaN,oven,bottle,128-3-10,0484_eid_dnn_128-3-10_bottle_10_n03983396_18508.png,n03983396_18508.png,0.0,-1.8542439,-0.4413951,-0.99903494
alexnet_w1_mlp_simclrhn_probe2,1,485,NaN,cat,bottle,8-3-10,0485_eid_dnn_8-3-10_bottle_10_n03983396_3880.png,n03983396_3880.png,0.0,-1.4544631,0.7116347,-1.5316626
alexnet_w1_mlp_simclrhn_probe2,1,486,NaN,oven,dog,128-3-10,0486_eid_dnn_128-3-10_dog_10_n02095570_601.png,n02095570_601.png,0.0,-2.5868719,-0.60529745,-1.4011847
alexnet_w1_mlp_simclrhn_probe2,1,487,NaN,bear,bird,32-3-10,0487_eid_dnn_32-3-10_bird_10_n01797886_21510.png,n01797886_21510.png,0.0,-0.848764,-0.19580352,-0.46171278
alexnet_w1_mlp_simclrhn_probe2,1,488,NaN,chair,chair,1-3-10,0488_eid_dnn_1-3-10_chair_10_n04099969_9425.png,n04099969_9425.png,1.0,1.345264,1.1737232,0.12129762
alexnet_w1_mlp_simclrhn_probe2,1,489,NaN,cat,keyboard,8-3-10,0489_eid_dnn_8-3-10_keyboard_10_n04505470_4228.png,n04505470_4228.png,0.0,-4.520527,-0.46960378,-2.8644354
alexnet_w1_mlp_simclrhn_probe2,1,490,NaN,bear,elephant,32-3-10,0490_eid_dnn_32-3-10_elephant_10_n02504013_7553.png,n02504013_7553.png,0.0,0.050552092,0.42170563,-0.26244518
alexnet_w1_mlp_simclrhn_probe2,1,491,NaN,oven,cat,64-3-10,0491_eid_dnn_64-3-10_cat_10_n02125311_8090.png,n02125311_8090.png,0.0,-0.9648664,0.08284935,-0.74084693
alexnet_w1_mlp_simclrhn_probe2,1,492,NaN,oven,keyboard,8-3-10,0492_eid_dnn_8-3-10_keyboard_10_n04505470_10041.png,n04505470_10041.png,0.0,-3.5310345,1.4250126,-3.5044546
alexnet_w1_mlp_simclrhn_probe2,1,493,NaN,oven,bicycle,4-3-10,0493_eid_dnn_4-3-10_bicycle_10_n03792782_1833.png,n03792782_1833.png,0.0,-0.7519792,0.18221119,-0.66057235
alexnet_w1_mlp_simclrhn_probe2,1,494,NaN,oven,bottle,4-3-10,0494_eid_dnn_4-3-10_bottle_10_n04557648_11642.png,n04557648_11642.png,0.0,-0.7530378,0.283131,-0.732682
alexnet_w1_mlp_simclrhn_probe2,1,495,NaN,oven,car,128-3-10,0495_eid_dnn_128-3-10_car_10_n03100240_7219.png,n03100240_7219.png,0.0,-5.9665885,-1.2319968,-3.3478618
alexnet_w1_mlp_simclrhn_probe2,1,496,NaN,car,truck,1-3-10,0496_eid_dnn_1-3-10_truck_10_n03796401_9642.png,n03796401_9642.png,0.0,6.176712,7.343142,-0.8247906
alexnet_w1_mlp_simclrhn_probe2,1,497,NaN,oven,cat,1-3-10,0497_eid_dnn_1-3-10_cat_10_n02125311_13348.png,n02125311_13348.png,0.0,-1.6044784,1.0740459,-1.8940027
alexnet_w1_mlp_simclrhn_probe2,1,498,NaN,bicycle,bottle,128-3-10,0498_eid_dnn_128-3-10_bottle_10_n04560804_5540.png,n04560804_5540.png,0.0,-1.9719336,-0.9163945,-0.7463789
alexnet_w1_mlp_simclrhn_probe2,1,499,NaN,bottle,bottle,4-3-10,0499_eid_dnn_4-3-10_bottle_10_n03983396_9604.png,n03983396_9604.png,1.0,3.789803,-2.0364237,4.1197643
alexnet_w1_mlp_simclrhn_probe2,1,500,NaN,oven,truck,32-3-10,0500_eid_dnn_32-3-10_truck_10_n03417042_5180.png,n03417042_5180.png,0.0,-2.56321,0.027678024,-1.8320345
alexnet_w1_mlp_simclrhn_probe2,1,501,NaN,bear,dog,16-3-10,0501_eid_dnn_16-3-10_dog_10_n02109525_3364.png,n02109525_3364.png,0.0,-0.3804265,0.35554188,-0.5204082
alexnet_w1_mlp_simclrhn_probe2,1,502,NaN,bottle,clock,2-3-10,0502_eid_dnn_2-3-10_clock_10_n04548280_353.png,n04548280_353.png,0.0,-0.11824795,0.3023179,-0.29738498
alexnet_w1_mlp_simclrhn_probe2,1,503,NaN,dog,dog,1-3-10,0503_eid_dnn_1-3-10_dog_10_n02111129_4423.png,n02111129_4423.png,1.0,0.9777284,0.88282305,0.067108236
alexnet_w1_mlp_simclrhn_probe2,1,504,NaN,bear,dog,16-3-10,0504_eid_dnn_16-3-10_dog_10_n02108000_1538.png,n02108000_1538.png,0.0,-0.73665756,0.55466026,-0.9130996
alexnet_w1_mlp_simclrhn_probe2,1,505,NaN,bear,keyboard,16-3-10,0505_eid_dnn_16-3-10_keyboard_10_n03085013_3439.png,n03085013_3439.png,0.0,-3.3262877,0.43458432,-2.6593382
alexnet_w1_mlp_simclrhn_probe2,1,506,NaN,bear,truck,8-3-10,0506_eid_dnn_8-3-10_truck_10_n03417042_4016.png,n03417042_4016.png,0.0,-4.147973,-0.22464025,-2.7742152
alexnet_w1_mlp_simclrhn_probe2,1,507,NaN,oven,knife,32-3-10,0507_eid_dnn_32-3-10_knife_10_n03041632_39883.png,n03041632_39883.png,0.0,-1.910575,0.22381192,-1.5092396
alexnet_w1_mlp_simclrhn_probe2,1,508,NaN,bear,bear,16-3-10,0508_eid_dnn_16-3-10_bear_10_n02132136_21181.png,n02132136_21181.png,1.0,0.332734,-0.044792563,0.2669516
alexnet_w1_mlp_simclrhn_probe2,1,509,NaN,elephant,elephant,8-3-10,0509_eid_dnn_8-3-10_elephant_10_n02504013_718.png,n02504013_718.png,1.0,2.0317402,1.7595288,0.19248255
alexnet_w1_mlp_simclrhn_probe2,1,510,NaN,oven,oven,2-3-10,0510_eid_dnn_2-3-10_oven_10_n04111531_4146.png,n04111531_4146.png,1.0,3.6050956,0.41349897,2.2567997
alexnet_w1_mlp_simclrhn_probe2,1,511,NaN,airplane,airplane,8-3-10,0511_eid_dnn_8-3-10_airplane_10_n02690373_10769.png,n02690373_10769.png,1.0,-0.22925216,-0.4946182,0.18764214
alexnet_w1_mlp_simclrhn_probe2,1,512,NaN,dog,dog,16-3-10,0512_eid_dnn_16-3-10_dog_10_n02109525_4516.png,n02109525_4516.png,1.0,0.6377254,0.09807568,0.38158998
alexnet_w1_mlp_simclrhn_probe2,1,513,NaN,elephant,boat,4-3-10,0513_eid_dnn_4-3-10_boat_10_n02951358_12333.png,n02951358_12333.png,0.0,-0.60392046,1.0668514,-1.1814141
alexnet_w1_mlp_simclrhn_probe2,1,514,NaN,cat,chair,8-3-10,0514_eid_dnn_8-3-10_chair_10_n04099969_20421.png,n04099969_20421.png,0.0,-3.6425853,0.5377462,-2.9559407
alexnet_w1_mlp_simclrhn_probe2,1,515,NaN,elephant,knife,4-3-10,0515_eid_dnn_4-3-10_knife_10_n03041632_21165.png,n03041632_21165.png,0.0,-0.6172799,-0.4399118,-0.12541817
alexnet_w1_mlp_simclrhn_probe2,1,516,NaN,bicycle,bicycle,1-3-10,0516_eid_dnn_1-3-10_bicycle_10_n02835271_21439.png,n02835271_21439.png,1.0,1.7393372,-1.4739435,2.2721326
alexnet_w1_mlp_simclrhn_probe2,1,517,NaN,airplane,boat,1-3-10,0517_eid_dnn_1-3-10_boat_10_n04273569_24526.png,n04273569_24526.png,0.0,2.0082307,2.0875113,-0.05605986
alexnet_w1_mlp_simclrhn_probe2,1,518,NaN,bear,bottle,32-3-10,0518_eid_dnn_32-3-10_bottle_10_n04579145_2276.png,n04579145_2276.png,0.0,-2.4538198,0.4036744,-2.0205536
alexnet_w1_mlp_simclrhn_probe2,1,519,NaN,bear,bear,8-3-10,0519_eid_dnn_8-3-10_bear_10_n02134418_1642.png,n02134418_1642.png,1.0,1.136016,0.3653814,0.544921
alexnet_w1_mlp_simclrhn_probe2,1,520,NaN,bicycle,bicycle,1-3-10,0520_eid_dnn_1-3-10_bicycle_10_n02835271_15468.png,n02835271_15468.png,1.0,7.036829,-0.7114874,5.478887
alexnet_w1_mlp_simclrhn_probe2,1,521,NaN,oven,keyboard,64-3-10,0521_eid_dnn_64-3-10_keyboard_10_n03085013_26532.png,n03085013_26532.png,0.0,-1.6316643,-0.3606726,-0.8987269
alexnet_w1_mlp_simclrhn_probe2,1,522,NaN,bear,clock,64-3-10,0522_eid_dnn_64-3-10_clock_10_n03196217_6809.png,n03196217_6809.png,0.0,-1.720192,0.19016506,-1.3508264
alexnet_w1_mlp_simclrhn_probe2,1,523,NaN,oven,bear,64-3-10,0523_eid_dnn_64-3-10_bear_10_n02134418_4384.png,n02134418_4384.png,0.0,-0.36455786,-0.2966685,-0.04800503
alexnet_w1_mlp_simclrhn_probe2,1,524,NaN,dog,dog,4-3-10,0524_eid_dnn_4-3-10_dog_10_n02086240_1183.png,n02086240_1183.png,1.0,0.84736186,0.1790973,0.47253442
alexnet_w1_mlp_simclrhn_probe2,1,525,NaN,elephant,chair,1-3-10,0525_eid_dnn_1-3-10_chair_10_n04429376_294.png,n04429376_294.png,0.0,-0.81057554,-0.5793113,-0.16352852
alexnet_w1_mlp_simclrhn_probe2,1,526,NaN,oven,clock,64-3-10,0526_eid_dnn_64-3-10_clock_10_n02708093_4893.png,n02708093_4893.png,0.0,-2.673772,0.2820763,-2.0901005
alexnet_w1_mlp_simclrhn_probe2,1,527,NaN,oven,keyboard,64-3-10,0527_eid_dnn_64-3-10_keyboard_10_n03085013_3098.png,n03085013_3098.png,0.0,-4.0103364,0.105410844,-2.910273
alexnet_w1_mlp_simclrhn_probe2,1,528,NaN,bear,cat,16-3-10,0528_eid_dnn_16-3-10_cat_10_n02125311_22073.png,n02125311_22073.png,0.0,-1.14005,0.07890714,-0.86193293
alexnet_w1_mlp_simclrhn_probe2,1,529,NaN,bicycle,bird,2-3-10,0529_eid_dnn_2-3-10_bird_10_n01558993_869.png,n01558993_869.png,0.0,-1.291265,-0.44785798,-0.59637886
alexnet_w1_mlp_simclrhn_probe2,1,530,NaN,bird,bird,1-3-10,0530_eid_dnn_1-3-10_bird_10_n01817953_8025.png,n01817953_8025.png,1.0,-0.13335182,-0.89923525,0.54156137
alexnet_w1_mlp_simclrhn_probe2,1,531,NaN,oven,chair,2-3-10,0531_eid_dnn_2-3-10_chair_10_n04099969_24235.png,n04099969_24235.png,0.0,-0.92735374,1.3413473,-1.604214
alexnet_w1_mlp_simclrhn_probe2,1,532,NaN,oven,knife,128-3-10,0532_eid_dnn_128-3-10_knife_10_n03041632_1201.png,n03041632_1201.png,0.0,-1.8938708,-0.055229206,-1.300116
alexnet_w1_mlp_simclrhn_probe2,1,533,NaN,bear,bicycle,4-3-10,0533_eid_dnn_4-3-10_bicycle_10_n03792782_16212.png,n03792782_16212.png,0.0,-2.6438885,0.070574075,-1.9194149
alexnet_w1_mlp_simclrhn_probe2,1,534,NaN,oven,oven,4-3-10,0534_eid_dnn_4-3-10_oven_10_n04111531_11655.png,n04111531_11655.png,1.0,0.7241591,-0.30023688,0.7243573
alexnet_w1_mlp_simclrhn_probe2,1,535,NaN,bear,bicycle,16-3-10,0535_eid_dnn_16-3-10_bicycle_10_n02835271_5152.png,n02835271_5152.png,0.0,-3.9773107,0.89353323,-3.4442067
alexnet_w1_mlp_simclrhn_probe2,1,536,NaN,bear,bear,16-3-10,0536_eid_dnn_16-3-10_bear_10_n02132136_19290.png,n02132136_19290.png,1.0,0.33841223,-0.038697958,0.26665717
alexnet_w1_mlp_simclrhn_probe2,1,537,NaN,oven,car,32-3-10,0537_eid_dnn_32-3-10_car_10_n03100240_6103.png,n03100240_6103.png,0.0,-4.28296,0.2960233,-3.2378302
alexnet_w1_mlp_simclrhn_probe2,1,538,NaN,bird,airplane,16-3-10,0538_eid_dnn_16-3-10_airplane_10_n02690373_5714.png,n02690373_5714.png,0.0,-2.16821,-0.58308566,-1.1208522
alexnet_w1_mlp_simclrhn_probe2,1,539,NaN,bottle,chair,1-3-10,0539_eid_dnn_1-3-10_chair_10_n04429376_2915.png,n04429376_2915.png,0.0,-1.0531977,-0.12141653,-0.65886885
alexnet_w1_mlp_simclrhn_probe2,1,540,NaN,oven,clock,64-3-10,0540_eid_dnn_64-3-10_clock_10_n02708093_7827.png,n02708093_7827.png,0.0,-2.7986267,0.011649936,-1.9871656
alexnet_w1_mlp_simclrhn_probe2,1,541,NaN,truck,truck,2-3-10,0541_eid_dnn_2-3-10_truck_10_n03417042_6247.png,n03417042_6247.png,1.0,2.221934,0.6058978,1.1427102
alexnet_w1_mlp_simclrhn_probe2,1,542,NaN,oven,elephant,32-3-10,0542_eid_dnn_32-3-10_elephant_10_n02504013_947.png,n02504013_947.png,0.0,-0.30002618,0.21828437,-0.3665009
alexnet_w1_mlp_simclrhn_probe2,1,543,NaN,truck,truck,1-3-10,0543_eid_dnn_1-3-10_truck_10_n03417042_2074.png,n03417042_2074.png,1.0,5.0135865,3.0322373,1.4010255
alexnet_w1_mlp_simclrhn_probe2,1,544,NaN,bear,airplane,8-3-10,0544_eid_dnn_8-3-10_airplane_10_n02690373_5221.png,n02690373_5221.png,0.0,-0.8082731,-0.44224313,-0.25882226
alexnet_w1_mlp_simclrhn_probe2,1,545,NaN,knife,oven,4-3-10,0545_eid_dnn_4-3-10_oven_10_n04111531_6629.png,n04111531_6629.png,0.0,-0.16085093,-0.016077891,-0.102369994
alexnet_w1_mlp_simclrhn_probe2,1,546,NaN,knife,knife,1-3-10,0546_eid_dnn_1-3-10_knife_10_n03041632_36277.png,n03041632_36277.png,1.0,1.0599836,-1.1954539,1.594835
alexnet_w1_mlp_simclrhn_probe2,1,547,NaN,oven,cat,64-3-10,0547_eid_dnn_64-3-10_cat_10_n02123597_4700.png,n02123597_4700.png,0.0,-1.0515633,-0.04477611,-0.7119061
alexnet_w1_mlp_simclrhn_probe2,1,548,NaN,bear,airplane,16-3-10,0548_eid_dnn_16-3-10_airplane_10_n02690373_20042.png,n02690373_20042.png,0.0,-2.422308,-0.18879637,-1.5793313
alexnet_w1_mlp_simclrhn_probe2,1,549,NaN,oven,chair,32-3-10,0549_eid_dnn_32-3-10_chair_10_n02791124_15539.png,n02791124_15539.png,0.0,-3.7595873,-0.2949893,-2.4498408
alexnet_w1_mlp_simclrhn_probe2,1,550,NaN,cat,cat,1-3-10,0550_eid_dnn_1-3-10_cat_10_n02123394_5700.png,n02123394_5700.png,1.0,1.3502364,0.6745134,0.47780833
alexnet_w1_mlp_simclrhn_probe2,1,551,NaN,car,car,4-3-10,0551_eid_dnn_4-3-10_car_10_n04285008_13595.png,n04285008_13595.png,1.0,1.0218844,-0.9732642,1.4107832
alexnet_w1_mlp_simclrhn_probe2,1,552,NaN,oven,chair,8-3-10,0552_eid_dnn_8-3-10_chair_10_n02791124_2282.png,n02791124_2282.png,0.0,-4.2443886,0.11296433,-3.0811138
alexnet_w1_mlp_simclrhn_probe2,1,553,NaN,elephant,dog,2-3-10,0553_eid_dnn_2-3-10_dog_10_n02100877_3973.png,n02100877_3973.png,0.0,0.10266853,0.118964106,-0.011522711
alexnet_w1_mlp_simclrhn_probe2,1,554,NaN,oven,truck,64-3-10,0554_eid_dnn_64-3-10_truck_10_n03417042_12297.png,n03417042_12297.png,0.0,-3.045815,0.121264964,-2.2394638
alexnet_w1_mlp_simclrhn_probe2,1,555,NaN,cat,elephant,8-3-10,0555_eid_dnn_8-3-10_elephant_10_n02504013_6303.png,n02504013_6303.png,0.0,-0.52659565,0.016360253,-0.3839278
alexnet_w1_mlp_simclrhn_probe2,1,556,NaN,cat,car,8-3-10,0556_eid_dnn_8-3-10_car_10_n02814533_43990.png,n02814533_43990.png,0.0,-5.5226703,-0.5268013,-3.532613
alexnet_w1_mlp_simclrhn_probe2,1,557,NaN,bear,truck,16-3-10,0557_eid_dnn_16-3-10_truck_10_n04467665_58456.png,n04467665_58456.png,0.0,-4.738879,1.1555117,-4.167964
alexnet_w1_mlp_simclrhn_probe2,1,558,NaN,bear,dog,4-3-10,0558_eid_dnn_4-3-10_dog_10_n02098105_526.png,n02098105_526.png,0.0,-0.93062705,-0.3285844,-0.42570847
alexnet_w1_mlp_simclrhn_probe2,1,559,NaN,bird,bird,2-3-10,0559_eid_dnn_2-3-10_bird_10_n02037110_27907.png,n02037110_27907.png,1.0,0.8170698,-1.6085296,1.7151577
alexnet_w1_mlp_simclrhn_probe2,1,560,NaN,oven,keyboard,64-3-10,0560_eid_dnn_64-3-10_keyboard_10_n03085013_20849.png,n03085013_20849.png,0.0,-2.2701976,-0.39680296,-1.3246901
alexnet_w1_mlp_simclrhn_probe2,1,561,NaN,chair,chair,1-3-10,0561_eid_dnn_1-3-10_chair_10_n03376595_12524.png,n03376595_12524.png,1.0,3.1404238,-0.82219607,2.8019953
alexnet_w1_mlp_simclrhn_probe2,1,562,NaN,oven,bird,64-3-10,0562_eid_dnn_64-3-10_bird_10_n02056570_27055.png,n02056570_27055.png,0.0,-1.5307592,0.23308669,-1.2472274
alexnet_w1_mlp_simclrhn_probe2,1,563,NaN,oven,truck,64-3-10,0563_eid_dnn_64-3-10_truck_10_n03417042_4934.png,n03417042_4934.png,0.0,-3.3134751,-0.44227484,-2.0302453
alexnet_w1_mlp_simclrhn_probe2,1,564,NaN,bear,knife,16-3-10,0564_eid_dnn_16-3-10_knife_10_n03041632_3210.png,n03041632_3210.png,0.0,-1.1514282,-0.07586117,-0.7605407
alexnet_w1_mlp_simclrhn_probe2,1,565,NaN,cat,dog,8-3-10,0565_eid_dnn_8-3-10_dog_10_n02096585_2118.png,n02096585_2118.png,0.0,0.011523149,0.56078863,-0.38838938
alexnet_w1_mlp_simclrhn_probe2,1,566,NaN,keyboard,keyboard,1-3-10,0566_eid_dnn_1-3-10_keyboard_10_n03085013_3539.png,n03085013_3539.png,1.0,3.6069176,-0.046560414,2.5833993
alexnet_w1_mlp_simclrhn_probe2,1,567,NaN,oven,truck,4-3-10,0567_eid_dnn_4-3-10_truck_10_n03417042_17215.png,n03417042_17215.png,0.0,-1.6416725,-0.038294997,-1.1337591
alexnet_w1_mlp_simclrhn_probe2,1,568,NaN,bear,cat,8-3-10,0568_eid_dnn_8-3-10_cat_10_n02123045_12657.png,n02123045_12657.png,0.0,0.2714779,0.73062205,-0.32466394
alexnet_w1_mlp_simclrhn_probe2,1,569,NaN,oven,knife,64-3-10,0569_eid_dnn_64-3-10_knife_10_n03041632_20576.png,n03041632_20576.png,0.0,-1.1722288,0.0711907,-0.8792304
alexnet_w1_mlp_simclrhn_probe2,1,570,NaN,cat,truck,8-3-10,0570_eid_dnn_8-3-10_truck_10_n04467665_23905.png,n04467665_23905.png,0.0,-4.588625,0.14922918,-3.3501687
alexnet_w1_mlp_simclrhn_probe2,1,571,NaN,oven,oven,128-3-10,0571_eid_dnn_128-3-10_oven_10_n04111531_9427.png,n04111531_9427.png,1.0,-0.3684948,-1.6393098,0.89860183
alexnet_w1_mlp_simclrhn_probe2,1,572,NaN,oven,oven,16-3-10,0572_eid_dnn_16-3-10_oven_10_n04111531_14329.png,n04111531_14329.png,1.0,-0.037777167,-0.2607081,0.15763597
alexnet_w1_mlp_simclrhn_probe2,1,573,NaN,oven,bird,64-3-10,0573_eid_dnn_64-3-10_bird_10_n01614925_19422.png,n01614925_19422.png,0.0,-1.3450327,-0.28890747,-0.74679327
alexnet_w1_mlp_simclrhn_probe2,1,574,NaN,bird,bottle,128-3-10,0574_eid_dnn_128-3-10_bottle_10_n02823428_1154.png,n02823428_1154.png,0.0,-2.553564,-0.8381512,-1.21298
alexnet_w1_mlp_simclrhn_probe2,1,575,NaN,dog,dog,4-3-10,0575_eid_dnn_4-3-10_dog_10_n02093859_4797.png,n02093859_4797.png,1.0,0.76886976,0.76033604,0.0060342485
alexnet_w1_mlp_simclrhn_probe2,1,576,NaN,airplane,airplane,1-3-10,0576_eid_dnn_1-3-10_airplane_10_n02690373_2632.png,n02690373_2632.png,1.0,3.7488384,1.8423862,1.3480653
alexnet_w1_mlp_simclrhn_probe2,1,577,NaN,bear,keyboard,32-3-10,0577_eid_dnn_32-3-10_keyboard_10_n03085013_15825.png,n03085013_15825.png,0.0,-2.734639,0.16089247,-2.0474498
alexnet_w1_mlp_simclrhn_probe2,1,578,NaN,car,car,4-3-10,0578_eid_dnn_4-3-10_car_10_n02814533_52674.png,n02814533_52674.png,1.0,2.2717276,0.483808,1.26425
alexnet_w1_mlp_simclrhn_probe2,1,579,NaN,oven,truck,32-3-10,0579_eid_dnn_32-3-10_truck_10_n04467665_32937.png,n04467665_32937.png,0.0,-2.5829964,-0.25588503,-1.6455162
alexnet_w1_mlp_simclrhn_probe2,1,580,NaN,cat,bird,4-3-10,0580_eid_dnn_4-3-10_bird_10_n01537544_20.png,n01537544_20.png,0.0,-1.0041797,-0.74959475,-0.18001877
alexnet_w1_mlp_simclrhn_probe2,1,581,NaN,bear,clock,8-3-10,0581_eid_dnn_8-3-10_clock_10_n03196217_564.png,n03196217_564.png,0.0,-1.1125029,-0.20471708,-0.64190155
alexnet_w1_mlp_simclrhn_probe2,1,582,NaN,keyboard,knife,1-3-10,0582_eid_dnn_1-3-10_knife_10_n03041632_76163.png,n03041632_76163.png,0.0,-1.0172173,0.42524964,-1.0199782
alexnet_w1_mlp_simclrhn_probe2,1,583,NaN,bird,airplane,32-3-10,0583_eid_dnn_32-3-10_airplane_10_n02690373_8559.png,n02690373_8559.png,0.0,-3.8551779,-0.56318694,-2.3277893
alexnet_w1_mlp_simclrhn_probe2,1,584,NaN,keyboard,keyboard,2-3-10,0584_eid_dnn_2-3-10_keyboard_10_n04505470_3941.png,n04505470_3941.png,1.0,8.949951,0.37891904,6.060635
alexnet_w1_mlp_simclrhn_probe2,1,585,NaN,oven,oven,64-3-10,0585_eid_dnn_64-3-10_oven_10_n04111531_9910.png,n04111531_9910.png,1.0,0.06690569,-0.37733942,0.31412873
alexnet_w1_mlp_simclrhn_probe2,1,586,NaN,oven,bottle,128-3-10,0586_eid_dnn_128-3-10_bottle_10_n03937543_7191.png,n03937543_7191.png,0.0,-1.5521986,0.1427214,-1.1984895
alexnet_w1_mlp_simclrhn_probe2,1,587,NaN,airplane,boat,4-3-10,0587_eid_dnn_4-3-10_boat_10_n03662601_14818.png,n03662601_14818.png,0.0,-0.05385504,0.060973555,-0.08119608
alexnet_w1_mlp_simclrhn_probe2,1,588,NaN,oven,boat,128-3-10,0588_eid_dnn_128-3-10_boat_10_n02951358_588.png,n02951358_588.png,0.0,-2.5963118,-0.31841397,-1.610717
alexnet_w1_mlp_simclrhn_probe2,1,589,NaN,bear,bear,1-3-10,0589_eid_dnn_1-3-10_bear_10_n02133161_2851.png,n02133161_2851.png,1.0,3.4319534,1.5185229,1.3529998
alexnet_w1_mlp_simclrhn_probe2,1,590,NaN,bottle,chair,2-3-10,0590_eid_dnn_2-3-10_chair_10_n03376595_16212.png,n03376595_16212.png,0.0,-0.78777564,2.2845283,-2.172447
alexnet_w1_mlp_simclrhn_probe2,1,591,NaN,bear,boat,8-3-10,0591_eid_dnn_8-3-10_boat_10_n04612504_1613.png,n04612504_1613.png,0.0,-0.9534302,0.31683344,-0.8982121
alexnet_w1_mlp_simclrhn_probe2,1,592,NaN,bird,chair,128-3-10,0592_eid_dnn_128-3-10_chair_10_n02791124_3198.png,n02791124_3198.png,0.0,-2.2201033,-0.54444474,-1.1848695
alexnet_w1_mlp_simclrhn_probe2,1,593,NaN,bear,knife,16-3-10,0593_eid_dnn_16-3-10_knife_10_n03041632_32785.png,n03041632_32785.png,0.0,-0.8092087,0.08746652,-0.6340451
alexnet_w1_mlp_simclrhn_probe2,1,594,NaN,bear,oven,32-3-10,0594_eid_dnn_32-3-10_oven_10_n04111531_22797.png,n04111531_22797.png,0.0,-0.024146795,0.47028896,-0.34961888
alexnet_w1_mlp_simclrhn_probe2,1,595,NaN,oven,oven,128-3-10,0595_eid_dnn_128-3-10_oven_10_n04111531_5077.png,n04111531_5077.png,1.0,-0.49467304,-0.93669766,0.31255862
alexnet_w1_mlp_simclrhn_probe2,1,596,NaN,bear,bear,1-3-10,0596_eid_dnn_1-3-10_bear_10_n02134418_2569.png,n02134418_2569.png,1.0,1.9661233,1.3722342,0.41994303
alexnet_w1_mlp_simclrhn_probe2,1,597,NaN,car,car,1-3-10,0597_eid_dnn_1-3-10_car_10_n03100240_15284.png,n03100240_15284.png,1.0,3.5527754,2.383224,0.8269977
alexnet_w1_mlp_simclrhn_probe2,1,598,NaN,keyboard,keyboard,2-3-10,0598_eid_dnn_2-3-10_keyboard_10_n04505470_4791.png,n04505470_4791.png,1.0,4.642303,0.7691147,2.7387576
alexnet_w1_mlp_simclrhn_probe2,1,599,NaN,oven,bicycle,64-3-10,0599_eid_dnn_64-3-10_bicycle_10_n03792782_551.png,n03792782_551.png,0.0,-1.6835103,0.026148215,-1.2089112
alexnet_w1_mlp_simclrhn_probe2,1,600,NaN,bottle,bottle,1-3-10,0600_eid_dnn_1-3-10_bottle_10_n03937543_2999.png,n03937543_2999.png,1.0,0.26993608,-1.2127706,1.048432
alexnet_w1_mlp_simclrhn_probe2,1,601,NaN,bear,airplane,16-3-10,0601_eid_dnn_16-3-10_airplane_10_n02690373_7279.png,n02690373_7279.png,0.0,-1.2492709,-0.013964236,-0.8734938
