subj,session,trial,rt,object_response,category,condition,imagename,filename,is_correct,targ_act,max_nontarg_act,decision_margin
alexnet_w1_mlp_simclrhn_probe0,1,1,NaN,oven,car,64-3-10,0001_eid_dnn_64-3-10_car_10_n04285008_8113.png,n04285008_8113.png,0.0,-13.737198,3.8616352,-12.444255
alexnet_w1_mlp_simclrhn_probe0,1,2,NaN,oven,oven,8-3-10,0002_eid_dnn_8-3-10_oven_10_n04111531_11848.png,n04111531_11848.png,1.0,-0.16331589,-1.5820333,1.0031847
alexnet_w1_mlp_simclrhn_probe0,1,3,NaN,oven,truck,8-3-10,0003_eid_dnn_8-3-10_truck_10_n03417042_25458.png,n03417042_25458.png,0.0,-6.2249537,-1.9757507,-3.00464
alexnet_w1_mlp_simclrhn_probe0,1,4,NaN,oven,chair,16-3-10,0004_eid_dnn_16-3-10_chair_10_n03376595_6208.png,n03376595_6208.png,0.0,-7.9869885,0.6936471,-6.1381364
alexnet_w1_mlp_simclrhn_probe0,1,5,NaN,oven,cat,32-3-10,0005_eid_dnn_32-3-10_cat_10_n02123045_12084.png,n02123045_12084.png,0.0,-0.5441173,0.9224973,-1.0370531
alexnet_w1_mlp_simclrhn_probe0,1,6,NaN,keyboard,keyboard,8-3-10,0006_eid_dnn_8-3-10_keyboard_10_n03085013_20884.png,n03085013_20884.png,1.0,-1.8378068,-3.2906609,1.027323
alexnet_w1_mlp_simclrhn_probe0,1,7,NaN,airplane,airplane,4-3-10,0007_eid_dnn_4-3-10_airplane_10_n02690373_5992.png,n02690373_5992.png,1.0,1.1162627,-2.621739,2.6431663
alexnet_w1_mlp_simclrhn_probe0,1,8,NaN,bear,bear,32-3-10,0008_eid_dnn_32-3-10_bear_10_n02132136_6641.png,n02132136_6641.png,1.0,1.7394791,0.7252016,0.7172025
alexnet_w1_mlp_simclrhn_probe0,1,9,NaN,oven,oven,2-3-10,0009_eid_dnn_2-3-10_oven_10_n04111531_2797.png,n04111531_2797.png,1.0,1.4235754,-3.2802103,3.326079
alexnet_w1_mlp_simclrhn_probe0,1,10,NaN,airplane,airplane,2-3-10,0010_eid_dnn_2-3-10_airplane_10_n02690373_7457.png,n02690373_7457.png,1.0,6.374815,-1.8575132,5.8211355
alexnet_w1_mlp_simclrhn_probe0,1,11,NaN,bear,truck,16-3-10,0011_eid_dnn_16-3-10_truck_10_n03796401_2751.png,n03796401_2751.png,0.0,-8.738425,-1.956224,-4.7957406
alexnet_w1_mlp_simclrhn_probe0,1,12,NaN,bear,bear,2-3-10,0012_eid_dnn_2-3-10_bear_10_n02134418_860.png,n02134418_860.png,1.0,-0.7544711,-1.8770975,0.7938167
alexnet_w1_mlp_simclrhn_probe0,1,13,NaN,knife,knife,4-3-10,0013_eid_dnn_4-3-10_knife_10_n03041632_2058.png,n03041632_2058.png,1.0,-0.029127657,-1.781718,1.2392685
alexnet_w1_mlp_simclrhn_probe0,1,14,NaN,oven,airplane,32-3-10,0014_eid_dnn_32-3-10_airplane_10_n02690373_10510.png,n02690373_10510.png,0.0,-11.663266,-0.70773417,-7.7467313
alexnet_w1_mlp_simclrhn_probe0,1,15,NaN,bear,keyboard,64-3-10,0015_eid_dnn_64-3-10_keyboard_10_n03085013_6313.png,n03085013_6313.png,0.0,-10.502205,1.4634774,-8.461015
alexnet_w1_mlp_simclrhn_probe0,1,16,NaN,airplane,bicycle,4-3-10,0016_eid_dnn_4-3-10_bicycle_10_n02835271_6278.png,n02835271_6278.png,0.0,-5.022794,-0.276743,-3.355965
alexnet_w1_mlp_simclrhn_probe0,1,17,NaN,keyboard,keyboard,2-3-10,0017_eid_dnn_2-3-10_keyboard_10_n03085013_24192.png,n03085013_24192.png,1.0,5.2368174,-0.07453179,3.7556908
alexnet_w1_mlp_simclrhn_probe0,1,18,NaN,car,car,2-3-10,0018_eid_dnn_2-3-10_car_10_n04285008_8255.png,n04285008_8255.png,1.0,2.722968,-0.011271216,1.9333992
alexnet_w1_mlp_simclrhn_probe0,1,19,NaN,airplane,airplane,2-3-10,0019_eid_dnn_2-3-10_airplane_10_n02690373_4591.png,n02690373_4591.png,1.0,0.87397003,-1.6818559,1.8072419
alexnet_w1_mlp_simclrhn_probe0,1,20,NaN,airplane,airplane,4-3-10,0020_eid_dnn_4-3-10_airplane_10_n02690373_7075.png,n02690373_7075.png,1.0,1.3325286,-2.486097,2.7001762
alexnet_w1_mlp_simclrhn_probe0,1,21,NaN,oven,bicycle,4-3-10,0021_eid_dnn_4-3-10_bicycle_10_n02835271_21464.png,n02835271_21464.png,0.0,-5.289958,-4.13433,-0.81715256
alexnet_w1_mlp_simclrhn_probe0,1,22,NaN,oven,car,64-3-10,0022_eid_dnn_64-3-10_car_10_n03100240_362.png,n03100240_362.png,0.0,-14.949916,3.8439503,-13.289269
alexnet_w1_mlp_simclrhn_probe0,1,23,NaN,oven,truck,32-3-10,0023_eid_dnn_32-3-10_truck_10_n04467665_50927.png,n04467665_50927.png,0.0,-7.3955836,-0.712517,-4.7256417
alexnet_w1_mlp_simclrhn_probe0,1,24,NaN,oven,car,16-3-10,0024_eid_dnn_16-3-10_car_10_n04285008_3651.png,n04285008_3651.png,0.0,-10.008676,-1.8256178,-5.786296
alexnet_w1_mlp_simclrhn_probe0,1,25,NaN,bottle,bottle,8-3-10,0025_eid_dnn_8-3-10_bottle_10_n04557648_4974.png,n04557648_4974.png,1.0,-2.942745,-3.4848917,0.3833556
alexnet_w1_mlp_simclrhn_probe0,1,26,NaN,bear,bird,16-3-10,0026_eid_dnn_16-3-10_bird_10_n01537544_23499.png,n01537544_23499.png,0.0,-3.0599709,-1.2932144,-1.2492855
alexnet_w1_mlp_simclrhn_probe0,1,27,NaN,boat,boat,1-3-10,0027_eid_dnn_1-3-10_boat_10_n04612504_11387.png,n04612504_11387.png,1.0,-1.3980925,-3.2169793,1.2861472
alexnet_w1_mlp_simclrhn_probe0,1,28,NaN,bottle,bottle,4-3-10,0028_eid_dnn_4-3-10_bottle_10_n03983396_4300.png,n03983396_4300.png,1.0,-2.713161,-3.6890106,0.6900299
alexnet_w1_mlp_simclrhn_probe0,1,29,NaN,oven,bottle,64-3-10,0029_eid_dnn_64-3-10_bottle_10_n04591713_6961.png,n04591713_6961.png,0.0,-5.5683656,0.21695703,-4.090841
alexnet_w1_mlp_simclrhn_probe0,1,30,NaN,bear,clock,128-3-10,0030_eid_dnn_128-3-10_clock_10_n02708093_3361.png,n02708093_3361.png,0.0,-9.663586,0.07936004,-6.889303
alexnet_w1_mlp_simclrhn_probe0,1,31,NaN,oven,truck,32-3-10,0031_eid_dnn_32-3-10_truck_10_n03417042_18374.png,n03417042_18374.png,0.0,-8.191995,1.2966442,-6.7094812
alexnet_w1_mlp_simclrhn_probe0,1,32,NaN,bear,knife,64-3-10,0032_eid_dnn_64-3-10_knife_10_n03041632_36280.png,n03041632_36280.png,0.0,-2.4132109,-0.51680523,-1.3409613
alexnet_w1_mlp_simclrhn_probe0,1,33,NaN,cat,bird,8-3-10,0033_eid_dnn_8-3-10_bird_10_n01614925_47.png,n01614925_47.png,0.0,-3.1358097,-1.8419467,-0.9148993
alexnet_w1_mlp_simclrhn_probe0,1,34,NaN,bear,bicycle,8-3-10,0034_eid_dnn_8-3-10_bicycle_10_n02835271_20099.png,n02835271_20099.png,0.0,-4.45784,-1.5565094,-2.0515504
alexnet_w1_mlp_simclrhn_probe0,1,35,NaN,dog,bear,4-3-10,0035_eid_dnn_4-3-10_bear_10_n02134084_12070.png,n02134084_12070.png,0.0,-2.6702166,-2.388635,-0.19910829
alexnet_w1_mlp_simclrhn_probe0,1,36,NaN,oven,bottle,8-3-10,0036_eid_dnn_8-3-10_bottle_10_n02823428_8525.png,n02823428_8525.png,0.0,-4.1807766,-1.7421811,-1.7243475
alexnet_w1_mlp_simclrhn_probe0,1,37,NaN,oven,truck,32-3-10,0037_eid_dnn_32-3-10_truck_10_n04467665_37953.png,n04467665_37953.png,0.0,-11.522558,2.1189597,-9.646009
alexnet_w1_mlp_simclrhn_probe0,1,38,NaN,oven,oven,128-3-10,0038_eid_dnn_128-3-10_oven_10_n04111531_4868.png,n04111531_4868.png,1.0,-1.407096,-2.1154656,0.50089294
alexnet_w1_mlp_simclrhn_probe0,1,39,NaN,elephant,boat,32-3-10,0039_eid_dnn_32-3-10_boat_10_n03662601_19840.png,n03662601_19840.png,0.0,-4.6973124,-0.37358463,-3.057337
alexnet_w1_mlp_simclrhn_probe0,1,40,NaN,bear,truck,8-3-10,0040_eid_dnn_8-3-10_truck_10_n04467665_9331.png,n04467665_9331.png,0.0,-4.3957987,-3.6054723,-0.55884516
alexnet_w1_mlp_simclrhn_probe0,1,41,NaN,oven,dog,64-3-10,0041_eid_dnn_64-3-10_dog_10_n02111277_16090.png,n02111277_16090.png,0.0,-1.1769612,1.30075,-1.7520064
alexnet_w1_mlp_simclrhn_probe0,1,42,NaN,oven,bottle,4-3-10,0042_eid_dnn_4-3-10_bottle_10_n02823428_6731.png,n02823428_6731.png,0.0,-3.7769852,-2.873217,-0.63906056
alexnet_w1_mlp_simclrhn_probe0,1,43,NaN,bear,elephant,8-3-10,0043_eid_dnn_8-3-10_elephant_10_n02504013_8930.png,n02504013_8930.png,0.0,-1.040489,0.57143795,-1.1398045
alexnet_w1_mlp_simclrhn_probe0,1,44,NaN,car,car,4-3-10,0044_eid_dnn_4-3-10_car_10_n03100240_13673.png,n03100240_13673.png,1.0,0.1393091,-2.8620563,2.1222858
alexnet_w1_mlp_simclrhn_probe0,1,45,NaN,oven,bird,128-3-10,0045_eid_dnn_128-3-10_bird_10_n02018207_6819.png,n02018207_6819.png,0.0,-2.0713727,-0.39197153,-1.187516
alexnet_w1_mlp_simclrhn_probe0,1,46,NaN,elephant,elephant,4-3-10,0046_eid_dnn_4-3-10_elephant_10_n02504013_6065.png,n02504013_6065.png,1.0,-1.1836088,-1.4068079,0.15782562
alexnet_w1_mlp_simclrhn_probe0,1,47,NaN,oven,cat,1-3-10,0047_eid_dnn_1-3-10_cat_10_n02123394_384.png,n02123394_384.png,0.0,-6.95215,-6.257682,-0.49106306
alexnet_w1_mlp_simclrhn_probe0,1,48,NaN,bear,bicycle,16-3-10,0048_eid_dnn_16-3-10_bicycle_10_n02835271_12608.png,n02835271_12608.png,0.0,-7.8747687,0.1270904,-5.658169
alexnet_w1_mlp_simclrhn_probe0,1,49,NaN,knife,chair,2-3-10,0049_eid_dnn_2-3-10_chair_10_n03376595_13949.png,n03376595_13949.png,0.0,-7.6895185,-4.104363,-2.5350878
alexnet_w1_mlp_simclrhn_probe0,1,50,NaN,oven,airplane,128-3-10,0050_eid_dnn_128-3-10_airplane_10_n02690373_3561.png,n02690373_3561.png,0.0,-11.26923,0.78509045,-8.523692
alexnet_w1_mlp_simclrhn_probe0,1,51,NaN,oven,bicycle,32-3-10,0051_eid_dnn_32-3-10_bicycle_10_n02835271_8203.png,n02835271_8203.png,0.0,-4.11883,0.26389384,-3.0990539
alexnet_w1_mlp_simclrhn_probe0,1,52,NaN,bicycle,bicycle,2-3-10,0052_eid_dnn_2-3-10_bicycle_10_n03792782_5665.png,n03792782_5665.png,1.0,1.0202123,-5.2986426,4.4681053
alexnet_w1_mlp_simclrhn_probe0,1,53,NaN,oven,bicycle,128-3-10,0053_eid_dnn_128-3-10_bicycle_10_n02835271_15028.png,n02835271_15028.png,0.0,-2.8711033,0.89560187,-2.6634626
alexnet_w1_mlp_simclrhn_probe0,1,54,NaN,clock,clock,1-3-10,0054_eid_dnn_1-3-10_clock_10_n04548280_3318.png,n04548280_3318.png,1.0,2.801522,-1.2593338,2.8714588
alexnet_w1_mlp_simclrhn_probe0,1,55,NaN,oven,cat,128-3-10,0055_eid_dnn_128-3-10_cat_10_n02123045_8784.png,n02123045_8784.png,0.0,-2.5602407,0.87546974,-2.4294143
alexnet_w1_mlp_simclrhn_probe0,1,56,NaN,oven,knife,128-3-10,0056_eid_dnn_128-3-10_knife_10_n03041632_3247.png,n03041632_3247.png,0.0,-3.6256952,-0.4445052,-2.2494411
alexnet_w1_mlp_simclrhn_probe0,1,57,NaN,cat,dog,8-3-10,0057_eid_dnn_8-3-10_dog_10_n02110185_11414.png,n02110185_11414.png,0.0,-1.5205736,-0.2609434,-0.89069307
alexnet_w1_mlp_simclrhn_probe0,1,58,NaN,bear,dog,32-3-10,0058_eid_dnn_32-3-10_dog_10_n02113712_2715.png,n02113712_2715.png,0.0,-1.6161598,0.6426617,-1.597228
alexnet_w1_mlp_simclrhn_probe0,1,59,NaN,bird,elephant,2-3-10,0059_eid_dnn_2-3-10_elephant_10_n02504458_1210.png,n02504458_1210.png,0.0,-6.0379353,-3.9209638,-1.4969249
alexnet_w1_mlp_simclrhn_probe0,1,60,NaN,bear,car,16-3-10,0060_eid_dnn_16-3-10_car_10_n02814533_32337.png,n02814533_32337.png,0.0,-8.7509985,-0.6968544,-5.69514
alexnet_w1_mlp_simclrhn_probe0,1,61,NaN,car,car,4-3-10,0061_eid_dnn_4-3-10_car_10_n02814533_55326.png,n02814533_55326.png,1.0,-1.9072825,-3.1432557,0.8739651
alexnet_w1_mlp_simclrhn_probe0,1,62,NaN,oven,knife,64-3-10,0062_eid_dnn_64-3-10_knife_10_n03041632_32774.png,n03041632_32774.png,0.0,-4.4641957,1.0546606,-3.9024205
alexnet_w1_mlp_simclrhn_probe0,1,63,NaN,elephant,bicycle,8-3-10,0063_eid_dnn_8-3-10_bicycle_10_n02835271_11921.png,n02835271_11921.png,0.0,-8.065641,0.06251773,-5.7474766
alexnet_w1_mlp_simclrhn_probe0,1,64,NaN,oven,chair,32-3-10,0064_eid_dnn_32-3-10_chair_10_n03376595_6115.png,n03376595_6115.png,0.0,-7.9021893,-0.19295096,-5.4512544
alexnet_w1_mlp_simclrhn_probe0,1,65,NaN,bear,bear,16-3-10,0065_eid_dnn_16-3-10_bear_10_n02133161_79.png,n02133161_79.png,1.0,-0.26681262,-0.8091204,0.38346952
alexnet_w1_mlp_simclrhn_probe0,1,66,NaN,boat,boat,1-3-10,0066_eid_dnn_1-3-10_boat_10_n03662601_34796.png,n03662601_34796.png,1.0,2.1862965,-0.97430825,2.234885
alexnet_w1_mlp_simclrhn_probe0,1,67,NaN,bird,bird,4-3-10,0067_eid_dnn_4-3-10_bird_10_n02051845_8976.png,n02051845_8976.png,1.0,-3.0928338,-4.561806,1.0387204
alexnet_w1_mlp_simclrhn_probe0,1,68,NaN,elephant,boat,4-3-10,0068_eid_dnn_4-3-10_boat_10_n03344393_7362.png,n03344393_7362.png,0.0,-1.5939125,0.84059405,-1.721456
alexnet_w1_mlp_simclrhn_probe0,1,69,NaN,oven,car,32-3-10,0069_eid_dnn_32-3-10_car_10_n02814533_34289.png,n02814533_34289.png,0.0,-9.624459,1.0306314,-7.534287
alexnet_w1_mlp_simclrhn_probe0,1,70,NaN,oven,keyboard,16-3-10,0070_eid_dnn_16-3-10_keyboard_10_n03085013_2166.png,n03085013_2166.png,0.0,-10.924826,0.76095414,-8.263094
alexnet_w1_mlp_simclrhn_probe0,1,71,NaN,bear,bear,2-3-10,0071_eid_dnn_2-3-10_bear_10_n02133161_10167.png,n02133161_10167.png,1.0,0.6854725,-0.43075934,0.7892951
alexnet_w1_mlp_simclrhn_probe0,1,72,NaN,oven,keyboard,16-3-10,0072_eid_dnn_16-3-10_keyboard_10_n04505470_430.png,n04505470_430.png,0.0,-3.9431052,2.1927612,-4.3387127
alexnet_w1_mlp_simclrhn_probe0,1,73,NaN,bear,boat,128-3-10,0073_eid_dnn_128-3-10_boat_10_n03662601_17001.png,n03662601_17001.png,0.0,-10.923674,-1.7259941,-6.5037417
alexnet_w1_mlp_simclrhn_probe0,1,74,NaN,cat,bear,128-3-10,0074_eid_dnn_128-3-10_bear_10_n02133161_5157.png,n02133161_5157.png,0.0,-1.888958,-0.74715424,-0.80737716
alexnet_w1_mlp_simclrhn_probe0,1,75,NaN,bear,boat,2-3-10,0075_eid_dnn_2-3-10_boat_10_n02951358_17870.png,n02951358_17870.png,0.0,-3.9916108,-1.2911546,-1.9095109
alexnet_w1_mlp_simclrhn_probe0,1,76,NaN,oven,cat,64-3-10,0076_eid_dnn_64-3-10_cat_10_n02123159_1102.png,n02123159_1102.png,0.0,-2.5353734,-0.12119421,-1.7070826
alexnet_w1_mlp_simclrhn_probe0,1,77,NaN,oven,cat,32-3-10,0077_eid_dnn_32-3-10_cat_10_n02123045_4252.png,n02123045_4252.png,0.0,-1.0404896,-0.55345726,-0.34438384
alexnet_w1_mlp_simclrhn_probe0,1,78,NaN,keyboard,keyboard,2-3-10,0078_eid_dnn_2-3-10_keyboard_10_n04505470_4294.png,n04505470_4294.png,1.0,-0.5275211,-4.537837,2.8357217
alexnet_w1_mlp_simclrhn_probe0,1,79,NaN,truck,truck,2-3-10,0079_eid_dnn_2-3-10_truck_10_n04467665_1101.png,n04467665_1101.png,1.0,1.4582574,-2.4360075,2.7536612
alexnet_w1_mlp_simclrhn_probe0,1,80,NaN,oven,airplane,64-3-10,0080_eid_dnn_64-3-10_airplane_10_n02690373_2078.png,n02690373_2078.png,0.0,-7.4626727,0.43279845,-5.582941
alexnet_w1_mlp_simclrhn_probe0,1,81,NaN,oven,boat,64-3-10,0081_eid_dnn_64-3-10_boat_10_n04612504_5535.png,n04612504_5535.png,0.0,-10.382231,1.2026176,-8.191725
alexnet_w1_mlp_simclrhn_probe0,1,82,NaN,oven,cat,16-3-10,0082_eid_dnn_16-3-10_cat_10_n02125311_15099.png,n02125311_15099.png,0.0,-1.4656286,0.48323756,-1.3780565
alexnet_w1_mlp_simclrhn_probe0,1,83,NaN,oven,airplane,64-3-10,0083_eid_dnn_64-3-10_airplane_10_n02690373_4671.png,n02690373_4671.png,0.0,-9.028487,0.7887805,-6.9418564
alexnet_w1_mlp_simclrhn_probe0,1,84,NaN,truck,truck,1-3-10,0084_eid_dnn_1-3-10_truck_10_n03417042_9062.png,n03417042_9062.png,1.0,-0.26743552,-2.983308,1.920412
alexnet_w1_mlp_simclrhn_probe0,1,85,NaN,cat,cat,4-3-10,0085_eid_dnn_4-3-10_cat_10_n02123394_283.png,n02123394_283.png,1.0,-2.1706734,-3.0984716,0.6560525
alexnet_w1_mlp_simclrhn_probe0,1,86,NaN,car,car,1-3-10,0086_eid_dnn_1-3-10_car_10_n02814533_3375.png,n02814533_3375.png,1.0,6.1900325,3.124237,2.1678448
alexnet_w1_mlp_simclrhn_probe0,1,87,NaN,cat,cat,2-3-10,0087_eid_dnn_2-3-10_cat_10_n02124075_9706.png,n02124075_9706.png,1.0,-2.0620244,-3.6216369,1.1028126
alexnet_w1_mlp_simclrhn_probe0,1,88,NaN,car,car,2-3-10,0088_eid_dnn_2-3-10_car_10_n04285008_10563.png,n04285008_10563.png,1.0,1.4444917,-1.6272078,2.1720197
alexnet_w1_mlp_simclrhn_probe0,1,89,NaN,oven,clock,64-3-10,0089_eid_dnn_64-3-10_clock_10_n03196217_3283.png,n03196217_3283.png,0.0,-11.509204,-1.431838,-7.125774
alexnet_w1_mlp_simclrhn_probe0,1,90,NaN,oven,oven,128-3-10,0090_eid_dnn_128-3-10_oven_10_n04111531_21120.png,n04111531_21120.png,1.0,-0.19378501,-0.3956392,0.14273247
alexnet_w1_mlp_simclrhn_probe0,1,91,NaN,bird,bird,1-3-10,0091_eid_dnn_1-3-10_bird_10_n01824575_6186.png,n01824575_6186.png,1.0,-1.8360175,-3.1857533,0.9544074
alexnet_w1_mlp_simclrhn_probe0,1,92,NaN,dog,dog,4-3-10,0092_eid_dnn_4-3-10_dog_10_n02102318_11155.png,n02102318_11155.png,1.0,-0.22034341,-2.1690311,1.3779304
alexnet_w1_mlp_simclrhn_probe0,1,93,NaN,bear,clock,16-3-10,0093_eid_dnn_16-3-10_clock_10_n04548280_2283.png,n04548280_2283.png,0.0,-7.629412,1.1282616,-6.1926103
alexnet_w1_mlp_simclrhn_probe0,1,94,NaN,oven,chair,128-3-10,0094_eid_dnn_128-3-10_chair_10_n03376595_18787.png,n03376595_18787.png,0.0,-7.2194505,-0.35386115,-4.854705
alexnet_w1_mlp_simclrhn_probe0,1,95,NaN,oven,keyboard,8-3-10,0095_eid_dnn_8-3-10_keyboard_10_n04505470_1903.png,n04505470_1903.png,0.0,-2.6820183,-1.4627395,-0.8621603
alexnet_w1_mlp_simclrhn_probe0,1,96,NaN,oven,clock,16-3-10,0096_eid_dnn_16-3-10_clock_10_n03196217_6185.png,n03196217_6185.png,0.0,-11.007667,-1.8081527,-6.505039
alexnet_w1_mlp_simclrhn_probe0,1,97,NaN,clock,clock,2-3-10,0097_eid_dnn_2-3-10_clock_10_n03196217_10424.png,n03196217_10424.png,1.0,-1.4924196,-1.5318438,0.027877105
alexnet_w1_mlp_simclrhn_probe0,1,98,NaN,knife,knife,2-3-10,0098_eid_dnn_2-3-10_knife_10_n03041632_43436.png,n03041632_43436.png,1.0,-2.447007,-5.607522,2.2348216
alexnet_w1_mlp_simclrhn_probe0,1,99,NaN,dog,dog,1-3-10,0099_eid_dnn_1-3-10_dog_10_n02093647_5955.png,n02093647_5955.png,1.0,-4.684406,-5.1586776,0.3353608
alexnet_w1_mlp_simclrhn_probe0,1,100,NaN,bear,boat,32-3-10,0100_eid_dnn_32-3-10_boat_10_n03662601_5423.png,n03662601_5423.png,0.0,-4.821571,0.34965515,-3.656609
alexnet_w1_mlp_simclrhn_probe0,1,101,NaN,oven,keyboard,128-3-10,0101_eid_dnn_128-3-10_keyboard_10_n04505470_9457.png,n04505470_9457.png,0.0,-11.642723,0.14686847,-8.3365
alexnet_w1_mlp_simclrhn_probe0,1,102,NaN,oven,knife,128-3-10,0102_eid_dnn_128-3-10_knife_10_n03041632_38535.png,n03041632_38535.png,0.0,-3.807506,-0.6709378,-2.2178888
alexnet_w1_mlp_simclrhn_probe0,1,103,NaN,bear,elephant,8-3-10,0103_eid_dnn_8-3-10_elephant_10_n02504458_8141.png,n02504458_8141.png,0.0,-1.1575961,0.05151108,-0.8549679
alexnet_w1_mlp_simclrhn_probe0,1,104,NaN,airplane,airplane,4-3-10,0104_eid_dnn_4-3-10_airplane_10_n02690373_9086.png,n02690373_9086.png,1.0,0.5980388,-2.8887403,2.4655252
alexnet_w1_mlp_simclrhn_probe0,1,105,NaN,bear,bicycle,16-3-10,0105_eid_dnn_16-3-10_bicycle_10_n03792782_19116.png,n03792782_19116.png,0.0,-1.9782434,-0.30981013,-1.1797605
alexnet_w1_mlp_simclrhn_probe0,1,106,NaN,elephant,elephant,4-3-10,0106_eid_dnn_4-3-10_elephant_10_n02504458_2343.png,n02504458_2343.png,1.0,-0.38894874,-1.716907,0.93900836
alexnet_w1_mlp_simclrhn_probe0,1,107,NaN,bird,airplane,16-3-10,0107_eid_dnn_16-3-10_airplane_10_n02690373_7093.png,n02690373_7093.png,0.0,-1.8008072,-1.7863281,-0.010238312
alexnet_w1_mlp_simclrhn_probe0,1,108,NaN,oven,car,32-3-10,0108_eid_dnn_32-3-10_car_10_n03100240_7935.png,n03100240_7935.png,0.0,-9.1874,0.97546166,-7.1862288
alexnet_w1_mlp_simclrhn_probe0,1,109,NaN,bear,airplane,16-3-10,0109_eid_dnn_16-3-10_airplane_10_n02690373_8611.png,n02690373_8611.png,0.0,-3.5555294,-2.6936836,-0.60941696
alexnet_w1_mlp_simclrhn_probe0,1,110,NaN,bear,bear,2-3-10,0110_eid_dnn_2-3-10_bear_10_n02133161_7332.png,n02133161_7332.png,1.0,3.0863836,-1.1328554,2.9834528
alexnet_w1_mlp_simclrhn_probe0,1,111,NaN,car,car,2-3-10,0111_eid_dnn_2-3-10_car_10_n03100240_9387.png,n03100240_9387.png,1.0,4.637873,2.0793777,1.8091296
alexnet_w1_mlp_simclrhn_probe0,1,112,NaN,cat,cat,4-3-10,0112_eid_dnn_4-3-10_cat_10_n02124075_521.png,n02124075_521.png,1.0,-0.26261774,-1.4956595,0.8718922
alexnet_w1_mlp_simclrhn_probe0,1,113,NaN,oven,bottle,128-3-10,0113_eid_dnn_128-3-10_bottle_10_n04560804_3746.png,n04560804_3746.png,0.0,-6.948458,2.1110795,-6.4060607
alexnet_w1_mlp_simclrhn_probe0,1,114,NaN,bear,elephant,16-3-10,0114_eid_dnn_16-3-10_elephant_10_n02504458_1127.png,n02504458_1127.png,0.0,-1.546484,-0.12160778,-1.0075396
alexnet_w1_mlp_simclrhn_probe0,1,115,NaN,knife,knife,8-3-10,0115_eid_dnn_8-3-10_knife_10_n03041632_14132.png,n03041632_14132.png,1.0,-2.5653164,-3.2849877,0.50888443
alexnet_w1_mlp_simclrhn_probe0,1,116,NaN,oven,oven,1-3-10,0116_eid_dnn_1-3-10_oven_10_n04111531_18916.png,n04111531_18916.png,1.0,1.3315022,-3.812382,3.6372755
alexnet_w1_mlp_simclrhn_probe0,1,117,NaN,oven,oven,1-3-10,0117_eid_dnn_1-3-10_oven_10_n04111531_19274.png,n04111531_19274.png,1.0,-1.9274385,-6.6776514,3.3589077
alexnet_w1_mlp_simclrhn_probe0,1,118,NaN,bird,bird,2-3-10,0118_eid_dnn_2-3-10_bird_10_n01843383_277.png,n01843383_277.png,1.0,-4.769941,-6.482268,1.210798
alexnet_w1_mlp_simclrhn_probe0,1,119,NaN,oven,boat,64-3-10,0119_eid_dnn_64-3-10_boat_10_n03344393_6799.png,n03344393_6799.png,0.0,-9.715108,0.02348724,-6.8862267
alexnet_w1_mlp_simclrhn_probe0,1,120,NaN,cat,dog,2-3-10,0120_eid_dnn_2-3-10_dog_10_n02093428_16887.png,n02093428_16887.png,0.0,-2.4656892,-2.1348045,-0.23397082
alexnet_w1_mlp_simclrhn_probe0,1,121,NaN,oven,elephant,64-3-10,0121_eid_dnn_64-3-10_elephant_10_n02504458_6163.png,n02504458_6163.png,0.0,-2.098194,-1.1140867,-0.69586885
alexnet_w1_mlp_simclrhn_probe0,1,122,NaN,oven,bottle,64-3-10,0122_eid_dnn_64-3-10_bottle_10_n04591713_2826.png,n04591713_2826.png,0.0,-3.8520753,-0.11398643,-2.643228
alexnet_w1_mlp_simclrhn_probe0,1,123,NaN,bear,bottle,64-3-10,0123_eid_dnn_64-3-10_bottle_10_n04557648_3598.png,n04557648_3598.png,0.0,-3.2899616,-0.90493363,-1.6864694
alexnet_w1_mlp_simclrhn_probe0,1,124,NaN,cat,truck,8-3-10,0124_eid_dnn_8-3-10_truck_10_n04467665_80629.png,n04467665_80629.png,0.0,-6.8571534,-2.609717,-3.0033913
alexnet_w1_mlp_simclrhn_probe0,1,125,NaN,bear,bear,4-3-10,0125_eid_dnn_4-3-10_bear_10_n02134084_6869.png,n02134084_6869.png,1.0,-1.1085571,-1.140948,0.022903861
alexnet_w1_mlp_simclrhn_probe0,1,126,NaN,cat,bird,1-3-10,0126_eid_dnn_1-3-10_bird_10_n01820546_4457.png,n01820546_4457.png,0.0,-4.7889113,-2.6677206,-1.4999084
alexnet_w1_mlp_simclrhn_probe0,1,127,NaN,oven,clock,64-3-10,0127_eid_dnn_64-3-10_clock_10_n04548280_7565.png,n04548280_7565.png,0.0,-9.709549,1.0101821,-7.5799947
alexnet_w1_mlp_simclrhn_probe0,1,128,NaN,bear,elephant,16-3-10,0128_eid_dnn_16-3-10_elephant_10_n02504458_98.png,n02504458_98.png,0.0,-0.9721226,0.12084377,-0.7728439
alexnet_w1_mlp_simclrhn_probe0,1,129,NaN,bear,bicycle,64-3-10,0129_eid_dnn_64-3-10_bicycle_10_n03792782_7143.png,n03792782_7143.png,0.0,-3.0616958,-0.84472144,-1.5676376
alexnet_w1_mlp_simclrhn_probe0,1,130,NaN,bear,dog,16-3-10,0130_eid_dnn_16-3-10_dog_10_n02096051_5524.png,n02096051_5524.png,0.0,-1.4780948,0.55863225,-1.4401835
alexnet_w1_mlp_simclrhn_probe0,1,131,NaN,bear,cat,16-3-10,0131_eid_dnn_16-3-10_cat_10_n02123045_9465.png,n02123045_9465.png,0.0,-3.0268476,-0.6860597,-1.655187
alexnet_w1_mlp_simclrhn_probe0,1,132,NaN,oven,cat,64-3-10,0132_eid_dnn_64-3-10_cat_10_n02123159_9450.png,n02123159_9450.png,0.0,-1.378647,-0.1288638,-0.8837302
alexnet_w1_mlp_simclrhn_probe0,1,133,NaN,clock,clock,4-3-10,0133_eid_dnn_4-3-10_clock_10_n02708093_8204.png,n02708093_8204.png,1.0,-2.2780097,-2.766719,0.34556976
alexnet_w1_mlp_simclrhn_probe0,1,134,NaN,bear,airplane,32-3-10,0134_eid_dnn_32-3-10_airplane_10_n02690373_2619.png,n02690373_2619.png,0.0,-4.4452496,-0.958139,-2.4657595
alexnet_w1_mlp_simclrhn_probe0,1,135,NaN,car,car,2-3-10,0135_eid_dnn_2-3-10_car_10_n04285008_11295.png,n04285008_11295.png,1.0,2.8608944,-1.3578742,2.98312
alexnet_w1_mlp_simclrhn_probe0,1,136,NaN,bear,bear,8-3-10,0136_eid_dnn_8-3-10_bear_10_n02133161_15481.png,n02133161_15481.png,1.0,1.6657518,-0.49081022,1.5249197
alexnet_w1_mlp_simclrhn_probe0,1,137,NaN,oven,truck,64-3-10,0137_eid_dnn_64-3-10_truck_10_n03417042_8139.png,n03417042_8139.png,0.0,-9.440105,1.1402996,-7.4814763
alexnet_w1_mlp_simclrhn_probe0,1,138,NaN,cat,bottle,16-3-10,0138_eid_dnn_16-3-10_bottle_10_n04557648_4490.png,n04557648_4490.png,0.0,-5.242675,-1.0830476,-2.9413004
alexnet_w1_mlp_simclrhn_probe0,1,139,NaN,clock,clock,1-3-10,0139_eid_dnn_1-3-10_clock_10_n03196217_5399.png,n03196217_5399.png,1.0,-2.1759582,-2.779801,0.4269813
alexnet_w1_mlp_simclrhn_probe0,1,140,NaN,boat,boat,1-3-10,0140_eid_dnn_1-3-10_boat_10_n04273569_4136.png,n04273569_4136.png,1.0,-0.10956917,-2.0146909,1.3471245
alexnet_w1_mlp_simclrhn_probe0,1,141,NaN,clock,clock,4-3-10,0141_eid_dnn_4-3-10_clock_10_n04548280_2127.png,n04548280_2127.png,1.0,-2.892513,-4.9392977,1.4472953
alexnet_w1_mlp_simclrhn_probe0,1,142,NaN,airplane,boat,2-3-10,0142_eid_dnn_2-3-10_boat_10_n03344393_10038.png,n03344393_10038.png,0.0,-1.4942815,-0.22882825,-0.8948107
alexnet_w1_mlp_simclrhn_probe0,1,143,NaN,elephant,elephant,2-3-10,0143_eid_dnn_2-3-10_elephant_10_n02504013_10793.png,n02504013_10793.png,1.0,5.5597897,-0.32471657,4.1609745
alexnet_w1_mlp_simclrhn_probe0,1,144,NaN,bear,oven,128-3-10,0144_eid_dnn_128-3-10_oven_10_n04111531_6590.png,n04111531_6590.png,0.0,-0.7091148,0.15523298,-0.61118615
alexnet_w1_mlp_simclrhn_probe0,1,145,NaN,oven,keyboard,16-3-10,0145_eid_dnn_16-3-10_keyboard_10_n03085013_10984.png,n03085013_10984.png,0.0,-6.5067616,-2.070148,-3.1371596
alexnet_w1_mlp_simclrhn_probe0,1,146,NaN,bicycle,bicycle,2-3-10,0146_eid_dnn_2-3-10_bicycle_10_n02835271_14879.png,n02835271_14879.png,1.0,-0.32755256,-0.6477171,0.22639054
alexnet_w1_mlp_simclrhn_probe0,1,147,NaN,bear,knife,64-3-10,0147_eid_dnn_64-3-10_knife_10_n03041632_22241.png,n03041632_22241.png,0.0,-3.6705642,0.96283174,-3.276306
alexnet_w1_mlp_simclrhn_probe0,1,148,NaN,oven,oven,64-3-10,0148_eid_dnn_64-3-10_oven_10_n04111531_892.png,n04111531_892.png,1.0,0.86666495,-0.46036673,0.93835306
alexnet_w1_mlp_simclrhn_probe0,1,149,NaN,bear,bear,64-3-10,0149_eid_dnn_64-3-10_bear_10_n02134418_14850.png,n02134418_14850.png,1.0,0.44568408,0.20468521,0.17041193
alexnet_w1_mlp_simclrhn_probe0,1,150,NaN,oven,knife,64-3-10,0150_eid_dnn_64-3-10_knife_10_n03041632_48071.png,n03041632_48071.png,0.0,-4.0309954,2.042204,-4.2944007
alexnet_w1_mlp_simclrhn_probe0,1,151,NaN,cat,clock,16-3-10,0151_eid_dnn_16-3-10_clock_10_n04548280_64.png,n04548280_64.png,0.0,-9.179359,-2.9761827,-4.386308
alexnet_w1_mlp_simclrhn_probe0,1,152,NaN,bird,truck,64-3-10,0152_eid_dnn_64-3-10_truck_10_n03796401_6285.png,n03796401_6285.png,0.0,-7.5329785,-1.5129899,-4.256775
alexnet_w1_mlp_simclrhn_probe0,1,153,NaN,airplane,airplane,4-3-10,0153_eid_dnn_4-3-10_airplane_10_n02690373_6682.png,n02690373_6682.png,1.0,0.814463,-3.3556352,2.948705
alexnet_w1_mlp_simclrhn_probe0,1,154,NaN,oven,knife,64-3-10,0154_eid_dnn_64-3-10_knife_10_n03041632_17285.png,n03041632_17285.png,0.0,-4.32706,0.60545313,-3.4878137
alexnet_w1_mlp_simclrhn_probe0,1,155,NaN,elephant,boat,2-3-10,0155_eid_dnn_2-3-10_boat_10_n02951358_8184.png,n02951358_8184.png,0.0,-0.8682312,-0.22392704,-0.45559186
alexnet_w1_mlp_simclrhn_probe0,1,156,NaN,bicycle,bear,1-3-10,0156_eid_dnn_1-3-10_bear_10_n02132136_2346.png,n02132136_2346.png,0.0,-2.9276094,-1.9178733,-0.7139913
alexnet_w1_mlp_simclrhn_probe0,1,157,NaN,bear,bear,8-3-10,0157_eid_dnn_8-3-10_bear_10_n02134418_2187.png,n02134418_2187.png,1.0,2.9589813,-0.8125335,2.666864
alexnet_w1_mlp_simclrhn_probe0,1,158,NaN,bear,cat,32-3-10,0158_eid_dnn_32-3-10_cat_10_n02124075_10162.png,n02124075_10162.png,0.0,-1.5563613,-0.17835012,-0.9744011
alexnet_w1_mlp_simclrhn_probe0,1,159,NaN,oven,truck,128-3-10,0159_eid_dnn_128-3-10_truck_10_n03417042_8998.png,n03417042_8998.png,0.0,-7.36631,-0.030056,-5.1875153
alexnet_w1_mlp_simclrhn_probe0,1,160,NaN,cat,cat,64-3-10,0160_eid_dnn_64-3-10_cat_10_n02123597_13835.png,n02123597_13835.png,1.0,0.5308708,-0.20288646,0.5188447
alexnet_w1_mlp_simclrhn_probe0,1,161,NaN,clock,clock,1-3-10,0161_eid_dnn_1-3-10_clock_10_n04548280_18914.png,n04548280_18914.png,1.0,2.1399882,-0.97644997,2.2036545
alexnet_w1_mlp_simclrhn_probe0,1,162,NaN,keyboard,keyboard,2-3-10,0162_eid_dnn_2-3-10_keyboard_10_n03085013_2676.png,n03085013_2676.png,1.0,3.6743443,0.15313135,2.4898736
alexnet_w1_mlp_simclrhn_probe0,1,163,NaN,bear,airplane,16-3-10,0163_eid_dnn_16-3-10_airplane_10_n02690373_7600.png,n02690373_7600.png,0.0,-8.564788,-0.16696563,-5.938157
alexnet_w1_mlp_simclrhn_probe0,1,164,NaN,bear,chair,16-3-10,0164_eid_dnn_16-3-10_chair_10_n04429376_17917.png,n04429376_17917.png,0.0,-8.682734,-0.22845203,-5.9780803
alexnet_w1_mlp_simclrhn_probe0,1,165,NaN,keyboard,keyboard,4-3-10,0165_eid_dnn_4-3-10_keyboard_10_n04505470_4492.png,n04505470_4492.png,1.0,-1.1926162,-1.3008986,0.07656717
alexnet_w1_mlp_simclrhn_probe0,1,166,NaN,bear,bear,1-3-10,0166_eid_dnn_1-3-10_bear_10_n02134418_3148.png,n02134418_3148.png,1.0,2.3835647,0.7909274,1.1261647
alexnet_w1_mlp_simclrhn_probe0,1,167,NaN,elephant,cat,4-3-10,0167_eid_dnn_4-3-10_cat_10_n02125311_20388.png,n02125311_20388.png,0.0,-2.1999238,-1.3914586,-0.5716712
alexnet_w1_mlp_simclrhn_probe0,1,168,NaN,oven,cat,64-3-10,0168_eid_dnn_64-3-10_cat_10_n02123394_2153.png,n02123394_2153.png,0.0,-0.74991655,0.81128037,-1.103933
alexnet_w1_mlp_simclrhn_probe0,1,169,NaN,boat,clock,1-3-10,0169_eid_dnn_1-3-10_clock_10_n04548280_5327.png,n04548280_5327.png,0.0,-6.5371895,-4.761461,-1.2556298
alexnet_w1_mlp_simclrhn_probe0,1,170,NaN,cat,bicycle,8-3-10,0170_eid_dnn_8-3-10_bicycle_10_n03792782_63054.png,n03792782_63054.png,0.0,-8.593093,-1.4685248,-5.0378304
alexnet_w1_mlp_simclrhn_probe0,1,171,NaN,cat,chair,32-3-10,0171_eid_dnn_32-3-10_chair_10_n03376595_14138.png,n03376595_14138.png,0.0,-8.329424,-1.391056,-4.906167
alexnet_w1_mlp_simclrhn_probe0,1,172,NaN,elephant,elephant,2-3-10,0172_eid_dnn_2-3-10_elephant_10_n02504458_4849.png,n02504458_4849.png,1.0,-0.5046732,-2.0991516,1.1274664
alexnet_w1_mlp_simclrhn_probe0,1,173,NaN,oven,dog,128-3-10,0173_eid_dnn_128-3-10_dog_10_n02113624_4844.png,n02113624_4844.png,0.0,-2.2644742,2.0874617,-3.0772834
alexnet_w1_mlp_simclrhn_probe0,1,174,NaN,elephant,elephant,2-3-10,0174_eid_dnn_2-3-10_elephant_10_n02504013_2549.png,n02504013_2549.png,1.0,-0.20521295,-1.8713979,1.1781707
alexnet_w1_mlp_simclrhn_probe0,1,175,NaN,bear,bear,8-3-10,0175_eid_dnn_8-3-10_bear_10_n02134084_4593.png,n02134084_4593.png,1.0,-0.3424581,-2.2526312,1.3506963
alexnet_w1_mlp_simclrhn_probe0,1,176,NaN,oven,bicycle,64-3-10,0176_eid_dnn_64-3-10_bicycle_10_n02835271_75.png,n02835271_75.png,0.0,-1.9827782,-0.8338863,-0.8123893
alexnet_w1_mlp_simclrhn_probe0,1,177,NaN,boat,truck,4-3-10,0177_eid_dnn_4-3-10_truck_10_n03796401_20943.png,n03796401_20943.png,0.0,-5.1746407,-3.6645393,-1.0678029
alexnet_w1_mlp_simclrhn_probe0,1,178,NaN,knife,knife,2-3-10,0178_eid_dnn_2-3-10_knife_10_n03041632_32048.png,n03041632_32048.png,1.0,-4.453354,-5.277136,0.5825018
alexnet_w1_mlp_simclrhn_probe0,1,179,NaN,elephant,cat,1-3-10,0179_eid_dnn_1-3-10_cat_10_n02123159_3536.png,n02123159_3536.png,0.0,-4.650742,-3.547172,-0.7803418
alexnet_w1_mlp_simclrhn_probe0,1,180,NaN,bear,bicycle,1-3-10,0180_eid_dnn_1-3-10_bicycle_10_n03792782_6716.png,n03792782_6716.png,0.0,-2.8149865,-1.0840259,-1.223974
alexnet_w1_mlp_simclrhn_probe0,1,181,NaN,clock,clock,2-3-10,0181_eid_dnn_2-3-10_clock_10_n03196217_1754.png,n03196217_1754.png,1.0,-0.628438,-0.7568851,0.090825826
alexnet_w1_mlp_simclrhn_probe0,1,182,NaN,bicycle,bicycle,1-3-10,0182_eid_dnn_1-3-10_bicycle_10_n03792782_5404.png,n03792782_5404.png,1.0,-3.8857217,-7.8107166,2.7753906
alexnet_w1_mlp_simclrhn_probe0,1,183,NaN,oven,dog,64-3-10,0183_eid_dnn_64-3-10_dog_10_n02096294_3014.png,n02096294_3014.png,0.0,-0.8533164,1.3201219,-1.536853
alexnet_w1_mlp_simclrhn_probe0,1,184,NaN,bear,bear,4-3-10,0184_eid_dnn_4-3-10_bear_10_n02134084_23382.png,n02134084_23382.png,1.0,-1.222889,-1.4717282,0.17595594
alexnet_w1_mlp_simclrhn_probe0,1,185,NaN,oven,car,4-3-10,0185_eid_dnn_4-3-10_car_10_n03100240_310.png,n03100240_310.png,0.0,-4.64786,-3.9737935,-0.47663704
alexnet_w1_mlp_simclrhn_probe0,1,186,NaN,cat,dog,4-3-10,0186_eid_dnn_4-3-10_dog_10_n02093256_1653.png,n02093256_1653.png,0.0,-2.4102688,-2.2541132,-0.11041868
alexnet_w1_mlp_simclrhn_probe0,1,187,NaN,elephant,elephant,4-3-10,0187_eid_dnn_4-3-10_elephant_10_n02504013_1740.png,n02504013_1740.png,1.0,3.159531,-0.71042883,2.736475
alexnet_w1_mlp_simclrhn_probe0,1,188,NaN,oven,bear,64-3-10,0188_eid_dnn_64-3-10_bear_10_n02134084_34375.png,n02134084_34375.png,0.0,-0.58793783,3.114829,-2.6182516
alexnet_w1_mlp_simclrhn_probe0,1,189,NaN,cat,keyboard,8-3-10,0189_eid_dnn_8-3-10_keyboard_10_n03085013_23254.png,n03085013_23254.png,0.0,-5.1950297,-2.3030396,-2.044946
alexnet_w1_mlp_simclrhn_probe0,1,190,NaN,oven,elephant,32-3-10,0190_eid_dnn_32-3-10_elephant_10_n02504013_1512.png,n02504013_1512.png,0.0,-2.358139,1.1661721,-2.4920642
alexnet_w1_mlp_simclrhn_probe0,1,191,NaN,elephant,car,8-3-10,0191_eid_dnn_8-3-10_car_10_n04285008_6454.png,n04285008_6454.png,0.0,-7.526285,-2.5647354,-3.5083456
alexnet_w1_mlp_simclrhn_probe0,1,192,NaN,keyboard,keyboard,4-3-10,0192_eid_dnn_4-3-10_keyboard_10_n04505470_7721.png,n04505470_7721.png,1.0,7.1019,1.3376912,4.075911
alexnet_w1_mlp_simclrhn_probe0,1,193,NaN,oven,keyboard,16-3-10,0193_eid_dnn_16-3-10_keyboard_10_n04505470_3388.png,n04505470_3388.png,0.0,-10.614532,-1.3947119,-6.519398
alexnet_w1_mlp_simclrhn_probe0,1,194,NaN,boat,boat,2-3-10,0194_eid_dnn_2-3-10_boat_10_n03344393_4221.png,n03344393_4221.png,1.0,2.368291,-1.11322,2.4618
alexnet_w1_mlp_simclrhn_probe0,1,195,NaN,bear,cat,128-3-10,0195_eid_dnn_128-3-10_cat_10_n02123597_14361.png,n02123597_14361.png,0.0,-0.74198943,-0.30045822,-0.31220973
alexnet_w1_mlp_simclrhn_probe0,1,196,NaN,oven,bird,128-3-10,0196_eid_dnn_128-3-10_bird_10_n02006656_10058.png,n02006656_10058.png,0.0,-6.2991543,0.4051981,-4.740693
alexnet_w1_mlp_simclrhn_probe0,1,197,NaN,cat,clock,32-3-10,0197_eid_dnn_32-3-10_clock_10_n02708093_8104.png,n02708093_8104.png,0.0,-11.21071,-2.2222085,-6.3558297
alexnet_w1_mlp_simclrhn_probe0,1,198,NaN,bicycle,truck,1-3-10,0198_eid_dnn_1-3-10_truck_10_n03417042_3845.png,n03417042_3845.png,0.0,-4.115476,-3.346786,-0.543546
alexnet_w1_mlp_simclrhn_probe0,1,199,NaN,oven,boat,64-3-10,0199_eid_dnn_64-3-10_boat_10_n03662601_36741.png,n03662601_36741.png,0.0,-8.590948,0.72986084,-6.5908074
alexnet_w1_mlp_simclrhn_probe0,1,200,NaN,knife,knife,1-3-10,0200_eid_dnn_1-3-10_knife_10_n03041632_22570.png,n03041632_22570.png,1.0,-1.34057,-2.34087,0.7073189
alexnet_w1_mlp_simclrhn_probe0,1,201,NaN,keyboard,keyboard,1-3-10,0201_eid_dnn_1-3-10_keyboard_10_n04505470_4109.png,n04505470_4109.png,1.0,3.036305,-1.0195109,2.867895
alexnet_w1_mlp_simclrhn_probe0,1,202,NaN,airplane,airplane,1-3-10,0202_eid_dnn_1-3-10_airplane_10_n02690373_10404.png,n02690373_10404.png,1.0,3.7430294,-0.41430038,2.939676
alexnet_w1_mlp_simclrhn_probe0,1,203,NaN,elephant,elephant,4-3-10,0203_eid_dnn_4-3-10_elephant_10_n02504458_4725.png,n02504458_4725.png,1.0,1.4844968,-3.0847218,3.2309256
alexnet_w1_mlp_simclrhn_probe0,1,204,NaN,airplane,airplane,1-3-10,0204_eid_dnn_1-3-10_airplane_10_n02690373_1325.png,n02690373_1325.png,1.0,3.1282196,-2.6937823,4.116777
alexnet_w1_mlp_simclrhn_probe0,1,205,NaN,bear,bicycle,8-3-10,0205_eid_dnn_8-3-10_bicycle_10_n03792782_6841.png,n03792782_6841.png,0.0,-8.046642,-0.03421858,-5.665639
alexnet_w1_mlp_simclrhn_probe0,1,206,NaN,chair,chair,2-3-10,0206_eid_dnn_2-3-10_chair_10_n04099969_1669.png,n04099969_1669.png,1.0,0.3954871,-2.240338,1.8638098
alexnet_w1_mlp_simclrhn_probe0,1,207,NaN,bear,bottle,32-3-10,0207_eid_dnn_32-3-10_bottle_10_n03937543_5324.png,n03937543_5324.png,0.0,-3.4704854,-0.44411212,-2.139969
alexnet_w1_mlp_simclrhn_probe0,1,208,NaN,bottle,bottle,4-3-10,0208_eid_dnn_4-3-10_bottle_10_n03937543_2143.png,n03937543_2143.png,1.0,0.59694064,-3.019396,2.5571363
alexnet_w1_mlp_simclrhn_probe0,1,209,NaN,clock,bottle,2-3-10,0209_eid_dnn_2-3-10_bottle_10_n04557648_2575.png,n04557648_2575.png,0.0,-2.4318116,-2.2224135,-0.14806677
alexnet_w1_mlp_simclrhn_probe0,1,210,NaN,bottle,knife,8-3-10,0210_eid_dnn_8-3-10_knife_10_n03041632_9671.png,n03041632_9671.png,0.0,-2.8593576,-2.7635458,-0.0677492
alexnet_w1_mlp_simclrhn_probe0,1,211,NaN,oven,bottle,16-3-10,0211_eid_dnn_16-3-10_bottle_10_n04560804_4145.png,n04560804_4145.png,0.0,-5.4568057,-1.1079173,-3.0751286
alexnet_w1_mlp_simclrhn_probe0,1,212,NaN,cat,clock,64-3-10,0212_eid_dnn_64-3-10_clock_10_n03196217_1187.png,n03196217_1187.png,0.0,-12.426023,-0.10243424,-8.714093
alexnet_w1_mlp_simclrhn_probe0,1,213,NaN,clock,clock,4-3-10,0213_eid_dnn_4-3-10_clock_10_n04548280_2111.png,n04548280_2111.png,1.0,0.91361827,-2.3016963,2.2735708
alexnet_w1_mlp_simclrhn_probe0,1,214,NaN,oven,dog,128-3-10,0214_eid_dnn_128-3-10_dog_10_n02086079_6578.png,n02086079_6578.png,0.0,-1.2922778,0.22419474,-1.0723081
alexnet_w1_mlp_simclrhn_probe0,1,215,NaN,bear,car,16-3-10,0215_eid_dnn_16-3-10_car_10_n03100240_14045.png,n03100240_14045.png,0.0,-10.847656,0.87335676,-8.288008
alexnet_w1_mlp_simclrhn_probe0,1,216,NaN,oven,boat,8-3-10,0216_eid_dnn_8-3-10_boat_10_n02951358_30908.png,n02951358_30908.png,0.0,-4.546633,-0.7836708,-2.660816
alexnet_w1_mlp_simclrhn_probe0,1,217,NaN,oven,oven,4-3-10,0217_eid_dnn_4-3-10_oven_10_n04111531_2199.png,n04111531_2199.png,1.0,-1.3400903,-2.6609585,0.9339949
alexnet_w1_mlp_simclrhn_probe0,1,218,NaN,bear,elephant,8-3-10,0218_eid_dnn_8-3-10_elephant_10_n02504013_5641.png,n02504013_5641.png,0.0,-0.25397587,1.5863239,-1.3012885
alexnet_w1_mlp_simclrhn_probe0,1,219,NaN,keyboard,keyboard,2-3-10,0219_eid_dnn_2-3-10_keyboard_10_n03085013_6740.png,n03085013_6740.png,1.0,2.0531414,-0.9733846,2.140077
alexnet_w1_mlp_simclrhn_probe0,1,220,NaN,clock,clock,2-3-10,0220_eid_dnn_2-3-10_clock_10_n04548280_319.png,n04548280_319.png,1.0,5.0938134,-1.1935436,4.4458327
alexnet_w1_mlp_simclrhn_probe0,1,221,NaN,oven,knife,32-3-10,0221_eid_dnn_32-3-10_knife_10_n03041632_43506.png,n03041632_43506.png,0.0,-2.2257142,0.66241425,-2.0422153
alexnet_w1_mlp_simclrhn_probe0,1,222,NaN,elephant,boat,16-3-10,0222_eid_dnn_16-3-10_boat_10_n03344393_9712.png,n03344393_9712.png,0.0,-4.0332437,-0.8070724,-2.2812476
alexnet_w1_mlp_simclrhn_probe0,1,223,NaN,knife,knife,1-3-10,0223_eid_dnn_1-3-10_knife_10_n03041632_9963.png,n03041632_9963.png,1.0,0.17765671,-1.7395127,1.3556435
alexnet_w1_mlp_simclrhn_probe0,1,224,NaN,bird,bird,1-3-10,0224_eid_dnn_1-3-10_bird_10_n02002556_18595.png,n02002556_18595.png,1.0,-1.8235213,-1.9938878,0.12046733
alexnet_w1_mlp_simclrhn_probe0,1,225,NaN,bear,bird,4-3-10,0225_eid_dnn_4-3-10_bird_10_n01860187_20777.png,n01860187_20777.png,0.0,-5.9834785,-2.6811993,-2.3350642
alexnet_w1_mlp_simclrhn_probe0,1,226,NaN,oven,keyboard,32-3-10,0226_eid_dnn_32-3-10_keyboard_10_n03085013_24626.png,n03085013_24626.png,0.0,-10.511337,0.4849612,-7.7755575
alexnet_w1_mlp_simclrhn_probe0,1,227,NaN,oven,oven,16-3-10,0227_eid_dnn_16-3-10_oven_10_n04111531_7097.png,n04111531_7097.png,1.0,1.2725053,-1.0814178,1.664475
alexnet_w1_mlp_simclrhn_probe0,1,228,NaN,oven,chair,16-3-10,0228_eid_dnn_16-3-10_chair_10_n02791124_12486.png,n02791124_12486.png,0.0,-9.485607,0.7290827,-7.222877
alexnet_w1_mlp_simclrhn_probe0,1,229,NaN,oven,cat,128-3-10,0229_eid_dnn_128-3-10_cat_10_n02123045_6629.png,n02123045_6629.png,0.0,-0.8687396,1.5853058,-1.735272
alexnet_w1_mlp_simclrhn_probe0,1,230,NaN,bear,bird,16-3-10,0230_eid_dnn_16-3-10_bird_10_n01819313_5388.png,n01819313_5388.png,0.0,-5.518765,-2.6071372,-2.0588317
alexnet_w1_mlp_simclrhn_probe0,1,231,NaN,oven,truck,32-3-10,0231_eid_dnn_32-3-10_truck_10_n04467665_4940.png,n04467665_4940.png,0.0,-8.286927,1.0911162,-6.631278
alexnet_w1_mlp_simclrhn_probe0,1,232,NaN,cat,knife,8-3-10,0232_eid_dnn_8-3-10_knife_10_n03041632_20433.png,n03041632_20433.png,0.0,-6.3649554,-4.1705155,-1.5517033
alexnet_w1_mlp_simclrhn_probe0,1,233,NaN,clock,clock,2-3-10,0233_eid_dnn_2-3-10_clock_10_n04548280_6792.png,n04548280_6792.png,1.0,1.2689201,-1.0408369,1.6332449
alexnet_w1_mlp_simclrhn_probe0,1,234,NaN,dog,bicycle,4-3-10,0234_eid_dnn_4-3-10_bicycle_10_n02835271_5413.png,n02835271_5413.png,0.0,-4.622363,-3.2922094,-0.9405607
alexnet_w1_mlp_simclrhn_probe0,1,235,NaN,car,car,2-3-10,0235_eid_dnn_2-3-10_car_10_n04285008_5005.png,n04285008_5005.png,1.0,1.7827829,-1.9036164,2.606678
alexnet_w1_mlp_simclrhn_probe0,1,236,NaN,oven,car,2-3-10,0236_eid_dnn_2-3-10_car_10_n02814533_88088.png,n02814533_88088.png,0.0,-3.9904306,-1.7527189,-1.5823011
alexnet_w1_mlp_simclrhn_probe0,1,237,NaN,oven,elephant,64-3-10,0237_eid_dnn_64-3-10_elephant_10_n02504458_11345.png,n02504458_11345.png,0.0,-0.6891346,0.75345594,-1.0200655
alexnet_w1_mlp_simclrhn_probe0,1,238,NaN,elephant,elephant,16-3-10,0238_eid_dnn_16-3-10_elephant_10_n02504013_1900.png,n02504013_1900.png,1.0,0.4678722,-0.84198725,0.9262106
alexnet_w1_mlp_simclrhn_probe0,1,239,NaN,oven,bear,128-3-10,0239_eid_dnn_128-3-10_bear_10_n02133161_5708.png,n02133161_5708.png,0.0,-1.8968028,-0.008491874,-1.3352375
alexnet_w1_mlp_simclrhn_probe0,1,240,NaN,cat,cat,8-3-10,0240_eid_dnn_8-3-10_cat_10_n02124075_5828.png,n02124075_5828.png,1.0,1.5990514,-1.750969,2.368822
alexnet_w1_mlp_simclrhn_probe0,1,241,NaN,oven,bird,64-3-10,0241_eid_dnn_64-3-10_bird_10_n01582220_9392.png,n01582220_9392.png,0.0,-4.8191586,1.0377921,-4.1414895
alexnet_w1_mlp_simclrhn_probe0,1,242,NaN,clock,clock,1-3-10,0242_eid_dnn_1-3-10_clock_10_n02708093_4597.png,n02708093_4597.png,1.0,4.0245495,-0.7679954,3.388841
alexnet_w1_mlp_simclrhn_probe0,1,243,NaN,oven,bicycle,128-3-10,0243_eid_dnn_128-3-10_bicycle_10_n03792782_26306.png,n03792782_26306.png,0.0,-2.750712,0.22352248,-2.1031013
alexnet_w1_mlp_simclrhn_probe0,1,244,NaN,oven,bear,32-3-10,0244_eid_dnn_32-3-10_bear_10_n02132136_1795.png,n02132136_1795.png,0.0,0.8146432,0.96352106,-0.10527255
alexnet_w1_mlp_simclrhn_probe0,1,245,NaN,oven,clock,128-3-10,0245_eid_dnn_128-3-10_clock_10_n02708093_3638.png,n02708093_3638.png,0.0,-7.0833983,0.37156165,-5.271453
alexnet_w1_mlp_simclrhn_probe0,1,246,NaN,knife,keyboard,4-3-10,0246_eid_dnn_4-3-10_keyboard_10_n03085013_21272.png,n03085013_21272.png,0.0,-1.7480793,-1.7075402,-0.028665505
alexnet_w1_mlp_simclrhn_probe0,1,247,NaN,bottle,chair,8-3-10,0247_eid_dnn_8-3-10_chair_10_n02791124_16926.png,n02791124_16926.png,0.0,-6.685604,-4.024722,-1.8815278
alexnet_w1_mlp_simclrhn_probe0,1,248,NaN,dog,knife,8-3-10,0248_eid_dnn_8-3-10_knife_10_n03041632_84048.png,n03041632_84048.png,0.0,-4.095619,-2.462632,-1.1546963
alexnet_w1_mlp_simclrhn_probe0,1,249,NaN,oven,oven,2-3-10,0249_eid_dnn_2-3-10_oven_10_n04111531_550.png,n04111531_550.png,1.0,0.4004084,-1.4762788,1.3270183
alexnet_w1_mlp_simclrhn_probe0,1,250,NaN,bear,boat,128-3-10,0250_eid_dnn_128-3-10_boat_10_n03662601_21992.png,n03662601_21992.png,0.0,-12.011037,-0.47017327,-8.160624
alexnet_w1_mlp_simclrhn_probe0,1,251,NaN,bear,bear,32-3-10,0251_eid_dnn_32-3-10_bear_10_n02134418_280.png,n02134418_280.png,1.0,1.0943255,0.117308795,0.6908552
alexnet_w1_mlp_simclrhn_probe0,1,252,NaN,oven,bottle,8-3-10,0252_eid_dnn_8-3-10_bottle_10_n04560804_8385.png,n04560804_8385.png,0.0,-4.0101304,-1.0765066,-2.0743854
alexnet_w1_mlp_simclrhn_probe0,1,253,NaN,elephant,elephant,64-3-10,0253_eid_dnn_64-3-10_elephant_10_n02504013_4183.png,n02504013_4183.png,1.0,-0.21910247,-0.22919556,0.0071368944
alexnet_w1_mlp_simclrhn_probe0,1,254,NaN,bird,bird,1-3-10,0254_eid_dnn_1-3-10_bird_10_n01560419_19608.png,n01560419_19608.png,1.0,-1.2622105,-3.6720326,1.7040015
alexnet_w1_mlp_simclrhn_probe0,1,255,NaN,dog,bird,4-3-10,0255_eid_dnn_4-3-10_bird_10_n02056570_8865.png,n02056570_8865.png,0.0,-4.5964746,-2.6275237,-1.3922586
alexnet_w1_mlp_simclrhn_probe0,1,256,NaN,cat,cat,2-3-10,0256_eid_dnn_2-3-10_cat_10_n02123394_2553.png,n02123394_2553.png,1.0,-1.1235003,-2.5495012,1.0083349
alexnet_w1_mlp_simclrhn_probe0,1,257,NaN,oven,bear,128-3-10,0257_eid_dnn_128-3-10_bear_10_n02132136_10113.png,n02132136_10113.png,0.0,-0.9628806,1.8348839,-1.9783183
alexnet_w1_mlp_simclrhn_probe0,1,258,NaN,oven,oven,8-3-10,0258_eid_dnn_8-3-10_oven_10_n04111531_2758.png,n04111531_2758.png,1.0,0.2604463,-2.830341,2.1855168
alexnet_w1_mlp_simclrhn_probe0,1,259,NaN,bird,keyboard,64-3-10,0259_eid_dnn_64-3-10_keyboard_10_n04505470_4824.png,n04505470_4824.png,0.0,-7.074973,-2.3602452,-3.333816
alexnet_w1_mlp_simclrhn_probe0,1,260,NaN,bicycle,bicycle,2-3-10,0260_eid_dnn_2-3-10_bicycle_10_n02835271_8654.png,n02835271_8654.png,1.0,-2.3172274,-2.877014,0.39582887
alexnet_w1_mlp_simclrhn_probe0,1,261,NaN,bear,keyboard,128-3-10,0261_eid_dnn_128-3-10_keyboard_10_n03085013_34973.png,n03085013_34973.png,0.0,-6.5245476,0.080536924,-4.6705003
alexnet_w1_mlp_simclrhn_probe0,1,262,NaN,cat,cat,4-3-10,0262_eid_dnn_4-3-10_cat_10_n02123394_4228.png,n02123394_4228.png,1.0,-1.7004305,-3.434233,1.2259835
alexnet_w1_mlp_simclrhn_probe0,1,263,NaN,oven,keyboard,32-3-10,0263_eid_dnn_32-3-10_keyboard_10_n03085013_24416.png,n03085013_24416.png,0.0,-5.5584784,-0.7336918,-3.4116395
alexnet_w1_mlp_simclrhn_probe0,1,264,NaN,cat,cat,8-3-10,0264_eid_dnn_8-3-10_cat_10_n02124075_5729.png,n02124075_5729.png,1.0,0.02902239,-1.8346179,1.3177927
alexnet_w1_mlp_simclrhn_probe0,1,265,NaN,bear,clock,32-3-10,0265_eid_dnn_32-3-10_clock_10_n03196217_6357.png,n03196217_6357.png,0.0,-4.831476,-0.6219639,-2.9765747
alexnet_w1_mlp_simclrhn_probe0,1,266,NaN,oven,truck,128-3-10,0266_eid_dnn_128-3-10_truck_10_n03417042_29478.png,n03417042_29478.png,0.0,-6.782939,-0.75154096,-4.2648425
alexnet_w1_mlp_simclrhn_probe0,1,267,NaN,bear,chair,128-3-10,0267_eid_dnn_128-3-10_chair_10_n04099969_18678.png,n04099969_18678.png,0.0,-4.226985,-1.4547279,-1.9602818
alexnet_w1_mlp_simclrhn_probe0,1,268,NaN,oven,clock,32-3-10,0268_eid_dnn_32-3-10_clock_10_n02708093_4286.png,n02708093_4286.png,0.0,-7.9262066,1.001879,-6.31311
alexnet_w1_mlp_simclrhn_probe0,1,269,NaN,oven,car,128-3-10,0269_eid_dnn_128-3-10_car_10_n03100240_21971.png,n03100240_21971.png,0.0,-10.825092,2.0140731,-9.078661
alexnet_w1_mlp_simclrhn_probe0,1,270,NaN,car,car,1-3-10,0270_eid_dnn_1-3-10_car_10_n03100240_84.png,n03100240_84.png,1.0,2.895179,2.473545,0.29814023
alexnet_w1_mlp_simclrhn_probe0,1,271,NaN,cat,dog,1-3-10,0271_eid_dnn_1-3-10_dog_10_n02094433_3186.png,n02094433_3186.png,0.0,-1.9136609,-0.57668877,-0.94538206
alexnet_w1_mlp_simclrhn_probe0,1,272,NaN,dog,dog,4-3-10,0272_eid_dnn_4-3-10_dog_10_n02088364_10195.png,n02088364_10195.png,1.0,-0.85137296,-1.2520261,0.28330454
alexnet_w1_mlp_simclrhn_probe0,1,273,NaN,bear,knife,16-3-10,0273_eid_dnn_16-3-10_knife_10_n03041632_11358.png,n03041632_11358.png,0.0,-3.9626203,-1.0227326,-2.0788145
alexnet_w1_mlp_simclrhn_probe0,1,274,NaN,oven,bird,64-3-10,0274_eid_dnn_64-3-10_bird_10_n01531178_10630.png,n01531178_10630.png,0.0,-1.2909322,-0.7259098,-0.39953116
alexnet_w1_mlp_simclrhn_probe0,1,275,NaN,elephant,elephant,1-3-10,0275_eid_dnn_1-3-10_elephant_10_n02504458_4058.png,n02504458_4058.png,1.0,-0.15864998,-1.2859875,0.797148
alexnet_w1_mlp_simclrhn_probe0,1,276,NaN,oven,keyboard,32-3-10,0276_eid_dnn_32-3-10_keyboard_10_n03085013_24336.png,n03085013_24336.png,0.0,-8.446745,-0.8860723,-5.346203
alexnet_w1_mlp_simclrhn_probe0,1,277,NaN,bottle,clock,4-3-10,0277_eid_dnn_4-3-10_clock_10_n02708093_386.png,n02708093_386.png,0.0,-3.2700722,-2.250726,-0.72078663
alexnet_w1_mlp_simclrhn_probe0,1,278,NaN,elephant,chair,4-3-10,0278_eid_dnn_4-3-10_chair_10_n04429376_16370.png,n04429376_16370.png,0.0,-7.841036,-3.2461119,-3.2491019
alexnet_w1_mlp_simclrhn_probe0,1,279,NaN,knife,bottle,1-3-10,0279_eid_dnn_1-3-10_bottle_10_n04557648_10167.png,n04557648_10167.png,0.0,-3.7654073,-3.2027893,-0.39783102
alexnet_w1_mlp_simclrhn_probe0,1,280,NaN,bicycle,bicycle,1-3-10,0280_eid_dnn_1-3-10_bicycle_10_n02835271_15717.png,n02835271_15717.png,1.0,-1.0495415,-4.733947,2.605268
alexnet_w1_mlp_simclrhn_probe0,1,281,NaN,oven,car,128-3-10,0281_eid_dnn_128-3-10_car_10_n03100240_22593.png,n03100240_22593.png,0.0,-11.055715,1.5856507,-8.938795
alexnet_w1_mlp_simclrhn_probe0,1,282,NaN,car,car,1-3-10,0282_eid_dnn_1-3-10_car_10_n04285008_11240.png,n04285008_11240.png,1.0,5.0091166,0.2977848,3.3314147
alexnet_w1_mlp_simclrhn_probe0,1,283,NaN,airplane,boat,1-3-10,0283_eid_dnn_1-3-10_boat_10_n03344393_3337.png,n03344393_3337.png,0.0,-1.7236471,-1.4658682,-0.1822772
alexnet_w1_mlp_simclrhn_probe0,1,284,NaN,oven,bottle,128-3-10,0284_eid_dnn_128-3-10_bottle_10_n04579145_1660.png,n04579145_1660.png,0.0,-4.6792097,0.8917587,-3.9392698
alexnet_w1_mlp_simclrhn_probe0,1,285,NaN,oven,dog,64-3-10,0285_eid_dnn_64-3-10_dog_10_n02091244_9305.png,n02091244_9305.png,0.0,-1.7731555,-0.26498938,-1.0664345
alexnet_w1_mlp_simclrhn_probe0,1,286,NaN,oven,chair,32-3-10,0286_eid_dnn_32-3-10_chair_10_n03376595_3912.png,n03376595_3912.png,0.0,-5.6754413,-0.5749388,-3.6066
alexnet_w1_mlp_simclrhn_probe0,1,287,NaN,oven,bottle,64-3-10,0287_eid_dnn_64-3-10_bottle_10_n02823428_6793.png,n02823428_6793.png,0.0,-4.982882,1.3808023,-4.4998045
alexnet_w1_mlp_simclrhn_probe0,1,288,NaN,bear,dog,32-3-10,0288_eid_dnn_32-3-10_dog_10_n02093754_4949.png,n02093754_4949.png,0.0,-1.609644,0.6571968,-1.6028986
alexnet_w1_mlp_simclrhn_probe0,1,289,NaN,oven,dog,128-3-10,0289_eid_dnn_128-3-10_dog_10_n02105855_10394.png,n02105855_10394.png,0.0,-1.5114231,1.8954009,-2.4089885
alexnet_w1_mlp_simclrhn_probe0,1,290,NaN,bottle,clock,2-3-10,0290_eid_dnn_2-3-10_clock_10_n04548280_9533.png,n04548280_9533.png,0.0,-2.6556017,-2.198323,-0.3233449
alexnet_w1_mlp_simclrhn_probe0,1,291,NaN,cat,cat,1-3-10,0291_eid_dnn_1-3-10_cat_10_n02125311_7527.png,n02125311_7527.png,1.0,-2.6132345,-4.362644,1.2370194
alexnet_w1_mlp_simclrhn_probe0,1,292,NaN,car,car,4-3-10,0292_eid_dnn_4-3-10_car_10_n03100240_4537.png,n03100240_4537.png,1.0,-1.4711224,-2.5953116,0.7949219
alexnet_w1_mlp_simclrhn_probe0,1,293,NaN,cat,bicycle,8-3-10,0293_eid_dnn_8-3-10_bicycle_10_n03792782_11609.png,n03792782_11609.png,0.0,-8.060163,-1.5346469,-4.6142364
alexnet_w1_mlp_simclrhn_probe0,1,294,NaN,oven,oven,128-3-10,0294_eid_dnn_128-3-10_oven_10_n04111531_6134.png,n04111531_6134.png,1.0,0.3150301,-0.8131179,0.79772115
alexnet_w1_mlp_simclrhn_probe0,1,295,NaN,oven,bottle,8-3-10,0295_eid_dnn_8-3-10_bottle_10_n04591713_715.png,n04591713_715.png,0.0,-3.6094444,-2.9433324,-0.4710123
alexnet_w1_mlp_simclrhn_probe0,1,296,NaN,oven,elephant,32-3-10,0296_eid_dnn_32-3-10_elephant_10_n02504458_7818.png,n02504458_7818.png,0.0,-0.6356773,0.35553348,-0.70089185
alexnet_w1_mlp_simclrhn_probe0,1,297,NaN,oven,airplane,64-3-10,0297_eid_dnn_64-3-10_airplane_10_n02690373_7107.png,n02690373_7107.png,0.0,-8.976762,0.58425313,-6.7606587
alexnet_w1_mlp_simclrhn_probe0,1,298,NaN,oven,car,32-3-10,0298_eid_dnn_32-3-10_car_10_n04285008_8363.png,n04285008_8363.png,0.0,-8.543693,-1.050696,-5.298349
alexnet_w1_mlp_simclrhn_probe0,1,299,NaN,oven,clock,4-3-10,0299_eid_dnn_4-3-10_clock_10_n04548280_4249.png,n04548280_4249.png,0.0,-7.594046,-1.4351404,-4.3550043
alexnet_w1_mlp_simclrhn_probe0,1,300,NaN,cat,cat,128-3-10,0300_eid_dnn_128-3-10_cat_10_n02123597_7269.png,n02123597_7269.png,1.0,1.7807059,0.4396799,0.9482486
alexnet_w1_mlp_simclrhn_probe0,1,301,NaN,bicycle,bicycle,1-3-10,0301_eid_dnn_1-3-10_bicycle_10_n03792782_4864.png,n03792782_4864.png,1.0,1.7594519,-4.1697874,4.1926055
alexnet_w1_mlp_simclrhn_probe0,1,302,NaN,bear,bear,2-3-10,0302_eid_dnn_2-3-10_bear_10_n02132136_8011.png,n02132136_8011.png,1.0,0.72370803,-2.0224733,1.9418436
alexnet_w1_mlp_simclrhn_probe0,1,303,NaN,oven,boat,128-3-10,0303_eid_dnn_128-3-10_boat_10_n02951358_4810.png,n02951358_4810.png,0.0,-9.046301,-1.0295014,-5.6687336
alexnet_w1_mlp_simclrhn_probe0,1,304,NaN,oven,clock,128-3-10,0304_eid_dnn_128-3-10_clock_10_n03196217_5137.png,n03196217_5137.png,0.0,-7.250988,-0.7004186,-4.6319523
alexnet_w1_mlp_simclrhn_probe0,1,305,NaN,bicycle,bicycle,2-3-10,0305_eid_dnn_2-3-10_bicycle_10_n02835271_158.png,n02835271_158.png,1.0,-1.4928972,-4.990414,2.473118
alexnet_w1_mlp_simclrhn_probe0,1,306,NaN,oven,bear,64-3-10,0306_eid_dnn_64-3-10_bear_10_n02132136_11217.png,n02132136_11217.png,0.0,-1.665355,-0.12499809,-1.0891968
alexnet_w1_mlp_simclrhn_probe0,1,307,NaN,oven,dog,64-3-10,0307_eid_dnn_64-3-10_dog_10_n02092002_6122.png,n02092002_6122.png,0.0,-1.2627637,0.8945316,-1.5254381
alexnet_w1_mlp_simclrhn_probe0,1,308,NaN,bear,chair,32-3-10,0308_eid_dnn_32-3-10_chair_10_n04429376_29223.png,n04429376_29223.png,0.0,-11.426507,-0.31159094,-7.8594327
alexnet_w1_mlp_simclrhn_probe0,1,309,NaN,oven,bear,128-3-10,0309_eid_dnn_128-3-10_bear_10_n02133161_5723.png,n02133161_5723.png,0.0,-1.3476422,-0.07595398,-0.8992194
alexnet_w1_mlp_simclrhn_probe0,1,310,NaN,oven,dog,128-3-10,0310_eid_dnn_128-3-10_dog_10_n02100583_1343.png,n02100583_1343.png,0.0,-1.2888077,0.6920439,-1.4006736
alexnet_w1_mlp_simclrhn_probe0,1,311,NaN,oven,boat,128-3-10,0311_eid_dnn_128-3-10_boat_10_n03344393_6352.png,n03344393_6352.png,0.0,-7.21575,-0.11785513,-5.01897
alexnet_w1_mlp_simclrhn_probe0,1,312,NaN,cat,bird,4-3-10,0312_eid_dnn_4-3-10_bird_10_n01560419_8247.png,n01560419_8247.png,0.0,-3.6785135,-2.9918435,-0.48554906
alexnet_w1_mlp_simclrhn_probe0,1,313,NaN,dog,dog,4-3-10,0313_eid_dnn_4-3-10_dog_10_n02105251_8210.png,n02105251_8210.png,1.0,-0.8798684,-1.1586893,0.19715613
alexnet_w1_mlp_simclrhn_probe0,1,314,NaN,oven,oven,128-3-10,0314_eid_dnn_128-3-10_oven_10_n04111531_9702.png,n04111531_9702.png,1.0,-0.72241277,-1.0682062,0.24451289
alexnet_w1_mlp_simclrhn_probe0,1,315,NaN,bear,bear,8-3-10,0315_eid_dnn_8-3-10_bear_10_n02133161_12161.png,n02133161_12161.png,1.0,-0.23077935,-0.32429293,0.06612409
alexnet_w1_mlp_simclrhn_probe0,1,316,NaN,bear,bear,8-3-10,0316_eid_dnn_8-3-10_bear_10_n02133161_13556.png,n02133161_13556.png,1.0,0.48175782,-0.36828592,0.6010717
alexnet_w1_mlp_simclrhn_probe0,1,317,NaN,oven,bear,128-3-10,0317_eid_dnn_128-3-10_bear_10_n02134084_635.png,n02134084_635.png,0.0,-2.160435,-0.84248686,-0.93193007
alexnet_w1_mlp_simclrhn_probe0,1,318,NaN,oven,chair,128-3-10,0318_eid_dnn_128-3-10_chair_10_n02791124_6956.png,n02791124_6956.png,0.0,-7.6298175,1.2317595,-6.2660813
alexnet_w1_mlp_simclrhn_probe0,1,319,NaN,oven,car,4-3-10,0319_eid_dnn_4-3-10_car_10_n02814533_18077.png,n02814533_18077.png,0.0,-4.0066032,-3.1040363,-0.6382112
alexnet_w1_mlp_simclrhn_probe0,1,320,NaN,knife,dog,2-3-10,0320_eid_dnn_2-3-10_dog_10_n02088364_11105.png,n02088364_11105.png,0.0,-6.2789946,-3.7626674,-1.779312
alexnet_w1_mlp_simclrhn_probe0,1,321,NaN,oven,airplane,64-3-10,0321_eid_dnn_64-3-10_airplane_10_n02690373_1053.png,n02690373_1053.png,0.0,-7.880118,-1.2413282,-4.694333
alexnet_w1_mlp_simclrhn_probe0,1,322,NaN,oven,car,16-3-10,0322_eid_dnn_16-3-10_car_10_n02814533_96407.png,n02814533_96407.png,0.0,-8.630166,0.6355013,-6.551816
alexnet_w1_mlp_simclrhn_probe0,1,323,NaN,oven,chair,4-3-10,0323_eid_dnn_4-3-10_chair_10_n04099969_31891.png,n04099969_31891.png,0.0,-3.9295044,-1.1843418,-1.941123
alexnet_w1_mlp_simclrhn_probe0,1,324,NaN,cat,bottle,16-3-10,0324_eid_dnn_16-3-10_bottle_10_n04557648_4470.png,n04557648_4470.png,0.0,-3.282837,-1.8306546,-1.026848
alexnet_w1_mlp_simclrhn_probe0,1,325,NaN,oven,clock,8-3-10,0325_eid_dnn_8-3-10_clock_10_n02708093_2588.png,n02708093_2588.png,0.0,-8.505,-4.1222496,-3.0990727
alexnet_w1_mlp_simclrhn_probe0,1,326,NaN,oven,elephant,128-3-10,0326_eid_dnn_128-3-10_elephant_10_n02504458_6696.png,n02504458_6696.png,0.0,-1.9679843,0.2730308,-1.584637
alexnet_w1_mlp_simclrhn_probe0,1,327,NaN,oven,elephant,32-3-10,0327_eid_dnn_32-3-10_elephant_10_n02504013_4071.png,n02504013_4071.png,0.0,-0.55311316,0.16682053,-0.50907
alexnet_w1_mlp_simclrhn_probe0,1,328,NaN,knife,keyboard,8-3-10,0328_eid_dnn_8-3-10_keyboard_10_n03085013_8339.png,n03085013_8339.png,0.0,-6.3839593,-2.575429,-2.6930377
alexnet_w1_mlp_simclrhn_probe0,1,329,NaN,bear,elephant,64-3-10,0329_eid_dnn_64-3-10_elephant_10_n02504013_6976.png,n02504013_6976.png,0.0,-1.2479212,-0.07604881,-0.8286389
alexnet_w1_mlp_simclrhn_probe0,1,330,NaN,bear,boat,4-3-10,0330_eid_dnn_4-3-10_boat_10_n02951358_9146.png,n02951358_9146.png,0.0,-5.725661,-0.75065,-3.517864
alexnet_w1_mlp_simclrhn_probe0,1,331,NaN,oven,boat,32-3-10,0331_eid_dnn_32-3-10_boat_10_n04273569_4087.png,n04273569_4087.png,0.0,-4.7852755,-1.3571494,-2.4240513
alexnet_w1_mlp_simclrhn_probe0,1,332,NaN,oven,oven,64-3-10,0332_eid_dnn_64-3-10_oven_10_n04111531_2922.png,n04111531_2922.png,1.0,0.02156055,-0.44188288,0.32770398
alexnet_w1_mlp_simclrhn_probe0,1,333,NaN,bear,bear,4-3-10,0333_eid_dnn_4-3-10_bear_10_n02133161_5325.png,n02133161_5325.png,1.0,0.68170714,-1.936603,1.8514248
alexnet_w1_mlp_simclrhn_probe0,1,334,NaN,oven,bottle,64-3-10,0334_eid_dnn_64-3-10_bottle_10_n04557648_3109.png,n04557648_3109.png,0.0,-3.7990205,0.74383795,-3.2122862
alexnet_w1_mlp_simclrhn_probe0,1,335,NaN,oven,oven,1-3-10,0335_eid_dnn_1-3-10_oven_10_n04111531_15912.png,n04111531_15912.png,1.0,1.5098937,-1.723633,2.2864487
alexnet_w1_mlp_simclrhn_probe0,1,336,NaN,oven,truck,16-3-10,0336_eid_dnn_16-3-10_truck_10_n03417042_17099.png,n03417042_17099.png,0.0,-12.093977,0.35176188,-8.800467
alexnet_w1_mlp_simclrhn_probe0,1,337,NaN,car,car,2-3-10,0337_eid_dnn_2-3-10_car_10_n04285008_8641.png,n04285008_8641.png,1.0,-0.09389315,-1.4219236,0.9390594
alexnet_w1_mlp_simclrhn_probe0,1,338,NaN,oven,keyboard,32-3-10,0338_eid_dnn_32-3-10_keyboard_10_n04505470_524.png,n04505470_524.png,0.0,-8.363818,-0.5053298,-5.556791
alexnet_w1_mlp_simclrhn_probe0,1,339,NaN,elephant,bottle,8-3-10,0339_eid_dnn_8-3-10_bottle_10_n04557648_5935.png,n04557648_5935.png,0.0,-8.603586,-1.284062,-5.1756854
alexnet_w1_mlp_simclrhn_probe0,1,340,NaN,oven,bottle,1-3-10,0340_eid_dnn_1-3-10_bottle_10_n04591713_3776.png,n04591713_3776.png,0.0,-4.805168,-3.5706754,-0.87291825
alexnet_w1_mlp_simclrhn_probe0,1,341,NaN,truck,truck,2-3-10,0341_eid_dnn_2-3-10_truck_10_n03796401_3651.png,n03796401_3651.png,1.0,0.39142713,-2.5335426,2.068266
alexnet_w1_mlp_simclrhn_probe0,1,342,NaN,bear,bicycle,128-3-10,0342_eid_dnn_128-3-10_bicycle_10_n03792782_15757.png,n03792782_15757.png,0.0,-4.0423636,-1.062185,-2.1073046
alexnet_w1_mlp_simclrhn_probe0,1,343,NaN,oven,cat,32-3-10,0343_eid_dnn_32-3-10_cat_10_n02123597_8698.png,n02123597_8698.png,0.0,-1.3423971,-0.73344374,-0.43059507
alexnet_w1_mlp_simclrhn_probe0,1,344,NaN,boat,boat,1-3-10,0344_eid_dnn_1-3-10_boat_10_n03662601_273.png,n03662601_273.png,1.0,-3.525185,-4.049285,0.37059456
alexnet_w1_mlp_simclrhn_probe0,1,345,NaN,bicycle,knife,1-3-10,0345_eid_dnn_1-3-10_knife_10_n03041632_24376.png,n03041632_24376.png,0.0,-4.701344,-4.6049404,-0.06816764
alexnet_w1_mlp_simclrhn_probe0,1,346,NaN,bottle,keyboard,1-3-10,0346_eid_dnn_1-3-10_keyboard_10_n04505470_2608.png,n04505470_2608.png,0.0,-6.274912,-5.292437,-0.6947146
alexnet_w1_mlp_simclrhn_probe0,1,347,NaN,oven,boat,16-3-10,0347_eid_dnn_16-3-10_boat_10_n04273569_10665.png,n04273569_10665.png,0.0,-6.9153075,-0.7928128,-4.3292575
alexnet_w1_mlp_simclrhn_probe0,1,348,NaN,oven,bear,64-3-10,0348_eid_dnn_64-3-10_bear_10_n02133161_5267.png,n02133161_5267.png,0.0,0.60602474,0.67119575,-0.046082858
alexnet_w1_mlp_simclrhn_probe0,1,349,NaN,bear,bear,128-3-10,0349_eid_dnn_128-3-10_bear_10_n02133161_5020.png,n02133161_5020.png,1.0,0.19791201,-0.10165534,0.2118261
alexnet_w1_mlp_simclrhn_probe0,1,350,NaN,oven,knife,128-3-10,0350_eid_dnn_128-3-10_knife_10_n03041632_21723.png,n03041632_21723.png,0.0,-5.2882676,1.2683198,-4.6362076
alexnet_w1_mlp_simclrhn_probe0,1,351,NaN,oven,boat,32-3-10,0351_eid_dnn_32-3-10_boat_10_n02951358_31101.png,n02951358_31101.png,0.0,-5.560708,-0.068703234,-3.883434
alexnet_w1_mlp_simclrhn_probe0,1,352,NaN,oven,dog,128-3-10,0352_eid_dnn_128-3-10_dog_10_n02102177_4180.png,n02102177_4180.png,0.0,-2.2353818,-0.46592176,-1.2511972
alexnet_w1_mlp_simclrhn_probe0,1,353,NaN,bottle,bottle,4-3-10,0353_eid_dnn_4-3-10_bottle_10_n04579145_4186.png,n04579145_4186.png,1.0,0.8876519,-2.0363915,2.067611
alexnet_w1_mlp_simclrhn_probe0,1,354,NaN,bear,bicycle,64-3-10,0354_eid_dnn_64-3-10_bicycle_10_n03792782_2246.png,n03792782_2246.png,0.0,-4.403015,0.86392987,-3.7242925
alexnet_w1_mlp_simclrhn_probe0,1,355,NaN,dog,dog,1-3-10,0355_eid_dnn_1-3-10_dog_10_n02110958_1526.png,n02110958_1526.png,1.0,-3.121539,-8.584203,3.8626866
alexnet_w1_mlp_simclrhn_probe0,1,356,NaN,bear,keyboard,128-3-10,0356_eid_dnn_128-3-10_keyboard_10_n04505470_255.png,n04505470_255.png,0.0,-10.000013,-0.39708382,-6.7902966
alexnet_w1_mlp_simclrhn_probe0,1,357,NaN,bear,elephant,4-3-10,0357_eid_dnn_4-3-10_elephant_10_n02504458_1933.png,n02504458_1933.png,0.0,-1.1618775,-1.084972,-0.054380395
alexnet_w1_mlp_simclrhn_probe0,1,358,NaN,cat,cat,2-3-10,0358_eid_dnn_2-3-10_cat_10_n02123159_5749.png,n02123159_5749.png,1.0,-1.1446096,-4.637958,2.4701705
alexnet_w1_mlp_simclrhn_probe0,1,359,NaN,bear,airplane,128-3-10,0359_eid_dnn_128-3-10_airplane_10_n02690373_2967.png,n02690373_2967.png,0.0,-10.586367,-2.1614385,-5.9573245
alexnet_w1_mlp_simclrhn_probe0,1,360,NaN,cat,chair,8-3-10,0360_eid_dnn_8-3-10_chair_10_n04099969_72.png,n04099969_72.png,0.0,-7.9643116,-2.777284,-3.6677828
alexnet_w1_mlp_simclrhn_probe0,1,361,NaN,oven,cat,32-3-10,0361_eid_dnn_32-3-10_cat_10_n02123045_4089.png,n02123045_4089.png,0.0,-1.0724751,0.10355097,-0.83157605
alexnet_w1_mlp_simclrhn_probe0,1,362,NaN,oven,bird,128-3-10,0362_eid_dnn_128-3-10_bird_10_n01616318_13293.png,n01616318_13293.png,0.0,-6.4524713,1.3453963,-5.513925
alexnet_w1_mlp_simclrhn_probe0,1,363,NaN,cat,cat,4-3-10,0363_eid_dnn_4-3-10_cat_10_n02124075_13719.png,n02124075_13719.png,1.0,-1.9468385,-2.2870715,0.24058105
alexnet_w1_mlp_simclrhn_probe0,1,364,NaN,oven,oven,32-3-10,0364_eid_dnn_32-3-10_oven_10_n04111531_22466.png,n04111531_22466.png,1.0,-1.5965551,-1.8314314,0.1660826
alexnet_w1_mlp_simclrhn_probe0,1,365,NaN,oven,airplane,128-3-10,0365_eid_dnn_128-3-10_airplane_10_n02690373_2525.png,n02690373_2525.png,0.0,-11.916455,-1.1801574,-7.591709
alexnet_w1_mlp_simclrhn_probe0,1,366,NaN,cat,cat,1-3-10,0366_eid_dnn_1-3-10_cat_10_n02124075_5369.png,n02124075_5369.png,1.0,0.12815547,-1.2884144,1.0016662
alexnet_w1_mlp_simclrhn_probe0,1,367,NaN,oven,bird,64-3-10,0367_eid_dnn_64-3-10_bird_10_n01843065_4182.png,n01843065_4182.png,0.0,-2.359234,-0.5956319,-1.2470552
alexnet_w1_mlp_simclrhn_probe0,1,368,NaN,truck,truck,2-3-10,0368_eid_dnn_2-3-10_truck_10_n03796401_6472.png,n03796401_6472.png,1.0,-2.3972647,-3.0980537,0.49553263
alexnet_w1_mlp_simclrhn_probe0,1,369,NaN,oven,airplane,64-3-10,0369_eid_dnn_64-3-10_airplane_10_n02690373_3090.png,n02690373_3090.png,0.0,-7.430221,0.37462106,-5.518857
alexnet_w1_mlp_simclrhn_probe0,1,370,NaN,bear,bear,64-3-10,0370_eid_dnn_64-3-10_bear_10_n02134418_2964.png,n02134418_2964.png,1.0,0.6179138,-0.26540405,0.62460005
alexnet_w1_mlp_simclrhn_probe0,1,371,NaN,bear,elephant,16-3-10,0371_eid_dnn_16-3-10_elephant_10_n02504013_6904.png,n02504013_6904.png,0.0,1.2871156,1.816377,-0.3742444
alexnet_w1_mlp_simclrhn_probe0,1,372,NaN,bear,bottle,32-3-10,0372_eid_dnn_32-3-10_bottle_10_n02823428_13488.png,n02823428_13488.png,0.0,-6.483941,0.18868984,-4.7182627
alexnet_w1_mlp_simclrhn_probe0,1,373,NaN,car,car,1-3-10,0373_eid_dnn_1-3-10_car_10_n02814533_49499.png,n02814533_49499.png,1.0,8.592191,2.9048336,4.021569
alexnet_w1_mlp_simclrhn_probe0,1,374,NaN,oven,clock,64-3-10,0374_eid_dnn_64-3-10_clock_10_n03196217_1000.png,n03196217_1000.png,0.0,-7.842661,-0.6409625,-5.0923696
alexnet_w1_mlp_simclrhn_probe0,1,375,NaN,bear,boat,16-3-10,0375_eid_dnn_16-3-10_boat_10_n04612504_13446.png,n04612504_13446.png,0.0,-4.5269513,-0.6407301,-2.7479734
alexnet_w1_mlp_simclrhn_probe0,1,376,NaN,oven,cat,8-3-10,0376_eid_dnn_8-3-10_cat_10_n02123159_7239.png,n02123159_7239.png,0.0,-1.1990343,-0.6420702,-0.39383313
alexnet_w1_mlp_simclrhn_probe0,1,377,NaN,elephant,airplane,8-3-10,0377_eid_dnn_8-3-10_airplane_10_n02690373_7499.png,n02690373_7499.png,0.0,-3.4561927,-1.7886357,-1.1791409
alexnet_w1_mlp_simclrhn_probe0,1,378,NaN,oven,dog,64-3-10,0378_eid_dnn_64-3-10_dog_10_n02100877_8862.png,n02100877_8862.png,0.0,-1.8121758,-0.35531315,-1.0301574
alexnet_w1_mlp_simclrhn_probe0,1,379,NaN,keyboard,keyboard,2-3-10,0379_eid_dnn_2-3-10_keyboard_10_n03085013_7152.png,n03085013_7152.png,1.0,2.9148734,0.2650353,1.8737184
alexnet_w1_mlp_simclrhn_probe0,1,380,NaN,oven,bottle,32-3-10,0380_eid_dnn_32-3-10_bottle_10_n03937543_3344.png,n03937543_3344.png,0.0,-6.413837,-0.05494356,-4.4964166
alexnet_w1_mlp_simclrhn_probe0,1,381,NaN,bear,bicycle,64-3-10,0381_eid_dnn_64-3-10_bicycle_10_n02835271_1721.png,n02835271_1721.png,0.0,-4.7411327,-0.4273724,-3.0502892
alexnet_w1_mlp_simclrhn_probe0,1,382,NaN,boat,boat,2-3-10,0382_eid_dnn_2-3-10_boat_10_n04273569_7039.png,n04273569_7039.png,1.0,-0.0118049625,-2.8641844,2.0169368
alexnet_w1_mlp_simclrhn_probe0,1,383,NaN,airplane,airplane,1-3-10,0383_eid_dnn_1-3-10_airplane_10_n02690373_5790.png,n02690373_5790.png,1.0,1.1551955,-2.749686,2.7611682
alexnet_w1_mlp_simclrhn_probe0,1,384,NaN,boat,bird,2-3-10,0384_eid_dnn_2-3-10_bird_10_n02007558_4629.png,n02007558_4629.png,0.0,-4.763282,-3.4926999,-0.89843714
alexnet_w1_mlp_simclrhn_probe0,1,385,NaN,airplane,airplane,8-3-10,0385_eid_dnn_8-3-10_airplane_10_n02690373_2313.png,n02690373_2313.png,1.0,-0.5763984,-2.2989259,1.2180109
alexnet_w1_mlp_simclrhn_probe0,1,386,NaN,car,car,2-3-10,0386_eid_dnn_2-3-10_car_10_n02814533_65093.png,n02814533_65093.png,1.0,3.7822733,1.1676283,1.8488332
alexnet_w1_mlp_simclrhn_probe0,1,387,NaN,bicycle,bicycle,2-3-10,0387_eid_dnn_2-3-10_bicycle_10_n03792782_4559.png,n03792782_4559.png,1.0,-3.3711581,-7.070254,2.6156557
alexnet_w1_mlp_simclrhn_probe0,1,388,NaN,oven,oven,2-3-10,0388_eid_dnn_2-3-10_oven_10_n04111531_16696.png,n04111531_16696.png,1.0,1.8141015,-1.8155758,2.5665696
alexnet_w1_mlp_simclrhn_probe0,1,389,NaN,oven,boat,32-3-10,0389_eid_dnn_32-3-10_boat_10_n04273569_5593.png,n04273569_5593.png,0.0,-5.427709,-0.45172274,-3.5185537
alexnet_w1_mlp_simclrhn_probe0,1,390,NaN,oven,bottle,128-3-10,0390_eid_dnn_128-3-10_bottle_10_n03937543_6624.png,n03937543_6624.png,0.0,-3.0270426,0.15214796,-2.2480273
alexnet_w1_mlp_simclrhn_probe0,1,391,NaN,airplane,airplane,1-3-10,0391_eid_dnn_1-3-10_airplane_10_n02690373_12436.png,n02690373_12436.png,1.0,6.0604672,0.8526953,3.6824508
alexnet_w1_mlp_simclrhn_probe0,1,392,NaN,bird,bird,2-3-10,0392_eid_dnn_2-3-10_bird_10_n01828970_6924.png,n01828970_6924.png,1.0,0.2761109,-2.6672015,2.0812361
alexnet_w1_mlp_simclrhn_probe0,1,393,NaN,airplane,airplane,4-3-10,0393_eid_dnn_4-3-10_airplane_10_n02690373_9605.png,n02690373_9605.png,1.0,0.31386036,-4.4792004,3.389206
alexnet_w1_mlp_simclrhn_probe0,1,394,NaN,bear,truck,128-3-10,0394_eid_dnn_128-3-10_truck_10_n03796401_1335.png,n03796401_1335.png,0.0,-8.315016,-0.8422394,-5.284051
alexnet_w1_mlp_simclrhn_probe0,1,395,NaN,oven,chair,64-3-10,0395_eid_dnn_64-3-10_chair_10_n04429376_10476.png,n04429376_10476.png,0.0,-15.619118,0.88827574,-11.67249
alexnet_w1_mlp_simclrhn_probe0,1,396,NaN,bottle,bottle,1-3-10,0396_eid_dnn_1-3-10_bottle_10_n04560804_32760.png,n04560804_32760.png,1.0,0.23958294,-1.4203453,1.1737465
alexnet_w1_mlp_simclrhn_probe0,1,397,NaN,oven,airplane,32-3-10,0397_eid_dnn_32-3-10_airplane_10_n02690373_10817.png,n02690373_10817.png,0.0,-5.100498,-1.3222368,-2.6716344
alexnet_w1_mlp_simclrhn_probe0,1,398,NaN,oven,car,32-3-10,0398_eid_dnn_32-3-10_car_10_n03100240_5946.png,n03100240_5946.png,0.0,-11.009145,-0.2505955,-7.607444
alexnet_w1_mlp_simclrhn_probe0,1,399,NaN,oven,clock,64-3-10,0399_eid_dnn_64-3-10_clock_10_n02708093_2875.png,n02708093_2875.png,0.0,-13.007825,0.33999074,-9.438331
alexnet_w1_mlp_simclrhn_probe0,1,400,NaN,bear,bear,2-3-10,0400_eid_dnn_2-3-10_bear_10_n02133161_2456.png,n02133161_2456.png,1.0,1.3250521,-2.2608385,2.5356078
alexnet_w1_mlp_simclrhn_probe0,1,401,NaN,cat,bird,8-3-10,0401_eid_dnn_8-3-10_bird_10_n01855672_15317.png,n01855672_15317.png,0.0,-5.620938,-2.9000823,-1.9239354
alexnet_w1_mlp_simclrhn_probe0,1,402,NaN,dog,dog,8-3-10,0402_eid_dnn_8-3-10_dog_10_n02098286_2242.png,n02098286_2242.png,1.0,-0.7730734,-0.9287465,0.11007754
alexnet_w1_mlp_simclrhn_probe0,1,403,NaN,elephant,knife,2-3-10,0403_eid_dnn_2-3-10_knife_10_n03041632_43289.png,n03041632_43289.png,0.0,-1.419263,0.039031953,-1.0311702
alexnet_w1_mlp_simclrhn_probe0,1,404,NaN,bottle,bottle,4-3-10,0404_eid_dnn_4-3-10_bottle_10_n02823428_4387.png,n02823428_4387.png,1.0,-0.58196443,-3.0323405,1.7326776
alexnet_w1_mlp_simclrhn_probe0,1,405,NaN,oven,knife,64-3-10,0405_eid_dnn_64-3-10_knife_10_n03041632_13194.png,n03041632_13194.png,0.0,-3.9282117,1.0291387,-3.505376
alexnet_w1_mlp_simclrhn_probe0,1,406,NaN,airplane,airplane,8-3-10,0406_eid_dnn_8-3-10_airplane_10_n02690373_7465.png,n02690373_7465.png,1.0,0.22892232,-2.7393985,2.0989199
alexnet_w1_mlp_simclrhn_probe0,1,407,NaN,bear,bird,4-3-10,0407_eid_dnn_4-3-10_bird_10_n02018207_2282.png,n02018207_2282.png,0.0,-1.4154446,-0.23158392,-0.83711594
alexnet_w1_mlp_simclrhn_probe0,1,408,NaN,oven,chair,64-3-10,0408_eid_dnn_64-3-10_chair_10_n04099969_34351.png,n04099969_34351.png,0.0,-4.4919195,0.85481745,-3.780714
alexnet_w1_mlp_simclrhn_probe0,1,409,NaN,bear,bottle,64-3-10,0409_eid_dnn_64-3-10_bottle_10_n03937543_49.png,n03937543_49.png,0.0,-3.8508284,-0.31804344,-2.4980562
alexnet_w1_mlp_simclrhn_probe0,1,410,NaN,bicycle,bicycle,8-3-10,0410_eid_dnn_8-3-10_bicycle_10_n03792782_9833.png,n03792782_9833.png,1.0,-1.1062281,-2.2617497,0.8170772
alexnet_w1_mlp_simclrhn_probe0,1,411,NaN,bottle,clock,4-3-10,0411_eid_dnn_4-3-10_clock_10_n03196217_10384.png,n03196217_10384.png,0.0,-3.2883415,-2.0747278,-0.85815454
alexnet_w1_mlp_simclrhn_probe0,1,412,NaN,oven,truck,64-3-10,0412_eid_dnn_64-3-10_truck_10_n04467665_4492.png,n04467665_4492.png,0.0,-7.973447,-0.8834168,-5.0134087
alexnet_w1_mlp_simclrhn_probe0,1,413,NaN,oven,bottle,128-3-10,0413_eid_dnn_128-3-10_bottle_10_n03983396_5148.png,n03983396_5148.png,0.0,-4.082235,-0.5639907,-2.4877744
alexnet_w1_mlp_simclrhn_probe0,1,414,NaN,oven,clock,128-3-10,0414_eid_dnn_128-3-10_clock_10_n04548280_4364.png,n04548280_4364.png,0.0,-5.9792533,0.30975413,-4.4469995
alexnet_w1_mlp_simclrhn_probe0,1,415,NaN,cat,cat,1-3-10,0415_eid_dnn_1-3-10_cat_10_n02123394_6792.png,n02123394_6792.png,1.0,-1.3741592,-3.6948383,1.640968
alexnet_w1_mlp_simclrhn_probe0,1,416,NaN,bear,oven,16-3-10,0416_eid_dnn_16-3-10_oven_10_n04111531_1298.png,n04111531_1298.png,0.0,0.24882364,0.422495,-0.1228042
alexnet_w1_mlp_simclrhn_probe0,1,417,NaN,oven,clock,8-3-10,0417_eid_dnn_8-3-10_clock_10_n04548280_2334.png,n04548280_2334.png,0.0,-4.8790245,-1.0952857,-2.6755075
alexnet_w1_mlp_simclrhn_probe0,1,418,NaN,oven,car,32-3-10,0418_eid_dnn_32-3-10_car_10_n04285008_15570.png,n04285008_15570.png,0.0,-10.465018,0.940428,-8.064868
alexnet_w1_mlp_simclrhn_probe0,1,419,NaN,oven,dog,32-3-10,0419_eid_dnn_32-3-10_dog_10_n02087394_7569.png,n02087394_7569.png,0.0,-1.462624,-0.010856122,-1.0265548
alexnet_w1_mlp_simclrhn_probe0,1,420,NaN,oven,clock,32-3-10,0420_eid_dnn_32-3-10_clock_10_n03196217_11445.png,n03196217_11445.png,0.0,-9.685318,-1.4666748,-5.8114586
alexnet_w1_mlp_simclrhn_probe0,1,421,NaN,bear,chair,32-3-10,0421_eid_dnn_32-3-10_chair_10_n04099969_3095.png,n04099969_3095.png,0.0,-6.065278,0.6065823,-4.7177176
alexnet_w1_mlp_simclrhn_probe0,1,422,NaN,bear,bird,64-3-10,0422_eid_dnn_64-3-10_bird_10_n01601694_935.png,n01601694_935.png,0.0,-2.4393685,-0.42892748,-1.4215965
alexnet_w1_mlp_simclrhn_probe0,1,423,NaN,cat,bird,2-3-10,0423_eid_dnn_2-3-10_bird_10_n01592084_3570.png,n01592084_3570.png,0.0,-6.1278725,-1.3633386,-3.3690343
alexnet_w1_mlp_simclrhn_probe0,1,424,NaN,oven,dog,64-3-10,0424_eid_dnn_64-3-10_dog_10_n02090379_605.png,n02090379_605.png,0.0,-0.9138739,1.1561694,-1.4637417
alexnet_w1_mlp_simclrhn_probe0,1,425,NaN,airplane,airplane,1-3-10,0425_eid_dnn_1-3-10_airplane_10_n02690373_3912.png,n02690373_3912.png,1.0,4.6884985,-4.401627,6.42769
alexnet_w1_mlp_simclrhn_probe0,1,426,NaN,oven,oven,128-3-10,0426_eid_dnn_128-3-10_oven_10_n04111531_986.png,n04111531_986.png,1.0,-0.43585557,-1.9656472,1.0817261
alexnet_w1_mlp_simclrhn_probe0,1,427,NaN,oven,knife,32-3-10,0427_eid_dnn_32-3-10_knife_10_n03041632_23736.png,n03041632_23736.png,0.0,-4.7212586,-0.16879058,-3.2190812
alexnet_w1_mlp_simclrhn_probe0,1,428,NaN,elephant,clock,4-3-10,0428_eid_dnn_4-3-10_clock_10_n04548280_10686.png,n04548280_10686.png,0.0,-2.8916209,-1.8206306,-0.75730455
alexnet_w1_mlp_simclrhn_probe0,1,429,NaN,bear,oven,32-3-10,0429_eid_dnn_32-3-10_oven_10_n04111531_21460.png,n04111531_21460.png,0.0,-0.31767058,0.30769178,-0.442198
alexnet_w1_mlp_simclrhn_probe0,1,430,NaN,oven,bottle,32-3-10,0430_eid_dnn_32-3-10_bottle_10_n04557648_3675.png,n04557648_3675.png,0.0,-5.411685,1.7071412,-5.03377
alexnet_w1_mlp_simclrhn_probe0,1,431,NaN,oven,chair,8-3-10,0431_eid_dnn_8-3-10_chair_10_n02791124_495.png,n02791124_495.png,0.0,-7.2531705,-2.2851157,-3.5129452
alexnet_w1_mlp_simclrhn_probe0,1,432,NaN,oven,chair,128-3-10,0432_eid_dnn_128-3-10_chair_10_n04429376_9165.png,n04429376_9165.png,0.0,-9.250118,0.554083,-6.932617
alexnet_w1_mlp_simclrhn_probe0,1,433,NaN,clock,clock,1-3-10,0433_eid_dnn_1-3-10_clock_10_n04548280_2937.png,n04548280_2937.png,1.0,-2.1716027,-2.8960223,0.512242
alexnet_w1_mlp_simclrhn_probe0,1,434,NaN,bear,bear,32-3-10,0434_eid_dnn_32-3-10_bear_10_n02134418_5849.png,n02134418_5849.png,1.0,-0.7889051,-1.0679679,0.19732721
alexnet_w1_mlp_simclrhn_probe0,1,435,NaN,oven,bottle,128-3-10,0435_eid_dnn_128-3-10_bottle_10_n04560804_2521.png,n04560804_2521.png,0.0,-4.1882753,-0.43376303,-2.6548412
alexnet_w1_mlp_simclrhn_probe0,1,436,NaN,cat,car,8-3-10,0436_eid_dnn_8-3-10_car_10_n04285008_11600.png,n04285008_11600.png,0.0,-6.9285045,-3.0042908,-2.7748382
alexnet_w1_mlp_simclrhn_probe0,1,437,NaN,knife,knife,2-3-10,0437_eid_dnn_2-3-10_knife_10_n03041632_79317.png,n03041632_79317.png,1.0,0.020890653,-3.286848,2.3389246
alexnet_w1_mlp_simclrhn_probe0,1,438,NaN,bear,truck,32-3-10,0438_eid_dnn_32-3-10_truck_10_n03417042_6467.png,n03417042_6467.png,0.0,-10.089918,0.9869688,-7.832542
alexnet_w1_mlp_simclrhn_probe0,1,439,NaN,bird,airplane,64-3-10,0439_eid_dnn_64-3-10_airplane_10_n02690373_303.png,n02690373_303.png,0.0,-4.7085757,-2.0747104,-1.8624241
alexnet_w1_mlp_simclrhn_probe0,1,440,NaN,bear,chair,64-3-10,0440_eid_dnn_64-3-10_chair_10_n04099969_2354.png,n04099969_2354.png,0.0,-7.814953,0.2878946,-5.729578
alexnet_w1_mlp_simclrhn_probe0,1,441,NaN,oven,clock,128-3-10,0441_eid_dnn_128-3-10_clock_10_n04548280_377.png,n04548280_377.png,0.0,-6.7476897,-0.5071638,-4.4127183
alexnet_w1_mlp_simclrhn_probe0,1,442,NaN,bear,bicycle,32-3-10,0442_eid_dnn_32-3-10_bicycle_10_n03792782_11597.png,n03792782_11597.png,0.0,-1.9801017,-0.4023574,-1.1156337
alexnet_w1_mlp_simclrhn_probe0,1,443,NaN,bottle,bottle,2-3-10,0443_eid_dnn_2-3-10_bottle_10_n04579145_215.png,n04579145_215.png,1.0,-2.2320945,-5.7699637,2.5016513
alexnet_w1_mlp_simclrhn_probe0,1,444,NaN,car,car,4-3-10,0444_eid_dnn_4-3-10_car_10_n02814533_95669.png,n02814533_95669.png,1.0,-0.39799377,-3.1540122,1.9487994
alexnet_w1_mlp_simclrhn_probe0,1,445,NaN,oven,chair,32-3-10,0445_eid_dnn_32-3-10_chair_10_n04429376_51025.png,n04429376_51025.png,0.0,-8.104715,-0.5767799,-5.3230543
alexnet_w1_mlp_simclrhn_probe0,1,446,NaN,cat,cat,4-3-10,0446_eid_dnn_4-3-10_cat_10_n02123045_2757.png,n02123045_2757.png,1.0,0.002064387,-1.7960033,1.2714258
alexnet_w1_mlp_simclrhn_probe0,1,447,NaN,bottle,bottle,4-3-10,0447_eid_dnn_4-3-10_bottle_10_n03937543_2135.png,n03937543_2135.png,1.0,-1.285688,-1.7958405,0.36073226
alexnet_w1_mlp_simclrhn_probe0,1,448,NaN,bird,bird,2-3-10,0448_eid_dnn_2-3-10_bird_10_n01855032_7457.png,n01855032_7457.png,1.0,-2.6624317,-3.1214917,0.32460442
alexnet_w1_mlp_simclrhn_probe0,1,449,NaN,bear,car,16-3-10,0449_eid_dnn_16-3-10_car_10_n02814533_24935.png,n02814533_24935.png,0.0,-10.783214,0.09725594,-7.6936536
alexnet_w1_mlp_simclrhn_probe0,1,450,NaN,oven,keyboard,4-3-10,0450_eid_dnn_4-3-10_keyboard_10_n04505470_1371.png,n04505470_1371.png,0.0,-5.159967,-1.2474055,-2.7665987
alexnet_w1_mlp_simclrhn_probe0,1,451,NaN,bear,dog,16-3-10,0451_eid_dnn_16-3-10_dog_10_n02099267_2379.png,n02099267_2379.png,0.0,-1.3830708,1.7167354,-2.191894
alexnet_w1_mlp_simclrhn_probe0,1,452,NaN,cat,cat,8-3-10,0452_eid_dnn_8-3-10_cat_10_n02123394_8009.png,n02123394_8009.png,1.0,1.2894865,0.119393304,0.82738084
alexnet_w1_mlp_simclrhn_probe0,1,453,NaN,keyboard,keyboard,2-3-10,0453_eid_dnn_2-3-10_keyboard_10_n03085013_29042.png,n03085013_29042.png,1.0,-0.25566614,-2.9026945,1.8717318
alexnet_w1_mlp_simclrhn_probe0,1,454,NaN,oven,airplane,128-3-10,0454_eid_dnn_128-3-10_airplane_10_n02690373_2131.png,n02690373_2131.png,0.0,-11.274843,0.44682068,-8.288467
alexnet_w1_mlp_simclrhn_probe0,1,455,NaN,elephant,car,8-3-10,0455_eid_dnn_8-3-10_car_10_n03100240_327.png,n03100240_327.png,0.0,-5.8846984,-3.4677763,-1.709022
alexnet_w1_mlp_simclrhn_probe0,1,456,NaN,elephant,elephant,2-3-10,0456_eid_dnn_2-3-10_elephant_10_n02504458_4163.png,n02504458_4163.png,1.0,3.7683868,-1.0470608,3.405036
alexnet_w1_mlp_simclrhn_probe0,1,457,NaN,knife,knife,1-3-10,0457_eid_dnn_1-3-10_knife_10_n03041632_9635.png,n03041632_9635.png,1.0,-4.101842,-4.6850023,0.41235667
alexnet_w1_mlp_simclrhn_probe0,1,458,NaN,bear,airplane,16-3-10,0458_eid_dnn_16-3-10_airplane_10_n02690373_1044.png,n02690373_1044.png,0.0,-8.405767,-2.5121343,-4.167428
alexnet_w1_mlp_simclrhn_probe0,1,459,NaN,bear,bottle,16-3-10,0459_eid_dnn_16-3-10_bottle_10_n04560804_5441.png,n04560804_5441.png,0.0,-4.656791,-1.3641086,-2.3282783
alexnet_w1_mlp_simclrhn_probe0,1,460,NaN,cat,cat,8-3-10,0460_eid_dnn_8-3-10_cat_10_n02123159_988.png,n02123159_988.png,1.0,0.8671772,-0.32431722,0.84251386
alexnet_w1_mlp_simclrhn_probe0,1,461,NaN,oven,bird,64-3-10,0461_eid_dnn_64-3-10_bird_10_n01843383_4667.png,n01843383_4667.png,0.0,-6.287417,1.5436378,-5.537392
alexnet_w1_mlp_simclrhn_probe0,1,462,NaN,airplane,airplane,2-3-10,0462_eid_dnn_2-3-10_airplane_10_n02690373_6978.png,n02690373_6978.png,1.0,2.8839505,-0.9642882,2.7211158
alexnet_w1_mlp_simclrhn_probe0,1,463,NaN,oven,chair,128-3-10,0463_eid_dnn_128-3-10_chair_10_n04099969_5901.png,n04099969_5901.png,0.0,-10.100544,1.1321442,-7.94271
alexnet_w1_mlp_simclrhn_probe0,1,464,NaN,bear,truck,8-3-10,0464_eid_dnn_8-3-10_truck_10_n03417042_29849.png,n03417042_29849.png,0.0,-7.8190145,0.37765968,-5.795924
alexnet_w1_mlp_simclrhn_probe0,1,465,NaN,airplane,airplane,1-3-10,0465_eid_dnn_1-3-10_airplane_10_n02690373_427.png,n02690373_427.png,1.0,2.11437,-1.0660537,2.2488992
alexnet_w1_mlp_simclrhn_probe0,1,466,NaN,bottle,bottle,4-3-10,0466_eid_dnn_4-3-10_bottle_10_n03983396_2305.png,n03983396_2305.png,1.0,-0.2811147,-2.9351437,1.8766818
alexnet_w1_mlp_simclrhn_probe0,1,467,NaN,oven,oven,64-3-10,0467_eid_dnn_64-3-10_oven_10_n04111531_15296.png,n04111531_15296.png,1.0,0.26222992,-0.80648935,0.7556987
alexnet_w1_mlp_simclrhn_probe0,1,468,NaN,cat,cat,4-3-10,0468_eid_dnn_4-3-10_cat_10_n02123159_6728.png,n02123159_6728.png,1.0,-0.13508545,-1.9700149,1.2974911
alexnet_w1_mlp_simclrhn_probe0,1,469,NaN,elephant,elephant,4-3-10,0469_eid_dnn_4-3-10_elephant_10_n02504458_12449.png,n02504458_12449.png,1.0,2.4720287,-0.48331293,2.0897422
alexnet_w1_mlp_simclrhn_probe0,1,470,NaN,oven,elephant,128-3-10,0470_eid_dnn_128-3-10_elephant_10_n02504458_12165.png,n02504458_12165.png,0.0,-2.1818614,2.270357,-3.1481936
alexnet_w1_mlp_simclrhn_probe0,1,471,NaN,airplane,airplane,8-3-10,0471_eid_dnn_8-3-10_airplane_10_n02690373_5010.png,n02690373_5010.png,1.0,-1.0247847,-1.4578087,0.30619425
alexnet_w1_mlp_simclrhn_probe0,1,472,NaN,oven,dog,64-3-10,0472_eid_dnn_64-3-10_dog_10_n02100236_4549.png,n02100236_4549.png,0.0,-2.1672661,-0.11390793,-1.4519434
alexnet_w1_mlp_simclrhn_probe0,1,473,NaN,boat,boat,4-3-10,0473_eid_dnn_4-3-10_boat_10_n03344393_4289.png,n03344393_4289.png,1.0,0.3294316,-0.528278,0.6064923
alexnet_w1_mlp_simclrhn_probe0,1,474,NaN,oven,chair,64-3-10,0474_eid_dnn_64-3-10_chair_10_n04099969_48169.png,n04099969_48169.png,0.0,-6.0185227,0.013730317,-4.265447
alexnet_w1_mlp_simclrhn_probe0,1,475,NaN,airplane,airplane,4-3-10,0475_eid_dnn_4-3-10_airplane_10_n02690373_1996.png,n02690373_1996.png,1.0,2.6667027,-2.595606,3.7210145
alexnet_w1_mlp_simclrhn_probe0,1,476,NaN,oven,truck,128-3-10,0476_eid_dnn_128-3-10_truck_10_n03417042_28078.png,n03417042_28078.png,0.0,-9.254641,-0.5071262,-6.185427
alexnet_w1_mlp_simclrhn_probe0,1,477,NaN,cat,truck,8-3-10,0477_eid_dnn_8-3-10_truck_10_n04467665_3098.png,n04467665_3098.png,0.0,-7.017558,-3.5320044,-2.4646587
alexnet_w1_mlp_simclrhn_probe0,1,478,NaN,elephant,elephant,4-3-10,0478_eid_dnn_4-3-10_elephant_10_n02504458_847.png,n02504458_847.png,1.0,2.8510804,2.6322277,0.15475227
alexnet_w1_mlp_simclrhn_probe0,1,479,NaN,cat,bicycle,8-3-10,0479_eid_dnn_8-3-10_bicycle_10_n03792782_5880.png,n03792782_5880.png,0.0,-5.6310887,-1.0268606,-3.2556808
alexnet_w1_mlp_simclrhn_probe0,1,480,NaN,oven,bear,128-3-10,0480_eid_dnn_128-3-10_bear_10_n02132136_30976.png,n02132136_30976.png,0.0,-0.5414777,-0.5042891,-0.026296305
alexnet_w1_mlp_simclrhn_probe0,1,481,NaN,bear,chair,64-3-10,0481_eid_dnn_64-3-10_chair_10_n02791124_2057.png,n02791124_2057.png,0.0,-5.8842034,-0.5831998,-3.7483757
alexnet_w1_mlp_simclrhn_probe0,1,482,NaN,oven,keyboard,128-3-10,0482_eid_dnn_128-3-10_keyboard_10_n03085013_7286.png,n03085013_7286.png,0.0,-8.581467,0.7972775,-6.6317735
alexnet_w1_mlp_simclrhn_probe0,1,483,NaN,oven,clock,32-3-10,0483_eid_dnn_32-3-10_clock_10_n04548280_1323.png,n04548280_1323.png,0.0,-7.41988,0.27965957,-5.444397
alexnet_w1_mlp_simclrhn_probe0,1,484,NaN,oven,bottle,128-3-10,0484_eid_dnn_128-3-10_bottle_10_n03983396_18508.png,n03983396_18508.png,0.0,-3.9571297,0.4088868,-3.0872397
alexnet_w1_mlp_simclrhn_probe0,1,485,NaN,cat,bottle,8-3-10,0485_eid_dnn_8-3-10_bottle_10_n03983396_3880.png,n03983396_3880.png,0.0,-5.1479635,-1.0702778,-2.8833594
alexnet_w1_mlp_simclrhn_probe0,1,486,NaN,oven,dog,128-3-10,0486_eid_dnn_128-3-10_dog_10_n02095570_601.png,n02095570_601.png,0.0,-2.1548429,1.3943167,-2.5096347
alexnet_w1_mlp_simclrhn_probe0,1,487,NaN,bear,bird,32-3-10,0487_eid_dnn_32-3-10_bird_10_n01797886_21510.png,n01797886_21510.png,0.0,-3.8703637,-1.2549295,-1.8493912
alexnet_w1_mlp_simclrhn_probe0,1,488,NaN,keyboard,chair,1-3-10,0488_eid_dnn_1-3-10_chair_10_n04099969_9425.png,n04099969_9425.png,0.0,-0.11576426,0.022507489,-0.0977729
alexnet_w1_mlp_simclrhn_probe0,1,489,NaN,oven,keyboard,8-3-10,0489_eid_dnn_8-3-10_keyboard_10_n04505470_4228.png,n04505470_4228.png,0.0,-6.579381,-1.6123444,-3.5122254
alexnet_w1_mlp_simclrhn_probe0,1,490,NaN,oven,elephant,32-3-10,0490_eid_dnn_32-3-10_elephant_10_n02504013_7553.png,n02504013_7553.png,0.0,0.1504974,1.4518882,-0.9202222
alexnet_w1_mlp_simclrhn_probe0,1,491,NaN,oven,cat,64-3-10,0491_eid_dnn_64-3-10_cat_10_n02125311_8090.png,n02125311_8090.png,0.0,-0.7556222,1.1487232,-1.3465756
alexnet_w1_mlp_simclrhn_probe0,1,492,NaN,oven,keyboard,8-3-10,0492_eid_dnn_8-3-10_keyboard_10_n04505470_10041.png,n04505470_10041.png,0.0,-7.2020416,-2.4656034,-3.3491676
alexnet_w1_mlp_simclrhn_probe0,1,493,NaN,cat,bicycle,4-3-10,0493_eid_dnn_4-3-10_bicycle_10_n03792782_1833.png,n03792782_1833.png,0.0,-5.0137258,-4.5795674,-0.30699632
alexnet_w1_mlp_simclrhn_probe0,1,494,NaN,elephant,bottle,4-3-10,0494_eid_dnn_4-3-10_bottle_10_n04557648_11642.png,n04557648_11642.png,0.0,-4.2799945,-2.8079731,-1.0408763
alexnet_w1_mlp_simclrhn_probe0,1,495,NaN,oven,car,128-3-10,0495_eid_dnn_128-3-10_car_10_n03100240_7219.png,n03100240_7219.png,0.0,-10.531876,-0.38126227,-7.177568
alexnet_w1_mlp_simclrhn_probe0,1,496,NaN,truck,truck,1-3-10,0496_eid_dnn_1-3-10_truck_10_n03796401_9642.png,n03796401_9642.png,1.0,3.9204564,3.440808,0.33916262
alexnet_w1_mlp_simclrhn_probe0,1,497,NaN,dog,cat,1-3-10,0497_eid_dnn_1-3-10_cat_10_n02125311_13348.png,n02125311_13348.png,0.0,-4.1276116,-4.053898,-0.052123513
alexnet_w1_mlp_simclrhn_probe0,1,498,NaN,bicycle,bottle,128-3-10,0498_eid_dnn_128-3-10_bottle_10_n04560804_5540.png,n04560804_5540.png,0.0,-5.9614906,-3.1856356,-1.962826
alexnet_w1_mlp_simclrhn_probe0,1,499,NaN,bottle,bottle,4-3-10,0499_eid_dnn_4-3-10_bottle_10_n03983396_9604.png,n03983396_9604.png,1.0,-0.21482657,-5.606701,3.812631
alexnet_w1_mlp_simclrhn_probe0,1,500,NaN,oven,truck,32-3-10,0500_eid_dnn_32-3-10_truck_10_n03417042_5180.png,n03417042_5180.png,0.0,-7.7058125,0.11537579,-5.5304155
alexnet_w1_mlp_simclrhn_probe0,1,501,NaN,cat,dog,16-3-10,0501_eid_dnn_16-3-10_dog_10_n02109525_3364.png,n02109525_3364.png,0.0,-0.75712335,0.34446695,-0.778942
alexnet_w1_mlp_simclrhn_probe0,1,502,NaN,bottle,clock,2-3-10,0502_eid_dnn_2-3-10_clock_10_n04548280_353.png,n04548280_353.png,0.0,-3.7111814,-1.75253,-1.3849757
alexnet_w1_mlp_simclrhn_probe0,1,503,NaN,cat,dog,1-3-10,0503_eid_dnn_1-3-10_dog_10_n02111129_4423.png,n02111129_4423.png,0.0,-2.0294268,-1.8115281,-0.15407766
alexnet_w1_mlp_simclrhn_probe0,1,504,NaN,bear,dog,16-3-10,0504_eid_dnn_16-3-10_dog_10_n02108000_1538.png,n02108000_1538.png,0.0,-1.4832958,0.78872836,-1.6065637
alexnet_w1_mlp_simclrhn_probe0,1,505,NaN,oven,keyboard,16-3-10,0505_eid_dnn_16-3-10_keyboard_10_n03085013_3439.png,n03085013_3439.png,0.0,-8.678432,-0.051630378,-6.1000705
alexnet_w1_mlp_simclrhn_probe0,1,506,NaN,bear,truck,8-3-10,0506_eid_dnn_8-3-10_truck_10_n03417042_4016.png,n03417042_4016.png,0.0,-6.861265,-4.0684485,-1.9748197
alexnet_w1_mlp_simclrhn_probe0,1,507,NaN,oven,knife,32-3-10,0507_eid_dnn_32-3-10_knife_10_n03041632_39883.png,n03041632_39883.png,0.0,-4.9500804,0.35293764,-3.7498002
alexnet_w1_mlp_simclrhn_probe0,1,508,NaN,bear,bear,16-3-10,0508_eid_dnn_16-3-10_bear_10_n02132136_21181.png,n02132136_21181.png,1.0,1.1412826,-0.19224435,0.9429459
alexnet_w1_mlp_simclrhn_probe0,1,509,NaN,elephant,elephant,8-3-10,0509_eid_dnn_8-3-10_elephant_10_n02504013_718.png,n02504013_718.png,1.0,1.2831125,0.32772112,0.67556375
alexnet_w1_mlp_simclrhn_probe0,1,510,NaN,oven,oven,2-3-10,0510_eid_dnn_2-3-10_oven_10_n04111531_4146.png,n04111531_4146.png,1.0,3.4536655,-2.3877485,4.1305037
alexnet_w1_mlp_simclrhn_probe0,1,511,NaN,airplane,airplane,8-3-10,0511_eid_dnn_8-3-10_airplane_10_n02690373_10769.png,n02690373_10769.png,1.0,-1.3486465,-2.4355543,0.7685599
alexnet_w1_mlp_simclrhn_probe0,1,512,NaN,bear,dog,16-3-10,0512_eid_dnn_16-3-10_dog_10_n02109525_4516.png,n02109525_4516.png,0.0,0.31205904,0.6416335,-0.23304434
alexnet_w1_mlp_simclrhn_probe0,1,513,NaN,cat,boat,4-3-10,0513_eid_dnn_4-3-10_boat_10_n02951358_12333.png,n02951358_12333.png,0.0,-3.6599708,-2.0734642,-1.1218296
alexnet_w1_mlp_simclrhn_probe0,1,514,NaN,cat,chair,8-3-10,0514_eid_dnn_8-3-10_chair_10_n04099969_20421.png,n04099969_20421.png,0.0,-12.635574,-1.1377531,-8.130187
alexnet_w1_mlp_simclrhn_probe0,1,515,NaN,knife,knife,4-3-10,0515_eid_dnn_4-3-10_knife_10_n03041632_21165.png,n03041632_21165.png,1.0,-3.6154454,-3.7224035,0.075630836
alexnet_w1_mlp_simclrhn_probe0,1,516,NaN,bicycle,bicycle,1-3-10,0516_eid_dnn_1-3-10_bicycle_10_n02835271_21439.png,n02835271_21439.png,1.0,-2.4563918,-5.7233787,2.3101087
alexnet_w1_mlp_simclrhn_probe0,1,517,NaN,airplane,boat,1-3-10,0517_eid_dnn_1-3-10_boat_10_n04273569_24526.png,n04273569_24526.png,0.0,-0.72862506,-0.5849142,-0.101618916
alexnet_w1_mlp_simclrhn_probe0,1,518,NaN,bear,bottle,32-3-10,0518_eid_dnn_32-3-10_bottle_10_n04579145_2276.png,n04579145_2276.png,0.0,-6.963178,-0.105220705,-4.849308
alexnet_w1_mlp_simclrhn_probe0,1,519,NaN,bear,bear,8-3-10,0519_eid_dnn_8-3-10_bear_10_n02134418_1642.png,n02134418_1642.png,1.0,-0.34563556,-2.465717,1.4991239
alexnet_w1_mlp_simclrhn_probe0,1,520,NaN,bicycle,bicycle,1-3-10,0520_eid_dnn_1-3-10_bicycle_10_n02835271_15468.png,n02835271_15468.png,1.0,1.8930033,-5.8103113,5.4470663
alexnet_w1_mlp_simclrhn_probe0,1,521,NaN,bird,keyboard,64-3-10,0521_eid_dnn_64-3-10_keyboard_10_n03085013_26532.png,n03085013_26532.png,0.0,-4.6784678,-1.4724096,-2.2670255
alexnet_w1_mlp_simclrhn_probe0,1,522,NaN,bear,clock,64-3-10,0522_eid_dnn_64-3-10_clock_10_n03196217_6809.png,n03196217_6809.png,0.0,-7.944381,-0.09268069,-5.551991
alexnet_w1_mlp_simclrhn_probe0,1,523,NaN,oven,bear,64-3-10,0523_eid_dnn_64-3-10_bear_10_n02134418_4384.png,n02134418_4384.png,0.0,0.38759756,1.338722,-0.67254657
alexnet_w1_mlp_simclrhn_probe0,1,524,NaN,dog,dog,4-3-10,0524_eid_dnn_4-3-10_dog_10_n02086240_1183.png,n02086240_1183.png,1.0,0.40447974,-0.72715425,0.8001861
alexnet_w1_mlp_simclrhn_probe0,1,525,NaN,chair,chair,1-3-10,0525_eid_dnn_1-3-10_chair_10_n04429376_294.png,n04429376_294.png,1.0,-3.614788,-3.903679,0.20427668
alexnet_w1_mlp_simclrhn_probe0,1,526,NaN,oven,clock,64-3-10,0526_eid_dnn_64-3-10_clock_10_n02708093_4893.png,n02708093_4893.png,0.0,-6.534475,0.48373824,-4.9626265
alexnet_w1_mlp_simclrhn_probe0,1,527,NaN,oven,keyboard,64-3-10,0527_eid_dnn_64-3-10_keyboard_10_n03085013_3098.png,n03085013_3098.png,0.0,-9.307522,-0.47285235,-6.2470546
alexnet_w1_mlp_simclrhn_probe0,1,528,NaN,bear,cat,16-3-10,0528_eid_dnn_16-3-10_cat_10_n02125311_22073.png,n02125311_22073.png,0.0,-2.0640566,0.16318369,-1.5748968
alexnet_w1_mlp_simclrhn_probe0,1,529,NaN,elephant,bird,2-3-10,0529_eid_dnn_2-3-10_bird_10_n01558993_869.png,n01558993_869.png,0.0,-4.088338,-2.7577505,-0.94086736
alexnet_w1_mlp_simclrhn_probe0,1,530,NaN,bird,bird,1-3-10,0530_eid_dnn_1-3-10_bird_10_n01817953_8025.png,n01817953_8025.png,1.0,-4.705135,-4.8561273,0.106767744
alexnet_w1_mlp_simclrhn_probe0,1,531,NaN,oven,chair,2-3-10,0531_eid_dnn_2-3-10_chair_10_n04099969_24235.png,n04099969_24235.png,0.0,-4.648744,-0.3516692,-3.0384908
alexnet_w1_mlp_simclrhn_probe0,1,532,NaN,oven,knife,128-3-10,0532_eid_dnn_128-3-10_knife_10_n03041632_1201.png,n03041632_1201.png,0.0,-3.393354,0.7434727,-2.925178
alexnet_w1_mlp_simclrhn_probe0,1,533,NaN,bear,bicycle,4-3-10,0533_eid_dnn_4-3-10_bicycle_10_n03792782_16212.png,n03792782_16212.png,0.0,-8.89167,-2.8234112,-4.2909074
alexnet_w1_mlp_simclrhn_probe0,1,534,NaN,oven,oven,4-3-10,0534_eid_dnn_4-3-10_oven_10_n04111531_11655.png,n04111531_11655.png,1.0,-1.046574,-2.2996912,0.8860877
alexnet_w1_mlp_simclrhn_probe0,1,535,NaN,bear,bicycle,16-3-10,0535_eid_dnn_16-3-10_bicycle_10_n02835271_5152.png,n02835271_5152.png,0.0,-5.7407856,0.17053795,-4.179937
alexnet_w1_mlp_simclrhn_probe0,1,536,NaN,bear,bear,16-3-10,0536_eid_dnn_16-3-10_bear_10_n02132136_19290.png,n02132136_19290.png,1.0,-0.016167998,-0.32754698,0.2201782
alexnet_w1_mlp_simclrhn_probe0,1,537,NaN,oven,car,32-3-10,0537_eid_dnn_32-3-10_car_10_n03100240_6103.png,n03100240_6103.png,0.0,-7.553613,-0.39489126,-5.0619807
alexnet_w1_mlp_simclrhn_probe0,1,538,NaN,bird,airplane,16-3-10,0538_eid_dnn_16-3-10_airplane_10_n02690373_5714.png,n02690373_5714.png,0.0,-4.889979,-2.290788,-1.8379055
alexnet_w1_mlp_simclrhn_probe0,1,539,NaN,clock,chair,1-3-10,0539_eid_dnn_1-3-10_chair_10_n04429376_2915.png,n04429376_2915.png,0.0,-4.8691936,-4.0000806,-0.61455566
alexnet_w1_mlp_simclrhn_probe0,1,540,NaN,cat,clock,64-3-10,0540_eid_dnn_64-3-10_clock_10_n02708093_7827.png,n02708093_7827.png,0.0,-6.758593,-1.6310271,-3.6257367
alexnet_w1_mlp_simclrhn_probe0,1,541,NaN,truck,truck,2-3-10,0541_eid_dnn_2-3-10_truck_10_n03417042_6247.png,n03417042_6247.png,1.0,0.3181361,-1.3503803,1.1798192
alexnet_w1_mlp_simclrhn_probe0,1,542,NaN,oven,elephant,32-3-10,0542_eid_dnn_32-3-10_elephant_10_n02504013_947.png,n02504013_947.png,0.0,-1.1208417,0.26717663,-0.9814772
alexnet_w1_mlp_simclrhn_probe0,1,543,NaN,truck,truck,1-3-10,0543_eid_dnn_1-3-10_truck_10_n03417042_2074.png,n03417042_2074.png,1.0,0.8808212,-0.5423885,1.0063612
alexnet_w1_mlp_simclrhn_probe0,1,544,NaN,airplane,airplane,8-3-10,0544_eid_dnn_8-3-10_airplane_10_n02690373_5221.png,n02690373_5221.png,1.0,-1.2873112,-3.777747,1.761004
alexnet_w1_mlp_simclrhn_probe0,1,545,NaN,oven,oven,4-3-10,0545_eid_dnn_4-3-10_oven_10_n04111531_6629.png,n04111531_6629.png,1.0,-2.6203156,-3.1962533,0.40724948
alexnet_w1_mlp_simclrhn_probe0,1,546,NaN,knife,knife,1-3-10,0546_eid_dnn_1-3-10_knife_10_n03041632_36277.png,n03041632_36277.png,1.0,-1.0416175,-5.997312,3.5042055
alexnet_w1_mlp_simclrhn_probe0,1,547,NaN,oven,cat,64-3-10,0547_eid_dnn_64-3-10_cat_10_n02123597_4700.png,n02123597_4700.png,0.0,-1.5493635,0.64345604,-1.5505576
alexnet_w1_mlp_simclrhn_probe0,1,548,NaN,bird,airplane,16-3-10,0548_eid_dnn_16-3-10_airplane_10_n02690373_20042.png,n02690373_20042.png,0.0,-4.7273216,-2.9873831,-1.2303224
alexnet_w1_mlp_simclrhn_probe0,1,549,NaN,oven,chair,32-3-10,0549_eid_dnn_32-3-10_chair_10_n02791124_15539.png,n02791124_15539.png,0.0,-8.987448,-0.3523571,-6.1059313
alexnet_w1_mlp_simclrhn_probe0,1,550,NaN,cat,cat,1-3-10,0550_eid_dnn_1-3-10_cat_10_n02123394_5700.png,n02123394_5700.png,1.0,-0.34787908,-1.1815194,0.5894728
alexnet_w1_mlp_simclrhn_probe0,1,551,NaN,car,car,4-3-10,0551_eid_dnn_4-3-10_car_10_n04285008_13595.png,n04285008_13595.png,1.0,-0.91724056,-3.4511335,1.7917329
alexnet_w1_mlp_simclrhn_probe0,1,552,NaN,oven,chair,8-3-10,0552_eid_dnn_8-3-10_chair_10_n02791124_2282.png,n02791124_2282.png,0.0,-9.295948,-2.0152576,-5.1482253
alexnet_w1_mlp_simclrhn_probe0,1,553,NaN,bear,dog,2-3-10,0553_eid_dnn_2-3-10_dog_10_n02100877_3973.png,n02100877_3973.png,0.0,-0.7979096,-0.19283503,-0.42785236
alexnet_w1_mlp_simclrhn_probe0,1,554,NaN,oven,truck,64-3-10,0554_eid_dnn_64-3-10_truck_10_n03417042_12297.png,n03417042_12297.png,0.0,-8.712864,0.78369796,-6.7150836
alexnet_w1_mlp_simclrhn_probe0,1,555,NaN,bear,elephant,8-3-10,0555_eid_dnn_8-3-10_elephant_10_n02504013_6303.png,n02504013_6303.png,0.0,-3.8414166,-3.0321136,-0.57226366
alexnet_w1_mlp_simclrhn_probe0,1,556,NaN,cat,car,8-3-10,0556_eid_dnn_8-3-10_car_10_n02814533_43990.png,n02814533_43990.png,0.0,-7.310225,-2.5858498,-3.340638
alexnet_w1_mlp_simclrhn_probe0,1,557,NaN,bear,truck,16-3-10,0557_eid_dnn_16-3-10_truck_10_n04467665_58456.png,n04467665_58456.png,0.0,-11.02105,-0.044246554,-7.7617726
alexnet_w1_mlp_simclrhn_probe0,1,558,NaN,cat,dog,4-3-10,0558_eid_dnn_4-3-10_dog_10_n02098105_526.png,n02098105_526.png,0.0,-2.4287317,-1.9248701,-0.35628393
alexnet_w1_mlp_simclrhn_probe0,1,559,NaN,bird,bird,2-3-10,0559_eid_dnn_2-3-10_bird_10_n02037110_27907.png,n02037110_27907.png,1.0,-0.66835636,-2.947722,1.6117549
alexnet_w1_mlp_simclrhn_probe0,1,560,NaN,oven,keyboard,64-3-10,0560_eid_dnn_64-3-10_keyboard_10_n03085013_20849.png,n03085013_20849.png,0.0,-7.700485,0.15421313,-5.5541105
alexnet_w1_mlp_simclrhn_probe0,1,561,NaN,chair,chair,1-3-10,0561_eid_dnn_1-3-10_chair_10_n03376595_12524.png,n03376595_12524.png,1.0,-0.16378379,-4.763251,3.2523146
alexnet_w1_mlp_simclrhn_probe0,1,562,NaN,oven,bird,64-3-10,0562_eid_dnn_64-3-10_bird_10_n02056570_27055.png,n02056570_27055.png,0.0,-4.724131,0.83055776,-3.9277582
alexnet_w1_mlp_simclrhn_probe0,1,563,NaN,oven,truck,64-3-10,0563_eid_dnn_64-3-10_truck_10_n03417042_4934.png,n03417042_4934.png,0.0,-7.8796215,0.59883463,-5.9951744
alexnet_w1_mlp_simclrhn_probe0,1,564,NaN,elephant,knife,16-3-10,0564_eid_dnn_16-3-10_knife_10_n03041632_3210.png,n03041632_3210.png,0.0,-2.7498085,-1.22793,-1.0761307
alexnet_w1_mlp_simclrhn_probe0,1,565,NaN,cat,dog,8-3-10,0565_eid_dnn_8-3-10_dog_10_n02096585_2118.png,n02096585_2118.png,0.0,-2.334823,-1.3224567,-0.715851
alexnet_w1_mlp_simclrhn_probe0,1,566,NaN,keyboard,keyboard,1-3-10,0566_eid_dnn_1-3-10_keyboard_10_n03085013_3539.png,n03085013_3539.png,1.0,2.7114105,-1.0491307,2.6591043
alexnet_w1_mlp_simclrhn_probe0,1,567,NaN,truck,truck,4-3-10,0567_eid_dnn_4-3-10_truck_10_n03417042_17215.png,n03417042_17215.png,1.0,-3.7634847,-3.9638624,0.14168844
alexnet_w1_mlp_simclrhn_probe0,1,568,NaN,bear,cat,8-3-10,0568_eid_dnn_8-3-10_cat_10_n02123045_12657.png,n02123045_12657.png,0.0,-1.972427,-0.5236084,-1.0244695
alexnet_w1_mlp_simclrhn_probe0,1,569,NaN,oven,knife,64-3-10,0569_eid_dnn_64-3-10_knife_10_n03041632_20576.png,n03041632_20576.png,0.0,-2.8538866,-0.94307446,-1.3511482
alexnet_w1_mlp_simclrhn_probe0,1,570,NaN,elephant,truck,8-3-10,0570_eid_dnn_8-3-10_truck_10_n04467665_23905.png,n04467665_23905.png,0.0,-6.4696465,-3.4339151,-2.1465862
alexnet_w1_mlp_simclrhn_probe0,1,571,NaN,oven,oven,128-3-10,0571_eid_dnn_128-3-10_oven_10_n04111531_9427.png,n04111531_9427.png,1.0,0.6048624,-1.5040866,1.4912522
alexnet_w1_mlp_simclrhn_probe0,1,572,NaN,bear,oven,16-3-10,0572_eid_dnn_16-3-10_oven_10_n04111531_14329.png,n04111531_14329.png,0.0,-2.421345,-1.9717062,-0.31794268
alexnet_w1_mlp_simclrhn_probe0,1,573,NaN,bear,bird,64-3-10,0573_eid_dnn_64-3-10_bird_10_n01614925_19422.png,n01614925_19422.png,0.0,-4.1811023,0.47987336,-3.2958074
alexnet_w1_mlp_simclrhn_probe0,1,574,NaN,oven,bottle,128-3-10,0574_eid_dnn_128-3-10_bottle_10_n02823428_1154.png,n02823428_1154.png,0.0,-6.6919417,-0.7445406,-4.2054477
alexnet_w1_mlp_simclrhn_probe0,1,575,NaN,bear,dog,4-3-10,0575_eid_dnn_4-3-10_dog_10_n02093859_4797.png,n02093859_4797.png,0.0,-1.1901454,-0.15714486,-0.73044163
alexnet_w1_mlp_simclrhn_probe0,1,576,NaN,airplane,airplane,1-3-10,0576_eid_dnn_1-3-10_airplane_10_n02690373_2632.png,n02690373_2632.png,1.0,5.400214,-0.5226514,4.1880984
alexnet_w1_mlp_simclrhn_probe0,1,577,NaN,bear,keyboard,32-3-10,0577_eid_dnn_32-3-10_keyboard_10_n03085013_15825.png,n03085013_15825.png,0.0,-8.9461565,0.37735298,-6.5927167
alexnet_w1_mlp_simclrhn_probe0,1,578,NaN,car,car,4-3-10,0578_eid_dnn_4-3-10_car_10_n02814533_52674.png,n02814533_52674.png,1.0,0.22555906,-2.7062833,2.0731256
alexnet_w1_mlp_simclrhn_probe0,1,579,NaN,oven,truck,32-3-10,0579_eid_dnn_32-3-10_truck_10_n04467665_32937.png,n04467665_32937.png,0.0,-5.9245005,-1.3935263,-3.2038827
alexnet_w1_mlp_simclrhn_probe0,1,580,NaN,oven,bird,4-3-10,0580_eid_dnn_4-3-10_bird_10_n01537544_20.png,n01537544_20.png,0.0,-4.547196,-3.8967612,-0.4599268
alexnet_w1_mlp_simclrhn_probe0,1,581,NaN,cat,clock,8-3-10,0581_eid_dnn_8-3-10_clock_10_n03196217_564.png,n03196217_564.png,0.0,-4.3330836,-2.2232397,-1.491885
alexnet_w1_mlp_simclrhn_probe0,1,582,NaN,oven,knife,1-3-10,0582_eid_dnn_1-3-10_knife_10_n03041632_76163.png,n03041632_76163.png,0.0,-3.3587952,-0.48646995,-2.0310407
alexnet_w1_mlp_simclrhn_probe0,1,583,NaN,oven,airplane,32-3-10,0583_eid_dnn_32-3-10_airplane_10_n02690373_8559.png,n02690373_8559.png,0.0,-8.756667,-2.030273,-4.756279
alexnet_w1_mlp_simclrhn_probe0,1,584,NaN,keyboard,keyboard,2-3-10,0584_eid_dnn_2-3-10_keyboard_10_n04505470_3941.png,n04505470_3941.png,1.0,10.505657,3.43481,4.999844
alexnet_w1_mlp_simclrhn_probe0,1,585,NaN,oven,oven,64-3-10,0585_eid_dnn_64-3-10_oven_10_n04111531_9910.png,n04111531_9910.png,1.0,0.65448934,0.03358242,0.43904752
alexnet_w1_mlp_simclrhn_probe0,1,586,NaN,oven,bottle,128-3-10,0586_eid_dnn_128-3-10_bottle_10_n03937543_7191.png,n03937543_7191.png,0.0,-4.4389963,1.2305338,-4.008963
alexnet_w1_mlp_simclrhn_probe0,1,587,NaN,boat,boat,4-3-10,0587_eid_dnn_4-3-10_boat_10_n03662601_14818.png,n03662601_14818.png,1.0,-0.7215542,-2.77779,1.4539783
alexnet_w1_mlp_simclrhn_probe0,1,588,NaN,bear,boat,128-3-10,0588_eid_dnn_128-3-10_boat_10_n02951358_588.png,n02951358_588.png,0.0,-6.9037275,0.73367155,-5.400457
alexnet_w1_mlp_simclrhn_probe0,1,589,NaN,bear,bear,1-3-10,0589_eid_dnn_1-3-10_bear_10_n02133161_2851.png,n02133161_2851.png,1.0,2.4338162,1.7098349,0.5119321
alexnet_w1_mlp_simclrhn_probe0,1,590,NaN,bottle,chair,2-3-10,0590_eid_dnn_2-3-10_chair_10_n03376595_16212.png,n03376595_16212.png,0.0,-2.593323,-0.45813555,-1.5098056
alexnet_w1_mlp_simclrhn_probe0,1,591,NaN,cat,boat,8-3-10,0591_eid_dnn_8-3-10_boat_10_n04612504_1613.png,n04612504_1613.png,0.0,-5.559951,-2.7187202,-2.0090535
alexnet_w1_mlp_simclrhn_probe0,1,592,NaN,bird,chair,128-3-10,0592_eid_dnn_128-3-10_chair_10_n02791124_3198.png,n02791124_3198.png,0.0,-5.8686028,-1.0986413,-3.372872
alexnet_w1_mlp_simclrhn_probe0,1,593,NaN,cat,knife,16-3-10,0593_eid_dnn_16-3-10_knife_10_n03041632_32785.png,n03041632_32785.png,0.0,-2.6079085,-0.76226586,-1.3050663
alexnet_w1_mlp_simclrhn_probe0,1,594,NaN,oven,oven,32-3-10,0594_eid_dnn_32-3-10_oven_10_n04111531_22797.png,n04111531_22797.png,1.0,1.0644994,0.26899302,0.5625079
alexnet_w1_mlp_simclrhn_probe0,1,595,NaN,oven,oven,128-3-10,0595_eid_dnn_128-3-10_oven_10_n04111531_5077.png,n04111531_5077.png,1.0,-0.63701963,-1.6262596,0.6994983
alexnet_w1_mlp_simclrhn_probe0,1,596,NaN,bear,bear,1-3-10,0596_eid_dnn_1-3-10_bear_10_n02134418_2569.png,n02134418_2569.png,1.0,1.2068949,-0.27439225,1.0474281
alexnet_w1_mlp_simclrhn_probe0,1,597,NaN,car,car,1-3-10,0597_eid_dnn_1-3-10_car_10_n03100240_15284.png,n03100240_15284.png,1.0,1.5999132,-0.21562257,1.2837777
alexnet_w1_mlp_simclrhn_probe0,1,598,NaN,keyboard,keyboard,2-3-10,0598_eid_dnn_2-3-10_keyboard_10_n04505470_4791.png,n04505470_4791.png,1.0,1.1195213,-0.5423977,1.1751541
alexnet_w1_mlp_simclrhn_probe0,1,599,NaN,oven,bicycle,64-3-10,0599_eid_dnn_64-3-10_bicycle_10_n03792782_551.png,n03792782_551.png,0.0,-4.780753,0.16920158,-3.5001464
alexnet_w1_mlp_simclrhn_probe0,1,600,NaN,cat,bottle,1-3-10,0600_eid_dnn_1-3-10_bottle_10_n03937543_2999.png,n03937543_2999.png,0.0,-4.3606653,-3.863633,-0.351455
alexnet_w1_mlp_simclrhn_probe0,1,601,NaN,bear,airplane,16-3-10,0601_eid_dnn_16-3-10_airplane_10_n02690373_7279.png,n02690373_7279.png,0.0,-3.575659,-0.91509014,-1.8813064
alexnet_w1_mlp_simclrhn_probe0,1,602,NaN,oven,airplane,128-3-10,0602_eid_dnn_128-3-10_airplane_10_n02690373_9312.png,n02690373_9312.png,0.0,-11.252843,-0.39421993,-7.678206
alexnet_w1_mlp_simclrhn_probe0,1,603,NaN,oven,chair,8-3-10,0603_eid_dnn_8-3-10_chair_10_n04429376_2591.png,n04429376_2591.png,0.0,-9.139591,-0.08129734,-6.4051814
