subj,session,trial,rt,object_response,category,condition,imagename,filename,is_correct,targ_act,max_nontarg_act,decision_margin
alexnet_w1_mlp_simclrhn_probe3,1,1,NaN,oven,car,64-3-10,0001_eid_dnn_64-3-10_car_10_n04285008_8113.png,n04285008_8113.png,0.0,-0.40527818,0.92756927,-0.9424655
alexnet_w1_mlp_simclrhn_probe3,1,2,NaN,elephant,oven,8-3-10,0002_eid_dnn_8-3-10_oven_10_n04111531_11848.png,n04111531_11848.png,0.0,1.3451115,1.6142476,-0.19030795
alexnet_w1_mlp_simclrhn_probe3,1,3,NaN,oven,truck,8-3-10,0003_eid_dnn_8-3-10_truck_10_n03417042_25458.png,n03417042_25458.png,0.0,-0.5181776,0.7962564,-0.92944527
alexnet_w1_mlp_simclrhn_probe3,1,4,NaN,bear,chair,16-3-10,0004_eid_dnn_16-3-10_chair_10_n03376595_6208.png,n03376595_6208.png,0.0,-0.23027588,0.7411502,-0.686902
alexnet_w1_mlp_simclrhn_probe3,1,5,NaN,oven,cat,32-3-10,0005_eid_dnn_32-3-10_cat_10_n02123045_12084.png,n02123045_12084.png,0.0,0.20174962,0.7273711,-0.3716705
alexnet_w1_mlp_simclrhn_probe3,1,6,NaN,keyboard,keyboard,8-3-10,0006_eid_dnn_8-3-10_keyboard_10_n03085013_20884.png,n03085013_20884.png,1.0,0.95471525,0.6951558,0.18353625
alexnet_w1_mlp_simclrhn_probe3,1,7,NaN,airplane,airplane,4-3-10,0007_eid_dnn_4-3-10_airplane_10_n02690373_5992.png,n02690373_5992.png,1.0,3.3595564,2.6361203,0.5115466
alexnet_w1_mlp_simclrhn_probe3,1,8,NaN,bear,bear,32-3-10,0008_eid_dnn_32-3-10_bear_10_n02132136_6641.png,n02132136_6641.png,1.0,0.7998252,0.6202275,0.12699474
alexnet_w1_mlp_simclrhn_probe3,1,9,NaN,oven,oven,2-3-10,0009_eid_dnn_2-3-10_oven_10_n04111531_2797.png,n04111531_2797.png,1.0,1.3512393,0.20825669,0.8082108
alexnet_w1_mlp_simclrhn_probe3,1,10,NaN,airplane,airplane,2-3-10,0010_eid_dnn_2-3-10_airplane_10_n02690373_7457.png,n02690373_7457.png,1.0,6.83558,2.9491029,2.7481544
alexnet_w1_mlp_simclrhn_probe3,1,11,NaN,bear,truck,16-3-10,0011_eid_dnn_16-3-10_truck_10_n03796401_2751.png,n03796401_2751.png,0.0,-0.33919215,0.9393872,-0.90409213
alexnet_w1_mlp_simclrhn_probe3,1,12,NaN,elephant,bear,2-3-10,0012_eid_dnn_2-3-10_bear_10_n02134418_860.png,n02134418_860.png,0.0,2.1906073,2.445111,-0.17996131
alexnet_w1_mlp_simclrhn_probe3,1,13,NaN,knife,knife,4-3-10,0013_eid_dnn_4-3-10_knife_10_n03041632_2058.png,n03041632_2058.png,1.0,1.3617435,1.1207085,0.17043747
alexnet_w1_mlp_simclrhn_probe3,1,14,NaN,oven,airplane,32-3-10,0014_eid_dnn_32-3-10_airplane_10_n02690373_10510.png,n02690373_10510.png,0.0,0.29860198,0.94742215,-0.45878515
alexnet_w1_mlp_simclrhn_probe3,1,15,NaN,bear,keyboard,64-3-10,0015_eid_dnn_64-3-10_keyboard_10_n03085013_6313.png,n03085013_6313.png,0.0,-0.033593692,1.0051291,-0.7344879
alexnet_w1_mlp_simclrhn_probe3,1,16,NaN,airplane,bicycle,4-3-10,0016_eid_dnn_4-3-10_bicycle_10_n02835271_6278.png,n02835271_6278.png,0.0,-0.27589804,1.5439918,-1.2868564
alexnet_w1_mlp_simclrhn_probe3,1,17,NaN,keyboard,keyboard,2-3-10,0017_eid_dnn_2-3-10_keyboard_10_n03085013_24192.png,n03085013_24192.png,1.0,5.8069005,1.2045517,3.254352
alexnet_w1_mlp_simclrhn_probe3,1,18,NaN,car,car,2-3-10,0018_eid_dnn_2-3-10_car_10_n04285008_8255.png,n04285008_8255.png,1.0,5.043505,4.087225,0.6761922
alexnet_w1_mlp_simclrhn_probe3,1,19,NaN,airplane,airplane,2-3-10,0019_eid_dnn_2-3-10_airplane_10_n02690373_4591.png,n02690373_4591.png,1.0,2.2444239,0.7333706,1.0684761
alexnet_w1_mlp_simclrhn_probe3,1,20,NaN,airplane,airplane,4-3-10,0020_eid_dnn_4-3-10_airplane_10_n02690373_7075.png,n02690373_7075.png,1.0,1.5984397,1.5320204,0.0469655
alexnet_w1_mlp_simclrhn_probe3,1,21,NaN,bicycle,bicycle,4-3-10,0021_eid_dnn_4-3-10_bicycle_10_n02835271_21464.png,n02835271_21464.png,1.0,0.49961278,0.4391636,0.04274403
alexnet_w1_mlp_simclrhn_probe3,1,22,NaN,oven,car,64-3-10,0022_eid_dnn_64-3-10_car_10_n03100240_362.png,n03100240_362.png,0.0,-0.36167455,1.2884812,-1.1668364
alexnet_w1_mlp_simclrhn_probe3,1,23,NaN,bear,truck,32-3-10,0023_eid_dnn_32-3-10_truck_10_n04467665_50927.png,n04467665_50927.png,0.0,-0.3501106,0.7597389,-0.7847821
alexnet_w1_mlp_simclrhn_probe3,1,24,NaN,oven,car,16-3-10,0024_eid_dnn_16-3-10_car_10_n04285008_3651.png,n04285008_3651.png,0.0,-0.3521823,1.321195,-1.1832564
alexnet_w1_mlp_simclrhn_probe3,1,25,NaN,bottle,bottle,8-3-10,0025_eid_dnn_8-3-10_bottle_10_n04557648_4974.png,n04557648_4974.png,1.0,1.1412008,0.7865815,0.2507537
alexnet_w1_mlp_simclrhn_probe3,1,26,NaN,oven,bird,16-3-10,0026_eid_dnn_16-3-10_bird_10_n01537544_23499.png,n01537544_23499.png,0.0,0.0060262564,0.45644525,-0.31849432
alexnet_w1_mlp_simclrhn_probe3,1,27,NaN,boat,boat,1-3-10,0027_eid_dnn_1-3-10_boat_10_n04612504_11387.png,n04612504_11387.png,1.0,3.4300094,1.4571137,1.3950479
alexnet_w1_mlp_simclrhn_probe3,1,28,NaN,bottle,bottle,4-3-10,0028_eid_dnn_4-3-10_bottle_10_n03983396_4300.png,n03983396_4300.png,1.0,1.6935686,1.0317966,0.4679435
alexnet_w1_mlp_simclrhn_probe3,1,29,NaN,oven,bottle,64-3-10,0029_eid_dnn_64-3-10_bottle_10_n04591713_6961.png,n04591713_6961.png,0.0,0.088263325,0.61517537,-0.3725831
alexnet_w1_mlp_simclrhn_probe3,1,30,NaN,keyboard,clock,128-3-10,0030_eid_dnn_128-3-10_clock_10_n02708093_3361.png,n02708093_3361.png,0.0,0.065147765,0.7715767,-0.49952072
alexnet_w1_mlp_simclrhn_probe3,1,31,NaN,oven,truck,32-3-10,0031_eid_dnn_32-3-10_truck_10_n03417042_18374.png,n03417042_18374.png,0.0,-0.30308193,1.1995673,-1.0625335
alexnet_w1_mlp_simclrhn_probe3,1,32,NaN,oven,knife,64-3-10,0032_eid_dnn_64-3-10_knife_10_n03041632_36280.png,n03041632_36280.png,0.0,0.004623018,0.5837586,-0.4095107
alexnet_w1_mlp_simclrhn_probe3,1,33,NaN,cat,bird,8-3-10,0033_eid_dnn_8-3-10_bird_10_n01614925_47.png,n01614925_47.png,0.0,0.20290704,1.2574722,-0.7456901
alexnet_w1_mlp_simclrhn_probe3,1,34,NaN,oven,bicycle,8-3-10,0034_eid_dnn_8-3-10_bicycle_10_n02835271_20099.png,n02835271_20099.png,0.0,0.14470582,0.85730267,-0.50388205
alexnet_w1_mlp_simclrhn_probe3,1,35,NaN,bear,bear,4-3-10,0035_eid_dnn_4-3-10_bear_10_n02134084_12070.png,n02134084_12070.png,1.0,0.9167053,0.85189706,0.045826353
alexnet_w1_mlp_simclrhn_probe3,1,36,NaN,oven,bottle,8-3-10,0036_eid_dnn_8-3-10_bottle_10_n02823428_8525.png,n02823428_8525.png,0.0,0.25438136,1.2778187,-0.7236794
alexnet_w1_mlp_simclrhn_probe3,1,37,NaN,oven,truck,32-3-10,0037_eid_dnn_32-3-10_truck_10_n04467665_37953.png,n04467665_37953.png,0.0,-0.2491479,1.3817735,-1.1532356
alexnet_w1_mlp_simclrhn_probe3,1,38,NaN,oven,oven,128-3-10,0038_eid_dnn_128-3-10_oven_10_n04111531_4868.png,n04111531_4868.png,1.0,0.33086926,0.07681801,0.17964135
alexnet_w1_mlp_simclrhn_probe3,1,39,NaN,oven,boat,32-3-10,0039_eid_dnn_32-3-10_boat_10_n03662601_19840.png,n03662601_19840.png,0.0,0.16722009,0.6119456,-0.31446844
alexnet_w1_mlp_simclrhn_probe3,1,40,NaN,oven,truck,8-3-10,0040_eid_dnn_8-3-10_truck_10_n04467665_9331.png,n04467665_9331.png,0.0,-0.17471002,1.1700894,-0.95091677
alexnet_w1_mlp_simclrhn_probe3,1,41,NaN,oven,dog,64-3-10,0041_eid_dnn_64-3-10_dog_10_n02111277_16090.png,n02111277_16090.png,0.0,-0.03536973,0.8572966,-0.63121045
alexnet_w1_mlp_simclrhn_probe3,1,42,NaN,oven,bottle,4-3-10,0042_eid_dnn_4-3-10_bottle_10_n02823428_6731.png,n02823428_6731.png,0.0,1.6228701,2.444769,-0.58117026
alexnet_w1_mlp_simclrhn_probe3,1,43,NaN,bear,elephant,8-3-10,0043_eid_dnn_8-3-10_elephant_10_n02504013_8930.png,n02504013_8930.png,0.0,1.9745873,2.125862,-0.10696727
alexnet_w1_mlp_simclrhn_probe3,1,44,NaN,car,car,4-3-10,0044_eid_dnn_4-3-10_car_10_n03100240_13673.png,n03100240_13673.png,1.0,1.3402195,0.68633723,0.46236458
alexnet_w1_mlp_simclrhn_probe3,1,45,NaN,dog,bird,128-3-10,0045_eid_dnn_128-3-10_bird_10_n02018207_6819.png,n02018207_6819.png,0.0,-0.19747688,0.08678917,-0.20100646
alexnet_w1_mlp_simclrhn_probe3,1,46,NaN,elephant,elephant,4-3-10,0046_eid_dnn_4-3-10_elephant_10_n02504013_6065.png,n02504013_6065.png,1.0,1.7742547,1.2828925,0.34744555
alexnet_w1_mlp_simclrhn_probe3,1,47,NaN,oven,cat,1-3-10,0047_eid_dnn_1-3-10_cat_10_n02123394_384.png,n02123394_384.png,0.0,2.2046478,2.2115676,-0.004893081
alexnet_w1_mlp_simclrhn_probe3,1,48,NaN,bear,bicycle,16-3-10,0048_eid_dnn_16-3-10_bicycle_10_n02835271_12608.png,n02835271_12608.png,0.0,-0.2342633,1.4407291,-1.1843985
alexnet_w1_mlp_simclrhn_probe3,1,49,NaN,knife,chair,2-3-10,0049_eid_dnn_2-3-10_chair_10_n03376595_13949.png,n03376595_13949.png,0.0,-0.011251718,0.40751052,-0.29610962
alexnet_w1_mlp_simclrhn_probe3,1,50,NaN,oven,airplane,128-3-10,0050_eid_dnn_128-3-10_airplane_10_n02690373_3561.png,n02690373_3561.png,0.0,-0.1299831,0.54839593,-0.47968644
alexnet_w1_mlp_simclrhn_probe3,1,51,NaN,oven,bicycle,32-3-10,0051_eid_dnn_32-3-10_bicycle_10_n02835271_8203.png,n02835271_8203.png,0.0,0.072977245,0.9155593,-0.5957955
alexnet_w1_mlp_simclrhn_probe3,1,52,NaN,bicycle,bicycle,2-3-10,0052_eid_dnn_2-3-10_bicycle_10_n03792782_5665.png,n03792782_5665.png,1.0,6.2473354,1.3852056,3.438045
alexnet_w1_mlp_simclrhn_probe3,1,53,NaN,elephant,bicycle,128-3-10,0053_eid_dnn_128-3-10_bicycle_10_n02835271_15028.png,n02835271_15028.png,0.0,0.014784284,0.17013785,-0.10985157
alexnet_w1_mlp_simclrhn_probe3,1,54,NaN,clock,clock,1-3-10,0054_eid_dnn_1-3-10_clock_10_n04548280_3318.png,n04548280_3318.png,1.0,2.2416909,0.5592995,1.1896304
alexnet_w1_mlp_simclrhn_probe3,1,55,NaN,dog,cat,128-3-10,0055_eid_dnn_128-3-10_cat_10_n02123045_8784.png,n02123045_8784.png,0.0,-0.104364276,0.14737166,-0.17800419
alexnet_w1_mlp_simclrhn_probe3,1,56,NaN,oven,knife,128-3-10,0056_eid_dnn_128-3-10_knife_10_n03041632_3247.png,n03041632_3247.png,0.0,-0.05859609,0.39061582,-0.31764078
alexnet_w1_mlp_simclrhn_probe3,1,57,NaN,cat,dog,8-3-10,0057_eid_dnn_8-3-10_dog_10_n02110185_11414.png,n02110185_11414.png,0.0,1.1425073,2.4368317,-0.91522557
alexnet_w1_mlp_simclrhn_probe3,1,58,NaN,bear,dog,32-3-10,0058_eid_dnn_32-3-10_dog_10_n02113712_2715.png,n02113712_2715.png,0.0,0.273391,1.0136039,-0.5234096
alexnet_w1_mlp_simclrhn_probe3,1,59,NaN,bird,elephant,2-3-10,0059_eid_dnn_2-3-10_elephant_10_n02504458_1210.png,n02504458_1210.png,0.0,-1.1302361,1.13633,-1.6027044
alexnet_w1_mlp_simclrhn_probe3,1,60,NaN,bear,car,16-3-10,0060_eid_dnn_16-3-10_car_10_n02814533_32337.png,n02814533_32337.png,0.0,-0.74062794,2.0384135,-1.9650792
alexnet_w1_mlp_simclrhn_probe3,1,61,NaN,car,car,4-3-10,0061_eid_dnn_4-3-10_car_10_n02814533_55326.png,n02814533_55326.png,1.0,2.24105,1.9036638,0.23856811
alexnet_w1_mlp_simclrhn_probe3,1,62,NaN,oven,knife,64-3-10,0062_eid_dnn_64-3-10_knife_10_n03041632_32774.png,n03041632_32774.png,0.0,0.08777574,0.8068176,-0.50843936
alexnet_w1_mlp_simclrhn_probe3,1,63,NaN,bear,bicycle,8-3-10,0063_eid_dnn_8-3-10_bicycle_10_n02835271_11921.png,n02835271_11921.png,0.0,-0.37221542,2.5043268,-2.0340226
alexnet_w1_mlp_simclrhn_probe3,1,64,NaN,oven,chair,32-3-10,0064_eid_dnn_32-3-10_chair_10_n03376595_6115.png,n03376595_6115.png,0.0,-0.10071585,1.3757982,-1.0440532
alexnet_w1_mlp_simclrhn_probe3,1,65,NaN,bear,bear,16-3-10,0065_eid_dnn_16-3-10_bear_10_n02133161_79.png,n02133161_79.png,1.0,0.50822634,0.24794036,0.18404998
alexnet_w1_mlp_simclrhn_probe3,1,66,NaN,boat,boat,1-3-10,0066_eid_dnn_1-3-10_boat_10_n03662601_34796.png,n03662601_34796.png,1.0,4.827879,1.2027518,2.563352
alexnet_w1_mlp_simclrhn_probe3,1,67,NaN,bird,bird,4-3-10,0067_eid_dnn_4-3-10_bird_10_n02051845_8976.png,n02051845_8976.png,1.0,2.0713391,1.1763835,0.6328292
alexnet_w1_mlp_simclrhn_probe3,1,68,NaN,boat,boat,4-3-10,0068_eid_dnn_4-3-10_boat_10_n03344393_7362.png,n03344393_7362.png,1.0,1.4846891,1.3133655,0.12114412
alexnet_w1_mlp_simclrhn_probe3,1,69,NaN,oven,car,32-3-10,0069_eid_dnn_32-3-10_car_10_n02814533_34289.png,n02814533_34289.png,0.0,-0.34690967,0.65924937,-0.7114619
alexnet_w1_mlp_simclrhn_probe3,1,70,NaN,bear,keyboard,16-3-10,0070_eid_dnn_16-3-10_keyboard_10_n03085013_2166.png,n03085013_2166.png,0.0,-0.23649852,1.4635661,-1.2021272
alexnet_w1_mlp_simclrhn_probe3,1,71,NaN,bear,bear,2-3-10,0071_eid_dnn_2-3-10_bear_10_n02133161_10167.png,n02133161_10167.png,1.0,5.7840323,5.13758,0.4571109
alexnet_w1_mlp_simclrhn_probe3,1,72,NaN,oven,keyboard,16-3-10,0072_eid_dnn_16-3-10_keyboard_10_n04505470_430.png,n04505470_430.png,0.0,-0.00993095,0.49927178,-0.3600607
alexnet_w1_mlp_simclrhn_probe3,1,73,NaN,keyboard,boat,128-3-10,0073_eid_dnn_128-3-10_boat_10_n03662601_17001.png,n03662601_17001.png,0.0,-0.31613535,0.5303014,-0.5985212
alexnet_w1_mlp_simclrhn_probe3,1,74,NaN,keyboard,bear,128-3-10,0074_eid_dnn_128-3-10_bear_10_n02133161_5157.png,n02133161_5157.png,0.0,-0.09528978,0.29569086,-0.2764651
alexnet_w1_mlp_simclrhn_probe3,1,75,NaN,bear,boat,2-3-10,0075_eid_dnn_2-3-10_boat_10_n02951358_17870.png,n02951358_17870.png,0.0,-0.07767041,1.1026905,-0.8346412
alexnet_w1_mlp_simclrhn_probe3,1,76,NaN,oven,cat,64-3-10,0076_eid_dnn_64-3-10_cat_10_n02123159_1102.png,n02123159_1102.png,0.0,-0.105994575,0.25063235,-0.25217333
alexnet_w1_mlp_simclrhn_probe3,1,77,NaN,oven,cat,32-3-10,0077_eid_dnn_32-3-10_cat_10_n02123045_4252.png,n02123045_4252.png,0.0,0.09780813,0.7505845,-0.4615826
alexnet_w1_mlp_simclrhn_probe3,1,78,NaN,keyboard,keyboard,2-3-10,0078_eid_dnn_2-3-10_keyboard_10_n04505470_4294.png,n04505470_4294.png,1.0,3.6420894,1.2020577,1.7253629
alexnet_w1_mlp_simclrhn_probe3,1,79,NaN,truck,truck,2-3-10,0079_eid_dnn_2-3-10_truck_10_n04467665_1101.png,n04467665_1101.png,1.0,5.838439,2.550214,2.3251262
alexnet_w1_mlp_simclrhn_probe3,1,80,NaN,oven,airplane,64-3-10,0080_eid_dnn_64-3-10_airplane_10_n02690373_2078.png,n02690373_2078.png,0.0,0.020327449,0.5980976,-0.40854523
alexnet_w1_mlp_simclrhn_probe3,1,81,NaN,oven,boat,64-3-10,0081_eid_dnn_64-3-10_boat_10_n04612504_5535.png,n04612504_5535.png,0.0,-0.14629228,0.7834118,-0.6574001
alexnet_w1_mlp_simclrhn_probe3,1,82,NaN,bear,cat,16-3-10,0082_eid_dnn_16-3-10_cat_10_n02125311_15099.png,n02125311_15099.png,0.0,0.49515736,1.3717444,-0.6198406
alexnet_w1_mlp_simclrhn_probe3,1,83,NaN,oven,airplane,64-3-10,0083_eid_dnn_64-3-10_airplane_10_n02690373_4671.png,n02690373_4671.png,0.0,-0.041856095,0.79975456,-0.5951086
alexnet_w1_mlp_simclrhn_probe3,1,84,NaN,truck,truck,1-3-10,0084_eid_dnn_1-3-10_truck_10_n03417042_9062.png,n03417042_9062.png,1.0,3.2061098,1.7824737,1.0066627
alexnet_w1_mlp_simclrhn_probe3,1,85,NaN,cat,cat,4-3-10,0085_eid_dnn_4-3-10_cat_10_n02123394_283.png,n02123394_283.png,1.0,0.87645864,0.55719435,0.22575395
alexnet_w1_mlp_simclrhn_probe3,1,86,NaN,car,car,1-3-10,0086_eid_dnn_1-3-10_car_10_n02814533_3375.png,n02814533_3375.png,1.0,9.543479,6.1168113,2.42302
alexnet_w1_mlp_simclrhn_probe3,1,87,NaN,cat,cat,2-3-10,0087_eid_dnn_2-3-10_cat_10_n02124075_9706.png,n02124075_9706.png,1.0,1.9630924,0.7747392,0.8402927
alexnet_w1_mlp_simclrhn_probe3,1,88,NaN,car,car,2-3-10,0088_eid_dnn_2-3-10_car_10_n04285008_10563.png,n04285008_10563.png,1.0,3.6301517,2.3160877,0.9291836
alexnet_w1_mlp_simclrhn_probe3,1,89,NaN,oven,clock,64-3-10,0089_eid_dnn_64-3-10_clock_10_n03196217_3283.png,n03196217_3283.png,0.0,-0.022178078,0.8439022,-0.6124112
alexnet_w1_mlp_simclrhn_probe3,1,90,NaN,oven,oven,128-3-10,0090_eid_dnn_128-3-10_oven_10_n04111531_21120.png,n04111531_21120.png,1.0,0.37869155,0.06273443,0.22341543
alexnet_w1_mlp_simclrhn_probe3,1,91,NaN,bird,bird,1-3-10,0091_eid_dnn_1-3-10_bird_10_n01824575_6186.png,n01824575_6186.png,1.0,1.9545594,0.43871522,1.0718638
alexnet_w1_mlp_simclrhn_probe3,1,92,NaN,dog,dog,4-3-10,0092_eid_dnn_4-3-10_dog_10_n02102318_11155.png,n02102318_11155.png,1.0,1.7349293,0.83213407,0.63837266
alexnet_w1_mlp_simclrhn_probe3,1,93,NaN,bear,clock,16-3-10,0093_eid_dnn_16-3-10_clock_10_n04548280_2283.png,n04548280_2283.png,0.0,0.033502158,1.5851111,-1.0971533
alexnet_w1_mlp_simclrhn_probe3,1,94,NaN,oven,chair,128-3-10,0094_eid_dnn_128-3-10_chair_10_n03376595_18787.png,n03376595_18787.png,0.0,-0.07017824,0.56435543,-0.44868305
alexnet_w1_mlp_simclrhn_probe3,1,95,NaN,oven,keyboard,8-3-10,0095_eid_dnn_8-3-10_keyboard_10_n04505470_1903.png,n04505470_1903.png,0.0,0.8353126,1.6939571,-0.60715336
alexnet_w1_mlp_simclrhn_probe3,1,96,NaN,oven,clock,16-3-10,0096_eid_dnn_16-3-10_clock_10_n03196217_6185.png,n03196217_6185.png,0.0,0.07335576,1.7036664,-1.1528038
alexnet_w1_mlp_simclrhn_probe3,1,97,NaN,clock,clock,2-3-10,0097_eid_dnn_2-3-10_clock_10_n03196217_10424.png,n03196217_10424.png,1.0,2.5801725,2.2462013,0.23615335
alexnet_w1_mlp_simclrhn_probe3,1,98,NaN,knife,knife,2-3-10,0098_eid_dnn_2-3-10_knife_10_n03041632_43436.png,n03041632_43436.png,1.0,1.1760873,1.1421949,0.023965541
alexnet_w1_mlp_simclrhn_probe3,1,99,NaN,dog,dog,1-3-10,0099_eid_dnn_1-3-10_dog_10_n02093647_5955.png,n02093647_5955.png,1.0,1.3125327,0.49188042,0.58028877
alexnet_w1_mlp_simclrhn_probe3,1,100,NaN,bear,boat,32-3-10,0100_eid_dnn_32-3-10_boat_10_n03662601_5423.png,n03662601_5423.png,0.0,0.07245044,0.5638364,-0.34746236
alexnet_w1_mlp_simclrhn_probe3,1,101,NaN,oven,keyboard,128-3-10,0101_eid_dnn_128-3-10_keyboard_10_n04505470_9457.png,n04505470_9457.png,0.0,0.063557036,0.78124225,-0.5074801
alexnet_w1_mlp_simclrhn_probe3,1,102,NaN,oven,knife,128-3-10,0102_eid_dnn_128-3-10_knife_10_n03041632_38535.png,n03041632_38535.png,0.0,-0.08377021,0.50324976,-0.41508582
alexnet_w1_mlp_simclrhn_probe3,1,103,NaN,bear,elephant,8-3-10,0103_eid_dnn_8-3-10_elephant_10_n02504458_8141.png,n02504458_8141.png,0.0,0.7084949,1.4511019,-0.52510244
alexnet_w1_mlp_simclrhn_probe3,1,104,NaN,airplane,airplane,4-3-10,0104_eid_dnn_4-3-10_airplane_10_n02690373_9086.png,n02690373_9086.png,1.0,3.0818086,0.61024505,1.7476594
alexnet_w1_mlp_simclrhn_probe3,1,105,NaN,bear,bicycle,16-3-10,0105_eid_dnn_16-3-10_bicycle_10_n03792782_19116.png,n03792782_19116.png,0.0,0.29671058,0.5594027,-0.18575138
alexnet_w1_mlp_simclrhn_probe3,1,106,NaN,elephant,elephant,4-3-10,0106_eid_dnn_4-3-10_elephant_10_n02504458_2343.png,n02504458_2343.png,1.0,3.2694645,1.668705,1.1319079
alexnet_w1_mlp_simclrhn_probe3,1,107,NaN,oven,airplane,16-3-10,0107_eid_dnn_16-3-10_airplane_10_n02690373_7093.png,n02690373_7093.png,0.0,0.18916503,0.5423217,-0.24971947
alexnet_w1_mlp_simclrhn_probe3,1,108,NaN,oven,car,32-3-10,0108_eid_dnn_32-3-10_car_10_n03100240_7935.png,n03100240_7935.png,0.0,-0.38045645,0.93119645,-0.9274787
alexnet_w1_mlp_simclrhn_probe3,1,109,NaN,bear,airplane,16-3-10,0109_eid_dnn_16-3-10_airplane_10_n02690373_8611.png,n02690373_8611.png,0.0,-0.43040022,0.8090817,-0.87644607
alexnet_w1_mlp_simclrhn_probe3,1,110,NaN,bear,bear,2-3-10,0110_eid_dnn_2-3-10_bear_10_n02133161_7332.png,n02133161_7332.png,1.0,5.58451,2.7838879,1.9803388
alexnet_w1_mlp_simclrhn_probe3,1,111,NaN,car,car,2-3-10,0111_eid_dnn_2-3-10_car_10_n03100240_9387.png,n03100240_9387.png,1.0,7.742316,4.8383613,2.053406
alexnet_w1_mlp_simclrhn_probe3,1,112,NaN,cat,cat,4-3-10,0112_eid_dnn_4-3-10_cat_10_n02124075_521.png,n02124075_521.png,1.0,1.2852978,1.022269,0.18598941
alexnet_w1_mlp_simclrhn_probe3,1,113,NaN,oven,bottle,128-3-10,0113_eid_dnn_128-3-10_bottle_10_n04560804_3746.png,n04560804_3746.png,0.0,0.15588261,0.5184393,-0.2563663
alexnet_w1_mlp_simclrhn_probe3,1,114,NaN,bear,elephant,16-3-10,0114_eid_dnn_16-3-10_elephant_10_n02504458_1127.png,n02504458_1127.png,0.0,1.4417096,1.611969,-0.12039155
alexnet_w1_mlp_simclrhn_probe3,1,115,NaN,cat,knife,8-3-10,0115_eid_dnn_8-3-10_knife_10_n03041632_14132.png,n03041632_14132.png,0.0,0.36173332,0.4100008,-0.034130264
alexnet_w1_mlp_simclrhn_probe3,1,116,NaN,oven,oven,1-3-10,0116_eid_dnn_1-3-10_oven_10_n04111531_18916.png,n04111531_18916.png,1.0,1.9061873,0.9818875,0.65357864
alexnet_w1_mlp_simclrhn_probe3,1,117,NaN,oven,oven,1-3-10,0117_eid_dnn_1-3-10_oven_10_n04111531_19274.png,n04111531_19274.png,1.0,1.5922196,0.48470432,0.7831316
alexnet_w1_mlp_simclrhn_probe3,1,118,NaN,bird,bird,2-3-10,0118_eid_dnn_2-3-10_bird_10_n01843383_277.png,n01843383_277.png,1.0,0.8602407,0.07318672,0.55653125
alexnet_w1_mlp_simclrhn_probe3,1,119,NaN,oven,boat,64-3-10,0119_eid_dnn_64-3-10_boat_10_n03344393_6799.png,n03344393_6799.png,0.0,0.18835047,0.8057953,-0.43659946
alexnet_w1_mlp_simclrhn_probe3,1,120,NaN,cat,dog,2-3-10,0120_eid_dnn_2-3-10_dog_10_n02093428_16887.png,n02093428_16887.png,0.0,1.6768428,2.2923064,-0.43519852
alexnet_w1_mlp_simclrhn_probe3,1,121,NaN,oven,elephant,64-3-10,0121_eid_dnn_64-3-10_elephant_10_n02504458_6163.png,n02504458_6163.png,0.0,0.016694993,0.14354567,-0.08969697
alexnet_w1_mlp_simclrhn_probe3,1,122,NaN,oven,bottle,64-3-10,0122_eid_dnn_64-3-10_bottle_10_n04591713_2826.png,n04591713_2826.png,0.0,0.11626092,0.14537637,-0.02058773
alexnet_w1_mlp_simclrhn_probe3,1,123,NaN,oven,bottle,64-3-10,0123_eid_dnn_64-3-10_bottle_10_n04557648_3598.png,n04557648_3598.png,0.0,0.08372389,0.107504025,-0.016815096
alexnet_w1_mlp_simclrhn_probe3,1,124,NaN,bear,truck,8-3-10,0124_eid_dnn_8-3-10_truck_10_n04467665_80629.png,n04467665_80629.png,0.0,-0.103946656,1.2923923,-0.9873608
alexnet_w1_mlp_simclrhn_probe3,1,125,NaN,elephant,bear,4-3-10,0125_eid_dnn_4-3-10_bear_10_n02134084_6869.png,n02134084_6869.png,0.0,1.3735343,1.3906238,-0.012084092
alexnet_w1_mlp_simclrhn_probe3,1,126,NaN,bird,bird,1-3-10,0126_eid_dnn_1-3-10_bird_10_n01820546_4457.png,n01820546_4457.png,1.0,1.7467874,1.4291538,0.2246009
alexnet_w1_mlp_simclrhn_probe3,1,127,NaN,oven,clock,64-3-10,0127_eid_dnn_64-3-10_clock_10_n04548280_7565.png,n04548280_7565.png,0.0,-0.006313637,0.518037,-0.3707719
alexnet_w1_mlp_simclrhn_probe3,1,128,NaN,bear,elephant,16-3-10,0128_eid_dnn_16-3-10_elephant_10_n02504458_98.png,n02504458_98.png,0.0,0.67035264,1.0629361,-0.2775984
alexnet_w1_mlp_simclrhn_probe3,1,129,NaN,oven,bicycle,64-3-10,0129_eid_dnn_64-3-10_bicycle_10_n03792782_7143.png,n03792782_7143.png,0.0,-0.012954071,0.3913405,-0.28587943
alexnet_w1_mlp_simclrhn_probe3,1,130,NaN,bear,dog,16-3-10,0130_eid_dnn_16-3-10_dog_10_n02096051_5524.png,n02096051_5524.png,0.0,0.23249699,1.1669242,-0.66073984
alexnet_w1_mlp_simclrhn_probe3,1,131,NaN,bear,cat,16-3-10,0131_eid_dnn_16-3-10_cat_10_n02123045_9465.png,n02123045_9465.png,0.0,0.86249036,1.2738991,-0.29090992
alexnet_w1_mlp_simclrhn_probe3,1,132,NaN,oven,cat,64-3-10,0132_eid_dnn_64-3-10_cat_10_n02123159_9450.png,n02123159_9450.png,0.0,-0.18970399,0.7576604,-0.6698878
alexnet_w1_mlp_simclrhn_probe3,1,133,NaN,bottle,clock,4-3-10,0133_eid_dnn_4-3-10_clock_10_n02708093_8204.png,n02708093_8204.png,0.0,0.31343898,0.33159134,-0.012835654
alexnet_w1_mlp_simclrhn_probe3,1,134,NaN,oven,airplane,32-3-10,0134_eid_dnn_32-3-10_airplane_10_n02690373_2619.png,n02690373_2619.png,0.0,-0.09284245,0.52444184,-0.43648592
alexnet_w1_mlp_simclrhn_probe3,1,135,NaN,car,car,2-3-10,0135_eid_dnn_2-3-10_car_10_n04285008_11295.png,n04285008_11295.png,1.0,7.01032,2.538138,3.1623104
alexnet_w1_mlp_simclrhn_probe3,1,136,NaN,bear,bear,8-3-10,0136_eid_dnn_8-3-10_bear_10_n02133161_15481.png,n02133161_15481.png,1.0,1.7212806,0.7642276,0.6767386
alexnet_w1_mlp_simclrhn_probe3,1,137,NaN,oven,truck,64-3-10,0137_eid_dnn_64-3-10_truck_10_n03417042_8139.png,n03417042_8139.png,0.0,-0.18789306,0.42021948,-0.43000054
alexnet_w1_mlp_simclrhn_probe3,1,138,NaN,bear,bottle,16-3-10,0138_eid_dnn_16-3-10_bottle_10_n04557648_4490.png,n04557648_4490.png,0.0,0.09757971,0.6638894,-0.40044144
alexnet_w1_mlp_simclrhn_probe3,1,139,NaN,bottle,clock,1-3-10,0139_eid_dnn_1-3-10_clock_10_n03196217_5399.png,n03196217_5399.png,0.0,1.5052748,1.7772778,-0.1923352
alexnet_w1_mlp_simclrhn_probe3,1,140,NaN,boat,boat,1-3-10,0140_eid_dnn_1-3-10_boat_10_n04273569_4136.png,n04273569_4136.png,1.0,2.9821563,0.46224588,1.7818457
alexnet_w1_mlp_simclrhn_probe3,1,141,NaN,clock,clock,4-3-10,0141_eid_dnn_4-3-10_clock_10_n04548280_2127.png,n04548280_2127.png,1.0,2.9764392,0.9841285,1.4087765
alexnet_w1_mlp_simclrhn_probe3,1,142,NaN,airplane,boat,2-3-10,0142_eid_dnn_2-3-10_boat_10_n03344393_10038.png,n03344393_10038.png,0.0,1.5571913,1.8801727,-0.2283824
alexnet_w1_mlp_simclrhn_probe3,1,143,NaN,elephant,elephant,2-3-10,0143_eid_dnn_2-3-10_elephant_10_n02504013_10793.png,n02504013_10793.png,1.0,10.921915,4.0023203,4.8928924
alexnet_w1_mlp_simclrhn_probe3,1,144,NaN,keyboard,oven,128-3-10,0144_eid_dnn_128-3-10_oven_10_n04111531_6590.png,n04111531_6590.png,0.0,0.31568176,0.6918936,-0.26602194
alexnet_w1_mlp_simclrhn_probe3,1,145,NaN,cat,keyboard,16-3-10,0145_eid_dnn_16-3-10_keyboard_10_n03085013_10984.png,n03085013_10984.png,0.0,-0.3289198,0.3536663,-0.48266125
alexnet_w1_mlp_simclrhn_probe3,1,146,NaN,bicycle,bicycle,2-3-10,0146_eid_dnn_2-3-10_bicycle_10_n02835271_14879.png,n02835271_14879.png,1.0,0.8470937,0.67141,0.12422712
alexnet_w1_mlp_simclrhn_probe3,1,147,NaN,oven,knife,64-3-10,0147_eid_dnn_64-3-10_knife_10_n03041632_22241.png,n03041632_22241.png,0.0,0.10398595,0.5267827,-0.29896244
alexnet_w1_mlp_simclrhn_probe3,1,148,NaN,oven,oven,64-3-10,0148_eid_dnn_64-3-10_oven_10_n04111531_892.png,n04111531_892.png,1.0,0.5742143,0.39567915,0.12624341
alexnet_w1_mlp_simclrhn_probe3,1,149,NaN,oven,bear,64-3-10,0149_eid_dnn_64-3-10_bear_10_n02134418_14850.png,n02134418_14850.png,0.0,0.21048345,0.6092389,-0.28196272
alexnet_w1_mlp_simclrhn_probe3,1,150,NaN,oven,knife,64-3-10,0150_eid_dnn_64-3-10_knife_10_n03041632_48071.png,n03041632_48071.png,0.0,-0.09033749,0.5185679,-0.43056116
alexnet_w1_mlp_simclrhn_probe3,1,151,NaN,cat,clock,16-3-10,0151_eid_dnn_16-3-10_clock_10_n04548280_64.png,n04548280_64.png,0.0,-0.20283936,0.68399477,-0.62708646
alexnet_w1_mlp_simclrhn_probe3,1,152,NaN,bottle,truck,64-3-10,0152_eid_dnn_64-3-10_truck_10_n03796401_6285.png,n03796401_6285.png,0.0,-0.24925676,0.028892815,-0.19668145
alexnet_w1_mlp_simclrhn_probe3,1,153,NaN,airplane,airplane,4-3-10,0153_eid_dnn_4-3-10_airplane_10_n02690373_6682.png,n02690373_6682.png,1.0,1.9047158,0.8597854,0.7388774
alexnet_w1_mlp_simclrhn_probe3,1,154,NaN,oven,knife,64-3-10,0154_eid_dnn_64-3-10_knife_10_n03041632_17285.png,n03041632_17285.png,0.0,-0.08122836,0.96063966,-0.7367119
alexnet_w1_mlp_simclrhn_probe3,1,155,NaN,elephant,boat,2-3-10,0155_eid_dnn_2-3-10_boat_10_n02951358_8184.png,n02951358_8184.png,0.0,1.8221598,2.3486543,-0.37228784
alexnet_w1_mlp_simclrhn_probe3,1,156,NaN,bicycle,bear,1-3-10,0156_eid_dnn_1-3-10_bear_10_n02132136_2346.png,n02132136_2346.png,0.0,0.3663054,0.9586057,-0.41881958
alexnet_w1_mlp_simclrhn_probe3,1,157,NaN,bear,bear,8-3-10,0157_eid_dnn_8-3-10_bear_10_n02134418_2187.png,n02134418_2187.png,1.0,3.0309424,1.7408351,0.91224366
alexnet_w1_mlp_simclrhn_probe3,1,158,NaN,bear,cat,32-3-10,0158_eid_dnn_32-3-10_cat_10_n02124075_10162.png,n02124075_10162.png,0.0,0.001728937,0.46873605,-0.3302239
alexnet_w1_mlp_simclrhn_probe3,1,159,NaN,oven,truck,128-3-10,0159_eid_dnn_128-3-10_truck_10_n03417042_8998.png,n03417042_8998.png,0.0,-0.2657485,0.19183037,-0.32355714
alexnet_w1_mlp_simclrhn_probe3,1,160,NaN,oven,cat,64-3-10,0160_eid_dnn_64-3-10_cat_10_n02123597_13835.png,n02123597_13835.png,0.0,0.072092414,0.49375504,-0.29816052
alexnet_w1_mlp_simclrhn_probe3,1,161,NaN,clock,clock,1-3-10,0161_eid_dnn_1-3-10_clock_10_n04548280_18914.png,n04548280_18914.png,1.0,3.1331367,0.4071958,1.9275314
alexnet_w1_mlp_simclrhn_probe3,1,162,NaN,keyboard,keyboard,2-3-10,0162_eid_dnn_2-3-10_keyboard_10_n03085013_2676.png,n03085013_2676.png,1.0,3.6998258,1.0123934,1.9003016
alexnet_w1_mlp_simclrhn_probe3,1,163,NaN,bear,airplane,16-3-10,0163_eid_dnn_16-3-10_airplane_10_n02690373_7600.png,n02690373_7600.png,0.0,-0.6768692,1.2358241,-1.3524784
alexnet_w1_mlp_simclrhn_probe3,1,164,NaN,bear,chair,16-3-10,0164_eid_dnn_16-3-10_chair_10_n04429376_17917.png,n04429376_17917.png,0.0,-0.3616455,1.2549301,-1.1430916
alexnet_w1_mlp_simclrhn_probe3,1,165,NaN,keyboard,keyboard,4-3-10,0165_eid_dnn_4-3-10_keyboard_10_n04505470_4492.png,n04505470_4492.png,1.0,1.5139887,1.141743,0.26321754
alexnet_w1_mlp_simclrhn_probe3,1,166,NaN,bear,bear,1-3-10,0166_eid_dnn_1-3-10_bear_10_n02134418_3148.png,n02134418_3148.png,1.0,2.5375443,1.9803164,0.3940196
alexnet_w1_mlp_simclrhn_probe3,1,167,NaN,elephant,cat,4-3-10,0167_eid_dnn_4-3-10_cat_10_n02125311_20388.png,n02125311_20388.png,0.0,1.002309,2.059926,-0.7478482
alexnet_w1_mlp_simclrhn_probe3,1,168,NaN,oven,cat,64-3-10,0168_eid_dnn_64-3-10_cat_10_n02123394_2153.png,n02123394_2153.png,0.0,-0.15168945,0.6584528,-0.5728571
alexnet_w1_mlp_simclrhn_probe3,1,169,NaN,oven,clock,1-3-10,0169_eid_dnn_1-3-10_clock_10_n04548280_5327.png,n04548280_5327.png,0.0,0.31055844,1.3665557,-0.74670285
alexnet_w1_mlp_simclrhn_probe3,1,170,NaN,cat,bicycle,8-3-10,0170_eid_dnn_8-3-10_bicycle_10_n03792782_63054.png,n03792782_63054.png,0.0,-0.530166,2.0045366,-1.7923054
alexnet_w1_mlp_simclrhn_probe3,1,171,NaN,oven,chair,32-3-10,0171_eid_dnn_32-3-10_chair_10_n03376595_14138.png,n03376595_14138.png,0.0,0.069702215,0.983999,-0.6465055
alexnet_w1_mlp_simclrhn_probe3,1,172,NaN,bear,elephant,2-3-10,0172_eid_dnn_2-3-10_elephant_10_n02504458_4849.png,n02504458_4849.png,0.0,1.3988597,1.7915709,-0.27768874
alexnet_w1_mlp_simclrhn_probe3,1,173,NaN,oven,dog,128-3-10,0173_eid_dnn_128-3-10_dog_10_n02113624_4844.png,n02113624_4844.png,0.0,-0.124608226,0.63223755,-0.5351708
alexnet_w1_mlp_simclrhn_probe3,1,174,NaN,elephant,elephant,2-3-10,0174_eid_dnn_2-3-10_elephant_10_n02504013_2549.png,n02504013_2549.png,1.0,3.479486,2.2290888,0.88416433
alexnet_w1_mlp_simclrhn_probe3,1,175,NaN,bear,bear,8-3-10,0175_eid_dnn_8-3-10_bear_10_n02134084_4593.png,n02134084_4593.png,1.0,1.4629619,0.78982615,0.47597888
alexnet_w1_mlp_simclrhn_probe3,1,176,NaN,bicycle,bicycle,64-3-10,0176_eid_dnn_64-3-10_bicycle_10_n02835271_75.png,n02835271_75.png,1.0,0.26726672,0.20800531,0.041904148
alexnet_w1_mlp_simclrhn_probe3,1,177,NaN,oven,truck,4-3-10,0177_eid_dnn_4-3-10_truck_10_n03796401_20943.png,n03796401_20943.png,0.0,0.75782245,2.0315523,-0.900663
alexnet_w1_mlp_simclrhn_probe3,1,178,NaN,knife,knife,2-3-10,0178_eid_dnn_2-3-10_knife_10_n03041632_32048.png,n03041632_32048.png,1.0,0.7959748,0.59661734,0.14096701
alexnet_w1_mlp_simclrhn_probe3,1,179,NaN,cat,cat,1-3-10,0179_eid_dnn_1-3-10_cat_10_n02123159_3536.png,n02123159_3536.png,1.0,0.41768703,0.41224518,0.0038479653
alexnet_w1_mlp_simclrhn_probe3,1,180,NaN,bear,bicycle,1-3-10,0180_eid_dnn_1-3-10_bicycle_10_n03792782_6716.png,n03792782_6716.png,0.0,0.29669446,0.46744892,-0.12074164
alexnet_w1_mlp_simclrhn_probe3,1,181,NaN,oven,clock,2-3-10,0181_eid_dnn_2-3-10_clock_10_n03196217_1754.png,n03196217_1754.png,0.0,1.3440112,1.8538469,-0.3605083
alexnet_w1_mlp_simclrhn_probe3,1,182,NaN,bicycle,bicycle,1-3-10,0182_eid_dnn_1-3-10_bicycle_10_n03792782_5404.png,n03792782_5404.png,1.0,3.1749187,2.9029915,0.19228151
alexnet_w1_mlp_simclrhn_probe3,1,183,NaN,oven,dog,64-3-10,0183_eid_dnn_64-3-10_dog_10_n02096294_3014.png,n02096294_3014.png,0.0,0.07416129,0.45030972,-0.2659771
alexnet_w1_mlp_simclrhn_probe3,1,184,NaN,bear,bear,4-3-10,0184_eid_dnn_4-3-10_bear_10_n02134084_23382.png,n02134084_23382.png,1.0,0.4008381,0.1925748,0.1472644
alexnet_w1_mlp_simclrhn_probe3,1,185,NaN,oven,car,4-3-10,0185_eid_dnn_4-3-10_car_10_n03100240_310.png,n03100240_310.png,0.0,-0.17736685,1.2583616,-1.0152134
alexnet_w1_mlp_simclrhn_probe3,1,186,NaN,dog,dog,4-3-10,0186_eid_dnn_4-3-10_dog_10_n02093256_1653.png,n02093256_1653.png,1.0,0.9790988,0.97790086,0.0008470674
alexnet_w1_mlp_simclrhn_probe3,1,187,NaN,elephant,elephant,4-3-10,0187_eid_dnn_4-3-10_elephant_10_n02504013_1740.png,n02504013_1740.png,1.0,8.586662,3.6906304,3.4620173
alexnet_w1_mlp_simclrhn_probe3,1,188,NaN,oven,bear,64-3-10,0188_eid_dnn_64-3-10_bear_10_n02134084_34375.png,n02134084_34375.png,0.0,0.17772338,0.81392235,-0.44986063
alexnet_w1_mlp_simclrhn_probe3,1,189,NaN,bear,keyboard,8-3-10,0189_eid_dnn_8-3-10_keyboard_10_n03085013_23254.png,n03085013_23254.png,0.0,0.030470219,0.7497759,-0.5086259
alexnet_w1_mlp_simclrhn_probe3,1,190,NaN,oven,elephant,32-3-10,0190_eid_dnn_32-3-10_elephant_10_n02504013_1512.png,n02504013_1512.png,0.0,0.20287642,1.2058353,-0.7091991
alexnet_w1_mlp_simclrhn_probe3,1,191,NaN,oven,car,8-3-10,0191_eid_dnn_8-3-10_car_10_n04285008_6454.png,n04285008_6454.png,0.0,-0.5476571,1.1171762,-1.177215
alexnet_w1_mlp_simclrhn_probe3,1,192,NaN,keyboard,keyboard,4-3-10,0192_eid_dnn_4-3-10_keyboard_10_n04505470_7721.png,n04505470_7721.png,1.0,6.19993,1.7623435,3.1378477
alexnet_w1_mlp_simclrhn_probe3,1,193,NaN,bear,keyboard,16-3-10,0193_eid_dnn_16-3-10_keyboard_10_n04505470_3388.png,n04505470_3388.png,0.0,-0.08759658,1.0739626,-0.82134634
alexnet_w1_mlp_simclrhn_probe3,1,194,NaN,boat,boat,2-3-10,0194_eid_dnn_2-3-10_boat_10_n03344393_4221.png,n03344393_4221.png,1.0,3.788692,1.9067284,1.3307493
alexnet_w1_mlp_simclrhn_probe3,1,195,NaN,keyboard,cat,128-3-10,0195_eid_dnn_128-3-10_cat_10_n02123597_14361.png,n02123597_14361.png,0.0,-0.21601458,0.5823524,-0.56453073
alexnet_w1_mlp_simclrhn_probe3,1,196,NaN,oven,bird,128-3-10,0196_eid_dnn_128-3-10_bird_10_n02006656_10058.png,n02006656_10058.png,0.0,-0.37957558,0.5108338,-0.6296145
alexnet_w1_mlp_simclrhn_probe3,1,197,NaN,bear,clock,32-3-10,0197_eid_dnn_32-3-10_clock_10_n02708093_8104.png,n02708093_8104.png,0.0,0.12706915,1.2980176,-0.82798564
alexnet_w1_mlp_simclrhn_probe3,1,198,NaN,bicycle,truck,1-3-10,0198_eid_dnn_1-3-10_truck_10_n03417042_3845.png,n03417042_3845.png,0.0,0.44174707,3.539542,-2.190472
alexnet_w1_mlp_simclrhn_probe3,1,199,NaN,oven,boat,64-3-10,0199_eid_dnn_64-3-10_boat_10_n03662601_36741.png,n03662601_36741.png,0.0,0.04982025,1.2755983,-0.86675596
alexnet_w1_mlp_simclrhn_probe3,1,200,NaN,knife,knife,1-3-10,0200_eid_dnn_1-3-10_knife_10_n03041632_22570.png,n03041632_22570.png,1.0,1.50985,0.5678169,0.666118
alexnet_w1_mlp_simclrhn_probe3,1,201,NaN,keyboard,keyboard,1-3-10,0201_eid_dnn_1-3-10_keyboard_10_n04505470_4109.png,n04505470_4109.png,1.0,5.434103,1.4286623,2.8322744
alexnet_w1_mlp_simclrhn_probe3,1,202,NaN,airplane,airplane,1-3-10,0202_eid_dnn_1-3-10_airplane_10_n02690373_10404.png,n02690373_10404.png,1.0,3.5459795,2.4033308,0.80797464
alexnet_w1_mlp_simclrhn_probe3,1,203,NaN,elephant,elephant,4-3-10,0203_eid_dnn_4-3-10_elephant_10_n02504458_4725.png,n02504458_4725.png,1.0,5.4271874,1.85164,2.5282938
alexnet_w1_mlp_simclrhn_probe3,1,204,NaN,airplane,airplane,1-3-10,0204_eid_dnn_1-3-10_airplane_10_n02690373_1325.png,n02690373_1325.png,1.0,4.0990005,1.0756876,2.137805
alexnet_w1_mlp_simclrhn_probe3,1,205,NaN,bear,bicycle,8-3-10,0205_eid_dnn_8-3-10_bicycle_10_n03792782_6841.png,n03792782_6841.png,0.0,-0.14550713,1.4678195,-1.1407942
alexnet_w1_mlp_simclrhn_probe3,1,206,NaN,chair,chair,2-3-10,0206_eid_dnn_2-3-10_chair_10_n04099969_1669.png,n04099969_1669.png,1.0,2.362167,1.1311728,0.8704443
alexnet_w1_mlp_simclrhn_probe3,1,207,NaN,oven,bottle,32-3-10,0207_eid_dnn_32-3-10_bottle_10_n03937543_5324.png,n03937543_5324.png,0.0,0.057668302,0.64127326,-0.412671
alexnet_w1_mlp_simclrhn_probe3,1,208,NaN,bottle,bottle,4-3-10,0208_eid_dnn_4-3-10_bottle_10_n03937543_2143.png,n03937543_2143.png,1.0,3.8362744,0.54427516,2.327795
alexnet_w1_mlp_simclrhn_probe3,1,209,NaN,clock,bottle,2-3-10,0209_eid_dnn_2-3-10_bottle_10_n04557648_2575.png,n04557648_2575.png,0.0,1.3687602,1.4495791,-0.05714759
alexnet_w1_mlp_simclrhn_probe3,1,210,NaN,bottle,knife,8-3-10,0210_eid_dnn_8-3-10_knife_10_n03041632_9671.png,n03041632_9671.png,0.0,0.17740571,0.969797,-0.5603053
alexnet_w1_mlp_simclrhn_probe3,1,211,NaN,oven,bottle,16-3-10,0211_eid_dnn_16-3-10_bottle_10_n04560804_4145.png,n04560804_4145.png,0.0,0.16071455,1.0070572,-0.5984546
alexnet_w1_mlp_simclrhn_probe3,1,212,NaN,oven,clock,64-3-10,0212_eid_dnn_64-3-10_clock_10_n03196217_1187.png,n03196217_1187.png,0.0,0.16085346,0.77740073,-0.43596476
alexnet_w1_mlp_simclrhn_probe3,1,213,NaN,clock,clock,4-3-10,0213_eid_dnn_4-3-10_clock_10_n04548280_2111.png,n04548280_2111.png,1.0,2.2961133,0.5087417,1.2638626
alexnet_w1_mlp_simclrhn_probe3,1,214,NaN,oven,dog,128-3-10,0214_eid_dnn_128-3-10_dog_10_n02086079_6578.png,n02086079_6578.png,0.0,-0.1057304,0.25775295,-0.25702155
alexnet_w1_mlp_simclrhn_probe3,1,215,NaN,bear,car,16-3-10,0215_eid_dnn_16-3-10_car_10_n03100240_14045.png,n03100240_14045.png,0.0,-0.6180621,1.6181632,-1.5812502
alexnet_w1_mlp_simclrhn_probe3,1,216,NaN,bear,boat,8-3-10,0216_eid_dnn_8-3-10_boat_10_n02951358_30908.png,n02951358_30908.png,0.0,-0.2368813,1.3337117,-1.110577
alexnet_w1_mlp_simclrhn_probe3,1,217,NaN,bear,oven,4-3-10,0217_eid_dnn_4-3-10_oven_10_n04111531_2199.png,n04111531_2199.png,0.0,1.0744984,1.2407885,-0.11758482
alexnet_w1_mlp_simclrhn_probe3,1,218,NaN,bear,elephant,8-3-10,0218_eid_dnn_8-3-10_elephant_10_n02504013_5641.png,n02504013_5641.png,0.0,2.0955899,2.7803726,-0.48421454
alexnet_w1_mlp_simclrhn_probe3,1,219,NaN,keyboard,keyboard,2-3-10,0219_eid_dnn_2-3-10_keyboard_10_n03085013_6740.png,n03085013_6740.png,1.0,2.6667128,0.8794395,1.2637931
alexnet_w1_mlp_simclrhn_probe3,1,220,NaN,clock,clock,2-3-10,0220_eid_dnn_2-3-10_clock_10_n04548280_319.png,n04548280_319.png,1.0,5.930351,0.24458745,4.020442
alexnet_w1_mlp_simclrhn_probe3,1,221,NaN,oven,knife,32-3-10,0221_eid_dnn_32-3-10_knife_10_n03041632_43506.png,n03041632_43506.png,0.0,0.017693639,0.52185273,-0.3564943
alexnet_w1_mlp_simclrhn_probe3,1,222,NaN,bear,boat,16-3-10,0222_eid_dnn_16-3-10_boat_10_n03344393_9712.png,n03344393_9712.png,0.0,0.08577658,0.7923543,-0.4996259
alexnet_w1_mlp_simclrhn_probe3,1,223,NaN,knife,knife,1-3-10,0223_eid_dnn_1-3-10_knife_10_n03041632_9963.png,n03041632_9963.png,1.0,1.7689617,0.8460287,0.6526122
alexnet_w1_mlp_simclrhn_probe3,1,224,NaN,bear,bird,1-3-10,0224_eid_dnn_1-3-10_bird_10_n02002556_18595.png,n02002556_18595.png,0.0,0.4435718,0.46498016,-0.015137989
alexnet_w1_mlp_simclrhn_probe3,1,225,NaN,cat,bird,4-3-10,0225_eid_dnn_4-3-10_bird_10_n01860187_20777.png,n01860187_20777.png,0.0,-0.34550017,1.0301661,-0.97274303
alexnet_w1_mlp_simclrhn_probe3,1,226,NaN,bear,keyboard,32-3-10,0226_eid_dnn_32-3-10_keyboard_10_n03085013_24626.png,n03085013_24626.png,0.0,-0.12950867,0.7318704,-0.609087
alexnet_w1_mlp_simclrhn_probe3,1,227,NaN,oven,oven,16-3-10,0227_eid_dnn_16-3-10_oven_10_n04111531_7097.png,n04111531_7097.png,1.0,0.7682177,0.32672438,0.3121829
alexnet_w1_mlp_simclrhn_probe3,1,228,NaN,bear,chair,16-3-10,0228_eid_dnn_16-3-10_chair_10_n02791124_12486.png,n02791124_12486.png,0.0,-0.15009065,1.5274608,-1.186208
alexnet_w1_mlp_simclrhn_probe3,1,229,NaN,keyboard,cat,128-3-10,0229_eid_dnn_128-3-10_cat_10_n02123045_6629.png,n02123045_6629.png,0.0,-0.10092259,0.32592133,-0.30182424
alexnet_w1_mlp_simclrhn_probe3,1,230,NaN,cat,bird,16-3-10,0230_eid_dnn_16-3-10_bird_10_n01819313_5388.png,n01819313_5388.png,0.0,-0.19846466,0.68129426,-0.62208354
alexnet_w1_mlp_simclrhn_probe3,1,231,NaN,oven,truck,32-3-10,0231_eid_dnn_32-3-10_truck_10_n04467665_4940.png,n04467665_4940.png,0.0,-0.2552364,1.0387208,-0.9149659
alexnet_w1_mlp_simclrhn_probe3,1,232,NaN,bottle,knife,8-3-10,0232_eid_dnn_8-3-10_knife_10_n03041632_20433.png,n03041632_20433.png,0.0,-0.22498246,0.3522099,-0.40813664
alexnet_w1_mlp_simclrhn_probe3,1,233,NaN,clock,clock,2-3-10,0233_eid_dnn_2-3-10_clock_10_n04548280_6792.png,n04548280_6792.png,1.0,2.2489471,0.33118472,1.3560628
alexnet_w1_mlp_simclrhn_probe3,1,234,NaN,oven,bicycle,4-3-10,0234_eid_dnn_4-3-10_bicycle_10_n02835271_5413.png,n02835271_5413.png,0.0,-0.25147122,1.5596354,-1.2806458
alexnet_w1_mlp_simclrhn_probe3,1,235,NaN,car,car,2-3-10,0235_eid_dnn_2-3-10_car_10_n04285008_5005.png,n04285008_5005.png,1.0,6.2486115,2.8843017,2.3789263
alexnet_w1_mlp_simclrhn_probe3,1,236,NaN,oven,car,2-3-10,0236_eid_dnn_2-3-10_car_10_n02814533_88088.png,n02814533_88088.png,0.0,-0.28344938,1.2015913,-1.0500823
alexnet_w1_mlp_simclrhn_probe3,1,237,NaN,oven,elephant,64-3-10,0237_eid_dnn_64-3-10_elephant_10_n02504458_11345.png,n02504458_11345.png,0.0,0.0820886,0.5071023,-0.30053008
alexnet_w1_mlp_simclrhn_probe3,1,238,NaN,bear,elephant,16-3-10,0238_eid_dnn_16-3-10_elephant_10_n02504013_1900.png,n02504013_1900.png,0.0,1.61045,1.7200531,-0.07750106
alexnet_w1_mlp_simclrhn_probe3,1,239,NaN,elephant,bear,128-3-10,0239_eid_dnn_128-3-10_bear_10_n02133161_5708.png,n02133161_5708.png,0.0,0.11501491,0.15317658,-0.026984373
alexnet_w1_mlp_simclrhn_probe3,1,240,NaN,cat,cat,8-3-10,0240_eid_dnn_8-3-10_cat_10_n02124075_5828.png,n02124075_5828.png,1.0,2.0246992,0.70859873,0.9306236
alexnet_w1_mlp_simclrhn_probe3,1,241,NaN,oven,bird,64-3-10,0241_eid_dnn_64-3-10_bird_10_n01582220_9392.png,n01582220_9392.png,0.0,-0.2841382,0.68232465,-0.68339247
alexnet_w1_mlp_simclrhn_probe3,1,242,NaN,clock,clock,1-3-10,0242_eid_dnn_1-3-10_clock_10_n02708093_4597.png,n02708093_4597.png,1.0,7.125019,1.19625,4.192273
alexnet_w1_mlp_simclrhn_probe3,1,243,NaN,oven,bicycle,128-3-10,0243_eid_dnn_128-3-10_bicycle_10_n03792782_26306.png,n03792782_26306.png,0.0,-0.024173282,0.15773368,-0.12862766
alexnet_w1_mlp_simclrhn_probe3,1,244,NaN,oven,bear,32-3-10,0244_eid_dnn_32-3-10_bear_10_n02132136_1795.png,n02132136_1795.png,0.0,0.59595644,0.8772086,-0.19887531
alexnet_w1_mlp_simclrhn_probe3,1,245,NaN,bottle,clock,128-3-10,0245_eid_dnn_128-3-10_clock_10_n02708093_3638.png,n02708093_3638.png,0.0,-0.049106915,0.11656253,-0.117145985
alexnet_w1_mlp_simclrhn_probe3,1,246,NaN,keyboard,keyboard,4-3-10,0246_eid_dnn_4-3-10_keyboard_10_n03085013_21272.png,n03085013_21272.png,1.0,0.37116018,0.1419007,0.16211094
alexnet_w1_mlp_simclrhn_probe3,1,247,NaN,bottle,chair,8-3-10,0247_eid_dnn_8-3-10_chair_10_n02791124_16926.png,n02791124_16926.png,0.0,-0.31720805,1.5563289,-1.3247907
alexnet_w1_mlp_simclrhn_probe3,1,248,NaN,cat,knife,8-3-10,0248_eid_dnn_8-3-10_knife_10_n03041632_84048.png,n03041632_84048.png,0.0,0.09256072,1.1149138,-0.7229128
alexnet_w1_mlp_simclrhn_probe3,1,249,NaN,oven,oven,2-3-10,0249_eid_dnn_2-3-10_oven_10_n04111531_550.png,n04111531_550.png,1.0,2.555282,1.2035657,0.95580786
alexnet_w1_mlp_simclrhn_probe3,1,250,NaN,keyboard,boat,128-3-10,0250_eid_dnn_128-3-10_boat_10_n03662601_21992.png,n03662601_21992.png,0.0,-0.2518196,0.43788016,-0.4876914
alexnet_w1_mlp_simclrhn_probe3,1,251,NaN,bear,bear,32-3-10,0251_eid_dnn_32-3-10_bear_10_n02134418_280.png,n02134418_280.png,1.0,0.8563863,0.546468,0.21914533
alexnet_w1_mlp_simclrhn_probe3,1,252,NaN,bear,bottle,8-3-10,0252_eid_dnn_8-3-10_bottle_10_n04560804_8385.png,n04560804_8385.png,0.0,0.17465338,0.9569587,-0.5531734
alexnet_w1_mlp_simclrhn_probe3,1,253,NaN,oven,elephant,64-3-10,0253_eid_dnn_64-3-10_elephant_10_n02504013_4183.png,n02504013_4183.png,0.0,0.37119436,0.6135157,-0.17134705
alexnet_w1_mlp_simclrhn_probe3,1,254,NaN,bird,bird,1-3-10,0254_eid_dnn_1-3-10_bird_10_n01560419_19608.png,n01560419_19608.png,1.0,1.7762475,0.013095412,1.2467369
alexnet_w1_mlp_simclrhn_probe3,1,255,NaN,dog,bird,4-3-10,0255_eid_dnn_4-3-10_bird_10_n02056570_8865.png,n02056570_8865.png,0.0,-0.07501687,0.6113945,-0.48536614
alexnet_w1_mlp_simclrhn_probe3,1,256,NaN,cat,cat,2-3-10,0256_eid_dnn_2-3-10_cat_10_n02123394_2553.png,n02123394_2553.png,1.0,1.3760444,0.96293706,0.292111
alexnet_w1_mlp_simclrhn_probe3,1,257,NaN,oven,bear,128-3-10,0257_eid_dnn_128-3-10_bear_10_n02132136_10113.png,n02132136_10113.png,0.0,0.07797289,0.41140944,-0.23577525
alexnet_w1_mlp_simclrhn_probe3,1,258,NaN,cat,oven,8-3-10,0258_eid_dnn_8-3-10_oven_10_n04111531_2758.png,n04111531_2758.png,0.0,0.4110741,1.0021864,-0.41797954
alexnet_w1_mlp_simclrhn_probe3,1,259,NaN,bird,keyboard,64-3-10,0259_eid_dnn_64-3-10_keyboard_10_n04505470_4824.png,n04505470_4824.png,0.0,-0.32852396,0.21349443,-0.3832649
alexnet_w1_mlp_simclrhn_probe3,1,260,NaN,bicycle,bicycle,2-3-10,0260_eid_dnn_2-3-10_bicycle_10_n02835271_8654.png,n02835271_8654.png,1.0,1.021738,0.7490522,0.192818
alexnet_w1_mlp_simclrhn_probe3,1,261,NaN,keyboard,keyboard,128-3-10,0261_eid_dnn_128-3-10_keyboard_10_n03085013_34973.png,n03085013_34973.png,1.0,0.2845332,0.24487796,0.02804049
alexnet_w1_mlp_simclrhn_probe3,1,262,NaN,cat,cat,4-3-10,0262_eid_dnn_4-3-10_cat_10_n02123394_4228.png,n02123394_4228.png,1.0,1.2856586,0.49885103,0.55635697
alexnet_w1_mlp_simclrhn_probe3,1,263,NaN,bear,keyboard,32-3-10,0263_eid_dnn_32-3-10_keyboard_10_n03085013_24416.png,n03085013_24416.png,0.0,-0.1259667,0.4128765,-0.38101965
alexnet_w1_mlp_simclrhn_probe3,1,264,NaN,cat,cat,8-3-10,0264_eid_dnn_8-3-10_cat_10_n02124075_5729.png,n02124075_5729.png,1.0,2.2807152,1.3324645,0.6705146
alexnet_w1_mlp_simclrhn_probe3,1,265,NaN,oven,clock,32-3-10,0265_eid_dnn_32-3-10_clock_10_n03196217_6357.png,n03196217_6357.png,0.0,0.07283797,0.69463384,-0.4396761
alexnet_w1_mlp_simclrhn_probe3,1,266,NaN,bottle,truck,128-3-10,0266_eid_dnn_128-3-10_truck_10_n03417042_29478.png,n03417042_29478.png,0.0,-0.23752975,0.084645845,-0.22781254
alexnet_w1_mlp_simclrhn_probe3,1,267,NaN,dog,chair,128-3-10,0267_eid_dnn_128-3-10_chair_10_n04099969_18678.png,n04099969_18678.png,0.0,-0.14772147,0.1599791,-0.21757716
alexnet_w1_mlp_simclrhn_probe3,1,268,NaN,oven,clock,32-3-10,0268_eid_dnn_32-3-10_clock_10_n02708093_4286.png,n02708093_4286.png,0.0,0.07358795,1.2217367,-0.8118638
alexnet_w1_mlp_simclrhn_probe3,1,269,NaN,keyboard,car,128-3-10,0269_eid_dnn_128-3-10_car_10_n03100240_21971.png,n03100240_21971.png,0.0,-0.54002637,0.20148042,-0.5243245
alexnet_w1_mlp_simclrhn_probe3,1,270,NaN,car,car,1-3-10,0270_eid_dnn_1-3-10_car_10_n03100240_84.png,n03100240_84.png,1.0,5.4925256,4.609129,0.6246558
alexnet_w1_mlp_simclrhn_probe3,1,271,NaN,cat,dog,1-3-10,0271_eid_dnn_1-3-10_dog_10_n02094433_3186.png,n02094433_3186.png,0.0,0.07470559,0.43780693,-0.25675142
alexnet_w1_mlp_simclrhn_probe3,1,272,NaN,dog,dog,4-3-10,0272_eid_dnn_4-3-10_dog_10_n02088364_10195.png,n02088364_10195.png,1.0,1.3426284,1.1768621,0.117214434
alexnet_w1_mlp_simclrhn_probe3,1,273,NaN,bear,knife,16-3-10,0273_eid_dnn_16-3-10_knife_10_n03041632_11358.png,n03041632_11358.png,0.0,-0.017537825,1.1690829,-0.8390676
alexnet_w1_mlp_simclrhn_probe3,1,274,NaN,bear,bird,64-3-10,0274_eid_dnn_64-3-10_bird_10_n01531178_10630.png,n01531178_10630.png,0.0,0.08905818,0.14267023,-0.03790944
alexnet_w1_mlp_simclrhn_probe3,1,275,NaN,elephant,elephant,1-3-10,0275_eid_dnn_1-3-10_elephant_10_n02504458_4058.png,n02504458_4058.png,1.0,2.12609,1.1833832,0.6665944
alexnet_w1_mlp_simclrhn_probe3,1,276,NaN,bear,keyboard,32-3-10,0276_eid_dnn_32-3-10_keyboard_10_n03085013_24336.png,n03085013_24336.png,0.0,-0.2855428,0.34398073,-0.44514036
alexnet_w1_mlp_simclrhn_probe3,1,277,NaN,bottle,clock,4-3-10,0277_eid_dnn_4-3-10_clock_10_n02708093_386.png,n02708093_386.png,0.0,1.3714195,1.682174,-0.21973656
alexnet_w1_mlp_simclrhn_probe3,1,278,NaN,elephant,chair,4-3-10,0278_eid_dnn_4-3-10_chair_10_n04429376_16370.png,n04429376_16370.png,0.0,-0.35546017,1.8963997,-1.5923054
alexnet_w1_mlp_simclrhn_probe3,1,279,NaN,knife,bottle,1-3-10,0279_eid_dnn_1-3-10_bottle_10_n04557648_10167.png,n04557648_10167.png,0.0,0.6972659,1.2180655,-0.36826092
alexnet_w1_mlp_simclrhn_probe3,1,280,NaN,bicycle,bicycle,1-3-10,0280_eid_dnn_1-3-10_bicycle_10_n02835271_15717.png,n02835271_15717.png,1.0,3.473434,1.7923095,1.1887345
alexnet_w1_mlp_simclrhn_probe3,1,281,NaN,oven,car,128-3-10,0281_eid_dnn_128-3-10_car_10_n03100240_22593.png,n03100240_22593.png,0.0,-0.4870968,0.4995817,-0.69768703
alexnet_w1_mlp_simclrhn_probe3,1,282,NaN,car,car,1-3-10,0282_eid_dnn_1-3-10_car_10_n04285008_11240.png,n04285008_11240.png,1.0,7.933882,3.2613573,3.3039742
alexnet_w1_mlp_simclrhn_probe3,1,283,NaN,boat,boat,1-3-10,0283_eid_dnn_1-3-10_boat_10_n03344393_3337.png,n03344393_3337.png,1.0,1.3194921,0.790664,0.37393793
alexnet_w1_mlp_simclrhn_probe3,1,284,NaN,keyboard,bottle,128-3-10,0284_eid_dnn_128-3-10_bottle_10_n04579145_1660.png,n04579145_1660.png,0.0,0.12588897,0.26782066,-0.100360855
alexnet_w1_mlp_simclrhn_probe3,1,285,NaN,oven,dog,64-3-10,0285_eid_dnn_64-3-10_dog_10_n02091244_9305.png,n02091244_9305.png,0.0,-0.03564939,0.5941564,-0.44533995
alexnet_w1_mlp_simclrhn_probe3,1,286,NaN,oven,chair,32-3-10,0286_eid_dnn_32-3-10_chair_10_n03376595_3912.png,n03376595_3912.png,0.0,0.02474735,0.838375,-0.5753216
alexnet_w1_mlp_simclrhn_probe3,1,287,NaN,oven,bottle,64-3-10,0287_eid_dnn_64-3-10_bottle_10_n02823428_6793.png,n02823428_6793.png,0.0,0.12939431,0.6890666,-0.39574808
alexnet_w1_mlp_simclrhn_probe3,1,288,NaN,bear,dog,32-3-10,0288_eid_dnn_32-3-10_dog_10_n02093754_4949.png,n02093754_4949.png,0.0,0.03162024,1.1027534,-0.7574055
alexnet_w1_mlp_simclrhn_probe3,1,289,NaN,oven,dog,128-3-10,0289_eid_dnn_128-3-10_dog_10_n02105855_10394.png,n02105855_10394.png,0.0,-0.12201442,0.42687076,-0.38812044
alexnet_w1_mlp_simclrhn_probe3,1,290,NaN,bottle,clock,2-3-10,0290_eid_dnn_2-3-10_clock_10_n04548280_9533.png,n04548280_9533.png,0.0,0.1537156,0.69769895,-0.3846543
alexnet_w1_mlp_simclrhn_probe3,1,291,NaN,elephant,cat,1-3-10,0291_eid_dnn_1-3-10_cat_10_n02125311_7527.png,n02125311_7527.png,0.0,1.7331996,1.8086867,-0.05337747
alexnet_w1_mlp_simclrhn_probe3,1,292,NaN,car,car,4-3-10,0292_eid_dnn_4-3-10_car_10_n03100240_4537.png,n03100240_4537.png,1.0,1.9536484,1.5239115,0.30386993
alexnet_w1_mlp_simclrhn_probe3,1,293,NaN,elephant,bicycle,8-3-10,0293_eid_dnn_8-3-10_bicycle_10_n03792782_11609.png,n03792782_11609.png,0.0,-0.63684726,1.6333683,-1.6052848
alexnet_w1_mlp_simclrhn_probe3,1,294,NaN,oven,oven,128-3-10,0294_eid_dnn_128-3-10_oven_10_n04111531_6134.png,n04111531_6134.png,1.0,0.5427207,0.27749807,0.18754071
alexnet_w1_mlp_simclrhn_probe3,1,295,NaN,keyboard,bottle,8-3-10,0295_eid_dnn_8-3-10_bottle_10_n04591713_715.png,n04591713_715.png,0.0,0.5085282,1.1560045,-0.45783493
alexnet_w1_mlp_simclrhn_probe3,1,296,NaN,bear,elephant,32-3-10,0296_eid_dnn_32-3-10_elephant_10_n02504458_7818.png,n02504458_7818.png,0.0,0.7080189,0.75767475,-0.035111994
alexnet_w1_mlp_simclrhn_probe3,1,297,NaN,oven,airplane,64-3-10,0297_eid_dnn_64-3-10_airplane_10_n02690373_7107.png,n02690373_7107.png,0.0,0.05274282,0.79626703,-0.525751
alexnet_w1_mlp_simclrhn_probe3,1,298,NaN,bear,car,32-3-10,0298_eid_dnn_32-3-10_car_10_n04285008_8363.png,n04285008_8363.png,0.0,-0.34063235,0.7577825,-0.7766966
alexnet_w1_mlp_simclrhn_probe3,1,299,NaN,oven,clock,4-3-10,0299_eid_dnn_4-3-10_clock_10_n04548280_4249.png,n04548280_4249.png,0.0,0.41392818,1.3172773,-0.6387643
alexnet_w1_mlp_simclrhn_probe3,1,300,NaN,oven,cat,128-3-10,0300_eid_dnn_128-3-10_cat_10_n02123597_7269.png,n02123597_7269.png,0.0,0.5350861,0.5666105,-0.022291131
alexnet_w1_mlp_simclrhn_probe3,1,301,NaN,bicycle,bicycle,1-3-10,0301_eid_dnn_1-3-10_bicycle_10_n03792782_4864.png,n03792782_4864.png,1.0,6.8359165,1.9812609,3.43276
alexnet_w1_mlp_simclrhn_probe3,1,302,NaN,bear,bear,2-3-10,0302_eid_dnn_2-3-10_bear_10_n02132136_8011.png,n02132136_8011.png,1.0,1.9070703,0.9827423,0.6535986
alexnet_w1_mlp_simclrhn_probe3,1,303,NaN,oven,boat,128-3-10,0303_eid_dnn_128-3-10_boat_10_n02951358_4810.png,n02951358_4810.png,0.0,-0.22152205,0.17790392,-0.28243682
alexnet_w1_mlp_simclrhn_probe3,1,304,NaN,oven,clock,128-3-10,0304_eid_dnn_128-3-10_clock_10_n03196217_5137.png,n03196217_5137.png,0.0,0.0021552953,0.3023386,-0.21226165
alexnet_w1_mlp_simclrhn_probe3,1,305,NaN,bicycle,bicycle,2-3-10,0305_eid_dnn_2-3-10_bicycle_10_n02835271_158.png,n02835271_158.png,1.0,3.7187843,1.4724822,1.5883754
alexnet_w1_mlp_simclrhn_probe3,1,306,NaN,oven,bear,64-3-10,0306_eid_dnn_64-3-10_bear_10_n02132136_11217.png,n02132136_11217.png,0.0,0.11369675,0.9405841,-0.58469766
alexnet_w1_mlp_simclrhn_probe3,1,307,NaN,oven,dog,64-3-10,0307_eid_dnn_64-3-10_dog_10_n02092002_6122.png,n02092002_6122.png,0.0,-0.09355147,0.5089963,-0.42606562
alexnet_w1_mlp_simclrhn_probe3,1,308,NaN,oven,chair,32-3-10,0308_eid_dnn_32-3-10_chair_10_n04429376_29223.png,n04429376_29223.png,0.0,-0.012234293,0.9226732,-0.66107947
alexnet_w1_mlp_simclrhn_probe3,1,309,NaN,keyboard,bear,128-3-10,0309_eid_dnn_128-3-10_bear_10_n02133161_5723.png,n02133161_5723.png,0.0,0.03627434,0.7706642,-0.5192921
alexnet_w1_mlp_simclrhn_probe3,1,310,NaN,oven,dog,128-3-10,0310_eid_dnn_128-3-10_dog_10_n02100583_1343.png,n02100583_1343.png,0.0,-0.029285891,0.224975,-0.1797896
alexnet_w1_mlp_simclrhn_probe3,1,311,NaN,oven,boat,128-3-10,0311_eid_dnn_128-3-10_boat_10_n03344393_6352.png,n03344393_6352.png,0.0,-0.17681421,0.88581276,-0.75139076
alexnet_w1_mlp_simclrhn_probe3,1,312,NaN,bird,bird,4-3-10,0312_eid_dnn_4-3-10_bird_10_n01560419_8247.png,n01560419_8247.png,1.0,1.7077676,-0.025946064,1.2259207
alexnet_w1_mlp_simclrhn_probe3,1,313,NaN,dog,dog,4-3-10,0313_eid_dnn_4-3-10_dog_10_n02105251_8210.png,n02105251_8210.png,1.0,1.6367946,1.4744526,0.1147931
alexnet_w1_mlp_simclrhn_probe3,1,314,NaN,oven,oven,128-3-10,0314_eid_dnn_128-3-10_oven_10_n04111531_9702.png,n04111531_9702.png,1.0,0.1071738,0.062211007,0.031793498
alexnet_w1_mlp_simclrhn_probe3,1,315,NaN,bear,bear,8-3-10,0315_eid_dnn_8-3-10_bear_10_n02133161_12161.png,n02133161_12161.png,1.0,0.8128914,0.62443036,0.1332621
alexnet_w1_mlp_simclrhn_probe3,1,316,NaN,bear,bear,8-3-10,0316_eid_dnn_8-3-10_bear_10_n02133161_13556.png,n02133161_13556.png,1.0,2.2756858,1.3147597,0.67947733
alexnet_w1_mlp_simclrhn_probe3,1,317,NaN,oven,bear,128-3-10,0317_eid_dnn_128-3-10_bear_10_n02134084_635.png,n02134084_635.png,0.0,-0.06351207,0.15329291,-0.15330428
alexnet_w1_mlp_simclrhn_probe3,1,318,NaN,keyboard,chair,128-3-10,0318_eid_dnn_128-3-10_chair_10_n02791124_6956.png,n02791124_6956.png,0.0,0.008204117,0.3678522,-0.25430962
alexnet_w1_mlp_simclrhn_probe3,1,319,NaN,oven,car,4-3-10,0319_eid_dnn_4-3-10_car_10_n02814533_18077.png,n02814533_18077.png,0.0,0.15363953,0.89149594,-0.52174324
alexnet_w1_mlp_simclrhn_probe3,1,320,NaN,knife,dog,2-3-10,0320_eid_dnn_2-3-10_dog_10_n02088364_11105.png,n02088364_11105.png,0.0,0.31965652,1.6254532,-0.92333776
alexnet_w1_mlp_simclrhn_probe3,1,321,NaN,oven,airplane,64-3-10,0321_eid_dnn_64-3-10_airplane_10_n02690373_1053.png,n02690373_1053.png,0.0,-0.030449264,0.47299185,-0.35598662
alexnet_w1_mlp_simclrhn_probe3,1,322,NaN,oven,car,16-3-10,0322_eid_dnn_16-3-10_car_10_n02814533_96407.png,n02814533_96407.png,0.0,-0.50449204,1.4944348,-1.4134548
alexnet_w1_mlp_simclrhn_probe3,1,323,NaN,oven,chair,4-3-10,0323_eid_dnn_4-3-10_chair_10_n04099969_31891.png,n04099969_31891.png,0.0,1.2356834,2.7062116,-1.0398204
alexnet_w1_mlp_simclrhn_probe3,1,324,NaN,bear,bottle,16-3-10,0324_eid_dnn_16-3-10_bottle_10_n04557648_4470.png,n04557648_4470.png,0.0,0.06977189,0.4842643,-0.2930904
alexnet_w1_mlp_simclrhn_probe3,1,325,NaN,dog,clock,8-3-10,0325_eid_dnn_8-3-10_clock_10_n02708093_2588.png,n02708093_2588.png,0.0,-0.49948016,0.6513431,-0.8137549
alexnet_w1_mlp_simclrhn_probe3,1,326,NaN,oven,elephant,128-3-10,0326_eid_dnn_128-3-10_elephant_10_n02504458_6696.png,n02504458_6696.png,0.0,0.07311948,0.095417075,-0.015766783
alexnet_w1_mlp_simclrhn_probe3,1,327,NaN,bear,elephant,32-3-10,0327_eid_dnn_32-3-10_elephant_10_n02504013_4071.png,n02504013_4071.png,0.0,0.29317975,0.561063,-0.18942206
alexnet_w1_mlp_simclrhn_probe3,1,328,NaN,knife,keyboard,8-3-10,0328_eid_dnn_8-3-10_keyboard_10_n03085013_8339.png,n03085013_8339.png,0.0,0.33528337,0.6914791,-0.25186843
alexnet_w1_mlp_simclrhn_probe3,1,329,NaN,bear,elephant,64-3-10,0329_eid_dnn_64-3-10_elephant_10_n02504013_6976.png,n02504013_6976.png,0.0,0.2048958,0.3121213,-0.07581989
alexnet_w1_mlp_simclrhn_probe3,1,330,NaN,bear,boat,4-3-10,0330_eid_dnn_4-3-10_boat_10_n02951358_9146.png,n02951358_9146.png,0.0,0.07484252,1.9664272,-1.3375523
alexnet_w1_mlp_simclrhn_probe3,1,331,NaN,bear,boat,32-3-10,0331_eid_dnn_32-3-10_boat_10_n04273569_4087.png,n04273569_4087.png,0.0,-0.018533235,0.35267872,-0.2624865
alexnet_w1_mlp_simclrhn_probe3,1,332,NaN,bear,oven,64-3-10,0332_eid_dnn_64-3-10_oven_10_n04111531_2922.png,n04111531_2922.png,0.0,0.22517408,0.23990822,-0.010418606
alexnet_w1_mlp_simclrhn_probe3,1,333,NaN,bear,bear,4-3-10,0333_eid_dnn_4-3-10_bear_10_n02133161_5325.png,n02133161_5325.png,1.0,3.283296,1.5959454,1.1931372
alexnet_w1_mlp_simclrhn_probe3,1,334,NaN,oven,bottle,64-3-10,0334_eid_dnn_64-3-10_bottle_10_n04557648_3109.png,n04557648_3109.png,0.0,0.13060413,0.37597147,-0.17350091
alexnet_w1_mlp_simclrhn_probe3,1,335,NaN,oven,oven,1-3-10,0335_eid_dnn_1-3-10_oven_10_n04111531_15912.png,n04111531_15912.png,1.0,3.572829,1.0637774,1.7741674
alexnet_w1_mlp_simclrhn_probe3,1,336,NaN,oven,truck,16-3-10,0336_eid_dnn_16-3-10_truck_10_n03417042_17099.png,n03417042_17099.png,0.0,-0.3166304,1.4216915,-1.2291793
alexnet_w1_mlp_simclrhn_probe3,1,337,NaN,knife,car,2-3-10,0337_eid_dnn_2-3-10_car_10_n04285008_8641.png,n04285008_8641.png,0.0,1.0939841,1.671279,-0.4082091
alexnet_w1_mlp_simclrhn_probe3,1,338,NaN,bear,keyboard,32-3-10,0338_eid_dnn_32-3-10_keyboard_10_n04505470_524.png,n04505470_524.png,0.0,-0.39098597,0.1646325,-0.3928816
alexnet_w1_mlp_simclrhn_probe3,1,339,NaN,elephant,bottle,8-3-10,0339_eid_dnn_8-3-10_bottle_10_n04557648_5935.png,n04557648_5935.png,0.0,-0.025924405,1.2674236,-0.9145352
alexnet_w1_mlp_simclrhn_probe3,1,340,NaN,oven,bottle,1-3-10,0340_eid_dnn_1-3-10_bottle_10_n04591713_3776.png,n04591713_3776.png,0.0,1.7279313,1.9916997,-0.18651246
alexnet_w1_mlp_simclrhn_probe3,1,341,NaN,truck,truck,2-3-10,0341_eid_dnn_2-3-10_truck_10_n03796401_3651.png,n03796401_3651.png,1.0,5.1218367,0.9131798,2.9759698
alexnet_w1_mlp_simclrhn_probe3,1,342,NaN,bear,bicycle,128-3-10,0342_eid_dnn_128-3-10_bicycle_10_n03792782_15757.png,n03792782_15757.png,0.0,0.06692693,0.13205206,-0.046050426
alexnet_w1_mlp_simclrhn_probe3,1,343,NaN,oven,cat,32-3-10,0343_eid_dnn_32-3-10_cat_10_n02123597_8698.png,n02123597_8698.png,0.0,0.28053522,1.0512528,-0.5449797
alexnet_w1_mlp_simclrhn_probe3,1,344,NaN,airplane,boat,1-3-10,0344_eid_dnn_1-3-10_boat_10_n03662601_273.png,n03662601_273.png,0.0,1.8203571,2.24084,-0.2973263
alexnet_w1_mlp_simclrhn_probe3,1,345,NaN,knife,knife,1-3-10,0345_eid_dnn_1-3-10_knife_10_n03041632_24376.png,n03041632_24376.png,1.0,1.6354711,0.921761,0.5046693
alexnet_w1_mlp_simclrhn_probe3,1,346,NaN,truck,keyboard,1-3-10,0346_eid_dnn_1-3-10_keyboard_10_n04505470_2608.png,n04505470_2608.png,0.0,0.32366467,1.2533317,-0.65737385
alexnet_w1_mlp_simclrhn_probe3,1,347,NaN,bear,boat,16-3-10,0347_eid_dnn_16-3-10_boat_10_n04273569_10665.png,n04273569_10665.png,0.0,-0.13615064,0.6627213,-0.56488776
alexnet_w1_mlp_simclrhn_probe3,1,348,NaN,oven,bear,64-3-10,0348_eid_dnn_64-3-10_bear_10_n02133161_5267.png,n02133161_5267.png,0.0,0.30775636,0.67891407,-0.26244813
alexnet_w1_mlp_simclrhn_probe3,1,349,NaN,oven,bear,128-3-10,0349_eid_dnn_128-3-10_bear_10_n02133161_5020.png,n02133161_5020.png,0.0,0.1215546,0.25534934,-0.09460717
alexnet_w1_mlp_simclrhn_probe3,1,350,NaN,oven,knife,128-3-10,0350_eid_dnn_128-3-10_knife_10_n03041632_21723.png,n03041632_21723.png,0.0,-0.18358944,0.5396981,-0.5114416
alexnet_w1_mlp_simclrhn_probe3,1,351,NaN,oven,boat,32-3-10,0351_eid_dnn_32-3-10_boat_10_n02951358_31101.png,n02951358_31101.png,0.0,-0.08204012,0.6850277,-0.54239887
alexnet_w1_mlp_simclrhn_probe3,1,352,NaN,dog,dog,128-3-10,0352_eid_dnn_128-3-10_dog_10_n02102177_4180.png,n02102177_4180.png,1.0,0.13241345,0.06594617,0.046999462
alexnet_w1_mlp_simclrhn_probe3,1,353,NaN,bottle,bottle,4-3-10,0353_eid_dnn_4-3-10_bottle_10_n04579145_4186.png,n04579145_4186.png,1.0,4.5374694,1.8860317,1.8748497
alexnet_w1_mlp_simclrhn_probe3,1,354,NaN,bear,bicycle,64-3-10,0354_eid_dnn_64-3-10_bicycle_10_n03792782_2246.png,n03792782_2246.png,0.0,-0.09078243,0.48136127,-0.40456668
alexnet_w1_mlp_simclrhn_probe3,1,355,NaN,dog,dog,1-3-10,0355_eid_dnn_1-3-10_dog_10_n02110958_1526.png,n02110958_1526.png,1.0,1.4991449,0.40159208,0.77608705
alexnet_w1_mlp_simclrhn_probe3,1,356,NaN,bear,keyboard,128-3-10,0356_eid_dnn_128-3-10_keyboard_10_n04505470_255.png,n04505470_255.png,0.0,-0.31217903,0.3224321,-0.44873783
alexnet_w1_mlp_simclrhn_probe3,1,357,NaN,bear,elephant,4-3-10,0357_eid_dnn_4-3-10_elephant_10_n02504458_1933.png,n02504458_1933.png,0.0,0.7765318,1.0577786,-0.19887151
alexnet_w1_mlp_simclrhn_probe3,1,358,NaN,cat,cat,2-3-10,0358_eid_dnn_2-3-10_cat_10_n02123159_5749.png,n02123159_5749.png,1.0,4.5032897,0.59678924,2.762313
alexnet_w1_mlp_simclrhn_probe3,1,359,NaN,keyboard,airplane,128-3-10,0359_eid_dnn_128-3-10_airplane_10_n02690373_2967.png,n02690373_2967.png,0.0,0.087652385,0.5028089,-0.29356
alexnet_w1_mlp_simclrhn_probe3,1,360,NaN,cat,chair,8-3-10,0360_eid_dnn_8-3-10_chair_10_n04099969_72.png,n04099969_72.png,0.0,-0.5804188,0.9488434,-1.0813518
alexnet_w1_mlp_simclrhn_probe3,1,361,NaN,oven,cat,32-3-10,0361_eid_dnn_32-3-10_cat_10_n02123045_4089.png,n02123045_4089.png,0.0,0.40910974,0.8391853,-0.30410933
alexnet_w1_mlp_simclrhn_probe3,1,362,NaN,keyboard,bird,128-3-10,0362_eid_dnn_128-3-10_bird_10_n01616318_13293.png,n01616318_13293.png,0.0,-0.4181663,0.57934344,-0.70534587
alexnet_w1_mlp_simclrhn_probe3,1,363,NaN,cat,cat,4-3-10,0363_eid_dnn_4-3-10_cat_10_n02124075_13719.png,n02124075_13719.png,1.0,1.839893,1.1398879,0.49497834
alexnet_w1_mlp_simclrhn_probe3,1,364,NaN,bear,oven,32-3-10,0364_eid_dnn_32-3-10_oven_10_n04111531_22466.png,n04111531_22466.png,0.0,0.6491471,0.9572101,-0.21783346
alexnet_w1_mlp_simclrhn_probe3,1,365,NaN,oven,airplane,128-3-10,0365_eid_dnn_128-3-10_airplane_10_n02690373_2525.png,n02690373_2525.png,0.0,-0.053841516,0.39795253,-0.31946662
alexnet_w1_mlp_simclrhn_probe3,1,366,NaN,cat,cat,1-3-10,0366_eid_dnn_1-3-10_cat_10_n02124075_5369.png,n02124075_5369.png,1.0,1.7743744,1.5161725,0.18257627
alexnet_w1_mlp_simclrhn_probe3,1,367,NaN,oven,bird,64-3-10,0367_eid_dnn_64-3-10_bird_10_n01843065_4182.png,n01843065_4182.png,0.0,-0.16957447,0.30431336,-0.3350893
alexnet_w1_mlp_simclrhn_probe3,1,368,NaN,truck,truck,2-3-10,0368_eid_dnn_2-3-10_truck_10_n03796401_6472.png,n03796401_6472.png,1.0,1.5124211,0.31038994,0.8499644
alexnet_w1_mlp_simclrhn_probe3,1,369,NaN,oven,airplane,64-3-10,0369_eid_dnn_64-3-10_airplane_10_n02690373_3090.png,n02690373_3090.png,0.0,0.078220665,1.2193426,-0.806895
alexnet_w1_mlp_simclrhn_probe3,1,370,NaN,oven,bear,64-3-10,0370_eid_dnn_64-3-10_bear_10_n02134418_2964.png,n02134418_2964.png,0.0,0.5415627,0.6400623,-0.06964973
alexnet_w1_mlp_simclrhn_probe3,1,371,NaN,elephant,elephant,16-3-10,0371_eid_dnn_16-3-10_elephant_10_n02504013_6904.png,n02504013_6904.png,1.0,2.5714664,2.5533369,0.012819555
alexnet_w1_mlp_simclrhn_probe3,1,372,NaN,bear,bottle,32-3-10,0372_eid_dnn_32-3-10_bottle_10_n02823428_13488.png,n02823428_13488.png,0.0,0.14501412,0.9759965,-0.5875933
alexnet_w1_mlp_simclrhn_probe3,1,373,NaN,car,car,1-3-10,0373_eid_dnn_1-3-10_car_10_n02814533_49499.png,n02814533_49499.png,1.0,10.685509,2.7459803,5.6140947
alexnet_w1_mlp_simclrhn_probe3,1,374,NaN,bicycle,clock,64-3-10,0374_eid_dnn_64-3-10_clock_10_n03196217_1000.png,n03196217_1000.png,0.0,-0.016199114,0.30147848,-0.22463198
alexnet_w1_mlp_simclrhn_probe3,1,375,NaN,bear,boat,16-3-10,0375_eid_dnn_16-3-10_boat_10_n04612504_13446.png,n04612504_13446.png,0.0,0.09468336,0.95233864,-0.6064539
alexnet_w1_mlp_simclrhn_probe3,1,376,NaN,cat,cat,8-3-10,0376_eid_dnn_8-3-10_cat_10_n02123159_7239.png,n02123159_7239.png,1.0,1.1675729,1.0805141,0.061559856
alexnet_w1_mlp_simclrhn_probe3,1,377,NaN,bear,airplane,8-3-10,0377_eid_dnn_8-3-10_airplane_10_n02690373_7499.png,n02690373_7499.png,0.0,-0.5019251,0.6796366,-0.8354903
alexnet_w1_mlp_simclrhn_probe3,1,378,NaN,oven,dog,64-3-10,0378_eid_dnn_64-3-10_dog_10_n02100877_8862.png,n02100877_8862.png,0.0,-0.044807892,0.5326174,-0.40830135
alexnet_w1_mlp_simclrhn_probe3,1,379,NaN,keyboard,keyboard,2-3-10,0379_eid_dnn_2-3-10_keyboard_10_n03085013_7152.png,n03085013_7152.png,1.0,3.8600914,0.9472227,2.0597093
alexnet_w1_mlp_simclrhn_probe3,1,380,NaN,oven,bottle,32-3-10,0380_eid_dnn_32-3-10_bottle_10_n03937543_3344.png,n03937543_3344.png,0.0,0.02511681,0.9704102,-0.6684234
alexnet_w1_mlp_simclrhn_probe3,1,381,NaN,bear,bicycle,64-3-10,0381_eid_dnn_64-3-10_bicycle_10_n02835271_1721.png,n02835271_1721.png,0.0,0.15522134,0.7916032,-0.44998994
alexnet_w1_mlp_simclrhn_probe3,1,382,NaN,boat,boat,2-3-10,0382_eid_dnn_2-3-10_boat_10_n04273569_7039.png,n04273569_7039.png,1.0,3.5201504,0.8957267,1.8557478
alexnet_w1_mlp_simclrhn_probe3,1,383,NaN,airplane,airplane,1-3-10,0383_eid_dnn_1-3-10_airplane_10_n02690373_5790.png,n02690373_5790.png,1.0,4.626807,1.4459367,2.2492151
alexnet_w1_mlp_simclrhn_probe3,1,384,NaN,elephant,bird,2-3-10,0384_eid_dnn_2-3-10_bird_10_n02007558_4629.png,n02007558_4629.png,0.0,1.4387441,2.0198932,-0.41093448
alexnet_w1_mlp_simclrhn_probe3,1,385,NaN,airplane,airplane,8-3-10,0385_eid_dnn_8-3-10_airplane_10_n02690373_2313.png,n02690373_2313.png,1.0,1.5951273,0.36680552,0.8685547
alexnet_w1_mlp_simclrhn_probe3,1,386,NaN,car,car,2-3-10,0386_eid_dnn_2-3-10_car_10_n02814533_65093.png,n02814533_65093.png,1.0,9.022346,4.2310762,3.387939
alexnet_w1_mlp_simclrhn_probe3,1,387,NaN,bicycle,bicycle,2-3-10,0387_eid_dnn_2-3-10_bicycle_10_n03792782_4559.png,n03792782_4559.png,1.0,3.7422638,0.15702505,2.5351467
alexnet_w1_mlp_simclrhn_probe3,1,388,NaN,oven,oven,2-3-10,0388_eid_dnn_2-3-10_oven_10_n04111531_16696.png,n04111531_16696.png,1.0,4.141304,1.8630502,1.6109687
alexnet_w1_mlp_simclrhn_probe3,1,389,NaN,oven,boat,32-3-10,0389_eid_dnn_32-3-10_boat_10_n04273569_5593.png,n04273569_5593.png,0.0,-0.035534482,0.640483,-0.4780166
alexnet_w1_mlp_simclrhn_probe3,1,390,NaN,oven,bottle,128-3-10,0390_eid_dnn_128-3-10_bottle_10_n03937543_6624.png,n03937543_6624.png,0.0,0.14760672,0.3666877,-0.15491365
alexnet_w1_mlp_simclrhn_probe3,1,391,NaN,airplane,airplane,1-3-10,0391_eid_dnn_1-3-10_airplane_10_n02690373_12436.png,n02690373_12436.png,1.0,5.4514627,3.0852818,1.6731426
alexnet_w1_mlp_simclrhn_probe3,1,392,NaN,bird,bird,2-3-10,0392_eid_dnn_2-3-10_bird_10_n01828970_6924.png,n01828970_6924.png,1.0,2.6099017,1.976553,0.44784516
alexnet_w1_mlp_simclrhn_probe3,1,393,NaN,airplane,airplane,4-3-10,0393_eid_dnn_4-3-10_airplane_10_n02690373_9605.png,n02690373_9605.png,1.0,1.599597,0.49093035,0.78394574
alexnet_w1_mlp_simclrhn_probe3,1,394,NaN,oven,truck,128-3-10,0394_eid_dnn_128-3-10_truck_10_n03796401_1335.png,n03796401_1335.png,0.0,-0.2478872,0.4413969,-0.48739746
alexnet_w1_mlp_simclrhn_probe3,1,395,NaN,oven,chair,64-3-10,0395_eid_dnn_64-3-10_chair_10_n04429376_10476.png,n04429376_10476.png,0.0,-0.029523663,0.81891334,-0.5999356
alexnet_w1_mlp_simclrhn_probe3,1,396,NaN,bottle,bottle,1-3-10,0396_eid_dnn_1-3-10_bottle_10_n04560804_32760.png,n04560804_32760.png,1.0,3.601032,0.5318101,2.1702678
alexnet_w1_mlp_simclrhn_probe3,1,397,NaN,oven,airplane,32-3-10,0397_eid_dnn_32-3-10_airplane_10_n02690373_10817.png,n02690373_10817.png,0.0,-0.023907885,0.64774776,-0.47493228
alexnet_w1_mlp_simclrhn_probe3,1,398,NaN,oven,car,32-3-10,0398_eid_dnn_32-3-10_car_10_n03100240_5946.png,n03100240_5946.png,0.0,-0.39618072,1.0878862,-1.0493938
alexnet_w1_mlp_simclrhn_probe3,1,399,NaN,bear,clock,64-3-10,0399_eid_dnn_64-3-10_clock_10_n02708093_2875.png,n02708093_2875.png,0.0,0.08704943,0.93083596,-0.5966472
alexnet_w1_mlp_simclrhn_probe3,1,400,NaN,bear,bear,2-3-10,0400_eid_dnn_2-3-10_bear_10_n02133161_2456.png,n02133161_2456.png,1.0,4.3714437,1.6121389,1.9511234
alexnet_w1_mlp_simclrhn_probe3,1,401,NaN,bear,bird,8-3-10,0401_eid_dnn_8-3-10_bird_10_n01855672_15317.png,n01855672_15317.png,0.0,-0.261335,1.4235468,-1.1913913
alexnet_w1_mlp_simclrhn_probe3,1,402,NaN,dog,dog,8-3-10,0402_eid_dnn_8-3-10_dog_10_n02098286_2242.png,n02098286_2242.png,1.0,1.4285247,0.6367613,0.5598613
alexnet_w1_mlp_simclrhn_probe3,1,403,NaN,boat,knife,2-3-10,0403_eid_dnn_2-3-10_knife_10_n03041632_43289.png,n03041632_43289.png,0.0,0.6295984,1.3392406,-0.5017928
alexnet_w1_mlp_simclrhn_probe3,1,404,NaN,bottle,bottle,4-3-10,0404_eid_dnn_4-3-10_bottle_10_n02823428_4387.png,n02823428_4387.png,1.0,4.2445903,3.093514,0.8139339
alexnet_w1_mlp_simclrhn_probe3,1,405,NaN,oven,knife,64-3-10,0405_eid_dnn_64-3-10_knife_10_n03041632_13194.png,n03041632_13194.png,0.0,0.017698586,0.8331814,-0.57663345
alexnet_w1_mlp_simclrhn_probe3,1,406,NaN,airplane,airplane,8-3-10,0406_eid_dnn_8-3-10_airplane_10_n02690373_7465.png,n02690373_7465.png,1.0,1.1795218,0.50694025,0.47558698
alexnet_w1_mlp_simclrhn_probe3,1,407,NaN,bear,bird,4-3-10,0407_eid_dnn_4-3-10_bird_10_n02018207_2282.png,n02018207_2282.png,0.0,0.1847721,0.29679453,-0.07921182
alexnet_w1_mlp_simclrhn_probe3,1,408,NaN,oven,chair,64-3-10,0408_eid_dnn_64-3-10_chair_10_n04099969_34351.png,n04099969_34351.png,0.0,0.060348302,0.5255058,-0.328916
alexnet_w1_mlp_simclrhn_probe3,1,409,NaN,oven,bottle,64-3-10,0409_eid_dnn_64-3-10_bottle_10_n03937543_49.png,n03937543_49.png,0.0,0.12489766,0.31145895,-0.13191876
alexnet_w1_mlp_simclrhn_probe3,1,410,NaN,bicycle,bicycle,8-3-10,0410_eid_dnn_8-3-10_bicycle_10_n03792782_9833.png,n03792782_9833.png,1.0,0.8726589,0.5028027,0.2615278
alexnet_w1_mlp_simclrhn_probe3,1,411,NaN,bottle,clock,4-3-10,0411_eid_dnn_4-3-10_clock_10_n03196217_10384.png,n03196217_10384.png,0.0,0.7755317,1.7143962,-0.6638775
alexnet_w1_mlp_simclrhn_probe3,1,412,NaN,oven,truck,64-3-10,0412_eid_dnn_64-3-10_truck_10_n04467665_4492.png,n04467665_4492.png,0.0,-0.3741554,0.5205583,-0.6326581
alexnet_w1_mlp_simclrhn_probe3,1,413,NaN,oven,bottle,128-3-10,0413_eid_dnn_128-3-10_bottle_10_n03983396_5148.png,n03983396_5148.png,0.0,0.08920217,0.1635206,-0.05255107
alexnet_w1_mlp_simclrhn_probe3,1,414,NaN,oven,clock,128-3-10,0414_eid_dnn_128-3-10_clock_10_n04548280_4364.png,n04548280_4364.png,0.0,-0.056221236,0.35627666,-0.29168007
alexnet_w1_mlp_simclrhn_probe3,1,415,NaN,cat,cat,1-3-10,0415_eid_dnn_1-3-10_cat_10_n02123394_6792.png,n02123394_6792.png,1.0,2.5499337,1.0700046,1.0464679
alexnet_w1_mlp_simclrhn_probe3,1,416,NaN,oven,oven,16-3-10,0416_eid_dnn_16-3-10_oven_10_n04111531_1298.png,n04111531_1298.png,1.0,1.1002834,0.956647,0.10156628
alexnet_w1_mlp_simclrhn_probe3,1,417,NaN,oven,clock,8-3-10,0417_eid_dnn_8-3-10_clock_10_n04548280_2334.png,n04548280_2334.png,0.0,0.08672396,1.0567639,-0.6859218
alexnet_w1_mlp_simclrhn_probe3,1,418,NaN,oven,car,32-3-10,0418_eid_dnn_32-3-10_car_10_n04285008_15570.png,n04285008_15570.png,0.0,-0.27042595,1.3119725,-1.1189246
alexnet_w1_mlp_simclrhn_probe3,1,419,NaN,oven,dog,32-3-10,0419_eid_dnn_32-3-10_dog_10_n02087394_7569.png,n02087394_7569.png,0.0,-0.011076106,0.5467168,-0.39441916
alexnet_w1_mlp_simclrhn_probe3,1,420,NaN,oven,clock,32-3-10,0420_eid_dnn_32-3-10_clock_10_n03196217_11445.png,n03196217_11445.png,0.0,-0.22117941,0.6483805,-0.61487174
alexnet_w1_mlp_simclrhn_probe3,1,421,NaN,bear,chair,32-3-10,0421_eid_dnn_32-3-10_chair_10_n04099969_3095.png,n04099969_3095.png,0.0,-0.024450593,0.54287595,-0.40116045
alexnet_w1_mlp_simclrhn_probe3,1,422,NaN,bear,bird,64-3-10,0422_eid_dnn_64-3-10_bird_10_n01601694_935.png,n01601694_935.png,0.0,-0.13725956,0.24707016,-0.27176216
alexnet_w1_mlp_simclrhn_probe3,1,423,NaN,cat,bird,2-3-10,0423_eid_dnn_2-3-10_bird_10_n01592084_3570.png,n01592084_3570.png,0.0,0.02222322,1.8430271,-1.2875028
alexnet_w1_mlp_simclrhn_probe3,1,424,NaN,oven,dog,64-3-10,0424_eid_dnn_64-3-10_dog_10_n02090379_605.png,n02090379_605.png,0.0,0.013412627,0.65014845,-0.4502402
alexnet_w1_mlp_simclrhn_probe3,1,425,NaN,airplane,airplane,1-3-10,0425_eid_dnn_1-3-10_airplane_10_n02690373_3912.png,n02690373_3912.png,1.0,4.66924,0.94102794,2.636244
alexnet_w1_mlp_simclrhn_probe3,1,426,NaN,keyboard,oven,128-3-10,0426_eid_dnn_128-3-10_oven_10_n04111531_986.png,n04111531_986.png,0.0,-0.06556162,0.08906134,-0.10933495
alexnet_w1_mlp_simclrhn_probe3,1,427,NaN,oven,knife,32-3-10,0427_eid_dnn_32-3-10_knife_10_n03041632_23736.png,n03041632_23736.png,0.0,0.06679951,0.74320704,-0.47829235
alexnet_w1_mlp_simclrhn_probe3,1,428,NaN,clock,clock,4-3-10,0428_eid_dnn_4-3-10_clock_10_n04548280_10686.png,n04548280_10686.png,1.0,0.4240595,0.23923568,0.13069019
alexnet_w1_mlp_simclrhn_probe3,1,429,NaN,bear,oven,32-3-10,0429_eid_dnn_32-3-10_oven_10_n04111531_21460.png,n04111531_21460.png,0.0,1.0666978,1.2823277,-0.1524733
alexnet_w1_mlp_simclrhn_probe3,1,430,NaN,oven,bottle,32-3-10,0430_eid_dnn_32-3-10_bottle_10_n04557648_3675.png,n04557648_3675.png,0.0,0.10375355,1.0279444,-0.65350163
alexnet_w1_mlp_simclrhn_probe3,1,431,NaN,oven,chair,8-3-10,0431_eid_dnn_8-3-10_chair_10_n02791124_495.png,n02791124_495.png,0.0,-0.48288435,0.8389922,-0.9347079
alexnet_w1_mlp_simclrhn_probe3,1,432,NaN,oven,chair,128-3-10,0432_eid_dnn_128-3-10_chair_10_n04429376_9165.png,n04429376_9165.png,0.0,-0.07756726,0.35855046,-0.3083818
alexnet_w1_mlp_simclrhn_probe3,1,433,NaN,clock,clock,1-3-10,0433_eid_dnn_1-3-10_clock_10_n04548280_2937.png,n04548280_2937.png,1.0,1.3147354,0.359586,0.6753926
alexnet_w1_mlp_simclrhn_probe3,1,434,NaN,bear,bear,32-3-10,0434_eid_dnn_32-3-10_bear_10_n02134418_5849.png,n02134418_5849.png,1.0,0.7153375,0.4383451,0.19586322
alexnet_w1_mlp_simclrhn_probe3,1,435,NaN,keyboard,bottle,128-3-10,0435_eid_dnn_128-3-10_bottle_10_n04560804_2521.png,n04560804_2521.png,0.0,0.09478537,0.33293968,-0.16840054
alexnet_w1_mlp_simclrhn_probe3,1,436,NaN,cat,car,8-3-10,0436_eid_dnn_8-3-10_car_10_n04285008_11600.png,n04285008_11600.png,0.0,-1.0720414,1.0297855,-1.4862161
alexnet_w1_mlp_simclrhn_probe3,1,437,NaN,knife,knife,2-3-10,0437_eid_dnn_2-3-10_knife_10_n03041632_79317.png,n03041632_79317.png,1.0,1.6561985,0.13416487,1.0762404
alexnet_w1_mlp_simclrhn_probe3,1,438,NaN,bear,truck,32-3-10,0438_eid_dnn_32-3-10_truck_10_n03417042_6467.png,n03417042_6467.png,0.0,-0.2578206,1.2174695,-1.0431876
alexnet_w1_mlp_simclrhn_probe3,1,439,NaN,knife,airplane,64-3-10,0439_eid_dnn_64-3-10_airplane_10_n02690373_303.png,n02690373_303.png,0.0,-0.060286254,0.11313167,-0.12262499
alexnet_w1_mlp_simclrhn_probe3,1,440,NaN,bear,chair,64-3-10,0440_eid_dnn_64-3-10_chair_10_n04099969_2354.png,n04099969_2354.png,0.0,0.10522566,0.8024944,-0.49304345
alexnet_w1_mlp_simclrhn_probe3,1,441,NaN,elephant,clock,128-3-10,0441_eid_dnn_128-3-10_clock_10_n04548280_377.png,n04548280_377.png,0.0,0.042941604,0.18449941,-0.100096494
alexnet_w1_mlp_simclrhn_probe3,1,442,NaN,bear,bicycle,32-3-10,0442_eid_dnn_32-3-10_bicycle_10_n03792782_11597.png,n03792782_11597.png,0.0,0.19945277,0.21092364,-0.0081111295
alexnet_w1_mlp_simclrhn_probe3,1,443,NaN,bottle,bottle,2-3-10,0443_eid_dnn_2-3-10_bottle_10_n04579145_215.png,n04579145_215.png,1.0,3.7978976,0.35306865,2.435862
alexnet_w1_mlp_simclrhn_probe3,1,444,NaN,car,car,4-3-10,0444_eid_dnn_4-3-10_car_10_n02814533_95669.png,n02814533_95669.png,1.0,5.151216,2.4757102,1.8918684
alexnet_w1_mlp_simclrhn_probe3,1,445,NaN,oven,chair,32-3-10,0445_eid_dnn_32-3-10_chair_10_n04429376_51025.png,n04429376_51025.png,0.0,-0.044745892,0.96205723,-0.71191734
alexnet_w1_mlp_simclrhn_probe3,1,446,NaN,cat,cat,4-3-10,0446_eid_dnn_4-3-10_cat_10_n02123045_2757.png,n02123045_2757.png,1.0,4.5582805,1.8071085,1.9453725
alexnet_w1_mlp_simclrhn_probe3,1,447,NaN,bottle,bottle,4-3-10,0447_eid_dnn_4-3-10_bottle_10_n03937543_2135.png,n03937543_2135.png,1.0,1.111439,0.23142147,0.62226635
alexnet_w1_mlp_simclrhn_probe3,1,448,NaN,bird,bird,2-3-10,0448_eid_dnn_2-3-10_bird_10_n01855032_7457.png,n01855032_7457.png,1.0,1.6803888,1.0890405,0.4181464
alexnet_w1_mlp_simclrhn_probe3,1,449,NaN,bear,car,16-3-10,0449_eid_dnn_16-3-10_car_10_n02814533_24935.png,n02814533_24935.png,0.0,-0.5065117,1.1577549,-1.1768142
alexnet_w1_mlp_simclrhn_probe3,1,450,NaN,oven,keyboard,4-3-10,0450_eid_dnn_4-3-10_keyboard_10_n04505470_1371.png,n04505470_1371.png,0.0,0.584015,3.3857217,-1.9811059
alexnet_w1_mlp_simclrhn_probe3,1,451,NaN,bear,dog,16-3-10,0451_eid_dnn_16-3-10_dog_10_n02099267_2379.png,n02099267_2379.png,0.0,0.206189,1.3978221,-0.84261185
alexnet_w1_mlp_simclrhn_probe3,1,452,NaN,cat,cat,8-3-10,0452_eid_dnn_8-3-10_cat_10_n02123394_8009.png,n02123394_8009.png,1.0,1.3824415,0.54760015,0.590322
alexnet_w1_mlp_simclrhn_probe3,1,453,NaN,keyboard,keyboard,2-3-10,0453_eid_dnn_2-3-10_keyboard_10_n03085013_29042.png,n03085013_29042.png,1.0,2.3802261,1.2350024,0.8097955
alexnet_w1_mlp_simclrhn_probe3,1,454,NaN,oven,airplane,128-3-10,0454_eid_dnn_128-3-10_airplane_10_n02690373_2131.png,n02690373_2131.png,0.0,-0.15844657,0.56467825,-0.51132643
alexnet_w1_mlp_simclrhn_probe3,1,455,NaN,cat,car,8-3-10,0455_eid_dnn_8-3-10_car_10_n03100240_327.png,n03100240_327.png,0.0,-0.980319,0.95950896,-1.3716655
alexnet_w1_mlp_simclrhn_probe3,1,456,NaN,elephant,elephant,2-3-10,0456_eid_dnn_2-3-10_elephant_10_n02504458_4163.png,n02504458_4163.png,1.0,9.362994,3.8132691,3.9242482
alexnet_w1_mlp_simclrhn_probe3,1,457,NaN,knife,knife,1-3-10,0457_eid_dnn_1-3-10_knife_10_n03041632_9635.png,n03041632_9635.png,1.0,1.3978977,0.741971,0.46381024
alexnet_w1_mlp_simclrhn_probe3,1,458,NaN,bear,airplane,16-3-10,0458_eid_dnn_16-3-10_airplane_10_n02690373_1044.png,n02690373_1044.png,0.0,0.4934016,1.5855501,-0.7722657
alexnet_w1_mlp_simclrhn_probe3,1,459,NaN,bear,bottle,16-3-10,0459_eid_dnn_16-3-10_bottle_10_n04560804_5441.png,n04560804_5441.png,0.0,0.05986821,0.5604793,-0.3539855
alexnet_w1_mlp_simclrhn_probe3,1,460,NaN,cat,cat,8-3-10,0460_eid_dnn_8-3-10_cat_10_n02123159_988.png,n02123159_988.png,1.0,1.3332857,0.5837817,0.52997935
alexnet_w1_mlp_simclrhn_probe3,1,461,NaN,oven,bird,64-3-10,0461_eid_dnn_64-3-10_bird_10_n01843383_4667.png,n01843383_4667.png,0.0,-0.31067693,0.8975016,-0.8543112
alexnet_w1_mlp_simclrhn_probe3,1,462,NaN,airplane,airplane,2-3-10,0462_eid_dnn_2-3-10_airplane_10_n02690373_6978.png,n02690373_6978.png,1.0,3.235804,1.5892923,1.1642597
alexnet_w1_mlp_simclrhn_probe3,1,463,NaN,keyboard,chair,128-3-10,0463_eid_dnn_128-3-10_chair_10_n04099969_5901.png,n04099969_5901.png,0.0,0.03610553,0.52864516,-0.34827814
alexnet_w1_mlp_simclrhn_probe3,1,464,NaN,bear,truck,8-3-10,0464_eid_dnn_8-3-10_truck_10_n03417042_29849.png,n03417042_29849.png,0.0,-0.26127058,2.0153008,-1.609779
alexnet_w1_mlp_simclrhn_probe3,1,465,NaN,airplane,airplane,1-3-10,0465_eid_dnn_1-3-10_airplane_10_n02690373_427.png,n02690373_427.png,1.0,2.6237178,0.3817168,1.5853342
alexnet_w1_mlp_simclrhn_probe3,1,466,NaN,bottle,bottle,4-3-10,0466_eid_dnn_4-3-10_bottle_10_n03983396_2305.png,n03983396_2305.png,1.0,3.560538,2.524507,0.73258454
alexnet_w1_mlp_simclrhn_probe3,1,467,NaN,oven,oven,64-3-10,0467_eid_dnn_64-3-10_oven_10_n04111531_15296.png,n04111531_15296.png,1.0,0.37773675,0.15171579,0.15982096
alexnet_w1_mlp_simclrhn_probe3,1,468,NaN,cat,cat,4-3-10,0468_eid_dnn_4-3-10_cat_10_n02123159_6728.png,n02123159_6728.png,1.0,1.7436581,0.96816856,0.5483539
alexnet_w1_mlp_simclrhn_probe3,1,469,NaN,elephant,elephant,4-3-10,0469_eid_dnn_4-3-10_elephant_10_n02504458_12449.png,n02504458_12449.png,1.0,5.4737954,3.034867,1.7245828
alexnet_w1_mlp_simclrhn_probe3,1,470,NaN,oven,elephant,128-3-10,0470_eid_dnn_128-3-10_elephant_10_n02504458_12165.png,n02504458_12165.png,0.0,0.26309904,0.7423058,-0.33885035
alexnet_w1_mlp_simclrhn_probe3,1,471,NaN,bear,airplane,8-3-10,0471_eid_dnn_8-3-10_airplane_10_n02690373_5010.png,n02690373_5010.png,0.0,0.34675312,0.9845406,-0.45098385
alexnet_w1_mlp_simclrhn_probe3,1,472,NaN,oven,dog,64-3-10,0472_eid_dnn_64-3-10_dog_10_n02100236_4549.png,n02100236_4549.png,0.0,0.0543568,0.256379,-0.14285128
alexnet_w1_mlp_simclrhn_probe3,1,473,NaN,boat,boat,4-3-10,0473_eid_dnn_4-3-10_boat_10_n03344393_4289.png,n03344393_4289.png,1.0,3.2173648,2.222171,0.70370823
alexnet_w1_mlp_simclrhn_probe3,1,474,NaN,oven,chair,64-3-10,0474_eid_dnn_64-3-10_chair_10_n04099969_48169.png,n04099969_48169.png,0.0,0.026074536,0.5811686,-0.39251077
alexnet_w1_mlp_simclrhn_probe3,1,475,NaN,airplane,airplane,4-3-10,0475_eid_dnn_4-3-10_airplane_10_n02690373_1996.png,n02690373_1996.png,1.0,3.7331915,0.6174491,2.2031627
alexnet_w1_mlp_simclrhn_probe3,1,476,NaN,keyboard,truck,128-3-10,0476_eid_dnn_128-3-10_truck_10_n03417042_28078.png,n03417042_28078.png,0.0,-0.23996624,0.41768926,-0.46503267
alexnet_w1_mlp_simclrhn_probe3,1,477,NaN,oven,truck,8-3-10,0477_eid_dnn_8-3-10_truck_10_n04467665_3098.png,n04467665_3098.png,0.0,-0.054259844,1.5591177,-1.1408303
alexnet_w1_mlp_simclrhn_probe3,1,478,NaN,elephant,elephant,4-3-10,0478_eid_dnn_4-3-10_elephant_10_n02504458_847.png,n02504458_847.png,1.0,5.5035353,3.9724483,1.082642
alexnet_w1_mlp_simclrhn_probe3,1,479,NaN,cat,bicycle,8-3-10,0479_eid_dnn_8-3-10_bicycle_10_n03792782_5880.png,n03792782_5880.png,0.0,-0.41497138,1.5697203,-1.403389
alexnet_w1_mlp_simclrhn_probe3,1,480,NaN,oven,bear,128-3-10,0480_eid_dnn_128-3-10_bear_10_n02132136_30976.png,n02132136_30976.png,0.0,0.0354036,0.52023745,-0.3428293
alexnet_w1_mlp_simclrhn_probe3,1,481,NaN,oven,chair,64-3-10,0481_eid_dnn_64-3-10_chair_10_n02791124_2057.png,n02791124_2057.png,0.0,-0.061749328,0.43349358,-0.35018963
alexnet_w1_mlp_simclrhn_probe3,1,482,NaN,oven,keyboard,128-3-10,0482_eid_dnn_128-3-10_keyboard_10_n03085013_7286.png,n03085013_7286.png,0.0,0.05506668,0.41078538,-0.25153112
alexnet_w1_mlp_simclrhn_probe3,1,483,NaN,oven,clock,32-3-10,0483_eid_dnn_32-3-10_clock_10_n04548280_1323.png,n04548280_1323.png,0.0,0.041130383,0.83773875,-0.5632872
alexnet_w1_mlp_simclrhn_probe3,1,484,NaN,elephant,bottle,128-3-10,0484_eid_dnn_128-3-10_bottle_10_n03983396_18508.png,n03983396_18508.png,0.0,0.122650854,0.1718761,-0.034807507
alexnet_w1_mlp_simclrhn_probe3,1,485,NaN,cat,bottle,8-3-10,0485_eid_dnn_8-3-10_bottle_10_n03983396_3880.png,n03983396_3880.png,0.0,0.17008291,1.2467556,-0.76132256
alexnet_w1_mlp_simclrhn_probe3,1,486,NaN,keyboard,dog,128-3-10,0486_eid_dnn_128-3-10_dog_10_n02095570_601.png,n02095570_601.png,0.0,-0.095801115,0.45592535,-0.39012954
alexnet_w1_mlp_simclrhn_probe3,1,487,NaN,oven,bird,32-3-10,0487_eid_dnn_32-3-10_bird_10_n01797886_21510.png,n01797886_21510.png,0.0,-0.19305936,0.4955269,-0.486904
alexnet_w1_mlp_simclrhn_probe3,1,488,NaN,chair,chair,1-3-10,0488_eid_dnn_1-3-10_chair_10_n04099969_9425.png,n04099969_9425.png,1.0,2.8789053,2.3084826,0.40334973
alexnet_w1_mlp_simclrhn_probe3,1,489,NaN,cat,keyboard,8-3-10,0489_eid_dnn_8-3-10_keyboard_10_n04505470_4228.png,n04505470_4228.png,0.0,-0.7336539,1.3526087,-1.4752105
alexnet_w1_mlp_simclrhn_probe3,1,490,NaN,bear,elephant,32-3-10,0490_eid_dnn_32-3-10_elephant_10_n02504013_7553.png,n02504013_7553.png,0.0,0.22900602,0.649811,-0.29755408
alexnet_w1_mlp_simclrhn_probe3,1,491,NaN,oven,cat,64-3-10,0491_eid_dnn_64-3-10_cat_10_n02125311_8090.png,n02125311_8090.png,0.0,-0.11302227,0.54637945,-0.46626744
alexnet_w1_mlp_simclrhn_probe3,1,492,NaN,oven,keyboard,8-3-10,0492_eid_dnn_8-3-10_keyboard_10_n04505470_10041.png,n04505470_10041.png,0.0,-0.42022485,2.149815,-1.8172927
alexnet_w1_mlp_simclrhn_probe3,1,493,NaN,oven,bicycle,4-3-10,0493_eid_dnn_4-3-10_bicycle_10_n03792782_1833.png,n03792782_1833.png,0.0,0.4888734,1.4642227,-0.6896761
alexnet_w1_mlp_simclrhn_probe3,1,494,NaN,oven,bottle,4-3-10,0494_eid_dnn_4-3-10_bottle_10_n04557648_11642.png,n04557648_11642.png,0.0,0.5474773,1.0573695,-0.36054823
alexnet_w1_mlp_simclrhn_probe3,1,495,NaN,keyboard,car,128-3-10,0495_eid_dnn_128-3-10_car_10_n03100240_7219.png,n03100240_7219.png,0.0,-0.5483804,0.51741207,-0.7536291
alexnet_w1_mlp_simclrhn_probe3,1,496,NaN,car,truck,1-3-10,0496_eid_dnn_1-3-10_truck_10_n03796401_9642.png,n03796401_9642.png,0.0,6.200287,9.4259615,-2.2808964
alexnet_w1_mlp_simclrhn_probe3,1,497,NaN,oven,cat,1-3-10,0497_eid_dnn_1-3-10_cat_10_n02125311_13348.png,n02125311_13348.png,0.0,0.41847095,1.8306653,-0.99857223
alexnet_w1_mlp_simclrhn_probe3,1,498,NaN,bicycle,bottle,128-3-10,0498_eid_dnn_128-3-10_bottle_10_n04560804_5540.png,n04560804_5540.png,0.0,0.026068863,0.28464705,-0.18284239
alexnet_w1_mlp_simclrhn_probe3,1,499,NaN,bottle,bottle,4-3-10,0499_eid_dnn_4-3-10_bottle_10_n03983396_9604.png,n03983396_9604.png,1.0,5.857621,1.1656021,3.3177586
alexnet_w1_mlp_simclrhn_probe3,1,500,NaN,oven,truck,32-3-10,0500_eid_dnn_32-3-10_truck_10_n03417042_5180.png,n03417042_5180.png,0.0,-0.23700479,0.68600094,-0.6526636
alexnet_w1_mlp_simclrhn_probe3,1,501,NaN,oven,dog,16-3-10,0501_eid_dnn_16-3-10_dog_10_n02109525_3364.png,n02109525_3364.png,0.0,0.32985914,0.76169884,-0.3053568
alexnet_w1_mlp_simclrhn_probe3,1,502,NaN,oven,clock,2-3-10,0502_eid_dnn_2-3-10_clock_10_n04548280_353.png,n04548280_353.png,0.0,0.44220498,1.7219521,-0.9049179
alexnet_w1_mlp_simclrhn_probe3,1,503,NaN,dog,dog,1-3-10,0503_eid_dnn_1-3-10_dog_10_n02111129_4423.png,n02111129_4423.png,1.0,2.1652005,2.0575252,0.076137945
alexnet_w1_mlp_simclrhn_probe3,1,504,NaN,bear,dog,16-3-10,0504_eid_dnn_16-3-10_dog_10_n02108000_1538.png,n02108000_1538.png,0.0,0.13456604,0.8687085,-0.5191171
alexnet_w1_mlp_simclrhn_probe3,1,505,NaN,bear,keyboard,16-3-10,0505_eid_dnn_16-3-10_keyboard_10_n03085013_3439.png,n03085013_3439.png,0.0,-0.35941252,1.0538385,-0.99931943
alexnet_w1_mlp_simclrhn_probe3,1,506,NaN,bear,truck,8-3-10,0506_eid_dnn_8-3-10_truck_10_n03417042_4016.png,n03417042_4016.png,0.0,-0.18583757,1.1438295,-0.94021666
alexnet_w1_mlp_simclrhn_probe3,1,507,NaN,oven,knife,32-3-10,0507_eid_dnn_32-3-10_knife_10_n03041632_39883.png,n03041632_39883.png,0.0,0.10151264,0.893968,-0.56035054
alexnet_w1_mlp_simclrhn_probe3,1,508,NaN,bear,bear,16-3-10,0508_eid_dnn_16-3-10_bear_10_n02132136_21181.png,n02132136_21181.png,1.0,0.83001685,0.57487285,0.18041405
alexnet_w1_mlp_simclrhn_probe3,1,509,NaN,elephant,elephant,8-3-10,0509_eid_dnn_8-3-10_elephant_10_n02504013_718.png,n02504013_718.png,1.0,2.4494884,2.1700466,0.19759522
alexnet_w1_mlp_simclrhn_probe3,1,510,NaN,oven,oven,2-3-10,0510_eid_dnn_2-3-10_oven_10_n04111531_4146.png,n04111531_4146.png,1.0,4.8257203,1.724025,2.19323
alexnet_w1_mlp_simclrhn_probe3,1,511,NaN,airplane,airplane,8-3-10,0511_eid_dnn_8-3-10_airplane_10_n02690373_10769.png,n02690373_10769.png,1.0,0.6993226,0.6727382,0.018798001
alexnet_w1_mlp_simclrhn_probe3,1,512,NaN,dog,dog,16-3-10,0512_eid_dnn_16-3-10_dog_10_n02109525_4516.png,n02109525_4516.png,1.0,1.2185341,0.79524416,0.2993112
alexnet_w1_mlp_simclrhn_probe3,1,513,NaN,elephant,boat,4-3-10,0513_eid_dnn_4-3-10_boat_10_n02951358_12333.png,n02951358_12333.png,0.0,1.2193128,1.7227128,-0.35595754
alexnet_w1_mlp_simclrhn_probe3,1,514,NaN,cat,chair,8-3-10,0514_eid_dnn_8-3-10_chair_10_n04099969_20421.png,n04099969_20421.png,0.0,-0.15866211,1.294334,-1.0274234
alexnet_w1_mlp_simclrhn_probe3,1,515,NaN,cat,knife,4-3-10,0515_eid_dnn_4-3-10_knife_10_n03041632_21165.png,n03041632_21165.png,0.0,0.7581897,1.1982896,-0.31119767
alexnet_w1_mlp_simclrhn_probe3,1,516,NaN,bicycle,bicycle,1-3-10,0516_eid_dnn_1-3-10_bicycle_10_n02835271_21439.png,n02835271_21439.png,1.0,3.58946,0.6839667,2.054494
alexnet_w1_mlp_simclrhn_probe3,1,517,NaN,boat,boat,1-3-10,0517_eid_dnn_1-3-10_boat_10_n04273569_24526.png,n04273569_24526.png,1.0,3.2322185,2.2237377,0.7131036
alexnet_w1_mlp_simclrhn_probe3,1,518,NaN,bear,bottle,32-3-10,0518_eid_dnn_32-3-10_bottle_10_n04579145_2276.png,n04579145_2276.png,0.0,0.037960343,0.8291351,-0.5594451
alexnet_w1_mlp_simclrhn_probe3,1,519,NaN,bear,bear,8-3-10,0519_eid_dnn_8-3-10_bear_10_n02134418_1642.png,n02134418_1642.png,1.0,1.7716423,1.034235,0.5214257
alexnet_w1_mlp_simclrhn_probe3,1,520,NaN,bicycle,bicycle,1-3-10,0520_eid_dnn_1-3-10_bicycle_10_n02835271_15468.png,n02835271_15468.png,1.0,9.996141,1.8425342,5.765471
alexnet_w1_mlp_simclrhn_probe3,1,521,NaN,oven,keyboard,64-3-10,0521_eid_dnn_64-3-10_keyboard_10_n03085013_26532.png,n03085013_26532.png,0.0,-0.1890302,0.1899662,-0.26799092
alexnet_w1_mlp_simclrhn_probe3,1,522,NaN,oven,clock,64-3-10,0522_eid_dnn_64-3-10_clock_10_n03196217_6809.png,n03196217_6809.png,0.0,0.030207502,0.42616284,-0.2799827
alexnet_w1_mlp_simclrhn_probe3,1,523,NaN,oven,bear,64-3-10,0523_eid_dnn_64-3-10_bear_10_n02134418_4384.png,n02134418_4384.png,0.0,0.3919486,0.3974233,-0.003871188
alexnet_w1_mlp_simclrhn_probe3,1,524,NaN,elephant,dog,4-3-10,0524_eid_dnn_4-3-10_dog_10_n02086240_1183.png,n02086240_1183.png,0.0,0.52733034,0.8694677,-0.24192764
alexnet_w1_mlp_simclrhn_probe3,1,525,NaN,bicycle,chair,1-3-10,0525_eid_dnn_1-3-10_chair_10_n04429376_294.png,n04429376_294.png,0.0,0.8152107,0.88466156,-0.049109172
alexnet_w1_mlp_simclrhn_probe3,1,526,NaN,oven,clock,64-3-10,0526_eid_dnn_64-3-10_clock_10_n02708093_4893.png,n02708093_4893.png,0.0,0.0024099525,0.6250535,-0.44027552
alexnet_w1_mlp_simclrhn_probe3,1,527,NaN,oven,keyboard,64-3-10,0527_eid_dnn_64-3-10_keyboard_10_n03085013_3098.png,n03085013_3098.png,0.0,-0.36932534,0.58585405,-0.67541385
alexnet_w1_mlp_simclrhn_probe3,1,528,NaN,bear,cat,16-3-10,0528_eid_dnn_16-3-10_cat_10_n02125311_22073.png,n02125311_22073.png,0.0,-0.12697394,0.689275,-0.5771752
alexnet_w1_mlp_simclrhn_probe3,1,529,NaN,bicycle,bird,2-3-10,0529_eid_dnn_2-3-10_bird_10_n01558993_869.png,n01558993_869.png,0.0,0.030392263,0.6965778,-0.4710643
alexnet_w1_mlp_simclrhn_probe3,1,530,NaN,bird,bird,1-3-10,0530_eid_dnn_1-3-10_bird_10_n01817953_8025.png,n01817953_8025.png,1.0,2.3551168,1.2810248,0.75949776
alexnet_w1_mlp_simclrhn_probe3,1,531,NaN,oven,chair,2-3-10,0531_eid_dnn_2-3-10_chair_10_n04099969_24235.png,n04099969_24235.png,0.0,1.0888762,2.8939629,-1.276389
alexnet_w1_mlp_simclrhn_probe3,1,532,NaN,oven,knife,128-3-10,0532_eid_dnn_128-3-10_knife_10_n03041632_1201.png,n03041632_1201.png,0.0,-0.12402278,0.5077981,-0.44676483
alexnet_w1_mlp_simclrhn_probe3,1,533,NaN,bear,bicycle,4-3-10,0533_eid_dnn_4-3-10_bicycle_10_n03792782_16212.png,n03792782_16212.png,0.0,-0.15090784,1.3790039,-1.081811
alexnet_w1_mlp_simclrhn_probe3,1,534,NaN,oven,oven,4-3-10,0534_eid_dnn_4-3-10_oven_10_n04111531_11655.png,n04111531_11655.png,1.0,1.6930556,0.60319763,0.77064604
alexnet_w1_mlp_simclrhn_probe3,1,535,NaN,bear,bicycle,16-3-10,0535_eid_dnn_16-3-10_bicycle_10_n02835271_5152.png,n02835271_5152.png,0.0,-0.005223483,1.5745186,-1.1170464
alexnet_w1_mlp_simclrhn_probe3,1,536,NaN,bear,bear,16-3-10,0536_eid_dnn_16-3-10_bear_10_n02132136_19290.png,n02132136_19290.png,1.0,0.6064322,0.25701407,0.24707593
alexnet_w1_mlp_simclrhn_probe3,1,537,NaN,oven,car,32-3-10,0537_eid_dnn_32-3-10_car_10_n03100240_6103.png,n03100240_6103.png,0.0,-0.2920781,0.7886903,-0.76421875
alexnet_w1_mlp_simclrhn_probe3,1,538,NaN,oven,airplane,16-3-10,0538_eid_dnn_16-3-10_airplane_10_n02690373_5714.png,n02690373_5714.png,0.0,0.13880692,0.51105267,-0.26321748
alexnet_w1_mlp_simclrhn_probe3,1,539,NaN,bottle,chair,1-3-10,0539_eid_dnn_1-3-10_chair_10_n04429376_2915.png,n04429376_2915.png,0.0,0.45227852,1.3371729,-0.62571484
alexnet_w1_mlp_simclrhn_probe3,1,540,NaN,oven,clock,64-3-10,0540_eid_dnn_64-3-10_clock_10_n02708093_7827.png,n02708093_7827.png,0.0,-0.0013191378,0.70807135,-0.5016148
alexnet_w1_mlp_simclrhn_probe3,1,541,NaN,truck,truck,2-3-10,0541_eid_dnn_2-3-10_truck_10_n03417042_6247.png,n03417042_6247.png,1.0,2.907044,1.074101,1.2960864
alexnet_w1_mlp_simclrhn_probe3,1,542,NaN,oven,elephant,32-3-10,0542_eid_dnn_32-3-10_elephant_10_n02504013_947.png,n02504013_947.png,0.0,0.3549733,0.71848524,-0.25704178
alexnet_w1_mlp_simclrhn_probe3,1,543,NaN,truck,truck,1-3-10,0543_eid_dnn_1-3-10_truck_10_n03417042_2074.png,n03417042_2074.png,1.0,6.840088,2.738581,2.9002037
alexnet_w1_mlp_simclrhn_probe3,1,544,NaN,oven,airplane,8-3-10,0544_eid_dnn_8-3-10_airplane_10_n02690373_5221.png,n02690373_5221.png,0.0,-0.17815706,0.8249439,-0.7092995
alexnet_w1_mlp_simclrhn_probe3,1,545,NaN,oven,oven,4-3-10,0545_eid_dnn_4-3-10_oven_10_n04111531_6629.png,n04111531_6629.png,1.0,1.4414396,0.9035518,0.38034412
alexnet_w1_mlp_simclrhn_probe3,1,546,NaN,knife,knife,1-3-10,0546_eid_dnn_1-3-10_knife_10_n03041632_36277.png,n03041632_36277.png,1.0,1.6147814,1.1460156,0.33146745
alexnet_w1_mlp_simclrhn_probe3,1,547,NaN,oven,cat,64-3-10,0547_eid_dnn_64-3-10_cat_10_n02123597_4700.png,n02123597_4700.png,0.0,-0.09120864,0.44416755,-0.37856814
alexnet_w1_mlp_simclrhn_probe3,1,548,NaN,bear,airplane,16-3-10,0548_eid_dnn_16-3-10_airplane_10_n02690373_20042.png,n02690373_20042.png,0.0,0.18717912,0.82598764,-0.4517058
alexnet_w1_mlp_simclrhn_probe3,1,549,NaN,oven,chair,32-3-10,0549_eid_dnn_32-3-10_chair_10_n02791124_15539.png,n02791124_15539.png,0.0,0.04404322,0.8614727,-0.57800996
alexnet_w1_mlp_simclrhn_probe3,1,550,NaN,cat,cat,1-3-10,0550_eid_dnn_1-3-10_cat_10_n02123394_5700.png,n02123394_5700.png,1.0,2.0268607,1.4950505,0.37604657
alexnet_w1_mlp_simclrhn_probe3,1,551,NaN,car,car,4-3-10,0551_eid_dnn_4-3-10_car_10_n04285008_13595.png,n04285008_13595.png,1.0,2.6013646,0.6656597,1.3687501
alexnet_w1_mlp_simclrhn_probe3,1,552,NaN,oven,chair,8-3-10,0552_eid_dnn_8-3-10_chair_10_n02791124_2282.png,n02791124_2282.png,0.0,-0.6781993,1.0699549,-1.2361317
alexnet_w1_mlp_simclrhn_probe3,1,553,NaN,dog,dog,2-3-10,0553_eid_dnn_2-3-10_dog_10_n02100877_3973.png,n02100877_3973.png,1.0,0.47393337,0.35789034,0.082054816
alexnet_w1_mlp_simclrhn_probe3,1,554,NaN,oven,truck,64-3-10,0554_eid_dnn_64-3-10_truck_10_n03417042_12297.png,n03417042_12297.png,0.0,-0.266764,0.66726243,-0.6604564
alexnet_w1_mlp_simclrhn_probe3,1,555,NaN,bear,elephant,8-3-10,0555_eid_dnn_8-3-10_elephant_10_n02504013_6303.png,n02504013_6303.png,0.0,0.72364044,0.8495061,-0.08900045
alexnet_w1_mlp_simclrhn_probe3,1,556,NaN,bear,car,8-3-10,0556_eid_dnn_8-3-10_car_10_n02814533_43990.png,n02814533_43990.png,0.0,-1.2572055,0.9570366,-1.5657055
alexnet_w1_mlp_simclrhn_probe3,1,557,NaN,bear,truck,16-3-10,0557_eid_dnn_16-3-10_truck_10_n04467665_58456.png,n04467665_58456.png,0.0,-0.25673246,1.4789672,-1.227325
alexnet_w1_mlp_simclrhn_probe3,1,558,NaN,bear,dog,4-3-10,0558_eid_dnn_4-3-10_dog_10_n02098105_526.png,n02098105_526.png,0.0,0.4714286,0.67143357,-0.14142486
alexnet_w1_mlp_simclrhn_probe3,1,559,NaN,bird,bird,2-3-10,0559_eid_dnn_2-3-10_bird_10_n02037110_27907.png,n02037110_27907.png,1.0,1.9380027,0.20447353,1.2257903
alexnet_w1_mlp_simclrhn_probe3,1,560,NaN,oven,keyboard,64-3-10,0560_eid_dnn_64-3-10_keyboard_10_n03085013_20849.png,n03085013_20849.png,0.0,-0.1737692,0.13640517,-0.2193264
alexnet_w1_mlp_simclrhn_probe3,1,561,NaN,chair,chair,1-3-10,0561_eid_dnn_1-3-10_chair_10_n03376595_12524.png,n03376595_12524.png,1.0,4.39619,1.2075928,2.2546787
alexnet_w1_mlp_simclrhn_probe3,1,562,NaN,oven,bird,64-3-10,0562_eid_dnn_64-3-10_bird_10_n02056570_27055.png,n02056570_27055.png,0.0,-0.33432963,0.6919582,-0.7256951
alexnet_w1_mlp_simclrhn_probe3,1,563,NaN,bicycle,truck,64-3-10,0563_eid_dnn_64-3-10_truck_10_n03417042_4934.png,n03417042_4934.png,0.0,-0.276456,0.22656462,-0.35568932
alexnet_w1_mlp_simclrhn_probe3,1,564,NaN,bear,knife,16-3-10,0564_eid_dnn_16-3-10_knife_10_n03041632_3210.png,n03041632_3210.png,0.0,0.08989152,0.823701,-0.5188817
alexnet_w1_mlp_simclrhn_probe3,1,565,NaN,cat,dog,8-3-10,0565_eid_dnn_8-3-10_dog_10_n02096585_2118.png,n02096585_2118.png,0.0,1.01963,1.2323071,-0.15038544
alexnet_w1_mlp_simclrhn_probe3,1,566,NaN,keyboard,keyboard,1-3-10,0566_eid_dnn_1-3-10_keyboard_10_n03085013_3539.png,n03085013_3539.png,1.0,4.010274,1.0329131,2.105312
alexnet_w1_mlp_simclrhn_probe3,1,567,NaN,oven,truck,4-3-10,0567_eid_dnn_4-3-10_truck_10_n03417042_17215.png,n03417042_17215.png,0.0,0.7305033,1.14068,-0.29003868
alexnet_w1_mlp_simclrhn_probe3,1,568,NaN,bear,cat,8-3-10,0568_eid_dnn_8-3-10_cat_10_n02123045_12657.png,n02123045_12657.png,0.0,0.6198183,1.0832467,-0.3276934
alexnet_w1_mlp_simclrhn_probe3,1,569,NaN,oven,knife,64-3-10,0569_eid_dnn_64-3-10_knife_10_n03041632_20576.png,n03041632_20576.png,0.0,0.105492026,0.5898336,-0.34248123
alexnet_w1_mlp_simclrhn_probe3,1,570,NaN,cat,truck,8-3-10,0570_eid_dnn_8-3-10_truck_10_n04467665_23905.png,n04467665_23905.png,0.0,-0.5215222,1.198699,-1.2163801
alexnet_w1_mlp_simclrhn_probe3,1,571,NaN,elephant,oven,128-3-10,0571_eid_dnn_128-3-10_oven_10_n04111531_9427.png,n04111531_9427.png,0.0,0.08682451,0.14067882,-0.038080752
alexnet_w1_mlp_simclrhn_probe3,1,572,NaN,bear,oven,16-3-10,0572_eid_dnn_16-3-10_oven_10_n04111531_14329.png,n04111531_14329.png,0.0,0.7855382,1.0355787,-0.17680536
alexnet_w1_mlp_simclrhn_probe3,1,573,NaN,oven,bird,64-3-10,0573_eid_dnn_64-3-10_bird_10_n01614925_19422.png,n01614925_19422.png,0.0,-0.37871426,0.367465,-0.5276284
alexnet_w1_mlp_simclrhn_probe3,1,574,NaN,dog,bottle,128-3-10,0574_eid_dnn_128-3-10_bottle_10_n02823428_1154.png,n02823428_1154.png,0.0,0.05901697,0.078390814,-0.013699378
alexnet_w1_mlp_simclrhn_probe3,1,575,NaN,dog,dog,4-3-10,0575_eid_dnn_4-3-10_dog_10_n02093859_4797.png,n02093859_4797.png,1.0,1.5255325,1.4181459,0.075933784
alexnet_w1_mlp_simclrhn_probe3,1,576,NaN,airplane,airplane,1-3-10,0576_eid_dnn_1-3-10_airplane_10_n02690373_2632.png,n02690373_2632.png,1.0,4.7933774,1.8975651,2.0476484
alexnet_w1_mlp_simclrhn_probe3,1,577,NaN,oven,keyboard,32-3-10,0577_eid_dnn_32-3-10_keyboard_10_n03085013_15825.png,n03085013_15825.png,0.0,0.05498434,0.8053062,-0.5305577
alexnet_w1_mlp_simclrhn_probe3,1,578,NaN,car,car,4-3-10,0578_eid_dnn_4-3-10_car_10_n02814533_52674.png,n02814533_52674.png,1.0,3.3619614,1.2156973,1.517638
alexnet_w1_mlp_simclrhn_probe3,1,579,NaN,oven,truck,32-3-10,0579_eid_dnn_32-3-10_truck_10_n04467665_32937.png,n04467665_32937.png,0.0,-0.19663805,0.5120839,-0.5011421
alexnet_w1_mlp_simclrhn_probe3,1,580,NaN,bear,bird,4-3-10,0580_eid_dnn_4-3-10_bird_10_n01537544_20.png,n01537544_20.png,0.0,0.47961307,0.6750386,-0.13818671
alexnet_w1_mlp_simclrhn_probe3,1,581,NaN,bear,clock,8-3-10,0581_eid_dnn_8-3-10_clock_10_n03196217_564.png,n03196217_564.png,0.0,-0.07029433,0.4465975,-0.36549774
alexnet_w1_mlp_simclrhn_probe3,1,582,NaN,oven,knife,1-3-10,0582_eid_dnn_1-3-10_knife_10_n03041632_76163.png,n03041632_76163.png,0.0,-0.080306694,1.2636082,-0.95029134
alexnet_w1_mlp_simclrhn_probe3,1,583,NaN,cat,airplane,32-3-10,0583_eid_dnn_32-3-10_airplane_10_n02690373_8559.png,n02690373_8559.png,0.0,-0.1964536,0.10752616,-0.21494615
alexnet_w1_mlp_simclrhn_probe3,1,584,NaN,keyboard,keyboard,2-3-10,0584_eid_dnn_2-3-10_keyboard_10_n04505470_3941.png,n04505470_3941.png,1.0,10.167533,1.645093,6.026275
alexnet_w1_mlp_simclrhn_probe3,1,585,NaN,oven,oven,64-3-10,0585_eid_dnn_64-3-10_oven_10_n04111531_9910.png,n04111531_9910.png,1.0,0.545728,0.24788897,0.21060401
alexnet_w1_mlp_simclrhn_probe3,1,586,NaN,oven,bottle,128-3-10,0586_eid_dnn_128-3-10_bottle_10_n03937543_7191.png,n03937543_7191.png,0.0,0.12417285,0.4718325,-0.2458325
alexnet_w1_mlp_simclrhn_probe3,1,587,NaN,boat,boat,4-3-10,0587_eid_dnn_4-3-10_boat_10_n03662601_14818.png,n03662601_14818.png,1.0,0.8425099,0.8202402,0.015747074
alexnet_w1_mlp_simclrhn_probe3,1,588,NaN,bear,boat,128-3-10,0588_eid_dnn_128-3-10_boat_10_n02951358_588.png,n02951358_588.png,0.0,-0.121360496,0.3194088,-0.311671
alexnet_w1_mlp_simclrhn_probe3,1,589,NaN,bear,bear,1-3-10,0589_eid_dnn_1-3-10_bear_10_n02133161_2851.png,n02133161_2851.png,1.0,4.4777412,1.7312357,1.9420727
alexnet_w1_mlp_simclrhn_probe3,1,590,NaN,bottle,chair,2-3-10,0590_eid_dnn_2-3-10_chair_10_n03376595_16212.png,n03376595_16212.png,0.0,0.36714458,3.5842052,-2.2748053
alexnet_w1_mlp_simclrhn_probe3,1,591,NaN,bear,boat,8-3-10,0591_eid_dnn_8-3-10_boat_10_n04612504_1613.png,n04612504_1613.png,0.0,0.7097459,1.5623738,-0.60289896
alexnet_w1_mlp_simclrhn_probe3,1,592,NaN,dog,chair,128-3-10,0592_eid_dnn_128-3-10_chair_10_n02791124_3198.png,n02791124_3198.png,0.0,-0.19878021,0.1720835,-0.26224023
alexnet_w1_mlp_simclrhn_probe3,1,593,NaN,bear,knife,16-3-10,0593_eid_dnn_16-3-10_knife_10_n03041632_32785.png,n03041632_32785.png,0.0,0.14895882,0.579257,-0.30426678
alexnet_w1_mlp_simclrhn_probe3,1,594,NaN,bear,oven,32-3-10,0594_eid_dnn_32-3-10_oven_10_n04111531_22797.png,n04111531_22797.png,0.0,0.76843536,0.912547,-0.10190231
alexnet_w1_mlp_simclrhn_probe3,1,595,NaN,oven,oven,128-3-10,0595_eid_dnn_128-3-10_oven_10_n04111531_5077.png,n04111531_5077.png,1.0,0.16941492,0.12775896,0.029455211
alexnet_w1_mlp_simclrhn_probe3,1,596,NaN,bear,bear,1-3-10,0596_eid_dnn_1-3-10_bear_10_n02134418_2569.png,n02134418_2569.png,1.0,3.2135034,2.1825917,0.7289646
alexnet_w1_mlp_simclrhn_probe3,1,597,NaN,car,car,1-3-10,0597_eid_dnn_1-3-10_car_10_n03100240_15284.png,n03100240_15284.png,1.0,5.2677684,3.9570599,0.9268109
alexnet_w1_mlp_simclrhn_probe3,1,598,NaN,keyboard,keyboard,2-3-10,0598_eid_dnn_2-3-10_keyboard_10_n04505470_4791.png,n04505470_4791.png,1.0,5.3207827,1.8610944,2.446369
alexnet_w1_mlp_simclrhn_probe3,1,599,NaN,oven,bicycle,64-3-10,0599_eid_dnn_64-3-10_bicycle_10_n03792782_551.png,n03792782_551.png,0.0,0.100101545,0.5636356,-0.3277681
alexnet_w1_mlp_simclrhn_probe3,1,600,NaN,bottle,bottle,1-3-10,0600_eid_dnn_1-3-10_bottle_10_n03937543_2999.png,n03937543_2999.png,1.0,2.3629296,1.2902019,0.758533
alexnet_w1_mlp_simclrhn_probe3,1,601,NaN,bear,airplane,16-3-10,0601_eid_dnn_16-3-10_airplane_10_n02690373_7279.png,n02690373_7279.png,0.0,-0.04869836,0.76337576,-0.5742231
alexnet_w1_mlp_simclrhn_probe3,1,602,NaN,oven,airplane,128-3-10,0602_eid_dnn_128-3-10_airplane_10_n02690373_9312.png,n02690373_9312.png,0.0,-0.24158335,0.48556852,-0.51417404
