subj,session,trial,rt,object_response,category,condition,imagename,filename,is_correct,targ_act,max_nontarg_act,decision_margin
alexnet_w1_mlp_simclrhn_probe3,1,1,NaN,airplane,airplane,NaN,airplane1.png,airplane1.png,1.0,9.047059,4.526218,3.1967175
alexnet_w1_mlp_simclrhn_probe3,1,2,NaN,airplane,airplane,NaN,airplane10.png,airplane10.png,1.0,5.4663687,3.2444663,1.5711223
alexnet_w1_mlp_simclrhn_probe3,1,3,NaN,knife,airplane,NaN,airplane2.png,airplane2.png,0.0,3.8525631,4.426212,-0.4056309
alexnet_w1_mlp_simclrhn_probe3,1,4,NaN,airplane,airplane,NaN,airplane3.png,airplane3.png,1.0,6.1151376,2.1907806,2.7749395
alexnet_w1_mlp_simclrhn_probe3,1,5,NaN,airplane,airplane,NaN,airplane4.png,airplane4.png,1.0,5.852556,3.4232523,1.7177773
alexnet_w1_mlp_simclrhn_probe3,1,6,NaN,knife,airplane,NaN,airplane5.png,airplane5.png,0.0,2.9850266,4.027816,-0.73736334
alexnet_w1_mlp_simclrhn_probe3,1,7,NaN,airplane,airplane,NaN,airplane6.png,airplane6.png,1.0,6.601831,3.5801005,2.136686
alexnet_w1_mlp_simclrhn_probe3,1,8,NaN,airplane,airplane,NaN,airplane7.png,airplane7.png,1.0,4.05569,3.7138517,0.24171606
alexnet_w1_mlp_simclrhn_probe3,1,9,NaN,airplane,airplane,NaN,airplane8.png,airplane8.png,1.0,5.5175667,3.5886166,1.3639737
alexnet_w1_mlp_simclrhn_probe3,1,10,NaN,airplane,airplane,NaN,airplane9.png,airplane9.png,1.0,8.634142,2.2995303,4.479247
alexnet_w1_mlp_simclrhn_probe3,1,11,NaN,knife,bear,NaN,bear1.png,bear1.png,0.0,-0.28796726,2.016356,-1.6294026
alexnet_w1_mlp_simclrhn_probe3,1,12,NaN,airplane,bear,NaN,bear10.png,bear10.png,0.0,0.37456247,1.4129649,-0.7342614
alexnet_w1_mlp_simclrhn_probe3,1,13,NaN,knife,bear,NaN,bear2.png,bear2.png,0.0,-0.14623928,1.3162427,-1.0341309
alexnet_w1_mlp_simclrhn_probe3,1,14,NaN,knife,bear,NaN,bear3.png,bear3.png,0.0,-0.22229245,2.5052972,-1.9286971
alexnet_w1_mlp_simclrhn_probe3,1,15,NaN,airplane,bear,NaN,bear4.png,bear4.png,0.0,0.17211108,1.5930958,-1.0047879
alexnet_w1_mlp_simclrhn_probe3,1,16,NaN,knife,bear,NaN,bear5.png,bear5.png,0.0,-0.099159606,1.2887394,-0.98139286
alexnet_w1_mlp_simclrhn_probe3,1,17,NaN,knife,bear,NaN,bear6.png,bear6.png,0.0,-0.127946,1.7881138,-1.354859
alexnet_w1_mlp_simclrhn_probe3,1,18,NaN,knife,bear,NaN,bear7.png,bear7.png,0.0,-0.3707005,1.6410233,-1.4225036
alexnet_w1_mlp_simclrhn_probe3,1,19,NaN,knife,bear,NaN,bear8.png,bear8.png,0.0,-0.20564926,1.5207264,-1.220732
alexnet_w1_mlp_simclrhn_probe3,1,20,NaN,knife,bear,NaN,bear9.png,bear9.png,0.0,-0.2851588,1.2743454,-1.1027361
alexnet_w1_mlp_simclrhn_probe3,1,21,NaN,bicycle,bicycle,NaN,bicycle1.png,bicycle1.png,1.0,18.249624,9.851128,5.938634
alexnet_w1_mlp_simclrhn_probe3,1,22,NaN,bicycle,bicycle,NaN,bicycle10.png,bicycle10.png,1.0,5.3541346,4.064055,0.91222405
alexnet_w1_mlp_simclrhn_probe3,1,23,NaN,bicycle,bicycle,NaN,bicycle2.png,bicycle2.png,1.0,11.079889,5.6354465,3.8498025
alexnet_w1_mlp_simclrhn_probe3,1,24,NaN,bicycle,bicycle,NaN,bicycle3.png,bicycle3.png,1.0,5.899681,4.5048018,0.98632866
alexnet_w1_mlp_simclrhn_probe3,1,25,NaN,bicycle,bicycle,NaN,bicycle4.png,bicycle4.png,1.0,9.536959,6.6277237,2.0571399
alexnet_w1_mlp_simclrhn_probe3,1,26,NaN,bicycle,bicycle,NaN,bicycle5.png,bicycle5.png,1.0,9.552825,6.007408,2.5069883
alexnet_w1_mlp_simclrhn_probe3,1,27,NaN,chair,bicycle,NaN,bicycle6.png,bicycle6.png,0.0,3.0881581,3.4222896,-0.23626664
alexnet_w1_mlp_simclrhn_probe3,1,28,NaN,bicycle,bicycle,NaN,bicycle7.png,bicycle7.png,1.0,20.127382,7.0643992,9.236924
alexnet_w1_mlp_simclrhn_probe3,1,29,NaN,bicycle,bicycle,NaN,bicycle8.png,bicycle8.png,1.0,12.442364,7.8196816,3.26873
alexnet_w1_mlp_simclrhn_probe3,1,30,NaN,bicycle,bicycle,NaN,bicycle9.png,bicycle9.png,1.0,18.477428,7.2460337,7.9417953
alexnet_w1_mlp_simclrhn_probe3,1,31,NaN,knife,bird,NaN,bird1.png,bird1.png,0.0,0.59879714,1.5084149,-0.6431969
alexnet_w1_mlp_simclrhn_probe3,1,32,NaN,knife,bird,NaN,bird10.png,bird10.png,0.0,1.0360829,1.5149746,-0.3386276
alexnet_w1_mlp_simclrhn_probe3,1,33,NaN,knife,bird,NaN,bird2.png,bird2.png,0.0,0.2004296,1.9068549,-1.206625
alexnet_w1_mlp_simclrhn_probe3,1,34,NaN,knife,bird,NaN,bird3.png,bird3.png,0.0,0.855612,1.5840642,-0.51509356
alexnet_w1_mlp_simclrhn_probe3,1,35,NaN,airplane,bird,NaN,bird4.png,bird4.png,0.0,0.9364448,2.2819536,-0.9514184
alexnet_w1_mlp_simclrhn_probe3,1,36,NaN,knife,bird,NaN,bird5.png,bird5.png,0.0,1.3308274,2.942242,-1.1394422
alexnet_w1_mlp_simclrhn_probe3,1,37,NaN,knife,bird,NaN,bird6.png,bird6.png,0.0,0.5346393,2.8920357,-1.666931
alexnet_w1_mlp_simclrhn_probe3,1,38,NaN,knife,bird,NaN,bird7.png,bird7.png,0.0,0.473137,3.438343,-2.0967174
alexnet_w1_mlp_simclrhn_probe3,1,39,NaN,knife,bird,NaN,bird8.png,bird8.png,0.0,1.0931147,2.9206336,-1.292251
alexnet_w1_mlp_simclrhn_probe3,1,40,NaN,airplane,bird,NaN,bird9.png,bird9.png,0.0,2.160926,2.2197616,-0.041602988
alexnet_w1_mlp_simclrhn_probe3,1,41,NaN,knife,boat,NaN,boat1.png,boat1.png,0.0,-0.46704587,3.5288763,-2.8255436
alexnet_w1_mlp_simclrhn_probe3,1,42,NaN,knife,boat,NaN,boat10.png,boat10.png,0.0,-0.7875782,4.2806373,-3.5837696
alexnet_w1_mlp_simclrhn_probe3,1,43,NaN,knife,boat,NaN,boat2.png,boat2.png,0.0,-0.39978534,2.6360636,-2.1466694
alexnet_w1_mlp_simclrhn_probe3,1,44,NaN,airplane,boat,NaN,boat3.png,boat3.png,0.0,0.021542225,2.7687678,-1.9425818
alexnet_w1_mlp_simclrhn_probe3,1,45,NaN,knife,boat,NaN,boat4.png,boat4.png,0.0,-0.77243644,3.6102269,-3.099011
alexnet_w1_mlp_simclrhn_probe3,1,46,NaN,bicycle,boat,NaN,boat5.png,boat5.png,0.0,-0.92812616,2.940676,-2.7356563
alexnet_w1_mlp_simclrhn_probe3,1,47,NaN,knife,boat,NaN,boat6.png,boat6.png,0.0,0.12101307,2.3749518,-1.5937754
alexnet_w1_mlp_simclrhn_probe3,1,48,NaN,knife,boat,NaN,boat7.png,boat7.png,0.0,-0.15431218,2.0899265,-1.5869163
alexnet_w1_mlp_simclrhn_probe3,1,49,NaN,knife,boat,NaN,boat8.png,boat8.png,0.0,-0.38804644,3.2540393,-2.5753436
alexnet_w1_mlp_simclrhn_probe3,1,50,NaN,bicycle,boat,NaN,boat9.png,boat9.png,0.0,-0.37954012,2.332807,-1.9179192
alexnet_w1_mlp_simclrhn_probe3,1,51,NaN,knife,bottle,NaN,bottle1.png,bottle1.png,0.0,1.7851132,1.9041096,-0.08414315
alexnet_w1_mlp_simclrhn_probe3,1,52,NaN,knife,bottle,NaN,bottle10.png,bottle10.png,0.0,1.5635275,2.0405436,-0.3373013
alexnet_w1_mlp_simclrhn_probe3,1,53,NaN,knife,bottle,NaN,bottle2.png,bottle2.png,0.0,1.6835043,2.1643283,-0.33999392
alexnet_w1_mlp_simclrhn_probe3,1,54,NaN,knife,bottle,NaN,bottle3.png,bottle3.png,0.0,1.5644642,2.2330995,-0.47279653
alexnet_w1_mlp_simclrhn_probe3,1,55,NaN,knife,bottle,NaN,bottle4.png,bottle4.png,0.0,1.4424373,2.2167385,-0.5475136
alexnet_w1_mlp_simclrhn_probe3,1,56,NaN,knife,bottle,NaN,bottle5.png,bottle5.png,0.0,1.2694061,2.0228062,-0.53273433
alexnet_w1_mlp_simclrhn_probe3,1,57,NaN,knife,bottle,NaN,bottle6.png,bottle6.png,0.0,1.3549238,1.7517922,-0.2806283
alexnet_w1_mlp_simclrhn_probe3,1,58,NaN,knife,bottle,NaN,bottle7.png,bottle7.png,0.0,1.3737465,1.7556027,-0.27001312
alexnet_w1_mlp_simclrhn_probe3,1,59,NaN,knife,bottle,NaN,bottle8.png,bottle8.png,0.0,1.2657875,1.813282,-0.38713712
alexnet_w1_mlp_simclrhn_probe3,1,60,NaN,knife,bottle,NaN,bottle9.png,bottle9.png,0.0,1.3804659,1.8157082,-0.30776277
alexnet_w1_mlp_simclrhn_probe3,1,61,NaN,knife,car,NaN,car1.png,car1.png,0.0,-0.5842833,1.8461832,-1.7185993
alexnet_w1_mlp_simclrhn_probe3,1,62,NaN,knife,car,NaN,car10.png,car10.png,0.0,-0.61056346,4.0733304,-3.3120131
alexnet_w1_mlp_simclrhn_probe3,1,63,NaN,knife,car,NaN,car2.png,car2.png,0.0,-0.73322433,2.9307437,-2.5908167
alexnet_w1_mlp_simclrhn_probe3,1,64,NaN,knife,car,NaN,car3.png,car3.png,0.0,-0.59502405,3.773152,-3.0887668
alexnet_w1_mlp_simclrhn_probe3,1,65,NaN,knife,car,NaN,car4.png,car4.png,0.0,-0.72903776,2.8179069,-2.5080686
alexnet_w1_mlp_simclrhn_probe3,1,66,NaN,knife,car,NaN,car5.png,car5.png,0.0,-0.74731135,2.7450404,-2.4694657
alexnet_w1_mlp_simclrhn_probe3,1,67,NaN,knife,car,NaN,car6.png,car6.png,0.0,-0.55113417,2.475421,-2.1400976
alexnet_w1_mlp_simclrhn_probe3,1,68,NaN,knife,car,NaN,car7.png,car7.png,0.0,-0.74939775,3.2128701,-2.8017466
alexnet_w1_mlp_simclrhn_probe3,1,69,NaN,knife,car,NaN,car8.png,car8.png,0.0,-0.71311355,3.227487,-2.7864256
alexnet_w1_mlp_simclrhn_probe3,1,70,NaN,knife,car,NaN,car9.png,car9.png,0.0,-0.6800049,3.2228794,-2.7597558
alexnet_w1_mlp_simclrhn_probe3,1,71,NaN,knife,cat,NaN,cat1.png,cat1.png,0.0,-0.2094394,1.7293745,-1.3709486
alexnet_w1_mlp_simclrhn_probe3,1,72,NaN,knife,cat,NaN,cat10.png,cat10.png,0.0,-0.06154192,2.1298654,-1.5495591
alexnet_w1_mlp_simclrhn_probe3,1,73,NaN,knife,cat,NaN,cat2.png,cat2.png,0.0,0.23793338,0.9103217,-0.47545034
alexnet_w1_mlp_simclrhn_probe3,1,74,NaN,knife,cat,NaN,cat3.png,cat3.png,0.0,-0.30137253,2.9651685,-2.3097932
alexnet_w1_mlp_simclrhn_probe3,1,75,NaN,knife,cat,NaN,cat4.png,cat4.png,0.0,-0.16783862,1.5037618,-1.1819999
alexnet_w1_mlp_simclrhn_probe3,1,76,NaN,knife,cat,NaN,cat5.png,cat5.png,0.0,-0.026349204,0.903403,-0.6574341
alexnet_w1_mlp_simclrhn_probe3,1,77,NaN,knife,cat,NaN,cat6.png,cat6.png,0.0,-0.28477967,2.1669753,-1.7336526
alexnet_w1_mlp_simclrhn_probe3,1,78,NaN,knife,cat,NaN,cat7.png,cat7.png,0.0,-0.1336955,1.9579749,-1.4790344
alexnet_w1_mlp_simclrhn_probe3,1,79,NaN,knife,cat,NaN,cat8.png,cat8.png,0.0,-0.064311884,1.3027034,-0.96662575
alexnet_w1_mlp_simclrhn_probe3,1,80,NaN,airplane,cat,NaN,cat9.png,cat9.png,0.0,-0.13892405,3.2788897,-2.4167593
alexnet_w1_mlp_simclrhn_probe3,1,81,NaN,knife,chair,NaN,chair1.png,chair1.png,0.0,2.3967516,3.1721926,-0.5483196
alexnet_w1_mlp_simclrhn_probe3,1,82,NaN,chair,chair,NaN,chair10.png,chair10.png,1.0,5.9235077,3.3629804,1.8105663
alexnet_w1_mlp_simclrhn_probe3,1,83,NaN,chair,chair,NaN,chair2.png,chair2.png,1.0,5.22188,2.7587702,1.7416816
alexnet_w1_mlp_simclrhn_probe3,1,84,NaN,knife,chair,NaN,chair3.png,chair3.png,0.0,3.2209814,3.6729941,-0.3196213
alexnet_w1_mlp_simclrhn_probe3,1,85,NaN,chair,chair,NaN,chair4.png,chair4.png,1.0,7.9871216,2.415341,3.939844
alexnet_w1_mlp_simclrhn_probe3,1,86,NaN,chair,chair,NaN,chair5.png,chair5.png,1.0,4.251475,3.1349502,0.7895022
alexnet_w1_mlp_simclrhn_probe3,1,87,NaN,knife,chair,NaN,chair6.png,chair6.png,0.0,2.819783,3.9949412,-0.8309624
alexnet_w1_mlp_simclrhn_probe3,1,88,NaN,knife,chair,NaN,chair7.png,chair7.png,0.0,1.8599864,3.505917,-1.1638488
alexnet_w1_mlp_simclrhn_probe3,1,89,NaN,knife,chair,NaN,chair8.png,chair8.png,0.0,3.4406147,4.578789,-0.80481094
alexnet_w1_mlp_simclrhn_probe3,1,90,NaN,chair,chair,NaN,chair9.png,chair9.png,1.0,4.242462,2.8679075,0.9719569
alexnet_w1_mlp_simclrhn_probe3,1,91,NaN,knife,clock,NaN,clock1.png,clock1.png,0.0,0.8349437,1.5122035,-0.47889498
alexnet_w1_mlp_simclrhn_probe3,1,92,NaN,chair,clock,NaN,clock10.png,clock10.png,0.0,0.13876672,1.4942603,-0.9584787
alexnet_w1_mlp_simclrhn_probe3,1,93,NaN,knife,clock,NaN,clock2.png,clock2.png,0.0,1.3458833,1.6098703,-0.18666704
alexnet_w1_mlp_simclrhn_probe3,1,94,NaN,knife,clock,NaN,clock3.png,clock3.png,0.0,1.5078837,1.5835115,-0.053476933
alexnet_w1_mlp_simclrhn_probe3,1,95,NaN,knife,clock,NaN,clock4.png,clock4.png,0.0,1.2918662,2.780791,-1.0528289
alexnet_w1_mlp_simclrhn_probe3,1,96,NaN,knife,clock,NaN,clock5.png,clock5.png,0.0,1.5554627,1.6891125,-0.0945047
alexnet_w1_mlp_simclrhn_probe3,1,97,NaN,knife,clock,NaN,clock6.png,clock6.png,0.0,1.4848576,1.6956418,-0.14904694
alexnet_w1_mlp_simclrhn_probe3,1,98,NaN,knife,clock,NaN,clock7.png,clock7.png,0.0,1.333363,1.5387456,-0.14522742
alexnet_w1_mlp_simclrhn_probe3,1,99,NaN,knife,clock,NaN,clock8.png,clock8.png,0.0,1.3787675,1.6142871,-0.16653754
alexnet_w1_mlp_simclrhn_probe3,1,100,NaN,clock,clock,NaN,clock9.png,clock9.png,1.0,1.7255598,1.6507096,0.052927084
alexnet_w1_mlp_simclrhn_probe3,1,101,NaN,knife,dog,NaN,dog1.png,dog1.png,0.0,-0.13953036,1.2702878,-0.99689204
alexnet_w1_mlp_simclrhn_probe3,1,102,NaN,knife,dog,NaN,dog10.png,dog10.png,0.0,-0.14190783,3.3154888,-2.4447486
alexnet_w1_mlp_simclrhn_probe3,1,103,NaN,knife,dog,NaN,dog2.png,dog2.png,0.0,-0.2874101,1.7974215,-1.4741985
alexnet_w1_mlp_simclrhn_probe3,1,104,NaN,airplane,dog,NaN,dog3.png,dog3.png,0.0,0.1192225,1.7557099,-1.1571714
alexnet_w1_mlp_simclrhn_probe3,1,105,NaN,knife,dog,NaN,dog4.png,dog4.png,0.0,-0.07534585,1.5458517,-1.1463598
alexnet_w1_mlp_simclrhn_probe3,1,106,NaN,knife,dog,NaN,dog5.png,dog5.png,0.0,-0.052492816,1.7160754,-1.2505666
alexnet_w1_mlp_simclrhn_probe3,1,107,NaN,knife,dog,NaN,dog6.png,dog6.png,0.0,-0.02824766,1.7584965,-1.263419
alexnet_w1_mlp_simclrhn_probe3,1,108,NaN,knife,dog,NaN,dog7.png,dog7.png,0.0,0.16254292,1.4719194,-0.925869
alexnet_w1_mlp_simclrhn_probe3,1,109,NaN,knife,dog,NaN,dog8.png,dog8.png,0.0,-0.022145739,1.6100231,-1.1541177
alexnet_w1_mlp_simclrhn_probe3,1,110,NaN,airplane,dog,NaN,dog9.png,dog9.png,0.0,0.023260642,1.7646298,-1.231334
alexnet_w1_mlp_simclrhn_probe3,1,111,NaN,clock,elephant,NaN,elephant1.png,elephant1.png,0.0,-0.13929532,1.5859135,-1.2199069
alexnet_w1_mlp_simclrhn_probe3,1,112,NaN,knife,elephant,NaN,elephant10.png,elephant10.png,0.0,-0.2946787,1.1709626,-1.0363649
alexnet_w1_mlp_simclrhn_probe3,1,113,NaN,knife,elephant,NaN,elephant2.png,elephant2.png,0.0,-0.28666344,1.8998904,-1.5461272
alexnet_w1_mlp_simclrhn_probe3,1,114,NaN,knife,elephant,NaN,elephant3.png,elephant3.png,0.0,-0.34520817,1.2310271,-1.1145667
alexnet_w1_mlp_simclrhn_probe3,1,115,NaN,knife,elephant,NaN,elephant4.png,elephant4.png,0.0,0.0682646,1.6550639,-1.1220366
alexnet_w1_mlp_simclrhn_probe3,1,116,NaN,knife,elephant,NaN,elephant5.png,elephant5.png,0.0,0.11016827,2.893305,-1.967975
alexnet_w1_mlp_simclrhn_probe3,1,117,NaN,clock,elephant,NaN,elephant6.png,elephant6.png,0.0,0.09311742,1.5862812,-1.0558262
alexnet_w1_mlp_simclrhn_probe3,1,118,NaN,knife,elephant,NaN,elephant7.png,elephant7.png,0.0,0.117113575,1.4507042,-0.942991
alexnet_w1_mlp_simclrhn_probe3,1,119,NaN,knife,elephant,NaN,elephant8.png,elephant8.png,0.0,0.4653722,1.4989991,-0.7308846
alexnet_w1_mlp_simclrhn_probe3,1,120,NaN,knife,elephant,NaN,elephant9.png,elephant9.png,0.0,0.2624876,1.5369253,-0.9011635
alexnet_w1_mlp_simclrhn_probe3,1,121,NaN,knife,keyboard,NaN,keyboard1.png,keyboard1.png,0.0,1.1633499,4.4570003,-2.3289626
alexnet_w1_mlp_simclrhn_probe3,1,122,NaN,knife,keyboard,NaN,keyboard10.png,keyboard10.png,0.0,-0.05466321,3.2507381,-2.3372717
alexnet_w1_mlp_simclrhn_probe3,1,123,NaN,knife,keyboard,NaN,keyboard2.png,keyboard2.png,0.0,0.40649855,3.1808505,-1.9617631
alexnet_w1_mlp_simclrhn_probe3,1,124,NaN,knife,keyboard,NaN,keyboard3.png,keyboard3.png,0.0,0.94558614,3.3032303,-1.6671062
alexnet_w1_mlp_simclrhn_probe3,1,125,NaN,knife,keyboard,NaN,keyboard4.png,keyboard4.png,0.0,0.1136719,3.0501993,-2.0764384
alexnet_w1_mlp_simclrhn_probe3,1,126,NaN,knife,keyboard,NaN,keyboard5.png,keyboard5.png,0.0,-0.036616087,3.2713695,-2.3390992
alexnet_w1_mlp_simclrhn_probe3,1,127,NaN,knife,keyboard,NaN,keyboard6.png,keyboard6.png,0.0,1.3424441,3.8637192,-1.7828107
alexnet_w1_mlp_simclrhn_probe3,1,128,NaN,knife,keyboard,NaN,keyboard7.png,keyboard7.png,0.0,0.21491814,3.0357015,-1.994595
alexnet_w1_mlp_simclrhn_probe3,1,129,NaN,knife,keyboard,NaN,keyboard8.png,keyboard8.png,0.0,-0.06299142,2.42975,-1.7626344
alexnet_w1_mlp_simclrhn_probe3,1,130,NaN,knife,keyboard,NaN,keyboard9.png,keyboard9.png,0.0,0.60082614,3.0010247,-1.6971966
alexnet_w1_mlp_simclrhn_probe3,1,131,NaN,knife,knife,NaN,knife1.png,knife1.png,1.0,3.3198657,1.146641,1.5367019
alexnet_w1_mlp_simclrhn_probe3,1,132,NaN,knife,knife,NaN,knife10.png,knife10.png,1.0,3.883325,1.2981896,1.8279668
alexnet_w1_mlp_simclrhn_probe3,1,133,NaN,knife,knife,NaN,knife2.png,knife2.png,1.0,3.5861263,1.8125442,1.254112
alexnet_w1_mlp_simclrhn_probe3,1,134,NaN,knife,knife,NaN,knife3.png,knife3.png,1.0,3.1873205,1.5718567,1.1423054
alexnet_w1_mlp_simclrhn_probe3,1,135,NaN,knife,knife,NaN,knife4.png,knife4.png,1.0,3.87361,3.54581,0.23178963
alexnet_w1_mlp_simclrhn_probe3,1,136,NaN,knife,knife,NaN,knife5.png,knife5.png,1.0,4.2944536,1.7572874,1.7940474
alexnet_w1_mlp_simclrhn_probe3,1,137,NaN,knife,knife,NaN,knife6.png,knife6.png,1.0,3.3501606,2.7755904,0.40628248
alexnet_w1_mlp_simclrhn_probe3,1,138,NaN,knife,knife,NaN,knife7.png,knife7.png,1.0,4.633866,1.6943523,2.07855
alexnet_w1_mlp_simclrhn_probe3,1,139,NaN,knife,knife,NaN,knife8.png,knife8.png,1.0,3.4861608,1.544198,1.373175
alexnet_w1_mlp_simclrhn_probe3,1,140,NaN,knife,knife,NaN,knife9.png,knife9.png,1.0,3.4393744,1.9492683,1.0536642
alexnet_w1_mlp_simclrhn_probe3,1,141,NaN,knife,oven,NaN,oven1.png,oven1.png,0.0,0.45258173,1.6411004,-0.8404096
alexnet_w1_mlp_simclrhn_probe3,1,142,NaN,knife,oven,NaN,oven10.png,oven10.png,0.0,0.6955914,2.6265988,-1.3654284
alexnet_w1_mlp_simclrhn_probe3,1,143,NaN,clock,oven,NaN,oven2.png,oven2.png,0.0,0.25800788,1.0711582,-0.5749841
alexnet_w1_mlp_simclrhn_probe3,1,144,NaN,knife,oven,NaN,oven3.png,oven3.png,0.0,0.9485924,3.0547705,-1.4892929
alexnet_w1_mlp_simclrhn_probe3,1,145,NaN,knife,oven,NaN,oven4.png,oven4.png,0.0,0.2738714,2.796949,-1.7840853
alexnet_w1_mlp_simclrhn_probe3,1,146,NaN,knife,oven,NaN,oven5.png,oven5.png,0.0,0.16591838,2.3664393,-1.5560033
alexnet_w1_mlp_simclrhn_probe3,1,147,NaN,knife,oven,NaN,oven6.png,oven6.png,0.0,0.4040884,3.2659128,-2.0236154
alexnet_w1_mlp_simclrhn_probe3,1,148,NaN,knife,oven,NaN,oven7.png,oven7.png,0.0,0.36284927,2.7142508,-1.6626921
alexnet_w1_mlp_simclrhn_probe3,1,149,NaN,knife,oven,NaN,oven8.png,oven8.png,0.0,0.62906134,2.3949206,-1.248651
alexnet_w1_mlp_simclrhn_probe3,1,150,NaN,knife,oven,NaN,oven9.png,oven9.png,0.0,0.29955623,2.1819315,-1.3310403
alexnet_w1_mlp_simclrhn_probe3,1,151,NaN,knife,truck,NaN,truck1.png,truck1.png,0.0,-0.57444227,1.8552217,-1.718032
alexnet_w1_mlp_simclrhn_probe3,1,152,NaN,knife,truck,NaN,truck10.png,truck10.png,0.0,-0.5548854,1.9904765,-1.7998427
alexnet_w1_mlp_simclrhn_probe3,1,153,NaN,knife,truck,NaN,truck2.png,truck2.png,0.0,-0.69648117,2.6430535,-2.3614078
alexnet_w1_mlp_simclrhn_probe3,1,154,NaN,knife,truck,NaN,truck3.png,truck3.png,0.0,-0.55218804,2.6096702,-2.2357714
alexnet_w1_mlp_simclrhn_probe3,1,155,NaN,knife,truck,NaN,truck4.png,truck4.png,0.0,-0.519272,2.0211253,-1.7963322
alexnet_w1_mlp_simclrhn_probe3,1,156,NaN,knife,truck,NaN,truck5.png,truck5.png,0.0,-0.5317411,2.9554715,-2.4658318
alexnet_w1_mlp_simclrhn_probe3,1,157,NaN,airplane,truck,NaN,truck6.png,truck6.png,0.0,-0.6417444,3.009392,-2.5817432
alexnet_w1_mlp_simclrhn_probe3,1,158,NaN,knife,truck,NaN,truck7.png,truck7.png,0.0,-0.5478786,1.918117,-1.7437223
alexnet_w1_mlp_simclrhn_probe3,1,159,NaN,knife,truck,NaN,truck8.png,truck8.png,0.0,-0.5788636,2.47888,-2.1621513
alexnet_w1_mlp_simclrhn_probe3,1,160,NaN,knife,truck,NaN,truck9.png,truck9.png,0.0,-0.69139224,2.6415715,-2.3567612
