subj,session,trial,rt,object_response,category,condition,imagename,filename,is_correct,targ_act,max_nontarg_act,decision_margin
alexnet,1,1,NaN,airplane,airplane,NaN,airplane1.png,airplane1.png,1.0,12.488206,5.2813587,5.0960107
alexnet,1,2,NaN,airplane,airplane,NaN,airplane10.png,airplane10.png,1.0,5.8687334,5.8449135,0.01684323
alexnet,1,3,NaN,airplane,airplane,NaN,airplane2.png,airplane2.png,1.0,7.270122,3.4190097,2.7231476
alexnet,1,4,NaN,airplane,airplane,NaN,airplane3.png,airplane3.png,1.0,11.438801,4.8305016,4.6727734
alexnet,1,5,NaN,airplane,airplane,NaN,airplane4.png,airplane4.png,1.0,10.374445,5.591655,3.3819435
alexnet,1,6,NaN,airplane,airplane,NaN,airplane5.png,airplane5.png,1.0,10.052418,6.609081,2.434807
alexnet,1,7,NaN,airplane,airplane,NaN,airplane6.png,airplane6.png,1.0,6.676568,4.7640295,1.352369
alexnet,1,8,NaN,airplane,airplane,NaN,airplane7.png,airplane7.png,1.0,8.311959,5.937066,1.679303
alexnet,1,9,NaN,knife,airplane,NaN,airplane8.png,airplane8.png,0.0,6.785925,7.5086,-0.5110086
alexnet,1,10,NaN,clock,airplane,NaN,airplane9.png,airplane9.png,0.0,5.345981,7.4852924,-1.5127215
alexnet,1,11,NaN,knife,bear,NaN,bear1.png,bear1.png,0.0,-0.31443256,4.819366,-3.630144
alexnet,1,12,NaN,bear,bear,NaN,bear10.png,bear10.png,1.0,4.4629793,4.173387,0.20477265
alexnet,1,13,NaN,elephant,bear,NaN,bear2.png,bear2.png,0.0,3.2448566,6.2431383,-2.1201053
alexnet,1,14,NaN,clock,bear,NaN,bear3.png,bear3.png,0.0,-0.22633225,6.0202847,-4.417025
alexnet,1,15,NaN,elephant,bear,NaN,bear4.png,bear4.png,0.0,5.1121116,7.6394515,-1.7870992
alexnet,1,16,NaN,elephant,bear,NaN,bear5.png,bear5.png,0.0,4.2164,7.7245097,-2.4806082
alexnet,1,17,NaN,knife,bear,NaN,bear6.png,bear6.png,0.0,-0.48804548,4.1229258,-3.2604492
alexnet,1,18,NaN,knife,bear,NaN,bear7.png,bear7.png,0.0,-1.4519608,5.925648,-5.216758
alexnet,1,19,NaN,elephant,bear,NaN,bear8.png,bear8.png,0.0,3.7850494,6.023836,-1.5830613
alexnet,1,20,NaN,knife,bear,NaN,bear9.png,bear9.png,0.0,0.0791744,2.9944842,-2.0614355
alexnet,1,21,NaN,bicycle,bicycle,NaN,bicycle1.png,bicycle1.png,1.0,20.456722,11.769284,6.1429462
alexnet,1,22,NaN,bicycle,bicycle,NaN,bicycle10.png,bicycle10.png,1.0,11.981089,7.5584087,3.127307
alexnet,1,23,NaN,bicycle,bicycle,NaN,bicycle2.png,bicycle2.png,1.0,13.64587,8.263554,3.8058727
alexnet,1,24,NaN,bicycle,bicycle,NaN,bicycle3.png,bicycle3.png,1.0,11.674516,7.779554,2.754154
alexnet,1,25,NaN,bicycle,bicycle,NaN,bicycle4.png,bicycle4.png,1.0,15.744516,9.566514,4.3685074
alexnet,1,26,NaN,bicycle,bicycle,NaN,bicycle5.png,bicycle5.png,1.0,14.2599745,9.311372,3.4991906
alexnet,1,27,NaN,bicycle,bicycle,NaN,bicycle6.png,bicycle6.png,1.0,7.6823845,5.794336,1.335052
alexnet,1,28,NaN,bicycle,bicycle,NaN,bicycle7.png,bicycle7.png,1.0,17.012049,10.833829,4.3686614
alexnet,1,29,NaN,bicycle,bicycle,NaN,bicycle8.png,bicycle8.png,1.0,17.402836,11.313142,4.306064
alexnet,1,30,NaN,bicycle,bicycle,NaN,bicycle9.png,bicycle9.png,1.0,17.141495,10.384209,4.778123
alexnet,1,31,NaN,bird,bird,NaN,bird1.png,bird1.png,1.0,1.8575777,1.8394696,0.012804382
alexnet,1,32,NaN,elephant,bird,NaN,bird10.png,bird10.png,0.0,2.043003,2.654769,-0.4325838
alexnet,1,33,NaN,knife,bird,NaN,bird2.png,bird2.png,0.0,0.39129713,6.036492,-3.9917555
alexnet,1,34,NaN,clock,bird,NaN,bird3.png,bird3.png,0.0,0.19108431,4.202909,-2.8367884
alexnet,1,35,NaN,bear,bird,NaN,bird4.png,bird4.png,0.0,2.9698203,3.8618355,-0.63075
alexnet,1,36,NaN,knife,bird,NaN,bird5.png,bird5.png,0.0,2.4165585,4.9014792,-1.7571043
alexnet,1,37,NaN,knife,bird,NaN,bird6.png,bird6.png,0.0,3.124182,5.1956515,-1.4647502
alexnet,1,38,NaN,chair,bird,NaN,bird7.png,bird7.png,0.0,1.4428763,3.778655,-1.651645
alexnet,1,39,NaN,knife,bird,NaN,bird8.png,bird8.png,0.0,1.0411221,4.4628177,-2.4195042
alexnet,1,40,NaN,bird,bird,NaN,bird9.png,bird9.png,1.0,3.4174194,3.261645,0.11014911
alexnet,1,41,NaN,knife,boat,NaN,boat1.png,boat1.png,0.0,-1.9435221,7.3721457,-6.587172
alexnet,1,42,NaN,knife,boat,NaN,boat10.png,boat10.png,0.0,-2.1702712,6.156872,-5.8881793
alexnet,1,43,NaN,knife,boat,NaN,boat2.png,boat2.png,0.0,-0.8666872,4.635764,-3.8908207
alexnet,1,44,NaN,airplane,boat,NaN,boat3.png,boat3.png,0.0,2.8375807,5.174011,-1.6521059
alexnet,1,45,NaN,knife,boat,NaN,boat4.png,boat4.png,0.0,-1.714545,5.7203364,-5.257255
alexnet,1,46,NaN,clock,boat,NaN,boat5.png,boat5.png,0.0,3.2416573,6.422341,-2.249083
alexnet,1,47,NaN,knife,boat,NaN,boat6.png,boat6.png,0.0,-1.9919336,7.4219284,-6.6566057
alexnet,1,48,NaN,knife,boat,NaN,boat7.png,boat7.png,0.0,0.25420552,7.8099904,-5.3427467
alexnet,1,49,NaN,knife,boat,NaN,boat8.png,boat8.png,0.0,-1.2053068,7.1156125,-5.8837786
alexnet,1,50,NaN,clock,boat,NaN,boat9.png,boat9.png,0.0,2.3345942,6.4792542,-2.9307172
alexnet,1,51,NaN,bottle,bottle,NaN,bottle1.png,bottle1.png,1.0,9.9334545,6.542898,2.3974855
alexnet,1,52,NaN,bottle,bottle,NaN,bottle10.png,bottle10.png,1.0,9.721336,5.69441,2.8474672
alexnet,1,53,NaN,bottle,bottle,NaN,bottle2.png,bottle2.png,1.0,8.3626,7.4296374,0.6597044
alexnet,1,54,NaN,bottle,bottle,NaN,bottle3.png,bottle3.png,1.0,7.679539,6.2146807,1.0358114
alexnet,1,55,NaN,bottle,bottle,NaN,bottle4.png,bottle4.png,1.0,7.749868,6.2073226,1.0907443
alexnet,1,56,NaN,bottle,bottle,NaN,bottle5.png,bottle5.png,1.0,7.8534765,5.2261915,1.857771
alexnet,1,57,NaN,bottle,bottle,NaN,bottle6.png,bottle6.png,1.0,6.8522253,3.3073845,2.506581
alexnet,1,58,NaN,knife,bottle,NaN,bottle7.png,bottle7.png,0.0,6.121804,6.7498636,-0.44410506
alexnet,1,59,NaN,bottle,bottle,NaN,bottle8.png,bottle8.png,1.0,7.7042794,6.4769154,0.8678775
alexnet,1,60,NaN,bottle,bottle,NaN,bottle9.png,bottle9.png,1.0,5.8428283,4.1389275,1.2048398
alexnet,1,61,NaN,knife,car,NaN,car1.png,car1.png,0.0,-1.1859406,4.9141893,-4.313443
alexnet,1,62,NaN,knife,car,NaN,car10.png,car10.png,0.0,-1.2349898,5.976238,-5.0991077
alexnet,1,63,NaN,knife,car,NaN,car2.png,car2.png,0.0,-1.5447356,4.5534806,-4.31209
alexnet,1,64,NaN,knife,car,NaN,car3.png,car3.png,0.0,-0.69320196,5.5352774,-4.4042
alexnet,1,65,NaN,knife,car,NaN,car4.png,car4.png,0.0,-2.998863,3.6032104,-4.668371
alexnet,1,66,NaN,knife,car,NaN,car5.png,car5.png,0.0,-1.5856425,4.609002,-4.3802752
alexnet,1,67,NaN,knife,car,NaN,car6.png,car6.png,0.0,-1.0576836,6.1517353,-5.097829
alexnet,1,68,NaN,knife,car,NaN,car7.png,car7.png,0.0,-2.324351,4.725961,-4.9853234
alexnet,1,69,NaN,knife,car,NaN,car8.png,car8.png,0.0,-2.068303,5.2499094,-5.174758
alexnet,1,70,NaN,knife,car,NaN,car9.png,car9.png,0.0,-1.9731473,5.012981,-4.939939
alexnet,1,71,NaN,cat,cat,NaN,cat1.png,cat1.png,1.0,4.550605,3.9393346,0.4322333
alexnet,1,72,NaN,bear,cat,NaN,cat10.png,cat10.png,0.0,2.2512627,3.9914653,-1.2305092
alexnet,1,73,NaN,knife,cat,NaN,cat2.png,cat2.png,0.0,1.1595587,2.8688278,-1.2086358
alexnet,1,74,NaN,knife,cat,NaN,cat3.png,cat3.png,0.0,2.5483735,4.643445,-1.4814394
alexnet,1,75,NaN,clock,cat,NaN,cat4.png,cat4.png,0.0,1.6104741,2.421382,-0.5733985
alexnet,1,76,NaN,bear,cat,NaN,cat5.png,cat5.png,0.0,2.6946895,3.5959682,-0.6373003
alexnet,1,77,NaN,knife,cat,NaN,cat6.png,cat6.png,0.0,2.194032,3.9532363,-1.2439454
alexnet,1,78,NaN,knife,cat,NaN,cat7.png,cat7.png,0.0,0.5157432,4.629138,-2.9086094
alexnet,1,79,NaN,clock,cat,NaN,cat8.png,cat8.png,0.0,0.52396125,3.5482495,-2.1384947
alexnet,1,80,NaN,knife,cat,NaN,cat9.png,cat9.png,0.0,0.8189803,3.9577353,-2.219435
alexnet,1,81,NaN,chair,chair,NaN,chair1.png,chair1.png,1.0,7.198467,5.4723697,1.220535
alexnet,1,82,NaN,chair,chair,NaN,chair10.png,chair10.png,1.0,15.589168,10.720307,3.442804
alexnet,1,83,NaN,chair,chair,NaN,chair2.png,chair2.png,1.0,11.787138,5.752087,4.2674255
alexnet,1,84,NaN,clock,chair,NaN,chair3.png,chair3.png,0.0,8.8868685,9.531265,-0.45565733
alexnet,1,85,NaN,chair,chair,NaN,chair4.png,chair4.png,1.0,14.255586,8.865238,3.8115513
alexnet,1,86,NaN,chair,chair,NaN,chair5.png,chair5.png,1.0,11.569805,7.713305,2.7269576
alexnet,1,87,NaN,chair,chair,NaN,chair6.png,chair6.png,1.0,9.174379,3.9003885,3.7292745
alexnet,1,88,NaN,chair,chair,NaN,chair7.png,chair7.png,1.0,8.158076,6.9144974,0.8793431
alexnet,1,89,NaN,chair,chair,NaN,chair8.png,chair8.png,1.0,10.645872,5.499526,3.6390164
alexnet,1,90,NaN,chair,chair,NaN,chair9.png,chair9.png,1.0,8.811893,7.6457253,0.82460546
alexnet,1,91,NaN,knife,clock,NaN,clock1.png,clock1.png,0.0,3.1966226,3.7026806,-0.35783702
alexnet,1,92,NaN,clock,clock,NaN,clock10.png,clock10.png,1.0,4.1875577,1.161859,2.139492
alexnet,1,93,NaN,clock,clock,NaN,clock2.png,clock2.png,1.0,7.403059,3.8796167,2.49145
alexnet,1,94,NaN,clock,clock,NaN,clock3.png,clock3.png,1.0,6.857067,4.201496,1.8777723
alexnet,1,95,NaN,knife,clock,NaN,clock4.png,clock4.png,0.0,4.421795,5.596755,-0.8308223
alexnet,1,96,NaN,clock,clock,NaN,clock5.png,clock5.png,1.0,7.5443873,3.2587514,3.0304022
alexnet,1,97,NaN,clock,clock,NaN,clock6.png,clock6.png,1.0,6.9371643,2.7929285,2.930417
alexnet,1,98,NaN,clock,clock,NaN,clock7.png,clock7.png,1.0,4.964185,3.326586,1.1579576
alexnet,1,99,NaN,clock,clock,NaN,clock8.png,clock8.png,1.0,3.8424995,3.0151994,0.5849895
alexnet,1,100,NaN,clock,clock,NaN,clock9.png,clock9.png,1.0,7.061413,2.4843464,3.2364748
alexnet,1,101,NaN,knife,dog,NaN,dog1.png,dog1.png,0.0,-0.2721687,4.438832,-3.3311803
alexnet,1,102,NaN,knife,dog,NaN,dog10.png,dog10.png,0.0,-0.27811065,6.1988273,-4.579887
alexnet,1,103,NaN,knife,dog,NaN,dog2.png,dog2.png,0.0,0.372825,3.5190556,-2.2247212
alexnet,1,104,NaN,bear,dog,NaN,dog3.png,dog3.png,0.0,2.9304967,6.12624,-2.2597315
alexnet,1,105,NaN,elephant,dog,NaN,dog4.png,dog4.png,0.0,0.84646744,4.291396,-2.4359324
alexnet,1,106,NaN,knife,dog,NaN,dog5.png,dog5.png,0.0,-0.18945998,4.552649,-3.3531773
alexnet,1,107,NaN,elephant,dog,NaN,dog6.png,dog6.png,0.0,1.4503216,5.5009513,-2.8642278
alexnet,1,108,NaN,knife,dog,NaN,dog7.png,dog7.png,0.0,1.3741747,3.1154919,-1.2312971
alexnet,1,109,NaN,elephant,dog,NaN,dog8.png,dog8.png,0.0,2.9462676,4.950652,-1.4173139
alexnet,1,110,NaN,bear,dog,NaN,dog9.png,dog9.png,0.0,3.422074,3.9181874,-0.35080507
alexnet,1,111,NaN,elephant,elephant,NaN,elephant1.png,elephant1.png,1.0,4.935616,4.777853,0.11155529
alexnet,1,112,NaN,knife,elephant,NaN,elephant10.png,elephant10.png,0.0,-0.06787416,2.6141553,-1.8964813
alexnet,1,113,NaN,chair,elephant,NaN,elephant2.png,elephant2.png,0.0,3.0546389,4.787427,-1.2252662
alexnet,1,114,NaN,knife,elephant,NaN,elephant3.png,elephant3.png,0.0,2.197246,4.486964,-1.6190753
alexnet,1,115,NaN,elephant,elephant,NaN,elephant4.png,elephant4.png,1.0,7.213066,5.398901,1.2828084
alexnet,1,116,NaN,knife,elephant,NaN,elephant5.png,elephant5.png,0.0,3.0959089,6.2601414,-2.2374504
alexnet,1,117,NaN,elephant,elephant,NaN,elephant6.png,elephant6.png,1.0,5.027053,3.6777058,0.9541325
alexnet,1,118,NaN,elephant,elephant,NaN,elephant7.png,elephant7.png,1.0,8.04447,4.0184755,2.846808
alexnet,1,119,NaN,elephant,elephant,NaN,elephant8.png,elephant8.png,1.0,9.025932,3.6756666,3.783209
alexnet,1,120,NaN,elephant,elephant,NaN,elephant9.png,elephant9.png,1.0,5.98254,4.329377,1.1689627
alexnet,1,121,NaN,knife,keyboard,NaN,keyboard1.png,keyboard1.png,0.0,2.4047003,9.9401,-5.328332
alexnet,1,122,NaN,knife,keyboard,NaN,keyboard10.png,keyboard10.png,0.0,2.859548,6.91059,-2.8645194
alexnet,1,123,NaN,knife,keyboard,NaN,keyboard2.png,keyboard2.png,0.0,3.7804928,7.51654,-2.6417844
alexnet,1,124,NaN,knife,keyboard,NaN,keyboard3.png,keyboard3.png,0.0,2.0758963,6.6451416,-3.2309444
alexnet,1,125,NaN,knife,keyboard,NaN,keyboard4.png,keyboard4.png,0.0,2.727462,5.176038,-1.7314045
alexnet,1,126,NaN,knife,keyboard,NaN,keyboard5.png,keyboard5.png,0.0,4.393915,8.112966,-2.6297657
alexnet,1,127,NaN,knife,keyboard,NaN,keyboard6.png,keyboard6.png,0.0,1.3792125,9.029382,-5.409487
alexnet,1,128,NaN,knife,keyboard,NaN,keyboard7.png,keyboard7.png,0.0,3.6733575,6.520852,-2.0134828
alexnet,1,129,NaN,knife,keyboard,NaN,keyboard8.png,keyboard8.png,0.0,0.22259587,4.111744,-2.750043
alexnet,1,130,NaN,knife,keyboard,NaN,keyboard9.png,keyboard9.png,0.0,1.1450676,6.1874123,-3.5654762
alexnet,1,131,NaN,knife,knife,NaN,knife1.png,knife1.png,1.0,6.5134897,4.8399873,1.183345
alexnet,1,132,NaN,knife,knife,NaN,knife10.png,knife10.png,1.0,9.3201885,4.3882966,3.4873743
alexnet,1,133,NaN,knife,knife,NaN,knife2.png,knife2.png,1.0,5.343665,3.1258564,1.5682276
alexnet,1,134,NaN,knife,knife,NaN,knife3.png,knife3.png,1.0,4.7571974,3.9100392,0.5990313
alexnet,1,135,NaN,knife,knife,NaN,knife4.png,knife4.png,1.0,7.3962765,5.8703094,1.0790217
alexnet,1,136,NaN,knife,knife,NaN,knife5.png,knife5.png,1.0,7.1475596,1.632903,3.899451
alexnet,1,137,NaN,knife,knife,NaN,knife6.png,knife6.png,1.0,6.419856,1.9367559,3.1700304
alexnet,1,138,NaN,knife,knife,NaN,knife7.png,knife7.png,1.0,10.415836,3.738364,4.721686
alexnet,1,139,NaN,knife,knife,NaN,knife8.png,knife8.png,1.0,8.385553,3.2680328,3.6186335
alexnet,1,140,NaN,knife,knife,NaN,knife9.png,knife9.png,1.0,7.3188386,2.349959,3.5135286
alexnet,1,141,NaN,knife,oven,NaN,oven1.png,oven1.png,0.0,-0.22632706,4.2204685,-3.1443594
alexnet,1,142,NaN,knife,oven,NaN,oven10.png,oven10.png,0.0,-0.07402557,4.8697033,-3.4957442
alexnet,1,143,NaN,knife,oven,NaN,oven2.png,oven2.png,0.0,-0.4122619,4.253987,-3.2995362
alexnet,1,144,NaN,knife,oven,NaN,oven3.png,oven3.png,0.0,1.3532943,5.71266,-3.082537
alexnet,1,145,NaN,knife,oven,NaN,oven4.png,oven4.png,0.0,1.1900988,5.7040124,-3.191819
alexnet,1,146,NaN,chair,oven,NaN,oven5.png,oven5.png,0.0,-0.19407982,4.9411063,-3.631125
alexnet,1,147,NaN,knife,oven,NaN,oven6.png,oven6.png,0.0,2.5445304,4.819715,-1.6087985
alexnet,1,148,NaN,chair,oven,NaN,oven7.png,oven7.png,0.0,0.7519257,4.3086376,-2.514975
alexnet,1,149,NaN,knife,oven,NaN,oven8.png,oven8.png,0.0,1.7550044,4.8762283,-2.2070386
alexnet,1,150,NaN,chair,oven,NaN,oven9.png,oven9.png,0.0,0.3247822,3.7073176,-2.3918138
alexnet,1,151,NaN,knife,truck,NaN,truck1.png,truck1.png,0.0,-2.1383624,4.6944366,-4.8315187
alexnet,1,152,NaN,elephant,truck,NaN,truck10.png,truck10.png,0.0,-3.502806,3.4599652,-4.923423
alexnet,1,153,NaN,elephant,truck,NaN,truck2.png,truck2.png,0.0,-2.9734244,3.8086145,-4.7956257
alexnet,1,154,NaN,knife,truck,NaN,truck3.png,truck3.png,0.0,-2.4430137,5.455641,-5.585192
alexnet,1,155,NaN,chair,truck,NaN,truck4.png,truck4.png,0.0,-2.7299929,4.7915916,-5.3185635
alexnet,1,156,NaN,knife,truck,NaN,truck5.png,truck5.png,0.0,-1.4021748,5.6682453,-4.999542
alexnet,1,157,NaN,knife,truck,NaN,truck6.png,truck6.png,0.0,-2.6124759,4.57746,-5.0840526
alexnet,1,158,NaN,knife,truck,NaN,truck7.png,truck7.png,0.0,-2.8804126,3.7819347,-4.710991
alexnet,1,159,NaN,knife,truck,NaN,truck8.png,truck8.png,0.0,-2.5760474,4.256316,-4.8312106
alexnet,1,160,NaN,knife,truck,NaN,truck9.png,truck9.png,0.0,-2.653097,6.0683923,-6.167024
