subj,session,trial,rt,object_response,category,condition,imagename,filename,is_correct,targ_act,max_nontarg_act,decision_margin
vit_b_16,1,1,NaN,airplane,airplane,NaN,airplane1.png,airplane1.png,1.0,6.2117276,1.0482305,3.6511438
vit_b_16,1,2,NaN,airplane,airplane,NaN,airplane10.png,airplane10.png,1.0,7.607059,0.53972006,4.9973636
vit_b_16,1,3,NaN,airplane,airplane,NaN,airplane2.png,airplane2.png,1.0,5.824379,2.1918197,2.5686073
vit_b_16,1,4,NaN,airplane,airplane,NaN,airplane3.png,airplane3.png,1.0,6.5848618,0.19729473,4.516692
vit_b_16,1,5,NaN,airplane,airplane,NaN,airplane4.png,airplane4.png,1.0,6.7514176,1.789062,3.5089154
vit_b_16,1,6,NaN,airplane,airplane,NaN,airplane5.png,airplane5.png,1.0,5.1619005,1.9224901,2.2906091
vit_b_16,1,7,NaN,airplane,airplane,NaN,airplane6.png,airplane6.png,1.0,6.3832345,0.73335344,3.9950693
vit_b_16,1,8,NaN,airplane,airplane,NaN,airplane7.png,airplane7.png,1.0,6.917374,0.8955937,4.258042
vit_b_16,1,9,NaN,airplane,airplane,NaN,airplane8.png,airplane8.png,1.0,6.527513,0.2180943,4.461433
vit_b_16,1,10,NaN,airplane,airplane,NaN,airplane9.png,airplane9.png,1.0,3.6013434,1.6022811,1.4135505
vit_b_16,1,11,NaN,bear,bear,NaN,bear1.png,bear1.png,1.0,4.0344343,1.978573,1.4537137
vit_b_16,1,12,NaN,bear,bear,NaN,bear10.png,bear10.png,1.0,5.801675,1.607552,2.9656928
vit_b_16,1,13,NaN,bear,bear,NaN,bear2.png,bear2.png,1.0,6.281399,2.4238784,2.7276788
vit_b_16,1,14,NaN,bear,bear,NaN,bear3.png,bear3.png,1.0,4.647175,3.7087326,0.66357887
vit_b_16,1,15,NaN,elephant,bear,NaN,bear4.png,bear4.png,0.0,5.8469563,7.1862526,-0.94702554
vit_b_16,1,16,NaN,bear,bear,NaN,bear5.png,bear5.png,1.0,5.848429,3.1347053,1.9188926
vit_b_16,1,17,NaN,knife,bear,NaN,bear6.png,bear6.png,0.0,1.0648072,1.309492,-0.17301829
vit_b_16,1,18,NaN,elephant,bear,NaN,bear7.png,bear7.png,0.0,1.3879843,2.4150712,-0.7262602
vit_b_16,1,19,NaN,bear,bear,NaN,bear8.png,bear8.png,1.0,6.155879,1.6537733,3.1834695
vit_b_16,1,20,NaN,bear,bear,NaN,bear9.png,bear9.png,1.0,4.430791,3.6159086,0.5762088
vit_b_16,1,21,NaN,bicycle,bicycle,NaN,bicycle1.png,bicycle1.png,1.0,3.9336233,1.0505955,2.0386086
vit_b_16,1,22,NaN,bicycle,bicycle,NaN,bicycle10.png,bicycle10.png,1.0,6.938938,0.7595865,4.3694615
vit_b_16,1,23,NaN,bicycle,bicycle,NaN,bicycle2.png,bicycle2.png,1.0,4.466724,0.7648469,2.6176224
vit_b_16,1,24,NaN,bicycle,bicycle,NaN,bicycle3.png,bicycle3.png,1.0,4.7525964,0.3237597,3.1316607
vit_b_16,1,25,NaN,bicycle,bicycle,NaN,bicycle4.png,bicycle4.png,1.0,4.7976923,0.2604008,3.2083497
vit_b_16,1,26,NaN,bicycle,bicycle,NaN,bicycle5.png,bicycle5.png,1.0,5.4646664,0.28123647,3.6652384
vit_b_16,1,27,NaN,knife,bicycle,NaN,bicycle6.png,bicycle6.png,0.0,3.3098783,3.5415292,-0.16380188
vit_b_16,1,28,NaN,bicycle,bicycle,NaN,bicycle7.png,bicycle7.png,1.0,7.9087896,0.26905835,5.402106
vit_b_16,1,29,NaN,bicycle,bicycle,NaN,bicycle8.png,bicycle8.png,1.0,5.9396687,0.38805294,3.9255853
vit_b_16,1,30,NaN,bicycle,bicycle,NaN,bicycle9.png,bicycle9.png,1.0,4.8669977,0.5131717,3.07862
vit_b_16,1,31,NaN,bird,bird,NaN,bird1.png,bird1.png,1.0,2.4354007,1.1211454,0.9293189
vit_b_16,1,32,NaN,knife,bird,NaN,bird10.png,bird10.png,0.0,0.6214595,1.1569864,-0.3786747
vit_b_16,1,33,NaN,knife,bird,NaN,bird2.png,bird2.png,0.0,-0.6910265,2.276278,-2.098201
vit_b_16,1,34,NaN,chair,bird,NaN,bird3.png,bird3.png,0.0,0.56160504,1.2471473,-0.4847516
vit_b_16,1,35,NaN,knife,bird,NaN,bird4.png,bird4.png,0.0,1.3594161,3.2458858,-1.3339355
vit_b_16,1,36,NaN,bird,bird,NaN,bird5.png,bird5.png,1.0,1.515083,0.6509542,0.6110313
vit_b_16,1,37,NaN,bird,bird,NaN,bird6.png,bird6.png,1.0,1.1803832,0.61471117,0.39999053
vit_b_16,1,38,NaN,bird,bird,NaN,bird7.png,bird7.png,1.0,1.8645045,1.3714167,0.3486657
vit_b_16,1,39,NaN,bird,bird,NaN,bird8.png,bird8.png,1.0,1.026017,0.91766053,0.07661956
vit_b_16,1,40,NaN,bird,bird,NaN,bird9.png,bird9.png,1.0,1.9267126,1.0029306,0.65321255
vit_b_16,1,41,NaN,knife,boat,NaN,boat1.png,boat1.png,0.0,0.052158475,6.845732,-4.803782
vit_b_16,1,42,NaN,knife,boat,NaN,boat10.png,boat10.png,0.0,-0.7113024,3.6641495,-3.093912
vit_b_16,1,43,NaN,knife,boat,NaN,boat2.png,boat2.png,0.0,-0.7816309,4.1803346,-3.5086396
vit_b_16,1,44,NaN,keyboard,boat,NaN,boat3.png,boat3.png,0.0,0.30419907,0.8629911,-0.39512563
vit_b_16,1,45,NaN,knife,boat,NaN,boat4.png,boat4.png,0.0,0.17805472,4.1910853,-2.8376412
vit_b_16,1,46,NaN,boat,boat,NaN,boat5.png,boat5.png,1.0,1.3094145,0.28600234,0.7236617
vit_b_16,1,47,NaN,knife,boat,NaN,boat6.png,boat6.png,0.0,1.1079422,3.3006716,-1.550494
vit_b_16,1,48,NaN,knife,boat,NaN,boat7.png,boat7.png,0.0,0.22972766,3.1507728,-2.0654907
vit_b_16,1,49,NaN,knife,boat,NaN,boat8.png,boat8.png,0.0,0.8901262,4.1843014,-2.3293335
vit_b_16,1,50,NaN,boat,boat,NaN,boat9.png,boat9.png,1.0,1.3272417,0.8450806,0.34093934
vit_b_16,1,51,NaN,bottle,bottle,NaN,bottle1.png,bottle1.png,1.0,2.7134137,0.77926755,1.3676479
vit_b_16,1,52,NaN,bottle,bottle,NaN,bottle10.png,bottle10.png,1.0,4.2106433,2.1304455,1.470922
vit_b_16,1,53,NaN,bottle,bottle,NaN,bottle2.png,bottle2.png,1.0,2.6759427,1.0100785,1.1779438
vit_b_16,1,54,NaN,bottle,bottle,NaN,bottle3.png,bottle3.png,1.0,2.9898915,0.89877427,1.4786433
vit_b_16,1,55,NaN,bottle,bottle,NaN,bottle4.png,bottle4.png,1.0,2.9117723,0.5609843,1.662258
vit_b_16,1,56,NaN,bottle,bottle,NaN,bottle5.png,bottle5.png,1.0,4.934262,0.2932915,3.2816615
vit_b_16,1,57,NaN,bottle,bottle,NaN,bottle6.png,bottle6.png,1.0,4.8703694,0.9117043,2.799199
vit_b_16,1,58,NaN,bottle,bottle,NaN,bottle7.png,bottle7.png,1.0,3.997757,1.1084393,2.043056
vit_b_16,1,59,NaN,bottle,bottle,NaN,bottle8.png,bottle8.png,1.0,2.7884598,1.0527283,1.2273475
vit_b_16,1,60,NaN,bottle,bottle,NaN,bottle9.png,bottle9.png,1.0,3.1669424,1.4027638,1.2474626
vit_b_16,1,61,NaN,knife,car,NaN,car1.png,car1.png,0.0,-0.6339581,3.1560676,-2.6799529
vit_b_16,1,62,NaN,knife,car,NaN,car10.png,car10.png,0.0,-0.8425463,3.2011933,-2.859356
vit_b_16,1,63,NaN,knife,car,NaN,car2.png,car2.png,0.0,-0.8005338,4.12881,-3.4855723
vit_b_16,1,64,NaN,knife,car,NaN,car3.png,car3.png,0.0,-0.67607564,4.914671,-3.9532547
vit_b_16,1,65,NaN,oven,car,NaN,car4.png,car4.png,0.0,-0.21808706,2.1882346,-1.7015263
vit_b_16,1,66,NaN,chair,car,NaN,car5.png,car5.png,0.0,-0.07786356,0.9367477,-0.7174385
vit_b_16,1,67,NaN,knife,car,NaN,car6.png,car6.png,0.0,-0.5200873,3.8676388,-3.102591
vit_b_16,1,68,NaN,knife,car,NaN,car7.png,car7.png,0.0,-0.46612826,1.1924263,-1.1727751
vit_b_16,1,69,NaN,knife,car,NaN,car8.png,car8.png,0.0,-0.6981805,2.9440818,-2.5754683
vit_b_16,1,70,NaN,knife,car,NaN,car9.png,car9.png,0.0,-0.090935476,2.703237,-1.9757783
vit_b_16,1,71,NaN,cat,cat,NaN,cat1.png,cat1.png,1.0,2.033626,0.5943017,1.0177561
vit_b_16,1,72,NaN,elephant,cat,NaN,cat10.png,cat10.png,0.0,0.8720377,2.191464,-0.9329753
vit_b_16,1,73,NaN,bear,cat,NaN,cat2.png,cat2.png,0.0,0.42956686,1.21246,-0.5535891
vit_b_16,1,74,NaN,knife,cat,NaN,cat3.png,cat3.png,0.0,0.9674602,1.2709247,-0.21458179
vit_b_16,1,75,NaN,cat,cat,NaN,cat4.png,cat4.png,1.0,2.387309,0.7579648,1.1521204
vit_b_16,1,76,NaN,cat,cat,NaN,cat5.png,cat5.png,1.0,3.4013388,2.894569,0.35834044
vit_b_16,1,77,NaN,cat,cat,NaN,cat6.png,cat6.png,1.0,3.7285492,0.6354753,2.1871336
vit_b_16,1,78,NaN,cat,cat,NaN,cat7.png,cat7.png,1.0,3.873226,0.39820734,2.457209
vit_b_16,1,79,NaN,clock,cat,NaN,cat8.png,cat8.png,0.0,0.35873353,1.0136392,-0.46308824
vit_b_16,1,80,NaN,cat,cat,NaN,cat9.png,cat9.png,1.0,2.0554411,1.1544743,0.6370798
vit_b_16,1,81,NaN,chair,chair,NaN,chair1.png,chair1.png,1.0,3.7568681,2.0355682,1.2171428
vit_b_16,1,82,NaN,chair,chair,NaN,chair10.png,chair10.png,1.0,5.2283626,0.33789575,3.4580822
vit_b_16,1,83,NaN,chair,chair,NaN,chair2.png,chair2.png,1.0,4.513036,0.3985069,2.9094112
vit_b_16,1,84,NaN,chair,chair,NaN,chair3.png,chair3.png,1.0,4.190136,2.2151203,1.396547
vit_b_16,1,85,NaN,chair,chair,NaN,chair4.png,chair4.png,1.0,4.3348136,1.0316628,2.3356802
vit_b_16,1,86,NaN,chair,chair,NaN,chair5.png,chair5.png,1.0,4.793264,0.6541555,2.926792
vit_b_16,1,87,NaN,chair,chair,NaN,chair6.png,chair6.png,1.0,4.3969116,0.7161057,2.602723
vit_b_16,1,88,NaN,chair,chair,NaN,chair7.png,chair7.png,1.0,3.3690186,1.4457372,1.3599653
vit_b_16,1,89,NaN,chair,chair,NaN,chair8.png,chair8.png,1.0,3.8640926,1.5684155,1.623289
vit_b_16,1,90,NaN,chair,chair,NaN,chair9.png,chair9.png,1.0,3.6848025,2.4044151,0.90537065
vit_b_16,1,91,NaN,knife,clock,NaN,clock1.png,clock1.png,0.0,2.2933023,3.379825,-0.76828766
vit_b_16,1,92,NaN,clock,clock,NaN,clock10.png,clock10.png,1.0,0.55378765,0.27306646,0.19849986
vit_b_16,1,93,NaN,clock,clock,NaN,clock2.png,clock2.png,1.0,3.7994292,2.557056,0.87849057
vit_b_16,1,94,NaN,clock,clock,NaN,clock3.png,clock3.png,1.0,3.6873224,2.5382667,0.8125051
vit_b_16,1,95,NaN,clock,clock,NaN,clock4.png,clock4.png,1.0,2.7635543,2.6087375,0.10947206
vit_b_16,1,96,NaN,clock,clock,NaN,clock5.png,clock5.png,1.0,3.740722,2.4129314,0.9388897
vit_b_16,1,97,NaN,clock,clock,NaN,clock6.png,clock6.png,1.0,3.4905264,2.3110077,0.8340457
vit_b_16,1,98,NaN,knife,clock,NaN,clock7.png,clock7.png,0.0,2.817839,3.2642224,-0.31564078
vit_b_16,1,99,NaN,clock,clock,NaN,clock8.png,clock8.png,1.0,1.7206343,1.000174,0.5094424
vit_b_16,1,100,NaN,clock,clock,NaN,clock9.png,clock9.png,1.0,3.487725,2.2151666,0.89983475
vit_b_16,1,101,NaN,knife,dog,NaN,dog1.png,dog1.png,0.0,0.1533218,1.9846661,-1.2949561
vit_b_16,1,102,NaN,knife,dog,NaN,dog10.png,dog10.png,0.0,0.6524063,1.5891057,-0.66234654
vit_b_16,1,103,NaN,elephant,dog,NaN,dog2.png,dog2.png,0.0,0.28697821,2.0469487,-1.244487
vit_b_16,1,104,NaN,knife,dog,NaN,dog3.png,dog3.png,0.0,0.3738141,1.5996703,-0.8668112
vit_b_16,1,105,NaN,cat,dog,NaN,dog4.png,dog4.png,0.0,1.2963061,1.313556,-0.012197467
vit_b_16,1,106,NaN,elephant,dog,NaN,dog5.png,dog5.png,0.0,0.10307212,2.5193596,-1.7085732
vit_b_16,1,107,NaN,elephant,dog,NaN,dog6.png,dog6.png,0.0,0.7104396,3.756884,-2.1541615
vit_b_16,1,108,NaN,knife,dog,NaN,dog7.png,dog7.png,0.0,-0.24580356,0.2970905,-0.38388407
vit_b_16,1,109,NaN,elephant,dog,NaN,dog8.png,dog8.png,0.0,0.66902226,3.4004335,-1.9313995
vit_b_16,1,110,NaN,dog,dog,NaN,dog9.png,dog9.png,1.0,1.0176474,0.5064907,0.36144236
vit_b_16,1,111,NaN,elephant,elephant,NaN,elephant1.png,elephant1.png,1.0,6.894555,3.701002,2.2581832
vit_b_16,1,112,NaN,clock,elephant,NaN,elephant10.png,elephant10.png,0.0,0.5895423,1.4899853,-0.6367094
vit_b_16,1,113,NaN,elephant,elephant,NaN,elephant2.png,elephant2.png,1.0,7.2796297,2.7136393,3.228643
vit_b_16,1,114,NaN,elephant,elephant,NaN,elephant3.png,elephant3.png,1.0,4.0604734,1.0004667,2.1637514
vit_b_16,1,115,NaN,elephant,elephant,NaN,elephant4.png,elephant4.png,1.0,7.39375,3.7507265,2.576007
vit_b_16,1,116,NaN,elephant,elephant,NaN,elephant5.png,elephant5.png,1.0,5.606626,4.5356927,0.75726426
vit_b_16,1,117,NaN,elephant,elephant,NaN,elephant6.png,elephant6.png,1.0,7.296049,5.0501385,1.5880986
vit_b_16,1,118,NaN,elephant,elephant,NaN,elephant7.png,elephant7.png,1.0,7.223561,2.9904642,2.9932513
vit_b_16,1,119,NaN,elephant,elephant,NaN,elephant8.png,elephant8.png,1.0,7.800033,2.156327,3.990703
vit_b_16,1,120,NaN,elephant,elephant,NaN,elephant9.png,elephant9.png,1.0,7.5551996,2.168112,3.8092463
vit_b_16,1,121,NaN,knife,keyboard,NaN,keyboard1.png,keyboard1.png,0.0,0.24058428,7.898994,-5.4153132
vit_b_16,1,122,NaN,knife,keyboard,NaN,keyboard10.png,keyboard10.png,0.0,0.5145822,4.2819858,-2.6639566
vit_b_16,1,123,NaN,clock,keyboard,NaN,keyboard2.png,keyboard2.png,0.0,1.1233201,2.98824,-1.3186976
vit_b_16,1,124,NaN,knife,keyboard,NaN,keyboard3.png,keyboard3.png,0.0,0.16573705,3.2027655,-2.1475034
vit_b_16,1,125,NaN,clock,keyboard,NaN,keyboard4.png,keyboard4.png,0.0,2.0444646,2.8069718,-0.539174
vit_b_16,1,126,NaN,knife,keyboard,NaN,keyboard5.png,keyboard5.png,0.0,0.2622655,3.2700052,-2.1267931
vit_b_16,1,127,NaN,knife,keyboard,NaN,keyboard6.png,keyboard6.png,0.0,0.30836505,7.1602554,-4.8450184
vit_b_16,1,128,NaN,knife,keyboard,NaN,keyboard7.png,keyboard7.png,0.0,0.27066216,1.8170427,-1.0934561
vit_b_16,1,129,NaN,clock,keyboard,NaN,keyboard8.png,keyboard8.png,0.0,1.6760495,2.350455,-0.47687677
vit_b_16,1,130,NaN,knife,keyboard,NaN,keyboard9.png,keyboard9.png,0.0,0.26632255,3.3796914,-2.2014842
vit_b_16,1,131,NaN,knife,knife,NaN,knife1.png,knife1.png,1.0,3.6502533,0.7059217,2.0819569
vit_b_16,1,132,NaN,knife,knife,NaN,knife10.png,knife10.png,1.0,7.471433,0.42676008,4.981336
vit_b_16,1,133,NaN,knife,knife,NaN,knife2.png,knife2.png,1.0,1.636601,0.910902,0.51314664
vit_b_16,1,134,NaN,clock,knife,NaN,knife3.png,knife3.png,0.0,0.52564216,1.3197268,-0.56150264
vit_b_16,1,135,NaN,knife,knife,NaN,knife4.png,knife4.png,1.0,3.3307927,0.7090728,1.8538359
vit_b_16,1,136,NaN,knife,knife,NaN,knife5.png,knife5.png,1.0,7.6803308,0.5149955,5.066657
vit_b_16,1,137,NaN,knife,knife,NaN,knife6.png,knife6.png,1.0,1.9224713,1.0504957,0.61657983
vit_b_16,1,138,NaN,knife,knife,NaN,knife7.png,knife7.png,1.0,8.059789,0.62097174,5.260038
vit_b_16,1,139,NaN,knife,knife,NaN,knife8.png,knife8.png,1.0,4.651213,0.39546305,3.00927
vit_b_16,1,140,NaN,knife,knife,NaN,knife9.png,knife9.png,1.0,4.5144343,0.37824583,2.924727
vit_b_16,1,141,NaN,knife,oven,NaN,oven1.png,oven1.png,0.0,0.5675739,3.335681,-1.9573473
vit_b_16,1,142,NaN,knife,oven,NaN,oven10.png,oven10.png,0.0,0.017307894,4.4057918,-3.1031268
vit_b_16,1,143,NaN,knife,oven,NaN,oven2.png,oven2.png,0.0,0.8981707,3.2643347,-1.6731306
vit_b_16,1,144,NaN,knife,oven,NaN,oven3.png,oven3.png,0.0,0.8649219,1.7457322,-0.62282693
vit_b_16,1,145,NaN,knife,oven,NaN,oven4.png,oven4.png,0.0,0.3738749,5.785823,-3.8268254
vit_b_16,1,146,NaN,knife,oven,NaN,oven5.png,oven5.png,0.0,-0.25557956,1.2340591,-1.0533336
vit_b_16,1,147,NaN,knife,oven,NaN,oven6.png,oven6.png,0.0,1.8318084,5.3288527,-2.4727836
vit_b_16,1,148,NaN,knife,oven,NaN,oven7.png,oven7.png,0.0,-0.47543615,5.1886005,-4.005079
vit_b_16,1,149,NaN,knife,oven,NaN,oven8.png,oven8.png,0.0,0.6683807,2.0945323,-1.0084414
vit_b_16,1,150,NaN,clock,oven,NaN,oven9.png,oven9.png,0.0,0.6115418,1.351662,-0.52334404
vit_b_16,1,151,NaN,knife,truck,NaN,truck1.png,truck1.png,0.0,-1.0798014,3.5060117,-3.2426596
vit_b_16,1,152,NaN,bear,truck,NaN,truck10.png,truck10.png,0.0,0.16352788,2.0645924,-1.3442557
vit_b_16,1,153,NaN,knife,truck,NaN,truck2.png,truck2.png,0.0,-0.716813,3.567353,-3.0293627
vit_b_16,1,154,NaN,knife,truck,NaN,truck3.png,truck3.png,0.0,0.6859485,5.205796,-3.196015
vit_b_16,1,155,NaN,clock,truck,NaN,truck4.png,truck4.png,0.0,-0.59768033,1.1734005,-1.2523433
vit_b_16,1,156,NaN,knife,truck,NaN,truck5.png,truck5.png,0.0,0.121696115,6.0628366,-4.2010207
vit_b_16,1,157,NaN,knife,truck,NaN,truck6.png,truck6.png,0.0,-0.2342163,5.1373835,-3.7982945
vit_b_16,1,158,NaN,knife,truck,NaN,truck7.png,truck7.png,0.0,-0.41883534,4.264013,-3.3112736
vit_b_16,1,159,NaN,knife,truck,NaN,truck8.png,truck8.png,0.0,0.07062322,1.8028469,-1.2248672
vit_b_16,1,160,NaN,knife,truck,NaN,truck9.png,truck9.png,0.0,-0.50825554,3.9097996,-3.1240368
