subj,session,trial,rt,object_response,category,condition,imagename,filename,is_correct,targ_act,max_nontarg_act,decision_margin
vit_b_16,1,1,NaN,airplane,airplane,NaN,airplane1-bicycle2.png,airplane1-bicycle2.png,1.0,3.861253,3.331974,0.37425676
vit_b_16,1,2,NaN,clock,airplane,NaN,airplane1-chair2.png,airplane1-chair2.png,0.0,-0.34752423,1.2914848,-1.1589544
vit_b_16,1,3,NaN,clock,airplane,NaN,airplane1-clock1.png,airplane1-clock1.png,0.0,1.4593934,5.129374,-2.5950682
vit_b_16,1,4,NaN,elephant,airplane,NaN,airplane1-elephant1.png,airplane1-elephant1.png,0.0,0.3844114,5.3696947,-3.5251276
vit_b_16,1,5,NaN,airplane,airplane,NaN,airplane10-airplane1.png,airplane10-airplane1.png,1.0,3.3054018,1.1365848,1.5335853
vit_b_16,1,6,NaN,bird,airplane,NaN,airplane10-bear3.png,airplane10-bear3.png,0.0,-0.3962223,1.286938,-1.1901741
vit_b_16,1,7,NaN,airplane,airplane,NaN,airplane10-boat3.png,airplane10-boat3.png,1.0,5.2926865,2.7814689,1.775699
vit_b_16,1,8,NaN,car,airplane,NaN,airplane10-car3.png,airplane10-car3.png,0.0,1.9353362,2.6373527,-0.49640062
vit_b_16,1,9,NaN,bird,airplane,NaN,airplane10-cat2.png,airplane10-cat2.png,0.0,-0.6462682,1.1032369,-1.2370869
vit_b_16,1,10,NaN,bird,airplane,NaN,airplane10-dog3.png,airplane10-dog3.png,0.0,-0.5626793,0.683976,-0.88151836
vit_b_16,1,11,NaN,elephant,airplane,NaN,airplane10-elephant1.png,airplane10-elephant1.png,0.0,-0.40085542,7.64854,-5.6917825
vit_b_16,1,12,NaN,knife,airplane,NaN,airplane10-knife3.png,airplane10-knife3.png,0.0,0.8550246,3.479659,-1.8558968
vit_b_16,1,13,NaN,bottle,airplane,NaN,airplane10-oven2.png,airplane10-oven2.png,0.0,2.7015483,2.907809,-0.14584833
vit_b_16,1,14,NaN,car,airplane,NaN,airplane10-truck1.png,airplane10-truck1.png,0.0,1.8225517,4.7249484,-2.0523045
vit_b_16,1,15,NaN,bear,airplane,NaN,airplane2-bear1.png,airplane2-bear1.png,0.0,0.35151696,3.6908712,-2.3612802
vit_b_16,1,16,NaN,bicycle,airplane,NaN,airplane2-bicycle1.png,airplane2-bicycle1.png,0.0,0.14333905,1.1016904,-0.67765677
vit_b_16,1,17,NaN,bottle,airplane,NaN,airplane2-bird3.png,airplane2-bird3.png,0.0,0.80963564,1.1330165,-0.22866479
vit_b_16,1,18,NaN,bottle,airplane,NaN,airplane2-bottle1.png,airplane2-bottle1.png,0.0,-0.19296096,2.918016,-2.1997929
vit_b_16,1,19,NaN,cat,airplane,NaN,airplane2-cat1.png,airplane2-cat1.png,0.0,-0.805948,2.8495867,-2.5848534
vit_b_16,1,20,NaN,bear,airplane,NaN,airplane2-dog1.png,airplane2-dog1.png,0.0,-0.451863,0.66473114,-0.78955126
vit_b_16,1,21,NaN,airplane,airplane,NaN,airplane3-airplane2.png,airplane3-airplane2.png,1.0,2.2074895,1.6990966,0.3594881
vit_b_16,1,22,NaN,clock,airplane,NaN,airplane3-car1.png,airplane3-car1.png,0.0,-0.34128582,0.5288785,-0.6152991
vit_b_16,1,23,NaN,cat,airplane,NaN,airplane3-cat1.png,airplane3-cat1.png,0.0,-0.86106455,2.771067,-2.568305
vit_b_16,1,24,NaN,airplane,airplane,NaN,airplane3-chair3.png,airplane3-chair3.png,1.0,3.2659032,0.9527302,1.6356604
vit_b_16,1,25,NaN,clock,airplane,NaN,airplane3-clock1.png,airplane3-clock1.png,0.0,0.2312214,3.768193,-2.5010166
vit_b_16,1,26,NaN,bear,airplane,NaN,airplane3-dog1.png,airplane3-dog1.png,0.0,-0.77533007,0.66919845,-1.021436
vit_b_16,1,27,NaN,elephant,airplane,NaN,airplane3-elephant1.png,airplane3-elephant1.png,0.0,-0.0461775,5.338175,-3.807312
vit_b_16,1,28,NaN,keyboard,airplane,NaN,airplane3-keyboard2.png,airplane3-keyboard2.png,0.0,0.32050812,3.987906,-2.593242
vit_b_16,1,29,NaN,oven,airplane,NaN,airplane3-oven1.png,airplane3-oven1.png,0.0,1.9029658,2.8748612,-0.68723387
vit_b_16,1,30,NaN,airplane,airplane,NaN,airplane4-airplane1.png,airplane4-airplane1.png,1.0,3.8349402,0.9933882,2.0092807
vit_b_16,1,31,NaN,elephant,airplane,NaN,airplane4-bear3.png,airplane4-bear3.png,0.0,-0.3372519,2.4876707,-1.9975219
vit_b_16,1,32,NaN,chair,airplane,NaN,airplane4-bicycle2.png,airplane4-bicycle2.png,0.0,0.83166116,1.4386626,-0.42921486
vit_b_16,1,33,NaN,oven,airplane,NaN,airplane4-bird3.png,airplane4-bird3.png,0.0,0.6889427,2.5691388,-1.3294995
vit_b_16,1,34,NaN,airplane,airplane,NaN,airplane4-boat3.png,airplane4-boat3.png,1.0,3.4046893,2.6233218,0.5525103
vit_b_16,1,35,NaN,bottle,airplane,NaN,airplane4-bottle1.png,airplane4-bottle1.png,0.0,-0.6963664,2.6888566,-2.3937142
vit_b_16,1,36,NaN,airplane,airplane,NaN,airplane4-car1.png,airplane4-car1.png,1.0,1.6006206,1.1665779,0.30691454
vit_b_16,1,37,NaN,oven,airplane,NaN,airplane4-cat3.png,airplane4-cat3.png,0.0,-0.18025534,4.4186397,-3.25191
vit_b_16,1,38,NaN,dog,airplane,NaN,airplane4-dog2.png,airplane4-dog2.png,0.0,-0.955104,1.0654975,-1.428781
vit_b_16,1,39,NaN,elephant,airplane,NaN,airplane4-elephant1.png,airplane4-elephant1.png,0.0,1.8777573,7.123808,-3.7095182
vit_b_16,1,40,NaN,bottle,airplane,NaN,airplane4-keyboard3.png,airplane4-keyboard3.png,0.0,0.7745831,2.466317,-1.1962365
vit_b_16,1,41,NaN,bottle,airplane,NaN,airplane4-knife1.png,airplane4-knife1.png,0.0,0.31497622,0.9245329,-0.43102166
vit_b_16,1,42,NaN,car,airplane,NaN,airplane4-truck2.png,airplane4-truck2.png,0.0,0.920436,3.660758,-1.9377004
vit_b_16,1,43,NaN,bear,airplane,NaN,airplane5-bear2.png,airplane5-bear2.png,0.0,1.2350267,2.4074955,-0.8290606
vit_b_16,1,44,NaN,airplane,airplane,NaN,airplane5-bicycle1.png,airplane5-bicycle1.png,1.0,5.397851,1.3430883,2.8671503
vit_b_16,1,45,NaN,airplane,airplane,NaN,airplane5-bird2.png,airplane5-bird2.png,1.0,1.6479522,0.8245106,0.58226115
vit_b_16,1,46,NaN,airplane,airplane,NaN,airplane5-boat3.png,airplane5-boat3.png,1.0,5.383898,1.0854286,3.0394766
vit_b_16,1,47,NaN,bottle,airplane,NaN,airplane5-bottle3.png,airplane5-bottle3.png,0.0,1.0083039,3.4658284,-1.7377323
vit_b_16,1,48,NaN,airplane,airplane,NaN,airplane5-chair3.png,airplane5-chair3.png,1.0,3.8688047,1.5495836,1.6399369
vit_b_16,1,49,NaN,cat,airplane,NaN,airplane5-dog3.png,airplane5-dog3.png,0.0,-0.15302442,1.0394627,-0.84321576
vit_b_16,1,50,NaN,knife,airplane,NaN,airplane5-knife1.png,airplane5-knife1.png,0.0,0.46505046,1.243965,-0.55077577
vit_b_16,1,51,NaN,oven,airplane,NaN,airplane5-oven3.png,airplane5-oven3.png,0.0,0.030523703,2.7155502,-1.8986005
vit_b_16,1,52,NaN,bear,airplane,NaN,airplane6-bear3.png,airplane6-bear3.png,0.0,-0.05800645,0.85454077,-0.6452683
vit_b_16,1,53,NaN,bottle,airplane,NaN,airplane6-bottle2.png,airplane6-bottle2.png,0.0,0.120542824,2.7770696,-1.8784481
vit_b_16,1,54,NaN,airplane,airplane,NaN,airplane6-chair3.png,airplane6-chair3.png,1.0,4.5521092,0.90808487,2.5767143
vit_b_16,1,55,NaN,airplane,airplane,NaN,airplane6-keyboard3.png,airplane6-keyboard3.png,1.0,4.9994507,1.5811032,2.4171367
vit_b_16,1,56,NaN,knife,airplane,NaN,airplane6-knife1.png,airplane6-knife1.png,0.0,1.0282702,1.7644917,-0.5205872
vit_b_16,1,57,NaN,airplane,airplane,NaN,airplane7-airplane3.png,airplane7-airplane3.png,1.0,5.4752207,1.5858825,2.7501774
vit_b_16,1,58,NaN,bottle,airplane,NaN,airplane7-bird3.png,airplane7-bird3.png,0.0,0.70979285,1.555689,-0.59813887
vit_b_16,1,59,NaN,boat,airplane,NaN,airplane7-boat2.png,airplane7-boat2.png,0.0,2.3480482,2.6742806,-0.23068117
vit_b_16,1,60,NaN,bottle,airplane,NaN,airplane7-bottle3.png,airplane7-bottle3.png,0.0,0.7667563,3.4540145,-1.9001786
vit_b_16,1,61,NaN,airplane,airplane,NaN,airplane7-car1.png,airplane7-car1.png,1.0,0.79784507,0.7894737,0.0059194406
vit_b_16,1,62,NaN,bottle,airplane,NaN,airplane7-cat3.png,airplane7-cat3.png,0.0,-0.71142536,0.36112952,-0.7584108
vit_b_16,1,63,NaN,clock,airplane,NaN,airplane7-clock3.png,airplane7-clock3.png,0.0,-0.6022486,1.5341269,-1.5106456
vit_b_16,1,64,NaN,knife,airplane,NaN,airplane7-keyboard1.png,airplane7-keyboard1.png,0.0,0.8121209,2.3520582,-1.0889001
vit_b_16,1,65,NaN,car,airplane,NaN,airplane7-truck1.png,airplane7-truck1.png,0.0,0.49718475,4.942653,-3.143421
vit_b_16,1,66,NaN,bottle,airplane,NaN,airplane8-bicycle3.png,airplane8-bicycle3.png,0.0,-0.4594373,2.3454087,-1.9833257
vit_b_16,1,67,NaN,bottle,airplane,NaN,airplane8-bird1.png,airplane8-bird1.png,0.0,0.81011164,1.0508233,-0.17020887
vit_b_16,1,68,NaN,bottle,airplane,NaN,airplane8-chair1.png,airplane8-chair1.png,0.0,2.2129788,3.2736862,-0.7500334
vit_b_16,1,69,NaN,bottle,airplane,NaN,airplane8-clock2.png,airplane8-clock2.png,0.0,-0.30582136,1.5286511,-1.2971679
vit_b_16,1,70,NaN,elephant,airplane,NaN,airplane8-elephant3.png,airplane8-elephant3.png,0.0,0.21155082,7.4170785,-5.0950775
vit_b_16,1,71,NaN,bottle,airplane,NaN,airplane8-oven2.png,airplane8-oven2.png,0.0,0.55990136,1.884271,-0.9364708
vit_b_16,1,72,NaN,bottle,airplane,NaN,airplane8-truck3.png,airplane8-truck3.png,0.0,0.06838985,2.705193,-1.8645015
vit_b_16,1,73,NaN,airplane,airplane,NaN,airplane9-airplane2.png,airplane9-airplane2.png,1.0,3.4534519,0.39035198,2.1659386
vit_b_16,1,74,NaN,boat,airplane,NaN,airplane9-boat1.png,airplane9-boat1.png,0.0,1.6977528,3.014659,-0.93119323
vit_b_16,1,75,NaN,knife,airplane,NaN,airplane9-car2.png,airplane9-car2.png,0.0,-0.34514034,1.0922986,-1.0164229
vit_b_16,1,76,NaN,clock,airplane,NaN,airplane9-clock1.png,airplane9-clock1.png,0.0,-0.6544734,2.9607112,-2.5563216
vit_b_16,1,77,NaN,keyboard,airplane,NaN,airplane9-keyboard2.png,airplane9-keyboard2.png,0.0,0.9394438,4.372004,-2.4271867
vit_b_16,1,78,NaN,knife,airplane,NaN,airplane9-knife3.png,airplane9-knife3.png,0.0,0.0525382,3.927326,-2.7398887
vit_b_16,1,79,NaN,oven,airplane,NaN,airplane9-oven2.png,airplane9-oven2.png,0.0,0.35209215,4.0710425,-2.629695
vit_b_16,1,80,NaN,car,airplane,NaN,airplane9-truck1.png,airplane9-truck1.png,0.0,0.3511247,2.455869,-1.4882789
vit_b_16,1,81,NaN,airplane,bear,NaN,bear1-airplane3.png,bear1-airplane3.png,0.0,-0.26449913,2.02068,-1.6158657
vit_b_16,1,82,NaN,bear,bear,NaN,bear1-bear3.png,bear1-bear3.png,1.0,3.7974813,2.3593848,1.0168878
vit_b_16,1,83,NaN,chair,bear,NaN,bear1-bicycle3.png,bear1-bicycle3.png,0.0,-0.098132916,1.6293185,-1.2214926
vit_b_16,1,84,NaN,bear,bear,NaN,bear1-bird2.png,bear1-bird2.png,1.0,1.845988,0.89754176,0.6706528
vit_b_16,1,85,NaN,chair,bear,NaN,bear1-chair2.png,bear1-chair2.png,0.0,-0.751157,2.6463797,-2.4024212
vit_b_16,1,86,NaN,clock,bear,NaN,bear1-clock2.png,bear1-clock2.png,0.0,-0.25744134,2.2086115,-1.7437626
vit_b_16,1,87,NaN,elephant,bear,NaN,bear1-elephant1.png,bear1-elephant1.png,0.0,-0.08924624,7.5950465,-5.4336157
vit_b_16,1,88,NaN,bear,bear,NaN,bear10-bear2.png,bear10-bear2.png,1.0,4.7596254,1.3161085,2.4349341
vit_b_16,1,89,NaN,clock,bear,NaN,bear10-bottle1.png,bear10-bottle1.png,0.0,-0.5821803,2.0528471,-1.8632457
vit_b_16,1,90,NaN,clock,bear,NaN,bear10-car2.png,bear10-car2.png,0.0,-0.42096952,0.5061708,-0.65558726
vit_b_16,1,91,NaN,cat,bear,NaN,bear10-cat2.png,bear10-cat2.png,0.0,-0.19942077,1.0908753,-0.9123771
vit_b_16,1,92,NaN,chair,bear,NaN,bear10-chair2.png,bear10-chair2.png,0.0,-0.10312255,1.8167186,-1.3575327
vit_b_16,1,93,NaN,clock,bear,NaN,bear10-clock1.png,bear10-clock1.png,0.0,-0.7964595,5.4171696,-4.3936996
vit_b_16,1,94,NaN,elephant,bear,NaN,bear10-elephant1.png,bear10-elephant1.png,0.0,-0.40606368,7.7028446,-5.7338643
vit_b_16,1,95,NaN,keyboard,bear,NaN,bear10-keyboard3.png,bear10-keyboard3.png,0.0,-0.19624299,2.4611564,-1.8790652
vit_b_16,1,96,NaN,knife,bear,NaN,bear10-knife2.png,bear10-knife2.png,0.0,0.03808647,3.4130073,-2.3864295
vit_b_16,1,97,NaN,knife,bear,NaN,bear10-oven1.png,bear10-oven1.png,0.0,-0.25872463,3.7510967,-2.835372
vit_b_16,1,98,NaN,car,bear,NaN,bear10-truck1.png,bear10-truck1.png,0.0,-0.70891356,3.0556705,-2.661963
vit_b_16,1,99,NaN,knife,bear,NaN,bear2-airplane1.png,bear2-airplane1.png,0.0,-0.25204384,2.468203,-1.923505
vit_b_16,1,100,NaN,bear,bear,NaN,bear2-bird3.png,bear2-bird3.png,1.0,1.266862,0.92693233,0.2403666
vit_b_16,1,101,NaN,knife,bear,NaN,bear2-car2.png,bear2-car2.png,0.0,-0.6196001,1.6268532,-1.5884824
vit_b_16,1,102,NaN,bear,bear,NaN,bear2-cat2.png,bear2-cat2.png,1.0,3.1702125,1.0011181,1.5337815
vit_b_16,1,103,NaN,bear,bear,NaN,bear2-dog1.png,bear2-dog1.png,1.0,1.98601,0.30997187,1.1851379
vit_b_16,1,104,NaN,elephant,bear,NaN,bear2-elephant1.png,bear2-elephant1.png,0.0,-0.05051893,7.999735,-5.692389
vit_b_16,1,105,NaN,keyboard,bear,NaN,bear2-keyboard2.png,bear2-keyboard2.png,0.0,-0.49024948,5.0300207,-3.9034207
vit_b_16,1,106,NaN,oven,bear,NaN,bear2-knife2.png,bear2-knife2.png,0.0,-0.1925737,1.3544621,-1.0939195
vit_b_16,1,107,NaN,oven,bear,NaN,bear2-oven1.png,bear2-oven1.png,0.0,-0.43690628,1.4032936,-1.3012179
vit_b_16,1,108,NaN,airplane,bear,NaN,bear3-airplane1.png,bear3-airplane1.png,0.0,0.29857948,2.1368384,-1.2998455
vit_b_16,1,109,NaN,chair,bear,NaN,bear3-bicycle2.png,bear3-bicycle2.png,0.0,-0.59852344,0.72630924,-0.9367982
vit_b_16,1,110,NaN,oven,bear,NaN,bear3-bird3.png,bear3-bird3.png,0.0,0.8688867,1.2106576,-0.24166852
vit_b_16,1,111,NaN,knife,bear,NaN,bear3-car2.png,bear3-car2.png,0.0,-0.35905194,0.5794773,-0.66364044
vit_b_16,1,112,NaN,bear,bear,NaN,bear3-cat1.png,bear3-cat1.png,1.0,3.5778186,1.3707012,1.5606679
vit_b_16,1,113,NaN,chair,bear,NaN,bear3-chair2.png,bear3-chair2.png,0.0,-0.061516363,2.462686,-1.7848806
vit_b_16,1,114,NaN,dog,bear,NaN,bear3-dog3.png,bear3-dog3.png,0.0,0.23258203,0.71702665,-0.3425541
vit_b_16,1,115,NaN,keyboard,bear,NaN,bear3-keyboard2.png,bear3-keyboard2.png,0.0,0.43080103,8.20369,-5.4962626
vit_b_16,1,116,NaN,car,bear,NaN,bear3-truck3.png,bear3-truck3.png,0.0,-0.44359517,2.374344,-1.992584
vit_b_16,1,117,NaN,boat,bear,NaN,bear4-boat2.png,bear4-boat2.png,0.0,-0.6310485,1.9478136,-1.823531
vit_b_16,1,118,NaN,car,bear,NaN,bear4-car3.png,bear4-car3.png,0.0,-0.428609,3.648327,-2.8828294
vit_b_16,1,119,NaN,bear,bear,NaN,bear4-cat3.png,bear4-cat3.png,1.0,1.8507743,1.1292943,0.5101634
vit_b_16,1,120,NaN,clock,bear,NaN,bear4-clock3.png,bear4-clock3.png,0.0,-0.65068233,1.4688644,-1.498746
vit_b_16,1,121,NaN,elephant,bear,NaN,bear4-elephant2.png,bear4-elephant2.png,0.0,-0.10579866,4.878807,-3.5246487
vit_b_16,1,122,NaN,knife,bear,NaN,bear4-keyboard3.png,bear4-keyboard3.png,0.0,-0.48104978,1.4147617,-1.3405411
vit_b_16,1,123,NaN,clock,bear,NaN,bear4-knife1.png,bear4-knife1.png,0.0,-0.5360622,0.7056906,-0.8780519
vit_b_16,1,124,NaN,oven,bear,NaN,bear4-oven2.png,bear4-oven2.png,0.0,0.18617849,2.6511192,-1.7429764
vit_b_16,1,125,NaN,clock,bear,NaN,bear4-truck3.png,bear4-truck3.png,0.0,-0.18139155,1.3865803,-1.1087236
vit_b_16,1,126,NaN,airplane,bear,NaN,bear5-airplane3.png,bear5-airplane3.png,0.0,-0.03252676,3.2836237,-2.3448725
vit_b_16,1,127,NaN,oven,bear,NaN,bear5-bicycle3.png,bear5-bicycle3.png,0.0,-0.0046553453,0.67642665,-0.48159772
vit_b_16,1,128,NaN,bird,bear,NaN,bear5-bird1.png,bear5-bird1.png,0.0,1.1365167,1.2013462,-0.04584136
vit_b_16,1,129,NaN,boat,bear,NaN,bear5-boat2.png,bear5-boat2.png,0.0,-0.750878,1.7411518,-1.7621311
vit_b_16,1,130,NaN,clock,bear,NaN,bear5-bottle1.png,bear5-bottle1.png,0.0,-0.33273426,1.7824999,-1.4956964
vit_b_16,1,131,NaN,car,bear,NaN,bear5-chair1.png,bear5-chair1.png,0.0,-0.4456842,2.1827087,-1.8585545
vit_b_16,1,132,NaN,oven,bear,NaN,bear5-oven3.png,bear5-oven3.png,0.0,-0.19229147,4.0266423,-2.9832366
vit_b_16,1,133,NaN,bear,bear,NaN,bear6-bear1.png,bear6-bear1.png,1.0,3.1520705,1.363101,1.2649925
vit_b_16,1,134,NaN,bird,bear,NaN,bear6-bird2.png,bear6-bird2.png,0.0,1.0393871,1.3906186,-0.24835815
vit_b_16,1,135,NaN,chair,bear,NaN,bear6-boat3.png,bear6-boat3.png,0.0,-0.19492021,1.2223201,-1.0021402
vit_b_16,1,136,NaN,bottle,bear,NaN,bear6-bottle3.png,bear6-bottle3.png,0.0,-0.30420855,5.937195,-4.4133387
vit_b_16,1,137,NaN,knife,bear,NaN,bear6-car2.png,bear6-car2.png,0.0,-0.73847544,0.9070511,-1.163563
vit_b_16,1,138,NaN,bear,bear,NaN,bear6-cat3.png,bear6-cat3.png,1.0,2.3443213,0.794527,1.09587
vit_b_16,1,139,NaN,bottle,bear,NaN,bear6-chair1.png,bear6-chair1.png,0.0,-0.34300047,2.1768134,-1.7817774
vit_b_16,1,140,NaN,clock,bear,NaN,bear6-clock1.png,bear6-clock1.png,0.0,-0.6135444,2.741024,-2.3720381
vit_b_16,1,141,NaN,bear,bear,NaN,bear7-bear2.png,bear7-bear2.png,1.0,3.6239586,0.8258623,1.9785528
vit_b_16,1,142,NaN,chair,bear,NaN,bear7-bicycle2.png,bear7-bicycle2.png,0.0,-0.24363425,1.4109683,-1.1699806
vit_b_16,1,143,NaN,clock,bear,NaN,bear7-clock1.png,bear7-clock1.png,0.0,-0.33959192,4.579057,-3.4780102
vit_b_16,1,144,NaN,bear,bear,NaN,bear7-dog3.png,bear7-dog3.png,1.0,2.0742657,0.81222117,0.89240026
vit_b_16,1,145,NaN,oven,bear,NaN,bear7-oven3.png,bear7-oven3.png,0.0,-0.3780656,4.5257363,-3.4675117
vit_b_16,1,146,NaN,car,bear,NaN,bear7-truck1.png,bear7-truck1.png,0.0,-0.46120095,3.528878,-2.8214118
vit_b_16,1,147,NaN,knife,bear,NaN,bear8-airplane1.png,bear8-airplane1.png,0.0,-0.53335035,1.7815858,-1.6369071
vit_b_16,1,148,NaN,bear,bear,NaN,bear8-bear1.png,bear8-bear1.png,1.0,3.2644844,1.2118181,1.4514542
vit_b_16,1,149,NaN,chair,bear,NaN,bear8-bicycle3.png,bear8-bicycle3.png,0.0,-0.41978216,1.0578748,-1.0448613
vit_b_16,1,150,NaN,boat,bear,NaN,bear8-boat2.png,bear8-boat2.png,0.0,-0.5461184,2.6714368,-2.275155
vit_b_16,1,151,NaN,chair,bear,NaN,bear8-bottle1.png,bear8-bottle1.png,0.0,-0.2673034,1.365824,-1.1547955
vit_b_16,1,152,NaN,bear,bear,NaN,bear8-dog1.png,bear8-dog1.png,1.0,3.0447676,0.3744831,1.8881763
vit_b_16,1,153,NaN,elephant,bear,NaN,bear8-elephant2.png,bear8-elephant2.png,0.0,-0.12066662,7.881458,-5.6583567
vit_b_16,1,154,NaN,knife,bear,NaN,bear8-knife3.png,bear8-knife3.png,0.0,-0.11251387,2.8443775,-2.090838
vit_b_16,1,155,NaN,clock,bear,NaN,bear8-truck3.png,bear8-truck3.png,0.0,-0.3523231,1.8967451,-1.5903314
vit_b_16,1,156,NaN,boat,bear,NaN,bear9-boat2.png,bear9-boat2.png,0.0,-0.7606095,2.5155215,-2.3165746
vit_b_16,1,157,NaN,bottle,bear,NaN,bear9-bottle2.png,bear9-bottle2.png,0.0,-0.43896824,1.7700856,-1.5620369
vit_b_16,1,158,NaN,bear,bear,NaN,bear9-dog1.png,bear9-dog1.png,1.0,4.654169,0.79222584,2.7308064
vit_b_16,1,159,NaN,keyboard,bear,NaN,bear9-keyboard3.png,bear9-keyboard3.png,0.0,-0.54559535,3.629757,-2.9524198
vit_b_16,1,160,NaN,knife,bear,NaN,bear9-knife2.png,bear9-knife2.png,0.0,0.048039306,1.8375355,-1.2653649
vit_b_16,1,161,NaN,clock,bicycle,NaN,bicycle1-airplane2.png,bicycle1-airplane2.png,0.0,0.92445695,3.2487128,-1.6434971
vit_b_16,1,162,NaN,elephant,bicycle,NaN,bicycle1-bear1.png,bicycle1-bear1.png,0.0,-0.5963834,3.517782,-2.9091542
vit_b_16,1,163,NaN,bicycle,bicycle,NaN,bicycle1-bicycle3.png,bicycle1-bicycle3.png,1.0,6.23878,1.3971059,3.4235804
vit_b_16,1,164,NaN,bottle,bicycle,NaN,bicycle1-bird1.png,bicycle1-bird1.png,0.0,1.10831,1.2111362,-0.07270913
vit_b_16,1,165,NaN,bicycle,bicycle,NaN,bicycle1-boat3.png,bicycle1-boat3.png,1.0,3.963933,1.4583707,1.7717001
vit_b_16,1,166,NaN,bicycle,bicycle,NaN,bicycle1-bottle3.png,bicycle1-bottle3.png,1.0,6.486194,2.2794967,2.9745843
vit_b_16,1,167,NaN,bicycle,bicycle,NaN,bicycle1-chair1.png,bicycle1-chair1.png,1.0,2.950193,1.7634934,0.8391233
vit_b_16,1,168,NaN,clock,bicycle,NaN,bicycle1-clock3.png,bicycle1-clock3.png,0.0,2.7142124,4.5168705,-1.2746718
vit_b_16,1,169,NaN,bicycle,bicycle,NaN,bicycle1-dog3.png,bicycle1-dog3.png,1.0,1.8922427,0.6535828,0.8758648
vit_b_16,1,170,NaN,elephant,bicycle,NaN,bicycle1-elephant2.png,bicycle1-elephant2.png,0.0,-0.52649355,7.76837,-5.8653545
vit_b_16,1,171,NaN,clock,bicycle,NaN,bicycle1-knife3.png,bicycle1-knife3.png,0.0,0.06456384,2.1476223,-1.4729449
vit_b_16,1,172,NaN,knife,bicycle,NaN,bicycle1-oven1.png,bicycle1-oven1.png,0.0,0.44397205,2.091546,-1.1650107
vit_b_16,1,173,NaN,bicycle,bicycle,NaN,bicycle1-truck1.png,bicycle1-truck1.png,1.0,3.9432054,2.02588,1.3557537
vit_b_16,1,174,NaN,bicycle,bicycle,NaN,bicycle10-airplane2.png,bicycle10-airplane2.png,1.0,2.0345135,0.47406167,1.1034061
vit_b_16,1,175,NaN,bicycle,bicycle,NaN,bicycle10-boat3.png,bicycle10-boat3.png,1.0,3.9332833,1.0223202,2.0583618
vit_b_16,1,176,NaN,bicycle,bicycle,NaN,bicycle10-clock2.png,bicycle10-clock2.png,1.0,5.635479,2.5791137,2.1611767
vit_b_16,1,177,NaN,cat,bicycle,NaN,bicycle10-dog3.png,bicycle10-dog3.png,0.0,-0.33307815,0.88015145,-0.8578829
vit_b_16,1,178,NaN,elephant,bicycle,NaN,bicycle10-elephant2.png,bicycle10-elephant2.png,0.0,0.95291364,5.8511887,-3.4636035
vit_b_16,1,179,NaN,bicycle,bicycle,NaN,bicycle2-bicycle1.png,bicycle2-bicycle1.png,1.0,6.665983,0.70774513,4.2131104
vit_b_16,1,180,NaN,bicycle,bicycle,NaN,bicycle2-bird3.png,bicycle2-bird3.png,1.0,4.150218,1.6314244,1.781056
vit_b_16,1,181,NaN,bicycle,bicycle,NaN,bicycle2-bottle1.png,bicycle2-bottle1.png,1.0,3.894809,1.1705775,1.9263226
vit_b_16,1,182,NaN,bicycle,bicycle,NaN,bicycle2-car2.png,bicycle2-car2.png,1.0,2.141541,1.0289552,0.78671694
vit_b_16,1,183,NaN,elephant,bicycle,NaN,bicycle2-dog1.png,bicycle2-dog1.png,0.0,-0.35856354,0.61083186,-0.68546605
vit_b_16,1,184,NaN,clock,bicycle,NaN,bicycle2-keyboard2.png,bicycle2-keyboard2.png,0.0,1.041064,4.4719787,-2.426023
vit_b_16,1,185,NaN,bicycle,bicycle,NaN,bicycle2-knife2.png,bicycle2-knife2.png,1.0,2.7955756,1.3173147,1.0452883
vit_b_16,1,186,NaN,knife,bicycle,NaN,bicycle3-bird1.png,bicycle3-bird1.png,0.0,-0.35715085,1.4383243,-1.2695928
vit_b_16,1,187,NaN,elephant,bicycle,NaN,bicycle3-elephant2.png,bicycle3-elephant2.png,0.0,1.566678,4.503504,-2.0766494
vit_b_16,1,188,NaN,bicycle,bicycle,NaN,bicycle3-keyboard1.png,bicycle3-keyboard1.png,1.0,3.2463446,1.5646406,1.1891443
vit_b_16,1,189,NaN,oven,bicycle,NaN,bicycle3-oven3.png,bicycle3-oven3.png,0.0,-1.0050029,2.1736627,-2.247656
vit_b_16,1,190,NaN,knife,bicycle,NaN,bicycle3-truck3.png,bicycle3-truck3.png,0.0,-0.083916456,4.505114,-3.2449348
vit_b_16,1,191,NaN,bicycle,bicycle,NaN,bicycle4-airplane1.png,bicycle4-airplane1.png,1.0,6.728779,2.5328102,2.9669979
vit_b_16,1,192,NaN,bicycle,bicycle,NaN,bicycle4-bicycle3.png,bicycle4-bicycle3.png,1.0,6.985508,1.1503173,4.126103
vit_b_16,1,193,NaN,bicycle,bicycle,NaN,bicycle4-boat1.png,bicycle4-boat1.png,1.0,7.1764393,0.5419959,4.69126
vit_b_16,1,194,NaN,bicycle,bicycle,NaN,bicycle4-bottle1.png,bicycle4-bottle1.png,1.0,7.86524,1.6629742,4.3856645
vit_b_16,1,195,NaN,bicycle,bicycle,NaN,bicycle4-car2.png,bicycle4-car2.png,1.0,3.8265533,0.97656775,2.0152442
vit_b_16,1,196,NaN,cat,bicycle,NaN,bicycle4-cat1.png,bicycle4-cat1.png,0.0,0.8721024,1.7242514,-0.60256034
vit_b_16,1,197,NaN,bicycle,bicycle,NaN,bicycle4-chair2.png,bicycle4-chair2.png,1.0,4.271586,1.9712629,1.626574
vit_b_16,1,198,NaN,clock,bicycle,NaN,bicycle4-clock3.png,bicycle4-clock3.png,0.0,0.8717765,3.7543566,-2.038292
vit_b_16,1,199,NaN,clock,bicycle,NaN,bicycle4-keyboard3.png,bicycle4-keyboard3.png,0.0,1.0602937,2.865782,-1.2766731
vit_b_16,1,200,NaN,knife,bicycle,NaN,bicycle4-knife3.png,bicycle4-knife3.png,0.0,-0.023580901,1.2508179,-0.90113604
vit_b_16,1,201,NaN,clock,bicycle,NaN,bicycle4-oven3.png,bicycle4-oven3.png,0.0,1.1042409,3.446633,-1.6563214
vit_b_16,1,202,NaN,bottle,bicycle,NaN,bicycle4-truck3.png,bicycle4-truck3.png,0.0,0.61134815,2.0622299,-1.0259284
vit_b_16,1,203,NaN,bear,bicycle,NaN,bicycle5-bear1.png,bicycle5-bear1.png,0.0,-0.8695643,1.3333982,-1.5577297
vit_b_16,1,204,NaN,bicycle,bicycle,NaN,bicycle5-bottle3.png,bicycle5-bottle3.png,1.0,5.3109612,3.9055178,0.9937986
vit_b_16,1,205,NaN,bicycle,bicycle,NaN,bicycle5-car3.png,bicycle5-car3.png,1.0,2.3296313,2.1810043,0.10509519
vit_b_16,1,206,NaN,dog,bicycle,NaN,bicycle5-cat1.png,bicycle5-cat1.png,0.0,-0.07835787,0.78555447,-0.6108783
vit_b_16,1,207,NaN,bicycle,bicycle,NaN,bicycle5-chair2.png,bicycle5-chair2.png,1.0,1.3040447,0.9014312,0.28469077
vit_b_16,1,208,NaN,cat,bicycle,NaN,bicycle5-dog2.png,bicycle5-dog2.png,0.0,0.60245323,1.2753699,-0.47582394
vit_b_16,1,209,NaN,elephant,bicycle,NaN,bicycle5-elephant1.png,bicycle5-elephant1.png,0.0,0.6721515,4.7127705,-2.8571491
vit_b_16,1,210,NaN,clock,bicycle,NaN,bicycle5-keyboard3.png,bicycle5-keyboard3.png,0.0,-0.9514346,2.7841208,-2.6414366
vit_b_16,1,211,NaN,oven,bicycle,NaN,bicycle5-oven3.png,bicycle5-oven3.png,0.0,-1.1248903,5.2869735,-4.5338726
vit_b_16,1,212,NaN,clock,bicycle,NaN,bicycle6-airplane2.png,bicycle6-airplane2.png,0.0,-0.5774294,1.063059,-1.1600004
vit_b_16,1,213,NaN,bicycle,bicycle,NaN,bicycle6-bicycle3.png,bicycle6-bicycle3.png,1.0,3.0860357,1.6691673,1.0018773
vit_b_16,1,214,NaN,bicycle,bicycle,NaN,bicycle6-boat2.png,bicycle6-boat2.png,1.0,3.1570349,1.61205,1.0924692
vit_b_16,1,215,NaN,bicycle,bicycle,NaN,bicycle6-car2.png,bicycle6-car2.png,1.0,1.0221984,0.97573835,0.032852247
vit_b_16,1,216,NaN,cat,bicycle,NaN,bicycle6-cat1.png,bicycle6-cat1.png,0.0,-0.3649946,2.0509868,-1.7083567
vit_b_16,1,217,NaN,cat,bicycle,NaN,bicycle6-dog2.png,bicycle6-dog2.png,0.0,0.48510355,1.5570096,-0.7579521
vit_b_16,1,218,NaN,bicycle,bicycle,NaN,bicycle7-bear2.png,bicycle7-bear2.png,1.0,4.897865,0.9714227,2.776414
vit_b_16,1,219,NaN,bicycle,bicycle,NaN,bicycle7-bicycle2.png,bicycle7-bicycle2.png,1.0,7.5071645,1.1609906,4.4874225
vit_b_16,1,220,NaN,bear,bicycle,NaN,bicycle7-cat1.png,bicycle7-cat1.png,0.0,0.5579163,0.9682652,-0.29016048
vit_b_16,1,221,NaN,clock,bicycle,NaN,bicycle7-clock3.png,bicycle7-clock3.png,0.0,0.9645952,5.655804,-3.3171856
vit_b_16,1,222,NaN,elephant,bicycle,NaN,bicycle7-elephant2.png,bicycle7-elephant2.png,0.0,0.047281414,4.341823,-3.0366998
vit_b_16,1,223,NaN,bicycle,bicycle,NaN,bicycle7-knife2.png,bicycle7-knife2.png,1.0,3.334002,2.497747,0.59132165
vit_b_16,1,224,NaN,knife,bicycle,NaN,bicycle7-oven1.png,bicycle7-oven1.png,0.0,0.38864535,3.2626233,-2.0322094
vit_b_16,1,225,NaN,bottle,bicycle,NaN,bicycle7-truck3.png,bicycle7-truck3.png,0.0,-0.6620904,2.0679655,-1.930441
vit_b_16,1,226,NaN,bicycle,bicycle,NaN,bicycle8-bear2.png,bicycle8-bear2.png,1.0,6.194455,1.0778942,3.617955
vit_b_16,1,227,NaN,bicycle,bicycle,NaN,bicycle8-bird2.png,bicycle8-bird2.png,1.0,5.7829,0.5254412,3.7175848
vit_b_16,1,228,NaN,bicycle,bicycle,NaN,bicycle8-boat1.png,bicycle8-boat1.png,1.0,7.313301,0.5402077,4.7893004
vit_b_16,1,229,NaN,bicycle,bicycle,NaN,bicycle8-chair2.png,bicycle8-chair2.png,1.0,3.704499,1.1955935,1.7740641
vit_b_16,1,230,NaN,clock,bicycle,NaN,bicycle8-clock3.png,bicycle8-clock3.png,0.0,2.1075718,4.289093,-1.5425684
vit_b_16,1,231,NaN,knife,bicycle,NaN,bicycle8-truck1.png,bicycle8-truck1.png,0.0,2.0166934,2.439297,-0.2988259
vit_b_16,1,232,NaN,bicycle,bicycle,NaN,bicycle9-airplane2.png,bicycle9-airplane2.png,1.0,1.6231631,1.5487269,0.052634332
vit_b_16,1,233,NaN,elephant,bicycle,NaN,bicycle9-bear1.png,bicycle9-bear1.png,0.0,-0.1827526,1.6096898,-1.2674482
vit_b_16,1,234,NaN,bicycle,bicycle,NaN,bicycle9-bird3.png,bicycle9-bird3.png,1.0,3.7286623,1.5756234,1.5224285
vit_b_16,1,235,NaN,bicycle,bicycle,NaN,bicycle9-bottle1.png,bicycle9-bottle1.png,1.0,5.3078394,1.9957829,2.3419776
vit_b_16,1,236,NaN,bicycle,bicycle,NaN,bicycle9-car1.png,bicycle9-car1.png,1.0,3.9557734,1.7005106,1.5947117
vit_b_16,1,237,NaN,cat,bicycle,NaN,bicycle9-cat3.png,bicycle9-cat3.png,0.0,1.0700712,1.45919,-0.27514854
vit_b_16,1,238,NaN,bicycle,bicycle,NaN,bicycle9-chair1.png,bicycle9-chair1.png,1.0,2.2558594,1.7394072,0.36518684
vit_b_16,1,239,NaN,clock,bicycle,NaN,bicycle9-keyboard3.png,bicycle9-keyboard3.png,0.0,-0.5863336,1.3612295,-1.3771352
vit_b_16,1,240,NaN,knife,bicycle,NaN,bicycle9-knife3.png,bicycle9-knife3.png,0.0,-0.813709,5.449433,-4.42871
vit_b_16,1,241,NaN,airplane,bird,NaN,bird1-airplane2.png,bird1-airplane2.png,0.0,0.010808053,3.2025905,-2.256931
vit_b_16,1,242,NaN,bear,bird,NaN,bird1-bear1.png,bird1-bear1.png,0.0,-0.0016591185,3.1236823,-2.2099502
vit_b_16,1,243,NaN,bicycle,bird,NaN,bird1-bicycle2.png,bird1-bicycle2.png,0.0,-0.46196368,2.1795907,-1.867861
vit_b_16,1,244,NaN,airplane,bird,NaN,bird1-boat1.png,bird1-boat1.png,0.0,-0.20027696,2.3569188,-1.8082104
vit_b_16,1,245,NaN,chair,bird,NaN,bird1-chair2.png,bird1-chair2.png,0.0,0.06836045,2.3651567,-1.6240803
vit_b_16,1,246,NaN,clock,bird,NaN,bird1-clock3.png,bird1-clock3.png,0.0,-0.1915639,4.4800487,-3.303329
vit_b_16,1,247,NaN,elephant,bird,NaN,bird1-elephant2.png,bird1-elephant2.png,0.0,-0.32891324,8.012098,-5.8979864
vit_b_16,1,248,NaN,knife,bird,NaN,bird1-keyboard3.png,bird1-keyboard3.png,0.0,-0.7318387,3.784326,-3.1934109
vit_b_16,1,249,NaN,knife,bird,NaN,bird1-knife3.png,bird1-knife3.png,0.0,-0.20963219,1.9608904,-1.5347914
vit_b_16,1,250,NaN,oven,bird,NaN,bird1-oven1.png,bird1-oven1.png,0.0,-0.5156358,1.5526131,-1.4624729
vit_b_16,1,251,NaN,car,bird,NaN,bird1-truck1.png,bird1-truck1.png,0.0,-0.53686935,3.2999191,-2.7130191
vit_b_16,1,252,NaN,bear,bird,NaN,bird10-bear2.png,bird10-bear2.png,0.0,0.5047996,2.5300765,-1.4320871
vit_b_16,1,253,NaN,bicycle,bird,NaN,bird10-bicycle1.png,bird10-bicycle1.png,0.0,-0.6614088,1.795615,-1.7373781
vit_b_16,1,254,NaN,bird,bird,NaN,bird10-bird2.png,bird10-bird2.png,1.0,1.5662144,0.6084769,0.6772227
vit_b_16,1,255,NaN,dog,bird,NaN,bird10-cat1.png,bird10-cat1.png,0.0,-0.25215986,1.1257962,-0.9743621
vit_b_16,1,256,NaN,airplane,bird,NaN,bird10-chair1.png,bird10-chair1.png,0.0,-0.3863992,3.7073936,-2.8947487
vit_b_16,1,257,NaN,clock,bird,NaN,bird10-clock1.png,bird10-clock1.png,0.0,-0.5191446,5.703303,-4.399935
vit_b_16,1,258,NaN,elephant,bird,NaN,bird10-elephant2.png,bird10-elephant2.png,0.0,-0.42142588,7.208089,-5.3948817
vit_b_16,1,259,NaN,airplane,bird,NaN,bird2-airplane3.png,bird2-airplane3.png,0.0,-0.099153526,1.6392995,-1.2292719
vit_b_16,1,260,NaN,bird,bird,NaN,bird2-bird2.png,bird2-bird2.png,1.0,1.355297,0.73185295,0.4408415
vit_b_16,1,261,NaN,car,bird,NaN,bird2-car3.png,bird2-car3.png,0.0,-0.5933007,2.7541554,-2.367009
vit_b_16,1,262,NaN,clock,bird,NaN,bird2-clock3.png,bird2-clock3.png,0.0,-0.3109171,1.5893265,-1.3436751
vit_b_16,1,263,NaN,bird,bird,NaN,bird2-dog2.png,bird2-dog2.png,1.0,1.4859124,0.5513861,0.66080993
vit_b_16,1,264,NaN,knife,bird,NaN,bird2-knife1.png,bird2-knife1.png,0.0,-0.273321,1.319474,-1.1262761
vit_b_16,1,265,NaN,bear,bird,NaN,bird3-bear3.png,bird3-bear3.png,0.0,0.6699166,4.432763,-2.6607344
vit_b_16,1,266,NaN,bird,bird,NaN,bird3-bird2.png,bird3-bird2.png,1.0,1.2740493,0.59289783,0.4816468
vit_b_16,1,267,NaN,boat,bird,NaN,bird3-boat3.png,bird3-boat3.png,0.0,-0.285266,2.1626186,-1.7309158
vit_b_16,1,268,NaN,bottle,bird,NaN,bird3-bottle2.png,bird3-bottle2.png,0.0,-0.5153193,2.5641398,-2.1775064
vit_b_16,1,269,NaN,cat,bird,NaN,bird3-cat1.png,bird3-cat1.png,0.0,0.30076393,2.4011035,-1.4851644
vit_b_16,1,270,NaN,cat,bird,NaN,bird3-dog1.png,bird3-dog1.png,0.0,-0.25733873,0.7165349,-0.68863267
vit_b_16,1,271,NaN,knife,bird,NaN,bird3-knife3.png,bird3-knife3.png,0.0,-0.1511389,2.8727705,-2.138227
vit_b_16,1,272,NaN,oven,bird,NaN,bird3-oven1.png,bird3-oven1.png,0.0,-0.31209496,2.120778,-1.720301
vit_b_16,1,273,NaN,bottle,bird,NaN,bird3-truck3.png,bird3-truck3.png,0.0,-0.844121,1.2859192,-1.5061659
vit_b_16,1,274,NaN,airplane,bird,NaN,bird4-airplane1.png,bird4-airplane1.png,0.0,0.07617253,4.306026,-2.9909582
vit_b_16,1,275,NaN,bicycle,bird,NaN,bird4-bicycle2.png,bird4-bicycle2.png,0.0,-0.25938043,2.7532206,-2.1302307
vit_b_16,1,276,NaN,cat,bird,NaN,bird4-cat3.png,bird4-cat3.png,0.0,-0.22509187,1.1699888,-0.98647094
vit_b_16,1,277,NaN,clock,bird,NaN,bird4-clock1.png,bird4-clock1.png,0.0,-0.69326967,3.4379463,-2.921211
vit_b_16,1,278,NaN,dog,bird,NaN,bird4-dog3.png,bird4-dog3.png,0.0,-0.26885954,1.1247175,-0.98540777
vit_b_16,1,279,NaN,airplane,bird,NaN,bird5-airplane3.png,bird5-airplane3.png,0.0,0.26757473,5.1595883,-3.459176
vit_b_16,1,280,NaN,bird,bird,NaN,bird5-bear3.png,bird5-bear3.png,1.0,1.4032862,0.70092946,0.49664122
vit_b_16,1,281,NaN,bicycle,bird,NaN,bird5-bicycle1.png,bird5-bicycle1.png,0.0,1.1842824,1.6947222,-0.36093542
vit_b_16,1,282,NaN,bottle,bird,NaN,bird5-bird1.png,bird5-bird1.png,0.0,1.2960955,1.3773731,-0.05747195
vit_b_16,1,283,NaN,bicycle,bird,NaN,bird5-car2.png,bird5-car2.png,0.0,0.67669374,1.9287047,-0.8853055
vit_b_16,1,284,NaN,cat,bird,NaN,bird5-cat2.png,bird5-cat2.png,0.0,0.8067159,1.6696339,-0.61017513
vit_b_16,1,285,NaN,car,bird,NaN,bird5-chair1.png,bird5-chair1.png,0.0,-0.54948086,3.6461766,-2.9667778
vit_b_16,1,286,NaN,bird,bird,NaN,bird5-dog2.png,bird5-dog2.png,1.0,1.3770757,0.74462336,0.44721133
vit_b_16,1,287,NaN,bottle,bird,NaN,bird5-keyboard2.png,bird5-keyboard2.png,0.0,-0.38585436,2.6211274,-2.1262572
vit_b_16,1,288,NaN,oven,bird,NaN,bird5-oven3.png,bird5-oven3.png,0.0,0.064660795,4.5214996,-3.151461
vit_b_16,1,289,NaN,car,bird,NaN,bird5-truck2.png,bird5-truck2.png,0.0,-0.23910148,3.0038474,-2.293111
vit_b_16,1,290,NaN,airplane,bird,NaN,bird6-airplane2.png,bird6-airplane2.png,0.0,0.23541802,2.9761608,-1.9379978
vit_b_16,1,291,NaN,boat,bird,NaN,bird6-boat2.png,bird6-boat2.png,0.0,-0.26709104,2.7662838,-2.1449199
vit_b_16,1,292,NaN,bottle,bird,NaN,bird6-bottle3.png,bird6-bottle3.png,0.0,-0.3978168,3.77234,-2.9487462
vit_b_16,1,293,NaN,car,bird,NaN,bird6-car3.png,bird6-car3.png,0.0,-0.55260956,2.9795198,-2.4975927
vit_b_16,1,294,NaN,elephant,bird,NaN,bird6-elephant2.png,bird6-elephant2.png,0.0,-0.2761997,8.477825,-6.19003
vit_b_16,1,295,NaN,knife,bird,NaN,bird6-oven1.png,bird6-oven1.png,0.0,-0.5016796,3.7769217,-3.025428
vit_b_16,1,296,NaN,car,bird,NaN,bird6-truck2.png,bird6-truck2.png,0.0,-0.22391027,2.8567646,-2.1783662
vit_b_16,1,297,NaN,bird,bird,NaN,bird7-bird2.png,bird7-bird2.png,1.0,2.154996,0.46094286,1.1978765
vit_b_16,1,298,NaN,airplane,bird,NaN,bird7-boat1.png,bird7-boat1.png,0.0,-0.35281396,3.045553,-2.4030082
vit_b_16,1,299,NaN,bottle,bird,NaN,bird7-bottle1.png,bird7-bottle1.png,0.0,-0.4645496,1.747572,-1.5642061
vit_b_16,1,300,NaN,knife,bird,NaN,bird7-car2.png,bird7-car2.png,0.0,-0.35246387,0.66680026,-0.7207286
vit_b_16,1,301,NaN,oven,bird,NaN,bird7-cat3.png,bird7-cat3.png,0.0,0.08126945,4.38666,-3.0443711
vit_b_16,1,302,NaN,knife,bird,NaN,bird7-keyboard3.png,bird7-keyboard3.png,0.0,-0.7857889,1.4332131,-1.5690714
vit_b_16,1,303,NaN,knife,bird,NaN,bird7-knife2.png,bird7-knife2.png,0.0,-0.27864823,3.301846,-2.5317917
vit_b_16,1,304,NaN,oven,bird,NaN,bird7-oven3.png,bird7-oven3.png,0.0,-0.25157467,4.10404,-3.0798848
vit_b_16,1,305,NaN,truck,bird,NaN,bird7-truck2.png,bird7-truck2.png,0.0,-0.07530117,1.7851851,-1.3155625
vit_b_16,1,306,NaN,boat,bird,NaN,bird8-boat3.png,bird8-boat3.png,0.0,0.15469521,2.5090365,-1.6647707
vit_b_16,1,307,NaN,keyboard,bird,NaN,bird8-bottle1.png,bird8-bottle1.png,0.0,0.08717975,0.8957529,-0.57174754
vit_b_16,1,308,NaN,bicycle,bird,NaN,bird8-car2.png,bird8-car2.png,0.0,-0.2833526,1.5462426,-1.2937192
vit_b_16,1,309,NaN,car,bird,NaN,bird8-chair1.png,bird8-chair1.png,0.0,-0.13284408,4.7643676,-3.4628515
vit_b_16,1,310,NaN,clock,bird,NaN,bird8-clock1.png,bird8-clock1.png,0.0,-0.43302202,3.8768299,-3.0475254
vit_b_16,1,311,NaN,elephant,bird,NaN,bird8-elephant1.png,bird8-elephant1.png,0.0,-0.2699357,7.722975,-5.651841
vit_b_16,1,312,NaN,keyboard,bird,NaN,bird8-keyboard2.png,bird8-keyboard2.png,0.0,-0.6700966,4.029267,-3.3229516
vit_b_16,1,313,NaN,knife,bird,NaN,bird8-knife2.png,bird8-knife2.png,0.0,0.37563378,6.060065,-4.0195
vit_b_16,1,314,NaN,elephant,bird,NaN,bird9-bear3.png,bird9-bear3.png,0.0,0.76930726,1.2985616,-0.37423933
vit_b_16,1,315,NaN,chair,bird,NaN,bird9-bicycle3.png,bird9-bicycle3.png,0.0,1.050857,2.4602885,-0.9966186
vit_b_16,1,316,NaN,bird,bird,NaN,bird9-bottle3.png,bird9-bottle3.png,1.0,1.6421448,0.74021494,0.6377607
vit_b_16,1,317,NaN,bottle,bird,NaN,bird9-chair1.png,bird9-chair1.png,0.0,-0.16150558,2.2041647,-1.6727815
vit_b_16,1,318,NaN,dog,bird,NaN,bird9-dog2.png,bird9-dog2.png,0.0,1.3250561,1.4175069,-0.06537263
vit_b_16,1,319,NaN,elephant,bird,NaN,bird9-elephant2.png,bird9-elephant2.png,0.0,0.12581342,8.383609,-5.8391433
vit_b_16,1,320,NaN,clock,bird,NaN,bird9-keyboard1.png,bird9-keyboard1.png,0.0,-0.047763173,0.656097,-0.4977043
vit_b_16,1,321,NaN,bear,boat,NaN,boat1-bear1.png,boat1-bear1.png,0.0,-0.26139206,4.389559,-3.288719
vit_b_16,1,322,NaN,bicycle,boat,NaN,boat1-bicycle2.png,boat1-bicycle2.png,0.0,-0.6071553,1.4942293,-1.4859034
vit_b_16,1,323,NaN,oven,boat,NaN,boat1-bird3.png,boat1-bird3.png,0.0,0.5453854,1.903327,-0.9602097
vit_b_16,1,324,NaN,car,boat,NaN,boat1-car2.png,boat1-car2.png,0.0,-0.10540648,1.1402546,-0.88081545
vit_b_16,1,325,NaN,airplane,boat,NaN,boat1-chair3.png,boat1-chair3.png,0.0,0.24394062,3.9414985,-2.6145682
vit_b_16,1,326,NaN,elephant,boat,NaN,boat1-elephant3.png,boat1-elephant3.png,0.0,-0.013462347,7.4009686,-5.2427945
vit_b_16,1,327,NaN,knife,boat,NaN,boat1-keyboard3.png,boat1-keyboard3.png,0.0,-0.7202186,2.6003208,-2.347976
vit_b_16,1,328,NaN,knife,boat,NaN,boat1-oven1.png,boat1-oven1.png,0.0,0.017646786,3.5430887,-2.492864
vit_b_16,1,329,NaN,bottle,boat,NaN,boat1-truck3.png,boat1-truck3.png,0.0,-0.40970272,3.0636177,-2.4560084
vit_b_16,1,330,NaN,elephant,boat,NaN,boat10-bear3.png,boat10-bear3.png,0.0,-0.28995496,2.6295362,-2.0643919
vit_b_16,1,331,NaN,boat,boat,NaN,boat10-boat3.png,boat10-boat3.png,1.0,4.5455656,1.3370817,2.268741
vit_b_16,1,332,NaN,cat,boat,NaN,boat10-cat1.png,boat10-cat1.png,0.0,-0.89549637,2.694725,-2.53867
vit_b_16,1,333,NaN,car,boat,NaN,boat10-oven1.png,boat10-oven1.png,0.0,-0.030992627,5.5646725,-3.9567327
vit_b_16,1,334,NaN,car,boat,NaN,boat10-truck1.png,boat10-truck1.png,0.0,2.8100274,3.7059906,-0.63354164
vit_b_16,1,335,NaN,airplane,boat,NaN,boat2-airplane1.png,boat2-airplane1.png,0.0,1.1585196,2.6227486,-1.0353663
vit_b_16,1,336,NaN,bear,boat,NaN,boat2-bear3.png,boat2-bear3.png,0.0,-0.4861134,1.5316042,-1.4267418
vit_b_16,1,337,NaN,oven,boat,NaN,boat2-bird1.png,boat2-bird1.png,0.0,-0.22982946,1.4241198,-1.1695187
vit_b_16,1,338,NaN,bottle,boat,NaN,boat2-bottle2.png,boat2-bottle2.png,0.0,-0.058344685,2.9153817,-2.102742
vit_b_16,1,339,NaN,knife,boat,NaN,boat2-keyboard1.png,boat2-keyboard1.png,0.0,-0.42751265,1.0351326,-1.0342464
vit_b_16,1,340,NaN,oven,boat,NaN,boat2-oven3.png,boat2-oven3.png,0.0,-0.3245435,2.4784868,-1.9820417
vit_b_16,1,341,NaN,knife,boat,NaN,boat3-airplane2.png,boat3-airplane2.png,0.0,0.9195336,4.3504558,-2.4260283
vit_b_16,1,342,NaN,bicycle,boat,NaN,boat3-bicycle2.png,boat3-bicycle2.png,0.0,-0.24646929,2.5556667,-1.9814093
vit_b_16,1,343,NaN,car,boat,NaN,boat3-car3.png,boat3-car3.png,0.0,1.4245664,3.303692,-1.3287425
vit_b_16,1,344,NaN,cat,boat,NaN,boat3-cat3.png,boat3-cat3.png,0.0,0.041628696,1.4650873,-1.0065372
vit_b_16,1,345,NaN,airplane,boat,NaN,boat3-chair3.png,boat3-chair3.png,0.0,-0.3549937,1.461221,-1.2842578
vit_b_16,1,346,NaN,clock,boat,NaN,boat3-clock3.png,boat3-clock3.png,0.0,-0.4059686,1.547908,-1.3815993
vit_b_16,1,347,NaN,dog,boat,NaN,boat3-dog3.png,boat3-dog3.png,0.0,-0.6188056,1.009387,-1.1513062
vit_b_16,1,348,NaN,keyboard,boat,NaN,boat3-keyboard2.png,boat3-keyboard2.png,0.0,-0.2864457,2.9062877,-2.2576034
vit_b_16,1,349,NaN,bottle,boat,NaN,boat4-bicycle3.png,boat4-bicycle3.png,0.0,-0.69757545,1.8837917,-1.8253021
vit_b_16,1,350,NaN,bird,boat,NaN,boat4-bird1.png,boat4-bird1.png,0.0,-0.4658793,1.0896617,-1.0999336
vit_b_16,1,351,NaN,boat,boat,NaN,boat4-boat3.png,boat4-boat3.png,1.0,2.9113464,0.6657664,1.5878649
vit_b_16,1,352,NaN,bottle,boat,NaN,boat4-bottle2.png,boat4-bottle2.png,0.0,-0.25848645,2.5611756,-1.9938022
vit_b_16,1,353,NaN,truck,boat,NaN,boat4-car3.png,boat4-car3.png,0.0,0.8271357,1.6061506,-0.55084676
vit_b_16,1,354,NaN,clock,boat,NaN,boat4-chair2.png,boat4-chair2.png,0.0,-0.48678046,0.67573255,-0.8220208
vit_b_16,1,355,NaN,dog,boat,NaN,boat4-dog2.png,boat4-dog2.png,0.0,-0.7925303,0.5571391,-0.9543604
vit_b_16,1,356,NaN,elephant,boat,NaN,boat4-elephant2.png,boat4-elephant2.png,0.0,-0.91173124,5.642949,-4.634859
vit_b_16,1,357,NaN,knife,boat,NaN,boat4-knife2.png,boat4-knife2.png,0.0,0.11005683,5.2878366,-3.6612432
vit_b_16,1,358,NaN,clock,boat,NaN,boat5-airplane1.png,boat5-airplane1.png,0.0,0.5911378,2.336715,-1.2343094
vit_b_16,1,359,NaN,bottle,boat,NaN,boat5-bicycle3.png,boat5-bicycle3.png,0.0,-0.29462397,1.7476243,-1.4440876
vit_b_16,1,360,NaN,boat,boat,NaN,boat5-boat3.png,boat5-boat3.png,1.0,1.4835677,0.4947237,0.69921833
vit_b_16,1,361,NaN,car,boat,NaN,boat5-car3.png,boat5-car3.png,0.0,2.410983,3.3505213,-0.66435385
vit_b_16,1,362,NaN,clock,boat,NaN,boat5-clock3.png,boat5-clock3.png,0.0,0.2582814,2.388748,-1.5064673
vit_b_16,1,363,NaN,boat,boat,NaN,boat5-knife2.png,boat5-knife2.png,1.0,0.8966665,0.5475847,0.24683812
vit_b_16,1,364,NaN,airplane,boat,NaN,boat6-airplane2.png,boat6-airplane2.png,0.0,2.0182977,3.3057551,-0.91036993
vit_b_16,1,365,NaN,bear,boat,NaN,boat6-bear1.png,boat6-bear1.png,0.0,-0.24965969,2.3844304,-1.862583
vit_b_16,1,366,NaN,bicycle,boat,NaN,boat6-bicycle2.png,boat6-bicycle2.png,0.0,-0.10027876,2.3700318,-1.7467735
vit_b_16,1,367,NaN,bottle,boat,NaN,boat6-bottle2.png,boat6-bottle2.png,0.0,-0.550563,3.3996851,-2.7932475
vit_b_16,1,368,NaN,boat,boat,NaN,boat6-car1.png,boat6-car1.png,1.0,3.1436543,2.4409027,0.49692047
vit_b_16,1,369,NaN,cat,boat,NaN,boat6-cat1.png,boat6-cat1.png,0.0,-0.9577624,1.9920954,-2.0858645
vit_b_16,1,370,NaN,clock,boat,NaN,boat6-clock2.png,boat6-clock2.png,0.0,-0.0017646134,1.5738635,-1.1141374
vit_b_16,1,371,NaN,bear,boat,NaN,boat6-dog1.png,boat6-dog1.png,0.0,-0.90755385,1.2317035,-1.5126835
vit_b_16,1,372,NaN,elephant,boat,NaN,boat6-elephant2.png,boat6-elephant2.png,0.0,0.00675956,7.7937617,-5.5062423
vit_b_16,1,373,NaN,knife,boat,NaN,boat6-knife2.png,boat6-knife2.png,0.0,2.3024297,2.7485075,-0.31542465
vit_b_16,1,374,NaN,car,boat,NaN,boat6-truck3.png,boat6-truck3.png,0.0,-0.07789254,4.8136563,-3.4588475
vit_b_16,1,375,NaN,boat,boat,NaN,boat7-boat2.png,boat7-boat2.png,1.0,2.6487508,0.79324627,1.3120399
vit_b_16,1,376,NaN,bottle,boat,NaN,boat7-bottle1.png,boat7-bottle1.png,0.0,-0.18995057,1.6127722,-1.2747176
vit_b_16,1,377,NaN,oven,boat,NaN,boat7-cat3.png,boat7-cat3.png,0.0,-1.0030197,1.1820921,-1.5451074
vit_b_16,1,378,NaN,car,boat,NaN,boat7-chair1.png,boat7-chair1.png,0.0,0.1301097,2.1645954,-1.4385986
vit_b_16,1,379,NaN,clock,boat,NaN,boat7-clock3.png,boat7-clock3.png,0.0,-0.25448647,3.544899,-2.6865714
vit_b_16,1,380,NaN,elephant,boat,NaN,boat7-elephant3.png,boat7-elephant3.png,0.0,0.2906782,7.887331,-5.371645
vit_b_16,1,381,NaN,bottle,boat,NaN,boat7-keyboard3.png,boat7-keyboard3.png,0.0,-0.74199295,2.3235562,-2.1676707
vit_b_16,1,382,NaN,oven,boat,NaN,boat7-oven3.png,boat7-oven3.png,0.0,-0.40587527,4.6203165,-3.5540543
vit_b_16,1,383,NaN,car,boat,NaN,boat7-truck2.png,boat7-truck2.png,0.0,-0.10351177,3.6969922,-2.6873622
vit_b_16,1,384,NaN,boat,boat,NaN,boat8-bird2.png,boat8-bird2.png,1.0,1.7365698,1.4098898,0.2309976
vit_b_16,1,385,NaN,bottle,boat,NaN,boat8-bottle1.png,boat8-bottle1.png,0.0,0.13180068,2.7169633,-1.8279861
vit_b_16,1,386,NaN,cat,boat,NaN,boat8-dog3.png,boat8-dog3.png,0.0,-0.369545,1.3233922,-1.1970874
vit_b_16,1,387,NaN,elephant,boat,NaN,boat8-elephant1.png,boat8-elephant1.png,0.0,-0.010852283,8.327923,-5.8964043
vit_b_16,1,388,NaN,knife,boat,NaN,boat8-knife1.png,boat8-knife1.png,0.0,0.37762576,1.9592601,-1.1183844
vit_b_16,1,389,NaN,keyboard,boat,NaN,boat8-oven1.png,boat8-oven1.png,0.0,-0.03481256,1.4449334,-1.0463384
vit_b_16,1,390,NaN,car,boat,NaN,boat8-truck2.png,boat8-truck2.png,0.0,0.7659068,5.6268945,-3.4372375
vit_b_16,1,391,NaN,boat,boat,NaN,boat9-airplane2.png,boat9-airplane2.png,1.0,3.2798629,2.6132598,0.47135958
vit_b_16,1,392,NaN,elephant,boat,NaN,boat9-bear3.png,boat9-bear3.png,0.0,-0.18383445,1.8594415,-1.4448144
vit_b_16,1,393,NaN,boat,boat,NaN,boat9-bird1.png,boat9-bird1.png,1.0,1.4257145,0.763355,0.46835887
vit_b_16,1,394,NaN,boat,boat,NaN,boat9-boat3.png,boat9-boat3.png,1.0,1.4311134,0.5914626,0.59372276
vit_b_16,1,395,NaN,bear,boat,NaN,boat9-cat3.png,boat9-cat3.png,0.0,0.24211876,0.57851094,-0.23786518
vit_b_16,1,396,NaN,boat,boat,NaN,boat9-chair2.png,boat9-chair2.png,1.0,1.6060925,1.4599926,0.10330816
vit_b_16,1,397,NaN,clock,boat,NaN,boat9-clock1.png,boat9-clock1.png,0.0,-0.30406803,4.578648,-3.4526017
vit_b_16,1,398,NaN,chair,boat,NaN,boat9-dog2.png,boat9-dog2.png,0.0,-0.684348,1.1987897,-1.3315794
vit_b_16,1,399,NaN,car,boat,NaN,boat9-keyboard2.png,boat9-keyboard2.png,0.0,-0.2895082,2.5829093,-2.031106
vit_b_16,1,400,NaN,knife,boat,NaN,boat9-knife2.png,boat9-knife2.png,0.0,1.4662025,4.3579116,-2.044747
vit_b_16,1,401,NaN,bear,bottle,NaN,bottle1-bear1.png,bottle1-bear1.png,0.0,0.15763272,3.5052726,-2.3671389
vit_b_16,1,402,NaN,bottle,bottle,NaN,bottle1-bird3.png,bottle1-bird3.png,1.0,1.7979813,0.81120783,0.6977542
vit_b_16,1,403,NaN,bottle,bottle,NaN,bottle1-car1.png,bottle1-car1.png,1.0,1.4813849,1.0407773,0.31155658
vit_b_16,1,404,NaN,bottle,bottle,NaN,bottle1-cat3.png,bottle1-cat3.png,1.0,3.804034,1.2785345,1.7857977
vit_b_16,1,405,NaN,chair,bottle,NaN,bottle1-chair2.png,bottle1-chair2.png,0.0,0.3463211,2.756576,-1.7043077
vit_b_16,1,406,NaN,bottle,bottle,NaN,bottle1-clock1.png,bottle1-clock1.png,1.0,3.8841074,1.6070293,1.6101375
vit_b_16,1,407,NaN,bottle,bottle,NaN,bottle1-dog2.png,bottle1-dog2.png,1.0,1.9687865,0.774053,0.84480417
vit_b_16,1,408,NaN,bottle,bottle,NaN,bottle1-keyboard3.png,bottle1-keyboard3.png,1.0,2.521099,1.0813407,1.018063
vit_b_16,1,409,NaN,bottle,bottle,NaN,bottle10-bear2.png,bottle10-bear2.png,1.0,4.82806,1.615377,2.2717102
vit_b_16,1,410,NaN,bottle,bottle,NaN,bottle10-boat3.png,bottle10-boat3.png,1.0,4.9065704,0.8285716,2.8835804
vit_b_16,1,411,NaN,bottle,bottle,NaN,bottle10-car1.png,bottle10-car1.png,1.0,3.846143,0.85573494,2.1145377
vit_b_16,1,412,NaN,bottle,bottle,NaN,bottle10-clock2.png,bottle10-clock2.png,1.0,4.309505,0.80596757,2.477375
vit_b_16,1,413,NaN,bottle,bottle,NaN,bottle10-dog1.png,bottle10-dog1.png,1.0,1.0553944,0.48330742,0.4045266
vit_b_16,1,414,NaN,bottle,bottle,NaN,bottle10-truck3.png,bottle10-truck3.png,1.0,5.361114,0.78899765,3.2329745
vit_b_16,1,415,NaN,bottle,bottle,NaN,bottle2-bottle3.png,bottle2-bottle3.png,1.0,4.761931,0.35766387,3.1142874
vit_b_16,1,416,NaN,bicycle,bottle,NaN,bottle2-car2.png,bottle2-car2.png,0.0,1.5324541,2.1339493,-0.4253213
vit_b_16,1,417,NaN,chair,bottle,NaN,bottle2-chair3.png,bottle2-chair3.png,0.0,0.99588066,2.3123848,-0.9309091
vit_b_16,1,418,NaN,bottle,bottle,NaN,bottle2-clock1.png,bottle2-clock1.png,1.0,3.4250913,2.14725,0.9035703
vit_b_16,1,419,NaN,elephant,bottle,NaN,bottle2-elephant1.png,bottle2-elephant1.png,0.0,0.00819199,8.198828,-5.791654
vit_b_16,1,420,NaN,bottle,bottle,NaN,bottle2-knife3.png,bottle2-knife3.png,1.0,4.7036843,1.0339009,2.594929
vit_b_16,1,421,NaN,bottle,bottle,NaN,bottle3-airplane2.png,bottle3-airplane2.png,1.0,5.560804,0.63281304,3.4846158
vit_b_16,1,422,NaN,bottle,bottle,NaN,bottle3-bear2.png,bottle3-bear2.png,1.0,4.136081,2.7856245,0.95491713
vit_b_16,1,423,NaN,bottle,bottle,NaN,bottle3-bicycle3.png,bottle3-bicycle3.png,1.0,4.7939677,0.7759185,2.8411899
vit_b_16,1,424,NaN,bottle,bottle,NaN,bottle3-bird1.png,bottle3-bird1.png,1.0,1.2676408,1.1499096,0.08324854
vit_b_16,1,425,NaN,bottle,bottle,NaN,bottle3-boat3.png,bottle3-boat3.png,1.0,2.6107216,0.9285096,1.1895036
vit_b_16,1,426,NaN,bottle,bottle,NaN,bottle3-bottle3.png,bottle3-bottle3.png,1.0,4.3319025,0.64436936,2.6074798
vit_b_16,1,427,NaN,bottle,bottle,NaN,bottle3-cat3.png,bottle3-cat3.png,1.0,3.937431,2.221733,1.2131817
vit_b_16,1,428,NaN,chair,bottle,NaN,bottle3-chair3.png,bottle3-chair3.png,0.0,1.4070662,2.1175563,-0.5023924
vit_b_16,1,429,NaN,knife,bottle,NaN,bottle3-knife3.png,bottle3-knife3.png,0.0,2.5755212,4.098709,-1.0770565
vit_b_16,1,430,NaN,knife,bottle,NaN,bottle4-airplane1.png,bottle4-airplane1.png,0.0,-0.30906454,1.4614776,-1.2519624
vit_b_16,1,431,NaN,bicycle,bottle,NaN,bottle4-bicycle1.png,bottle4-bicycle1.png,0.0,0.74565935,1.6327001,-0.62723255
vit_b_16,1,432,NaN,chair,bottle,NaN,bottle4-car3.png,bottle4-car3.png,0.0,0.81283104,1.4530281,-0.45268768
vit_b_16,1,433,NaN,bottle,bottle,NaN,bottle4-dog2.png,bottle4-dog2.png,1.0,3.0545077,0.245996,1.9859177
vit_b_16,1,434,NaN,bottle,bottle,NaN,bottle4-oven2.png,bottle4-oven2.png,1.0,4.094153,2.343133,1.2381581
vit_b_16,1,435,NaN,bottle,bottle,NaN,bottle4-truck1.png,bottle4-truck1.png,1.0,4.7723804,2.4693937,1.6284574
vit_b_16,1,436,NaN,bottle,bottle,NaN,bottle5-airplane1.png,bottle5-airplane1.png,1.0,2.0854793,1.4054772,0.4808341
vit_b_16,1,437,NaN,bottle,bottle,NaN,bottle5-bird3.png,bottle5-bird3.png,1.0,4.24048,0.9394335,2.3341923
vit_b_16,1,438,NaN,bottle,bottle,NaN,bottle5-boat1.png,bottle5-boat1.png,1.0,4.479755,0.3811473,2.8981533
vit_b_16,1,439,NaN,cat,bottle,NaN,bottle5-cat1.png,bottle5-cat1.png,0.0,0.17515106,1.1424011,-0.68394905
vit_b_16,1,440,NaN,bottle,bottle,NaN,bottle5-chair1.png,bottle5-chair1.png,1.0,2.1328785,1.1716084,0.67972064
vit_b_16,1,441,NaN,clock,bottle,NaN,bottle5-clock3.png,bottle5-clock3.png,0.0,1.3036788,4.580871,-2.3173249
vit_b_16,1,442,NaN,elephant,bottle,NaN,bottle5-elephant1.png,bottle5-elephant1.png,0.0,-0.49160823,8.240677,-6.1746583
vit_b_16,1,443,NaN,keyboard,bottle,NaN,bottle5-keyboard2.png,bottle5-keyboard2.png,0.0,1.7345756,2.0163307,-0.19923094
vit_b_16,1,444,NaN,bottle,bottle,NaN,bottle5-knife1.png,bottle5-knife1.png,1.0,1.8226196,1.2185031,0.42717484
vit_b_16,1,445,NaN,car,bottle,NaN,bottle5-oven2.png,bottle5-oven2.png,0.0,1.0765872,2.4845371,-0.99557096
vit_b_16,1,446,NaN,bottle,bottle,NaN,bottle5-truck1.png,bottle5-truck1.png,1.0,4.703748,1.0628467,2.5745063
vit_b_16,1,447,NaN,clock,bottle,NaN,bottle6-airplane1.png,bottle6-airplane1.png,0.0,1.3985851,2.1019726,-0.49737006
vit_b_16,1,448,NaN,bottle,bottle,NaN,bottle6-bear2.png,bottle6-bear2.png,1.0,3.5677526,1.9150028,1.1686707
vit_b_16,1,449,NaN,bottle,bottle,NaN,bottle6-bicycle3.png,bottle6-bicycle3.png,1.0,4.5172606,1.260194,2.303094
vit_b_16,1,450,NaN,bottle,bottle,NaN,bottle6-bird1.png,bottle6-bird1.png,1.0,1.6230171,0.23010923,0.9849346
vit_b_16,1,451,NaN,bottle,bottle,NaN,bottle6-boat3.png,bottle6-boat3.png,1.0,3.0843189,1.3888015,1.1989119
vit_b_16,1,452,NaN,bottle,bottle,NaN,bottle6-bottle3.png,bottle6-bottle3.png,1.0,4.323354,1.8077012,1.778835
vit_b_16,1,453,NaN,clock,bottle,NaN,bottle6-chair2.png,bottle6-chair2.png,0.0,0.45512754,2.9841738,-1.7883058
vit_b_16,1,454,NaN,dog,bottle,NaN,bottle6-dog3.png,bottle6-dog3.png,0.0,0.515304,0.9136874,-0.2816996
vit_b_16,1,455,NaN,knife,bottle,NaN,bottle6-knife3.png,bottle6-knife3.png,0.0,1.6865079,2.2839344,-0.42244428
vit_b_16,1,456,NaN,oven,bottle,NaN,bottle6-oven3.png,bottle6-oven3.png,0.0,1.0173299,3.5562851,-1.7953125
vit_b_16,1,457,NaN,clock,bottle,NaN,bottle7-airplane3.png,bottle7-airplane3.png,0.0,0.9295024,1.4008535,-0.33329555
vit_b_16,1,458,NaN,bear,bottle,NaN,bottle7-bear1.png,bottle7-bear1.png,0.0,-0.062394056,2.1468956,-1.5622038
vit_b_16,1,459,NaN,boat,bottle,NaN,bottle7-boat3.png,bottle7-boat3.png,0.0,1.2145177,3.636575,-1.712653
vit_b_16,1,460,NaN,cat,bottle,NaN,bottle7-cat2.png,bottle7-cat2.png,0.0,-0.042234592,2.6702588,-1.9180225
vit_b_16,1,461,NaN,clock,bottle,NaN,bottle7-clock1.png,bottle7-clock1.png,0.0,1.3016111,5.612059,-3.0479472
vit_b_16,1,462,NaN,elephant,bottle,NaN,bottle7-elephant2.png,bottle7-elephant2.png,0.0,-0.09083058,7.25374,-5.1933956
vit_b_16,1,463,NaN,keyboard,bottle,NaN,bottle7-keyboard2.png,bottle7-keyboard2.png,0.0,1.9227698,3.3556526,-1.0132011
vit_b_16,1,464,NaN,bottle,bottle,NaN,bottle7-oven2.png,bottle7-oven2.png,1.0,2.3755593,0.63970584,1.2274338
vit_b_16,1,465,NaN,truck,bottle,NaN,bottle7-truck2.png,bottle7-truck2.png,0.0,0.61508274,1.809942,-0.8448931
vit_b_16,1,466,NaN,bottle,bottle,NaN,bottle8-bicycle1.png,bottle8-bicycle1.png,1.0,3.8450968,2.2214346,1.1481026
vit_b_16,1,467,NaN,bird,bottle,NaN,bottle8-bird1.png,bottle8-bird1.png,0.0,1.0854741,1.2964139,-0.14915694
vit_b_16,1,468,NaN,bottle,bottle,NaN,bottle8-bottle3.png,bottle8-bottle3.png,1.0,2.637726,1.0320548,1.1353811
vit_b_16,1,469,NaN,bottle,bottle,NaN,bottle8-dog2.png,bottle8-dog2.png,1.0,3.0070918,0.7458765,1.5989206
vit_b_16,1,470,NaN,elephant,bottle,NaN,bottle8-elephant3.png,bottle8-elephant3.png,0.0,-0.11712209,8.150604,-5.846165
vit_b_16,1,471,NaN,bottle,bottle,NaN,bottle8-keyboard3.png,bottle8-keyboard3.png,1.0,2.1546204,0.088410795,1.4610308
vit_b_16,1,472,NaN,bottle,bottle,NaN,bottle8-knife1.png,bottle8-knife1.png,1.0,1.3791977,1.2005383,0.1263313
vit_b_16,1,473,NaN,clock,bottle,NaN,bottle9-bicycle1.png,bottle9-bicycle1.png,0.0,0.62528366,3.7777808,-2.229152
vit_b_16,1,474,NaN,bottle,bottle,NaN,bottle9-bottle1.png,bottle9-bottle1.png,1.0,2.1856601,2.1856394,1.4667104e-05
vit_b_16,1,475,NaN,bottle,bottle,NaN,bottle9-car3.png,bottle9-car3.png,1.0,1.8866936,1.3498735,0.3795891
vit_b_16,1,476,NaN,bottle,bottle,NaN,bottle9-cat2.png,bottle9-cat2.png,1.0,2.6142638,0.9634948,1.16727
vit_b_16,1,477,NaN,elephant,bottle,NaN,bottle9-elephant2.png,bottle9-elephant2.png,0.0,0.57414293,5.30974,-3.348573
vit_b_16,1,478,NaN,bottle,bottle,NaN,bottle9-keyboard1.png,bottle9-keyboard1.png,1.0,1.9361508,0.76624244,0.8272501
vit_b_16,1,479,NaN,bottle,bottle,NaN,bottle9-oven2.png,bottle9-oven2.png,1.0,3.6325505,1.2685293,1.6716155
vit_b_16,1,480,NaN,bottle,bottle,NaN,bottle9-truck1.png,bottle9-truck1.png,1.0,4.8122187,0.4682797,3.0716286
vit_b_16,1,481,NaN,car,car,NaN,car1-airplane1.png,car1-airplane1.png,1.0,3.7580407,2.038067,1.216205
vit_b_16,1,482,NaN,car,car,NaN,car1-car2.png,car1-car2.png,1.0,3.4680455,1.4656231,1.4159265
vit_b_16,1,483,NaN,airplane,car,NaN,car1-chair3.png,car1-chair3.png,0.0,0.18826528,2.5604267,-1.6773714
vit_b_16,1,484,NaN,car,car,NaN,car1-clock2.png,car1-clock2.png,1.0,3.520795,1.4192065,1.4860476
vit_b_16,1,485,NaN,bottle,car,NaN,car1-dog2.png,car1-dog2.png,0.0,0.19204487,1.5086946,-0.93101203
vit_b_16,1,486,NaN,keyboard,car,NaN,car1-keyboard2.png,car1-keyboard2.png,0.0,1.6971868,4.929137,-2.285334
vit_b_16,1,487,NaN,oven,car,NaN,car1-oven3.png,car1-oven3.png,0.0,0.85414714,2.3502738,-1.0579213
vit_b_16,1,488,NaN,car,car,NaN,car10-bicycle2.png,car10-bicycle2.png,1.0,3.6470919,2.2994301,0.95294076
vit_b_16,1,489,NaN,bottle,car,NaN,car10-bottle3.png,car10-bottle3.png,0.0,2.2946503,4.1355586,-1.3017187
vit_b_16,1,490,NaN,car,car,NaN,car10-car1.png,car10-car1.png,1.0,4.119483,1.3843893,1.9340032
vit_b_16,1,491,NaN,car,car,NaN,car10-chair1.png,car10-chair1.png,1.0,6.5877724,1.3197628,3.7250454
vit_b_16,1,492,NaN,bear,car,NaN,car10-dog1.png,car10-dog1.png,0.0,-0.5794447,1.3100667,-1.3360863
vit_b_16,1,493,NaN,elephant,car,NaN,car10-elephant2.png,car10-elephant2.png,0.0,-0.75065637,6.7046175,-5.2716746
vit_b_16,1,494,NaN,bottle,car,NaN,car10-keyboard2.png,car10-keyboard2.png,0.0,1.7147093,1.8994253,-0.13061392
vit_b_16,1,495,NaN,car,car,NaN,car2-bird3.png,car2-bird3.png,1.0,3.9723737,2.5454571,1.0089824
vit_b_16,1,496,NaN,car,car,NaN,car2-car3.png,car2-car3.png,1.0,5.9241614,1.205965,3.3362687
vit_b_16,1,497,NaN,cat,car,NaN,car2-cat3.png,car2-cat3.png,0.0,0.7782559,1.8522958,-0.7594609
vit_b_16,1,498,NaN,car,car,NaN,car2-chair1.png,car2-chair1.png,1.0,6.009729,1.5657113,3.1423948
vit_b_16,1,499,NaN,knife,car,NaN,car2-knife3.png,car2-knife3.png,0.0,0.9075145,5.422877,-3.1928434
vit_b_16,1,500,NaN,airplane,car,NaN,car3-airplane3.png,car3-airplane3.png,0.0,3.9192657,4.0327306,-0.080231756
vit_b_16,1,501,NaN,car,car,NaN,car3-bird2.png,car3-bird2.png,1.0,4.061939,0.9496545,2.2007172
vit_b_16,1,502,NaN,car,car,NaN,car3-boat1.png,car3-boat1.png,1.0,3.4994938,1.6940607,1.2766341
vit_b_16,1,503,NaN,bottle,car,NaN,car3-bottle3.png,car3-bottle3.png,0.0,-0.0890845,4.49048,-3.2382412
vit_b_16,1,504,NaN,car,car,NaN,car3-dog2.png,car3-dog2.png,1.0,3.2991064,1.014739,1.6152916
vit_b_16,1,505,NaN,elephant,car,NaN,car3-elephant3.png,car3-elephant3.png,0.0,-0.54969645,6.0347795,-4.6559277
vit_b_16,1,506,NaN,car,car,NaN,car3-oven3.png,car3-oven3.png,1.0,3.8287156,2.5523915,0.9024974
vit_b_16,1,507,NaN,car,car,NaN,car3-truck1.png,car3-truck1.png,1.0,5.5586834,1.2811675,3.0246606
vit_b_16,1,508,NaN,bird,car,NaN,car4-bear3.png,car4-bear3.png,0.0,-0.89387876,1.849176,-1.9396328
vit_b_16,1,509,NaN,chair,car,NaN,car4-bicycle3.png,car4-bicycle3.png,0.0,-0.53558,2.0181592,-1.8057662
vit_b_16,1,510,NaN,bottle,car,NaN,car4-bird1.png,car4-bird1.png,0.0,-0.2405656,1.2110691,-1.0264608
vit_b_16,1,511,NaN,car,car,NaN,car4-boat1.png,car4-boat1.png,1.0,3.4038708,1.7889999,1.1418862
vit_b_16,1,512,NaN,clock,car,NaN,car4-bottle1.png,car4-bottle1.png,0.0,0.046080142,1.6754271,-1.1521223
vit_b_16,1,513,NaN,car,car,NaN,car4-car2.png,car4-car2.png,1.0,4.299867,0.9347729,2.379481
vit_b_16,1,514,NaN,cat,car,NaN,car4-cat3.png,car4-cat3.png,0.0,-0.8586784,1.5785326,-1.7233685
vit_b_16,1,515,NaN,clock,car,NaN,car4-clock1.png,car4-clock1.png,0.0,2.4747722,3.292184,-0.5779975
vit_b_16,1,516,NaN,elephant,car,NaN,car4-elephant3.png,car4-elephant3.png,0.0,-1.0093135,3.587562,-3.250482
vit_b_16,1,517,NaN,oven,car,NaN,car4-oven2.png,car4-oven2.png,0.0,1.110061,3.334581,-1.572973
vit_b_16,1,518,NaN,car,car,NaN,car5-airplane3.png,car5-airplane3.png,1.0,5.2031994,2.562295,1.8674015
vit_b_16,1,519,NaN,bear,car,NaN,car5-bear3.png,car5-bear3.png,0.0,-1.0287102,1.0782084,-1.4898165
vit_b_16,1,520,NaN,clock,car,NaN,car5-bottle1.png,car5-bottle1.png,0.0,1.2850345,1.8384572,-0.39132893
vit_b_16,1,521,NaN,dog,car,NaN,car5-cat1.png,car5-cat1.png,0.0,-0.45497203,1.2065648,-1.174884
vit_b_16,1,522,NaN,clock,car,NaN,car5-keyboard3.png,car5-keyboard3.png,0.0,-0.288134,2.28528,-1.8196785
vit_b_16,1,523,NaN,truck,car,NaN,car5-knife2.png,car5-knife2.png,0.0,3.4791403,3.4893281,-0.007203908
vit_b_16,1,524,NaN,oven,car,NaN,car5-oven2.png,car5-oven2.png,0.0,2.4845169,2.602626,-0.08351584
vit_b_16,1,525,NaN,car,car,NaN,car5-truck3.png,car5-truck3.png,1.0,3.060002,2.1139126,0.6689863
vit_b_16,1,526,NaN,bear,car,NaN,car6-bear1.png,car6-bear1.png,0.0,-0.88514405,2.863577,-2.650746
vit_b_16,1,527,NaN,car,car,NaN,car6-bicycle3.png,car6-bicycle3.png,1.0,3.7290819,1.4066882,1.6421803
vit_b_16,1,528,NaN,car,car,NaN,car6-boat1.png,car6-boat1.png,1.0,4.5179214,3.4183848,0.77748984
vit_b_16,1,529,NaN,clock,car,NaN,car6-bottle1.png,car6-bottle1.png,0.0,-0.5682104,4.6972346,-3.723232
vit_b_16,1,530,NaN,airplane,car,NaN,car6-chair3.png,car6-chair3.png,0.0,-0.397846,1.3800216,-1.2571422
vit_b_16,1,531,NaN,elephant,car,NaN,car6-elephant3.png,car6-elephant3.png,0.0,-0.6854236,6.268133,-4.9169073
vit_b_16,1,532,NaN,car,car,NaN,car6-knife1.png,car6-knife1.png,1.0,3.6122875,1.1996721,1.7059767
vit_b_16,1,533,NaN,car,car,NaN,car6-truck3.png,car6-truck3.png,1.0,5.1261573,2.2806194,2.0120993
vit_b_16,1,534,NaN,car,car,NaN,car7-airplane2.png,car7-airplane2.png,1.0,2.4470556,2.0986047,0.246392
vit_b_16,1,535,NaN,bear,car,NaN,car7-bear1.png,car7-bear1.png,0.0,-0.39120498,2.7960725,-2.2537456
vit_b_16,1,536,NaN,bottle,car,NaN,car7-bird3.png,car7-bird3.png,0.0,0.46691266,2.0293715,-1.1048253
vit_b_16,1,537,NaN,car,car,NaN,car7-boat3.png,car7-boat3.png,1.0,3.3682308,2.8501515,0.3663374
vit_b_16,1,538,NaN,car,car,NaN,car7-car1.png,car7-car1.png,1.0,3.478384,1.0984217,1.6828876
vit_b_16,1,539,NaN,clock,car,NaN,car7-clock1.png,car7-clock1.png,0.0,0.517487,5.41826,-3.46537
vit_b_16,1,540,NaN,dog,car,NaN,car7-dog3.png,car7-dog3.png,0.0,-0.60491693,0.96899825,-1.1129261
vit_b_16,1,541,NaN,elephant,car,NaN,car7-elephant3.png,car7-elephant3.png,0.0,0.32821468,7.953769,-5.3920813
vit_b_16,1,542,NaN,car,car,NaN,car7-keyboard3.png,car7-keyboard3.png,1.0,3.2307222,1.8891195,0.9486564
vit_b_16,1,543,NaN,oven,car,NaN,car7-oven2.png,car7-oven2.png,0.0,1.0592741,3.4383333,-1.682249
vit_b_16,1,544,NaN,airplane,car,NaN,car8-airplane3.png,car8-airplane3.png,0.0,2.923289,4.099892,-0.83198404
vit_b_16,1,545,NaN,bear,car,NaN,car8-bear1.png,car8-bear1.png,0.0,-0.8397741,2.4605088,-2.3336525
vit_b_16,1,546,NaN,car,car,NaN,car8-bicycle2.png,car8-bicycle2.png,1.0,2.7682498,1.7786174,0.69977576
vit_b_16,1,547,NaN,car,car,NaN,car8-boat3.png,car8-boat3.png,1.0,5.4314647,2.5692973,2.023858
vit_b_16,1,548,NaN,cat,car,NaN,car8-cat1.png,car8-cat1.png,0.0,-0.5289352,1.8067623,-1.6515877
vit_b_16,1,549,NaN,car,car,NaN,car8-chair1.png,car8-chair1.png,1.0,7.1236305,1.2730091,4.137014
vit_b_16,1,550,NaN,car,car,NaN,car8-clock2.png,car8-clock2.png,1.0,5.241329,0.637039,3.2557247
vit_b_16,1,551,NaN,dog,car,NaN,car8-dog1.png,car8-dog1.png,0.0,-0.68186474,0.7990868,-1.0471909
vit_b_16,1,552,NaN,knife,car,NaN,car8-knife2.png,car8-knife2.png,0.0,1.6720549,2.8008492,-0.79817814
vit_b_16,1,553,NaN,car,car,NaN,car8-truck3.png,car8-truck3.png,1.0,6.296469,1.5592637,3.3497102
vit_b_16,1,554,NaN,car,car,NaN,car9-bicycle2.png,car9-bicycle2.png,1.0,6.345037,2.5189526,2.7054503
vit_b_16,1,555,NaN,car,car,NaN,car9-bird1.png,car9-bird1.png,1.0,2.109788,0.96836925,0.8071049
vit_b_16,1,556,NaN,dog,car,NaN,car9-cat1.png,car9-cat1.png,0.0,-0.27977917,1.3361659,-1.1426457
vit_b_16,1,557,NaN,car,car,NaN,car9-clock2.png,car9-clock2.png,1.0,5.696549,0.6048601,3.6003675
vit_b_16,1,558,NaN,keyboard,car,NaN,car9-keyboard2.png,car9-keyboard2.png,0.0,1.3397608,1.8448572,-0.3571571
vit_b_16,1,559,NaN,car,car,NaN,car9-knife1.png,car9-knife1.png,1.0,3.280464,0.786626,1.7634096
vit_b_16,1,560,NaN,car,car,NaN,car9-truck3.png,car9-truck3.png,1.0,7.480266,1.2916498,4.376013
vit_b_16,1,561,NaN,airplane,cat,NaN,cat1-airplane1.png,cat1-airplane1.png,0.0,0.48309442,1.1041363,-0.43914294
vit_b_16,1,562,NaN,cat,cat,NaN,cat1-bird1.png,cat1-bird1.png,1.0,4.5409317,0.9209654,2.5597026
vit_b_16,1,563,NaN,airplane,cat,NaN,cat1-boat1.png,cat1-boat1.png,0.0,1.2460076,3.0360143,-1.265726
vit_b_16,1,564,NaN,knife,cat,NaN,cat1-car2.png,cat1-car2.png,0.0,0.20575453,0.4005894,-0.13776906
vit_b_16,1,565,NaN,cat,cat,NaN,cat1-cat3.png,cat1-cat3.png,1.0,3.8018723,0.9824884,1.9936055
vit_b_16,1,566,NaN,chair,cat,NaN,cat1-chair2.png,cat1-chair2.png,0.0,-0.07920101,0.678887,-0.5360492
vit_b_16,1,567,NaN,cat,cat,NaN,cat1-dog1.png,cat1-dog1.png,1.0,4.696787,0.48574907,2.9776533
vit_b_16,1,568,NaN,bottle,cat,NaN,cat1-keyboard3.png,cat1-keyboard3.png,0.0,0.47291127,3.0029297,-1.7889931
vit_b_16,1,569,NaN,oven,cat,NaN,cat1-oven1.png,cat1-oven1.png,0.0,0.3808883,2.0645816,-1.1905509
vit_b_16,1,570,NaN,airplane,cat,NaN,cat10-airplane3.png,cat10-airplane3.png,0.0,-0.022823254,2.3174498,-1.6548231
vit_b_16,1,571,NaN,bear,cat,NaN,cat10-bear1.png,cat10-bear1.png,0.0,2.6491337,3.4146712,-0.54131675
vit_b_16,1,572,NaN,clock,cat,NaN,cat10-bicycle1.png,cat10-bicycle1.png,0.0,-0.3165162,1.5115252,-1.2926204
vit_b_16,1,573,NaN,cat,cat,NaN,cat10-bird2.png,cat10-bird2.png,1.0,2.5193417,1.0140973,1.0643685
vit_b_16,1,574,NaN,clock,cat,NaN,cat10-bottle1.png,cat10-bottle1.png,0.0,-0.3840827,1.3617493,-1.2344897
vit_b_16,1,575,NaN,clock,cat,NaN,cat10-clock1.png,cat10-clock1.png,0.0,-0.72332644,4.167843,-3.4585793
vit_b_16,1,576,NaN,elephant,cat,NaN,cat10-elephant3.png,cat10-elephant3.png,0.0,0.9498803,8.148027,-5.089859
vit_b_16,1,577,NaN,keyboard,cat,NaN,cat10-keyboard1.png,cat10-keyboard1.png,0.0,-0.37402013,0.87933826,-0.8862582
vit_b_16,1,578,NaN,oven,cat,NaN,cat10-oven2.png,cat10-oven2.png,0.0,-0.35486457,2.4249868,-1.9656519
vit_b_16,1,579,NaN,boat,cat,NaN,cat2-boat2.png,cat2-boat2.png,0.0,-0.457957,2.7355683,-2.2581635
vit_b_16,1,580,NaN,bottle,cat,NaN,cat2-bottle3.png,cat2-bottle3.png,0.0,-0.0043643117,3.0578885,-2.1653397
vit_b_16,1,581,NaN,car,cat,NaN,cat2-car3.png,cat2-car3.png,0.0,-0.4997077,1.9468445,-1.7299738
vit_b_16,1,582,NaN,cat,cat,NaN,cat2-cat1.png,cat2-cat1.png,1.0,2.9100344,0.87059236,1.4421034
vit_b_16,1,583,NaN,elephant,cat,NaN,cat2-elephant1.png,cat2-elephant1.png,0.0,0.22312845,7.1896667,-4.9260864
vit_b_16,1,584,NaN,knife,cat,NaN,cat2-knife3.png,cat2-knife3.png,0.0,-0.5533913,2.305668,-2.0216603
vit_b_16,1,585,NaN,car,cat,NaN,cat2-truck3.png,cat2-truck3.png,0.0,-0.31122795,1.7826277,-1.4805795
vit_b_16,1,586,NaN,cat,cat,NaN,cat3-bear2.png,cat3-bear2.png,1.0,4.2364283,2.8075233,1.0103885
vit_b_16,1,587,NaN,bicycle,cat,NaN,cat3-bicycle1.png,cat3-bicycle1.png,0.0,0.43379006,0.8689348,-0.3076938
vit_b_16,1,588,NaN,cat,cat,NaN,cat3-cat1.png,cat3-cat1.png,1.0,4.607063,0.7030324,2.7605665
vit_b_16,1,589,NaN,elephant,cat,NaN,cat3-elephant2.png,cat3-elephant2.png,0.0,3.0469313,7.8431163,-3.391415
vit_b_16,1,590,NaN,oven,cat,NaN,cat3-oven2.png,cat3-oven2.png,0.0,-0.32772604,1.7168348,-1.4457229
vit_b_16,1,591,NaN,car,cat,NaN,cat3-truck3.png,cat3-truck3.png,0.0,-0.6781623,3.194857,-2.7386382
vit_b_16,1,592,NaN,knife,cat,NaN,cat4-airplane1.png,cat4-airplane1.png,0.0,-0.40998372,1.6290733,-1.4418311
vit_b_16,1,593,NaN,clock,cat,NaN,cat4-bird2.png,cat4-bird2.png,0.0,0.74052954,1.0943896,-0.2502168
vit_b_16,1,594,NaN,car,cat,NaN,cat4-car2.png,cat4-car2.png,0.0,0.086115755,0.7796607,-0.49041033
vit_b_16,1,595,NaN,bottle,cat,NaN,cat4-cat3.png,cat4-cat3.png,0.0,0.14558153,1.0263917,-0.6228269
vit_b_16,1,596,NaN,chair,cat,NaN,cat4-chair2.png,cat4-chair2.png,0.0,-0.6018631,2.55482,-2.2321122
vit_b_16,1,597,NaN,clock,cat,NaN,cat4-clock2.png,cat4-clock2.png,0.0,-0.38630247,2.5141375,-2.0509207
vit_b_16,1,598,NaN,dog,cat,NaN,cat4-dog3.png,cat4-dog3.png,0.0,0.5070717,0.9686746,-0.32640257
vit_b_16,1,599,NaN,clock,cat,NaN,cat4-keyboard2.png,cat4-keyboard2.png,0.0,-0.3793958,2.4250932,-1.9830731
vit_b_16,1,600,NaN,knife,cat,NaN,cat4-knife1.png,cat4-knife1.png,0.0,-0.7885764,0.7015577,-1.053684
vit_b_16,1,601,NaN,oven,cat,NaN,cat4-oven1.png,cat4-oven1.png,0.0,-0.41294643,2.7913127,-2.2657535
vit_b_16,1,602,NaN,truck,cat,NaN,cat4-truck3.png,cat4-truck3.png,0.0,-0.606245,2.0733702,-1.8947742
vit_b_16,1,603,NaN,airplane,cat,NaN,cat5-airplane2.png,cat5-airplane2.png,0.0,0.008711994,2.2380733,-1.5763965
vit_b_16,1,604,NaN,cat,cat,NaN,cat5-bear2.png,cat5-bear2.png,1.0,3.8452246,3.07279,0.54619384
vit_b_16,1,605,NaN,cat,cat,NaN,cat5-bicycle3.png,cat5-bicycle3.png,1.0,2.1802995,1.5518606,0.44437346
vit_b_16,1,606,NaN,boat,cat,NaN,cat5-boat1.png,cat5-boat1.png,0.0,0.99195796,1.7304796,-0.52221364
vit_b_16,1,607,NaN,bottle,cat,NaN,cat5-bottle1.png,cat5-bottle1.png,0.0,-0.73470944,2.9492042,-2.6049204
vit_b_16,1,608,NaN,cat,cat,NaN,cat5-car2.png,cat5-car2.png,1.0,2.6490214,0.45616397,1.5505844
vit_b_16,1,609,NaN,airplane,cat,NaN,cat5-chair3.png,cat5-chair3.png,0.0,0.46813285,3.8292212,-2.3766484
vit_b_16,1,610,NaN,cat,cat,NaN,cat5-dog3.png,cat5-dog3.png,1.0,2.382565,0.7130415,1.1805314
vit_b_16,1,611,NaN,elephant,cat,NaN,cat5-elephant2.png,cat5-elephant2.png,0.0,-0.20381047,6.8312516,-4.97454
vit_b_16,1,612,NaN,clock,cat,NaN,cat5-keyboard3.png,cat5-keyboard3.png,0.0,1.0738279,2.487913,-0.9999091
vit_b_16,1,613,NaN,cat,cat,NaN,cat5-knife2.png,cat5-knife2.png,1.0,2.2291179,1.6782783,0.38950238
vit_b_16,1,614,NaN,cat,cat,NaN,cat6-bear1.png,cat6-bear1.png,1.0,3.458413,0.89503926,1.8125789
vit_b_16,1,615,NaN,airplane,cat,NaN,cat6-chair3.png,cat6-chair3.png,0.0,0.164726,3.4647264,-2.3334527
vit_b_16,1,616,NaN,cat,cat,NaN,cat6-clock3.png,cat6-clock3.png,1.0,2.7779696,1.2167692,1.1039354
vit_b_16,1,617,NaN,bottle,cat,NaN,cat6-keyboard3.png,cat6-keyboard3.png,0.0,0.36865047,2.0177944,-1.1661209
vit_b_16,1,618,NaN,knife,cat,NaN,cat6-oven1.png,cat6-oven1.png,0.0,-0.11039541,1.9455317,-1.45376
vit_b_16,1,619,NaN,airplane,cat,NaN,cat7-airplane2.png,cat7-airplane2.png,0.0,-0.12918009,3.1632586,-2.3281057
vit_b_16,1,620,NaN,chair,cat,NaN,cat7-boat3.png,cat7-boat3.png,0.0,0.69490856,1.3314466,-0.4501004
vit_b_16,1,621,NaN,clock,cat,NaN,cat7-bottle1.png,cat7-bottle1.png,0.0,-0.006401072,1.4550327,-1.0333897
vit_b_16,1,622,NaN,clock,cat,NaN,cat7-clock3.png,cat7-clock3.png,0.0,-0.33564845,2.3678162,-1.9116383
vit_b_16,1,623,NaN,cat,cat,NaN,cat7-dog3.png,cat7-dog3.png,1.0,3.3046954,0.76777816,1.7938714
vit_b_16,1,624,NaN,elephant,cat,NaN,cat7-elephant1.png,cat7-elephant1.png,0.0,0.09559033,7.2900944,-5.0872827
vit_b_16,1,625,NaN,knife,cat,NaN,cat7-knife2.png,cat7-knife2.png,0.0,-0.541898,2.484528,-2.1400065
vit_b_16,1,626,NaN,truck,cat,NaN,cat7-truck2.png,cat7-truck2.png,0.0,-0.1851048,3.0980847,-2.3215656
vit_b_16,1,627,NaN,bear,cat,NaN,cat8-bear1.png,cat8-bear1.png,0.0,0.8659887,3.4195583,-1.8056464
vit_b_16,1,628,NaN,bottle,cat,NaN,cat8-bicycle3.png,cat8-bicycle3.png,0.0,-0.29363993,1.8828212,-1.5389905
vit_b_16,1,629,NaN,cat,cat,NaN,cat8-bird2.png,cat8-bird2.png,1.0,3.8551226,1.4082055,1.7302316
vit_b_16,1,630,NaN,clock,cat,NaN,cat8-car2.png,cat8-car2.png,0.0,-0.29032174,1.3125714,-1.1334167
vit_b_16,1,631,NaN,bicycle,cat,NaN,cat9-bicycle1.png,cat9-bicycle1.png,0.0,-0.45332643,0.7894677,-0.8787882
vit_b_16,1,632,NaN,cat,cat,NaN,cat9-bird3.png,cat9-bird3.png,1.0,1.8370293,1.1544969,0.4826233
vit_b_16,1,633,NaN,boat,cat,NaN,cat9-boat2.png,cat9-boat2.png,0.0,-0.6564617,2.482324,-2.2194567
vit_b_16,1,634,NaN,bottle,cat,NaN,cat9-bottle2.png,cat9-bottle2.png,0.0,-0.13313003,3.4516625,-2.5348313
vit_b_16,1,635,NaN,cat,cat,NaN,cat9-cat3.png,cat9-cat3.png,1.0,1.5932623,1.1338094,0.32488224
vit_b_16,1,636,NaN,chair,cat,NaN,cat9-chair2.png,cat9-chair2.png,0.0,-0.14843558,1.187071,-0.9443458
vit_b_16,1,637,NaN,clock,cat,NaN,cat9-clock2.png,cat9-clock2.png,0.0,-0.27139914,1.4652948,-1.228028
vit_b_16,1,638,NaN,cat,cat,NaN,cat9-dog2.png,cat9-dog2.png,1.0,4.1239905,0.769089,2.3722737
vit_b_16,1,639,NaN,knife,cat,NaN,cat9-knife2.png,cat9-knife2.png,0.0,-0.1822859,1.826486,-1.4204162
vit_b_16,1,640,NaN,car,cat,NaN,cat9-truck1.png,cat9-truck1.png,0.0,-0.66718864,3.1397245,-2.691894
vit_b_16,1,641,NaN,bottle,chair,NaN,chair1-airplane2.png,chair1-airplane2.png,0.0,1.4702847,2.9759908,-1.064695
vit_b_16,1,642,NaN,bottle,chair,NaN,chair1-bear1.png,chair1-bear1.png,0.0,-0.31923217,0.4493429,-0.54346466
vit_b_16,1,643,NaN,bottle,chair,NaN,chair1-cat3.png,chair1-cat3.png,0.0,0.42580134,0.7703299,-0.24361849
vit_b_16,1,644,NaN,airplane,chair,NaN,chair1-chair1.png,chair1-chair1.png,0.0,1.8575916,2.5690327,-0.5030648
vit_b_16,1,645,NaN,clock,chair,NaN,chair1-clock2.png,chair1-clock2.png,0.0,0.74495083,1.9166298,-0.8285022
vit_b_16,1,646,NaN,car,chair,NaN,chair1-dog1.png,chair1-dog1.png,0.0,0.17088641,0.29631397,-0.088690676
vit_b_16,1,647,NaN,elephant,chair,NaN,chair1-elephant1.png,chair1-elephant1.png,0.0,0.14253014,8.024594,-5.573461
vit_b_16,1,648,NaN,oven,chair,NaN,chair1-oven3.png,chair1-oven3.png,0.0,0.09793727,2.9896631,-2.044759
vit_b_16,1,649,NaN,bottle,chair,NaN,chair1-truck3.png,chair1-truck3.png,0.0,0.73254544,1.8697423,-0.8041196
vit_b_16,1,650,NaN,chair,chair,NaN,chair10-airplane2.png,chair10-airplane2.png,1.0,1.4959481,1.2236797,0.19252284
vit_b_16,1,651,NaN,chair,chair,NaN,chair10-bicycle1.png,chair10-bicycle1.png,1.0,4.8884897,0.73680365,2.9356854
vit_b_16,1,652,NaN,oven,chair,NaN,chair10-bird3.png,chair10-bird3.png,0.0,2.7236056,3.7283368,-0.71045226
vit_b_16,1,653,NaN,chair,chair,NaN,chair10-bottle3.png,chair10-bottle3.png,1.0,4.2389836,3.4784486,0.53777945
vit_b_16,1,654,NaN,bottle,chair,NaN,chair10-car2.png,chair10-car2.png,0.0,0.14127083,0.9398349,-0.5646701
vit_b_16,1,655,NaN,cat,chair,NaN,chair10-cat1.png,chair10-cat1.png,0.0,1.1061431,2.1309288,-0.72463286
vit_b_16,1,656,NaN,clock,chair,NaN,chair10-clock1.png,chair10-clock1.png,0.0,0.68525285,1.8537637,-0.826262
vit_b_16,1,657,NaN,dog,chair,NaN,chair10-dog1.png,chair10-dog1.png,0.0,-0.4225974,0.3040864,-0.51384306
vit_b_16,1,658,NaN,oven,chair,NaN,chair10-oven1.png,chair10-oven1.png,0.0,1.0300775,2.8833244,-1.3104435
vit_b_16,1,659,NaN,chair,chair,NaN,chair2-bear2.png,chair2-bear2.png,1.0,2.9720201,1.9979235,0.6887904
vit_b_16,1,660,NaN,chair,chair,NaN,chair2-boat1.png,chair2-boat1.png,1.0,3.6808307,1.114235,1.8148571
vit_b_16,1,661,NaN,bottle,chair,NaN,chair2-keyboard2.png,chair2-keyboard2.png,0.0,0.1641543,2.5446355,-1.6832545
vit_b_16,1,662,NaN,chair,chair,NaN,chair2-knife1.png,chair2-knife1.png,1.0,2.9422565,1.4289938,1.0700383
vit_b_16,1,663,NaN,airplane,chair,NaN,chair3-airplane2.png,chair3-airplane2.png,0.0,1.4475487,2.9624977,-1.0712306
vit_b_16,1,664,NaN,chair,chair,NaN,chair3-bicycle3.png,chair3-bicycle3.png,1.0,2.0598497,1.4345974,0.4421202
vit_b_16,1,665,NaN,chair,chair,NaN,chair3-bottle3.png,chair3-bottle3.png,1.0,3.767869,1.9853315,1.2604444
vit_b_16,1,666,NaN,car,chair,NaN,chair3-car3.png,chair3-car3.png,0.0,0.94764525,1.4746372,-0.37263957
vit_b_16,1,667,NaN,cat,chair,NaN,chair3-dog2.png,chair3-dog2.png,0.0,0.065232694,0.8207853,-0.5342564
vit_b_16,1,668,NaN,chair,chair,NaN,chair3-knife1.png,chair3-knife1.png,1.0,1.983344,1.9824817,0.0006096963
vit_b_16,1,669,NaN,keyboard,chair,NaN,chair4-bear2.png,chair4-bear2.png,0.0,0.8479184,2.1371632,-0.91163373
vit_b_16,1,670,NaN,cat,chair,NaN,chair4-cat2.png,chair4-cat2.png,0.0,0.28628093,2.722101,-1.7223849
vit_b_16,1,671,NaN,chair,chair,NaN,chair4-chair3.png,chair4-chair3.png,1.0,2.688964,2.299125,0.27565777
vit_b_16,1,672,NaN,keyboard,chair,NaN,chair4-keyboard2.png,chair4-keyboard2.png,0.0,0.09968373,6.4201035,-4.4692116
vit_b_16,1,673,NaN,oven,chair,NaN,chair4-oven2.png,chair4-oven2.png,0.0,1.9151499,3.824176,-1.3498853
vit_b_16,1,674,NaN,knife,chair,NaN,chair4-truck2.png,chair4-truck2.png,0.0,0.9789715,2.471312,-1.0552442
vit_b_16,1,675,NaN,bicycle,chair,NaN,chair5-bicycle1.png,chair5-bicycle1.png,0.0,1.5388995,2.9702063,-1.0120867
vit_b_16,1,676,NaN,bottle,chair,NaN,chair5-bird1.png,chair5-bird1.png,0.0,-0.3797702,1.195112,-1.1136099
vit_b_16,1,677,NaN,chair,chair,NaN,chair5-boat3.png,chair5-boat3.png,1.0,2.4794621,1.0030555,1.0439773
vit_b_16,1,678,NaN,chair,chair,NaN,chair5-bottle3.png,chair5-bottle3.png,1.0,3.6300054,1.4785297,1.5213231
vit_b_16,1,679,NaN,chair,chair,NaN,chair5-car1.png,chair5-car1.png,1.0,1.4012376,1.1240157,0.1960255
vit_b_16,1,680,NaN,clock,chair,NaN,chair5-cat3.png,chair5-cat3.png,0.0,-0.06661293,1.010294,-0.7614882
vit_b_16,1,681,NaN,clock,chair,NaN,chair5-clock2.png,chair5-clock2.png,0.0,0.5723748,1.1124882,-0.3819178
vit_b_16,1,682,NaN,keyboard,chair,NaN,chair5-keyboard2.png,chair5-keyboard2.png,0.0,0.2886449,2.609612,-1.6411717
vit_b_16,1,683,NaN,knife,chair,NaN,chair5-knife3.png,chair5-knife3.png,0.0,-0.11053777,4.341306,-3.1479292
vit_b_16,1,684,NaN,oven,chair,NaN,chair5-oven2.png,chair5-oven2.png,0.0,1.756159,3.4967966,-1.2308167
vit_b_16,1,685,NaN,car,chair,NaN,chair5-truck3.png,chair5-truck3.png,0.0,-0.19539204,2.3748205,-1.8174148
vit_b_16,1,686,NaN,chair,chair,NaN,chair6-bird2.png,chair6-bird2.png,1.0,3.6476696,1.5809761,1.4613729
vit_b_16,1,687,NaN,cat,chair,NaN,chair6-dog1.png,chair6-dog1.png,0.0,0.24917069,0.44372734,-0.13757233
vit_b_16,1,688,NaN,elephant,chair,NaN,chair6-elephant2.png,chair6-elephant2.png,0.0,2.6506596,6.8243833,-2.9512684
vit_b_16,1,689,NaN,car,chair,NaN,chair6-truck2.png,chair6-truck2.png,0.0,0.98909307,2.517493,-1.080742
vit_b_16,1,690,NaN,knife,chair,NaN,chair7-airplane1.png,chair7-airplane1.png,0.0,0.42441127,2.8503919,-1.7154274
vit_b_16,1,691,NaN,bird,chair,NaN,chair7-bird1.png,chair7-bird1.png,0.0,0.29161495,1.60446,-0.9283216
vit_b_16,1,692,NaN,boat,chair,NaN,chair7-boat3.png,chair7-boat3.png,0.0,1.2809772,2.0997565,-0.57896435
vit_b_16,1,693,NaN,keyboard,chair,NaN,chair7-bottle1.png,chair7-bottle1.png,0.0,1.1370881,1.7007562,-0.39857358
vit_b_16,1,694,NaN,knife,chair,NaN,chair7-car2.png,chair7-car2.png,0.0,-0.47815207,0.6196446,-0.7762595
vit_b_16,1,695,NaN,chair,chair,NaN,chair7-cat1.png,chair7-cat1.png,1.0,2.605106,1.4963298,0.7840233
vit_b_16,1,696,NaN,car,chair,NaN,chair7-chair1.png,chair7-chair1.png,0.0,1.4753201,3.7932994,-1.639059
vit_b_16,1,697,NaN,clock,chair,NaN,chair7-clock3.png,chair7-clock3.png,0.0,0.337605,3.303686,-2.097336
vit_b_16,1,698,NaN,elephant,chair,NaN,chair7-elephant1.png,chair7-elephant1.png,0.0,0.64531606,6.6288295,-4.230983
vit_b_16,1,699,NaN,knife,chair,NaN,chair7-knife2.png,chair7-knife2.png,0.0,1.1054559,3.707604,-1.8399966
vit_b_16,1,700,NaN,keyboard,chair,NaN,chair7-truck3.png,chair7-truck3.png,0.0,-0.11305222,2.5409353,-1.8766525
vit_b_16,1,701,NaN,knife,chair,NaN,chair8-airplane1.png,chair8-airplane1.png,0.0,0.63412297,4.0817256,-2.4378233
vit_b_16,1,702,NaN,chair,chair,NaN,chair8-bear1.png,chair8-bear1.png,1.0,0.85828257,0.65311736,0.14507371
vit_b_16,1,703,NaN,chair,chair,NaN,chair8-bicycle3.png,chair8-bicycle3.png,1.0,2.9022224,0.88728195,1.4247781
vit_b_16,1,704,NaN,chair,chair,NaN,chair8-boat1.png,chair8-boat1.png,1.0,3.8730655,0.8244814,2.1556745
vit_b_16,1,705,NaN,car,chair,NaN,chair8-car1.png,chair8-car1.png,0.0,1.1463804,1.3398255,-0.13678634
vit_b_16,1,706,NaN,chair,chair,NaN,chair8-chair3.png,chair8-chair3.png,1.0,3.343311,1.721715,1.1466416
vit_b_16,1,707,NaN,clock,chair,NaN,chair8-clock3.png,chair8-clock3.png,0.0,-0.77849936,2.1729898,-2.087018
vit_b_16,1,708,NaN,elephant,chair,NaN,chair8-elephant1.png,chair8-elephant1.png,0.0,0.18336776,7.725814,-5.333315
vit_b_16,1,709,NaN,clock,chair,NaN,chair8-keyboard3.png,chair8-keyboard3.png,0.0,-0.52709645,2.0949707,-1.8540815
vit_b_16,1,710,NaN,knife,chair,NaN,chair8-knife2.png,chair8-knife2.png,0.0,2.3898244,3.2557468,-0.6122996
vit_b_16,1,711,NaN,bottle,chair,NaN,chair8-oven1.png,chair8-oven1.png,0.0,0.52623284,2.1048007,-1.1162161
vit_b_16,1,712,NaN,cat,chair,NaN,chair9-bear1.png,chair9-bear1.png,0.0,-0.35436013,1.1982607,-1.0978687
vit_b_16,1,713,NaN,bottle,chair,NaN,chair9-bicycle3.png,chair9-bicycle3.png,0.0,1.1677439,1.9307117,-0.53949976
vit_b_16,1,714,NaN,clock,chair,NaN,chair9-bird3.png,chair9-bird3.png,0.0,0.27953,4.0832005,-2.6896012
vit_b_16,1,715,NaN,clock,chair,NaN,chair9-boat2.png,chair9-boat2.png,0.0,1.8321269,3.134683,-0.9210462
vit_b_16,1,716,NaN,bottle,chair,NaN,chair9-bottle3.png,chair9-bottle3.png,0.0,2.4903564,3.2230484,-0.5180915
vit_b_16,1,717,NaN,chair,chair,NaN,chair9-chair3.png,chair9-chair3.png,1.0,2.9851043,1.3124572,1.1827401
vit_b_16,1,718,NaN,clock,chair,NaN,chair9-dog2.png,chair9-dog2.png,0.0,-0.6057756,1.5789822,-1.544857
vit_b_16,1,719,NaN,elephant,chair,NaN,chair9-elephant1.png,chair9-elephant1.png,0.0,-0.21128541,8.008774,-5.81246
vit_b_16,1,720,NaN,keyboard,chair,NaN,chair9-keyboard2.png,chair9-keyboard2.png,0.0,0.30793712,3.8725295,-2.5205474
vit_b_16,1,721,NaN,cat,clock,NaN,clock1-bear1.png,clock1-bear1.png,0.0,0.13384724,1.461041,-0.9384677
vit_b_16,1,722,NaN,boat,clock,NaN,clock1-boat3.png,clock1-boat3.png,0.0,1.8949137,2.950808,-0.7466301
vit_b_16,1,723,NaN,chair,clock,NaN,clock1-car1.png,clock1-car1.png,0.0,0.6794297,1.3443643,-0.47017977
vit_b_16,1,724,NaN,clock,clock,NaN,clock1-clock2.png,clock1-clock2.png,1.0,5.177013,0.61302567,3.2272265
vit_b_16,1,725,NaN,cat,clock,NaN,clock1-dog2.png,clock1-dog2.png,0.0,0.88786745,1.0226455,-0.095302455
vit_b_16,1,726,NaN,elephant,clock,NaN,clock1-elephant2.png,clock1-elephant2.png,0.0,0.3271581,6.669387,-4.484633
vit_b_16,1,727,NaN,car,clock,NaN,clock1-truck3.png,clock1-truck3.png,0.0,1.5445461,2.569102,-0.72447044
vit_b_16,1,728,NaN,clock,clock,NaN,clock10-airplane1.png,clock10-airplane1.png,1.0,3.7844276,1.8355533,1.3780622
vit_b_16,1,729,NaN,clock,clock,NaN,clock10-bird3.png,clock10-bird3.png,1.0,1.3261545,0.9751105,0.2482256
vit_b_16,1,730,NaN,clock,clock,NaN,clock10-boat2.png,clock10-boat2.png,1.0,1.8721832,1.107281,0.54086757
vit_b_16,1,731,NaN,bottle,clock,NaN,clock10-bottle1.png,clock10-bottle1.png,0.0,1.2346096,1.779061,-0.38498524
vit_b_16,1,732,NaN,cat,clock,NaN,clock10-cat1.png,clock10-cat1.png,0.0,-0.16366555,1.497418,-1.1745635
vit_b_16,1,733,NaN,clock,clock,NaN,clock10-clock3.png,clock10-clock3.png,1.0,6.4075933,0.44680086,4.2149167
vit_b_16,1,734,NaN,bear,clock,NaN,clock10-dog3.png,clock10-dog3.png,0.0,0.35605475,1.2586441,-0.63822705
vit_b_16,1,735,NaN,clock,clock,NaN,clock10-knife3.png,clock10-knife3.png,1.0,1.5593172,1.0486673,0.361084
vit_b_16,1,736,NaN,clock,clock,NaN,clock10-oven2.png,clock10-oven2.png,1.0,5.043155,2.1091,2.0746903
vit_b_16,1,737,NaN,clock,clock,NaN,clock10-truck2.png,clock10-truck2.png,1.0,1.4311811,0.83136994,0.42413053
vit_b_16,1,738,NaN,clock,clock,NaN,clock2-bear2.png,clock2-bear2.png,1.0,4.1817546,1.3441286,2.0065045
vit_b_16,1,739,NaN,clock,clock,NaN,clock2-bicycle1.png,clock2-bicycle1.png,1.0,5.135753,0.5007624,3.2774334
vit_b_16,1,740,NaN,clock,clock,NaN,clock2-bottle3.png,clock2-bottle3.png,1.0,5.8319125,0.5713603,3.7197723
vit_b_16,1,741,NaN,clock,clock,NaN,clock2-clock3.png,clock2-clock3.png,1.0,6.0069795,0.16561134,4.130471
vit_b_16,1,742,NaN,clock,clock,NaN,clock2-dog1.png,clock2-dog1.png,1.0,3.4198103,0.43563962,2.1101274
vit_b_16,1,743,NaN,clock,clock,NaN,clock2-elephant2.png,clock2-elephant2.png,1.0,5.575297,4.5925555,0.6949031
vit_b_16,1,744,NaN,clock,clock,NaN,clock2-knife1.png,clock2-knife1.png,1.0,5.541937,0.8025321,3.3512652
vit_b_16,1,745,NaN,clock,clock,NaN,clock3-bear3.png,clock3-bear3.png,1.0,5.802946,1.8731989,2.778751
vit_b_16,1,746,NaN,clock,clock,NaN,clock3-bicycle2.png,clock3-bicycle2.png,1.0,2.010341,1.364347,0.45678672
vit_b_16,1,747,NaN,clock,clock,NaN,clock3-bird1.png,clock3-bird1.png,1.0,4.6398563,1.5004675,2.2198832
vit_b_16,1,748,NaN,clock,clock,NaN,clock3-car2.png,clock3-car2.png,1.0,4.4254603,0.9155073,2.4819117
vit_b_16,1,749,NaN,clock,clock,NaN,clock3-cat1.png,clock3-cat1.png,1.0,5.6964874,1.1994902,3.1798575
vit_b_16,1,750,NaN,clock,clock,NaN,clock3-dog2.png,clock3-dog2.png,1.0,5.357165,1.4855653,2.7376344
vit_b_16,1,751,NaN,clock,clock,NaN,clock3-elephant3.png,clock3-elephant3.png,1.0,4.502004,0.9837394,2.487789
vit_b_16,1,752,NaN,clock,clock,NaN,clock3-keyboard3.png,clock3-keyboard3.png,1.0,4.016847,1.6204889,1.6944813
vit_b_16,1,753,NaN,clock,clock,NaN,clock4-airplane1.png,clock4-airplane1.png,1.0,5.614164,0.3500228,3.7223098
vit_b_16,1,754,NaN,clock,clock,NaN,clock4-bird3.png,clock4-bird3.png,1.0,5.661886,0.54207385,3.6202543
vit_b_16,1,755,NaN,clock,clock,NaN,clock4-boat3.png,clock4-boat3.png,1.0,3.9124396,1.5343609,1.6815556
vit_b_16,1,756,NaN,clock,clock,NaN,clock4-bottle3.png,clock4-bottle3.png,1.0,5.6432214,0.47888017,3.6517406
vit_b_16,1,757,NaN,clock,clock,NaN,clock4-car2.png,clock4-car2.png,1.0,4.7677226,0.7864529,2.815183
vit_b_16,1,758,NaN,clock,clock,NaN,clock4-chair1.png,clock4-chair1.png,1.0,5.0546756,3.1496134,1.3470824
vit_b_16,1,759,NaN,elephant,clock,NaN,clock4-elephant2.png,clock4-elephant2.png,0.0,1.1087509,8.215955,-5.0255523
vit_b_16,1,760,NaN,clock,clock,NaN,clock4-knife1.png,clock4-knife1.png,1.0,4.975803,0.4765822,3.1814296
vit_b_16,1,761,NaN,clock,clock,NaN,clock4-oven1.png,clock4-oven1.png,1.0,5.963754,1.079805,3.4534738
vit_b_16,1,762,NaN,clock,clock,NaN,clock5-airplane1.png,clock5-airplane1.png,1.0,5.1855826,0.6880437,3.1802404
vit_b_16,1,763,NaN,bicycle,clock,NaN,clock5-bicycle1.png,clock5-bicycle1.png,0.0,1.5003937,2.3216782,-0.5807358
vit_b_16,1,764,NaN,clock,clock,NaN,clock5-chair3.png,clock5-chair3.png,1.0,2.4490001,0.79428244,1.1700621
vit_b_16,1,765,NaN,clock,clock,NaN,clock5-clock2.png,clock5-clock2.png,1.0,5.5405374,0.27742833,3.7215803
vit_b_16,1,766,NaN,elephant,clock,NaN,clock5-elephant2.png,clock5-elephant2.png,0.0,5.227148,5.706134,-0.3386941
vit_b_16,1,767,NaN,clock,clock,NaN,clock5-keyboard1.png,clock5-keyboard1.png,1.0,4.925394,0.8780555,2.8619006
vit_b_16,1,768,NaN,clock,clock,NaN,clock5-oven1.png,clock5-oven1.png,1.0,2.613248,1.058745,1.0991997
vit_b_16,1,769,NaN,clock,clock,NaN,clock6-bicycle1.png,clock6-bicycle1.png,1.0,4.72413,0.85469306,2.7361054
vit_b_16,1,770,NaN,clock,clock,NaN,clock6-bird3.png,clock6-bird3.png,1.0,5.860325,0.37425813,3.879235
vit_b_16,1,771,NaN,clock,clock,NaN,clock6-bottle1.png,clock6-bottle1.png,1.0,5.3111534,1.079463,2.992257
vit_b_16,1,772,NaN,clock,clock,NaN,clock6-car2.png,clock6-car2.png,1.0,6.2575374,0.33802444,4.1857276
vit_b_16,1,773,NaN,clock,clock,NaN,clock6-chair3.png,clock6-chair3.png,1.0,2.2802536,1.4356382,0.59723336
vit_b_16,1,774,NaN,clock,clock,NaN,clock6-clock2.png,clock6-clock2.png,1.0,6.3754897,0.42719194,4.206082
vit_b_16,1,775,NaN,clock,clock,NaN,clock6-knife2.png,clock6-knife2.png,1.0,5.502544,0.7046993,3.3925886
vit_b_16,1,776,NaN,oven,clock,NaN,clock6-oven1.png,clock6-oven1.png,0.0,1.2404776,3.3459673,-1.4888061
vit_b_16,1,777,NaN,clock,clock,NaN,clock6-truck3.png,clock6-truck3.png,1.0,5.673025,0.9517873,3.3384192
vit_b_16,1,778,NaN,clock,clock,NaN,clock7-bear2.png,clock7-bear2.png,1.0,5.2241406,0.31123137,3.4739516
vit_b_16,1,779,NaN,clock,clock,NaN,clock7-bicycle1.png,clock7-bicycle1.png,1.0,4.7025657,1.0907178,2.5539622
vit_b_16,1,780,NaN,clock,clock,NaN,clock7-boat3.png,clock7-boat3.png,1.0,3.6902542,2.130793,1.1027056
vit_b_16,1,781,NaN,clock,clock,NaN,clock7-bottle2.png,clock7-bottle2.png,1.0,2.9465911,2.771036,0.12413629
vit_b_16,1,782,NaN,clock,clock,NaN,clock7-car1.png,clock7-car1.png,1.0,4.930062,0.3850794,3.213788
vit_b_16,1,783,NaN,clock,clock,NaN,clock7-cat2.png,clock7-cat2.png,1.0,4.915764,0.5724904,3.0711584
vit_b_16,1,784,NaN,clock,clock,NaN,clock7-dog2.png,clock7-dog2.png,1.0,4.733955,0.77926177,2.7963903
vit_b_16,1,785,NaN,clock,clock,NaN,clock7-keyboard2.png,clock7-keyboard2.png,1.0,4.601255,1.3796031,2.2780519
vit_b_16,1,786,NaN,car,clock,NaN,clock7-truck3.png,clock7-truck3.png,0.0,-0.021047672,4.7440996,-3.369468
vit_b_16,1,787,NaN,clock,clock,NaN,clock8-airplane2.png,clock8-airplane2.png,1.0,2.9613202,0.89566946,1.4606357
vit_b_16,1,788,NaN,clock,clock,NaN,clock8-bear2.png,clock8-bear2.png,1.0,2.6295404,2.4986823,0.09253071
vit_b_16,1,789,NaN,clock,clock,NaN,clock8-boat1.png,clock8-boat1.png,1.0,4.046878,0.4817617,2.520918
vit_b_16,1,790,NaN,clock,clock,NaN,clock8-cat1.png,clock8-cat1.png,1.0,3.3911984,0.42732513,2.095775
vit_b_16,1,791,NaN,clock,clock,NaN,clock8-chair2.png,clock8-chair2.png,1.0,2.3034565,0.99326,0.9264489
vit_b_16,1,792,NaN,clock,clock,NaN,clock8-keyboard1.png,clock8-keyboard1.png,1.0,5.500156,0.66204673,3.4210598
vit_b_16,1,793,NaN,clock,clock,NaN,clock8-knife1.png,clock8-knife1.png,1.0,5.319403,0.75485486,3.2276232
vit_b_16,1,794,NaN,clock,clock,NaN,clock8-oven3.png,clock8-oven3.png,1.0,3.7243412,0.7497311,2.103367
vit_b_16,1,795,NaN,clock,clock,NaN,clock8-truck2.png,clock8-truck2.png,1.0,2.1643636,1.8984772,0.1880101
vit_b_16,1,796,NaN,clock,clock,NaN,clock9-airplane1.png,clock9-airplane1.png,1.0,4.9533696,1.2040956,2.651137
vit_b_16,1,797,NaN,clock,clock,NaN,clock9-bird2.png,clock9-bird2.png,1.0,3.734989,2.6709807,0.75236744
vit_b_16,1,798,NaN,clock,clock,NaN,clock9-cat1.png,clock9-cat1.png,1.0,0.7975487,0.6363509,0.11398405
vit_b_16,1,799,NaN,clock,clock,NaN,clock9-chair3.png,clock9-chair3.png,1.0,1.140715,0.6136766,0.37267244
vit_b_16,1,800,NaN,car,clock,NaN,clock9-keyboard2.png,clock9-keyboard2.png,0.0,0.5858191,1.9562922,-0.9690708
vit_b_16,1,801,NaN,airplane,dog,NaN,dog1-airplane3.png,dog1-airplane3.png,0.0,-0.5017457,2.5788736,-2.1783268
vit_b_16,1,802,NaN,bear,dog,NaN,dog1-bear1.png,dog1-bear1.png,0.0,0.9561568,2.06468,-0.7838444
vit_b_16,1,803,NaN,bottle,dog,NaN,dog1-bird1.png,dog1-bird1.png,0.0,0.33909634,1.6607004,-0.93451524
vit_b_16,1,804,NaN,chair,dog,NaN,dog1-boat3.png,dog1-boat3.png,0.0,-1.1276809,1.1679789,-1.6232766
vit_b_16,1,805,NaN,bottle,dog,NaN,dog1-car2.png,dog1-car2.png,0.0,-0.5159827,1.0015277,-1.0730419
vit_b_16,1,806,NaN,dog,dog,NaN,dog1-cat3.png,dog1-cat3.png,1.0,1.0545655,0.49014097,0.39910844
vit_b_16,1,807,NaN,bottle,dog,NaN,dog1-chair1.png,dog1-chair1.png,0.0,-0.34648117,2.405108,-1.9456673
vit_b_16,1,808,NaN,dog,dog,NaN,dog1-dog2.png,dog1-dog2.png,1.0,0.8764085,0.49121585,0.27237234
vit_b_16,1,809,NaN,knife,dog,NaN,dog1-knife3.png,dog1-knife3.png,0.0,-0.41093472,3.3051915,-2.6276982
vit_b_16,1,810,NaN,keyboard,dog,NaN,dog10-airplane1.png,dog10-airplane1.png,0.0,-0.23316026,1.2581277,-1.0544999
vit_b_16,1,811,NaN,knife,dog,NaN,dog10-bicycle1.png,dog10-bicycle1.png,0.0,-0.40405348,0.8747262,-0.90423375
vit_b_16,1,812,NaN,chair,dog,NaN,dog10-bottle1.png,dog10-bottle1.png,0.0,0.015350884,1.2894485,-0.900923
vit_b_16,1,813,NaN,car,dog,NaN,dog10-car3.png,dog10-car3.png,0.0,-0.6306846,3.3548393,-2.818191
vit_b_16,1,814,NaN,clock,dog,NaN,dog10-clock1.png,dog10-clock1.png,0.0,-0.25735146,3.8614318,-2.9124198
vit_b_16,1,815,NaN,dog,dog,NaN,dog10-dog1.png,dog10-dog1.png,1.0,1.0668563,0.7890982,0.1964046
vit_b_16,1,816,NaN,elephant,dog,NaN,dog10-elephant1.png,dog10-elephant1.png,0.0,-0.14937715,7.51874,-5.422178
vit_b_16,1,817,NaN,keyboard,dog,NaN,dog10-keyboard2.png,dog10-keyboard2.png,0.0,-0.46592188,2.330072,-1.9770662
vit_b_16,1,818,NaN,oven,dog,NaN,dog10-oven2.png,dog10-oven2.png,0.0,-0.30447102,3.0898602,-2.4001546
vit_b_16,1,819,NaN,car,dog,NaN,dog10-truck2.png,dog10-truck2.png,0.0,-0.36977604,4.905839,-3.7304235
vit_b_16,1,820,NaN,car,dog,NaN,dog2-airplane2.png,dog2-airplane2.png,0.0,-0.17173001,4.6752133,-3.4273067
vit_b_16,1,821,NaN,bicycle,dog,NaN,dog2-bicycle2.png,dog2-bicycle2.png,0.0,-0.71570855,4.339464,-3.574547
vit_b_16,1,822,NaN,bottle,dog,NaN,dog2-bottle2.png,dog2-bottle2.png,0.0,0.105239324,3.7447264,-2.573506
vit_b_16,1,823,NaN,cat,dog,NaN,dog2-cat1.png,dog2-cat1.png,0.0,0.77692544,1.7913717,-0.7173218
vit_b_16,1,824,NaN,dog,dog,NaN,dog2-dog3.png,dog2-dog3.png,1.0,1.0731469,0.022708006,0.74277246
vit_b_16,1,825,NaN,knife,dog,NaN,dog2-knife3.png,dog2-knife3.png,0.0,-0.5099729,5.2692275,-4.086512
vit_b_16,1,826,NaN,bear,dog,NaN,dog3-bear3.png,dog3-bear3.png,0.0,0.99156433,1.4799272,-0.3453247
vit_b_16,1,827,NaN,dog,dog,NaN,dog3-bird2.png,dog3-bird2.png,1.0,1.1101128,0.23557569,0.61839116
vit_b_16,1,828,NaN,boat,dog,NaN,dog3-boat1.png,dog3-boat1.png,0.0,-0.4221565,2.3055332,-1.9287679
vit_b_16,1,829,NaN,clock,dog,NaN,dog3-clock1.png,dog3-clock1.png,0.0,-0.59505117,2.9585383,-2.512767
vit_b_16,1,830,NaN,dog,dog,NaN,dog3-dog1.png,dog3-dog1.png,1.0,1.3176928,0.37148526,0.66906977
vit_b_16,1,831,NaN,elephant,dog,NaN,dog3-elephant2.png,dog3-elephant2.png,0.0,-0.22345614,7.6131616,-5.5413256
vit_b_16,1,832,NaN,clock,dog,NaN,dog3-keyboard1.png,dog3-keyboard1.png,0.0,-0.2204346,2.023094,-1.5864143
vit_b_16,1,833,NaN,knife,dog,NaN,dog3-knife3.png,dog3-knife3.png,0.0,-0.0828896,3.3927987,-2.4576828
vit_b_16,1,834,NaN,knife,dog,NaN,dog3-truck2.png,dog3-truck2.png,0.0,-0.63499063,1.2957473,-1.365238
vit_b_16,1,835,NaN,airplane,dog,NaN,dog4-airplane3.png,dog4-airplane3.png,0.0,-0.46345115,3.8469703,-3.0479283
vit_b_16,1,836,NaN,clock,dog,NaN,dog4-bicycle1.png,dog4-bicycle1.png,0.0,-0.2171262,2.8179703,-2.1461372
vit_b_16,1,837,NaN,bird,dog,NaN,dog4-bird1.png,dog4-bird1.png,0.0,-0.21657038,1.0587243,-0.9017695
vit_b_16,1,838,NaN,bottle,dog,NaN,dog4-bottle2.png,dog4-bottle2.png,0.0,-0.2813208,1.8429741,-1.5021032
vit_b_16,1,839,NaN,cat,dog,NaN,dog4-cat3.png,dog4-cat3.png,0.0,0.41541633,4.5528913,-2.9256368
vit_b_16,1,840,NaN,car,dog,NaN,dog4-chair1.png,dog4-chair1.png,0.0,-0.5421475,2.54232,-2.181048
vit_b_16,1,841,NaN,clock,dog,NaN,dog4-clock1.png,dog4-clock1.png,0.0,-0.3225088,3.695465,-2.8411367
vit_b_16,1,842,NaN,elephant,dog,NaN,dog4-elephant2.png,dog4-elephant2.png,0.0,-0.27864072,6.7955694,-5.002222
vit_b_16,1,843,NaN,keyboard,dog,NaN,dog4-keyboard2.png,dog4-keyboard2.png,0.0,-0.89384496,3.8374057,-3.3454995
vit_b_16,1,844,NaN,oven,dog,NaN,dog4-oven1.png,dog4-oven1.png,0.0,-0.06970688,2.040281,-1.4919869
vit_b_16,1,845,NaN,car,dog,NaN,dog4-truck2.png,dog4-truck2.png,0.0,-0.38262177,2.921613,-2.3364468
vit_b_16,1,846,NaN,elephant,dog,NaN,dog5-bear3.png,dog5-bear3.png,0.0,1.1640714,2.4479797,-0.9078602
vit_b_16,1,847,NaN,chair,dog,NaN,dog5-boat3.png,dog5-boat3.png,0.0,-0.787072,1.6716685,-1.7385921
vit_b_16,1,848,NaN,car,dog,NaN,dog5-car3.png,dog5-car3.png,0.0,-0.66338587,1.5615793,-1.573288
vit_b_16,1,849,NaN,elephant,dog,NaN,dog5-elephant1.png,dog5-elephant1.png,0.0,-0.25771037,8.320894,-6.0659895
vit_b_16,1,850,NaN,chair,dog,NaN,dog5-knife2.png,dog5-knife2.png,0.0,-0.3722698,0.33812994,-0.5023285
vit_b_16,1,851,NaN,oven,dog,NaN,dog5-oven1.png,dog5-oven1.png,0.0,-0.11351013,0.6971221,-0.57320356
vit_b_16,1,852,NaN,chair,dog,NaN,dog5-truck2.png,dog5-truck2.png,0.0,-0.3875728,2.3798244,-1.9568453
vit_b_16,1,853,NaN,clock,dog,NaN,dog6-bicycle1.png,dog6-bicycle1.png,0.0,-0.47211865,1.2263974,-1.2010322
vit_b_16,1,854,NaN,bird,dog,NaN,dog6-bird1.png,dog6-bird1.png,0.0,-0.19859414,1.2431576,-1.0194725
vit_b_16,1,855,NaN,dog,dog,NaN,dog6-cat1.png,dog6-cat1.png,1.0,0.68154746,0.64618677,0.025003787
vit_b_16,1,856,NaN,clock,dog,NaN,dog6-clock1.png,dog6-clock1.png,0.0,-0.39085072,4.0623703,-3.1489027
vit_b_16,1,857,NaN,elephant,dog,NaN,dog6-elephant2.png,dog6-elephant2.png,0.0,-0.16471983,6.727049,-4.8732166
vit_b_16,1,858,NaN,car,dog,NaN,dog6-truck2.png,dog6-truck2.png,0.0,-0.26259467,3.778107,-2.8572073
vit_b_16,1,859,NaN,oven,dog,NaN,dog7-bird3.png,dog7-bird3.png,0.0,0.754808,1.0892556,-0.23649015
vit_b_16,1,860,NaN,bird,dog,NaN,dog7-car2.png,dog7-car2.png,0.0,0.05286259,0.23233359,-0.12690516
vit_b_16,1,861,NaN,clock,dog,NaN,dog7-chair2.png,dog7-chair2.png,0.0,-0.3017607,2.0969841,-1.6961688
vit_b_16,1,862,NaN,bottle,dog,NaN,dog7-keyboard3.png,dog7-keyboard3.png,0.0,-0.77431166,2.0690198,-2.0105388
vit_b_16,1,863,NaN,knife,dog,NaN,dog7-knife3.png,dog7-knife3.png,0.0,-0.4169351,3.4863424,-2.7600338
vit_b_16,1,864,NaN,oven,dog,NaN,dog7-oven2.png,dog7-oven2.png,0.0,-0.5457674,2.2582502,-1.9827398
vit_b_16,1,865,NaN,bear,dog,NaN,dog8-bear3.png,dog8-bear3.png,0.0,0.1600291,4.8600116,-3.3233898
vit_b_16,1,866,NaN,truck,dog,NaN,dog8-boat3.png,dog8-boat3.png,0.0,-0.9474953,1.0705974,-1.427007
vit_b_16,1,867,NaN,bottle,dog,NaN,dog8-bottle2.png,dog8-bottle2.png,0.0,-0.5002232,3.3557427,-2.7265797
vit_b_16,1,868,NaN,clock,dog,NaN,dog8-chair3.png,dog8-chair3.png,0.0,-0.45359153,0.76961213,-0.86493564
vit_b_16,1,869,NaN,clock,dog,NaN,dog8-clock2.png,dog8-clock2.png,0.0,-0.3924758,2.0148468,-1.7022341
vit_b_16,1,870,NaN,dog,dog,NaN,dog8-dog3.png,dog8-dog3.png,1.0,1.5071446,0.6941504,0.5748737
vit_b_16,1,871,NaN,knife,dog,NaN,dog8-keyboard3.png,dog8-keyboard3.png,0.0,-0.63561314,1.329347,-1.3894366
vit_b_16,1,872,NaN,knife,dog,NaN,dog8-oven3.png,dog8-oven3.png,0.0,0.04303756,3.877143,-2.7111218
vit_b_16,1,873,NaN,airplane,dog,NaN,dog9-airplane3.png,dog9-airplane3.png,0.0,-0.5442993,3.1400094,-2.6051998
vit_b_16,1,874,NaN,bear,dog,NaN,dog9-bear3.png,dog9-bear3.png,0.0,0.7639509,4.4228506,-2.5872328
vit_b_16,1,875,NaN,bottle,dog,NaN,dog9-bicycle3.png,dog9-bicycle3.png,0.0,-0.45259857,1.6851324,-1.5116042
vit_b_16,1,876,NaN,bottle,dog,NaN,dog9-boat1.png,dog9-boat1.png,0.0,-0.6502024,2.5141084,-2.2375057
vit_b_16,1,877,NaN,clock,dog,NaN,dog9-bottle1.png,dog9-bottle1.png,0.0,-0.29529992,0.87370163,-0.82660896
vit_b_16,1,878,NaN,boat,dog,NaN,dog9-car1.png,dog9-car1.png,0.0,-0.3335766,1.396448,-1.2233121
vit_b_16,1,879,NaN,dog,dog,NaN,dog9-cat1.png,dog9-cat1.png,1.0,0.6624361,0.3430122,0.22586682
vit_b_16,1,880,NaN,chair,dog,NaN,dog9-chair2.png,dog9-chair2.png,0.0,-0.39170796,3.2426364,-2.5698695
vit_b_16,1,881,NaN,bottle,elephant,NaN,elephant1-airplane2.png,elephant1-airplane2.png,0.0,-0.29127243,1.1405135,-1.0124255
vit_b_16,1,882,NaN,elephant,elephant,NaN,elephant1-bear2.png,elephant1-bear2.png,1.0,7.452456,1.851935,3.9601665
vit_b_16,1,883,NaN,airplane,elephant,NaN,elephant1-boat2.png,elephant1-boat2.png,0.0,0.2698204,1.6547464,-0.97929066
vit_b_16,1,884,NaN,elephant,elephant,NaN,elephant1-bottle1.png,elephant1-bottle1.png,1.0,1.9005332,1.4869235,0.29246625
vit_b_16,1,885,NaN,car,elephant,NaN,elephant1-car3.png,elephant1-car3.png,0.0,0.7963635,2.4782474,-1.1892716
vit_b_16,1,886,NaN,car,elephant,NaN,elephant1-chair1.png,elephant1-chair1.png,0.0,-0.29536507,2.9262688,-2.2780392
vit_b_16,1,887,NaN,dog,elephant,NaN,elephant1-dog2.png,elephant1-dog2.png,0.0,0.19405681,0.9806754,-0.55622333
vit_b_16,1,888,NaN,bottle,elephant,NaN,elephant1-keyboard3.png,elephant1-keyboard3.png,0.0,-0.595699,2.2669408,-2.024192
vit_b_16,1,889,NaN,oven,elephant,NaN,elephant1-oven2.png,elephant1-oven2.png,0.0,0.77003026,1.8600019,-0.7707264
vit_b_16,1,890,NaN,elephant,elephant,NaN,elephant10-bear1.png,elephant10-bear1.png,1.0,4.1187515,3.7167876,0.28423142
vit_b_16,1,891,NaN,elephant,elephant,NaN,elephant10-elephant1.png,elephant10-elephant1.png,1.0,6.973938,0.27837405,4.7344785
vit_b_16,1,892,NaN,bottle,elephant,NaN,elephant10-keyboard1.png,elephant10-keyboard1.png,0.0,0.47535706,1.5586287,-0.7659887
vit_b_16,1,893,NaN,knife,elephant,NaN,elephant10-knife3.png,elephant10-knife3.png,0.0,-0.06531604,2.1221159,-1.5467479
vit_b_16,1,894,NaN,bottle,elephant,NaN,elephant2-airplane3.png,elephant2-airplane3.png,0.0,-0.43162662,1.3273927,-1.2438146
vit_b_16,1,895,NaN,elephant,elephant,NaN,elephant2-bear3.png,elephant2-bear3.png,1.0,5.594859,3.7212477,1.3248434
vit_b_16,1,896,NaN,bird,elephant,NaN,elephant2-bird1.png,elephant2-bird1.png,0.0,0.2811128,1.1320672,-0.6017156
vit_b_16,1,897,NaN,bottle,elephant,NaN,elephant2-boat1.png,elephant2-boat1.png,0.0,-0.04234332,1.8145262,-1.313005
vit_b_16,1,898,NaN,bottle,elephant,NaN,elephant2-bottle3.png,elephant2-bottle3.png,0.0,0.1877151,2.4612377,-1.6076233
vit_b_16,1,899,NaN,keyboard,elephant,NaN,elephant2-cat1.png,elephant2-cat1.png,0.0,0.013774119,0.905491,-0.63053906
vit_b_16,1,900,NaN,clock,elephant,NaN,elephant2-clock1.png,elephant2-clock1.png,0.0,-0.5426926,2.0121672,-1.8065587
vit_b_16,1,901,NaN,elephant,elephant,NaN,elephant2-elephant3.png,elephant2-elephant3.png,1.0,7.8784885,0.20458603,5.4262686
vit_b_16,1,902,NaN,bottle,elephant,NaN,elephant2-keyboard3.png,elephant2-keyboard3.png,0.0,-0.3503223,2.666534,-2.1332395
vit_b_16,1,903,NaN,car,elephant,NaN,elephant2-truck2.png,elephant2-truck2.png,0.0,-0.1725661,2.913413,-2.182117
vit_b_16,1,904,NaN,cat,elephant,NaN,elephant3-cat2.png,elephant3-cat2.png,0.0,0.107979074,1.5002006,-0.9844493
vit_b_16,1,905,NaN,airplane,elephant,NaN,elephant3-chair1.png,elephant3-chair1.png,0.0,-0.32772732,2.8485765,-2.245986
vit_b_16,1,906,NaN,bottle,elephant,NaN,elephant3-keyboard2.png,elephant3-keyboard2.png,0.0,-0.0555289,2.684439,-1.9374498
vit_b_16,1,907,NaN,knife,elephant,NaN,elephant3-knife1.png,elephant3-knife1.png,0.0,-0.42312363,1.1185249,-1.0901102
vit_b_16,1,908,NaN,oven,elephant,NaN,elephant3-oven1.png,elephant3-oven1.png,0.0,-0.029150633,2.8150651,-2.0111644
vit_b_16,1,909,NaN,car,elephant,NaN,elephant3-truck1.png,elephant3-truck1.png,0.0,-0.7391354,2.0680575,-1.9849851
vit_b_16,1,910,NaN,chair,elephant,NaN,elephant4-bicycle2.png,elephant4-bicycle2.png,0.0,0.2737404,1.2638352,-0.70010275
vit_b_16,1,911,NaN,elephant,elephant,NaN,elephant4-bird1.png,elephant4-bird1.png,1.0,1.9645894,1.8815795,0.05869682
vit_b_16,1,912,NaN,truck,elephant,NaN,elephant4-boat3.png,elephant4-boat3.png,0.0,0.7910501,0.91156393,-0.085216165
vit_b_16,1,913,NaN,car,elephant,NaN,elephant4-car3.png,elephant4-car3.png,0.0,0.57489413,2.2274892,-1.1685612
vit_b_16,1,914,NaN,airplane,elephant,NaN,elephant4-chair3.png,elephant4-chair3.png,0.0,0.73865944,3.2167208,-1.7522541
vit_b_16,1,915,NaN,bottle,elephant,NaN,elephant4-clock3.png,elephant4-clock3.png,0.0,-0.34170392,0.6528686,-0.703269
vit_b_16,1,916,NaN,oven,elephant,NaN,elephant4-oven1.png,elephant4-oven1.png,0.0,-0.4623581,1.8450958,-1.6316164
vit_b_16,1,917,NaN,elephant,elephant,NaN,elephant5-bear2.png,elephant5-bear2.png,1.0,6.868724,2.837953,2.8501854
vit_b_16,1,918,NaN,chair,elephant,NaN,elephant5-bicycle3.png,elephant5-bicycle3.png,0.0,0.56456244,2.5105872,-1.3760474
vit_b_16,1,919,NaN,bottle,elephant,NaN,elephant5-bottle2.png,elephant5-bottle2.png,0.0,0.6765338,3.6025825,-2.0690289
vit_b_16,1,920,NaN,boat,elephant,NaN,elephant5-car1.png,elephant5-car1.png,0.0,-0.08388168,0.6863853,-0.544661
vit_b_16,1,921,NaN,airplane,elephant,NaN,elephant5-chair3.png,elephant5-chair3.png,0.0,1.1188614,4.5557127,-2.4302208
vit_b_16,1,922,NaN,elephant,elephant,NaN,elephant5-elephant1.png,elephant5-elephant1.png,1.0,7.823134,0.4657361,5.202466
vit_b_16,1,923,NaN,car,elephant,NaN,elephant5-truck1.png,elephant5-truck1.png,0.0,0.26432502,2.70556,-1.7262139
vit_b_16,1,924,NaN,chair,elephant,NaN,elephant6-bicycle1.png,elephant6-bicycle1.png,0.0,1.5009172,1.5797284,-0.055727914
vit_b_16,1,925,NaN,bird,elephant,NaN,elephant6-bird1.png,elephant6-bird1.png,0.0,0.5803907,1.5563554,-0.6901112
vit_b_16,1,926,NaN,bottle,elephant,NaN,elephant6-bottle2.png,elephant6-bottle2.png,0.0,1.8360496,3.0802302,-0.8797686
vit_b_16,1,927,NaN,elephant,elephant,NaN,elephant6-car3.png,elephant6-car3.png,1.0,2.597057,2.1274474,0.33206424
vit_b_16,1,928,NaN,bear,elephant,NaN,elephant6-cat2.png,elephant6-cat2.png,0.0,0.97799075,1.0053716,-0.019361166
vit_b_16,1,929,NaN,dog,elephant,NaN,elephant6-dog2.png,elephant6-dog2.png,0.0,-0.32131755,0.7296642,-0.7431563
