subj,session,trial,rt,object_response,category,condition,imagename,filename,is_correct,targ_act,max_nontarg_act,decision_margin
alexnet2023_baseline_pgd,1,1,NaN,bicycle,airplane,NaN,airplane1-bicycle2.png,airplane1-bicycle2.png,0.0,-0.40629292,8.992399,-6.6458793
alexnet2023_baseline_pgd,1,2,NaN,chair,airplane,NaN,airplane1-chair2.png,airplane1-chair2.png,0.0,-0.91070783,6.3087854,-5.104953
alexnet2023_baseline_pgd,1,3,NaN,chair,airplane,NaN,airplane1-clock1.png,airplane1-clock1.png,0.0,-2.2329729,2.9202085,-3.6438494
alexnet2023_baseline_pgd,1,4,NaN,elephant,airplane,NaN,airplane1-elephant1.png,airplane1-elephant1.png,0.0,0.47368717,5.6124687,-3.6336672
alexnet2023_baseline_pgd,1,5,NaN,airplane,airplane,NaN,airplane10-airplane1.png,airplane10-airplane1.png,1.0,10.719557,4.982664,4.056596
alexnet2023_baseline_pgd,1,6,NaN,elephant,airplane,NaN,airplane10-bear3.png,airplane10-bear3.png,0.0,-6.079045,6.7883396,-9.098615
alexnet2023_baseline_pgd,1,7,NaN,oven,airplane,NaN,airplane10-boat3.png,airplane10-boat3.png,0.0,2.047145,5.8426027,-2.683794
alexnet2023_baseline_pgd,1,8,NaN,car,airplane,NaN,airplane10-car3.png,airplane10-car3.png,0.0,5.1518545,5.9786353,-0.5846223
alexnet2023_baseline_pgd,1,9,NaN,cat,airplane,NaN,airplane10-cat2.png,airplane10-cat2.png,0.0,-6.2070003,6.0887012,-8.694374
alexnet2023_baseline_pgd,1,10,NaN,dog,airplane,NaN,airplane10-dog3.png,airplane10-dog3.png,0.0,-5.3821993,4.402201,-6.9186163
alexnet2023_baseline_pgd,1,11,NaN,elephant,airplane,NaN,airplane10-elephant1.png,airplane10-elephant1.png,0.0,-2.0608997,5.1081476,-5.069282
alexnet2023_baseline_pgd,1,12,NaN,knife,airplane,NaN,airplane10-knife3.png,airplane10-knife3.png,0.0,2.320567,7.168779,-3.4282038
alexnet2023_baseline_pgd,1,13,NaN,oven,airplane,NaN,airplane10-oven2.png,airplane10-oven2.png,0.0,1.079455,5.162239,-2.8869643
alexnet2023_baseline_pgd,1,14,NaN,airplane,airplane,NaN,airplane10-truck1.png,airplane10-truck1.png,1.0,5.58456,5.176906,0.28825477
alexnet2023_baseline_pgd,1,15,NaN,elephant,airplane,NaN,airplane2-bear1.png,airplane2-bear1.png,0.0,-5.3733425,5.210896,-7.4841866
alexnet2023_baseline_pgd,1,16,NaN,bicycle,airplane,NaN,airplane2-bicycle1.png,airplane2-bicycle1.png,0.0,-1.5287517,7.0424013,-6.0607204
alexnet2023_baseline_pgd,1,17,NaN,oven,airplane,NaN,airplane2-bird3.png,airplane2-bird3.png,0.0,0.029319331,5.4176908,-3.810154
alexnet2023_baseline_pgd,1,18,NaN,bicycle,airplane,NaN,airplane2-bottle1.png,airplane2-bottle1.png,0.0,-5.3887496,5.2061844,-7.4917502
alexnet2023_baseline_pgd,1,19,NaN,cat,airplane,NaN,airplane2-cat1.png,airplane2-cat1.png,0.0,-2.8266695,4.9959235,-5.5314083
alexnet2023_baseline_pgd,1,20,NaN,dog,airplane,NaN,airplane2-dog1.png,airplane2-dog1.png,0.0,-7.096759,5.670539,-9.0278425
alexnet2023_baseline_pgd,1,21,NaN,airplane,airplane,NaN,airplane3-airplane2.png,airplane3-airplane2.png,1.0,10.770928,4.752966,4.255342
alexnet2023_baseline_pgd,1,22,NaN,bicycle,airplane,NaN,airplane3-car1.png,airplane3-car1.png,0.0,2.0234523,5.732711,-2.6228418
alexnet2023_baseline_pgd,1,23,NaN,dog,airplane,NaN,airplane3-cat1.png,airplane3-cat1.png,0.0,-3.2380328,5.192259,-5.961117
alexnet2023_baseline_pgd,1,24,NaN,airplane,airplane,NaN,airplane3-chair3.png,airplane3-chair3.png,1.0,5.5140204,4.063739,1.025504
alexnet2023_baseline_pgd,1,25,NaN,chair,airplane,NaN,airplane3-clock1.png,airplane3-clock1.png,0.0,-6.4086475,2.7074816,-6.446077
alexnet2023_baseline_pgd,1,26,NaN,dog,airplane,NaN,airplane3-dog1.png,airplane3-dog1.png,0.0,-5.081609,5.298222,-7.339649
alexnet2023_baseline_pgd,1,27,NaN,elephant,airplane,NaN,airplane3-elephant1.png,airplane3-elephant1.png,0.0,-2.4279802,6.755891,-6.4939775
alexnet2023_baseline_pgd,1,28,NaN,car,airplane,NaN,airplane3-keyboard2.png,airplane3-keyboard2.png,0.0,3.9313219,5.5054765,-1.1130954
alexnet2023_baseline_pgd,1,29,NaN,airplane,airplane,NaN,airplane3-oven1.png,airplane3-oven1.png,1.0,10.494689,6.124894,3.0899117
alexnet2023_baseline_pgd,1,30,NaN,airplane,airplane,NaN,airplane4-airplane1.png,airplane4-airplane1.png,1.0,6.5947227,3.1501188,2.4357028
alexnet2023_baseline_pgd,1,31,NaN,bear,airplane,NaN,airplane4-bear3.png,airplane4-bear3.png,0.0,-5.900117,6.02796,-8.434424
alexnet2023_baseline_pgd,1,32,NaN,bicycle,airplane,NaN,airplane4-bicycle2.png,airplane4-bicycle2.png,0.0,-2.6140184,5.7170095,-5.8909264
alexnet2023_baseline_pgd,1,33,NaN,airplane,airplane,NaN,airplane4-bird3.png,airplane4-bird3.png,1.0,10.494949,6.6814613,2.6965432
alexnet2023_baseline_pgd,1,34,NaN,oven,airplane,NaN,airplane4-boat3.png,airplane4-boat3.png,0.0,1.2794528,3.9769654,-1.9074295
alexnet2023_baseline_pgd,1,35,NaN,bicycle,airplane,NaN,airplane4-bottle1.png,airplane4-bottle1.png,0.0,-3.363287,6.319452,-6.8467307
alexnet2023_baseline_pgd,1,36,NaN,oven,airplane,NaN,airplane4-car1.png,airplane4-car1.png,0.0,3.8744261,4.657616,-0.553799
alexnet2023_baseline_pgd,1,37,NaN,oven,airplane,NaN,airplane4-cat3.png,airplane4-cat3.png,0.0,-3.4922836,3.641483,-5.044335
alexnet2023_baseline_pgd,1,38,NaN,oven,airplane,NaN,airplane4-dog2.png,airplane4-dog2.png,0.0,-2.5231547,3.130861,-3.9979928
alexnet2023_baseline_pgd,1,39,NaN,elephant,airplane,NaN,airplane4-elephant1.png,airplane4-elephant1.png,0.0,-1.1165565,5.0554366,-4.3642583
alexnet2023_baseline_pgd,1,40,NaN,knife,airplane,NaN,airplane4-keyboard3.png,airplane4-keyboard3.png,0.0,1.9899207,5.825409,-2.7120998
alexnet2023_baseline_pgd,1,41,NaN,knife,airplane,NaN,airplane4-knife1.png,airplane4-knife1.png,0.0,0.9738384,4.3414955,-2.3812933
alexnet2023_baseline_pgd,1,42,NaN,truck,airplane,NaN,airplane4-truck2.png,airplane4-truck2.png,0.0,1.3738985,5.739047,-3.0866263
alexnet2023_baseline_pgd,1,43,NaN,elephant,airplane,NaN,airplane5-bear2.png,airplane5-bear2.png,0.0,-4.36883,14.894624,-13.62132
alexnet2023_baseline_pgd,1,44,NaN,bicycle,airplane,NaN,airplane5-bicycle1.png,airplane5-bicycle1.png,0.0,1.2576797,12.149525,-7.7016973
alexnet2023_baseline_pgd,1,45,NaN,bicycle,airplane,NaN,airplane5-bird2.png,airplane5-bird2.png,0.0,2.708406,3.3286808,-0.4386005
alexnet2023_baseline_pgd,1,46,NaN,knife,airplane,NaN,airplane5-boat3.png,airplane5-boat3.png,0.0,-0.46505958,3.9141648,-3.0965793
alexnet2023_baseline_pgd,1,47,NaN,bottle,airplane,NaN,airplane5-bottle3.png,airplane5-bottle3.png,0.0,-0.211492,2.9275239,-2.2196195
alexnet2023_baseline_pgd,1,48,NaN,chair,airplane,NaN,airplane5-chair3.png,airplane5-chair3.png,0.0,3.3318644,3.5141165,-0.12887175
alexnet2023_baseline_pgd,1,49,NaN,cat,airplane,NaN,airplane5-dog3.png,airplane5-dog3.png,0.0,-4.7625604,4.805413,-6.7655787
alexnet2023_baseline_pgd,1,50,NaN,knife,airplane,NaN,airplane5-knife1.png,airplane5-knife1.png,0.0,-1.2513531,7.9893227,-6.534145
alexnet2023_baseline_pgd,1,51,NaN,elephant,airplane,NaN,airplane5-oven3.png,airplane5-oven3.png,0.0,4.7823243,5.325595,-0.38415033
alexnet2023_baseline_pgd,1,52,NaN,elephant,airplane,NaN,airplane6-bear3.png,airplane6-bear3.png,0.0,-6.936711,8.681921,-11.044041
alexnet2023_baseline_pgd,1,53,NaN,bottle,airplane,NaN,airplane6-bottle2.png,airplane6-bottle2.png,0.0,1.3712771,5.9585223,-3.2436721
alexnet2023_baseline_pgd,1,54,NaN,airplane,airplane,NaN,airplane6-chair3.png,airplane6-chair3.png,1.0,8.17365,3.8007874,3.0920806
alexnet2023_baseline_pgd,1,55,NaN,knife,airplane,NaN,airplane6-keyboard3.png,airplane6-keyboard3.png,0.0,4.804389,7.186904,-1.6846925
alexnet2023_baseline_pgd,1,56,NaN,knife,airplane,NaN,airplane6-knife1.png,airplane6-knife1.png,0.0,-0.34182382,6.6544757,-4.947131
alexnet2023_baseline_pgd,1,57,NaN,airplane,airplane,NaN,airplane7-airplane3.png,airplane7-airplane3.png,1.0,12.266548,4.7721295,5.2993546
alexnet2023_baseline_pgd,1,58,NaN,airplane,airplane,NaN,airplane7-bird3.png,airplane7-bird3.png,1.0,8.218644,3.7488618,3.1606135
alexnet2023_baseline_pgd,1,59,NaN,bicycle,airplane,NaN,airplane7-boat2.png,airplane7-boat2.png,0.0,3.2529392,6.3072424,-2.1597185
alexnet2023_baseline_pgd,1,60,NaN,bottle,airplane,NaN,airplane7-bottle3.png,airplane7-bottle3.png,0.0,0.27735865,2.214745,-1.3699391
alexnet2023_baseline_pgd,1,61,NaN,oven,airplane,NaN,airplane7-car1.png,airplane7-car1.png,0.0,3.070443,6.8881903,-2.6995552
alexnet2023_baseline_pgd,1,62,NaN,oven,airplane,NaN,airplane7-cat3.png,airplane7-cat3.png,0.0,-1.5416969,5.099385,-4.695954
alexnet2023_baseline_pgd,1,63,NaN,airplane,airplane,NaN,airplane7-clock3.png,airplane7-clock3.png,1.0,3.855475,2.7019901,0.81563693
alexnet2023_baseline_pgd,1,64,NaN,airplane,airplane,NaN,airplane7-keyboard1.png,airplane7-keyboard1.png,1.0,5.0819073,3.6448424,1.0161583
alexnet2023_baseline_pgd,1,65,NaN,car,airplane,NaN,airplane7-truck1.png,airplane7-truck1.png,0.0,3.684478,4.501557,-0.577762
alexnet2023_baseline_pgd,1,66,NaN,bicycle,airplane,NaN,airplane8-bicycle3.png,airplane8-bicycle3.png,0.0,-2.1932852,2.5693274,-3.3676755
alexnet2023_baseline_pgd,1,67,NaN,bird,airplane,NaN,airplane8-bird1.png,airplane8-bird1.png,0.0,0.98297304,2.9485343,-1.3898616
alexnet2023_baseline_pgd,1,68,NaN,car,airplane,NaN,airplane8-chair1.png,airplane8-chair1.png,0.0,3.1096907,5.67829,-1.8162739
alexnet2023_baseline_pgd,1,69,NaN,airplane,airplane,NaN,airplane8-clock2.png,airplane8-clock2.png,1.0,3.3492033,2.1021194,0.8818215
alexnet2023_baseline_pgd,1,70,NaN,elephant,airplane,NaN,airplane8-elephant3.png,airplane8-elephant3.png,0.0,-4.035608,6.390603,-7.372444
alexnet2023_baseline_pgd,1,71,NaN,knife,airplane,NaN,airplane8-oven2.png,airplane8-oven2.png,0.0,1.1293657,5.354708,-2.9877687
alexnet2023_baseline_pgd,1,72,NaN,oven,airplane,NaN,airplane8-truck3.png,airplane8-truck3.png,0.0,4.58729,7.8368554,-2.2977898
alexnet2023_baseline_pgd,1,73,NaN,airplane,airplane,NaN,airplane9-airplane2.png,airplane9-airplane2.png,1.0,11.354763,7.8037734,2.5109289
alexnet2023_baseline_pgd,1,74,NaN,airplane,airplane,NaN,airplane9-boat1.png,airplane9-boat1.png,1.0,6.9702063,4.4602137,1.7748328
alexnet2023_baseline_pgd,1,75,NaN,car,airplane,NaN,airplane9-car2.png,airplane9-car2.png,0.0,5.562942,5.6976776,-0.095272444
alexnet2023_baseline_pgd,1,76,NaN,oven,airplane,NaN,airplane9-clock1.png,airplane9-clock1.png,0.0,-5.1971426,6.242089,-8.088758
alexnet2023_baseline_pgd,1,77,NaN,knife,airplane,NaN,airplane9-keyboard2.png,airplane9-keyboard2.png,0.0,4.1270423,6.6172323,-1.7608303
alexnet2023_baseline_pgd,1,78,NaN,knife,airplane,NaN,airplane9-knife3.png,airplane9-knife3.png,0.0,2.9611812,7.514707,-3.219829
alexnet2023_baseline_pgd,1,79,NaN,oven,airplane,NaN,airplane9-oven2.png,airplane9-oven2.png,0.0,3.01334,6.1416464,-2.2120466
alexnet2023_baseline_pgd,1,80,NaN,bottle,airplane,NaN,airplane9-truck1.png,airplane9-truck1.png,0.0,1.2087226,5.692672,-3.170631
alexnet2023_baseline_pgd,1,81,NaN,elephant,bear,NaN,bear1-airplane3.png,bear1-airplane3.png,0.0,4.0063047,8.271284,-3.015796
alexnet2023_baseline_pgd,1,82,NaN,bear,bear,NaN,bear1-bear3.png,bear1-bear3.png,1.0,11.056499,5.8123937,3.7081423
alexnet2023_baseline_pgd,1,83,NaN,knife,bear,NaN,bear1-bicycle3.png,bear1-bicycle3.png,0.0,-0.48835555,2.206991,-1.9058979
alexnet2023_baseline_pgd,1,84,NaN,elephant,bear,NaN,bear1-bird2.png,bear1-bird2.png,0.0,0.9104525,5.399169,-3.174002
alexnet2023_baseline_pgd,1,85,NaN,chair,bear,NaN,bear1-chair2.png,bear1-chair2.png,0.0,-1.64712,6.7155266,-5.913284
alexnet2023_baseline_pgd,1,86,NaN,elephant,bear,NaN,bear1-clock2.png,bear1-clock2.png,0.0,-0.5443402,4.1748238,-3.336953
alexnet2023_baseline_pgd,1,87,NaN,elephant,bear,NaN,bear1-elephant1.png,bear1-elephant1.png,0.0,1.487104,10.8999,-6.655852
alexnet2023_baseline_pgd,1,88,NaN,bear,bear,NaN,bear10-bear2.png,bear10-bear2.png,1.0,11.504186,11.424297,0.05648959
alexnet2023_baseline_pgd,1,89,NaN,bicycle,bear,NaN,bear10-bottle1.png,bear10-bottle1.png,0.0,-0.7058862,4.2321672,-3.4917312
alexnet2023_baseline_pgd,1,90,NaN,knife,bear,NaN,bear10-car2.png,bear10-car2.png,0.0,-1.4408051,5.6383944,-5.0057497
alexnet2023_baseline_pgd,1,91,NaN,cat,bear,NaN,bear10-cat2.png,bear10-cat2.png,0.0,4.8845577,7.5861626,-1.9103231
alexnet2023_baseline_pgd,1,92,NaN,truck,bear,NaN,bear10-chair2.png,bear10-chair2.png,0.0,-1.8209887,5.720517,-5.33265
alexnet2023_baseline_pgd,1,93,NaN,oven,bear,NaN,bear10-clock1.png,bear10-clock1.png,0.0,-4.1845355,4.3832946,-6.058371
alexnet2023_baseline_pgd,1,94,NaN,elephant,bear,NaN,bear10-elephant1.png,bear10-elephant1.png,0.0,2.2698717,10.964652,-6.148138
alexnet2023_baseline_pgd,1,95,NaN,knife,bear,NaN,bear10-keyboard3.png,bear10-keyboard3.png,0.0,-1.5495417,4.1581283,-4.0359325
alexnet2023_baseline_pgd,1,96,NaN,oven,bear,NaN,bear10-knife2.png,bear10-knife2.png,0.0,-0.49710965,8.118613,-6.092236
alexnet2023_baseline_pgd,1,97,NaN,oven,bear,NaN,bear10-oven1.png,bear10-oven1.png,0.0,-2.1535716,8.075834,-7.2332826
alexnet2023_baseline_pgd,1,98,NaN,knife,bear,NaN,bear10-truck1.png,bear10-truck1.png,0.0,-2.1747494,4.499666,-4.7195244
alexnet2023_baseline_pgd,1,99,NaN,bird,bear,NaN,bear2-airplane1.png,bear2-airplane1.png,0.0,-0.7167051,3.1902256,-2.762617
alexnet2023_baseline_pgd,1,100,NaN,elephant,bear,NaN,bear2-bird3.png,bear2-bird3.png,0.0,6.964791,10.26123,-2.3309348
alexnet2023_baseline_pgd,1,101,NaN,bicycle,bear,NaN,bear2-car2.png,bear2-car2.png,0.0,-3.5319037,3.8487363,-5.2189007
alexnet2023_baseline_pgd,1,102,NaN,cat,bear,NaN,bear2-cat2.png,bear2-cat2.png,0.0,5.381923,6.1902947,-0.571605
alexnet2023_baseline_pgd,1,103,NaN,bear,bear,NaN,bear2-dog1.png,bear2-dog1.png,1.0,7.688594,5.9157696,1.253576
alexnet2023_baseline_pgd,1,104,NaN,elephant,bear,NaN,bear2-elephant1.png,bear2-elephant1.png,0.0,3.5360365,9.998253,-4.569477
alexnet2023_baseline_pgd,1,105,NaN,knife,bear,NaN,bear2-keyboard2.png,bear2-keyboard2.png,0.0,-4.691831,8.043828,-9.00547
alexnet2023_baseline_pgd,1,106,NaN,knife,bear,NaN,bear2-knife2.png,bear2-knife2.png,0.0,-0.72761834,4.6517334,-3.803776
alexnet2023_baseline_pgd,1,107,NaN,knife,bear,NaN,bear2-oven1.png,bear2-oven1.png,0.0,-1.9981365,6.925988,-6.3103094
alexnet2023_baseline_pgd,1,108,NaN,airplane,bear,NaN,bear3-airplane1.png,bear3-airplane1.png,0.0,-0.23283839,4.7277713,-3.5076807
alexnet2023_baseline_pgd,1,109,NaN,bicycle,bear,NaN,bear3-bicycle2.png,bear3-bicycle2.png,0.0,-1.5367794,2.1002579,-2.5717738
alexnet2023_baseline_pgd,1,110,NaN,elephant,bear,NaN,bear3-bird3.png,bear3-bird3.png,0.0,3.4497113,10.976015,-5.3219004
alexnet2023_baseline_pgd,1,111,NaN,knife,bear,NaN,bear3-car2.png,bear3-car2.png,0.0,-2.3130107,6.708536,-6.3791976
alexnet2023_baseline_pgd,1,112,NaN,bear,bear,NaN,bear3-cat1.png,bear3-cat1.png,1.0,7.567635,7.261875,0.21620491
alexnet2023_baseline_pgd,1,113,NaN,chair,bear,NaN,bear3-chair2.png,bear3-chair2.png,0.0,-1.1720991,6.910498,-5.7152596
alexnet2023_baseline_pgd,1,114,NaN,dog,bear,NaN,bear3-dog3.png,bear3-dog3.png,0.0,2.617988,6.015027,-2.4020693
alexnet2023_baseline_pgd,1,115,NaN,knife,bear,NaN,bear3-keyboard2.png,bear3-keyboard2.png,0.0,-2.7016351,6.4620934,-6.479735
alexnet2023_baseline_pgd,1,116,NaN,chair,bear,NaN,bear3-truck3.png,bear3-truck3.png,0.0,-2.3395562,4.1307893,-4.5752254
alexnet2023_baseline_pgd,1,117,NaN,bicycle,bear,NaN,bear4-boat2.png,bear4-boat2.png,0.0,-1.9802461,6.047574,-5.6765265
alexnet2023_baseline_pgd,1,118,NaN,oven,bear,NaN,bear4-car3.png,bear4-car3.png,0.0,-2.1120126,4.6975737,-4.815105
alexnet2023_baseline_pgd,1,119,NaN,bear,bear,NaN,bear4-cat3.png,bear4-cat3.png,1.0,4.5327625,4.100441,0.3056975
alexnet2023_baseline_pgd,1,120,NaN,cat,bear,NaN,bear4-clock3.png,bear4-clock3.png,0.0,-1.3388438,4.6672754,-4.246968
alexnet2023_baseline_pgd,1,121,NaN,elephant,bear,NaN,bear4-elephant2.png,bear4-elephant2.png,0.0,3.7485874,13.842491,-7.137468
alexnet2023_baseline_pgd,1,122,NaN,car,bear,NaN,bear4-keyboard3.png,bear4-keyboard3.png,0.0,-1.0187037,4.3199525,-3.7750003
alexnet2023_baseline_pgd,1,123,NaN,knife,bear,NaN,bear4-knife1.png,bear4-knife1.png,0.0,-1.9470489,6.048052,-5.6533904
alexnet2023_baseline_pgd,1,124,NaN,elephant,bear,NaN,bear4-oven2.png,bear4-oven2.png,0.0,0.18237852,5.553479,-3.797942
alexnet2023_baseline_pgd,1,125,NaN,elephant,bear,NaN,bear4-truck3.png,bear4-truck3.png,0.0,-1.252426,6.910923,-5.77236
alexnet2023_baseline_pgd,1,126,NaN,elephant,bear,NaN,bear5-airplane3.png,bear5-airplane3.png,0.0,3.4388967,4.33105,-0.63084763
alexnet2023_baseline_pgd,1,127,NaN,bicycle,bear,NaN,bear5-bicycle3.png,bear5-bicycle3.png,0.0,-1.2728901,3.9483552,-3.691978
alexnet2023_baseline_pgd,1,128,NaN,bear,bear,NaN,bear5-bird1.png,bear5-bird1.png,1.0,4.52696,3.613205,0.64612234
alexnet2023_baseline_pgd,1,129,NaN,oven,bear,NaN,bear5-boat2.png,bear5-boat2.png,0.0,-3.494545,5.5877333,-6.4221406
alexnet2023_baseline_pgd,1,130,NaN,bicycle,bear,NaN,bear5-bottle1.png,bear5-bottle1.png,0.0,-4.653064,5.458372,-7.149865
alexnet2023_baseline_pgd,1,131,NaN,chair,bear,NaN,bear5-chair1.png,bear5-chair1.png,0.0,-1.8707118,3.6983578,-3.9379272
alexnet2023_baseline_pgd,1,132,NaN,elephant,bear,NaN,bear5-oven3.png,bear5-oven3.png,0.0,-0.13469666,9.982597,-7.1540074
alexnet2023_baseline_pgd,1,133,NaN,elephant,bear,NaN,bear6-bear1.png,bear6-bear1.png,0.0,7.0047426,8.337015,-0.942059
alexnet2023_baseline_pgd,1,134,NaN,elephant,bear,NaN,bear6-bird2.png,bear6-bird2.png,0.0,3.2016501,4.991189,-1.265395
alexnet2023_baseline_pgd,1,135,NaN,clock,bear,NaN,bear6-boat3.png,bear6-boat3.png,0.0,1.0537069,4.2684827,-2.2731898
alexnet2023_baseline_pgd,1,136,NaN,bottle,bear,NaN,bear6-bottle3.png,bear6-bottle3.png,0.0,1.5954262,4.0498915,-1.7355691
alexnet2023_baseline_pgd,1,137,NaN,airplane,bear,NaN,bear6-car2.png,bear6-car2.png,0.0,-2.2170377,3.7512534,-4.220219
alexnet2023_baseline_pgd,1,138,NaN,oven,bear,NaN,bear6-cat3.png,bear6-cat3.png,0.0,2.7010527,3.7570567,-0.7467076
alexnet2023_baseline_pgd,1,139,NaN,chair,bear,NaN,bear6-chair1.png,bear6-chair1.png,0.0,-3.1113281,3.8205261,-4.9015613
alexnet2023_baseline_pgd,1,140,NaN,knife,bear,NaN,bear6-clock1.png,bear6-clock1.png,0.0,-1.5517044,3.8654299,-3.8304925
alexnet2023_baseline_pgd,1,141,NaN,bear,bear,NaN,bear7-bear2.png,bear7-bear2.png,1.0,11.61814,10.778711,0.5935659
alexnet2023_baseline_pgd,1,142,NaN,bird,bear,NaN,bear7-bicycle2.png,bear7-bicycle2.png,0.0,-1.4328723,2.4009838,-2.7109456
alexnet2023_baseline_pgd,1,143,NaN,knife,bear,NaN,bear7-clock1.png,bear7-clock1.png,0.0,-0.82193285,4.148253,-3.5144522
alexnet2023_baseline_pgd,1,144,NaN,bear,bear,NaN,bear7-dog3.png,bear7-dog3.png,1.0,8.053044,5.7282515,1.6438768
alexnet2023_baseline_pgd,1,145,NaN,elephant,bear,NaN,bear7-oven3.png,bear7-oven3.png,0.0,0.05785811,6.2983313,-4.412681
alexnet2023_baseline_pgd,1,146,NaN,knife,bear,NaN,bear7-truck1.png,bear7-truck1.png,0.0,-4.1414404,3.7672374,-5.59228
alexnet2023_baseline_pgd,1,147,NaN,bicycle,bear,NaN,bear8-airplane1.png,bear8-airplane1.png,0.0,-4.0369744,2.1495152,-4.374509
alexnet2023_baseline_pgd,1,148,NaN,bear,bear,NaN,bear8-bear1.png,bear8-bear1.png,1.0,7.1905394,6.1721954,0.72007793
alexnet2023_baseline_pgd,1,149,NaN,bicycle,bear,NaN,bear8-bicycle3.png,bear8-bicycle3.png,0.0,-2.8063567,4.011191,-4.8207345
alexnet2023_baseline_pgd,1,150,NaN,clock,bear,NaN,bear8-boat2.png,bear8-boat2.png,0.0,-4.0639296,4.2717056,-5.894184
alexnet2023_baseline_pgd,1,151,NaN,bicycle,bear,NaN,bear8-bottle1.png,bear8-bottle1.png,0.0,-4.4786863,4.4680967,-6.326331
alexnet2023_baseline_pgd,1,152,NaN,bear,bear,NaN,bear8-dog1.png,bear8-dog1.png,1.0,6.176692,5.6050377,0.40422064
alexnet2023_baseline_pgd,1,153,NaN,elephant,bear,NaN,bear8-elephant2.png,bear8-elephant2.png,0.0,3.8459249,14.848422,-7.77994
alexnet2023_baseline_pgd,1,154,NaN,elephant,bear,NaN,bear8-knife3.png,bear8-knife3.png,0.0,-1.4002737,6.068531,-5.281243
alexnet2023_baseline_pgd,1,155,NaN,elephant,bear,NaN,bear8-truck3.png,bear8-truck3.png,0.0,-0.2863612,6.70815,-4.945866
alexnet2023_baseline_pgd,1,156,NaN,chair,bear,NaN,bear9-boat2.png,bear9-boat2.png,0.0,-2.086879,3.6524553,-4.058322
alexnet2023_baseline_pgd,1,157,NaN,bicycle,bear,NaN,bear9-bottle2.png,bear9-bottle2.png,0.0,-4.182288,3.8733137,-5.696171
alexnet2023_baseline_pgd,1,158,NaN,bear,bear,NaN,bear9-dog1.png,bear9-dog1.png,1.0,9.71352,8.588916,0.7952153
alexnet2023_baseline_pgd,1,159,NaN,knife,bear,NaN,bear9-keyboard3.png,bear9-keyboard3.png,0.0,-4.383433,8.23006,-8.919086
alexnet2023_baseline_pgd,1,160,NaN,knife,bear,NaN,bear9-knife2.png,bear9-knife2.png,0.0,0.063252345,6.133629,-4.292404
alexnet2023_baseline_pgd,1,161,NaN,knife,bicycle,NaN,bicycle1-airplane2.png,bicycle1-airplane2.png,0.0,6.463068,8.032942,-1.1100684
alexnet2023_baseline_pgd,1,162,NaN,cat,bicycle,NaN,bicycle1-bear1.png,bicycle1-bear1.png,0.0,0.18798645,4.867794,-3.3091238
alexnet2023_baseline_pgd,1,163,NaN,bicycle,bicycle,NaN,bicycle1-bicycle3.png,bicycle1-bicycle3.png,1.0,12.589033,2.0719113,7.4367285
alexnet2023_baseline_pgd,1,164,NaN,bird,bicycle,NaN,bicycle1-bird1.png,bicycle1-bird1.png,0.0,-1.8284718,3.3750641,-3.6794558
alexnet2023_baseline_pgd,1,165,NaN,bicycle,bicycle,NaN,bicycle1-boat3.png,bicycle1-boat3.png,1.0,5.449077,5.026355,0.29890984
alexnet2023_baseline_pgd,1,166,NaN,bicycle,bicycle,NaN,bicycle1-bottle3.png,bicycle1-bottle3.png,1.0,16.70779,3.026603,9.674061
alexnet2023_baseline_pgd,1,167,NaN,bicycle,bicycle,NaN,bicycle1-chair1.png,bicycle1-chair1.png,1.0,8.320218,5.005764,2.343673
alexnet2023_baseline_pgd,1,168,NaN,bicycle,bicycle,NaN,bicycle1-clock3.png,bicycle1-clock3.png,1.0,9.335137,3.3017714,4.2662344
alexnet2023_baseline_pgd,1,169,NaN,cat,bicycle,NaN,bicycle1-dog3.png,bicycle1-dog3.png,0.0,-1.8360287,4.640245,-4.579417
alexnet2023_baseline_pgd,1,170,NaN,elephant,bicycle,NaN,bicycle1-elephant2.png,bicycle1-elephant2.png,0.0,0.14790022,10.980068,-7.659499
alexnet2023_baseline_pgd,1,171,NaN,knife,bicycle,NaN,bicycle1-knife3.png,bicycle1-knife3.png,0.0,-3.9668407,5.6090975,-6.771211
alexnet2023_baseline_pgd,1,172,NaN,knife,bicycle,NaN,bicycle1-oven1.png,bicycle1-oven1.png,0.0,-2.4091873,11.212307,-9.631851
alexnet2023_baseline_pgd,1,173,NaN,bicycle,bicycle,NaN,bicycle1-truck1.png,bicycle1-truck1.png,1.0,10.5545845,3.5022767,4.986735
alexnet2023_baseline_pgd,1,174,NaN,bicycle,bicycle,NaN,bicycle10-airplane2.png,bicycle10-airplane2.png,1.0,5.724489,4.507557,0.8605011
alexnet2023_baseline_pgd,1,175,NaN,bicycle,bicycle,NaN,bicycle10-boat3.png,bicycle10-boat3.png,1.0,3.564587,3.339655,0.15905108
alexnet2023_baseline_pgd,1,176,NaN,bicycle,bicycle,NaN,bicycle10-clock2.png,bicycle10-clock2.png,1.0,10.044138,4.2356534,4.1072187
alexnet2023_baseline_pgd,1,177,NaN,cat,bicycle,NaN,bicycle10-dog3.png,bicycle10-dog3.png,0.0,-3.5404873,4.28826,-5.5357604
alexnet2023_baseline_pgd,1,178,NaN,elephant,bicycle,NaN,bicycle10-elephant2.png,bicycle10-elephant2.png,0.0,1.2935811,10.486272,-6.500214
alexnet2023_baseline_pgd,1,179,NaN,bicycle,bicycle,NaN,bicycle2-bicycle1.png,bicycle2-bicycle1.png,1.0,14.14044,1.1217967,9.205571
alexnet2023_baseline_pgd,1,180,NaN,bottle,bicycle,NaN,bicycle2-bird3.png,bicycle2-bird3.png,0.0,1.718682,1.8079938,-0.063152924
alexnet2023_baseline_pgd,1,181,NaN,bicycle,bicycle,NaN,bicycle2-bottle1.png,bicycle2-bottle1.png,1.0,10.083442,5.5585265,3.1995983
alexnet2023_baseline_pgd,1,182,NaN,bicycle,bicycle,NaN,bicycle2-car2.png,bicycle2-car2.png,1.0,5.961076,4.280557,1.1883061
alexnet2023_baseline_pgd,1,183,NaN,bear,bicycle,NaN,bicycle2-dog1.png,bicycle2-dog1.png,0.0,-3.1348596,5.4186254,-6.0482273
alexnet2023_baseline_pgd,1,184,NaN,car,bicycle,NaN,bicycle2-keyboard2.png,bicycle2-keyboard2.png,0.0,2.5633302,4.803437,-1.5839949
alexnet2023_baseline_pgd,1,185,NaN,knife,bicycle,NaN,bicycle2-knife2.png,bicycle2-knife2.png,0.0,1.5299337,7.4924836,-4.21616
alexnet2023_baseline_pgd,1,186,NaN,bear,bicycle,NaN,bicycle3-bird1.png,bicycle3-bird1.png,0.0,0.1898771,4.160286,-2.8075032
alexnet2023_baseline_pgd,1,187,NaN,elephant,bicycle,NaN,bicycle3-elephant2.png,bicycle3-elephant2.png,0.0,-0.0056646764,10.402174,-7.3594537
alexnet2023_baseline_pgd,1,188,NaN,bicycle,bicycle,NaN,bicycle3-keyboard1.png,bicycle3-keyboard1.png,1.0,8.85379,3.0872192,4.0775814
alexnet2023_baseline_pgd,1,189,NaN,chair,bicycle,NaN,bicycle3-oven3.png,bicycle3-oven3.png,0.0,-0.68549126,5.476412,-4.3571234
alexnet2023_baseline_pgd,1,190,NaN,bottle,bicycle,NaN,bicycle3-truck3.png,bicycle3-truck3.png,0.0,-1.4438151,4.465013,-4.1781726
alexnet2023_baseline_pgd,1,191,NaN,bicycle,bicycle,NaN,bicycle4-airplane1.png,bicycle4-airplane1.png,1.0,8.756741,3.0404835,4.042004
alexnet2023_baseline_pgd,1,192,NaN,bicycle,bicycle,NaN,bicycle4-bicycle3.png,bicycle4-bicycle3.png,1.0,12.727417,3.316753,6.654344
alexnet2023_baseline_pgd,1,193,NaN,bicycle,bicycle,NaN,bicycle4-boat1.png,bicycle4-boat1.png,1.0,9.507647,3.5586786,4.206556
alexnet2023_baseline_pgd,1,194,NaN,bicycle,bicycle,NaN,bicycle4-bottle1.png,bicycle4-bottle1.png,1.0,6.103157,4.7190943,0.9786802
alexnet2023_baseline_pgd,1,195,NaN,bicycle,bicycle,NaN,bicycle4-car2.png,bicycle4-car2.png,1.0,12.185507,3.7663884,5.953216
alexnet2023_baseline_pgd,1,196,NaN,cat,bicycle,NaN,bicycle4-cat1.png,bicycle4-cat1.png,0.0,-2.8582473,5.5438943,-5.941211
alexnet2023_baseline_pgd,1,197,NaN,bicycle,bicycle,NaN,bicycle4-chair2.png,bicycle4-chair2.png,1.0,8.472365,5.681388,1.9735191
alexnet2023_baseline_pgd,1,198,NaN,bicycle,bicycle,NaN,bicycle4-clock3.png,bicycle4-clock3.png,1.0,8.851191,3.3455696,3.8930619
alexnet2023_baseline_pgd,1,199,NaN,knife,bicycle,NaN,bicycle4-keyboard3.png,bicycle4-keyboard3.png,0.0,-1.5418582,2.2308292,-2.667693
alexnet2023_baseline_pgd,1,200,NaN,knife,bicycle,NaN,bicycle4-knife3.png,bicycle4-knife3.png,0.0,-2.0342712,5.689744,-5.461704
alexnet2023_baseline_pgd,1,201,NaN,elephant,bicycle,NaN,bicycle4-oven3.png,bicycle4-oven3.png,0.0,-1.6343563,6.7092953,-5.8998528
alexnet2023_baseline_pgd,1,202,NaN,oven,bicycle,NaN,bicycle4-truck3.png,bicycle4-truck3.png,0.0,0.7602473,3.2992518,-1.7953473
alexnet2023_baseline_pgd,1,203,NaN,elephant,bicycle,NaN,bicycle5-bear1.png,bicycle5-bear1.png,0.0,-2.0425682,3.0576427,-3.606394
alexnet2023_baseline_pgd,1,204,NaN,bicycle,bicycle,NaN,bicycle5-bottle3.png,bicycle5-bottle3.png,1.0,11.387981,2.035172,6.6134353
alexnet2023_baseline_pgd,1,205,NaN,bicycle,bicycle,NaN,bicycle5-car3.png,bicycle5-car3.png,1.0,11.42022,6.476885,3.4954662
alexnet2023_baseline_pgd,1,206,NaN,oven,bicycle,NaN,bicycle5-cat1.png,bicycle5-cat1.png,0.0,-1.6498401,4.057666,-4.035816
alexnet2023_baseline_pgd,1,207,NaN,bicycle,bicycle,NaN,bicycle5-chair2.png,bicycle5-chair2.png,1.0,10.091583,5.687212,3.1143608
alexnet2023_baseline_pgd,1,208,NaN,oven,bicycle,NaN,bicycle5-dog2.png,bicycle5-dog2.png,0.0,-1.1271496,4.5077553,-3.9844794
alexnet2023_baseline_pgd,1,209,NaN,elephant,bicycle,NaN,bicycle5-elephant1.png,bicycle5-elephant1.png,0.0,4.0560904,5.1073694,-0.7433666
alexnet2023_baseline_pgd,1,210,NaN,knife,bicycle,NaN,bicycle5-keyboard3.png,bicycle5-keyboard3.png,0.0,-1.1271992,4.5827146,-4.037519
alexnet2023_baseline_pgd,1,211,NaN,knife,bicycle,NaN,bicycle5-oven3.png,bicycle5-oven3.png,0.0,1.9240392,6.090167,-2.945897
alexnet2023_baseline_pgd,1,212,NaN,knife,bicycle,NaN,bicycle6-airplane2.png,bicycle6-airplane2.png,0.0,3.0495672,7.753681,-3.3263109
alexnet2023_baseline_pgd,1,213,NaN,bicycle,bicycle,NaN,bicycle6-bicycle3.png,bicycle6-bicycle3.png,1.0,6.9255886,4.092706,2.0031505
alexnet2023_baseline_pgd,1,214,NaN,bicycle,bicycle,NaN,bicycle6-boat2.png,bicycle6-boat2.png,1.0,9.637717,4.929247,3.3293915
alexnet2023_baseline_pgd,1,215,NaN,bicycle,bicycle,NaN,bicycle6-car2.png,bicycle6-car2.png,1.0,4.4683595,3.586887,0.62329525
alexnet2023_baseline_pgd,1,216,NaN,bear,bicycle,NaN,bicycle6-cat1.png,bicycle6-cat1.png,0.0,-3.5729542,4.628537,-5.79933
alexnet2023_baseline_pgd,1,217,NaN,oven,bicycle,NaN,bicycle6-dog2.png,bicycle6-dog2.png,0.0,-0.65823305,2.8173096,-2.4575799
alexnet2023_baseline_pgd,1,218,NaN,elephant,bicycle,NaN,bicycle7-bear2.png,bicycle7-bear2.png,0.0,2.2544222,6.9571743,-3.325348
alexnet2023_baseline_pgd,1,219,NaN,bicycle,bicycle,NaN,bicycle7-bicycle2.png,bicycle7-bicycle2.png,1.0,12.850006,3.5338833,6.587494
alexnet2023_baseline_pgd,1,220,NaN,oven,bicycle,NaN,bicycle7-cat1.png,bicycle7-cat1.png,0.0,-2.9369943,7.7060895,-7.525797
alexnet2023_baseline_pgd,1,221,NaN,bicycle,bicycle,NaN,bicycle7-clock3.png,bicycle7-clock3.png,1.0,12.57382,5.4205837,5.058102
alexnet2023_baseline_pgd,1,222,NaN,elephant,bicycle,NaN,bicycle7-elephant2.png,bicycle7-elephant2.png,0.0,-1.5351443,12.3846655,-9.842792
alexnet2023_baseline_pgd,1,223,NaN,oven,bicycle,NaN,bicycle7-knife2.png,bicycle7-knife2.png,0.0,7.5692363,7.57025,-0.00071683363
alexnet2023_baseline_pgd,1,224,NaN,knife,bicycle,NaN,bicycle7-oven1.png,bicycle7-oven1.png,0.0,0.8017452,5.1892924,-3.1024647
alexnet2023_baseline_pgd,1,225,NaN,bottle,bicycle,NaN,bicycle7-truck3.png,bicycle7-truck3.png,0.0,2.3104818,5.6078224,-2.331572
alexnet2023_baseline_pgd,1,226,NaN,elephant,bicycle,NaN,bicycle8-bear2.png,bicycle8-bear2.png,0.0,1.6753547,7.9408913,-4.430403
alexnet2023_baseline_pgd,1,227,NaN,bicycle,bicycle,NaN,bicycle8-bird2.png,bicycle8-bird2.png,1.0,12.301317,2.1987019,7.143628
alexnet2023_baseline_pgd,1,228,NaN,bicycle,bicycle,NaN,bicycle8-boat1.png,bicycle8-boat1.png,1.0,13.994642,2.5889797,8.0650215
alexnet2023_baseline_pgd,1,229,NaN,bicycle,bicycle,NaN,bicycle8-chair2.png,bicycle8-chair2.png,1.0,9.829886,6.4467926,2.3922086
alexnet2023_baseline_pgd,1,230,NaN,bicycle,bicycle,NaN,bicycle8-clock3.png,bicycle8-clock3.png,1.0,9.387203,2.750988,4.692513
alexnet2023_baseline_pgd,1,231,NaN,bicycle,bicycle,NaN,bicycle8-truck1.png,bicycle8-truck1.png,1.0,12.56291,5.2350674,5.181567
alexnet2023_baseline_pgd,1,232,NaN,knife,bicycle,NaN,bicycle9-airplane2.png,bicycle9-airplane2.png,0.0,6.0030146,6.0069876,-0.0028093404
alexnet2023_baseline_pgd,1,233,NaN,elephant,bicycle,NaN,bicycle9-bear1.png,bicycle9-bear1.png,0.0,1.0546379,4.4666896,-2.412685
alexnet2023_baseline_pgd,1,234,NaN,clock,bicycle,NaN,bicycle9-bird3.png,bicycle9-bird3.png,0.0,2.6467617,4.2245436,-1.1156603
alexnet2023_baseline_pgd,1,235,NaN,bicycle,bicycle,NaN,bicycle9-bottle1.png,bicycle9-bottle1.png,1.0,13.271664,3.7854347,6.707777
alexnet2023_baseline_pgd,1,236,NaN,bicycle,bicycle,NaN,bicycle9-car1.png,bicycle9-car1.png,1.0,13.815361,2.75814,7.8186355
alexnet2023_baseline_pgd,1,237,NaN,cat,bicycle,NaN,bicycle9-cat3.png,bicycle9-cat3.png,0.0,-1.0080817,4.3826823,-3.811846
alexnet2023_baseline_pgd,1,238,NaN,bicycle,bicycle,NaN,bicycle9-chair1.png,bicycle9-chair1.png,1.0,8.356079,3.6424997,3.3330038
alexnet2023_baseline_pgd,1,239,NaN,bottle,bicycle,NaN,bicycle9-keyboard3.png,bicycle9-keyboard3.png,0.0,-0.3427356,2.7362244,-2.1771536
alexnet2023_baseline_pgd,1,240,NaN,bottle,bicycle,NaN,bicycle9-knife3.png,bicycle9-knife3.png,0.0,-5.2964163,5.9604883,-7.9598336
alexnet2023_baseline_pgd,1,241,NaN,airplane,bird,NaN,bird1-airplane2.png,bird1-airplane2.png,0.0,3.3143334,3.7360916,-0.29822809
alexnet2023_baseline_pgd,1,242,NaN,bear,bird,NaN,bird1-bear1.png,bird1-bear1.png,0.0,2.0373414,5.0201917,-2.1091938
alexnet2023_baseline_pgd,1,243,NaN,bicycle,bird,NaN,bird1-bicycle2.png,bird1-bicycle2.png,0.0,2.778467,4.810651,-1.4369711
alexnet2023_baseline_pgd,1,244,NaN,bicycle,bird,NaN,bird1-boat1.png,bird1-boat1.png,0.0,-2.3454502,4.0689745,-4.5356836
alexnet2023_baseline_pgd,1,245,NaN,truck,bird,NaN,bird1-chair2.png,bird1-chair2.png,0.0,-5.0861864,6.048916,-7.8737063
alexnet2023_baseline_pgd,1,246,NaN,clock,bird,NaN,bird1-clock3.png,bird1-clock3.png,0.0,-3.503464,2.919688,-4.5418544
alexnet2023_baseline_pgd,1,247,NaN,elephant,bird,NaN,bird1-elephant2.png,bird1-elephant2.png,0.0,-0.062212702,12.590872,-8.9470825
alexnet2023_baseline_pgd,1,248,NaN,knife,bird,NaN,bird1-keyboard3.png,bird1-keyboard3.png,0.0,-0.2363614,3.7214365,-2.798586
alexnet2023_baseline_pgd,1,249,NaN,elephant,bird,NaN,bird1-knife3.png,bird1-knife3.png,0.0,1.4127082,2.2093883,-0.5633379
alexnet2023_baseline_pgd,1,250,NaN,oven,bird,NaN,bird1-oven1.png,bird1-oven1.png,0.0,-1.0345114,6.0194354,-4.987894
alexnet2023_baseline_pgd,1,251,NaN,bottle,bird,NaN,bird1-truck1.png,bird1-truck1.png,0.0,-4.37665,5.970431,-7.3164907
alexnet2023_baseline_pgd,1,252,NaN,elephant,bird,NaN,bird10-bear2.png,bird10-bear2.png,0.0,4.2390757,11.002102,-4.7821817
alexnet2023_baseline_pgd,1,253,NaN,bicycle,bird,NaN,bird10-bicycle1.png,bird10-bicycle1.png,0.0,-0.40016907,7.158942,-5.345099
alexnet2023_baseline_pgd,1,254,NaN,bird,bird,NaN,bird10-bird2.png,bird10-bird2.png,1.0,3.6050832,3.2705271,0.23656689
alexnet2023_baseline_pgd,1,255,NaN,dog,bird,NaN,bird10-cat1.png,bird10-cat1.png,0.0,-0.0064084576,4.774124,-3.3803473
alexnet2023_baseline_pgd,1,256,NaN,chair,bird,NaN,bird10-chair1.png,bird10-chair1.png,0.0,-2.0126312,3.7597027,-4.0816565
alexnet2023_baseline_pgd,1,257,NaN,clock,bird,NaN,bird10-clock1.png,bird10-clock1.png,0.0,-0.3201826,2.773345,-2.1874545
alexnet2023_baseline_pgd,1,258,NaN,elephant,bird,NaN,bird10-elephant2.png,bird10-elephant2.png,0.0,-0.836706,11.93413,-9.030345
alexnet2023_baseline_pgd,1,259,NaN,airplane,bird,NaN,bird2-airplane3.png,bird2-airplane3.png,0.0,-1.102454,2.638284,-2.6451013
alexnet2023_baseline_pgd,1,260,NaN,bicycle,bird,NaN,bird2-bird2.png,bird2-bird2.png,0.0,2.0541105,2.4998198,-0.31516403
alexnet2023_baseline_pgd,1,261,NaN,bicycle,bird,NaN,bird2-car3.png,bird2-car3.png,0.0,-0.50010806,4.13518,-3.277644
alexnet2023_baseline_pgd,1,262,NaN,knife,bird,NaN,bird2-clock3.png,bird2-clock3.png,0.0,-2.80451,3.6065543,-4.533307
alexnet2023_baseline_pgd,1,263,NaN,oven,bird,NaN,bird2-dog2.png,bird2-dog2.png,0.0,1.1072721,2.8542738,-1.2353168
alexnet2023_baseline_pgd,1,264,NaN,knife,bird,NaN,bird2-knife1.png,bird2-knife1.png,0.0,-0.2296772,6.683763,-4.8885407
alexnet2023_baseline_pgd,1,265,NaN,bear,bird,NaN,bird3-bear3.png,bird3-bear3.png,0.0,2.4637759,8.232383,-4.0790215
alexnet2023_baseline_pgd,1,266,NaN,bird,bird,NaN,bird3-bird2.png,bird3-bird2.png,1.0,3.57171,1.9436448,1.151216
alexnet2023_baseline_pgd,1,267,NaN,elephant,bird,NaN,bird3-boat3.png,bird3-boat3.png,0.0,-2.8356357,3.6805892,-4.607667
alexnet2023_baseline_pgd,1,268,NaN,bicycle,bird,NaN,bird3-bottle2.png,bird3-bottle2.png,0.0,-0.530925,4.7745852,-3.751562
alexnet2023_baseline_pgd,1,269,NaN,cat,bird,NaN,bird3-cat1.png,bird3-cat1.png,0.0,0.9112651,4.826142,-2.768236
alexnet2023_baseline_pgd,1,270,NaN,bear,bird,NaN,bird3-dog1.png,bird3-dog1.png,0.0,0.9610014,6.847632,-4.1624765
alexnet2023_baseline_pgd,1,271,NaN,knife,bird,NaN,bird3-knife3.png,bird3-knife3.png,0.0,-1.8811865,5.395898,-5.1456757
alexnet2023_baseline_pgd,1,272,NaN,oven,bird,NaN,bird3-oven1.png,bird3-oven1.png,0.0,0.15013991,6.030081,-4.1577463
alexnet2023_baseline_pgd,1,273,NaN,knife,bird,NaN,bird3-truck3.png,bird3-truck3.png,0.0,1.1360184,3.95241,-1.9914895
alexnet2023_baseline_pgd,1,274,NaN,knife,bird,NaN,bird4-airplane1.png,bird4-airplane1.png,0.0,2.2822306,4.7138824,-1.7194375
alexnet2023_baseline_pgd,1,275,NaN,bicycle,bird,NaN,bird4-bicycle2.png,bird4-bicycle2.png,0.0,2.397618,5.1440773,-1.94204
alexnet2023_baseline_pgd,1,276,NaN,cat,bird,NaN,bird4-cat3.png,bird4-cat3.png,0.0,-0.22418997,6.0703197,-4.4508905
alexnet2023_baseline_pgd,1,277,NaN,knife,bird,NaN,bird4-clock1.png,bird4-clock1.png,0.0,-4.5119767,5.4600086,-7.051258
alexnet2023_baseline_pgd,1,278,NaN,dog,bird,NaN,bird4-dog3.png,bird4-dog3.png,0.0,0.3946405,7.066978,-4.7180552
alexnet2023_baseline_pgd,1,279,NaN,oven,bird,NaN,bird5-airplane3.png,bird5-airplane3.png,0.0,2.4618306,3.8284967,-0.96637887
alexnet2023_baseline_pgd,1,280,NaN,bird,bird,NaN,bird5-bear3.png,bird5-bear3.png,1.0,6.3932595,5.889968,0.35588092
alexnet2023_baseline_pgd,1,281,NaN,bicycle,bird,NaN,bird5-bicycle1.png,bird5-bicycle1.png,0.0,3.9190285,5.71145,-1.2674335
alexnet2023_baseline_pgd,1,282,NaN,bird,bird,NaN,bird5-bird1.png,bird5-bird1.png,1.0,3.8346224,2.3235543,1.0684866
alexnet2023_baseline_pgd,1,283,NaN,airplane,bird,NaN,bird5-car2.png,bird5-car2.png,0.0,-1.2157466,3.6887224,-3.4679832
alexnet2023_baseline_pgd,1,284,NaN,cat,bird,NaN,bird5-cat2.png,bird5-cat2.png,0.0,2.1785984,7.783397,-3.9631913
alexnet2023_baseline_pgd,1,285,NaN,car,bird,NaN,bird5-chair1.png,bird5-chair1.png,0.0,-3.1741028,6.1763024,-6.611735
alexnet2023_baseline_pgd,1,286,NaN,dog,bird,NaN,bird5-dog2.png,bird5-dog2.png,0.0,3.9486718,4.287575,-0.23964058
alexnet2023_baseline_pgd,1,287,NaN,knife,bird,NaN,bird5-keyboard2.png,bird5-keyboard2.png,0.0,0.024491986,8.228673,-5.801232
alexnet2023_baseline_pgd,1,288,NaN,oven,bird,NaN,bird5-oven3.png,bird5-oven3.png,0.0,-2.559045,7.1546636,-6.8686295
alexnet2023_baseline_pgd,1,289,NaN,oven,bird,NaN,bird5-truck2.png,bird5-truck2.png,0.0,-1.0254365,5.4914937,-4.6081657
alexnet2023_baseline_pgd,1,290,NaN,airplane,bird,NaN,bird6-airplane2.png,bird6-airplane2.png,0.0,3.7654958,6.6712794,-2.0546994
alexnet2023_baseline_pgd,1,291,NaN,bicycle,bird,NaN,bird6-boat2.png,bird6-boat2.png,0.0,-1.9846922,6.408083,-5.9345884
alexnet2023_baseline_pgd,1,292,NaN,cat,bird,NaN,bird6-bottle3.png,bird6-bottle3.png,0.0,0.21051846,1.8396782,-1.1519899
alexnet2023_baseline_pgd,1,293,NaN,bicycle,bird,NaN,bird6-car3.png,bird6-car3.png,0.0,-0.77201986,2.8686,-2.574307
alexnet2023_baseline_pgd,1,294,NaN,elephant,bird,NaN,bird6-elephant2.png,bird6-elephant2.png,0.0,-0.14282295,14.463627,-10.3283205
alexnet2023_baseline_pgd,1,295,NaN,airplane,bird,NaN,bird6-oven1.png,bird6-oven1.png,0.0,0.6170244,7.1442304,-4.615432
alexnet2023_baseline_pgd,1,296,NaN,chair,bird,NaN,bird6-truck2.png,bird6-truck2.png,0.0,-2.1044981,6.742479,-6.255758
alexnet2023_baseline_pgd,1,297,NaN,clock,bird,NaN,bird7-bird2.png,bird7-bird2.png,0.0,-0.007887794,2.5708742,-1.8234602
alexnet2023_baseline_pgd,1,298,NaN,airplane,bird,NaN,bird7-boat1.png,bird7-boat1.png,0.0,0.46735552,2.8035312,-1.6519257
alexnet2023_baseline_pgd,1,299,NaN,clock,bird,NaN,bird7-bottle1.png,bird7-bottle1.png,0.0,-4.161773,4.9481444,-6.4416847
alexnet2023_baseline_pgd,1,300,NaN,bicycle,bird,NaN,bird7-car2.png,bird7-car2.png,0.0,-1.331249,4.1469927,-3.873702
alexnet2023_baseline_pgd,1,301,NaN,oven,bird,NaN,bird7-cat3.png,bird7-cat3.png,0.0,-1.1855185,4.9028387,-4.3051186
alexnet2023_baseline_pgd,1,302,NaN,bird,bird,NaN,bird7-keyboard3.png,bird7-keyboard3.png,1.0,2.1950219,2.1728144,0.015703073
alexnet2023_baseline_pgd,1,303,NaN,oven,bird,NaN,bird7-knife2.png,bird7-knife2.png,0.0,0.7196473,6.6740074,-4.2103686
alexnet2023_baseline_pgd,1,304,NaN,oven,bird,NaN,bird7-oven3.png,bird7-oven3.png,0.0,-0.8372521,4.7965317,-3.983687
alexnet2023_baseline_pgd,1,305,NaN,bottle,bird,NaN,bird7-truck2.png,bird7-truck2.png,0.0,-2.5066664,3.6551838,-4.357086
alexnet2023_baseline_pgd,1,306,NaN,knife,bird,NaN,bird8-boat3.png,bird8-boat3.png,0.0,-3.08579,3.5140376,-4.666783
alexnet2023_baseline_pgd,1,307,NaN,bicycle,bird,NaN,bird8-bottle1.png,bird8-bottle1.png,0.0,-2.3361843,6.115633,-5.9763374
alexnet2023_baseline_pgd,1,308,NaN,knife,bird,NaN,bird8-car2.png,bird8-car2.png,0.0,0.6160226,4.5393233,-2.7741926
alexnet2023_baseline_pgd,1,309,NaN,chair,bird,NaN,bird8-chair1.png,bird8-chair1.png,0.0,-3.8246865,5.6168337,-6.676163
alexnet2023_baseline_pgd,1,310,NaN,oven,bird,NaN,bird8-clock1.png,bird8-clock1.png,0.0,-2.3907259,6.586185,-6.3476343
alexnet2023_baseline_pgd,1,311,NaN,elephant,bird,NaN,bird8-elephant1.png,bird8-elephant1.png,0.0,-0.017700775,8.9496975,-6.3409085
alexnet2023_baseline_pgd,1,312,NaN,knife,bird,NaN,bird8-keyboard2.png,bird8-keyboard2.png,0.0,-1.0647804,6.0001945,-4.995692
alexnet2023_baseline_pgd,1,313,NaN,knife,bird,NaN,bird8-knife2.png,bird8-knife2.png,0.0,0.4458055,5.8612723,-3.8293133
alexnet2023_baseline_pgd,1,314,NaN,elephant,bird,NaN,bird9-bear3.png,bird9-bear3.png,0.0,1.8805385,8.827408,-4.9121785
alexnet2023_baseline_pgd,1,315,NaN,knife,bird,NaN,bird9-bicycle3.png,bird9-bicycle3.png,0.0,0.68355304,3.4088168,-1.9270526
alexnet2023_baseline_pgd,1,316,NaN,bird,bird,NaN,bird9-bottle3.png,bird9-bottle3.png,1.0,2.6396425,2.2986653,0.24110729
alexnet2023_baseline_pgd,1,317,NaN,knife,bird,NaN,bird9-chair1.png,bird9-chair1.png,0.0,0.017637894,2.3627644,-1.6582547
alexnet2023_baseline_pgd,1,318,NaN,oven,bird,NaN,bird9-dog2.png,bird9-dog2.png,0.0,1.4062564,3.011557,-1.135119
alexnet2023_baseline_pgd,1,319,NaN,elephant,bird,NaN,bird9-elephant2.png,bird9-elephant2.png,0.0,-0.46460164,13.964952,-10.203236
alexnet2023_baseline_pgd,1,320,NaN,elephant,bird,NaN,bird9-keyboard1.png,bird9-keyboard1.png,0.0,0.4118865,1.2674189,-0.60495275
alexnet2023_baseline_pgd,1,321,NaN,bear,boat,NaN,boat1-bear1.png,boat1-bear1.png,0.0,-2.8204849,6.345232,-6.4811406
alexnet2023_baseline_pgd,1,322,NaN,bicycle,boat,NaN,boat1-bicycle2.png,boat1-bicycle2.png,0.0,-4.194667,3.925244,-5.7416444
alexnet2023_baseline_pgd,1,323,NaN,oven,boat,NaN,boat1-bird3.png,boat1-bird3.png,0.0,3.2371476,11.588435,-5.9052525
alexnet2023_baseline_pgd,1,324,NaN,car,boat,NaN,boat1-car2.png,boat1-car2.png,0.0,2.37957,4.768107,-1.6889507
alexnet2023_baseline_pgd,1,325,NaN,elephant,boat,NaN,boat1-chair3.png,boat1-chair3.png,0.0,2.237218,3.1895857,-0.67342573
alexnet2023_baseline_pgd,1,326,NaN,elephant,boat,NaN,boat1-elephant3.png,boat1-elephant3.png,0.0,-2.4257174,9.211626,-8.228845
alexnet2023_baseline_pgd,1,327,NaN,knife,boat,NaN,boat1-keyboard3.png,boat1-keyboard3.png,0.0,0.9757261,5.62609,-3.2883039
alexnet2023_baseline_pgd,1,328,NaN,knife,boat,NaN,boat1-oven1.png,boat1-oven1.png,0.0,2.9584184,6.3667793,-2.4100752
alexnet2023_baseline_pgd,1,329,NaN,oven,boat,NaN,boat1-truck3.png,boat1-truck3.png,0.0,3.169726,7.012139,-2.7169962
alexnet2023_baseline_pgd,1,330,NaN,bear,boat,NaN,boat10-bear3.png,boat10-bear3.png,0.0,-2.8579254,5.568074,-5.9580817
alexnet2023_baseline_pgd,1,331,NaN,oven,boat,NaN,boat10-boat3.png,boat10-boat3.png,0.0,4.0342765,4.746133,-0.5033585
alexnet2023_baseline_pgd,1,332,NaN,oven,boat,NaN,boat10-cat1.png,boat10-cat1.png,0.0,-4.7004237,6.730488,-8.082875
alexnet2023_baseline_pgd,1,333,NaN,oven,boat,NaN,boat10-oven1.png,boat10-oven1.png,0.0,3.4780202,7.362105,-2.7464626
alexnet2023_baseline_pgd,1,334,NaN,car,boat,NaN,boat10-truck1.png,boat10-truck1.png,0.0,6.228583,9.948811,-2.6305983
alexnet2023_baseline_pgd,1,335,NaN,airplane,boat,NaN,boat2-airplane1.png,boat2-airplane1.png,0.0,1.6717819,4.483889,-1.9884601
alexnet2023_baseline_pgd,1,336,NaN,bear,boat,NaN,boat2-bear3.png,boat2-bear3.png,0.0,-0.42008907,7.129197,-5.3381515
alexnet2023_baseline_pgd,1,337,NaN,bird,boat,NaN,boat2-bird1.png,boat2-bird1.png,0.0,-0.061451912,4.579732,-3.2818127
alexnet2023_baseline_pgd,1,338,NaN,bicycle,boat,NaN,boat2-bottle2.png,boat2-bottle2.png,0.0,-1.0652949,6.5224113,-5.3653183
alexnet2023_baseline_pgd,1,339,NaN,bicycle,boat,NaN,boat2-keyboard1.png,boat2-keyboard1.png,0.0,2.794289,4.8442955,-1.4495734
alexnet2023_baseline_pgd,1,340,NaN,oven,boat,NaN,boat2-oven3.png,boat2-oven3.png,0.0,2.8982692,3.9843068,-0.7679446
alexnet2023_baseline_pgd,1,341,NaN,airplane,boat,NaN,boat3-airplane2.png,boat3-airplane2.png,0.0,4.151396,9.214506,-3.5801597
alexnet2023_baseline_pgd,1,342,NaN,bicycle,boat,NaN,boat3-bicycle2.png,boat3-bicycle2.png,0.0,-3.3940587,3.4645886,-4.8497963
alexnet2023_baseline_pgd,1,343,NaN,car,boat,NaN,boat3-car3.png,boat3-car3.png,0.0,4.349996,5.520098,-0.82738715
alexnet2023_baseline_pgd,1,344,NaN,oven,boat,NaN,boat3-cat3.png,boat3-cat3.png,0.0,-1.6652298,4.523103,-4.3758125
alexnet2023_baseline_pgd,1,345,NaN,airplane,boat,NaN,boat3-chair3.png,boat3-chair3.png,0.0,2.2429066,5.354649,-2.2003343
alexnet2023_baseline_pgd,1,346,NaN,chair,boat,NaN,boat3-clock3.png,boat3-clock3.png,0.0,-3.3638463,2.8472676,-4.391921
alexnet2023_baseline_pgd,1,347,NaN,dog,boat,NaN,boat3-dog3.png,boat3-dog3.png,0.0,-2.774895,4.3224792,-5.0186014
alexnet2023_baseline_pgd,1,348,NaN,knife,boat,NaN,boat3-keyboard2.png,boat3-keyboard2.png,0.0,-0.41456088,3.7569203,-2.9496827
alexnet2023_baseline_pgd,1,349,NaN,bicycle,boat,NaN,boat4-bicycle3.png,boat4-bicycle3.png,0.0,-3.4757454,2.7206237,-4.3814945
alexnet2023_baseline_pgd,1,350,NaN,bird,boat,NaN,boat4-bird1.png,boat4-bird1.png,0.0,1.0539854,4.265902,-2.271168
alexnet2023_baseline_pgd,1,351,NaN,oven,boat,NaN,boat4-boat3.png,boat4-boat3.png,0.0,0.20155187,5.177663,-3.518642
alexnet2023_baseline_pgd,1,352,NaN,bottle,boat,NaN,boat4-bottle2.png,boat4-bottle2.png,0.0,-0.2069562,4.5464773,-3.3611853
alexnet2023_baseline_pgd,1,353,NaN,oven,boat,NaN,boat4-car3.png,boat4-car3.png,0.0,2.147013,8.787324,-4.6954093
alexnet2023_baseline_pgd,1,354,NaN,oven,boat,NaN,boat4-chair2.png,boat4-chair2.png,0.0,4.668011,5.4918356,-0.5825318
alexnet2023_baseline_pgd,1,355,NaN,oven,boat,NaN,boat4-dog2.png,boat4-dog2.png,0.0,-1.9442028,4.5148077,-4.56721
alexnet2023_baseline_pgd,1,356,NaN,elephant,boat,NaN,boat4-elephant2.png,boat4-elephant2.png,0.0,-2.8438027,10.021112,-9.0968685
alexnet2023_baseline_pgd,1,357,NaN,oven,boat,NaN,boat4-knife2.png,boat4-knife2.png,0.0,-0.23452178,6.958574,-5.086287
alexnet2023_baseline_pgd,1,358,NaN,bicycle,boat,NaN,boat5-airplane1.png,boat5-airplane1.png,0.0,3.4676056,3.5283833,-0.042976297
alexnet2023_baseline_pgd,1,359,NaN,bicycle,boat,NaN,boat5-bicycle3.png,boat5-bicycle3.png,0.0,-3.0548065,3.0176241,-4.293857
alexnet2023_baseline_pgd,1,360,NaN,knife,boat,NaN,boat5-boat3.png,boat5-boat3.png,0.0,-2.0930967,5.5810056,-5.4264097
alexnet2023_baseline_pgd,1,361,NaN,knife,boat,NaN,boat5-car3.png,boat5-car3.png,0.0,-0.46438465,4.470357,-3.4893892
alexnet2023_baseline_pgd,1,362,NaN,knife,boat,NaN,boat5-clock3.png,boat5-clock3.png,0.0,-1.8615665,2.4651852,-3.0594754
alexnet2023_baseline_pgd,1,363,NaN,oven,boat,NaN,boat5-knife2.png,boat5-knife2.png,0.0,2.8038478,4.1434793,-0.9472626
alexnet2023_baseline_pgd,1,364,NaN,airplane,boat,NaN,boat6-airplane2.png,boat6-airplane2.png,0.0,2.540585,4.7077274,-1.5324011
alexnet2023_baseline_pgd,1,365,NaN,elephant,boat,NaN,boat6-bear1.png,boat6-bear1.png,0.0,-2.538964,5.054533,-5.3694134
alexnet2023_baseline_pgd,1,366,NaN,bicycle,boat,NaN,boat6-bicycle2.png,boat6-bicycle2.png,0.0,-3.1966255,7.109553,-7.2875686
alexnet2023_baseline_pgd,1,367,NaN,bicycle,boat,NaN,boat6-bottle2.png,boat6-bottle2.png,0.0,-2.0943863,4.693213,-4.7995577
alexnet2023_baseline_pgd,1,368,NaN,bicycle,boat,NaN,boat6-car1.png,boat6-car1.png,0.0,-0.5243324,3.6199317,-2.9304373
alexnet2023_baseline_pgd,1,369,NaN,bear,boat,NaN,boat6-cat1.png,boat6-cat1.png,0.0,-2.7525132,3.5042062,-4.424169
alexnet2023_baseline_pgd,1,370,NaN,bicycle,boat,NaN,boat6-clock2.png,boat6-clock2.png,0.0,1.4783051,3.4738483,-1.4110622
alexnet2023_baseline_pgd,1,371,NaN,dog,boat,NaN,boat6-dog1.png,boat6-dog1.png,0.0,-2.916469,5.4275975,-5.900146
alexnet2023_baseline_pgd,1,372,NaN,elephant,boat,NaN,boat6-elephant2.png,boat6-elephant2.png,0.0,-2.8922918,12.748272,-11.059549
alexnet2023_baseline_pgd,1,373,NaN,oven,boat,NaN,boat6-knife2.png,boat6-knife2.png,0.0,3.197097,4.0162144,-0.5792034
alexnet2023_baseline_pgd,1,374,NaN,chair,boat,NaN,boat6-truck3.png,boat6-truck3.png,0.0,0.96407574,2.757587,-1.268204
alexnet2023_baseline_pgd,1,375,NaN,bicycle,boat,NaN,boat7-boat2.png,boat7-boat2.png,0.0,4.5203,7.3981886,-2.0349746
alexnet2023_baseline_pgd,1,376,NaN,clock,boat,NaN,boat7-bottle1.png,boat7-bottle1.png,0.0,-1.7414551,3.8789299,-3.9742126
alexnet2023_baseline_pgd,1,377,NaN,cat,boat,NaN,boat7-cat3.png,boat7-cat3.png,0.0,-2.2177384,3.6082,-4.1195607
alexnet2023_baseline_pgd,1,378,NaN,clock,boat,NaN,boat7-chair1.png,boat7-chair1.png,0.0,1.7788799,4.1039176,-1.64405
alexnet2023_baseline_pgd,1,379,NaN,oven,boat,NaN,boat7-clock3.png,boat7-clock3.png,0.0,-3.7639167,2.4676385,-4.406375
alexnet2023_baseline_pgd,1,380,NaN,elephant,boat,NaN,boat7-elephant3.png,boat7-elephant3.png,0.0,-2.8422608,7.869526,-7.574377
alexnet2023_baseline_pgd,1,381,NaN,bottle,boat,NaN,boat7-keyboard3.png,boat7-keyboard3.png,0.0,-1.828566,2.7803283,-3.2589805
alexnet2023_baseline_pgd,1,382,NaN,oven,boat,NaN,boat7-oven3.png,boat7-oven3.png,0.0,1.1676368,4.444803,-2.3173065
alexnet2023_baseline_pgd,1,383,NaN,bottle,boat,NaN,boat7-truck2.png,boat7-truck2.png,0.0,-0.49516898,5.318583,-4.110944
alexnet2023_baseline_pgd,1,384,NaN,knife,boat,NaN,boat8-bird2.png,boat8-bird2.png,0.0,-3.2386742,4.4309525,-5.423245
alexnet2023_baseline_pgd,1,385,NaN,oven,boat,NaN,boat8-bottle1.png,boat8-bottle1.png,0.0,-2.8026943,3.70805,-4.603791
alexnet2023_baseline_pgd,1,386,NaN,dog,boat,NaN,boat8-dog3.png,boat8-dog3.png,0.0,-3.7382545,4.3684926,-5.7323356
alexnet2023_baseline_pgd,1,387,NaN,elephant,boat,NaN,boat8-elephant1.png,boat8-elephant1.png,0.0,-1.9280303,4.2642684,-4.378617
alexnet2023_baseline_pgd,1,388,NaN,knife,boat,NaN,boat8-knife1.png,boat8-knife1.png,0.0,-0.10840969,5.7597594,-4.149422
alexnet2023_baseline_pgd,1,389,NaN,airplane,boat,NaN,boat8-oven1.png,boat8-oven1.png,0.0,3.469448,7.9994707,-3.2032099
alexnet2023_baseline_pgd,1,390,NaN,car,boat,NaN,boat8-truck2.png,boat8-truck2.png,0.0,5.990857,10.145424,-2.9377224
alexnet2023_baseline_pgd,1,391,NaN,knife,boat,NaN,boat9-airplane2.png,boat9-airplane2.png,0.0,2.615612,5.200909,-1.8280811
alexnet2023_baseline_pgd,1,392,NaN,elephant,boat,NaN,boat9-bear3.png,boat9-bear3.png,0.0,-0.8716856,8.044901,-6.3049793
alexnet2023_baseline_pgd,1,393,NaN,bird,boat,NaN,boat9-bird1.png,boat9-bird1.png,0.0,-0.8171002,3.0755343,-2.7525084
alexnet2023_baseline_pgd,1,394,NaN,knife,boat,NaN,boat9-boat3.png,boat9-boat3.png,0.0,0.6472423,3.6723561,-2.1390786
alexnet2023_baseline_pgd,1,395,NaN,oven,boat,NaN,boat9-cat3.png,boat9-cat3.png,0.0,-2.4592352,5.7793255,-5.8255424
alexnet2023_baseline_pgd,1,396,NaN,chair,boat,NaN,boat9-chair2.png,boat9-chair2.png,0.0,4.636256,5.450715,-0.5759094
alexnet2023_baseline_pgd,1,397,NaN,chair,boat,NaN,boat9-clock1.png,boat9-clock1.png,0.0,0.14987135,4.5600543,-3.1184704
alexnet2023_baseline_pgd,1,398,NaN,oven,boat,NaN,boat9-dog2.png,boat9-dog2.png,0.0,-4.2787476,5.820613,-7.1413264
alexnet2023_baseline_pgd,1,399,NaN,car,boat,NaN,boat9-keyboard2.png,boat9-keyboard2.png,0.0,2.0557942,8.540235,-4.5851917
alexnet2023_baseline_pgd,1,400,NaN,knife,boat,NaN,boat9-knife2.png,boat9-knife2.png,0.0,3.3585925,5.3736186,-1.4248387
alexnet2023_baseline_pgd,1,401,NaN,elephant,bottle,NaN,bottle1-bear1.png,bottle1-bear1.png,0.0,1.1978873,4.922637,-2.6337957
alexnet2023_baseline_pgd,1,402,NaN,bottle,bottle,NaN,bottle1-bird3.png,bottle1-bird3.png,1.0,4.1555347,4.060989,0.06685401
alexnet2023_baseline_pgd,1,403,NaN,bottle,bottle,NaN,bottle1-car1.png,bottle1-car1.png,1.0,3.9726405,3.833087,0.09867926
alexnet2023_baseline_pgd,1,404,NaN,cat,bottle,NaN,bottle1-cat3.png,bottle1-cat3.png,0.0,2.1448905,3.0647516,-0.65044004
alexnet2023_baseline_pgd,1,405,NaN,oven,bottle,NaN,bottle1-chair2.png,bottle1-chair2.png,0.0,5.2850037,6.4686265,-0.83694774
alexnet2023_baseline_pgd,1,406,NaN,oven,bottle,NaN,bottle1-clock1.png,bottle1-clock1.png,0.0,4.555551,4.61474,-0.04185283
alexnet2023_baseline_pgd,1,407,NaN,cat,bottle,NaN,bottle1-dog2.png,bottle1-dog2.png,0.0,1.7591642,2.5546877,-0.5625201
alexnet2023_baseline_pgd,1,408,NaN,bottle,bottle,NaN,bottle1-keyboard3.png,bottle1-keyboard3.png,1.0,2.6635623,2.1485174,0.36419177
alexnet2023_baseline_pgd,1,409,NaN,elephant,bottle,NaN,bottle10-bear2.png,bottle10-bear2.png,0.0,5.6600156,11.521098,-4.144411
alexnet2023_baseline_pgd,1,410,NaN,bottle,bottle,NaN,bottle10-boat3.png,bottle10-boat3.png,1.0,5.245965,4.892691,0.24980235
alexnet2023_baseline_pgd,1,411,NaN,bottle,bottle,NaN,bottle10-car1.png,bottle10-car1.png,1.0,6.219546,3.8920355,1.6457983
alexnet2023_baseline_pgd,1,412,NaN,bottle,bottle,NaN,bottle10-clock2.png,bottle10-clock2.png,1.0,7.9853587,6.5117645,1.0419885
alexnet2023_baseline_pgd,1,413,NaN,bear,bottle,NaN,bottle10-dog1.png,bottle10-dog1.png,0.0,1.6674277,5.1800256,-2.483782
alexnet2023_baseline_pgd,1,414,NaN,bottle,bottle,NaN,bottle10-truck3.png,bottle10-truck3.png,1.0,8.530568,6.3987646,1.5074128
alexnet2023_baseline_pgd,1,415,NaN,knife,bottle,NaN,bottle2-bottle3.png,bottle2-bottle3.png,0.0,3.5329716,3.8008084,-0.18938923
alexnet2023_baseline_pgd,1,416,NaN,bicycle,bottle,NaN,bottle2-car2.png,bottle2-car2.png,0.0,1.9584504,4.5270023,-1.8162405
alexnet2023_baseline_pgd,1,417,NaN,chair,bottle,NaN,bottle2-chair3.png,bottle2-chair3.png,0.0,3.992382,4.3208456,-0.23225881
alexnet2023_baseline_pgd,1,418,NaN,oven,bottle,NaN,bottle2-clock1.png,bottle2-clock1.png,0.0,4.6028223,4.898836,-0.2093134
alexnet2023_baseline_pgd,1,419,NaN,elephant,bottle,NaN,bottle2-elephant1.png,bottle2-elephant1.png,0.0,-0.23102264,7.8889084,-5.7416587
alexnet2023_baseline_pgd,1,420,NaN,bottle,bottle,NaN,bottle2-knife3.png,bottle2-knife3.png,1.0,9.633696,3.7328782,4.1725082
alexnet2023_baseline_pgd,1,421,NaN,bottle,bottle,NaN,bottle3-airplane2.png,bottle3-airplane2.png,1.0,6.7750154,4.721114,1.4523275
alexnet2023_baseline_pgd,1,422,NaN,elephant,bottle,NaN,bottle3-bear2.png,bottle3-bear2.png,0.0,2.0115535,9.349043,-5.1883883
alexnet2023_baseline_pgd,1,423,NaN,bottle,bottle,NaN,bottle3-bicycle3.png,bottle3-bicycle3.png,1.0,4.7106977,2.6173944,1.480189
alexnet2023_baseline_pgd,1,424,NaN,bear,bottle,NaN,bottle3-bird1.png,bottle3-bird1.png,0.0,0.7194337,1.9848506,-0.89478487
alexnet2023_baseline_pgd,1,425,NaN,bottle,bottle,NaN,bottle3-boat3.png,bottle3-boat3.png,1.0,4.8001885,4.0870156,0.5042894
alexnet2023_baseline_pgd,1,426,NaN,knife,bottle,NaN,bottle3-bottle3.png,bottle3-bottle3.png,0.0,2.5978684,2.750332,-0.1078081
alexnet2023_baseline_pgd,1,427,NaN,bottle,bottle,NaN,bottle3-cat3.png,bottle3-cat3.png,1.0,5.215066,3.4824753,1.2251266
alexnet2023_baseline_pgd,1,428,NaN,chair,bottle,NaN,bottle3-chair3.png,bottle3-chair3.png,0.0,2.7801993,4.2525573,-1.0411143
alexnet2023_baseline_pgd,1,429,NaN,bottle,bottle,NaN,bottle3-knife3.png,bottle3-knife3.png,1.0,9.155547,3.4592984,4.0278563
alexnet2023_baseline_pgd,1,430,NaN,knife,bottle,NaN,bottle4-airplane1.png,bottle4-airplane1.png,0.0,1.7323922,2.8488371,-0.7894458
alexnet2023_baseline_pgd,1,431,NaN,bicycle,bottle,NaN,bottle4-bicycle1.png,bottle4-bicycle1.png,0.0,1.9221848,5.7971077,-2.7399843
alexnet2023_baseline_pgd,1,432,NaN,bottle,bottle,NaN,bottle4-car3.png,bottle4-car3.png,1.0,2.8299637,2.6145062,0.15235142
alexnet2023_baseline_pgd,1,433,NaN,cat,bottle,NaN,bottle4-dog2.png,bottle4-dog2.png,0.0,0.24765332,2.8073015,-1.8099446
alexnet2023_baseline_pgd,1,434,NaN,knife,bottle,NaN,bottle4-oven2.png,bottle4-oven2.png,0.0,6.137547,7.5559077,-1.0029325
alexnet2023_baseline_pgd,1,435,NaN,bottle,bottle,NaN,bottle4-truck1.png,bottle4-truck1.png,1.0,7.2343736,4.7344956,1.7676806
alexnet2023_baseline_pgd,1,436,NaN,bottle,bottle,NaN,bottle5-airplane1.png,bottle5-airplane1.png,1.0,3.9801822,3.0649405,0.64717364
alexnet2023_baseline_pgd,1,437,NaN,bottle,bottle,NaN,bottle5-bird3.png,bottle5-bird3.png,1.0,7.225281,4.448993,1.9631318
alexnet2023_baseline_pgd,1,438,NaN,bottle,bottle,NaN,bottle5-boat1.png,bottle5-boat1.png,1.0,6.4899554,6.1207566,0.26106298
alexnet2023_baseline_pgd,1,439,NaN,cat,bottle,NaN,bottle5-cat1.png,bottle5-cat1.png,0.0,1.8590897,3.7108555,-1.3093961
alexnet2023_baseline_pgd,1,440,NaN,bottle,bottle,NaN,bottle5-chair1.png,bottle5-chair1.png,1.0,5.396806,5.1764336,0.15582667
alexnet2023_baseline_pgd,1,441,NaN,bottle,bottle,NaN,bottle5-clock3.png,bottle5-clock3.png,1.0,4.457692,0.905357,2.5118804
alexnet2023_baseline_pgd,1,442,NaN,elephant,bottle,NaN,bottle5-elephant1.png,bottle5-elephant1.png,0.0,-0.59591466,9.505902,-7.1430635
alexnet2023_baseline_pgd,1,443,NaN,bottle,bottle,NaN,bottle5-keyboard2.png,bottle5-keyboard2.png,1.0,5.5012555,4.665333,0.5910866
alexnet2023_baseline_pgd,1,444,NaN,bottle,bottle,NaN,bottle5-knife1.png,bottle5-knife1.png,1.0,4.736458,4.3133965,0.29914957
alexnet2023_baseline_pgd,1,445,NaN,bottle,bottle,NaN,bottle5-oven2.png,bottle5-oven2.png,1.0,8.760081,5.515336,2.2943814
alexnet2023_baseline_pgd,1,446,NaN,bottle,bottle,NaN,bottle5-truck1.png,bottle5-truck1.png,1.0,8.384638,2.8971698,3.8802257
alexnet2023_baseline_pgd,1,447,NaN,bottle,bottle,NaN,bottle6-airplane1.png,bottle6-airplane1.png,1.0,5.5201187,3.7184055,1.2740036
alexnet2023_baseline_pgd,1,448,NaN,elephant,bottle,NaN,bottle6-bear2.png,bottle6-bear2.png,0.0,-0.15935387,9.6550255,-6.9398146
alexnet2023_baseline_pgd,1,449,NaN,bottle,bottle,NaN,bottle6-bicycle3.png,bottle6-bicycle3.png,1.0,5.370033,3.1731153,1.5534554
alexnet2023_baseline_pgd,1,450,NaN,bear,bottle,NaN,bottle6-bird1.png,bottle6-bird1.png,0.0,0.6855598,2.9313436,-1.588009
alexnet2023_baseline_pgd,1,451,NaN,clock,bottle,NaN,bottle6-boat3.png,bottle6-boat3.png,0.0,5.3630586,6.5506263,-0.8397372
alexnet2023_baseline_pgd,1,452,NaN,bottle,bottle,NaN,bottle6-bottle3.png,bottle6-bottle3.png,1.0,6.4944186,4.1625485,1.6488812
alexnet2023_baseline_pgd,1,453,NaN,clock,bottle,NaN,bottle6-chair2.png,bottle6-chair2.png,0.0,7.2977176,9.440453,-1.5151424
alexnet2023_baseline_pgd,1,454,NaN,oven,bottle,NaN,bottle6-dog3.png,bottle6-dog3.png,0.0,1.7577589,5.6913176,-2.781446
alexnet2023_baseline_pgd,1,455,NaN,bottle,bottle,NaN,bottle6-knife3.png,bottle6-knife3.png,1.0,5.6894007,3.4365854,1.592981
alexnet2023_baseline_pgd,1,456,NaN,bottle,bottle,NaN,bottle6-oven3.png,bottle6-oven3.png,1.0,8.255588,7.0350285,0.86306566
alexnet2023_baseline_pgd,1,457,NaN,oven,bottle,NaN,bottle7-airplane3.png,bottle7-airplane3.png,0.0,2.135382,3.7262254,-1.1248962
alexnet2023_baseline_pgd,1,458,NaN,elephant,bottle,NaN,bottle7-bear1.png,bottle7-bear1.png,0.0,2.3582954,7.4819245,-3.622953
alexnet2023_baseline_pgd,1,459,NaN,knife,bottle,NaN,bottle7-boat3.png,bottle7-boat3.png,0.0,1.8735489,3.3912497,-1.0731765
alexnet2023_baseline_pgd,1,460,NaN,cat,bottle,NaN,bottle7-cat2.png,bottle7-cat2.png,0.0,-1.0695258,6.7414613,-5.523202
alexnet2023_baseline_pgd,1,461,NaN,knife,bottle,NaN,bottle7-clock1.png,bottle7-clock1.png,0.0,1.8559973,4.7771573,-2.065572
alexnet2023_baseline_pgd,1,462,NaN,elephant,bottle,NaN,bottle7-elephant2.png,bottle7-elephant2.png,0.0,-0.7897004,15.504651,-11.521847
alexnet2023_baseline_pgd,1,463,NaN,clock,bottle,NaN,bottle7-keyboard2.png,bottle7-keyboard2.png,0.0,5.073106,5.200399,-0.09000982
alexnet2023_baseline_pgd,1,464,NaN,bottle,bottle,NaN,bottle7-oven2.png,bottle7-oven2.png,1.0,6.74601,6.7086935,0.026386624
alexnet2023_baseline_pgd,1,465,NaN,oven,bottle,NaN,bottle7-truck2.png,bottle7-truck2.png,0.0,4.537415,5.3344803,-0.56361026
alexnet2023_baseline_pgd,1,466,NaN,bicycle,bottle,NaN,bottle8-bicycle1.png,bottle8-bicycle1.png,0.0,4.0270624,7.51521,-2.466493
alexnet2023_baseline_pgd,1,467,NaN,bear,bottle,NaN,bottle8-bird1.png,bottle8-bird1.png,0.0,1.3403432,1.9949427,-0.4628717
alexnet2023_baseline_pgd,1,468,NaN,bottle,bottle,NaN,bottle8-bottle3.png,bottle8-bottle3.png,1.0,5.2355127,3.9721696,0.8933185
alexnet2023_baseline_pgd,1,469,NaN,bottle,bottle,NaN,bottle8-dog2.png,bottle8-dog2.png,1.0,2.8758674,2.406187,0.33211413
alexnet2023_baseline_pgd,1,470,NaN,elephant,bottle,NaN,bottle8-elephant3.png,bottle8-elephant3.png,0.0,1.0904359,8.3525505,-5.1350904
alexnet2023_baseline_pgd,1,471,NaN,bottle,bottle,NaN,bottle8-keyboard3.png,bottle8-keyboard3.png,1.0,6.234107,3.3521805,2.0378299
alexnet2023_baseline_pgd,1,472,NaN,bottle,bottle,NaN,bottle8-knife1.png,bottle8-knife1.png,1.0,4.9125676,4.889372,0.016401868
alexnet2023_baseline_pgd,1,473,NaN,bicycle,bottle,NaN,bottle9-bicycle1.png,bottle9-bicycle1.png,0.0,2.033935,3.7831035,-1.2368488
alexnet2023_baseline_pgd,1,474,NaN,clock,bottle,NaN,bottle9-bottle1.png,bottle9-bottle1.png,0.0,3.220529,3.8465786,-0.44268388
alexnet2023_baseline_pgd,1,475,NaN,bottle,bottle,NaN,bottle9-car3.png,bottle9-car3.png,1.0,4.6011724,3.965668,0.44936955
alexnet2023_baseline_pgd,1,476,NaN,cat,bottle,NaN,bottle9-cat2.png,bottle9-cat2.png,0.0,0.7105158,4.8712234,-2.9420645
alexnet2023_baseline_pgd,1,477,NaN,elephant,bottle,NaN,bottle9-elephant2.png,bottle9-elephant2.png,0.0,0.8894226,13.03724,-8.589805
alexnet2023_baseline_pgd,1,478,NaN,knife,bottle,NaN,bottle9-keyboard1.png,bottle9-keyboard1.png,0.0,2.5328863,3.8203042,-0.9103419
alexnet2023_baseline_pgd,1,479,NaN,oven,bottle,NaN,bottle9-oven2.png,bottle9-oven2.png,0.0,4.053989,6.903172,-2.0146768
alexnet2023_baseline_pgd,1,480,NaN,bottle,bottle,NaN,bottle9-truck1.png,bottle9-truck1.png,1.0,8.727514,4.6208034,2.9038832
alexnet2023_baseline_pgd,1,481,NaN,airplane,car,NaN,car1-airplane1.png,car1-airplane1.png,0.0,4.301476,4.6521764,-0.24798262
alexnet2023_baseline_pgd,1,482,NaN,car,car,NaN,car1-car2.png,car1-car2.png,1.0,3.6311061,2.828469,0.5675501
alexnet2023_baseline_pgd,1,483,NaN,truck,car,NaN,car1-chair3.png,car1-chair3.png,0.0,2.0940228,5.7460504,-2.5823736
alexnet2023_baseline_pgd,1,484,NaN,car,car,NaN,car1-clock2.png,car1-clock2.png,1.0,7.1181793,6.7910156,0.23133968
alexnet2023_baseline_pgd,1,485,NaN,oven,car,NaN,car1-dog2.png,car1-dog2.png,0.0,-1.8595039,5.2504463,-5.027494
alexnet2023_baseline_pgd,1,486,NaN,car,car,NaN,car1-keyboard2.png,car1-keyboard2.png,1.0,11.577376,5.9775867,3.9596493
alexnet2023_baseline_pgd,1,487,NaN,elephant,car,NaN,car1-oven3.png,car1-oven3.png,0.0,3.470114,10.483414,-4.959152
alexnet2023_baseline_pgd,1,488,NaN,bicycle,car,NaN,car10-bicycle2.png,car10-bicycle2.png,0.0,1.3731194,4.3929443,-2.1353388
alexnet2023_baseline_pgd,1,489,NaN,bicycle,car,NaN,car10-bottle3.png,car10-bottle3.png,0.0,0.53721744,4.2672215,-2.6375113
alexnet2023_baseline_pgd,1,490,NaN,car,car,NaN,car10-car1.png,car10-car1.png,1.0,12.849208,9.579009,2.3123798
alexnet2023_baseline_pgd,1,491,NaN,car,car,NaN,car10-chair1.png,car10-chair1.png,1.0,9.988584,8.749212,0.87636787
alexnet2023_baseline_pgd,1,492,NaN,dog,car,NaN,car10-dog1.png,car10-dog1.png,0.0,-4.887282,4.2688775,-6.4743824
alexnet2023_baseline_pgd,1,493,NaN,elephant,car,NaN,car10-elephant2.png,car10-elephant2.png,0.0,-2.7349842,12.272732,-10.612058
alexnet2023_baseline_pgd,1,494,NaN,car,car,NaN,car10-keyboard2.png,car10-keyboard2.png,1.0,7.171431,5.691816,1.0462459
alexnet2023_baseline_pgd,1,495,NaN,oven,car,NaN,car2-bird3.png,car2-bird3.png,0.0,-0.1798559,5.8304243,-4.24991
alexnet2023_baseline_pgd,1,496,NaN,car,car,NaN,car2-car3.png,car2-car3.png,1.0,6.125036,5.026798,0.7765716
alexnet2023_baseline_pgd,1,497,NaN,oven,car,NaN,car2-cat3.png,car2-cat3.png,0.0,-4.8087993,6.243032,-7.814825
alexnet2023_baseline_pgd,1,498,NaN,car,car,NaN,car2-chair1.png,car2-chair1.png,1.0,10.290697,6.3650513,2.7758508
alexnet2023_baseline_pgd,1,499,NaN,elephant,car,NaN,car2-knife3.png,car2-knife3.png,0.0,0.6782832,5.231054,-3.219295
alexnet2023_baseline_pgd,1,500,NaN,car,car,NaN,car3-airplane3.png,car3-airplane3.png,1.0,13.68921,7.634861,4.281071
alexnet2023_baseline_pgd,1,501,NaN,car,car,NaN,car3-bird2.png,car3-bird2.png,1.0,3.674216,3.089681,0.41332877
alexnet2023_baseline_pgd,1,502,NaN,car,car,NaN,car3-boat1.png,car3-boat1.png,1.0,11.738721,6.4027033,3.7731342
alexnet2023_baseline_pgd,1,503,NaN,oven,car,NaN,car3-bottle3.png,car3-bottle3.png,0.0,-4.1657486,2.9411821,-5.025359
alexnet2023_baseline_pgd,1,504,NaN,elephant,car,NaN,car3-dog2.png,car3-dog2.png,0.0,-3.8699634,5.036246,-6.297641
alexnet2023_baseline_pgd,1,505,NaN,elephant,car,NaN,car3-elephant3.png,car3-elephant3.png,0.0,-0.6950492,8.1192255,-6.2326336
alexnet2023_baseline_pgd,1,506,NaN,truck,car,NaN,car3-oven3.png,car3-oven3.png,0.0,5.1599402,7.0487843,-1.3356144
alexnet2023_baseline_pgd,1,507,NaN,car,car,NaN,car3-truck1.png,car3-truck1.png,1.0,12.341923,6.43345,4.1779213
alexnet2023_baseline_pgd,1,508,NaN,bear,car,NaN,car4-bear3.png,car4-bear3.png,0.0,-6.023892,5.1519876,-7.90254
alexnet2023_baseline_pgd,1,509,NaN,bicycle,car,NaN,car4-bicycle3.png,car4-bicycle3.png,0.0,-2.0896118,5.0705185,-5.062977
alexnet2023_baseline_pgd,1,510,NaN,bird,car,NaN,car4-bird1.png,car4-bird1.png,0.0,-1.0185019,3.2944875,-3.049744
alexnet2023_baseline_pgd,1,511,NaN,car,car,NaN,car4-boat1.png,car4-boat1.png,1.0,7.976478,6.535491,1.0189317
alexnet2023_baseline_pgd,1,512,NaN,clock,car,NaN,car4-bottle1.png,car4-bottle1.png,0.0,-2.6870902,5.7512383,-5.9667997
alexnet2023_baseline_pgd,1,513,NaN,car,car,NaN,car4-car2.png,car4-car2.png,1.0,10.688802,6.6087523,2.8850307
alexnet2023_baseline_pgd,1,514,NaN,oven,car,NaN,car4-cat3.png,car4-cat3.png,0.0,-5.436384,4.1087737,-6.7494464
alexnet2023_baseline_pgd,1,515,NaN,oven,car,NaN,car4-clock1.png,car4-clock1.png,0.0,0.894139,2.9885523,-1.4809738
alexnet2023_baseline_pgd,1,516,NaN,elephant,car,NaN,car4-elephant3.png,car4-elephant3.png,0.0,-1.7447181,5.514233,-5.1328535
alexnet2023_baseline_pgd,1,517,NaN,oven,car,NaN,car4-oven2.png,car4-oven2.png,0.0,7.876204,9.0439205,-0.8257003
alexnet2023_baseline_pgd,1,518,NaN,car,car,NaN,car5-airplane3.png,car5-airplane3.png,1.0,12.70097,7.8655124,3.4191847
alexnet2023_baseline_pgd,1,519,NaN,elephant,car,NaN,car5-bear3.png,car5-bear3.png,0.0,-4.72776,6.0337214,-7.6095166
alexnet2023_baseline_pgd,1,520,NaN,bicycle,car,NaN,car5-bottle1.png,car5-bottle1.png,0.0,-1.5933386,4.127248,-4.0450654
alexnet2023_baseline_pgd,1,521,NaN,dog,car,NaN,car5-cat1.png,car5-cat1.png,0.0,-1.0681658,5.2722483,-4.48335
alexnet2023_baseline_pgd,1,522,NaN,car,car,NaN,car5-keyboard3.png,car5-keyboard3.png,1.0,4.402703,4.298369,0.073775195
alexnet2023_baseline_pgd,1,523,NaN,car,car,NaN,car5-knife2.png,car5-knife2.png,1.0,10.831578,7.8534565,2.1058502
alexnet2023_baseline_pgd,1,524,NaN,car,car,NaN,car5-oven2.png,car5-oven2.png,1.0,11.972526,9.740022,1.5786186
alexnet2023_baseline_pgd,1,525,NaN,car,car,NaN,car5-truck3.png,car5-truck3.png,1.0,13.463626,12.622023,0.5951034
alexnet2023_baseline_pgd,1,526,NaN,elephant,car,NaN,car6-bear1.png,car6-bear1.png,0.0,0.4152634,6.298999,-4.1604295
alexnet2023_baseline_pgd,1,527,NaN,bicycle,car,NaN,car6-bicycle3.png,car6-bicycle3.png,0.0,2.2877533,4.800128,-1.7765172
alexnet2023_baseline_pgd,1,528,NaN,car,car,NaN,car6-boat1.png,car6-boat1.png,1.0,3.840082,3.4479825,0.27725613
alexnet2023_baseline_pgd,1,529,NaN,clock,car,NaN,car6-bottle1.png,car6-bottle1.png,0.0,-5.090931,5.5678954,-7.5369287
alexnet2023_baseline_pgd,1,530,NaN,truck,car,NaN,car6-chair3.png,car6-chair3.png,0.0,0.94575924,3.4323988,-1.7583197
alexnet2023_baseline_pgd,1,531,NaN,elephant,car,NaN,car6-elephant3.png,car6-elephant3.png,0.0,-1.8239969,7.542015,-6.6227703
alexnet2023_baseline_pgd,1,532,NaN,knife,car,NaN,car6-knife1.png,car6-knife1.png,0.0,6.1859565,6.9958787,-0.5727015
alexnet2023_baseline_pgd,1,533,NaN,airplane,car,NaN,car6-truck3.png,car6-truck3.png,0.0,0.9902188,4.2030544,-2.271818
alexnet2023_baseline_pgd,1,534,NaN,car,car,NaN,car7-airplane2.png,car7-airplane2.png,1.0,7.1561112,6.023799,0.80066574
alexnet2023_baseline_pgd,1,535,NaN,bear,car,NaN,car7-bear1.png,car7-bear1.png,0.0,-1.6488781,4.3749647,-4.2595
alexnet2023_baseline_pgd,1,536,NaN,knife,car,NaN,car7-bird3.png,car7-bird3.png,0.0,-1.5977254,3.7077103,-3.7515097
alexnet2023_baseline_pgd,1,537,NaN,truck,car,NaN,car7-boat3.png,car7-boat3.png,0.0,6.1257954,6.3401732,-0.15158805
alexnet2023_baseline_pgd,1,538,NaN,car,car,NaN,car7-car1.png,car7-car1.png,1.0,7.734674,5.0309877,1.9117949
alexnet2023_baseline_pgd,1,539,NaN,oven,car,NaN,car7-clock1.png,car7-clock1.png,0.0,0.25488612,3.975668,-2.63099
alexnet2023_baseline_pgd,1,540,NaN,dog,car,NaN,car7-dog3.png,car7-dog3.png,0.0,-4.476593,5.9277887,-7.357009
alexnet2023_baseline_pgd,1,541,NaN,elephant,car,NaN,car7-elephant3.png,car7-elephant3.png,0.0,-3.134279,8.769548,-8.417277
alexnet2023_baseline_pgd,1,542,NaN,car,car,NaN,car7-keyboard3.png,car7-keyboard3.png,1.0,6.910349,3.4371305,2.4559364
alexnet2023_baseline_pgd,1,543,NaN,oven,car,NaN,car7-oven2.png,car7-oven2.png,0.0,5.6462593,7.204954,-1.1021637
alexnet2023_baseline_pgd,1,544,NaN,car,car,NaN,car8-airplane3.png,car8-airplane3.png,1.0,6.254619,1.792461,3.1552224
alexnet2023_baseline_pgd,1,545,NaN,cat,car,NaN,car8-bear1.png,car8-bear1.png,0.0,-0.16697598,5.1735816,-3.7763445
alexnet2023_baseline_pgd,1,546,NaN,bicycle,car,NaN,car8-bicycle2.png,car8-bicycle2.png,0.0,-0.70704794,7.8160005,-6.0267053
alexnet2023_baseline_pgd,1,547,NaN,bicycle,car,NaN,car8-boat3.png,car8-boat3.png,0.0,8.835857,8.925084,-0.06309282
alexnet2023_baseline_pgd,1,548,NaN,dog,car,NaN,car8-cat1.png,car8-cat1.png,0.0,-0.8331768,4.541084,-3.8001761
alexnet2023_baseline_pgd,1,549,NaN,car,car,NaN,car8-chair1.png,car8-chair1.png,1.0,14.147597,6.176488,5.6364255
alexnet2023_baseline_pgd,1,550,NaN,car,car,NaN,car8-clock2.png,car8-clock2.png,1.0,5.706923,3.7829192,1.3604761
alexnet2023_baseline_pgd,1,551,NaN,dog,car,NaN,car8-dog1.png,car8-dog1.png,0.0,-2.9091892,2.5063875,-3.8293912
alexnet2023_baseline_pgd,1,552,NaN,knife,car,NaN,car8-knife2.png,car8-knife2.png,0.0,1.8437299,4.661885,-1.9927365
alexnet2023_baseline_pgd,1,553,NaN,car,car,NaN,car8-truck3.png,car8-truck3.png,1.0,8.045241,5.4103427,1.8631548
alexnet2023_baseline_pgd,1,554,NaN,bicycle,car,NaN,car9-bicycle2.png,car9-bicycle2.png,0.0,3.5662076,6.20928,-1.8689344
alexnet2023_baseline_pgd,1,555,NaN,bear,car,NaN,car9-bird1.png,car9-bird1.png,0.0,-0.67540216,2.942477,-2.5582268
alexnet2023_baseline_pgd,1,556,NaN,bear,car,NaN,car9-cat1.png,car9-cat1.png,0.0,-2.0104685,5.018963,-4.9705586
alexnet2023_baseline_pgd,1,557,NaN,car,car,NaN,car9-clock2.png,car9-clock2.png,1.0,12.852824,8.478651,3.0930076
alexnet2023_baseline_pgd,1,558,NaN,car,car,NaN,car9-keyboard2.png,car9-keyboard2.png,1.0,6.14653,5.2662506,0.62245166
alexnet2023_baseline_pgd,1,559,NaN,car,car,NaN,car9-knife1.png,car9-knife1.png,1.0,8.040168,6.2948694,1.2341124
alexnet2023_baseline_pgd,1,560,NaN,truck,car,NaN,car9-truck3.png,car9-truck3.png,0.0,5.113746,5.4943757,-0.26914573
alexnet2023_baseline_pgd,1,561,NaN,boat,cat,NaN,cat1-airplane1.png,cat1-airplane1.png,0.0,0.25192633,3.1283257,-2.0339215
alexnet2023_baseline_pgd,1,562,NaN,bird,cat,NaN,cat1-bird1.png,cat1-bird1.png,0.0,1.2905599,3.1037343,-1.282108
alexnet2023_baseline_pgd,1,563,NaN,boat,cat,NaN,cat1-boat1.png,cat1-boat1.png,0.0,0.741288,4.4310746,-2.6090732
alexnet2023_baseline_pgd,1,564,NaN,knife,cat,NaN,cat1-car2.png,cat1-car2.png,0.0,2.689579,3.2675617,-0.40869546
alexnet2023_baseline_pgd,1,565,NaN,cat,cat,NaN,cat1-cat3.png,cat1-cat3.png,1.0,6.0748506,3.7939944,1.6128088
alexnet2023_baseline_pgd,1,566,NaN,chair,cat,NaN,cat1-chair2.png,cat1-chair2.png,0.0,-1.9306196,8.377101,-7.288659
alexnet2023_baseline_pgd,1,567,NaN,cat,cat,NaN,cat1-dog1.png,cat1-dog1.png,1.0,6.779755,3.5559554,2.2795706
alexnet2023_baseline_pgd,1,568,NaN,knife,cat,NaN,cat1-keyboard3.png,cat1-keyboard3.png,0.0,-1.4254872,4.4767685,-4.173525
alexnet2023_baseline_pgd,1,569,NaN,oven,cat,NaN,cat1-oven1.png,cat1-oven1.png,0.0,0.15954627,4.379899,-2.98424
alexnet2023_baseline_pgd,1,570,NaN,elephant,cat,NaN,cat10-airplane3.png,cat10-airplane3.png,0.0,3.4929497,4.7309527,-0.87540036
alexnet2023_baseline_pgd,1,571,NaN,cat,cat,NaN,cat10-bear1.png,cat10-bear1.png,1.0,6.8228574,5.446684,0.9731016
alexnet2023_baseline_pgd,1,572,NaN,bicycle,cat,NaN,cat10-bicycle1.png,cat10-bicycle1.png,0.0,0.9864455,3.7807508,-1.9758723
alexnet2023_baseline_pgd,1,573,NaN,cat,cat,NaN,cat10-bird2.png,cat10-bird2.png,1.0,2.818978,2.7782493,0.028799616
alexnet2023_baseline_pgd,1,574,NaN,knife,cat,NaN,cat10-bottle1.png,cat10-bottle1.png,0.0,-2.5081651,3.9771376,-4.5858016
alexnet2023_baseline_pgd,1,575,NaN,oven,cat,NaN,cat10-clock1.png,cat10-clock1.png,0.0,1.5806108,7.2035303,-3.9760046
alexnet2023_baseline_pgd,1,576,NaN,elephant,cat,NaN,cat10-elephant3.png,cat10-elephant3.png,0.0,0.4205455,7.09248,-4.71777
alexnet2023_baseline_pgd,1,577,NaN,elephant,cat,NaN,cat10-keyboard1.png,cat10-keyboard1.png,0.0,1.223195,6.6608906,-3.8450315
alexnet2023_baseline_pgd,1,578,NaN,oven,cat,NaN,cat10-oven2.png,cat10-oven2.png,0.0,-1.3052726,5.069831,-4.507879
alexnet2023_baseline_pgd,1,579,NaN,bicycle,cat,NaN,cat2-boat2.png,cat2-boat2.png,0.0,1.0617782,3.180893,-1.4984405
alexnet2023_baseline_pgd,1,580,NaN,knife,cat,NaN,cat2-bottle3.png,cat2-bottle3.png,0.0,2.2329202,3.0132961,-0.55180913
alexnet2023_baseline_pgd,1,581,NaN,cat,cat,NaN,cat2-car3.png,cat2-car3.png,1.0,2.327123,1.7093933,0.43680084
alexnet2023_baseline_pgd,1,582,NaN,cat,cat,NaN,cat2-cat1.png,cat2-cat1.png,1.0,8.331309,4.354339,2.8121426
alexnet2023_baseline_pgd,1,583,NaN,elephant,cat,NaN,cat2-elephant1.png,cat2-elephant1.png,0.0,1.0574197,11.375643,-7.2960854
alexnet2023_baseline_pgd,1,584,NaN,knife,cat,NaN,cat2-knife3.png,cat2-knife3.png,0.0,-0.87282985,5.9169545,-4.8011026
alexnet2023_baseline_pgd,1,585,NaN,knife,cat,NaN,cat2-truck3.png,cat2-truck3.png,0.0,-1.5227233,3.9473875,-3.8679526
alexnet2023_baseline_pgd,1,586,NaN,bear,cat,NaN,cat3-bear2.png,cat3-bear2.png,0.0,9.558197,10.155802,-0.42257038
alexnet2023_baseline_pgd,1,587,NaN,bicycle,cat,NaN,cat3-bicycle1.png,cat3-bicycle1.png,0.0,0.6128592,4.9093194,-3.0380561
alexnet2023_baseline_pgd,1,588,NaN,cat,cat,NaN,cat3-cat1.png,cat3-cat1.png,1.0,10.535422,6.476954,2.8697705
alexnet2023_baseline_pgd,1,589,NaN,elephant,cat,NaN,cat3-elephant2.png,cat3-elephant2.png,0.0,2.5432863,9.682104,-5.0479064
alexnet2023_baseline_pgd,1,590,NaN,oven,cat,NaN,cat3-oven2.png,cat3-oven2.png,0.0,-1.4297308,5.3859224,-4.8193946
alexnet2023_baseline_pgd,1,591,NaN,truck,cat,NaN,cat3-truck3.png,cat3-truck3.png,0.0,-1.5256513,5.2436857,-4.7866445
alexnet2023_baseline_pgd,1,592,NaN,bird,cat,NaN,cat4-airplane1.png,cat4-airplane1.png,0.0,-0.73789376,3.843809,-3.239753
alexnet2023_baseline_pgd,1,593,NaN,cat,cat,NaN,cat4-bird2.png,cat4-bird2.png,1.0,2.6093066,1.0729403,1.086375
alexnet2023_baseline_pgd,1,594,NaN,bicycle,cat,NaN,cat4-car2.png,cat4-car2.png,0.0,-0.8659435,4.0138407,-3.4505284
alexnet2023_baseline_pgd,1,595,NaN,cat,cat,NaN,cat4-cat3.png,cat4-cat3.png,1.0,3.1909897,3.0805597,0.0780858
alexnet2023_baseline_pgd,1,596,NaN,chair,cat,NaN,cat4-chair2.png,cat4-chair2.png,0.0,-2.9751294,7.4775205,-7.39114
alexnet2023_baseline_pgd,1,597,NaN,clock,cat,NaN,cat4-clock2.png,cat4-clock2.png,0.0,-0.29382697,5.418537,-4.0392513
alexnet2023_baseline_pgd,1,598,NaN,dog,cat,NaN,cat4-dog3.png,cat4-dog3.png,0.0,4.9759297,6.328905,-0.95669806
alexnet2023_baseline_pgd,1,599,NaN,clock,cat,NaN,cat4-keyboard2.png,cat4-keyboard2.png,0.0,-1.5959724,5.4821515,-5.0049896
alexnet2023_baseline_pgd,1,600,NaN,knife,cat,NaN,cat4-knife1.png,cat4-knife1.png,0.0,-1.569386,4.0784454,-3.99362
alexnet2023_baseline_pgd,1,601,NaN,oven,cat,NaN,cat4-oven1.png,cat4-oven1.png,0.0,-0.81778663,5.2959337,-4.3230534
alexnet2023_baseline_pgd,1,602,NaN,oven,cat,NaN,cat4-truck3.png,cat4-truck3.png,0.0,-4.2350373,5.6198792,-6.9684787
alexnet2023_baseline_pgd,1,603,NaN,airplane,cat,NaN,cat5-airplane2.png,cat5-airplane2.png,0.0,-0.87112194,5.4371605,-4.4606295
alexnet2023_baseline_pgd,1,604,NaN,elephant,cat,NaN,cat5-bear2.png,cat5-bear2.png,0.0,6.7500978,11.409366,-3.2946
alexnet2023_baseline_pgd,1,605,NaN,knife,cat,NaN,cat5-bicycle3.png,cat5-bicycle3.png,0.0,3.2996895,4.3047075,-0.71065503
alexnet2023_baseline_pgd,1,606,NaN,knife,cat,NaN,cat5-boat1.png,cat5-boat1.png,0.0,3.246247,3.3948698,-0.10509216
alexnet2023_baseline_pgd,1,607,NaN,bicycle,cat,NaN,cat5-bottle1.png,cat5-bottle1.png,0.0,-2.3262827,4.1482267,-4.5781693
alexnet2023_baseline_pgd,1,608,NaN,cat,cat,NaN,cat5-car2.png,cat5-car2.png,1.0,3.4939973,2.8465562,0.45781004
alexnet2023_baseline_pgd,1,609,NaN,chair,cat,NaN,cat5-chair3.png,cat5-chair3.png,0.0,0.7189744,3.2051506,-1.7579921
alexnet2023_baseline_pgd,1,610,NaN,cat,cat,NaN,cat5-dog3.png,cat5-dog3.png,1.0,7.9558024,6.3721566,1.1198068
alexnet2023_baseline_pgd,1,611,NaN,elephant,cat,NaN,cat5-elephant2.png,cat5-elephant2.png,0.0,1.9716343,10.191997,-5.812674
alexnet2023_baseline_pgd,1,612,NaN,knife,cat,NaN,cat5-keyboard3.png,cat5-keyboard3.png,0.0,-1.1953708,5.4579268,-4.7045918
alexnet2023_baseline_pgd,1,613,NaN,knife,cat,NaN,cat5-knife2.png,cat5-knife2.png,0.0,-3.2700522,8.195396,-8.107296
alexnet2023_baseline_pgd,1,614,NaN,cat,cat,NaN,cat6-bear1.png,cat6-bear1.png,1.0,7.466104,6.930149,0.3789774
alexnet2023_baseline_pgd,1,615,NaN,airplane,cat,NaN,cat6-chair3.png,cat6-chair3.png,0.0,-0.56810224,4.8767576,-3.8500974
alexnet2023_baseline_pgd,1,616,NaN,cat,cat,NaN,cat6-clock3.png,cat6-clock3.png,1.0,4.0731406,2.2111166,1.3166499
alexnet2023_baseline_pgd,1,617,NaN,knife,cat,NaN,cat6-keyboard3.png,cat6-keyboard3.png,0.0,-1.4533533,5.148946,-4.6685305
alexnet2023_baseline_pgd,1,618,NaN,knife,cat,NaN,cat6-oven1.png,cat6-oven1.png,0.0,-0.6784366,6.0149393,-4.7329316
alexnet2023_baseline_pgd,1,619,NaN,airplane,cat,NaN,cat7-airplane2.png,cat7-airplane2.png,0.0,-3.0934346,8.724988,-8.356887
alexnet2023_baseline_pgd,1,620,NaN,knife,cat,NaN,cat7-boat3.png,cat7-boat3.png,0.0,1.4106497,4.427107,-2.1329572
alexnet2023_baseline_pgd,1,621,NaN,clock,cat,NaN,cat7-bottle1.png,cat7-bottle1.png,0.0,-1.5924525,4.2015452,-4.0969753
alexnet2023_baseline_pgd,1,622,NaN,cat,cat,NaN,cat7-clock3.png,cat7-clock3.png,1.0,2.8638413,2.0766096,0.5566569
alexnet2023_baseline_pgd,1,623,NaN,cat,cat,NaN,cat7-dog3.png,cat7-dog3.png,1.0,8.624806,7.502916,0.7932964
alexnet2023_baseline_pgd,1,624,NaN,elephant,cat,NaN,cat7-elephant1.png,cat7-elephant1.png,0.0,0.8752617,7.915806,-4.9784164
alexnet2023_baseline_pgd,1,625,NaN,knife,cat,NaN,cat7-knife2.png,cat7-knife2.png,0.0,-3.9697027,7.947952,-8.427054
alexnet2023_baseline_pgd,1,626,NaN,chair,cat,NaN,cat7-truck2.png,cat7-truck2.png,0.0,-0.72494966,3.758202,-3.170067
alexnet2023_baseline_pgd,1,627,NaN,cat,cat,NaN,cat8-bear1.png,cat8-bear1.png,1.0,5.245277,4.5167184,0.51516867
alexnet2023_baseline_pgd,1,628,NaN,knife,cat,NaN,cat8-bicycle3.png,cat8-bicycle3.png,0.0,1.7050734,1.9304639,-0.15937519
alexnet2023_baseline_pgd,1,629,NaN,bird,cat,NaN,cat8-bird2.png,cat8-bird2.png,0.0,1.7602941,2.2045252,-0.31411886
alexnet2023_baseline_pgd,1,630,NaN,knife,cat,NaN,cat8-car2.png,cat8-car2.png,0.0,-0.14369382,5.091632,-3.7019343
alexnet2023_baseline_pgd,1,631,NaN,bicycle,cat,NaN,cat9-bicycle1.png,cat9-bicycle1.png,0.0,-2.385599,4.3521357,-4.764298
alexnet2023_baseline_pgd,1,632,NaN,elephant,cat,NaN,cat9-bird3.png,cat9-bird3.png,0.0,2.08115,3.8321137,-1.2381183
alexnet2023_baseline_pgd,1,633,NaN,bicycle,cat,NaN,cat9-boat2.png,cat9-boat2.png,0.0,-2.7074616,5.428217,-5.7527933
alexnet2023_baseline_pgd,1,634,NaN,bottle,cat,NaN,cat9-bottle2.png,cat9-bottle2.png,0.0,-3.7707367,5.3784375,-6.469443
alexnet2023_baseline_pgd,1,635,NaN,oven,cat,NaN,cat9-cat3.png,cat9-cat3.png,0.0,2.7642777,3.2458885,-0.34055024
alexnet2023_baseline_pgd,1,636,NaN,chair,cat,NaN,cat9-chair2.png,cat9-chair2.png,0.0,-4.0602283,4.8670263,-6.3125224
alexnet2023_baseline_pgd,1,637,NaN,bottle,cat,NaN,cat9-clock2.png,cat9-clock2.png,0.0,-0.40280008,2.023696,-1.7157918
alexnet2023_baseline_pgd,1,638,NaN,dog,cat,NaN,cat9-dog2.png,cat9-dog2.png,0.0,4.250809,4.276069,-0.017861497
alexnet2023_baseline_pgd,1,639,NaN,oven,cat,NaN,cat9-knife2.png,cat9-knife2.png,0.0,-4.2188687,5.4020405,-6.80301
alexnet2023_baseline_pgd,1,640,NaN,car,cat,NaN,cat9-truck1.png,cat9-truck1.png,0.0,-2.7484887,6.7226214,-6.6970863
alexnet2023_baseline_pgd,1,641,NaN,airplane,chair,NaN,chair1-airplane2.png,chair1-airplane2.png,0.0,5.0998206,5.9639482,-0.6110305
alexnet2023_baseline_pgd,1,642,NaN,elephant,chair,NaN,chair1-bear1.png,chair1-bear1.png,0.0,-1.6225418,5.9927883,-5.384852
alexnet2023_baseline_pgd,1,643,NaN,oven,chair,NaN,chair1-cat3.png,chair1-cat3.png,0.0,-1.8125705,4.8106337,-4.683313
alexnet2023_baseline_pgd,1,644,NaN,chair,chair,NaN,chair1-chair1.png,chair1-chair1.png,1.0,7.5917883,1.7491729,4.131353
alexnet2023_baseline_pgd,1,645,NaN,knife,chair,NaN,chair1-clock2.png,chair1-clock2.png,0.0,3.274643,3.7289195,-0.32122204
alexnet2023_baseline_pgd,1,646,NaN,dog,chair,NaN,chair1-dog1.png,chair1-dog1.png,0.0,-3.1038625,3.2864158,-4.518609
alexnet2023_baseline_pgd,1,647,NaN,elephant,chair,NaN,chair1-elephant1.png,chair1-elephant1.png,0.0,0.25357807,6.0551057,-4.1022997
alexnet2023_baseline_pgd,1,648,NaN,chair,chair,NaN,chair1-oven3.png,chair1-oven3.png,1.0,6.280671,5.78529,0.35028753
alexnet2023_baseline_pgd,1,649,NaN,knife,chair,NaN,chair1-truck3.png,chair1-truck3.png,0.0,4.125943,5.959675,-1.2966441
alexnet2023_baseline_pgd,1,650,NaN,knife,chair,NaN,chair10-airplane2.png,chair10-airplane2.png,0.0,5.5340505,6.7385116,-0.8516826
alexnet2023_baseline_pgd,1,651,NaN,bicycle,chair,NaN,chair10-bicycle1.png,chair10-bicycle1.png,0.0,-0.472637,5.690496,-4.357993
alexnet2023_baseline_pgd,1,652,NaN,oven,chair,NaN,chair10-bird3.png,chair10-bird3.png,0.0,6.5369034,10.752953,-2.981197
alexnet2023_baseline_pgd,1,653,NaN,knife,chair,NaN,chair10-bottle3.png,chair10-bottle3.png,0.0,3.0356655,4.8617864,-1.2912625
alexnet2023_baseline_pgd,1,654,NaN,bicycle,chair,NaN,chair10-car2.png,chair10-car2.png,0.0,2.3147547,5.486758,-2.2429452
alexnet2023_baseline_pgd,1,655,NaN,dog,chair,NaN,chair10-cat1.png,chair10-cat1.png,0.0,-1.4906472,5.3472753,-4.8351417
alexnet2023_baseline_pgd,1,656,NaN,oven,chair,NaN,chair10-clock1.png,chair10-clock1.png,0.0,4.2656474,7.723113,-2.4447975
alexnet2023_baseline_pgd,1,657,NaN,dog,chair,NaN,chair10-dog1.png,chair10-dog1.png,0.0,-1.1198035,3.528687,-3.2869792
alexnet2023_baseline_pgd,1,658,NaN,oven,chair,NaN,chair10-oven1.png,chair10-oven1.png,0.0,4.2857094,10.218802,-4.1953306
alexnet2023_baseline_pgd,1,659,NaN,elephant,chair,NaN,chair2-bear2.png,chair2-bear2.png,0.0,-0.50414443,9.502412,-7.075704
alexnet2023_baseline_pgd,1,660,NaN,oven,chair,NaN,chair2-boat1.png,chair2-boat1.png,0.0,2.8291442,3.5456634,-0.5066555
alexnet2023_baseline_pgd,1,661,NaN,knife,chair,NaN,chair2-keyboard2.png,chair2-keyboard2.png,0.0,2.9481697,4.803102,-1.3116353
alexnet2023_baseline_pgd,1,662,NaN,oven,chair,NaN,chair2-knife1.png,chair2-knife1.png,0.0,5.85816,6.28799,-0.30393577
alexnet2023_baseline_pgd,1,663,NaN,airplane,chair,NaN,chair3-airplane2.png,chair3-airplane2.png,0.0,4.5161843,6.8783474,-1.6703016
alexnet2023_baseline_pgd,1,664,NaN,bicycle,chair,NaN,chair3-bicycle3.png,chair3-bicycle3.png,0.0,4.490715,5.7634373,-0.89995056
alexnet2023_baseline_pgd,1,665,NaN,chair,chair,NaN,chair3-bottle3.png,chair3-bottle3.png,1.0,1.9820164,1.7285221,0.1792476
alexnet2023_baseline_pgd,1,666,NaN,oven,chair,NaN,chair3-car3.png,chair3-car3.png,0.0,4.73046,6.46136,-1.2239311
alexnet2023_baseline_pgd,1,667,NaN,cat,chair,NaN,chair3-dog2.png,chair3-dog2.png,0.0,-1.654302,3.4646928,-3.6196759
alexnet2023_baseline_pgd,1,668,NaN,oven,chair,NaN,chair3-knife1.png,chair3-knife1.png,0.0,5.090551,7.192913,-1.4865946
alexnet2023_baseline_pgd,1,669,NaN,elephant,chair,NaN,chair4-bear2.png,chair4-bear2.png,0.0,-2.73781,8.440975,-7.904595
alexnet2023_baseline_pgd,1,670,NaN,cat,chair,NaN,chair4-cat2.png,chair4-cat2.png,0.0,-2.5347924,7.270153,-6.933143
alexnet2023_baseline_pgd,1,671,NaN,chair,chair,NaN,chair4-chair3.png,chair4-chair3.png,1.0,8.22153,4.0329714,2.9617581
alexnet2023_baseline_pgd,1,672,NaN,clock,chair,NaN,chair4-keyboard2.png,chair4-keyboard2.png,0.0,2.20084,5.5121617,-2.341458
alexnet2023_baseline_pgd,1,673,NaN,chair,chair,NaN,chair4-oven2.png,chair4-oven2.png,1.0,5.95276,4.66443,0.91098696
alexnet2023_baseline_pgd,1,674,NaN,chair,chair,NaN,chair4-truck2.png,chair4-truck2.png,1.0,6.2267256,3.8872204,1.6542801
alexnet2023_baseline_pgd,1,675,NaN,bicycle,chair,NaN,chair5-bicycle1.png,chair5-bicycle1.png,0.0,2.6243777,11.20709,-6.068894
alexnet2023_baseline_pgd,1,676,NaN,bear,chair,NaN,chair5-bird1.png,chair5-bird1.png,0.0,-2.8416548,3.24019,-4.3005137
alexnet2023_baseline_pgd,1,677,NaN,chair,chair,NaN,chair5-boat3.png,chair5-boat3.png,1.0,7.83512,3.5839663,3.0060198
alexnet2023_baseline_pgd,1,678,NaN,bicycle,chair,NaN,chair5-bottle3.png,chair5-bottle3.png,0.0,1.7592947,3.7890294,-1.4352391
alexnet2023_baseline_pgd,1,679,NaN,bicycle,chair,NaN,chair5-car1.png,chair5-car1.png,0.0,4.537401,5.9068093,-0.9683178
alexnet2023_baseline_pgd,1,680,NaN,oven,chair,NaN,chair5-cat3.png,chair5-cat3.png,0.0,-1.1084617,3.6310866,-3.3513668
alexnet2023_baseline_pgd,1,681,NaN,chair,chair,NaN,chair5-clock2.png,chair5-clock2.png,1.0,7.8950977,5.9270563,1.3916155
alexnet2023_baseline_pgd,1,682,NaN,bicycle,chair,NaN,chair5-keyboard2.png,chair5-keyboard2.png,0.0,2.9692683,5.0859933,-1.4967506
alexnet2023_baseline_pgd,1,683,NaN,knife,chair,NaN,chair5-knife3.png,chair5-knife3.png,0.0,0.10891569,5.1640396,-3.5745125
alexnet2023_baseline_pgd,1,684,NaN,oven,chair,NaN,chair5-oven2.png,chair5-oven2.png,0.0,4.7731466,7.835765,-2.1655982
alexnet2023_baseline_pgd,1,685,NaN,chair,chair,NaN,chair5-truck3.png,chair5-truck3.png,1.0,5.0141845,3.9111626,0.77995425
alexnet2023_baseline_pgd,1,686,NaN,knife,chair,NaN,chair6-bird2.png,chair6-bird2.png,0.0,0.46607456,2.9162037,-1.732503
alexnet2023_baseline_pgd,1,687,NaN,cat,chair,NaN,chair6-dog1.png,chair6-dog1.png,0.0,-1.657469,4.2586656,-4.183339
alexnet2023_baseline_pgd,1,688,NaN,elephant,chair,NaN,chair6-elephant2.png,chair6-elephant2.png,0.0,-0.8268198,10.68152,-8.137626
alexnet2023_baseline_pgd,1,689,NaN,car,chair,NaN,chair6-truck2.png,chair6-truck2.png,0.0,4.5439734,6.449953,-1.3477311
alexnet2023_baseline_pgd,1,690,NaN,oven,chair,NaN,chair7-airplane1.png,chair7-airplane1.png,0.0,3.7188745,5.8484397,-1.50583
alexnet2023_baseline_pgd,1,691,NaN,oven,chair,NaN,chair7-bird1.png,chair7-bird1.png,0.0,-1.572437,2.9443746,-3.193868
alexnet2023_baseline_pgd,1,692,NaN,chair,chair,NaN,chair7-boat3.png,chair7-boat3.png,1.0,7.054158,3.4169223,2.5719142
alexnet2023_baseline_pgd,1,693,NaN,bicycle,chair,NaN,chair7-bottle1.png,chair7-bottle1.png,0.0,4.402684,4.524416,-0.086077355
alexnet2023_baseline_pgd,1,694,NaN,bicycle,chair,NaN,chair7-car2.png,chair7-car2.png,0.0,3.4265342,3.5398984,-0.08016061
alexnet2023_baseline_pgd,1,695,NaN,chair,chair,NaN,chair7-cat1.png,chair7-cat1.png,1.0,3.8593733,3.7404017,0.084125616
alexnet2023_baseline_pgd,1,696,NaN,chair,chair,NaN,chair7-chair1.png,chair7-chair1.png,1.0,7.679248,5.0337667,1.8706377
alexnet2023_baseline_pgd,1,697,NaN,chair,chair,NaN,chair7-clock3.png,chair7-clock3.png,1.0,7.512876,5.2572627,1.5949595
alexnet2023_baseline_pgd,1,698,NaN,elephant,chair,NaN,chair7-elephant1.png,chair7-elephant1.png,0.0,1.8533685,6.9845996,-3.6283286
alexnet2023_baseline_pgd,1,699,NaN,oven,chair,NaN,chair7-knife2.png,chair7-knife2.png,0.0,1.8073628,7.4760494,-4.008367
alexnet2023_baseline_pgd,1,700,NaN,oven,chair,NaN,chair7-truck3.png,chair7-truck3.png,0.0,5.1459246,6.2854414,-0.8057601
alexnet2023_baseline_pgd,1,701,NaN,oven,chair,NaN,chair8-airplane1.png,chair8-airplane1.png,0.0,3.4464822,4.548837,-0.7794827
alexnet2023_baseline_pgd,1,702,NaN,elephant,chair,NaN,chair8-bear1.png,chair8-bear1.png,0.0,1.4621778,3.994748,-1.7907977
alexnet2023_baseline_pgd,1,703,NaN,bottle,chair,NaN,chair8-bicycle3.png,chair8-bicycle3.png,0.0,2.9635293,3.4354646,-0.33370864
alexnet2023_baseline_pgd,1,704,NaN,knife,chair,NaN,chair8-boat1.png,chair8-boat1.png,0.0,2.7338514,6.604518,-2.7369745
alexnet2023_baseline_pgd,1,705,NaN,bicycle,chair,NaN,chair8-car1.png,chair8-car1.png,0.0,3.765015,4.391018,-0.442651
alexnet2023_baseline_pgd,1,706,NaN,chair,chair,NaN,chair8-chair3.png,chair8-chair3.png,1.0,8.188372,3.2636464,3.482307
alexnet2023_baseline_pgd,1,707,NaN,chair,chair,NaN,chair8-clock3.png,chair8-clock3.png,1.0,3.9231715,3.038129,0.6258195
alexnet2023_baseline_pgd,1,708,NaN,elephant,chair,NaN,chair8-elephant1.png,chair8-elephant1.png,0.0,-0.30414295,6.8150315,-5.0340166
alexnet2023_baseline_pgd,1,709,NaN,bear,chair,NaN,chair8-keyboard3.png,chair8-keyboard3.png,0.0,-2.0885248,1.5714142,-2.5879679
alexnet2023_baseline_pgd,1,710,NaN,oven,chair,NaN,chair8-knife2.png,chair8-knife2.png,0.0,1.8543725,11.299939,-6.679024
alexnet2023_baseline_pgd,1,711,NaN,chair,chair,NaN,chair8-oven1.png,chair8-oven1.png,1.0,7.4307356,7.002402,0.30287772
alexnet2023_baseline_pgd,1,712,NaN,bear,chair,NaN,chair9-bear1.png,chair9-bear1.png,0.0,0.22729674,3.7330544,-2.478945
alexnet2023_baseline_pgd,1,713,NaN,bicycle,chair,NaN,chair9-bicycle3.png,chair9-bicycle3.png,0.0,4.028781,4.2492685,-0.15590827
alexnet2023_baseline_pgd,1,714,NaN,oven,chair,NaN,chair9-bird3.png,chair9-bird3.png,0.0,2.750262,7.348172,-3.2512133
alexnet2023_baseline_pgd,1,715,NaN,oven,chair,NaN,chair9-boat2.png,chair9-boat2.png,0.0,3.8716974,8.479413,-3.258147
alexnet2023_baseline_pgd,1,716,NaN,knife,chair,NaN,chair9-bottle3.png,chair9-bottle3.png,0.0,0.5933065,4.122796,-2.495726
alexnet2023_baseline_pgd,1,717,NaN,chair,chair,NaN,chair9-chair3.png,chair9-chair3.png,1.0,7.3711333,6.9470806,0.29985055
alexnet2023_baseline_pgd,1,718,NaN,oven,chair,NaN,chair9-dog2.png,chair9-dog2.png,0.0,-1.2078958,3.0918567,-3.040384
alexnet2023_baseline_pgd,1,719,NaN,elephant,chair,NaN,chair9-elephant1.png,chair9-elephant1.png,0.0,1.2119112,5.221135,-2.8349495
alexnet2023_baseline_pgd,1,720,NaN,clock,chair,NaN,chair9-keyboard2.png,chair9-keyboard2.png,0.0,2.5657237,6.4575124,-2.7519102
alexnet2023_baseline_pgd,1,721,NaN,elephant,clock,NaN,clock1-bear1.png,clock1-bear1.png,0.0,-3.192603,6.1458426,-6.603278
alexnet2023_baseline_pgd,1,722,NaN,knife,clock,NaN,clock1-boat3.png,clock1-boat3.png,0.0,2.276363,3.2898808,-0.7166654
alexnet2023_baseline_pgd,1,723,NaN,bicycle,clock,NaN,clock1-car1.png,clock1-car1.png,0.0,1.0390224,4.3399496,-2.334108
alexnet2023_baseline_pgd,1,724,NaN,clock,clock,NaN,clock1-clock2.png,clock1-clock2.png,1.0,4.475127,3.92215,0.391014
alexnet2023_baseline_pgd,1,725,NaN,oven,clock,NaN,clock1-dog2.png,clock1-dog2.png,0.0,0.13204122,4.5644755,-3.1342041
alexnet2023_baseline_pgd,1,726,NaN,elephant,clock,NaN,clock1-elephant2.png,clock1-elephant2.png,0.0,-0.19731748,12.596197,-9.046381
alexnet2023_baseline_pgd,1,727,NaN,knife,clock,NaN,clock1-truck3.png,clock1-truck3.png,0.0,1.0923704,5.5654297,-3.1629305
alexnet2023_baseline_pgd,1,728,NaN,clock,clock,NaN,clock10-airplane1.png,clock10-airplane1.png,1.0,6.2528114,4.313242,1.3714827
alexnet2023_baseline_pgd,1,729,NaN,clock,clock,NaN,clock10-bird3.png,clock10-bird3.png,1.0,6.6913733,4.227503,1.7422196
alexnet2023_baseline_pgd,1,730,NaN,clock,clock,NaN,clock10-boat2.png,clock10-boat2.png,1.0,7.3831296,7.092105,0.20578553
alexnet2023_baseline_pgd,1,731,NaN,clock,clock,NaN,clock10-bottle1.png,clock10-bottle1.png,1.0,5.8572154,3.7531018,1.487833
alexnet2023_baseline_pgd,1,732,NaN,bottle,clock,NaN,clock10-cat1.png,clock10-cat1.png,0.0,0.35269704,3.0931385,-1.9377847
alexnet2023_baseline_pgd,1,733,NaN,clock,clock,NaN,clock10-clock3.png,clock10-clock3.png,1.0,10.730526,5.423938,3.7523246
alexnet2023_baseline_pgd,1,734,NaN,dog,clock,NaN,clock10-dog3.png,clock10-dog3.png,0.0,1.4487299,2.243461,-0.5619597
alexnet2023_baseline_pgd,1,735,NaN,elephant,clock,NaN,clock10-knife3.png,clock10-knife3.png,0.0,0.61574656,4.3001432,-2.605262
alexnet2023_baseline_pgd,1,736,NaN,clock,clock,NaN,clock10-oven2.png,clock10-oven2.png,1.0,5.5132184,5.3811746,0.0933691
alexnet2023_baseline_pgd,1,737,NaN,bottle,clock,NaN,clock10-truck2.png,clock10-truck2.png,0.0,2.0428622,4.708985,-1.8852334
alexnet2023_baseline_pgd,1,738,NaN,elephant,clock,NaN,clock2-bear2.png,clock2-bear2.png,0.0,3.0211513,4.979314,-1.3846301
alexnet2023_baseline_pgd,1,739,NaN,clock,clock,NaN,clock2-bicycle1.png,clock2-bicycle1.png,1.0,11.34042,7.956443,2.392833
alexnet2023_baseline_pgd,1,740,NaN,clock,clock,NaN,clock2-bottle3.png,clock2-bottle3.png,1.0,14.457248,5.204932,6.542375
alexnet2023_baseline_pgd,1,741,NaN,clock,clock,NaN,clock2-clock3.png,clock2-clock3.png,1.0,12.496338,3.7936292,6.1537447
alexnet2023_baseline_pgd,1,742,NaN,clock,clock,NaN,clock2-dog1.png,clock2-dog1.png,1.0,2.7529213,2.1093044,0.4551059
alexnet2023_baseline_pgd,1,743,NaN,elephant,clock,NaN,clock2-elephant2.png,clock2-elephant2.png,0.0,2.7917893,9.430752,-4.6944556
alexnet2023_baseline_pgd,1,744,NaN,clock,clock,NaN,clock2-knife1.png,clock2-knife1.png,1.0,7.6642957,4.945656,1.9223688
alexnet2023_baseline_pgd,1,745,NaN,elephant,clock,NaN,clock3-bear3.png,clock3-bear3.png,0.0,3.1077254,4.126936,-0.7206907
alexnet2023_baseline_pgd,1,746,NaN,bicycle,clock,NaN,clock3-bicycle2.png,clock3-bicycle2.png,0.0,6.097969,6.693309,-0.4209688
alexnet2023_baseline_pgd,1,747,NaN,bottle,clock,NaN,clock3-bird1.png,clock3-bird1.png,0.0,1.5875179,4.1354475,-1.8016584
alexnet2023_baseline_pgd,1,748,NaN,bicycle,clock,NaN,clock3-car2.png,clock3-car2.png,0.0,8.507179,9.440216,-0.65975666
alexnet2023_baseline_pgd,1,749,NaN,clock,clock,NaN,clock3-cat1.png,clock3-cat1.png,1.0,4.4424033,4.1617203,0.19847289
alexnet2023_baseline_pgd,1,750,NaN,bottle,clock,NaN,clock3-dog2.png,clock3-dog2.png,0.0,4.0413566,4.5651374,-0.370369
alexnet2023_baseline_pgd,1,751,NaN,elephant,clock,NaN,clock3-elephant3.png,clock3-elephant3.png,0.0,3.8039753,6.2361073,-1.7197771
alexnet2023_baseline_pgd,1,752,NaN,bottle,clock,NaN,clock3-keyboard3.png,clock3-keyboard3.png,0.0,6.8423653,6.9696317,-0.08999094
alexnet2023_baseline_pgd,1,753,NaN,clock,clock,NaN,clock4-airplane1.png,clock4-airplane1.png,1.0,9.067616,4.185573,3.452126
alexnet2023_baseline_pgd,1,754,NaN,clock,clock,NaN,clock4-bird3.png,clock4-bird3.png,1.0,7.755198,2.5516553,3.6794603
alexnet2023_baseline_pgd,1,755,NaN,clock,clock,NaN,clock4-boat3.png,clock4-boat3.png,1.0,3.9808967,2.2316816,1.2368819
alexnet2023_baseline_pgd,1,756,NaN,clock,clock,NaN,clock4-bottle3.png,clock4-bottle3.png,1.0,6.8504677,4.3659606,1.7568119
alexnet2023_baseline_pgd,1,757,NaN,car,clock,NaN,clock4-car2.png,clock4-car2.png,0.0,4.735968,6.855326,-1.4986125
alexnet2023_baseline_pgd,1,758,NaN,clock,clock,NaN,clock4-chair1.png,clock4-chair1.png,1.0,8.627347,3.6766708,3.5006566
alexnet2023_baseline_pgd,1,759,NaN,elephant,clock,NaN,clock4-elephant2.png,clock4-elephant2.png,0.0,-1.3024343,13.706305,-10.612781
alexnet2023_baseline_pgd,1,760,NaN,knife,clock,NaN,clock4-knife1.png,clock4-knife1.png,0.0,3.415027,4.837027,-1.005506
alexnet2023_baseline_pgd,1,761,NaN,car,clock,NaN,clock4-oven1.png,clock4-oven1.png,0.0,5.6874866,6.1263375,-0.31031445
alexnet2023_baseline_pgd,1,762,NaN,clock,clock,NaN,clock5-airplane1.png,clock5-airplane1.png,1.0,12.626185,4.269462,5.9090962
alexnet2023_baseline_pgd,1,763,NaN,clock,clock,NaN,clock5-bicycle1.png,clock5-bicycle1.png,1.0,9.422946,9.019715,0.28512713
alexnet2023_baseline_pgd,1,764,NaN,clock,clock,NaN,clock5-chair3.png,clock5-chair3.png,1.0,9.366851,4.362254,3.5387843
alexnet2023_baseline_pgd,1,765,NaN,clock,clock,NaN,clock5-clock2.png,clock5-clock2.png,1.0,17.910898,5.8719125,8.512849
alexnet2023_baseline_pgd,1,766,NaN,elephant,clock,NaN,clock5-elephant2.png,clock5-elephant2.png,0.0,1.4190621,10.585955,-6.481972
alexnet2023_baseline_pgd,1,767,NaN,clock,clock,NaN,clock5-keyboard1.png,clock5-keyboard1.png,1.0,8.9016285,4.033297,3.4424303
alexnet2023_baseline_pgd,1,768,NaN,oven,clock,NaN,clock5-oven1.png,clock5-oven1.png,0.0,8.099757,8.519354,-0.29669964
alexnet2023_baseline_pgd,1,769,NaN,clock,clock,NaN,clock6-bicycle1.png,clock6-bicycle1.png,1.0,10.4665,8.151464,1.6369776
alexnet2023_baseline_pgd,1,770,NaN,clock,clock,NaN,clock6-bird3.png,clock6-bird3.png,1.0,12.129918,2.895116,6.5299916
alexnet2023_baseline_pgd,1,771,NaN,clock,clock,NaN,clock6-bottle1.png,clock6-bottle1.png,1.0,10.0698805,5.485084,3.2419407
alexnet2023_baseline_pgd,1,772,NaN,car,clock,NaN,clock6-car2.png,clock6-car2.png,0.0,6.1278605,6.267599,-0.098810084
alexnet2023_baseline_pgd,1,773,NaN,clock,clock,NaN,clock6-chair3.png,clock6-chair3.png,1.0,6.9922338,3.9997725,2.1159897
alexnet2023_baseline_pgd,1,774,NaN,clock,clock,NaN,clock6-clock2.png,clock6-clock2.png,1.0,13.181614,2.6922314,7.417114
alexnet2023_baseline_pgd,1,775,NaN,clock,clock,NaN,clock6-knife2.png,clock6-knife2.png,1.0,6.213671,5.447893,0.54148686
alexnet2023_baseline_pgd,1,776,NaN,oven,clock,NaN,clock6-oven1.png,clock6-oven1.png,0.0,6.0254855,9.287636,-2.3066885
alexnet2023_baseline_pgd,1,777,NaN,clock,clock,NaN,clock6-truck3.png,clock6-truck3.png,1.0,8.132182,4.346345,2.6769912
alexnet2023_baseline_pgd,1,778,NaN,elephant,clock,NaN,clock7-bear2.png,clock7-bear2.png,0.0,3.3483715,5.8738976,-1.7858167
alexnet2023_baseline_pgd,1,779,NaN,clock,clock,NaN,clock7-bicycle1.png,clock7-bicycle1.png,1.0,9.442583,3.863723,3.94485
alexnet2023_baseline_pgd,1,780,NaN,clock,clock,NaN,clock7-boat3.png,clock7-boat3.png,1.0,8.765674,5.0309258,2.6408656
alexnet2023_baseline_pgd,1,781,NaN,clock,clock,NaN,clock7-bottle2.png,clock7-bottle2.png,1.0,7.180945,4.8248115,1.6660379
alexnet2023_baseline_pgd,1,782,NaN,clock,clock,NaN,clock7-car1.png,clock7-car1.png,1.0,11.472846,4.8643007,4.6729474
alexnet2023_baseline_pgd,1,783,NaN,cat,clock,NaN,clock7-cat2.png,clock7-cat2.png,0.0,1.5941392,4.145222,-1.8038882
alexnet2023_baseline_pgd,1,784,NaN,clock,clock,NaN,clock7-dog2.png,clock7-dog2.png,1.0,7.791981,5.113733,1.8938076
alexnet2023_baseline_pgd,1,785,NaN,clock,clock,NaN,clock7-keyboard2.png,clock7-keyboard2.png,1.0,6.759041,4.7883234,1.3935077
alexnet2023_baseline_pgd,1,786,NaN,car,clock,NaN,clock7-truck3.png,clock7-truck3.png,0.0,5.720918,8.201005,-1.7536862
alexnet2023_baseline_pgd,1,787,NaN,car,clock,NaN,clock8-airplane2.png,clock8-airplane2.png,0.0,4.269396,5.4304757,-0.8210075
alexnet2023_baseline_pgd,1,788,NaN,elephant,clock,NaN,clock8-bear2.png,clock8-bear2.png,0.0,2.6793234,4.907747,-1.5757333
alexnet2023_baseline_pgd,1,789,NaN,clock,clock,NaN,clock8-boat1.png,clock8-boat1.png,1.0,6.4754653,3.672891,1.9817194
alexnet2023_baseline_pgd,1,790,NaN,elephant,clock,NaN,clock8-cat1.png,clock8-cat1.png,0.0,0.3753121,4.8404636,-3.157339
alexnet2023_baseline_pgd,1,791,NaN,clock,clock,NaN,clock8-chair2.png,clock8-chair2.png,1.0,8.840819,5.2918797,2.5094793
alexnet2023_baseline_pgd,1,792,NaN,clock,clock,NaN,clock8-keyboard1.png,clock8-keyboard1.png,1.0,6.1630187,4.2609954,1.3449336
alexnet2023_baseline_pgd,1,793,NaN,bicycle,clock,NaN,clock8-knife1.png,clock8-knife1.png,0.0,4.0100594,4.0397305,-0.0209807
alexnet2023_baseline_pgd,1,794,NaN,bottle,clock,NaN,clock8-oven3.png,clock8-oven3.png,0.0,6.138326,6.737124,-0.423414
alexnet2023_baseline_pgd,1,795,NaN,car,clock,NaN,clock8-truck2.png,clock8-truck2.png,0.0,2.7177944,5.5812936,-2.0247998
alexnet2023_baseline_pgd,1,796,NaN,clock,clock,NaN,clock9-airplane1.png,clock9-airplane1.png,1.0,11.5308275,3.4608283,5.7063518
alexnet2023_baseline_pgd,1,797,NaN,clock,clock,NaN,clock9-bird2.png,clock9-bird2.png,1.0,6.3780594,2.8539097,2.4919503
alexnet2023_baseline_pgd,1,798,NaN,cat,clock,NaN,clock9-cat1.png,clock9-cat1.png,0.0,0.9028942,5.957599,-3.5742164
alexnet2023_baseline_pgd,1,799,NaN,elephant,clock,NaN,clock9-chair3.png,clock9-chair3.png,0.0,3.526636,4.477195,-0.6721467
alexnet2023_baseline_pgd,1,800,NaN,clock,clock,NaN,clock9-keyboard2.png,clock9-keyboard2.png,1.0,7.437837,4.6976953,1.937573
alexnet2023_baseline_pgd,1,801,NaN,bottle,dog,NaN,dog1-airplane3.png,dog1-airplane3.png,0.0,-0.7364503,4.002745,-3.3511171
alexnet2023_baseline_pgd,1,802,NaN,elephant,dog,NaN,dog1-bear1.png,dog1-bear1.png,0.0,3.40051,8.0419655,-3.2820048
alexnet2023_baseline_pgd,1,803,NaN,bear,dog,NaN,dog1-bird1.png,dog1-bird1.png,0.0,2.8212247,3.1558633,-0.23662522
alexnet2023_baseline_pgd,1,804,NaN,clock,dog,NaN,dog1-boat3.png,dog1-boat3.png,0.0,-2.8077676,4.125857,-4.902813
alexnet2023_baseline_pgd,1,805,NaN,bicycle,dog,NaN,dog1-car2.png,dog1-car2.png,0.0,-0.47513545,3.3119392,-2.6778662
alexnet2023_baseline_pgd,1,806,NaN,dog,dog,NaN,dog1-cat3.png,dog1-cat3.png,1.0,3.846872,2.5737166,0.9002569
alexnet2023_baseline_pgd,1,807,NaN,clock,dog,NaN,dog1-chair1.png,dog1-chair1.png,0.0,-1.9862796,3.5383375,-3.9064944
alexnet2023_baseline_pgd,1,808,NaN,dog,dog,NaN,dog1-dog2.png,dog1-dog2.png,1.0,6.391928,2.378889,2.8376472
alexnet2023_baseline_pgd,1,809,NaN,knife,dog,NaN,dog1-knife3.png,dog1-knife3.png,0.0,-0.78848803,3.8356643,-3.2697694
alexnet2023_baseline_pgd,1,810,NaN,boat,dog,NaN,dog10-airplane1.png,dog10-airplane1.png,0.0,-2.0854797,3.7652981,-4.1371245
alexnet2023_baseline_pgd,1,811,NaN,bicycle,dog,NaN,dog10-bicycle1.png,dog10-bicycle1.png,0.0,1.687768,7.243913,-3.928788
alexnet2023_baseline_pgd,1,812,NaN,knife,dog,NaN,dog10-bottle1.png,dog10-bottle1.png,0.0,0.44410187,4.163657,-2.630123
alexnet2023_baseline_pgd,1,813,NaN,knife,dog,NaN,dog10-car3.png,dog10-car3.png,0.0,-2.0599296,4.821198,-4.8656917
alexnet2023_baseline_pgd,1,814,NaN,bottle,dog,NaN,dog10-clock1.png,dog10-clock1.png,0.0,-0.15771112,3.7035515,-2.730325
