subj,session,trial,rt,object_response,category,condition,imagename,filename,is_correct,targ_act,max_nontarg_act,decision_margin
alexnet,1,1,NaN,bicycle,airplane,NaN,airplane1-bicycle2.png,airplane1-bicycle2.png,0.0,-1.6951079,6.8871374,-6.0685635
alexnet,1,2,NaN,chair,airplane,NaN,airplane1-chair2.png,airplane1-chair2.png,0.0,-2.2420504,6.8882265,-6.4560804
alexnet,1,3,NaN,clock,airplane,NaN,airplane1-clock1.png,airplane1-clock1.png,0.0,-3.738842,4.1639667,-5.5881295
alexnet,1,4,NaN,elephant,airplane,NaN,airplane1-elephant1.png,airplane1-elephant1.png,0.0,-2.709869,6.5795555,-6.5686154
alexnet,1,5,NaN,airplane,airplane,NaN,airplane10-airplane1.png,airplane10-airplane1.png,1.0,9.264134,4.918432,3.0728755
alexnet,1,6,NaN,bear,airplane,NaN,airplane10-bear3.png,airplane10-bear3.png,0.0,-2.5236247,6.800742,-6.5933228
alexnet,1,7,NaN,truck,airplane,NaN,airplane10-boat3.png,airplane10-boat3.png,0.0,1.3897046,7.265232,-4.1546254
alexnet,1,8,NaN,car,airplane,NaN,airplane10-car3.png,airplane10-car3.png,0.0,-0.06028986,6.4636097,-4.613094
alexnet,1,9,NaN,cat,airplane,NaN,airplane10-cat2.png,airplane10-cat2.png,0.0,-4.633614,10.007688,-10.352964
alexnet,1,10,NaN,dog,airplane,NaN,airplane10-dog3.png,airplane10-dog3.png,0.0,-2.6474288,3.88832,-4.6214724
alexnet,1,11,NaN,elephant,airplane,NaN,airplane10-elephant1.png,airplane10-elephant1.png,0.0,-1.5195696,6.597804,-5.73985
alexnet,1,12,NaN,knife,airplane,NaN,airplane10-knife3.png,airplane10-knife3.png,0.0,0.9311834,11.02264,-7.1357374
alexnet,1,13,NaN,oven,airplane,NaN,airplane10-oven2.png,airplane10-oven2.png,0.0,5.211389,7.573019,-1.6699246
alexnet,1,14,NaN,car,airplane,NaN,airplane10-truck1.png,airplane10-truck1.png,0.0,3.7291198,10.528117,-4.807617
alexnet,1,15,NaN,cat,airplane,NaN,airplane2-bear1.png,airplane2-bear1.png,0.0,-3.1823888,8.364094,-8.164596
alexnet,1,16,NaN,bicycle,airplane,NaN,airplane2-bicycle1.png,airplane2-bicycle1.png,0.0,-2.7413282,10.1957855,-9.147921
alexnet,1,17,NaN,knife,airplane,NaN,airplane2-bird3.png,airplane2-bird3.png,0.0,0.7643293,4.272361,-2.480553
alexnet,1,18,NaN,clock,airplane,NaN,airplane2-bottle1.png,airplane2-bottle1.png,0.0,-2.2198198,5.625464,-5.5474534
alexnet,1,19,NaN,cat,airplane,NaN,airplane2-cat1.png,airplane2-cat1.png,0.0,-5.051352,7.3380065,-8.760599
alexnet,1,20,NaN,dog,airplane,NaN,airplane2-dog1.png,airplane2-dog1.png,0.0,-3.592621,3.2010093,-4.8038225
alexnet,1,21,NaN,airplane,airplane,NaN,airplane3-airplane2.png,airplane3-airplane2.png,1.0,5.049181,3.6094246,1.0180615
alexnet,1,22,NaN,bottle,airplane,NaN,airplane3-car1.png,airplane3-car1.png,0.0,-3.1840963,4.46469,-5.408509
alexnet,1,23,NaN,cat,airplane,NaN,airplane3-cat1.png,airplane3-cat1.png,0.0,-5.3534718,5.9281964,-7.977344
alexnet,1,24,NaN,airplane,airplane,NaN,airplane3-chair3.png,airplane3-chair3.png,1.0,8.365289,4.459324,2.7619343
alexnet,1,25,NaN,clock,airplane,NaN,airplane3-clock1.png,airplane3-clock1.png,0.0,-7.5100307,5.878979,-9.46746
alexnet,1,26,NaN,cat,airplane,NaN,airplane3-dog1.png,airplane3-dog1.png,0.0,-5.222051,5.0567155,-7.2681856
alexnet,1,27,NaN,elephant,airplane,NaN,airplane3-elephant1.png,airplane3-elephant1.png,0.0,-2.5831304,8.051645,-7.519922
alexnet,1,28,NaN,car,airplane,NaN,airplane3-keyboard2.png,airplane3-keyboard2.png,0.0,1.9619043,8.050037,-4.3049603
alexnet,1,29,NaN,airplane,airplane,NaN,airplane3-oven1.png,airplane3-oven1.png,1.0,5.2936916,4.592697,0.49567798
alexnet,1,30,NaN,keyboard,airplane,NaN,airplane4-airplane1.png,airplane4-airplane1.png,0.0,1.268176,3.7983966,-1.789136
alexnet,1,31,NaN,bear,airplane,NaN,airplane4-bear3.png,airplane4-bear3.png,0.0,-2.7069259,7.2393203,-7.033058
alexnet,1,32,NaN,bicycle,airplane,NaN,airplane4-bicycle2.png,airplane4-bicycle2.png,0.0,-2.348104,7.7332087,-7.1285644
alexnet,1,33,NaN,knife,airplane,NaN,airplane4-bird3.png,airplane4-bird3.png,0.0,2.3970773,5.262321,-2.0260332
alexnet,1,34,NaN,truck,airplane,NaN,airplane4-boat3.png,airplane4-boat3.png,0.0,1.2468367,5.1327033,-2.7477226
alexnet,1,35,NaN,clock,airplane,NaN,airplane4-bottle1.png,airplane4-bottle1.png,0.0,-2.761554,5.4989758,-5.8410764
alexnet,1,36,NaN,bicycle,airplane,NaN,airplane4-car1.png,airplane4-car1.png,0.0,-5.640316,3.5652328,-6.5093064
alexnet,1,37,NaN,cat,airplane,NaN,airplane4-cat3.png,airplane4-cat3.png,0.0,-3.0186107,3.6226177,-4.696058
alexnet,1,38,NaN,cat,airplane,NaN,airplane4-dog2.png,airplane4-dog2.png,0.0,-4.787409,4.511165,-6.575085
alexnet,1,39,NaN,elephant,airplane,NaN,airplane4-elephant1.png,airplane4-elephant1.png,0.0,-2.841477,7.71828,-7.466876
alexnet,1,40,NaN,car,airplane,NaN,airplane4-keyboard3.png,airplane4-keyboard3.png,0.0,4.513019,5.3066273,-0.56116575
alexnet,1,41,NaN,oven,airplane,NaN,airplane4-knife1.png,airplane4-knife1.png,0.0,-0.86066043,6.110072,-4.9290524
alexnet,1,42,NaN,car,airplane,NaN,airplane4-truck2.png,airplane4-truck2.png,0.0,0.42603868,5.223314,-3.3921857
alexnet,1,43,NaN,elephant,airplane,NaN,airplane5-bear2.png,airplane5-bear2.png,0.0,-2.1144526,8.765492,-7.693283
alexnet,1,44,NaN,bicycle,airplane,NaN,airplane5-bicycle1.png,airplane5-bicycle1.png,0.0,-1.2346532,11.331549,-8.885647
alexnet,1,45,NaN,knife,airplane,NaN,airplane5-bird2.png,airplane5-bird2.png,0.0,-0.18629873,4.0466194,-2.9931252
alexnet,1,46,NaN,truck,airplane,NaN,airplane5-boat3.png,airplane5-boat3.png,0.0,1.794049,4.1114388,-1.6386421
alexnet,1,47,NaN,bottle,airplane,NaN,airplane5-bottle3.png,airplane5-bottle3.png,0.0,-2.1108522,4.9825215,-5.015773
alexnet,1,48,NaN,airplane,airplane,NaN,airplane5-chair3.png,airplane5-chair3.png,1.0,8.715022,3.8036416,3.4728706
alexnet,1,49,NaN,dog,airplane,NaN,airplane5-dog3.png,airplane5-dog3.png,0.0,-2.7294078,4.6821775,-5.2407823
alexnet,1,50,NaN,knife,airplane,NaN,airplane5-knife1.png,airplane5-knife1.png,0.0,-0.85343283,4.6272087,-3.8753986
alexnet,1,51,NaN,chair,airplane,NaN,airplane5-oven3.png,airplane5-oven3.png,0.0,-0.56378216,5.90407,-4.573462
alexnet,1,52,NaN,bear,airplane,NaN,airplane6-bear3.png,airplane6-bear3.png,0.0,-3.5800674,6.146081,-6.8774257
alexnet,1,53,NaN,bottle,airplane,NaN,airplane6-bottle2.png,airplane6-bottle2.png,0.0,-4.325408,7.6043615,-8.435621
alexnet,1,54,NaN,airplane,airplane,NaN,airplane6-chair3.png,airplane6-chair3.png,1.0,7.868747,2.670465,3.6757407
alexnet,1,55,NaN,knife,airplane,NaN,airplane6-keyboard3.png,airplane6-keyboard3.png,0.0,3.035202,4.8752294,-1.3010958
alexnet,1,56,NaN,knife,airplane,NaN,airplane6-knife1.png,airplane6-knife1.png,0.0,-1.1317266,5.986835,-5.033583
alexnet,1,57,NaN,airplane,airplane,NaN,airplane7-airplane3.png,airplane7-airplane3.png,1.0,14.0575075,4.1880994,6.9787254
alexnet,1,58,NaN,knife,airplane,NaN,airplane7-bird3.png,airplane7-bird3.png,0.0,4.074005,4.5051484,-0.30486435
alexnet,1,59,NaN,car,airplane,NaN,airplane7-boat2.png,airplane7-boat2.png,0.0,2.7200837,5.1914577,-1.7475253
alexnet,1,60,NaN,bottle,airplane,NaN,airplane7-bottle3.png,airplane7-bottle3.png,0.0,-3.580419,6.430362,-7.0786915
alexnet,1,61,NaN,bicycle,airplane,NaN,airplane7-car1.png,airplane7-car1.png,0.0,-1.9610019,6.289084,-5.8336916
alexnet,1,62,NaN,cat,airplane,NaN,airplane7-cat3.png,airplane7-cat3.png,0.0,-1.694056,3.3170938,-3.5434182
alexnet,1,63,NaN,clock,airplane,NaN,airplane7-clock3.png,airplane7-clock3.png,0.0,-0.31446993,3.44693,-2.6597114
alexnet,1,64,NaN,airplane,airplane,NaN,airplane7-keyboard1.png,airplane7-keyboard1.png,1.0,4.5630326,2.0288327,1.79195
alexnet,1,65,NaN,car,airplane,NaN,airplane7-truck1.png,airplane7-truck1.png,0.0,1.8937013,9.352635,-5.274263
alexnet,1,66,NaN,knife,airplane,NaN,airplane8-bicycle3.png,airplane8-bicycle3.png,0.0,-4.6602592,3.1302762,-5.5087404
alexnet,1,67,NaN,cat,airplane,NaN,airplane8-bird1.png,airplane8-bird1.png,0.0,0.67959297,3.0422697,-1.6706647
alexnet,1,68,NaN,car,airplane,NaN,airplane8-chair1.png,airplane8-chair1.png,0.0,3.7639036,5.6629252,-1.3428111
alexnet,1,69,NaN,keyboard,airplane,NaN,airplane8-clock2.png,airplane8-clock2.png,0.0,3.02781,4.0494447,-0.7224048
alexnet,1,70,NaN,elephant,airplane,NaN,airplane8-elephant3.png,airplane8-elephant3.png,0.0,-4.2134295,8.0303335,-8.657648
alexnet,1,71,NaN,oven,airplane,NaN,airplane8-oven2.png,airplane8-oven2.png,0.0,4.627282,8.537792,-2.7651482
alexnet,1,72,NaN,bottle,airplane,NaN,airplane8-truck3.png,airplane8-truck3.png,0.0,4.286779,5.0955515,-0.57188857
alexnet,1,73,NaN,airplane,airplane,NaN,airplane9-airplane2.png,airplane9-airplane2.png,1.0,10.028821,6.8871956,2.2214646
alexnet,1,74,NaN,bicycle,airplane,NaN,airplane9-boat1.png,airplane9-boat1.png,0.0,3.54875,4.793533,-0.8801945
alexnet,1,75,NaN,bicycle,airplane,NaN,airplane9-car2.png,airplane9-car2.png,0.0,-4.1031795,6.8331013,-7.7331185
alexnet,1,76,NaN,clock,airplane,NaN,airplane9-clock1.png,airplane9-clock1.png,0.0,-3.7042592,4.6786046,-5.92758
alexnet,1,77,NaN,keyboard,airplane,NaN,airplane9-keyboard2.png,airplane9-keyboard2.png,0.0,2.776235,5.964051,-2.254126
alexnet,1,78,NaN,knife,airplane,NaN,airplane9-knife3.png,airplane9-knife3.png,0.0,-1.0883149,13.384245,-10.233645
alexnet,1,79,NaN,oven,airplane,NaN,airplane9-oven2.png,airplane9-oven2.png,0.0,5.2635946,9.2746525,-2.8362463
alexnet,1,80,NaN,car,airplane,NaN,airplane9-truck1.png,airplane9-truck1.png,0.0,1.1260529,9.679595,-6.048268
alexnet,1,81,NaN,airplane,bear,NaN,bear1-airplane3.png,bear1-airplane3.png,0.0,-1.3912182,5.033498,-4.54296
alexnet,1,82,NaN,bear,bear,NaN,bear1-bear3.png,bear1-bear3.png,1.0,8.884592,4.531606,3.0780258
alexnet,1,83,NaN,knife,bear,NaN,bear1-bicycle3.png,bear1-bicycle3.png,0.0,-3.3531394,4.1737432,-5.32231
alexnet,1,84,NaN,elephant,bear,NaN,bear1-bird2.png,bear1-bird2.png,0.0,1.7466314,5.9265747,-2.955666
alexnet,1,85,NaN,chair,bear,NaN,bear1-chair2.png,bear1-chair2.png,0.0,-2.6997125,6.719981,-6.6607294
alexnet,1,86,NaN,clock,bear,NaN,bear1-clock2.png,bear1-clock2.png,0.0,-4.965971,4.0281563,-6.3598084
alexnet,1,87,NaN,elephant,bear,NaN,bear1-elephant1.png,bear1-elephant1.png,0.0,-0.30604416,12.105988,-8.776632
alexnet,1,88,NaN,bear,bear,NaN,bear10-bear2.png,bear10-bear2.png,1.0,7.0309362,5.5461006,1.0499374
alexnet,1,89,NaN,clock,bear,NaN,bear10-bottle1.png,bear10-bottle1.png,0.0,-4.2347484,5.620926,-6.9690146
alexnet,1,90,NaN,bicycle,bear,NaN,bear10-car2.png,bear10-car2.png,0.0,-4.3183565,6.514925,-7.660287
alexnet,1,91,NaN,cat,bear,NaN,bear10-cat2.png,bear10-cat2.png,0.0,4.81793,9.456824,-3.2801936
alexnet,1,92,NaN,chair,bear,NaN,bear10-chair2.png,bear10-chair2.png,0.0,-4.472437,8.086639,-8.880609
alexnet,1,93,NaN,clock,bear,NaN,bear10-clock1.png,bear10-clock1.png,0.0,-5.3807516,6.3963113,-8.3276415
alexnet,1,94,NaN,elephant,bear,NaN,bear10-elephant1.png,bear10-elephant1.png,0.0,0.7920413,8.305646,-5.312921
alexnet,1,95,NaN,bottle,bear,NaN,bear10-keyboard3.png,bear10-keyboard3.png,0.0,-1.5775952,4.188741,-4.0774155
alexnet,1,96,NaN,oven,bear,NaN,bear10-knife2.png,bear10-knife2.png,0.0,-3.4220085,4.994731,-5.951534
alexnet,1,97,NaN,oven,bear,NaN,bear10-oven1.png,bear10-oven1.png,0.0,-4.029694,8.151545,-8.613437
alexnet,1,98,NaN,car,bear,NaN,bear10-truck1.png,bear10-truck1.png,0.0,-3.5460315,6.9770947,-7.440974
alexnet,1,99,NaN,knife,bear,NaN,bear2-airplane1.png,bear2-airplane1.png,0.0,-2.3152027,4.32261,-4.6936426
alexnet,1,100,NaN,elephant,bear,NaN,bear2-bird3.png,bear2-bird3.png,0.0,3.5709195,6.6891165,-2.2048984
alexnet,1,101,NaN,bicycle,bear,NaN,bear2-car2.png,bear2-car2.png,0.0,-4.704085,8.436202,-9.291587
alexnet,1,102,NaN,cat,bear,NaN,bear2-cat2.png,bear2-cat2.png,0.0,4.284528,8.357611,-2.8801045
alexnet,1,103,NaN,bear,bear,NaN,bear2-dog1.png,bear2-dog1.png,1.0,5.761136,4.847651,0.6459315
alexnet,1,104,NaN,elephant,bear,NaN,bear2-elephant1.png,bear2-elephant1.png,0.0,0.6128043,11.632153,-7.791856
alexnet,1,105,NaN,keyboard,bear,NaN,bear2-keyboard2.png,bear2-keyboard2.png,0.0,-2.546224,5.9667826,-6.0196047
alexnet,1,106,NaN,knife,bear,NaN,bear2-knife2.png,bear2-knife2.png,0.0,-3.0375957,6.2665067,-6.578994
alexnet,1,107,NaN,knife,bear,NaN,bear2-oven1.png,bear2-oven1.png,0.0,-3.9948378,8.768072,-9.02474
alexnet,1,108,NaN,airplane,bear,NaN,bear3-airplane1.png,bear3-airplane1.png,0.0,-2.122796,8.235176,-7.3241925
alexnet,1,109,NaN,bicycle,bear,NaN,bear3-bicycle2.png,bear3-bicycle2.png,0.0,-2.7068124,3.479963,-4.3747106
alexnet,1,110,NaN,oven,bear,NaN,bear3-bird3.png,bear3-bird3.png,0.0,-1.7777208,6.4345236,-5.8069334
alexnet,1,111,NaN,car,bear,NaN,bear3-car2.png,bear3-car2.png,0.0,-4.870826,5.694521,-7.4708285
alexnet,1,112,NaN,cat,bear,NaN,bear3-cat1.png,bear3-cat1.png,0.0,4.384519,4.9246135,-0.3819044
alexnet,1,113,NaN,chair,bear,NaN,bear3-chair2.png,bear3-chair2.png,0.0,-3.4591708,8.223072,-8.260593
alexnet,1,114,NaN,dog,bear,NaN,bear3-dog3.png,bear3-dog3.png,0.0,0.16810966,5.084954,-3.4767342
alexnet,1,115,NaN,keyboard,bear,NaN,bear3-keyboard2.png,bear3-keyboard2.png,0.0,-4.277997,6.7372227,-7.7889366
alexnet,1,116,NaN,bottle,bear,NaN,bear3-truck3.png,bear3-truck3.png,0.0,-3.1993766,4.913697,-5.7368093
alexnet,1,117,NaN,bicycle,bear,NaN,bear4-boat2.png,bear4-boat2.png,0.0,-4.3042045,7.235962,-8.1601305
alexnet,1,118,NaN,car,bear,NaN,bear4-car3.png,bear4-car3.png,0.0,-4.2359767,3.6156933,-5.5519695
alexnet,1,119,NaN,dog,bear,NaN,bear4-cat3.png,bear4-cat3.png,0.0,0.51438653,2.8130476,-1.625399
alexnet,1,120,NaN,bottle,bear,NaN,bear4-clock3.png,bear4-clock3.png,0.0,-4.6012793,2.646063,-5.1246448
alexnet,1,121,NaN,elephant,bear,NaN,bear4-elephant2.png,bear4-elephant2.png,0.0,1.8167515,11.933512,-7.15363
alexnet,1,122,NaN,car,bear,NaN,bear4-keyboard3.png,bear4-keyboard3.png,0.0,-2.6143546,5.020309,-5.3985224
alexnet,1,123,NaN,knife,bear,NaN,bear4-knife1.png,bear4-knife1.png,0.0,-3.7261868,4.8251724,-6.0467243
alexnet,1,124,NaN,oven,bear,NaN,bear4-oven2.png,bear4-oven2.png,0.0,0.40830028,6.674279,-4.430716
alexnet,1,125,NaN,truck,bear,NaN,bear4-truck3.png,bear4-truck3.png,0.0,-2.1760058,4.5476556,-4.754347
alexnet,1,126,NaN,airplane,bear,NaN,bear5-airplane3.png,bear5-airplane3.png,0.0,-0.38677317,5.5695095,-4.211728
alexnet,1,127,NaN,knife,bear,NaN,bear5-bicycle3.png,bear5-bicycle3.png,0.0,-2.9892454,4.7947073,-5.504086
alexnet,1,128,NaN,bird,bear,NaN,bear5-bird1.png,bear5-bird1.png,0.0,0.18015233,2.9888773,-1.9860685
alexnet,1,129,NaN,boat,bear,NaN,bear5-boat2.png,bear5-boat2.png,0.0,-3.3575835,5.731958,-6.4272766
alexnet,1,130,NaN,clock,bear,NaN,bear5-bottle1.png,bear5-bottle1.png,0.0,-4.786762,7.0890594,-8.397474
alexnet,1,131,NaN,clock,bear,NaN,bear5-chair1.png,bear5-chair1.png,0.0,-3.1950793,5.3481994,-6.0410104
alexnet,1,132,NaN,knife,bear,NaN,bear5-oven3.png,bear5-oven3.png,0.0,-2.504294,6.470734,-6.3463035
alexnet,1,133,NaN,bear,bear,NaN,bear6-bear1.png,bear6-bear1.png,1.0,8.153584,7.905985,0.17507869
alexnet,1,134,NaN,elephant,bear,NaN,bear6-bird2.png,bear6-bird2.png,0.0,4.1638837,5.915313,-1.2384474
alexnet,1,135,NaN,clock,bear,NaN,bear6-boat3.png,bear6-boat3.png,0.0,-3.8605447,4.0658417,-5.6048017
alexnet,1,136,NaN,bottle,bear,NaN,bear6-bottle3.png,bear6-bottle3.png,0.0,-3.1573396,7.2115583,-7.3319187
alexnet,1,137,NaN,bicycle,bear,NaN,bear6-car2.png,bear6-car2.png,0.0,-4.3577003,7.211298,-8.180517
alexnet,1,138,NaN,cat,bear,NaN,bear6-cat3.png,bear6-cat3.png,0.0,-1.8477129,4.196956,-4.2742267
alexnet,1,139,NaN,car,bear,NaN,bear6-chair1.png,bear6-chair1.png,0.0,-4.9630995,6.223549,-7.910155
alexnet,1,140,NaN,bottle,bear,NaN,bear6-clock1.png,bear6-clock1.png,0.0,-7.2125063,8.692226,-11.246345
alexnet,1,141,NaN,bear,bear,NaN,bear7-bear2.png,bear7-bear2.png,1.0,7.3205156,5.187669,1.5081505
alexnet,1,142,NaN,bicycle,bear,NaN,bear7-bicycle2.png,bear7-bicycle2.png,0.0,-3.0559,5.606443,-6.1252017
alexnet,1,143,NaN,clock,bear,NaN,bear7-clock1.png,bear7-clock1.png,0.0,-5.691761,5.8616233,-8.1694765
alexnet,1,144,NaN,dog,bear,NaN,bear7-dog3.png,bear7-dog3.png,0.0,1.4393895,3.6494155,-1.5627245
alexnet,1,145,NaN,oven,bear,NaN,bear7-oven3.png,bear7-oven3.png,0.0,-3.3812842,7.4482436,-7.657633
alexnet,1,146,NaN,car,bear,NaN,bear7-truck1.png,bear7-truck1.png,0.0,-4.8931293,6.216788,-7.8558974
alexnet,1,147,NaN,knife,bear,NaN,bear8-airplane1.png,bear8-airplane1.png,0.0,-2.3049047,3.4340525,-4.058056
alexnet,1,148,NaN,bear,bear,NaN,bear8-bear1.png,bear8-bear1.png,1.0,8.992093,7.3401046,1.1681323
alexnet,1,149,NaN,knife,bear,NaN,bear8-bicycle3.png,bear8-bicycle3.png,0.0,-4.5023766,6.2264047,-7.586394
alexnet,1,150,NaN,bicycle,bear,NaN,bear8-boat2.png,bear8-boat2.png,0.0,-4.7101135,6.8887987,-8.20167
alexnet,1,151,NaN,clock,bear,NaN,bear8-bottle1.png,bear8-bottle1.png,0.0,-3.8909733,3.9799442,-5.565579
alexnet,1,152,NaN,bear,bear,NaN,bear8-dog1.png,bear8-dog1.png,1.0,6.915175,5.8839555,0.7291823
alexnet,1,153,NaN,elephant,bear,NaN,bear8-elephant2.png,bear8-elephant2.png,0.0,0.122020274,12.303773,-8.6138
alexnet,1,154,NaN,knife,bear,NaN,bear8-knife3.png,bear8-knife3.png,0.0,-5.022407,5.672053,-7.562125
alexnet,1,155,NaN,truck,bear,NaN,bear8-truck3.png,bear8-truck3.png,0.0,-2.8750753,4.5878763,-5.277104
alexnet,1,156,NaN,boat,bear,NaN,bear9-boat2.png,bear9-boat2.png,0.0,-4.5305624,6.0916977,-7.511072
alexnet,1,157,NaN,bottle,bear,NaN,bear9-bottle2.png,bear9-bottle2.png,0.0,-4.031467,6.1640105,-7.2092915
alexnet,1,158,NaN,bear,bear,NaN,bear9-dog1.png,bear9-dog1.png,1.0,7.315816,6.9247212,0.2765457
alexnet,1,159,NaN,keyboard,bear,NaN,bear9-keyboard3.png,bear9-keyboard3.png,0.0,-2.8036273,9.260064,-8.530318
alexnet,1,160,NaN,oven,bear,NaN,bear9-knife2.png,bear9-knife2.png,0.0,-2.5067508,6.522547,-6.384678
alexnet,1,161,NaN,bicycle,bicycle,NaN,bicycle1-airplane2.png,bicycle1-airplane2.png,1.0,9.306669,6.1782875,2.2121
alexnet,1,162,NaN,cat,bicycle,NaN,bicycle1-bear1.png,bicycle1-bear1.png,0.0,0.4552102,5.526854,-3.5861938
alexnet,1,163,NaN,bicycle,bicycle,NaN,bicycle1-bicycle3.png,bicycle1-bicycle3.png,1.0,13.065303,4.4085865,6.121223
alexnet,1,164,NaN,bottle,bicycle,NaN,bicycle1-bird1.png,bicycle1-bird1.png,0.0,-0.25030375,2.7630177,-2.13074
alexnet,1,165,NaN,car,bicycle,NaN,bicycle1-boat3.png,bicycle1-boat3.png,0.0,4.5505514,4.8122,-0.18501355
alexnet,1,166,NaN,bicycle,bicycle,NaN,bicycle1-bottle3.png,bicycle1-bottle3.png,1.0,15.657536,7.1737366,5.998952
alexnet,1,167,NaN,clock,bicycle,NaN,bicycle1-chair1.png,bicycle1-chair1.png,0.0,4.661388,4.6724734,-0.007838639
alexnet,1,168,NaN,bicycle,bicycle,NaN,bicycle1-clock3.png,bicycle1-clock3.png,1.0,13.800615,7.964167,4.126992
alexnet,1,169,NaN,cat,bicycle,NaN,bicycle1-dog3.png,bicycle1-dog3.png,0.0,-1.3829663,2.9938114,-3.094849
alexnet,1,170,NaN,elephant,bicycle,NaN,bicycle1-elephant2.png,bicycle1-elephant2.png,0.0,-0.08768234,9.677579,-6.9050827
alexnet,1,171,NaN,knife,bicycle,NaN,bicycle1-knife3.png,bicycle1-knife3.png,0.0,-1.6018327,6.7584724,-5.9116282
alexnet,1,172,NaN,knife,bicycle,NaN,bicycle1-oven1.png,bicycle1-oven1.png,0.0,-0.32500637,11.296211,-8.217442
alexnet,1,173,NaN,car,bicycle,NaN,bicycle1-truck1.png,bicycle1-truck1.png,0.0,7.024469,10.652017,-2.5650637
alexnet,1,174,NaN,bicycle,bicycle,NaN,bicycle10-airplane2.png,bicycle10-airplane2.png,1.0,7.677895,5.6991196,1.3992056
alexnet,1,175,NaN,bicycle,bicycle,NaN,bicycle10-boat3.png,bicycle10-boat3.png,1.0,7.8949966,5.3537445,1.7969366
alexnet,1,176,NaN,bicycle,bicycle,NaN,bicycle10-clock2.png,bicycle10-clock2.png,1.0,11.658241,5.7089043,4.2068167
alexnet,1,177,NaN,dog,bicycle,NaN,bicycle10-dog3.png,bicycle10-dog3.png,0.0,-2.601324,4.5508304,-5.057337
alexnet,1,178,NaN,elephant,bicycle,NaN,bicycle10-elephant2.png,bicycle10-elephant2.png,0.0,-0.5390806,8.734042,-6.557088
alexnet,1,179,NaN,bicycle,bicycle,NaN,bicycle2-bicycle1.png,bicycle2-bicycle1.png,1.0,15.495803,5.409997,7.131742
alexnet,1,180,NaN,knife,bicycle,NaN,bicycle2-bird3.png,bicycle2-bird3.png,0.0,-0.9170016,4.084322,-3.53647
alexnet,1,181,NaN,bicycle,bicycle,NaN,bicycle2-bottle1.png,bicycle2-bottle1.png,1.0,6.294302,5.3062897,0.6986302
alexnet,1,182,NaN,bicycle,bicycle,NaN,bicycle2-car2.png,bicycle2-car2.png,1.0,9.796001,6.645558,2.2277
alexnet,1,183,NaN,cat,bicycle,NaN,bicycle2-dog1.png,bicycle2-dog1.png,0.0,-2.1352968,6.148624,-5.8576164
alexnet,1,184,NaN,clock,bicycle,NaN,bicycle2-keyboard2.png,bicycle2-keyboard2.png,0.0,0.9806133,5.100215,-2.9129984
alexnet,1,185,NaN,oven,bicycle,NaN,bicycle2-knife2.png,bicycle2-knife2.png,0.0,3.3922503,7.3435574,-2.793996
alexnet,1,186,NaN,bottle,bicycle,NaN,bicycle3-bird1.png,bicycle3-bird1.png,0.0,1.369392,1.8175642,-0.31690562
alexnet,1,187,NaN,elephant,bicycle,NaN,bicycle3-elephant2.png,bicycle3-elephant2.png,0.0,-1.3502072,10.000862,-8.026419
alexnet,1,188,NaN,bicycle,bicycle,NaN,bicycle3-keyboard1.png,bicycle3-keyboard1.png,1.0,7.5987864,3.991314,2.5508683
alexnet,1,189,NaN,chair,bicycle,NaN,bicycle3-oven3.png,bicycle3-oven3.png,0.0,0.28751314,6.253061,-4.2182794
alexnet,1,190,NaN,truck,bicycle,NaN,bicycle3-truck3.png,bicycle3-truck3.png,0.0,0.9482877,4.922313,-2.8100605
alexnet,1,191,NaN,bicycle,bicycle,NaN,bicycle4-airplane1.png,bicycle4-airplane1.png,1.0,6.0699253,5.4273996,0.45433426
alexnet,1,192,NaN,bicycle,bicycle,NaN,bicycle4-bicycle3.png,bicycle4-bicycle3.png,1.0,14.426743,4.0445147,7.341344
alexnet,1,193,NaN,bicycle,bicycle,NaN,bicycle4-boat1.png,bicycle4-boat1.png,1.0,9.887338,4.316701,3.9390352
alexnet,1,194,NaN,bicycle,bicycle,NaN,bicycle4-bottle1.png,bicycle4-bottle1.png,1.0,6.6664524,6.1019235,0.39918226
alexnet,1,195,NaN,bicycle,bicycle,NaN,bicycle4-car2.png,bicycle4-car2.png,1.0,13.04392,4.6350803,5.945947
alexnet,1,196,NaN,dog,bicycle,NaN,bicycle4-cat1.png,bicycle4-cat1.png,0.0,-2.8518538,2.9574306,-4.1077843
alexnet,1,197,NaN,chair,bicycle,NaN,bicycle4-chair2.png,bicycle4-chair2.png,0.0,4.610859,8.1911,-2.5316129
alexnet,1,198,NaN,bicycle,bicycle,NaN,bicycle4-clock3.png,bicycle4-clock3.png,1.0,9.525171,7.1624,1.6707318
alexnet,1,199,NaN,bottle,bicycle,NaN,bicycle4-keyboard3.png,bicycle4-keyboard3.png,0.0,-1.1437668,5.5312696,-4.7199636
alexnet,1,200,NaN,knife,bicycle,NaN,bicycle4-knife3.png,bicycle4-knife3.png,0.0,0.7957194,7.042048,-4.416821
alexnet,1,201,NaN,knife,bicycle,NaN,bicycle4-oven3.png,bicycle4-oven3.png,0.0,0.19645426,5.394779,-3.675771
alexnet,1,202,NaN,bottle,bicycle,NaN,bicycle4-truck3.png,bicycle4-truck3.png,0.0,1.0771842,4.96687,-2.7504232
alexnet,1,203,NaN,elephant,bicycle,NaN,bicycle5-bear1.png,bicycle5-bear1.png,0.0,-2.0315275,4.9608293,-4.944343
alexnet,1,204,NaN,bicycle,bicycle,NaN,bicycle5-bottle3.png,bicycle5-bottle3.png,1.0,10.998383,5.398868,3.9594548
alexnet,1,205,NaN,bicycle,bicycle,NaN,bicycle5-car3.png,bicycle5-car3.png,1.0,8.423053,4.546851,2.7408886
alexnet,1,206,NaN,cat,bicycle,NaN,bicycle5-cat1.png,bicycle5-cat1.png,0.0,-3.1984448,3.352355,-4.632115
alexnet,1,207,NaN,chair,bicycle,NaN,bicycle5-chair2.png,bicycle5-chair2.png,0.0,3.9176955,5.313863,-0.98723936
alexnet,1,208,NaN,cat,bicycle,NaN,bicycle5-dog2.png,bicycle5-dog2.png,0.0,-2.3272824,5.804931,-5.7503433
alexnet,1,209,NaN,elephant,bicycle,NaN,bicycle5-elephant1.png,bicycle5-elephant1.png,0.0,4.2207704,4.2498126,-0.020535968
alexnet,1,210,NaN,bottle,bicycle,NaN,bicycle5-keyboard3.png,bicycle5-keyboard3.png,0.0,-0.8587533,3.4456112,-3.0436456
alexnet,1,211,NaN,chair,bicycle,NaN,bicycle5-oven3.png,bicycle5-oven3.png,0.0,1.000767,5.1310344,-2.9205399
alexnet,1,212,NaN,airplane,bicycle,NaN,bicycle6-airplane2.png,bicycle6-airplane2.png,0.0,3.454165,6.698673,-2.2942135
alexnet,1,213,NaN,bicycle,bicycle,NaN,bicycle6-bicycle3.png,bicycle6-bicycle3.png,1.0,8.040876,3.9271865,2.908818
alexnet,1,214,NaN,bicycle,bicycle,NaN,bicycle6-boat2.png,bicycle6-boat2.png,1.0,8.431808,5.4225616,2.1278589
alexnet,1,215,NaN,bicycle,bicycle,NaN,bicycle6-car2.png,bicycle6-car2.png,1.0,6.828956,5.9773498,0.60217667
alexnet,1,216,NaN,cat,bicycle,NaN,bicycle6-cat1.png,bicycle6-cat1.png,0.0,-5.1974635,3.7878783,-6.353596
alexnet,1,217,NaN,cat,bicycle,NaN,bicycle6-dog2.png,bicycle6-dog2.png,0.0,-1.9599583,5.34161,-5.162988
alexnet,1,218,NaN,elephant,bicycle,NaN,bicycle7-bear2.png,bicycle7-bear2.png,0.0,1.2093387,9.54269,-5.892569
alexnet,1,219,NaN,bicycle,bicycle,NaN,bicycle7-bicycle2.png,bicycle7-bicycle2.png,1.0,17.190084,3.8308785,9.446385
alexnet,1,220,NaN,oven,bicycle,NaN,bicycle7-cat1.png,bicycle7-cat1.png,0.0,-3.0855136,3.7167695,-4.809941
alexnet,1,221,NaN,bicycle,bicycle,NaN,bicycle7-clock3.png,bicycle7-clock3.png,1.0,14.465361,8.7087145,4.070564
alexnet,1,222,NaN,elephant,bicycle,NaN,bicycle7-elephant2.png,bicycle7-elephant2.png,0.0,-0.33932236,9.52203,-6.973029
alexnet,1,223,NaN,bicycle,bicycle,NaN,bicycle7-knife2.png,bicycle7-knife2.png,1.0,7.047332,5.739912,0.9244854
alexnet,1,224,NaN,knife,bicycle,NaN,bicycle7-oven1.png,bicycle7-oven1.png,0.0,1.1183885,9.388496,-5.84785
alexnet,1,225,NaN,clock,bicycle,NaN,bicycle7-truck3.png,bicycle7-truck3.png,0.0,4.867046,7.09223,-1.5734427
alexnet,1,226,NaN,elephant,bicycle,NaN,bicycle8-bear2.png,bicycle8-bear2.png,0.0,0.09620255,6.0047975,-4.1780076
alexnet,1,227,NaN,bicycle,bicycle,NaN,bicycle8-bird2.png,bicycle8-bird2.png,1.0,12.463488,3.8158329,6.114815
alexnet,1,228,NaN,bicycle,bicycle,NaN,bicycle8-boat1.png,bicycle8-boat1.png,1.0,9.507612,4.4632244,3.566921
alexnet,1,229,NaN,chair,bicycle,NaN,bicycle8-chair2.png,bicycle8-chair2.png,0.0,6.939549,6.9401503,-0.00042517742
alexnet,1,230,NaN,bicycle,bicycle,NaN,bicycle8-clock3.png,bicycle8-clock3.png,1.0,11.562227,6.6277184,3.4892247
alexnet,1,231,NaN,car,bicycle,NaN,bicycle8-truck1.png,bicycle8-truck1.png,0.0,4.2388463,8.313072,-2.8809128
alexnet,1,232,NaN,bicycle,bicycle,NaN,bicycle9-airplane2.png,bicycle9-airplane2.png,1.0,8.248293,7.3049474,0.66704607
alexnet,1,233,NaN,elephant,bicycle,NaN,bicycle9-bear1.png,bicycle9-bear1.png,0.0,-1.1836175,5.1328096,-4.4663887
alexnet,1,234,NaN,bicycle,bicycle,NaN,bicycle9-bird3.png,bicycle9-bird3.png,1.0,5.4913898,4.022675,1.0385381
alexnet,1,235,NaN,bicycle,bicycle,NaN,bicycle9-bottle1.png,bicycle9-bottle1.png,1.0,7.1484175,5.4710865,1.1860521
alexnet,1,236,NaN,bicycle,bicycle,NaN,bicycle9-car1.png,bicycle9-car1.png,1.0,13.54714,4.4531903,6.430394
alexnet,1,237,NaN,cat,bicycle,NaN,bicycle9-cat3.png,bicycle9-cat3.png,0.0,-1.3330363,3.726569,-3.577681
alexnet,1,238,NaN,car,bicycle,NaN,bicycle9-chair1.png,bicycle9-chair1.png,0.0,5.1632648,6.6291595,-1.0365441
alexnet,1,239,NaN,car,bicycle,NaN,bicycle9-keyboard3.png,bicycle9-keyboard3.png,0.0,-1.7463927,6.667212,-5.949317
alexnet,1,240,NaN,knife,bicycle,NaN,bicycle9-knife3.png,bicycle9-knife3.png,0.0,-2.7902389,9.040296,-8.365451
alexnet,1,241,NaN,car,bird,NaN,bird1-airplane2.png,bird1-airplane2.png,0.0,-0.1527321,6.499208,-4.703632
alexnet,1,242,NaN,bear,bird,NaN,bird1-bear1.png,bird1-bear1.png,0.0,1.3291677,6.0437307,-3.3336995
alexnet,1,243,NaN,bicycle,bird,NaN,bird1-bicycle2.png,bird1-bicycle2.png,0.0,2.2895617,11.202805,-6.302614
alexnet,1,244,NaN,boat,bird,NaN,bird1-boat1.png,bird1-boat1.png,0.0,-1.2661228,3.9767308,-3.7072575
alexnet,1,245,NaN,chair,bird,NaN,bird1-chair2.png,bird1-chair2.png,0.0,-3.4680932,6.0069914,-6.6998963
alexnet,1,246,NaN,clock,bird,NaN,bird1-clock3.png,bird1-clock3.png,0.0,-3.4614434,4.60251,-5.7020764
alexnet,1,247,NaN,elephant,bird,NaN,bird1-elephant2.png,bird1-elephant2.png,0.0,-0.8568806,14.41008,-10.795371
alexnet,1,248,NaN,knife,bird,NaN,bird1-keyboard3.png,bird1-keyboard3.png,0.0,-1.6663117,4.575377,-4.4135404
alexnet,1,249,NaN,knife,bird,NaN,bird1-knife3.png,bird1-knife3.png,0.0,0.50825834,5.1504035,-3.2824924
alexnet,1,250,NaN,oven,bird,NaN,bird1-oven1.png,bird1-oven1.png,0.0,-1.4593511,8.011268,-6.696739
alexnet,1,251,NaN,car,bird,NaN,bird1-truck1.png,bird1-truck1.png,0.0,-3.2344043,5.929647,-6.479963
alexnet,1,252,NaN,elephant,bird,NaN,bird10-bear2.png,bird10-bear2.png,0.0,2.060577,9.414436,-5.199964
alexnet,1,253,NaN,bicycle,bird,NaN,bird10-bicycle1.png,bird10-bicycle1.png,0.0,-2.2729003,10.58651,-9.092977
alexnet,1,254,NaN,elephant,bird,NaN,bird10-bird2.png,bird10-bird2.png,0.0,3.3080945,4.428795,-0.79245484
alexnet,1,255,NaN,dog,bird,NaN,bird10-cat1.png,bird10-cat1.png,0.0,-0.44056383,3.367053,-2.6923919
alexnet,1,256,NaN,car,bird,NaN,bird10-chair1.png,bird10-chair1.png,0.0,-4.4011097,7.4972615,-8.413419
alexnet,1,257,NaN,bicycle,bird,NaN,bird10-clock1.png,bird10-clock1.png,0.0,-3.2103405,6.8374243,-7.1048427
alexnet,1,258,NaN,elephant,bird,NaN,bird10-elephant2.png,bird10-elephant2.png,0.0,-0.4546738,14.985886,-10.918124
alexnet,1,259,NaN,airplane,bird,NaN,bird2-airplane3.png,bird2-airplane3.png,0.0,-2.0047789,4.768189,-4.7892118
alexnet,1,260,NaN,elephant,bird,NaN,bird2-bird2.png,bird2-bird2.png,0.0,1.5830983,4.534795,-2.0871646
alexnet,1,261,NaN,car,bird,NaN,bird2-car3.png,bird2-car3.png,0.0,-2.650662,4.894568,-5.3352833
alexnet,1,262,NaN,clock,bird,NaN,bird2-clock3.png,bird2-clock3.png,0.0,-3.4546947,4.626543,-5.7142982
alexnet,1,263,NaN,cat,bird,NaN,bird2-dog2.png,bird2-dog2.png,0.0,0.528045,3.9563293,-2.424163
alexnet,1,264,NaN,bicycle,bird,NaN,bird2-knife1.png,bird2-knife1.png,0.0,-3.6588988,6.6124406,-7.2629337
alexnet,1,265,NaN,bear,bird,NaN,bird3-bear3.png,bird3-bear3.png,0.0,1.8564606,9.146568,-5.154885
alexnet,1,266,NaN,elephant,bird,NaN,bird3-bird2.png,bird3-bird2.png,0.0,3.8445604,4.804628,-0.67887026
alexnet,1,267,NaN,chair,bird,NaN,bird3-boat3.png,bird3-boat3.png,0.0,-2.2654583,3.5886674,-4.139492
alexnet,1,268,NaN,bicycle,bird,NaN,bird3-bottle2.png,bird3-bottle2.png,0.0,-2.309085,5.9372225,-5.83102
alexnet,1,269,NaN,cat,bird,NaN,bird3-cat1.png,bird3-cat1.png,0.0,-0.3402861,5.3334374,-4.0119286
alexnet,1,270,NaN,bear,bird,NaN,bird3-dog1.png,bird3-dog1.png,0.0,0.4949562,5.8931084,-3.8170702
alexnet,1,271,NaN,knife,bird,NaN,bird3-knife3.png,bird3-knife3.png,0.0,-1.9557695,5.9769096,-5.6092515
alexnet,1,272,NaN,knife,bird,NaN,bird3-oven1.png,bird3-oven1.png,0.0,-1.882461,7.3496194,-6.5280666
alexnet,1,273,NaN,bottle,bird,NaN,bird3-truck3.png,bird3-truck3.png,0.0,-2.6226509,5.6119804,-5.822764
alexnet,1,274,NaN,knife,bird,NaN,bird4-airplane1.png,bird4-airplane1.png,0.0,-1.5005479,6.7697105,-5.8479557
alexnet,1,275,NaN,bicycle,bird,NaN,bird4-bicycle2.png,bird4-bicycle2.png,0.0,1.2893096,5.911191,-3.2681637
alexnet,1,276,NaN,cat,bird,NaN,bird4-cat3.png,bird4-cat3.png,0.0,-0.7074257,4.023952,-3.3455892
alexnet,1,277,NaN,clock,bird,NaN,bird4-clock1.png,bird4-clock1.png,0.0,-4.166017,5.5820546,-6.8929276
alexnet,1,278,NaN,dog,bird,NaN,bird4-dog3.png,bird4-dog3.png,0.0,0.78898925,4.7960114,-2.8333929
alexnet,1,279,NaN,airplane,bird,NaN,bird5-airplane3.png,bird5-airplane3.png,0.0,-0.91328204,5.8217998,-4.762422
alexnet,1,280,NaN,cat,bird,NaN,bird5-bear3.png,bird5-bear3.png,0.0,2.7019875,5.254536,-1.8049245
alexnet,1,281,NaN,bicycle,bird,NaN,bird5-bicycle1.png,bird5-bicycle1.png,0.0,-0.5810312,7.1137505,-5.4410324
alexnet,1,282,NaN,airplane,bird,NaN,bird5-bird1.png,bird5-bird1.png,0.0,2.5338588,2.6534128,-0.08453748
alexnet,1,283,NaN,bicycle,bird,NaN,bird5-car2.png,bird5-car2.png,0.0,-1.6333054,7.928973,-6.7615523
alexnet,1,284,NaN,cat,bird,NaN,bird5-cat2.png,bird5-cat2.png,0.0,1.5884053,9.8805275,-5.8634157
alexnet,1,285,NaN,car,bird,NaN,bird5-chair1.png,bird5-chair1.png,0.0,-4.092633,8.57772,-8.959292
alexnet,1,286,NaN,cat,bird,NaN,bird5-dog2.png,bird5-dog2.png,0.0,1.6899755,4.770861,-2.1785152
alexnet,1,287,NaN,car,bird,NaN,bird5-keyboard2.png,bird5-keyboard2.png,0.0,-2.6459098,6.333013,-6.349057
alexnet,1,288,NaN,chair,bird,NaN,bird5-oven3.png,bird5-oven3.png,0.0,-3.3341856,6.0114546,-6.6083655
alexnet,1,289,NaN,car,bird,NaN,bird5-truck2.png,bird5-truck2.png,0.0,-2.7436888,5.4198394,-5.772486
alexnet,1,290,NaN,airplane,bird,NaN,bird6-airplane2.png,bird6-airplane2.png,0.0,-0.12792026,5.9731464,-4.3141055
alexnet,1,291,NaN,boat,bird,NaN,bird6-boat2.png,bird6-boat2.png,0.0,-3.224712,6.8875756,-7.1504674
alexnet,1,292,NaN,bottle,bird,NaN,bird6-bottle3.png,bird6-bottle3.png,0.0,-2.0923128,4.9822946,-5.002503
alexnet,1,293,NaN,car,bird,NaN,bird6-car3.png,bird6-car3.png,0.0,-3.0145602,4.329904,-5.1933208
alexnet,1,294,NaN,elephant,bird,NaN,bird6-elephant2.png,bird6-elephant2.png,0.0,-0.49195772,14.628966,-10.692108
alexnet,1,295,NaN,knife,bird,NaN,bird6-oven1.png,bird6-oven1.png,0.0,-0.945863,9.4091425,-7.3220944
alexnet,1,296,NaN,car,bird,NaN,bird6-truck2.png,bird6-truck2.png,0.0,-3.7104104,6.663897,-7.3357434
alexnet,1,297,NaN,elephant,bird,NaN,bird7-bird2.png,bird7-bird2.png,0.0,2.6729596,6.225232,-2.511836
alexnet,1,298,NaN,boat,bird,NaN,bird7-boat1.png,bird7-boat1.png,0.0,-2.4954424,6.352839,-6.25668
alexnet,1,299,NaN,clock,bird,NaN,bird7-bottle1.png,bird7-bottle1.png,0.0,-2.5341682,7.5000324,-7.0952516
alexnet,1,300,NaN,bicycle,bird,NaN,bird7-car2.png,bird7-car2.png,0.0,-1.9167668,7.9424496,-6.971519
alexnet,1,301,NaN,dog,bird,NaN,bird7-cat3.png,bird7-cat3.png,0.0,0.8316557,2.3977952,-1.1074278
alexnet,1,302,NaN,keyboard,bird,NaN,bird7-keyboard3.png,bird7-keyboard3.png,0.0,-0.4707746,3.4598982,-2.7794056
alexnet,1,303,NaN,oven,bird,NaN,bird7-knife2.png,bird7-knife2.png,0.0,-0.6747318,6.240115,-4.8895354
alexnet,1,304,NaN,chair,bird,NaN,bird7-oven3.png,bird7-oven3.png,0.0,-3.349605,6.868312,-7.225158
alexnet,1,305,NaN,car,bird,NaN,bird7-truck2.png,bird7-truck2.png,0.0,-2.1147099,5.624535,-5.4724727
alexnet,1,306,NaN,chair,bird,NaN,bird8-boat3.png,bird8-boat3.png,0.0,-3.2942688,4.893891,-5.7899036
alexnet,1,307,NaN,clock,bird,NaN,bird8-bottle1.png,bird8-bottle1.png,0.0,-2.1673594,5.6528473,-5.5297213
alexnet,1,308,NaN,bicycle,bird,NaN,bird8-car2.png,bird8-car2.png,0.0,-2.0673342,9.461132,-8.151856
alexnet,1,309,NaN,car,bird,NaN,bird8-chair1.png,bird8-chair1.png,0.0,-4.140509,6.921018,-7.821681
alexnet,1,310,NaN,clock,bird,NaN,bird8-clock1.png,bird8-clock1.png,0.0,-4.8393135,6.845262,-8.262243
alexnet,1,311,NaN,elephant,bird,NaN,bird8-elephant1.png,bird8-elephant1.png,0.0,-0.0014840815,7.5281878,-5.324282
alexnet,1,312,NaN,keyboard,bird,NaN,bird8-keyboard2.png,bird8-keyboard2.png,0.0,-2.7412841,4.221557,-4.9234724
alexnet,1,313,NaN,oven,bird,NaN,bird8-knife2.png,bird8-knife2.png,0.0,-1.5304809,7.3773766,-6.2988067
alexnet,1,314,NaN,bear,bird,NaN,bird9-bear3.png,bird9-bear3.png,0.0,2.4800107,7.743889,-3.7221239
alexnet,1,315,NaN,knife,bird,NaN,bird9-bicycle3.png,bird9-bicycle3.png,0.0,-2.096366,4.8069606,-4.881389
alexnet,1,316,NaN,bottle,bird,NaN,bird9-bottle3.png,bird9-bottle3.png,0.0,-0.8920716,4.4731283,-3.7937694
alexnet,1,317,NaN,bicycle,bird,NaN,bird9-chair1.png,bird9-chair1.png,0.0,-2.895358,4.317801,-5.100474
alexnet,1,318,NaN,cat,bird,NaN,bird9-dog2.png,bird9-dog2.png,0.0,1.1177382,4.1895776,-2.1721184
alexnet,1,319,NaN,elephant,bird,NaN,bird9-elephant2.png,bird9-elephant2.png,0.0,-0.7795418,15.045652,-11.190103
alexnet,1,320,NaN,chair,bird,NaN,bird9-keyboard1.png,bird9-keyboard1.png,0.0,-1.8277426,2.6301527,-3.152208
alexnet,1,321,NaN,bear,boat,NaN,boat1-bear1.png,boat1-bear1.png,0.0,-2.529264,7.409296,-7.0276237
alexnet,1,322,NaN,bicycle,boat,NaN,boat1-bicycle2.png,boat1-bicycle2.png,0.0,-0.63564575,5.108496,-4.061722
alexnet,1,323,NaN,oven,boat,NaN,boat1-bird3.png,boat1-bird3.png,0.0,1.2189972,8.386301,-5.0680494
alexnet,1,324,NaN,car,boat,NaN,boat1-car2.png,boat1-car2.png,0.0,1.7587068,8.4002,-4.6962447
alexnet,1,325,NaN,airplane,boat,NaN,boat1-chair3.png,boat1-chair3.png,0.0,1.7158811,8.409886,-4.7333765
alexnet,1,326,NaN,elephant,boat,NaN,boat1-elephant3.png,boat1-elephant3.png,0.0,-1.5002527,7.0938435,-6.076944
alexnet,1,327,NaN,car,boat,NaN,boat1-keyboard3.png,boat1-keyboard3.png,0.0,-0.7151106,5.297045,-4.2512364
alexnet,1,328,NaN,car,boat,NaN,boat1-oven1.png,boat1-oven1.png,0.0,3.250894,7.5090003,-3.0109358
alexnet,1,329,NaN,airplane,boat,NaN,boat1-truck3.png,boat1-truck3.png,0.0,2.6455562,4.9610453,-1.637298
alexnet,1,330,NaN,bear,boat,NaN,boat10-bear3.png,boat10-bear3.png,0.0,-2.4128306,7.0303826,-6.6773605
alexnet,1,331,NaN,truck,boat,NaN,boat10-boat3.png,boat10-boat3.png,0.0,5.0314417,5.1742053,-0.10094912
alexnet,1,332,NaN,cat,boat,NaN,boat10-cat1.png,boat10-cat1.png,0.0,-2.1309848,5.483891,-5.3845305
alexnet,1,333,NaN,car,boat,NaN,boat10-oven1.png,boat10-oven1.png,0.0,2.2925942,8.146203,-4.139127
alexnet,1,334,NaN,car,boat,NaN,boat10-truck1.png,boat10-truck1.png,0.0,3.1073022,8.453982,-3.780674
alexnet,1,335,NaN,airplane,boat,NaN,boat2-airplane1.png,boat2-airplane1.png,0.0,3.4871697,4.47485,-0.69839555
alexnet,1,336,NaN,bear,boat,NaN,boat2-bear3.png,boat2-bear3.png,0.0,-2.168833,8.22049,-7.346361
alexnet,1,337,NaN,cat,boat,NaN,boat2-bird1.png,boat2-bird1.png,0.0,-1.6143742,3.348789,-3.5094864
alexnet,1,338,NaN,bottle,boat,NaN,boat2-bottle2.png,boat2-bottle2.png,0.0,-2.4629035,9.709185,-8.606967
alexnet,1,339,NaN,chair,boat,NaN,boat2-keyboard1.png,boat2-keyboard1.png,0.0,0.91806144,2.963914,-1.4466362
alexnet,1,340,NaN,oven,boat,NaN,boat2-oven3.png,boat2-oven3.png,0.0,-1.2965351,6.8852577,-5.7854013
alexnet,1,341,NaN,airplane,boat,NaN,boat3-airplane2.png,boat3-airplane2.png,0.0,4.499604,6.3028092,-1.2750585
alexnet,1,342,NaN,bicycle,boat,NaN,boat3-bicycle2.png,boat3-bicycle2.png,0.0,-0.37309164,5.7715592,-4.3449244
alexnet,1,343,NaN,bicycle,boat,NaN,boat3-car3.png,boat3-car3.png,0.0,2.9491801,6.3400745,-2.3977244
alexnet,1,344,NaN,cat,boat,NaN,boat3-cat3.png,boat3-cat3.png,0.0,-1.3134364,4.617516,-4.1938167
alexnet,1,345,NaN,airplane,boat,NaN,boat3-chair3.png,boat3-chair3.png,0.0,2.7127466,9.478093,-4.7838225
alexnet,1,346,NaN,bottle,boat,NaN,boat3-clock3.png,boat3-clock3.png,0.0,-3.618276,3.8524902,-5.2826295
alexnet,1,347,NaN,dog,boat,NaN,boat3-dog3.png,boat3-dog3.png,0.0,-2.125648,4.029982,-4.352688
alexnet,1,348,NaN,car,boat,NaN,boat3-keyboard2.png,boat3-keyboard2.png,0.0,-2.7735546,6.3639336,-6.46118
alexnet,1,349,NaN,knife,boat,NaN,boat4-bicycle3.png,boat4-bicycle3.png,0.0,-3.7023911,4.9682527,-6.131071
alexnet,1,350,NaN,cat,boat,NaN,boat4-bird1.png,boat4-bird1.png,0.0,-1.9574293,2.6133564,-3.2320335
alexnet,1,351,NaN,chair,boat,NaN,boat4-boat3.png,boat4-boat3.png,0.0,-0.26192313,3.588073,-2.7223585
alexnet,1,352,NaN,bottle,boat,NaN,boat4-bottle2.png,boat4-bottle2.png,0.0,-2.123912,7.5922995,-6.870399
alexnet,1,353,NaN,car,boat,NaN,boat4-car3.png,boat4-car3.png,0.0,0.7834977,4.7415233,-2.7987466
alexnet,1,354,NaN,chair,boat,NaN,boat4-chair2.png,boat4-chair2.png,0.0,2.0221448,6.9755635,-3.5025961
alexnet,1,355,NaN,cat,boat,NaN,boat4-dog2.png,boat4-dog2.png,0.0,-3.106689,5.550139,-6.1213017
alexnet,1,356,NaN,elephant,boat,NaN,boat4-elephant2.png,boat4-elephant2.png,0.0,-3.7260318,12.712535,-11.623822
alexnet,1,357,NaN,oven,boat,NaN,boat4-knife2.png,boat4-knife2.png,0.0,0.21104956,8.377647,-5.7746563
alexnet,1,358,NaN,knife,boat,NaN,boat5-airplane1.png,boat5-airplane1.png,0.0,3.0337167,5.1152253,-1.4718488
alexnet,1,359,NaN,bicycle,boat,NaN,boat5-bicycle3.png,boat5-bicycle3.png,0.0,-1.4295492,5.4502745,-4.86477
alexnet,1,360,NaN,truck,boat,NaN,boat5-boat3.png,boat5-boat3.png,0.0,-0.009626341,4.5000124,-3.1887963
alexnet,1,361,NaN,knife,boat,NaN,boat5-car3.png,boat5-car3.png,0.0,1.591306,4.3324823,-1.9383044
alexnet,1,362,NaN,clock,boat,NaN,boat5-clock3.png,boat5-clock3.png,0.0,-0.61921895,4.6107197,-3.6981251
alexnet,1,363,NaN,oven,boat,NaN,boat5-knife2.png,boat5-knife2.png,0.0,2.5121684,5.7110667,-2.2619627
alexnet,1,364,NaN,airplane,boat,NaN,boat6-airplane2.png,boat6-airplane2.png,0.0,4.7039204,9.583881,-3.4506536
alexnet,1,365,NaN,bear,boat,NaN,boat6-bear1.png,boat6-bear1.png,0.0,-2.8951643,8.489374,-8.050085
alexnet,1,366,NaN,bicycle,boat,NaN,boat6-bicycle2.png,boat6-bicycle2.png,0.0,-1.8930185,9.226609,-7.8627644
alexnet,1,367,NaN,bicycle,boat,NaN,boat6-bottle2.png,boat6-bottle2.png,0.0,-3.0625684,6.295883,-6.617425
alexnet,1,368,NaN,bicycle,boat,NaN,boat6-car1.png,boat6-car1.png,0.0,2.52427,5.284695,-1.9519154
alexnet,1,369,NaN,dog,boat,NaN,boat6-cat1.png,boat6-cat1.png,0.0,-1.3569016,4.08164,-3.8456297
alexnet,1,370,NaN,clock,boat,NaN,boat6-clock2.png,boat6-clock2.png,0.0,0.076439664,5.4794197,-3.8204837
alexnet,1,371,NaN,cat,boat,NaN,boat6-dog1.png,boat6-dog1.png,0.0,-3.598333,4.8876967,-6.0005293
alexnet,1,372,NaN,elephant,boat,NaN,boat6-elephant2.png,boat6-elephant2.png,0.0,-3.5156531,12.421168,-11.269034
alexnet,1,373,NaN,oven,boat,NaN,boat6-knife2.png,boat6-knife2.png,0.0,1.4119202,7.0844603,-4.0110917
alexnet,1,374,NaN,truck,boat,NaN,boat6-truck3.png,boat6-truck3.png,0.0,1.0860732,4.5722995,-2.4651344
alexnet,1,375,NaN,boat,boat,NaN,boat7-boat2.png,boat7-boat2.png,1.0,7.5394835,6.2296553,0.92618847
alexnet,1,376,NaN,clock,boat,NaN,boat7-bottle1.png,boat7-bottle1.png,0.0,0.13012166,7.0910897,-4.9221478
alexnet,1,377,NaN,cat,boat,NaN,boat7-cat3.png,boat7-cat3.png,0.0,-3.5070405,3.9243288,-5.2547717
alexnet,1,378,NaN,clock,boat,NaN,boat7-chair1.png,boat7-chair1.png,0.0,0.4260313,3.4594154,-2.1449265
alexnet,1,379,NaN,bottle,boat,NaN,boat7-clock3.png,boat7-clock3.png,0.0,-1.2069318,2.8065853,-2.8379855
alexnet,1,380,NaN,elephant,boat,NaN,boat7-elephant3.png,boat7-elephant3.png,0.0,-2.2948253,8.712239,-7.78317
alexnet,1,381,NaN,keyboard,boat,NaN,boat7-keyboard3.png,boat7-keyboard3.png,0.0,-1.834568,4.0950913,-4.1929026
alexnet,1,382,NaN,oven,boat,NaN,boat7-oven3.png,boat7-oven3.png,0.0,0.21914034,6.393348,-4.365824
alexnet,1,383,NaN,car,boat,NaN,boat7-truck2.png,boat7-truck2.png,0.0,0.5947981,5.8013244,-3.68157
alexnet,1,384,NaN,knife,boat,NaN,boat8-bird2.png,boat8-bird2.png,0.0,-0.91725904,5.0155396,-4.1951222
alexnet,1,385,NaN,clock,boat,NaN,boat8-bottle1.png,boat8-bottle1.png,0.0,0.028295804,4.1720657,-2.9300878
alexnet,1,386,NaN,dog,boat,NaN,boat8-dog3.png,boat8-dog3.png,0.0,-4.1891174,5.279963,-6.6956506
alexnet,1,387,NaN,elephant,boat,NaN,boat8-elephant1.png,boat8-elephant1.png,0.0,-1.3994844,6.5932407,-5.6517105
alexnet,1,388,NaN,oven,boat,NaN,boat8-knife1.png,boat8-knife1.png,0.0,-1.1108538,4.9975276,-4.319278
alexnet,1,389,NaN,car,boat,NaN,boat8-oven1.png,boat8-oven1.png,0.0,3.101204,6.5391164,-2.4309711
alexnet,1,390,NaN,car,boat,NaN,boat8-truck2.png,boat8-truck2.png,0.0,5.694358,8.655738,-2.094012
alexnet,1,391,NaN,airplane,boat,NaN,boat9-airplane2.png,boat9-airplane2.png,0.0,3.0267777,6.22166,-2.259123
alexnet,1,392,NaN,bear,boat,NaN,boat9-bear3.png,boat9-bear3.png,0.0,-2.610634,7.806526,-7.3660445
alexnet,1,393,NaN,knife,boat,NaN,boat9-bird1.png,boat9-bird1.png,0.0,-0.77163595,2.298573,-2.1709657
alexnet,1,394,NaN,truck,boat,NaN,boat9-boat3.png,boat9-boat3.png,0.0,3.8749409,4.6133943,-0.5221654
alexnet,1,395,NaN,cat,boat,NaN,boat9-cat3.png,boat9-cat3.png,0.0,-1.8665955,3.9413092,-4.1068087
alexnet,1,396,NaN,chair,boat,NaN,boat9-chair2.png,boat9-chair2.png,0.0,3.5466027,6.129774,-1.826578
alexnet,1,397,NaN,clock,boat,NaN,boat9-clock1.png,boat9-clock1.png,0.0,-1.1963607,4.090251,-3.738199
alexnet,1,398,NaN,cat,boat,NaN,boat9-dog2.png,boat9-dog2.png,0.0,-3.1022403,3.8820465,-4.938637
alexnet,1,399,NaN,car,boat,NaN,boat9-keyboard2.png,boat9-keyboard2.png,0.0,0.7620505,9.187719,-5.9578476
alexnet,1,400,NaN,oven,boat,NaN,boat9-knife2.png,boat9-knife2.png,0.0,4.270734,6.640892,-1.6759549
alexnet,1,401,NaN,elephant,bottle,NaN,bottle1-bear1.png,bottle1-bear1.png,0.0,-0.37247992,6.1196175,-4.590606
alexnet,1,402,NaN,oven,bottle,NaN,bottle1-bird3.png,bottle1-bird3.png,0.0,1.7488126,2.7644026,-0.71813065
alexnet,1,403,NaN,bicycle,bottle,NaN,bottle1-car1.png,bottle1-car1.png,0.0,4.4324007,6.083912,-1.1677948
alexnet,1,404,NaN,cat,bottle,NaN,bottle1-cat3.png,bottle1-cat3.png,0.0,1.1602176,3.8261926,-1.8851291
alexnet,1,405,NaN,chair,bottle,NaN,bottle1-chair2.png,bottle1-chair2.png,0.0,2.6387029,5.5125613,-2.0321248
alexnet,1,406,NaN,bottle,bottle,NaN,bottle1-clock1.png,bottle1-clock1.png,1.0,6.394393,5.8544807,0.3817756
alexnet,1,407,NaN,cat,bottle,NaN,bottle1-dog2.png,bottle1-dog2.png,0.0,0.83841723,4.901245,-2.8728533
alexnet,1,408,NaN,bottle,bottle,NaN,bottle1-keyboard3.png,bottle1-keyboard3.png,1.0,4.7744794,2.9688663,1.2767613
alexnet,1,409,NaN,elephant,bottle,NaN,bottle10-bear2.png,bottle10-bear2.png,0.0,1.2713251,11.631443,-7.32571
alexnet,1,410,NaN,chair,bottle,NaN,bottle10-boat3.png,bottle10-boat3.png,0.0,3.1818771,3.4338021,-0.17813787
alexnet,1,411,NaN,car,bottle,NaN,bottle10-car1.png,bottle10-car1.png,0.0,4.951733,6.547423,-1.1283231
alexnet,1,412,NaN,clock,bottle,NaN,bottle10-clock2.png,bottle10-clock2.png,0.0,4.6632504,6.974176,-1.6340711
alexnet,1,413,NaN,cat,bottle,NaN,bottle10-dog1.png,bottle10-dog1.png,0.0,0.116723485,5.93042,-4.110904
alexnet,1,414,NaN,bottle,bottle,NaN,bottle10-truck3.png,bottle10-truck3.png,1.0,6.475418,5.228123,0.8819707
alexnet,1,415,NaN,bottle,bottle,NaN,bottle2-bottle3.png,bottle2-bottle3.png,1.0,5.1764684,4.854326,0.22778922
alexnet,1,416,NaN,bicycle,bottle,NaN,bottle2-car2.png,bottle2-car2.png,0.0,2.1753068,10.190155,-5.667354
alexnet,1,417,NaN,chair,bottle,NaN,bottle2-chair3.png,bottle2-chair3.png,0.0,5.3102083,6.0269275,-0.50679696
alexnet,1,418,NaN,clock,bottle,NaN,bottle2-clock1.png,bottle2-clock1.png,0.0,4.951328,5.84891,-0.63468635
alexnet,1,419,NaN,elephant,bottle,NaN,bottle2-elephant1.png,bottle2-elephant1.png,0.0,-0.10242794,12.511608,-8.91947
alexnet,1,420,NaN,knife,bottle,NaN,bottle2-knife3.png,bottle2-knife3.png,0.0,7.4560995,8.430998,-0.6893572
alexnet,1,421,NaN,bottle,bottle,NaN,bottle3-airplane2.png,bottle3-airplane2.png,1.0,4.189731,4.105138,0.059816495
alexnet,1,422,NaN,elephant,bottle,NaN,bottle3-bear2.png,bottle3-bear2.png,0.0,-0.52544,8.346784,-6.2736096
alexnet,1,423,NaN,bicycle,bottle,NaN,bottle3-bicycle3.png,bottle3-bicycle3.png,0.0,2.075147,4.1418495,-1.4613794
alexnet,1,424,NaN,cat,bottle,NaN,bottle3-bird1.png,bottle3-bird1.png,0.0,1.1380986,3.2687168,-1.5065745
alexnet,1,425,NaN,clock,bottle,NaN,bottle3-boat3.png,bottle3-boat3.png,0.0,3.4356072,5.325287,-1.3362054
alexnet,1,426,NaN,bottle,bottle,NaN,bottle3-bottle3.png,bottle3-bottle3.png,1.0,4.623262,2.4073803,1.566865
alexnet,1,427,NaN,cat,bottle,NaN,bottle3-cat3.png,bottle3-cat3.png,0.0,1.813775,4.247932,-1.7212089
alexnet,1,428,NaN,clock,bottle,NaN,bottle3-chair3.png,bottle3-chair3.png,0.0,3.5984986,6.2595572,-1.8816527
alexnet,1,429,NaN,bottle,bottle,NaN,bottle3-knife3.png,bottle3-knife3.png,1.0,7.182418,6.222452,0.67879826
alexnet,1,430,NaN,knife,bottle,NaN,bottle4-airplane1.png,bottle4-airplane1.png,0.0,1.0458773,4.897058,-2.723196
alexnet,1,431,NaN,bicycle,bottle,NaN,bottle4-bicycle1.png,bottle4-bicycle1.png,0.0,1.4506817,9.010862,-5.345855
alexnet,1,432,NaN,bicycle,bottle,NaN,bottle4-car3.png,bottle4-car3.png,0.0,2.2354474,4.336336,-1.4855527
alexnet,1,433,NaN,cat,bottle,NaN,bottle4-dog2.png,bottle4-dog2.png,0.0,0.8972294,6.8358502,-4.1992393
alexnet,1,434,NaN,oven,bottle,NaN,bottle4-oven2.png,bottle4-oven2.png,0.0,6.5061903,8.497097,-1.4077836
alexnet,1,435,NaN,car,bottle,NaN,bottle4-truck1.png,bottle4-truck1.png,0.0,3.8977294,5.931135,-1.4378351
alexnet,1,436,NaN,knife,bottle,NaN,bottle5-airplane1.png,bottle5-airplane1.png,0.0,2.7630045,6.0170183,-2.3009353
alexnet,1,437,NaN,bottle,bottle,NaN,bottle5-bird3.png,bottle5-bird3.png,1.0,7.035374,4.400711,1.8629882
alexnet,1,438,NaN,bottle,bottle,NaN,bottle5-boat1.png,bottle5-boat1.png,1.0,5.673622,3.3241239,1.6613462
alexnet,1,439,NaN,cat,bottle,NaN,bottle5-cat1.png,bottle5-cat1.png,0.0,-0.2926056,5.5112367,-4.103936
alexnet,1,440,NaN,clock,bottle,NaN,bottle5-chair1.png,bottle5-chair1.png,0.0,5.0207915,5.2982564,-0.19619729
alexnet,1,441,NaN,bottle,bottle,NaN,bottle5-clock3.png,bottle5-clock3.png,1.0,5.596665,2.5843194,2.13005
alexnet,1,442,NaN,elephant,bottle,NaN,bottle5-elephant1.png,bottle5-elephant1.png,0.0,-0.17589009,13.62299,-9.757281
alexnet,1,443,NaN,clock,bottle,NaN,bottle5-keyboard2.png,bottle5-keyboard2.png,0.0,5.863003,6.506481,-0.45500794
alexnet,1,444,NaN,bottle,bottle,NaN,bottle5-knife1.png,bottle5-knife1.png,1.0,5.665703,4.429501,0.8741267
alexnet,1,445,NaN,oven,bottle,NaN,bottle5-oven2.png,bottle5-oven2.png,0.0,5.2138133,7.0344334,-1.2873728
alexnet,1,446,NaN,bottle,bottle,NaN,bottle5-truck1.png,bottle5-truck1.png,1.0,5.8562484,5.673116,0.129494
alexnet,1,447,NaN,bottle,bottle,NaN,bottle6-airplane1.png,bottle6-airplane1.png,1.0,2.9990876,2.7063951,0.2069648
alexnet,1,448,NaN,bear,bottle,NaN,bottle6-bear2.png,bottle6-bear2.png,0.0,-1.257794,6.423386,-5.4314146
alexnet,1,449,NaN,bottle,bottle,NaN,bottle6-bicycle3.png,bottle6-bicycle3.png,1.0,6.2191663,3.9965608,1.5716194
alexnet,1,450,NaN,cat,bottle,NaN,bottle6-bird1.png,bottle6-bird1.png,0.0,0.7784556,4.0408864,-2.306887
alexnet,1,451,NaN,clock,bottle,NaN,bottle6-boat3.png,bottle6-boat3.png,0.0,5.147339,5.6970696,-0.38871837
alexnet,1,452,NaN,bottle,bottle,NaN,bottle6-bottle3.png,bottle6-bottle3.png,1.0,6.5102224,6.3481994,0.114567615
alexnet,1,453,NaN,chair,bottle,NaN,bottle6-chair2.png,bottle6-chair2.png,0.0,4.7089677,7.3213253,-1.8472158
alexnet,1,454,NaN,dog,bottle,NaN,bottle6-dog3.png,bottle6-dog3.png,0.0,0.6546512,3.393673,-1.9367809
alexnet,1,455,NaN,knife,bottle,NaN,bottle6-knife3.png,bottle6-knife3.png,0.0,6.3572145,7.3530283,-0.70414674
alexnet,1,456,NaN,oven,bottle,NaN,bottle6-oven3.png,bottle6-oven3.png,0.0,5.614487,7.8693647,-1.5944393
alexnet,1,457,NaN,airplane,bottle,NaN,bottle7-airplane3.png,bottle7-airplane3.png,0.0,2.2285266,5.9744363,-2.6487582
alexnet,1,458,NaN,cat,bottle,NaN,bottle7-bear1.png,bottle7-bear1.png,0.0,-0.66051096,9.163882,-6.946895
alexnet,1,459,NaN,chair,bottle,NaN,bottle7-boat3.png,bottle7-boat3.png,0.0,1.6117351,4.4066567,-1.9763081
alexnet,1,460,NaN,cat,bottle,NaN,bottle7-cat2.png,bottle7-cat2.png,0.0,-0.6920038,9.509116,-7.2132816
alexnet,1,461,NaN,bottle,bottle,NaN,bottle7-clock1.png,bottle7-clock1.png,1.0,5.497153,5.442406,0.03871171
alexnet,1,462,NaN,elephant,bottle,NaN,bottle7-elephant2.png,bottle7-elephant2.png,0.0,-0.48061663,16.863094,-12.263857
alexnet,1,463,NaN,bottle,bottle,NaN,bottle7-keyboard2.png,bottle7-keyboard2.png,1.0,4.424936,4.1171675,0.21762508
alexnet,1,464,NaN,oven,bottle,NaN,bottle7-oven2.png,bottle7-oven2.png,0.0,5.918984,9.0214815,-2.193797
alexnet,1,465,NaN,truck,bottle,NaN,bottle7-truck2.png,bottle7-truck2.png,0.0,2.255382,5.1074924,-2.0167465
alexnet,1,466,NaN,bicycle,bottle,NaN,bottle8-bicycle1.png,bottle8-bicycle1.png,0.0,2.9611332,10.04715,-5.0105705
alexnet,1,467,NaN,cat,bottle,NaN,bottle8-bird1.png,bottle8-bird1.png,0.0,1.2464844,2.2119277,-0.6826715
alexnet,1,468,NaN,clock,bottle,NaN,bottle8-bottle3.png,bottle8-bottle3.png,0.0,6.5026217,7.78313,-0.90545624
alexnet,1,469,NaN,cat,bottle,NaN,bottle8-dog2.png,bottle8-dog2.png,0.0,2.176041,3.9574652,-1.2596573
alexnet,1,470,NaN,elephant,bottle,NaN,bottle8-elephant3.png,bottle8-elephant3.png,0.0,1.8070775,9.792673,-5.646669
alexnet,1,471,NaN,bottle,bottle,NaN,bottle8-keyboard3.png,bottle8-keyboard3.png,1.0,6.193417,3.8603694,1.6497139
alexnet,1,472,NaN,car,bottle,NaN,bottle8-knife1.png,bottle8-knife1.png,0.0,3.745012,3.916324,-0.12113578
alexnet,1,473,NaN,bicycle,bottle,NaN,bottle9-bicycle1.png,bottle9-bicycle1.png,0.0,0.9389879,4.4518766,-2.4839873
alexnet,1,474,NaN,clock,bottle,NaN,bottle9-bottle1.png,bottle9-bottle1.png,0.0,4.376907,5.823927,-1.0231977
alexnet,1,475,NaN,bottle,bottle,NaN,bottle9-car3.png,bottle9-car3.png,1.0,5.35823,3.449643,1.349575
alexnet,1,476,NaN,cat,bottle,NaN,bottle9-cat2.png,bottle9-cat2.png,0.0,-0.49375048,8.828298,-6.5916834
alexnet,1,477,NaN,elephant,bottle,NaN,bottle9-elephant2.png,bottle9-elephant2.png,0.0,1.8513938,15.749368,-9.827352
alexnet,1,478,NaN,bottle,bottle,NaN,bottle9-keyboard1.png,bottle9-keyboard1.png,1.0,4.031703,2.4223056,1.1380159
alexnet,1,479,NaN,oven,bottle,NaN,bottle9-oven2.png,bottle9-oven2.png,0.0,3.613351,10.2158,-4.668637
alexnet,1,480,NaN,car,bottle,NaN,bottle9-truck1.png,bottle9-truck1.png,0.0,6.205317,6.230135,-0.017548937
alexnet,1,481,NaN,truck,car,NaN,car1-airplane1.png,car1-airplane1.png,0.0,5.4749627,6.7420435,-0.8959614
alexnet,1,482,NaN,car,car,NaN,car1-car2.png,car1-car2.png,1.0,6.734061,4.3579364,1.6801736
alexnet,1,483,NaN,airplane,car,NaN,car1-chair3.png,car1-chair3.png,0.0,6.0364566,12.601934,-4.642494
alexnet,1,484,NaN,car,car,NaN,car1-clock2.png,car1-clock2.png,1.0,8.443428,7.333133,0.785097
alexnet,1,485,NaN,cat,car,NaN,car1-dog2.png,car1-dog2.png,0.0,-3.4205275,3.081295,-4.5974827
alexnet,1,486,NaN,car,car,NaN,car1-keyboard2.png,car1-keyboard2.png,1.0,9.045569,7.2562985,1.2652056
alexnet,1,487,NaN,oven,car,NaN,car1-oven3.png,car1-oven3.png,0.0,3.736143,5.4175797,-1.1889552
alexnet,1,488,NaN,bicycle,car,NaN,car10-bicycle2.png,car10-bicycle2.png,0.0,2.8118846,8.310964,-3.8884358
alexnet,1,489,NaN,clock,car,NaN,car10-bottle3.png,car10-bottle3.png,0.0,-0.3368744,5.9358945,-4.435518
alexnet,1,490,NaN,car,car,NaN,car10-car1.png,car10-car1.png,1.0,9.875901,6.4078817,2.4522603
alexnet,1,491,NaN,car,car,NaN,car10-chair1.png,car10-chair1.png,1.0,11.814876,7.084675,3.344757
alexnet,1,492,NaN,cat,car,NaN,car10-dog1.png,car10-dog1.png,0.0,-3.1452112,4.705873,-5.551555
alexnet,1,493,NaN,elephant,car,NaN,car10-elephant2.png,car10-elephant2.png,0.0,-5.0077753,12.109419,-12.103685
alexnet,1,494,NaN,car,car,NaN,car10-keyboard2.png,car10-keyboard2.png,1.0,8.182637,3.0943336,3.597974
alexnet,1,495,NaN,knife,car,NaN,car2-bird3.png,car2-bird3.png,0.0,1.1893615,5.337051,-2.9328594
alexnet,1,496,NaN,car,car,NaN,car2-car3.png,car2-car3.png,1.0,11.741791,7.00665,3.3482502
alexnet,1,497,NaN,oven,car,NaN,car2-cat3.png,car2-cat3.png,0.0,-3.9817626,2.5881257,-4.6456127
alexnet,1,498,NaN,car,car,NaN,car2-chair1.png,car2-chair1.png,1.0,12.693255,7.2459364,3.8518362
alexnet,1,499,NaN,bottle,car,NaN,car2-knife3.png,car2-knife3.png,0.0,2.8146956,5.670024,-2.019022
alexnet,1,500,NaN,car,car,NaN,car3-airplane3.png,car3-airplane3.png,1.0,13.345645,9.999964,2.365754
alexnet,1,501,NaN,bicycle,car,NaN,car3-bird2.png,car3-bird2.png,0.0,2.2260764,3.1406126,-0.6466748
alexnet,1,502,NaN,car,car,NaN,car3-boat1.png,car3-boat1.png,1.0,11.110741,7.584785,2.4932272
alexnet,1,503,NaN,bottle,car,NaN,car3-bottle3.png,car3-bottle3.png,0.0,-1.4515475,4.815297,-4.4313283
alexnet,1,504,NaN,cat,car,NaN,car3-dog2.png,car3-dog2.png,0.0,-3.1480913,4.9644256,-5.7364154
alexnet,1,505,NaN,elephant,car,NaN,car3-elephant3.png,car3-elephant3.png,0.0,-0.5463907,7.611329,-5.7683787
alexnet,1,506,NaN,truck,car,NaN,car3-oven3.png,car3-oven3.png,0.0,4.6696763,5.602103,-0.6593254
alexnet,1,507,NaN,car,car,NaN,car3-truck1.png,car3-truck1.png,1.0,15.917961,8.453436,5.2782164
alexnet,1,508,NaN,elephant,car,NaN,car4-bear3.png,car4-bear3.png,0.0,-2.9129887,5.846243,-6.193712
alexnet,1,509,NaN,bicycle,car,NaN,car4-bicycle3.png,car4-bicycle3.png,0.0,4.42555,7.203203,-1.9640975
alexnet,1,510,NaN,airplane,car,NaN,car4-bird1.png,car4-bird1.png,0.0,1.230457,3.5540285,-1.6430134
alexnet,1,511,NaN,car,car,NaN,car4-boat1.png,car4-boat1.png,1.0,9.006195,6.248698,1.9498447
alexnet,1,512,NaN,clock,car,NaN,car4-bottle1.png,car4-bottle1.png,0.0,-0.46425268,5.0777717,-3.918803
alexnet,1,513,NaN,car,car,NaN,car4-car2.png,car4-car2.png,1.0,10.29428,6.275963,2.8413794
alexnet,1,514,NaN,dog,car,NaN,car4-cat3.png,car4-cat3.png,0.0,-3.6026008,2.8994377,-4.5976357
alexnet,1,515,NaN,clock,car,NaN,car4-clock1.png,car4-clock1.png,0.0,-1.0133854,5.026346,-4.2707353
alexnet,1,516,NaN,elephant,car,NaN,car4-elephant3.png,car4-elephant3.png,0.0,-3.1271813,10.194063,-9.419542
alexnet,1,517,NaN,oven,car,NaN,car4-oven2.png,car4-oven2.png,0.0,5.9667296,6.717906,-0.5311619
alexnet,1,518,NaN,car,car,NaN,car5-airplane3.png,car5-airplane3.png,1.0,10.365212,6.899886,2.4503558
alexnet,1,519,NaN,bear,car,NaN,car5-bear3.png,car5-bear3.png,0.0,-3.1592903,8.23808,-8.059158
alexnet,1,520,NaN,clock,car,NaN,car5-bottle1.png,car5-bottle1.png,0.0,-0.4158169,5.8541265,-4.4335194
alexnet,1,521,NaN,dog,car,NaN,car5-cat1.png,car5-cat1.png,0.0,-2.1467218,3.3394194,-3.8792877
alexnet,1,522,NaN,car,car,NaN,car5-keyboard3.png,car5-keyboard3.png,1.0,5.8709016,4.920522,0.6720197
alexnet,1,523,NaN,car,car,NaN,car5-knife2.png,car5-knife2.png,1.0,10.949638,9.934645,0.71770895
alexnet,1,524,NaN,oven,car,NaN,car5-oven2.png,car5-oven2.png,0.0,8.455513,9.218883,-0.5397838
alexnet,1,525,NaN,car,car,NaN,car5-truck3.png,car5-truck3.png,1.0,7.8923073,7.834432,0.040923916
alexnet,1,526,NaN,cat,car,NaN,car6-bear1.png,car6-bear1.png,0.0,-3.0549412,7.1421094,-7.2104034
alexnet,1,527,NaN,bicycle,car,NaN,car6-bicycle3.png,car6-bicycle3.png,0.0,5.645565,7.353718,-1.2078464
alexnet,1,528,NaN,boat,car,NaN,car6-boat1.png,car6-boat1.png,0.0,6.4921947,6.672075,-0.12719446
alexnet,1,529,NaN,clock,car,NaN,car6-bottle1.png,car6-bottle1.png,0.0,-1.0255045,6.9493713,-5.639089
alexnet,1,530,NaN,airplane,car,NaN,car6-chair3.png,car6-chair3.png,0.0,2.8745775,10.007929,-5.044041
alexnet,1,531,NaN,elephant,car,NaN,car6-elephant3.png,car6-elephant3.png,0.0,-2.2783911,10.192083,-8.817957
alexnet,1,532,NaN,car,car,NaN,car6-knife1.png,car6-knife1.png,1.0,5.532656,4.8697605,0.46873805
alexnet,1,533,NaN,truck,car,NaN,car6-truck3.png,car6-truck3.png,0.0,4.9288154,5.525419,-0.42186266
alexnet,1,534,NaN,car,car,NaN,car7-airplane2.png,car7-airplane2.png,1.0,9.999521,8.740338,0.8903768
alexnet,1,535,NaN,cat,car,NaN,car7-bear1.png,car7-bear1.png,0.0,-2.7860496,7.288814,-7.1240044
alexnet,1,536,NaN,knife,car,NaN,car7-bird3.png,car7-bird3.png,0.0,1.0338188,3.8112528,-1.9639424
alexnet,1,537,NaN,car,car,NaN,car7-boat3.png,car7-boat3.png,1.0,7.996229,6.9302197,0.7537826
alexnet,1,538,NaN,bicycle,car,NaN,car7-car1.png,car7-car1.png,0.0,5.164734,6.2784896,-0.78754425
alexnet,1,539,NaN,clock,car,NaN,car7-clock1.png,car7-clock1.png,0.0,-0.9576099,6.4771094,-5.25714
alexnet,1,540,NaN,dog,car,NaN,car7-dog3.png,car7-dog3.png,0.0,-2.73804,4.306961,-4.981568
alexnet,1,541,NaN,elephant,car,NaN,car7-elephant3.png,car7-elephant3.png,0.0,-1.7010967,9.526836,-7.9393477
alexnet,1,542,NaN,car,car,NaN,car7-keyboard3.png,car7-keyboard3.png,1.0,7.0691333,6.0208197,0.7412697
alexnet,1,543,NaN,oven,car,NaN,car7-oven2.png,car7-oven2.png,0.0,4.0678115,7.7591596,-2.6101773
alexnet,1,544,NaN,airplane,car,NaN,car8-airplane3.png,car8-airplane3.png,0.0,7.470837,8.819502,-0.95365
alexnet,1,545,NaN,cat,car,NaN,car8-bear1.png,car8-bear1.png,0.0,-2.8939974,7.9861298,-7.693412
alexnet,1,546,NaN,bicycle,car,NaN,car8-bicycle2.png,car8-bicycle2.png,0.0,2.7822177,10.401005,-5.3872957
alexnet,1,547,NaN,car,car,NaN,car8-boat3.png,car8-boat3.png,1.0,8.889716,8.8404255,0.03485376
alexnet,1,548,NaN,cat,car,NaN,car8-cat1.png,car8-cat1.png,0.0,-1.7133665,3.4671478,-3.6631768
alexnet,1,549,NaN,car,car,NaN,car8-chair1.png,car8-chair1.png,1.0,12.654106,5.028654,5.392009
alexnet,1,550,NaN,clock,car,NaN,car8-clock2.png,car8-clock2.png,0.0,4.5889225,4.9914594,-0.28463656
alexnet,1,551,NaN,cat,car,NaN,car8-dog1.png,car8-dog1.png,0.0,-3.3976154,4.6447034,-5.686778
alexnet,1,552,NaN,car,car,NaN,car8-knife2.png,car8-knife2.png,1.0,5.443478,4.9042325,0.38130423
alexnet,1,553,NaN,car,car,NaN,car8-truck3.png,car8-truck3.png,1.0,9.694313,6.931801,1.9533912
alexnet,1,554,NaN,bicycle,car,NaN,car9-bicycle2.png,car9-bicycle2.png,0.0,4.4807096,11.775218,-5.1579967
alexnet,1,555,NaN,airplane,car,NaN,car9-bird1.png,car9-bird1.png,0.0,1.1812376,2.1856475,-0.71022505
alexnet,1,556,NaN,cat,car,NaN,car9-cat1.png,car9-cat1.png,0.0,-3.1271439,4.3524957,-5.2889037
alexnet,1,557,NaN,car,car,NaN,car9-clock2.png,car9-clock2.png,1.0,8.583636,6.567706,1.425478
alexnet,1,558,NaN,car,car,NaN,car9-keyboard2.png,car9-keyboard2.png,1.0,8.476223,4.575341,2.75834
alexnet,1,559,NaN,car,car,NaN,car9-knife1.png,car9-knife1.png,1.0,7.048594,6.7738457,0.1942764
alexnet,1,560,NaN,truck,car,NaN,car9-truck3.png,car9-truck3.png,0.0,8.74076,9.193032,-0.3198049
alexnet,1,561,NaN,knife,cat,NaN,cat1-airplane1.png,cat1-airplane1.png,0.0,-0.46373525,4.783336,-3.7102396
alexnet,1,562,NaN,bird,cat,NaN,cat1-bird1.png,cat1-bird1.png,0.0,2.4631922,2.6371233,-0.12298788
alexnet,1,563,NaN,car,cat,NaN,cat1-boat1.png,cat1-boat1.png,0.0,-0.40838322,3.3623428,-2.666306
alexnet,1,564,NaN,bicycle,cat,NaN,cat1-car2.png,cat1-car2.png,0.0,1.3516077,6.9801645,-3.9799907
alexnet,1,565,NaN,cat,cat,NaN,cat1-cat3.png,cat1-cat3.png,1.0,5.3250065,1.146847,2.954405
alexnet,1,566,NaN,chair,cat,NaN,cat1-chair2.png,cat1-chair2.png,0.0,-0.07710934,7.055541,-5.0435457
alexnet,1,567,NaN,cat,cat,NaN,cat1-dog1.png,cat1-dog1.png,1.0,7.3460464,3.2331965,2.9082243
alexnet,1,568,NaN,bottle,cat,NaN,cat1-keyboard3.png,cat1-keyboard3.png,0.0,1.6097374,4.215465,-1.8425277
alexnet,1,569,NaN,knife,cat,NaN,cat1-oven1.png,cat1-oven1.png,0.0,-0.072788954,5.733374,-4.105577
alexnet,1,570,NaN,airplane,cat,NaN,cat10-airplane3.png,cat10-airplane3.png,0.0,-0.4645268,3.5522141,-2.8402648
alexnet,1,571,NaN,cat,cat,NaN,cat10-bear1.png,cat10-bear1.png,1.0,7.8773217,5.4391828,1.7240247
alexnet,1,572,NaN,bicycle,cat,NaN,cat10-bicycle1.png,cat10-bicycle1.png,0.0,0.5304095,7.6141253,-5.0089436
alexnet,1,573,NaN,cat,cat,NaN,cat10-bird2.png,cat10-bird2.png,1.0,7.0180182,2.5158672,3.1835015
alexnet,1,574,NaN,clock,cat,NaN,cat10-bottle1.png,cat10-bottle1.png,0.0,0.13033439,5.611967,-3.8760998
alexnet,1,575,NaN,knife,cat,NaN,cat10-clock1.png,cat10-clock1.png,0.0,3.1700456,4.6441364,-1.0423397
alexnet,1,576,NaN,elephant,cat,NaN,cat10-elephant3.png,cat10-elephant3.png,0.0,1.8729268,7.667136,-4.097125
alexnet,1,577,NaN,elephant,cat,NaN,cat10-keyboard1.png,cat10-keyboard1.png,0.0,0.61926705,4.190411,-2.5251803
alexnet,1,578,NaN,oven,cat,NaN,cat10-oven2.png,cat10-oven2.png,0.0,2.25437,8.353224,-4.312541
alexnet,1,579,NaN,bicycle,cat,NaN,cat2-boat2.png,cat2-boat2.png,0.0,1.4405357,6.066477,-3.2710345
alexnet,1,580,NaN,bottle,cat,NaN,cat2-bottle3.png,cat2-bottle3.png,0.0,3.12031,3.3605292,-0.16986057
alexnet,1,581,NaN,knife,cat,NaN,cat2-car3.png,cat2-car3.png,0.0,1.6182743,2.9439383,-0.937386
alexnet,1,582,NaN,cat,cat,NaN,cat2-cat1.png,cat2-cat1.png,1.0,7.3319035,2.7261212,3.2567801
alexnet,1,583,NaN,elephant,cat,NaN,cat2-elephant1.png,cat2-elephant1.png,0.0,1.7347988,8.260343,-4.6142564
alexnet,1,584,NaN,knife,cat,NaN,cat2-knife3.png,cat2-knife3.png,0.0,-1.4091989,9.289579,-7.565179
alexnet,1,585,NaN,bottle,cat,NaN,cat2-truck3.png,cat2-truck3.png,0.0,-0.45970407,3.5127308,-2.8089359
alexnet,1,586,NaN,bear,cat,NaN,cat3-bear2.png,cat3-bear2.png,0.0,5.949886,6.199853,-0.17675343
alexnet,1,587,NaN,bicycle,cat,NaN,cat3-bicycle1.png,cat3-bicycle1.png,0.0,0.7821042,5.0602093,-3.0250773
alexnet,1,588,NaN,cat,cat,NaN,cat3-cat1.png,cat3-cat1.png,1.0,9.533072,3.8390353,4.0262923
alexnet,1,589,NaN,elephant,cat,NaN,cat3-elephant2.png,cat3-elephant2.png,0.0,2.163427,8.30059,-4.339629
alexnet,1,590,NaN,oven,cat,NaN,cat3-oven2.png,cat3-oven2.png,0.0,0.92441684,8.788634,-5.5608416
alexnet,1,591,NaN,airplane,cat,NaN,cat3-truck3.png,cat3-truck3.png,0.0,-1.4671812,3.8742468,-3.77696
alexnet,1,592,NaN,knife,cat,NaN,cat4-airplane1.png,cat4-airplane1.png,0.0,-0.8151798,4.6144505,-3.8393285
alexnet,1,593,NaN,cat,cat,NaN,cat4-bird2.png,cat4-bird2.png,1.0,3.464071,2.7309532,0.51839256
alexnet,1,594,NaN,bicycle,cat,NaN,cat4-car2.png,cat4-car2.png,0.0,0.06882282,6.4248686,-4.494403
alexnet,1,595,NaN,cat,cat,NaN,cat4-cat3.png,cat4-cat3.png,1.0,3.1003292,2.5267057,0.405613
alexnet,1,596,NaN,chair,cat,NaN,cat4-chair2.png,cat4-chair2.png,0.0,-0.45456782,6.9491005,-5.235184
alexnet,1,597,NaN,clock,cat,NaN,cat4-clock2.png,cat4-clock2.png,0.0,0.5559153,7.1471496,-4.6607065
alexnet,1,598,NaN,dog,cat,NaN,cat4-dog3.png,cat4-dog3.png,0.0,1.6670069,4.098354,-1.719222
alexnet,1,599,NaN,clock,cat,NaN,cat4-keyboard2.png,cat4-keyboard2.png,0.0,-0.039771814,5.1892915,-3.6975064
alexnet,1,600,NaN,knife,cat,NaN,cat4-knife1.png,cat4-knife1.png,0.0,-1.5787939,3.6961417,-3.7299428
alexnet,1,601,NaN,knife,cat,NaN,cat4-oven1.png,cat4-oven1.png,0.0,0.5489683,8.053163,-5.306267
alexnet,1,602,NaN,bottle,cat,NaN,cat4-truck3.png,cat4-truck3.png,0.0,-2.1408806,4.7724614,-4.888471
alexnet,1,603,NaN,airplane,cat,NaN,cat5-airplane2.png,cat5-airplane2.png,0.0,-1.8395919,5.091004,-4.9006715
alexnet,1,604,NaN,elephant,cat,NaN,cat5-bear2.png,cat5-bear2.png,0.0,5.1508846,5.541151,-0.27596003
alexnet,1,605,NaN,knife,cat,NaN,cat5-bicycle3.png,cat5-bicycle3.png,0.0,0.14767866,6.7914915,-4.697885
alexnet,1,606,NaN,car,cat,NaN,cat5-boat1.png,cat5-boat1.png,0.0,-0.22271198,3.6935985,-2.7692497
alexnet,1,607,NaN,clock,cat,NaN,cat5-bottle1.png,cat5-bottle1.png,0.0,0.35307345,6.863422,-4.6035113
alexnet,1,608,NaN,bicycle,cat,NaN,cat5-car2.png,cat5-car2.png,0.0,1.3909444,7.4286556,-4.2693067
alexnet,1,609,NaN,airplane,cat,NaN,cat5-chair3.png,cat5-chair3.png,0.0,-1.1476876,7.093257,-5.827228
alexnet,1,610,NaN,cat,cat,NaN,cat5-dog3.png,cat5-dog3.png,1.0,4.189896,2.2681193,1.3589014
alexnet,1,611,NaN,elephant,cat,NaN,cat5-elephant2.png,cat5-elephant2.png,0.0,1.7092665,9.841665,-5.7504745
alexnet,1,612,NaN,knife,cat,NaN,cat5-keyboard3.png,cat5-keyboard3.png,0.0,1.3683919,3.5427194,-1.5374817
alexnet,1,613,NaN,oven,cat,NaN,cat5-knife2.png,cat5-knife2.png,0.0,-0.5267157,8.518497,-6.3959312
alexnet,1,614,NaN,cat,cat,NaN,cat6-bear1.png,cat6-bear1.png,1.0,6.545838,4.8565035,1.1945398
alexnet,1,615,NaN,airplane,cat,NaN,cat6-chair3.png,cat6-chair3.png,0.0,-0.017083168,10.821332,-7.663917
alexnet,1,616,NaN,clock,cat,NaN,cat6-clock3.png,cat6-clock3.png,0.0,3.5275478,4.6004395,-0.758649
alexnet,1,617,NaN,bottle,cat,NaN,cat6-keyboard3.png,cat6-keyboard3.png,0.0,0.7368391,5.0134654,-3.0240314
alexnet,1,618,NaN,knife,cat,NaN,cat6-oven1.png,cat6-oven1.png,0.0,0.40050068,8.319653,-5.599686
alexnet,1,619,NaN,bicycle,cat,NaN,cat7-airplane2.png,cat7-airplane2.png,0.0,-2.1687994,5.7718906,-5.614916
alexnet,1,620,NaN,chair,cat,NaN,cat7-boat3.png,cat7-boat3.png,0.0,-0.4172643,2.0895672,-1.7725976
alexnet,1,621,NaN,clock,cat,NaN,cat7-bottle1.png,cat7-bottle1.png,0.0,0.1855178,4.413271,-2.9894729
alexnet,1,622,NaN,cat,cat,NaN,cat7-clock3.png,cat7-clock3.png,1.0,4.0635505,2.6094298,1.0282186
alexnet,1,623,NaN,cat,cat,NaN,cat7-dog3.png,cat7-dog3.png,1.0,4.775845,4.081707,0.49082974
alexnet,1,624,NaN,elephant,cat,NaN,cat7-elephant1.png,cat7-elephant1.png,0.0,2.5718331,9.40703,-4.8332143
alexnet,1,625,NaN,knife,cat,NaN,cat7-knife2.png,cat7-knife2.png,0.0,-2.2940726,9.61335,-8.41982
alexnet,1,626,NaN,car,cat,NaN,cat7-truck2.png,cat7-truck2.png,0.0,-0.6525376,5.3323083,-4.2319255
alexnet,1,627,NaN,bear,cat,NaN,cat8-bear1.png,cat8-bear1.png,0.0,6.479689,7.881103,-0.9909493
alexnet,1,628,NaN,knife,cat,NaN,cat8-bicycle3.png,cat8-bicycle3.png,0.0,0.16488719,4.594942,-3.1325216
alexnet,1,629,NaN,cat,cat,NaN,cat8-bird2.png,cat8-bird2.png,1.0,3.7943823,2.806886,0.6982654
alexnet,1,630,NaN,bicycle,cat,NaN,cat8-car2.png,cat8-car2.png,0.0,0.98113686,8.283153,-5.163305
alexnet,1,631,NaN,bicycle,cat,NaN,cat9-bicycle1.png,cat9-bicycle1.png,0.0,1.2286371,6.4581594,-3.6978307
alexnet,1,632,NaN,knife,cat,NaN,cat9-bird3.png,cat9-bird3.png,0.0,1.8100652,4.5323977,-1.9249798
alexnet,1,633,NaN,bicycle,cat,NaN,cat9-boat2.png,cat9-boat2.png,0.0,0.43179405,5.2962236,-3.439671
alexnet,1,634,NaN,bottle,cat,NaN,cat9-bottle2.png,cat9-bottle2.png,0.0,-0.59418035,8.003274,-6.079318
alexnet,1,635,NaN,cat,cat,NaN,cat9-cat3.png,cat9-cat3.png,1.0,3.2835014,2.4089382,0.6184096
alexnet,1,636,NaN,chair,cat,NaN,cat9-chair2.png,cat9-chair2.png,0.0,-0.40904245,7.916651,-5.887154
alexnet,1,637,NaN,clock,cat,NaN,cat9-clock2.png,cat9-clock2.png,0.0,-0.46587792,4.3958693,-3.4377744
alexnet,1,638,NaN,cat,cat,NaN,cat9-dog2.png,cat9-dog2.png,1.0,3.8952992,2.0604997,1.2973992
alexnet,1,639,NaN,oven,cat,NaN,cat9-knife2.png,cat9-knife2.png,0.0,-0.94600946,4.673981,-3.9739337
alexnet,1,640,NaN,car,cat,NaN,cat9-truck1.png,cat9-truck1.png,0.0,-2.3648427,6.531527,-6.2906837
alexnet,1,641,NaN,chair,chair,NaN,chair1-airplane2.png,chair1-airplane2.png,1.0,4.418634,4.0987825,0.2261691
alexnet,1,642,NaN,cat,chair,NaN,chair1-bear1.png,chair1-bear1.png,0.0,-1.605782,6.5286393,-5.7519045
alexnet,1,643,NaN,cat,chair,NaN,chair1-cat3.png,chair1-cat3.png,0.0,-1.5777365,2.9044235,-3.169366
alexnet,1,644,NaN,chair,chair,NaN,chair1-chair1.png,chair1-chair1.png,1.0,8.344684,4.8274393,2.4870675
alexnet,1,645,NaN,clock,chair,NaN,chair1-clock2.png,chair1-clock2.png,0.0,2.5793505,3.884201,-0.9226687
alexnet,1,646,NaN,dog,chair,NaN,chair1-dog1.png,chair1-dog1.png,0.0,-3.1424022,5.084029,-5.816965
alexnet,1,647,NaN,elephant,chair,NaN,chair1-elephant1.png,chair1-elephant1.png,0.0,1.0563745,9.783438,-6.1709657
alexnet,1,648,NaN,chair,chair,NaN,chair1-oven3.png,chair1-oven3.png,1.0,5.309259,4.8690267,0.31129125
alexnet,1,649,NaN,bottle,chair,NaN,chair1-truck3.png,chair1-truck3.png,0.0,4.6545005,4.974646,-0.22637713
alexnet,1,650,NaN,airplane,chair,NaN,chair10-airplane2.png,chair10-airplane2.png,0.0,5.5767226,5.7544537,-0.12567483
alexnet,1,651,NaN,bicycle,chair,NaN,chair10-bicycle1.png,chair10-bicycle1.png,0.0,0.10881895,8.879784,-6.2020087
alexnet,1,652,NaN,oven,chair,NaN,chair10-bird3.png,chair10-bird3.png,0.0,3.0796568,6.407093,-2.3528528
alexnet,1,653,NaN,bottle,chair,NaN,chair10-bottle3.png,chair10-bottle3.png,0.0,2.6956177,5.570867,-2.0331085
alexnet,1,654,NaN,bicycle,chair,NaN,chair10-car2.png,chair10-car2.png,0.0,0.8940995,8.89703,-5.6589265
alexnet,1,655,NaN,cat,chair,NaN,chair10-cat1.png,chair10-cat1.png,0.0,-2.4991288,4.034684,-4.6201034
alexnet,1,656,NaN,bottle,chair,NaN,chair10-clock1.png,chair10-clock1.png,0.0,2.2361763,4.943973,-1.9147015
alexnet,1,657,NaN,cat,chair,NaN,chair10-dog1.png,chair10-dog1.png,0.0,-2.486526,4.908565,-5.2291193
alexnet,1,658,NaN,oven,chair,NaN,chair10-oven1.png,chair10-oven1.png,0.0,5.8137026,11.528179,-4.0407453
alexnet,1,659,NaN,elephant,chair,NaN,chair2-bear2.png,chair2-bear2.png,0.0,-0.7105228,9.190615,-7.0011616
alexnet,1,660,NaN,chair,chair,NaN,chair2-boat1.png,chair2-boat1.png,1.0,4.556757,1.8511016,1.9131873
alexnet,1,661,NaN,bottle,chair,NaN,chair2-keyboard2.png,chair2-keyboard2.png,0.0,3.6736317,5.042609,-0.96801335
alexnet,1,662,NaN,oven,chair,NaN,chair2-knife1.png,chair2-knife1.png,0.0,5.876174,6.0207253,-0.10221319
alexnet,1,663,NaN,airplane,chair,NaN,chair3-airplane2.png,chair3-airplane2.png,0.0,3.37842,6.3933907,-2.131906
alexnet,1,664,NaN,chair,chair,NaN,chair3-bicycle3.png,chair3-bicycle3.png,1.0,5.9076834,5.539315,0.2604756
alexnet,1,665,NaN,bottle,chair,NaN,chair3-bottle3.png,chair3-bottle3.png,0.0,2.689905,3.5605083,-0.6156095
alexnet,1,666,NaN,chair,chair,NaN,chair3-car3.png,chair3-car3.png,1.0,4.6025147,3.655844,0.66939735
alexnet,1,667,NaN,cat,chair,NaN,chair3-dog2.png,chair3-dog2.png,0.0,-2.9408233,4.3162956,-5.1315584
alexnet,1,668,NaN,oven,chair,NaN,chair3-knife1.png,chair3-knife1.png,0.0,5.3319635,6.7541256,-1.0056205
alexnet,1,669,NaN,elephant,chair,NaN,chair4-bear2.png,chair4-bear2.png,0.0,-2.202105,12.111237,-10.12106
alexnet,1,670,NaN,cat,chair,NaN,chair4-cat2.png,chair4-cat2.png,0.0,-2.5864725,11.506078,-9.964938
alexnet,1,671,NaN,chair,chair,NaN,chair4-chair3.png,chair4-chair3.png,1.0,7.005808,5.079239,1.36229
alexnet,1,672,NaN,bottle,chair,NaN,chair4-keyboard2.png,chair4-keyboard2.png,0.0,3.546627,5.431111,-1.3325313
alexnet,1,673,NaN,oven,chair,NaN,chair4-oven2.png,chair4-oven2.png,0.0,4.315525,7.496422,-2.2492337
alexnet,1,674,NaN,chair,chair,NaN,chair4-truck2.png,chair4-truck2.png,1.0,4.97901,3.584702,0.9859247
alexnet,1,675,NaN,bicycle,chair,NaN,chair5-bicycle1.png,chair5-bicycle1.png,0.0,0.8217604,8.284583,-5.277013
alexnet,1,676,NaN,cat,chair,NaN,chair5-bird1.png,chair5-bird1.png,0.0,-1.5170258,2.1463106,-2.59037
alexnet,1,677,NaN,chair,chair,NaN,chair5-boat3.png,chair5-boat3.png,1.0,4.3065395,2.9429257,0.9642206
alexnet,1,678,NaN,bicycle,chair,NaN,chair5-bottle3.png,chair5-bottle3.png,0.0,3.2347379,6.339867,-2.195658
alexnet,1,679,NaN,bicycle,chair,NaN,chair5-car1.png,chair5-car1.png,0.0,2.5212748,4.944098,-1.7131947
alexnet,1,680,NaN,cat,chair,NaN,chair5-cat3.png,chair5-cat3.png,0.0,-2.009085,3.007616,-3.5473433
alexnet,1,681,NaN,oven,chair,NaN,chair5-clock2.png,chair5-clock2.png,0.0,3.048261,4.8916025,-1.3034394
alexnet,1,682,NaN,clock,chair,NaN,chair5-keyboard2.png,chair5-keyboard2.png,0.0,3.6494954,5.027736,-0.9745634
alexnet,1,683,NaN,knife,chair,NaN,chair5-knife3.png,chair5-knife3.png,0.0,2.2316792,9.132946,-4.879933
alexnet,1,684,NaN,oven,chair,NaN,chair5-oven2.png,chair5-oven2.png,0.0,5.644125,10.554974,-3.4724944
alexnet,1,685,NaN,knife,chair,NaN,chair5-truck3.png,chair5-truck3.png,0.0,3.9647727,4.3180294,-0.24979022
alexnet,1,686,NaN,bird,chair,NaN,chair6-bird2.png,chair6-bird2.png,0.0,0.7808603,2.5953264,-1.2830213
alexnet,1,687,NaN,bear,chair,NaN,chair6-dog1.png,chair6-dog1.png,0.0,-2.4242826,5.5547686,-5.642041
alexnet,1,688,NaN,elephant,chair,NaN,chair6-elephant2.png,chair6-elephant2.png,0.0,0.99251145,13.941643,-9.156419
alexnet,1,689,NaN,car,chair,NaN,chair6-truck2.png,chair6-truck2.png,0.0,3.9043329,6.614477,-1.9163615
alexnet,1,690,NaN,airplane,chair,NaN,chair7-airplane1.png,chair7-airplane1.png,0.0,3.0268705,4.9795957,-1.3807852
alexnet,1,691,NaN,oven,chair,NaN,chair7-bird1.png,chair7-bird1.png,0.0,0.5198699,5.460828,-3.493785
alexnet,1,692,NaN,chair,chair,NaN,chair7-boat3.png,chair7-boat3.png,1.0,4.835665,4.1975965,0.4511827
alexnet,1,693,NaN,clock,chair,NaN,chair7-bottle1.png,chair7-bottle1.png,0.0,3.558567,4.8349476,-0.90253735
alexnet,1,694,NaN,bicycle,chair,NaN,chair7-car2.png,chair7-car2.png,0.0,1.0908084,4.911384,-2.701555
alexnet,1,695,NaN,cat,chair,NaN,chair7-cat1.png,chair7-cat1.png,0.0,1.0294832,4.609514,-2.531464
alexnet,1,696,NaN,car,chair,NaN,chair7-chair1.png,chair7-chair1.png,0.0,6.432121,6.844833,-0.29183152
alexnet,1,697,NaN,clock,chair,NaN,chair7-clock3.png,chair7-clock3.png,0.0,4.723397,7.846312,-2.2082345
alexnet,1,698,NaN,elephant,chair,NaN,chair7-elephant1.png,chair7-elephant1.png,0.0,0.5449394,7.24934,-4.740727
alexnet,1,699,NaN,oven,chair,NaN,chair7-knife2.png,chair7-knife2.png,0.0,3.0312204,6.368024,-2.3594763
alexnet,1,700,NaN,chair,chair,NaN,chair7-truck3.png,chair7-truck3.png,1.0,6.257043,4.289447,1.3913006
alexnet,1,701,NaN,keyboard,chair,NaN,chair8-airplane1.png,chair8-airplane1.png,0.0,3.0510163,3.2940524,-0.17185242
alexnet,1,702,NaN,bear,chair,NaN,chair8-bear1.png,chair8-bear1.png,0.0,-2.7327294,5.9379234,-6.1310773
alexnet,1,703,NaN,bicycle,chair,NaN,chair8-bicycle3.png,chair8-bicycle3.png,0.0,2.7996957,3.8538342,-0.74538845
alexnet,1,704,NaN,bicycle,chair,NaN,chair8-boat1.png,chair8-boat1.png,0.0,4.663621,6.788829,-1.502749
alexnet,1,705,NaN,bicycle,chair,NaN,chair8-car1.png,chair8-car1.png,0.0,2.4689183,5.5290074,-2.1638098
alexnet,1,706,NaN,chair,chair,NaN,chair8-chair3.png,chair8-chair3.png,1.0,6.084403,6.024662,0.04224328
alexnet,1,707,NaN,bottle,chair,NaN,chair8-clock3.png,chair8-clock3.png,0.0,3.371596,3.8046765,-0.30623412
alexnet,1,708,NaN,elephant,chair,NaN,chair8-elephant1.png,chair8-elephant1.png,0.0,-0.060393155,8.826092,-6.283694
alexnet,1,709,NaN,bottle,chair,NaN,chair8-keyboard3.png,chair8-keyboard3.png,0.0,0.11183047,3.1345742,-2.1374025
alexnet,1,710,NaN,oven,chair,NaN,chair8-knife2.png,chair8-knife2.png,0.0,3.3665223,8.516668,-3.6417031
alexnet,1,711,NaN,oven,chair,NaN,chair8-oven1.png,chair8-oven1.png,0.0,7.4631176,8.750594,-0.9103834
alexnet,1,712,NaN,cat,chair,NaN,chair9-bear1.png,chair9-bear1.png,0.0,-1.5673969,6.1012135,-5.422527
alexnet,1,713,NaN,bicycle,chair,NaN,chair9-bicycle3.png,chair9-bicycle3.png,0.0,3.910816,5.4599614,-1.0954113
alexnet,1,714,NaN,oven,chair,NaN,chair9-bird3.png,chair9-bird3.png,0.0,3.7567918,5.813229,-1.4541208
alexnet,1,715,NaN,bicycle,chair,NaN,chair9-boat2.png,chair9-boat2.png,0.0,3.0407398,5.8742466,-2.003592
alexnet,1,716,NaN,bottle,chair,NaN,chair9-bottle3.png,chair9-bottle3.png,0.0,1.1986089,5.692294,-3.1775153
alexnet,1,717,NaN,airplane,chair,NaN,chair9-chair3.png,chair9-chair3.png,0.0,7.009283,8.856031,-1.3058484
alexnet,1,718,NaN,cat,chair,NaN,chair9-dog2.png,chair9-dog2.png,0.0,-1.6796914,2.769148,-3.1458046
alexnet,1,719,NaN,elephant,chair,NaN,chair9-elephant1.png,chair9-elephant1.png,0.0,1.1756282,6.7722545,-3.9574125
alexnet,1,720,NaN,clock,chair,NaN,chair9-keyboard2.png,chair9-keyboard2.png,0.0,2.8128295,5.9495063,-2.2179654
alexnet,1,721,NaN,cat,clock,NaN,clock1-bear1.png,clock1-bear1.png,0.0,-3.552431,8.694913,-8.66018
alexnet,1,722,NaN,car,clock,NaN,clock1-boat3.png,clock1-boat3.png,0.0,3.5286207,4.2029014,-0.47678843
alexnet,1,723,NaN,boat,clock,NaN,clock1-car1.png,clock1-car1.png,0.0,3.2522097,4.330554,-0.76250464
alexnet,1,724,NaN,clock,clock,NaN,clock1-clock2.png,clock1-clock2.png,1.0,8.256417,5.442661,1.9896263
alexnet,1,725,NaN,cat,clock,NaN,clock1-dog2.png,clock1-dog2.png,0.0,-1.6177759,6.2911053,-5.5924234
alexnet,1,726,NaN,elephant,clock,NaN,clock1-elephant2.png,clock1-elephant2.png,0.0,1.6300668,14.03685,-8.772921
alexnet,1,727,NaN,airplane,clock,NaN,clock1-truck3.png,clock1-truck3.png,0.0,3.9924228,7.69821,-2.620387
alexnet,1,728,NaN,clock,clock,NaN,clock10-airplane1.png,clock10-airplane1.png,1.0,6.3491683,6.0215564,0.23165661
alexnet,1,729,NaN,knife,clock,NaN,clock10-bird3.png,clock10-bird3.png,0.0,4.717832,4.8970385,-0.12671804
alexnet,1,730,NaN,bicycle,clock,NaN,clock10-boat2.png,clock10-boat2.png,0.0,5.630588,8.858976,-2.2828152
alexnet,1,731,NaN,clock,clock,NaN,clock10-bottle1.png,clock10-bottle1.png,1.0,6.9534645,6.845207,0.07654947
alexnet,1,732,NaN,dog,clock,NaN,clock10-cat1.png,clock10-cat1.png,0.0,-0.021997532,3.619407,-2.5748618
alexnet,1,733,NaN,clock,clock,NaN,clock10-clock3.png,clock10-clock3.png,1.0,9.908919,6.889099,2.1353354
alexnet,1,734,NaN,dog,clock,NaN,clock10-dog3.png,clock10-dog3.png,0.0,0.3152182,3.6117365,-2.3309906
alexnet,1,735,NaN,knife,clock,NaN,clock10-knife3.png,clock10-knife3.png,0.0,2.663884,5.0868855,-1.7133209
alexnet,1,736,NaN,oven,clock,NaN,clock10-oven2.png,clock10-oven2.png,0.0,4.8720665,6.676427,-1.2758754
alexnet,1,737,NaN,car,clock,NaN,clock10-truck2.png,clock10-truck2.png,0.0,2.433275,6.81127,-3.0957103
alexnet,1,738,NaN,cat,clock,NaN,clock2-bear2.png,clock2-bear2.png,0.0,0.9479926,4.2439275,-2.3305779
alexnet,1,739,NaN,clock,clock,NaN,clock2-bicycle1.png,clock2-bicycle1.png,1.0,11.365132,10.136173,0.8690053
alexnet,1,740,NaN,clock,clock,NaN,clock2-bottle3.png,clock2-bottle3.png,1.0,13.373067,9.692929,2.6022503
alexnet,1,741,NaN,clock,clock,NaN,clock2-clock3.png,clock2-clock3.png,1.0,14.449239,3.6575313,7.63089
alexnet,1,742,NaN,elephant,clock,NaN,clock2-dog1.png,clock2-dog1.png,0.0,-0.37435994,3.7132125,-2.8903503
alexnet,1,743,NaN,elephant,clock,NaN,clock2-elephant2.png,clock2-elephant2.png,0.0,6.33168,9.962496,-2.5673747
alexnet,1,744,NaN,clock,clock,NaN,clock2-knife1.png,clock2-knife1.png,1.0,8.516899,6.5826473,1.3677226
alexnet,1,745,NaN,elephant,clock,NaN,clock3-bear3.png,clock3-bear3.png,0.0,-0.97933245,5.289504,-4.432737
alexnet,1,746,NaN,clock,clock,NaN,clock3-bicycle2.png,clock3-bicycle2.png,1.0,7.048284,5.400284,1.1653122
alexnet,1,747,NaN,clock,clock,NaN,clock3-bird1.png,clock3-bird1.png,1.0,7.147526,6.325831,0.581026
alexnet,1,748,NaN,bicycle,clock,NaN,clock3-car2.png,clock3-car2.png,0.0,7.744306,8.898113,-0.81586486
alexnet,1,749,NaN,clock,clock,NaN,clock3-cat1.png,clock3-cat1.png,1.0,4.612675,3.0174525,1.1279929
alexnet,1,750,NaN,cat,clock,NaN,clock3-dog2.png,clock3-dog2.png,0.0,2.053689,2.972493,-0.6496925
alexnet,1,751,NaN,elephant,clock,NaN,clock3-elephant3.png,clock3-elephant3.png,0.0,4.251861,9.163235,-3.4728656
alexnet,1,752,NaN,clock,clock,NaN,clock3-keyboard3.png,clock3-keyboard3.png,1.0,9.606471,7.4911504,1.4957576
alexnet,1,753,NaN,clock,clock,NaN,clock4-airplane1.png,clock4-airplane1.png,1.0,9.716329,4.521107,3.6735764
alexnet,1,754,NaN,clock,clock,NaN,clock4-bird3.png,clock4-bird3.png,1.0,9.407257,2.2104151,5.088936
alexnet,1,755,NaN,clock,clock,NaN,clock4-boat3.png,clock4-boat3.png,1.0,6.541922,2.070755,3.1615927
alexnet,1,756,NaN,clock,clock,NaN,clock4-bottle3.png,clock4-bottle3.png,1.0,8.425786,2.9394295,3.87944
alexnet,1,757,NaN,bicycle,clock,NaN,clock4-car2.png,clock4-car2.png,0.0,5.5481668,7.249407,-1.2029585
alexnet,1,758,NaN,car,clock,NaN,clock4-chair1.png,clock4-chair1.png,0.0,5.965202,9.86908,-2.7604585
alexnet,1,759,NaN,elephant,clock,NaN,clock4-elephant2.png,clock4-elephant2.png,0.0,2.4323938,14.030691,-8.201235
alexnet,1,760,NaN,clock,clock,NaN,clock4-knife1.png,clock4-knife1.png,1.0,6.96985,2.793151,2.9533722
alexnet,1,761,NaN,clock,clock,NaN,clock4-oven1.png,clock4-oven1.png,1.0,9.777036,6.961555,1.9908456
alexnet,1,762,NaN,clock,clock,NaN,clock5-airplane1.png,clock5-airplane1.png,1.0,13.051842,2.978621,7.1228433
alexnet,1,763,NaN,clock,clock,NaN,clock5-bicycle1.png,clock5-bicycle1.png,1.0,10.042598,9.6247635,0.29545346
alexnet,1,764,NaN,clock,clock,NaN,clock5-chair3.png,clock5-chair3.png,1.0,11.912669,6.5379252,3.800518
alexnet,1,765,NaN,clock,clock,NaN,clock5-clock2.png,clock5-clock2.png,1.0,17.222397,5.2548814,8.462312
alexnet,1,766,NaN,elephant,clock,NaN,clock5-elephant2.png,clock5-elephant2.png,0.0,4.8040895,9.750713,-3.4977913
alexnet,1,767,NaN,clock,clock,NaN,clock5-keyboard1.png,clock5-keyboard1.png,1.0,11.64196,3.7652466,5.569678
alexnet,1,768,NaN,car,clock,NaN,clock5-oven1.png,clock5-oven1.png,0.0,9.858723,11.551852,-1.1972234
alexnet,1,769,NaN,bicycle,clock,NaN,clock6-bicycle1.png,clock6-bicycle1.png,0.0,8.921317,8.955047,-0.023850396
alexnet,1,770,NaN,clock,clock,NaN,clock6-bird3.png,clock6-bird3.png,1.0,8.416341,2.564315,4.138007
alexnet,1,771,NaN,clock,clock,NaN,clock6-bottle1.png,clock6-bottle1.png,1.0,7.629425,4.1314945,2.4734104
alexnet,1,772,NaN,clock,clock,NaN,clock6-car2.png,clock6-car2.png,1.0,5.346401,5.0066433,0.24024513
alexnet,1,773,NaN,airplane,clock,NaN,clock6-chair3.png,clock6-chair3.png,0.0,6.7772846,10.472137,-2.6126556
alexnet,1,774,NaN,clock,clock,NaN,clock6-clock2.png,clock6-clock2.png,1.0,9.344485,3.8151734,3.9098141
alexnet,1,775,NaN,clock,clock,NaN,clock6-knife2.png,clock6-knife2.png,1.0,6.012638,4.3681464,1.1628312
alexnet,1,776,NaN,oven,clock,NaN,clock6-oven1.png,clock6-oven1.png,0.0,8.163695,10.720976,-1.8082705
alexnet,1,777,NaN,car,clock,NaN,clock6-truck3.png,clock6-truck3.png,0.0,6.3552394,7.4476547,-0.7724543
alexnet,1,778,NaN,elephant,clock,NaN,clock7-bear2.png,clock7-bear2.png,0.0,0.9467783,4.2095523,-2.3071296
alexnet,1,779,NaN,clock,clock,NaN,clock7-bicycle1.png,clock7-bicycle1.png,1.0,12.569606,9.226345,2.3640423
alexnet,1,780,NaN,clock,clock,NaN,clock7-boat3.png,clock7-boat3.png,1.0,10.667815,6.393641,3.0222976
alexnet,1,781,NaN,clock,clock,NaN,clock7-bottle2.png,clock7-bottle2.png,1.0,7.487496,4.6567454,2.001643
alexnet,1,782,NaN,clock,clock,NaN,clock7-car1.png,clock7-car1.png,1.0,9.222697,7.9077525,0.92980635
alexnet,1,783,NaN,cat,clock,NaN,clock7-cat2.png,clock7-cat2.png,0.0,-0.45973524,8.650411,-6.441846
alexnet,1,784,NaN,clock,clock,NaN,clock7-dog2.png,clock7-dog2.png,1.0,5.2526045,3.5182917,1.2263443
alexnet,1,785,NaN,clock,clock,NaN,clock7-keyboard2.png,clock7-keyboard2.png,1.0,8.407071,6.702717,1.2051605
alexnet,1,786,NaN,car,clock,NaN,clock7-truck3.png,clock7-truck3.png,0.0,7.3984036,10.254517,-2.0195768
alexnet,1,787,NaN,car,clock,NaN,clock8-airplane2.png,clock8-airplane2.png,0.0,8.770293,10.6579485,-1.3347739
alexnet,1,788,NaN,bottle,clock,NaN,clock8-bear2.png,clock8-bear2.png,0.0,1.5417002,2.9821432,-1.0185469
alexnet,1,789,NaN,clock,clock,NaN,clock8-boat1.png,clock8-boat1.png,1.0,6.6289177,6.4697213,0.11256884
alexnet,1,790,NaN,knife,clock,NaN,clock8-cat1.png,clock8-cat1.png,0.0,0.47613636,4.5310683,-2.86727
alexnet,1,791,NaN,clock,clock,NaN,clock8-chair2.png,clock8-chair2.png,1.0,7.7087665,5.130597,1.8230411
alexnet,1,792,NaN,clock,clock,NaN,clock8-keyboard1.png,clock8-keyboard1.png,1.0,7.1630096,4.129859,2.1447616
alexnet,1,793,NaN,bicycle,clock,NaN,clock8-knife1.png,clock8-knife1.png,0.0,5.1761327,5.9057007,-0.5158825
alexnet,1,794,NaN,clock,clock,NaN,clock8-oven3.png,clock8-oven3.png,1.0,6.4509597,4.584797,1.3195764
alexnet,1,795,NaN,car,clock,NaN,clock8-truck2.png,clock8-truck2.png,0.0,4.4247456,8.477281,-2.865575
alexnet,1,796,NaN,clock,clock,NaN,clock9-airplane1.png,clock9-airplane1.png,1.0,7.5213685,4.5745196,2.083737
alexnet,1,797,NaN,bicycle,clock,NaN,clock9-bird2.png,clock9-bird2.png,0.0,2.3094053,2.996148,-0.4856005
alexnet,1,798,NaN,cat,clock,NaN,clock9-cat1.png,clock9-cat1.png,0.0,0.3569508,3.4558933,-2.1912832
alexnet,1,799,NaN,airplane,clock,NaN,clock9-chair3.png,clock9-chair3.png,0.0,5.2334867,8.696997,-2.4490714
alexnet,1,800,NaN,car,clock,NaN,clock9-keyboard2.png,clock9-keyboard2.png,0.0,3.6533563,6.894153,-2.2915895
alexnet,1,801,NaN,airplane,dog,NaN,dog1-airplane3.png,dog1-airplane3.png,0.0,-1.2991854,5.3238926,-4.6832232
alexnet,1,802,NaN,bear,dog,NaN,dog1-bear1.png,dog1-bear1.png,0.0,5.725007,10.855597,-3.6278746
alexnet,1,803,NaN,dog,dog,NaN,dog1-bird1.png,dog1-bird1.png,1.0,3.3673444,2.7224646,0.4559989
alexnet,1,804,NaN,truck,dog,NaN,dog1-boat3.png,dog1-boat3.png,0.0,-1.8953745,3.6864176,-3.946923
alexnet,1,805,NaN,bicycle,dog,NaN,dog1-car2.png,dog1-car2.png,0.0,-1.7859641,8.277689,-7.1160774
alexnet,1,806,NaN,dog,dog,NaN,dog1-cat3.png,dog1-cat3.png,1.0,3.3805313,1.3191392,1.4576243
alexnet,1,807,NaN,clock,dog,NaN,dog1-chair1.png,dog1-chair1.png,0.0,-1.2941631,5.0206914,-4.4652767
alexnet,1,808,NaN,dog,dog,NaN,dog1-dog2.png,dog1-dog2.png,1.0,3.670205,1.4274887,1.58584
alexnet,1,809,NaN,knife,dog,NaN,dog1-knife3.png,dog1-knife3.png,0.0,-1.9420948,7.512711,-6.685557
alexnet,1,810,NaN,boat,dog,NaN,dog10-airplane1.png,dog10-airplane1.png,0.0,-1.9983706,4.102544,-4.313998
alexnet,1,811,NaN,bicycle,dog,NaN,dog10-bicycle1.png,dog10-bicycle1.png,0.0,-1.0155112,10.562347,-8.186783
alexnet,1,812,NaN,clock,dog,NaN,dog10-bottle1.png,dog10-bottle1.png,0.0,-0.65175134,6.155512,-4.8134623
alexnet,1,813,NaN,bicycle,dog,NaN,dog10-car3.png,dog10-car3.png,0.0,-0.78282595,4.535469,-3.7606025
alexnet,1,814,NaN,clock,dog,NaN,dog10-clock1.png,dog10-clock1.png,0.0,-1.895466,5.827432,-5.4609137
alexnet,1,815,NaN,bear,dog,NaN,dog10-dog1.png,dog10-dog1.png,0.0,4.484361,5.319741,-0.5907026
alexnet,1,816,NaN,elephant,dog,NaN,dog10-elephant1.png,dog10-elephant1.png,0.0,-0.41632575,7.8697634,-5.85915
alexnet,1,817,NaN,keyboard,dog,NaN,dog10-keyboard2.png,dog10-keyboard2.png,0.0,-1.5326444,5.9549437,-5.294524
alexnet,1,818,NaN,oven,dog,NaN,dog10-oven2.png,dog10-oven2.png,0.0,-0.448643,8.170761,-6.094839
alexnet,1,819,NaN,truck,dog,NaN,dog10-truck2.png,dog10-truck2.png,0.0,-0.72771615,5.095166,-4.1173997
alexnet,1,820,NaN,car,dog,NaN,dog2-airplane2.png,dog2-airplane2.png,0.0,-2.1725879,9.941251,-8.565777
alexnet,1,821,NaN,bicycle,dog,NaN,dog2-bicycle2.png,dog2-bicycle2.png,0.0,0.0275788,7.10285,-5.002972
alexnet,1,822,NaN,bottle,dog,NaN,dog2-bottle2.png,dog2-bottle2.png,0.0,-0.9416326,9.723441,-7.541346
alexnet,1,823,NaN,dog,dog,NaN,dog2-cat1.png,dog2-cat1.png,1.0,5.0871987,3.8806686,0.8531456
alexnet,1,824,NaN,dog,dog,NaN,dog2-dog3.png,dog2-dog3.png,1.0,4.7610383,2.979182,1.2599627
alexnet,1,825,NaN,knife,dog,NaN,dog2-knife3.png,dog2-knife3.png,0.0,-0.77470607,8.925471,-6.8590612
alexnet,1,826,NaN,bear,dog,NaN,dog3-bear3.png,dog3-bear3.png,0.0,4.4981,7.582281,-2.1808455
alexnet,1,827,NaN,bicycle,dog,NaN,dog3-bird2.png,dog3-bird2.png,0.0,1.2943165,1.9565003,-0.46823463
alexnet,1,828,NaN,car,dog,NaN,dog3-boat1.png,dog3-boat1.png,0.0,-1.7296286,4.284633,-4.252725
alexnet,1,829,NaN,clock,dog,NaN,dog3-clock1.png,dog3-clock1.png,0.0,-2.2227669,6.0604706,-5.8571334
alexnet,1,830,NaN,bear,dog,NaN,dog3-dog1.png,dog3-dog1.png,0.0,3.9343576,4.579853,-0.4564342
alexnet,1,831,NaN,elephant,dog,NaN,dog3-elephant2.png,dog3-elephant2.png,0.0,1.6539409,13.964583,-8.704939
alexnet,1,832,NaN,keyboard,dog,NaN,dog3-keyboard1.png,dog3-keyboard1.png,0.0,-0.2447981,2.3429976,-1.8298479
alexnet,1,833,NaN,knife,dog,NaN,dog3-knife3.png,dog3-knife3.png,0.0,0.46083274,5.345862,-3.4542375
alexnet,1,834,NaN,chair,dog,NaN,dog3-truck2.png,dog3-truck2.png,0.0,-0.7871748,4.795907,-3.947835
alexnet,1,835,NaN,airplane,dog,NaN,dog4-airplane3.png,dog4-airplane3.png,0.0,-0.5211774,3.7371957,-3.0111246
alexnet,1,836,NaN,bicycle,dog,NaN,dog4-bicycle1.png,dog4-bicycle1.png,0.0,-2.0187747,6.4276237,-5.972506
alexnet,1,837,NaN,bird,dog,NaN,dog4-bird1.png,dog4-bird1.png,0.0,0.14624129,3.3389049,-2.257554
alexnet,1,838,NaN,bicycle,dog,NaN,dog4-bottle2.png,dog4-bottle2.png,0.0,0.2648826,8.277875,-5.666041
alexnet,1,839,NaN,cat,dog,NaN,dog4-cat3.png,dog4-cat3.png,0.0,3.615098,4.810778,-0.8454735
alexnet,1,840,NaN,car,dog,NaN,dog4-chair1.png,dog4-chair1.png,0.0,-0.7019716,5.3887753,-4.3068085
alexnet,1,841,NaN,bicycle,dog,NaN,dog4-clock1.png,dog4-clock1.png,0.0,-3.1463866,7.377536,-7.441537
alexnet,1,842,NaN,elephant,dog,NaN,dog4-elephant2.png,dog4-elephant2.png,0.0,1.2654943,14.180336,-9.132173
alexnet,1,843,NaN,bottle,dog,NaN,dog4-keyboard2.png,dog4-keyboard2.png,0.0,-0.4302433,5.022877,-3.8559387
alexnet,1,844,NaN,oven,dog,NaN,dog4-oven1.png,dog4-oven1.png,0.0,-0.88035345,7.0557737,-5.6116896
alexnet,1,845,NaN,car,dog,NaN,dog4-truck2.png,dog4-truck2.png,0.0,-1.3252574,8.290414,-6.7993064
alexnet,1,846,NaN,bear,dog,NaN,dog5-bear3.png,dog5-bear3.png,0.0,5.6811614,9.137947,-2.4443166
alexnet,1,847,NaN,truck,dog,NaN,dog5-boat3.png,dog5-boat3.png,0.0,-2.2727046,5.621258,-5.5818744
alexnet,1,848,NaN,car,dog,NaN,dog5-car3.png,dog5-car3.png,0.0,-1.0986503,4.3864474,-3.87855
alexnet,1,849,NaN,elephant,dog,NaN,dog5-elephant1.png,dog5-elephant1.png,0.0,-0.50087047,12.125487,-8.928184
alexnet,1,850,NaN,oven,dog,NaN,dog5-knife2.png,dog5-knife2.png,0.0,-2.1941605,8.592406,-7.6272545
alexnet,1,851,NaN,oven,dog,NaN,dog5-oven1.png,dog5-oven1.png,0.0,-1.1717901,5.9599304,-5.042888
alexnet,1,852,NaN,car,dog,NaN,dog5-truck2.png,dog5-truck2.png,0.0,-1.0835719,8.566802,-6.8238444
alexnet,1,853,NaN,bicycle,dog,NaN,dog6-bicycle1.png,dog6-bicycle1.png,0.0,-1.1353693,7.4116297,-6.043641
alexnet,1,854,NaN,bottle,dog,NaN,dog6-bird1.png,dog6-bird1.png,0.0,0.93401164,2.740391,-1.2773031
alexnet,1,855,NaN,dog,dog,NaN,dog6-cat1.png,dog6-cat1.png,1.0,3.570054,3.0004685,0.40275782
alexnet,1,856,NaN,clock,dog,NaN,dog6-clock1.png,dog6-clock1.png,0.0,-2.053821,5.6115346,-5.420225
alexnet,1,857,NaN,elephant,dog,NaN,dog6-elephant2.png,dog6-elephant2.png,0.0,1.373323,13.435001,-8.528894
alexnet,1,858,NaN,car,dog,NaN,dog6-truck2.png,dog6-truck2.png,0.0,-0.57027686,6.72324,-5.157295
alexnet,1,859,NaN,dog,dog,NaN,dog7-bird3.png,dog7-bird3.png,1.0,2.6004043,2.1728592,0.30232003
alexnet,1,860,NaN,bicycle,dog,NaN,dog7-car2.png,dog7-car2.png,0.0,-1.4361796,9.199344,-7.5204506
alexnet,1,861,NaN,chair,dog,NaN,dog7-chair2.png,dog7-chair2.png,0.0,-1.4289299,6.3374357,-5.4916496
alexnet,1,862,NaN,bottle,dog,NaN,dog7-keyboard3.png,dog7-keyboard3.png,0.0,-0.40710577,5.3709826,-4.085726
alexnet,1,863,NaN,knife,dog,NaN,dog7-knife3.png,dog7-knife3.png,0.0,-1.5385453,8.874982,-7.363476
alexnet,1,864,NaN,oven,dog,NaN,dog7-oven2.png,dog7-oven2.png,0.0,-0.42300096,9.274072,-6.8568664
alexnet,1,865,NaN,bear,dog,NaN,dog8-bear3.png,dog8-bear3.png,0.0,4.660865,7.9699135,-2.3398507
alexnet,1,866,NaN,clock,dog,NaN,dog8-boat3.png,dog8-boat3.png,0.0,-1.839559,3.5180035,-3.788369
alexnet,1,867,NaN,bicycle,dog,NaN,dog8-bottle2.png,dog8-bottle2.png,0.0,1.1573826,9.234922,-5.711683
alexnet,1,868,NaN,elephant,dog,NaN,dog8-chair3.png,dog8-chair3.png,0.0,-0.84224194,5.6713157,-4.6057806
alexnet,1,869,NaN,bicycle,dog,NaN,dog8-clock2.png,dog8-clock2.png,0.0,-2.4732785,5.847975,-5.8840146
alexnet,1,870,NaN,dog,dog,NaN,dog8-dog3.png,dog8-dog3.png,1.0,4.168286,1.5377864,1.860044
alexnet,1,871,NaN,bottle,dog,NaN,dog8-keyboard3.png,dog8-keyboard3.png,0.0,-1.7634254,6.136317,-5.5859613
alexnet,1,872,NaN,knife,dog,NaN,dog8-oven3.png,dog8-oven3.png,0.0,0.12843157,5.9622726,-4.1251483
alexnet,1,873,NaN,car,dog,NaN,dog9-airplane3.png,dog9-airplane3.png,0.0,-1.0843294,3.0694478,-2.937164
alexnet,1,874,NaN,bear,dog,NaN,dog9-bear3.png,dog9-bear3.png,0.0,3.7888505,7.1409907,-2.370321
alexnet,1,875,NaN,bicycle,dog,NaN,dog9-bicycle3.png,dog9-bicycle3.png,0.0,-0.9189361,4.642639,-3.9326277
alexnet,1,876,NaN,knife,dog,NaN,dog9-boat1.png,dog9-boat1.png,0.0,-1.6285045,3.532653,-3.6494896
alexnet,1,877,NaN,bicycle,dog,NaN,dog9-bottle1.png,dog9-bottle1.png,0.0,0.02840385,5.7829075,-4.069049
alexnet,1,878,NaN,bicycle,dog,NaN,dog9-car1.png,dog9-car1.png,0.0,-2.0930116,5.049416,-5.050459
alexnet,1,879,NaN,dog,dog,NaN,dog9-cat1.png,dog9-cat1.png,1.0,4.081157,3.9351165,0.10326636
alexnet,1,880,NaN,chair,dog,NaN,dog9-chair2.png,dog9-chair2.png,0.0,-0.7912919,6.389704,-5.077731
alexnet,1,881,NaN,airplane,elephant,NaN,elephant1-airplane2.png,elephant1-airplane2.png,0.0,-3.8865776,6.552271,-7.3813806
alexnet,1,882,NaN,elephant,elephant,NaN,elephant1-bear2.png,elephant1-bear2.png,1.0,11.724521,10.4807205,0.87949955
alexnet,1,883,NaN,bicycle,elephant,NaN,elephant1-boat2.png,elephant1-boat2.png,0.0,-1.0297828,5.092337,-4.3289924
alexnet,1,884,NaN,bicycle,elephant,NaN,elephant1-bottle1.png,elephant1-bottle1.png,0.0,1.5390047,5.3684444,-2.7078228
alexnet,1,885,NaN,bicycle,elephant,NaN,elephant1-car3.png,elephant1-car3.png,0.0,0.4567132,4.0681486,-2.5536704
alexnet,1,886,NaN,car,elephant,NaN,elephant1-chair1.png,elephant1-chair1.png,0.0,-0.51777923,4.8620677,-3.8041265
alexnet,1,887,NaN,cat,elephant,NaN,elephant1-dog2.png,elephant1-dog2.png,0.0,-2.6605797,4.5350766,-5.0880976
alexnet,1,888,NaN,bottle,elephant,NaN,elephant1-keyboard3.png,elephant1-keyboard3.png,0.0,-3.8209972,4.737274,-6.051612
alexnet,1,889,NaN,oven,elephant,NaN,elephant1-oven2.png,elephant1-oven2.png,0.0,2.554591,8.734213,-4.3696523
alexnet,1,890,NaN,cat,elephant,NaN,elephant10-bear1.png,elephant10-bear1.png,0.0,6.284852,6.49206,-0.14651829
alexnet,1,891,NaN,elephant,elephant,NaN,elephant10-elephant1.png,elephant10-elephant1.png,1.0,16.62215,3.1372051,9.535296
alexnet,1,892,NaN,chair,elephant,NaN,elephant10-keyboard1.png,elephant10-keyboard1.png,0.0,-0.14902318,4.163881,-3.0496836
alexnet,1,893,NaN,knife,elephant,NaN,elephant10-knife3.png,elephant10-knife3.png,0.0,0.9240513,4.441779,-2.4874094
alexnet,1,894,NaN,oven,elephant,NaN,elephant2-airplane3.png,elephant2-airplane3.png,0.0,-0.10735333,2.7519996,-2.021868
alexnet,1,895,NaN,bear,elephant,NaN,elephant2-bear3.png,elephant2-bear3.png,0.0,6.296835,9.23912,-2.0805094
alexnet,1,896,NaN,cat,elephant,NaN,elephant2-bird1.png,elephant2-bird1.png,0.0,-1.2292397,2.684528,-2.7674518
alexnet,1,897,NaN,bicycle,elephant,NaN,elephant2-boat1.png,elephant2-boat1.png,0.0,-2.6150866,3.4291139,-4.2738953
alexnet,1,898,NaN,bottle,elephant,NaN,elephant2-bottle3.png,elephant2-bottle3.png,0.0,2.7839375,5.568771,-1.9691746
alexnet,1,899,NaN,dog,elephant,NaN,elephant2-cat1.png,elephant2-cat1.png,0.0,-0.4368049,3.305346,-2.6461003
alexnet,1,900,NaN,bottle,elephant,NaN,elephant2-clock1.png,elephant2-clock1.png,0.0,-0.40150535,4.545815,-3.4982839
alexnet,1,901,NaN,elephant,elephant,NaN,elephant2-elephant3.png,elephant2-elephant3.png,1.0,13.084175,1.3316495,8.31029
alexnet,1,902,NaN,bottle,elephant,NaN,elephant2-keyboard3.png,elephant2-keyboard3.png,0.0,-3.0008616,4.609551,-5.3813744
alexnet,1,903,NaN,car,elephant,NaN,elephant2-truck2.png,elephant2-truck2.png,0.0,0.68045354,7.114563,-4.5496025
alexnet,1,904,NaN,cat,elephant,NaN,elephant3-cat2.png,elephant3-cat2.png,0.0,0.17854345,9.6531925,-6.699589
alexnet,1,905,NaN,chair,elephant,NaN,elephant3-chair1.png,elephant3-chair1.png,0.0,-2.5924525,3.9108338,-4.598518
alexnet,1,906,NaN,bottle,elephant,NaN,elephant3-keyboard2.png,elephant3-keyboard2.png,0.0,-1.8795098,4.58002,-4.5675774
alexnet,1,907,NaN,bicycle,elephant,NaN,elephant3-knife1.png,elephant3-knife1.png,0.0,2.1313589,3.8873944,-1.2417047
alexnet,1,908,NaN,knife,elephant,NaN,elephant3-oven1.png,elephant3-oven1.png,0.0,-2.8415468,8.893759,-8.298115
alexnet,1,909,NaN,car,elephant,NaN,elephant3-truck1.png,elephant3-truck1.png,0.0,-2.4976249,5.549418,-5.690119
alexnet,1,910,NaN,bicycle,elephant,NaN,elephant4-bicycle2.png,elephant4-bicycle2.png,0.0,2.6908002,6.50637,-2.6980155
alexnet,1,911,NaN,bird,elephant,NaN,elephant4-bird1.png,elephant4-bird1.png,0.0,-1.6693183,3.965899,-3.9847004
alexnet,1,912,NaN,clock,elephant,NaN,elephant4-boat3.png,elephant4-boat3.png,0.0,3.1161728,3.4192317,-0.21429498
alexnet,1,913,NaN,bottle,elephant,NaN,elephant4-car3.png,elephant4-car3.png,0.0,0.71716666,3.6123753,-2.0472217
alexnet,1,914,NaN,airplane,elephant,NaN,elephant4-chair3.png,elephant4-chair3.png,0.0,2.8959982,8.635741,-4.0586114
alexnet,1,915,NaN,clock,elephant,NaN,elephant4-clock3.png,elephant4-clock3.png,0.0,-1.0893081,4.6408343,-4.0518227
alexnet,1,916,NaN,oven,elephant,NaN,elephant4-oven1.png,elephant4-oven1.png,0.0,-2.9313173,7.949366,-7.6938057
alexnet,1,917,NaN,elephant,elephant,NaN,elephant5-bear2.png,elephant5-bear2.png,1.0,10.532931,10.4901495,0.030251322
alexnet,1,918,NaN,bicycle,elephant,NaN,elephant5-bicycle3.png,elephant5-bicycle3.png,0.0,-2.5335042,5.509056,-5.6869493
alexnet,1,919,NaN,bottle,elephant,NaN,elephant5-bottle2.png,elephant5-bottle2.png,0.0,0.75916374,5.5404673,-3.380892
alexnet,1,920,NaN,car,elephant,NaN,elephant5-car1.png,elephant5-car1.png,0.0,0.389511,5.6507707,-3.7202723
alexnet,1,921,NaN,airplane,elephant,NaN,elephant5-chair3.png,elephant5-chair3.png,0.0,3.622432,7.968106,-3.0728552
alexnet,1,922,NaN,elephant,elephant,NaN,elephant5-elephant1.png,elephant5-elephant1.png,1.0,11.042252,2.3746457,6.1289234
alexnet,1,923,NaN,car,elephant,NaN,elephant5-truck1.png,elephant5-truck1.png,0.0,-2.8655546,7.9345136,-7.6368012
alexnet,1,924,NaN,bicycle,elephant,NaN,elephant6-bicycle1.png,elephant6-bicycle1.png,0.0,0.4282354,9.541495,-6.4440484
alexnet,1,925,NaN,bird,elephant,NaN,elephant6-bird1.png,elephant6-bird1.png,0.0,-2.0050726,3.3431478,-3.7817628
alexnet,1,926,NaN,bottle,elephant,NaN,elephant6-bottle2.png,elephant6-bottle2.png,0.0,2.360721,4.6872444,-1.6451005
alexnet,1,927,NaN,bicycle,elephant,NaN,elephant6-car3.png,elephant6-car3.png,0.0,1.3227987,3.0413399,-1.2151921
alexnet,1,928,NaN,cat,elephant,NaN,elephant6-cat2.png,elephant6-cat2.png,0.0,0.43286562,10.100167,-6.8358145
alexnet,1,929,NaN,dog,elephant,NaN,elephant6-dog2.png,elephant6-dog2.png,0.0,-1.8415879,3.2163393,-3.5764947
alexnet,1,930,NaN,oven,elephant,NaN,elephant6-knife2.png,elephant6-knife2.png,0.0,1.986201,8.545998,-4.6384764
alexnet,1,931,NaN,oven,elephant,NaN,elephant6-oven1.png,elephant6-oven1.png,0.0,0.48102105,6.8976684,-4.537255
alexnet,1,932,NaN,truck,elephant,NaN,elephant6-truck3.png,elephant6-truck3.png,0.0,0.53826797,4.9732943,-3.136037
alexnet,1,933,NaN,airplane,elephant,NaN,elephant7-airplane3.png,elephant7-airplane3.png,0.0,2.3078232,4.405478,-1.483266
alexnet,1,934,NaN,bear,elephant,NaN,elephant7-bear3.png,elephant7-bear3.png,0.0,4.4344616,6.9331675,-1.7668519
alexnet,1,935,NaN,bird,elephant,NaN,elephant7-bird1.png,elephant7-bird1.png,0.0,-3.2922134,1.7662891,-3.5769017
alexnet,1,936,NaN,bicycle,elephant,NaN,elephant7-bottle3.png,elephant7-bottle3.png,0.0,0.8289146,3.683339,-2.018383
alexnet,1,937,NaN,car,elephant,NaN,elephant7-car3.png,elephant7-car3.png,0.0,-0.6651106,5.5233254,-4.375885
alexnet,1,938,NaN,dog,elephant,NaN,elephant7-cat1.png,elephant7-cat1.png,0.0,-2.690707,4.166584,-4.8488374
alexnet,1,939,NaN,clock,elephant,NaN,elephant7-clock2.png,elephant7-clock2.png,0.0,-1.9484949,4.7190495,-4.714666
alexnet,1,940,NaN,bear,elephant,NaN,elephant7-dog1.png,elephant7-dog1.png,0.0,1.9040686,5.7149215,-2.69468
alexnet,1,941,NaN,clock,elephant,NaN,elephant7-keyboard3.png,elephant7-keyboard3.png,0.0,-3.8815596,4.796415,-6.136255
alexnet,1,942,NaN,oven,elephant,NaN,elephant7-knife2.png,elephant7-knife2.png,0.0,0.21281064,5.2399025,-3.5546908
alexnet,1,943,NaN,airplane,elephant,NaN,elephant8-airplane3.png,elephant8-airplane3.png,0.0,0.8047367,4.610473,-2.6910622
alexnet,1,944,NaN,knife,elephant,NaN,elephant8-bicycle3.png,elephant8-bicycle3.png,0.0,-2.7664587,6.829131,-6.7851067
alexnet,1,945,NaN,elephant,elephant,NaN,elephant8-bird2.png,elephant8-bird2.png,1.0,7.256783,2.1138299,3.636617
