subj,session,trial,rt,object_response,category,condition,imagename,filename,is_correct,targ_act,max_nontarg_act,decision_margin
alexnet_w3_mlp_simclrhn_probe3,1,1,NaN,bird,airplane,NaN,airplane1-bicycle2.png,airplane1-bicycle2.png,0.0,-0.120506935,1.3522907,-1.0414252
alexnet_w3_mlp_simclrhn_probe3,1,2,NaN,chair,airplane,NaN,airplane1-chair2.png,airplane1-chair2.png,0.0,0.3174906,2.18337,-1.3193761
alexnet_w3_mlp_simclrhn_probe3,1,3,NaN,bicycle,airplane,NaN,airplane1-clock1.png,airplane1-clock1.png,0.0,-0.3104639,1.7861714,-1.4825451
alexnet_w3_mlp_simclrhn_probe3,1,4,NaN,cat,airplane,NaN,airplane1-elephant1.png,airplane1-elephant1.png,0.0,-1.2700881,0.3992294,-1.1803857
alexnet_w3_mlp_simclrhn_probe3,1,5,NaN,airplane,airplane,NaN,airplane10-airplane1.png,airplane10-airplane1.png,1.0,4.5898294,0.6642123,2.7758305
alexnet_w3_mlp_simclrhn_probe3,1,6,NaN,cat,airplane,NaN,airplane10-bear3.png,airplane10-bear3.png,0.0,-0.5119653,1.1980573,-1.2091686
alexnet_w3_mlp_simclrhn_probe3,1,7,NaN,airplane,airplane,NaN,airplane10-boat3.png,airplane10-boat3.png,1.0,2.6390738,1.928091,0.50274074
alexnet_w3_mlp_simclrhn_probe3,1,8,NaN,bicycle,airplane,NaN,airplane10-car3.png,airplane10-car3.png,0.0,0.48273546,1.0606065,-0.4086165
alexnet_w3_mlp_simclrhn_probe3,1,9,NaN,cat,airplane,NaN,airplane10-cat2.png,airplane10-cat2.png,0.0,-1.0204107,0.9580751,-1.3990008
alexnet_w3_mlp_simclrhn_probe3,1,10,NaN,cat,airplane,NaN,airplane10-dog3.png,airplane10-dog3.png,0.0,-0.38182026,2.2965343,-1.8938826
alexnet_w3_mlp_simclrhn_probe3,1,11,NaN,cat,airplane,NaN,airplane10-elephant1.png,airplane10-elephant1.png,0.0,-1.2784841,0.09311225,-0.9698651
alexnet_w3_mlp_simclrhn_probe3,1,12,NaN,bottle,airplane,NaN,airplane10-knife3.png,airplane10-knife3.png,0.0,1.1914241,1.4724214,-0.19869508
alexnet_w3_mlp_simclrhn_probe3,1,13,NaN,airplane,airplane,NaN,airplane10-oven2.png,airplane10-oven2.png,1.0,2.1542683,1.6389433,0.36438978
alexnet_w3_mlp_simclrhn_probe3,1,14,NaN,chair,airplane,NaN,airplane10-truck1.png,airplane10-truck1.png,0.0,0.2992934,2.5271416,-1.5753264
alexnet_w3_mlp_simclrhn_probe3,1,15,NaN,cat,airplane,NaN,airplane2-bear1.png,airplane2-bear1.png,0.0,-0.19205716,1.0691059,-0.8917769
alexnet_w3_mlp_simclrhn_probe3,1,16,NaN,oven,airplane,NaN,airplane2-bicycle1.png,airplane2-bicycle1.png,0.0,0.18820243,0.6096847,-0.29803297
alexnet_w3_mlp_simclrhn_probe3,1,17,NaN,airplane,airplane,NaN,airplane2-bird3.png,airplane2-bird3.png,1.0,1.4766241,0.76130795,0.50580496
alexnet_w3_mlp_simclrhn_probe3,1,18,NaN,airplane,airplane,NaN,airplane2-bottle1.png,airplane2-bottle1.png,1.0,0.9698216,0.9107815,0.041747633
alexnet_w3_mlp_simclrhn_probe3,1,19,NaN,cat,airplane,NaN,airplane2-cat1.png,airplane2-cat1.png,0.0,-0.15550253,1.6672534,-1.2888831
alexnet_w3_mlp_simclrhn_probe3,1,20,NaN,cat,airplane,NaN,airplane2-dog1.png,airplane2-dog1.png,0.0,-0.14231995,0.9815519,-0.7946974
alexnet_w3_mlp_simclrhn_probe3,1,21,NaN,airplane,airplane,NaN,airplane3-airplane2.png,airplane3-airplane2.png,1.0,3.8545632,1.3506905,1.7705055
alexnet_w3_mlp_simclrhn_probe3,1,22,NaN,bicycle,airplane,NaN,airplane3-car1.png,airplane3-car1.png,0.0,-1.8825431,1.5285927,-2.4120371
alexnet_w3_mlp_simclrhn_probe3,1,23,NaN,cat,airplane,NaN,airplane3-cat1.png,airplane3-cat1.png,0.0,-0.016556159,1.147891,-0.8233885
alexnet_w3_mlp_simclrhn_probe3,1,24,NaN,airplane,airplane,NaN,airplane3-chair3.png,airplane3-chair3.png,1.0,3.7764363,1.3493607,1.7162017
alexnet_w3_mlp_simclrhn_probe3,1,25,NaN,bicycle,airplane,NaN,airplane3-clock1.png,airplane3-clock1.png,0.0,-0.15027301,1.2211086,-0.9697132
alexnet_w3_mlp_simclrhn_probe3,1,26,NaN,oven,airplane,NaN,airplane3-dog1.png,airplane3-dog1.png,0.0,-0.2790974,0.48581687,-0.5408761
alexnet_w3_mlp_simclrhn_probe3,1,27,NaN,cat,airplane,NaN,airplane3-elephant1.png,airplane3-elephant1.png,0.0,-1.4836631,0.3142409,-1.2713101
alexnet_w3_mlp_simclrhn_probe3,1,28,NaN,keyboard,airplane,NaN,airplane3-keyboard2.png,airplane3-keyboard2.png,0.0,0.6167846,2.1564736,-1.0887246
alexnet_w3_mlp_simclrhn_probe3,1,29,NaN,airplane,airplane,NaN,airplane3-oven1.png,airplane3-oven1.png,1.0,4.5821047,1.7055769,2.0340123
alexnet_w3_mlp_simclrhn_probe3,1,30,NaN,airplane,airplane,NaN,airplane4-airplane1.png,airplane4-airplane1.png,1.0,1.1015172,0.45706713,0.45569503
alexnet_w3_mlp_simclrhn_probe3,1,31,NaN,cat,airplane,NaN,airplane4-bear3.png,airplane4-bear3.png,0.0,-0.4986652,1.0554343,-1.0989144
alexnet_w3_mlp_simclrhn_probe3,1,32,NaN,bird,airplane,NaN,airplane4-bicycle2.png,airplane4-bicycle2.png,0.0,0.03792376,0.6198544,-0.4114871
alexnet_w3_mlp_simclrhn_probe3,1,33,NaN,airplane,airplane,NaN,airplane4-bird3.png,airplane4-bird3.png,1.0,1.9420811,0.41043252,1.0830392
alexnet_w3_mlp_simclrhn_probe3,1,34,NaN,airplane,airplane,NaN,airplane4-boat3.png,airplane4-boat3.png,1.0,2.5076995,1.8647101,0.45466217
alexnet_w3_mlp_simclrhn_probe3,1,35,NaN,airplane,airplane,NaN,airplane4-bottle1.png,airplane4-bottle1.png,1.0,0.9985845,0.78361195,0.15200855
alexnet_w3_mlp_simclrhn_probe3,1,36,NaN,bicycle,airplane,NaN,airplane4-car1.png,airplane4-car1.png,0.0,-1.2218754,0.72151667,-1.3741857
alexnet_w3_mlp_simclrhn_probe3,1,37,NaN,cat,airplane,NaN,airplane4-cat3.png,airplane4-cat3.png,0.0,-0.33776507,1.4016181,-1.2299297
alexnet_w3_mlp_simclrhn_probe3,1,38,NaN,oven,airplane,NaN,airplane4-dog2.png,airplane4-dog2.png,0.0,0.05051956,0.9429148,-0.6310187
alexnet_w3_mlp_simclrhn_probe3,1,39,NaN,bicycle,airplane,NaN,airplane4-elephant1.png,airplane4-elephant1.png,0.0,-1.2822075,0.15120968,-1.013579
alexnet_w3_mlp_simclrhn_probe3,1,40,NaN,knife,airplane,NaN,airplane4-keyboard3.png,airplane4-keyboard3.png,0.0,1.0012853,1.3545257,-0.24977867
alexnet_w3_mlp_simclrhn_probe3,1,41,NaN,oven,airplane,NaN,airplane4-knife1.png,airplane4-knife1.png,0.0,-0.06651938,0.8990149,-0.68273586
alexnet_w3_mlp_simclrhn_probe3,1,42,NaN,chair,airplane,NaN,airplane4-truck2.png,airplane4-truck2.png,0.0,1.4417516,2.6295786,-0.8399205
alexnet_w3_mlp_simclrhn_probe3,1,43,NaN,bear,airplane,NaN,airplane5-bear2.png,airplane5-bear2.png,0.0,-0.37139243,1.756172,-1.5044153
alexnet_w3_mlp_simclrhn_probe3,1,44,NaN,bicycle,airplane,NaN,airplane5-bicycle1.png,airplane5-bicycle1.png,0.0,0.19012976,0.8583158,-0.4724789
alexnet_w3_mlp_simclrhn_probe3,1,45,NaN,oven,airplane,NaN,airplane5-bird2.png,airplane5-bird2.png,0.0,-0.17638609,0.8409473,-0.71936333
alexnet_w3_mlp_simclrhn_probe3,1,46,NaN,oven,airplane,NaN,airplane5-boat3.png,airplane5-boat3.png,0.0,1.4752432,2.147988,-0.47570246
alexnet_w3_mlp_simclrhn_probe3,1,47,NaN,oven,airplane,NaN,airplane5-bottle3.png,airplane5-bottle3.png,0.0,0.1770526,0.9127985,-0.5202509
alexnet_w3_mlp_simclrhn_probe3,1,48,NaN,airplane,airplane,NaN,airplane5-chair3.png,airplane5-chair3.png,1.0,3.560296,1.4202213,1.5132614
alexnet_w3_mlp_simclrhn_probe3,1,49,NaN,cat,airplane,NaN,airplane5-dog3.png,airplane5-dog3.png,0.0,-0.751774,2.2571428,-2.1276255
alexnet_w3_mlp_simclrhn_probe3,1,50,NaN,bicycle,airplane,NaN,airplane5-knife1.png,airplane5-knife1.png,0.0,-0.5044339,1.1736467,-1.1865822
alexnet_w3_mlp_simclrhn_probe3,1,51,NaN,chair,airplane,NaN,airplane5-oven3.png,airplane5-oven3.png,0.0,0.06399876,1.759842,-1.1991422
alexnet_w3_mlp_simclrhn_probe3,1,52,NaN,cat,airplane,NaN,airplane6-bear3.png,airplane6-bear3.png,0.0,-0.6532812,1.6972576,-1.662082
alexnet_w3_mlp_simclrhn_probe3,1,53,NaN,bottle,airplane,NaN,airplane6-bottle2.png,airplane6-bottle2.png,0.0,1.1579617,3.2382357,-1.470976
alexnet_w3_mlp_simclrhn_probe3,1,54,NaN,airplane,airplane,NaN,airplane6-chair3.png,airplane6-chair3.png,1.0,3.99599,1.0644164,2.0729356
alexnet_w3_mlp_simclrhn_probe3,1,55,NaN,knife,airplane,NaN,airplane6-keyboard3.png,airplane6-keyboard3.png,0.0,1.3039117,1.352025,-0.034021273
alexnet_w3_mlp_simclrhn_probe3,1,56,NaN,bicycle,airplane,NaN,airplane6-knife1.png,airplane6-knife1.png,0.0,0.07837702,1.0692245,-0.70063496
alexnet_w3_mlp_simclrhn_probe3,1,57,NaN,airplane,airplane,NaN,airplane7-airplane3.png,airplane7-airplane3.png,1.0,6.807087,1.2052124,3.9611235
alexnet_w3_mlp_simclrhn_probe3,1,58,NaN,airplane,airplane,NaN,airplane7-bird3.png,airplane7-bird3.png,1.0,1.3864131,0.63511765,0.5312461
alexnet_w3_mlp_simclrhn_probe3,1,59,NaN,boat,airplane,NaN,airplane7-boat2.png,airplane7-boat2.png,0.0,1.0070043,2.6469393,-1.1596092
alexnet_w3_mlp_simclrhn_probe3,1,60,NaN,oven,airplane,NaN,airplane7-bottle3.png,airplane7-bottle3.png,0.0,0.20022807,1.0829504,-0.6241789
alexnet_w3_mlp_simclrhn_probe3,1,61,NaN,bicycle,airplane,NaN,airplane7-car1.png,airplane7-car1.png,0.0,-0.85547143,1.200867,-1.4540509
alexnet_w3_mlp_simclrhn_probe3,1,62,NaN,cat,airplane,NaN,airplane7-cat3.png,airplane7-cat3.png,0.0,-0.27886987,1.4161843,-1.1985843
alexnet_w3_mlp_simclrhn_probe3,1,63,NaN,bicycle,airplane,NaN,airplane7-clock3.png,airplane7-clock3.png,0.0,0.44298992,0.5906699,-0.1044255
alexnet_w3_mlp_simclrhn_probe3,1,64,NaN,airplane,airplane,NaN,airplane7-keyboard1.png,airplane7-keyboard1.png,1.0,1.3103714,1.1875461,0.086850576
alexnet_w3_mlp_simclrhn_probe3,1,65,NaN,chair,airplane,NaN,airplane7-truck1.png,airplane7-truck1.png,0.0,-0.3241817,2.7436485,-2.1692836
alexnet_w3_mlp_simclrhn_probe3,1,66,NaN,bird,airplane,NaN,airplane8-bicycle3.png,airplane8-bicycle3.png,0.0,-0.060703497,0.7439137,-0.5689503
alexnet_w3_mlp_simclrhn_probe3,1,67,NaN,cat,airplane,NaN,airplane8-bird1.png,airplane8-bird1.png,0.0,-0.12161173,0.4516828,-0.40538046
alexnet_w3_mlp_simclrhn_probe3,1,68,NaN,airplane,airplane,NaN,airplane8-chair1.png,airplane8-chair1.png,1.0,3.4924207,0.99278796,1.7675073
alexnet_w3_mlp_simclrhn_probe3,1,69,NaN,clock,airplane,NaN,airplane8-clock2.png,airplane8-clock2.png,0.0,0.3360409,0.82874566,-0.34839487
alexnet_w3_mlp_simclrhn_probe3,1,70,NaN,cat,airplane,NaN,airplane8-elephant3.png,airplane8-elephant3.png,0.0,-0.43848798,0.10084632,-0.38136694
alexnet_w3_mlp_simclrhn_probe3,1,71,NaN,airplane,airplane,NaN,airplane8-oven2.png,airplane8-oven2.png,1.0,1.9041381,1.7606187,0.101483546
alexnet_w3_mlp_simclrhn_probe3,1,72,NaN,chair,airplane,NaN,airplane8-truck3.png,airplane8-truck3.png,0.0,1.3975911,2.4142334,-0.7188747
alexnet_w3_mlp_simclrhn_probe3,1,73,NaN,airplane,airplane,NaN,airplane9-airplane2.png,airplane9-airplane2.png,1.0,9.531175,2.1730087,5.203009
alexnet_w3_mlp_simclrhn_probe3,1,74,NaN,airplane,airplane,NaN,airplane9-boat1.png,airplane9-boat1.png,1.0,2.5221581,2.231861,0.205271
alexnet_w3_mlp_simclrhn_probe3,1,75,NaN,bicycle,airplane,NaN,airplane9-car2.png,airplane9-car2.png,0.0,-1.4081147,1.6773078,-2.181723
alexnet_w3_mlp_simclrhn_probe3,1,76,NaN,oven,airplane,NaN,airplane9-clock1.png,airplane9-clock1.png,0.0,0.18976739,1.7524602,-1.1049907
alexnet_w3_mlp_simclrhn_probe3,1,77,NaN,keyboard,airplane,NaN,airplane9-keyboard2.png,airplane9-keyboard2.png,0.0,0.5983393,1.2414896,-0.45477596
alexnet_w3_mlp_simclrhn_probe3,1,78,NaN,bottle,airplane,NaN,airplane9-knife3.png,airplane9-knife3.png,0.0,1.0840561,1.7384487,-0.46272546
alexnet_w3_mlp_simclrhn_probe3,1,79,NaN,chair,airplane,NaN,airplane9-oven2.png,airplane9-oven2.png,0.0,1.4098613,1.9570849,-0.38694552
alexnet_w3_mlp_simclrhn_probe3,1,80,NaN,chair,airplane,NaN,airplane9-truck1.png,airplane9-truck1.png,0.0,-0.50998586,4.3771324,-3.4557145
alexnet_w3_mlp_simclrhn_probe3,1,81,NaN,knife,bear,NaN,bear1-airplane3.png,bear1-airplane3.png,0.0,-0.20109841,1.4313078,-1.1542856
alexnet_w3_mlp_simclrhn_probe3,1,82,NaN,bear,bear,NaN,bear1-bear3.png,bear1-bear3.png,1.0,2.1871476,1.3026673,0.62542206
alexnet_w3_mlp_simclrhn_probe3,1,83,NaN,bird,bear,NaN,bear1-bicycle3.png,bear1-bicycle3.png,0.0,-0.51883423,0.8844596,-0.99227864
alexnet_w3_mlp_simclrhn_probe3,1,84,NaN,cat,bear,NaN,bear1-bird2.png,bear1-bird2.png,0.0,-0.12160429,1.6664515,-1.2643464
alexnet_w3_mlp_simclrhn_probe3,1,85,NaN,oven,bear,NaN,bear1-chair2.png,bear1-chair2.png,0.0,-0.30659938,1.59637,-1.3456025
alexnet_w3_mlp_simclrhn_probe3,1,86,NaN,cat,bear,NaN,bear1-clock2.png,bear1-clock2.png,0.0,-0.85862803,0.94738907,-1.277047
alexnet_w3_mlp_simclrhn_probe3,1,87,NaN,cat,bear,NaN,bear1-elephant1.png,bear1-elephant1.png,0.0,-0.3559504,0.36861387,-0.5123443
alexnet_w3_mlp_simclrhn_probe3,1,88,NaN,bear,bear,NaN,bear10-bear2.png,bear10-bear2.png,1.0,3.4326975,1.2408152,1.5498949
alexnet_w3_mlp_simclrhn_probe3,1,89,NaN,keyboard,bear,NaN,bear10-bottle1.png,bear10-bottle1.png,0.0,-0.12155092,0.8694499,-0.70074344
alexnet_w3_mlp_simclrhn_probe3,1,90,NaN,bicycle,bear,NaN,bear10-car2.png,bear10-car2.png,0.0,-1.25346,1.2769927,-1.7893003
alexnet_w3_mlp_simclrhn_probe3,1,91,NaN,cat,bear,NaN,bear10-cat2.png,bear10-cat2.png,0.0,0.44772628,1.2571036,-0.57231617
alexnet_w3_mlp_simclrhn_probe3,1,92,NaN,chair,bear,NaN,bear10-chair2.png,bear10-chair2.png,0.0,-0.48615038,1.3820012,-1.3209827
alexnet_w3_mlp_simclrhn_probe3,1,93,NaN,bicycle,bear,NaN,bear10-clock1.png,bear10-clock1.png,0.0,-0.3385694,1.5471835,-1.3334287
alexnet_w3_mlp_simclrhn_probe3,1,94,NaN,cat,bear,NaN,bear10-elephant1.png,bear10-elephant1.png,0.0,-0.40660658,0.19018555,-0.42199576
alexnet_w3_mlp_simclrhn_probe3,1,95,NaN,keyboard,bear,NaN,bear10-keyboard3.png,bear10-keyboard3.png,0.0,-0.6607479,1.9517626,-1.8473239
alexnet_w3_mlp_simclrhn_probe3,1,96,NaN,oven,bear,NaN,bear10-knife2.png,bear10-knife2.png,0.0,-0.081097394,0.7133763,-0.5617777
alexnet_w3_mlp_simclrhn_probe3,1,97,NaN,knife,bear,NaN,bear10-oven1.png,bear10-oven1.png,0.0,-0.8082507,2.0047255,-1.9890745
alexnet_w3_mlp_simclrhn_probe3,1,98,NaN,chair,bear,NaN,bear10-truck1.png,bear10-truck1.png,0.0,-0.83341813,2.3687232,-2.2642558
alexnet_w3_mlp_simclrhn_probe3,1,99,NaN,chair,bear,NaN,bear2-airplane1.png,bear2-airplane1.png,0.0,-0.4123511,0.39447135,-0.5705096
alexnet_w3_mlp_simclrhn_probe3,1,100,NaN,elephant,bear,NaN,bear2-bird3.png,bear2-bird3.png,0.0,3.1959262,3.6273146,-0.30503765
alexnet_w3_mlp_simclrhn_probe3,1,101,NaN,bicycle,bear,NaN,bear2-car2.png,bear2-car2.png,0.0,-1.3379302,0.8847137,-1.5716466
alexnet_w3_mlp_simclrhn_probe3,1,102,NaN,cat,bear,NaN,bear2-cat2.png,bear2-cat2.png,0.0,0.58300585,1.1941477,-0.43214256
alexnet_w3_mlp_simclrhn_probe3,1,103,NaN,bear,bear,NaN,bear2-dog1.png,bear2-dog1.png,1.0,1.6044822,0.8329794,0.54553485
alexnet_w3_mlp_simclrhn_probe3,1,104,NaN,cat,bear,NaN,bear2-elephant1.png,bear2-elephant1.png,0.0,-0.2817602,0.40152383,-0.4831548
alexnet_w3_mlp_simclrhn_probe3,1,105,NaN,keyboard,bear,NaN,bear2-keyboard2.png,bear2-keyboard2.png,0.0,-0.48929864,2.1250238,-1.8486052
alexnet_w3_mlp_simclrhn_probe3,1,106,NaN,oven,bear,NaN,bear2-knife2.png,bear2-knife2.png,0.0,-0.31645083,1.2414353,-1.1015918
alexnet_w3_mlp_simclrhn_probe3,1,107,NaN,knife,bear,NaN,bear2-oven1.png,bear2-oven1.png,0.0,-0.96654856,2.0566304,-2.1377103
alexnet_w3_mlp_simclrhn_probe3,1,108,NaN,airplane,bear,NaN,bear3-airplane1.png,bear3-airplane1.png,0.0,-0.55178326,0.918552,-1.039684
alexnet_w3_mlp_simclrhn_probe3,1,109,NaN,bird,bear,NaN,bear3-bicycle2.png,bear3-bicycle2.png,0.0,-0.04825149,0.7627511,-0.57346547
alexnet_w3_mlp_simclrhn_probe3,1,110,NaN,elephant,bear,NaN,bear3-bird3.png,bear3-bird3.png,0.0,0.8609621,1.0032331,-0.10060078
alexnet_w3_mlp_simclrhn_probe3,1,111,NaN,bicycle,bear,NaN,bear3-car2.png,bear3-car2.png,0.0,-1.3002126,0.6613028,-1.3870009
alexnet_w3_mlp_simclrhn_probe3,1,112,NaN,cat,bear,NaN,bear3-cat1.png,bear3-cat1.png,0.0,0.2510855,1.8245753,-1.1126254
alexnet_w3_mlp_simclrhn_probe3,1,113,NaN,chair,bear,NaN,bear3-chair2.png,bear3-chair2.png,0.0,-0.3216996,2.2705717,-1.8330127
alexnet_w3_mlp_simclrhn_probe3,1,114,NaN,cat,bear,NaN,bear3-dog3.png,bear3-dog3.png,0.0,0.8435409,1.7497607,-0.6407942
alexnet_w3_mlp_simclrhn_probe3,1,115,NaN,keyboard,bear,NaN,bear3-keyboard2.png,bear3-keyboard2.png,0.0,-0.60682124,2.6709738,-2.3177512
alexnet_w3_mlp_simclrhn_probe3,1,116,NaN,chair,bear,NaN,bear3-truck3.png,bear3-truck3.png,0.0,-0.34089532,3.1293585,-2.4538403
alexnet_w3_mlp_simclrhn_probe3,1,117,NaN,bicycle,bear,NaN,bear4-boat2.png,bear4-boat2.png,0.0,-0.37807912,2.2685738,-1.8714663
alexnet_w3_mlp_simclrhn_probe3,1,118,NaN,bicycle,bear,NaN,bear4-car3.png,bear4-car3.png,0.0,-0.8146107,1.7015712,-1.7792094
alexnet_w3_mlp_simclrhn_probe3,1,119,NaN,bear,bear,NaN,bear4-cat3.png,bear4-cat3.png,1.0,1.902443,1.8062016,0.068053
alexnet_w3_mlp_simclrhn_probe3,1,120,NaN,bottle,bear,NaN,bear4-clock3.png,bear4-clock3.png,0.0,-0.5493488,0.55831236,-0.7832347
alexnet_w3_mlp_simclrhn_probe3,1,121,NaN,cat,bear,NaN,bear4-elephant2.png,bear4-elephant2.png,0.0,-0.15904418,0.90173453,-0.75008386
alexnet_w3_mlp_simclrhn_probe3,1,122,NaN,keyboard,bear,NaN,bear4-keyboard3.png,bear4-keyboard3.png,0.0,-0.46924,1.1519754,-1.1463724
alexnet_w3_mlp_simclrhn_probe3,1,123,NaN,cat,bear,NaN,bear4-knife1.png,bear4-knife1.png,0.0,-0.85704774,0.42781845,-0.9085376
alexnet_w3_mlp_simclrhn_probe3,1,124,NaN,chair,bear,NaN,bear4-oven2.png,bear4-oven2.png,0.0,-0.17509307,1.3593588,-1.0850214
alexnet_w3_mlp_simclrhn_probe3,1,125,NaN,bottle,bear,NaN,bear4-truck3.png,bear4-truck3.png,0.0,-0.7191247,1.8565522,-1.8212787
alexnet_w3_mlp_simclrhn_probe3,1,126,NaN,knife,bear,NaN,bear5-airplane3.png,bear5-airplane3.png,0.0,-0.64182854,1.0512064,-1.1971564
alexnet_w3_mlp_simclrhn_probe3,1,127,NaN,bird,bear,NaN,bear5-bicycle3.png,bear5-bicycle3.png,0.0,-0.31642628,0.30152655,-0.43695864
alexnet_w3_mlp_simclrhn_probe3,1,128,NaN,cat,bear,NaN,bear5-bird1.png,bear5-bird1.png,0.0,-0.21513696,0.71593004,-0.6583638
alexnet_w3_mlp_simclrhn_probe3,1,129,NaN,oven,bear,NaN,bear5-boat2.png,bear5-boat2.png,0.0,-0.35505176,2.1180372,-1.748738
alexnet_w3_mlp_simclrhn_probe3,1,130,NaN,bicycle,bear,NaN,bear5-bottle1.png,bear5-bottle1.png,0.0,-0.22171742,0.5703794,-0.56009704
alexnet_w3_mlp_simclrhn_probe3,1,131,NaN,bottle,bear,NaN,bear5-chair1.png,bear5-chair1.png,0.0,-0.7194816,1.2235831,-1.3739543
alexnet_w3_mlp_simclrhn_probe3,1,132,NaN,chair,bear,NaN,bear5-oven3.png,bear5-oven3.png,0.0,-0.90639627,2.292949,-2.2622786
alexnet_w3_mlp_simclrhn_probe3,1,133,NaN,cat,bear,NaN,bear6-bear1.png,bear6-bear1.png,0.0,1.6634804,1.7328677,-0.04906424
alexnet_w3_mlp_simclrhn_probe3,1,134,NaN,cat,bear,NaN,bear6-bird2.png,bear6-bird2.png,0.0,-0.4413282,1.5010629,-1.3734779
alexnet_w3_mlp_simclrhn_probe3,1,135,NaN,oven,bear,NaN,bear6-boat3.png,bear6-boat3.png,0.0,-0.20379359,4.3774147,-3.2394035
alexnet_w3_mlp_simclrhn_probe3,1,136,NaN,bottle,bear,NaN,bear6-bottle3.png,bear6-bottle3.png,0.0,-0.37760562,0.5933439,-0.686565
alexnet_w3_mlp_simclrhn_probe3,1,137,NaN,bicycle,bear,NaN,bear6-car2.png,bear6-car2.png,0.0,-1.0735712,0.9048072,-1.3989248
alexnet_w3_mlp_simclrhn_probe3,1,138,NaN,cat,bear,NaN,bear6-cat3.png,bear6-cat3.png,0.0,0.29701692,1.8846427,-1.1226209
alexnet_w3_mlp_simclrhn_probe3,1,139,NaN,chair,bear,NaN,bear6-chair1.png,bear6-chair1.png,0.0,-0.98924196,2.0547864,-2.1524532
alexnet_w3_mlp_simclrhn_probe3,1,140,NaN,bicycle,bear,NaN,bear6-clock1.png,bear6-clock1.png,0.0,-0.54381466,1.5123587,-1.4539341
alexnet_w3_mlp_simclrhn_probe3,1,141,NaN,bear,bear,NaN,bear7-bear2.png,bear7-bear2.png,1.0,2.946377,1.6403797,0.9234796
alexnet_w3_mlp_simclrhn_probe3,1,142,NaN,bird,bear,NaN,bear7-bicycle2.png,bear7-bicycle2.png,0.0,-0.1584866,0.541291,-0.4948175
alexnet_w3_mlp_simclrhn_probe3,1,143,NaN,oven,bear,NaN,bear7-clock1.png,bear7-clock1.png,0.0,-0.3208445,1.256423,-1.1152966
alexnet_w3_mlp_simclrhn_probe3,1,144,NaN,cat,bear,NaN,bear7-dog3.png,bear7-dog3.png,0.0,0.4807952,1.7459173,-0.8945765
alexnet_w3_mlp_simclrhn_probe3,1,145,NaN,oven,bear,NaN,bear7-oven3.png,bear7-oven3.png,0.0,-0.56807077,2.6357522,-2.265445
alexnet_w3_mlp_simclrhn_probe3,1,146,NaN,chair,bear,NaN,bear7-truck1.png,bear7-truck1.png,0.0,-1.1434458,2.3278825,-2.4545999
alexnet_w3_mlp_simclrhn_probe3,1,147,NaN,chair,bear,NaN,bear8-airplane1.png,bear8-airplane1.png,0.0,-0.96838206,0.54573214,-1.0706404
alexnet_w3_mlp_simclrhn_probe3,1,148,NaN,bear,bear,NaN,bear8-bear1.png,bear8-bear1.png,1.0,2.5343943,0.6346832,1.3432987
alexnet_w3_mlp_simclrhn_probe3,1,149,NaN,bicycle,bear,NaN,bear8-bicycle3.png,bear8-bicycle3.png,0.0,-0.36471865,0.18707114,-0.3901743
alexnet_w3_mlp_simclrhn_probe3,1,150,NaN,chair,bear,NaN,bear8-boat2.png,bear8-boat2.png,0.0,-0.20731544,1.7837739,-1.4079129
alexnet_w3_mlp_simclrhn_probe3,1,151,NaN,chair,bear,NaN,bear8-bottle1.png,bear8-bottle1.png,0.0,-0.1307326,0.5753399,-0.49926868
alexnet_w3_mlp_simclrhn_probe3,1,152,NaN,bear,bear,NaN,bear8-dog1.png,bear8-dog1.png,1.0,1.7067834,0.8640185,0.5959248
alexnet_w3_mlp_simclrhn_probe3,1,153,NaN,cat,bear,NaN,bear8-elephant2.png,bear8-elephant2.png,0.0,-0.14415401,0.82514006,-0.6853944
alexnet_w3_mlp_simclrhn_probe3,1,154,NaN,bottle,bear,NaN,bear8-knife3.png,bear8-knife3.png,0.0,-1.7936517,0.30830023,-1.4863044
alexnet_w3_mlp_simclrhn_probe3,1,155,NaN,chair,bear,NaN,bear8-truck3.png,bear8-truck3.png,0.0,-0.8576162,2.603952,-2.4476984
alexnet_w3_mlp_simclrhn_probe3,1,156,NaN,oven,bear,NaN,bear9-boat2.png,bear9-boat2.png,0.0,-0.21002248,2.3008924,-1.7754849
alexnet_w3_mlp_simclrhn_probe3,1,157,NaN,bottle,bear,NaN,bear9-bottle2.png,bear9-bottle2.png,0.0,-0.635671,1.6824065,-1.6391284
alexnet_w3_mlp_simclrhn_probe3,1,158,NaN,bear,bear,NaN,bear9-dog1.png,bear9-dog1.png,1.0,2.1917884,0.95461875,0.8748111
alexnet_w3_mlp_simclrhn_probe3,1,159,NaN,keyboard,bear,NaN,bear9-keyboard3.png,bear9-keyboard3.png,0.0,-0.58097494,2.3140073,-2.0470617
alexnet_w3_mlp_simclrhn_probe3,1,160,NaN,oven,bear,NaN,bear9-knife2.png,bear9-knife2.png,0.0,-0.13523942,1.7866948,-1.3590127
alexnet_w3_mlp_simclrhn_probe3,1,161,NaN,bicycle,bicycle,NaN,bicycle1-airplane2.png,bicycle1-airplane2.png,1.0,5.558322,3.0758898,1.7553446
alexnet_w3_mlp_simclrhn_probe3,1,162,NaN,cat,bicycle,NaN,bicycle1-bear1.png,bicycle1-bear1.png,0.0,-1.0232618,1.397149,-1.7114888
alexnet_w3_mlp_simclrhn_probe3,1,163,NaN,bicycle,bicycle,NaN,bicycle1-bicycle3.png,bicycle1-bicycle3.png,1.0,7.9736443,1.6528087,4.469506
alexnet_w3_mlp_simclrhn_probe3,1,164,NaN,cat,bicycle,NaN,bicycle1-bird1.png,bicycle1-bird1.png,0.0,-0.5419041,0.5519373,-0.77346265
alexnet_w3_mlp_simclrhn_probe3,1,165,NaN,bicycle,bicycle,NaN,bicycle1-boat3.png,bicycle1-boat3.png,1.0,2.2588184,2.1500354,0.0769212
alexnet_w3_mlp_simclrhn_probe3,1,166,NaN,bicycle,bicycle,NaN,bicycle1-bottle3.png,bicycle1-bottle3.png,1.0,17.226093,3.2334828,9.89427
alexnet_w3_mlp_simclrhn_probe3,1,167,NaN,chair,bicycle,NaN,bicycle1-chair1.png,bicycle1-chair1.png,0.0,1.8505559,2.5588877,-0.50086623
alexnet_w3_mlp_simclrhn_probe3,1,168,NaN,bicycle,bicycle,NaN,bicycle1-clock3.png,bicycle1-clock3.png,1.0,7.623209,2.795584,3.4136467
alexnet_w3_mlp_simclrhn_probe3,1,169,NaN,cat,bicycle,NaN,bicycle1-dog3.png,bicycle1-dog3.png,0.0,-0.32250166,1.8745337,-1.5535386
alexnet_w3_mlp_simclrhn_probe3,1,170,NaN,cat,bicycle,NaN,bicycle1-elephant2.png,bicycle1-elephant2.png,0.0,-0.525619,0.79804826,-0.9359741
alexnet_w3_mlp_simclrhn_probe3,1,171,NaN,bottle,bicycle,NaN,bicycle1-knife3.png,bicycle1-knife3.png,0.0,-0.6282833,1.6707562,-1.6256665
alexnet_w3_mlp_simclrhn_probe3,1,172,NaN,knife,bicycle,NaN,bicycle1-oven1.png,bicycle1-oven1.png,0.0,-0.2531957,2.9139762,-2.239529
alexnet_w3_mlp_simclrhn_probe3,1,173,NaN,bicycle,bicycle,NaN,bicycle1-truck1.png,bicycle1-truck1.png,1.0,10.373089,4.511756,4.1445885
alexnet_w3_mlp_simclrhn_probe3,1,174,NaN,bicycle,bicycle,NaN,bicycle10-airplane2.png,bicycle10-airplane2.png,1.0,3.5564387,3.4366837,0.084679596
alexnet_w3_mlp_simclrhn_probe3,1,175,NaN,chair,bicycle,NaN,bicycle10-boat3.png,bicycle10-boat3.png,0.0,1.1567495,2.4573305,-0.91964966
alexnet_w3_mlp_simclrhn_probe3,1,176,NaN,bicycle,bicycle,NaN,bicycle10-clock2.png,bicycle10-clock2.png,1.0,6.8874817,2.3770216,3.1893768
alexnet_w3_mlp_simclrhn_probe3,1,177,NaN,dog,bicycle,NaN,bicycle10-dog3.png,bicycle10-dog3.png,0.0,-0.1280025,1.1139311,-0.87817967
alexnet_w3_mlp_simclrhn_probe3,1,178,NaN,cat,bicycle,NaN,bicycle10-elephant2.png,bicycle10-elephant2.png,0.0,-0.668753,0.9690242,-1.1580834
alexnet_w3_mlp_simclrhn_probe3,1,179,NaN,bicycle,bicycle,NaN,bicycle2-bicycle1.png,bicycle2-bicycle1.png,1.0,3.2996862,0.41030082,2.0431042
alexnet_w3_mlp_simclrhn_probe3,1,180,NaN,bicycle,bicycle,NaN,bicycle2-bird3.png,bicycle2-bird3.png,1.0,0.9438321,0.37293634,0.4036843
alexnet_w3_mlp_simclrhn_probe3,1,181,NaN,bicycle,bicycle,NaN,bicycle2-bottle1.png,bicycle2-bottle1.png,1.0,0.85945594,0.5749557,0.20117205
alexnet_w3_mlp_simclrhn_probe3,1,182,NaN,bicycle,bicycle,NaN,bicycle2-car2.png,bicycle2-car2.png,1.0,2.831235,0.41173008,1.7108483
alexnet_w3_mlp_simclrhn_probe3,1,183,NaN,cat,bicycle,NaN,bicycle2-dog1.png,bicycle2-dog1.png,0.0,-0.42182416,1.1852258,-1.1363559
alexnet_w3_mlp_simclrhn_probe3,1,184,NaN,knife,bicycle,NaN,bicycle2-keyboard2.png,bicycle2-keyboard2.png,0.0,-0.12910531,1.1727202,-0.92052966
alexnet_w3_mlp_simclrhn_probe3,1,185,NaN,chair,bicycle,NaN,bicycle2-knife2.png,bicycle2-knife2.png,0.0,0.32259566,1.6704232,-0.95305794
alexnet_w3_mlp_simclrhn_probe3,1,186,NaN,cat,bicycle,NaN,bicycle3-bird1.png,bicycle3-bird1.png,0.0,-0.46362463,0.8559284,-0.9330649
alexnet_w3_mlp_simclrhn_probe3,1,187,NaN,cat,bicycle,NaN,bicycle3-elephant2.png,bicycle3-elephant2.png,0.0,-0.59531176,0.88020515,-1.0433481
alexnet_w3_mlp_simclrhn_probe3,1,188,NaN,bicycle,bicycle,NaN,bicycle3-keyboard1.png,bicycle3-keyboard1.png,1.0,5.82815,1.1933903,3.2772698
alexnet_w3_mlp_simclrhn_probe3,1,189,NaN,chair,bicycle,NaN,bicycle3-oven3.png,bicycle3-oven3.png,0.0,0.06998676,2.268331,-1.5544641
alexnet_w3_mlp_simclrhn_probe3,1,190,NaN,chair,bicycle,NaN,bicycle3-truck3.png,bicycle3-truck3.png,0.0,-0.6490613,2.452783,-2.1933353
alexnet_w3_mlp_simclrhn_probe3,1,191,NaN,bicycle,bicycle,NaN,bicycle4-airplane1.png,bicycle4-airplane1.png,1.0,4.510373,1.590575,2.064609
alexnet_w3_mlp_simclrhn_probe3,1,192,NaN,bicycle,bicycle,NaN,bicycle4-bicycle3.png,bicycle4-bicycle3.png,1.0,6.228101,1.424887,3.3963852
alexnet_w3_mlp_simclrhn_probe3,1,193,NaN,bicycle,bicycle,NaN,bicycle4-boat1.png,bicycle4-boat1.png,1.0,8.448227,2.4516172,4.2402434
alexnet_w3_mlp_simclrhn_probe3,1,194,NaN,bicycle,bicycle,NaN,bicycle4-bottle1.png,bicycle4-bottle1.png,1.0,0.92954785,0.81327313,0.08221864
alexnet_w3_mlp_simclrhn_probe3,1,195,NaN,bicycle,bicycle,NaN,bicycle4-car2.png,bicycle4-car2.png,1.0,7.396323,1.0464097,4.490067
alexnet_w3_mlp_simclrhn_probe3,1,196,NaN,cat,bicycle,NaN,bicycle4-cat1.png,bicycle4-cat1.png,0.0,-0.50591654,3.319362,-2.7048805
alexnet_w3_mlp_simclrhn_probe3,1,197,NaN,bicycle,bicycle,NaN,bicycle4-chair2.png,bicycle4-chair2.png,1.0,2.6024292,2.3494172,0.17890646
alexnet_w3_mlp_simclrhn_probe3,1,198,NaN,bicycle,bicycle,NaN,bicycle4-clock3.png,bicycle4-clock3.png,1.0,4.1754227,1.536832,1.8657655
alexnet_w3_mlp_simclrhn_probe3,1,199,NaN,car,bicycle,NaN,bicycle4-keyboard3.png,bicycle4-keyboard3.png,0.0,-0.036729433,0.59366107,-0.44575343
alexnet_w3_mlp_simclrhn_probe3,1,200,NaN,clock,bicycle,NaN,bicycle4-knife3.png,bicycle4-knife3.png,0.0,-0.68366444,0.9539881,-1.1579952
alexnet_w3_mlp_simclrhn_probe3,1,201,NaN,chair,bicycle,NaN,bicycle4-oven3.png,bicycle4-oven3.png,0.0,0.14962667,1.991316,-1.302271
alexnet_w3_mlp_simclrhn_probe3,1,202,NaN,chair,bicycle,NaN,bicycle4-truck3.png,bicycle4-truck3.png,0.0,-0.34829253,2.7702212,-2.2051222
alexnet_w3_mlp_simclrhn_probe3,1,203,NaN,cat,bicycle,NaN,bicycle5-bear1.png,bicycle5-bear1.png,0.0,-0.85544765,1.4655056,-1.6411619
alexnet_w3_mlp_simclrhn_probe3,1,204,NaN,bicycle,bicycle,NaN,bicycle5-bottle3.png,bicycle5-bottle3.png,1.0,7.7562685,1.4869738,4.433061
alexnet_w3_mlp_simclrhn_probe3,1,205,NaN,bicycle,bicycle,NaN,bicycle5-car3.png,bicycle5-car3.png,1.0,9.412229,2.3890874,4.9661107
alexnet_w3_mlp_simclrhn_probe3,1,206,NaN,cat,bicycle,NaN,bicycle5-cat1.png,bicycle5-cat1.png,0.0,-0.4603753,1.9101337,-1.6762031
alexnet_w3_mlp_simclrhn_probe3,1,207,NaN,bicycle,bicycle,NaN,bicycle5-chair2.png,bicycle5-chair2.png,1.0,2.2660213,2.2310104,0.024756385
alexnet_w3_mlp_simclrhn_probe3,1,208,NaN,cat,bicycle,NaN,bicycle5-dog2.png,bicycle5-dog2.png,0.0,-0.083693266,1.3097727,-0.9853293
alexnet_w3_mlp_simclrhn_probe3,1,209,NaN,bicycle,bicycle,NaN,bicycle5-elephant1.png,bicycle5-elephant1.png,1.0,0.4561107,0.43736652,0.01325413
alexnet_w3_mlp_simclrhn_probe3,1,210,NaN,knife,bicycle,NaN,bicycle5-keyboard3.png,bicycle5-keyboard3.png,0.0,-0.40602306,0.8585879,-0.89421505
alexnet_w3_mlp_simclrhn_probe3,1,211,NaN,chair,bicycle,NaN,bicycle5-oven3.png,bicycle5-oven3.png,0.0,0.22692978,2.4431233,-1.5670856
alexnet_w3_mlp_simclrhn_probe3,1,212,NaN,chair,bicycle,NaN,bicycle6-airplane2.png,bicycle6-airplane2.png,0.0,1.8548915,2.7110505,-0.60539585
alexnet_w3_mlp_simclrhn_probe3,1,213,NaN,bicycle,bicycle,NaN,bicycle6-bicycle3.png,bicycle6-bicycle3.png,1.0,1.4779284,0.25128725,0.8673663
alexnet_w3_mlp_simclrhn_probe3,1,214,NaN,bicycle,bicycle,NaN,bicycle6-boat2.png,bicycle6-boat2.png,1.0,2.9518995,2.7890868,0.11512598
alexnet_w3_mlp_simclrhn_probe3,1,215,NaN,bicycle,bicycle,NaN,bicycle6-car2.png,bicycle6-car2.png,1.0,2.6145966,0.758229,1.3126501
alexnet_w3_mlp_simclrhn_probe3,1,216,NaN,cat,bicycle,NaN,bicycle6-cat1.png,bicycle6-cat1.png,0.0,-0.45140386,2.4581344,-2.0573542
alexnet_w3_mlp_simclrhn_probe3,1,217,NaN,cat,bicycle,NaN,bicycle6-dog2.png,bicycle6-dog2.png,0.0,-0.21247938,1.4570845,-1.18056
alexnet_w3_mlp_simclrhn_probe3,1,218,NaN,cat,bicycle,NaN,bicycle7-bear2.png,bicycle7-bear2.png,0.0,-0.6360178,1.4952053,-1.5070024
alexnet_w3_mlp_simclrhn_probe3,1,219,NaN,bicycle,bicycle,NaN,bicycle7-bicycle2.png,bicycle7-bicycle2.png,1.0,10.57297,1.6354824,6.3197584
alexnet_w3_mlp_simclrhn_probe3,1,220,NaN,cat,bicycle,NaN,bicycle7-cat1.png,bicycle7-cat1.png,0.0,-0.5356174,2.3236823,-2.0218303
alexnet_w3_mlp_simclrhn_probe3,1,221,NaN,bicycle,bicycle,NaN,bicycle7-clock3.png,bicycle7-clock3.png,1.0,6.5756164,2.9865685,2.5378401
alexnet_w3_mlp_simclrhn_probe3,1,222,NaN,cat,bicycle,NaN,bicycle7-elephant2.png,bicycle7-elephant2.png,0.0,-0.49803752,0.85052234,-0.95357585
alexnet_w3_mlp_simclrhn_probe3,1,223,NaN,bicycle,bicycle,NaN,bicycle7-knife2.png,bicycle7-knife2.png,1.0,2.655272,1.7300551,0.65422714
alexnet_w3_mlp_simclrhn_probe3,1,224,NaN,knife,bicycle,NaN,bicycle7-oven1.png,bicycle7-oven1.png,0.0,0.17734884,2.7079902,-1.7894337
alexnet_w3_mlp_simclrhn_probe3,1,225,NaN,chair,bicycle,NaN,bicycle7-truck3.png,bicycle7-truck3.png,0.0,-0.54917,2.4577022,-2.1261797
alexnet_w3_mlp_simclrhn_probe3,1,226,NaN,cat,bicycle,NaN,bicycle8-bear2.png,bicycle8-bear2.png,0.0,-0.51031727,0.89104813,-0.990915
alexnet_w3_mlp_simclrhn_probe3,1,227,NaN,bicycle,bicycle,NaN,bicycle8-bird2.png,bicycle8-bird2.png,1.0,6.5529375,0.6330597,4.185986
alexnet_w3_mlp_simclrhn_probe3,1,228,NaN,bicycle,bicycle,NaN,bicycle8-boat1.png,bicycle8-boat1.png,1.0,13.061077,3.2552505,6.9337664
alexnet_w3_mlp_simclrhn_probe3,1,229,NaN,bicycle,bicycle,NaN,bicycle8-chair2.png,bicycle8-chair2.png,1.0,3.9192584,2.234653,1.1911958
alexnet_w3_mlp_simclrhn_probe3,1,230,NaN,bicycle,bicycle,NaN,bicycle8-clock3.png,bicycle8-clock3.png,1.0,4.0617085,1.7156655,1.658903
alexnet_w3_mlp_simclrhn_probe3,1,231,NaN,bicycle,bicycle,NaN,bicycle8-truck1.png,bicycle8-truck1.png,1.0,8.523891,2.766164,4.071328
alexnet_w3_mlp_simclrhn_probe3,1,232,NaN,bicycle,bicycle,NaN,bicycle9-airplane2.png,bicycle9-airplane2.png,1.0,8.903451,4.032921,3.443985
alexnet_w3_mlp_simclrhn_probe3,1,233,NaN,cat,bicycle,NaN,bicycle9-bear1.png,bicycle9-bear1.png,0.0,-0.9057238,1.3681293,-1.607857
alexnet_w3_mlp_simclrhn_probe3,1,234,NaN,bicycle,bicycle,NaN,bicycle9-bird3.png,bicycle9-bird3.png,1.0,5.3878875,1.6400671,2.6501093
alexnet_w3_mlp_simclrhn_probe3,1,235,NaN,bicycle,bicycle,NaN,bicycle9-bottle1.png,bicycle9-bottle1.png,1.0,3.9993587,0.59209687,2.409298
alexnet_w3_mlp_simclrhn_probe3,1,236,NaN,bicycle,bicycle,NaN,bicycle9-car1.png,bicycle9-car1.png,1.0,16.910173,3.4598916,9.510786
alexnet_w3_mlp_simclrhn_probe3,1,237,NaN,cat,bicycle,NaN,bicycle9-cat3.png,bicycle9-cat3.png,0.0,-0.4824283,1.9005231,-1.685001
alexnet_w3_mlp_simclrhn_probe3,1,238,NaN,bicycle,bicycle,NaN,bicycle9-chair1.png,bicycle9-chair1.png,1.0,4.553955,3.4338198,0.7920553
alexnet_w3_mlp_simclrhn_probe3,1,239,NaN,car,bicycle,NaN,bicycle9-keyboard3.png,bicycle9-keyboard3.png,0.0,-0.32402247,0.89942837,-0.86511046
alexnet_w3_mlp_simclrhn_probe3,1,240,NaN,bottle,bicycle,NaN,bicycle9-knife3.png,bicycle9-knife3.png,0.0,-0.41313854,1.9969517,-1.7041912
alexnet_w3_mlp_simclrhn_probe3,1,241,NaN,knife,bird,NaN,bird1-airplane2.png,bird1-airplane2.png,0.0,-0.7880264,1.9245766,-1.9181001
alexnet_w3_mlp_simclrhn_probe3,1,242,NaN,cat,bird,NaN,bird1-bear1.png,bird1-bear1.png,0.0,0.5276473,1.383341,-0.6050668
alexnet_w3_mlp_simclrhn_probe3,1,243,NaN,bird,bird,NaN,bird1-bicycle2.png,bird1-bicycle2.png,1.0,0.813813,0.31016332,0.3561341
alexnet_w3_mlp_simclrhn_probe3,1,244,NaN,bicycle,bird,NaN,bird1-boat1.png,bird1-boat1.png,0.0,-1.0221627,2.3269098,-2.368152
alexnet_w3_mlp_simclrhn_probe3,1,245,NaN,oven,bird,NaN,bird1-chair2.png,bird1-chair2.png,0.0,-0.273486,1.7663944,-1.4424132
alexnet_w3_mlp_simclrhn_probe3,1,246,NaN,clock,bird,NaN,bird1-clock3.png,bird1-clock3.png,0.0,-0.2199832,1.1948029,-1.0004048
alexnet_w3_mlp_simclrhn_probe3,1,247,NaN,cat,bird,NaN,bird1-elephant2.png,bird1-elephant2.png,0.0,0.22776423,0.7881773,-0.39627188
alexnet_w3_mlp_simclrhn_probe3,1,248,NaN,knife,bird,NaN,bird1-keyboard3.png,bird1-keyboard3.png,0.0,0.028159223,0.9007517,-0.6170161
alexnet_w3_mlp_simclrhn_probe3,1,249,NaN,bottle,bird,NaN,bird1-knife3.png,bird1-knife3.png,0.0,-0.8167789,0.7635886,-1.1174886
alexnet_w3_mlp_simclrhn_probe3,1,250,NaN,knife,bird,NaN,bird1-oven1.png,bird1-oven1.png,0.0,-0.6575661,2.3716946,-2.1420107
alexnet_w3_mlp_simclrhn_probe3,1,251,NaN,chair,bird,NaN,bird1-truck1.png,bird1-truck1.png,0.0,-0.71607816,2.494127,-2.2699578
alexnet_w3_mlp_simclrhn_probe3,1,252,NaN,bear,bird,NaN,bird10-bear2.png,bird10-bear2.png,0.0,0.22819966,1.8603046,-1.1540724
alexnet_w3_mlp_simclrhn_probe3,1,253,NaN,bird,bird,NaN,bird10-bicycle1.png,bird10-bicycle1.png,1.0,0.47636274,0.37904444,0.06881443
alexnet_w3_mlp_simclrhn_probe3,1,254,NaN,bird,bird,NaN,bird10-bird2.png,bird10-bird2.png,1.0,2.9095905,0.4070835,1.7695397
alexnet_w3_mlp_simclrhn_probe3,1,255,NaN,cat,bird,NaN,bird10-cat1.png,bird10-cat1.png,0.0,0.12484376,2.3414304,-1.5673634
alexnet_w3_mlp_simclrhn_probe3,1,256,NaN,chair,bird,NaN,bird10-chair1.png,bird10-chair1.png,0.0,-0.5328442,1.3727659,-1.3474698
alexnet_w3_mlp_simclrhn_probe3,1,257,NaN,bicycle,bird,NaN,bird10-clock1.png,bird10-clock1.png,0.0,-0.08309974,1.5056723,-1.1234316
alexnet_w3_mlp_simclrhn_probe3,1,258,NaN,cat,bird,NaN,bird10-elephant2.png,bird10-elephant2.png,0.0,0.28777197,0.9861148,-0.49380293
alexnet_w3_mlp_simclrhn_probe3,1,259,NaN,knife,bird,NaN,bird2-airplane3.png,bird2-airplane3.png,0.0,-0.49482206,0.88413596,-0.97507054
alexnet_w3_mlp_simclrhn_probe3,1,260,NaN,bicycle,bird,NaN,bird2-bird2.png,bird2-bird2.png,0.0,0.3526985,1.0653526,-0.5039225
alexnet_w3_mlp_simclrhn_probe3,1,261,NaN,bicycle,bird,NaN,bird2-car3.png,bird2-car3.png,0.0,-0.39793685,3.1786017,-2.5289948
alexnet_w3_mlp_simclrhn_probe3,1,262,NaN,bottle,bird,NaN,bird2-clock3.png,bird2-clock3.png,0.0,-0.56546533,0.6840819,-0.88356334
alexnet_w3_mlp_simclrhn_probe3,1,263,NaN,cat,bird,NaN,bird2-dog2.png,bird2-dog2.png,0.0,-0.185231,1.2394007,-1.0073668
alexnet_w3_mlp_simclrhn_probe3,1,264,NaN,bicycle,bird,NaN,bird2-knife1.png,bird2-knife1.png,0.0,-0.63445467,2.1955478,-2.0011141
alexnet_w3_mlp_simclrhn_probe3,1,265,NaN,cat,bird,NaN,bird3-bear3.png,bird3-bear3.png,0.0,1.1960403,1.5250522,-0.23264655
alexnet_w3_mlp_simclrhn_probe3,1,266,NaN,bird,bird,NaN,bird3-bird2.png,bird3-bird2.png,1.0,1.5335119,0.51558334,0.7197842
alexnet_w3_mlp_simclrhn_probe3,1,267,NaN,oven,bird,NaN,bird3-boat3.png,bird3-boat3.png,0.0,-0.37136233,1.4484524,-1.2868034
alexnet_w3_mlp_simclrhn_probe3,1,268,NaN,bottle,bird,NaN,bird3-bottle2.png,bird3-bottle2.png,0.0,-0.127342,2.2001426,-1.6457802
alexnet_w3_mlp_simclrhn_probe3,1,269,NaN,cat,bird,NaN,bird3-cat1.png,bird3-cat1.png,0.0,-0.009817624,1.8843881,-1.3394057
alexnet_w3_mlp_simclrhn_probe3,1,270,NaN,cat,bird,NaN,bird3-dog1.png,bird3-dog1.png,0.0,0.09383564,0.71871734,-0.44185808
alexnet_w3_mlp_simclrhn_probe3,1,271,NaN,clock,bird,NaN,bird3-knife3.png,bird3-knife3.png,0.0,-0.5847947,1.0728315,-1.1721187
alexnet_w3_mlp_simclrhn_probe3,1,272,NaN,knife,bird,NaN,bird3-oven1.png,bird3-oven1.png,0.0,-0.32692933,1.6363955,-1.3882803
alexnet_w3_mlp_simclrhn_probe3,1,273,NaN,knife,bird,NaN,bird3-truck3.png,bird3-truck3.png,0.0,-0.5675873,1.4860698,-1.4521549
alexnet_w3_mlp_simclrhn_probe3,1,274,NaN,chair,bird,NaN,bird4-airplane1.png,bird4-airplane1.png,0.0,-0.7542376,0.71593314,-1.0395677
alexnet_w3_mlp_simclrhn_probe3,1,275,NaN,bird,bird,NaN,bird4-bicycle2.png,bird4-bicycle2.png,1.0,0.64740455,0.16025385,0.34446758
alexnet_w3_mlp_simclrhn_probe3,1,276,NaN,cat,bird,NaN,bird4-cat3.png,bird4-cat3.png,0.0,-0.16356537,2.4325473,-1.835729
alexnet_w3_mlp_simclrhn_probe3,1,277,NaN,oven,bird,NaN,bird4-clock1.png,bird4-clock1.png,0.0,-0.08458444,1.7219882,-1.2774398
alexnet_w3_mlp_simclrhn_probe3,1,278,NaN,cat,bird,NaN,bird4-dog3.png,bird4-dog3.png,0.0,-0.39777246,2.406481,-1.9829067
alexnet_w3_mlp_simclrhn_probe3,1,279,NaN,airplane,bird,NaN,bird5-airplane3.png,bird5-airplane3.png,0.0,-0.20763783,0.79334867,-0.7078043
alexnet_w3_mlp_simclrhn_probe3,1,280,NaN,cat,bird,NaN,bird5-bear3.png,bird5-bear3.png,0.0,1.2742332,1.8279854,-0.39156193
alexnet_w3_mlp_simclrhn_probe3,1,281,NaN,bird,bird,NaN,bird5-bicycle1.png,bird5-bicycle1.png,1.0,1.043148,0.56078637,0.3410812
alexnet_w3_mlp_simclrhn_probe3,1,282,NaN,cat,bird,NaN,bird5-bird1.png,bird5-bird1.png,0.0,0.5961512,0.75440377,-0.111901484
alexnet_w3_mlp_simclrhn_probe3,1,283,NaN,bicycle,bird,NaN,bird5-car2.png,bird5-car2.png,0.0,-0.62678766,1.4331806,-1.4566175
alexnet_w3_mlp_simclrhn_probe3,1,284,NaN,cat,bird,NaN,bird5-cat2.png,bird5-cat2.png,0.0,0.1758751,0.99579126,-0.57976824
alexnet_w3_mlp_simclrhn_probe3,1,285,NaN,airplane,bird,NaN,bird5-chair1.png,bird5-chair1.png,0.0,-0.5827482,2.535004,-2.2045836
alexnet_w3_mlp_simclrhn_probe3,1,286,NaN,cat,bird,NaN,bird5-dog2.png,bird5-dog2.png,0.0,0.16957481,1.0715508,-0.63779336
alexnet_w3_mlp_simclrhn_probe3,1,287,NaN,keyboard,bird,NaN,bird5-keyboard2.png,bird5-keyboard2.png,0.0,-0.47125003,2.388668,-2.0222676
alexnet_w3_mlp_simclrhn_probe3,1,288,NaN,chair,bird,NaN,bird5-oven3.png,bird5-oven3.png,0.0,-0.4598714,2.1055086,-1.8139977
alexnet_w3_mlp_simclrhn_probe3,1,289,NaN,chair,bird,NaN,bird5-truck2.png,bird5-truck2.png,0.0,-0.5412266,2.7870762,-2.3534656
alexnet_w3_mlp_simclrhn_probe3,1,290,NaN,airplane,bird,NaN,bird6-airplane2.png,bird6-airplane2.png,0.0,-0.015738927,3.741883,-2.65704
alexnet_w3_mlp_simclrhn_probe3,1,291,NaN,chair,bird,NaN,bird6-boat2.png,bird6-boat2.png,0.0,0.018925438,2.2099721,-1.549304
alexnet_w3_mlp_simclrhn_probe3,1,292,NaN,bottle,bird,NaN,bird6-bottle3.png,bird6-bottle3.png,0.0,0.2014436,0.21021615,-0.0062031313
alexnet_w3_mlp_simclrhn_probe3,1,293,NaN,bicycle,bird,NaN,bird6-car3.png,bird6-car3.png,0.0,-0.27676675,2.030628,-1.6315745
alexnet_w3_mlp_simclrhn_probe3,1,294,NaN,cat,bird,NaN,bird6-elephant2.png,bird6-elephant2.png,0.0,0.18101679,1.070727,-0.6291201
alexnet_w3_mlp_simclrhn_probe3,1,295,NaN,knife,bird,NaN,bird6-oven1.png,bird6-oven1.png,0.0,-0.7147806,1.8836709,-1.8373828
alexnet_w3_mlp_simclrhn_probe3,1,296,NaN,chair,bird,NaN,bird6-truck2.png,bird6-truck2.png,0.0,-0.77996933,3.2150578,-2.8249109
alexnet_w3_mlp_simclrhn_probe3,1,297,NaN,bird,bird,NaN,bird7-bird2.png,bird7-bird2.png,1.0,0.8049364,0.74335176,0.043546926
alexnet_w3_mlp_simclrhn_probe3,1,298,NaN,chair,bird,NaN,bird7-boat1.png,bird7-boat1.png,0.0,-1.2514616,2.5190325,-2.666142
alexnet_w3_mlp_simclrhn_probe3,1,299,NaN,oven,bird,NaN,bird7-bottle1.png,bird7-bottle1.png,0.0,-0.34808695,1.2318385,-1.1171759
alexnet_w3_mlp_simclrhn_probe3,1,300,NaN,bicycle,bird,NaN,bird7-car2.png,bird7-car2.png,0.0,-1.0782744,2.3570478,-2.4291396
alexnet_w3_mlp_simclrhn_probe3,1,301,NaN,cat,bird,NaN,bird7-cat3.png,bird7-cat3.png,0.0,-0.008556915,1.6316395,-1.1597941
alexnet_w3_mlp_simclrhn_probe3,1,302,NaN,knife,bird,NaN,bird7-keyboard3.png,bird7-keyboard3.png,0.0,-0.10239083,0.64478624,-0.52833396
alexnet_w3_mlp_simclrhn_probe3,1,303,NaN,oven,bird,NaN,bird7-knife2.png,bird7-knife2.png,0.0,-0.15383235,2.036654,-1.5489079
alexnet_w3_mlp_simclrhn_probe3,1,304,NaN,chair,bird,NaN,bird7-oven3.png,bird7-oven3.png,0.0,-0.55025053,1.8295828,-1.6827962
alexnet_w3_mlp_simclrhn_probe3,1,305,NaN,chair,bird,NaN,bird7-truck2.png,bird7-truck2.png,0.0,-0.8992477,2.219298,-2.2051446
alexnet_w3_mlp_simclrhn_probe3,1,306,NaN,boat,bird,NaN,bird8-boat3.png,bird8-boat3.png,0.0,-0.39669675,2.8402808,-2.288889
alexnet_w3_mlp_simclrhn_probe3,1,307,NaN,bicycle,bird,NaN,bird8-bottle1.png,bird8-bottle1.png,0.0,-0.2607508,0.55840313,-0.5792293
alexnet_w3_mlp_simclrhn_probe3,1,308,NaN,bicycle,bird,NaN,bird8-car2.png,bird8-car2.png,0.0,-0.78588986,1.5509626,-1.6524043
alexnet_w3_mlp_simclrhn_probe3,1,309,NaN,chair,bird,NaN,bird8-chair1.png,bird8-chair1.png,0.0,-0.52526516,2.027718,-1.8052318
alexnet_w3_mlp_simclrhn_probe3,1,310,NaN,bicycle,bird,NaN,bird8-clock1.png,bird8-clock1.png,0.0,-0.28472865,1.9262218,-1.563378
alexnet_w3_mlp_simclrhn_probe3,1,311,NaN,cat,bird,NaN,bird8-elephant1.png,bird8-elephant1.png,0.0,0.042462606,0.3052058,-0.18578748
alexnet_w3_mlp_simclrhn_probe3,1,312,NaN,clock,bird,NaN,bird8-keyboard2.png,bird8-keyboard2.png,0.0,-0.43409833,1.0181303,-1.0268807
alexnet_w3_mlp_simclrhn_probe3,1,313,NaN,oven,bird,NaN,bird8-knife2.png,bird8-knife2.png,0.0,-0.069111444,1.1995257,-0.89706194
alexnet_w3_mlp_simclrhn_probe3,1,314,NaN,cat,bird,NaN,bird9-bear3.png,bird9-bear3.png,0.0,0.740326,1.7103878,-0.68593735
alexnet_w3_mlp_simclrhn_probe3,1,315,NaN,bird,bird,NaN,bird9-bicycle3.png,bird9-bicycle3.png,1.0,0.8507235,0.46441448,0.27316174
alexnet_w3_mlp_simclrhn_probe3,1,316,NaN,bird,bird,NaN,bird9-bottle3.png,bird9-bottle3.png,1.0,1.9878393,0.024630338,1.3881985
alexnet_w3_mlp_simclrhn_probe3,1,317,NaN,bottle,bird,NaN,bird9-chair1.png,bird9-chair1.png,0.0,-0.15057337,0.7809683,-0.65869945
alexnet_w3_mlp_simclrhn_probe3,1,318,NaN,cat,bird,NaN,bird9-dog2.png,bird9-dog2.png,0.0,-0.0052617933,1.0394957,-0.7387551
alexnet_w3_mlp_simclrhn_probe3,1,319,NaN,cat,bird,NaN,bird9-elephant2.png,bird9-elephant2.png,0.0,0.17400393,1.0021826,-0.58561075
alexnet_w3_mlp_simclrhn_probe3,1,320,NaN,bicycle,bird,NaN,bird9-keyboard1.png,bird9-keyboard1.png,0.0,0.033478025,1.1956717,-0.82179505
alexnet_w3_mlp_simclrhn_probe3,1,321,NaN,cat,boat,NaN,boat1-bear1.png,boat1-bear1.png,0.0,-0.40771356,1.3980645,-1.2768779
alexnet_w3_mlp_simclrhn_probe3,1,322,NaN,bird,boat,NaN,boat1-bicycle2.png,boat1-bicycle2.png,0.0,0.3370561,0.6149769,-0.19651967
alexnet_w3_mlp_simclrhn_probe3,1,323,NaN,airplane,boat,NaN,boat1-bird3.png,boat1-bird3.png,0.0,-0.15697952,1.8152223,-1.3945574
alexnet_w3_mlp_simclrhn_probe3,1,324,NaN,bicycle,boat,NaN,boat1-car2.png,boat1-car2.png,0.0,-1.0287989,0.5669385,-1.1283568
alexnet_w3_mlp_simclrhn_probe3,1,325,NaN,airplane,boat,NaN,boat1-chair3.png,boat1-chair3.png,0.0,1.0184239,3.0041919,-1.40415
alexnet_w3_mlp_simclrhn_probe3,1,326,NaN,cat,boat,NaN,boat1-elephant3.png,boat1-elephant3.png,0.0,-0.48780936,0.14598179,-0.44815803
alexnet_w3_mlp_simclrhn_probe3,1,327,NaN,airplane,boat,NaN,boat1-keyboard3.png,boat1-keyboard3.png,0.0,-0.31848252,1.0638955,-0.9774889
alexnet_w3_mlp_simclrhn_probe3,1,328,NaN,knife,boat,NaN,boat1-oven1.png,boat1-oven1.png,0.0,-0.23210852,1.8248748,-1.4545069
alexnet_w3_mlp_simclrhn_probe3,1,329,NaN,airplane,boat,NaN,boat1-truck3.png,boat1-truck3.png,0.0,0.21815601,1.6512696,-1.0133643
alexnet_w3_mlp_simclrhn_probe3,1,330,NaN,cat,boat,NaN,boat10-bear3.png,boat10-bear3.png,0.0,-0.7408713,1.6381737,-1.6822389
alexnet_w3_mlp_simclrhn_probe3,1,331,NaN,boat,boat,NaN,boat10-boat3.png,boat10-boat3.png,1.0,2.740456,1.9755412,0.5408765
alexnet_w3_mlp_simclrhn_probe3,1,332,NaN,cat,boat,NaN,boat10-cat1.png,boat10-cat1.png,0.0,-0.4260316,2.0507104,-1.7513211
alexnet_w3_mlp_simclrhn_probe3,1,333,NaN,car,boat,NaN,boat10-oven1.png,boat10-oven1.png,0.0,0.18249372,2.0483582,-1.3193655
alexnet_w3_mlp_simclrhn_probe3,1,334,NaN,chair,boat,NaN,boat10-truck1.png,boat10-truck1.png,0.0,0.6497254,2.6042688,-1.3820709
alexnet_w3_mlp_simclrhn_probe3,1,335,NaN,bicycle,boat,NaN,boat2-airplane1.png,boat2-airplane1.png,0.0,-0.62431145,0.2965688,-0.65116066
alexnet_w3_mlp_simclrhn_probe3,1,336,NaN,cat,boat,NaN,boat2-bear3.png,boat2-bear3.png,0.0,-0.5376996,1.243341,-1.2593858
alexnet_w3_mlp_simclrhn_probe3,1,337,NaN,cat,boat,NaN,boat2-bird1.png,boat2-bird1.png,0.0,-0.43627614,0.7966923,-0.87184036
alexnet_w3_mlp_simclrhn_probe3,1,338,NaN,bottle,boat,NaN,boat2-bottle2.png,boat2-bottle2.png,0.0,0.57682896,3.492624,-2.0617785
alexnet_w3_mlp_simclrhn_probe3,1,339,NaN,bicycle,boat,NaN,boat2-keyboard1.png,boat2-keyboard1.png,0.0,0.6650582,1.2195895,-0.39211282
alexnet_w3_mlp_simclrhn_probe3,1,340,NaN,chair,boat,NaN,boat2-oven3.png,boat2-oven3.png,0.0,-0.10458682,1.4208301,-1.0786327
alexnet_w3_mlp_simclrhn_probe3,1,341,NaN,airplane,boat,NaN,boat3-airplane2.png,boat3-airplane2.png,0.0,0.84672755,2.6627421,-1.2841163
alexnet_w3_mlp_simclrhn_probe3,1,342,NaN,bicycle,boat,NaN,boat3-bicycle2.png,boat3-bicycle2.png,0.0,-0.13926408,0.6270344,-0.5418549
alexnet_w3_mlp_simclrhn_probe3,1,343,NaN,bicycle,boat,NaN,boat3-car3.png,boat3-car3.png,0.0,0.9220785,2.3084297,-0.9802984
alexnet_w3_mlp_simclrhn_probe3,1,344,NaN,oven,boat,NaN,boat3-cat3.png,boat3-cat3.png,0.0,-0.13315675,1.541439,-1.184118
alexnet_w3_mlp_simclrhn_probe3,1,345,NaN,airplane,boat,NaN,boat3-chair3.png,boat3-chair3.png,0.0,1.0742232,2.4963863,-1.0056212
alexnet_w3_mlp_simclrhn_probe3,1,346,NaN,bicycle,boat,NaN,boat3-clock3.png,boat3-clock3.png,0.0,-0.09076109,1.1514715,-0.8783911
alexnet_w3_mlp_simclrhn_probe3,1,347,NaN,cat,boat,NaN,boat3-dog3.png,boat3-dog3.png,0.0,-0.3745649,2.21358,-1.8300948
alexnet_w3_mlp_simclrhn_probe3,1,348,NaN,airplane,boat,NaN,boat3-keyboard2.png,boat3-keyboard2.png,0.0,-0.24524534,1.3717259,-1.1433713
alexnet_w3_mlp_simclrhn_probe3,1,349,NaN,bird,boat,NaN,boat4-bicycle3.png,boat4-bicycle3.png,0.0,-0.020667136,1.0294229,-0.7425258
alexnet_w3_mlp_simclrhn_probe3,1,350,NaN,cat,boat,NaN,boat4-bird1.png,boat4-bird1.png,0.0,-0.52202487,0.6949656,-0.86054224
alexnet_w3_mlp_simclrhn_probe3,1,351,NaN,boat,boat,NaN,boat4-boat3.png,boat4-boat3.png,1.0,2.716076,1.5833865,0.80093235
alexnet_w3_mlp_simclrhn_probe3,1,352,NaN,bottle,boat,NaN,boat4-bottle2.png,boat4-bottle2.png,0.0,1.0929365,2.3233445,-0.8700298
alexnet_w3_mlp_simclrhn_probe3,1,353,NaN,oven,boat,NaN,boat4-car3.png,boat4-car3.png,0.0,-0.081374764,2.02884,-1.4921472
alexnet_w3_mlp_simclrhn_probe3,1,354,NaN,boat,boat,NaN,boat4-chair2.png,boat4-chair2.png,1.0,2.7674518,1.7554171,0.7156166
alexnet_w3_mlp_simclrhn_probe3,1,355,NaN,oven,boat,NaN,boat4-dog2.png,boat4-dog2.png,0.0,-0.29834542,0.9540533,-0.88557965
alexnet_w3_mlp_simclrhn_probe3,1,356,NaN,cat,boat,NaN,boat4-elephant2.png,boat4-elephant2.png,0.0,-0.51574004,0.63586265,-0.81430614
alexnet_w3_mlp_simclrhn_probe3,1,357,NaN,oven,boat,NaN,boat4-knife2.png,boat4-knife2.png,0.0,-0.42040023,1.9548744,-1.6795728
alexnet_w3_mlp_simclrhn_probe3,1,358,NaN,oven,boat,NaN,boat5-airplane1.png,boat5-airplane1.png,0.0,-1.0193971,0.2749148,-0.9152168
alexnet_w3_mlp_simclrhn_probe3,1,359,NaN,bird,boat,NaN,boat5-bicycle3.png,boat5-bicycle3.png,0.0,-0.26201478,0.87716717,-0.80552334
alexnet_w3_mlp_simclrhn_probe3,1,360,NaN,boat,boat,NaN,boat5-boat3.png,boat5-boat3.png,1.0,2.7910647,1.191977,1.1307257
alexnet_w3_mlp_simclrhn_probe3,1,361,NaN,bicycle,boat,NaN,boat5-car3.png,boat5-car3.png,0.0,0.11588434,1.133785,-0.71976453
alexnet_w3_mlp_simclrhn_probe3,1,362,NaN,clock,boat,NaN,boat5-clock3.png,boat5-clock3.png,0.0,0.011274862,0.81919384,-0.571285
alexnet_w3_mlp_simclrhn_probe3,1,363,NaN,oven,boat,NaN,boat5-knife2.png,boat5-knife2.png,0.0,0.4056984,1.2400508,-0.58997625
alexnet_w3_mlp_simclrhn_probe3,1,364,NaN,car,boat,NaN,boat6-airplane2.png,boat6-airplane2.png,0.0,0.7435756,2.6690693,-1.3615297
alexnet_w3_mlp_simclrhn_probe3,1,365,NaN,cat,boat,NaN,boat6-bear1.png,boat6-bear1.png,0.0,-0.4451869,1.4453682,-1.3368244
alexnet_w3_mlp_simclrhn_probe3,1,366,NaN,cat,boat,NaN,boat6-bicycle2.png,boat6-bicycle2.png,0.0,-0.45917282,0.7153239,-0.83049464
alexnet_w3_mlp_simclrhn_probe3,1,367,NaN,bottle,boat,NaN,boat6-bottle2.png,boat6-bottle2.png,0.0,-0.031606805,1.5386952,-1.1103712
alexnet_w3_mlp_simclrhn_probe3,1,368,NaN,bicycle,boat,NaN,boat6-car1.png,boat6-car1.png,0.0,-0.7468182,2.264771,-2.1295152
alexnet_w3_mlp_simclrhn_probe3,1,369,NaN,cat,boat,NaN,boat6-cat1.png,boat6-cat1.png,0.0,-0.29847467,2.305805,-1.8415037
alexnet_w3_mlp_simclrhn_probe3,1,370,NaN,bicycle,boat,NaN,boat6-clock2.png,boat6-clock2.png,0.0,-0.061518718,2.1804056,-1.58528
alexnet_w3_mlp_simclrhn_probe3,1,371,NaN,cat,boat,NaN,boat6-dog1.png,boat6-dog1.png,0.0,-0.57977706,0.64946914,-0.8692083
alexnet_w3_mlp_simclrhn_probe3,1,372,NaN,cat,boat,NaN,boat6-elephant2.png,boat6-elephant2.png,0.0,-0.84196603,0.9866702,-1.2930411
alexnet_w3_mlp_simclrhn_probe3,1,373,NaN,oven,boat,NaN,boat6-knife2.png,boat6-knife2.png,0.0,-0.28499675,1.1864042,-1.0404376
alexnet_w3_mlp_simclrhn_probe3,1,374,NaN,chair,boat,NaN,boat6-truck3.png,boat6-truck3.png,0.0,-0.11613685,2.0644245,-1.5418897
alexnet_w3_mlp_simclrhn_probe3,1,375,NaN,oven,boat,NaN,boat7-boat2.png,boat7-boat2.png,0.0,1.6606296,2.0139234,-0.24981643
alexnet_w3_mlp_simclrhn_probe3,1,376,NaN,oven,boat,NaN,boat7-bottle1.png,boat7-bottle1.png,0.0,0.08368307,0.75664175,-0.47585365
alexnet_w3_mlp_simclrhn_probe3,1,377,NaN,cat,boat,NaN,boat7-cat3.png,boat7-cat3.png,0.0,-0.43874353,1.5216994,-1.3862426
alexnet_w3_mlp_simclrhn_probe3,1,378,NaN,bottle,boat,NaN,boat7-chair1.png,boat7-chair1.png,0.0,-0.2188416,1.0628787,-0.9063131
alexnet_w3_mlp_simclrhn_probe3,1,379,NaN,bicycle,boat,NaN,boat7-clock3.png,boat7-clock3.png,0.0,-0.52395564,1.2450705,-1.2508904
alexnet_w3_mlp_simclrhn_probe3,1,380,NaN,cat,boat,NaN,boat7-elephant3.png,boat7-elephant3.png,0.0,-0.6807744,0.21936238,-0.63649285
alexnet_w3_mlp_simclrhn_probe3,1,381,NaN,bottle,boat,NaN,boat7-keyboard3.png,boat7-keyboard3.png,0.0,-0.26319775,0.6194458,-0.6241233
alexnet_w3_mlp_simclrhn_probe3,1,382,NaN,chair,boat,NaN,boat7-oven3.png,boat7-oven3.png,0.0,-0.04983591,1.7562227,-1.2770764
alexnet_w3_mlp_simclrhn_probe3,1,383,NaN,bottle,boat,NaN,boat7-truck2.png,boat7-truck2.png,0.0,-0.2463462,1.9454346,-1.549823
alexnet_w3_mlp_simclrhn_probe3,1,384,NaN,oven,boat,NaN,boat8-bird2.png,boat8-bird2.png,0.0,0.04826833,0.75357157,-0.49872473
alexnet_w3_mlp_simclrhn_probe3,1,385,NaN,oven,boat,NaN,boat8-bottle1.png,boat8-bottle1.png,0.0,0.87792397,1.2287505,-0.2480718
alexnet_w3_mlp_simclrhn_probe3,1,386,NaN,cat,boat,NaN,boat8-dog3.png,boat8-dog3.png,0.0,-0.3433384,2.3391304,-1.8967919
alexnet_w3_mlp_simclrhn_probe3,1,387,NaN,bicycle,boat,NaN,boat8-elephant1.png,boat8-elephant1.png,0.0,-0.32910302,0.7173854,-0.7399791
alexnet_w3_mlp_simclrhn_probe3,1,388,NaN,bicycle,boat,NaN,boat8-knife1.png,boat8-knife1.png,0.0,0.25101858,1.728196,-1.0445222
alexnet_w3_mlp_simclrhn_probe3,1,389,NaN,airplane,boat,NaN,boat8-oven1.png,boat8-oven1.png,0.0,0.15798016,2.2570767,-1.4842855
alexnet_w3_mlp_simclrhn_probe3,1,390,NaN,car,boat,NaN,boat8-truck2.png,boat8-truck2.png,0.0,1.2835909,3.8092594,-1.7859174
alexnet_w3_mlp_simclrhn_probe3,1,391,NaN,chair,boat,NaN,boat9-airplane2.png,boat9-airplane2.png,0.0,0.40135008,1.7075026,-0.92358935
alexnet_w3_mlp_simclrhn_probe3,1,392,NaN,bear,boat,NaN,boat9-bear3.png,boat9-bear3.png,0.0,-0.50824976,0.83457917,-0.9495235
alexnet_w3_mlp_simclrhn_probe3,1,393,NaN,cat,boat,NaN,boat9-bird1.png,boat9-bird1.png,0.0,-0.27513543,0.66922826,-0.667766
alexnet_w3_mlp_simclrhn_probe3,1,394,NaN,boat,boat,NaN,boat9-boat3.png,boat9-boat3.png,1.0,3.127568,1.4355063,1.1964684
alexnet_w3_mlp_simclrhn_probe3,1,395,NaN,cat,boat,NaN,boat9-cat3.png,boat9-cat3.png,0.0,-0.12686495,0.8608877,-0.69844663
alexnet_w3_mlp_simclrhn_probe3,1,396,NaN,boat,boat,NaN,boat9-chair2.png,boat9-chair2.png,1.0,3.505326,1.0663109,1.7246442
alexnet_w3_mlp_simclrhn_probe3,1,397,NaN,bicycle,boat,NaN,boat9-clock1.png,boat9-clock1.png,0.0,1.2087047,1.9867686,-0.55017424
alexnet_w3_mlp_simclrhn_probe3,1,398,NaN,oven,boat,NaN,boat9-dog2.png,boat9-dog2.png,0.0,-0.41173354,0.7841157,-0.8455931
alexnet_w3_mlp_simclrhn_probe3,1,399,NaN,knife,boat,NaN,boat9-keyboard2.png,boat9-keyboard2.png,0.0,0.03845968,1.2962097,-0.8893636
alexnet_w3_mlp_simclrhn_probe3,1,400,NaN,boat,boat,NaN,boat9-knife2.png,boat9-knife2.png,1.0,1.9030533,1.0316863,0.6161495
alexnet_w3_mlp_simclrhn_probe3,1,401,NaN,cat,bottle,NaN,bottle1-bear1.png,bottle1-bear1.png,0.0,0.032649815,1.3111241,-0.90401787
alexnet_w3_mlp_simclrhn_probe3,1,402,NaN,bottle,bottle,NaN,bottle1-bird3.png,bottle1-bird3.png,1.0,2.9840596,0.6782298,1.6304679
alexnet_w3_mlp_simclrhn_probe3,1,403,NaN,bottle,bottle,NaN,bottle1-car1.png,bottle1-car1.png,1.0,1.9649421,1.6242561,0.24090137
alexnet_w3_mlp_simclrhn_probe3,1,404,NaN,cat,bottle,NaN,bottle1-cat3.png,bottle1-cat3.png,0.0,0.5869432,2.026344,-1.0178101
alexnet_w3_mlp_simclrhn_probe3,1,405,NaN,oven,bottle,NaN,bottle1-chair2.png,bottle1-chair2.png,0.0,1.7036877,2.467843,-0.54033947
alexnet_w3_mlp_simclrhn_probe3,1,406,NaN,bottle,bottle,NaN,bottle1-clock1.png,bottle1-clock1.png,1.0,1.9208821,1.8757738,0.031896397
alexnet_w3_mlp_simclrhn_probe3,1,407,NaN,cat,bottle,NaN,bottle1-dog2.png,bottle1-dog2.png,0.0,0.054763895,1.2159096,-0.821054
alexnet_w3_mlp_simclrhn_probe3,1,408,NaN,bottle,bottle,NaN,bottle1-keyboard3.png,bottle1-keyboard3.png,1.0,0.88879603,0.57822305,0.21960826
alexnet_w3_mlp_simclrhn_probe3,1,409,NaN,elephant,bottle,NaN,bottle10-bear2.png,bottle10-bear2.png,0.0,0.11847914,2.1151416,-1.4118537
alexnet_w3_mlp_simclrhn_probe3,1,410,NaN,bottle,bottle,NaN,bottle10-boat3.png,bottle10-boat3.png,1.0,3.7473443,2.6578245,0.7704068
alexnet_w3_mlp_simclrhn_probe3,1,411,NaN,oven,bottle,NaN,bottle10-car1.png,bottle10-car1.png,0.0,2.489098,3.8237906,-0.9437701
alexnet_w3_mlp_simclrhn_probe3,1,412,NaN,bottle,bottle,NaN,bottle10-clock2.png,bottle10-clock2.png,1.0,3.8565063,2.3404589,1.0720074
alexnet_w3_mlp_simclrhn_probe3,1,413,NaN,cat,bottle,NaN,bottle10-dog1.png,bottle10-dog1.png,0.0,-0.20906238,1.275635,-1.0498396
alexnet_w3_mlp_simclrhn_probe3,1,414,NaN,bottle,bottle,NaN,bottle10-truck3.png,bottle10-truck3.png,1.0,3.8550427,2.1260724,1.2225666
alexnet_w3_mlp_simclrhn_probe3,1,415,NaN,cat,bottle,NaN,bottle2-bottle3.png,bottle2-bottle3.png,0.0,0.46062988,0.59824246,-0.09730679
alexnet_w3_mlp_simclrhn_probe3,1,416,NaN,bicycle,bottle,NaN,bottle2-car2.png,bottle2-car2.png,0.0,0.23116665,1.1652875,-0.6605232
alexnet_w3_mlp_simclrhn_probe3,1,417,NaN,chair,bottle,NaN,bottle2-chair3.png,bottle2-chair3.png,0.0,1.1433724,2.018349,-0.6187018
alexnet_w3_mlp_simclrhn_probe3,1,418,NaN,bicycle,bottle,NaN,bottle2-clock1.png,bottle2-clock1.png,0.0,0.52882874,1.6307806,-0.77919763
alexnet_w3_mlp_simclrhn_probe3,1,419,NaN,cat,bottle,NaN,bottle2-elephant1.png,bottle2-elephant1.png,0.0,0.09911441,0.5921532,-0.34863105
alexnet_w3_mlp_simclrhn_probe3,1,420,NaN,bottle,bottle,NaN,bottle2-knife3.png,bottle2-knife3.png,1.0,2.5621269,1.6195353,0.6665129
alexnet_w3_mlp_simclrhn_probe3,1,421,NaN,bottle,bottle,NaN,bottle3-airplane2.png,bottle3-airplane2.png,1.0,2.1391027,1.2896646,0.60064346
alexnet_w3_mlp_simclrhn_probe3,1,422,NaN,cat,bottle,NaN,bottle3-bear2.png,bottle3-bear2.png,0.0,-0.12092122,1.2384802,-0.961242
alexnet_w3_mlp_simclrhn_probe3,1,423,NaN,bicycle,bottle,NaN,bottle3-bicycle3.png,bottle3-bicycle3.png,0.0,0.088093095,1.2441773,-0.8174751
alexnet_w3_mlp_simclrhn_probe3,1,424,NaN,cat,bottle,NaN,bottle3-bird1.png,bottle3-bird1.png,0.0,0.16309014,0.8324111,-0.47328138
alexnet_w3_mlp_simclrhn_probe3,1,425,NaN,bottle,bottle,NaN,bottle3-boat3.png,bottle3-boat3.png,1.0,3.1223848,2.9663568,0.11032848
alexnet_w3_mlp_simclrhn_probe3,1,426,NaN,cat,bottle,NaN,bottle3-bottle3.png,bottle3-bottle3.png,0.0,0.5933426,0.9397032,-0.24491395
alexnet_w3_mlp_simclrhn_probe3,1,427,NaN,cat,bottle,NaN,bottle3-cat3.png,bottle3-cat3.png,0.0,0.37147364,2.0265803,-1.1703372
alexnet_w3_mlp_simclrhn_probe3,1,428,NaN,airplane,bottle,NaN,bottle3-chair3.png,bottle3-chair3.png,0.0,1.0338535,1.4550853,-0.29785582
alexnet_w3_mlp_simclrhn_probe3,1,429,NaN,bottle,bottle,NaN,bottle3-knife3.png,bottle3-knife3.png,1.0,1.1898011,1.0562364,0.09444451
alexnet_w3_mlp_simclrhn_probe3,1,430,NaN,chair,bottle,NaN,bottle4-airplane1.png,bottle4-airplane1.png,0.0,0.88509715,1.198355,-0.22150673
alexnet_w3_mlp_simclrhn_probe3,1,431,NaN,bicycle,bottle,NaN,bottle4-bicycle1.png,bottle4-bicycle1.png,0.0,0.0033785019,0.53231186,-0.37401235
alexnet_w3_mlp_simclrhn_probe3,1,432,NaN,bicycle,bottle,NaN,bottle4-car3.png,bottle4-car3.png,0.0,0.45965165,2.060993,-1.1323193
alexnet_w3_mlp_simclrhn_probe3,1,433,NaN,cat,bottle,NaN,bottle4-dog2.png,bottle4-dog2.png,0.0,-0.06306317,0.9856122,-0.74152553
alexnet_w3_mlp_simclrhn_probe3,1,434,NaN,bottle,bottle,NaN,bottle4-oven2.png,bottle4-oven2.png,1.0,3.669389,1.4249644,1.5870478
alexnet_w3_mlp_simclrhn_probe3,1,435,NaN,chair,bottle,NaN,bottle4-truck1.png,bottle4-truck1.png,0.0,2.53582,3.071219,-0.37858424
alexnet_w3_mlp_simclrhn_probe3,1,436,NaN,chair,bottle,NaN,bottle5-airplane1.png,bottle5-airplane1.png,0.0,0.51555574,0.8383949,-0.22828175
alexnet_w3_mlp_simclrhn_probe3,1,437,NaN,bottle,bottle,NaN,bottle5-bird3.png,bottle5-bird3.png,1.0,2.3871205,0.40587106,1.400955
alexnet_w3_mlp_simclrhn_probe3,1,438,NaN,chair,bottle,NaN,bottle5-boat1.png,bottle5-boat1.png,0.0,1.2974856,2.0284748,-0.5168874
alexnet_w3_mlp_simclrhn_probe3,1,439,NaN,cat,bottle,NaN,bottle5-cat1.png,bottle5-cat1.png,0.0,0.03215667,2.1341658,-1.4863449
alexnet_w3_mlp_simclrhn_probe3,1,440,NaN,bottle,bottle,NaN,bottle5-chair1.png,bottle5-chair1.png,1.0,2.3659704,1.10052,0.89480853
alexnet_w3_mlp_simclrhn_probe3,1,441,NaN,bottle,bottle,NaN,bottle5-clock3.png,bottle5-clock3.png,1.0,1.5151261,0.85393584,0.46753213
alexnet_w3_mlp_simclrhn_probe3,1,442,NaN,cat,bottle,NaN,bottle5-elephant1.png,bottle5-elephant1.png,0.0,0.11009667,0.48541653,-0.26539123
alexnet_w3_mlp_simclrhn_probe3,1,443,NaN,bottle,bottle,NaN,bottle5-keyboard2.png,bottle5-keyboard2.png,1.0,1.5069493,0.6905853,0.5772565
alexnet_w3_mlp_simclrhn_probe3,1,444,NaN,bottle,bottle,NaN,bottle5-knife1.png,bottle5-knife1.png,1.0,1.3749354,0.8162229,0.3950694
alexnet_w3_mlp_simclrhn_probe3,1,445,NaN,bottle,bottle,NaN,bottle5-oven2.png,bottle5-oven2.png,1.0,2.6180902,1.4765393,0.8071984
alexnet_w3_mlp_simclrhn_probe3,1,446,NaN,bottle,bottle,NaN,bottle5-truck1.png,bottle5-truck1.png,1.0,2.9822812,2.6933396,0.20431258
alexnet_w3_mlp_simclrhn_probe3,1,447,NaN,bottle,bottle,NaN,bottle6-airplane1.png,bottle6-airplane1.png,1.0,1.7534403,1.5535704,0.14132935
alexnet_w3_mlp_simclrhn_probe3,1,448,NaN,cat,bottle,NaN,bottle6-bear2.png,bottle6-bear2.png,0.0,-0.09198467,1.4883513,-1.1174663
alexnet_w3_mlp_simclrhn_probe3,1,449,NaN,bottle,bottle,NaN,bottle6-bicycle3.png,bottle6-bicycle3.png,1.0,0.80832994,0.7770428,0.022123344
alexnet_w3_mlp_simclrhn_probe3,1,450,NaN,cat,bottle,NaN,bottle6-bird1.png,bottle6-bird1.png,0.0,0.061523687,1.0971204,-0.73227745
alexnet_w3_mlp_simclrhn_probe3,1,451,NaN,bottle,bottle,NaN,bottle6-boat3.png,bottle6-boat3.png,1.0,5.5341334,3.9930806,1.0896889
alexnet_w3_mlp_simclrhn_probe3,1,452,NaN,bottle,bottle,NaN,bottle6-bottle3.png,bottle6-bottle3.png,1.0,0.7553953,0.65454537,0.07131167
alexnet_w3_mlp_simclrhn_probe3,1,453,NaN,oven,bottle,NaN,bottle6-chair2.png,bottle6-chair2.png,0.0,2.2362592,2.686424,-0.31831458
alexnet_w3_mlp_simclrhn_probe3,1,454,NaN,cat,bottle,NaN,bottle6-dog3.png,bottle6-dog3.png,0.0,-0.0026719698,2.3357227,-1.6534947
alexnet_w3_mlp_simclrhn_probe3,1,455,NaN,bottle,bottle,NaN,bottle6-knife3.png,bottle6-knife3.png,1.0,1.4772232,0.8001812,0.47874096
alexnet_w3_mlp_simclrhn_probe3,1,456,NaN,bottle,bottle,NaN,bottle6-oven3.png,bottle6-oven3.png,1.0,1.9796048,1.6138396,0.25863507
alexnet_w3_mlp_simclrhn_probe3,1,457,NaN,chair,bottle,NaN,bottle7-airplane3.png,bottle7-airplane3.png,0.0,1.3014168,1.4394834,-0.09762786
alexnet_w3_mlp_simclrhn_probe3,1,458,NaN,bear,bottle,NaN,bottle7-bear1.png,bottle7-bear1.png,0.0,-0.34055588,1.5648348,-1.3473147
alexnet_w3_mlp_simclrhn_probe3,1,459,NaN,oven,bottle,NaN,bottle7-boat3.png,bottle7-boat3.png,0.0,1.3143501,1.9502823,-0.44967198
alexnet_w3_mlp_simclrhn_probe3,1,460,NaN,cat,bottle,NaN,bottle7-cat2.png,bottle7-cat2.png,0.0,-0.005802296,0.80892015,-0.57609576
alexnet_w3_mlp_simclrhn_probe3,1,461,NaN,bicycle,bottle,NaN,bottle7-clock1.png,bottle7-clock1.png,0.0,1.0597036,1.2253908,-0.11715855
alexnet_w3_mlp_simclrhn_probe3,1,462,NaN,elephant,bottle,NaN,bottle7-elephant2.png,bottle7-elephant2.png,0.0,-0.40427092,1.4130173,-1.2850168
alexnet_w3_mlp_simclrhn_probe3,1,463,NaN,knife,bottle,NaN,bottle7-keyboard2.png,bottle7-keyboard2.png,0.0,0.8162471,0.95154697,-0.09567145
alexnet_w3_mlp_simclrhn_probe3,1,464,NaN,bottle,bottle,NaN,bottle7-oven2.png,bottle7-oven2.png,1.0,2.9032598,1.7847596,0.79089904
alexnet_w3_mlp_simclrhn_probe3,1,465,NaN,chair,bottle,NaN,bottle7-truck2.png,bottle7-truck2.png,0.0,1.6426474,2.6479332,-0.71084446
alexnet_w3_mlp_simclrhn_probe3,1,466,NaN,bicycle,bottle,NaN,bottle8-bicycle1.png,bottle8-bicycle1.png,0.0,0.35248873,0.95066655,-0.42297557
alexnet_w3_mlp_simclrhn_probe3,1,467,NaN,cat,bottle,NaN,bottle8-bird1.png,bottle8-bird1.png,0.0,0.1548109,0.98471814,-0.58683306
alexnet_w3_mlp_simclrhn_probe3,1,468,NaN,bottle,bottle,NaN,bottle8-bottle3.png,bottle8-bottle3.png,1.0,1.4070653,0.59121615,0.57689244
alexnet_w3_mlp_simclrhn_probe3,1,469,NaN,cat,bottle,NaN,bottle8-dog2.png,bottle8-dog2.png,0.0,0.22687218,0.7572549,-0.37503725
alexnet_w3_mlp_simclrhn_probe3,1,470,NaN,cat,bottle,NaN,bottle8-elephant3.png,bottle8-elephant3.png,0.0,-0.15735461,0.41164055,-0.40234035
alexnet_w3_mlp_simclrhn_probe3,1,471,NaN,bottle,bottle,NaN,bottle8-keyboard3.png,bottle8-keyboard3.png,1.0,0.95642626,0.77536243,0.12803146
alexnet_w3_mlp_simclrhn_probe3,1,472,NaN,bottle,bottle,NaN,bottle8-knife1.png,bottle8-knife1.png,1.0,1.7824218,1.3508449,0.305171
alexnet_w3_mlp_simclrhn_probe3,1,473,NaN,bicycle,bottle,NaN,bottle9-bicycle1.png,bottle9-bicycle1.png,0.0,0.071522646,0.6674797,-0.4214053
alexnet_w3_mlp_simclrhn_probe3,1,474,NaN,chair,bottle,NaN,bottle9-bottle1.png,bottle9-bottle1.png,0.0,-0.21649572,1.5414836,-1.2430792
alexnet_w3_mlp_simclrhn_probe3,1,475,NaN,bottle,bottle,NaN,bottle9-car3.png,bottle9-car3.png,1.0,2.2090838,1.2318892,0.6909809
alexnet_w3_mlp_simclrhn_probe3,1,476,NaN,cat,bottle,NaN,bottle9-cat2.png,bottle9-cat2.png,0.0,0.117881574,0.79261154,-0.47710612
alexnet_w3_mlp_simclrhn_probe3,1,477,NaN,cat,bottle,NaN,bottle9-elephant2.png,bottle9-elephant2.png,0.0,-0.1706561,0.91910845,-0.77057993
alexnet_w3_mlp_simclrhn_probe3,1,478,NaN,bottle,bottle,NaN,bottle9-keyboard1.png,bottle9-keyboard1.png,1.0,1.5780593,1.2007625,0.26678914
alexnet_w3_mlp_simclrhn_probe3,1,479,NaN,oven,bottle,NaN,bottle9-oven2.png,bottle9-oven2.png,0.0,2.0606415,2.102066,-0.029291555
alexnet_w3_mlp_simclrhn_probe3,1,480,NaN,bottle,bottle,NaN,bottle9-truck1.png,bottle9-truck1.png,1.0,3.2114666,2.691716,0.36751917
alexnet_w3_mlp_simclrhn_probe3,1,481,NaN,car,car,NaN,car1-airplane1.png,car1-airplane1.png,1.0,4.1040273,3.4474175,0.46429324
alexnet_w3_mlp_simclrhn_probe3,1,482,NaN,bicycle,car,NaN,car1-car2.png,car1-car2.png,0.0,1.8462998,2.2025518,-0.25190827
alexnet_w3_mlp_simclrhn_probe3,1,483,NaN,airplane,car,NaN,car1-chair3.png,car1-chair3.png,0.0,1.596467,4.2762423,-1.8948873
alexnet_w3_mlp_simclrhn_probe3,1,484,NaN,car,car,NaN,car1-clock2.png,car1-clock2.png,1.0,3.7071316,2.5564525,0.813653
alexnet_w3_mlp_simclrhn_probe3,1,485,NaN,oven,car,NaN,car1-dog2.png,car1-dog2.png,0.0,-0.42424753,1.1712279,-1.1281716
alexnet_w3_mlp_simclrhn_probe3,1,486,NaN,keyboard,car,NaN,car1-keyboard2.png,car1-keyboard2.png,0.0,1.1257957,3.0470116,-1.3585048
alexnet_w3_mlp_simclrhn_probe3,1,487,NaN,oven,car,NaN,car1-oven3.png,car1-oven3.png,0.0,-0.3462,1.594109,-1.3720057
alexnet_w3_mlp_simclrhn_probe3,1,488,NaN,bicycle,car,NaN,car10-bicycle2.png,car10-bicycle2.png,0.0,-0.08738208,1.2296295,-0.93126786
alexnet_w3_mlp_simclrhn_probe3,1,489,NaN,bicycle,car,NaN,car10-bottle3.png,car10-bottle3.png,0.0,0.11505246,1.3449248,-0.8696511
alexnet_w3_mlp_simclrhn_probe3,1,490,NaN,car,car,NaN,car10-car1.png,car10-car1.png,1.0,4.2676535,2.140881,1.5038552
alexnet_w3_mlp_simclrhn_probe3,1,491,NaN,airplane,car,NaN,car10-chair1.png,car10-chair1.png,0.0,4.4356403,6.5476294,-1.4934018
alexnet_w3_mlp_simclrhn_probe3,1,492,NaN,oven,car,NaN,car10-dog1.png,car10-dog1.png,0.0,-0.43113992,0.78526723,-0.8601298
alexnet_w3_mlp_simclrhn_probe3,1,493,NaN,cat,car,NaN,car10-elephant2.png,car10-elephant2.png,0.0,-0.42970666,0.7142665,-0.80891114
alexnet_w3_mlp_simclrhn_probe3,1,494,NaN,airplane,car,NaN,car10-keyboard2.png,car10-keyboard2.png,0.0,0.4354253,1.3968735,-0.6798465
alexnet_w3_mlp_simclrhn_probe3,1,495,NaN,oven,car,NaN,car2-bird3.png,car2-bird3.png,0.0,0.03804989,1.3003408,-0.8925744
alexnet_w3_mlp_simclrhn_probe3,1,496,NaN,bicycle,car,NaN,car2-car3.png,car2-car3.png,0.0,3.1195877,3.8492494,-0.5159488
alexnet_w3_mlp_simclrhn_probe3,1,497,NaN,cat,car,NaN,car2-cat3.png,car2-cat3.png,0.0,-0.7423756,1.8294454,-1.8185521
alexnet_w3_mlp_simclrhn_probe3,1,498,NaN,car,car,NaN,car2-chair1.png,car2-chair1.png,1.0,6.874537,3.9305494,2.0817137
alexnet_w3_mlp_simclrhn_probe3,1,499,NaN,bottle,car,NaN,car2-knife3.png,car2-knife3.png,0.0,0.18223827,1.634321,-1.0267776
alexnet_w3_mlp_simclrhn_probe3,1,500,NaN,car,car,NaN,car3-airplane3.png,car3-airplane3.png,1.0,7.3300614,5.262846,1.461742
alexnet_w3_mlp_simclrhn_probe3,1,501,NaN,oven,car,NaN,car3-bird2.png,car3-bird2.png,0.0,-0.26013824,0.97532296,-0.87360305
alexnet_w3_mlp_simclrhn_probe3,1,502,NaN,car,car,NaN,car3-boat1.png,car3-boat1.png,1.0,6.120384,3.7224855,1.6955705
alexnet_w3_mlp_simclrhn_probe3,1,503,NaN,oven,car,NaN,car3-bottle3.png,car3-bottle3.png,0.0,-0.3209506,1.1142946,-1.0148717
alexnet_w3_mlp_simclrhn_probe3,1,504,NaN,oven,car,NaN,car3-dog2.png,car3-dog2.png,0.0,-0.2638789,0.81038046,-0.75961614
alexnet_w3_mlp_simclrhn_probe3,1,505,NaN,oven,car,NaN,car3-elephant3.png,car3-elephant3.png,0.0,-0.33227965,0.33749837,-0.47360456
alexnet_w3_mlp_simclrhn_probe3,1,506,NaN,chair,car,NaN,car3-oven3.png,car3-oven3.png,0.0,0.43627706,1.5456415,-0.7844392
alexnet_w3_mlp_simclrhn_probe3,1,507,NaN,car,car,NaN,car3-truck1.png,car3-truck1.png,1.0,5.5012155,3.2208607,1.6124543
alexnet_w3_mlp_simclrhn_probe3,1,508,NaN,cat,car,NaN,car4-bear3.png,car4-bear3.png,0.0,-0.5124468,2.03533,-1.8015504
alexnet_w3_mlp_simclrhn_probe3,1,509,NaN,bicycle,car,NaN,car4-bicycle3.png,car4-bicycle3.png,0.0,-0.23036508,1.2737405,-1.0635632
alexnet_w3_mlp_simclrhn_probe3,1,510,NaN,cat,car,NaN,car4-bird1.png,car4-bird1.png,0.0,-0.5309866,0.7255945,-0.888537
alexnet_w3_mlp_simclrhn_probe3,1,511,NaN,car,car,NaN,car4-boat1.png,car4-boat1.png,1.0,4.0646973,2.2327423,1.2953877
alexnet_w3_mlp_simclrhn_probe3,1,512,NaN,keyboard,car,NaN,car4-bottle1.png,car4-bottle1.png,0.0,0.20516747,1.1196988,-0.6466713
alexnet_w3_mlp_simclrhn_probe3,1,513,NaN,car,car,NaN,car4-car2.png,car4-car2.png,1.0,4.8848386,2.2255166,1.8804246
alexnet_w3_mlp_simclrhn_probe3,1,514,NaN,cat,car,NaN,car4-cat3.png,car4-cat3.png,0.0,-0.6046508,1.663483,-1.6038129
alexnet_w3_mlp_simclrhn_probe3,1,515,NaN,bicycle,car,NaN,car4-clock1.png,car4-clock1.png,0.0,0.21343386,1.8560659,-1.1615163
alexnet_w3_mlp_simclrhn_probe3,1,516,NaN,keyboard,car,NaN,car4-elephant3.png,car4-elephant3.png,0.0,-0.23029165,0.37081143,-0.42504406
alexnet_w3_mlp_simclrhn_probe3,1,517,NaN,truck,car,NaN,car4-oven2.png,car4-oven2.png,0.0,0.62707335,1.8054409,-0.83323175
alexnet_w3_mlp_simclrhn_probe3,1,518,NaN,car,car,NaN,car5-airplane3.png,car5-airplane3.png,1.0,9.108869,5.5487194,2.5174057
alexnet_w3_mlp_simclrhn_probe3,1,519,NaN,cat,car,NaN,car5-bear3.png,car5-bear3.png,0.0,-0.411793,1.6999084,-1.4931985
alexnet_w3_mlp_simclrhn_probe3,1,520,NaN,keyboard,car,NaN,car5-bottle1.png,car5-bottle1.png,0.0,0.03244178,1.5846285,-1.0975618
alexnet_w3_mlp_simclrhn_probe3,1,521,NaN,cat,car,NaN,car5-cat1.png,car5-cat1.png,0.0,-0.44149294,2.095988,-1.7942702
alexnet_w3_mlp_simclrhn_probe3,1,522,NaN,clock,car,NaN,car5-keyboard3.png,car5-keyboard3.png,0.0,0.7515774,1.0174417,-0.18799451
alexnet_w3_mlp_simclrhn_probe3,1,523,NaN,truck,car,NaN,car5-knife2.png,car5-knife2.png,0.0,5.2766075,5.4725194,-0.13853063
alexnet_w3_mlp_simclrhn_probe3,1,524,NaN,truck,car,NaN,car5-oven2.png,car5-oven2.png,0.0,3.183965,4.548481,-0.96485853
alexnet_w3_mlp_simclrhn_probe3,1,525,NaN,car,car,NaN,car5-truck3.png,car5-truck3.png,1.0,5.9213395,5.59377,0.23162661
alexnet_w3_mlp_simclrhn_probe3,1,526,NaN,cat,car,NaN,car6-bear1.png,car6-bear1.png,0.0,-0.74006146,1.5351071,-1.6087872
alexnet_w3_mlp_simclrhn_probe3,1,527,NaN,bicycle,car,NaN,car6-bicycle3.png,car6-bicycle3.png,0.0,-0.358178,3.4715035,-2.7079937
alexnet_w3_mlp_simclrhn_probe3,1,528,NaN,bicycle,car,NaN,car6-boat1.png,car6-boat1.png,0.0,2.9277172,4.998044,-1.4639422
alexnet_w3_mlp_simclrhn_probe3,1,529,NaN,bicycle,car,NaN,car6-bottle1.png,car6-bottle1.png,0.0,-0.059898842,1.3419247,-0.99123895
alexnet_w3_mlp_simclrhn_probe3,1,530,NaN,airplane,car,NaN,car6-chair3.png,car6-chair3.png,0.0,2.1822875,4.085127,-1.3455107
alexnet_w3_mlp_simclrhn_probe3,1,531,NaN,cat,car,NaN,car6-elephant3.png,car6-elephant3.png,0.0,-0.32670352,0.33265516,-0.466237
alexnet_w3_mlp_simclrhn_probe3,1,532,NaN,bicycle,car,NaN,car6-knife1.png,car6-knife1.png,0.0,2.6396205,3.5363274,-0.6340675
alexnet_w3_mlp_simclrhn_probe3,1,533,NaN,car,car,NaN,car6-truck3.png,car6-truck3.png,1.0,3.8885994,2.1932507,1.1987926
alexnet_w3_mlp_simclrhn_probe3,1,534,NaN,car,car,NaN,car7-airplane2.png,car7-airplane2.png,1.0,4.0162864,2.122574,1.3390568
alexnet_w3_mlp_simclrhn_probe3,1,535,NaN,cat,car,NaN,car7-bear1.png,car7-bear1.png,0.0,-0.3821256,1.4167666,-1.2720089
alexnet_w3_mlp_simclrhn_probe3,1,536,NaN,airplane,car,NaN,car7-bird3.png,car7-bird3.png,0.0,0.6474058,0.93908393,-0.20624758
alexnet_w3_mlp_simclrhn_probe3,1,537,NaN,boat,car,NaN,car7-boat3.png,car7-boat3.png,0.0,2.9922302,4.524453,-1.0834453
alexnet_w3_mlp_simclrhn_probe3,1,538,NaN,bicycle,car,NaN,car7-car1.png,car7-car1.png,0.0,1.2241249,3.606349,-1.6844869
alexnet_w3_mlp_simclrhn_probe3,1,539,NaN,bicycle,car,NaN,car7-clock1.png,car7-clock1.png,0.0,0.5849194,2.7074018,-1.5008217
alexnet_w3_mlp_simclrhn_probe3,1,540,NaN,cat,car,NaN,car7-dog3.png,car7-dog3.png,0.0,-0.5261994,2.0298748,-1.8074174
alexnet_w3_mlp_simclrhn_probe3,1,541,NaN,keyboard,car,NaN,car7-elephant3.png,car7-elephant3.png,0.0,-0.25061467,0.21129443,-0.32661906
alexnet_w3_mlp_simclrhn_probe3,1,542,NaN,keyboard,car,NaN,car7-keyboard3.png,car7-keyboard3.png,0.0,0.79858357,1.7069695,-0.6423259
alexnet_w3_mlp_simclrhn_probe3,1,543,NaN,chair,car,NaN,car7-oven2.png,car7-oven2.png,0.0,0.6078405,1.9787683,-0.96939236
alexnet_w3_mlp_simclrhn_probe3,1,544,NaN,car,car,NaN,car8-airplane3.png,car8-airplane3.png,1.0,4.011329,1.894751,1.4966468
alexnet_w3_mlp_simclrhn_probe3,1,545,NaN,cat,car,NaN,car8-bear1.png,car8-bear1.png,0.0,-0.43205714,1.5956984,-1.4338397
alexnet_w3_mlp_simclrhn_probe3,1,546,NaN,bicycle,car,NaN,car8-bicycle2.png,car8-bicycle2.png,0.0,0.07009148,2.39348,-1.6428839
alexnet_w3_mlp_simclrhn_probe3,1,547,NaN,car,car,NaN,car8-boat3.png,car8-boat3.png,1.0,2.9993775,2.0369115,0.68056625
alexnet_w3_mlp_simclrhn_probe3,1,548,NaN,cat,car,NaN,car8-cat1.png,car8-cat1.png,0.0,-0.392795,2.6531658,-2.1538196
alexnet_w3_mlp_simclrhn_probe3,1,549,NaN,car,car,NaN,car8-chair1.png,car8-chair1.png,1.0,5.4852715,3.6439416,1.3020169
alexnet_w3_mlp_simclrhn_probe3,1,550,NaN,bicycle,car,NaN,car8-clock2.png,car8-clock2.png,0.0,3.0067835,3.488235,-0.34043762
alexnet_w3_mlp_simclrhn_probe3,1,551,NaN,oven,car,NaN,car8-dog1.png,car8-dog1.png,0.0,-0.44585407,0.8884983,-0.9435296
alexnet_w3_mlp_simclrhn_probe3,1,552,NaN,airplane,car,NaN,car8-knife2.png,car8-knife2.png,0.0,0.15816227,0.7906033,-0.44720337
alexnet_w3_mlp_simclrhn_probe3,1,553,NaN,car,car,NaN,car8-truck3.png,car8-truck3.png,1.0,4.4017334,2.5613894,1.3013197
alexnet_w3_mlp_simclrhn_probe3,1,554,NaN,bicycle,car,NaN,car9-bicycle2.png,car9-bicycle2.png,0.0,0.3035318,2.5987873,-1.6229907
alexnet_w3_mlp_simclrhn_probe3,1,555,NaN,cat,car,NaN,car9-bird1.png,car9-bird1.png,0.0,-0.42726517,0.6403691,-0.7549315
alexnet_w3_mlp_simclrhn_probe3,1,556,NaN,cat,car,NaN,car9-cat1.png,car9-cat1.png,0.0,-0.40661988,2.0633376,-1.7465236
alexnet_w3_mlp_simclrhn_probe3,1,557,NaN,car,car,NaN,car9-clock2.png,car9-clock2.png,1.0,6.64903,2.3716736,3.0245478
alexnet_w3_mlp_simclrhn_probe3,1,558,NaN,car,car,NaN,car9-keyboard2.png,car9-keyboard2.png,1.0,0.8053827,0.7356472,0.049310464
alexnet_w3_mlp_simclrhn_probe3,1,559,NaN,bicycle,car,NaN,car9-knife1.png,car9-knife1.png,0.0,2.0334218,2.1894,-0.11029325
alexnet_w3_mlp_simclrhn_probe3,1,560,NaN,car,car,NaN,car9-truck3.png,car9-truck3.png,1.0,4.775277,2.9306293,1.304363
alexnet_w3_mlp_simclrhn_probe3,1,561,NaN,chair,cat,NaN,cat1-airplane1.png,cat1-airplane1.png,0.0,-0.88052315,1.1481471,-1.4344865
alexnet_w3_mlp_simclrhn_probe3,1,562,NaN,cat,cat,NaN,cat1-bird1.png,cat1-bird1.png,1.0,1.0446676,0.22775525,0.5776443
alexnet_w3_mlp_simclrhn_probe3,1,563,NaN,chair,cat,NaN,cat1-boat1.png,cat1-boat1.png,0.0,-0.91256833,1.8745477,-1.9707887
alexnet_w3_mlp_simclrhn_probe3,1,564,NaN,bicycle,cat,NaN,cat1-car2.png,cat1-car2.png,0.0,-0.09953264,2.4102669,-1.7746962
alexnet_w3_mlp_simclrhn_probe3,1,565,NaN,cat,cat,NaN,cat1-cat3.png,cat1-cat3.png,1.0,4.609777,0.71436465,2.7544725
alexnet_w3_mlp_simclrhn_probe3,1,566,NaN,chair,cat,NaN,cat1-chair2.png,cat1-chair2.png,0.0,-0.50300723,2.2870743,-1.9728856
alexnet_w3_mlp_simclrhn_probe3,1,567,NaN,cat,cat,NaN,cat1-dog1.png,cat1-dog1.png,1.0,2.7258866,0.41696924,1.6326511
alexnet_w3_mlp_simclrhn_probe3,1,568,NaN,keyboard,cat,NaN,cat1-keyboard3.png,cat1-keyboard3.png,0.0,-0.27438697,1.6302671,-1.3467939
alexnet_w3_mlp_simclrhn_probe3,1,569,NaN,knife,cat,NaN,cat1-oven1.png,cat1-oven1.png,0.0,-0.7466375,2.0867548,-2.003511
alexnet_w3_mlp_simclrhn_probe3,1,570,NaN,knife,cat,NaN,cat10-airplane3.png,cat10-airplane3.png,0.0,0.16171867,0.9465011,-0.55492496
alexnet_w3_mlp_simclrhn_probe3,1,571,NaN,cat,cat,NaN,cat10-bear1.png,cat10-bear1.png,1.0,2.0872223,1.2496428,0.59225816
alexnet_w3_mlp_simclrhn_probe3,1,572,NaN,bird,cat,NaN,cat10-bicycle1.png,cat10-bicycle1.png,0.0,0.05942266,0.6490068,-0.41689894
alexnet_w3_mlp_simclrhn_probe3,1,573,NaN,cat,cat,NaN,cat10-bird2.png,cat10-bird2.png,1.0,2.5818713,0.5101236,1.464947
alexnet_w3_mlp_simclrhn_probe3,1,574,NaN,keyboard,cat,NaN,cat10-bottle1.png,cat10-bottle1.png,0.0,-0.6913106,0.9067645,-1.1300098
alexnet_w3_mlp_simclrhn_probe3,1,575,NaN,oven,cat,NaN,cat10-clock1.png,cat10-clock1.png,0.0,0.8782838,1.7184962,-0.5941199
alexnet_w3_mlp_simclrhn_probe3,1,576,NaN,keyboard,cat,NaN,cat10-elephant3.png,cat10-elephant3.png,0.0,0.12177747,0.12240857,-0.0004462561
alexnet_w3_mlp_simclrhn_probe3,1,577,NaN,oven,cat,NaN,cat10-keyboard1.png,cat10-keyboard1.png,0.0,0.16375172,1.8448778,-1.1887357
alexnet_w3_mlp_simclrhn_probe3,1,578,NaN,chair,cat,NaN,cat10-oven2.png,cat10-oven2.png,0.0,-0.56005716,2.2135048,-1.9612045
alexnet_w3_mlp_simclrhn_probe3,1,579,NaN,bicycle,cat,NaN,cat2-boat2.png,cat2-boat2.png,0.0,-0.020704493,2.118466,-1.5126219
alexnet_w3_mlp_simclrhn_probe3,1,580,NaN,cat,cat,NaN,cat2-bottle3.png,cat2-bottle3.png,1.0,1.1821893,0.022012332,0.820369
alexnet_w3_mlp_simclrhn_probe3,1,581,NaN,cat,cat,NaN,cat2-car3.png,cat2-car3.png,1.0,1.2278519,0.5544523,0.4761654
alexnet_w3_mlp_simclrhn_probe3,1,582,NaN,cat,cat,NaN,cat2-cat1.png,cat2-cat1.png,1.0,2.1506815,0.7595856,0.98365337
alexnet_w3_mlp_simclrhn_probe3,1,583,NaN,cat,cat,NaN,cat2-elephant1.png,cat2-elephant1.png,1.0,0.40034953,0.19166134,0.14756483
alexnet_w3_mlp_simclrhn_probe3,1,584,NaN,bottle,cat,NaN,cat2-knife3.png,cat2-knife3.png,0.0,-1.0610679,0.9919971,-1.4517362
alexnet_w3_mlp_simclrhn_probe3,1,585,NaN,chair,cat,NaN,cat2-truck3.png,cat2-truck3.png,0.0,-0.197996,2.1140916,-1.6348928
alexnet_w3_mlp_simclrhn_probe3,1,586,NaN,bear,cat,NaN,cat3-bear2.png,cat3-bear2.png,0.0,2.1382084,2.620884,-0.34130317
alexnet_w3_mlp_simclrhn_probe3,1,587,NaN,bird,cat,NaN,cat3-bicycle1.png,cat3-bicycle1.png,0.0,0.41843733,0.62275344,-0.14447331
alexnet_w3_mlp_simclrhn_probe3,1,588,NaN,cat,cat,NaN,cat3-cat1.png,cat3-cat1.png,1.0,5.7051206,1.5104516,2.9660788
alexnet_w3_mlp_simclrhn_probe3,1,589,NaN,cat,cat,NaN,cat3-elephant2.png,cat3-elephant2.png,1.0,0.95271134,0.14724018,0.56955415
alexnet_w3_mlp_simclrhn_probe3,1,590,NaN,chair,cat,NaN,cat3-oven2.png,cat3-oven2.png,0.0,-0.7278052,1.7112792,-1.7246931
alexnet_w3_mlp_simclrhn_probe3,1,591,NaN,chair,cat,NaN,cat3-truck3.png,cat3-truck3.png,0.0,-0.5086704,2.6029482,-2.2002466
alexnet_w3_mlp_simclrhn_probe3,1,592,NaN,chair,cat,NaN,cat4-airplane1.png,cat4-airplane1.png,0.0,-0.47989437,0.59674954,-0.76130223
alexnet_w3_mlp_simclrhn_probe3,1,593,NaN,cat,cat,NaN,cat4-bird2.png,cat4-bird2.png,1.0,1.1273116,0.19107041,0.6620225
alexnet_w3_mlp_simclrhn_probe3,1,594,NaN,bicycle,cat,NaN,cat4-car2.png,cat4-car2.png,0.0,0.08136928,1.0907013,-0.71370554
alexnet_w3_mlp_simclrhn_probe3,1,595,NaN,cat,cat,NaN,cat4-cat3.png,cat4-cat3.png,1.0,2.0261521,0.52072227,1.0644997
alexnet_w3_mlp_simclrhn_probe3,1,596,NaN,chair,cat,NaN,cat4-chair2.png,cat4-chair2.png,0.0,-0.5439006,2.0404582,-1.8274176
alexnet_w3_mlp_simclrhn_probe3,1,597,NaN,bicycle,cat,NaN,cat4-clock2.png,cat4-clock2.png,0.0,0.37307477,1.5159554,-0.80813867
alexnet_w3_mlp_simclrhn_probe3,1,598,NaN,cat,cat,NaN,cat4-dog3.png,cat4-dog3.png,1.0,2.4278572,1.6541075,0.5471237
alexnet_w3_mlp_simclrhn_probe3,1,599,NaN,clock,cat,NaN,cat4-keyboard2.png,cat4-keyboard2.png,0.0,-0.085713096,1.1314477,-0.8606627
alexnet_w3_mlp_simclrhn_probe3,1,600,NaN,bicycle,cat,NaN,cat4-knife1.png,cat4-knife1.png,0.0,0.08013165,2.635014,-1.8065748
alexnet_w3_mlp_simclrhn_probe3,1,601,NaN,knife,cat,NaN,cat4-oven1.png,cat4-oven1.png,0.0,-0.6588225,2.156544,-1.9907647
alexnet_w3_mlp_simclrhn_probe3,1,602,NaN,bottle,cat,NaN,cat4-truck3.png,cat4-truck3.png,0.0,-0.47563133,2.008676,-1.7566706
alexnet_w3_mlp_simclrhn_probe3,1,603,NaN,chair,cat,NaN,cat5-airplane2.png,cat5-airplane2.png,0.0,-0.5174121,1.5380894,-1.453459
alexnet_w3_mlp_simclrhn_probe3,1,604,NaN,cat,cat,NaN,cat5-bear2.png,cat5-bear2.png,1.0,2.3744245,0.9337756,1.0186925
alexnet_w3_mlp_simclrhn_probe3,1,605,NaN,cat,cat,NaN,cat5-bicycle3.png,cat5-bicycle3.png,1.0,1.371985,0.24695612,0.79551554
alexnet_w3_mlp_simclrhn_probe3,1,606,NaN,chair,cat,NaN,cat5-boat1.png,cat5-boat1.png,0.0,-0.888437,1.9791583,-2.0276961
alexnet_w3_mlp_simclrhn_probe3,1,607,NaN,oven,cat,NaN,cat5-bottle1.png,cat5-bottle1.png,0.0,-0.37626696,1.0426071,-1.0032954
alexnet_w3_mlp_simclrhn_probe3,1,608,NaN,bicycle,cat,NaN,cat5-car2.png,cat5-car2.png,0.0,0.16045274,1.5371464,-0.9734695
alexnet_w3_mlp_simclrhn_probe3,1,609,NaN,chair,cat,NaN,cat5-chair3.png,cat5-chair3.png,0.0,-0.5121872,2.1435034,-1.877857
alexnet_w3_mlp_simclrhn_probe3,1,610,NaN,cat,cat,NaN,cat5-dog3.png,cat5-dog3.png,1.0,4.5360985,1.5050313,2.1432881
alexnet_w3_mlp_simclrhn_probe3,1,611,NaN,cat,cat,NaN,cat5-elephant2.png,cat5-elephant2.png,1.0,1.1333771,0.1930599,0.66490465
alexnet_w3_mlp_simclrhn_probe3,1,612,NaN,clock,cat,NaN,cat5-keyboard3.png,cat5-keyboard3.png,0.0,-0.3020902,0.8176894,-0.7918038
alexnet_w3_mlp_simclrhn_probe3,1,613,NaN,oven,cat,NaN,cat5-knife2.png,cat5-knife2.png,0.0,0.17768444,2.4874406,-1.6332442
alexnet_w3_mlp_simclrhn_probe3,1,614,NaN,cat,cat,NaN,cat6-bear1.png,cat6-bear1.png,1.0,2.5729659,0.9974936,1.1140271
alexnet_w3_mlp_simclrhn_probe3,1,615,NaN,chair,cat,NaN,cat6-chair3.png,cat6-chair3.png,0.0,-0.6866827,2.4984002,-2.2521937
alexnet_w3_mlp_simclrhn_probe3,1,616,NaN,bicycle,cat,NaN,cat6-clock3.png,cat6-clock3.png,0.0,0.73816305,0.916371,-0.12601204
alexnet_w3_mlp_simclrhn_probe3,1,617,NaN,knife,cat,NaN,cat6-keyboard3.png,cat6-keyboard3.png,0.0,0.07716973,1.2610564,-0.8371343
alexnet_w3_mlp_simclrhn_probe3,1,618,NaN,knife,cat,NaN,cat6-oven1.png,cat6-oven1.png,0.0,-0.76170164,2.1372628,-2.0498774
alexnet_w3_mlp_simclrhn_probe3,1,619,NaN,knife,cat,NaN,cat7-airplane2.png,cat7-airplane2.png,0.0,-0.4736499,1.1888446,-1.1755611
alexnet_w3_mlp_simclrhn_probe3,1,620,NaN,oven,cat,NaN,cat7-boat3.png,cat7-boat3.png,0.0,-0.27095675,3.2057593,-2.4584095
alexnet_w3_mlp_simclrhn_probe3,1,621,NaN,oven,cat,NaN,cat7-bottle1.png,cat7-bottle1.png,0.0,-0.54110205,0.84463,-0.97986054
alexnet_w3_mlp_simclrhn_probe3,1,622,NaN,cat,cat,NaN,cat7-clock3.png,cat7-clock3.png,1.0,0.48352197,0.36923218,0.080815084
alexnet_w3_mlp_simclrhn_probe3,1,623,NaN,cat,cat,NaN,cat7-dog3.png,cat7-dog3.png,1.0,2.2835038,1.8382978,0.31480813
alexnet_w3_mlp_simclrhn_probe3,1,624,NaN,cat,cat,NaN,cat7-elephant1.png,cat7-elephant1.png,1.0,0.32013255,-0.023537893,0.24301171
alexnet_w3_mlp_simclrhn_probe3,1,625,NaN,oven,cat,NaN,cat7-knife2.png,cat7-knife2.png,0.0,-0.164153,1.985294,-1.5198885
alexnet_w3_mlp_simclrhn_probe3,1,626,NaN,chair,cat,NaN,cat7-truck2.png,cat7-truck2.png,0.0,-0.23213299,2.8409116,-2.1729708
alexnet_w3_mlp_simclrhn_probe3,1,627,NaN,bear,cat,NaN,cat8-bear1.png,cat8-bear1.png,0.0,1.5124531,1.7573382,-0.17315991
alexnet_w3_mlp_simclrhn_probe3,1,628,NaN,cat,cat,NaN,cat8-bicycle3.png,cat8-bicycle3.png,1.0,0.35013464,0.25235343,0.06914176
alexnet_w3_mlp_simclrhn_probe3,1,629,NaN,cat,cat,NaN,cat8-bird2.png,cat8-bird2.png,1.0,1.2650378,0.123521335,0.807174
alexnet_w3_mlp_simclrhn_probe3,1,630,NaN,bicycle,cat,NaN,cat8-car2.png,cat8-car2.png,0.0,0.24621372,0.7079215,-0.3264767
alexnet_w3_mlp_simclrhn_probe3,1,631,NaN,bird,cat,NaN,cat9-bicycle1.png,cat9-bicycle1.png,0.0,-0.26252562,0.47307423,-0.5201477
alexnet_w3_mlp_simclrhn_probe3,1,632,NaN,dog,cat,NaN,cat9-bird3.png,cat9-bird3.png,0.0,2.1104107,2.6334329,-0.36983255
alexnet_w3_mlp_simclrhn_probe3,1,633,NaN,oven,cat,NaN,cat9-boat2.png,cat9-boat2.png,0.0,-0.49876726,2.3496711,-2.0141501
alexnet_w3_mlp_simclrhn_probe3,1,634,NaN,bottle,cat,NaN,cat9-bottle2.png,cat9-bottle2.png,0.0,-0.9365594,3.3512166,-3.0319154
alexnet_w3_mlp_simclrhn_probe3,1,635,NaN,cat,cat,NaN,cat9-cat3.png,cat9-cat3.png,1.0,2.0872943,1.0686277,0.7203061
alexnet_w3_mlp_simclrhn_probe3,1,636,NaN,boat,cat,NaN,cat9-chair2.png,cat9-chair2.png,0.0,-0.5665773,1.7572806,-1.6432157
alexnet_w3_mlp_simclrhn_probe3,1,637,NaN,bicycle,cat,NaN,cat9-clock2.png,cat9-clock2.png,0.0,0.5811718,0.7379235,-0.11084019
alexnet_w3_mlp_simclrhn_probe3,1,638,NaN,cat,cat,NaN,cat9-dog2.png,cat9-dog2.png,1.0,1.2804371,1.2356755,0.031651273
alexnet_w3_mlp_simclrhn_probe3,1,639,NaN,airplane,cat,NaN,cat9-knife2.png,cat9-knife2.png,0.0,-0.10969617,1.3640513,-1.0420969
alexnet_w3_mlp_simclrhn_probe3,1,640,NaN,chair,cat,NaN,cat9-truck1.png,cat9-truck1.png,0.0,-0.2908486,2.7059362,-2.119047
alexnet_w3_mlp_simclrhn_probe3,1,641,NaN,chair,chair,NaN,chair1-airplane2.png,chair1-airplane2.png,1.0,3.5577219,1.8706596,1.1929332
alexnet_w3_mlp_simclrhn_probe3,1,642,NaN,cat,chair,NaN,chair1-bear1.png,chair1-bear1.png,0.0,-0.70137143,1.9974202,-1.9083338
alexnet_w3_mlp_simclrhn_probe3,1,643,NaN,cat,chair,NaN,chair1-cat3.png,chair1-cat3.png,0.0,-0.49886745,2.4312468,-2.0719037
alexnet_w3_mlp_simclrhn_probe3,1,644,NaN,chair,chair,NaN,chair1-chair1.png,chair1-chair1.png,1.0,3.4279418,1.332757,1.4815195
alexnet_w3_mlp_simclrhn_probe3,1,645,NaN,chair,chair,NaN,chair1-clock2.png,chair1-clock2.png,1.0,1.5487047,1.2177473,0.23402223
alexnet_w3_mlp_simclrhn_probe3,1,646,NaN,cat,chair,NaN,chair1-dog1.png,chair1-dog1.png,0.0,-0.66494113,1.442825,-1.4904158
alexnet_w3_mlp_simclrhn_probe3,1,647,NaN,cat,chair,NaN,chair1-elephant1.png,chair1-elephant1.png,0.0,-0.13835913,0.48119488,-0.43809086
alexnet_w3_mlp_simclrhn_probe3,1,648,NaN,chair,chair,NaN,chair1-oven3.png,chair1-oven3.png,1.0,2.324322,0.80818105,1.0720736
alexnet_w3_mlp_simclrhn_probe3,1,649,NaN,chair,chair,NaN,chair1-truck3.png,chair1-truck3.png,1.0,2.1519327,2.0832944,0.048534624
alexnet_w3_mlp_simclrhn_probe3,1,650,NaN,chair,chair,NaN,chair10-airplane2.png,chair10-airplane2.png,1.0,4.184251,1.9995877,1.5447903
alexnet_w3_mlp_simclrhn_probe3,1,651,NaN,bicycle,chair,NaN,chair10-bicycle1.png,chair10-bicycle1.png,0.0,0.5376456,0.79432225,-0.18149783
alexnet_w3_mlp_simclrhn_probe3,1,652,NaN,oven,chair,NaN,chair10-bird3.png,chair10-bird3.png,0.0,1.1073561,1.1158917,-0.0060355975
alexnet_w3_mlp_simclrhn_probe3,1,653,NaN,oven,chair,NaN,chair10-bottle3.png,chair10-bottle3.png,0.0,1.3094949,3.2174091,-1.3490992
alexnet_w3_mlp_simclrhn_probe3,1,654,NaN,bicycle,chair,NaN,chair10-car2.png,chair10-car2.png,0.0,0.38068292,0.44128355,-0.042851124
alexnet_w3_mlp_simclrhn_probe3,1,655,NaN,cat,chair,NaN,chair10-cat1.png,chair10-cat1.png,0.0,-0.45180082,2.4942105,-2.0831447
alexnet_w3_mlp_simclrhn_probe3,1,656,NaN,oven,chair,NaN,chair10-clock1.png,chair10-clock1.png,0.0,2.6040168,3.0617168,-0.3236428
alexnet_w3_mlp_simclrhn_probe3,1,657,NaN,cat,chair,NaN,chair10-dog1.png,chair10-dog1.png,0.0,-0.4065565,1.4326795,-1.3005363
alexnet_w3_mlp_simclrhn_probe3,1,658,NaN,chair,chair,NaN,chair10-oven1.png,chair10-oven1.png,1.0,1.9824824,1.218003,0.5405686
alexnet_w3_mlp_simclrhn_probe3,1,659,NaN,cat,chair,NaN,chair2-bear2.png,chair2-bear2.png,0.0,-0.51516664,1.5262274,-1.4434836
alexnet_w3_mlp_simclrhn_probe3,1,660,NaN,chair,chair,NaN,chair2-boat1.png,chair2-boat1.png,1.0,2.6562746,2.6110969,0.031945456
alexnet_w3_mlp_simclrhn_probe3,1,661,NaN,knife,chair,NaN,chair2-keyboard2.png,chair2-keyboard2.png,0.0,0.5770543,1.1553264,-0.40890008
alexnet_w3_mlp_simclrhn_probe3,1,662,NaN,chair,chair,NaN,chair2-knife1.png,chair2-knife1.png,1.0,2.198984,1.7292414,0.33215815
alexnet_w3_mlp_simclrhn_probe3,1,663,NaN,chair,chair,NaN,chair3-airplane2.png,chair3-airplane2.png,1.0,2.9981756,1.6018382,0.98735964
alexnet_w3_mlp_simclrhn_probe3,1,664,NaN,chair,chair,NaN,chair3-bicycle3.png,chair3-bicycle3.png,1.0,0.99564743,0.8623804,0.094234034
alexnet_w3_mlp_simclrhn_probe3,1,665,NaN,oven,chair,NaN,chair3-bottle3.png,chair3-bottle3.png,0.0,1.4386332,1.9064261,-0.33077952
alexnet_w3_mlp_simclrhn_probe3,1,666,NaN,chair,chair,NaN,chair3-car3.png,chair3-car3.png,1.0,1.8986539,1.8013211,0.06882463
alexnet_w3_mlp_simclrhn_probe3,1,667,NaN,cat,chair,NaN,chair3-dog2.png,chair3-dog2.png,0.0,-0.40081295,1.6957226,-1.4824744
alexnet_w3_mlp_simclrhn_probe3,1,668,NaN,chair,chair,NaN,chair3-knife1.png,chair3-knife1.png,1.0,1.9822792,1.5175765,0.32859445
alexnet_w3_mlp_simclrhn_probe3,1,669,NaN,elephant,chair,NaN,chair4-bear2.png,chair4-bear2.png,0.0,-0.31924075,1.145371,-1.0356369
alexnet_w3_mlp_simclrhn_probe3,1,670,NaN,cat,chair,NaN,chair4-cat2.png,chair4-cat2.png,0.0,-0.2485017,1.5179507,-1.2490704
alexnet_w3_mlp_simclrhn_probe3,1,671,NaN,chair,chair,NaN,chair4-chair3.png,chair4-chair3.png,1.0,3.7616103,1.1851871,1.8218063
alexnet_w3_mlp_simclrhn_probe3,1,672,NaN,keyboard,chair,NaN,chair4-keyboard2.png,chair4-keyboard2.png,0.0,0.75605166,2.2303646,-1.0424967
alexnet_w3_mlp_simclrhn_probe3,1,673,NaN,chair,chair,NaN,chair4-oven2.png,chair4-oven2.png,1.0,3.5630348,1.2609432,1.6278247
alexnet_w3_mlp_simclrhn_probe3,1,674,NaN,chair,chair,NaN,chair4-truck2.png,chair4-truck2.png,1.0,5.181539,1.2469597,2.782168
alexnet_w3_mlp_simclrhn_probe3,1,675,NaN,bicycle,chair,NaN,chair5-bicycle1.png,chair5-bicycle1.png,0.0,0.9544815,2.5099144,-1.0998572
alexnet_w3_mlp_simclrhn_probe3,1,676,NaN,cat,chair,NaN,chair5-bird1.png,chair5-bird1.png,0.0,-0.38779247,0.7580884,-0.8102602
alexnet_w3_mlp_simclrhn_probe3,1,677,NaN,chair,chair,NaN,chair5-boat3.png,chair5-boat3.png,1.0,2.7555838,1.5535674,0.84995395
alexnet_w3_mlp_simclrhn_probe3,1,678,NaN,bicycle,chair,NaN,chair5-bottle3.png,chair5-bottle3.png,0.0,1.3483704,2.3089142,-0.679207
alexnet_w3_mlp_simclrhn_probe3,1,679,NaN,bicycle,chair,NaN,chair5-car1.png,chair5-car1.png,0.0,2.455842,2.5928369,-0.09686998
alexnet_w3_mlp_simclrhn_probe3,1,680,NaN,cat,chair,NaN,chair5-cat3.png,chair5-cat3.png,0.0,-0.42067474,1.9854721,-1.7014027
alexnet_w3_mlp_simclrhn_probe3,1,681,NaN,bicycle,chair,NaN,chair5-clock2.png,chair5-clock2.png,0.0,2.8880029,3.766985,-0.62153417
alexnet_w3_mlp_simclrhn_probe3,1,682,NaN,keyboard,chair,NaN,chair5-keyboard2.png,chair5-keyboard2.png,0.0,0.5060796,2.5273476,-1.4292523
alexnet_w3_mlp_simclrhn_probe3,1,683,NaN,chair,chair,NaN,chair5-knife3.png,chair5-knife3.png,1.0,0.8066579,0.6204231,0.13168791
alexnet_w3_mlp_simclrhn_probe3,1,684,NaN,chair,chair,NaN,chair5-oven2.png,chair5-oven2.png,1.0,3.3722186,1.0031912,1.6751554
alexnet_w3_mlp_simclrhn_probe3,1,685,NaN,chair,chair,NaN,chair5-truck3.png,chair5-truck3.png,1.0,3.6999433,1.9626669,1.2284399
alexnet_w3_mlp_simclrhn_probe3,1,686,NaN,oven,chair,NaN,chair6-bird2.png,chair6-bird2.png,0.0,0.17316629,1.4992789,-0.93770325
alexnet_w3_mlp_simclrhn_probe3,1,687,NaN,cat,chair,NaN,chair6-dog1.png,chair6-dog1.png,0.0,-0.41003644,0.8798893,-0.91211534
alexnet_w3_mlp_simclrhn_probe3,1,688,NaN,cat,chair,NaN,chair6-elephant2.png,chair6-elephant2.png,0.0,-0.4713081,1.1338764,-1.135037
alexnet_w3_mlp_simclrhn_probe3,1,689,NaN,chair,chair,NaN,chair6-truck2.png,chair6-truck2.png,1.0,4.300135,1.419145,2.0371675
alexnet_w3_mlp_simclrhn_probe3,1,690,NaN,chair,chair,NaN,chair7-airplane1.png,chair7-airplane1.png,1.0,1.618523,0.8276153,0.5592562
alexnet_w3_mlp_simclrhn_probe3,1,691,NaN,cat,chair,NaN,chair7-bird1.png,chair7-bird1.png,0.0,-0.16890596,0.75539845,-0.6535819
alexnet_w3_mlp_simclrhn_probe3,1,692,NaN,oven,chair,NaN,chair7-boat3.png,chair7-boat3.png,0.0,2.803656,2.9198484,-0.08216039
alexnet_w3_mlp_simclrhn_probe3,1,693,NaN,oven,chair,NaN,chair7-bottle1.png,chair7-bottle1.png,0.0,1.2513666,1.7256423,-0.33536357
alexnet_w3_mlp_simclrhn_probe3,1,694,NaN,bicycle,chair,NaN,chair7-car2.png,chair7-car2.png,0.0,1.0211579,1.2835547,-0.18554257
alexnet_w3_mlp_simclrhn_probe3,1,695,NaN,cat,chair,NaN,chair7-cat1.png,chair7-cat1.png,0.0,-0.4416157,3.1858752,-2.5650234
alexnet_w3_mlp_simclrhn_probe3,1,696,NaN,chair,chair,NaN,chair7-chair1.png,chair7-chair1.png,1.0,3.6360407,1.9090708,1.2211521
alexnet_w3_mlp_simclrhn_probe3,1,697,NaN,chair,chair,NaN,chair7-clock3.png,chair7-clock3.png,1.0,1.8274539,1.5476545,0.19784802
alexnet_w3_mlp_simclrhn_probe3,1,698,NaN,bicycle,chair,NaN,chair7-elephant1.png,chair7-elephant1.png,0.0,0.13207771,0.33609414,-0.1442614
alexnet_w3_mlp_simclrhn_probe3,1,699,NaN,oven,chair,NaN,chair7-knife2.png,chair7-knife2.png,0.0,1.1910301,1.5669703,-0.26582986
alexnet_w3_mlp_simclrhn_probe3,1,700,NaN,chair,chair,NaN,chair7-truck3.png,chair7-truck3.png,1.0,4.2782235,0.82780904,2.4398115
alexnet_w3_mlp_simclrhn_probe3,1,701,NaN,chair,chair,NaN,chair8-airplane1.png,chair8-airplane1.png,1.0,2.0236702,1.2334454,0.55877334
alexnet_w3_mlp_simclrhn_probe3,1,702,NaN,bear,chair,NaN,chair8-bear1.png,chair8-bear1.png,0.0,-0.7215788,1.0677752,-1.2652644
alexnet_w3_mlp_simclrhn_probe3,1,703,NaN,bicycle,chair,NaN,chair8-bicycle3.png,chair8-bicycle3.png,0.0,0.82346493,0.85459304,-0.022010896
alexnet_w3_mlp_simclrhn_probe3,1,704,NaN,chair,chair,NaN,chair8-boat1.png,chair8-boat1.png,1.0,3.4219747,2.2864828,0.802914
alexnet_w3_mlp_simclrhn_probe3,1,705,NaN,chair,chair,NaN,chair8-car1.png,chair8-car1.png,1.0,1.9803807,1.4985504,0.34070542
alexnet_w3_mlp_simclrhn_probe3,1,706,NaN,airplane,chair,NaN,chair8-chair3.png,chair8-chair3.png,0.0,2.6533706,2.6822536,-0.02042335
alexnet_w3_mlp_simclrhn_probe3,1,707,NaN,chair,chair,NaN,chair8-clock3.png,chair8-clock3.png,1.0,1.2114024,1.1457355,0.04643352
alexnet_w3_mlp_simclrhn_probe3,1,708,NaN,cat,chair,NaN,chair8-elephant1.png,chair8-elephant1.png,0.0,-0.14595607,0.41066667,-0.39359173
alexnet_w3_mlp_simclrhn_probe3,1,709,NaN,cat,chair,NaN,chair8-keyboard3.png,chair8-keyboard3.png,0.0,-0.6075705,0.37896085,-0.697583
alexnet_w3_mlp_simclrhn_probe3,1,710,NaN,oven,chair,NaN,chair8-knife2.png,chair8-knife2.png,0.0,1.4306021,2.1482198,-0.5074324
alexnet_w3_mlp_simclrhn_probe3,1,711,NaN,knife,chair,NaN,chair8-oven1.png,chair8-oven1.png,0.0,1.6040531,2.3662913,-0.53898376
alexnet_w3_mlp_simclrhn_probe3,1,712,NaN,cat,chair,NaN,chair9-bear1.png,chair9-bear1.png,0.0,-0.493887,1.6401528,-1.5089941
alexnet_w3_mlp_simclrhn_probe3,1,713,NaN,bicycle,chair,NaN,chair9-bicycle3.png,chair9-bicycle3.png,0.0,0.7171929,1.1162349,-0.28216532
alexnet_w3_mlp_simclrhn_probe3,1,714,NaN,chair,chair,NaN,chair9-bird3.png,chair9-bird3.png,1.0,0.4615605,0.29868892,0.115167595
alexnet_w3_mlp_simclrhn_probe3,1,715,NaN,chair,chair,NaN,chair9-boat2.png,chair9-boat2.png,1.0,2.7853346,2.582819,0.14320016
alexnet_w3_mlp_simclrhn_probe3,1,716,NaN,oven,chair,NaN,chair9-bottle3.png,chair9-bottle3.png,0.0,0.302971,1.3153615,-0.7158682
alexnet_w3_mlp_simclrhn_probe3,1,717,NaN,airplane,chair,NaN,chair9-chair3.png,chair9-chair3.png,0.0,2.6250954,2.8467622,-0.15674211
alexnet_w3_mlp_simclrhn_probe3,1,718,NaN,cat,chair,NaN,chair9-dog2.png,chair9-dog2.png,0.0,-0.25560868,1.3873116,-1.16172
alexnet_w3_mlp_simclrhn_probe3,1,719,NaN,cat,chair,NaN,chair9-elephant1.png,chair9-elephant1.png,0.0,-0.054364108,0.29788098,-0.24907489
alexnet_w3_mlp_simclrhn_probe3,1,720,NaN,keyboard,chair,NaN,chair9-keyboard2.png,chair9-keyboard2.png,0.0,0.113165945,1.1895909,-0.7611474
alexnet_w3_mlp_simclrhn_probe3,1,721,NaN,cat,clock,NaN,clock1-bear1.png,clock1-bear1.png,0.0,-0.123889945,1.0389806,-0.8222737
alexnet_w3_mlp_simclrhn_probe3,1,722,NaN,boat,clock,NaN,clock1-boat3.png,clock1-boat3.png,0.0,0.20531523,1.8174629,-1.1399605
alexnet_w3_mlp_simclrhn_probe3,1,723,NaN,bicycle,clock,NaN,clock1-car1.png,clock1-car1.png,0.0,-0.253302,1.4401402,-1.1974446
alexnet_w3_mlp_simclrhn_probe3,1,724,NaN,clock,clock,NaN,clock1-clock2.png,clock1-clock2.png,1.0,1.817891,1.4042746,0.292471
alexnet_w3_mlp_simclrhn_probe3,1,725,NaN,cat,clock,NaN,clock1-dog2.png,clock1-dog2.png,0.0,0.080307566,0.9062867,-0.5840555
alexnet_w3_mlp_simclrhn_probe3,1,726,NaN,cat,clock,NaN,clock1-elephant2.png,clock1-elephant2.png,0.0,-0.3203672,0.6715412,-0.7013852
alexnet_w3_mlp_simclrhn_probe3,1,727,NaN,knife,clock,NaN,clock1-truck3.png,clock1-truck3.png,0.0,0.30526078,2.0559702,-1.2379385
alexnet_w3_mlp_simclrhn_probe3,1,728,NaN,bicycle,clock,NaN,clock10-airplane1.png,clock10-airplane1.png,0.0,1.6367255,2.5986238,-0.68016475
alexnet_w3_mlp_simclrhn_probe3,1,729,NaN,clock,clock,NaN,clock10-bird3.png,clock10-bird3.png,1.0,2.5255363,0.57304287,1.3806213
alexnet_w3_mlp_simclrhn_probe3,1,730,NaN,bicycle,clock,NaN,clock10-boat2.png,clock10-boat2.png,0.0,1.6550115,2.2442672,-0.41666672
alexnet_w3_mlp_simclrhn_probe3,1,731,NaN,keyboard,clock,NaN,clock10-bottle1.png,clock10-bottle1.png,0.0,0.045070052,0.7643672,-0.5086199
alexnet_w3_mlp_simclrhn_probe3,1,732,NaN,cat,clock,NaN,clock10-cat1.png,clock10-cat1.png,0.0,0.14190474,1.2437493,-0.77912176
alexnet_w3_mlp_simclrhn_probe3,1,733,NaN,clock,clock,NaN,clock10-clock3.png,clock10-clock3.png,1.0,3.45004,0.8043107,1.8708134
alexnet_w3_mlp_simclrhn_probe3,1,734,NaN,dog,clock,NaN,clock10-dog3.png,clock10-dog3.png,0.0,0.18740828,1.1684748,-0.6937188
alexnet_w3_mlp_simclrhn_probe3,1,735,NaN,bottle,clock,NaN,clock10-knife3.png,clock10-knife3.png,0.0,1.1650729,1.2057762,-0.028781578
alexnet_w3_mlp_simclrhn_probe3,1,736,NaN,bottle,clock,NaN,clock10-oven2.png,clock10-oven2.png,0.0,1.2033573,3.8739746,-1.8884115
alexnet_w3_mlp_simclrhn_probe3,1,737,NaN,bottle,clock,NaN,clock10-truck2.png,clock10-truck2.png,0.0,0.97717863,3.8359642,-2.0214667
alexnet_w3_mlp_simclrhn_probe3,1,738,NaN,clock,clock,NaN,clock2-bear2.png,clock2-bear2.png,1.0,0.85655266,0.34986836,0.3582799
alexnet_w3_mlp_simclrhn_probe3,1,739,NaN,clock,clock,NaN,clock2-bicycle1.png,clock2-bicycle1.png,1.0,3.997403,1.9285686,1.4628868
alexnet_w3_mlp_simclrhn_probe3,1,740,NaN,clock,clock,NaN,clock2-bottle3.png,clock2-bottle3.png,1.0,6.3869133,1.8029538,3.241349
alexnet_w3_mlp_simclrhn_probe3,1,741,NaN,clock,clock,NaN,clock2-clock3.png,clock2-clock3.png,1.0,7.2863235,0.3109192,4.932356
alexnet_w3_mlp_simclrhn_probe3,1,742,NaN,oven,clock,NaN,clock2-dog1.png,clock2-dog1.png,0.0,0.42822087,0.7133359,-0.20160675
alexnet_w3_mlp_simclrhn_probe3,1,743,NaN,clock,clock,NaN,clock2-elephant2.png,clock2-elephant2.png,1.0,0.87025005,0.13580827,0.5193288
alexnet_w3_mlp_simclrhn_probe3,1,744,NaN,clock,clock,NaN,clock2-knife1.png,clock2-knife1.png,1.0,3.2236207,2.1867912,0.7331492
alexnet_w3_mlp_simclrhn_probe3,1,745,NaN,cat,clock,NaN,clock3-bear3.png,clock3-bear3.png,0.0,0.025495484,1.4549918,-1.0108066
alexnet_w3_mlp_simclrhn_probe3,1,746,NaN,clock,clock,NaN,clock3-bicycle2.png,clock3-bicycle2.png,1.0,1.800299,1.792588,0.005452538
alexnet_w3_mlp_simclrhn_probe3,1,747,NaN,clock,clock,NaN,clock3-bird1.png,clock3-bird1.png,1.0,0.84906644,0.38610855,0.32736066
alexnet_w3_mlp_simclrhn_probe3,1,748,NaN,bicycle,clock,NaN,clock3-car2.png,clock3-car2.png,0.0,0.9939816,4.001875,-2.1269019
alexnet_w3_mlp_simclrhn_probe3,1,749,NaN,clock,clock,NaN,clock3-cat1.png,clock3-cat1.png,1.0,0.939845,0.9373592,0.0017577343
alexnet_w3_mlp_simclrhn_probe3,1,750,NaN,clock,clock,NaN,clock3-dog2.png,clock3-dog2.png,1.0,1.3520662,0.8132348,0.3810113
alexnet_w3_mlp_simclrhn_probe3,1,751,NaN,clock,clock,NaN,clock3-elephant3.png,clock3-elephant3.png,1.0,0.6686509,0.21952334,0.31758118
alexnet_w3_mlp_simclrhn_probe3,1,752,NaN,clock,clock,NaN,clock3-keyboard3.png,clock3-keyboard3.png,1.0,2.2812583,0.30689,1.3960893
alexnet_w3_mlp_simclrhn_probe3,1,753,NaN,clock,clock,NaN,clock4-airplane1.png,clock4-airplane1.png,1.0,2.5474017,0.38037395,1.53232
alexnet_w3_mlp_simclrhn_probe3,1,754,NaN,clock,clock,NaN,clock4-bird3.png,clock4-bird3.png,1.0,3.6311543,1.4579843,1.5366633
alexnet_w3_mlp_simclrhn_probe3,1,755,NaN,oven,clock,NaN,clock4-boat3.png,clock4-boat3.png,0.0,1.7191492,2.4399786,-0.50970334
alexnet_w3_mlp_simclrhn_probe3,1,756,NaN,clock,clock,NaN,clock4-bottle3.png,clock4-bottle3.png,1.0,2.9252033,1.8043275,0.79257894
alexnet_w3_mlp_simclrhn_probe3,1,757,NaN,bicycle,clock,NaN,clock4-car2.png,clock4-car2.png,0.0,0.21312208,2.483616,-1.6054817
alexnet_w3_mlp_simclrhn_probe3,1,758,NaN,car,clock,NaN,clock4-chair1.png,clock4-chair1.png,0.0,1.4296235,2.7595766,-0.94041884
alexnet_w3_mlp_simclrhn_probe3,1,759,NaN,cat,clock,NaN,clock4-elephant2.png,clock4-elephant2.png,0.0,-0.27638003,0.8024397,-0.76284075
alexnet_w3_mlp_simclrhn_probe3,1,760,NaN,clock,clock,NaN,clock4-knife1.png,clock4-knife1.png,1.0,2.4154136,0.9497173,1.0364039
alexnet_w3_mlp_simclrhn_probe3,1,761,NaN,knife,clock,NaN,clock4-oven1.png,clock4-oven1.png,0.0,1.3766499,1.6351157,-0.18276298
alexnet_w3_mlp_simclrhn_probe3,1,762,NaN,clock,clock,NaN,clock5-airplane1.png,clock5-airplane1.png,1.0,4.224611,1.0811481,2.2227638
alexnet_w3_mlp_simclrhn_probe3,1,763,NaN,clock,clock,NaN,clock5-bicycle1.png,clock5-bicycle1.png,1.0,3.3557737,1.8467054,1.0670724
alexnet_w3_mlp_simclrhn_probe3,1,764,NaN,clock,clock,NaN,clock5-chair3.png,clock5-chair3.png,1.0,4.2281175,2.3541389,1.325103
alexnet_w3_mlp_simclrhn_probe3,1,765,NaN,clock,clock,NaN,clock5-clock2.png,clock5-clock2.png,1.0,12.486114,0.34191942,8.587242
alexnet_w3_mlp_simclrhn_probe3,1,766,NaN,clock,clock,NaN,clock5-elephant2.png,clock5-elephant2.png,1.0,0.23645471,0.1292439,0.07580949
alexnet_w3_mlp_simclrhn_probe3,1,767,NaN,clock,clock,NaN,clock5-keyboard1.png,clock5-keyboard1.png,1.0,5.0872464,0.64515525,3.1410327
alexnet_w3_mlp_simclrhn_probe3,1,768,NaN,knife,clock,NaN,clock5-oven1.png,clock5-oven1.png,0.0,1.1578304,2.6128151,-1.0288296
alexnet_w3_mlp_simclrhn_probe3,1,769,NaN,clock,clock,NaN,clock6-bicycle1.png,clock6-bicycle1.png,1.0,2.215288,1.7490735,0.3296634
