subj,session,trial,rt,object_response,category,condition,imagename,filename,is_correct,targ_act,max_nontarg_act,decision_margin
bagnet33,1,1,NaN,bicycle,airplane,NaN,airplane1-bicycle2.png,airplane1-bicycle2.png,0.0,2.828986,5.9086,-2.177616
bagnet33,1,2,NaN,chair,airplane,NaN,airplane1-chair2.png,airplane1-chair2.png,0.0,0.1327799,9.576189,-6.677499
bagnet33,1,3,NaN,clock,airplane,NaN,airplane1-clock1.png,airplane1-clock1.png,0.0,-1.1503,14.5733385,-11.118292
bagnet33,1,4,NaN,elephant,airplane,NaN,airplane1-elephant1.png,airplane1-elephant1.png,0.0,-2.5730305,43.310287,-32.444405
bagnet33,1,5,NaN,airplane,airplane,NaN,airplane10-airplane1.png,airplane10-airplane1.png,1.0,13.834138,5.1151075,6.1652856
bagnet33,1,6,NaN,bear,airplane,NaN,airplane10-bear3.png,airplane10-bear3.png,0.0,1.3355539,5.980293,-3.2843266
bagnet33,1,7,NaN,truck,airplane,NaN,airplane10-boat3.png,airplane10-boat3.png,0.0,4.3155766,6.0811567,-1.2484537
bagnet33,1,8,NaN,car,airplane,NaN,airplane10-car3.png,airplane10-car3.png,0.0,6.986472,12.395592,-3.8248253
bagnet33,1,9,NaN,clock,airplane,NaN,airplane10-cat2.png,airplane10-cat2.png,0.0,3.8422947,9.957753,-4.324282
bagnet33,1,10,NaN,oven,airplane,NaN,airplane10-dog3.png,airplane10-dog3.png,0.0,0.5951501,3.1744928,-1.8238709
bagnet33,1,11,NaN,elephant,airplane,NaN,airplane10-elephant1.png,airplane10-elephant1.png,0.0,-2.0580366,47.760094,-35.226738
bagnet33,1,12,NaN,knife,airplane,NaN,airplane10-knife3.png,airplane10-knife3.png,0.0,0.013819069,7.687921,-5.4264097
bagnet33,1,13,NaN,oven,airplane,NaN,airplane10-oven2.png,airplane10-oven2.png,0.0,2.825898,6.1762886,-2.3690841
bagnet33,1,14,NaN,car,airplane,NaN,airplane10-truck1.png,airplane10-truck1.png,0.0,5.4401083,16.298395,-7.6779685
bagnet33,1,15,NaN,bear,airplane,NaN,airplane2-bear1.png,airplane2-bear1.png,0.0,1.1314579,9.070642,-5.6138515
bagnet33,1,16,NaN,bicycle,airplane,NaN,airplane2-bicycle1.png,airplane2-bicycle1.png,0.0,3.0167592,10.154573,-5.0471973
bagnet33,1,17,NaN,bird,airplane,NaN,airplane2-bird3.png,airplane2-bird3.png,0.0,1.3685755,4.555868,-2.2537563
bagnet33,1,18,NaN,bottle,airplane,NaN,airplane2-bottle1.png,airplane2-bottle1.png,0.0,-6.138879,18.290594,-17.274246
bagnet33,1,19,NaN,cat,airplane,NaN,airplane2-cat1.png,airplane2-cat1.png,0.0,1.8903865,6.8358765,-3.4969895
bagnet33,1,20,NaN,bird,airplane,NaN,airplane2-dog1.png,airplane2-dog1.png,0.0,-0.12745786,3.4020011,-2.4957044
bagnet33,1,21,NaN,airplane,airplane,NaN,airplane3-airplane2.png,airplane3-airplane2.png,1.0,10.936953,6.3661137,3.2320712
bagnet33,1,22,NaN,car,airplane,NaN,airplane3-car1.png,airplane3-car1.png,0.0,2.5384352,11.642985,-6.4378896
bagnet33,1,23,NaN,cat,airplane,NaN,airplane3-cat1.png,airplane3-cat1.png,0.0,0.12038332,7.6595416,-5.3309903
bagnet33,1,24,NaN,chair,airplane,NaN,airplane3-chair3.png,airplane3-chair3.png,0.0,3.8099608,5.5146494,-1.2053969
bagnet33,1,25,NaN,clock,airplane,NaN,airplane3-clock1.png,airplane3-clock1.png,0.0,0.19096678,18.402534,-12.877522
bagnet33,1,26,NaN,bear,airplane,NaN,airplane3-dog1.png,airplane3-dog1.png,0.0,0.23921102,4.3522434,-2.908353
bagnet33,1,27,NaN,elephant,airplane,NaN,airplane3-elephant1.png,airplane3-elephant1.png,0.0,-2.6616259,41.162796,-30.988546
bagnet33,1,28,NaN,keyboard,airplane,NaN,airplane3-keyboard2.png,airplane3-keyboard2.png,0.0,3.771327,5.5893326,-1.2855241
bagnet33,1,29,NaN,oven,airplane,NaN,airplane3-oven1.png,airplane3-oven1.png,0.0,3.48513,7.383104,-2.7562838
bagnet33,1,30,NaN,airplane,airplane,NaN,airplane4-airplane1.png,airplane4-airplane1.png,1.0,13.079971,4.8788643,5.7990584
bagnet33,1,31,NaN,bear,airplane,NaN,airplane4-bear3.png,airplane4-bear3.png,0.0,0.5078321,5.673761,-3.6528633
bagnet33,1,32,NaN,bicycle,airplane,NaN,airplane4-bicycle2.png,airplane4-bicycle2.png,0.0,1.0576836,7.2793975,-4.3994164
bagnet33,1,33,NaN,bird,airplane,NaN,airplane4-bird3.png,airplane4-bird3.png,0.0,1.920537,4.8067274,-2.040845
bagnet33,1,34,NaN,truck,airplane,NaN,airplane4-boat3.png,airplane4-boat3.png,0.0,3.1974468,5.6177263,-1.7113961
bagnet33,1,35,NaN,bottle,airplane,NaN,airplane4-bottle1.png,airplane4-bottle1.png,0.0,-5.174413,17.504911,-16.036705
bagnet33,1,36,NaN,car,airplane,NaN,airplane4-car1.png,airplane4-car1.png,0.0,3.86525,10.044394,-4.369314
bagnet33,1,37,NaN,cat,airplane,NaN,airplane4-cat3.png,airplane4-cat3.png,0.0,-0.6443381,3.260378,-2.7610512
bagnet33,1,38,NaN,cat,airplane,NaN,airplane4-dog2.png,airplane4-dog2.png,0.0,1.6027921,2.8657954,-0.89307815
bagnet33,1,39,NaN,elephant,airplane,NaN,airplane4-elephant1.png,airplane4-elephant1.png,0.0,-2.0243187,46.724026,-34.470287
bagnet33,1,40,NaN,keyboard,airplane,NaN,airplane4-keyboard3.png,airplane4-keyboard3.png,0.0,1.5676107,3.32995,-1.2461622
bagnet33,1,41,NaN,knife,airplane,NaN,airplane4-knife1.png,airplane4-knife1.png,0.0,2.0260043,6.2952213,-3.0187924
bagnet33,1,42,NaN,car,airplane,NaN,airplane4-truck2.png,airplane4-truck2.png,0.0,1.2772514,10.251975,-6.3460884
bagnet33,1,43,NaN,bear,airplane,NaN,airplane5-bear2.png,airplane5-bear2.png,0.0,-0.2724787,9.030159,-6.5779586
bagnet33,1,44,NaN,bicycle,airplane,NaN,airplane5-bicycle1.png,airplane5-bicycle1.png,0.0,3.9358025,11.758487,-5.531473
bagnet33,1,45,NaN,bird,airplane,NaN,airplane5-bird2.png,airplane5-bird2.png,0.0,-0.82823133,6.673141,-5.304271
bagnet33,1,46,NaN,boat,airplane,NaN,airplane5-boat3.png,airplane5-boat3.png,0.0,4.341302,4.9171777,-0.40720567
bagnet33,1,47,NaN,bottle,airplane,NaN,airplane5-bottle3.png,airplane5-bottle3.png,0.0,1.0399704,20.78392,-13.9610815
bagnet33,1,48,NaN,chair,airplane,NaN,airplane5-chair3.png,airplane5-chair3.png,0.0,3.0631948,9.708758,-4.6991234
bagnet33,1,49,NaN,oven,airplane,NaN,airplane5-dog3.png,airplane5-dog3.png,0.0,0.3850274,3.61311,-2.2825992
bagnet33,1,50,NaN,knife,airplane,NaN,airplane5-knife1.png,airplane5-knife1.png,0.0,1.4155967,11.919054,-7.427066
bagnet33,1,51,NaN,oven,airplane,NaN,airplane5-oven3.png,airplane5-oven3.png,0.0,0.5575501,8.826313,-5.846898
bagnet33,1,52,NaN,bear,airplane,NaN,airplane6-bear3.png,airplane6-bear3.png,0.0,-0.10371953,6.4796047,-4.655113
bagnet33,1,53,NaN,bottle,airplane,NaN,airplane6-bottle2.png,airplane6-bottle2.png,0.0,-4.4330606,17.188326,-15.28863
bagnet33,1,54,NaN,chair,airplane,NaN,airplane6-chair3.png,airplane6-chair3.png,0.0,1.8560431,6.114956,-3.0115063
bagnet33,1,55,NaN,bottle,airplane,NaN,airplane6-keyboard3.png,airplane6-keyboard3.png,0.0,1.6100429,3.4798589,-1.3221595
bagnet33,1,56,NaN,knife,airplane,NaN,airplane6-knife1.png,airplane6-knife1.png,0.0,3.0925913,8.178631,-3.596373
bagnet33,1,57,NaN,airplane,airplane,NaN,airplane7-airplane3.png,airplane7-airplane3.png,1.0,14.810768,4.701311,7.1484656
bagnet33,1,58,NaN,knife,airplane,NaN,airplane7-bird3.png,airplane7-bird3.png,0.0,0.22684544,6.1516395,-4.189462
bagnet33,1,59,NaN,boat,airplane,NaN,airplane7-boat2.png,airplane7-boat2.png,0.0,4.3820553,8.924033,-3.2116635
bagnet33,1,60,NaN,bottle,airplane,NaN,airplane7-bottle3.png,airplane7-bottle3.png,0.0,0.44530213,16.006865,-11.003687
bagnet33,1,61,NaN,car,airplane,NaN,airplane7-car1.png,airplane7-car1.png,0.0,5.4703245,14.5529785,-6.422406
bagnet33,1,62,NaN,cat,airplane,NaN,airplane7-cat3.png,airplane7-cat3.png,0.0,-0.8147521,3.0125797,-2.7063322
bagnet33,1,63,NaN,clock,airplane,NaN,airplane7-clock3.png,airplane7-clock3.png,0.0,2.463979,14.571385,-8.56123
bagnet33,1,64,NaN,keyboard,airplane,NaN,airplane7-keyboard1.png,airplane7-keyboard1.png,0.0,0.756174,8.055494,-5.161399
bagnet33,1,65,NaN,car,airplane,NaN,airplane7-truck1.png,airplane7-truck1.png,0.0,5.7918406,16.507011,-7.5767703
bagnet33,1,66,NaN,knife,airplane,NaN,airplane8-bicycle3.png,airplane8-bicycle3.png,0.0,-0.72890353,5.27497,-4.24538
bagnet33,1,67,NaN,bird,airplane,NaN,airplane8-bird1.png,airplane8-bird1.png,0.0,1.3779211,6.0555944,-3.3076146
bagnet33,1,68,NaN,chair,airplane,NaN,airplane8-chair1.png,airplane8-chair1.png,0.0,0.9436937,7.974877,-4.9717975
bagnet33,1,69,NaN,clock,airplane,NaN,airplane8-clock2.png,airplane8-clock2.png,0.0,6.1313334,9.519532,-2.3958185
bagnet33,1,70,NaN,elephant,airplane,NaN,airplane8-elephant3.png,airplane8-elephant3.png,0.0,-2.1008298,60.55083,-44.301414
bagnet33,1,71,NaN,oven,airplane,NaN,airplane8-oven2.png,airplane8-oven2.png,0.0,3.1995406,6.114304,-2.061049
bagnet33,1,72,NaN,truck,airplane,NaN,airplane8-truck3.png,airplane8-truck3.png,0.0,5.916751,7.2590613,-0.9491568
bagnet33,1,73,NaN,airplane,airplane,NaN,airplane9-airplane2.png,airplane9-airplane2.png,1.0,15.040693,7.8759823,5.066216
bagnet33,1,74,NaN,boat,airplane,NaN,airplane9-boat1.png,airplane9-boat1.png,0.0,9.986752,12.8538265,-2.0273283
bagnet33,1,75,NaN,car,airplane,NaN,airplane9-car2.png,airplane9-car2.png,0.0,7.1859455,12.0918665,-3.46901
bagnet33,1,76,NaN,clock,airplane,NaN,airplane9-clock1.png,airplane9-clock1.png,0.0,0.86512506,12.059062,-7.915309
bagnet33,1,77,NaN,keyboard,airplane,NaN,airplane9-keyboard2.png,airplane9-keyboard2.png,0.0,2.1494584,5.560681,-2.4120986
bagnet33,1,78,NaN,knife,airplane,NaN,airplane9-knife3.png,airplane9-knife3.png,0.0,-0.40572476,10.807912,-7.9292383
bagnet33,1,79,NaN,oven,airplane,NaN,airplane9-oven2.png,airplane9-oven2.png,0.0,4.635762,9.712902,-3.59008
bagnet33,1,80,NaN,car,airplane,NaN,airplane9-truck1.png,airplane9-truck1.png,0.0,6.5421987,17.907019,-8.036141
bagnet33,1,81,NaN,knife,bear,NaN,bear1-airplane3.png,bear1-airplane3.png,0.0,-5.321314,5.49669,-7.6494837
bagnet33,1,82,NaN,elephant,bear,NaN,bear1-bear3.png,bear1-bear3.png,0.0,10.707231,10.96352,-0.18122403
bagnet33,1,83,NaN,knife,bear,NaN,bear1-bicycle3.png,bear1-bicycle3.png,0.0,-4.5071487,6.1818013,-7.558229
bagnet33,1,84,NaN,elephant,bear,NaN,bear1-bird2.png,bear1-bird2.png,0.0,0.3443818,6.2130156,-4.1497507
bagnet33,1,85,NaN,chair,bear,NaN,bear1-chair2.png,bear1-chair2.png,0.0,-3.153562,8.55508,-8.279261
bagnet33,1,86,NaN,clock,bear,NaN,bear1-clock2.png,bear1-clock2.png,0.0,-8.728291,7.216988,-11.275015
bagnet33,1,87,NaN,elephant,bear,NaN,bear1-elephant1.png,bear1-elephant1.png,0.0,8.610757,59.491013,-35.977776
bagnet33,1,88,NaN,bear,bear,NaN,bear10-bear2.png,bear10-bear2.png,1.0,11.332371,6.3709564,3.5082498
bagnet33,1,89,NaN,bottle,bear,NaN,bear10-bottle1.png,bear10-bottle1.png,0.0,-6.2872777,16.183428,-15.889188
bagnet33,1,90,NaN,car,bear,NaN,bear10-car2.png,bear10-car2.png,0.0,-7.060806,11.20218,-12.913881
bagnet33,1,91,NaN,clock,bear,NaN,bear10-cat2.png,bear10-cat2.png,0.0,3.7333117,11.7800255,-5.689886
bagnet33,1,92,NaN,chair,bear,NaN,bear10-chair2.png,bear10-chair2.png,0.0,-2.8382106,8.095455,-7.73127
bagnet33,1,93,NaN,clock,bear,NaN,bear10-clock1.png,bear10-clock1.png,0.0,-6.776452,12.073766,-13.329117
bagnet33,1,94,NaN,elephant,bear,NaN,bear10-elephant1.png,bear10-elephant1.png,0.0,7.821541,55.63037,-33.80595
bagnet33,1,95,NaN,bottle,bear,NaN,bear10-keyboard3.png,bear10-keyboard3.png,0.0,-1.6884971,5.385663,-5.002187
bagnet33,1,96,NaN,knife,bear,NaN,bear10-knife2.png,bear10-knife2.png,0.0,-3.6136665,10.209661,-9.774569
bagnet33,1,97,NaN,oven,bear,NaN,bear10-oven1.png,bear10-oven1.png,0.0,-4.4014373,12.342358,-11.839651
bagnet33,1,98,NaN,car,bear,NaN,bear10-truck1.png,bear10-truck1.png,0.0,-4.6918077,16.42936,-14.93492
bagnet33,1,99,NaN,airplane,bear,NaN,bear2-airplane1.png,bear2-airplane1.png,0.0,-5.5362387,12.744274,-12.926275
bagnet33,1,100,NaN,bird,bear,NaN,bear2-bird3.png,bear2-bird3.png,0.0,-1.590255,5.5995708,-5.083975
bagnet33,1,101,NaN,bicycle,bear,NaN,bear2-car2.png,bear2-car2.png,0.0,-6.709144,11.947239,-13.192056
bagnet33,1,102,NaN,clock,bear,NaN,bear2-cat2.png,bear2-cat2.png,0.0,5.617833,9.143014,-2.4926794
bagnet33,1,103,NaN,bear,bear,NaN,bear2-dog1.png,bear2-dog1.png,1.0,3.865923,3.2948248,0.40382734
bagnet33,1,104,NaN,elephant,bear,NaN,bear2-elephant1.png,bear2-elephant1.png,0.0,8.749471,57.485893,-34.461857
bagnet33,1,105,NaN,keyboard,bear,NaN,bear2-keyboard2.png,bear2-keyboard2.png,0.0,-5.436983,10.042448,-10.945611
bagnet33,1,106,NaN,knife,bear,NaN,bear2-knife2.png,bear2-knife2.png,0.0,-3.1249232,10.753624,-9.813616
bagnet33,1,107,NaN,oven,bear,NaN,bear2-oven1.png,bear2-oven1.png,0.0,-6.0179887,16.553165,-15.9602165
bagnet33,1,108,NaN,airplane,bear,NaN,bear3-airplane1.png,bear3-airplane1.png,0.0,-5.0594983,11.982092,-12.050224
bagnet33,1,109,NaN,bicycle,bear,NaN,bear3-bicycle2.png,bear3-bicycle2.png,0.0,-5.3090897,10.082834,-10.883734
bagnet33,1,110,NaN,oven,bear,NaN,bear3-bird3.png,bear3-bird3.png,0.0,-3.5731182,6.5794573,-7.178955
bagnet33,1,111,NaN,car,bear,NaN,bear3-car2.png,bear3-car2.png,0.0,-6.3999925,12.82309,-13.592772
bagnet33,1,112,NaN,cat,bear,NaN,bear3-cat1.png,bear3-cat1.png,0.0,4.973203,6.0849366,-0.7861143
bagnet33,1,113,NaN,chair,bear,NaN,bear3-chair2.png,bear3-chair2.png,0.0,-3.91629,11.137082,-10.644341
bagnet33,1,114,NaN,oven,bear,NaN,bear3-dog3.png,bear3-dog3.png,0.0,-1.3911897,4.7515297,-4.3435583
bagnet33,1,115,NaN,keyboard,bear,NaN,bear3-keyboard2.png,bear3-keyboard2.png,0.0,-5.5365987,12.938925,-13.064168
bagnet33,1,116,NaN,truck,bear,NaN,bear3-truck3.png,bear3-truck3.png,0.0,-5.8383603,11.005782,-11.910608
bagnet33,1,117,NaN,boat,bear,NaN,bear4-boat2.png,bear4-boat2.png,0.0,-4.677599,10.810603,-10.951813
bagnet33,1,118,NaN,car,bear,NaN,bear4-car3.png,bear4-car3.png,0.0,-4.0081244,10.848983,-10.505562
bagnet33,1,119,NaN,cat,bear,NaN,bear4-cat3.png,bear4-cat3.png,0.0,1.5682905,3.522967,-1.3821651
bagnet33,1,120,NaN,clock,bear,NaN,bear4-clock3.png,bear4-clock3.png,0.0,-7.0371146,20.196037,-19.256746
bagnet33,1,121,NaN,elephant,bear,NaN,bear4-elephant2.png,bear4-elephant2.png,0.0,6.2736635,34.63824,-20.056786
bagnet33,1,122,NaN,bottle,bear,NaN,bear4-keyboard3.png,bear4-keyboard3.png,0.0,-2.7657583,3.9862657,-4.7744017
bagnet33,1,123,NaN,knife,bear,NaN,bear4-knife1.png,bear4-knife1.png,0.0,-4.56487,9.827581,-10.177
bagnet33,1,124,NaN,oven,bear,NaN,bear4-oven2.png,bear4-oven2.png,0.0,-1.2019615,8.972955,-7.194752
bagnet33,1,125,NaN,truck,bear,NaN,bear4-truck3.png,bear4-truck3.png,0.0,-4.91582,6.504631,-8.075479
bagnet33,1,126,NaN,airplane,bear,NaN,bear5-airplane3.png,bear5-airplane3.png,0.0,-5.3262906,9.200551,-10.272029
bagnet33,1,127,NaN,knife,bear,NaN,bear5-bicycle3.png,bear5-bicycle3.png,0.0,-4.6428356,5.490318,-7.165222
bagnet33,1,128,NaN,bird,bear,NaN,bear5-bird1.png,bear5-bird1.png,0.0,0.9850651,9.692619,-6.1571703
bagnet33,1,129,NaN,boat,bear,NaN,bear5-boat2.png,bear5-boat2.png,0.0,-3.8108063,11.193702,-10.60979
bagnet33,1,130,NaN,bottle,bear,NaN,bear5-bottle1.png,bear5-bottle1.png,0.0,-6.8679323,15.845308,-16.060688
bagnet33,1,131,NaN,chair,bear,NaN,bear5-chair1.png,bear5-chair1.png,0.0,-6.5244293,10.523682,-12.054835
bagnet33,1,132,NaN,oven,bear,NaN,bear5-oven3.png,bear5-oven3.png,0.0,-3.6557293,10.21469,-9.807868
bagnet33,1,133,NaN,bear,bear,NaN,bear6-bear1.png,bear6-bear1.png,1.0,11.597661,8.737473,2.0224588
bagnet33,1,134,NaN,elephant,bear,NaN,bear6-bird2.png,bear6-bird2.png,0.0,0.6373218,7.6589055,-4.965009
bagnet33,1,135,NaN,truck,bear,NaN,bear6-boat3.png,bear6-boat3.png,0.0,-3.8628154,5.994222,-6.9699783
bagnet33,1,136,NaN,bottle,bear,NaN,bear6-bottle3.png,bear6-bottle3.png,0.0,-9.274216,18.20264,-19.429071
bagnet33,1,137,NaN,car,bear,NaN,bear6-car2.png,bear6-car2.png,0.0,-6.0196385,10.988591,-12.026635
bagnet33,1,138,NaN,cat,bear,NaN,bear6-cat3.png,bear6-cat3.png,0.0,1.9839786,5.1965327,-2.2716188
bagnet33,1,139,NaN,chair,bear,NaN,bear6-chair1.png,bear6-chair1.png,0.0,-5.033039,9.457016,-10.2460165
bagnet33,1,140,NaN,clock,bear,NaN,bear6-clock1.png,bear6-clock1.png,0.0,-6.516256,14.19323,-14.643818
bagnet33,1,141,NaN,bear,bear,NaN,bear7-bear2.png,bear7-bear2.png,1.0,14.506676,7.6466703,4.850756
bagnet33,1,142,NaN,bicycle,bear,NaN,bear7-bicycle2.png,bear7-bicycle2.png,0.0,-6.102961,11.153477,-12.202144
bagnet33,1,143,NaN,clock,bear,NaN,bear7-clock1.png,bear7-clock1.png,0.0,-6.9514894,13.9578705,-14.78515
bagnet33,1,144,NaN,oven,bear,NaN,bear7-dog3.png,bear7-dog3.png,0.0,2.561636,5.7497396,-2.2543297
bagnet33,1,145,NaN,oven,bear,NaN,bear7-oven3.png,bear7-oven3.png,0.0,-4.004898,12.703835,-11.814858
bagnet33,1,146,NaN,car,bear,NaN,bear7-truck1.png,bear7-truck1.png,0.0,-3.3371902,13.300624,-11.764711
bagnet33,1,147,NaN,airplane,bear,NaN,bear8-airplane1.png,bear8-airplane1.png,0.0,-6.629306,14.644516,-15.042865
bagnet33,1,148,NaN,bear,bear,NaN,bear8-bear1.png,bear8-bear1.png,1.0,17.49533,11.535934,4.2139297
bagnet33,1,149,NaN,knife,bear,NaN,bear8-bicycle3.png,bear8-bicycle3.png,0.0,-5.3743525,6.0570507,-8.083222
bagnet33,1,150,NaN,boat,bear,NaN,bear8-boat2.png,bear8-boat2.png,0.0,-3.6245337,11.412516,-10.6328
bagnet33,1,151,NaN,bottle,bear,NaN,bear8-bottle1.png,bear8-bottle1.png,0.0,-7.5519314,16.203821,-16.797853
bagnet33,1,152,NaN,cat,bear,NaN,bear8-dog1.png,bear8-dog1.png,0.0,3.4256203,3.7014759,-0.19505933
bagnet33,1,153,NaN,elephant,bear,NaN,bear8-elephant2.png,bear8-elephant2.png,0.0,6.0028634,40.191067,-24.17471
bagnet33,1,154,NaN,knife,bear,NaN,bear8-knife3.png,bear8-knife3.png,0.0,-3.5556026,13.16642,-11.824256
bagnet33,1,155,NaN,truck,bear,NaN,bear8-truck3.png,bear8-truck3.png,0.0,-6.5623918,9.576784,-11.412121
bagnet33,1,156,NaN,boat,bear,NaN,bear9-boat2.png,bear9-boat2.png,0.0,-3.6415696,11.397889,-10.634503
bagnet33,1,157,NaN,bottle,bear,NaN,bear9-bottle2.png,bear9-bottle2.png,0.0,-7.6082897,18.242895,-18.279549
bagnet33,1,158,NaN,bear,bear,NaN,bear9-dog1.png,bear9-dog1.png,1.0,5.335517,4.595321,0.52339745
bagnet33,1,159,NaN,keyboard,bear,NaN,bear9-keyboard3.png,bear9-keyboard3.png,0.0,-3.6992986,9.9272175,-9.635403
bagnet33,1,160,NaN,knife,bear,NaN,bear9-knife2.png,bear9-knife2.png,0.0,-3.416227,11.207706,-10.340683
bagnet33,1,161,NaN,airplane,bicycle,NaN,bicycle1-airplane2.png,bicycle1-airplane2.png,0.0,6.617972,11.212193,-3.2486045
bagnet33,1,162,NaN,cat,bicycle,NaN,bicycle1-bear1.png,bicycle1-bear1.png,0.0,-3.3167262,7.8474507,-7.894265
bagnet33,1,163,NaN,bicycle,bicycle,NaN,bicycle1-bicycle3.png,bicycle1-bicycle3.png,1.0,7.877572,3.6632144,2.9800007
bagnet33,1,164,NaN,bird,bicycle,NaN,bicycle1-bird1.png,bicycle1-bird1.png,0.0,0.023661315,4.812829,-3.3864532
bagnet33,1,165,NaN,truck,bicycle,NaN,bicycle1-boat3.png,bicycle1-boat3.png,0.0,2.0671008,7.879902,-4.1102715
bagnet33,1,166,NaN,bottle,bicycle,NaN,bicycle1-bottle3.png,bicycle1-bottle3.png,0.0,10.455654,23.356062,-9.121966
bagnet33,1,167,NaN,chair,bicycle,NaN,bicycle1-chair1.png,bicycle1-chair1.png,0.0,7.7694736,14.240961,-4.5760326
bagnet33,1,168,NaN,clock,bicycle,NaN,bicycle1-clock3.png,bicycle1-clock3.png,0.0,7.7645817,25.13832,-12.2850895
bagnet33,1,169,NaN,oven,bicycle,NaN,bicycle1-dog3.png,bicycle1-dog3.png,0.0,-2.955813,3.6119244,-4.644092
bagnet33,1,170,NaN,elephant,bicycle,NaN,bicycle1-elephant2.png,bicycle1-elephant2.png,0.0,1.0199621,26.392338,-17.940979
bagnet33,1,171,NaN,knife,bicycle,NaN,bicycle1-knife3.png,bicycle1-knife3.png,0.0,-0.910921,9.276953,-7.2039146
bagnet33,1,172,NaN,oven,bicycle,NaN,bicycle1-oven1.png,bicycle1-oven1.png,0.0,1.0820473,11.088253,-7.075456
bagnet33,1,173,NaN,car,bicycle,NaN,bicycle1-truck1.png,bicycle1-truck1.png,0.0,6.060584,22.240576,-11.440983
bagnet33,1,174,NaN,airplane,bicycle,NaN,bicycle10-airplane2.png,bicycle10-airplane2.png,0.0,8.48438,10.335917,-1.3092349
bagnet33,1,175,NaN,truck,bicycle,NaN,bicycle10-boat3.png,bicycle10-boat3.png,0.0,0.7010665,8.753126,-5.6936655
bagnet33,1,176,NaN,clock,bicycle,NaN,bicycle10-clock2.png,bicycle10-clock2.png,0.0,5.1618214,8.887093,-2.6341646
bagnet33,1,177,NaN,dog,bicycle,NaN,bicycle10-dog3.png,bicycle10-dog3.png,0.0,-2.635553,1.8062977,-3.1408627
bagnet33,1,178,NaN,elephant,bicycle,NaN,bicycle10-elephant2.png,bicycle10-elephant2.png,0.0,0.510809,24.220966,-16.765614
bagnet33,1,179,NaN,bicycle,bicycle,NaN,bicycle2-bicycle1.png,bicycle2-bicycle1.png,1.0,19.661667,8.228859,8.084216
bagnet33,1,180,NaN,knife,bicycle,NaN,bicycle2-bird3.png,bicycle2-bird3.png,0.0,-0.28102732,3.6502047,-2.779801
bagnet33,1,181,NaN,bottle,bicycle,NaN,bicycle2-bottle1.png,bicycle2-bottle1.png,0.0,1.2450527,15.994803,-10.429649
bagnet33,1,182,NaN,car,bicycle,NaN,bicycle2-car2.png,bicycle2-car2.png,0.0,11.883707,12.33263,-0.31743658
bagnet33,1,183,NaN,cat,bicycle,NaN,bicycle2-dog1.png,bicycle2-dog1.png,0.0,-3.688205,2.9008892,-4.659193
bagnet33,1,184,NaN,car,bicycle,NaN,bicycle2-keyboard2.png,bicycle2-keyboard2.png,0.0,3.8839269,6.3880706,-1.770697
bagnet33,1,185,NaN,knife,bicycle,NaN,bicycle2-knife2.png,bicycle2-knife2.png,0.0,2.0422788,8.374084,-4.477263
bagnet33,1,186,NaN,bird,bicycle,NaN,bicycle3-bird1.png,bicycle3-bird1.png,0.0,-0.83123416,7.5681176,-5.939239
bagnet33,1,187,NaN,elephant,bicycle,NaN,bicycle3-elephant2.png,bicycle3-elephant2.png,0.0,-0.66620004,29.670788,-21.45149
bagnet33,1,188,NaN,keyboard,bicycle,NaN,bicycle3-keyboard1.png,bicycle3-keyboard1.png,0.0,2.4034235,6.8825383,-3.1672122
bagnet33,1,189,NaN,oven,bicycle,NaN,bicycle3-oven3.png,bicycle3-oven3.png,0.0,-1.3868747,8.339453,-6.8775525
bagnet33,1,190,NaN,car,bicycle,NaN,bicycle3-truck3.png,bicycle3-truck3.png,0.0,1.9236195,9.875034,-5.6224995
bagnet33,1,191,NaN,airplane,bicycle,NaN,bicycle4-airplane1.png,bicycle4-airplane1.png,0.0,2.7765794,13.886887,-7.856174
bagnet33,1,192,NaN,bicycle,bicycle,NaN,bicycle4-bicycle3.png,bicycle4-bicycle3.png,1.0,5.527274,5.17891,0.2463308
bagnet33,1,193,NaN,boat,bicycle,NaN,bicycle4-boat1.png,bicycle4-boat1.png,0.0,8.230203,12.8125305,-3.240195
bagnet33,1,194,NaN,bottle,bicycle,NaN,bicycle4-bottle1.png,bicycle4-bottle1.png,0.0,0.85054946,15.694329,-10.496138
bagnet33,1,195,NaN,car,bicycle,NaN,bicycle4-car2.png,bicycle4-car2.png,0.0,13.168461,13.54531,-0.2664726
bagnet33,1,196,NaN,cat,bicycle,NaN,bicycle4-cat1.png,bicycle4-cat1.png,0.0,-2.2433445,5.9504495,-5.7938876
bagnet33,1,197,NaN,chair,bicycle,NaN,bicycle4-chair2.png,bicycle4-chair2.png,0.0,-1.8553095,10.585984,-8.797323
bagnet33,1,198,NaN,clock,bicycle,NaN,bicycle4-clock3.png,bicycle4-clock3.png,0.0,4.505677,20.950464,-11.62822
bagnet33,1,199,NaN,bottle,bicycle,NaN,bicycle4-keyboard3.png,bicycle4-keyboard3.png,0.0,-0.17960149,5.332502,-3.897646
bagnet33,1,200,NaN,knife,bicycle,NaN,bicycle4-knife3.png,bicycle4-knife3.png,0.0,-0.62106574,11.226883,-8.377766
bagnet33,1,201,NaN,oven,bicycle,NaN,bicycle4-oven3.png,bicycle4-oven3.png,0.0,-0.7595284,9.971242,-7.5878005
bagnet33,1,202,NaN,truck,bicycle,NaN,bicycle4-truck3.png,bicycle4-truck3.png,0.0,2.9761286,9.245459,-4.433086
bagnet33,1,203,NaN,elephant,bicycle,NaN,bicycle5-bear1.png,bicycle5-bear1.png,0.0,-4.071932,6.936102,-7.7838554
bagnet33,1,204,NaN,bottle,bicycle,NaN,bicycle5-bottle3.png,bicycle5-bottle3.png,0.0,10.047892,18.806717,-6.1934247
bagnet33,1,205,NaN,car,bicycle,NaN,bicycle5-car3.png,bicycle5-car3.png,0.0,10.132534,12.752609,-1.8526729
bagnet33,1,206,NaN,cat,bicycle,NaN,bicycle5-cat1.png,bicycle5-cat1.png,0.0,-3.054635,4.7380404,-5.510254
bagnet33,1,207,NaN,chair,bicycle,NaN,bicycle5-chair2.png,bicycle5-chair2.png,0.0,-0.7515168,10.267566,-7.7916684
bagnet33,1,208,NaN,cat,bicycle,NaN,bicycle5-dog2.png,bicycle5-dog2.png,0.0,-1.5153073,1.723499,-2.2901819
bagnet33,1,209,NaN,elephant,bicycle,NaN,bicycle5-elephant1.png,bicycle5-elephant1.png,0.0,-0.9955269,44.59147,-32.234875
bagnet33,1,210,NaN,bottle,bicycle,NaN,bicycle5-keyboard3.png,bicycle5-keyboard3.png,0.0,-1.4107721,6.3558526,-5.4918327
bagnet33,1,211,NaN,oven,bicycle,NaN,bicycle5-oven3.png,bicycle5-oven3.png,0.0,-0.8209933,9.683651,-7.4279056
bagnet33,1,212,NaN,airplane,bicycle,NaN,bicycle6-airplane2.png,bicycle6-airplane2.png,0.0,6.6419034,14.479448,-5.541981
bagnet33,1,213,NaN,bicycle,bicycle,NaN,bicycle6-bicycle3.png,bicycle6-bicycle3.png,1.0,5.380931,5.337609,0.030633342
bagnet33,1,214,NaN,boat,bicycle,NaN,bicycle6-boat2.png,bicycle6-boat2.png,0.0,3.5282588,10.606275,-5.004913
bagnet33,1,215,NaN,bicycle,bicycle,NaN,bicycle6-car2.png,bicycle6-car2.png,1.0,12.731182,10.63917,1.4792762
bagnet33,1,216,NaN,cat,bicycle,NaN,bicycle6-cat1.png,bicycle6-cat1.png,0.0,-2.0936007,5.7180614,-5.5236793
bagnet33,1,217,NaN,cat,bicycle,NaN,bicycle6-dog2.png,bicycle6-dog2.png,0.0,-0.8010851,2.6443753,-2.4363084
bagnet33,1,218,NaN,elephant,bicycle,NaN,bicycle7-bear2.png,bicycle7-bear2.png,0.0,-0.35339475,9.602201,-7.0396695
bagnet33,1,219,NaN,bicycle,bicycle,NaN,bicycle7-bicycle2.png,bicycle7-bicycle2.png,1.0,22.488483,7.283493,10.751552
bagnet33,1,220,NaN,cat,bicycle,NaN,bicycle7-cat1.png,bicycle7-cat1.png,0.0,-1.5952293,5.6292744,-5.1084957
bagnet33,1,221,NaN,clock,bicycle,NaN,bicycle7-clock3.png,bicycle7-clock3.png,0.0,4.203015,26.488846,-15.758463
bagnet33,1,222,NaN,elephant,bicycle,NaN,bicycle7-elephant2.png,bicycle7-elephant2.png,0.0,0.8468939,25.762123,-17.61773
bagnet33,1,223,NaN,knife,bicycle,NaN,bicycle7-knife2.png,bicycle7-knife2.png,0.0,3.8410368,9.291027,-3.8537252
bagnet33,1,224,NaN,oven,bicycle,NaN,bicycle7-oven1.png,bicycle7-oven1.png,0.0,0.62546754,8.759999,-5.7519827
bagnet33,1,225,NaN,truck,bicycle,NaN,bicycle7-truck3.png,bicycle7-truck3.png,0.0,0.50085247,8.212938,-5.453268
bagnet33,1,226,NaN,elephant,bicycle,NaN,bicycle8-bear2.png,bicycle8-bear2.png,0.0,1.5689703,7.867567,-4.4537807
bagnet33,1,227,NaN,bicycle,bicycle,NaN,bicycle8-bird2.png,bicycle8-bird2.png,1.0,7.579622,2.0597954,3.9031067
bagnet33,1,228,NaN,boat,bicycle,NaN,bicycle8-boat1.png,bicycle8-boat1.png,0.0,7.68375,11.588699,-2.7612162
bagnet33,1,229,NaN,chair,bicycle,NaN,bicycle8-chair2.png,bicycle8-chair2.png,0.0,0.02026242,11.806281,-8.333974
bagnet33,1,230,NaN,clock,bicycle,NaN,bicycle8-clock3.png,bicycle8-clock3.png,0.0,2.6079617,30.044596,-19.40063
bagnet33,1,231,NaN,car,bicycle,NaN,bicycle8-truck1.png,bicycle8-truck1.png,0.0,7.417668,19.543741,-8.5744295
bagnet33,1,232,NaN,airplane,bicycle,NaN,bicycle9-airplane2.png,bicycle9-airplane2.png,0.0,8.700275,13.424446,-3.3404932
bagnet33,1,233,NaN,bear,bicycle,NaN,bicycle9-bear1.png,bicycle9-bear1.png,0.0,-3.5850203,7.718718,-7.9929504
bagnet33,1,234,NaN,knife,bicycle,NaN,bicycle9-bird3.png,bicycle9-bird3.png,0.0,0.77655524,4.503495,-2.6353445
bagnet33,1,235,NaN,bottle,bicycle,NaN,bicycle9-bottle1.png,bicycle9-bottle1.png,0.0,0.69062316,16.310266,-11.044756
bagnet33,1,236,NaN,car,bicycle,NaN,bicycle9-car1.png,bicycle9-car1.png,0.0,7.6783476,12.442643,-3.3688657
bagnet33,1,237,NaN,bottle,bicycle,NaN,bicycle9-cat3.png,bicycle9-cat3.png,0.0,-2.6975563,2.1317427,-3.4148302
bagnet33,1,238,NaN,chair,bicycle,NaN,bicycle9-chair1.png,bicycle9-chair1.png,0.0,4.157316,12.438898,-5.8559628
bagnet33,1,239,NaN,bottle,bicycle,NaN,bicycle9-keyboard3.png,bicycle9-keyboard3.png,0.0,-0.2646777,4.704764,-3.5139258
bagnet33,1,240,NaN,knife,bicycle,NaN,bicycle9-knife3.png,bicycle9-knife3.png,0.0,0.045541137,8.082836,-5.683226
bagnet33,1,241,NaN,airplane,bird,NaN,bird1-airplane2.png,bird1-airplane2.png,0.0,-0.8641958,16.429342,-12.228377
bagnet33,1,242,NaN,bear,bird,NaN,bird1-bear1.png,bird1-bear1.png,0.0,0.4598972,8.3029785,-5.545896
bagnet33,1,243,NaN,bicycle,bird,NaN,bird1-bicycle2.png,bird1-bicycle2.png,0.0,-0.027106125,8.040624,-5.7047467
bagnet33,1,244,NaN,boat,bird,NaN,bird1-boat1.png,bird1-boat1.png,0.0,-3.2742612,10.179911,-9.513536
bagnet33,1,245,NaN,chair,bird,NaN,bird1-chair2.png,bird1-chair2.png,0.0,-2.0664697,8.059785,-7.1603436
bagnet33,1,246,NaN,clock,bird,NaN,bird1-clock3.png,bird1-clock3.png,0.0,-3.6188335,24.881887,-20.153053
bagnet33,1,247,NaN,elephant,bird,NaN,bird1-elephant2.png,bird1-elephant2.png,0.0,-4.8834424,35.148544,-28.306889
bagnet33,1,248,NaN,bottle,bird,NaN,bird1-keyboard3.png,bird1-keyboard3.png,0.0,-1.7243537,4.0294847,-4.0685782
bagnet33,1,249,NaN,knife,bird,NaN,bird1-knife3.png,bird1-knife3.png,0.0,-0.079102226,8.43748,-6.0221334
bagnet33,1,250,NaN,oven,bird,NaN,bird1-oven1.png,bird1-oven1.png,0.0,-0.9748454,9.849231,-7.6537776
bagnet33,1,251,NaN,car,bird,NaN,bird1-truck1.png,bird1-truck1.png,0.0,-3.9498546,12.879704,-11.900295
bagnet33,1,252,NaN,bear,bird,NaN,bird10-bear2.png,bird10-bear2.png,0.0,2.08948,8.614981,-4.614226
bagnet33,1,253,NaN,bicycle,bird,NaN,bird10-bicycle1.png,bird10-bicycle1.png,0.0,-3.4733799,11.094559,-10.301088
bagnet33,1,254,NaN,bird,bird,NaN,bird10-bird2.png,bird10-bird2.png,1.0,5.6312537,1.7757839,2.7262287
bagnet33,1,255,NaN,cat,bird,NaN,bird10-cat1.png,bird10-cat1.png,0.0,-1.8816588,5.456137,-5.188606
bagnet33,1,256,NaN,chair,bird,NaN,bird10-chair1.png,bird10-chair1.png,0.0,-4.5844703,11.714273,-11.524953
bagnet33,1,257,NaN,clock,bird,NaN,bird10-clock1.png,bird10-clock1.png,0.0,-4.2921333,19.288437,-16.67398
bagnet33,1,258,NaN,elephant,bird,NaN,bird10-elephant2.png,bird10-elephant2.png,0.0,-4.0070286,31.553818,-25.145315
bagnet33,1,259,NaN,airplane,bird,NaN,bird2-airplane3.png,bird2-airplane3.png,0.0,-1.4312189,8.554216,-7.060769
bagnet33,1,260,NaN,bird,bird,NaN,bird2-bird2.png,bird2-bird2.png,1.0,4.782346,1.6039298,2.2474794
bagnet33,1,261,NaN,car,bird,NaN,bird2-car3.png,bird2-car3.png,0.0,-2.499392,9.14017,-8.230413
bagnet33,1,262,NaN,clock,bird,NaN,bird2-clock3.png,bird2-clock3.png,0.0,-2.9694593,19.010382,-15.542095
bagnet33,1,263,NaN,dog,bird,NaN,bird2-dog2.png,bird2-dog2.png,0.0,-1.2377672,3.4060867,-3.2837007
bagnet33,1,264,NaN,knife,bird,NaN,bird2-knife1.png,bird2-knife1.png,0.0,-1.4707557,11.2771435,-9.014126
bagnet33,1,265,NaN,bear,bird,NaN,bird3-bear3.png,bird3-bear3.png,0.0,2.9978426,10.798239,-5.515713
bagnet33,1,266,NaN,bird,bird,NaN,bird3-bird2.png,bird3-bird2.png,1.0,4.1816373,2.7206926,1.0330439
bagnet33,1,267,NaN,truck,bird,NaN,bird3-boat3.png,bird3-boat3.png,0.0,-4.115783,5.48929,-6.791813
bagnet33,1,268,NaN,bottle,bird,NaN,bird3-bottle2.png,bird3-bottle2.png,0.0,-5.829758,14.070203,-14.071398
bagnet33,1,269,NaN,cat,bird,NaN,bird3-cat1.png,bird3-cat1.png,0.0,-1.0649099,5.3750305,-4.5537257
bagnet33,1,270,NaN,dog,bird,NaN,bird3-dog1.png,bird3-dog1.png,0.0,1.9317377,4.6637716,-1.9318398
bagnet33,1,271,NaN,knife,bird,NaN,bird3-knife3.png,bird3-knife3.png,0.0,-1.0612302,5.981629,-4.9800534
bagnet33,1,272,NaN,oven,bird,NaN,bird3-oven1.png,bird3-oven1.png,0.0,-1.408527,13.282906,-10.388412
bagnet33,1,273,NaN,airplane,bird,NaN,bird3-truck3.png,bird3-truck3.png,0.0,-2.0997367,8.027297,-7.160894
bagnet33,1,274,NaN,airplane,bird,NaN,bird4-airplane1.png,bird4-airplane1.png,0.0,-1.286241,10.98443,-8.676676
bagnet33,1,275,NaN,bicycle,bird,NaN,bird4-bicycle2.png,bird4-bicycle2.png,0.0,-0.23173127,9.136131,-6.624079
bagnet33,1,276,NaN,cat,bird,NaN,bird4-cat3.png,bird4-cat3.png,0.0,0.9149552,5.2719526,-3.0808625
bagnet33,1,277,NaN,clock,bird,NaN,bird4-clock1.png,bird4-clock1.png,0.0,-4.716423,18.343477,-16.305813
bagnet33,1,278,NaN,cat,bird,NaN,bird4-dog3.png,bird4-dog3.png,0.0,0.30072173,3.510725,-2.2698152
bagnet33,1,279,NaN,airplane,bird,NaN,bird5-airplane3.png,bird5-airplane3.png,0.0,-0.008443484,11.494049,-8.133491
bagnet33,1,280,NaN,elephant,bird,NaN,bird5-bear3.png,bird5-bear3.png,0.0,4.7543106,5.6301117,-0.61928487
bagnet33,1,281,NaN,bicycle,bird,NaN,bird5-bicycle1.png,bird5-bicycle1.png,0.0,-2.0423493,9.86336,-8.418609
bagnet33,1,282,NaN,bird,bird,NaN,bird5-bird1.png,bird5-bird1.png,1.0,11.250745,1.7361455,6.7278376
bagnet33,1,283,NaN,car,bird,NaN,bird5-car2.png,bird5-car2.png,0.0,-1.7394251,12.752698,-10.2474785
bagnet33,1,284,NaN,clock,bird,NaN,bird5-cat2.png,bird5-cat2.png,0.0,1.0113595,9.852149,-6.2513824
bagnet33,1,285,NaN,chair,bird,NaN,bird5-chair1.png,bird5-chair1.png,0.0,-4.115369,10.0206585,-9.995681
bagnet33,1,286,NaN,keyboard,bird,NaN,bird5-dog2.png,bird5-dog2.png,0.0,1.7852755,2.7180243,-0.659553
bagnet33,1,287,NaN,bottle,bird,NaN,bird5-keyboard2.png,bird5-keyboard2.png,0.0,-1.7600749,6.3357167,-5.7245893
bagnet33,1,288,NaN,oven,bird,NaN,bird5-oven3.png,bird5-oven3.png,0.0,-2.1699827,9.037782,-7.9250865
bagnet33,1,289,NaN,car,bird,NaN,bird5-truck2.png,bird5-truck2.png,0.0,-2.3655102,9.840606,-8.631027
bagnet33,1,290,NaN,airplane,bird,NaN,bird6-airplane2.png,bird6-airplane2.png,0.0,0.65375084,12.176631,-8.147907
bagnet33,1,291,NaN,boat,bird,NaN,bird6-boat2.png,bird6-boat2.png,0.0,-1.8850971,11.076489,-9.165226
bagnet33,1,292,NaN,bottle,bird,NaN,bird6-bottle3.png,bird6-bottle3.png,0.0,-6.770683,16.580854,-16.512032
bagnet33,1,293,NaN,car,bird,NaN,bird6-car3.png,bird6-car3.png,0.0,-2.1938357,15.101863,-12.229906
bagnet33,1,294,NaN,elephant,bird,NaN,bird6-elephant2.png,bird6-elephant2.png,0.0,-4.607209,33.599216,-27.016022
bagnet33,1,295,NaN,oven,bird,NaN,bird6-oven1.png,bird6-oven1.png,0.0,-2.3271644,11.2496605,-9.6002655
bagnet33,1,296,NaN,car,bird,NaN,bird6-truck2.png,bird6-truck2.png,0.0,-2.182224,10.840736,-9.208624
bagnet33,1,297,NaN,bird,bird,NaN,bird7-bird2.png,bird7-bird2.png,1.0,3.428904,1.8346704,1.1272935
bagnet33,1,298,NaN,boat,bird,NaN,bird7-boat1.png,bird7-boat1.png,0.0,-3.4827564,8.849001,-8.71987
bagnet33,1,299,NaN,bottle,bird,NaN,bird7-bottle1.png,bird7-bottle1.png,0.0,-6.5479536,17.159946,-16.764017
bagnet33,1,300,NaN,car,bird,NaN,bird7-car2.png,bird7-car2.png,0.0,-2.471932,12.395343,-10.512752
bagnet33,1,301,NaN,elephant,bird,NaN,bird7-cat3.png,bird7-cat3.png,0.0,0.9191762,3.333184,-1.7069613
bagnet33,1,302,NaN,bottle,bird,NaN,bird7-keyboard3.png,bird7-keyboard3.png,0.0,-0.33594346,2.3193402,-1.8775691
bagnet33,1,303,NaN,knife,bird,NaN,bird7-knife2.png,bird7-knife2.png,0.0,-3.1571097,9.969344,-9.281804
bagnet33,1,304,NaN,oven,bird,NaN,bird7-oven3.png,bird7-oven3.png,0.0,-2.7149413,8.608663,-8.006997
bagnet33,1,305,NaN,car,bird,NaN,bird7-truck2.png,bird7-truck2.png,0.0,-2.5208104,11.066441,-9.607637
bagnet33,1,306,NaN,truck,bird,NaN,bird8-boat3.png,bird8-boat3.png,0.0,-3.4635906,7.5391536,-7.7801156
bagnet33,1,307,NaN,bottle,bird,NaN,bird8-bottle1.png,bird8-bottle1.png,0.0,-6.9731197,15.984492,-16.233482
bagnet33,1,308,NaN,bicycle,bird,NaN,bird8-car2.png,bird8-car2.png,0.0,-1.4404292,10.878565,-8.710845
bagnet33,1,309,NaN,chair,bird,NaN,bird8-chair1.png,bird8-chair1.png,0.0,-3.353835,9.920314,-9.386241
bagnet33,1,310,NaN,clock,bird,NaN,bird8-clock1.png,bird8-clock1.png,0.0,-4.760871,17.65593,-15.851072
bagnet33,1,311,NaN,elephant,bird,NaN,bird8-elephant1.png,bird8-elephant1.png,0.0,-5.181921,47.58407,-37.31119
bagnet33,1,312,NaN,bottle,bird,NaN,bird8-keyboard2.png,bird8-keyboard2.png,0.0,-1.6256614,5.8969884,-5.319317
bagnet33,1,313,NaN,knife,bird,NaN,bird8-knife2.png,bird8-knife2.png,0.0,-3.3422463,13.687643,-12.041951
bagnet33,1,314,NaN,bear,bird,NaN,bird9-bear3.png,bird9-bear3.png,0.0,3.2163506,8.655106,-3.8457806
bagnet33,1,315,NaN,knife,bird,NaN,bird9-bicycle3.png,bird9-bicycle3.png,0.0,-1.0662042,4.9862776,-4.279751
bagnet33,1,316,NaN,bottle,bird,NaN,bird9-bottle3.png,bird9-bottle3.png,0.0,-5.804094,14.244825,-14.176727
bagnet33,1,317,NaN,chair,bird,NaN,bird9-chair1.png,bird9-chair1.png,0.0,-3.2262123,7.9786487,-7.923033
bagnet33,1,318,NaN,cat,bird,NaN,bird9-dog2.png,bird9-dog2.png,0.0,0.70201904,2.9540205,-1.5924056
bagnet33,1,319,NaN,elephant,bird,NaN,bird9-elephant2.png,bird9-elephant2.png,0.0,-4.5684185,30.40276,-24.728355
bagnet33,1,320,NaN,keyboard,bird,NaN,bird9-keyboard1.png,bird9-keyboard1.png,0.0,-2.4664264,5.052261,-5.316515
bagnet33,1,321,NaN,bear,boat,NaN,boat1-bear1.png,boat1-bear1.png,0.0,0.23446389,8.2860565,-5.693336
bagnet33,1,322,NaN,bicycle,boat,NaN,boat1-bicycle2.png,boat1-bicycle2.png,0.0,-0.60623235,8.555836,-6.478561
bagnet33,1,323,NaN,oven,boat,NaN,boat1-bird3.png,boat1-bird3.png,0.0,-0.5223862,5.09856,-3.9746091
bagnet33,1,324,NaN,car,boat,NaN,boat1-car2.png,boat1-car2.png,0.0,4.696494,13.223778,-6.0297003
bagnet33,1,325,NaN,chair,boat,NaN,boat1-chair3.png,boat1-chair3.png,0.0,-1.0606134,9.131893,-7.207191
bagnet33,1,326,NaN,elephant,boat,NaN,boat1-elephant3.png,boat1-elephant3.png,0.0,3.7160294,61.239746,-40.67541
bagnet33,1,327,NaN,knife,boat,NaN,boat1-keyboard3.png,boat1-keyboard3.png,0.0,0.7843755,3.9959793,-2.270947
bagnet33,1,328,NaN,oven,boat,NaN,boat1-oven1.png,boat1-oven1.png,0.0,1.2322313,10.255367,-6.380321
bagnet33,1,329,NaN,car,boat,NaN,boat1-truck3.png,boat1-truck3.png,0.0,1.7143848,6.6421,-3.484421
bagnet33,1,330,NaN,bear,boat,NaN,boat10-bear3.png,boat10-bear3.png,0.0,-0.26801258,7.7949924,-5.701406
bagnet33,1,331,NaN,truck,boat,NaN,boat10-boat3.png,boat10-boat3.png,0.0,3.5937467,4.907937,-0.92927295
bagnet33,1,332,NaN,cat,boat,NaN,boat10-cat1.png,boat10-cat1.png,0.0,-0.14518395,6.704712,-4.843608
bagnet33,1,333,NaN,oven,boat,NaN,boat10-oven1.png,boat10-oven1.png,0.0,1.9148102,10.122161,-5.8034735
bagnet33,1,334,NaN,car,boat,NaN,boat10-truck1.png,boat10-truck1.png,0.0,4.332948,20.854757,-11.682683
bagnet33,1,335,NaN,airplane,boat,NaN,boat2-airplane1.png,boat2-airplane1.png,0.0,4.355094,10.308551,-4.2097297
bagnet33,1,336,NaN,bear,boat,NaN,boat2-bear3.png,boat2-bear3.png,0.0,0.14357129,8.031786,-5.5778103
bagnet33,1,337,NaN,bird,boat,NaN,boat2-bird1.png,boat2-bird1.png,0.0,-0.7653716,7.0170293,-5.502989
bagnet33,1,338,NaN,bottle,boat,NaN,boat2-bottle2.png,boat2-bottle2.png,0.0,-3.6188374,18.870329,-15.902243
bagnet33,1,339,NaN,keyboard,boat,NaN,boat2-keyboard1.png,boat2-keyboard1.png,0.0,-1.4483773,9.899936,-8.024469
bagnet33,1,340,NaN,oven,boat,NaN,boat2-oven3.png,boat2-oven3.png,0.0,-1.511119,6.521617,-5.680002
bagnet33,1,341,NaN,airplane,boat,NaN,boat3-airplane2.png,boat3-airplane2.png,0.0,4.4104886,10.56712,-4.3533955
bagnet33,1,342,NaN,bicycle,boat,NaN,boat3-bicycle2.png,boat3-bicycle2.png,0.0,0.2273294,8.9960785,-6.2004423
bagnet33,1,343,NaN,car,boat,NaN,boat3-car3.png,boat3-car3.png,0.0,4.7982283,12.396619,-5.372874
bagnet33,1,344,NaN,oven,boat,NaN,boat3-cat3.png,boat3-cat3.png,0.0,-1.4869728,2.7501009,-2.9960637
bagnet33,1,345,NaN,chair,boat,NaN,boat3-chair3.png,boat3-chair3.png,0.0,-1.4258066,8.583149,-7.0774007
bagnet33,1,346,NaN,clock,boat,NaN,boat3-clock3.png,boat3-clock3.png,0.0,0.33044773,16.894987,-11.712898
bagnet33,1,347,NaN,cat,boat,NaN,boat3-dog3.png,boat3-dog3.png,0.0,-1.8329532,2.7938643,-3.2716541
bagnet33,1,348,NaN,keyboard,boat,NaN,boat3-keyboard2.png,boat3-keyboard2.png,0.0,0.50786996,6.5340986,-4.2611876
bagnet33,1,349,NaN,knife,boat,NaN,boat4-bicycle3.png,boat4-bicycle3.png,0.0,-1.4953656,5.031432,-4.615143
bagnet33,1,350,NaN,bird,boat,NaN,boat4-bird1.png,boat4-bird1.png,0.0,-1.1653881,11.203076,-8.745825
bagnet33,1,351,NaN,chair,boat,NaN,boat4-boat3.png,boat4-boat3.png,0.0,2.4778438,3.7068114,-0.8690114
bagnet33,1,352,NaN,bottle,boat,NaN,boat4-bottle2.png,boat4-bottle2.png,0.0,-3.522981,15.432946,-13.403865
bagnet33,1,353,NaN,car,boat,NaN,boat4-car3.png,boat4-car3.png,0.0,5.086051,12.367841,-5.149003
bagnet33,1,354,NaN,chair,boat,NaN,boat4-chair2.png,boat4-chair2.png,0.0,-0.28521317,7.109185,-5.228629
bagnet33,1,355,NaN,keyboard,boat,NaN,boat4-dog2.png,boat4-dog2.png,0.0,-1.1064326,2.9055703,-2.8369145
bagnet33,1,356,NaN,elephant,boat,NaN,boat4-elephant2.png,boat4-elephant2.png,0.0,-0.86203563,30.039942,-21.850998
bagnet33,1,357,NaN,knife,boat,NaN,boat4-knife2.png,boat4-knife2.png,0.0,0.23638234,6.0726967,-4.1268973
bagnet33,1,358,NaN,airplane,boat,NaN,boat5-airplane1.png,boat5-airplane1.png,0.0,4.581945,10.3320265,-4.065922
bagnet33,1,359,NaN,knife,boat,NaN,boat5-bicycle3.png,boat5-bicycle3.png,0.0,-1.1881105,4.288338,-3.872434
bagnet33,1,360,NaN,truck,boat,NaN,boat5-boat3.png,boat5-boat3.png,0.0,3.1611488,6.6975536,-2.5006158
bagnet33,1,361,NaN,car,boat,NaN,boat5-car3.png,boat5-car3.png,0.0,5.356414,11.021305,-4.005683
bagnet33,1,362,NaN,clock,boat,NaN,boat5-clock3.png,boat5-clock3.png,0.0,2.6784043,16.689672,-9.907463
bagnet33,1,363,NaN,knife,boat,NaN,boat5-knife2.png,boat5-knife2.png,0.0,-0.33500543,8.274536,-6.0878654
bagnet33,1,364,NaN,airplane,boat,NaN,boat6-airplane2.png,boat6-airplane2.png,0.0,3.966494,9.887691,-4.1869183
bagnet33,1,365,NaN,bear,boat,NaN,boat6-bear1.png,boat6-bear1.png,0.0,1.4653833,8.354754,-4.871521
bagnet33,1,366,NaN,bicycle,boat,NaN,boat6-bicycle2.png,boat6-bicycle2.png,0.0,-1.3889954,9.728004,-7.860906
bagnet33,1,367,NaN,bottle,boat,NaN,boat6-bottle2.png,boat6-bottle2.png,0.0,-4.2027416,19.069971,-16.456293
bagnet33,1,368,NaN,car,boat,NaN,boat6-car1.png,boat6-car1.png,0.0,8.038547,14.5575485,-4.6096306
bagnet33,1,369,NaN,cat,boat,NaN,boat6-cat1.png,boat6-cat1.png,0.0,0.26102692,5.530155,-3.7258365
bagnet33,1,370,NaN,clock,boat,NaN,boat6-clock2.png,boat6-clock2.png,0.0,2.136431,11.274048,-6.4612713
bagnet33,1,371,NaN,bear,boat,NaN,boat6-dog1.png,boat6-dog1.png,0.0,-2.6562848,5.6925364,-5.9035087
bagnet33,1,372,NaN,elephant,boat,NaN,boat6-elephant2.png,boat6-elephant2.png,0.0,-1.1112947,32.4198,-23.710064
bagnet33,1,373,NaN,knife,boat,NaN,boat6-knife2.png,boat6-knife2.png,0.0,-1.1690112,9.15411,-7.299549
bagnet33,1,374,NaN,clock,boat,NaN,boat6-truck3.png,boat6-truck3.png,0.0,0.6711275,5.7811093,-3.613303
bagnet33,1,375,NaN,boat,boat,NaN,boat7-boat2.png,boat7-boat2.png,1.0,8.4292965,5.0074067,2.4196415
bagnet33,1,376,NaN,bottle,boat,NaN,boat7-bottle1.png,boat7-bottle1.png,0.0,-2.3526256,14.399454,-11.845509
bagnet33,1,377,NaN,cat,boat,NaN,boat7-cat3.png,boat7-cat3.png,0.0,-3.6009357,2.610653,-4.3922567
bagnet33,1,378,NaN,chair,boat,NaN,boat7-chair1.png,boat7-chair1.png,0.0,-1.0584579,7.483279,-6.03992
bagnet33,1,379,NaN,clock,boat,NaN,boat7-clock3.png,boat7-clock3.png,0.0,0.11604662,17.7223,-12.449501
bagnet33,1,380,NaN,elephant,boat,NaN,boat7-elephant3.png,boat7-elephant3.png,0.0,3.556376,59.356647,-39.45675
bagnet33,1,381,NaN,bottle,boat,NaN,boat7-keyboard3.png,boat7-keyboard3.png,0.0,-1.3481201,3.544716,-3.4597576
bagnet33,1,382,NaN,oven,boat,NaN,boat7-oven3.png,boat7-oven3.png,0.0,-1.5654843,10.440023,-8.489176
bagnet33,1,383,NaN,car,boat,NaN,boat7-truck2.png,boat7-truck2.png,0.0,-0.116634466,11.223805,-8.018902
bagnet33,1,384,NaN,knife,boat,NaN,boat8-bird2.png,boat8-bird2.png,0.0,-2.5442843,3.229983,-4.0830235
bagnet33,1,385,NaN,bottle,boat,NaN,boat8-bottle1.png,boat8-bottle1.png,0.0,-3.699346,16.437445,-14.238862
bagnet33,1,386,NaN,oven,boat,NaN,boat8-dog3.png,boat8-dog3.png,0.0,-2.5398204,3.8520684,-4.5197477
bagnet33,1,387,NaN,elephant,boat,NaN,boat8-elephant1.png,boat8-elephant1.png,0.0,4.497213,42.069954,-26.567942
bagnet33,1,388,NaN,knife,boat,NaN,boat8-knife1.png,boat8-knife1.png,0.0,-0.49638835,9.253847,-6.894458
bagnet33,1,389,NaN,oven,boat,NaN,boat8-oven1.png,boat8-oven1.png,0.0,1.4035655,9.021214,-5.386491
bagnet33,1,390,NaN,car,boat,NaN,boat8-truck2.png,boat8-truck2.png,0.0,1.9092153,12.055756,-7.174688
bagnet33,1,391,NaN,airplane,boat,NaN,boat9-airplane2.png,boat9-airplane2.png,0.0,5.93221,8.493423,-1.8110515
bagnet33,1,392,NaN,elephant,boat,NaN,boat9-bear3.png,boat9-bear3.png,0.0,-1.4035083,10.452625,-8.383553
bagnet33,1,393,NaN,bird,boat,NaN,boat9-bird1.png,boat9-bird1.png,0.0,-0.0938499,8.552251,-6.1137166
bagnet33,1,394,NaN,truck,boat,NaN,boat9-boat3.png,boat9-boat3.png,0.0,4.0860605,7.788826,-2.6182506
bagnet33,1,395,NaN,elephant,boat,NaN,boat9-cat3.png,boat9-cat3.png,0.0,-1.476026,2.9261756,-3.1128266
bagnet33,1,396,NaN,chair,boat,NaN,boat9-chair2.png,boat9-chair2.png,0.0,0.6749686,9.113908,-5.9672313
bagnet33,1,397,NaN,clock,boat,NaN,boat9-clock1.png,boat9-clock1.png,0.0,2.0777462,10.619712,-6.040082
bagnet33,1,398,NaN,dog,boat,NaN,boat9-dog2.png,boat9-dog2.png,0.0,-2.3327737,2.457494,-3.387231
bagnet33,1,399,NaN,bottle,boat,NaN,boat9-keyboard2.png,boat9-keyboard2.png,0.0,0.6710534,6.1274877,-3.8582816
bagnet33,1,400,NaN,knife,boat,NaN,boat9-knife2.png,boat9-knife2.png,0.0,-1.0637817,9.580324,-7.52652
bagnet33,1,401,NaN,bear,bottle,NaN,bottle1-bear1.png,bottle1-bear1.png,0.0,1.8708744,8.158368,-4.4459295
bagnet33,1,402,NaN,knife,bottle,NaN,bottle1-bird3.png,bottle1-bird3.png,0.0,1.3194177,3.8029332,-1.7561107
bagnet33,1,403,NaN,car,bottle,NaN,bottle1-car1.png,bottle1-car1.png,0.0,0.83323234,7.7217903,-4.870946
bagnet33,1,404,NaN,cat,bottle,NaN,bottle1-cat3.png,bottle1-cat3.png,0.0,3.4634168,5.2636313,-1.272944
bagnet33,1,405,NaN,chair,bottle,NaN,bottle1-chair2.png,bottle1-chair2.png,0.0,2.7573986,11.645662,-6.2849517
bagnet33,1,406,NaN,clock,bottle,NaN,bottle1-clock1.png,bottle1-clock1.png,0.0,4.017504,16.085648,-8.533466
bagnet33,1,407,NaN,dog,bottle,NaN,bottle1-dog2.png,bottle1-dog2.png,0.0,-0.047718935,2.5138834,-1.8113264
bagnet33,1,408,NaN,knife,bottle,NaN,bottle1-keyboard3.png,bottle1-keyboard3.png,0.0,2.5199056,3.7845695,-0.8942525
bagnet33,1,409,NaN,bear,bottle,NaN,bottle10-bear2.png,bottle10-bear2.png,0.0,0.00014720645,7.461362,-5.2758756
bagnet33,1,410,NaN,truck,bottle,NaN,bottle10-boat3.png,bottle10-boat3.png,0.0,2.4852006,5.7409334,-2.3021507
bagnet33,1,411,NaN,car,bottle,NaN,bottle10-car1.png,bottle10-car1.png,0.0,2.2282922,12.784982,-7.464707
bagnet33,1,412,NaN,clock,bottle,NaN,bottle10-clock2.png,bottle10-clock2.png,0.0,5.025929,11.132039,-4.317672
bagnet33,1,413,NaN,cat,bottle,NaN,bottle10-dog1.png,bottle10-dog1.png,0.0,-0.5874285,3.3680475,-2.796944
bagnet33,1,414,NaN,bottle,bottle,NaN,bottle10-truck3.png,bottle10-truck3.png,1.0,7.5934973,4.7753525,1.9927293
bagnet33,1,415,NaN,bottle,bottle,NaN,bottle2-bottle3.png,bottle2-bottle3.png,1.0,10.620152,3.9093428,4.7452593
bagnet33,1,416,NaN,bicycle,bottle,NaN,bottle2-car2.png,bottle2-car2.png,0.0,-0.43761507,12.59569,-9.215939
bagnet33,1,417,NaN,chair,bottle,NaN,bottle2-chair3.png,bottle2-chair3.png,0.0,0.31780425,8.482288,-5.773162
bagnet33,1,418,NaN,clock,bottle,NaN,bottle2-clock1.png,bottle2-clock1.png,0.0,1.5692765,12.36071,-7.630696
bagnet33,1,419,NaN,elephant,bottle,NaN,bottle2-elephant1.png,bottle2-elephant1.png,0.0,-2.9967544,45.979744,-34.631615
bagnet33,1,420,NaN,knife,bottle,NaN,bottle2-knife3.png,bottle2-knife3.png,0.0,2.041481,10.751,-6.1585603
bagnet33,1,421,NaN,airplane,bottle,NaN,bottle3-airplane2.png,bottle3-airplane2.png,0.0,1.8855574,9.518642,-5.3974066
bagnet33,1,422,NaN,bear,bottle,NaN,bottle3-bear2.png,bottle3-bear2.png,0.0,-0.6431021,8.11907,-6.1957912
bagnet33,1,423,NaN,bicycle,bottle,NaN,bottle3-bicycle3.png,bottle3-bicycle3.png,0.0,3.5054631,5.767519,-1.5995151
bagnet33,1,424,NaN,bird,bottle,NaN,bottle3-bird1.png,bottle3-bird1.png,0.0,0.8345955,9.458265,-6.0978556
bagnet33,1,425,NaN,truck,bottle,NaN,bottle3-boat3.png,bottle3-boat3.png,0.0,1.9125437,4.6995916,-1.9707404
bagnet33,1,426,NaN,bottle,bottle,NaN,bottle3-bottle3.png,bottle3-bottle3.png,1.0,12.817587,6.0395966,4.792763
bagnet33,1,427,NaN,cat,bottle,NaN,bottle3-cat3.png,bottle3-cat3.png,0.0,0.7830455,4.4006743,-2.55805
bagnet33,1,428,NaN,chair,bottle,NaN,bottle3-chair3.png,bottle3-chair3.png,0.0,-0.6696757,8.224054,-6.288817
bagnet33,1,429,NaN,knife,bottle,NaN,bottle3-knife3.png,bottle3-knife3.png,0.0,2.811727,9.830961,-4.9633484
bagnet33,1,430,NaN,airplane,bottle,NaN,bottle4-airplane1.png,bottle4-airplane1.png,0.0,0.6389163,9.976053,-6.602353
bagnet33,1,431,NaN,bicycle,bottle,NaN,bottle4-bicycle1.png,bottle4-bicycle1.png,0.0,2.2142296,13.009607,-7.633485
bagnet33,1,432,NaN,car,bottle,NaN,bottle4-car3.png,bottle4-car3.png,0.0,1.4296043,10.065348,-6.106393
bagnet33,1,433,NaN,cat,bottle,NaN,bottle4-dog2.png,bottle4-dog2.png,0.0,-0.23595582,4.6677957,-3.467476
bagnet33,1,434,NaN,oven,bottle,NaN,bottle4-oven2.png,bottle4-oven2.png,0.0,6.0683646,7.8054967,-1.2283379
bagnet33,1,435,NaN,car,bottle,NaN,bottle4-truck1.png,bottle4-truck1.png,0.0,6.6323504,10.396287,-2.661505
bagnet33,1,436,NaN,airplane,bottle,NaN,bottle5-airplane1.png,bottle5-airplane1.png,0.0,0.12074236,11.218797,-7.8475094
bagnet33,1,437,NaN,bottle,bottle,NaN,bottle5-bird3.png,bottle5-bird3.png,1.0,2.6292026,2.5417962,0.061805658
bagnet33,1,438,NaN,boat,bottle,NaN,bottle5-boat1.png,bottle5-boat1.png,0.0,1.7460035,7.4072886,-4.003133
bagnet33,1,439,NaN,cat,bottle,NaN,bottle5-cat1.png,bottle5-cat1.png,0.0,0.3580254,7.176886,-4.8216624
bagnet33,1,440,NaN,chair,bottle,NaN,bottle5-chair1.png,bottle5-chair1.png,0.0,-0.08417886,10.884876,-7.7562933
bagnet33,1,441,NaN,clock,bottle,NaN,bottle5-clock3.png,bottle5-clock3.png,0.0,-0.41732025,23.207766,-16.70546
bagnet33,1,442,NaN,elephant,bottle,NaN,bottle5-elephant1.png,bottle5-elephant1.png,0.0,-3.1587567,53.646873,-40.16765
bagnet33,1,443,NaN,bottle,bottle,NaN,bottle5-keyboard2.png,bottle5-keyboard2.png,1.0,5.246881,3.1926806,1.4525391
bagnet33,1,444,NaN,knife,bottle,NaN,bottle5-knife1.png,bottle5-knife1.png,0.0,1.213185,10.313044,-6.4345717
bagnet33,1,445,NaN,oven,bottle,NaN,bottle5-oven2.png,bottle5-oven2.png,0.0,4.994197,9.395866,-3.1124504
bagnet33,1,446,NaN,car,bottle,NaN,bottle5-truck1.png,bottle5-truck1.png,0.0,6.4504075,13.688371,-5.118013
bagnet33,1,447,NaN,airplane,bottle,NaN,bottle6-airplane1.png,bottle6-airplane1.png,0.0,1.2095739,13.117222,-8.419979
bagnet33,1,448,NaN,bear,bottle,NaN,bottle6-bear2.png,bottle6-bear2.png,0.0,-0.26214528,7.6507215,-5.5952415
bagnet33,1,449,NaN,knife,bottle,NaN,bottle6-bicycle3.png,bottle6-bicycle3.png,0.0,3.9005432,4.1032104,-0.14330737
bagnet33,1,450,NaN,bird,bottle,NaN,bottle6-bird1.png,bottle6-bird1.png,0.0,2.0288565,10.107111,-5.7121887
bagnet33,1,451,NaN,truck,bottle,NaN,bottle6-boat3.png,bottle6-boat3.png,0.0,1.8461617,4.80204,-2.0901215
bagnet33,1,452,NaN,bottle,bottle,NaN,bottle6-bottle3.png,bottle6-bottle3.png,1.0,17.600327,6.3003864,7.9902644
bagnet33,1,453,NaN,chair,bottle,NaN,bottle6-chair2.png,bottle6-chair2.png,0.0,4.2312326,11.684492,-5.2702503
bagnet33,1,454,NaN,oven,bottle,NaN,bottle6-dog3.png,bottle6-dog3.png,0.0,-1.022962,4.140235,-3.6509316
bagnet33,1,455,NaN,knife,bottle,NaN,bottle6-knife3.png,bottle6-knife3.png,0.0,3.0206506,7.5145035,-3.1776338
bagnet33,1,456,NaN,oven,bottle,NaN,bottle6-oven3.png,bottle6-oven3.png,0.0,1.8968617,11.1747055,-6.560426
bagnet33,1,457,NaN,airplane,bottle,NaN,bottle7-airplane3.png,bottle7-airplane3.png,0.0,1.1580026,6.0638065,-3.4689271
bagnet33,1,458,NaN,bear,bottle,NaN,bottle7-bear1.png,bottle7-bear1.png,0.0,2.0606194,8.734173,-4.718915
bagnet33,1,459,NaN,chair,bottle,NaN,bottle7-boat3.png,bottle7-boat3.png,0.0,1.7969915,4.1646595,-1.6741942
bagnet33,1,460,NaN,clock,bottle,NaN,bottle7-cat2.png,bottle7-cat2.png,0.0,-0.46439388,12.497172,-9.165212
bagnet33,1,461,NaN,clock,bottle,NaN,bottle7-clock1.png,bottle7-clock1.png,0.0,2.6576672,14.842219,-8.61578
bagnet33,1,462,NaN,elephant,bottle,NaN,bottle7-elephant2.png,bottle7-elephant2.png,0.0,-0.16464832,30.622578,-21.769857
bagnet33,1,463,NaN,bottle,bottle,NaN,bottle7-keyboard2.png,bottle7-keyboard2.png,1.0,6.269405,3.1507385,2.2052302
bagnet33,1,464,NaN,oven,bottle,NaN,bottle7-oven2.png,bottle7-oven2.png,0.0,4.389439,9.967433,-3.9442375
bagnet33,1,465,NaN,car,bottle,NaN,bottle7-truck2.png,bottle7-truck2.png,0.0,3.3512073,8.331862,-3.521855
bagnet33,1,466,NaN,bicycle,bottle,NaN,bottle8-bicycle1.png,bottle8-bicycle1.png,0.0,2.1317422,16.592854,-10.22555
bagnet33,1,467,NaN,bird,bottle,NaN,bottle8-bird1.png,bottle8-bird1.png,0.0,2.2314508,8.603254,-4.5055456
bagnet33,1,468,NaN,bottle,bottle,NaN,bottle8-bottle3.png,bottle8-bottle3.png,1.0,17.235931,6.1925707,7.8088355
bagnet33,1,469,NaN,cat,bottle,NaN,bottle8-dog2.png,bottle8-dog2.png,0.0,1.6576773,3.741155,-1.4732411
bagnet33,1,470,NaN,elephant,bottle,NaN,bottle8-elephant3.png,bottle8-elephant3.png,0.0,-0.3390285,55.325596,-39.360832
bagnet33,1,471,NaN,knife,bottle,NaN,bottle8-keyboard3.png,bottle8-keyboard3.png,0.0,2.205005,2.522031,-0.22417134
bagnet33,1,472,NaN,knife,bottle,NaN,bottle8-knife1.png,bottle8-knife1.png,0.0,1.8709981,8.764649,-4.8745475
bagnet33,1,473,NaN,bicycle,bottle,NaN,bottle9-bicycle1.png,bottle9-bicycle1.png,0.0,2.9670506,11.551958,-6.0704465
bagnet33,1,474,NaN,bottle,bottle,NaN,bottle9-bottle1.png,bottle9-bottle1.png,1.0,13.504753,4.9608636,6.041443
bagnet33,1,475,NaN,car,bottle,NaN,bottle9-car3.png,bottle9-car3.png,0.0,3.1532426,11.952149,-6.2217665
bagnet33,1,476,NaN,clock,bottle,NaN,bottle9-cat2.png,bottle9-cat2.png,0.0,0.13939063,8.990195,-6.258464
bagnet33,1,477,NaN,elephant,bottle,NaN,bottle9-elephant2.png,bottle9-elephant2.png,0.0,0.33935317,27.044428,-18.883339
bagnet33,1,478,NaN,keyboard,bottle,NaN,bottle9-keyboard1.png,bottle9-keyboard1.png,0.0,5.0338163,6.416252,-0.97752976
bagnet33,1,479,NaN,oven,bottle,NaN,bottle9-oven2.png,bottle9-oven2.png,0.0,6.07153,7.7677817,-1.1994312
bagnet33,1,480,NaN,car,bottle,NaN,bottle9-truck1.png,bottle9-truck1.png,0.0,6.551491,13.113747,-4.640216
bagnet33,1,481,NaN,airplane,car,NaN,car1-airplane1.png,car1-airplane1.png,0.0,6.442785,15.143488,-6.152326
bagnet33,1,482,NaN,car,car,NaN,car1-car2.png,car1-car2.png,1.0,11.757595,10.588965,0.826346
bagnet33,1,483,NaN,chair,car,NaN,car1-chair3.png,car1-chair3.png,0.0,4.7736545,9.907228,-3.629985
bagnet33,1,484,NaN,car,car,NaN,car1-clock2.png,car1-clock2.png,1.0,12.253316,11.871515,0.26997384
bagnet33,1,485,NaN,cat,car,NaN,car1-dog2.png,car1-dog2.png,0.0,-1.2713377,2.6808574,-2.794624
bagnet33,1,486,NaN,keyboard,car,NaN,car1-keyboard2.png,car1-keyboard2.png,0.0,6.7392387,13.817735,-5.0052524
bagnet33,1,487,NaN,oven,car,NaN,car1-oven3.png,car1-oven3.png,0.0,2.264451,11.168923,-6.296413
bagnet33,1,488,NaN,bicycle,car,NaN,car10-bicycle2.png,car10-bicycle2.png,0.0,4.3434467,5.7226915,-0.9752734
bagnet33,1,489,NaN,bottle,car,NaN,car10-bottle3.png,car10-bottle3.png,0.0,-0.29385743,14.495078,-10.457356
bagnet33,1,490,NaN,car,car,NaN,car10-car1.png,car10-car1.png,1.0,16.770683,8.680408,5.720689
bagnet33,1,491,NaN,chair,car,NaN,car10-chair1.png,car10-chair1.png,0.0,5.875334,9.086853,-2.2708871
bagnet33,1,492,NaN,cat,car,NaN,car10-dog1.png,car10-dog1.png,0.0,0.64910823,3.45819,-1.9863209
bagnet33,1,493,NaN,elephant,car,NaN,car10-elephant2.png,car10-elephant2.png,0.0,0.38508618,29.084667,-20.293669
bagnet33,1,494,NaN,keyboard,car,NaN,car10-keyboard2.png,car10-keyboard2.png,0.0,3.1987255,4.5342226,-0.9443391
bagnet33,1,495,NaN,oven,car,NaN,car2-bird3.png,car2-bird3.png,0.0,1.2566166,6.4347167,-3.6614697
bagnet33,1,496,NaN,car,car,NaN,car2-car3.png,car2-car3.png,1.0,16.180168,7.522076,6.122196
bagnet33,1,497,NaN,cat,car,NaN,car2-cat3.png,car2-cat3.png,0.0,-3.1451588,3.9241493,-4.998756
bagnet33,1,498,NaN,car,car,NaN,car2-chair1.png,car2-chair1.png,1.0,8.772694,7.841501,0.65845245
bagnet33,1,499,NaN,knife,car,NaN,car2-knife3.png,car2-knife3.png,0.0,0.8943594,11.939109,-7.8098173
bagnet33,1,500,NaN,airplane,car,NaN,car3-airplane3.png,car3-airplane3.png,0.0,9.502797,17.440235,-5.6126165
bagnet33,1,501,NaN,bird,car,NaN,car3-bird2.png,car3-bird2.png,0.0,-0.85621643,2.6642432,-2.489341
bagnet33,1,502,NaN,boat,car,NaN,car3-boat1.png,car3-boat1.png,0.0,9.926646,11.057539,-0.79966193
bagnet33,1,503,NaN,bottle,car,NaN,car3-bottle3.png,car3-bottle3.png,0.0,0.64297354,13.649016,-9.196661
bagnet33,1,504,NaN,airplane,car,NaN,car3-dog2.png,car3-dog2.png,0.0,1.0375063,2.8829365,-1.3049161
bagnet33,1,505,NaN,elephant,car,NaN,car3-elephant3.png,car3-elephant3.png,0.0,3.2664013,52.120613,-34.545143
bagnet33,1,506,NaN,oven,car,NaN,car3-oven3.png,car3-oven3.png,0.0,2.433283,5.841234,-2.4097853
bagnet33,1,507,NaN,car,car,NaN,car3-truck1.png,car3-truck1.png,1.0,25.002419,12.556723,8.800436
bagnet33,1,508,NaN,elephant,car,NaN,car4-bear3.png,car4-bear3.png,0.0,-0.41711727,6.634547,-4.98628
bagnet33,1,509,NaN,bottle,car,NaN,car4-bicycle3.png,car4-bicycle3.png,0.0,4.246311,5.042273,-0.56283003
bagnet33,1,510,NaN,bird,car,NaN,car4-bird1.png,car4-bird1.png,0.0,-0.09671775,9.50423,-6.788895
bagnet33,1,511,NaN,boat,car,NaN,car4-boat1.png,car4-boat1.png,0.0,8.245823,14.7098255,-4.57074
bagnet33,1,512,NaN,bottle,car,NaN,car4-bottle1.png,car4-bottle1.png,0.0,-3.8677952,17.976915,-15.446544
bagnet33,1,513,NaN,car,car,NaN,car4-car2.png,car4-car2.png,1.0,18.371275,10.762881,5.3799467
bagnet33,1,514,NaN,cat,car,NaN,car4-cat3.png,car4-cat3.png,0.0,-3.539046,2.413441,-4.209044
bagnet33,1,515,NaN,clock,car,NaN,car4-clock1.png,car4-clock1.png,0.0,3.9685624,16.912317,-9.152617
bagnet33,1,516,NaN,elephant,car,NaN,car4-elephant3.png,car4-elephant3.png,0.0,2.295598,40.480415,-27.000744
bagnet33,1,517,NaN,oven,car,NaN,car4-oven2.png,car4-oven2.png,0.0,7.2432265,9.244978,-1.415452
bagnet33,1,518,NaN,airplane,car,NaN,car5-airplane3.png,car5-airplane3.png,0.0,7.9551506,15.415459,-5.2752347
bagnet33,1,519,NaN,bear,car,NaN,car5-bear3.png,car5-bear3.png,0.0,-0.45124424,4.7107406,-3.6500747
bagnet33,1,520,NaN,bottle,car,NaN,car5-bottle1.png,car5-bottle1.png,0.0,-2.4227,17.07342,-13.785839
bagnet33,1,521,NaN,cat,car,NaN,car5-cat1.png,car5-cat1.png,0.0,1.504034,4.8568516,-2.3708
bagnet33,1,522,NaN,bottle,car,NaN,car5-keyboard3.png,car5-keyboard3.png,0.0,4.2303233,5.2149873,-0.6962626
bagnet33,1,523,NaN,truck,car,NaN,car5-knife2.png,car5-knife2.png,0.0,7.214266,9.274552,-1.4568425
bagnet33,1,524,NaN,car,car,NaN,car5-oven2.png,car5-oven2.png,1.0,11.928589,11.8412285,0.06177312
bagnet33,1,525,NaN,truck,car,NaN,car5-truck3.png,car5-truck3.png,0.0,12.523576,13.615439,-0.7720642
bagnet33,1,526,NaN,bear,car,NaN,car6-bear1.png,car6-bear1.png,0.0,-0.25409624,10.862862,-7.860876
bagnet33,1,527,NaN,bicycle,car,NaN,car6-bicycle3.png,car6-bicycle3.png,0.0,4.143427,5.3576164,-0.85856164
bagnet33,1,528,NaN,boat,car,NaN,car6-boat1.png,car6-boat1.png,0.0,7.3716407,14.360921,-4.9421678
bagnet33,1,529,NaN,bottle,car,NaN,car6-bottle1.png,car6-bottle1.png,0.0,-2.3751686,16.358383,-13.246621
bagnet33,1,530,NaN,chair,car,NaN,car6-chair3.png,car6-chair3.png,0.0,5.381714,9.94437,-3.2262852
bagnet33,1,531,NaN,elephant,car,NaN,car6-elephant3.png,car6-elephant3.png,0.0,3.1238124,47.864418,-31.636385
bagnet33,1,532,NaN,car,car,NaN,car6-knife1.png,car6-knife1.png,1.0,11.896809,10.377212,1.0745174
bagnet33,1,533,NaN,car,car,NaN,car6-truck3.png,car6-truck3.png,1.0,11.024521,9.498073,1.0793619
bagnet33,1,534,NaN,airplane,car,NaN,car7-airplane2.png,car7-airplane2.png,0.0,6.8502707,10.681631,-2.7091808
bagnet33,1,535,NaN,bear,car,NaN,car7-bear1.png,car7-bear1.png,0.0,-0.099810936,8.854694,-6.3317914
bagnet33,1,536,NaN,knife,car,NaN,car7-bird3.png,car7-bird3.png,0.0,-0.49999198,3.999289,-3.181472
bagnet33,1,537,NaN,truck,car,NaN,car7-boat3.png,car7-boat3.png,0.0,4.675838,6.840083,-1.5303525
bagnet33,1,538,NaN,car,car,NaN,car7-car1.png,car7-car1.png,1.0,14.113811,8.530054,3.948312
bagnet33,1,539,NaN,clock,car,NaN,car7-clock1.png,car7-clock1.png,0.0,4.238212,17.237524,-9.191901
bagnet33,1,540,NaN,oven,car,NaN,car7-dog3.png,car7-dog3.png,0.0,-1.6210195,4.190119,-4.109095
bagnet33,1,541,NaN,elephant,car,NaN,car7-elephant3.png,car7-elephant3.png,0.0,4.723431,60.880356,-39.708942
bagnet33,1,542,NaN,knife,car,NaN,car7-keyboard3.png,car7-keyboard3.png,0.0,2.2640002,4.9030724,-1.8661059
bagnet33,1,543,NaN,oven,car,NaN,car7-oven2.png,car7-oven2.png,0.0,5.8884444,8.629751,-1.9383967
bagnet33,1,544,NaN,airplane,car,NaN,car8-airplane3.png,car8-airplane3.png,0.0,8.308773,15.6101885,-5.1628804
bagnet33,1,545,NaN,bear,car,NaN,car8-bear1.png,car8-bear1.png,0.0,-0.4917679,9.433236,-7.018038
bagnet33,1,546,NaN,bicycle,car,NaN,car8-bicycle2.png,car8-bicycle2.png,0.0,7.431866,9.209411,-1.2569138
bagnet33,1,547,NaN,truck,car,NaN,car8-boat3.png,car8-boat3.png,0.0,6.157434,7.819954,-1.1755792
bagnet33,1,548,NaN,cat,car,NaN,car8-cat1.png,car8-cat1.png,0.0,0.47026086,5.3131785,-3.42446
bagnet33,1,549,NaN,car,car,NaN,car8-chair1.png,car8-chair1.png,1.0,10.517539,9.301268,0.86003375
bagnet33,1,550,NaN,car,car,NaN,car8-clock2.png,car8-clock2.png,1.0,10.335868,9.408381,0.65583193
bagnet33,1,551,NaN,dog,car,NaN,car8-dog1.png,car8-dog1.png,0.0,0.8819735,3.7858922,-2.0533807
bagnet33,1,552,NaN,knife,car,NaN,car8-knife2.png,car8-knife2.png,0.0,2.374253,9.888313,-5.313243
bagnet33,1,553,NaN,car,car,NaN,car8-truck3.png,car8-truck3.png,1.0,8.839142,8.144873,0.49092245
bagnet33,1,554,NaN,bicycle,car,NaN,car9-bicycle2.png,car9-bicycle2.png,0.0,8.357915,8.640371,-0.19972683
bagnet33,1,555,NaN,bird,car,NaN,car9-bird1.png,car9-bird1.png,0.0,-1.6594973,7.3213596,-6.350425
bagnet33,1,556,NaN,cat,car,NaN,car9-cat1.png,car9-cat1.png,0.0,-0.12830816,5.803137,-4.194165
bagnet33,1,557,NaN,car,car,NaN,car9-clock2.png,car9-clock2.png,1.0,11.7038145,8.408137,2.3303957
bagnet33,1,558,NaN,bottle,car,NaN,car9-keyboard2.png,car9-keyboard2.png,0.0,3.6198113,6.6024823,-2.109067
bagnet33,1,559,NaN,knife,car,NaN,car9-knife1.png,car9-knife1.png,0.0,7.066603,7.548764,-0.34093934
bagnet33,1,560,NaN,truck,car,NaN,car9-truck3.png,car9-truck3.png,0.0,8.811898,9.642878,-0.5875912
bagnet33,1,561,NaN,airplane,cat,NaN,cat1-airplane1.png,cat1-airplane1.png,0.0,-0.9825503,10.250303,-7.942827
bagnet33,1,562,NaN,bird,cat,NaN,cat1-bird1.png,cat1-bird1.png,0.0,2.3622077,7.594141,-3.6995358
bagnet33,1,563,NaN,boat,cat,NaN,cat1-boat1.png,cat1-boat1.png,0.0,0.12951882,10.954137,-7.654161
bagnet33,1,564,NaN,car,cat,NaN,cat1-car2.png,cat1-car2.png,0.0,-0.62486535,10.537414,-7.8929234
bagnet33,1,565,NaN,cat,cat,NaN,cat1-cat3.png,cat1-cat3.png,1.0,3.4194689,1.6072183,1.2814547
bagnet33,1,566,NaN,chair,cat,NaN,cat1-chair2.png,cat1-chair2.png,0.0,-0.032307852,9.937996,-7.0500693
bagnet33,1,567,NaN,cat,cat,NaN,cat1-dog1.png,cat1-dog1.png,1.0,4.814569,3.7664433,0.74113685
bagnet33,1,568,NaN,bottle,cat,NaN,cat1-keyboard3.png,cat1-keyboard3.png,0.0,-1.9672388,5.6454186,-5.3829618
bagnet33,1,569,NaN,oven,cat,NaN,cat1-oven1.png,cat1-oven1.png,0.0,0.4803175,12.752261,-8.677575
bagnet33,1,570,NaN,airplane,cat,NaN,cat10-airplane3.png,cat10-airplane3.png,0.0,-2.6097808,12.027775,-10.350315
bagnet33,1,571,NaN,bear,cat,NaN,cat10-bear1.png,cat10-bear1.png,0.0,8.908095,11.451126,-1.7981943
bagnet33,1,572,NaN,bicycle,cat,NaN,cat10-bicycle1.png,cat10-bicycle1.png,0.0,-1.9642631,12.437408,-10.183519
bagnet33,1,573,NaN,cat,cat,NaN,cat10-bird2.png,cat10-bird2.png,1.0,4.8286467,4.216766,0.43266505
bagnet33,1,574,NaN,bottle,cat,NaN,cat10-bottle1.png,cat10-bottle1.png,0.0,-0.92173606,14.75576,-11.085664
bagnet33,1,575,NaN,clock,cat,NaN,cat10-clock1.png,cat10-clock1.png,0.0,-1.9689795,14.792577,-11.852211
bagnet33,1,576,NaN,elephant,cat,NaN,cat10-elephant3.png,cat10-elephant3.png,0.0,-3.5804718,59.18086,-44.378963
bagnet33,1,577,NaN,keyboard,cat,NaN,cat10-keyboard1.png,cat10-keyboard1.png,0.0,-2.134864,8.403826,-7.451979
bagnet33,1,578,NaN,oven,cat,NaN,cat10-oven2.png,cat10-oven2.png,0.0,-1.6749498,10.606558,-8.684338
bagnet33,1,579,NaN,boat,cat,NaN,cat2-boat2.png,cat2-boat2.png,0.0,-1.8691331,10.898165,-9.0278425
bagnet33,1,580,NaN,bottle,cat,NaN,cat2-bottle3.png,cat2-bottle3.png,0.0,-0.483356,13.792755,-10.094735
bagnet33,1,581,NaN,car,cat,NaN,cat2-car3.png,cat2-car3.png,0.0,-1.1183058,13.0867,-10.0444565
bagnet33,1,582,NaN,cat,cat,NaN,cat2-cat1.png,cat2-cat1.png,1.0,9.736936,3.6519783,4.3027143
bagnet33,1,583,NaN,elephant,cat,NaN,cat2-elephant1.png,cat2-elephant1.png,0.0,-4.1748195,65.9238,-49.567207
bagnet33,1,584,NaN,knife,cat,NaN,cat2-knife3.png,cat2-knife3.png,0.0,-3.05498,9.065109,-8.570198
bagnet33,1,585,NaN,car,cat,NaN,cat2-truck3.png,cat2-truck3.png,0.0,-1.7681814,7.2043176,-6.344515
bagnet33,1,586,NaN,bear,cat,NaN,cat3-bear2.png,cat3-bear2.png,0.0,6.9711823,8.803169,-1.2954104
bagnet33,1,587,NaN,bicycle,cat,NaN,cat3-bicycle1.png,cat3-bicycle1.png,0.0,-0.52397275,9.097916,-6.8037024
bagnet33,1,588,NaN,cat,cat,NaN,cat3-cat1.png,cat3-cat1.png,1.0,8.87903,5.229215,2.580809
bagnet33,1,589,NaN,elephant,cat,NaN,cat3-elephant2.png,cat3-elephant2.png,0.0,-1.7394699,36.424133,-26.985744
bagnet33,1,590,NaN,oven,cat,NaN,cat3-oven2.png,cat3-oven2.png,0.0,-1.5582309,9.942415,-8.132185
bagnet33,1,591,NaN,truck,cat,NaN,cat3-truck3.png,cat3-truck3.png,0.0,-2.3735762,8.483023,-7.676775
bagnet33,1,592,NaN,airplane,cat,NaN,cat4-airplane1.png,cat4-airplane1.png,0.0,-2.3756135,12.694998,-10.656531
bagnet33,1,593,NaN,cat,cat,NaN,cat4-bird2.png,cat4-bird2.png,1.0,2.519932,2.4827342,0.026302837
bagnet33,1,594,NaN,bicycle,cat,NaN,cat4-car2.png,cat4-car2.png,0.0,-0.50213,9.127089,-6.8088856
bagnet33,1,595,NaN,cat,cat,NaN,cat4-cat3.png,cat4-cat3.png,1.0,4.464634,1.9686618,1.7649189
bagnet33,1,596,NaN,chair,cat,NaN,cat4-chair2.png,cat4-chair2.png,0.0,-1.4265493,9.843145,-7.9688773
bagnet33,1,597,NaN,clock,cat,NaN,cat4-clock2.png,cat4-clock2.png,0.0,-2.523426,9.528023,-8.521662
bagnet33,1,598,NaN,oven,cat,NaN,cat4-dog3.png,cat4-dog3.png,0.0,3.0838616,4.382863,-0.9185327
bagnet33,1,599,NaN,bottle,cat,NaN,cat4-keyboard2.png,cat4-keyboard2.png,0.0,-1.2248827,5.0812745,-4.4591265
bagnet33,1,600,NaN,knife,cat,NaN,cat4-knife1.png,cat4-knife1.png,0.0,-2.2870214,10.445125,-9.002987
bagnet33,1,601,NaN,oven,cat,NaN,cat4-oven1.png,cat4-oven1.png,0.0,0.11678585,11.285943,-7.8977866
bagnet33,1,602,NaN,truck,cat,NaN,cat4-truck3.png,cat4-truck3.png,0.0,-0.7989328,7.7094364,-6.016326
bagnet33,1,603,NaN,airplane,cat,NaN,cat5-airplane2.png,cat5-airplane2.png,0.0,-2.559726,9.329095,-8.406666
bagnet33,1,604,NaN,cat,cat,NaN,cat5-bear2.png,cat5-bear2.png,1.0,6.909619,6.253439,0.46398926
bagnet33,1,605,NaN,knife,cat,NaN,cat5-bicycle3.png,cat5-bicycle3.png,0.0,1.6052827,7.7383204,-4.3367124
bagnet33,1,606,NaN,boat,cat,NaN,cat5-boat1.png,cat5-boat1.png,0.0,0.6205198,13.500575,-9.107574
bagnet33,1,607,NaN,bottle,cat,NaN,cat5-bottle1.png,cat5-bottle1.png,0.0,-1.6639657,16.027502,-12.509757
bagnet33,1,608,NaN,car,cat,NaN,cat5-car2.png,cat5-car2.png,0.0,-0.075194836,14.960335,-10.631725
bagnet33,1,609,NaN,chair,cat,NaN,cat5-chair3.png,cat5-chair3.png,0.0,-0.91629344,9.561515,-7.4089293
bagnet33,1,610,NaN,cat,cat,NaN,cat5-dog3.png,cat5-dog3.png,1.0,6.724905,2.9729717,2.6530175
bagnet33,1,611,NaN,elephant,cat,NaN,cat5-elephant2.png,cat5-elephant2.png,0.0,-1.6439523,34.75363,-25.736979
bagnet33,1,612,NaN,bottle,cat,NaN,cat5-keyboard3.png,cat5-keyboard3.png,0.0,-1.7317628,6.0087633,-5.4733787
bagnet33,1,613,NaN,knife,cat,NaN,cat5-knife2.png,cat5-knife2.png,0.0,-2.5997488,13.224243,-11.189252
bagnet33,1,614,NaN,bear,cat,NaN,cat6-bear1.png,cat6-bear1.png,0.0,7.15642,10.771582,-2.5563052
bagnet33,1,615,NaN,chair,cat,NaN,cat6-chair3.png,cat6-chair3.png,0.0,-1.0402211,9.564235,-7.4984827
bagnet33,1,616,NaN,clock,cat,NaN,cat6-clock3.png,cat6-clock3.png,0.0,-3.8114064,18.372023,-15.686054
bagnet33,1,617,NaN,bottle,cat,NaN,cat6-keyboard3.png,cat6-keyboard3.png,0.0,-0.8307248,5.4722586,-4.4568825
bagnet33,1,618,NaN,oven,cat,NaN,cat6-oven1.png,cat6-oven1.png,0.0,-0.7720215,11.237621,-8.4921
bagnet33,1,619,NaN,airplane,cat,NaN,cat7-airplane2.png,cat7-airplane2.png,0.0,-2.0668824,10.200117,-8.674079
bagnet33,1,620,NaN,truck,cat,NaN,cat7-boat3.png,cat7-boat3.png,0.0,-1.8808908,6.3194427,-5.7985115
bagnet33,1,621,NaN,bottle,cat,NaN,cat7-bottle1.png,cat7-bottle1.png,0.0,-1.347516,19.223284,-14.545752
bagnet33,1,622,NaN,clock,cat,NaN,cat7-clock3.png,cat7-clock3.png,0.0,-4.360184,18.7815,-16.363642
bagnet33,1,623,NaN,cat,cat,NaN,cat7-dog3.png,cat7-dog3.png,1.0,5.614168,3.438342,1.5385414
bagnet33,1,624,NaN,elephant,cat,NaN,cat7-elephant1.png,cat7-elephant1.png,0.0,-3.0112638,58.398926,-43.42356
bagnet33,1,625,NaN,knife,cat,NaN,cat7-knife2.png,cat7-knife2.png,0.0,-2.8988264,9.997852,-9.119329
bagnet33,1,626,NaN,car,cat,NaN,cat7-truck2.png,cat7-truck2.png,0.0,-1.3833033,13.18662,-10.302492
bagnet33,1,627,NaN,bear,cat,NaN,cat8-bear1.png,cat8-bear1.png,0.0,7.163259,9.484665,-1.6414819
bagnet33,1,628,NaN,knife,cat,NaN,cat8-bicycle3.png,cat8-bicycle3.png,0.0,-0.9323063,4.761526,-4.0261474
bagnet33,1,629,NaN,cat,cat,NaN,cat8-bird2.png,cat8-bird2.png,1.0,4.2642336,4.1482253,0.082030244
bagnet33,1,630,NaN,car,cat,NaN,cat8-car2.png,cat8-car2.png,0.0,-0.46328986,8.699273,-6.478911
bagnet33,1,631,NaN,bicycle,cat,NaN,cat9-bicycle1.png,cat9-bicycle1.png,0.0,-1.2509645,11.358299,-8.916096
bagnet33,1,632,NaN,bird,cat,NaN,cat9-bird3.png,cat9-bird3.png,0.0,-0.1660911,5.3215976,-3.8803818
bagnet33,1,633,NaN,boat,cat,NaN,cat9-boat2.png,cat9-boat2.png,0.0,-1.8533384,10.244097,-8.554178
bagnet33,1,634,NaN,bottle,cat,NaN,cat9-bottle2.png,cat9-bottle2.png,0.0,-1.6449021,16.709871,-12.978785
bagnet33,1,635,NaN,cat,cat,NaN,cat9-cat3.png,cat9-cat3.png,1.0,5.2120137,1.717485,2.471005
bagnet33,1,636,NaN,chair,cat,NaN,cat9-chair2.png,cat9-chair2.png,0.0,-1.4300545,8.811299,-7.241731
bagnet33,1,637,NaN,clock,cat,NaN,cat9-clock2.png,cat9-clock2.png,0.0,-3.0440273,7.8558345,-7.7073665
bagnet33,1,638,NaN,cat,cat,NaN,cat9-dog2.png,cat9-dog2.png,1.0,4.4967437,3.2312646,0.89482886
bagnet33,1,639,NaN,knife,cat,NaN,cat9-knife2.png,cat9-knife2.png,0.0,-2.427291,9.863645,-8.691004
bagnet33,1,640,NaN,car,cat,NaN,cat9-truck1.png,cat9-truck1.png,0.0,-0.8819426,14.393626,-10.801458
bagnet33,1,641,NaN,airplane,chair,NaN,chair1-airplane2.png,chair1-airplane2.png,0.0,2.9332638,8.165194,-3.699533
bagnet33,1,642,NaN,bear,chair,NaN,chair1-bear1.png,chair1-bear1.png,0.0,0.23651302,8.977519,-6.1808248
bagnet33,1,643,NaN,cat,chair,NaN,chair1-cat3.png,chair1-cat3.png,0.0,-2.7371938,4.1562304,-4.874387
bagnet33,1,644,NaN,chair,chair,NaN,chair1-chair1.png,chair1-chair1.png,1.0,12.757354,6.687052,4.2923517
bagnet33,1,645,NaN,keyboard,chair,NaN,chair1-clock2.png,chair1-clock2.png,0.0,3.6126137,7.636908,-2.8456059
bagnet33,1,646,NaN,cat,chair,NaN,chair1-dog1.png,chair1-dog1.png,0.0,-1.0857229,3.027377,-2.908401
bagnet33,1,647,NaN,elephant,chair,NaN,chair1-elephant1.png,chair1-elephant1.png,0.0,-3.1202214,59.22476,-44.084557
bagnet33,1,648,NaN,oven,chair,NaN,chair1-oven3.png,chair1-oven3.png,0.0,2.5816767,12.362101,-6.9158044
bagnet33,1,649,NaN,truck,chair,NaN,chair1-truck3.png,chair1-truck3.png,0.0,3.2574477,6.9354258,-2.6007233
bagnet33,1,650,NaN,airplane,chair,NaN,chair10-airplane2.png,chair10-airplane2.png,0.0,4.030925,7.966337,-2.7827568
bagnet33,1,651,NaN,bicycle,chair,NaN,chair10-bicycle1.png,chair10-bicycle1.png,0.0,2.5267599,17.776718,-10.783349
bagnet33,1,652,NaN,knife,chair,NaN,chair10-bird3.png,chair10-bird3.png,0.0,-1.3772788,6.480004,-5.555938
bagnet33,1,653,NaN,bottle,chair,NaN,chair10-bottle3.png,chair10-bottle3.png,0.0,-0.3596058,18.514158,-13.345767
bagnet33,1,654,NaN,bicycle,chair,NaN,chair10-car2.png,chair10-car2.png,0.0,2.624,9.851039,-5.110288
bagnet33,1,655,NaN,cat,chair,NaN,chair10-cat1.png,chair10-cat1.png,0.0,1.2108988,5.143035,-2.78044
bagnet33,1,656,NaN,clock,chair,NaN,chair10-clock1.png,chair10-clock1.png,0.0,1.8574147,16.166574,-10.118104
bagnet33,1,657,NaN,dog,chair,NaN,chair10-dog1.png,chair10-dog1.png,0.0,-0.5163647,2.9757931,-2.4693286
bagnet33,1,658,NaN,oven,chair,NaN,chair10-oven1.png,chair10-oven1.png,0.0,6.818008,13.79702,-4.934907
bagnet33,1,659,NaN,bear,chair,NaN,chair2-bear2.png,chair2-bear2.png,0.0,-0.925735,6.6606555,-5.3643885
bagnet33,1,660,NaN,boat,chair,NaN,chair2-boat1.png,chair2-boat1.png,0.0,5.7148395,8.616766,-2.051972
bagnet33,1,661,NaN,bottle,chair,NaN,chair2-keyboard2.png,chair2-keyboard2.png,0.0,0.21437927,7.5059586,-5.1559253
bagnet33,1,662,NaN,knife,chair,NaN,chair2-knife1.png,chair2-knife1.png,0.0,2.513668,9.823463,-5.168806
bagnet33,1,663,NaN,airplane,chair,NaN,chair3-airplane2.png,chair3-airplane2.png,0.0,3.465184,9.216732,-4.0669584
bagnet33,1,664,NaN,knife,chair,NaN,chair3-bicycle3.png,chair3-bicycle3.png,0.0,2.7202349,5.105512,-1.6866457
bagnet33,1,665,NaN,bottle,chair,NaN,chair3-bottle3.png,chair3-bottle3.png,0.0,1.0536023,18.541096,-12.365525
bagnet33,1,666,NaN,car,chair,NaN,chair3-car3.png,chair3-car3.png,0.0,4.02475,13.071025,-6.396682
bagnet33,1,667,NaN,keyboard,chair,NaN,chair3-dog2.png,chair3-dog2.png,0.0,-0.56993675,2.336102,-2.0548797
bagnet33,1,668,NaN,knife,chair,NaN,chair3-knife1.png,chair3-knife1.png,0.0,3.9332325,12.304513,-5.9193892
bagnet33,1,669,NaN,elephant,chair,NaN,chair4-bear2.png,chair4-bear2.png,0.0,-0.31676042,6.5836387,-4.879319
bagnet33,1,670,NaN,cat,chair,NaN,chair4-cat2.png,chair4-cat2.png,0.0,0.059356093,6.5186353,-4.5674
bagnet33,1,671,NaN,chair,chair,NaN,chair4-chair3.png,chair4-chair3.png,1.0,9.082804,6.082823,2.121307
bagnet33,1,672,NaN,keyboard,chair,NaN,chair4-keyboard2.png,chair4-keyboard2.png,0.0,-0.067113936,6.5061026,-4.647966
bagnet33,1,673,NaN,oven,chair,NaN,chair4-oven2.png,chair4-oven2.png,0.0,2.9436417,6.681167,-2.6428297
bagnet33,1,674,NaN,car,chair,NaN,chair4-truck2.png,chair4-truck2.png,0.0,5.5873194,10.060325,-3.1628923
bagnet33,1,675,NaN,bicycle,chair,NaN,chair5-bicycle1.png,chair5-bicycle1.png,0.0,1.3227297,13.184659,-8.3876505
bagnet33,1,676,NaN,bird,chair,NaN,chair5-bird1.png,chair5-bird1.png,0.0,-1.2347105,6.9139595,-5.76198
bagnet33,1,677,NaN,chair,chair,NaN,chair5-boat3.png,chair5-boat3.png,1.0,4.5799713,4.221611,0.25339898
bagnet33,1,678,NaN,bottle,chair,NaN,chair5-bottle3.png,chair5-bottle3.png,0.0,-1.3471982,17.302153,-13.187083
bagnet33,1,679,NaN,car,chair,NaN,chair5-car1.png,chair5-car1.png,0.0,4.7604156,14.257909,-6.715742
bagnet33,1,680,NaN,cat,chair,NaN,chair5-cat3.png,chair5-cat3.png,0.0,-3.4296885,4.2081785,-5.400788
bagnet33,1,681,NaN,car,chair,NaN,chair5-clock2.png,chair5-clock2.png,0.0,2.1383739,9.873118,-5.4692903
bagnet33,1,682,NaN,keyboard,chair,NaN,chair5-keyboard2.png,chair5-keyboard2.png,0.0,-0.8763375,6.094058,-4.928814
bagnet33,1,683,NaN,knife,chair,NaN,chair5-knife3.png,chair5-knife3.png,0.0,3.9624326,10.144136,-4.3711247
bagnet33,1,684,NaN,oven,chair,NaN,chair5-oven2.png,chair5-oven2.png,0.0,1.9541142,10.738776,-6.2116942
bagnet33,1,685,NaN,truck,chair,NaN,chair5-truck3.png,chair5-truck3.png,0.0,4.8726377,7.662362,-1.972633
bagnet33,1,686,NaN,bird,chair,NaN,chair6-bird2.png,chair6-bird2.png,0.0,-0.5850597,4.17534,-3.366111
bagnet33,1,687,NaN,cat,chair,NaN,chair6-dog1.png,chair6-dog1.png,0.0,-0.6997539,2.908054,-2.5511057
bagnet33,1,688,NaN,elephant,chair,NaN,chair6-elephant2.png,chair6-elephant2.png,0.0,-4.0292463,31.16817,-24.888334
bagnet33,1,689,NaN,car,chair,NaN,chair6-truck2.png,chair6-truck2.png,0.0,7.019146,8.616708,-1.1296468
bagnet33,1,690,NaN,airplane,chair,NaN,chair7-airplane1.png,chair7-airplane1.png,0.0,0.20363617,13.650236,-9.508183
bagnet33,1,691,NaN,bird,chair,NaN,chair7-bird1.png,chair7-bird1.png,0.0,0.21632737,6.5870748,-4.504799
bagnet33,1,692,NaN,truck,chair,NaN,chair7-boat3.png,chair7-boat3.png,0.0,3.2282991,7.229917,-2.8295712
bagnet33,1,693,NaN,bottle,chair,NaN,chair7-bottle1.png,chair7-bottle1.png,0.0,1.901213,16.754076,-10.502561
bagnet33,1,694,NaN,bicycle,chair,NaN,chair7-car2.png,chair7-car2.png,0.0,2.6393924,10.332352,-5.439744
bagnet33,1,695,NaN,cat,chair,NaN,chair7-cat1.png,chair7-cat1.png,0.0,1.1410795,4.004317,-2.0246146
bagnet33,1,696,NaN,chair,chair,NaN,chair7-chair1.png,chair7-chair1.png,1.0,13.550284,9.936272,2.5554929
bagnet33,1,697,NaN,clock,chair,NaN,chair7-clock3.png,chair7-clock3.png,0.0,0.5555369,14.968463,-10.191478
bagnet33,1,698,NaN,elephant,chair,NaN,chair7-elephant1.png,chair7-elephant1.png,0.0,-3.2471743,51.878937,-38.980045
bagnet33,1,699,NaN,knife,chair,NaN,chair7-knife2.png,chair7-knife2.png,0.0,2.3334587,11.839327,-6.721664
bagnet33,1,700,NaN,truck,chair,NaN,chair7-truck3.png,chair7-truck3.png,0.0,5.368416,7.666378,-1.6249046
bagnet33,1,701,NaN,airplane,chair,NaN,chair8-airplane1.png,chair8-airplane1.png,0.0,1.6787188,10.411919,-6.175305
bagnet33,1,702,NaN,elephant,chair,NaN,chair8-bear1.png,chair8-bear1.png,0.0,0.100210324,6.2829943,-4.3718886
bagnet33,1,703,NaN,bicycle,chair,NaN,chair8-bicycle3.png,chair8-bicycle3.png,0.0,3.2385914,4.370926,-0.8006814
bagnet33,1,704,NaN,boat,chair,NaN,chair8-boat1.png,chair8-boat1.png,0.0,6.227382,8.530017,-1.6282086
bagnet33,1,705,NaN,car,chair,NaN,chair8-car1.png,chair8-car1.png,0.0,5.445565,11.56248,-4.325312
bagnet33,1,706,NaN,chair,chair,NaN,chair8-chair3.png,chair8-chair3.png,1.0,5.133625,5.059827,0.052183196
bagnet33,1,707,NaN,clock,chair,NaN,chair8-clock3.png,chair8-clock3.png,0.0,-0.88862926,19.949163,-14.734546
bagnet33,1,708,NaN,elephant,chair,NaN,chair8-elephant1.png,chair8-elephant1.png,0.0,-2.9965277,49.888016,-37.39502
bagnet33,1,709,NaN,bottle,chair,NaN,chair8-keyboard3.png,chair8-keyboard3.png,0.0,-0.872033,3.8247783,-3.3211472
bagnet33,1,710,NaN,knife,chair,NaN,chair8-knife2.png,chair8-knife2.png,0.0,2.3961806,7.897403,-3.8899515
bagnet33,1,711,NaN,oven,chair,NaN,chair8-oven1.png,chair8-oven1.png,0.0,4.6775107,9.037637,-3.0830748
bagnet33,1,712,NaN,bear,chair,NaN,chair9-bear1.png,chair9-bear1.png,0.0,-0.63693726,9.279261,-7.011811
bagnet33,1,713,NaN,knife,chair,NaN,chair9-bicycle3.png,chair9-bicycle3.png,0.0,2.6013463,4.199896,-1.1303452
bagnet33,1,714,NaN,oven,chair,NaN,chair9-bird3.png,chair9-bird3.png,0.0,-1.3465241,5.019718,-4.501613
bagnet33,1,715,NaN,boat,chair,NaN,chair9-boat2.png,chair9-boat2.png,0.0,1.9770491,8.169097,-4.3784394
bagnet33,1,716,NaN,bottle,chair,NaN,chair9-bottle3.png,chair9-bottle3.png,0.0,-0.9312677,16.734722,-12.491741
bagnet33,1,717,NaN,chair,chair,NaN,chair9-chair3.png,chair9-chair3.png,1.0,10.9983015,6.2334547,3.3692555
bagnet33,1,718,NaN,cat,chair,NaN,chair9-dog2.png,chair9-dog2.png,0.0,-1.379904,2.4961631,-2.7407935
bagnet33,1,719,NaN,elephant,chair,NaN,chair9-elephant1.png,chair9-elephant1.png,0.0,-2.7266936,45.497704,-34.099796
bagnet33,1,720,NaN,keyboard,chair,NaN,chair9-keyboard2.png,chair9-keyboard2.png,0.0,0.072374016,6.498133,-4.543698
bagnet33,1,721,NaN,bear,clock,NaN,clock1-bear1.png,clock1-bear1.png,0.0,1.4776014,7.759488,-4.4419646
bagnet33,1,722,NaN,truck,clock,NaN,clock1-boat3.png,clock1-boat3.png,0.0,1.3594228,8.459601,-5.0205846
bagnet33,1,723,NaN,car,clock,NaN,clock1-car1.png,clock1-car1.png,0.0,-0.28935018,15.178993,-10.937771
bagnet33,1,724,NaN,clock,clock,NaN,clock1-clock2.png,clock1-clock2.png,1.0,8.353777,6.073036,1.6127273
bagnet33,1,725,NaN,cat,clock,NaN,clock1-dog2.png,clock1-dog2.png,0.0,1.064161,3.7933617,-1.9298365
bagnet33,1,726,NaN,elephant,clock,NaN,clock1-elephant2.png,clock1-elephant2.png,0.0,-2.3867953,31.780846,-24.160172
bagnet33,1,727,NaN,car,clock,NaN,clock1-truck3.png,clock1-truck3.png,0.0,3.2390518,8.461762,-3.6930141
bagnet33,1,728,NaN,airplane,clock,NaN,clock10-airplane1.png,clock10-airplane1.png,0.0,8.130481,11.985358,-2.72581
bagnet33,1,729,NaN,oven,clock,NaN,clock10-bird3.png,clock10-bird3.png,0.0,1.8035463,4.4428554,-1.8662733
bagnet33,1,730,NaN,boat,clock,NaN,clock10-boat2.png,clock10-boat2.png,0.0,2.9709713,10.2039385,-5.1144805
bagnet33,1,731,NaN,bottle,clock,NaN,clock10-bottle1.png,clock10-bottle1.png,0.0,3.410735,14.710486,-7.990131
bagnet33,1,732,NaN,cat,clock,NaN,clock10-cat1.png,clock10-cat1.png,0.0,1.8282868,3.9016974,-1.4661226
bagnet33,1,733,NaN,clock,clock,NaN,clock10-clock3.png,clock10-clock3.png,1.0,25.84903,10.449164,10.889349
bagnet33,1,734,NaN,oven,clock,NaN,clock10-dog3.png,clock10-dog3.png,0.0,0.9913637,4.02379,-2.1442492
bagnet33,1,735,NaN,knife,clock,NaN,clock10-knife3.png,clock10-knife3.png,0.0,3.3557432,8.053262,-3.3216472
bagnet33,1,736,NaN,truck,clock,NaN,clock10-oven2.png,clock10-oven2.png,0.0,5.4081445,10.524369,-3.6177173
bagnet33,1,737,NaN,car,clock,NaN,clock10-truck2.png,clock10-truck2.png,0.0,0.23447101,10.970173,-7.5912876
bagnet33,1,738,NaN,elephant,clock,NaN,clock2-bear2.png,clock2-bear2.png,0.0,-0.10937348,5.4250927,-3.9134586
bagnet33,1,739,NaN,bicycle,clock,NaN,clock2-bicycle1.png,clock2-bicycle1.png,0.0,7.5354524,12.97518,-3.8464682
bagnet33,1,740,NaN,bottle,clock,NaN,clock2-bottle3.png,clock2-bottle3.png,0.0,4.1732483,19.262083,-10.669417
bagnet33,1,741,NaN,clock,clock,NaN,clock2-clock3.png,clock2-clock3.png,1.0,28.507586,11.162498,12.264829
bagnet33,1,742,NaN,cat,clock,NaN,clock2-dog1.png,clock2-dog1.png,0.0,1.3141819,3.281514,-1.3911139
bagnet33,1,743,NaN,elephant,clock,NaN,clock2-elephant2.png,clock2-elephant2.png,0.0,0.81070083,22.828838,-15.569174
bagnet33,1,744,NaN,knife,clock,NaN,clock2-knife1.png,clock2-knife1.png,0.0,5.333433,8.50943,-2.2457688
bagnet33,1,745,NaN,elephant,clock,NaN,clock3-bear3.png,clock3-bear3.png,0.0,1.0364733,5.637006,-3.2530677
bagnet33,1,746,NaN,bicycle,clock,NaN,clock3-bicycle2.png,clock3-bicycle2.png,0.0,7.73725,12.218477,-3.1687064
bagnet33,1,747,NaN,bottle,clock,NaN,clock3-bird1.png,clock3-bird1.png,0.0,2.007703,4.2674623,-1.5978911
bagnet33,1,748,NaN,car,clock,NaN,clock3-car2.png,clock3-car2.png,0.0,2.1507409,12.182567,-7.093572
bagnet33,1,749,NaN,cat,clock,NaN,clock3-cat1.png,clock3-cat1.png,0.0,2.4639266,3.5885184,-0.79520655
bagnet33,1,750,NaN,clock,clock,NaN,clock3-dog2.png,clock3-dog2.png,1.0,2.901603,1.9936321,0.6420324
bagnet33,1,751,NaN,elephant,clock,NaN,clock3-elephant3.png,clock3-elephant3.png,0.0,-2.2922475,36.56363,-27.475254
bagnet33,1,752,NaN,bottle,clock,NaN,clock3-keyboard3.png,clock3-keyboard3.png,0.0,5.0581164,9.189749,-2.9215052
bagnet33,1,753,NaN,airplane,clock,NaN,clock4-airplane1.png,clock4-airplane1.png,0.0,8.864424,13.994742,-3.6276832
bagnet33,1,754,NaN,knife,clock,NaN,clock4-bird3.png,clock4-bird3.png,0.0,4.375686,5.969245,-1.1268163
bagnet33,1,755,NaN,truck,clock,NaN,clock4-boat3.png,clock4-boat3.png,0.0,2.9047863,6.682393,-2.6711714
bagnet33,1,756,NaN,bottle,clock,NaN,clock4-bottle3.png,clock4-bottle3.png,0.0,3.553078,23.815714,-14.3278475
bagnet33,1,757,NaN,car,clock,NaN,clock4-car2.png,clock4-car2.png,0.0,2.3383381,12.202393,-6.9749403
bagnet33,1,758,NaN,keyboard,clock,NaN,clock4-chair1.png,clock4-chair1.png,0.0,1.5676721,10.325373,-6.19263
bagnet33,1,759,NaN,elephant,clock,NaN,clock4-elephant2.png,clock4-elephant2.png,0.0,-0.5255948,30.135605,-21.680742
bagnet33,1,760,NaN,knife,clock,NaN,clock4-knife1.png,clock4-knife1.png,0.0,5.2625685,12.2928915,-4.971189
bagnet33,1,761,NaN,oven,clock,NaN,clock4-oven1.png,clock4-oven1.png,0.0,5.78295,10.744738,-3.5085137
bagnet33,1,762,NaN,clock,clock,NaN,clock5-airplane1.png,clock5-airplane1.png,1.0,12.117932,9.727639,1.6901925
bagnet33,1,763,NaN,bicycle,clock,NaN,clock5-bicycle1.png,clock5-bicycle1.png,0.0,6.013195,11.974434,-4.2152324
bagnet33,1,764,NaN,chair,clock,NaN,clock5-chair3.png,clock5-chair3.png,0.0,1.8765488,8.003167,-4.3321733
bagnet33,1,765,NaN,clock,clock,NaN,clock5-clock2.png,clock5-clock2.png,1.0,25.128029,7.3442764,12.575012
bagnet33,1,766,NaN,elephant,clock,NaN,clock5-elephant2.png,clock5-elephant2.png,0.0,1.6780561,23.499668,-15.43021
bagnet33,1,767,NaN,keyboard,clock,NaN,clock5-keyboard1.png,clock5-keyboard1.png,0.0,6.0308766,7.989397,-1.384883
bagnet33,1,768,NaN,oven,clock,NaN,clock5-oven1.png,clock5-oven1.png,0.0,9.215598,10.544745,-0.93984914
bagnet33,1,769,NaN,bicycle,clock,NaN,clock6-bicycle1.png,clock6-bicycle1.png,0.0,8.175285,11.174215,-2.1205637
bagnet33,1,770,NaN,oven,clock,NaN,clock6-bird3.png,clock6-bird3.png,0.0,3.3047478,3.7058938,-0.28365302
bagnet33,1,771,NaN,bottle,clock,NaN,clock6-bottle1.png,clock6-bottle1.png,0.0,3.8401546,14.65459,-7.6469603
bagnet33,1,772,NaN,car,clock,NaN,clock6-car2.png,clock6-car2.png,0.0,0.53212184,12.465889,-8.438448
bagnet33,1,773,NaN,chair,clock,NaN,clock6-chair3.png,clock6-chair3.png,0.0,1.2716032,8.926343,-5.412719
bagnet33,1,774,NaN,clock,clock,NaN,clock6-clock2.png,clock6-clock2.png,1.0,16.136515,6.0005784,7.1671896
bagnet33,1,775,NaN,knife,clock,NaN,clock6-knife2.png,clock6-knife2.png,0.0,5.0512705,7.366885,-1.6373869
bagnet33,1,776,NaN,oven,clock,NaN,clock6-oven1.png,clock6-oven1.png,0.0,8.230976,14.65137,-4.539904
bagnet33,1,777,NaN,truck,clock,NaN,clock6-truck3.png,clock6-truck3.png,0.0,5.8960624,10.2017975,-3.0446146
bagnet33,1,778,NaN,elephant,clock,NaN,clock7-bear2.png,clock7-bear2.png,0.0,0.066470586,5.322036,-3.716246
bagnet33,1,779,NaN,bicycle,clock,NaN,clock7-bicycle1.png,clock7-bicycle1.png,0.0,5.483395,11.626514,-4.3438416
bagnet33,1,780,NaN,truck,clock,NaN,clock7-boat3.png,clock7-boat3.png,0.0,2.8660088,4.3151617,-1.0247059
bagnet33,1,781,NaN,bottle,clock,NaN,clock7-bottle2.png,clock7-bottle2.png,0.0,1.0615879,17.902807,-11.908541
bagnet33,1,782,NaN,car,clock,NaN,clock7-car1.png,clock7-car1.png,0.0,0.41028705,11.846654,-8.086733
bagnet33,1,783,NaN,cat,clock,NaN,clock7-cat2.png,clock7-cat2.png,0.0,4.5124016,7.782047,-2.3119884
bagnet33,1,784,NaN,clock,clock,NaN,clock7-dog2.png,clock7-dog2.png,1.0,3.7628968,2.4283342,0.94367826
bagnet33,1,785,NaN,keyboard,clock,NaN,clock7-keyboard2.png,clock7-keyboard2.png,0.0,5.326508,7.306264,-1.3998989
bagnet33,1,786,NaN,airplane,clock,NaN,clock7-truck3.png,clock7-truck3.png,0.0,5.898412,7.837033,-1.3708118
bagnet33,1,787,NaN,airplane,clock,NaN,clock8-airplane2.png,clock8-airplane2.png,0.0,6.565628,8.070507,-1.0641102
bagnet33,1,788,NaN,elephant,clock,NaN,clock8-bear2.png,clock8-bear2.png,0.0,-0.41441706,10.157867,-7.475734
bagnet33,1,789,NaN,boat,clock,NaN,clock8-boat1.png,clock8-boat1.png,0.0,3.8068354,10.536704,-4.758736
bagnet33,1,790,NaN,cat,clock,NaN,clock8-cat1.png,clock8-cat1.png,0.0,2.2713478,4.233493,-1.3874462
bagnet33,1,791,NaN,chair,clock,NaN,clock8-chair2.png,clock8-chair2.png,0.0,3.1310394,10.011132,-4.86496
bagnet33,1,792,NaN,keyboard,clock,NaN,clock8-keyboard1.png,clock8-keyboard1.png,0.0,7.12802,9.05916,-1.3655225
bagnet33,1,793,NaN,knife,clock,NaN,clock8-knife1.png,clock8-knife1.png,0.0,5.594803,10.0781975,-3.1702387
bagnet33,1,794,NaN,oven,clock,NaN,clock8-oven3.png,clock8-oven3.png,0.0,8.729426,9.462401,-0.5182916
bagnet33,1,795,NaN,car,clock,NaN,clock8-truck2.png,clock8-truck2.png,0.0,3.168588,10.3962965,-5.110762
bagnet33,1,796,NaN,airplane,clock,NaN,clock9-airplane1.png,clock9-airplane1.png,0.0,11.1275,16.31548,-3.6684556
bagnet33,1,797,NaN,clock,clock,NaN,clock9-bird2.png,clock9-bird2.png,1.0,3.1039085,3.0072365,0.06835747
bagnet33,1,798,NaN,cat,clock,NaN,clock9-cat1.png,clock9-cat1.png,0.0,2.5655968,5.4982777,-2.0737185
bagnet33,1,799,NaN,chair,clock,NaN,clock9-chair3.png,clock9-chair3.png,0.0,2.1212711,12.078108,-7.040547
bagnet33,1,800,NaN,keyboard,clock,NaN,clock9-keyboard2.png,clock9-keyboard2.png,0.0,6.3558373,8.391825,-1.4396605
bagnet33,1,801,NaN,airplane,dog,NaN,dog1-airplane3.png,dog1-airplane3.png,0.0,-1.9009295,10.40056,-8.698467
bagnet33,1,802,NaN,bear,dog,NaN,dog1-bear1.png,dog1-bear1.png,0.0,0.30737323,11.3424225,-7.8029585
bagnet33,1,803,NaN,bird,dog,NaN,dog1-bird1.png,dog1-bird1.png,0.0,1.4884715,6.560805,-3.5866814
bagnet33,1,804,NaN,truck,dog,NaN,dog1-boat3.png,dog1-boat3.png,0.0,-1.4109712,4.0074387,-3.8313944
bagnet33,1,805,NaN,car,dog,NaN,dog1-car2.png,dog1-car2.png,0.0,-0.9698972,13.292462,-10.0850115
bagnet33,1,806,NaN,dog,dog,NaN,dog1-cat3.png,dog1-cat3.png,1.0,2.7611115,2.7391481,0.01553044
bagnet33,1,807,NaN,chair,dog,NaN,dog1-chair1.png,dog1-chair1.png,0.0,-0.16427787,10.708874,-7.6884794
bagnet33,1,808,NaN,dog,dog,NaN,dog1-dog2.png,dog1-dog2.png,1.0,4.384496,1.5192095,2.0260637
bagnet33,1,809,NaN,knife,dog,NaN,dog1-knife3.png,dog1-knife3.png,0.0,-1.0976478,7.203453,-5.869765
bagnet33,1,810,NaN,airplane,dog,NaN,dog10-airplane1.png,dog10-airplane1.png,0.0,-2.2487025,11.8483715,-9.968137
bagnet33,1,811,NaN,bicycle,dog,NaN,dog10-bicycle1.png,dog10-bicycle1.png,0.0,-1.9502493,10.800907,-9.01643
bagnet33,1,812,NaN,bottle,dog,NaN,dog10-bottle1.png,dog10-bottle1.png,0.0,-0.84034234,12.642325,-9.533686
bagnet33,1,813,NaN,car,dog,NaN,dog10-car3.png,dog10-car3.png,0.0,-1.0619731,14.845761,-11.2484665
bagnet33,1,814,NaN,clock,dog,NaN,dog10-clock1.png,dog10-clock1.png,0.0,-2.929832,18.239157,-14.968736
bagnet33,1,815,NaN,dog,dog,NaN,dog10-dog1.png,dog10-dog1.png,1.0,4.6511207,4.2291994,0.2983434
bagnet33,1,816,NaN,elephant,dog,NaN,dog10-elephant1.png,dog10-elephant1.png,0.0,0.57592165,53.37966,-37.337883
bagnet33,1,817,NaN,keyboard,dog,NaN,dog10-keyboard2.png,dog10-keyboard2.png,0.0,-2.1455772,7.693325,-6.9571548
bagnet33,1,818,NaN,oven,dog,NaN,dog10-oven2.png,dog10-oven2.png,0.0,-1.7106156,9.61196,-8.00627
bagnet33,1,819,NaN,car,dog,NaN,dog10-truck2.png,dog10-truck2.png,0.0,-0.942909,12.318334,-9.377115
bagnet33,1,820,NaN,airplane,dog,NaN,dog2-airplane2.png,dog2-airplane2.png,0.0,-2.291668,12.553552,-10.497155
bagnet33,1,821,NaN,bicycle,dog,NaN,dog2-bicycle2.png,dog2-bicycle2.png,0.0,-1.8855987,9.142012,-7.7976985
bagnet33,1,822,NaN,bottle,dog,NaN,dog2-bottle2.png,dog2-bottle2.png,0.0,-2.695609,17.808268,-14.49843
bagnet33,1,823,NaN,cat,dog,NaN,dog2-cat1.png,dog2-cat1.png,0.0,3.44244,5.4961696,-1.4522061
bagnet33,1,824,NaN,bear,dog,NaN,dog2-dog3.png,dog2-dog3.png,0.0,3.242134,4.8168244,-1.1134742
bagnet33,1,825,NaN,knife,dog,NaN,dog2-knife3.png,dog2-knife3.png,0.0,-1.5207384,7.453459,-6.345716
bagnet33,1,826,NaN,elephant,dog,NaN,dog3-bear3.png,dog3-bear3.png,0.0,1.5048717,7.4320984,-4.191182
bagnet33,1,827,NaN,elephant,dog,NaN,dog3-bird2.png,dog3-bird2.png,0.0,1.9502308,2.8985915,-0.6705923
bagnet33,1,828,NaN,boat,dog,NaN,dog3-boat1.png,dog3-boat1.png,0.0,-1.0586284,13.859029,-10.548376
bagnet33,1,829,NaN,clock,dog,NaN,dog3-clock1.png,dog3-clock1.png,0.0,-3.040431,14.427887,-12.351967
bagnet33,1,830,NaN,dog,dog,NaN,dog3-dog1.png,dog3-dog1.png,1.0,4.392532,3.2054868,0.8393676
bagnet33,1,831,NaN,elephant,dog,NaN,dog3-elephant2.png,dog3-elephant2.png,0.0,-0.88242805,33.484974,-24.301422
bagnet33,1,832,NaN,keyboard,dog,NaN,dog3-keyboard1.png,dog3-keyboard1.png,0.0,-0.70065355,8.918905,-6.802055
bagnet33,1,833,NaN,knife,dog,NaN,dog3-knife3.png,dog3-knife3.png,0.0,-1.333412,8.944654,-7.2676907
bagnet33,1,834,NaN,car,dog,NaN,dog3-truck2.png,dog3-truck2.png,0.0,-1.1865057,12.125981,-9.41335
bagnet33,1,835,NaN,airplane,dog,NaN,dog4-airplane3.png,dog4-airplane3.png,0.0,-1.7453938,8.365971,-7.1498146
bagnet33,1,836,NaN,bicycle,dog,NaN,dog4-bicycle1.png,dog4-bicycle1.png,0.0,-2.573589,11.64415,-10.05346
bagnet33,1,837,NaN,bird,dog,NaN,dog4-bird1.png,dog4-bird1.png,0.0,-0.80089164,8.408306,-6.5118866
bagnet33,1,838,NaN,bottle,dog,NaN,dog4-bottle2.png,dog4-bottle2.png,0.0,-2.4759564,15.2129,-12.507911
bagnet33,1,839,NaN,cat,dog,NaN,dog4-cat3.png,dog4-cat3.png,0.0,1.4256848,3.9704907,-1.7994496
bagnet33,1,840,NaN,chair,dog,NaN,dog4-chair1.png,dog4-chair1.png,0.0,-0.974026,9.293549,-7.2602715
bagnet33,1,841,NaN,clock,dog,NaN,dog4-clock1.png,dog4-clock1.png,0.0,-3.136915,14.753545,-12.650465
bagnet33,1,842,NaN,elephant,dog,NaN,dog4-elephant2.png,dog4-elephant2.png,0.0,-0.9578653,30.089653,-21.95391
bagnet33,1,843,NaN,bottle,dog,NaN,dog4-keyboard2.png,dog4-keyboard2.png,0.0,-1.8924133,5.5525985,-5.264418
bagnet33,1,844,NaN,oven,dog,NaN,dog4-oven1.png,dog4-oven1.png,0.0,-1.6730676,11.833835,-9.550822
bagnet33,1,845,NaN,car,dog,NaN,dog4-truck2.png,dog4-truck2.png,0.0,-0.81688,11.729411,-8.871568
bagnet33,1,846,NaN,elephant,dog,NaN,dog5-bear3.png,dog5-bear3.png,0.0,3.4705575,9.953257,-4.583961
bagnet33,1,847,NaN,truck,dog,NaN,dog5-boat3.png,dog5-boat3.png,0.0,-1.909824,7.071739,-6.3509245
bagnet33,1,848,NaN,car,dog,NaN,dog5-car3.png,dog5-car3.png,0.0,-1.9498363,13.806888,-11.141686
bagnet33,1,849,NaN,elephant,dog,NaN,dog5-elephant1.png,dog5-elephant1.png,0.0,-0.06737326,60.958916,-43.152103
bagnet33,1,850,NaN,knife,dog,NaN,dog5-knife2.png,dog5-knife2.png,0.0,-3.709417,9.9630785,-9.667914
bagnet33,1,851,NaN,oven,dog,NaN,dog5-oven1.png,dog5-oven1.png,0.0,-1.7378261,11.655374,-9.470423
bagnet33,1,852,NaN,car,dog,NaN,dog5-truck2.png,dog5-truck2.png,0.0,-1.0456148,11.259338,-8.700916
bagnet33,1,853,NaN,bicycle,dog,NaN,dog6-bicycle1.png,dog6-bicycle1.png,0.0,-1.8513827,10.70076,-8.875706
bagnet33,1,854,NaN,bird,dog,NaN,dog6-bird1.png,dog6-bird1.png,0.0,-1.4167556,8.517328,-7.0244584
bagnet33,1,855,NaN,cat,dog,NaN,dog6-cat1.png,dog6-cat1.png,0.0,2.806601,5.8612,-2.1599276
bagnet33,1,856,NaN,clock,dog,NaN,dog6-clock1.png,dog6-clock1.png,0.0,-3.2105393,19.458187,-16.029211
bagnet33,1,857,NaN,elephant,dog,NaN,dog6-elephant2.png,dog6-elephant2.png,0.0,-0.78536147,37.515118,-27.08253
bagnet33,1,858,NaN,car,dog,NaN,dog6-truck2.png,dog6-truck2.png,0.0,-0.6465901,14.779918,-10.908189
bagnet33,1,859,NaN,knife,dog,NaN,dog7-bird3.png,dog7-bird3.png,0.0,1.5766015,5.242104,-2.5919018
bagnet33,1,860,NaN,car,dog,NaN,dog7-car2.png,dog7-car2.png,0.0,-2.6256483,12.735092,-10.861684
bagnet33,1,861,NaN,chair,dog,NaN,dog7-chair2.png,dog7-chair2.png,0.0,-0.7840974,11.713531,-8.837158
bagnet33,1,862,NaN,bottle,dog,NaN,dog7-keyboard3.png,dog7-keyboard3.png,0.0,-2.148122,4.69445,-4.8384295
bagnet33,1,863,NaN,knife,dog,NaN,dog7-knife3.png,dog7-knife3.png,0.0,-1.5948251,12.866972,-10.226035
bagnet33,1,864,NaN,oven,dog,NaN,dog7-oven2.png,dog7-oven2.png,0.0,-1.5851269,12.319197,-9.831841
bagnet33,1,865,NaN,elephant,dog,NaN,dog8-bear3.png,dog8-bear3.png,0.0,2.1783156,7.9071484,-4.0508966
bagnet33,1,866,NaN,truck,dog,NaN,dog8-boat3.png,dog8-boat3.png,0.0,-0.97578377,6.3265257,-5.1635127
bagnet33,1,867,NaN,bottle,dog,NaN,dog8-bottle2.png,dog8-bottle2.png,0.0,-2.63193,18.62283,-15.029385
bagnet33,1,868,NaN,chair,dog,NaN,dog8-chair3.png,dog8-chair3.png,0.0,-1.8578821,6.882639,-6.180482
bagnet33,1,869,NaN,car,dog,NaN,dog8-clock2.png,dog8-clock2.png,0.0,-2.7343354,6.8648047,-6.787617
bagnet33,1,870,NaN,cat,dog,NaN,dog8-dog3.png,dog8-dog3.png,0.0,2.6156213,3.00648,-0.2763788
bagnet33,1,871,NaN,knife,dog,NaN,dog8-keyboard3.png,dog8-keyboard3.png,0.0,-1.426446,4.3035307,-4.0517054
bagnet33,1,872,NaN,oven,dog,NaN,dog8-oven3.png,dog8-oven3.png,0.0,-1.062882,10.084979,-7.8827286
bagnet33,1,873,NaN,airplane,dog,NaN,dog9-airplane3.png,dog9-airplane3.png,0.0,-2.0712483,8.233877,-7.286824
bagnet33,1,874,NaN,bear,dog,NaN,dog9-bear3.png,dog9-bear3.png,0.0,1.0896988,5.9619246,-3.445184
bagnet33,1,875,NaN,knife,dog,NaN,dog9-bicycle3.png,dog9-bicycle3.png,0.0,-1.8346043,4.7249517,-4.6383066
bagnet33,1,876,NaN,boat,dog,NaN,dog9-boat1.png,dog9-boat1.png,0.0,-1.4244885,7.9645753,-6.639071
bagnet33,1,877,NaN,bottle,dog,NaN,dog9-bottle1.png,dog9-bottle1.png,0.0,-1.3192797,12.165767,-9.535368
bagnet33,1,878,NaN,car,dog,NaN,dog9-car1.png,dog9-car1.png,0.0,-1.4019593,11.242214,-8.940781
bagnet33,1,879,NaN,cat,dog,NaN,dog9-cat1.png,dog9-cat1.png,0.0,1.8826997,5.987459,-2.902503
bagnet33,1,880,NaN,chair,dog,NaN,dog9-chair2.png,dog9-chair2.png,0.0,-0.91863066,8.671962,-6.781573
bagnet33,1,881,NaN,airplane,elephant,NaN,elephant1-airplane2.png,elephant1-airplane2.png,0.0,-2.1922774,9.713023,-8.418319
bagnet33,1,882,NaN,elephant,elephant,NaN,elephant1-bear2.png,elephant1-bear2.png,1.0,11.9034195,11.83658,0.047262464
bagnet33,1,883,NaN,boat,elephant,NaN,elephant1-boat2.png,elephant1-boat2.png,0.0,-0.69297343,9.9692,-7.539295
bagnet33,1,884,NaN,bottle,elephant,NaN,elephant1-bottle1.png,elephant1-bottle1.png,0.0,-3.5158458,17.099243,-14.57707
bagnet33,1,885,NaN,car,elephant,NaN,elephant1-car3.png,elephant1-car3.png,0.0,-2.919221,14.330658,-12.197506
bagnet33,1,886,NaN,chair,elephant,NaN,elephant1-chair1.png,elephant1-chair1.png,0.0,-1.7382901,15.567044,-12.236719
bagnet33,1,887,NaN,cat,elephant,NaN,elephant1-dog2.png,elephant1-dog2.png,0.0,0.0877617,3.2242088,-2.217803
bagnet33,1,888,NaN,knife,elephant,NaN,elephant1-keyboard3.png,elephant1-keyboard3.png,0.0,-4.178366,4.7676945,-6.32582
bagnet33,1,889,NaN,oven,elephant,NaN,elephant1-oven2.png,elephant1-oven2.png,0.0,0.69621325,13.608101,-9.130084
bagnet33,1,890,NaN,bear,elephant,NaN,elephant10-bear1.png,elephant10-bear1.png,0.0,5.2479753,9.380415,-2.9220762
bagnet33,1,891,NaN,elephant,elephant,NaN,elephant10-elephant1.png,elephant10-elephant1.png,1.0,64.19373,9.295044,38.819237
bagnet33,1,892,NaN,keyboard,elephant,NaN,elephant10-keyboard1.png,elephant10-keyboard1.png,0.0,-2.6179137,8.214142,-7.6594205
bagnet33,1,893,NaN,knife,elephant,NaN,elephant10-knife3.png,elephant10-knife3.png,0.0,1.0606298,5.702071,-3.2819948
bagnet33,1,894,NaN,airplane,elephant,NaN,elephant2-airplane3.png,elephant2-airplane3.png,0.0,-4.2048225,6.6485376,-7.6744847
bagnet33,1,895,NaN,elephant,elephant,NaN,elephant2-bear3.png,elephant2-bear3.png,1.0,10.212566,7.1392407,2.1731694
bagnet33,1,896,NaN,bird,elephant,NaN,elephant2-bird1.png,elephant2-bird1.png,0.0,1.6399738,12.258342,-7.5083203
bagnet33,1,897,NaN,boat,elephant,NaN,elephant2-boat1.png,elephant2-boat1.png,0.0,-0.8723081,8.73929,-6.7964263
bagnet33,1,898,NaN,bottle,elephant,NaN,elephant2-bottle3.png,elephant2-bottle3.png,0.0,-6.266975,19.399622,-18.149025
bagnet33,1,899,NaN,cat,elephant,NaN,elephant2-cat1.png,elephant2-cat1.png,0.0,0.10963827,6.600046,-4.5894117
bagnet33,1,900,NaN,clock,elephant,NaN,elephant2-clock1.png,elephant2-clock1.png,0.0,-5.5089016,10.108999,-11.043524
bagnet33,1,901,NaN,elephant,elephant,NaN,elephant2-elephant3.png,elephant2-elephant3.png,1.0,59.281033,8.337907,36.022232
bagnet33,1,902,NaN,keyboard,elephant,NaN,elephant2-keyboard3.png,elephant2-keyboard3.png,0.0,-3.049636,4.377006,-5.251429
bagnet33,1,903,NaN,car,elephant,NaN,elephant2-truck2.png,elephant2-truck2.png,0.0,-1.4109919,13.651447,-10.650753
bagnet33,1,904,NaN,cat,elephant,NaN,elephant3-cat2.png,elephant3-cat2.png,0.0,-4.652279,10.695019,-10.852179
bagnet33,1,905,NaN,chair,elephant,NaN,elephant3-chair1.png,elephant3-chair1.png,0.0,0.03196904,13.567465,-9.571041
bagnet33,1,906,NaN,keyboard,elephant,NaN,elephant3-keyboard2.png,elephant3-keyboard2.png,0.0,-1.828294,6.372079,-5.798539
bagnet33,1,907,NaN,knife,elephant,NaN,elephant3-knife1.png,elephant3-knife1.png,0.0,-3.6107326,9.920347,-9.567919
bagnet33,1,908,NaN,oven,elephant,NaN,elephant3-oven1.png,elephant3-oven1.png,0.0,-2.5579236,14.426559,-12.009844
bagnet33,1,909,NaN,car,elephant,NaN,elephant3-truck1.png,elephant3-truck1.png,0.0,0.84437895,13.428533,-8.898341
bagnet33,1,910,NaN,bicycle,elephant,NaN,elephant4-bicycle2.png,elephant4-bicycle2.png,0.0,-2.0451245,9.629862,-8.255462
bagnet33,1,911,NaN,bird,elephant,NaN,elephant4-bird1.png,elephant4-bird1.png,0.0,4.1099977,9.661786,-3.9257073
bagnet33,1,912,NaN,truck,elephant,NaN,elephant4-boat3.png,elephant4-boat3.png,0.0,1.2607961,5.87027,-3.25939
bagnet33,1,913,NaN,car,elephant,NaN,elephant4-car3.png,elephant4-car3.png,0.0,-1.6055334,11.2400465,-9.083197
bagnet33,1,914,NaN,chair,elephant,NaN,elephant4-chair3.png,elephant4-chair3.png,0.0,-0.20884311,9.850224,-7.1128345
bagnet33,1,915,NaN,clock,elephant,NaN,elephant4-clock3.png,elephant4-clock3.png,0.0,-7.1256495,15.216296,-15.7981415
bagnet33,1,916,NaN,oven,elephant,NaN,elephant4-oven1.png,elephant4-oven1.png,0.0,-1.9338878,14.03488,-11.291624
bagnet33,1,917,NaN,bear,elephant,NaN,elephant5-bear2.png,elephant5-bear2.png,0.0,9.644136,10.290629,-0.45713955
bagnet33,1,918,NaN,knife,elephant,NaN,elephant5-bicycle3.png,elephant5-bicycle3.png,0.0,-0.60758626,6.267561,-4.8614635
bagnet33,1,919,NaN,bottle,elephant,NaN,elephant5-bottle2.png,elephant5-bottle2.png,0.0,-2.8409,16.055483,-13.361761
bagnet33,1,920,NaN,car,elephant,NaN,elephant5-car1.png,elephant5-car1.png,0.0,-0.051538914,12.9181185,-9.170933
bagnet33,1,921,NaN,chair,elephant,NaN,elephant5-chair3.png,elephant5-chair3.png,0.0,2.3426974,9.455712,-5.029661
bagnet33,1,922,NaN,elephant,elephant,NaN,elephant5-elephant1.png,elephant5-elephant1.png,1.0,60.7185,9.1236105,36.483093
bagnet33,1,923,NaN,car,elephant,NaN,elephant5-truck1.png,elephant5-truck1.png,0.0,-2.4555721,15.798827,-12.907809
bagnet33,1,924,NaN,bicycle,elephant,NaN,elephant6-bicycle1.png,elephant6-bicycle1.png,0.0,-3.5654473,12.849787,-11.607324
bagnet33,1,925,NaN,bird,elephant,NaN,elephant6-bird1.png,elephant6-bird1.png,0.0,5.4787617,9.724611,-3.002269
bagnet33,1,926,NaN,bottle,elephant,NaN,elephant6-bottle2.png,elephant6-bottle2.png,0.0,-4.006039,18.244,-15.733153
bagnet33,1,927,NaN,car,elephant,NaN,elephant6-car3.png,elephant6-car3.png,0.0,-1.617624,14.598411,-11.466468
bagnet33,1,928,NaN,cat,elephant,NaN,elephant6-cat2.png,elephant6-cat2.png,0.0,-3.3955636,9.82484,-9.348237
bagnet33,1,929,NaN,dog,elephant,NaN,elephant6-dog2.png,elephant6-dog2.png,0.0,-0.4023568,3.137734,-2.5032222
bagnet33,1,930,NaN,knife,elephant,NaN,elephant6-knife2.png,elephant6-knife2.png,0.0,0.704823,15.497436,-10.459956
bagnet33,1,931,NaN,oven,elephant,NaN,elephant6-oven1.png,elephant6-oven1.png,0.0,-2.943503,13.276491,-11.469268
bagnet33,1,932,NaN,car,elephant,NaN,elephant6-truck3.png,elephant6-truck3.png,0.0,-2.6901698,9.600548,-8.69085
bagnet33,1,933,NaN,airplane,elephant,NaN,elephant7-airplane3.png,elephant7-airplane3.png,0.0,-4.2071023,10.939351,-10.71016
bagnet33,1,934,NaN,elephant,elephant,NaN,elephant7-bear3.png,elephant7-bear3.png,1.0,7.3915896,5.8236403,1.1087075
bagnet33,1,935,NaN,bird,elephant,NaN,elephant7-bird1.png,elephant7-bird1.png,0.0,1.002834,6.622265,-3.973538
