subj,session,trial,rt,object_response,category,condition,imagename,filename,is_correct,targ_act,max_nontarg_act,decision_margin
alexnet_w1_mlp_simclrhn_probe1,1,1,NaN,bicycle,airplane,NaN,airplane1-bicycle2.png,airplane1-bicycle2.png,0.0,-13.886924,-0.5095687,-9.459219
alexnet_w1_mlp_simclrhn_probe1,1,2,NaN,bicycle,airplane,NaN,airplane1-chair2.png,airplane1-chair2.png,0.0,-6.0670013,0.04460174,-4.321556
alexnet_w1_mlp_simclrhn_probe1,1,3,NaN,bicycle,airplane,NaN,airplane1-clock1.png,airplane1-clock1.png,0.0,-9.759413,0.21241537,-7.0511475
alexnet_w1_mlp_simclrhn_probe1,1,4,NaN,bicycle,airplane,NaN,airplane1-elephant1.png,airplane1-elephant1.png,0.0,-12.177301,-2.108978,-7.1193795
alexnet_w1_mlp_simclrhn_probe1,1,5,NaN,airplane,airplane,NaN,airplane10-airplane1.png,airplane10-airplane1.png,1.0,4.2825327,-0.9215104,3.679814
alexnet_w1_mlp_simclrhn_probe1,1,6,NaN,cat,airplane,NaN,airplane10-bear3.png,airplane10-bear3.png,0.0,-15.422604,-2.1949155,-9.353388
alexnet_w1_mlp_simclrhn_probe1,1,7,NaN,airplane,airplane,NaN,airplane10-boat3.png,airplane10-boat3.png,1.0,2.5768175,-0.41552067,2.1159027
alexnet_w1_mlp_simclrhn_probe1,1,8,NaN,airplane,airplane,NaN,airplane10-car3.png,airplane10-car3.png,1.0,-3.2389235,-3.2402217,0.0009179584
alexnet_w1_mlp_simclrhn_probe1,1,9,NaN,cat,airplane,NaN,airplane10-cat2.png,airplane10-cat2.png,0.0,-11.038038,0.39107513,-8.081604
alexnet_w1_mlp_simclrhn_probe1,1,10,NaN,cat,airplane,NaN,airplane10-dog3.png,airplane10-dog3.png,0.0,-10.951857,1.360633,-8.706245
alexnet_w1_mlp_simclrhn_probe1,1,11,NaN,cat,airplane,NaN,airplane10-elephant1.png,airplane10-elephant1.png,0.0,-10.848874,-3.3648608,-5.291997
alexnet_w1_mlp_simclrhn_probe1,1,12,NaN,knife,airplane,NaN,airplane10-knife3.png,airplane10-knife3.png,0.0,-1.2774584,-0.7355806,-0.38316548
alexnet_w1_mlp_simclrhn_probe1,1,13,NaN,airplane,airplane,NaN,airplane10-oven2.png,airplane10-oven2.png,1.0,3.3613548,0.2391113,2.2077596
alexnet_w1_mlp_simclrhn_probe1,1,14,NaN,airplane,airplane,NaN,airplane10-truck1.png,airplane10-truck1.png,1.0,0.8839334,0.75132173,0.09377063
alexnet_w1_mlp_simclrhn_probe1,1,15,NaN,bear,airplane,NaN,airplane2-bear1.png,airplane2-bear1.png,0.0,-10.490221,-1.2611796,-6.5259175
alexnet_w1_mlp_simclrhn_probe1,1,16,NaN,bicycle,airplane,NaN,airplane2-bicycle1.png,airplane2-bicycle1.png,0.0,-18.884731,-3.4584165,-10.908052
alexnet_w1_mlp_simclrhn_probe1,1,17,NaN,airplane,airplane,NaN,airplane2-bird3.png,airplane2-bird3.png,1.0,-0.5361767,-2.877922,1.6558641
alexnet_w1_mlp_simclrhn_probe1,1,18,NaN,bicycle,airplane,NaN,airplane2-bottle1.png,airplane2-bottle1.png,0.0,-8.287553,-3.3775697,-3.4718823
alexnet_w1_mlp_simclrhn_probe1,1,19,NaN,cat,airplane,NaN,airplane2-cat1.png,airplane2-cat1.png,0.0,-11.228257,1.9266939,-9.301955
alexnet_w1_mlp_simclrhn_probe1,1,20,NaN,cat,airplane,NaN,airplane2-dog1.png,airplane2-dog1.png,0.0,-13.560152,1.1811647,-10.423685
alexnet_w1_mlp_simclrhn_probe1,1,21,NaN,airplane,airplane,NaN,airplane3-airplane2.png,airplane3-airplane2.png,1.0,1.235426,-1.7112534,2.083617
alexnet_w1_mlp_simclrhn_probe1,1,22,NaN,bicycle,airplane,NaN,airplane3-car1.png,airplane3-car1.png,0.0,-11.020529,-0.09040928,-7.7287617
alexnet_w1_mlp_simclrhn_probe1,1,23,NaN,cat,airplane,NaN,airplane3-cat1.png,airplane3-cat1.png,0.0,-12.307018,0.80956143,-9.274823
alexnet_w1_mlp_simclrhn_probe1,1,24,NaN,airplane,airplane,NaN,airplane3-chair3.png,airplane3-chair3.png,1.0,3.3295188,-2.407823,4.0569134
alexnet_w1_mlp_simclrhn_probe1,1,25,NaN,bicycle,airplane,NaN,airplane3-clock1.png,airplane3-clock1.png,0.0,-9.777933,-1.9525661,-5.53337
alexnet_w1_mlp_simclrhn_probe1,1,26,NaN,cat,airplane,NaN,airplane3-dog1.png,airplane3-dog1.png,0.0,-13.511944,-1.1889933,-8.713642
alexnet_w1_mlp_simclrhn_probe1,1,27,NaN,cat,airplane,NaN,airplane3-elephant1.png,airplane3-elephant1.png,0.0,-13.562397,-3.83455,-6.878627
alexnet_w1_mlp_simclrhn_probe1,1,28,NaN,airplane,airplane,NaN,airplane3-keyboard2.png,airplane3-keyboard2.png,1.0,0.32675952,-0.62499,0.67298853
alexnet_w1_mlp_simclrhn_probe1,1,29,NaN,airplane,airplane,NaN,airplane3-oven1.png,airplane3-oven1.png,1.0,1.8560861,-0.6867137,1.7980311
alexnet_w1_mlp_simclrhn_probe1,1,30,NaN,airplane,airplane,NaN,airplane4-airplane1.png,airplane4-airplane1.png,1.0,2.8077147,-1.0974623,2.7613773
alexnet_w1_mlp_simclrhn_probe1,1,31,NaN,elephant,airplane,NaN,airplane4-bear3.png,airplane4-bear3.png,0.0,-14.7367935,-1.3098621,-9.494274
alexnet_w1_mlp_simclrhn_probe1,1,32,NaN,bird,airplane,NaN,airplane4-bicycle2.png,airplane4-bicycle2.png,0.0,-13.277186,-1.6697761,-8.207679
alexnet_w1_mlp_simclrhn_probe1,1,33,NaN,airplane,airplane,NaN,airplane4-bird3.png,airplane4-bird3.png,1.0,3.6284826,-3.8593109,5.2946696
alexnet_w1_mlp_simclrhn_probe1,1,34,NaN,airplane,airplane,NaN,airplane4-boat3.png,airplane4-boat3.png,1.0,1.1881183,-0.66390973,1.3095816
alexnet_w1_mlp_simclrhn_probe1,1,35,NaN,bicycle,airplane,NaN,airplane4-bottle1.png,airplane4-bottle1.png,0.0,-6.244089,-4.33685,-1.3486216
alexnet_w1_mlp_simclrhn_probe1,1,36,NaN,bicycle,airplane,NaN,airplane4-car1.png,airplane4-car1.png,0.0,-9.750153,-3.986569,-4.075469
alexnet_w1_mlp_simclrhn_probe1,1,37,NaN,cat,airplane,NaN,airplane4-cat3.png,airplane4-cat3.png,0.0,-6.180291,0.07492698,-4.423107
alexnet_w1_mlp_simclrhn_probe1,1,38,NaN,cat,airplane,NaN,airplane4-dog2.png,airplane4-dog2.png,0.0,-7.1397934,0.4644918,-5.377042
alexnet_w1_mlp_simclrhn_probe1,1,39,NaN,bicycle,airplane,NaN,airplane4-elephant1.png,airplane4-elephant1.png,0.0,-11.525,-3.1029077,-5.955319
alexnet_w1_mlp_simclrhn_probe1,1,40,NaN,airplane,airplane,NaN,airplane4-keyboard3.png,airplane4-keyboard3.png,1.0,2.099857,-0.98388743,2.1805367
alexnet_w1_mlp_simclrhn_probe1,1,41,NaN,knife,airplane,NaN,airplane4-knife1.png,airplane4-knife1.png,0.0,-3.9109018,-2.7018356,-0.85493886
alexnet_w1_mlp_simclrhn_probe1,1,42,NaN,car,airplane,NaN,airplane4-truck2.png,airplane4-truck2.png,0.0,-2.2037897,-0.40821835,-1.2696607
alexnet_w1_mlp_simclrhn_probe1,1,43,NaN,cat,airplane,NaN,airplane5-bear2.png,airplane5-bear2.png,0.0,-12.838537,2.0415676,-10.521823
alexnet_w1_mlp_simclrhn_probe1,1,44,NaN,bicycle,airplane,NaN,airplane5-bicycle1.png,airplane5-bicycle1.png,0.0,-14.9414625,-0.38504648,-10.29294
alexnet_w1_mlp_simclrhn_probe1,1,45,NaN,bird,airplane,NaN,airplane5-bird2.png,airplane5-bird2.png,0.0,-11.112257,-2.2326221,-6.27885
alexnet_w1_mlp_simclrhn_probe1,1,46,NaN,boat,airplane,NaN,airplane5-boat3.png,airplane5-boat3.png,0.0,-2.3067784,-1.2768891,-0.72824174
alexnet_w1_mlp_simclrhn_probe1,1,47,NaN,bird,airplane,NaN,airplane5-bottle3.png,airplane5-bottle3.png,0.0,-11.510401,-2.9059541,-6.0842624
alexnet_w1_mlp_simclrhn_probe1,1,48,NaN,airplane,airplane,NaN,airplane5-chair3.png,airplane5-chair3.png,1.0,3.6918736,-1.176116,3.4421885
alexnet_w1_mlp_simclrhn_probe1,1,49,NaN,cat,airplane,NaN,airplane5-dog3.png,airplane5-dog3.png,0.0,-13.749023,2.5433319,-11.520434
alexnet_w1_mlp_simclrhn_probe1,1,50,NaN,bicycle,airplane,NaN,airplane5-knife1.png,airplane5-knife1.png,0.0,-6.3994546,-2.604434,-2.6834848
alexnet_w1_mlp_simclrhn_probe1,1,51,NaN,chair,airplane,NaN,airplane5-oven3.png,airplane5-oven3.png,0.0,-3.458665,0.1416489,-2.5458064
alexnet_w1_mlp_simclrhn_probe1,1,52,NaN,elephant,airplane,NaN,airplane6-bear3.png,airplane6-bear3.png,0.0,-16.857098,-1.0748528,-11.159733
alexnet_w1_mlp_simclrhn_probe1,1,53,NaN,bottle,airplane,NaN,airplane6-bottle2.png,airplane6-bottle2.png,0.0,-6.0494366,-1.6831955,-3.0873988
alexnet_w1_mlp_simclrhn_probe1,1,54,NaN,airplane,airplane,NaN,airplane6-chair3.png,airplane6-chair3.png,1.0,3.8082647,-2.4802737,4.446668
alexnet_w1_mlp_simclrhn_probe1,1,55,NaN,airplane,airplane,NaN,airplane6-keyboard3.png,airplane6-keyboard3.png,1.0,1.497965,-0.07146937,1.1097578
alexnet_w1_mlp_simclrhn_probe1,1,56,NaN,knife,airplane,NaN,airplane6-knife1.png,airplane6-knife1.png,0.0,-6.0632076,-2.7052176,-2.3744576
alexnet_w1_mlp_simclrhn_probe1,1,57,NaN,airplane,airplane,NaN,airplane7-airplane3.png,airplane7-airplane3.png,1.0,7.061404,-0.82714605,5.5780473
alexnet_w1_mlp_simclrhn_probe1,1,58,NaN,airplane,airplane,NaN,airplane7-bird3.png,airplane7-bird3.png,1.0,3.645463,-3.0388088,4.726494
alexnet_w1_mlp_simclrhn_probe1,1,59,NaN,bicycle,airplane,NaN,airplane7-boat2.png,airplane7-boat2.png,0.0,-2.3407538,-2.206854,-0.09468138
alexnet_w1_mlp_simclrhn_probe1,1,60,NaN,knife,airplane,NaN,airplane7-bottle3.png,airplane7-bottle3.png,0.0,-9.718733,-3.8881059,-4.122876
alexnet_w1_mlp_simclrhn_probe1,1,61,NaN,bicycle,airplane,NaN,airplane7-car1.png,airplane7-car1.png,0.0,-7.1009207,-1.6355321,-3.8646133
alexnet_w1_mlp_simclrhn_probe1,1,62,NaN,cat,airplane,NaN,airplane7-cat3.png,airplane7-cat3.png,0.0,-4.4921217,-0.96798676,-2.4919398
alexnet_w1_mlp_simclrhn_probe1,1,63,NaN,car,airplane,NaN,airplane7-clock3.png,airplane7-clock3.png,0.0,-3.5499387,-2.8317604,-0.5078287
alexnet_w1_mlp_simclrhn_probe1,1,64,NaN,airplane,airplane,NaN,airplane7-keyboard1.png,airplane7-keyboard1.png,1.0,0.39305344,-1.12523,1.0735885
alexnet_w1_mlp_simclrhn_probe1,1,65,NaN,chair,airplane,NaN,airplane7-truck1.png,airplane7-truck1.png,0.0,-2.6804125,0.9690324,-2.5805473
alexnet_w1_mlp_simclrhn_probe1,1,66,NaN,bicycle,airplane,NaN,airplane8-bicycle3.png,airplane8-bicycle3.png,0.0,-14.688807,-2.8388362,-8.379194
alexnet_w1_mlp_simclrhn_probe1,1,67,NaN,knife,airplane,NaN,airplane8-bird1.png,airplane8-bird1.png,0.0,-2.2483568,-1.3970597,-0.601958
alexnet_w1_mlp_simclrhn_probe1,1,68,NaN,airplane,airplane,NaN,airplane8-chair1.png,airplane8-chair1.png,1.0,4.1057873,-0.9205849,3.5541818
alexnet_w1_mlp_simclrhn_probe1,1,69,NaN,airplane,airplane,NaN,airplane8-clock2.png,airplane8-clock2.png,1.0,-2.1160426,-2.7742732,0.4654393
alexnet_w1_mlp_simclrhn_probe1,1,70,NaN,bird,airplane,NaN,airplane8-elephant3.png,airplane8-elephant3.png,0.0,-9.754616,-2.4650266,-5.1545177
alexnet_w1_mlp_simclrhn_probe1,1,71,NaN,airplane,airplane,NaN,airplane8-oven2.png,airplane8-oven2.png,1.0,1.928857,0.23474443,1.1979185
alexnet_w1_mlp_simclrhn_probe1,1,72,NaN,airplane,airplane,NaN,airplane8-truck3.png,airplane8-truck3.png,1.0,0.77332234,-1.0892131,1.3170115
alexnet_w1_mlp_simclrhn_probe1,1,73,NaN,airplane,airplane,NaN,airplane9-airplane2.png,airplane9-airplane2.png,1.0,5.2747564,-0.6480806,4.1880784
alexnet_w1_mlp_simclrhn_probe1,1,74,NaN,airplane,airplane,NaN,airplane9-boat1.png,airplane9-boat1.png,1.0,-0.25636572,-0.4340663,0.12565328
alexnet_w1_mlp_simclrhn_probe1,1,75,NaN,bicycle,airplane,NaN,airplane9-car2.png,airplane9-car2.png,0.0,-9.617561,-1.2163898,-5.9405255
alexnet_w1_mlp_simclrhn_probe1,1,76,NaN,bicycle,airplane,NaN,airplane9-clock1.png,airplane9-clock1.png,0.0,-10.451416,-2.5078115,-5.6169767
alexnet_w1_mlp_simclrhn_probe1,1,77,NaN,airplane,airplane,NaN,airplane9-keyboard2.png,airplane9-keyboard2.png,1.0,-0.43819058,-1.117236,0.48015764
alexnet_w1_mlp_simclrhn_probe1,1,78,NaN,knife,airplane,NaN,airplane9-knife3.png,airplane9-knife3.png,0.0,-2.3322678,-0.7381804,-1.12719
alexnet_w1_mlp_simclrhn_probe1,1,79,NaN,truck,airplane,NaN,airplane9-oven2.png,airplane9-oven2.png,0.0,0.9199803,1.0325867,-0.07962476
alexnet_w1_mlp_simclrhn_probe1,1,80,NaN,chair,airplane,NaN,airplane9-truck1.png,airplane9-truck1.png,0.0,-5.086624,2.2880316,-5.214669
alexnet_w1_mlp_simclrhn_probe1,1,81,NaN,knife,bear,NaN,bear1-airplane3.png,bear1-airplane3.png,0.0,-7.4365115,-1.6934736,-4.060941
alexnet_w1_mlp_simclrhn_probe1,1,82,NaN,cat,bear,NaN,bear1-bear3.png,bear1-bear3.png,0.0,0.65202093,1.0959097,-0.31387678
alexnet_w1_mlp_simclrhn_probe1,1,83,NaN,cat,bear,NaN,bear1-bicycle3.png,bear1-bicycle3.png,0.0,-6.728158,-1.517614,-3.684411
alexnet_w1_mlp_simclrhn_probe1,1,84,NaN,cat,bear,NaN,bear1-bird2.png,bear1-bird2.png,0.0,-2.914256,0.62440366,-2.5022104
alexnet_w1_mlp_simclrhn_probe1,1,85,NaN,oven,bear,NaN,bear1-chair2.png,bear1-chair2.png,0.0,-7.2597427,-0.86711764,-4.5202684
alexnet_w1_mlp_simclrhn_probe1,1,86,NaN,bottle,bear,NaN,bear1-clock2.png,bear1-clock2.png,0.0,-14.383503,-3.792319,-7.489098
alexnet_w1_mlp_simclrhn_probe1,1,87,NaN,elephant,bear,NaN,bear1-elephant1.png,bear1-elephant1.png,0.0,-6.438236,-1.3311635,-3.6112459
alexnet_w1_mlp_simclrhn_probe1,1,88,NaN,bear,bear,NaN,bear10-bear2.png,bear10-bear2.png,1.0,2.9982255,1.5224237,1.0435494
alexnet_w1_mlp_simclrhn_probe1,1,89,NaN,bicycle,bear,NaN,bear10-bottle1.png,bear10-bottle1.png,0.0,-8.316412,-3.229845,-3.596746
alexnet_w1_mlp_simclrhn_probe1,1,90,NaN,bicycle,bear,NaN,bear10-car2.png,bear10-car2.png,0.0,-14.887823,0.5300369,-10.902074
alexnet_w1_mlp_simclrhn_probe1,1,91,NaN,cat,bear,NaN,bear10-cat2.png,bear10-cat2.png,0.0,0.40965736,1.6379696,-0.8685479
alexnet_w1_mlp_simclrhn_probe1,1,92,NaN,chair,bear,NaN,bear10-chair2.png,bear10-chair2.png,0.0,-10.300814,-2.209341,-5.721535
alexnet_w1_mlp_simclrhn_probe1,1,93,NaN,bicycle,bear,NaN,bear10-clock1.png,bear10-clock1.png,0.0,-14.950398,0.35289523,-10.821063
alexnet_w1_mlp_simclrhn_probe1,1,94,NaN,elephant,bear,NaN,bear10-elephant1.png,bear10-elephant1.png,0.0,-6.136426,-2.8032818,-2.356889
alexnet_w1_mlp_simclrhn_probe1,1,95,NaN,clock,bear,NaN,bear10-keyboard3.png,bear10-keyboard3.png,0.0,-7.911063,-1.1531883,-4.778539
alexnet_w1_mlp_simclrhn_probe1,1,96,NaN,oven,bear,NaN,bear10-knife2.png,bear10-knife2.png,0.0,-5.4941273,-2.4656165,-2.1414807
alexnet_w1_mlp_simclrhn_probe1,1,97,NaN,oven,bear,NaN,bear10-oven1.png,bear10-oven1.png,0.0,-9.792964,0.5354539,-7.303294
alexnet_w1_mlp_simclrhn_probe1,1,98,NaN,chair,bear,NaN,bear10-truck1.png,bear10-truck1.png,0.0,-15.412569,-0.36390364,-10.641013
alexnet_w1_mlp_simclrhn_probe1,1,99,NaN,knife,bear,NaN,bear2-airplane1.png,bear2-airplane1.png,0.0,-8.716223,-2.5841794,-4.3360095
alexnet_w1_mlp_simclrhn_probe1,1,100,NaN,elephant,bear,NaN,bear2-bird3.png,bear2-bird3.png,0.0,-2.2622244,1.7684832,-2.8501406
alexnet_w1_mlp_simclrhn_probe1,1,101,NaN,bicycle,bear,NaN,bear2-car2.png,bear2-car2.png,0.0,-13.576885,-1.7934873,-8.332121
alexnet_w1_mlp_simclrhn_probe1,1,102,NaN,cat,bear,NaN,bear2-cat2.png,bear2-cat2.png,0.0,1.1905911,1.5517068,-0.25534737
alexnet_w1_mlp_simclrhn_probe1,1,103,NaN,cat,bear,NaN,bear2-dog1.png,bear2-dog1.png,0.0,1.2728195,1.7493849,-0.3369826
alexnet_w1_mlp_simclrhn_probe1,1,104,NaN,elephant,bear,NaN,bear2-elephant1.png,bear2-elephant1.png,0.0,-5.5986676,-1.289495,-3.0470452
alexnet_w1_mlp_simclrhn_probe1,1,105,NaN,keyboard,bear,NaN,bear2-keyboard2.png,bear2-keyboard2.png,0.0,-14.801932,0.8320638,-11.054905
alexnet_w1_mlp_simclrhn_probe1,1,106,NaN,knife,bear,NaN,bear2-knife2.png,bear2-knife2.png,0.0,-6.9266434,-1.0018358,-4.1894717
alexnet_w1_mlp_simclrhn_probe1,1,107,NaN,knife,bear,NaN,bear2-oven1.png,bear2-oven1.png,0.0,-10.131593,0.5697559,-7.566996
alexnet_w1_mlp_simclrhn_probe1,1,108,NaN,bicycle,bear,NaN,bear3-airplane1.png,bear3-airplane1.png,0.0,-6.301323,-2.488494,-2.6960773
alexnet_w1_mlp_simclrhn_probe1,1,109,NaN,bird,bear,NaN,bear3-bicycle2.png,bear3-bicycle2.png,0.0,-5.7661138,-2.0693839,-2.613983
alexnet_w1_mlp_simclrhn_probe1,1,110,NaN,elephant,bear,NaN,bear3-bird3.png,bear3-bird3.png,0.0,-3.939049,-0.91573983,-2.1378026
alexnet_w1_mlp_simclrhn_probe1,1,111,NaN,bicycle,bear,NaN,bear3-car2.png,bear3-car2.png,0.0,-12.851633,-3.1044197,-6.8923206
alexnet_w1_mlp_simclrhn_probe1,1,112,NaN,cat,bear,NaN,bear3-cat1.png,bear3-cat1.png,0.0,0.29926008,2.8727925,-1.8197622
alexnet_w1_mlp_simclrhn_probe1,1,113,NaN,chair,bear,NaN,bear3-chair2.png,bear3-chair2.png,0.0,-10.112351,0.46184334,-7.477085
alexnet_w1_mlp_simclrhn_probe1,1,114,NaN,cat,bear,NaN,bear3-dog3.png,bear3-dog3.png,0.0,0.23917958,1.8279543,-1.1234334
alexnet_w1_mlp_simclrhn_probe1,1,115,NaN,keyboard,bear,NaN,bear3-keyboard2.png,bear3-keyboard2.png,0.0,-15.831478,2.102105,-12.680958
alexnet_w1_mlp_simclrhn_probe1,1,116,NaN,truck,bear,NaN,bear3-truck3.png,bear3-truck3.png,0.0,-14.188235,-0.40986857,-9.742777
alexnet_w1_mlp_simclrhn_probe1,1,117,NaN,bicycle,bear,NaN,bear4-boat2.png,bear4-boat2.png,0.0,-13.515533,0.07467118,-9.609726
alexnet_w1_mlp_simclrhn_probe1,1,118,NaN,bicycle,bear,NaN,bear4-car3.png,bear4-car3.png,0.0,-15.289209,-2.3903012,-9.120906
alexnet_w1_mlp_simclrhn_probe1,1,119,NaN,cat,bear,NaN,bear4-cat3.png,bear4-cat3.png,0.0,0.016551971,0.74643725,-0.51610684
alexnet_w1_mlp_simclrhn_probe1,1,120,NaN,bottle,bear,NaN,bear4-clock3.png,bear4-clock3.png,0.0,-16.86963,-4.884374,-8.474856
alexnet_w1_mlp_simclrhn_probe1,1,121,NaN,elephant,bear,NaN,bear4-elephant2.png,bear4-elephant2.png,0.0,-6.9320107,-1.3161168,-3.9710367
alexnet_w1_mlp_simclrhn_probe1,1,122,NaN,clock,bear,NaN,bear4-keyboard3.png,bear4-keyboard3.png,0.0,-11.613506,-1.0188975,-7.4915195
alexnet_w1_mlp_simclrhn_probe1,1,123,NaN,elephant,bear,NaN,bear4-knife1.png,bear4-knife1.png,0.0,-8.993816,-4.3152933,-3.3082154
alexnet_w1_mlp_simclrhn_probe1,1,124,NaN,chair,bear,NaN,bear4-oven2.png,bear4-oven2.png,0.0,-7.020698,-0.30325025,-4.749953
alexnet_w1_mlp_simclrhn_probe1,1,125,NaN,car,bear,NaN,bear4-truck3.png,bear4-truck3.png,0.0,-12.263557,-2.968623,-6.572511
alexnet_w1_mlp_simclrhn_probe1,1,126,NaN,knife,bear,NaN,bear5-airplane3.png,bear5-airplane3.png,0.0,-9.678108,-1.1701214,-6.0160556
alexnet_w1_mlp_simclrhn_probe1,1,127,NaN,bird,bear,NaN,bear5-bicycle3.png,bear5-bicycle3.png,0.0,-8.329717,-2.3663607,-4.2167296
alexnet_w1_mlp_simclrhn_probe1,1,128,NaN,elephant,bear,NaN,bear5-bird1.png,bear5-bird1.png,0.0,-3.931145,-1.2431307,-1.9007132
alexnet_w1_mlp_simclrhn_probe1,1,129,NaN,bicycle,bear,NaN,bear5-boat2.png,bear5-boat2.png,0.0,-11.68544,0.19146444,-8.39824
alexnet_w1_mlp_simclrhn_probe1,1,130,NaN,bicycle,bear,NaN,bear5-bottle1.png,bear5-bottle1.png,0.0,-7.925179,-2.3589787,-3.935898
alexnet_w1_mlp_simclrhn_probe1,1,131,NaN,bottle,bear,NaN,bear5-chair1.png,bear5-chair1.png,0.0,-15.438948,-1.9800739,-9.516861
alexnet_w1_mlp_simclrhn_probe1,1,132,NaN,elephant,bear,NaN,bear5-oven3.png,bear5-oven3.png,0.0,-7.716323,-0.047854498,-5.422426
alexnet_w1_mlp_simclrhn_probe1,1,133,NaN,cat,bear,NaN,bear6-bear1.png,bear6-bear1.png,0.0,0.14801347,2.2467663,-1.4840425
alexnet_w1_mlp_simclrhn_probe1,1,134,NaN,cat,bear,NaN,bear6-bird2.png,bear6-bird2.png,0.0,-6.983317,-0.9421458,-4.2717533
alexnet_w1_mlp_simclrhn_probe1,1,135,NaN,bottle,bear,NaN,bear6-boat3.png,bear6-boat3.png,0.0,-9.189223,0.23447558,-6.6635613
alexnet_w1_mlp_simclrhn_probe1,1,136,NaN,cat,bear,NaN,bear6-bottle3.png,bear6-bottle3.png,0.0,-12.489535,-2.294551,-7.208943
alexnet_w1_mlp_simclrhn_probe1,1,137,NaN,bicycle,bear,NaN,bear6-car2.png,bear6-car2.png,0.0,-15.027675,-2.8056989,-8.6422415
alexnet_w1_mlp_simclrhn_probe1,1,138,NaN,cat,bear,NaN,bear6-cat3.png,bear6-cat3.png,0.0,-1.171102,2.0911837,-2.3067844
alexnet_w1_mlp_simclrhn_probe1,1,139,NaN,chair,bear,NaN,bear6-chair1.png,bear6-chair1.png,0.0,-18.41851,-1.7530805,-11.784239
alexnet_w1_mlp_simclrhn_probe1,1,140,NaN,bicycle,bear,NaN,bear6-clock1.png,bear6-clock1.png,0.0,-14.730326,-2.247066,-8.826998
alexnet_w1_mlp_simclrhn_probe1,1,141,NaN,bear,bear,NaN,bear7-bear2.png,bear7-bear2.png,1.0,3.4094532,2.1400657,0.8975925
alexnet_w1_mlp_simclrhn_probe1,1,142,NaN,bird,bear,NaN,bear7-bicycle2.png,bear7-bicycle2.png,0.0,-5.7890835,-1.7827402,-2.8329127
alexnet_w1_mlp_simclrhn_probe1,1,143,NaN,oven,bear,NaN,bear7-clock1.png,bear7-clock1.png,0.0,-10.710922,-3.1145082,-5.371476
alexnet_w1_mlp_simclrhn_probe1,1,144,NaN,bear,bear,NaN,bear7-dog3.png,bear7-dog3.png,1.0,3.2413063,1.3988312,1.3028266
alexnet_w1_mlp_simclrhn_probe1,1,145,NaN,oven,bear,NaN,bear7-oven3.png,bear7-oven3.png,0.0,-8.543002,1.4176377,-7.0432363
alexnet_w1_mlp_simclrhn_probe1,1,146,NaN,chair,bear,NaN,bear7-truck1.png,bear7-truck1.png,0.0,-18.55254,1.1864556,-13.957577
alexnet_w1_mlp_simclrhn_probe1,1,147,NaN,bottle,bear,NaN,bear8-airplane1.png,bear8-airplane1.png,0.0,-10.11635,-2.7066529,-5.2394476
alexnet_w1_mlp_simclrhn_probe1,1,148,NaN,bear,bear,NaN,bear8-bear1.png,bear8-bear1.png,1.0,0.78096986,0.5964919,0.13044563
alexnet_w1_mlp_simclrhn_probe1,1,149,NaN,bicycle,bear,NaN,bear8-bicycle3.png,bear8-bicycle3.png,0.0,-10.585633,-1.9395733,-6.113688
alexnet_w1_mlp_simclrhn_probe1,1,150,NaN,chair,bear,NaN,bear8-boat2.png,bear8-boat2.png,0.0,-13.726461,-1.7319622,-8.481392
alexnet_w1_mlp_simclrhn_probe1,1,151,NaN,bottle,bear,NaN,bear8-bottle1.png,bear8-bottle1.png,0.0,-10.310982,-3.676869,-4.691026
alexnet_w1_mlp_simclrhn_probe1,1,152,NaN,bear,bear,NaN,bear8-dog1.png,bear8-dog1.png,1.0,1.2391814,1.0618892,0.12536454
alexnet_w1_mlp_simclrhn_probe1,1,153,NaN,elephant,bear,NaN,bear8-elephant2.png,bear8-elephant2.png,0.0,-5.9778132,-0.50655425,-3.8687644
alexnet_w1_mlp_simclrhn_probe1,1,154,NaN,knife,bear,NaN,bear8-knife3.png,bear8-knife3.png,0.0,-10.229125,-3.0701616,-5.0621514
alexnet_w1_mlp_simclrhn_probe1,1,155,NaN,bottle,bear,NaN,bear8-truck3.png,bear8-truck3.png,0.0,-15.73717,0.4860693,-11.471563
alexnet_w1_mlp_simclrhn_probe1,1,156,NaN,oven,bear,NaN,bear9-boat2.png,bear9-boat2.png,0.0,-11.283346,-0.6330951,-7.530865
alexnet_w1_mlp_simclrhn_probe1,1,157,NaN,bottle,bear,NaN,bear9-bottle2.png,bear9-bottle2.png,0.0,-14.538612,-0.6183017,-9.843146
alexnet_w1_mlp_simclrhn_probe1,1,158,NaN,cat,bear,NaN,bear9-dog1.png,bear9-dog1.png,0.0,1.6252555,1.8623004,-0.16761608
alexnet_w1_mlp_simclrhn_probe1,1,159,NaN,keyboard,bear,NaN,bear9-keyboard3.png,bear9-keyboard3.png,0.0,-11.627486,0.008819342,-8.228111
alexnet_w1_mlp_simclrhn_probe1,1,160,NaN,oven,bear,NaN,bear9-knife2.png,bear9-knife2.png,0.0,-6.215499,-0.6067163,-3.9660084
alexnet_w1_mlp_simclrhn_probe1,1,161,NaN,bicycle,bicycle,NaN,bicycle1-airplane2.png,bicycle1-airplane2.png,1.0,2.2905908,-0.13661659,1.7162949
alexnet_w1_mlp_simclrhn_probe1,1,162,NaN,elephant,bicycle,NaN,bicycle1-bear1.png,bicycle1-bear1.png,0.0,-6.49625,-0.51711893,-4.2278843
alexnet_w1_mlp_simclrhn_probe1,1,163,NaN,bicycle,bicycle,NaN,bicycle1-bicycle3.png,bicycle1-bicycle3.png,1.0,7.9082046,-4.5099063,8.7809305
alexnet_w1_mlp_simclrhn_probe1,1,164,NaN,knife,bicycle,NaN,bicycle1-bird1.png,bicycle1-bird1.png,0.0,-3.5202818,-1.9724312,-1.0944957
alexnet_w1_mlp_simclrhn_probe1,1,165,NaN,bicycle,bicycle,NaN,bicycle1-boat3.png,bicycle1-boat3.png,1.0,-0.087644815,-2.1055794,1.4268953
alexnet_w1_mlp_simclrhn_probe1,1,166,NaN,bicycle,bicycle,NaN,bicycle1-bottle3.png,bicycle1-bottle3.png,1.0,13.909691,-3.8403409,12.551168
alexnet_w1_mlp_simclrhn_probe1,1,167,NaN,bicycle,bicycle,NaN,bicycle1-chair1.png,bicycle1-chair1.png,1.0,0.1822103,-1.0955878,0.9035398
alexnet_w1_mlp_simclrhn_probe1,1,168,NaN,bicycle,bicycle,NaN,bicycle1-clock3.png,bicycle1-clock3.png,1.0,6.7207565,-1.1522242,5.567038
alexnet_w1_mlp_simclrhn_probe1,1,169,NaN,cat,bicycle,NaN,bicycle1-dog3.png,bicycle1-dog3.png,0.0,-10.162218,-0.36067662,-6.9307365
alexnet_w1_mlp_simclrhn_probe1,1,170,NaN,elephant,bicycle,NaN,bicycle1-elephant2.png,bicycle1-elephant2.png,0.0,-3.8105607,-2.0049913,-1.2767304
alexnet_w1_mlp_simclrhn_probe1,1,171,NaN,bottle,bicycle,NaN,bicycle1-knife3.png,bicycle1-knife3.png,0.0,-2.9430337,-1.9762124,-0.6836459
alexnet_w1_mlp_simclrhn_probe1,1,172,NaN,knife,bicycle,NaN,bicycle1-oven1.png,bicycle1-oven1.png,0.0,-7.5816555,0.94626105,-6.030148
alexnet_w1_mlp_simclrhn_probe1,1,173,NaN,bicycle,bicycle,NaN,bicycle1-truck1.png,bicycle1-truck1.png,1.0,8.033985,-0.69794554,6.1744075
alexnet_w1_mlp_simclrhn_probe1,1,174,NaN,car,bicycle,NaN,bicycle10-airplane2.png,bicycle10-airplane2.png,0.0,1.5653361,3.6708395,-1.4888159
alexnet_w1_mlp_simclrhn_probe1,1,175,NaN,truck,bicycle,NaN,bicycle10-boat3.png,bicycle10-boat3.png,0.0,0.68053937,0.75638056,-0.05362782
alexnet_w1_mlp_simclrhn_probe1,1,176,NaN,bicycle,bicycle,NaN,bicycle10-clock2.png,bicycle10-clock2.png,1.0,6.1280546,2.7111702,2.4161022
alexnet_w1_mlp_simclrhn_probe1,1,177,NaN,cat,bicycle,NaN,bicycle10-dog3.png,bicycle10-dog3.png,0.0,-12.944033,-1.4681182,-8.1146965
alexnet_w1_mlp_simclrhn_probe1,1,178,NaN,elephant,bicycle,NaN,bicycle10-elephant2.png,bicycle10-elephant2.png,0.0,-2.8539329,-2.480929,-0.26375362
alexnet_w1_mlp_simclrhn_probe1,1,179,NaN,bicycle,bicycle,NaN,bicycle2-bicycle1.png,bicycle2-bicycle1.png,1.0,4.904393,-6.420319,8.007781
alexnet_w1_mlp_simclrhn_probe1,1,180,NaN,bicycle,bicycle,NaN,bicycle2-bird3.png,bicycle2-bird3.png,1.0,-1.0598234,-2.6181824,1.1019262
alexnet_w1_mlp_simclrhn_probe1,1,181,NaN,bicycle,bicycle,NaN,bicycle2-bottle1.png,bicycle2-bottle1.png,1.0,1.8362422,-4.302645,4.340849
alexnet_w1_mlp_simclrhn_probe1,1,182,NaN,bicycle,bicycle,NaN,bicycle2-car2.png,bicycle2-car2.png,1.0,2.8396957,-4.7650466,5.3773646
alexnet_w1_mlp_simclrhn_probe1,1,183,NaN,cat,bicycle,NaN,bicycle2-dog1.png,bicycle2-dog1.png,0.0,-10.305597,1.4289776,-8.297598
alexnet_w1_mlp_simclrhn_probe1,1,184,NaN,knife,bicycle,NaN,bicycle2-keyboard2.png,bicycle2-keyboard2.png,0.0,-2.4766812,-1.3917158,-0.76718646
alexnet_w1_mlp_simclrhn_probe1,1,185,NaN,knife,bicycle,NaN,bicycle2-knife2.png,bicycle2-knife2.png,0.0,-2.1442425,-1.8972893,-0.17462233
alexnet_w1_mlp_simclrhn_probe1,1,186,NaN,cat,bicycle,NaN,bicycle3-bird1.png,bicycle3-bird1.png,0.0,-4.535635,-1.0758528,-2.4464355
alexnet_w1_mlp_simclrhn_probe1,1,187,NaN,cat,bicycle,NaN,bicycle3-elephant2.png,bicycle3-elephant2.png,0.0,-3.95235,-1.852292,-1.4849653
alexnet_w1_mlp_simclrhn_probe1,1,188,NaN,bicycle,bicycle,NaN,bicycle3-keyboard1.png,bicycle3-keyboard1.png,1.0,5.0282907,-3.6764817,6.1552043
alexnet_w1_mlp_simclrhn_probe1,1,189,NaN,chair,bicycle,NaN,bicycle3-oven3.png,bicycle3-oven3.png,0.0,-3.9451318,0.8261938,-3.3738368
alexnet_w1_mlp_simclrhn_probe1,1,190,NaN,bottle,bicycle,NaN,bicycle3-truck3.png,bicycle3-truck3.png,0.0,-5.2995205,-0.16436836,-3.6311011
alexnet_w1_mlp_simclrhn_probe1,1,191,NaN,bicycle,bicycle,NaN,bicycle4-airplane1.png,bicycle4-airplane1.png,1.0,1.4176822,-3.0577114,3.164581
alexnet_w1_mlp_simclrhn_probe1,1,192,NaN,bicycle,bicycle,NaN,bicycle4-bicycle3.png,bicycle4-bicycle3.png,1.0,6.546234,-4.805542,8.026918
alexnet_w1_mlp_simclrhn_probe1,1,193,NaN,bicycle,bicycle,NaN,bicycle4-boat1.png,bicycle4-boat1.png,1.0,5.4161777,-2.9860034,5.94124
alexnet_w1_mlp_simclrhn_probe1,1,194,NaN,bicycle,bicycle,NaN,bicycle4-bottle1.png,bicycle4-bottle1.png,1.0,2.538249,-4.309193,4.8418727
alexnet_w1_mlp_simclrhn_probe1,1,195,NaN,bicycle,bicycle,NaN,bicycle4-car2.png,bicycle4-car2.png,1.0,4.2164173,-4.5894184,6.2266665
alexnet_w1_mlp_simclrhn_probe1,1,196,NaN,cat,bicycle,NaN,bicycle4-cat1.png,bicycle4-cat1.png,0.0,-9.054378,2.3253589,-8.046689
alexnet_w1_mlp_simclrhn_probe1,1,197,NaN,bicycle,bicycle,NaN,bicycle4-chair2.png,bicycle4-chair2.png,1.0,1.0399739,-1.2185733,1.5970341
alexnet_w1_mlp_simclrhn_probe1,1,198,NaN,bicycle,bicycle,NaN,bicycle4-clock3.png,bicycle4-clock3.png,1.0,3.4779286,-0.6205268,2.8980458
alexnet_w1_mlp_simclrhn_probe1,1,199,NaN,knife,bicycle,NaN,bicycle4-keyboard3.png,bicycle4-keyboard3.png,0.0,-3.2461617,-1.130543,-1.4959683
alexnet_w1_mlp_simclrhn_probe1,1,200,NaN,knife,bicycle,NaN,bicycle4-knife3.png,bicycle4-knife3.png,0.0,-3.0536675,-1.765383,-0.9109548
alexnet_w1_mlp_simclrhn_probe1,1,201,NaN,chair,bicycle,NaN,bicycle4-oven3.png,bicycle4-oven3.png,0.0,-4.9368153,-0.37061942,-3.2287881
alexnet_w1_mlp_simclrhn_probe1,1,202,NaN,chair,bicycle,NaN,bicycle4-truck3.png,bicycle4-truck3.png,0.0,-4.1909595,-1.7301707,-1.7400404
alexnet_w1_mlp_simclrhn_probe1,1,203,NaN,cat,bicycle,NaN,bicycle5-bear1.png,bicycle5-bear1.png,0.0,-8.535161,0.14871497,-6.1404276
alexnet_w1_mlp_simclrhn_probe1,1,204,NaN,bicycle,bicycle,NaN,bicycle5-bottle3.png,bicycle5-bottle3.png,1.0,6.4918714,-5.097885,8.195195
alexnet_w1_mlp_simclrhn_probe1,1,205,NaN,bicycle,bicycle,NaN,bicycle5-car3.png,bicycle5-car3.png,1.0,4.829549,-2.177434,4.954685
alexnet_w1_mlp_simclrhn_probe1,1,206,NaN,cat,bicycle,NaN,bicycle5-cat1.png,bicycle5-cat1.png,0.0,-6.713688,0.73578054,-5.26757
alexnet_w1_mlp_simclrhn_probe1,1,207,NaN,bicycle,bicycle,NaN,bicycle5-chair2.png,bicycle5-chair2.png,1.0,2.8312812,-1.5736775,3.1147761
alexnet_w1_mlp_simclrhn_probe1,1,208,NaN,cat,bicycle,NaN,bicycle5-dog2.png,bicycle5-dog2.png,0.0,-5.0279455,1.0853407,-4.3227463
alexnet_w1_mlp_simclrhn_probe1,1,209,NaN,bicycle,bicycle,NaN,bicycle5-elephant1.png,bicycle5-elephant1.png,1.0,-1.4057173,-2.8705647,1.0358036
alexnet_w1_mlp_simclrhn_probe1,1,210,NaN,airplane,bicycle,NaN,bicycle5-keyboard3.png,bicycle5-keyboard3.png,0.0,-4.037425,0.37344512,-3.118956
alexnet_w1_mlp_simclrhn_probe1,1,211,NaN,chair,bicycle,NaN,bicycle5-oven3.png,bicycle5-oven3.png,0.0,-3.527928,0.9727665,-3.1824718
alexnet_w1_mlp_simclrhn_probe1,1,212,NaN,chair,bicycle,NaN,bicycle6-airplane2.png,bicycle6-airplane2.png,0.0,-2.7094812,-0.7764103,-1.3668876
alexnet_w1_mlp_simclrhn_probe1,1,213,NaN,bicycle,bicycle,NaN,bicycle6-bicycle3.png,bicycle6-bicycle3.png,1.0,1.5103619,-4.899125,4.5321918
alexnet_w1_mlp_simclrhn_probe1,1,214,NaN,bicycle,bicycle,NaN,bicycle6-boat2.png,bicycle6-boat2.png,1.0,2.7990208,-0.6422876,2.4333727
alexnet_w1_mlp_simclrhn_probe1,1,215,NaN,bicycle,bicycle,NaN,bicycle6-car2.png,bicycle6-car2.png,1.0,0.4621433,-4.2313457,3.318798
alexnet_w1_mlp_simclrhn_probe1,1,216,NaN,cat,bicycle,NaN,bicycle6-cat1.png,bicycle6-cat1.png,0.0,-9.4929085,2.286012,-8.328955
alexnet_w1_mlp_simclrhn_probe1,1,217,NaN,cat,bicycle,NaN,bicycle6-dog2.png,bicycle6-dog2.png,0.0,-5.237033,2.428117,-5.420079
alexnet_w1_mlp_simclrhn_probe1,1,218,NaN,elephant,bicycle,NaN,bicycle7-bear2.png,bicycle7-bear2.png,0.0,-4.0355234,2.4024348,-4.552324
alexnet_w1_mlp_simclrhn_probe1,1,219,NaN,bicycle,bicycle,NaN,bicycle7-bicycle2.png,bicycle7-bicycle2.png,1.0,5.731235,-5.427914,7.8907104
alexnet_w1_mlp_simclrhn_probe1,1,220,NaN,cat,bicycle,NaN,bicycle7-cat1.png,bicycle7-cat1.png,0.0,-8.781844,1.6712247,-7.391436
alexnet_w1_mlp_simclrhn_probe1,1,221,NaN,bicycle,bicycle,NaN,bicycle7-clock3.png,bicycle7-clock3.png,1.0,4.2834764,-2.6676457,4.915186
alexnet_w1_mlp_simclrhn_probe1,1,222,NaN,elephant,bicycle,NaN,bicycle7-elephant2.png,bicycle7-elephant2.png,0.0,-3.4839692,-2.748962,-0.51972866
alexnet_w1_mlp_simclrhn_probe1,1,223,NaN,bicycle,bicycle,NaN,bicycle7-knife2.png,bicycle7-knife2.png,1.0,-0.42568368,-1.2066045,0.5521944
alexnet_w1_mlp_simclrhn_probe1,1,224,NaN,knife,bicycle,NaN,bicycle7-oven1.png,bicycle7-oven1.png,0.0,-5.886118,0.5594399,-4.557698
alexnet_w1_mlp_simclrhn_probe1,1,225,NaN,bottle,bicycle,NaN,bicycle7-truck3.png,bicycle7-truck3.png,0.0,-5.289241,-0.23769328,-3.5719836
alexnet_w1_mlp_simclrhn_probe1,1,226,NaN,elephant,bicycle,NaN,bicycle8-bear2.png,bicycle8-bear2.png,0.0,-3.8965592,1.9225755,-4.11475
alexnet_w1_mlp_simclrhn_probe1,1,227,NaN,bicycle,bicycle,NaN,bicycle8-bird2.png,bicycle8-bird2.png,1.0,5.35227,-5.205684,7.4656014
alexnet_w1_mlp_simclrhn_probe1,1,228,NaN,bicycle,bicycle,NaN,bicycle8-boat1.png,bicycle8-boat1.png,1.0,7.783575,-3.1778452,7.7508945
alexnet_w1_mlp_simclrhn_probe1,1,229,NaN,bicycle,bicycle,NaN,bicycle8-chair2.png,bicycle8-chair2.png,1.0,2.450718,-1.6993114,2.9345138
alexnet_w1_mlp_simclrhn_probe1,1,230,NaN,bicycle,bicycle,NaN,bicycle8-clock3.png,bicycle8-clock3.png,1.0,4.86876,-1.8645598,4.761176
alexnet_w1_mlp_simclrhn_probe1,1,231,NaN,bicycle,bicycle,NaN,bicycle8-truck1.png,bicycle8-truck1.png,1.0,5.5992966,0.4789072,3.6206622
alexnet_w1_mlp_simclrhn_probe1,1,232,NaN,bicycle,bicycle,NaN,bicycle9-airplane2.png,bicycle9-airplane2.png,1.0,1.5605905,0.42759728,0.8011472
alexnet_w1_mlp_simclrhn_probe1,1,233,NaN,elephant,bicycle,NaN,bicycle9-bear1.png,bicycle9-bear1.png,0.0,-6.8404717,-1.3760843,-3.8639054
alexnet_w1_mlp_simclrhn_probe1,1,234,NaN,bicycle,bicycle,NaN,bicycle9-bird3.png,bicycle9-bird3.png,1.0,0.59370327,-3.7070296,3.0410771
alexnet_w1_mlp_simclrhn_probe1,1,235,NaN,bicycle,bicycle,NaN,bicycle9-bottle1.png,bicycle9-bottle1.png,1.0,3.9950452,-5.5676184,6.7618246
alexnet_w1_mlp_simclrhn_probe1,1,236,NaN,bicycle,bicycle,NaN,bicycle9-car1.png,bicycle9-car1.png,1.0,10.182277,-2.5677853,9.0156555
alexnet_w1_mlp_simclrhn_probe1,1,237,NaN,cat,bicycle,NaN,bicycle9-cat3.png,bicycle9-cat3.png,0.0,-6.5018682,0.6093118,-5.0283637
alexnet_w1_mlp_simclrhn_probe1,1,238,NaN,bicycle,bicycle,NaN,bicycle9-chair1.png,bicycle9-chair1.png,1.0,-0.17326756,-1.1498202,0.690527
alexnet_w1_mlp_simclrhn_probe1,1,239,NaN,airplane,bicycle,NaN,bicycle9-keyboard3.png,bicycle9-keyboard3.png,0.0,-4.6491613,0.41187415,-3.5786927
alexnet_w1_mlp_simclrhn_probe1,1,240,NaN,knife,bicycle,NaN,bicycle9-knife3.png,bicycle9-knife3.png,0.0,-5.1206236,-0.8801868,-2.9984415
alexnet_w1_mlp_simclrhn_probe1,1,241,NaN,bird,bird,NaN,bird1-airplane2.png,bird1-airplane2.png,1.0,-3.6905446,-4.0333357,0.2423899
alexnet_w1_mlp_simclrhn_probe1,1,242,NaN,cat,bird,NaN,bird1-bear1.png,bird1-bear1.png,0.0,-2.6276376,-0.5557779,-1.4650261
alexnet_w1_mlp_simclrhn_probe1,1,243,NaN,bird,bird,NaN,bird1-bicycle2.png,bird1-bicycle2.png,1.0,-0.76789963,-1.8392454,0.7575559
alexnet_w1_mlp_simclrhn_probe1,1,244,NaN,bicycle,bird,NaN,bird1-boat1.png,bird1-boat1.png,0.0,-4.9421372,0.71864796,-4.0027795
alexnet_w1_mlp_simclrhn_probe1,1,245,NaN,bicycle,bird,NaN,bird1-chair2.png,bird1-chair2.png,0.0,-6.4108424,-1.1229192,-3.7391264
alexnet_w1_mlp_simclrhn_probe1,1,246,NaN,bottle,bird,NaN,bird1-clock3.png,bird1-clock3.png,0.0,-13.147867,-1.4452069,-8.275031
alexnet_w1_mlp_simclrhn_probe1,1,247,NaN,elephant,bird,NaN,bird1-elephant2.png,bird1-elephant2.png,0.0,-3.3896322,-1.138306,-1.591928
alexnet_w1_mlp_simclrhn_probe1,1,248,NaN,knife,bird,NaN,bird1-keyboard3.png,bird1-keyboard3.png,0.0,-3.4851418,-1.2466073,-1.5828829
alexnet_w1_mlp_simclrhn_probe1,1,249,NaN,knife,bird,NaN,bird1-knife3.png,bird1-knife3.png,0.0,-5.726834,-2.3892524,-2.3600264
alexnet_w1_mlp_simclrhn_probe1,1,250,NaN,knife,bird,NaN,bird1-oven1.png,bird1-oven1.png,0.0,-4.705512,0.26392424,-3.513922
alexnet_w1_mlp_simclrhn_probe1,1,251,NaN,chair,bird,NaN,bird1-truck1.png,bird1-truck1.png,0.0,-10.790191,-1.5872536,-6.507459
alexnet_w1_mlp_simclrhn_probe1,1,252,NaN,elephant,bird,NaN,bird10-bear2.png,bird10-bear2.png,0.0,-1.9966097,1.4858412,-2.4624648
alexnet_w1_mlp_simclrhn_probe1,1,253,NaN,bicycle,bird,NaN,bird10-bicycle1.png,bird10-bicycle1.png,0.0,-3.0922031,0.12763053,-2.2767663
alexnet_w1_mlp_simclrhn_probe1,1,254,NaN,bird,bird,NaN,bird10-bird2.png,bird10-bird2.png,1.0,0.2091612,-1.6827635,1.3377928
alexnet_w1_mlp_simclrhn_probe1,1,255,NaN,cat,bird,NaN,bird10-cat1.png,bird10-cat1.png,0.0,-3.2084658,1.2659254,-3.1638722
alexnet_w1_mlp_simclrhn_probe1,1,256,NaN,chair,bird,NaN,bird10-chair1.png,bird10-chair1.png,0.0,-7.658746,-1.5924,-4.289554
alexnet_w1_mlp_simclrhn_probe1,1,257,NaN,bicycle,bird,NaN,bird10-clock1.png,bird10-clock1.png,0.0,-5.1859016,-0.6920537,-3.1776304
alexnet_w1_mlp_simclrhn_probe1,1,258,NaN,elephant,bird,NaN,bird10-elephant2.png,bird10-elephant2.png,0.0,-4.070911,-1.1368554,-2.0746906
alexnet_w1_mlp_simclrhn_probe1,1,259,NaN,knife,bird,NaN,bird2-airplane3.png,bird2-airplane3.png,0.0,-8.076517,-0.9204138,-5.060129
alexnet_w1_mlp_simclrhn_probe1,1,260,NaN,bicycle,bird,NaN,bird2-bird2.png,bird2-bird2.png,0.0,-2.1470673,0.8120372,-2.092403
alexnet_w1_mlp_simclrhn_probe1,1,261,NaN,bicycle,bird,NaN,bird2-car3.png,bird2-car3.png,0.0,-5.724436,1.4372749,-5.0640945
alexnet_w1_mlp_simclrhn_probe1,1,262,NaN,bicycle,bird,NaN,bird2-clock3.png,bird2-clock3.png,0.0,-9.461689,-1.9441096,-5.3157315
alexnet_w1_mlp_simclrhn_probe1,1,263,NaN,cat,bird,NaN,bird2-dog2.png,bird2-dog2.png,0.0,-3.8477437,1.114546,-3.508869
alexnet_w1_mlp_simclrhn_probe1,1,264,NaN,bicycle,bird,NaN,bird2-knife1.png,bird2-knife1.png,0.0,-6.643531,-1.3443612,-3.747079
alexnet_w1_mlp_simclrhn_probe1,1,265,NaN,cat,bird,NaN,bird3-bear3.png,bird3-bear3.png,0.0,-0.8978435,-0.10920886,-0.5576489
alexnet_w1_mlp_simclrhn_probe1,1,266,NaN,bird,bird,NaN,bird3-bird2.png,bird3-bird2.png,1.0,-0.6067244,-2.479517,1.3242644
alexnet_w1_mlp_simclrhn_probe1,1,267,NaN,bottle,bird,NaN,bird3-boat3.png,bird3-boat3.png,0.0,-5.8495846,-2.2307875,-2.558876
alexnet_w1_mlp_simclrhn_probe1,1,268,NaN,bicycle,bird,NaN,bird3-bottle2.png,bird3-bottle2.png,0.0,-5.8384075,-1.8380724,-2.8286643
alexnet_w1_mlp_simclrhn_probe1,1,269,NaN,cat,bird,NaN,bird3-cat1.png,bird3-cat1.png,0.0,-3.1200583,1.4841481,-3.2556658
alexnet_w1_mlp_simclrhn_probe1,1,270,NaN,cat,bird,NaN,bird3-dog1.png,bird3-dog1.png,0.0,-3.3235257,0.89335155,-2.9817824
alexnet_w1_mlp_simclrhn_probe1,1,271,NaN,clock,bird,NaN,bird3-knife3.png,bird3-knife3.png,0.0,-6.326878,-1.1894612,-3.6327024
alexnet_w1_mlp_simclrhn_probe1,1,272,NaN,knife,bird,NaN,bird3-oven1.png,bird3-oven1.png,0.0,-6.874121,-0.04788959,-4.8268747
alexnet_w1_mlp_simclrhn_probe1,1,273,NaN,bottle,bird,NaN,bird3-truck3.png,bird3-truck3.png,0.0,-7.7346754,-0.25931114,-5.285881
alexnet_w1_mlp_simclrhn_probe1,1,274,NaN,bicycle,bird,NaN,bird4-airplane1.png,bird4-airplane1.png,0.0,-5.379032,-2.861047,-1.7804843
alexnet_w1_mlp_simclrhn_probe1,1,275,NaN,bird,bird,NaN,bird4-bicycle2.png,bird4-bicycle2.png,1.0,-2.0570977,-2.1795473,0.08658497
alexnet_w1_mlp_simclrhn_probe1,1,276,NaN,cat,bird,NaN,bird4-cat3.png,bird4-cat3.png,0.0,-4.0643296,2.1675756,-4.4066224
alexnet_w1_mlp_simclrhn_probe1,1,277,NaN,bicycle,bird,NaN,bird4-clock1.png,bird4-clock1.png,0.0,-7.3923016,-2.9311845,-3.154486
alexnet_w1_mlp_simclrhn_probe1,1,278,NaN,cat,bird,NaN,bird4-dog3.png,bird4-dog3.png,0.0,-5.1659226,2.0739615,-5.1193714
alexnet_w1_mlp_simclrhn_probe1,1,279,NaN,knife,bird,NaN,bird5-airplane3.png,bird5-airplane3.png,0.0,-5.1875286,-1.9628971,-2.2801588
alexnet_w1_mlp_simclrhn_probe1,1,280,NaN,cat,bird,NaN,bird5-bear3.png,bird5-bear3.png,0.0,-1.959343,0.37285838,-1.6491153
alexnet_w1_mlp_simclrhn_probe1,1,281,NaN,bird,bird,NaN,bird5-bicycle1.png,bird5-bicycle1.png,1.0,-2.5987444,-4.142392,1.0915238
alexnet_w1_mlp_simclrhn_probe1,1,282,NaN,cat,bird,NaN,bird5-bird1.png,bird5-bird1.png,0.0,-2.2866967,-1.4923624,-0.5616792
alexnet_w1_mlp_simclrhn_probe1,1,283,NaN,bicycle,bird,NaN,bird5-car2.png,bird5-car2.png,0.0,-6.855377,-1.3722899,-3.8771284
alexnet_w1_mlp_simclrhn_probe1,1,284,NaN,cat,bird,NaN,bird5-cat2.png,bird5-cat2.png,0.0,-1.3274302,0.4427915,-1.2517358
alexnet_w1_mlp_simclrhn_probe1,1,285,NaN,airplane,bird,NaN,bird5-chair1.png,bird5-chair1.png,0.0,-7.399874,-0.7382851,-4.710455
alexnet_w1_mlp_simclrhn_probe1,1,286,NaN,cat,bird,NaN,bird5-dog2.png,bird5-dog2.png,0.0,-3.0893044,1.033179,-2.915036
alexnet_w1_mlp_simclrhn_probe1,1,287,NaN,knife,bird,NaN,bird5-keyboard2.png,bird5-keyboard2.png,0.0,-7.272073,-0.8990197,-4.506429
alexnet_w1_mlp_simclrhn_probe1,1,288,NaN,chair,bird,NaN,bird5-oven3.png,bird5-oven3.png,0.0,-8.864056,0.35433736,-6.5183887
alexnet_w1_mlp_simclrhn_probe1,1,289,NaN,chair,bird,NaN,bird5-truck2.png,bird5-truck2.png,0.0,-7.8444514,-0.27684262,-5.3511076
alexnet_w1_mlp_simclrhn_probe1,1,290,NaN,bicycle,bird,NaN,bird6-airplane2.png,bird6-airplane2.png,0.0,-5.7322874,-2.7477515,-2.1103857
alexnet_w1_mlp_simclrhn_probe1,1,291,NaN,bicycle,bird,NaN,bird6-boat2.png,bird6-boat2.png,0.0,-8.750771,1.9100755,-7.5383563
alexnet_w1_mlp_simclrhn_probe1,1,292,NaN,bird,bird,NaN,bird6-bottle3.png,bird6-bottle3.png,1.0,-3.5679822,-4.806988,0.87610924
alexnet_w1_mlp_simclrhn_probe1,1,293,NaN,bicycle,bird,NaN,bird6-car3.png,bird6-car3.png,0.0,-6.46092,0.47439075,-4.904005
alexnet_w1_mlp_simclrhn_probe1,1,294,NaN,elephant,bird,NaN,bird6-elephant2.png,bird6-elephant2.png,0.0,-4.3813176,-1.2654234,-2.20327
alexnet_w1_mlp_simclrhn_probe1,1,295,NaN,knife,bird,NaN,bird6-oven1.png,bird6-oven1.png,0.0,-6.9436607,0.22687258,-5.0703325
alexnet_w1_mlp_simclrhn_probe1,1,296,NaN,chair,bird,NaN,bird6-truck2.png,bird6-truck2.png,0.0,-10.1467905,0.46327695,-7.502451
alexnet_w1_mlp_simclrhn_probe1,1,297,NaN,bird,bird,NaN,bird7-bird2.png,bird7-bird2.png,1.0,-1.5752587,-3.9349134,1.6685278
alexnet_w1_mlp_simclrhn_probe1,1,298,NaN,bicycle,bird,NaN,bird7-boat1.png,bird7-boat1.png,0.0,-7.665782,-0.027670681,-5.4009604
alexnet_w1_mlp_simclrhn_probe1,1,299,NaN,bicycle,bird,NaN,bird7-bottle1.png,bird7-bottle1.png,0.0,-7.246596,-2.8248901,-3.1266181
alexnet_w1_mlp_simclrhn_probe1,1,300,NaN,bicycle,bird,NaN,bird7-car2.png,bird7-car2.png,0.0,-7.521528,1.5464772,-6.412048
alexnet_w1_mlp_simclrhn_probe1,1,301,NaN,cat,bird,NaN,bird7-cat3.png,bird7-cat3.png,0.0,-3.5133545,-0.29933727,-2.2726536
alexnet_w1_mlp_simclrhn_probe1,1,302,NaN,knife,bird,NaN,bird7-keyboard3.png,bird7-keyboard3.png,0.0,-4.4022446,-1.4048356,-2.1194882
alexnet_w1_mlp_simclrhn_probe1,1,303,NaN,knife,bird,NaN,bird7-knife2.png,bird7-knife2.png,0.0,-4.672965,-1.6356688,-2.147693
alexnet_w1_mlp_simclrhn_probe1,1,304,NaN,oven,bird,NaN,bird7-oven3.png,bird7-oven3.png,0.0,-8.529273,0.0043931305,-6.0342135
alexnet_w1_mlp_simclrhn_probe1,1,305,NaN,chair,bird,NaN,bird7-truck2.png,bird7-truck2.png,0.0,-8.444699,-1.681876,-4.782038
alexnet_w1_mlp_simclrhn_probe1,1,306,NaN,boat,bird,NaN,bird8-boat3.png,bird8-boat3.png,0.0,-8.103639,-1.6944046,-4.532013
alexnet_w1_mlp_simclrhn_probe1,1,307,NaN,bicycle,bird,NaN,bird8-bottle1.png,bird8-bottle1.png,0.0,-5.084718,-2.1178136,-2.0979185
alexnet_w1_mlp_simclrhn_probe1,1,308,NaN,bicycle,bird,NaN,bird8-car2.png,bird8-car2.png,0.0,-7.8435235,0.82319003,-6.128292
alexnet_w1_mlp_simclrhn_probe1,1,309,NaN,chair,bird,NaN,bird8-chair1.png,bird8-chair1.png,0.0,-8.954702,-0.8482022,-5.7321615
alexnet_w1_mlp_simclrhn_probe1,1,310,NaN,bicycle,bird,NaN,bird8-clock1.png,bird8-clock1.png,0.0,-7.1478477,-0.46792635,-4.7234178
alexnet_w1_mlp_simclrhn_probe1,1,311,NaN,cat,bird,NaN,bird8-elephant1.png,bird8-elephant1.png,0.0,-3.884302,-2.3248003,-1.1027342
alexnet_w1_mlp_simclrhn_probe1,1,312,NaN,clock,bird,NaN,bird8-keyboard2.png,bird8-keyboard2.png,0.0,-8.865662,-0.82744056,-5.683881
alexnet_w1_mlp_simclrhn_probe1,1,313,NaN,knife,bird,NaN,bird8-knife2.png,bird8-knife2.png,0.0,-5.187897,-1.1366161,-2.8646884
alexnet_w1_mlp_simclrhn_probe1,1,314,NaN,elephant,bird,NaN,bird9-bear3.png,bird9-bear3.png,0.0,-2.680238,-0.36972743,-1.6337777
alexnet_w1_mlp_simclrhn_probe1,1,315,NaN,bicycle,bird,NaN,bird9-bicycle3.png,bird9-bicycle3.png,0.0,-2.9558504,-2.0820343,-0.61788124
alexnet_w1_mlp_simclrhn_probe1,1,316,NaN,bird,bird,NaN,bird9-bottle3.png,bird9-bottle3.png,1.0,-2.1679938,-6.153161,2.8179388
alexnet_w1_mlp_simclrhn_probe1,1,317,NaN,chair,bird,NaN,bird9-chair1.png,bird9-chair1.png,0.0,-8.460598,-2.1891658,-4.434572
alexnet_w1_mlp_simclrhn_probe1,1,318,NaN,cat,bird,NaN,bird9-dog2.png,bird9-dog2.png,0.0,-3.4792142,1.5190682,-3.5343194
alexnet_w1_mlp_simclrhn_probe1,1,319,NaN,elephant,bird,NaN,bird9-elephant2.png,bird9-elephant2.png,0.0,-4.3773155,-1.4922645,-2.040039
alexnet_w1_mlp_simclrhn_probe1,1,320,NaN,bicycle,bird,NaN,bird9-keyboard1.png,bird9-keyboard1.png,0.0,-4.729658,-0.37968487,-3.0758955
alexnet_w1_mlp_simclrhn_probe1,1,321,NaN,bear,boat,NaN,boat1-bear1.png,boat1-bear1.png,0.0,-10.225812,-0.69931805,-6.7362485
alexnet_w1_mlp_simclrhn_probe1,1,322,NaN,bird,boat,NaN,boat1-bicycle2.png,boat1-bicycle2.png,0.0,-9.784726,-3.2084024,-4.650163
alexnet_w1_mlp_simclrhn_probe1,1,323,NaN,knife,boat,NaN,boat1-bird3.png,boat1-bird3.png,0.0,-8.290302,-1.136135,-5.05876
alexnet_w1_mlp_simclrhn_probe1,1,324,NaN,bicycle,boat,NaN,boat1-car2.png,boat1-car2.png,0.0,-5.731246,-2.58025,-2.2280908
alexnet_w1_mlp_simclrhn_probe1,1,325,NaN,airplane,boat,NaN,boat1-chair3.png,boat1-chair3.png,0.0,-1.3935642,2.0769644,-2.4540343
alexnet_w1_mlp_simclrhn_probe1,1,326,NaN,bird,boat,NaN,boat1-elephant3.png,boat1-elephant3.png,0.0,-6.8369513,-2.6771476,-2.9414253
alexnet_w1_mlp_simclrhn_probe1,1,327,NaN,airplane,boat,NaN,boat1-keyboard3.png,boat1-keyboard3.png,0.0,-4.14544,-0.35337883,-2.6813924
alexnet_w1_mlp_simclrhn_probe1,1,328,NaN,knife,boat,NaN,boat1-oven1.png,boat1-oven1.png,0.0,-2.2226684,1.3176491,-2.5033827
alexnet_w1_mlp_simclrhn_probe1,1,329,NaN,airplane,boat,NaN,boat1-truck3.png,boat1-truck3.png,0.0,-2.7391012,0.28328714,-2.1371512
alexnet_w1_mlp_simclrhn_probe1,1,330,NaN,elephant,boat,NaN,boat10-bear3.png,boat10-bear3.png,0.0,-11.560371,-1.6849773,-6.9829583
alexnet_w1_mlp_simclrhn_probe1,1,331,NaN,boat,boat,NaN,boat10-boat3.png,boat10-boat3.png,1.0,-0.58306575,-2.3512797,1.2503161
alexnet_w1_mlp_simclrhn_probe1,1,332,NaN,cat,boat,NaN,boat10-cat1.png,boat10-cat1.png,0.0,-10.468336,0.96066165,-8.081522
alexnet_w1_mlp_simclrhn_probe1,1,333,NaN,car,boat,NaN,boat10-oven1.png,boat10-oven1.png,0.0,-4.0140886,0.99398655,-3.541244
alexnet_w1_mlp_simclrhn_probe1,1,334,NaN,car,boat,NaN,boat10-truck1.png,boat10-truck1.png,0.0,-1.0654465,1.2949302,-1.6690385
alexnet_w1_mlp_simclrhn_probe1,1,335,NaN,bicycle,boat,NaN,boat2-airplane1.png,boat2-airplane1.png,0.0,-1.8123083,-1.3999015,-0.29161566
alexnet_w1_mlp_simclrhn_probe1,1,336,NaN,bear,boat,NaN,boat2-bear3.png,boat2-bear3.png,0.0,-10.562193,-0.8150549,-6.8922677
alexnet_w1_mlp_simclrhn_probe1,1,337,NaN,cat,boat,NaN,boat2-bird1.png,boat2-bird1.png,0.0,-4.8067546,-1.3440433,-2.4485066
alexnet_w1_mlp_simclrhn_probe1,1,338,NaN,bottle,boat,NaN,boat2-bottle2.png,boat2-bottle2.png,0.0,-4.9495616,-0.03775575,-3.4731712
alexnet_w1_mlp_simclrhn_probe1,1,339,NaN,bicycle,boat,NaN,boat2-keyboard1.png,boat2-keyboard1.png,0.0,-3.5230668,-1.0741451,-1.7316492
alexnet_w1_mlp_simclrhn_probe1,1,340,NaN,chair,boat,NaN,boat2-oven3.png,boat2-oven3.png,0.0,-1.7307361,-0.8828143,-0.5995713
alexnet_w1_mlp_simclrhn_probe1,1,341,NaN,airplane,boat,NaN,boat3-airplane2.png,boat3-airplane2.png,0.0,-2.3716683,2.3576636,-3.3441427
alexnet_w1_mlp_simclrhn_probe1,1,342,NaN,bicycle,boat,NaN,boat3-bicycle2.png,boat3-bicycle2.png,0.0,-7.5466413,-0.89354455,-4.7044497
alexnet_w1_mlp_simclrhn_probe1,1,343,NaN,chair,boat,NaN,boat3-car3.png,boat3-car3.png,0.0,-2.536861,-2.3320954,-0.14479111
alexnet_w1_mlp_simclrhn_probe1,1,344,NaN,cat,boat,NaN,boat3-cat3.png,boat3-cat3.png,0.0,-6.1565843,-0.08050785,-4.296435
alexnet_w1_mlp_simclrhn_probe1,1,345,NaN,airplane,boat,NaN,boat3-chair3.png,boat3-chair3.png,0.0,-1.6924912,4.4782825,-4.3633957
alexnet_w1_mlp_simclrhn_probe1,1,346,NaN,bottle,boat,NaN,boat3-clock3.png,boat3-clock3.png,0.0,-7.1490545,-3.965507,-2.2511082
alexnet_w1_mlp_simclrhn_probe1,1,347,NaN,cat,boat,NaN,boat3-dog3.png,boat3-dog3.png,0.0,-8.8608265,1.0084994,-6.9786673
alexnet_w1_mlp_simclrhn_probe1,1,348,NaN,airplane,boat,NaN,boat3-keyboard2.png,boat3-keyboard2.png,0.0,-4.9024954,1.2082481,-4.320948
alexnet_w1_mlp_simclrhn_probe1,1,349,NaN,bird,boat,NaN,boat4-bicycle3.png,boat4-bicycle3.png,0.0,-8.536914,-1.8873672,-4.7019396
alexnet_w1_mlp_simclrhn_probe1,1,350,NaN,cat,boat,NaN,boat4-bird1.png,boat4-bird1.png,0.0,-3.3341432,-1.1769127,-1.5253923
alexnet_w1_mlp_simclrhn_probe1,1,351,NaN,boat,boat,NaN,boat4-boat3.png,boat4-boat3.png,1.0,0.6155137,-0.6759391,0.913195
alexnet_w1_mlp_simclrhn_probe1,1,352,NaN,bottle,boat,NaN,boat4-bottle2.png,boat4-bottle2.png,0.0,-4.749837,-1.9499501,-1.9798189
alexnet_w1_mlp_simclrhn_probe1,1,353,NaN,oven,boat,NaN,boat4-car3.png,boat4-car3.png,0.0,-4.5838385,-0.6286204,-2.7967615
alexnet_w1_mlp_simclrhn_probe1,1,354,NaN,boat,boat,NaN,boat4-chair2.png,boat4-chair2.png,1.0,-0.11672153,-1.3229785,0.8529525
alexnet_w1_mlp_simclrhn_probe1,1,355,NaN,cat,boat,NaN,boat4-dog2.png,boat4-dog2.png,0.0,-6.625991,0.54320294,-5.0693855
alexnet_w1_mlp_simclrhn_probe1,1,356,NaN,cat,boat,NaN,boat4-elephant2.png,boat4-elephant2.png,0.0,-8.457504,-1.3876508,-4.999141
alexnet_w1_mlp_simclrhn_probe1,1,357,NaN,oven,boat,NaN,boat4-knife2.png,boat4-knife2.png,0.0,-2.5612664,0.12417787,-1.898896
alexnet_w1_mlp_simclrhn_probe1,1,358,NaN,knife,boat,NaN,boat5-airplane1.png,boat5-airplane1.png,0.0,-4.3488183,-2.5546255,-1.2686859
alexnet_w1_mlp_simclrhn_probe1,1,359,NaN,bicycle,boat,NaN,boat5-bicycle3.png,boat5-bicycle3.png,0.0,-6.900833,-0.9046558,-4.239938
alexnet_w1_mlp_simclrhn_probe1,1,360,NaN,boat,boat,NaN,boat5-boat3.png,boat5-boat3.png,1.0,-0.360781,-2.3049593,1.3747417
alexnet_w1_mlp_simclrhn_probe1,1,361,NaN,oven,boat,NaN,boat5-car3.png,boat5-car3.png,0.0,-5.299863,-1.7838099,-2.486225
alexnet_w1_mlp_simclrhn_probe1,1,362,NaN,knife,boat,NaN,boat5-clock3.png,boat5-clock3.png,0.0,-6.6952505,-2.3650084,-3.0619435
alexnet_w1_mlp_simclrhn_probe1,1,363,NaN,boat,boat,NaN,boat5-knife2.png,boat5-knife2.png,1.0,-1.2971919,-1.6794668,0.27030924
alexnet_w1_mlp_simclrhn_probe1,1,364,NaN,knife,boat,NaN,boat6-airplane2.png,boat6-airplane2.png,0.0,-6.304355,-1.6023002,-3.324855
alexnet_w1_mlp_simclrhn_probe1,1,365,NaN,cat,boat,NaN,boat6-bear1.png,boat6-bear1.png,0.0,-8.707207,-1.0047541,-5.4464564
alexnet_w1_mlp_simclrhn_probe1,1,366,NaN,bicycle,boat,NaN,boat6-bicycle2.png,boat6-bicycle2.png,0.0,-8.850354,0.087034345,-6.319688
alexnet_w1_mlp_simclrhn_probe1,1,367,NaN,bicycle,boat,NaN,boat6-bottle2.png,boat6-bottle2.png,0.0,-7.9470215,-1.3543102,-4.6617513
alexnet_w1_mlp_simclrhn_probe1,1,368,NaN,bicycle,boat,NaN,boat6-car1.png,boat6-car1.png,0.0,-7.1096053,1.604269,-6.16164
alexnet_w1_mlp_simclrhn_probe1,1,369,NaN,cat,boat,NaN,boat6-cat1.png,boat6-cat1.png,0.0,-9.221243,1.3149339,-7.450202
alexnet_w1_mlp_simclrhn_probe1,1,370,NaN,bicycle,boat,NaN,boat6-clock2.png,boat6-clock2.png,0.0,-8.136518,-1.6687248,-4.57342
alexnet_w1_mlp_simclrhn_probe1,1,371,NaN,cat,boat,NaN,boat6-dog1.png,boat6-dog1.png,0.0,-12.262087,0.9376629,-9.333632
alexnet_w1_mlp_simclrhn_probe1,1,372,NaN,elephant,boat,NaN,boat6-elephant2.png,boat6-elephant2.png,0.0,-8.004192,-1.8614378,-4.3435836
alexnet_w1_mlp_simclrhn_probe1,1,373,NaN,knife,boat,NaN,boat6-knife2.png,boat6-knife2.png,0.0,-3.3211403,-2.0697122,-0.88489336
alexnet_w1_mlp_simclrhn_probe1,1,374,NaN,chair,boat,NaN,boat6-truck3.png,boat6-truck3.png,0.0,-6.4423676,-1.0791045,-3.7924
alexnet_w1_mlp_simclrhn_probe1,1,375,NaN,bicycle,boat,NaN,boat7-boat2.png,boat7-boat2.png,0.0,-2.4269252,2.5972915,-3.5526578
alexnet_w1_mlp_simclrhn_probe1,1,376,NaN,bicycle,boat,NaN,boat7-bottle1.png,boat7-bottle1.png,0.0,-4.794766,-0.4220205,-3.091998
alexnet_w1_mlp_simclrhn_probe1,1,377,NaN,cat,boat,NaN,boat7-cat3.png,boat7-cat3.png,0.0,-6.182625,0.8314412,-4.959694
alexnet_w1_mlp_simclrhn_probe1,1,378,NaN,bottle,boat,NaN,boat7-chair1.png,boat7-chair1.png,0.0,-4.071524,-1.8324759,-1.5832462
alexnet_w1_mlp_simclrhn_probe1,1,379,NaN,bicycle,boat,NaN,boat7-clock3.png,boat7-clock3.png,0.0,-7.146229,-2.0459595,-3.606435
alexnet_w1_mlp_simclrhn_probe1,1,380,NaN,bird,boat,NaN,boat7-elephant3.png,boat7-elephant3.png,0.0,-7.035797,-3.4219255,-2.5553932
alexnet_w1_mlp_simclrhn_probe1,1,381,NaN,bottle,boat,NaN,boat7-keyboard3.png,boat7-keyboard3.png,0.0,-3.4494286,-0.76080596,-1.9011432
alexnet_w1_mlp_simclrhn_probe1,1,382,NaN,chair,boat,NaN,boat7-oven3.png,boat7-oven3.png,0.0,-1.9686178,-0.83226514,-0.8035227
alexnet_w1_mlp_simclrhn_probe1,1,383,NaN,chair,boat,NaN,boat7-truck2.png,boat7-truck2.png,0.0,-3.289325,-0.6512814,-1.8653786
alexnet_w1_mlp_simclrhn_probe1,1,384,NaN,bird,boat,NaN,boat8-bird2.png,boat8-bird2.png,0.0,-6.9703918,-2.151271,-3.4076328
alexnet_w1_mlp_simclrhn_probe1,1,385,NaN,knife,boat,NaN,boat8-bottle1.png,boat8-bottle1.png,0.0,-6.4683275,-2.6070402,-2.7303426
alexnet_w1_mlp_simclrhn_probe1,1,386,NaN,cat,boat,NaN,boat8-dog3.png,boat8-dog3.png,0.0,-11.886994,1.4764365,-9.449373
alexnet_w1_mlp_simclrhn_probe1,1,387,NaN,bicycle,boat,NaN,boat8-elephant1.png,boat8-elephant1.png,0.0,-6.3480554,-1.673356,-3.3055117
alexnet_w1_mlp_simclrhn_probe1,1,388,NaN,bicycle,boat,NaN,boat8-knife1.png,boat8-knife1.png,0.0,-6.4900513,-2.5933425,-2.7553892
alexnet_w1_mlp_simclrhn_probe1,1,389,NaN,airplane,boat,NaN,boat8-oven1.png,boat8-oven1.png,0.0,-2.6586204,0.36077517,-2.135035
alexnet_w1_mlp_simclrhn_probe1,1,390,NaN,car,boat,NaN,boat8-truck2.png,boat8-truck2.png,0.0,-1.2072079,1.6417946,-2.014549
alexnet_w1_mlp_simclrhn_probe1,1,391,NaN,airplane,boat,NaN,boat9-airplane2.png,boat9-airplane2.png,0.0,-1.9827696,-0.8724947,-0.78508294
alexnet_w1_mlp_simclrhn_probe1,1,392,NaN,elephant,boat,NaN,boat9-bear3.png,boat9-bear3.png,0.0,-11.852774,3.0303028,-10.523925
alexnet_w1_mlp_simclrhn_probe1,1,393,NaN,cat,boat,NaN,boat9-bird1.png,boat9-bird1.png,0.0,-2.557893,-2.0061915,-0.39011192
alexnet_w1_mlp_simclrhn_probe1,1,394,NaN,boat,boat,NaN,boat9-boat3.png,boat9-boat3.png,1.0,0.14804263,-2.809192,2.0910807
alexnet_w1_mlp_simclrhn_probe1,1,395,NaN,elephant,boat,NaN,boat9-cat3.png,boat9-cat3.png,0.0,-4.799038,-0.0054611266,-3.3895707
alexnet_w1_mlp_simclrhn_probe1,1,396,NaN,boat,boat,NaN,boat9-chair2.png,boat9-chair2.png,1.0,-0.12137928,-2.6830516,1.8113759
alexnet_w1_mlp_simclrhn_probe1,1,397,NaN,bicycle,boat,NaN,boat9-clock1.png,boat9-clock1.png,0.0,-4.163354,-3.0030856,-0.8204336
alexnet_w1_mlp_simclrhn_probe1,1,398,NaN,elephant,boat,NaN,boat9-dog2.png,boat9-dog2.png,0.0,-6.4292693,0.21401934,-4.6975145
alexnet_w1_mlp_simclrhn_probe1,1,399,NaN,airplane,boat,NaN,boat9-keyboard2.png,boat9-keyboard2.png,0.0,-1.6931026,0.27738214,-1.3933431
alexnet_w1_mlp_simclrhn_probe1,1,400,NaN,boat,boat,NaN,boat9-knife2.png,boat9-knife2.png,1.0,2.0417173,-1.0174608,2.1631656
alexnet_w1_mlp_simclrhn_probe1,1,401,NaN,cat,bottle,NaN,bottle1-bear1.png,bottle1-bear1.png,0.0,-4.0899863,0.25533172,-3.0726037
alexnet_w1_mlp_simclrhn_probe1,1,402,NaN,bottle,bottle,NaN,bottle1-bird3.png,bottle1-bird3.png,1.0,0.07129939,-3.7714553,2.717238
alexnet_w1_mlp_simclrhn_probe1,1,403,NaN,bicycle,bottle,NaN,bottle1-car1.png,bottle1-car1.png,0.0,-1.6025865,-1.2398589,-0.2564872
alexnet_w1_mlp_simclrhn_probe1,1,404,NaN,cat,bottle,NaN,bottle1-cat3.png,bottle1-cat3.png,0.0,-2.066606,0.65055984,-1.9213265
alexnet_w1_mlp_simclrhn_probe1,1,405,NaN,bottle,bottle,NaN,bottle1-chair2.png,bottle1-chair2.png,1.0,-0.048141122,-1.0061599,0.67742157
alexnet_w1_mlp_simclrhn_probe1,1,406,NaN,bottle,bottle,NaN,bottle1-clock1.png,bottle1-clock1.png,1.0,-0.80998266,-1.1870916,0.26665628
alexnet_w1_mlp_simclrhn_probe1,1,407,NaN,cat,bottle,NaN,bottle1-dog2.png,bottle1-dog2.png,0.0,-3.798149,1.7261109,-3.906242
alexnet_w1_mlp_simclrhn_probe1,1,408,NaN,bottle,bottle,NaN,bottle1-keyboard3.png,bottle1-keyboard3.png,1.0,-0.36261636,-1.2858849,0.65284944
alexnet_w1_mlp_simclrhn_probe1,1,409,NaN,elephant,bottle,NaN,bottle10-bear2.png,bottle10-bear2.png,0.0,-2.190905,1.079092,-2.3122373
alexnet_w1_mlp_simclrhn_probe1,1,410,NaN,bottle,bottle,NaN,bottle10-boat3.png,bottle10-boat3.png,1.0,2.3635619,-2.3043957,3.3007443
alexnet_w1_mlp_simclrhn_probe1,1,411,NaN,chair,bottle,NaN,bottle10-car1.png,bottle10-car1.png,0.0,-0.06494604,0.09099206,-0.11026489
alexnet_w1_mlp_simclrhn_probe1,1,412,NaN,bottle,bottle,NaN,bottle10-clock2.png,bottle10-clock2.png,1.0,3.720209,-1.4085298,3.6265657
alexnet_w1_mlp_simclrhn_probe1,1,413,NaN,cat,bottle,NaN,bottle10-dog1.png,bottle10-dog1.png,0.0,-5.972005,1.3297179,-5.1630974
alexnet_w1_mlp_simclrhn_probe1,1,414,NaN,bottle,bottle,NaN,bottle10-truck3.png,bottle10-truck3.png,1.0,4.0764785,-0.53488183,3.2607243
alexnet_w1_mlp_simclrhn_probe1,1,415,NaN,bird,bottle,NaN,bottle2-bottle3.png,bottle2-bottle3.png,0.0,-5.040519,-4.93406,-0.075277984
alexnet_w1_mlp_simclrhn_probe1,1,416,NaN,bicycle,bottle,NaN,bottle2-car2.png,bottle2-car2.png,0.0,-4.1300774,-0.5233152,-2.550366
alexnet_w1_mlp_simclrhn_probe1,1,417,NaN,bottle,bottle,NaN,bottle2-chair3.png,bottle2-chair3.png,1.0,-1.6868198,-1.7099376,0.01634674
alexnet_w1_mlp_simclrhn_probe1,1,418,NaN,bicycle,bottle,NaN,bottle2-clock1.png,bottle2-clock1.png,0.0,-1.9993972,-0.6796686,-0.9331891
alexnet_w1_mlp_simclrhn_probe1,1,419,NaN,elephant,bottle,NaN,bottle2-elephant1.png,bottle2-elephant1.png,0.0,-3.5456827,-2.529571,-0.7184994
alexnet_w1_mlp_simclrhn_probe1,1,420,NaN,bottle,bottle,NaN,bottle2-knife3.png,bottle2-knife3.png,1.0,-0.1585397,-2.2580674,1.4845902
alexnet_w1_mlp_simclrhn_probe1,1,421,NaN,bottle,bottle,NaN,bottle3-airplane2.png,bottle3-airplane2.png,1.0,-0.51517594,-2.3355823,1.2872217
alexnet_w1_mlp_simclrhn_probe1,1,422,NaN,elephant,bottle,NaN,bottle3-bear2.png,bottle3-bear2.png,0.0,-4.915763,1.509231,-4.543157
alexnet_w1_mlp_simclrhn_probe1,1,423,NaN,bicycle,bottle,NaN,bottle3-bicycle3.png,bottle3-bicycle3.png,0.0,-5.1869617,1.2013378,-4.51721
alexnet_w1_mlp_simclrhn_probe1,1,424,NaN,cat,bottle,NaN,bottle3-bird1.png,bottle3-bird1.png,0.0,-2.1285582,-1.4775511,-0.4603315
alexnet_w1_mlp_simclrhn_probe1,1,425,NaN,bottle,bottle,NaN,bottle3-boat3.png,bottle3-boat3.png,1.0,-0.3065881,-2.561635,1.594559
alexnet_w1_mlp_simclrhn_probe1,1,426,NaN,bottle,bottle,NaN,bottle3-bottle3.png,bottle3-bottle3.png,1.0,-4.582047,-4.693016,0.07846698
alexnet_w1_mlp_simclrhn_probe1,1,427,NaN,cat,bottle,NaN,bottle3-cat3.png,bottle3-cat3.png,0.0,-2.836064,1.3364167,-2.9503894
alexnet_w1_mlp_simclrhn_probe1,1,428,NaN,bottle,bottle,NaN,bottle3-chair3.png,bottle3-chair3.png,1.0,-2.0718303,-3.455847,0.97864765
alexnet_w1_mlp_simclrhn_probe1,1,429,NaN,bottle,bottle,NaN,bottle3-knife3.png,bottle3-knife3.png,1.0,-1.6941172,-2.3620505,0.4723002
alexnet_w1_mlp_simclrhn_probe1,1,430,NaN,knife,bottle,NaN,bottle4-airplane1.png,bottle4-airplane1.png,0.0,-3.760552,-3.4594564,-0.21290666
alexnet_w1_mlp_simclrhn_probe1,1,431,NaN,bicycle,bottle,NaN,bottle4-bicycle1.png,bottle4-bicycle1.png,0.0,-7.241094,-0.86800873,-4.506452
alexnet_w1_mlp_simclrhn_probe1,1,432,NaN,bicycle,bottle,NaN,bottle4-car3.png,bottle4-car3.png,0.0,-4.302604,1.3108661,-3.969323
alexnet_w1_mlp_simclrhn_probe1,1,433,NaN,cat,bottle,NaN,bottle4-dog2.png,bottle4-dog2.png,0.0,-3.9758055,0.9909275,-3.5120106
alexnet_w1_mlp_simclrhn_probe1,1,434,NaN,bottle,bottle,NaN,bottle4-oven2.png,bottle4-oven2.png,1.0,1.9894187,0.05915966,1.3648993
alexnet_w1_mlp_simclrhn_probe1,1,435,NaN,bottle,bottle,NaN,bottle4-truck1.png,bottle4-truck1.png,1.0,0.6931752,-0.7608037,1.0281184
alexnet_w1_mlp_simclrhn_probe1,1,436,NaN,bottle,bottle,NaN,bottle5-airplane1.png,bottle5-airplane1.png,1.0,-1.3668202,-3.3397033,1.3950391
alexnet_w1_mlp_simclrhn_probe1,1,437,NaN,bottle,bottle,NaN,bottle5-bird3.png,bottle5-bird3.png,1.0,0.21852817,-6.06484,4.443012
alexnet_w1_mlp_simclrhn_probe1,1,438,NaN,bottle,bottle,NaN,bottle5-boat1.png,bottle5-boat1.png,1.0,-2.2296457,-2.8257089,0.4214803
alexnet_w1_mlp_simclrhn_probe1,1,439,NaN,cat,bottle,NaN,bottle5-cat1.png,bottle5-cat1.png,0.0,-7.160884,2.64727,-6.9354124
alexnet_w1_mlp_simclrhn_probe1,1,440,NaN,bottle,bottle,NaN,bottle5-chair1.png,bottle5-chair1.png,1.0,1.0451638,-2.2003722,2.2949405
alexnet_w1_mlp_simclrhn_probe1,1,441,NaN,bottle,bottle,NaN,bottle5-clock3.png,bottle5-clock3.png,1.0,0.9094262,-3.7073164,3.2645302
alexnet_w1_mlp_simclrhn_probe1,1,442,NaN,cat,bottle,NaN,bottle5-elephant1.png,bottle5-elephant1.png,0.0,-3.9074473,-2.9208376,-0.6976384
alexnet_w1_mlp_simclrhn_probe1,1,443,NaN,bottle,bottle,NaN,bottle5-keyboard2.png,bottle5-keyboard2.png,1.0,0.9854658,-1.7770222,1.9533741
alexnet_w1_mlp_simclrhn_probe1,1,444,NaN,bicycle,bottle,NaN,bottle5-knife1.png,bottle5-knife1.png,0.0,-1.789985,-1.4999623,-0.20507696
alexnet_w1_mlp_simclrhn_probe1,1,445,NaN,bottle,bottle,NaN,bottle5-oven2.png,bottle5-oven2.png,1.0,2.1898196,-0.6430944,2.0031726
alexnet_w1_mlp_simclrhn_probe1,1,446,NaN,bottle,bottle,NaN,bottle5-truck1.png,bottle5-truck1.png,1.0,2.168589,0.3335902,1.2975402
alexnet_w1_mlp_simclrhn_probe1,1,447,NaN,bottle,bottle,NaN,bottle6-airplane1.png,bottle6-airplane1.png,1.0,0.6663189,-2.4307694,2.1899722
alexnet_w1_mlp_simclrhn_probe1,1,448,NaN,elephant,bottle,NaN,bottle6-bear2.png,bottle6-bear2.png,0.0,-5.0785737,1.4382757,-4.6081085
alexnet_w1_mlp_simclrhn_probe1,1,449,NaN,bottle,bottle,NaN,bottle6-bicycle3.png,bottle6-bicycle3.png,1.0,-0.98522025,-2.3868341,0.9910908
alexnet_w1_mlp_simclrhn_probe1,1,450,NaN,cat,bottle,NaN,bottle6-bird1.png,bottle6-bird1.png,0.0,-2.3218658,-1.1146755,-0.8536124
alexnet_w1_mlp_simclrhn_probe1,1,451,NaN,bottle,bottle,NaN,bottle6-boat3.png,bottle6-boat3.png,1.0,3.4976864,-0.5324875,2.8497632
alexnet_w1_mlp_simclrhn_probe1,1,452,NaN,bottle,bottle,NaN,bottle6-bottle3.png,bottle6-bottle3.png,1.0,-3.6897042,-4.654241,0.6820306
alexnet_w1_mlp_simclrhn_probe1,1,453,NaN,bottle,bottle,NaN,bottle6-chair2.png,bottle6-chair2.png,1.0,0.0013495684,-0.47072685,0.33380845
alexnet_w1_mlp_simclrhn_probe1,1,454,NaN,cat,bottle,NaN,bottle6-dog3.png,bottle6-dog3.png,0.0,-6.149319,1.1456672,-5.1583343
alexnet_w1_mlp_simclrhn_probe1,1,455,NaN,bottle,bottle,NaN,bottle6-knife3.png,bottle6-knife3.png,1.0,-0.85970795,-2.1576185,0.9177614
alexnet_w1_mlp_simclrhn_probe1,1,456,NaN,bottle,bottle,NaN,bottle6-oven3.png,bottle6-oven3.png,1.0,0.04770709,-0.77061385,0.5786403
alexnet_w1_mlp_simclrhn_probe1,1,457,NaN,chair,bottle,NaN,bottle7-airplane3.png,bottle7-airplane3.png,0.0,-2.0759847,-1.0273466,-0.7414991
alexnet_w1_mlp_simclrhn_probe1,1,458,NaN,cat,bottle,NaN,bottle7-bear1.png,bottle7-bear1.png,0.0,-7.799438,0.7193219,-6.023673
alexnet_w1_mlp_simclrhn_probe1,1,459,NaN,bottle,bottle,NaN,bottle7-boat3.png,bottle7-boat3.png,1.0,-0.8755334,-2.1890128,0.92877024
alexnet_w1_mlp_simclrhn_probe1,1,460,NaN,cat,bottle,NaN,bottle7-cat2.png,bottle7-cat2.png,0.0,-6.215986,1.6655259,-5.5730705
alexnet_w1_mlp_simclrhn_probe1,1,461,NaN,bicycle,bottle,NaN,bottle7-clock1.png,bottle7-clock1.png,0.0,-2.8990877,-1.1125505,-1.2632725
alexnet_w1_mlp_simclrhn_probe1,1,462,NaN,elephant,bottle,NaN,bottle7-elephant2.png,bottle7-elephant2.png,0.0,-4.874833,0.44029176,-3.758361
alexnet_w1_mlp_simclrhn_probe1,1,463,NaN,bottle,bottle,NaN,bottle7-keyboard2.png,bottle7-keyboard2.png,1.0,-0.3943059,-1.3145165,0.65068716
alexnet_w1_mlp_simclrhn_probe1,1,464,NaN,bottle,bottle,NaN,bottle7-oven2.png,bottle7-oven2.png,1.0,0.63516223,0.09266064,0.38360655
alexnet_w1_mlp_simclrhn_probe1,1,465,NaN,chair,bottle,NaN,bottle7-truck2.png,bottle7-truck2.png,0.0,-1.7664578,0.009937406,-1.2561011
alexnet_w1_mlp_simclrhn_probe1,1,466,NaN,bicycle,bottle,NaN,bottle8-bicycle1.png,bottle8-bicycle1.png,0.0,-3.1748703,-1.46285,-1.2105812
alexnet_w1_mlp_simclrhn_probe1,1,467,NaN,cat,bottle,NaN,bottle8-bird1.png,bottle8-bird1.png,0.0,-2.312737,-1.5417452,-0.5451735
alexnet_w1_mlp_simclrhn_probe1,1,468,NaN,bottle,bottle,NaN,bottle8-bottle3.png,bottle8-bottle3.png,1.0,-1.0442902,-3.3359356,1.6204381
alexnet_w1_mlp_simclrhn_probe1,1,469,NaN,cat,bottle,NaN,bottle8-dog2.png,bottle8-dog2.png,0.0,-3.2649918,1.8941656,-3.648075
alexnet_w1_mlp_simclrhn_probe1,1,470,NaN,bottle,bottle,NaN,bottle8-elephant3.png,bottle8-elephant3.png,1.0,-2.670114,-3.7936,0.7944246
alexnet_w1_mlp_simclrhn_probe1,1,471,NaN,bottle,bottle,NaN,bottle8-keyboard3.png,bottle8-keyboard3.png,1.0,0.82809067,-1.9050318,1.9326094
alexnet_w1_mlp_simclrhn_probe1,1,472,NaN,bicycle,bottle,NaN,bottle8-knife1.png,bottle8-knife1.png,0.0,-1.311477,0.25238526,-1.1058176
alexnet_w1_mlp_simclrhn_probe1,1,473,NaN,bicycle,bottle,NaN,bottle9-bicycle1.png,bottle9-bicycle1.png,0.0,-4.1356654,-3.6395087,-0.35083577
alexnet_w1_mlp_simclrhn_probe1,1,474,NaN,bottle,bottle,NaN,bottle9-bottle1.png,bottle9-bottle1.png,1.0,-1.8420027,-3.462787,1.1460675
alexnet_w1_mlp_simclrhn_probe1,1,475,NaN,bottle,bottle,NaN,bottle9-car3.png,bottle9-car3.png,1.0,-0.5891498,-1.2249231,0.44955966
alexnet_w1_mlp_simclrhn_probe1,1,476,NaN,cat,bottle,NaN,bottle9-cat2.png,bottle9-cat2.png,0.0,-4.6909637,0.6634876,-3.7861688
alexnet_w1_mlp_simclrhn_probe1,1,477,NaN,elephant,bottle,NaN,bottle9-elephant2.png,bottle9-elephant2.png,0.0,-2.9737287,-2.2198725,-0.53305686
alexnet_w1_mlp_simclrhn_probe1,1,478,NaN,bottle,bottle,NaN,bottle9-keyboard1.png,bottle9-keyboard1.png,1.0,-0.41614532,-2.6791282,1.6001705
alexnet_w1_mlp_simclrhn_probe1,1,479,NaN,bottle,bottle,NaN,bottle9-oven2.png,bottle9-oven2.png,1.0,1.6819586,0.071575105,1.1387131
alexnet_w1_mlp_simclrhn_probe1,1,480,NaN,bottle,bottle,NaN,bottle9-truck1.png,bottle9-truck1.png,1.0,2.473161,-1.2044609,2.6004715
alexnet_w1_mlp_simclrhn_probe1,1,481,NaN,car,car,NaN,car1-airplane1.png,car1-airplane1.png,1.0,1.3311906,0.1885705,0.80795443
alexnet_w1_mlp_simclrhn_probe1,1,482,NaN,bicycle,car,NaN,car1-car2.png,car1-car2.png,0.0,-1.3937254,-1.3011084,-0.065490134
alexnet_w1_mlp_simclrhn_probe1,1,483,NaN,airplane,car,NaN,car1-chair3.png,car1-chair3.png,0.0,0.9488168,3.5618591,-1.8477
alexnet_w1_mlp_simclrhn_probe1,1,484,NaN,car,car,NaN,car1-clock2.png,car1-clock2.png,1.0,3.284377,0.30123186,2.1094022
alexnet_w1_mlp_simclrhn_probe1,1,485,NaN,elephant,car,NaN,car1-dog2.png,car1-dog2.png,0.0,-7.095978,0.7199124,-5.526669
alexnet_w1_mlp_simclrhn_probe1,1,486,NaN,car,car,NaN,car1-keyboard2.png,car1-keyboard2.png,1.0,1.4569587,0.41232827,0.7386653
alexnet_w1_mlp_simclrhn_probe1,1,487,NaN,truck,car,NaN,car1-oven3.png,car1-oven3.png,0.0,-1.4624997,0.5190973,-1.4012008
alexnet_w1_mlp_simclrhn_probe1,1,488,NaN,bicycle,car,NaN,car10-bicycle2.png,car10-bicycle2.png,0.0,-4.2445436,0.7743171,-3.5488706
alexnet_w1_mlp_simclrhn_probe1,1,489,NaN,bicycle,car,NaN,car10-bottle3.png,car10-bottle3.png,0.0,-4.120913,-1.9640024,-1.5251662
alexnet_w1_mlp_simclrhn_probe1,1,490,NaN,car,car,NaN,car10-car1.png,car10-car1.png,1.0,1.7570229,0.2935375,1.0348405
alexnet_w1_mlp_simclrhn_probe1,1,491,NaN,car,car,NaN,car10-chair1.png,car10-chair1.png,1.0,6.6068077,5.130292,1.0440544
alexnet_w1_mlp_simclrhn_probe1,1,492,NaN,cat,car,NaN,car10-dog1.png,car10-dog1.png,0.0,-9.78358,-0.30798724,-6.700256
alexnet_w1_mlp_simclrhn_probe1,1,493,NaN,elephant,car,NaN,car10-elephant2.png,car10-elephant2.png,0.0,-7.794678,-1.1180344,-4.7211003
alexnet_w1_mlp_simclrhn_probe1,1,494,NaN,airplane,car,NaN,car10-keyboard2.png,car10-keyboard2.png,0.0,0.2808547,1.3972765,-0.7894294
alexnet_w1_mlp_simclrhn_probe1,1,495,NaN,elephant,car,NaN,car2-bird3.png,car2-bird3.png,0.0,-3.6429176,-2.1164155,-1.0794001
alexnet_w1_mlp_simclrhn_probe1,1,496,NaN,car,car,NaN,car2-car3.png,car2-car3.png,1.0,2.018346,1.4261642,0.41873586
alexnet_w1_mlp_simclrhn_probe1,1,497,NaN,elephant,car,NaN,car2-cat3.png,car2-cat3.png,0.0,-6.594395,-0.23006248,-4.5002627
alexnet_w1_mlp_simclrhn_probe1,1,498,NaN,car,car,NaN,car2-chair1.png,car2-chair1.png,1.0,3.4712598,0.42200744,2.1561472
alexnet_w1_mlp_simclrhn_probe1,1,499,NaN,bottle,car,NaN,car2-knife3.png,car2-knife3.png,0.0,-1.97649,-1.6057605,-0.2621454
alexnet_w1_mlp_simclrhn_probe1,1,500,NaN,car,car,NaN,car3-airplane3.png,car3-airplane3.png,1.0,6.8356013,2.9824615,2.7245815
alexnet_w1_mlp_simclrhn_probe1,1,501,NaN,bicycle,car,NaN,car3-bird2.png,car3-bird2.png,0.0,-4.912577,-1.352084,-2.5176487
alexnet_w1_mlp_simclrhn_probe1,1,502,NaN,car,car,NaN,car3-boat1.png,car3-boat1.png,1.0,2.7241745,0.74299717,1.4009039
alexnet_w1_mlp_simclrhn_probe1,1,503,NaN,oven,car,NaN,car3-bottle3.png,car3-bottle3.png,0.0,-12.635577,-4.856453,-5.5006714
alexnet_w1_mlp_simclrhn_probe1,1,504,NaN,cat,car,NaN,car3-dog2.png,car3-dog2.png,0.0,-6.2090816,0.41729057,-4.685553
alexnet_w1_mlp_simclrhn_probe1,1,505,NaN,elephant,car,NaN,car3-elephant3.png,car3-elephant3.png,0.0,-6.080831,-2.7139363,-2.3807542
alexnet_w1_mlp_simclrhn_probe1,1,506,NaN,truck,car,NaN,car3-oven3.png,car3-oven3.png,0.0,0.030378163,1.2857137,-0.88765633
alexnet_w1_mlp_simclrhn_probe1,1,507,NaN,car,car,NaN,car3-truck1.png,car3-truck1.png,1.0,7.1069303,3.0363443,2.878339
alexnet_w1_mlp_simclrhn_probe1,1,508,NaN,cat,car,NaN,car4-bear3.png,car4-bear3.png,0.0,-13.517718,-1.5607576,-8.454848
alexnet_w1_mlp_simclrhn_probe1,1,509,NaN,bicycle,car,NaN,car4-bicycle3.png,car4-bicycle3.png,0.0,-8.067936,1.7954564,-6.9744716
alexnet_w1_mlp_simclrhn_probe1,1,510,NaN,cat,car,NaN,car4-bird1.png,car4-bird1.png,0.0,-5.8189883,-2.38981,-2.4247952
alexnet_w1_mlp_simclrhn_probe1,1,511,NaN,car,car,NaN,car4-boat1.png,car4-boat1.png,1.0,1.1364638,-1.1990814,1.6514797
alexnet_w1_mlp_simclrhn_probe1,1,512,NaN,bicycle,car,NaN,car4-bottle1.png,car4-bottle1.png,0.0,-12.5012245,-3.699893,-6.223481
alexnet_w1_mlp_simclrhn_probe1,1,513,NaN,bicycle,car,NaN,car4-car2.png,car4-car2.png,0.0,-0.37235615,0.024343848,-0.28050926
alexnet_w1_mlp_simclrhn_probe1,1,514,NaN,cat,car,NaN,car4-cat3.png,car4-cat3.png,0.0,-9.235455,-0.55992216,-6.1345277
alexnet_w1_mlp_simclrhn_probe1,1,515,NaN,bicycle,car,NaN,car4-clock1.png,car4-clock1.png,0.0,-2.7284927,-1.8775547,-0.6017041
alexnet_w1_mlp_simclrhn_probe1,1,516,NaN,knife,car,NaN,car4-elephant3.png,car4-elephant3.png,0.0,-7.3345523,-3.5230958,-2.6951067
alexnet_w1_mlp_simclrhn_probe1,1,517,NaN,truck,car,NaN,car4-oven2.png,car4-oven2.png,0.0,2.1825368,2.3318624,-0.10558915
alexnet_w1_mlp_simclrhn_probe1,1,518,NaN,car,car,NaN,car5-airplane3.png,car5-airplane3.png,1.0,3.3749971,0.27386427,2.1928322
alexnet_w1_mlp_simclrhn_probe1,1,519,NaN,cat,car,NaN,car5-bear3.png,car5-bear3.png,0.0,-14.623337,-1.049369,-9.598245
alexnet_w1_mlp_simclrhn_probe1,1,520,NaN,bottle,car,NaN,car5-bottle1.png,car5-bottle1.png,0.0,-11.670896,-2.5415518,-6.455421
alexnet_w1_mlp_simclrhn_probe1,1,521,NaN,cat,car,NaN,car5-cat1.png,car5-cat1.png,0.0,-13.565465,1.0774356,-10.3540945
alexnet_w1_mlp_simclrhn_probe1,1,522,NaN,clock,car,NaN,car5-keyboard3.png,car5-keyboard3.png,0.0,-1.1311419,-0.7620387,-0.2609954
alexnet_w1_mlp_simclrhn_probe1,1,523,NaN,car,car,NaN,car5-knife2.png,car5-knife2.png,1.0,1.0414315,0.9020771,0.09853849
alexnet_w1_mlp_simclrhn_probe1,1,524,NaN,truck,car,NaN,car5-oven2.png,car5-oven2.png,0.0,1.6120449,2.5859494,-0.6886545
alexnet_w1_mlp_simclrhn_probe1,1,525,NaN,car,car,NaN,car5-truck3.png,car5-truck3.png,1.0,2.8121853,0.9177836,1.3395443
alexnet_w1_mlp_simclrhn_probe1,1,526,NaN,elephant,car,NaN,car6-bear1.png,car6-bear1.png,0.0,-10.635114,0.09845664,-7.5897803
alexnet_w1_mlp_simclrhn_probe1,1,527,NaN,bicycle,car,NaN,car6-bicycle3.png,car6-bicycle3.png,0.0,-7.322437,1.489353,-6.2308764
alexnet_w1_mlp_simclrhn_probe1,1,528,NaN,bicycle,car,NaN,car6-boat1.png,car6-boat1.png,0.0,1.3093117,2.2864084,-0.6909117
alexnet_w1_mlp_simclrhn_probe1,1,529,NaN,bicycle,car,NaN,car6-bottle1.png,car6-bottle1.png,0.0,-10.430943,-1.6240447,-6.2274175
alexnet_w1_mlp_simclrhn_probe1,1,530,NaN,airplane,car,NaN,car6-chair3.png,car6-chair3.png,0.0,0.79380935,1.630876,-0.59189546
alexnet_w1_mlp_simclrhn_probe1,1,531,NaN,elephant,car,NaN,car6-elephant3.png,car6-elephant3.png,0.0,-6.7554603,-2.2767956,-3.166894
alexnet_w1_mlp_simclrhn_probe1,1,532,NaN,car,car,NaN,car6-knife1.png,car6-knife1.png,1.0,2.6495707,0.099675596,1.8030481
alexnet_w1_mlp_simclrhn_probe1,1,533,NaN,car,car,NaN,car6-truck3.png,car6-truck3.png,1.0,3.6269455,1.7174883,1.3501902
alexnet_w1_mlp_simclrhn_probe1,1,534,NaN,car,car,NaN,car7-airplane2.png,car7-airplane2.png,1.0,1.2616799,-0.84967697,1.4929547
alexnet_w1_mlp_simclrhn_probe1,1,535,NaN,bear,car,NaN,car7-bear1.png,car7-bear1.png,0.0,-11.877552,-0.56497395,-7.999201
alexnet_w1_mlp_simclrhn_probe1,1,536,NaN,car,car,NaN,car7-bird3.png,car7-bird3.png,1.0,-1.8666406,-3.0398214,0.82956415
alexnet_w1_mlp_simclrhn_probe1,1,537,NaN,car,car,NaN,car7-boat3.png,car7-boat3.png,1.0,1.9206008,1.1778437,0.5252086
alexnet_w1_mlp_simclrhn_probe1,1,538,NaN,bicycle,car,NaN,car7-car1.png,car7-car1.png,0.0,-3.8215282,0.40619308,-2.9894505
alexnet_w1_mlp_simclrhn_probe1,1,539,NaN,bicycle,car,NaN,car7-clock1.png,car7-clock1.png,0.0,-1.1057408,-0.775751,-0.23333803
alexnet_w1_mlp_simclrhn_probe1,1,540,NaN,cat,car,NaN,car7-dog3.png,car7-dog3.png,0.0,-8.687243,0.3879381,-6.417123
alexnet_w1_mlp_simclrhn_probe1,1,541,NaN,elephant,car,NaN,car7-elephant3.png,car7-elephant3.png,0.0,-7.375891,-2.545219,-3.4158013
alexnet_w1_mlp_simclrhn_probe1,1,542,NaN,airplane,car,NaN,car7-keyboard3.png,car7-keyboard3.png,0.0,0.202325,0.32018465,-0.083339356
alexnet_w1_mlp_simclrhn_probe1,1,543,NaN,truck,car,NaN,car7-oven2.png,car7-oven2.png,0.0,0.61158675,1.7560409,-0.80925137
alexnet_w1_mlp_simclrhn_probe1,1,544,NaN,car,car,NaN,car8-airplane3.png,car8-airplane3.png,1.0,2.303016,-1.0795186,2.391813
alexnet_w1_mlp_simclrhn_probe1,1,545,NaN,cat,car,NaN,car8-bear1.png,car8-bear1.png,0.0,-9.735103,-1.1929439,-6.040219
alexnet_w1_mlp_simclrhn_probe1,1,546,NaN,bicycle,car,NaN,car8-bicycle2.png,car8-bicycle2.png,0.0,-6.0354657,1.632963,-5.4223976
alexnet_w1_mlp_simclrhn_probe1,1,547,NaN,car,car,NaN,car8-boat3.png,car8-boat3.png,1.0,1.881896,0.89126253,0.7004837
alexnet_w1_mlp_simclrhn_probe1,1,548,NaN,cat,car,NaN,car8-cat1.png,car8-cat1.png,0.0,-9.9136095,1.8040701,-8.285651
alexnet_w1_mlp_simclrhn_probe1,1,549,NaN,car,car,NaN,car8-chair1.png,car8-chair1.png,1.0,3.519703,-0.52656627,2.8611445
alexnet_w1_mlp_simclrhn_probe1,1,550,NaN,car,car,NaN,car8-clock2.png,car8-clock2.png,1.0,2.533219,-0.49870244,2.1438923
alexnet_w1_mlp_simclrhn_probe1,1,551,NaN,cat,car,NaN,car8-dog1.png,car8-dog1.png,0.0,-10.083375,-0.21587205,-6.9773784
alexnet_w1_mlp_simclrhn_probe1,1,552,NaN,car,car,NaN,car8-knife2.png,car8-knife2.png,1.0,-0.426478,-0.7071433,0.19846034
alexnet_w1_mlp_simclrhn_probe1,1,553,NaN,car,car,NaN,car8-truck3.png,car8-truck3.png,1.0,2.121917,0.39283815,1.2226434
alexnet_w1_mlp_simclrhn_probe1,1,554,NaN,bicycle,car,NaN,car9-bicycle2.png,car9-bicycle2.png,0.0,-3.3447847,1.5687441,-3.4743898
alexnet_w1_mlp_simclrhn_probe1,1,555,NaN,knife,car,NaN,car9-bird1.png,car9-bird1.png,0.0,-4.1595454,-1.6523733,-1.7728385
alexnet_w1_mlp_simclrhn_probe1,1,556,NaN,cat,car,NaN,car9-cat1.png,car9-cat1.png,0.0,-8.869985,1.2970597,-7.189186
alexnet_w1_mlp_simclrhn_probe1,1,557,NaN,car,car,NaN,car9-clock2.png,car9-clock2.png,1.0,6.7451515,2.2618642,3.170163
alexnet_w1_mlp_simclrhn_probe1,1,558,NaN,car,car,NaN,car9-keyboard2.png,car9-keyboard2.png,1.0,-0.70697314,-1.550194,0.5962472
alexnet_w1_mlp_simclrhn_probe1,1,559,NaN,car,car,NaN,car9-knife1.png,car9-knife1.png,1.0,0.29820713,-0.8818575,0.83443177
alexnet_w1_mlp_simclrhn_probe1,1,560,NaN,car,car,NaN,car9-truck3.png,car9-truck3.png,1.0,3.022239,1.7574716,0.8943256
alexnet_w1_mlp_simclrhn_probe1,1,561,NaN,bicycle,cat,NaN,cat1-airplane1.png,cat1-airplane1.png,0.0,-5.4733453,-2.2773674,-2.2598977
alexnet_w1_mlp_simclrhn_probe1,1,562,NaN,cat,cat,NaN,cat1-bird1.png,cat1-bird1.png,1.0,-0.11831713,-1.7140291,1.1283388
alexnet_w1_mlp_simclrhn_probe1,1,563,NaN,chair,cat,NaN,cat1-boat1.png,cat1-boat1.png,0.0,-7.8808784,-0.95277095,-4.8989115
alexnet_w1_mlp_simclrhn_probe1,1,564,NaN,bicycle,cat,NaN,cat1-car2.png,cat1-car2.png,0.0,-5.1168437,0.061808795,-3.6618602
alexnet_w1_mlp_simclrhn_probe1,1,565,NaN,cat,cat,NaN,cat1-cat3.png,cat1-cat3.png,1.0,4.614114,-0.91759396,3.911508
alexnet_w1_mlp_simclrhn_probe1,1,566,NaN,chair,cat,NaN,cat1-chair2.png,cat1-chair2.png,0.0,-5.859197,-0.09916985,-4.0729547
alexnet_w1_mlp_simclrhn_probe1,1,567,NaN,cat,cat,NaN,cat1-dog1.png,cat1-dog1.png,1.0,5.668386,-0.92495394,4.6621957
alexnet_w1_mlp_simclrhn_probe1,1,568,NaN,knife,cat,NaN,cat1-keyboard3.png,cat1-keyboard3.png,0.0,-5.723765,-1.2858107,-3.1381073
alexnet_w1_mlp_simclrhn_probe1,1,569,NaN,chair,cat,NaN,cat1-oven1.png,cat1-oven1.png,0.0,-6.3123627,0.14320421,-4.564775
alexnet_w1_mlp_simclrhn_probe1,1,570,NaN,knife,cat,NaN,cat10-airplane3.png,cat10-airplane3.png,0.0,-6.6784606,-1.5655576,-3.6153686
alexnet_w1_mlp_simclrhn_probe1,1,571,NaN,cat,cat,NaN,cat10-bear1.png,cat10-bear1.png,1.0,2.0328794,0.1355502,1.3416142
alexnet_w1_mlp_simclrhn_probe1,1,572,NaN,bird,cat,NaN,cat10-bicycle1.png,cat10-bicycle1.png,0.0,-4.9151864,-1.6471963,-2.310818
alexnet_w1_mlp_simclrhn_probe1,1,573,NaN,cat,cat,NaN,cat10-bird2.png,cat10-bird2.png,1.0,0.12503453,-2.4144971,1.7957201
alexnet_w1_mlp_simclrhn_probe1,1,574,NaN,bicycle,cat,NaN,cat10-bottle1.png,cat10-bottle1.png,0.0,-8.437408,-3.2125676,-3.6945207
alexnet_w1_mlp_simclrhn_probe1,1,575,NaN,bicycle,cat,NaN,cat10-clock1.png,cat10-clock1.png,0.0,-3.562627,-3.4499166,-0.07969835
alexnet_w1_mlp_simclrhn_probe1,1,576,NaN,bird,cat,NaN,cat10-elephant3.png,cat10-elephant3.png,0.0,-3.0146723,-2.6796002,-0.23693171
alexnet_w1_mlp_simclrhn_probe1,1,577,NaN,elephant,cat,NaN,cat10-keyboard1.png,cat10-keyboard1.png,0.0,-4.1626773,-1.7288039,-1.7210084
alexnet_w1_mlp_simclrhn_probe1,1,578,NaN,truck,cat,NaN,cat10-oven2.png,cat10-oven2.png,0.0,-5.9898324,0.4139627,-4.5281672
alexnet_w1_mlp_simclrhn_probe1,1,579,NaN,bicycle,cat,NaN,cat2-boat2.png,cat2-boat2.png,0.0,-5.9650254,-0.74602944,-3.6903875
alexnet_w1_mlp_simclrhn_probe1,1,580,NaN,cat,cat,NaN,cat2-bottle3.png,cat2-bottle3.png,1.0,-4.6773844,-6.373295,1.1991898
alexnet_w1_mlp_simclrhn_probe1,1,581,NaN,bicycle,cat,NaN,cat2-car3.png,cat2-car3.png,0.0,-6.4312267,-1.7260288,-3.3270774
alexnet_w1_mlp_simclrhn_probe1,1,582,NaN,cat,cat,NaN,cat2-cat1.png,cat2-cat1.png,1.0,3.985419,-0.038080897,2.8450441
alexnet_w1_mlp_simclrhn_probe1,1,583,NaN,cat,cat,NaN,cat2-elephant1.png,cat2-elephant1.png,1.0,-2.9757988,-3.1452303,0.119806126
alexnet_w1_mlp_simclrhn_probe1,1,584,NaN,bottle,cat,NaN,cat2-knife3.png,cat2-knife3.png,0.0,-6.1882343,-1.4262161,-3.3672554
alexnet_w1_mlp_simclrhn_probe1,1,585,NaN,chair,cat,NaN,cat2-truck3.png,cat2-truck3.png,0.0,-8.670409,-2.010766,-4.709079
alexnet_w1_mlp_simclrhn_probe1,1,586,NaN,bear,cat,NaN,cat3-bear2.png,cat3-bear2.png,0.0,2.5656428,3.0351973,-0.3320251
alexnet_w1_mlp_simclrhn_probe1,1,587,NaN,bicycle,cat,NaN,cat3-bicycle1.png,cat3-bicycle1.png,0.0,-5.2370048,-4.7830763,-0.3209759
alexnet_w1_mlp_simclrhn_probe1,1,588,NaN,cat,cat,NaN,cat3-cat1.png,cat3-cat1.png,1.0,4.9824767,0.7668073,2.9809287
alexnet_w1_mlp_simclrhn_probe1,1,589,NaN,cat,cat,NaN,cat3-elephant2.png,cat3-elephant2.png,1.0,-0.9768023,-1.7609744,0.5544934
alexnet_w1_mlp_simclrhn_probe1,1,590,NaN,oven,cat,NaN,cat3-oven2.png,cat3-oven2.png,0.0,-5.9516845,0.7434977,-4.734209
alexnet_w1_mlp_simclrhn_probe1,1,591,NaN,knife,cat,NaN,cat3-truck3.png,cat3-truck3.png,0.0,-9.311709,-1.295615,-5.668235
alexnet_w1_mlp_simclrhn_probe1,1,592,NaN,clock,cat,NaN,cat4-airplane1.png,cat4-airplane1.png,0.0,-7.960708,-2.6846926,-3.7307062
alexnet_w1_mlp_simclrhn_probe1,1,593,NaN,cat,cat,NaN,cat4-bird2.png,cat4-bird2.png,1.0,-2.3575675,-2.9960742,0.4514924
alexnet_w1_mlp_simclrhn_probe1,1,594,NaN,bicycle,cat,NaN,cat4-car2.png,cat4-car2.png,0.0,-7.158272,-1.1613407,-4.240471
alexnet_w1_mlp_simclrhn_probe1,1,595,NaN,cat,cat,NaN,cat4-cat3.png,cat4-cat3.png,1.0,1.1425986,-1.2038672,1.659202
alexnet_w1_mlp_simclrhn_probe1,1,596,NaN,bicycle,cat,NaN,cat4-chair2.png,cat4-chair2.png,0.0,-7.7523427,-0.9015052,-4.844274
alexnet_w1_mlp_simclrhn_probe1,1,597,NaN,bottle,cat,NaN,cat4-clock2.png,cat4-clock2.png,0.0,-9.288477,-1.9680874,-5.176297
alexnet_w1_mlp_simclrhn_probe1,1,598,NaN,cat,cat,NaN,cat4-dog3.png,cat4-dog3.png,1.0,3.2804756,-0.23402622,2.4851282
alexnet_w1_mlp_simclrhn_probe1,1,599,NaN,clock,cat,NaN,cat4-keyboard2.png,cat4-keyboard2.png,0.0,-5.1021514,-1.0799857,-2.8441007
alexnet_w1_mlp_simclrhn_probe1,1,600,NaN,bicycle,cat,NaN,cat4-knife1.png,cat4-knife1.png,0.0,-6.046538,-0.108172834,-4.199058
alexnet_w1_mlp_simclrhn_probe1,1,601,NaN,knife,cat,NaN,cat4-oven1.png,cat4-oven1.png,0.0,-6.298816,0.30774254,-4.6715426
alexnet_w1_mlp_simclrhn_probe1,1,602,NaN,bottle,cat,NaN,cat4-truck3.png,cat4-truck3.png,0.0,-10.683438,0.08662196,-7.615583
alexnet_w1_mlp_simclrhn_probe1,1,603,NaN,chair,cat,NaN,cat5-airplane2.png,cat5-airplane2.png,0.0,-8.902239,-1.1232461,-5.5005784
alexnet_w1_mlp_simclrhn_probe1,1,604,NaN,cat,cat,NaN,cat5-bear2.png,cat5-bear2.png,1.0,2.7680924,1.6235176,0.8093366
alexnet_w1_mlp_simclrhn_probe1,1,605,NaN,cat,cat,NaN,cat5-bicycle3.png,cat5-bicycle3.png,1.0,-1.2195877,-3.5939393,1.67892
alexnet_w1_mlp_simclrhn_probe1,1,606,NaN,chair,cat,NaN,cat5-boat1.png,cat5-boat1.png,0.0,-8.298761,-1.131215,-5.0682206
alexnet_w1_mlp_simclrhn_probe1,1,607,NaN,bicycle,cat,NaN,cat5-bottle1.png,cat5-bottle1.png,0.0,-7.1945386,-1.8138163,-3.8047452
alexnet_w1_mlp_simclrhn_probe1,1,608,NaN,bicycle,cat,NaN,cat5-car2.png,cat5-car2.png,0.0,-3.9642107,-2.253609,-1.2095782
alexnet_w1_mlp_simclrhn_probe1,1,609,NaN,chair,cat,NaN,cat5-chair3.png,cat5-chair3.png,0.0,-5.2234483,-1.637853,-2.5353987
alexnet_w1_mlp_simclrhn_probe1,1,610,NaN,cat,cat,NaN,cat5-dog3.png,cat5-dog3.png,1.0,4.0815845,-0.57643616,3.2937179
alexnet_w1_mlp_simclrhn_probe1,1,611,NaN,elephant,cat,NaN,cat5-elephant2.png,cat5-elephant2.png,0.0,-1.3028591,-0.6777955,-0.44198668
alexnet_w1_mlp_simclrhn_probe1,1,612,NaN,airplane,cat,NaN,cat5-keyboard3.png,cat5-keyboard3.png,0.0,-5.1350327,-0.87410414,-3.0129316
alexnet_w1_mlp_simclrhn_probe1,1,613,NaN,knife,cat,NaN,cat5-knife2.png,cat5-knife2.png,0.0,-6.579718,-1.3107082,-3.7257528
alexnet_w1_mlp_simclrhn_probe1,1,614,NaN,cat,cat,NaN,cat6-bear1.png,cat6-bear1.png,1.0,3.1647093,-2.3140078,3.874038
alexnet_w1_mlp_simclrhn_probe1,1,615,NaN,airplane,cat,NaN,cat6-chair3.png,cat6-chair3.png,0.0,-7.155,-0.99035597,-4.3590617
alexnet_w1_mlp_simclrhn_probe1,1,616,NaN,knife,cat,NaN,cat6-clock3.png,cat6-clock3.png,0.0,-4.353193,-2.8725252,-1.0469902
alexnet_w1_mlp_simclrhn_probe1,1,617,NaN,knife,cat,NaN,cat6-keyboard3.png,cat6-keyboard3.png,0.0,-5.1500125,-0.32065082,-3.4148746
alexnet_w1_mlp_simclrhn_probe1,1,618,NaN,chair,cat,NaN,cat6-oven1.png,cat6-oven1.png,0.0,-5.794552,0.5695072,-4.500069
alexnet_w1_mlp_simclrhn_probe1,1,619,NaN,chair,cat,NaN,cat7-airplane2.png,cat7-airplane2.png,0.0,-8.942504,-1.9965366,-4.9115405
alexnet_w1_mlp_simclrhn_probe1,1,620,NaN,oven,cat,NaN,cat7-boat3.png,cat7-boat3.png,0.0,-5.65694,0.2619032,-4.185254
alexnet_w1_mlp_simclrhn_probe1,1,621,NaN,knife,cat,NaN,cat7-bottle1.png,cat7-bottle1.png,0.0,-6.8100915,-2.6455045,-2.9448078
alexnet_w1_mlp_simclrhn_probe1,1,622,NaN,cat,cat,NaN,cat7-clock3.png,cat7-clock3.png,1.0,-3.141835,-4.0320015,0.6294428
alexnet_w1_mlp_simclrhn_probe1,1,623,NaN,cat,cat,NaN,cat7-dog3.png,cat7-dog3.png,1.0,4.431412,1.1453775,2.3235774
alexnet_w1_mlp_simclrhn_probe1,1,624,NaN,cat,cat,NaN,cat7-elephant1.png,cat7-elephant1.png,1.0,-2.6151452,-3.3214788,0.4994533
alexnet_w1_mlp_simclrhn_probe1,1,625,NaN,knife,cat,NaN,cat7-knife2.png,cat7-knife2.png,0.0,-6.706054,-0.72551984,-4.2288766
alexnet_w1_mlp_simclrhn_probe1,1,626,NaN,chair,cat,NaN,cat7-truck2.png,cat7-truck2.png,0.0,-8.328453,-0.06894368,-5.840355
alexnet_w1_mlp_simclrhn_probe1,1,627,NaN,cat,cat,NaN,cat8-bear1.png,cat8-bear1.png,1.0,1.6041502,0.43177882,0.8289918
alexnet_w1_mlp_simclrhn_probe1,1,628,NaN,bicycle,cat,NaN,cat8-bicycle3.png,cat8-bicycle3.png,0.0,-3.0519059,-2.2378292,-0.5756391
alexnet_w1_mlp_simclrhn_probe1,1,629,NaN,cat,cat,NaN,cat8-bird2.png,cat8-bird2.png,1.0,-2.039176,-2.8404095,0.56655765
alexnet_w1_mlp_simclrhn_probe1,1,630,NaN,bicycle,cat,NaN,cat8-car2.png,cat8-car2.png,0.0,-6.5591435,-1.3467004,-3.685754
alexnet_w1_mlp_simclrhn_probe1,1,631,NaN,bird,cat,NaN,cat9-bicycle1.png,cat9-bicycle1.png,0.0,-7.844517,-3.1931932,-3.288983
alexnet_w1_mlp_simclrhn_probe1,1,632,NaN,dog,cat,NaN,cat9-bird3.png,cat9-bird3.png,0.0,-3.6067927,-1.2363234,-1.676175
alexnet_w1_mlp_simclrhn_probe1,1,633,NaN,bicycle,cat,NaN,cat9-boat2.png,cat9-boat2.png,0.0,-9.658737,-2.7792583,-4.8645263
alexnet_w1_mlp_simclrhn_probe1,1,634,NaN,bottle,cat,NaN,cat9-bottle2.png,cat9-bottle2.png,0.0,-10.196872,-1.816369,-5.9259105
alexnet_w1_mlp_simclrhn_probe1,1,635,NaN,cat,cat,NaN,cat9-cat3.png,cat9-cat3.png,1.0,1.1490953,-0.85174054,1.4148047
alexnet_w1_mlp_simclrhn_probe1,1,636,NaN,bicycle,cat,NaN,cat9-chair2.png,cat9-chair2.png,0.0,-8.260331,-2.361622,-4.1710176
alexnet_w1_mlp_simclrhn_probe1,1,637,NaN,car,cat,NaN,cat9-clock2.png,cat9-clock2.png,0.0,-7.6693096,-4.6143746,-2.1601653
alexnet_w1_mlp_simclrhn_probe1,1,638,NaN,cat,cat,NaN,cat9-dog2.png,cat9-dog2.png,1.0,1.1099231,-0.28883126,0.9890687
alexnet_w1_mlp_simclrhn_probe1,1,639,NaN,airplane,cat,NaN,cat9-knife2.png,cat9-knife2.png,0.0,-5.8917503,-0.38760632,-3.8920178
alexnet_w1_mlp_simclrhn_probe1,1,640,NaN,chair,cat,NaN,cat9-truck1.png,cat9-truck1.png,0.0,-7.8058467,0.6408495,-5.9727163
alexnet_w1_mlp_simclrhn_probe1,1,641,NaN,chair,chair,NaN,chair1-airplane2.png,chair1-airplane2.png,1.0,0.993767,-1.2799864,1.6077865
alexnet_w1_mlp_simclrhn_probe1,1,642,NaN,cat,chair,NaN,chair1-bear1.png,chair1-bear1.png,0.0,-8.84103,1.566443,-7.3591948
alexnet_w1_mlp_simclrhn_probe1,1,643,NaN,cat,chair,NaN,chair1-cat3.png,chair1-cat3.png,0.0,-7.2939243,2.0413342,-6.6010246
alexnet_w1_mlp_simclrhn_probe1,1,644,NaN,chair,chair,NaN,chair1-chair1.png,chair1-chair1.png,1.0,1.6620338,-1.6394737,2.3345184
alexnet_w1_mlp_simclrhn_probe1,1,645,NaN,chair,chair,NaN,chair1-clock2.png,chair1-clock2.png,1.0,-1.8037014,-2.2685206,0.32867682
alexnet_w1_mlp_simclrhn_probe1,1,646,NaN,cat,chair,NaN,chair1-dog1.png,chair1-dog1.png,0.0,-9.940456,3.2656863,-9.338153
alexnet_w1_mlp_simclrhn_probe1,1,647,NaN,cat,chair,NaN,chair1-elephant1.png,chair1-elephant1.png,0.0,-4.759716,-2.7755854,-1.4029922
alexnet_w1_mlp_simclrhn_probe1,1,648,NaN,chair,chair,NaN,chair1-oven3.png,chair1-oven3.png,1.0,0.8142205,-0.14400162,0.67756534
alexnet_w1_mlp_simclrhn_probe1,1,649,NaN,bottle,chair,NaN,chair1-truck3.png,chair1-truck3.png,0.0,-1.1786559,-0.90718967,-0.1919556
alexnet_w1_mlp_simclrhn_probe1,1,650,NaN,chair,chair,NaN,chair10-airplane2.png,chair10-airplane2.png,1.0,2.9028807,-2.0343359,3.4911394
alexnet_w1_mlp_simclrhn_probe1,1,651,NaN,bicycle,chair,NaN,chair10-bicycle1.png,chair10-bicycle1.png,0.0,-4.7387905,-0.5238024,-2.9804468
alexnet_w1_mlp_simclrhn_probe1,1,652,NaN,oven,chair,NaN,chair10-bird3.png,chair10-bird3.png,0.0,-1.9328352,-1.7473862,-0.13113225
alexnet_w1_mlp_simclrhn_probe1,1,653,NaN,chair,chair,NaN,chair10-bottle3.png,chair10-bottle3.png,1.0,-2.332815,-2.4482193,0.081603214
alexnet_w1_mlp_simclrhn_probe1,1,654,NaN,bicycle,chair,NaN,chair10-car2.png,chair10-car2.png,0.0,-2.4420793,-1.1475707,-0.9153558
alexnet_w1_mlp_simclrhn_probe1,1,655,NaN,cat,chair,NaN,chair10-cat1.png,chair10-cat1.png,0.0,-10.824791,3.4210145,-10.073306
alexnet_w1_mlp_simclrhn_probe1,1,656,NaN,chair,chair,NaN,chair10-clock1.png,chair10-clock1.png,1.0,0.45098802,-2.6164527,2.1690083
alexnet_w1_mlp_simclrhn_probe1,1,657,NaN,cat,chair,NaN,chair10-dog1.png,chair10-dog1.png,0.0,-8.898498,2.8280218,-8.291902
alexnet_w1_mlp_simclrhn_probe1,1,658,NaN,oven,chair,NaN,chair10-oven1.png,chair10-oven1.png,0.0,0.48013115,2.0025148,-1.0764879
alexnet_w1_mlp_simclrhn_probe1,1,659,NaN,elephant,chair,NaN,chair2-bear2.png,chair2-bear2.png,0.0,-4.855205,2.3569689,-5.099777
alexnet_w1_mlp_simclrhn_probe1,1,660,NaN,chair,chair,NaN,chair2-boat1.png,chair2-boat1.png,1.0,1.5004021,0.03274572,1.0377898
alexnet_w1_mlp_simclrhn_probe1,1,661,NaN,chair,chair,NaN,chair2-keyboard2.png,chair2-keyboard2.png,1.0,-0.3424133,-1.0745528,0.5177008
alexnet_w1_mlp_simclrhn_probe1,1,662,NaN,chair,chair,NaN,chair2-knife1.png,chair2-knife1.png,1.0,-0.92988753,-1.1302528,0.14167967
alexnet_w1_mlp_simclrhn_probe1,1,663,NaN,chair,chair,NaN,chair3-airplane2.png,chair3-airplane2.png,1.0,2.0052543,-1.9901905,2.825206
alexnet_w1_mlp_simclrhn_probe1,1,664,NaN,bicycle,chair,NaN,chair3-bicycle3.png,chair3-bicycle3.png,0.0,-3.3478394,-1.9072833,-1.0186269
alexnet_w1_mlp_simclrhn_probe1,1,665,NaN,oven,chair,NaN,chair3-bottle3.png,chair3-bottle3.png,0.0,-3.3035295,-2.4397242,-0.6108026
alexnet_w1_mlp_simclrhn_probe1,1,666,NaN,chair,chair,NaN,chair3-car3.png,chair3-car3.png,1.0,-0.04706475,-0.72144854,0.47686133
alexnet_w1_mlp_simclrhn_probe1,1,667,NaN,cat,chair,NaN,chair3-dog2.png,chair3-dog2.png,0.0,-6.017966,2.309225,-5.8882127
alexnet_w1_mlp_simclrhn_probe1,1,668,NaN,chair,chair,NaN,chair3-knife1.png,chair3-knife1.png,1.0,-0.3335907,-1.6975782,0.9644848
alexnet_w1_mlp_simclrhn_probe1,1,669,NaN,elephant,chair,NaN,chair4-bear2.png,chair4-bear2.png,0.0,-4.4374332,1.9236045,-4.497933
alexnet_w1_mlp_simclrhn_probe1,1,670,NaN,cat,chair,NaN,chair4-cat2.png,chair4-cat2.png,0.0,-8.868837,2.6008797,-8.110314
alexnet_w1_mlp_simclrhn_probe1,1,671,NaN,chair,chair,NaN,chair4-chair3.png,chair4-chair3.png,1.0,1.7688003,-1.8941809,2.590119
alexnet_w1_mlp_simclrhn_probe1,1,672,NaN,keyboard,chair,NaN,chair4-keyboard2.png,chair4-keyboard2.png,0.0,-2.4654355,-0.8935172,-1.1115141
alexnet_w1_mlp_simclrhn_probe1,1,673,NaN,chair,chair,NaN,chair4-oven2.png,chair4-oven2.png,1.0,3.1620412,-1.2055632,3.0883627
alexnet_w1_mlp_simclrhn_probe1,1,674,NaN,chair,chair,NaN,chair4-truck2.png,chair4-truck2.png,1.0,2.417767,-2.6652923,3.5942657
alexnet_w1_mlp_simclrhn_probe1,1,675,NaN,bicycle,chair,NaN,chair5-bicycle1.png,chair5-bicycle1.png,0.0,-4.421355,1.6560479,-4.297373
alexnet_w1_mlp_simclrhn_probe1,1,676,NaN,cat,chair,NaN,chair5-bird1.png,chair5-bird1.png,0.0,-4.216275,-2.1238747,-1.4795506
alexnet_w1_mlp_simclrhn_probe1,1,677,NaN,chair,chair,NaN,chair5-boat3.png,chair5-boat3.png,1.0,0.8186564,-1.949805,1.9575979
alexnet_w1_mlp_simclrhn_probe1,1,678,NaN,bicycle,chair,NaN,chair5-bottle3.png,chair5-bottle3.png,0.0,-3.0578094,0.40797582,-2.4506803
alexnet_w1_mlp_simclrhn_probe1,1,679,NaN,bicycle,chair,NaN,chair5-car1.png,chair5-car1.png,0.0,-0.9359935,-0.017282784,-0.6496266
alexnet_w1_mlp_simclrhn_probe1,1,680,NaN,cat,chair,NaN,chair5-cat3.png,chair5-cat3.png,0.0,-6.71574,0.33750054,-4.9873943
alexnet_w1_mlp_simclrhn_probe1,1,681,NaN,chair,chair,NaN,chair5-clock2.png,chair5-clock2.png,1.0,-1.3299487,-2.601635,0.899218
alexnet_w1_mlp_simclrhn_probe1,1,682,NaN,keyboard,chair,NaN,chair5-keyboard2.png,chair5-keyboard2.png,0.0,-3.5873995,-1.7931495,-1.2687263
alexnet_w1_mlp_simclrhn_probe1,1,683,NaN,clock,chair,NaN,chair5-knife3.png,chair5-knife3.png,0.0,-2.4093912,-1.7962589,-0.43354997
alexnet_w1_mlp_simclrhn_probe1,1,684,NaN,chair,chair,NaN,chair5-oven2.png,chair5-oven2.png,1.0,2.19867,-0.26850998,1.7445595
alexnet_w1_mlp_simclrhn_probe1,1,685,NaN,chair,chair,NaN,chair5-truck3.png,chair5-truck3.png,1.0,0.24291337,-1.5433342,1.2630678
alexnet_w1_mlp_simclrhn_probe1,1,686,NaN,bicycle,chair,NaN,chair6-bird2.png,chair6-bird2.png,0.0,-4.5805874,-3.1302953,-1.0255114
alexnet_w1_mlp_simclrhn_probe1,1,687,NaN,cat,chair,NaN,chair6-dog1.png,chair6-dog1.png,0.0,-8.240976,0.73217255,-6.344975
alexnet_w1_mlp_simclrhn_probe1,1,688,NaN,elephant,chair,NaN,chair6-elephant2.png,chair6-elephant2.png,0.0,-4.6978164,-0.46125102,-2.9957044
alexnet_w1_mlp_simclrhn_probe1,1,689,NaN,chair,chair,NaN,chair6-truck2.png,chair6-truck2.png,1.0,0.73970973,-0.65736264,0.98787934
alexnet_w1_mlp_simclrhn_probe1,1,690,NaN,chair,chair,NaN,chair7-airplane1.png,chair7-airplane1.png,1.0,-0.8808861,-2.494516,1.1410086
alexnet_w1_mlp_simclrhn_probe1,1,691,NaN,knife,chair,NaN,chair7-bird1.png,chair7-bird1.png,0.0,-4.2516747,-1.6844281,-1.8153174
alexnet_w1_mlp_simclrhn_probe1,1,692,NaN,chair,chair,NaN,chair7-boat3.png,chair7-boat3.png,1.0,0.5721454,0.1718831,0.2830282
alexnet_w1_mlp_simclrhn_probe1,1,693,NaN,bicycle,chair,NaN,chair7-bottle1.png,chair7-bottle1.png,0.0,-4.048506,-3.2839572,-0.54061747
alexnet_w1_mlp_simclrhn_probe1,1,694,NaN,bicycle,chair,NaN,chair7-car2.png,chair7-car2.png,0.0,-2.7460806,-0.2589695,-1.7586532
alexnet_w1_mlp_simclrhn_probe1,1,695,NaN,cat,chair,NaN,chair7-cat1.png,chair7-cat1.png,0.0,-7.4115405,3.2295797,-7.5244083
alexnet_w1_mlp_simclrhn_probe1,1,696,NaN,chair,chair,NaN,chair7-chair1.png,chair7-chair1.png,1.0,1.1424615,-0.66284573,1.276545
alexnet_w1_mlp_simclrhn_probe1,1,697,NaN,chair,chair,NaN,chair7-clock3.png,chair7-clock3.png,1.0,-0.91156274,-2.0091429,0.7761064
alexnet_w1_mlp_simclrhn_probe1,1,698,NaN,bicycle,chair,NaN,chair7-elephant1.png,chair7-elephant1.png,0.0,-3.0492947,-2.6586845,-0.27620313
alexnet_w1_mlp_simclrhn_probe1,1,699,NaN,oven,chair,NaN,chair7-knife2.png,chair7-knife2.png,0.0,-1.2569928,-0.31098032,-0.66893184
alexnet_w1_mlp_simclrhn_probe1,1,700,NaN,chair,chair,NaN,chair7-truck3.png,chair7-truck3.png,1.0,1.3826419,-0.4533139,1.2982168
alexnet_w1_mlp_simclrhn_probe1,1,701,NaN,chair,chair,NaN,chair8-airplane1.png,chair8-airplane1.png,1.0,-0.5070945,-1.9187115,0.998164
alexnet_w1_mlp_simclrhn_probe1,1,702,NaN,elephant,chair,NaN,chair8-bear1.png,chair8-bear1.png,0.0,-6.33369,-1.8995109,-3.1354382
alexnet_w1_mlp_simclrhn_probe1,1,703,NaN,bicycle,chair,NaN,chair8-bicycle3.png,chair8-bicycle3.png,0.0,-4.650466,-2.296064,-1.6648136
alexnet_w1_mlp_simclrhn_probe1,1,704,NaN,chair,chair,NaN,chair8-boat1.png,chair8-boat1.png,1.0,1.6954985,-0.90924674,1.841833
alexnet_w1_mlp_simclrhn_probe1,1,705,NaN,bicycle,chair,NaN,chair8-car1.png,chair8-car1.png,0.0,-1.486018,-0.63292027,-0.6032312
alexnet_w1_mlp_simclrhn_probe1,1,706,NaN,chair,chair,NaN,chair8-chair3.png,chair8-chair3.png,1.0,0.11510068,-1.4681003,1.1194922
alexnet_w1_mlp_simclrhn_probe1,1,707,NaN,chair,chair,NaN,chair8-clock3.png,chair8-clock3.png,1.0,-0.39642566,-2.203956,1.2781168
alexnet_w1_mlp_simclrhn_probe1,1,708,NaN,elephant,chair,NaN,chair8-elephant1.png,chair8-elephant1.png,0.0,-5.2114224,-2.4903839,-1.9240649
alexnet_w1_mlp_simclrhn_probe1,1,709,NaN,bottle,chair,NaN,chair8-keyboard3.png,chair8-keyboard3.png,0.0,-4.4401617,-1.9627923,-1.7517647
alexnet_w1_mlp_simclrhn_probe1,1,710,NaN,oven,chair,NaN,chair8-knife2.png,chair8-knife2.png,0.0,-0.9539286,-0.4281118,-0.37180862
alexnet_w1_mlp_simclrhn_probe1,1,711,NaN,chair,chair,NaN,chair8-oven1.png,chair8-oven1.png,1.0,1.5231715,1.2252693,0.21064869
alexnet_w1_mlp_simclrhn_probe1,1,712,NaN,cat,chair,NaN,chair9-bear1.png,chair9-bear1.png,0.0,-7.5374484,1.2371174,-6.204555
alexnet_w1_mlp_simclrhn_probe1,1,713,NaN,bicycle,chair,NaN,chair9-bicycle3.png,chair9-bicycle3.png,0.0,-3.691796,0.49052715,-2.9573493
alexnet_w1_mlp_simclrhn_probe1,1,714,NaN,chair,chair,NaN,chair9-bird3.png,chair9-bird3.png,1.0,-2.2662206,-3.0780444,0.57404613
alexnet_w1_mlp_simclrhn_probe1,1,715,NaN,chair,chair,NaN,chair9-boat2.png,chair9-boat2.png,1.0,0.47326136,-1.4936388,1.3908085
alexnet_w1_mlp_simclrhn_probe1,1,716,NaN,bird,chair,NaN,chair9-bottle3.png,chair9-bottle3.png,0.0,-4.5383544,-3.666688,-0.61636126
alexnet_w1_mlp_simclrhn_probe1,1,717,NaN,airplane,chair,NaN,chair9-chair3.png,chair9-chair3.png,0.0,0.2656591,1.2592295,-0.7025604
alexnet_w1_mlp_simclrhn_probe1,1,718,NaN,cat,chair,NaN,chair9-dog2.png,chair9-dog2.png,0.0,-5.4821825,2.1725168,-5.4126897
alexnet_w1_mlp_simclrhn_probe1,1,719,NaN,bicycle,chair,NaN,chair9-elephant1.png,chair9-elephant1.png,0.0,-3.9035192,-3.0782292,-0.58356816
alexnet_w1_mlp_simclrhn_probe1,1,720,NaN,bottle,chair,NaN,chair9-keyboard2.png,chair9-keyboard2.png,0.0,-2.4240713,-0.7553876,-1.1799376
alexnet_w1_mlp_simclrhn_probe1,1,721,NaN,elephant,clock,NaN,clock1-bear1.png,clock1-bear1.png,0.0,-11.916321,0.24624191,-8.60023
alexnet_w1_mlp_simclrhn_probe1,1,722,NaN,knife,clock,NaN,clock1-boat3.png,clock1-boat3.png,0.0,-4.349206,-1.667759,-1.8960694
alexnet_w1_mlp_simclrhn_probe1,1,723,NaN,bicycle,clock,NaN,clock1-car1.png,clock1-car1.png,0.0,-7.167183,0.35236043,-5.31712
alexnet_w1_mlp_simclrhn_probe1,1,724,NaN,car,clock,NaN,clock1-clock2.png,clock1-clock2.png,0.0,-1.7194992,-0.778043,-0.6657101
alexnet_w1_mlp_simclrhn_probe1,1,725,NaN,cat,clock,NaN,clock1-dog2.png,clock1-dog2.png,0.0,-5.7307243,0.3917226,-4.329224
alexnet_w1_mlp_simclrhn_probe1,1,726,NaN,elephant,clock,NaN,clock1-elephant2.png,clock1-elephant2.png,0.0,-5.469364,-0.7178523,-3.3598266
alexnet_w1_mlp_simclrhn_probe1,1,727,NaN,knife,clock,NaN,clock1-truck3.png,clock1-truck3.png,0.0,-1.492724,0.5468268,-1.4421802
alexnet_w1_mlp_simclrhn_probe1,1,728,NaN,clock,clock,NaN,clock10-airplane1.png,clock10-airplane1.png,1.0,0.8523666,-0.2883936,0.80663925
alexnet_w1_mlp_simclrhn_probe1,1,729,NaN,bottle,clock,NaN,clock10-bird3.png,clock10-bird3.png,0.0,-3.9104862,-1.9230688,-1.4053164
alexnet_w1_mlp_simclrhn_probe1,1,730,NaN,bottle,clock,NaN,clock10-boat2.png,clock10-boat2.png,0.0,-0.49001265,0.049712148,-0.38164306
alexnet_w1_mlp_simclrhn_probe1,1,731,NaN,bicycle,clock,NaN,clock10-bottle1.png,clock10-bottle1.png,0.0,-3.7967274,-0.6507458,-2.224545
alexnet_w1_mlp_simclrhn_probe1,1,732,NaN,cat,clock,NaN,clock10-cat1.png,clock10-cat1.png,0.0,-8.67382,-0.25906506,-5.9501305
alexnet_w1_mlp_simclrhn_probe1,1,733,NaN,clock,clock,NaN,clock10-clock3.png,clock10-clock3.png,1.0,1.5496186,0.1313292,1.0028821
alexnet_w1_mlp_simclrhn_probe1,1,734,NaN,dog,clock,NaN,clock10-dog3.png,clock10-dog3.png,0.0,-6.989029,-2.8096888,-2.95524
alexnet_w1_mlp_simclrhn_probe1,1,735,NaN,bottle,clock,NaN,clock10-knife3.png,clock10-knife3.png,0.0,-2.3982027,-1.5436146,-0.604285
alexnet_w1_mlp_simclrhn_probe1,1,736,NaN,bottle,clock,NaN,clock10-oven2.png,clock10-oven2.png,0.0,0.29201213,2.021661,-1.2230465
alexnet_w1_mlp_simclrhn_probe1,1,737,NaN,car,clock,NaN,clock10-truck2.png,clock10-truck2.png,0.0,-0.71622545,1.5136219,-1.5767403
alexnet_w1_mlp_simclrhn_probe1,1,738,NaN,elephant,clock,NaN,clock2-bear2.png,clock2-bear2.png,0.0,-3.280286,-2.173464,-0.78264135
alexnet_w1_mlp_simclrhn_probe1,1,739,NaN,clock,clock,NaN,clock2-bicycle1.png,clock2-bicycle1.png,1.0,1.6839725,-5.7630424,5.265835
alexnet_w1_mlp_simclrhn_probe1,1,740,NaN,clock,clock,NaN,clock2-bottle3.png,clock2-bottle3.png,1.0,4.836569,-4.4405413,6.5599074
alexnet_w1_mlp_simclrhn_probe1,1,741,NaN,clock,clock,NaN,clock2-clock3.png,clock2-clock3.png,1.0,6.4163184,-0.22505225,4.6961584
alexnet_w1_mlp_simclrhn_probe1,1,742,NaN,elephant,clock,NaN,clock2-dog1.png,clock2-dog1.png,0.0,-5.6865807,-2.619371,-2.168845
alexnet_w1_mlp_simclrhn_probe1,1,743,NaN,clock,clock,NaN,clock2-elephant2.png,clock2-elephant2.png,1.0,-1.7369952,-3.0480542,0.9270587
alexnet_w1_mlp_simclrhn_probe1,1,744,NaN,clock,clock,NaN,clock2-knife1.png,clock2-knife1.png,1.0,-0.34671083,-2.868736,1.783341
alexnet_w1_mlp_simclrhn_probe1,1,745,NaN,elephant,clock,NaN,clock3-bear3.png,clock3-bear3.png,0.0,-6.7342415,-0.8867409,-4.1348076
alexnet_w1_mlp_simclrhn_probe1,1,746,NaN,clock,clock,NaN,clock3-bicycle2.png,clock3-bicycle2.png,1.0,1.1387062,-3.717689,3.43399
alexnet_w1_mlp_simclrhn_probe1,1,747,NaN,bottle,clock,NaN,clock3-bird1.png,clock3-bird1.png,0.0,-2.2949343,-1.4192339,-0.61921364
alexnet_w1_mlp_simclrhn_probe1,1,748,NaN,bicycle,clock,NaN,clock3-car2.png,clock3-car2.png,0.0,-0.74758166,0.4183291,-0.8244234
alexnet_w1_mlp_simclrhn_probe1,1,749,NaN,elephant,clock,NaN,clock3-cat1.png,clock3-cat1.png,0.0,-3.5903919,-2.4775126,-0.7869245
alexnet_w1_mlp_simclrhn_probe1,1,750,NaN,clock,clock,NaN,clock3-dog2.png,clock3-dog2.png,1.0,-1.591026,-2.2503557,0.46621656
alexnet_w1_mlp_simclrhn_probe1,1,751,NaN,clock,clock,NaN,clock3-elephant3.png,clock3-elephant3.png,1.0,-1.3721708,-3.4679158,1.4819156
alexnet_w1_mlp_simclrhn_probe1,1,752,NaN,clock,clock,NaN,clock3-keyboard3.png,clock3-keyboard3.png,1.0,2.6003048,0.53284687,1.4619136
alexnet_w1_mlp_simclrhn_probe1,1,753,NaN,clock,clock,NaN,clock4-airplane1.png,clock4-airplane1.png,1.0,2.220597,-1.573481,2.6828182
alexnet_w1_mlp_simclrhn_probe1,1,754,NaN,clock,clock,NaN,clock4-bird3.png,clock4-bird3.png,1.0,0.84287786,-2.053123,2.047782
alexnet_w1_mlp_simclrhn_probe1,1,755,NaN,oven,clock,NaN,clock4-boat3.png,clock4-boat3.png,0.0,-1.4861223,1.2875135,-1.9612567
alexnet_w1_mlp_simclrhn_probe1,1,756,NaN,clock,clock,NaN,clock4-bottle3.png,clock4-bottle3.png,1.0,1.033034,-3.690997,3.3403945
alexnet_w1_mlp_simclrhn_probe1,1,757,NaN,bicycle,clock,NaN,clock4-car2.png,clock4-car2.png,0.0,-2.2159424,-2.0002456,-0.15252069
alexnet_w1_mlp_simclrhn_probe1,1,758,NaN,car,clock,NaN,clock4-chair1.png,clock4-chair1.png,0.0,-1.0402473,1.5823336,-1.8544449
alexnet_w1_mlp_simclrhn_probe1,1,759,NaN,elephant,clock,NaN,clock4-elephant2.png,clock4-elephant2.png,0.0,-5.221945,-1.3579822,-2.7322342
alexnet_w1_mlp_simclrhn_probe1,1,760,NaN,clock,clock,NaN,clock4-knife1.png,clock4-knife1.png,1.0,-1.7065758,-2.4618196,0.53403807
alexnet_w1_mlp_simclrhn_probe1,1,761,NaN,clock,clock,NaN,clock4-oven1.png,clock4-oven1.png,1.0,2.2890377,-0.47821987,1.9567467
alexnet_w1_mlp_simclrhn_probe1,1,762,NaN,clock,clock,NaN,clock5-airplane1.png,clock5-airplane1.png,1.0,5.027877,-0.5112463,3.9167516
alexnet_w1_mlp_simclrhn_probe1,1,763,NaN,clock,clock,NaN,clock5-bicycle1.png,clock5-bicycle1.png,1.0,1.0617408,-6.144409,5.0955176
alexnet_w1_mlp_simclrhn_probe1,1,764,NaN,clock,clock,NaN,clock5-chair3.png,clock5-chair3.png,1.0,3.339866,1.9549536,0.97928095
alexnet_w1_mlp_simclrhn_probe1,1,765,NaN,clock,clock,NaN,clock5-clock2.png,clock5-clock2.png,1.0,9.75319,0.25355542,6.717256
alexnet_w1_mlp_simclrhn_probe1,1,766,NaN,clock,clock,NaN,clock5-elephant2.png,clock5-elephant2.png,1.0,-2.1427863,-3.394994,0.8854446
