subj,session,trial,rt,object_response,category,condition,imagename,filename,is_correct,targ_act,max_nontarg_act,decision_margin
alexnet2023_baseline_pgd,1,1,NaN,bicycle,airplane,NaN,airplane1-bicycle2.png,airplane1-bicycle2.png,0.0,-0.40395385,8.991125,-6.643324
alexnet2023_baseline_pgd,1,2,NaN,chair,airplane,NaN,airplane1-chair2.png,airplane1-chair2.png,0.0,-0.9096738,6.309557,-5.104767
alexnet2023_baseline_pgd,1,3,NaN,chair,airplane,NaN,airplane1-clock1.png,airplane1-clock1.png,0.0,-2.2318192,2.9182186,-3.6416266
alexnet2023_baseline_pgd,1,4,NaN,elephant,airplane,NaN,airplane1-elephant1.png,airplane1-elephant1.png,0.0,0.47385493,5.61195,-3.6331818
alexnet2023_baseline_pgd,1,5,NaN,airplane,airplane,NaN,airplane10-airplane1.png,airplane10-airplane1.png,1.0,10.717869,4.981767,4.0560365
alexnet2023_baseline_pgd,1,6,NaN,elephant,airplane,NaN,airplane10-bear3.png,airplane10-bear3.png,0.0,-6.078105,6.789691,-9.098906
alexnet2023_baseline_pgd,1,7,NaN,oven,airplane,NaN,airplane10-boat3.png,airplane10-boat3.png,0.0,2.0481079,5.843012,-2.6834023
alexnet2023_baseline_pgd,1,8,NaN,car,airplane,NaN,airplane10-car3.png,airplane10-car3.png,0.0,5.1502776,5.978625,-0.58572996
alexnet2023_baseline_pgd,1,9,NaN,cat,airplane,NaN,airplane10-cat2.png,airplane10-cat2.png,0.0,-6.2065496,6.0859866,-8.692136
alexnet2023_baseline_pgd,1,10,NaN,dog,airplane,NaN,airplane10-dog3.png,airplane10-dog3.png,0.0,-5.381359,4.402645,-6.918336
alexnet2023_baseline_pgd,1,11,NaN,elephant,airplane,NaN,airplane10-elephant1.png,airplane10-elephant1.png,0.0,-2.06081,5.1089497,-5.0697856
alexnet2023_baseline_pgd,1,12,NaN,knife,airplane,NaN,airplane10-knife3.png,airplane10-knife3.png,0.0,2.3207715,7.168819,-3.4280872
alexnet2023_baseline_pgd,1,13,NaN,oven,airplane,NaN,airplane10-oven2.png,airplane10-oven2.png,0.0,1.0809767,5.1636033,-2.8868527
alexnet2023_baseline_pgd,1,14,NaN,airplane,airplane,NaN,airplane10-truck1.png,airplane10-truck1.png,1.0,5.58745,5.177002,0.29023063
alexnet2023_baseline_pgd,1,15,NaN,elephant,airplane,NaN,airplane2-bear1.png,airplane2-bear1.png,0.0,-5.3733864,5.2123613,-7.4852543
alexnet2023_baseline_pgd,1,16,NaN,bicycle,airplane,NaN,airplane2-bicycle1.png,airplane2-bicycle1.png,0.0,-1.5265532,7.041093,-6.058241
alexnet2023_baseline_pgd,1,17,NaN,oven,airplane,NaN,airplane2-bird3.png,airplane2-bird3.png,0.0,0.03476426,5.418129,-3.8066137
alexnet2023_baseline_pgd,1,18,NaN,bicycle,airplane,NaN,airplane2-bottle1.png,airplane2-bottle1.png,0.0,-5.3878465,5.2086306,-7.4928412
alexnet2023_baseline_pgd,1,19,NaN,cat,airplane,NaN,airplane2-cat1.png,airplane2-cat1.png,0.0,-2.8292837,4.9943576,-5.53215
alexnet2023_baseline_pgd,1,20,NaN,dog,airplane,NaN,airplane2-dog1.png,airplane2-dog1.png,0.0,-7.096978,5.669423,-9.027209
alexnet2023_baseline_pgd,1,21,NaN,airplane,airplane,NaN,airplane3-airplane2.png,airplane3-airplane2.png,1.0,10.771244,4.754722,4.2543235
alexnet2023_baseline_pgd,1,22,NaN,bicycle,airplane,NaN,airplane3-car1.png,airplane3-car1.png,0.0,2.0220797,5.73173,-2.6231189
alexnet2023_baseline_pgd,1,23,NaN,dog,airplane,NaN,airplane3-cat1.png,airplane3-cat1.png,0.0,-3.2377124,5.19232,-5.960933
alexnet2023_baseline_pgd,1,24,NaN,airplane,airplane,NaN,airplane3-chair3.png,airplane3-chair3.png,1.0,5.5150023,4.0655813,1.0248954
alexnet2023_baseline_pgd,1,25,NaN,chair,airplane,NaN,airplane3-clock1.png,airplane3-clock1.png,0.0,-6.405246,2.7074451,-6.4436455
alexnet2023_baseline_pgd,1,26,NaN,dog,airplane,NaN,airplane3-dog1.png,airplane3-dog1.png,0.0,-5.0809593,5.297007,-7.3383303
alexnet2023_baseline_pgd,1,27,NaN,elephant,airplane,NaN,airplane3-elephant1.png,airplane3-elephant1.png,0.0,-2.4277687,6.755477,-6.4935355
alexnet2023_baseline_pgd,1,28,NaN,car,airplane,NaN,airplane3-keyboard2.png,airplane3-keyboard2.png,0.0,3.933013,5.5048804,-1.1114782
alexnet2023_baseline_pgd,1,29,NaN,airplane,airplane,NaN,airplane3-oven1.png,airplane3-oven1.png,1.0,10.495428,6.126723,3.0891411
alexnet2023_baseline_pgd,1,30,NaN,airplane,airplane,NaN,airplane4-airplane1.png,airplane4-airplane1.png,1.0,6.5936584,3.149425,2.4354408
alexnet2023_baseline_pgd,1,31,NaN,bear,airplane,NaN,airplane4-bear3.png,airplane4-bear3.png,0.0,-5.900193,6.032865,-8.437946
alexnet2023_baseline_pgd,1,32,NaN,bicycle,airplane,NaN,airplane4-bicycle2.png,airplane4-bicycle2.png,0.0,-2.6111312,5.7175865,-5.889293
alexnet2023_baseline_pgd,1,33,NaN,airplane,airplane,NaN,airplane4-bird3.png,airplane4-bird3.png,1.0,10.497165,6.6795597,2.6994545
alexnet2023_baseline_pgd,1,34,NaN,oven,airplane,NaN,airplane4-boat3.png,airplane4-boat3.png,0.0,1.2812239,3.9765546,-1.9058867
alexnet2023_baseline_pgd,1,35,NaN,bicycle,airplane,NaN,airplane4-bottle1.png,airplane4-bottle1.png,0.0,-3.3650308,6.320057,-6.848391
alexnet2023_baseline_pgd,1,36,NaN,oven,airplane,NaN,airplane4-car1.png,airplane4-car1.png,0.0,3.8749251,4.656992,-0.55300474
alexnet2023_baseline_pgd,1,37,NaN,oven,airplane,NaN,airplane4-cat3.png,airplane4-cat3.png,0.0,-3.492634,3.643316,-5.045879
alexnet2023_baseline_pgd,1,38,NaN,oven,airplane,NaN,airplane4-dog2.png,airplane4-dog2.png,0.0,-2.5252404,3.1334949,-4.0013304
alexnet2023_baseline_pgd,1,39,NaN,elephant,airplane,NaN,airplane4-elephant1.png,airplane4-elephant1.png,0.0,-1.1164124,5.0556607,-4.364315
alexnet2023_baseline_pgd,1,40,NaN,knife,airplane,NaN,airplane4-keyboard3.png,airplane4-keyboard3.png,0.0,1.988544,5.8280125,-2.7149143
alexnet2023_baseline_pgd,1,41,NaN,knife,airplane,NaN,airplane4-knife1.png,airplane4-knife1.png,0.0,0.97541326,4.3402224,-2.3792794
alexnet2023_baseline_pgd,1,42,NaN,truck,airplane,NaN,airplane4-truck2.png,airplane4-truck2.png,0.0,1.3739339,5.7380238,-3.0858777
alexnet2023_baseline_pgd,1,43,NaN,elephant,airplane,NaN,airplane5-bear2.png,airplane5-bear2.png,0.0,-4.3694158,14.894896,-13.621925
alexnet2023_baseline_pgd,1,44,NaN,bicycle,airplane,NaN,airplane5-bicycle1.png,airplane5-bicycle1.png,0.0,1.2586217,12.14899,-7.700653
alexnet2023_baseline_pgd,1,45,NaN,bicycle,airplane,NaN,airplane5-bird2.png,airplane5-bird2.png,0.0,2.7088678,3.3281765,-0.43791738
alexnet2023_baseline_pgd,1,46,NaN,knife,airplane,NaN,airplane5-boat3.png,airplane5-boat3.png,0.0,-0.46115685,3.913681,-3.0934775
alexnet2023_baseline_pgd,1,47,NaN,bottle,airplane,NaN,airplane5-bottle3.png,airplane5-bottle3.png,0.0,-0.21317732,2.9269767,-2.2204242
alexnet2023_baseline_pgd,1,48,NaN,chair,airplane,NaN,airplane5-chair3.png,airplane5-chair3.png,0.0,3.3329768,3.5131533,-0.12740402
alexnet2023_baseline_pgd,1,49,NaN,cat,airplane,NaN,airplane5-dog3.png,airplane5-dog3.png,0.0,-4.7625966,4.8045006,-6.764959
alexnet2023_baseline_pgd,1,50,NaN,knife,airplane,NaN,airplane5-knife1.png,airplane5-knife1.png,0.0,-1.2494564,7.9882994,-6.5320797
alexnet2023_baseline_pgd,1,51,NaN,elephant,airplane,NaN,airplane5-oven3.png,airplane5-oven3.png,0.0,4.784377,5.3269334,-0.38364524
alexnet2023_baseline_pgd,1,52,NaN,elephant,airplane,NaN,airplane6-bear3.png,airplane6-bear3.png,0.0,-6.934477,8.683327,-11.043455
alexnet2023_baseline_pgd,1,53,NaN,bottle,airplane,NaN,airplane6-bottle2.png,airplane6-bottle2.png,0.0,1.373775,5.957724,-3.2413416
alexnet2023_baseline_pgd,1,54,NaN,airplane,airplane,NaN,airplane6-chair3.png,airplane6-chair3.png,1.0,8.17609,3.8001761,3.0942385
alexnet2023_baseline_pgd,1,55,NaN,knife,airplane,NaN,airplane6-keyboard3.png,airplane6-keyboard3.png,0.0,4.8047485,7.1883097,-1.6854323
alexnet2023_baseline_pgd,1,56,NaN,knife,airplane,NaN,airplane6-knife1.png,airplane6-knife1.png,0.0,-0.34111458,6.6546917,-4.946782
alexnet2023_baseline_pgd,1,57,NaN,airplane,airplane,NaN,airplane7-airplane3.png,airplane7-airplane3.png,1.0,12.265278,4.7738996,5.2972045
alexnet2023_baseline_pgd,1,58,NaN,airplane,airplane,NaN,airplane7-bird3.png,airplane7-bird3.png,1.0,8.217931,3.7497034,3.159514
alexnet2023_baseline_pgd,1,59,NaN,bicycle,airplane,NaN,airplane7-boat2.png,airplane7-boat2.png,0.0,3.254886,6.3070145,-2.158181
alexnet2023_baseline_pgd,1,60,NaN,bottle,airplane,NaN,airplane7-bottle3.png,airplane7-bottle3.png,0.0,0.27856833,2.2134323,-1.3681555
alexnet2023_baseline_pgd,1,61,NaN,oven,airplane,NaN,airplane7-car1.png,airplane7-car1.png,0.0,3.072966,6.888256,-2.6978176
alexnet2023_baseline_pgd,1,62,NaN,oven,airplane,NaN,airplane7-cat3.png,airplane7-cat3.png,0.0,-1.5443473,5.101491,-4.6993175
alexnet2023_baseline_pgd,1,63,NaN,airplane,airplane,NaN,airplane7-clock3.png,airplane7-clock3.png,1.0,3.8572152,2.7012432,0.8173956
alexnet2023_baseline_pgd,1,64,NaN,airplane,airplane,NaN,airplane7-keyboard1.png,airplane7-keyboard1.png,1.0,5.081216,3.6441884,1.0161319
alexnet2023_baseline_pgd,1,65,NaN,car,airplane,NaN,airplane7-truck1.png,airplane7-truck1.png,0.0,3.682815,4.5011234,-0.5786314
alexnet2023_baseline_pgd,1,66,NaN,bicycle,airplane,NaN,airplane8-bicycle3.png,airplane8-bicycle3.png,0.0,-2.1937017,2.5687127,-3.3675356
alexnet2023_baseline_pgd,1,67,NaN,bird,airplane,NaN,airplane8-bird1.png,airplane8-bird1.png,0.0,0.9820818,2.9508026,-1.3920958
alexnet2023_baseline_pgd,1,68,NaN,car,airplane,NaN,airplane8-chair1.png,airplane8-chair1.png,0.0,3.1121879,5.6798053,-1.8155798
alexnet2023_baseline_pgd,1,69,NaN,airplane,airplane,NaN,airplane8-clock2.png,airplane8-clock2.png,1.0,3.351685,2.101472,0.8840342
alexnet2023_baseline_pgd,1,70,NaN,elephant,airplane,NaN,airplane8-elephant3.png,airplane8-elephant3.png,0.0,-4.034523,6.3901715,-7.371372
alexnet2023_baseline_pgd,1,71,NaN,knife,airplane,NaN,airplane8-oven2.png,airplane8-oven2.png,0.0,1.1287564,5.3556623,-2.9888737
alexnet2023_baseline_pgd,1,72,NaN,oven,airplane,NaN,airplane8-truck3.png,airplane8-truck3.png,0.0,4.588255,7.838241,-2.2980874
alexnet2023_baseline_pgd,1,73,NaN,airplane,airplane,NaN,airplane9-airplane2.png,airplane9-airplane2.png,1.0,11.355848,7.8025756,2.5125432
alexnet2023_baseline_pgd,1,74,NaN,airplane,airplane,NaN,airplane9-boat1.png,airplane9-boat1.png,1.0,6.9708843,4.457875,1.7769661
alexnet2023_baseline_pgd,1,75,NaN,car,airplane,NaN,airplane9-car2.png,airplane9-car2.png,0.0,5.566056,5.6975994,-0.0930154
alexnet2023_baseline_pgd,1,76,NaN,oven,airplane,NaN,airplane9-clock1.png,airplane9-clock1.png,0.0,-5.198572,6.239604,-8.088012
alexnet2023_baseline_pgd,1,77,NaN,knife,airplane,NaN,airplane9-keyboard2.png,airplane9-keyboard2.png,0.0,4.1276083,6.615117,-1.7589344
alexnet2023_baseline_pgd,1,78,NaN,knife,airplane,NaN,airplane9-knife3.png,airplane9-knife3.png,0.0,2.962874,7.516227,-3.2197068
alexnet2023_baseline_pgd,1,79,NaN,oven,airplane,NaN,airplane9-oven2.png,airplane9-oven2.png,0.0,3.0145435,6.14342,-2.21245
alexnet2023_baseline_pgd,1,80,NaN,bottle,airplane,NaN,airplane9-truck1.png,airplane9-truck1.png,0.0,1.209082,5.6931014,-3.1706805
alexnet2023_baseline_pgd,1,81,NaN,elephant,bear,NaN,bear1-airplane3.png,bear1-airplane3.png,0.0,4.0093083,8.272766,-3.01472
alexnet2023_baseline_pgd,1,82,NaN,bear,bear,NaN,bear1-bear3.png,bear1-bear3.png,1.0,11.058155,5.813102,3.7088127
alexnet2023_baseline_pgd,1,83,NaN,knife,bear,NaN,bear1-bicycle3.png,bear1-bicycle3.png,0.0,-0.48772526,2.2078328,-1.9060475
alexnet2023_baseline_pgd,1,84,NaN,elephant,bear,NaN,bear1-bird2.png,bear1-bird2.png,0.0,0.9119203,5.4019566,-3.1749349
alexnet2023_baseline_pgd,1,85,NaN,chair,bear,NaN,bear1-chair2.png,bear1-chair2.png,0.0,-1.6454405,6.7169,-5.9130673
alexnet2023_baseline_pgd,1,86,NaN,elephant,bear,NaN,bear1-clock2.png,bear1-clock2.png,0.0,-0.5426043,4.1793804,-3.3389475
alexnet2023_baseline_pgd,1,87,NaN,elephant,bear,NaN,bear1-elephant1.png,bear1-elephant1.png,0.0,1.4881266,10.900753,-6.655732
alexnet2023_baseline_pgd,1,88,NaN,bear,bear,NaN,bear10-bear2.png,bear10-bear2.png,1.0,11.502163,11.42907,0.051684175
alexnet2023_baseline_pgd,1,89,NaN,bicycle,bear,NaN,bear10-bottle1.png,bear10-bottle1.png,0.0,-0.70324916,4.2323785,-3.4900157
alexnet2023_baseline_pgd,1,90,NaN,knife,bear,NaN,bear10-car2.png,bear10-car2.png,0.0,-1.4409462,5.634723,-5.003254
alexnet2023_baseline_pgd,1,91,NaN,cat,bear,NaN,bear10-cat2.png,bear10-cat2.png,0.0,4.883651,7.584513,-1.9097981
alexnet2023_baseline_pgd,1,92,NaN,truck,bear,NaN,bear10-chair2.png,bear10-chair2.png,0.0,-1.821337,5.720355,-5.3327813
alexnet2023_baseline_pgd,1,93,NaN,oven,bear,NaN,bear10-clock1.png,bear10-clock1.png,0.0,-4.183648,4.383052,-6.057572
alexnet2023_baseline_pgd,1,94,NaN,elephant,bear,NaN,bear10-elephant1.png,bear10-elephant1.png,0.0,2.2713594,10.967066,-6.148793
alexnet2023_baseline_pgd,1,95,NaN,knife,bear,NaN,bear10-keyboard3.png,bear10-keyboard3.png,0.0,-1.5500787,4.1587944,-4.036783
alexnet2023_baseline_pgd,1,96,NaN,oven,bear,NaN,bear10-knife2.png,bear10-knife2.png,0.0,-0.49662957,8.121261,-6.0937686
alexnet2023_baseline_pgd,1,97,NaN,oven,bear,NaN,bear10-oven1.png,bear10-oven1.png,0.0,-2.1516678,8.077349,-7.233007
alexnet2023_baseline_pgd,1,98,NaN,knife,bear,NaN,bear10-truck1.png,bear10-truck1.png,0.0,-2.1737556,4.4993505,-4.718599
alexnet2023_baseline_pgd,1,99,NaN,bird,bear,NaN,bear2-airplane1.png,bear2-airplane1.png,0.0,-0.7131861,3.1909711,-2.760656
alexnet2023_baseline_pgd,1,100,NaN,elephant,bear,NaN,bear2-bird3.png,bear2-bird3.png,0.0,6.964331,10.261591,-2.3315148
alexnet2023_baseline_pgd,1,101,NaN,bicycle,bear,NaN,bear2-car2.png,bear2-car2.png,0.0,-3.5298376,3.849462,-5.2179527
alexnet2023_baseline_pgd,1,102,NaN,cat,bear,NaN,bear2-cat2.png,bear2-cat2.png,0.0,5.382968,6.189447,-0.5702668
alexnet2023_baseline_pgd,1,103,NaN,bear,bear,NaN,bear2-dog1.png,bear2-dog1.png,1.0,7.6890526,5.915135,1.2543492
alexnet2023_baseline_pgd,1,104,NaN,elephant,bear,NaN,bear2-elephant1.png,bear2-elephant1.png,0.0,3.5371177,9.999258,-4.569423
alexnet2023_baseline_pgd,1,105,NaN,knife,bear,NaN,bear2-keyboard2.png,bear2-keyboard2.png,0.0,-4.6899004,8.042282,-9.003013
alexnet2023_baseline_pgd,1,106,NaN,knife,bear,NaN,bear2-knife2.png,bear2-knife2.png,0.0,-0.7238568,4.648185,-3.798607
alexnet2023_baseline_pgd,1,107,NaN,knife,bear,NaN,bear2-oven1.png,bear2-oven1.png,0.0,-1.9951069,6.923791,-6.306613
alexnet2023_baseline_pgd,1,108,NaN,airplane,bear,NaN,bear3-airplane1.png,bear3-airplane1.png,0.0,-0.23203218,4.7285676,-3.507674
alexnet2023_baseline_pgd,1,109,NaN,bicycle,bear,NaN,bear3-bicycle2.png,bear3-bicycle2.png,0.0,-1.5364429,2.0982516,-2.5701172
alexnet2023_baseline_pgd,1,110,NaN,elephant,bear,NaN,bear3-bird3.png,bear3-bird3.png,0.0,3.4498734,10.977747,-5.3230104
alexnet2023_baseline_pgd,1,111,NaN,knife,bear,NaN,bear3-car2.png,bear3-car2.png,0.0,-2.3131468,6.70601,-6.3775067
alexnet2023_baseline_pgd,1,112,NaN,bear,bear,NaN,bear3-cat1.png,bear3-cat1.png,1.0,7.566702,7.261292,0.21595742
alexnet2023_baseline_pgd,1,113,NaN,chair,bear,NaN,bear3-chair2.png,bear3-chair2.png,0.0,-1.1715686,6.9095078,-5.7141843
alexnet2023_baseline_pgd,1,114,NaN,dog,bear,NaN,bear3-dog3.png,bear3-dog3.png,0.0,2.617412,6.014386,-2.4020236
alexnet2023_baseline_pgd,1,115,NaN,knife,bear,NaN,bear3-keyboard2.png,bear3-keyboard2.png,0.0,-2.7016835,6.4618855,-6.4796214
alexnet2023_baseline_pgd,1,116,NaN,chair,bear,NaN,bear3-truck3.png,bear3-truck3.png,0.0,-2.34072,4.131273,-4.57639
alexnet2023_baseline_pgd,1,117,NaN,bicycle,bear,NaN,bear4-boat2.png,bear4-boat2.png,0.0,-1.9787807,6.046711,-5.6748796
alexnet2023_baseline_pgd,1,118,NaN,oven,bear,NaN,bear4-car3.png,bear4-car3.png,0.0,-2.1117723,4.6980333,-4.81526
alexnet2023_baseline_pgd,1,119,NaN,bear,bear,NaN,bear4-cat3.png,bear4-cat3.png,1.0,4.533374,4.1041703,0.30349272
alexnet2023_baseline_pgd,1,120,NaN,cat,bear,NaN,bear4-clock3.png,bear4-clock3.png,0.0,-1.3368412,4.6643214,-4.2434626
alexnet2023_baseline_pgd,1,121,NaN,elephant,bear,NaN,bear4-elephant2.png,bear4-elephant2.png,0.0,3.7494123,13.844669,-7.138425
alexnet2023_baseline_pgd,1,122,NaN,car,bear,NaN,bear4-keyboard3.png,bear4-keyboard3.png,0.0,-1.0193157,4.32104,-3.776202
alexnet2023_baseline_pgd,1,123,NaN,knife,bear,NaN,bear4-knife1.png,bear4-knife1.png,0.0,-1.9447277,6.0468287,-5.6508837
alexnet2023_baseline_pgd,1,124,NaN,elephant,bear,NaN,bear4-oven2.png,bear4-oven2.png,0.0,0.18467295,5.554166,-3.796805
alexnet2023_baseline_pgd,1,125,NaN,elephant,bear,NaN,bear4-truck3.png,bear4-truck3.png,0.0,-1.2512542,6.9155445,-5.774799
alexnet2023_baseline_pgd,1,126,NaN,elephant,bear,NaN,bear5-airplane3.png,bear5-airplane3.png,0.0,3.4409604,4.33193,-0.6300108
alexnet2023_baseline_pgd,1,127,NaN,bicycle,bear,NaN,bear5-bicycle3.png,bear5-bicycle3.png,0.0,-1.2734253,3.9458418,-3.6905792
alexnet2023_baseline_pgd,1,128,NaN,bear,bear,NaN,bear5-bird1.png,bear5-bird1.png,1.0,4.52989,3.6150577,0.64688414
alexnet2023_baseline_pgd,1,129,NaN,oven,bear,NaN,bear5-boat2.png,bear5-boat2.png,0.0,-3.4926298,5.585438,-6.419163
alexnet2023_baseline_pgd,1,130,NaN,bicycle,bear,NaN,bear5-bottle1.png,bear5-bottle1.png,0.0,-4.650605,5.4594326,-7.148876
alexnet2023_baseline_pgd,1,131,NaN,chair,bear,NaN,bear5-chair1.png,bear5-chair1.png,0.0,-1.8687084,3.6977155,-3.9360561
alexnet2023_baseline_pgd,1,132,NaN,elephant,bear,NaN,bear5-oven3.png,bear5-oven3.png,0.0,-0.13456559,9.982253,-7.1536713
alexnet2023_baseline_pgd,1,133,NaN,elephant,bear,NaN,bear6-bear1.png,bear6-bear1.png,0.0,7.003843,8.337878,-0.9433055
alexnet2023_baseline_pgd,1,134,NaN,elephant,bear,NaN,bear6-bird2.png,bear6-bird2.png,0.0,3.20403,4.9954877,-1.2667519
alexnet2023_baseline_pgd,1,135,NaN,clock,bear,NaN,bear6-boat3.png,bear6-boat3.png,0.0,1.0550175,4.267591,-2.2716327
alexnet2023_baseline_pgd,1,136,NaN,bottle,bear,NaN,bear6-bottle3.png,bear6-bottle3.png,0.0,1.5955691,4.048894,-1.7347627
alexnet2023_baseline_pgd,1,137,NaN,airplane,bear,NaN,bear6-car2.png,bear6-car2.png,0.0,-2.2176123,3.7523694,-4.2214146
alexnet2023_baseline_pgd,1,138,NaN,oven,bear,NaN,bear6-cat3.png,bear6-cat3.png,0.0,2.7031746,3.758955,-0.7465495
alexnet2023_baseline_pgd,1,139,NaN,chair,bear,NaN,bear6-chair1.png,bear6-chair1.png,0.0,-3.1076934,3.819969,-4.8985972
alexnet2023_baseline_pgd,1,140,NaN,knife,bear,NaN,bear6-clock1.png,bear6-clock1.png,0.0,-1.5488269,3.8660855,-3.8289213
alexnet2023_baseline_pgd,1,141,NaN,bear,bear,NaN,bear7-bear2.png,bear7-bear2.png,1.0,11.617818,10.78227,0.59082127
alexnet2023_baseline_pgd,1,142,NaN,bird,bear,NaN,bear7-bicycle2.png,bear7-bicycle2.png,0.0,-1.4329827,2.3997765,-2.71017
alexnet2023_baseline_pgd,1,143,NaN,knife,bear,NaN,bear7-clock1.png,bear7-clock1.png,0.0,-0.8187238,4.149491,-3.5130582
alexnet2023_baseline_pgd,1,144,NaN,bear,bear,NaN,bear7-dog3.png,bear7-dog3.png,1.0,8.0547,5.72806,1.6451831
alexnet2023_baseline_pgd,1,145,NaN,elephant,bear,NaN,bear7-oven3.png,bear7-oven3.png,0.0,0.060203016,6.297002,-4.410083
alexnet2023_baseline_pgd,1,146,NaN,knife,bear,NaN,bear7-truck1.png,bear7-truck1.png,0.0,-4.139948,3.766412,-5.5906405
alexnet2023_baseline_pgd,1,147,NaN,bicycle,bear,NaN,bear8-airplane1.png,bear8-airplane1.png,0.0,-4.0357256,2.1506982,-4.374462
alexnet2023_baseline_pgd,1,148,NaN,bear,bear,NaN,bear8-bear1.png,bear8-bear1.png,1.0,7.191594,6.172506,0.72060424
alexnet2023_baseline_pgd,1,149,NaN,bicycle,bear,NaN,bear8-bicycle3.png,bear8-bicycle3.png,0.0,-2.806503,4.0074763,-4.818211
alexnet2023_baseline_pgd,1,150,NaN,clock,bear,NaN,bear8-boat2.png,bear8-boat2.png,0.0,-4.0638685,4.271007,-5.8936467
alexnet2023_baseline_pgd,1,151,NaN,bicycle,bear,NaN,bear8-bottle1.png,bear8-bottle1.png,0.0,-4.4772773,4.4640946,-6.322505
alexnet2023_baseline_pgd,1,152,NaN,bear,bear,NaN,bear8-dog1.png,bear8-dog1.png,1.0,6.173999,5.603787,0.4032007
alexnet2023_baseline_pgd,1,153,NaN,elephant,bear,NaN,bear8-elephant2.png,bear8-elephant2.png,0.0,3.8470685,14.850241,-7.7804174
alexnet2023_baseline_pgd,1,154,NaN,elephant,bear,NaN,bear8-knife3.png,bear8-knife3.png,0.0,-1.4014639,6.069639,-5.282868
alexnet2023_baseline_pgd,1,155,NaN,elephant,bear,NaN,bear8-truck3.png,bear8-truck3.png,0.0,-0.28654867,6.7078476,-4.945785
alexnet2023_baseline_pgd,1,156,NaN,chair,bear,NaN,bear9-boat2.png,bear9-boat2.png,0.0,-2.0862806,3.650345,-4.056407
alexnet2023_baseline_pgd,1,157,NaN,bicycle,bear,NaN,bear9-bottle2.png,bear9-bottle2.png,0.0,-4.180517,3.8721402,-5.6940885
alexnet2023_baseline_pgd,1,158,NaN,bear,bear,NaN,bear9-dog1.png,bear9-dog1.png,1.0,9.713923,8.588576,0.7957406
alexnet2023_baseline_pgd,1,159,NaN,knife,bear,NaN,bear9-keyboard3.png,bear9-keyboard3.png,0.0,-4.383607,8.227676,-8.917524
alexnet2023_baseline_pgd,1,160,NaN,knife,bear,NaN,bear9-knife2.png,bear9-knife2.png,0.0,0.06495085,6.13142,-4.2896414
alexnet2023_baseline_pgd,1,161,NaN,knife,bicycle,NaN,bicycle1-airplane2.png,bicycle1-airplane2.png,0.0,6.464038,8.032519,-1.1090839
alexnet2023_baseline_pgd,1,162,NaN,cat,bicycle,NaN,bicycle1-bear1.png,bicycle1-bear1.png,0.0,0.18812445,4.8683777,-3.3094387
alexnet2023_baseline_pgd,1,163,NaN,bicycle,bicycle,NaN,bicycle1-bicycle3.png,bicycle1-bicycle3.png,1.0,12.585761,2.073098,7.433575
alexnet2023_baseline_pgd,1,164,NaN,bird,bicycle,NaN,bicycle1-bird1.png,bicycle1-bird1.png,0.0,-1.8282617,3.3755636,-3.6796603
alexnet2023_baseline_pgd,1,165,NaN,bicycle,bicycle,NaN,bicycle1-boat3.png,bicycle1-boat3.png,1.0,5.4490185,5.0258427,0.2992305
alexnet2023_baseline_pgd,1,166,NaN,bicycle,bicycle,NaN,bicycle1-bottle3.png,bicycle1-bottle3.png,1.0,16.706429,3.0267181,9.673017
alexnet2023_baseline_pgd,1,167,NaN,bicycle,bicycle,NaN,bicycle1-chair1.png,bicycle1-chair1.png,1.0,8.319683,5.00681,2.3425548
alexnet2023_baseline_pgd,1,168,NaN,bicycle,bicycle,NaN,bicycle1-clock3.png,bicycle1-clock3.png,1.0,9.336637,3.3045616,4.2653213
alexnet2023_baseline_pgd,1,169,NaN,cat,bicycle,NaN,bicycle1-dog3.png,bicycle1-dog3.png,0.0,-1.8360039,4.6403594,-4.57948
alexnet2023_baseline_pgd,1,170,NaN,elephant,bicycle,NaN,bicycle1-elephant2.png,bicycle1-elephant2.png,0.0,0.14519596,10.98324,-7.663655
alexnet2023_baseline_pgd,1,171,NaN,knife,bicycle,NaN,bicycle1-knife3.png,bicycle1-knife3.png,0.0,-3.9675784,5.6098137,-6.772239
alexnet2023_baseline_pgd,1,172,NaN,knife,bicycle,NaN,bicycle1-oven1.png,bicycle1-oven1.png,0.0,-2.4074054,11.212036,-9.6304
alexnet2023_baseline_pgd,1,173,NaN,bicycle,bicycle,NaN,bicycle1-truck1.png,bicycle1-truck1.png,1.0,10.55484,3.5022573,4.986929
alexnet2023_baseline_pgd,1,174,NaN,bicycle,bicycle,NaN,bicycle10-airplane2.png,bicycle10-airplane2.png,1.0,5.7253256,4.503991,0.8636139
alexnet2023_baseline_pgd,1,175,NaN,bicycle,bicycle,NaN,bicycle10-boat3.png,bicycle10-boat3.png,1.0,3.5643735,3.3386133,0.15963659
alexnet2023_baseline_pgd,1,176,NaN,bicycle,bicycle,NaN,bicycle10-clock2.png,bicycle10-clock2.png,1.0,10.044027,4.2331314,4.108924
alexnet2023_baseline_pgd,1,177,NaN,cat,bicycle,NaN,bicycle10-dog3.png,bicycle10-dog3.png,0.0,-3.538955,4.287336,-5.534024
alexnet2023_baseline_pgd,1,178,NaN,elephant,bicycle,NaN,bicycle10-elephant2.png,bicycle10-elephant2.png,0.0,1.2917984,10.490723,-6.5046215
alexnet2023_baseline_pgd,1,179,NaN,bicycle,bicycle,NaN,bicycle2-bicycle1.png,bicycle2-bicycle1.png,1.0,14.13995,1.1232886,9.204169
alexnet2023_baseline_pgd,1,180,NaN,bottle,bicycle,NaN,bicycle2-bird3.png,bicycle2-bird3.png,0.0,1.7198435,1.8070914,-0.061693545
alexnet2023_baseline_pgd,1,181,NaN,bicycle,bicycle,NaN,bicycle2-bottle1.png,bicycle2-bottle1.png,1.0,10.081993,5.5571036,3.1995802
alexnet2023_baseline_pgd,1,182,NaN,bicycle,bicycle,NaN,bicycle2-car2.png,bicycle2-car2.png,1.0,5.9613585,4.2787757,1.1897658
alexnet2023_baseline_pgd,1,183,NaN,bear,bicycle,NaN,bicycle2-dog1.png,bicycle2-dog1.png,0.0,-3.1346965,5.419362,-6.0486326
alexnet2023_baseline_pgd,1,184,NaN,car,bicycle,NaN,bicycle2-keyboard2.png,bicycle2-keyboard2.png,0.0,2.5632946,4.804722,-1.5849284
alexnet2023_baseline_pgd,1,185,NaN,knife,bicycle,NaN,bicycle2-knife2.png,bicycle2-knife2.png,0.0,1.5318961,7.489109,-4.2123857
alexnet2023_baseline_pgd,1,186,NaN,bear,bicycle,NaN,bicycle3-bird1.png,bicycle3-bird1.png,0.0,0.18891418,4.161252,-2.808867
alexnet2023_baseline_pgd,1,187,NaN,elephant,bicycle,NaN,bicycle3-elephant2.png,bicycle3-elephant2.png,0.0,-0.0060434192,10.401886,-7.3595176
alexnet2023_baseline_pgd,1,188,NaN,bicycle,bicycle,NaN,bicycle3-keyboard1.png,bicycle3-keyboard1.png,1.0,8.851124,3.086448,4.0762415
alexnet2023_baseline_pgd,1,189,NaN,chair,bicycle,NaN,bicycle3-oven3.png,bicycle3-oven3.png,0.0,-0.6836349,5.4752975,-4.355023
alexnet2023_baseline_pgd,1,190,NaN,bottle,bicycle,NaN,bicycle3-truck3.png,bicycle3-truck3.png,0.0,-1.442348,4.465573,-4.177531
alexnet2023_baseline_pgd,1,191,NaN,bicycle,bicycle,NaN,bicycle4-airplane1.png,bicycle4-airplane1.png,1.0,8.757928,3.0388095,4.0440273
alexnet2023_baseline_pgd,1,192,NaN,bicycle,bicycle,NaN,bicycle4-bicycle3.png,bicycle4-bicycle3.png,1.0,12.722451,3.3156464,6.6516156
alexnet2023_baseline_pgd,1,193,NaN,bicycle,bicycle,NaN,bicycle4-boat1.png,bicycle4-boat1.png,1.0,9.506938,3.5564175,4.2076535
alexnet2023_baseline_pgd,1,194,NaN,bicycle,bicycle,NaN,bicycle4-bottle1.png,bicycle4-bottle1.png,1.0,6.100114,4.7190456,0.97656274
alexnet2023_baseline_pgd,1,195,NaN,bicycle,bicycle,NaN,bicycle4-car2.png,bicycle4-car2.png,1.0,12.185325,3.7651703,5.9539485
alexnet2023_baseline_pgd,1,196,NaN,cat,bicycle,NaN,bicycle4-cat1.png,bicycle4-cat1.png,0.0,-2.8596494,5.5440583,-5.9423184
alexnet2023_baseline_pgd,1,197,NaN,bicycle,bicycle,NaN,bicycle4-chair2.png,bicycle4-chair2.png,1.0,8.472862,5.679859,1.9749515
alexnet2023_baseline_pgd,1,198,NaN,bicycle,bicycle,NaN,bicycle4-clock3.png,bicycle4-clock3.png,1.0,8.849594,3.3483944,3.8899357
alexnet2023_baseline_pgd,1,199,NaN,knife,bicycle,NaN,bicycle4-keyboard3.png,bicycle4-keyboard3.png,0.0,-1.540792,2.2305698,-2.6667557
alexnet2023_baseline_pgd,1,200,NaN,knife,bicycle,NaN,bicycle4-knife3.png,bicycle4-knife3.png,0.0,-2.0356905,5.6917844,-5.46415
alexnet2023_baseline_pgd,1,201,NaN,elephant,bicycle,NaN,bicycle4-oven3.png,bicycle4-oven3.png,0.0,-1.6343677,6.7086124,-5.8993783
alexnet2023_baseline_pgd,1,202,NaN,oven,bicycle,NaN,bicycle4-truck3.png,bicycle4-truck3.png,0.0,0.7622624,3.3025854,-1.7962797
alexnet2023_baseline_pgd,1,203,NaN,elephant,bicycle,NaN,bicycle5-bear1.png,bicycle5-bear1.png,0.0,-2.0422118,3.0591006,-3.6071727
alexnet2023_baseline_pgd,1,204,NaN,bicycle,bicycle,NaN,bicycle5-bottle3.png,bicycle5-bottle3.png,1.0,11.386535,2.0379903,6.6104193
alexnet2023_baseline_pgd,1,205,NaN,bicycle,bicycle,NaN,bicycle5-car3.png,bicycle5-car3.png,1.0,11.417172,6.4777594,3.4926925
alexnet2023_baseline_pgd,1,206,NaN,oven,bicycle,NaN,bicycle5-cat1.png,bicycle5-cat1.png,0.0,-1.6514543,4.0605574,-4.0390024
alexnet2023_baseline_pgd,1,207,NaN,bicycle,bicycle,NaN,bicycle5-chair2.png,bicycle5-chair2.png,1.0,10.09057,5.686435,3.114194
alexnet2023_baseline_pgd,1,208,NaN,oven,bicycle,NaN,bicycle5-dog2.png,bicycle5-dog2.png,0.0,-1.1273804,4.5132766,-3.9885468
alexnet2023_baseline_pgd,1,209,NaN,elephant,bicycle,NaN,bicycle5-elephant1.png,bicycle5-elephant1.png,0.0,4.0539713,5.108913,-0.7459564
alexnet2023_baseline_pgd,1,210,NaN,knife,bicycle,NaN,bicycle5-keyboard3.png,bicycle5-keyboard3.png,0.0,-1.1262405,4.5831213,-4.0371284
alexnet2023_baseline_pgd,1,211,NaN,knife,bicycle,NaN,bicycle5-oven3.png,bicycle5-oven3.png,0.0,1.9245914,6.0904884,-2.945734
alexnet2023_baseline_pgd,1,212,NaN,knife,bicycle,NaN,bicycle6-airplane2.png,bicycle6-airplane2.png,0.0,3.0510395,7.751297,-3.3235838
alexnet2023_baseline_pgd,1,213,NaN,bicycle,bicycle,NaN,bicycle6-bicycle3.png,bicycle6-bicycle3.png,1.0,6.9212766,4.091224,2.0011492
alexnet2023_baseline_pgd,1,214,NaN,bicycle,bicycle,NaN,bicycle6-boat2.png,bicycle6-boat2.png,1.0,9.636773,4.9294624,3.3285713
alexnet2023_baseline_pgd,1,215,NaN,bicycle,bicycle,NaN,bicycle6-car2.png,bicycle6-car2.png,1.0,4.4688168,3.5838258,0.6257831
alexnet2023_baseline_pgd,1,216,NaN,bear,bicycle,NaN,bicycle6-cat1.png,bicycle6-cat1.png,0.0,-3.5743995,4.6287484,-5.800502
alexnet2023_baseline_pgd,1,217,NaN,oven,bicycle,NaN,bicycle6-dog2.png,bicycle6-dog2.png,0.0,-0.66033673,2.8200607,-2.4610126
alexnet2023_baseline_pgd,1,218,NaN,elephant,bicycle,NaN,bicycle7-bear2.png,bicycle7-bear2.png,0.0,2.254896,6.9607296,-3.3275268
alexnet2023_baseline_pgd,1,219,NaN,bicycle,bicycle,NaN,bicycle7-bicycle2.png,bicycle7-bicycle2.png,1.0,12.84486,3.5322063,6.5850406
alexnet2023_baseline_pgd,1,220,NaN,oven,bicycle,NaN,bicycle7-cat1.png,bicycle7-cat1.png,0.0,-2.9395738,7.709538,-7.5300593
alexnet2023_baseline_pgd,1,221,NaN,bicycle,bicycle,NaN,bicycle7-clock3.png,bicycle7-clock3.png,1.0,12.573266,5.422766,5.056167
alexnet2023_baseline_pgd,1,222,NaN,elephant,bicycle,NaN,bicycle7-elephant2.png,bicycle7-elephant2.png,0.0,-1.5355563,12.389095,-9.846216
alexnet2023_baseline_pgd,1,223,NaN,oven,bicycle,NaN,bicycle7-knife2.png,bicycle7-knife2.png,0.0,7.5700307,7.5713296,-0.00091846415
alexnet2023_baseline_pgd,1,224,NaN,knife,bicycle,NaN,bicycle7-oven1.png,bicycle7-oven1.png,0.0,0.8025737,5.186743,-3.1000757
alexnet2023_baseline_pgd,1,225,NaN,bottle,bicycle,NaN,bicycle7-truck3.png,bicycle7-truck3.png,0.0,2.3119524,5.6088266,-2.331242
alexnet2023_baseline_pgd,1,226,NaN,elephant,bicycle,NaN,bicycle8-bear2.png,bicycle8-bear2.png,0.0,1.6750973,7.9426336,-4.4318175
alexnet2023_baseline_pgd,1,227,NaN,bicycle,bicycle,NaN,bicycle8-bird2.png,bicycle8-bird2.png,1.0,12.298662,2.1992114,7.1413903
alexnet2023_baseline_pgd,1,228,NaN,bicycle,bicycle,NaN,bicycle8-boat1.png,bicycle8-boat1.png,1.0,13.996298,2.5865834,8.067886
alexnet2023_baseline_pgd,1,229,NaN,bicycle,bicycle,NaN,bicycle8-chair2.png,bicycle8-chair2.png,1.0,9.830111,6.4453297,2.3934016
alexnet2023_baseline_pgd,1,230,NaN,bicycle,bicycle,NaN,bicycle8-clock3.png,bicycle8-clock3.png,1.0,9.386249,2.7524512,4.6908035
alexnet2023_baseline_pgd,1,231,NaN,bicycle,bicycle,NaN,bicycle8-truck1.png,bicycle8-truck1.png,1.0,12.561903,5.236262,5.180011
alexnet2023_baseline_pgd,1,232,NaN,knife,bicycle,NaN,bicycle9-airplane2.png,bicycle9-airplane2.png,0.0,6.00418,6.0060663,-0.0013338635
alexnet2023_baseline_pgd,1,233,NaN,elephant,bicycle,NaN,bicycle9-bear1.png,bicycle9-bear1.png,0.0,1.0554831,4.4678164,-2.412884
alexnet2023_baseline_pgd,1,234,NaN,clock,bicycle,NaN,bicycle9-bird3.png,bicycle9-bird3.png,0.0,2.6465044,4.2261405,-1.1169714
alexnet2023_baseline_pgd,1,235,NaN,bicycle,bicycle,NaN,bicycle9-bottle1.png,bicycle9-bottle1.png,1.0,13.271021,3.784087,6.7082753
alexnet2023_baseline_pgd,1,236,NaN,bicycle,bicycle,NaN,bicycle9-car1.png,bicycle9-car1.png,1.0,13.81688,2.7587872,7.819253
alexnet2023_baseline_pgd,1,237,NaN,cat,bicycle,NaN,bicycle9-cat3.png,bicycle9-cat3.png,0.0,-1.0066891,4.38331,-3.8113048
alexnet2023_baseline_pgd,1,238,NaN,bicycle,bicycle,NaN,bicycle9-chair1.png,bicycle9-chair1.png,1.0,8.358221,3.6424565,3.3345492
alexnet2023_baseline_pgd,1,239,NaN,bottle,bicycle,NaN,bicycle9-keyboard3.png,bicycle9-keyboard3.png,0.0,-0.34304535,2.737146,-2.178024
alexnet2023_baseline_pgd,1,240,NaN,bottle,bicycle,NaN,bicycle9-knife3.png,bicycle9-knife3.png,0.0,-5.295871,5.959925,-7.95905
alexnet2023_baseline_pgd,1,241,NaN,airplane,bird,NaN,bird1-airplane2.png,bird1-airplane2.png,0.0,3.316508,3.7373366,-0.29757074
alexnet2023_baseline_pgd,1,242,NaN,bear,bird,NaN,bird1-bear1.png,bird1-bear1.png,0.0,2.0359414,5.020052,-2.1100848
alexnet2023_baseline_pgd,1,243,NaN,bicycle,bird,NaN,bird1-bicycle2.png,bird1-bicycle2.png,0.0,2.7757127,4.810277,-1.4386542
alexnet2023_baseline_pgd,1,244,NaN,bicycle,bird,NaN,bird1-boat1.png,bird1-boat1.png,0.0,-2.3454537,4.067659,-4.5347557
alexnet2023_baseline_pgd,1,245,NaN,truck,bird,NaN,bird1-chair2.png,bird1-chair2.png,0.0,-5.0869694,6.0483513,-7.873861
alexnet2023_baseline_pgd,1,246,NaN,clock,bird,NaN,bird1-clock3.png,bird1-clock3.png,0.0,-3.5045083,2.9237425,-4.5454597
alexnet2023_baseline_pgd,1,247,NaN,elephant,bird,NaN,bird1-elephant2.png,bird1-elephant2.png,0.0,-0.06306225,12.59453,-8.95027
alexnet2023_baseline_pgd,1,248,NaN,knife,bird,NaN,bird1-keyboard3.png,bird1-keyboard3.png,0.0,-0.23430158,3.7204847,-2.7964563
alexnet2023_baseline_pgd,1,249,NaN,elephant,bird,NaN,bird1-knife3.png,bird1-knife3.png,0.0,1.4118127,2.2101197,-0.56448835
alexnet2023_baseline_pgd,1,250,NaN,oven,bird,NaN,bird1-oven1.png,bird1-oven1.png,0.0,-1.0335789,6.021553,-4.988732
alexnet2023_baseline_pgd,1,251,NaN,bottle,bird,NaN,bird1-truck1.png,bird1-truck1.png,0.0,-4.3771186,5.9694366,-7.3161197
alexnet2023_baseline_pgd,1,252,NaN,elephant,bird,NaN,bird10-bear2.png,bird10-bear2.png,0.0,4.2383013,11.004724,-4.784583
alexnet2023_baseline_pgd,1,253,NaN,bicycle,bird,NaN,bird10-bicycle1.png,bird10-bicycle1.png,0.0,-0.40015963,7.1561036,-5.3430853
alexnet2023_baseline_pgd,1,254,NaN,bird,bird,NaN,bird10-bird2.png,bird10-bird2.png,1.0,3.6052482,3.2690046,0.23776016
alexnet2023_baseline_pgd,1,255,NaN,dog,bird,NaN,bird10-cat1.png,bird10-cat1.png,0.0,-0.007855785,4.7743726,-3.3815463
alexnet2023_baseline_pgd,1,256,NaN,chair,bird,NaN,bird10-chair1.png,bird10-chair1.png,0.0,-2.0117857,3.759499,-4.080915
alexnet2023_baseline_pgd,1,257,NaN,clock,bird,NaN,bird10-clock1.png,bird10-clock1.png,0.0,-0.32032666,2.77398,-2.1880052
alexnet2023_baseline_pgd,1,258,NaN,elephant,bird,NaN,bird10-elephant2.png,bird10-elephant2.png,0.0,-0.83797836,11.938154,-9.03409
alexnet2023_baseline_pgd,1,259,NaN,airplane,bird,NaN,bird2-airplane3.png,bird2-airplane3.png,0.0,-1.1013503,2.6385703,-2.6445234
alexnet2023_baseline_pgd,1,260,NaN,bicycle,bird,NaN,bird2-bird2.png,bird2-bird2.png,0.0,2.054404,2.4955473,-0.3119354
alexnet2023_baseline_pgd,1,261,NaN,bicycle,bird,NaN,bird2-car3.png,bird2-car3.png,0.0,-0.4998035,4.133324,-3.2761161
alexnet2023_baseline_pgd,1,262,NaN,knife,bird,NaN,bird2-clock3.png,bird2-clock3.png,0.0,-2.8037167,3.6051803,-4.5317745
alexnet2023_baseline_pgd,1,263,NaN,oven,bird,NaN,bird2-dog2.png,bird2-dog2.png,0.0,1.1082506,2.8578956,-1.2371858
alexnet2023_baseline_pgd,1,264,NaN,knife,bird,NaN,bird2-knife1.png,bird2-knife1.png,0.0,-0.22874634,6.6800776,-4.8852763
alexnet2023_baseline_pgd,1,265,NaN,bear,bird,NaN,bird3-bear3.png,bird3-bear3.png,0.0,2.463656,8.235638,-4.0814075
alexnet2023_baseline_pgd,1,266,NaN,bird,bird,NaN,bird3-bird2.png,bird3-bird2.png,1.0,3.5706449,1.9440292,1.150191
alexnet2023_baseline_pgd,1,267,NaN,elephant,bird,NaN,bird3-boat3.png,bird3-boat3.png,0.0,-2.8338044,3.6853395,-4.609731
alexnet2023_baseline_pgd,1,268,NaN,bicycle,bird,NaN,bird3-bottle2.png,bird3-bottle2.png,0.0,-0.52944654,4.773129,-3.7494872
alexnet2023_baseline_pgd,1,269,NaN,cat,bird,NaN,bird3-cat1.png,bird3-cat1.png,0.0,0.910357,4.825084,-2.7681303
alexnet2023_baseline_pgd,1,270,NaN,bear,bird,NaN,bird3-dog1.png,bird3-dog1.png,0.0,0.96084994,6.8457856,-4.1612782
alexnet2023_baseline_pgd,1,271,NaN,knife,bird,NaN,bird3-knife3.png,bird3-knife3.png,0.0,-1.8820827,5.397198,-5.1472287
alexnet2023_baseline_pgd,1,272,NaN,oven,bird,NaN,bird3-oven1.png,bird3-oven1.png,0.0,0.14978024,6.032195,-4.1594954
alexnet2023_baseline_pgd,1,273,NaN,knife,bird,NaN,bird3-truck3.png,bird3-truck3.png,0.0,1.1356605,3.9523833,-1.9917239
alexnet2023_baseline_pgd,1,274,NaN,knife,bird,NaN,bird4-airplane1.png,bird4-airplane1.png,0.0,2.2808087,4.712297,-1.7193218
alexnet2023_baseline_pgd,1,275,NaN,bicycle,bird,NaN,bird4-bicycle2.png,bird4-bicycle2.png,0.0,2.3961568,5.145176,-1.9438502
alexnet2023_baseline_pgd,1,276,NaN,cat,bird,NaN,bird4-cat3.png,bird4-cat3.png,0.0,-0.22451508,6.0694184,-4.450483
alexnet2023_baseline_pgd,1,277,NaN,knife,bird,NaN,bird4-clock1.png,bird4-clock1.png,0.0,-4.5118036,5.458349,-7.049963
alexnet2023_baseline_pgd,1,278,NaN,dog,bird,NaN,bird4-dog3.png,bird4-dog3.png,0.0,0.39317462,7.0664005,-4.7186832
alexnet2023_baseline_pgd,1,279,NaN,oven,bird,NaN,bird5-airplane3.png,bird5-airplane3.png,0.0,2.462581,3.8304162,-0.96720564
alexnet2023_baseline_pgd,1,280,NaN,bird,bird,NaN,bird5-bear3.png,bird5-bear3.png,1.0,6.390936,5.8923917,0.352524
alexnet2023_baseline_pgd,1,281,NaN,bicycle,bird,NaN,bird5-bicycle1.png,bird5-bicycle1.png,0.0,3.9185355,5.709173,-1.266172
alexnet2023_baseline_pgd,1,282,NaN,bird,bird,NaN,bird5-bird1.png,bird5-bird1.png,1.0,3.835336,2.3247557,1.0681416
alexnet2023_baseline_pgd,1,283,NaN,airplane,bird,NaN,bird5-car2.png,bird5-car2.png,0.0,-1.2144029,3.6884174,-3.4668179
alexnet2023_baseline_pgd,1,284,NaN,cat,bird,NaN,bird5-cat2.png,bird5-cat2.png,0.0,2.1785796,7.781452,-3.9618294
alexnet2023_baseline_pgd,1,285,NaN,car,bird,NaN,bird5-chair1.png,bird5-chair1.png,0.0,-3.1739128,6.1793904,-6.613784
alexnet2023_baseline_pgd,1,286,NaN,dog,bird,NaN,bird5-dog2.png,bird5-dog2.png,0.0,3.9484305,4.2879467,-0.24007419
alexnet2023_baseline_pgd,1,287,NaN,knife,bird,NaN,bird5-keyboard2.png,bird5-keyboard2.png,0.0,0.024864906,8.226794,-5.7996397
alexnet2023_baseline_pgd,1,288,NaN,oven,bird,NaN,bird5-oven3.png,bird5-oven3.png,0.0,-2.5594926,7.155422,-6.869482
alexnet2023_baseline_pgd,1,289,NaN,oven,bird,NaN,bird5-truck2.png,bird5-truck2.png,0.0,-1.0251093,5.4899807,-4.6068645
alexnet2023_baseline_pgd,1,290,NaN,airplane,bird,NaN,bird6-airplane2.png,bird6-airplane2.png,0.0,3.7690299,6.6719713,-2.0526896
alexnet2023_baseline_pgd,1,291,NaN,bicycle,bird,NaN,bird6-boat2.png,bird6-boat2.png,0.0,-1.9863359,6.4081516,-5.935799
alexnet2023_baseline_pgd,1,292,NaN,cat,bird,NaN,bird6-bottle3.png,bird6-bottle3.png,0.0,0.21256973,1.8415413,-1.1518569
alexnet2023_baseline_pgd,1,293,NaN,bicycle,bird,NaN,bird6-car3.png,bird6-car3.png,0.0,-0.76949155,2.8704734,-2.573844
alexnet2023_baseline_pgd,1,294,NaN,elephant,bird,NaN,bird6-elephant2.png,bird6-elephant2.png,0.0,-0.14365411,14.466182,-10.330714
alexnet2023_baseline_pgd,1,295,NaN,airplane,bird,NaN,bird6-oven1.png,bird6-oven1.png,0.0,0.6170517,7.143509,-4.6149025
alexnet2023_baseline_pgd,1,296,NaN,chair,bird,NaN,bird6-truck2.png,bird6-truck2.png,0.0,-2.1029868,6.7405415,-6.2533193
alexnet2023_baseline_pgd,1,297,NaN,clock,bird,NaN,bird7-bird2.png,bird7-bird2.png,0.0,-0.0062133037,2.5705426,-1.8220415
alexnet2023_baseline_pgd,1,298,NaN,airplane,bird,NaN,bird7-boat1.png,bird7-boat1.png,0.0,0.46738926,2.804256,-1.6524142
alexnet2023_baseline_pgd,1,299,NaN,clock,bird,NaN,bird7-bottle1.png,bird7-bottle1.png,0.0,-4.1585116,4.945835,-6.4377456
alexnet2023_baseline_pgd,1,300,NaN,bicycle,bird,NaN,bird7-car2.png,bird7-car2.png,0.0,-1.3307542,4.1467705,-3.873195
alexnet2023_baseline_pgd,1,301,NaN,oven,bird,NaN,bird7-cat3.png,bird7-cat3.png,0.0,-1.1859639,4.9055095,-4.3073225
alexnet2023_baseline_pgd,1,302,NaN,bird,bird,NaN,bird7-keyboard3.png,bird7-keyboard3.png,1.0,2.194392,2.1741326,0.014325545
alexnet2023_baseline_pgd,1,303,NaN,oven,bird,NaN,bird7-knife2.png,bird7-knife2.png,0.0,0.71895707,6.674408,-4.2111397
alexnet2023_baseline_pgd,1,304,NaN,oven,bird,NaN,bird7-oven3.png,bird7-oven3.png,0.0,-0.8366865,4.7965283,-3.9832845
alexnet2023_baseline_pgd,1,305,NaN,bottle,bird,NaN,bird7-truck2.png,bird7-truck2.png,0.0,-2.5057325,3.65387,-4.355497
alexnet2023_baseline_pgd,1,306,NaN,knife,bird,NaN,bird8-boat3.png,bird8-boat3.png,0.0,-3.0849912,3.512662,-4.6652455
alexnet2023_baseline_pgd,1,307,NaN,bicycle,bird,NaN,bird8-bottle1.png,bird8-bottle1.png,0.0,-2.3334105,6.113456,-5.9728365
alexnet2023_baseline_pgd,1,308,NaN,knife,bird,NaN,bird8-car2.png,bird8-car2.png,0.0,0.61704206,4.5350685,-2.7704632
alexnet2023_baseline_pgd,1,309,NaN,chair,bird,NaN,bird8-chair1.png,bird8-chair1.png,0.0,-3.8230085,5.6153955,-6.6739597
alexnet2023_baseline_pgd,1,310,NaN,oven,bird,NaN,bird8-clock1.png,bird8-clock1.png,0.0,-2.3906796,6.587057,-6.3482184
alexnet2023_baseline_pgd,1,311,NaN,elephant,bird,NaN,bird8-elephant1.png,bird8-elephant1.png,0.0,-0.017969603,8.950151,-6.341419
alexnet2023_baseline_pgd,1,312,NaN,knife,bird,NaN,bird8-keyboard2.png,bird8-keyboard2.png,0.0,-1.0642883,6.000062,-4.9952497
alexnet2023_baseline_pgd,1,313,NaN,knife,bird,NaN,bird8-knife2.png,bird8-knife2.png,0.0,0.44696867,5.859436,-3.8271925
alexnet2023_baseline_pgd,1,314,NaN,elephant,bird,NaN,bird9-bear3.png,bird9-bear3.png,0.0,1.8810556,8.83111,-4.9144306
alexnet2023_baseline_pgd,1,315,NaN,knife,bird,NaN,bird9-bicycle3.png,bird9-bicycle3.png,0.0,0.68517154,3.408641,-1.9257838
alexnet2023_baseline_pgd,1,316,NaN,bird,bird,NaN,bird9-bottle3.png,bird9-bottle3.png,1.0,2.64057,2.300602,0.24039365
alexnet2023_baseline_pgd,1,317,NaN,knife,bird,NaN,bird9-chair1.png,bird9-chair1.png,0.0,0.018023921,2.3621178,-1.6575247
alexnet2023_baseline_pgd,1,318,NaN,oven,bird,NaN,bird9-dog2.png,bird9-dog2.png,0.0,1.4062301,3.0154018,-1.1378562
alexnet2023_baseline_pgd,1,319,NaN,elephant,bird,NaN,bird9-elephant2.png,bird9-elephant2.png,0.0,-0.46609586,13.96665,-10.205493
alexnet2023_baseline_pgd,1,320,NaN,elephant,bird,NaN,bird9-keyboard1.png,bird9-keyboard1.png,0.0,0.41235414,1.2689452,-0.6057014
alexnet2023_baseline_pgd,1,321,NaN,bear,boat,NaN,boat1-bear1.png,boat1-bear1.png,0.0,-2.8209527,6.345776,-6.4818563
alexnet2023_baseline_pgd,1,322,NaN,bicycle,boat,NaN,boat1-bicycle2.png,boat1-bicycle2.png,0.0,-4.196684,3.9240234,-5.7422075
alexnet2023_baseline_pgd,1,323,NaN,oven,boat,NaN,boat1-bird3.png,boat1-bird3.png,0.0,3.2395794,11.590185,-5.9047704
alexnet2023_baseline_pgd,1,324,NaN,car,boat,NaN,boat1-car2.png,boat1-car2.png,0.0,2.3787608,4.767743,-1.6892656
alexnet2023_baseline_pgd,1,325,NaN,elephant,boat,NaN,boat1-chair3.png,boat1-chair3.png,0.0,2.2383502,3.191696,-0.67411727
alexnet2023_baseline_pgd,1,326,NaN,elephant,boat,NaN,boat1-elephant3.png,boat1-elephant3.png,0.0,-2.426003,9.211681,-8.229085
alexnet2023_baseline_pgd,1,327,NaN,knife,boat,NaN,boat1-keyboard3.png,boat1-keyboard3.png,0.0,0.9750406,5.6263514,-3.2889736
alexnet2023_baseline_pgd,1,328,NaN,knife,boat,NaN,boat1-oven1.png,boat1-oven1.png,0.0,2.9594674,6.36643,-2.4090862
alexnet2023_baseline_pgd,1,329,NaN,oven,boat,NaN,boat1-truck3.png,boat1-truck3.png,0.0,3.1703813,7.014037,-2.7178752
alexnet2023_baseline_pgd,1,330,NaN,bear,boat,NaN,boat10-bear3.png,boat10-bear3.png,0.0,-2.8580894,5.5717688,-5.96081
alexnet2023_baseline_pgd,1,331,NaN,oven,boat,NaN,boat10-boat3.png,boat10-boat3.png,0.0,4.0338316,4.745433,-0.50317806
alexnet2023_baseline_pgd,1,332,NaN,oven,boat,NaN,boat10-cat1.png,boat10-cat1.png,0.0,-4.7001085,6.730898,-8.082942
alexnet2023_baseline_pgd,1,333,NaN,oven,boat,NaN,boat10-oven1.png,boat10-oven1.png,0.0,3.4758236,7.3625402,-2.7483237
alexnet2023_baseline_pgd,1,334,NaN,car,boat,NaN,boat10-truck1.png,boat10-truck1.png,0.0,6.228151,9.948422,-2.6306293
alexnet2023_baseline_pgd,1,335,NaN,airplane,boat,NaN,boat2-airplane1.png,boat2-airplane1.png,0.0,1.6714913,4.4824724,-1.987664
alexnet2023_baseline_pgd,1,336,NaN,bear,boat,NaN,boat2-bear3.png,boat2-bear3.png,0.0,-0.42058992,7.132683,-5.3409705
alexnet2023_baseline_pgd,1,337,NaN,bird,boat,NaN,boat2-bird1.png,boat2-bird1.png,0.0,-0.06340446,4.5798073,-3.2832465
alexnet2023_baseline_pgd,1,338,NaN,bicycle,boat,NaN,boat2-bottle2.png,boat2-bottle2.png,0.0,-1.0641847,6.5236645,-5.36542
alexnet2023_baseline_pgd,1,339,NaN,bicycle,boat,NaN,boat2-keyboard1.png,boat2-keyboard1.png,0.0,2.7953715,4.8444347,-1.4489065
alexnet2023_baseline_pgd,1,340,NaN,oven,boat,NaN,boat2-oven3.png,boat2-oven3.png,0.0,2.8991523,3.9868257,-0.76910126
alexnet2023_baseline_pgd,1,341,NaN,airplane,boat,NaN,boat3-airplane2.png,boat3-airplane2.png,0.0,4.1517677,9.214682,-3.580021
alexnet2023_baseline_pgd,1,342,NaN,bicycle,boat,NaN,boat3-bicycle2.png,boat3-bicycle2.png,0.0,-3.3945916,3.462995,-4.849046
alexnet2023_baseline_pgd,1,343,NaN,car,boat,NaN,boat3-car3.png,boat3-car3.png,0.0,4.3500504,5.5184135,-0.8261575
alexnet2023_baseline_pgd,1,344,NaN,oven,boat,NaN,boat3-cat3.png,boat3-cat3.png,0.0,-1.66664,4.5254784,-4.378489
alexnet2023_baseline_pgd,1,345,NaN,airplane,boat,NaN,boat3-chair3.png,boat3-chair3.png,0.0,2.2427127,5.35485,-2.2006133
alexnet2023_baseline_pgd,1,346,NaN,chair,boat,NaN,boat3-clock3.png,boat3-clock3.png,0.0,-3.3619118,2.8470716,-4.390414
alexnet2023_baseline_pgd,1,347,NaN,dog,boat,NaN,boat3-dog3.png,boat3-dog3.png,0.0,-2.7752385,4.32147,-5.018131
alexnet2023_baseline_pgd,1,348,NaN,knife,boat,NaN,boat3-keyboard2.png,boat3-keyboard2.png,0.0,-0.41528255,3.7585044,-2.9513133
alexnet2023_baseline_pgd,1,349,NaN,bicycle,boat,NaN,boat4-bicycle3.png,boat4-bicycle3.png,0.0,-3.4748917,2.7180948,-4.3791027
alexnet2023_baseline_pgd,1,350,NaN,bird,boat,NaN,boat4-bird1.png,boat4-bird1.png,0.0,1.0535275,4.264702,-2.2706432
alexnet2023_baseline_pgd,1,351,NaN,oven,boat,NaN,boat4-boat3.png,boat4-boat3.png,0.0,0.20175429,5.175268,-3.5168056
alexnet2023_baseline_pgd,1,352,NaN,bottle,boat,NaN,boat4-bottle2.png,boat4-bottle2.png,0.0,-0.2064269,4.5465493,-3.360862
alexnet2023_baseline_pgd,1,353,NaN,oven,boat,NaN,boat4-car3.png,boat4-car3.png,0.0,2.148893,8.788416,-4.6948514
alexnet2023_baseline_pgd,1,354,NaN,oven,boat,NaN,boat4-chair2.png,boat4-chair2.png,0.0,4.6672306,5.4896946,-0.58156985
alexnet2023_baseline_pgd,1,355,NaN,oven,boat,NaN,boat4-dog2.png,boat4-dog2.png,0.0,-1.9443327,4.5180836,-4.569618
alexnet2023_baseline_pgd,1,356,NaN,elephant,boat,NaN,boat4-elephant2.png,boat4-elephant2.png,0.0,-2.8437884,10.02228,-9.097684
alexnet2023_baseline_pgd,1,357,NaN,oven,boat,NaN,boat4-knife2.png,boat4-knife2.png,0.0,-0.23428687,6.9563417,-5.0845423
alexnet2023_baseline_pgd,1,358,NaN,bicycle,boat,NaN,boat5-airplane1.png,boat5-airplane1.png,0.0,3.4673839,3.528482,-0.04320288
alexnet2023_baseline_pgd,1,359,NaN,bicycle,boat,NaN,boat5-bicycle3.png,boat5-bicycle3.png,0.0,-3.054625,3.0158,-4.292439
alexnet2023_baseline_pgd,1,360,NaN,knife,boat,NaN,boat5-boat3.png,boat5-boat3.png,0.0,-2.0912852,5.5803146,-5.42464
alexnet2023_baseline_pgd,1,361,NaN,knife,boat,NaN,boat5-car3.png,boat5-car3.png,0.0,-0.46358675,4.467355,-3.4867022
alexnet2023_baseline_pgd,1,362,NaN,knife,boat,NaN,boat5-clock3.png,boat5-clock3.png,0.0,-1.8611339,2.4646935,-3.0588222
alexnet2023_baseline_pgd,1,363,NaN,oven,boat,NaN,boat5-knife2.png,boat5-knife2.png,0.0,2.8053777,4.143798,-0.946406
alexnet2023_baseline_pgd,1,364,NaN,airplane,boat,NaN,boat6-airplane2.png,boat6-airplane2.png,0.0,2.5409951,4.7065296,-1.5312642
alexnet2023_baseline_pgd,1,365,NaN,elephant,boat,NaN,boat6-bear1.png,boat6-bear1.png,0.0,-2.5394855,5.0589924,-5.3729353
alexnet2023_baseline_pgd,1,366,NaN,bicycle,boat,NaN,boat6-bicycle2.png,boat6-bicycle2.png,0.0,-3.1966434,7.1060314,-7.285092
alexnet2023_baseline_pgd,1,367,NaN,bicycle,boat,NaN,boat6-bottle2.png,boat6-bottle2.png,0.0,-2.095677,4.693037,-4.800346
alexnet2023_baseline_pgd,1,368,NaN,bicycle,boat,NaN,boat6-car1.png,boat6-car1.png,0.0,-0.5239608,3.6168234,-2.9279766
alexnet2023_baseline_pgd,1,369,NaN,bear,boat,NaN,boat6-cat1.png,boat6-cat1.png,0.0,-2.7524998,3.5052047,-4.4248657
alexnet2023_baseline_pgd,1,370,NaN,bicycle,boat,NaN,boat6-clock2.png,boat6-clock2.png,0.0,1.4785094,3.4714046,-1.4091897
alexnet2023_baseline_pgd,1,371,NaN,dog,boat,NaN,boat6-dog1.png,boat6-dog1.png,0.0,-2.9175715,5.4261622,-5.899911
alexnet2023_baseline_pgd,1,372,NaN,elephant,boat,NaN,boat6-elephant2.png,boat6-elephant2.png,0.0,-2.8933072,12.75199,-11.062897
alexnet2023_baseline_pgd,1,373,NaN,oven,boat,NaN,boat6-knife2.png,boat6-knife2.png,0.0,3.1957211,4.0160723,-0.58007586
alexnet2023_baseline_pgd,1,374,NaN,chair,boat,NaN,boat6-truck3.png,boat6-truck3.png,0.0,0.9645856,2.7571301,-1.2675204
alexnet2023_baseline_pgd,1,375,NaN,bicycle,boat,NaN,boat7-boat2.png,boat7-boat2.png,0.0,4.5205145,7.395279,-2.0327654
alexnet2023_baseline_pgd,1,376,NaN,clock,boat,NaN,boat7-bottle1.png,boat7-bottle1.png,0.0,-1.7410285,3.8782015,-3.9733958
alexnet2023_baseline_pgd,1,377,NaN,cat,boat,NaN,boat7-cat3.png,boat7-cat3.png,0.0,-2.2178028,3.6051834,-4.117473
alexnet2023_baseline_pgd,1,378,NaN,clock,boat,NaN,boat7-chair1.png,boat7-chair1.png,0.0,1.7793785,4.1016126,-1.6420676
alexnet2023_baseline_pgd,1,379,NaN,oven,boat,NaN,boat7-clock3.png,boat7-clock3.png,0.0,-3.762965,2.4673276,-4.405482
alexnet2023_baseline_pgd,1,380,NaN,elephant,boat,NaN,boat7-elephant3.png,boat7-elephant3.png,0.0,-2.8422427,7.8678446,-7.573175
alexnet2023_baseline_pgd,1,381,NaN,bottle,boat,NaN,boat7-keyboard3.png,boat7-keyboard3.png,0.0,-1.8302364,2.779993,-3.2599247
alexnet2023_baseline_pgd,1,382,NaN,oven,boat,NaN,boat7-oven3.png,boat7-oven3.png,0.0,1.1669959,4.4479966,-2.3200178
alexnet2023_baseline_pgd,1,383,NaN,bottle,boat,NaN,boat7-truck2.png,boat7-truck2.png,0.0,-0.49666256,5.3188977,-4.112222
alexnet2023_baseline_pgd,1,384,NaN,knife,boat,NaN,boat8-bird2.png,boat8-bird2.png,0.0,-3.2393067,4.430955,-5.423694
alexnet2023_baseline_pgd,1,385,NaN,oven,boat,NaN,boat8-bottle1.png,boat8-bottle1.png,0.0,-2.802045,3.705638,-4.601627
alexnet2023_baseline_pgd,1,386,NaN,dog,boat,NaN,boat8-dog3.png,boat8-dog3.png,0.0,-3.738298,4.368677,-5.7324977
alexnet2023_baseline_pgd,1,387,NaN,elephant,boat,NaN,boat8-elephant1.png,boat8-elephant1.png,0.0,-1.9287688,4.2657743,-4.3802032
alexnet2023_baseline_pgd,1,388,NaN,knife,boat,NaN,boat8-knife1.png,boat8-knife1.png,0.0,-0.108970925,5.758031,-4.148597
alexnet2023_baseline_pgd,1,389,NaN,airplane,boat,NaN,boat8-oven1.png,boat8-oven1.png,0.0,3.470612,8.000678,-3.2032404
alexnet2023_baseline_pgd,1,390,NaN,car,boat,NaN,boat8-truck2.png,boat8-truck2.png,0.0,5.9910674,10.146554,-2.9383729
alexnet2023_baseline_pgd,1,391,NaN,knife,boat,NaN,boat9-airplane2.png,boat9-airplane2.png,0.0,2.615562,5.198756,-1.8265942
alexnet2023_baseline_pgd,1,392,NaN,elephant,boat,NaN,boat9-bear3.png,boat9-bear3.png,0.0,-0.8726438,8.046711,-6.3069363
alexnet2023_baseline_pgd,1,393,NaN,bird,boat,NaN,boat9-bird1.png,boat9-bird1.png,0.0,-0.8166755,3.0786793,-2.7544317
alexnet2023_baseline_pgd,1,394,NaN,knife,boat,NaN,boat9-boat3.png,boat9-boat3.png,0.0,0.64637375,3.6710536,-2.1387718
alexnet2023_baseline_pgd,1,395,NaN,oven,boat,NaN,boat9-cat3.png,boat9-cat3.png,0.0,-2.4585013,5.778781,-5.824638
alexnet2023_baseline_pgd,1,396,NaN,chair,boat,NaN,boat9-chair2.png,boat9-chair2.png,0.0,4.6355495,5.4507084,-0.57640433
alexnet2023_baseline_pgd,1,397,NaN,chair,boat,NaN,boat9-clock1.png,boat9-clock1.png,0.0,0.14953217,4.558089,-3.1173203
alexnet2023_baseline_pgd,1,398,NaN,oven,boat,NaN,boat9-dog2.png,boat9-dog2.png,0.0,-4.2777023,5.8216486,-7.1413198
alexnet2023_baseline_pgd,1,399,NaN,car,boat,NaN,boat9-keyboard2.png,boat9-keyboard2.png,0.0,2.0548134,8.540418,-4.5860147
alexnet2023_baseline_pgd,1,400,NaN,knife,boat,NaN,boat9-knife2.png,boat9-knife2.png,0.0,3.3574505,5.3717937,-1.4243557
alexnet2023_baseline_pgd,1,401,NaN,elephant,bottle,NaN,bottle1-bear1.png,bottle1-bear1.png,0.0,1.196792,4.924851,-2.6361358
alexnet2023_baseline_pgd,1,402,NaN,bottle,bottle,NaN,bottle1-bird3.png,bottle1-bird3.png,1.0,4.1561007,4.0618763,0.06662675
alexnet2023_baseline_pgd,1,403,NaN,bottle,bottle,NaN,bottle1-car1.png,bottle1-car1.png,1.0,3.9734347,3.8320518,0.09997283
alexnet2023_baseline_pgd,1,404,NaN,cat,bottle,NaN,bottle1-cat3.png,bottle1-cat3.png,0.0,2.143338,3.0656242,-0.65215486
alexnet2023_baseline_pgd,1,405,NaN,oven,bottle,NaN,bottle1-chair2.png,bottle1-chair2.png,0.0,5.284936,6.467491,-0.8361928
alexnet2023_baseline_pgd,1,406,NaN,oven,bottle,NaN,bottle1-clock1.png,bottle1-clock1.png,0.0,4.5559874,4.6141233,-0.04110835
alexnet2023_baseline_pgd,1,407,NaN,cat,bottle,NaN,bottle1-dog2.png,bottle1-dog2.png,0.0,1.760383,2.553097,-0.56053346
alexnet2023_baseline_pgd,1,408,NaN,bottle,bottle,NaN,bottle1-keyboard3.png,bottle1-keyboard3.png,1.0,2.6633878,2.1479425,0.36447483
alexnet2023_baseline_pgd,1,409,NaN,elephant,bottle,NaN,bottle10-bear2.png,bottle10-bear2.png,0.0,5.659768,11.523108,-4.146007
alexnet2023_baseline_pgd,1,410,NaN,bottle,bottle,NaN,bottle10-boat3.png,bottle10-boat3.png,1.0,5.2464094,4.891823,0.2507306
alexnet2023_baseline_pgd,1,411,NaN,bottle,bottle,NaN,bottle10-car1.png,bottle10-car1.png,1.0,6.220833,3.890115,1.6480664
alexnet2023_baseline_pgd,1,412,NaN,bottle,bottle,NaN,bottle10-clock2.png,bottle10-clock2.png,1.0,7.9846625,6.512201,1.0411876
alexnet2023_baseline_pgd,1,413,NaN,bear,bottle,NaN,bottle10-dog1.png,bottle10-dog1.png,0.0,1.6689494,5.177898,-2.4812014
alexnet2023_baseline_pgd,1,414,NaN,bottle,bottle,NaN,bottle10-truck3.png,bottle10-truck3.png,1.0,8.53089,6.399386,1.5072013
alexnet2023_baseline_pgd,1,415,NaN,knife,bottle,NaN,bottle2-bottle3.png,bottle2-bottle3.png,0.0,3.532232,3.8011875,-0.19018024
alexnet2023_baseline_pgd,1,416,NaN,bicycle,bottle,NaN,bottle2-car2.png,bottle2-car2.png,0.0,1.9594451,4.525752,-1.8146532
alexnet2023_baseline_pgd,1,417,NaN,chair,bottle,NaN,bottle2-chair3.png,bottle2-chair3.png,0.0,3.9929326,4.3186235,-0.23029831
alexnet2023_baseline_pgd,1,418,NaN,oven,bottle,NaN,bottle2-clock1.png,bottle2-clock1.png,0.0,4.6019135,4.897299,-0.208869
alexnet2023_baseline_pgd,1,419,NaN,elephant,bottle,NaN,bottle2-elephant1.png,bottle2-elephant1.png,0.0,-0.23073374,7.8888464,-5.7414103
alexnet2023_baseline_pgd,1,420,NaN,bottle,bottle,NaN,bottle2-knife3.png,bottle2-knife3.png,1.0,9.632509,3.7342596,4.1706924
alexnet2023_baseline_pgd,1,421,NaN,bottle,bottle,NaN,bottle3-airplane2.png,bottle3-airplane2.png,1.0,6.774982,4.719034,1.4537747
alexnet2023_baseline_pgd,1,422,NaN,elephant,bottle,NaN,bottle3-bear2.png,bottle3-bear2.png,0.0,2.0126898,9.349495,-5.187905
alexnet2023_baseline_pgd,1,423,NaN,bottle,bottle,NaN,bottle3-bicycle3.png,bottle3-bicycle3.png,1.0,4.709039,2.618876,1.4779686
alexnet2023_baseline_pgd,1,424,NaN,bear,bottle,NaN,bottle3-bird1.png,bottle3-bird1.png,0.0,0.7192307,1.9850101,-0.8950413
alexnet2023_baseline_pgd,1,425,NaN,bottle,bottle,NaN,bottle3-boat3.png,bottle3-boat3.png,1.0,4.79747,4.0850954,0.503725
alexnet2023_baseline_pgd,1,426,NaN,knife,bottle,NaN,bottle3-bottle3.png,bottle3-bottle3.png,0.0,2.5972555,2.7502484,-0.10818236
alexnet2023_baseline_pgd,1,427,NaN,bottle,bottle,NaN,bottle3-cat3.png,bottle3-cat3.png,1.0,5.214245,3.4836018,1.2237494
alexnet2023_baseline_pgd,1,428,NaN,chair,bottle,NaN,bottle3-chair3.png,bottle3-chair3.png,0.0,2.7813778,4.2524824,-1.0402281
alexnet2023_baseline_pgd,1,429,NaN,bottle,bottle,NaN,bottle3-knife3.png,bottle3-knife3.png,1.0,9.153676,3.4595811,4.026333
alexnet2023_baseline_pgd,1,430,NaN,knife,bottle,NaN,bottle4-airplane1.png,bottle4-airplane1.png,0.0,1.7319959,2.8465714,-0.7881239
alexnet2023_baseline_pgd,1,431,NaN,bicycle,bottle,NaN,bottle4-bicycle1.png,bottle4-bicycle1.png,0.0,1.9222658,5.7940016,-2.7377307
alexnet2023_baseline_pgd,1,432,NaN,bottle,bottle,NaN,bottle4-car3.png,bottle4-car3.png,1.0,2.8283026,2.6138482,0.15164217
alexnet2023_baseline_pgd,1,433,NaN,cat,bottle,NaN,bottle4-dog2.png,bottle4-dog2.png,0.0,0.24782287,2.8063965,-1.8091849
alexnet2023_baseline_pgd,1,434,NaN,knife,bottle,NaN,bottle4-oven2.png,bottle4-oven2.png,0.0,6.138944,7.556902,-1.0026476
alexnet2023_baseline_pgd,1,435,NaN,bottle,bottle,NaN,bottle4-truck1.png,bottle4-truck1.png,1.0,7.2338705,4.7343626,1.767419
alexnet2023_baseline_pgd,1,436,NaN,bottle,bottle,NaN,bottle5-airplane1.png,bottle5-airplane1.png,1.0,3.9799156,3.0679753,0.6448392
alexnet2023_baseline_pgd,1,437,NaN,bottle,bottle,NaN,bottle5-bird3.png,bottle5-bird3.png,1.0,7.227011,4.448109,1.9649805
alexnet2023_baseline_pgd,1,438,NaN,bottle,bottle,NaN,bottle5-boat1.png,bottle5-boat1.png,1.0,6.49114,6.1201057,0.26236075
alexnet2023_baseline_pgd,1,439,NaN,cat,bottle,NaN,bottle5-cat1.png,bottle5-cat1.png,0.0,1.8598917,3.711017,-1.3089433
alexnet2023_baseline_pgd,1,440,NaN,bottle,bottle,NaN,bottle5-chair1.png,bottle5-chair1.png,1.0,5.396396,5.1748056,0.15668817
alexnet2023_baseline_pgd,1,441,NaN,bottle,bottle,NaN,bottle5-clock3.png,bottle5-clock3.png,1.0,4.45614,0.9056628,2.5105667
alexnet2023_baseline_pgd,1,442,NaN,elephant,bottle,NaN,bottle5-elephant1.png,bottle5-elephant1.png,0.0,-0.5957602,9.505112,-7.142395
alexnet2023_baseline_pgd,1,443,NaN,bottle,bottle,NaN,bottle5-keyboard2.png,bottle5-keyboard2.png,1.0,5.499226,4.6618996,0.5920793
alexnet2023_baseline_pgd,1,444,NaN,bottle,bottle,NaN,bottle5-knife1.png,bottle5-knife1.png,1.0,4.7356677,4.313347,0.29862595
alexnet2023_baseline_pgd,1,445,NaN,bottle,bottle,NaN,bottle5-oven2.png,bottle5-oven2.png,1.0,8.761576,5.5166144,2.2945342
alexnet2023_baseline_pgd,1,446,NaN,bottle,bottle,NaN,bottle5-truck1.png,bottle5-truck1.png,1.0,8.383941,2.8955097,3.8809068
alexnet2023_baseline_pgd,1,447,NaN,bottle,bottle,NaN,bottle6-airplane1.png,bottle6-airplane1.png,1.0,5.520435,3.7209954,1.2723958
alexnet2023_baseline_pgd,1,448,NaN,elephant,bottle,NaN,bottle6-bear2.png,bottle6-bear2.png,0.0,-0.15957448,9.6538725,-6.939155
alexnet2023_baseline_pgd,1,449,NaN,bottle,bottle,NaN,bottle6-bicycle3.png,bottle6-bicycle3.png,1.0,5.368804,3.1741798,1.5518336
alexnet2023_baseline_pgd,1,450,NaN,bear,bottle,NaN,bottle6-bird1.png,bottle6-bird1.png,0.0,0.68575543,2.9309344,-1.5875813
alexnet2023_baseline_pgd,1,451,NaN,clock,bottle,NaN,bottle6-boat3.png,bottle6-boat3.png,0.0,5.3627906,6.5493293,-0.8390096
alexnet2023_baseline_pgd,1,452,NaN,bottle,bottle,NaN,bottle6-bottle3.png,bottle6-bottle3.png,1.0,6.492875,4.1622343,1.6480119
alexnet2023_baseline_pgd,1,453,NaN,clock,bottle,NaN,bottle6-chair2.png,bottle6-chair2.png,0.0,7.2989106,9.440501,-1.5143332
alexnet2023_baseline_pgd,1,454,NaN,oven,bottle,NaN,bottle6-dog3.png,bottle6-dog3.png,0.0,1.7583777,5.694228,-2.7830667
alexnet2023_baseline_pgd,1,455,NaN,bottle,bottle,NaN,bottle6-knife3.png,bottle6-knife3.png,1.0,5.688787,3.437862,1.5916444
alexnet2023_baseline_pgd,1,456,NaN,bottle,bottle,NaN,bottle6-oven3.png,bottle6-oven3.png,1.0,8.255162,7.033937,0.86353666
alexnet2023_baseline_pgd,1,457,NaN,oven,bottle,NaN,bottle7-airplane3.png,bottle7-airplane3.png,0.0,2.136361,3.7262988,-1.1242559
alexnet2023_baseline_pgd,1,458,NaN,elephant,bottle,NaN,bottle7-bear1.png,bottle7-bear1.png,0.0,2.3594966,7.4851837,-3.6244082
alexnet2023_baseline_pgd,1,459,NaN,knife,bottle,NaN,bottle7-boat3.png,bottle7-boat3.png,0.0,1.8733872,3.3894832,-1.0720417
alexnet2023_baseline_pgd,1,460,NaN,cat,bottle,NaN,bottle7-cat2.png,bottle7-cat2.png,0.0,-1.0684428,6.739371,-5.520958
alexnet2023_baseline_pgd,1,461,NaN,knife,bottle,NaN,bottle7-clock1.png,bottle7-clock1.png,0.0,1.8542213,4.7770815,-2.0667744
alexnet2023_baseline_pgd,1,462,NaN,elephant,bottle,NaN,bottle7-elephant2.png,bottle7-elephant2.png,0.0,-0.78962433,15.5036545,-11.521089
alexnet2023_baseline_pgd,1,463,NaN,clock,bottle,NaN,bottle7-keyboard2.png,bottle7-keyboard2.png,0.0,5.0738807,5.199675,-0.08895008
alexnet2023_baseline_pgd,1,464,NaN,bottle,bottle,NaN,bottle7-oven2.png,bottle7-oven2.png,1.0,6.746787,6.709341,0.026478337
alexnet2023_baseline_pgd,1,465,NaN,oven,bottle,NaN,bottle7-truck2.png,bottle7-truck2.png,0.0,4.538927,5.3353586,-0.56316215
alexnet2023_baseline_pgd,1,466,NaN,bicycle,bottle,NaN,bottle8-bicycle1.png,bottle8-bicycle1.png,0.0,4.0280476,7.511583,-2.4632316
alexnet2023_baseline_pgd,1,467,NaN,bear,bottle,NaN,bottle8-bird1.png,bottle8-bird1.png,0.0,1.3391896,1.9968941,-0.4650673
alexnet2023_baseline_pgd,1,468,NaN,bottle,bottle,NaN,bottle8-bottle3.png,bottle8-bottle3.png,1.0,5.234616,3.9724762,0.89246744
alexnet2023_baseline_pgd,1,469,NaN,bottle,bottle,NaN,bottle8-dog2.png,bottle8-dog2.png,1.0,2.8757823,2.4051282,0.33280265
alexnet2023_baseline_pgd,1,470,NaN,elephant,bottle,NaN,bottle8-elephant3.png,bottle8-elephant3.png,0.0,1.0912071,8.3531,-5.134934
alexnet2023_baseline_pgd,1,471,NaN,bottle,bottle,NaN,bottle8-keyboard3.png,bottle8-keyboard3.png,1.0,6.2340636,3.3515308,2.0382586
alexnet2023_baseline_pgd,1,472,NaN,bottle,bottle,NaN,bottle8-knife1.png,bottle8-knife1.png,1.0,4.911709,4.8895135,0.015694475
alexnet2023_baseline_pgd,1,473,NaN,bicycle,bottle,NaN,bottle9-bicycle1.png,bottle9-bicycle1.png,0.0,2.0338027,3.7806215,-1.2351874
alexnet2023_baseline_pgd,1,474,NaN,clock,bottle,NaN,bottle9-bottle1.png,bottle9-bottle1.png,0.0,3.2196414,3.8446932,-0.44197834
alexnet2023_baseline_pgd,1,475,NaN,bottle,bottle,NaN,bottle9-car3.png,bottle9-car3.png,1.0,4.6007843,3.9651198,0.44948265
alexnet2023_baseline_pgd,1,476,NaN,cat,bottle,NaN,bottle9-cat2.png,bottle9-cat2.png,0.0,0.7112552,4.8703723,-2.9409401
alexnet2023_baseline_pgd,1,477,NaN,elephant,bottle,NaN,bottle9-elephant2.png,bottle9-elephant2.png,0.0,0.88875866,13.040176,-8.59235
alexnet2023_baseline_pgd,1,478,NaN,knife,bottle,NaN,bottle9-keyboard1.png,bottle9-keyboard1.png,0.0,2.5323975,3.8212128,-0.91133004
alexnet2023_baseline_pgd,1,479,NaN,oven,bottle,NaN,bottle9-oven2.png,bottle9-oven2.png,0.0,4.0543456,6.9034934,-2.0146518
alexnet2023_baseline_pgd,1,480,NaN,bottle,bottle,NaN,bottle9-truck1.png,bottle9-truck1.png,1.0,8.728208,4.622307,2.9033103
alexnet2023_baseline_pgd,1,481,NaN,airplane,car,NaN,car1-airplane1.png,car1-airplane1.png,0.0,4.3003874,4.6509085,-0.24785584
alexnet2023_baseline_pgd,1,482,NaN,car,car,NaN,car1-car2.png,car1-car2.png,1.0,3.6324856,2.8303053,0.5672271
alexnet2023_baseline_pgd,1,483,NaN,truck,car,NaN,car1-chair3.png,car1-chair3.png,0.0,2.0947876,5.7466607,-2.5822642
alexnet2023_baseline_pgd,1,484,NaN,car,car,NaN,car1-clock2.png,car1-clock2.png,1.0,7.1199017,6.7930474,0.23112084
alexnet2023_baseline_pgd,1,485,NaN,oven,car,NaN,car1-dog2.png,car1-dog2.png,0.0,-1.8590349,5.250601,-5.0272717
alexnet2023_baseline_pgd,1,486,NaN,car,car,NaN,car1-keyboard2.png,car1-keyboard2.png,1.0,11.578382,5.978809,3.9594958
alexnet2023_baseline_pgd,1,487,NaN,elephant,car,NaN,car1-oven3.png,car1-oven3.png,0.0,3.4709072,10.485287,-4.959915
alexnet2023_baseline_pgd,1,488,NaN,bicycle,car,NaN,car10-bicycle2.png,car10-bicycle2.png,0.0,1.3749046,4.3927174,-2.133916
alexnet2023_baseline_pgd,1,489,NaN,bicycle,car,NaN,car10-bottle3.png,car10-bottle3.png,0.0,0.53758615,4.2678976,-2.6377285
alexnet2023_baseline_pgd,1,490,NaN,car,car,NaN,car10-car1.png,car10-car1.png,1.0,12.849132,9.577776,2.3131979
alexnet2023_baseline_pgd,1,491,NaN,car,car,NaN,car10-chair1.png,car10-chair1.png,1.0,9.989162,8.7506895,0.8757326
alexnet2023_baseline_pgd,1,492,NaN,dog,car,NaN,car10-dog1.png,car10-dog1.png,0.0,-4.8868866,4.268083,-6.4735417
alexnet2023_baseline_pgd,1,493,NaN,elephant,car,NaN,car10-elephant2.png,car10-elephant2.png,0.0,-2.7347565,12.275042,-10.61353
alexnet2023_baseline_pgd,1,494,NaN,car,car,NaN,car10-keyboard2.png,car10-keyboard2.png,1.0,7.1690288,5.6935945,1.0432897
alexnet2023_baseline_pgd,1,495,NaN,oven,car,NaN,car2-bird3.png,car2-bird3.png,0.0,-0.17981161,5.8336687,-4.2521725
alexnet2023_baseline_pgd,1,496,NaN,car,car,NaN,car2-car3.png,car2-car3.png,1.0,6.1220737,5.027231,0.7741705
alexnet2023_baseline_pgd,1,497,NaN,oven,car,NaN,car2-cat3.png,car2-cat3.png,0.0,-4.809899,6.2449265,-7.8169417
alexnet2023_baseline_pgd,1,498,NaN,car,car,NaN,car2-chair1.png,car2-chair1.png,1.0,10.291527,6.3661623,2.775652
alexnet2023_baseline_pgd,1,499,NaN,elephant,car,NaN,car2-knife3.png,car2-knife3.png,0.0,0.6799221,5.233101,-3.2195837
alexnet2023_baseline_pgd,1,500,NaN,car,car,NaN,car3-airplane3.png,car3-airplane3.png,1.0,13.691266,7.636587,4.2813044
alexnet2023_baseline_pgd,1,501,NaN,car,car,NaN,car3-bird2.png,car3-bird2.png,1.0,3.6772945,3.091671,0.41409835
alexnet2023_baseline_pgd,1,502,NaN,car,car,NaN,car3-boat1.png,car3-boat1.png,1.0,11.737123,6.4004393,3.773605
alexnet2023_baseline_pgd,1,503,NaN,oven,car,NaN,car3-bottle3.png,car3-bottle3.png,0.0,-4.1661973,2.9404733,-5.025175
alexnet2023_baseline_pgd,1,504,NaN,elephant,car,NaN,car3-dog2.png,car3-dog2.png,0.0,-3.8692124,5.0398035,-6.2996254
alexnet2023_baseline_pgd,1,505,NaN,elephant,car,NaN,car3-elephant3.png,car3-elephant3.png,0.0,-0.69421154,8.120644,-6.233044
alexnet2023_baseline_pgd,1,506,NaN,truck,car,NaN,car3-oven3.png,car3-oven3.png,0.0,5.1614437,7.049256,-1.3348848
alexnet2023_baseline_pgd,1,507,NaN,car,car,NaN,car3-truck1.png,car3-truck1.png,1.0,12.339217,6.4318457,4.1771426
alexnet2023_baseline_pgd,1,508,NaN,bear,car,NaN,car4-bear3.png,car4-bear3.png,0.0,-6.0242023,5.1540203,-7.904197
alexnet2023_baseline_pgd,1,509,NaN,bicycle,car,NaN,car4-bicycle3.png,car4-bicycle3.png,0.0,-2.0907633,5.0677557,-5.061837
alexnet2023_baseline_pgd,1,510,NaN,bird,car,NaN,car4-bird1.png,car4-bird1.png,0.0,-1.0200601,3.2951934,-3.0513449
alexnet2023_baseline_pgd,1,511,NaN,car,car,NaN,car4-boat1.png,car4-boat1.png,1.0,7.9729743,6.535951,1.0161289
alexnet2023_baseline_pgd,1,512,NaN,clock,car,NaN,car4-bottle1.png,car4-bottle1.png,0.0,-2.687661,5.7496724,-5.9660954
alexnet2023_baseline_pgd,1,513,NaN,car,car,NaN,car4-car2.png,car4-car2.png,1.0,10.688764,6.6082125,2.8853855
alexnet2023_baseline_pgd,1,514,NaN,oven,car,NaN,car4-cat3.png,car4-cat3.png,0.0,-5.435552,4.1098814,-6.7496405
alexnet2023_baseline_pgd,1,515,NaN,oven,car,NaN,car4-clock1.png,car4-clock1.png,0.0,0.894924,2.9887736,-1.4805753
alexnet2023_baseline_pgd,1,516,NaN,elephant,car,NaN,car4-elephant3.png,car4-elephant3.png,0.0,-1.7445374,5.5171432,-5.1347837
alexnet2023_baseline_pgd,1,517,NaN,oven,car,NaN,car4-oven2.png,car4-oven2.png,0.0,7.8779106,9.046356,-0.8262158
alexnet2023_baseline_pgd,1,518,NaN,car,car,NaN,car5-airplane3.png,car5-airplane3.png,1.0,12.7001915,7.863911,3.4197667
alexnet2023_baseline_pgd,1,519,NaN,elephant,car,NaN,car5-bear3.png,car5-bear3.png,0.0,-4.727465,6.0366225,-7.6113596
alexnet2023_baseline_pgd,1,520,NaN,bicycle,car,NaN,car5-bottle1.png,car5-bottle1.png,0.0,-1.5948213,4.1269135,-4.0458775
alexnet2023_baseline_pgd,1,521,NaN,dog,car,NaN,car5-cat1.png,car5-cat1.png,0.0,-1.067676,5.272201,-4.48297
alexnet2023_baseline_pgd,1,522,NaN,car,car,NaN,car5-keyboard3.png,car5-keyboard3.png,1.0,4.400425,4.300031,0.07098912
alexnet2023_baseline_pgd,1,523,NaN,car,car,NaN,car5-knife2.png,car5-knife2.png,1.0,10.831058,7.8529906,2.1058114
alexnet2023_baseline_pgd,1,524,NaN,car,car,NaN,car5-oven2.png,car5-oven2.png,1.0,11.971911,9.745728,1.5741497
alexnet2023_baseline_pgd,1,525,NaN,car,car,NaN,car5-truck3.png,car5-truck3.png,1.0,13.464337,12.622988,0.59492403
alexnet2023_baseline_pgd,1,526,NaN,elephant,car,NaN,car6-bear1.png,car6-bear1.png,0.0,0.41375744,6.3016863,-4.1633945
alexnet2023_baseline_pgd,1,527,NaN,bicycle,car,NaN,car6-bicycle3.png,car6-bicycle3.png,0.0,2.2897637,4.7996726,-1.7747736
alexnet2023_baseline_pgd,1,528,NaN,car,car,NaN,car6-boat1.png,car6-boat1.png,1.0,3.8408718,3.4465451,0.27883106
alexnet2023_baseline_pgd,1,529,NaN,clock,car,NaN,car6-bottle1.png,car6-bottle1.png,0.0,-5.0897098,5.567503,-7.535788
alexnet2023_baseline_pgd,1,530,NaN,truck,car,NaN,car6-chair3.png,car6-chair3.png,0.0,0.9472449,3.432613,-1.7574207
alexnet2023_baseline_pgd,1,531,NaN,elephant,car,NaN,car6-elephant3.png,car6-elephant3.png,0.0,-1.8241768,7.5433373,-6.6238327
alexnet2023_baseline_pgd,1,532,NaN,knife,car,NaN,car6-knife1.png,car6-knife1.png,0.0,6.186066,6.996029,-0.5727302
alexnet2023_baseline_pgd,1,533,NaN,airplane,car,NaN,car6-truck3.png,car6-truck3.png,0.0,0.990695,4.204265,-2.2723372
alexnet2023_baseline_pgd,1,534,NaN,car,car,NaN,car7-airplane2.png,car7-airplane2.png,1.0,7.1590996,6.024969,0.80195135
alexnet2023_baseline_pgd,1,535,NaN,bear,car,NaN,car7-bear1.png,car7-bear1.png,0.0,-1.6464939,4.3775244,-4.2596245
alexnet2023_baseline_pgd,1,536,NaN,knife,car,NaN,car7-bird3.png,car7-bird3.png,0.0,-1.5950567,3.7067575,-3.7489488
alexnet2023_baseline_pgd,1,537,NaN,truck,car,NaN,car7-boat3.png,car7-boat3.png,0.0,6.1260204,6.3387985,-0.15045683
alexnet2023_baseline_pgd,1,538,NaN,car,car,NaN,car7-car1.png,car7-car1.png,1.0,7.7357216,5.0316,1.9121027
alexnet2023_baseline_pgd,1,539,NaN,oven,car,NaN,car7-clock1.png,car7-clock1.png,0.0,0.2556897,3.975211,-2.6300988
alexnet2023_baseline_pgd,1,540,NaN,dog,car,NaN,car7-dog3.png,car7-dog3.png,0.0,-4.477692,5.9286394,-7.358388
alexnet2023_baseline_pgd,1,541,NaN,elephant,car,NaN,car7-elephant3.png,car7-elephant3.png,0.0,-3.1334522,8.770848,-8.417612
alexnet2023_baseline_pgd,1,542,NaN,car,car,NaN,car7-keyboard3.png,car7-keyboard3.png,1.0,6.912323,3.4372396,2.4572551
alexnet2023_baseline_pgd,1,543,NaN,oven,car,NaN,car7-oven2.png,car7-oven2.png,0.0,5.6469383,7.207673,-1.1036061
alexnet2023_baseline_pgd,1,544,NaN,car,car,NaN,car8-airplane3.png,car8-airplane3.png,1.0,6.255485,1.7913907,3.1565914
alexnet2023_baseline_pgd,1,545,NaN,cat,car,NaN,car8-bear1.png,car8-bear1.png,0.0,-0.16689521,5.1738296,-3.7764628
alexnet2023_baseline_pgd,1,546,NaN,bicycle,car,NaN,car8-bicycle2.png,car8-bicycle2.png,0.0,-0.7069071,7.816556,-6.026999
alexnet2023_baseline_pgd,1,547,NaN,bicycle,car,NaN,car8-boat3.png,car8-boat3.png,0.0,8.834426,8.923494,-0.06298088
alexnet2023_baseline_pgd,1,548,NaN,dog,car,NaN,car8-cat1.png,car8-cat1.png,0.0,-0.8317984,4.5419126,-3.7997875
alexnet2023_baseline_pgd,1,549,NaN,car,car,NaN,car8-chair1.png,car8-chair1.png,1.0,14.151422,6.1807804,5.6360946
alexnet2023_baseline_pgd,1,550,NaN,car,car,NaN,car8-clock2.png,car8-clock2.png,1.0,5.707575,3.7817435,1.3617684
alexnet2023_baseline_pgd,1,551,NaN,dog,car,NaN,car8-dog1.png,car8-dog1.png,0.0,-2.9093072,2.5065002,-3.8295543
alexnet2023_baseline_pgd,1,552,NaN,knife,car,NaN,car8-knife2.png,car8-knife2.png,0.0,1.8416106,4.662861,-1.9949254
alexnet2023_baseline_pgd,1,553,NaN,car,car,NaN,car8-truck3.png,car8-truck3.png,1.0,8.0443535,5.4118986,1.8614267
alexnet2023_baseline_pgd,1,554,NaN,bicycle,car,NaN,car9-bicycle2.png,car9-bicycle2.png,0.0,3.5660636,6.208009,-1.8681374
alexnet2023_baseline_pgd,1,555,NaN,bear,car,NaN,car9-bird1.png,car9-bird1.png,0.0,-0.6743834,2.9447558,-2.5591178
alexnet2023_baseline_pgd,1,556,NaN,bear,car,NaN,car9-cat1.png,car9-cat1.png,0.0,-2.0109541,5.018907,-4.970863
alexnet2023_baseline_pgd,1,557,NaN,car,car,NaN,car9-clock2.png,car9-clock2.png,1.0,12.8522215,8.478285,3.0928404
alexnet2023_baseline_pgd,1,558,NaN,car,car,NaN,car9-keyboard2.png,car9-keyboard2.png,1.0,6.1436725,5.266492,0.62026036
alexnet2023_baseline_pgd,1,559,NaN,car,car,NaN,car9-knife1.png,car9-knife1.png,1.0,8.038452,6.2984276,1.2303832
alexnet2023_baseline_pgd,1,560,NaN,truck,car,NaN,car9-truck3.png,car9-truck3.png,0.0,5.11469,5.4956245,-0.26936153
alexnet2023_baseline_pgd,1,561,NaN,boat,cat,NaN,cat1-airplane1.png,cat1-airplane1.png,0.0,0.253063,3.130857,-2.0349078
alexnet2023_baseline_pgd,1,562,NaN,bird,cat,NaN,cat1-bird1.png,cat1-bird1.png,0.0,1.2895287,3.105478,-1.2840701
alexnet2023_baseline_pgd,1,563,NaN,boat,cat,NaN,cat1-boat1.png,cat1-boat1.png,0.0,0.7436529,4.431834,-2.607938
alexnet2023_baseline_pgd,1,564,NaN,knife,cat,NaN,cat1-car2.png,cat1-car2.png,0.0,2.6900084,3.2651396,-0.40667915
alexnet2023_baseline_pgd,1,565,NaN,cat,cat,NaN,cat1-cat3.png,cat1-cat3.png,1.0,6.0742226,3.7960162,1.6109352
alexnet2023_baseline_pgd,1,566,NaN,chair,cat,NaN,cat1-chair2.png,cat1-chair2.png,0.0,-1.9270253,8.375305,-7.2848477
alexnet2023_baseline_pgd,1,567,NaN,cat,cat,NaN,cat1-dog1.png,cat1-dog1.png,1.0,6.7802525,3.5557783,2.2800477
alexnet2023_baseline_pgd,1,568,NaN,knife,cat,NaN,cat1-keyboard3.png,cat1-keyboard3.png,0.0,-1.424445,4.477456,-4.1732745
alexnet2023_baseline_pgd,1,569,NaN,oven,cat,NaN,cat1-oven1.png,cat1-oven1.png,0.0,0.15960957,4.3815804,-2.985384
alexnet2023_baseline_pgd,1,570,NaN,elephant,cat,NaN,cat10-airplane3.png,cat10-airplane3.png,0.0,3.4945478,4.732476,-0.87534755
alexnet2023_baseline_pgd,1,571,NaN,cat,cat,NaN,cat10-bear1.png,cat10-bear1.png,1.0,6.8225384,5.4464855,0.9730163
alexnet2023_baseline_pgd,1,572,NaN,bicycle,cat,NaN,cat10-bicycle1.png,cat10-bicycle1.png,0.0,0.98596686,3.7819667,-1.9770705
alexnet2023_baseline_pgd,1,573,NaN,cat,cat,NaN,cat10-bird2.png,cat10-bird2.png,1.0,2.8187625,2.7773693,0.02926947
alexnet2023_baseline_pgd,1,574,NaN,knife,cat,NaN,cat10-bottle1.png,cat10-bottle1.png,0.0,-2.5070808,3.9766483,-4.584689
alexnet2023_baseline_pgd,1,575,NaN,oven,cat,NaN,cat10-clock1.png,cat10-clock1.png,0.0,1.5815319,7.2045007,-3.9760394
alexnet2023_baseline_pgd,1,576,NaN,elephant,cat,NaN,cat10-elephant3.png,cat10-elephant3.png,0.0,0.42171,7.0935354,-4.717693
alexnet2023_baseline_pgd,1,577,NaN,elephant,cat,NaN,cat10-keyboard1.png,cat10-keyboard1.png,0.0,1.2213919,6.6642723,-3.848698
alexnet2023_baseline_pgd,1,578,NaN,oven,cat,NaN,cat10-oven2.png,cat10-oven2.png,0.0,-1.3050288,5.0725174,-4.5096064
alexnet2023_baseline_pgd,1,579,NaN,bicycle,cat,NaN,cat2-boat2.png,cat2-boat2.png,0.0,1.0645542,3.1799693,-1.4958243
alexnet2023_baseline_pgd,1,580,NaN,knife,cat,NaN,cat2-bottle3.png,cat2-bottle3.png,0.0,2.2337627,3.014465,-0.5520399
alexnet2023_baseline_pgd,1,581,NaN,cat,cat,NaN,cat2-car3.png,cat2-car3.png,1.0,2.3283813,1.7072514,0.43920514
alexnet2023_baseline_pgd,1,582,NaN,cat,cat,NaN,cat2-cat1.png,cat2-cat1.png,1.0,8.331372,4.355013,2.8117108
alexnet2023_baseline_pgd,1,583,NaN,elephant,cat,NaN,cat2-elephant1.png,cat2-elephant1.png,0.0,1.0581709,11.376764,-7.296347
alexnet2023_baseline_pgd,1,584,NaN,knife,cat,NaN,cat2-knife3.png,cat2-knife3.png,0.0,-0.8708541,5.9150705,-4.798373
alexnet2023_baseline_pgd,1,585,NaN,knife,cat,NaN,cat2-truck3.png,cat2-truck3.png,0.0,-1.5227137,3.9475052,-3.8680289
alexnet2023_baseline_pgd,1,586,NaN,bear,cat,NaN,cat3-bear2.png,cat3-bear2.png,0.0,9.558091,10.155013,-0.42208755
alexnet2023_baseline_pgd,1,587,NaN,bicycle,cat,NaN,cat3-bicycle1.png,cat3-bicycle1.png,0.0,0.61396855,4.9080973,-3.0364077
alexnet2023_baseline_pgd,1,588,NaN,cat,cat,NaN,cat3-cat1.png,cat3-cat1.png,1.0,10.5350065,6.4759,2.8702216
alexnet2023_baseline_pgd,1,589,NaN,elephant,cat,NaN,cat3-elephant2.png,cat3-elephant2.png,0.0,2.5449042,9.683898,-5.048031
alexnet2023_baseline_pgd,1,590,NaN,oven,cat,NaN,cat3-oven2.png,cat3-oven2.png,0.0,-1.430941,5.3898497,-4.8230276
alexnet2023_baseline_pgd,1,591,NaN,truck,cat,NaN,cat3-truck3.png,cat3-truck3.png,0.0,-1.5259243,5.244073,-4.787111
alexnet2023_baseline_pgd,1,592,NaN,bird,cat,NaN,cat4-airplane1.png,cat4-airplane1.png,0.0,-0.73726577,3.8435273,-3.2391098
alexnet2023_baseline_pgd,1,593,NaN,cat,cat,NaN,cat4-bird2.png,cat4-bird2.png,1.0,2.60943,1.0701844,1.0884111
alexnet2023_baseline_pgd,1,594,NaN,bicycle,cat,NaN,cat4-car2.png,cat4-car2.png,0.0,-0.86551744,4.0125837,-3.4493387
alexnet2023_baseline_pgd,1,595,NaN,cat,cat,NaN,cat4-cat3.png,cat4-cat3.png,1.0,3.1904523,3.0848737,0.07465539
alexnet2023_baseline_pgd,1,596,NaN,chair,cat,NaN,cat4-chair2.png,cat4-chair2.png,0.0,-2.9721115,7.473768,-7.3863525
alexnet2023_baseline_pgd,1,597,NaN,clock,cat,NaN,cat4-clock2.png,cat4-clock2.png,0.0,-0.29204327,5.41727,-4.037094
alexnet2023_baseline_pgd,1,598,NaN,dog,cat,NaN,cat4-dog3.png,cat4-dog3.png,0.0,4.976221,6.329051,-0.95659524
alexnet2023_baseline_pgd,1,599,NaN,clock,cat,NaN,cat4-keyboard2.png,cat4-keyboard2.png,0.0,-1.597567,5.483543,-5.007101
alexnet2023_baseline_pgd,1,600,NaN,knife,cat,NaN,cat4-knife1.png,cat4-knife1.png,0.0,-1.567597,4.078965,-3.9927225
alexnet2023_baseline_pgd,1,601,NaN,oven,cat,NaN,cat4-oven1.png,cat4-oven1.png,0.0,-0.816499,5.2982006,-4.3237453
alexnet2023_baseline_pgd,1,602,NaN,oven,cat,NaN,cat4-truck3.png,cat4-truck3.png,0.0,-4.234529,5.6217613,-6.96945
alexnet2023_baseline_pgd,1,603,NaN,airplane,cat,NaN,cat5-airplane2.png,cat5-airplane2.png,0.0,-0.87100536,5.4375515,-4.4608235
alexnet2023_baseline_pgd,1,604,NaN,elephant,cat,NaN,cat5-bear2.png,cat5-bear2.png,0.0,6.7506847,11.410614,-3.2950675
alexnet2023_baseline_pgd,1,605,NaN,knife,cat,NaN,cat5-bicycle3.png,cat5-bicycle3.png,0.0,3.3006613,4.304535,-0.70984584
alexnet2023_baseline_pgd,1,606,NaN,knife,cat,NaN,cat5-boat1.png,cat5-boat1.png,0.0,3.2462742,3.393024,-0.10376774
alexnet2023_baseline_pgd,1,607,NaN,bicycle,cat,NaN,cat5-bottle1.png,cat5-bottle1.png,0.0,-2.3257594,4.149231,-4.57851
alexnet2023_baseline_pgd,1,608,NaN,cat,cat,NaN,cat5-car2.png,cat5-car2.png,1.0,3.4954987,2.8470154,0.45854694
alexnet2023_baseline_pgd,1,609,NaN,chair,cat,NaN,cat5-chair3.png,cat5-chair3.png,0.0,0.71983653,3.204435,-1.7568766
alexnet2023_baseline_pgd,1,610,NaN,cat,cat,NaN,cat5-dog3.png,cat5-dog3.png,1.0,7.9557853,6.372325,1.1196755
alexnet2023_baseline_pgd,1,611,NaN,elephant,cat,NaN,cat5-elephant2.png,cat5-elephant2.png,0.0,1.9726954,10.192443,-5.812239
alexnet2023_baseline_pgd,1,612,NaN,knife,cat,NaN,cat5-keyboard3.png,cat5-keyboard3.png,0.0,-1.1967698,5.4568644,-4.7048297
alexnet2023_baseline_pgd,1,613,NaN,knife,cat,NaN,cat5-knife2.png,cat5-knife2.png,0.0,-3.2702675,8.193564,-8.1061535
alexnet2023_baseline_pgd,1,614,NaN,cat,cat,NaN,cat6-bear1.png,cat6-bear1.png,1.0,7.466619,6.9311886,0.3786065
alexnet2023_baseline_pgd,1,615,NaN,airplane,cat,NaN,cat6-chair3.png,cat6-chair3.png,0.0,-0.56796414,4.8770537,-3.850209
alexnet2023_baseline_pgd,1,616,NaN,cat,cat,NaN,cat6-clock3.png,cat6-clock3.png,1.0,4.073145,2.2106159,1.317007
alexnet2023_baseline_pgd,1,617,NaN,knife,cat,NaN,cat6-keyboard3.png,cat6-keyboard3.png,0.0,-1.4547669,5.1470766,-4.668208
alexnet2023_baseline_pgd,1,618,NaN,knife,cat,NaN,cat6-oven1.png,cat6-oven1.png,0.0,-0.6783447,6.014634,-4.7326508
alexnet2023_baseline_pgd,1,619,NaN,airplane,cat,NaN,cat7-airplane2.png,cat7-airplane2.png,0.0,-3.0916157,8.726765,-8.356857
alexnet2023_baseline_pgd,1,620,NaN,knife,cat,NaN,cat7-boat3.png,cat7-boat3.png,0.0,1.4118086,4.4267497,-2.1318855
alexnet2023_baseline_pgd,1,621,NaN,clock,cat,NaN,cat7-bottle1.png,cat7-bottle1.png,0.0,-1.591505,4.201443,-4.096233
alexnet2023_baseline_pgd,1,622,NaN,cat,cat,NaN,cat7-clock3.png,cat7-clock3.png,1.0,2.86102,2.076119,0.55500895
alexnet2023_baseline_pgd,1,623,NaN,cat,cat,NaN,cat7-dog3.png,cat7-dog3.png,1.0,8.623288,7.5033216,0.7919359
alexnet2023_baseline_pgd,1,624,NaN,elephant,cat,NaN,cat7-elephant1.png,cat7-elephant1.png,0.0,0.8750599,7.917554,-4.9797955
alexnet2023_baseline_pgd,1,625,NaN,knife,cat,NaN,cat7-knife2.png,cat7-knife2.png,0.0,-3.9687726,7.945944,-8.424977
alexnet2023_baseline_pgd,1,626,NaN,chair,cat,NaN,cat7-truck2.png,cat7-truck2.png,0.0,-0.72351676,3.7558205,-3.1673698
alexnet2023_baseline_pgd,1,627,NaN,cat,cat,NaN,cat8-bear1.png,cat8-bear1.png,1.0,5.2466846,4.518572,0.5148534
alexnet2023_baseline_pgd,1,628,NaN,knife,cat,NaN,cat8-bicycle3.png,cat8-bicycle3.png,0.0,1.7065248,1.9291416,-0.15741384
alexnet2023_baseline_pgd,1,629,NaN,bird,cat,NaN,cat8-bird2.png,cat8-bird2.png,0.0,1.7606851,2.202604,-0.3124839
alexnet2023_baseline_pgd,1,630,NaN,knife,cat,NaN,cat8-car2.png,cat8-car2.png,0.0,-0.1418602,5.08943,-3.6990807
alexnet2023_baseline_pgd,1,631,NaN,bicycle,cat,NaN,cat9-bicycle1.png,cat9-bicycle1.png,0.0,-2.384727,4.352141,-4.763685
alexnet2023_baseline_pgd,1,632,NaN,elephant,cat,NaN,cat9-bird3.png,cat9-bird3.png,0.0,2.0804324,3.8370605,-1.2421236
alexnet2023_baseline_pgd,1,633,NaN,bicycle,cat,NaN,cat9-boat2.png,cat9-boat2.png,0.0,-2.7049417,5.427786,-5.750707
alexnet2023_baseline_pgd,1,634,NaN,bottle,cat,NaN,cat9-bottle2.png,cat9-bottle2.png,0.0,-3.7709124,5.3783274,-6.4694896
alexnet2023_baseline_pgd,1,635,NaN,oven,cat,NaN,cat9-cat3.png,cat9-cat3.png,0.0,2.7636807,3.2503633,-0.3441366
alexnet2023_baseline_pgd,1,636,NaN,chair,cat,NaN,cat9-chair2.png,cat9-chair2.png,0.0,-4.05722,4.8669944,-6.310373
alexnet2023_baseline_pgd,1,637,NaN,bottle,cat,NaN,cat9-clock2.png,cat9-clock2.png,0.0,-0.40184844,2.0230966,-1.714695
alexnet2023_baseline_pgd,1,638,NaN,dog,cat,NaN,cat9-dog2.png,cat9-dog2.png,0.0,4.250933,4.2757297,-0.017533764
alexnet2023_baseline_pgd,1,639,NaN,oven,cat,NaN,cat9-knife2.png,cat9-knife2.png,0.0,-4.2190166,5.4051957,-6.805346
alexnet2023_baseline_pgd,1,640,NaN,car,cat,NaN,cat9-truck1.png,cat9-truck1.png,0.0,-2.7466602,6.7198586,-6.6938396
alexnet2023_baseline_pgd,1,641,NaN,airplane,chair,NaN,chair1-airplane2.png,chair1-airplane2.png,0.0,5.09915,5.9657965,-0.6128115
alexnet2023_baseline_pgd,1,642,NaN,elephant,chair,NaN,chair1-bear1.png,chair1-bear1.png,0.0,-1.6222659,5.996258,-5.3871098
alexnet2023_baseline_pgd,1,643,NaN,oven,chair,NaN,chair1-cat3.png,chair1-cat3.png,0.0,-1.8127522,4.810403,-4.683278
alexnet2023_baseline_pgd,1,644,NaN,chair,chair,NaN,chair1-chair1.png,chair1-chair1.png,1.0,7.5912647,1.7500854,4.1303377
alexnet2023_baseline_pgd,1,645,NaN,knife,chair,NaN,chair1-clock2.png,chair1-clock2.png,0.0,3.2735136,3.7261186,-0.32004008
alexnet2023_baseline_pgd,1,646,NaN,dog,chair,NaN,chair1-dog1.png,chair1-dog1.png,0.0,-3.1041389,3.2849946,-4.5178
alexnet2023_baseline_pgd,1,647,NaN,elephant,chair,NaN,chair1-elephant1.png,chair1-elephant1.png,0.0,0.25188303,6.055588,-4.103839
alexnet2023_baseline_pgd,1,648,NaN,chair,chair,NaN,chair1-oven3.png,chair1-oven3.png,1.0,6.2803884,5.785166,0.35017523
alexnet2023_baseline_pgd,1,649,NaN,knife,chair,NaN,chair1-truck3.png,chair1-truck3.png,0.0,4.125915,5.9616337,-1.2980491
alexnet2023_baseline_pgd,1,650,NaN,knife,chair,NaN,chair10-airplane2.png,chair10-airplane2.png,0.0,5.533406,6.7366886,-0.85084945
alexnet2023_baseline_pgd,1,651,NaN,bicycle,chair,NaN,chair10-bicycle1.png,chair10-bicycle1.png,0.0,-0.47256917,5.6897,-4.3573823
alexnet2023_baseline_pgd,1,652,NaN,oven,chair,NaN,chair10-bird3.png,chair10-bird3.png,0.0,6.5356426,10.752872,-2.9820318
alexnet2023_baseline_pgd,1,653,NaN,knife,chair,NaN,chair10-bottle3.png,chair10-bottle3.png,0.0,3.0342512,4.8606524,-1.2914608
alexnet2023_baseline_pgd,1,654,NaN,bicycle,chair,NaN,chair10-car2.png,chair10-car2.png,0.0,2.312253,5.487128,-2.2449756
alexnet2023_baseline_pgd,1,655,NaN,dog,chair,NaN,chair10-cat1.png,chair10-cat1.png,0.0,-1.489991,5.346323,-4.8340044
alexnet2023_baseline_pgd,1,656,NaN,oven,chair,NaN,chair10-clock1.png,chair10-clock1.png,0.0,4.266178,7.723403,-2.4446273
alexnet2023_baseline_pgd,1,657,NaN,dog,chair,NaN,chair10-dog1.png,chair10-dog1.png,0.0,-1.1195577,3.527871,-3.2862282
alexnet2023_baseline_pgd,1,658,NaN,oven,chair,NaN,chair10-oven1.png,chair10-oven1.png,0.0,4.284904,10.220202,-4.19689
alexnet2023_baseline_pgd,1,659,NaN,elephant,chair,NaN,chair2-bear2.png,chair2-bear2.png,0.0,-0.5045869,9.504567,-7.077541
alexnet2023_baseline_pgd,1,660,NaN,oven,chair,NaN,chair2-boat1.png,chair2-boat1.png,0.0,2.8291647,3.5457404,-0.5066955
alexnet2023_baseline_pgd,1,661,NaN,knife,chair,NaN,chair2-keyboard2.png,chair2-keyboard2.png,0.0,2.95097,4.80412,-1.3103751
alexnet2023_baseline_pgd,1,662,NaN,oven,chair,NaN,chair2-knife1.png,chair2-knife1.png,0.0,5.856234,6.2869964,-0.30459493
alexnet2023_baseline_pgd,1,663,NaN,airplane,chair,NaN,chair3-airplane2.png,chair3-airplane2.png,0.0,4.5149746,6.879945,-1.6722865
alexnet2023_baseline_pgd,1,664,NaN,bicycle,chair,NaN,chair3-bicycle3.png,chair3-bicycle3.png,0.0,4.488508,5.759018,-0.89838606
alexnet2023_baseline_pgd,1,665,NaN,chair,chair,NaN,chair3-bottle3.png,chair3-bottle3.png,1.0,1.9797331,1.7277764,0.1781603
alexnet2023_baseline_pgd,1,666,NaN,oven,chair,NaN,chair3-car3.png,chair3-car3.png,0.0,4.7275524,6.459062,-1.2243623
alexnet2023_baseline_pgd,1,667,NaN,cat,chair,NaN,chair3-dog2.png,chair3-dog2.png,0.0,-1.6557674,3.4637003,-3.6200104
alexnet2023_baseline_pgd,1,668,NaN,oven,chair,NaN,chair3-knife1.png,chair3-knife1.png,0.0,5.089493,7.190936,-1.4859449
alexnet2023_baseline_pgd,1,669,NaN,elephant,chair,NaN,chair4-bear2.png,chair4-bear2.png,0.0,-2.7365487,8.441188,-7.9038534
alexnet2023_baseline_pgd,1,670,NaN,cat,chair,NaN,chair4-cat2.png,chair4-cat2.png,0.0,-2.5338738,7.2686524,-6.931433
alexnet2023_baseline_pgd,1,671,NaN,chair,chair,NaN,chair4-chair3.png,chair4-chair3.png,1.0,8.221829,4.037234,2.958956
alexnet2023_baseline_pgd,1,672,NaN,clock,chair,NaN,chair4-keyboard2.png,chair4-keyboard2.png,0.0,2.19904,5.51092,-2.341853
alexnet2023_baseline_pgd,1,673,NaN,chair,chair,NaN,chair4-oven2.png,chair4-oven2.png,1.0,5.952468,4.6652837,0.9101767
alexnet2023_baseline_pgd,1,674,NaN,chair,chair,NaN,chair4-truck2.png,chair4-truck2.png,1.0,6.225893,3.8876052,1.6534193
alexnet2023_baseline_pgd,1,675,NaN,bicycle,chair,NaN,chair5-bicycle1.png,chair5-bicycle1.png,0.0,2.6233368,11.206689,-6.0693464
alexnet2023_baseline_pgd,1,676,NaN,bear,chair,NaN,chair5-bird1.png,chair5-bird1.png,0.0,-2.8412762,3.240481,-4.3004518
alexnet2023_baseline_pgd,1,677,NaN,chair,chair,NaN,chair5-boat3.png,chair5-boat3.png,1.0,7.833225,3.5827696,3.0055256
alexnet2023_baseline_pgd,1,678,NaN,bicycle,chair,NaN,chair5-bottle3.png,chair5-bottle3.png,0.0,1.7570353,3.78716,-1.4355149
alexnet2023_baseline_pgd,1,679,NaN,bicycle,chair,NaN,chair5-car1.png,chair5-car1.png,0.0,4.5365167,5.907357,-0.96933067
alexnet2023_baseline_pgd,1,680,NaN,oven,chair,NaN,chair5-cat3.png,chair5-cat3.png,0.0,-1.1072382,3.6332726,-3.3520474
alexnet2023_baseline_pgd,1,681,NaN,chair,chair,NaN,chair5-clock2.png,chair5-clock2.png,1.0,7.8919744,5.9273663,1.3891878
alexnet2023_baseline_pgd,1,682,NaN,bicycle,chair,NaN,chair5-keyboard2.png,chair5-keyboard2.png,0.0,2.96968,5.0856,-1.4961812
alexnet2023_baseline_pgd,1,683,NaN,knife,chair,NaN,chair5-knife3.png,chair5-knife3.png,0.0,0.10796878,5.1649,-3.5757902
alexnet2023_baseline_pgd,1,684,NaN,oven,chair,NaN,chair5-oven2.png,chair5-oven2.png,0.0,4.7737684,7.836153,-2.165433
alexnet2023_baseline_pgd,1,685,NaN,chair,chair,NaN,chair5-truck3.png,chair5-truck3.png,1.0,5.0141287,3.9122677,0.7791334
alexnet2023_baseline_pgd,1,686,NaN,knife,chair,NaN,chair6-bird2.png,chair6-bird2.png,0.0,0.46636748,2.916748,-1.7326808
alexnet2023_baseline_pgd,1,687,NaN,cat,chair,NaN,chair6-dog1.png,chair6-dog1.png,0.0,-1.6579585,4.258756,-4.183749
alexnet2023_baseline_pgd,1,688,NaN,elephant,chair,NaN,chair6-elephant2.png,chair6-elephant2.png,0.0,-0.82681984,10.684601,-8.139804
alexnet2023_baseline_pgd,1,689,NaN,car,chair,NaN,chair6-truck2.png,chair6-truck2.png,0.0,4.5430017,6.449671,-1.3482187
alexnet2023_baseline_pgd,1,690,NaN,oven,chair,NaN,chair7-airplane1.png,chair7-airplane1.png,0.0,3.7175791,5.846737,-1.5055419
alexnet2023_baseline_pgd,1,691,NaN,oven,chair,NaN,chair7-bird1.png,chair7-bird1.png,0.0,-1.5729945,2.9453669,-3.194964
alexnet2023_baseline_pgd,1,692,NaN,chair,chair,NaN,chair7-boat3.png,chair7-boat3.png,1.0,7.0538096,3.4164367,2.5720112
alexnet2023_baseline_pgd,1,693,NaN,bicycle,chair,NaN,chair7-bottle1.png,chair7-bottle1.png,0.0,4.4003267,4.5250835,-0.08821639
alexnet2023_baseline_pgd,1,694,NaN,bicycle,chair,NaN,chair7-car2.png,chair7-car2.png,0.0,3.4247453,3.5403075,-0.08171482
alexnet2023_baseline_pgd,1,695,NaN,chair,chair,NaN,chair7-cat1.png,chair7-cat1.png,1.0,3.8580976,3.7393377,0.08397591
alexnet2023_baseline_pgd,1,696,NaN,chair,chair,NaN,chair7-chair1.png,chair7-chair1.png,1.0,7.677503,5.0319095,1.8707173
alexnet2023_baseline_pgd,1,697,NaN,chair,chair,NaN,chair7-clock3.png,chair7-clock3.png,1.0,7.512275,5.2576737,1.594244
alexnet2023_baseline_pgd,1,698,NaN,elephant,chair,NaN,chair7-elephant1.png,chair7-elephant1.png,0.0,1.8515565,6.985636,-3.6303427
alexnet2023_baseline_pgd,1,699,NaN,oven,chair,NaN,chair7-knife2.png,chair7-knife2.png,0.0,1.8066959,7.477421,-4.009808
alexnet2023_baseline_pgd,1,700,NaN,oven,chair,NaN,chair7-truck3.png,chair7-truck3.png,0.0,5.1452694,6.2868996,-0.80725443
alexnet2023_baseline_pgd,1,701,NaN,oven,chair,NaN,chair8-airplane1.png,chair8-airplane1.png,0.0,3.4438224,4.548853,-0.7813746
alexnet2023_baseline_pgd,1,702,NaN,elephant,chair,NaN,chair8-bear1.png,chair8-bear1.png,0.0,1.4625099,3.9948192,-1.790613
alexnet2023_baseline_pgd,1,703,NaN,bottle,chair,NaN,chair8-bicycle3.png,chair8-bicycle3.png,0.0,2.96032,3.4342163,-0.33509526
alexnet2023_baseline_pgd,1,704,NaN,knife,chair,NaN,chair8-boat1.png,chair8-boat1.png,0.0,2.7312322,6.5994654,-2.735254
alexnet2023_baseline_pgd,1,705,NaN,bicycle,chair,NaN,chair8-car1.png,chair8-car1.png,0.0,3.7631135,4.3891563,-0.44267914
alexnet2023_baseline_pgd,1,706,NaN,chair,chair,NaN,chair8-chair3.png,chair8-chair3.png,1.0,8.186404,3.2625465,3.4816933
alexnet2023_baseline_pgd,1,707,NaN,chair,chair,NaN,chair8-clock3.png,chair8-clock3.png,1.0,3.920591,3.0368993,0.62486446
alexnet2023_baseline_pgd,1,708,NaN,elephant,chair,NaN,chair8-elephant1.png,chair8-elephant1.png,0.0,-0.30483896,6.815132,-5.03458
alexnet2023_baseline_pgd,1,709,NaN,bear,chair,NaN,chair8-keyboard3.png,chair8-keyboard3.png,0.0,-2.0861635,1.5735736,-2.587825
alexnet2023_baseline_pgd,1,710,NaN,oven,chair,NaN,chair8-knife2.png,chair8-knife2.png,0.0,1.8518431,11.297863,-6.679345
alexnet2023_baseline_pgd,1,711,NaN,chair,chair,NaN,chair8-oven1.png,chair8-oven1.png,1.0,7.42828,7.0028267,0.30084082
alexnet2023_baseline_pgd,1,712,NaN,bear,chair,NaN,chair9-bear1.png,chair9-bear1.png,0.0,0.22827733,3.733408,-2.4785018
alexnet2023_baseline_pgd,1,713,NaN,bicycle,chair,NaN,chair9-bicycle3.png,chair9-bicycle3.png,0.0,4.027893,4.248881,-0.15626197
alexnet2023_baseline_pgd,1,714,NaN,oven,chair,NaN,chair9-bird3.png,chair9-bird3.png,0.0,2.7497232,7.347556,-3.2511587
alexnet2023_baseline_pgd,1,715,NaN,oven,chair,NaN,chair9-boat2.png,chair9-boat2.png,0.0,3.871492,8.478132,-3.2573867
alexnet2023_baseline_pgd,1,716,NaN,knife,chair,NaN,chair9-bottle3.png,chair9-bottle3.png,0.0,0.59195316,4.1227674,-2.4966626
alexnet2023_baseline_pgd,1,717,NaN,chair,chair,NaN,chair9-chair3.png,chair9-chair3.png,1.0,7.370907,6.9482775,0.2988441
alexnet2023_baseline_pgd,1,718,NaN,oven,chair,NaN,chair9-dog2.png,chair9-dog2.png,0.0,-1.2087088,3.0948572,-3.0430808
alexnet2023_baseline_pgd,1,719,NaN,elephant,chair,NaN,chair9-elephant1.png,chair9-elephant1.png,0.0,1.209476,5.2217445,-2.8371024
alexnet2023_baseline_pgd,1,720,NaN,clock,chair,NaN,chair9-keyboard2.png,chair9-keyboard2.png,0.0,2.5666528,6.4567285,-2.750699
alexnet2023_baseline_pgd,1,721,NaN,elephant,clock,NaN,clock1-bear1.png,clock1-bear1.png,0.0,-3.1911685,6.146041,-6.6024046
alexnet2023_baseline_pgd,1,722,NaN,knife,clock,NaN,clock1-boat3.png,clock1-boat3.png,0.0,2.2773526,3.2886653,-0.71510607
alexnet2023_baseline_pgd,1,723,NaN,bicycle,clock,NaN,clock1-car1.png,clock1-car1.png,0.0,1.0394242,4.339099,-2.3332224
alexnet2023_baseline_pgd,1,724,NaN,clock,clock,NaN,clock1-clock2.png,clock1-clock2.png,1.0,4.4763246,3.922494,0.3916174
alexnet2023_baseline_pgd,1,725,NaN,oven,clock,NaN,clock1-dog2.png,clock1-dog2.png,0.0,0.13196786,4.56648,-3.1356738
alexnet2023_baseline_pgd,1,726,NaN,elephant,clock,NaN,clock1-elephant2.png,clock1-elephant2.png,0.0,-0.19626546,12.600691,-9.048815
alexnet2023_baseline_pgd,1,727,NaN,knife,clock,NaN,clock1-truck3.png,clock1-truck3.png,0.0,1.0927306,5.566128,-3.1631696
alexnet2023_baseline_pgd,1,728,NaN,clock,clock,NaN,clock10-airplane1.png,clock10-airplane1.png,1.0,6.2530684,4.3139315,1.371177
alexnet2023_baseline_pgd,1,729,NaN,clock,clock,NaN,clock10-bird3.png,clock10-bird3.png,1.0,6.6912594,4.2273684,1.7422341
alexnet2023_baseline_pgd,1,730,NaN,clock,clock,NaN,clock10-boat2.png,clock10-boat2.png,1.0,7.3819466,7.090581,0.20602661
alexnet2023_baseline_pgd,1,731,NaN,clock,clock,NaN,clock10-bottle1.png,clock10-bottle1.png,1.0,5.8544083,3.7527661,1.4860854
alexnet2023_baseline_pgd,1,732,NaN,bottle,clock,NaN,clock10-cat1.png,clock10-cat1.png,0.0,0.3546475,3.0938656,-1.9369198
alexnet2023_baseline_pgd,1,733,NaN,clock,clock,NaN,clock10-clock3.png,clock10-clock3.png,1.0,10.730947,5.4242687,3.752388
alexnet2023_baseline_pgd,1,734,NaN,dog,clock,NaN,clock10-dog3.png,clock10-dog3.png,0.0,1.4485207,2.2428257,-0.5616585
alexnet2023_baseline_pgd,1,735,NaN,elephant,clock,NaN,clock10-knife3.png,clock10-knife3.png,0.0,0.6147727,4.3032126,-2.608121
alexnet2023_baseline_pgd,1,736,NaN,clock,clock,NaN,clock10-oven2.png,clock10-oven2.png,1.0,5.510779,5.380755,0.09194082
alexnet2023_baseline_pgd,1,737,NaN,bottle,clock,NaN,clock10-truck2.png,clock10-truck2.png,0.0,2.0436468,4.7103677,-1.8856565
alexnet2023_baseline_pgd,1,738,NaN,elephant,clock,NaN,clock2-bear2.png,clock2-bear2.png,0.0,3.0207608,4.981752,-1.3866302
alexnet2023_baseline_pgd,1,739,NaN,clock,clock,NaN,clock2-bicycle1.png,clock2-bicycle1.png,1.0,11.3404665,7.955946,2.3932176
alexnet2023_baseline_pgd,1,740,NaN,clock,clock,NaN,clock2-bottle3.png,clock2-bottle3.png,1.0,14.45967,5.2030873,6.545392
alexnet2023_baseline_pgd,1,741,NaN,clock,clock,NaN,clock2-clock3.png,clock2-clock3.png,1.0,12.494998,3.7929235,6.1532955
alexnet2023_baseline_pgd,1,742,NaN,clock,clock,NaN,clock2-dog1.png,clock2-dog1.png,1.0,2.7547638,2.1098266,0.45603952
alexnet2023_baseline_pgd,1,743,NaN,elephant,clock,NaN,clock2-elephant2.png,clock2-elephant2.png,0.0,2.792118,9.434514,-4.696883
alexnet2023_baseline_pgd,1,744,NaN,clock,clock,NaN,clock2-knife1.png,clock2-knife1.png,1.0,7.664722,4.944445,1.9235263
alexnet2023_baseline_pgd,1,745,NaN,elephant,clock,NaN,clock3-bear3.png,clock3-bear3.png,0.0,3.1093438,4.130323,-0.7219413
alexnet2023_baseline_pgd,1,746,NaN,bicycle,clock,NaN,clock3-bicycle2.png,clock3-bicycle2.png,0.0,6.0983787,6.6920986,-0.4198234
alexnet2023_baseline_pgd,1,747,NaN,bottle,clock,NaN,clock3-bird1.png,clock3-bird1.png,0.0,1.5890592,4.136085,-1.8010192
alexnet2023_baseline_pgd,1,748,NaN,bicycle,clock,NaN,clock3-car2.png,clock3-car2.png,0.0,8.507659,9.438314,-0.6580728
alexnet2023_baseline_pgd,1,749,NaN,clock,clock,NaN,clock3-cat1.png,clock3-cat1.png,1.0,4.4441752,4.160338,0.2007033
alexnet2023_baseline_pgd,1,750,NaN,bottle,clock,NaN,clock3-dog2.png,clock3-dog2.png,0.0,4.040571,4.563933,-0.3700726
alexnet2023_baseline_pgd,1,751,NaN,elephant,clock,NaN,clock3-elephant3.png,clock3-elephant3.png,0.0,3.8039014,6.2360353,-1.7197784
alexnet2023_baseline_pgd,1,752,NaN,bottle,clock,NaN,clock3-keyboard3.png,clock3-keyboard3.png,0.0,6.8415923,6.969245,-0.09026405
alexnet2023_baseline_pgd,1,753,NaN,clock,clock,NaN,clock4-airplane1.png,clock4-airplane1.png,1.0,9.068261,4.1868024,3.4517126
alexnet2023_baseline_pgd,1,754,NaN,clock,clock,NaN,clock4-bird3.png,clock4-bird3.png,1.0,7.757471,2.5505185,3.6818717
alexnet2023_baseline_pgd,1,755,NaN,clock,clock,NaN,clock4-boat3.png,clock4-boat3.png,1.0,3.9811516,2.234146,1.2353194
alexnet2023_baseline_pgd,1,756,NaN,clock,clock,NaN,clock4-bottle3.png,clock4-bottle3.png,1.0,6.849457,4.3675733,1.7549567
alexnet2023_baseline_pgd,1,757,NaN,car,clock,NaN,clock4-car2.png,clock4-car2.png,0.0,4.7376304,6.8565674,-1.4983147
alexnet2023_baseline_pgd,1,758,NaN,clock,clock,NaN,clock4-chair1.png,clock4-chair1.png,1.0,8.629117,3.6813958,3.4985676
alexnet2023_baseline_pgd,1,759,NaN,elephant,clock,NaN,clock4-elephant2.png,clock4-elephant2.png,0.0,-1.3014351,13.708848,-10.6138735
alexnet2023_baseline_pgd,1,760,NaN,knife,clock,NaN,clock4-knife1.png,clock4-knife1.png,0.0,3.4142392,4.8375416,-1.0064268
alexnet2023_baseline_pgd,1,761,NaN,car,clock,NaN,clock4-oven1.png,clock4-oven1.png,0.0,5.6872315,6.1288915,-0.31230074
alexnet2023_baseline_pgd,1,762,NaN,clock,clock,NaN,clock5-airplane1.png,clock5-airplane1.png,1.0,12.626133,4.269225,5.9092264
alexnet2023_baseline_pgd,1,763,NaN,clock,clock,NaN,clock5-bicycle1.png,clock5-bicycle1.png,1.0,9.423963,9.0197735,0.28580487
alexnet2023_baseline_pgd,1,764,NaN,clock,clock,NaN,clock5-chair3.png,clock5-chair3.png,1.0,9.367528,4.3631153,3.538654
alexnet2023_baseline_pgd,1,765,NaN,clock,clock,NaN,clock5-clock2.png,clock5-clock2.png,1.0,17.91065,5.8719063,8.512677
alexnet2023_baseline_pgd,1,766,NaN,elephant,clock,NaN,clock5-elephant2.png,clock5-elephant2.png,0.0,1.4197448,10.5881,-6.483007
alexnet2023_baseline_pgd,1,767,NaN,clock,clock,NaN,clock5-keyboard1.png,clock5-keyboard1.png,1.0,8.901378,4.0328784,3.442549
alexnet2023_baseline_pgd,1,768,NaN,oven,clock,NaN,clock5-oven1.png,clock5-oven1.png,0.0,8.099671,8.521287,-0.29812726
alexnet2023_baseline_pgd,1,769,NaN,clock,clock,NaN,clock6-bicycle1.png,clock6-bicycle1.png,1.0,10.465458,8.150313,1.6370544
alexnet2023_baseline_pgd,1,770,NaN,clock,clock,NaN,clock6-bird3.png,clock6-bird3.png,1.0,12.129216,2.8949046,6.529645
alexnet2023_baseline_pgd,1,771,NaN,clock,clock,NaN,clock6-bottle1.png,clock6-bottle1.png,1.0,10.068712,5.4842596,3.2416975
alexnet2023_baseline_pgd,1,772,NaN,car,clock,NaN,clock6-car2.png,clock6-car2.png,0.0,6.1284738,6.2669983,-0.097951636
alexnet2023_baseline_pgd,1,773,NaN,clock,clock,NaN,clock6-chair3.png,clock6-chair3.png,1.0,6.99153,3.998014,2.1167355
alexnet2023_baseline_pgd,1,774,NaN,clock,clock,NaN,clock6-clock2.png,clock6-clock2.png,1.0,13.179527,2.692288,7.4155984
alexnet2023_baseline_pgd,1,775,NaN,clock,clock,NaN,clock6-knife2.png,clock6-knife2.png,1.0,6.2143536,5.449145,0.5410843
alexnet2023_baseline_pgd,1,776,NaN,oven,clock,NaN,clock6-oven1.png,clock6-oven1.png,0.0,6.0230794,9.2872305,-2.3081033
alexnet2023_baseline_pgd,1,777,NaN,clock,clock,NaN,clock6-truck3.png,clock6-truck3.png,1.0,8.132472,4.3455353,2.6777687
alexnet2023_baseline_pgd,1,778,NaN,elephant,clock,NaN,clock7-bear2.png,clock7-bear2.png,0.0,3.3519695,5.8742967,-1.7835547
alexnet2023_baseline_pgd,1,779,NaN,clock,clock,NaN,clock7-bicycle1.png,clock7-bicycle1.png,1.0,9.44311,3.8613567,3.946896
alexnet2023_baseline_pgd,1,780,NaN,clock,clock,NaN,clock7-boat3.png,clock7-boat3.png,1.0,8.766177,5.031075,2.6411161
alexnet2023_baseline_pgd,1,781,NaN,clock,clock,NaN,clock7-bottle2.png,clock7-bottle2.png,1.0,7.180141,4.824135,1.6659479
alexnet2023_baseline_pgd,1,782,NaN,clock,clock,NaN,clock7-car1.png,clock7-car1.png,1.0,11.472522,4.861787,4.6744957
alexnet2023_baseline_pgd,1,783,NaN,cat,clock,NaN,clock7-cat2.png,clock7-cat2.png,0.0,1.594904,4.1443596,-1.8027374
alexnet2023_baseline_pgd,1,784,NaN,clock,clock,NaN,clock7-dog2.png,clock7-dog2.png,1.0,7.792356,5.1137304,1.8940743
alexnet2023_baseline_pgd,1,785,NaN,clock,clock,NaN,clock7-keyboard2.png,clock7-keyboard2.png,1.0,6.761921,4.788344,1.3955297
alexnet2023_baseline_pgd,1,786,NaN,car,clock,NaN,clock7-truck3.png,clock7-truck3.png,0.0,5.7197185,8.20253,-1.7556129
alexnet2023_baseline_pgd,1,787,NaN,car,clock,NaN,clock8-airplane2.png,clock8-airplane2.png,0.0,4.2688746,5.4317374,-0.8222682
alexnet2023_baseline_pgd,1,788,NaN,elephant,clock,NaN,clock8-bear2.png,clock8-bear2.png,0.0,2.6805973,4.911634,-1.5775812
alexnet2023_baseline_pgd,1,789,NaN,clock,clock,NaN,clock8-boat1.png,clock8-boat1.png,1.0,6.4755287,3.6708887,1.98318
alexnet2023_baseline_pgd,1,790,NaN,elephant,clock,NaN,clock8-cat1.png,clock8-cat1.png,0.0,0.3756148,4.8416257,-3.1579468
alexnet2023_baseline_pgd,1,791,NaN,clock,clock,NaN,clock8-chair2.png,clock8-chair2.png,1.0,8.840583,5.2915163,2.5095692
alexnet2023_baseline_pgd,1,792,NaN,clock,clock,NaN,clock8-keyboard1.png,clock8-keyboard1.png,1.0,6.163088,4.26056,1.3452903
alexnet2023_baseline_pgd,1,793,NaN,bicycle,clock,NaN,clock8-knife1.png,clock8-knife1.png,0.0,4.0115166,4.0408993,-0.020776711
alexnet2023_baseline_pgd,1,794,NaN,bottle,clock,NaN,clock8-oven3.png,clock8-oven3.png,0.0,6.1378784,6.73936,-0.42531163
alexnet2023_baseline_pgd,1,795,NaN,car,clock,NaN,clock8-truck2.png,clock8-truck2.png,0.0,2.717345,5.581527,-2.0252826
alexnet2023_baseline_pgd,1,796,NaN,clock,clock,NaN,clock9-airplane1.png,clock9-airplane1.png,1.0,11.529297,3.4610064,5.705143
alexnet2023_baseline_pgd,1,797,NaN,clock,clock,NaN,clock9-bird2.png,clock9-bird2.png,1.0,6.377936,2.8540523,2.491762
alexnet2023_baseline_pgd,1,798,NaN,cat,clock,NaN,clock9-cat1.png,clock9-cat1.png,0.0,0.9045661,5.9565945,-3.5723236
alexnet2023_baseline_pgd,1,799,NaN,elephant,clock,NaN,clock9-chair3.png,clock9-chair3.png,0.0,3.527068,4.4765544,-0.6713883
alexnet2023_baseline_pgd,1,800,NaN,clock,clock,NaN,clock9-keyboard2.png,clock9-keyboard2.png,1.0,7.4357924,4.6975513,1.936229
alexnet2023_baseline_pgd,1,801,NaN,bottle,dog,NaN,dog1-airplane3.png,dog1-airplane3.png,0.0,-0.7370107,4.003427,-3.3519955
alexnet2023_baseline_pgd,1,802,NaN,elephant,dog,NaN,dog1-bear1.png,dog1-bear1.png,0.0,3.4022152,8.044124,-3.282325
alexnet2023_baseline_pgd,1,803,NaN,bear,dog,NaN,dog1-bird1.png,dog1-bird1.png,0.0,2.820562,3.1585274,-0.23897769
alexnet2023_baseline_pgd,1,804,NaN,clock,dog,NaN,dog1-boat3.png,dog1-boat3.png,0.0,-2.8078437,4.1247234,-4.9020653
alexnet2023_baseline_pgd,1,805,NaN,bicycle,dog,NaN,dog1-car2.png,dog1-car2.png,0.0,-0.47572094,3.3124995,-2.6786764
alexnet2023_baseline_pgd,1,806,NaN,dog,dog,NaN,dog1-cat3.png,dog1-cat3.png,1.0,3.8458347,2.5750368,0.89858985
alexnet2023_baseline_pgd,1,807,NaN,clock,dog,NaN,dog1-chair1.png,dog1-chair1.png,0.0,-1.9858975,3.537803,-3.9058464
alexnet2023_baseline_pgd,1,808,NaN,dog,dog,NaN,dog1-dog2.png,dog1-dog2.png,1.0,6.3915906,2.3791778,2.8372045
alexnet2023_baseline_pgd,1,809,NaN,knife,dog,NaN,dog1-knife3.png,dog1-knife3.png,0.0,-0.7885567,3.83572,-3.2698574
alexnet2023_baseline_pgd,1,810,NaN,boat,dog,NaN,dog10-airplane1.png,dog10-airplane1.png,0.0,-2.0854418,3.7656121,-4.13732
alexnet2023_baseline_pgd,1,811,NaN,bicycle,dog,NaN,dog10-bicycle1.png,dog10-bicycle1.png,0.0,1.6870822,7.2415733,-3.9276183
alexnet2023_baseline_pgd,1,812,NaN,knife,dog,NaN,dog10-bottle1.png,dog10-bottle1.png,0.0,0.44451937,4.164525,-2.6304414
alexnet2023_baseline_pgd,1,813,NaN,knife,dog,NaN,dog10-car3.png,dog10-car3.png,0.0,-2.0602891,4.8202786,-4.865296
alexnet2023_baseline_pgd,1,814,NaN,bottle,dog,NaN,dog10-clock1.png,dog10-clock1.png,0.0,-0.15892467,3.70455,-2.7318892
