subj,session,trial,rt,object_response,category,condition,imagename,filename,is_correct,targ_act,max_nontarg_act,decision_margin
convnext_large,1,1,NaN,bicycle,airplane,NaN,airplane1-bicycle2.png,airplane1-bicycle2.png,0.0,1.1200202,2.129922,-0.7141084
convnext_large,1,2,NaN,chair,airplane,NaN,airplane1-chair2.png,airplane1-chair2.png,0.0,0.69017124,0.9260966,-0.16682443
convnext_large,1,3,NaN,clock,airplane,NaN,airplane1-clock1.png,airplane1-clock1.png,0.0,-0.2783391,2.9748535,-2.3003547
convnext_large,1,4,NaN,elephant,airplane,NaN,airplane1-elephant1.png,airplane1-elephant1.png,0.0,0.17525026,6.8568053,-4.724573
convnext_large,1,5,NaN,airplane,airplane,NaN,airplane10-airplane1.png,airplane10-airplane1.png,1.0,3.5040464,0.82339275,1.8955084
convnext_large,1,6,NaN,elephant,airplane,NaN,airplane10-bear3.png,airplane10-bear3.png,0.0,0.30574122,2.9825535,-1.8927921
convnext_large,1,7,NaN,airplane,airplane,NaN,airplane10-boat3.png,airplane10-boat3.png,1.0,2.5128417,1.899946,0.43338272
convnext_large,1,8,NaN,car,airplane,NaN,airplane10-car3.png,airplane10-car3.png,0.0,0.95674753,5.6354976,-3.3083758
convnext_large,1,9,NaN,cat,airplane,NaN,airplane10-cat2.png,airplane10-cat2.png,0.0,1.3181425,2.130234,-0.5742354
convnext_large,1,10,NaN,oven,airplane,NaN,airplane10-dog3.png,airplane10-dog3.png,0.0,0.32198894,1.1543636,-0.5885778
convnext_large,1,11,NaN,elephant,airplane,NaN,airplane10-elephant1.png,airplane10-elephant1.png,0.0,0.23140961,7.7746,-5.3338413
convnext_large,1,12,NaN,knife,airplane,NaN,airplane10-knife3.png,airplane10-knife3.png,0.0,-0.8541149,8.239877,-6.430423
convnext_large,1,13,NaN,oven,airplane,NaN,airplane10-oven2.png,airplane10-oven2.png,0.0,0.3714469,3.200806,-2.000659
convnext_large,1,14,NaN,bottle,airplane,NaN,airplane10-truck1.png,airplane10-truck1.png,0.0,-0.583987,1.8601944,-1.7282974
convnext_large,1,15,NaN,bear,airplane,NaN,airplane2-bear1.png,airplane2-bear1.png,0.0,0.4019081,3.6348662,-2.2860465
convnext_large,1,16,NaN,bicycle,airplane,NaN,airplane2-bicycle1.png,airplane2-bicycle1.png,0.0,0.91923624,2.2355871,-0.9308007
convnext_large,1,17,NaN,oven,airplane,NaN,airplane2-bird3.png,airplane2-bird3.png,0.0,-0.94322604,1.7665477,-1.9160994
convnext_large,1,18,NaN,bottle,airplane,NaN,airplane2-bottle1.png,airplane2-bottle1.png,0.0,0.47113645,3.5042775,-2.1447546
convnext_large,1,19,NaN,cat,airplane,NaN,airplane2-cat1.png,airplane2-cat1.png,0.0,-0.39376426,3.6115243,-2.8321667
convnext_large,1,20,NaN,bear,airplane,NaN,airplane2-dog1.png,airplane2-dog1.png,0.0,-0.3731663,1.4842231,-1.3133727
convnext_large,1,21,NaN,airplane,airplane,NaN,airplane3-airplane2.png,airplane3-airplane2.png,1.0,3.67464,1.5935718,1.4715374
convnext_large,1,22,NaN,car,airplane,NaN,airplane3-car1.png,airplane3-car1.png,0.0,-0.9222423,1.316984,-1.5833721
convnext_large,1,23,NaN,cat,airplane,NaN,airplane3-cat1.png,airplane3-cat1.png,0.0,-0.19878002,2.157029,-1.6658086
convnext_large,1,24,NaN,airplane,airplane,NaN,airplane3-chair3.png,airplane3-chair3.png,1.0,1.6979661,1.4708692,0.16058177
convnext_large,1,25,NaN,clock,airplane,NaN,airplane3-clock1.png,airplane3-clock1.png,0.0,0.11535841,4.9448466,-3.414964
convnext_large,1,26,NaN,bear,airplane,NaN,airplane3-dog1.png,airplane3-dog1.png,0.0,-0.48271054,1.916319,-1.69637
convnext_large,1,27,NaN,elephant,airplane,NaN,airplane3-elephant1.png,airplane3-elephant1.png,0.0,0.09719558,7.026842,-4.9
convnext_large,1,28,NaN,keyboard,airplane,NaN,airplane3-keyboard2.png,airplane3-keyboard2.png,0.0,-0.24193771,3.6053934,-2.720474
convnext_large,1,29,NaN,oven,airplane,NaN,airplane3-oven1.png,airplane3-oven1.png,0.0,1.6903635,3.1273444,-1.0160989
convnext_large,1,30,NaN,airplane,airplane,NaN,airplane4-airplane1.png,airplane4-airplane1.png,1.0,2.6726928,1.4497875,0.86472464
convnext_large,1,31,NaN,elephant,airplane,NaN,airplane4-bear3.png,airplane4-bear3.png,0.0,0.2310608,3.1868439,-2.0900543
convnext_large,1,32,NaN,bicycle,airplane,NaN,airplane4-bicycle2.png,airplane4-bicycle2.png,0.0,0.11374605,1.5190245,-0.9936819
convnext_large,1,33,NaN,knife,airplane,NaN,airplane4-bird3.png,airplane4-bird3.png,0.0,0.2980821,1.9734268,-1.1846477
convnext_large,1,34,NaN,chair,airplane,NaN,airplane4-boat3.png,airplane4-boat3.png,0.0,1.0107572,1.7011406,-0.48817483
convnext_large,1,35,NaN,bottle,airplane,NaN,airplane4-bottle1.png,airplane4-bottle1.png,0.0,0.24865806,3.8501072,-2.5466092
convnext_large,1,36,NaN,car,airplane,NaN,airplane4-car1.png,airplane4-car1.png,0.0,-0.8258155,1.0656244,-1.33745
convnext_large,1,37,NaN,cat,airplane,NaN,airplane4-cat3.png,airplane4-cat3.png,0.0,-0.06586905,1.1579368,-0.86536145
convnext_large,1,38,NaN,knife,airplane,NaN,airplane4-dog2.png,airplane4-dog2.png,0.0,-0.9042647,1.1541891,-1.4555466
convnext_large,1,39,NaN,elephant,airplane,NaN,airplane4-elephant1.png,airplane4-elephant1.png,0.0,0.09308752,7.5850863,-5.297643
convnext_large,1,40,NaN,keyboard,airplane,NaN,airplane4-keyboard3.png,airplane4-keyboard3.png,0.0,-0.6440036,2.320493,-2.0962157
convnext_large,1,41,NaN,knife,airplane,NaN,airplane4-knife1.png,airplane4-knife1.png,0.0,-0.074931204,4.760072,-3.4188638
convnext_large,1,42,NaN,car,airplane,NaN,airplane4-truck2.png,airplane4-truck2.png,0.0,-0.08642879,2.6578557,-1.9405023
convnext_large,1,43,NaN,bear,airplane,NaN,airplane5-bear2.png,airplane5-bear2.png,0.0,0.34692988,1.2737634,-0.6553703
convnext_large,1,44,NaN,car,airplane,NaN,airplane5-bicycle1.png,airplane5-bicycle1.png,0.0,1.3822167,1.403749,-0.015225634
convnext_large,1,45,NaN,airplane,airplane,NaN,airplane5-bird2.png,airplane5-bird2.png,1.0,2.241809,1.8890805,0.24941662
convnext_large,1,46,NaN,airplane,airplane,NaN,airplane5-boat3.png,airplane5-boat3.png,1.0,1.61888,1.1662539,0.320055
convnext_large,1,47,NaN,bottle,airplane,NaN,airplane5-bottle3.png,airplane5-bottle3.png,0.0,0.27369916,3.6600995,-2.3945465
convnext_large,1,48,NaN,airplane,airplane,NaN,airplane5-chair3.png,airplane5-chair3.png,1.0,2.8983603,1.6742858,0.8655514
convnext_large,1,49,NaN,dog,airplane,NaN,airplane5-dog3.png,airplane5-dog3.png,0.0,0.24671787,0.90124047,-0.46281737
convnext_large,1,50,NaN,keyboard,airplane,NaN,airplane5-knife1.png,airplane5-knife1.png,0.0,0.30586705,1.7210028,-1.0006521
convnext_large,1,51,NaN,oven,airplane,NaN,airplane5-oven3.png,airplane5-oven3.png,0.0,0.62402713,0.85541916,-0.16361888
convnext_large,1,52,NaN,bear,airplane,NaN,airplane6-bear3.png,airplane6-bear3.png,0.0,0.15240023,1.7608695,-1.1373595
convnext_large,1,53,NaN,bottle,airplane,NaN,airplane6-bottle2.png,airplane6-bottle2.png,0.0,-0.4149161,3.2222555,-2.5718687
convnext_large,1,54,NaN,airplane,airplane,NaN,airplane6-chair3.png,airplane6-chair3.png,1.0,2.3131206,1.784227,0.37398425
convnext_large,1,55,NaN,clock,airplane,NaN,airplane6-keyboard3.png,airplane6-keyboard3.png,0.0,3.2146044,3.8134878,-0.42347452
convnext_large,1,56,NaN,knife,airplane,NaN,airplane6-knife1.png,airplane6-knife1.png,0.0,0.10439409,2.628869,-1.7850733
convnext_large,1,57,NaN,airplane,airplane,NaN,airplane7-airplane3.png,airplane7-airplane3.png,1.0,6.764261,2.4053736,3.0821989
convnext_large,1,58,NaN,clock,airplane,NaN,airplane7-bird3.png,airplane7-bird3.png,0.0,-0.8664001,1.0121173,-1.3283124
convnext_large,1,59,NaN,boat,airplane,NaN,airplane7-boat2.png,airplane7-boat2.png,0.0,1.3908422,2.3589633,-0.68456495
convnext_large,1,60,NaN,bottle,airplane,NaN,airplane7-bottle3.png,airplane7-bottle3.png,0.0,-0.10721056,4.245652,-3.0779388
convnext_large,1,61,NaN,car,airplane,NaN,airplane7-car1.png,airplane7-car1.png,0.0,-0.20919043,1.546702,-1.2416035
convnext_large,1,62,NaN,knife,airplane,NaN,airplane7-cat3.png,airplane7-cat3.png,0.0,-0.4215647,0.89612186,-0.9317451
convnext_large,1,63,NaN,clock,airplane,NaN,airplane7-clock3.png,airplane7-clock3.png,0.0,-0.24915496,2.1609294,-1.7041872
convnext_large,1,64,NaN,keyboard,airplane,NaN,airplane7-keyboard1.png,airplane7-keyboard1.png,0.0,0.7980792,5.2537065,-3.1506045
convnext_large,1,65,NaN,car,airplane,NaN,airplane7-truck1.png,airplane7-truck1.png,0.0,-0.1402494,2.0186474,-1.5265707
convnext_large,1,66,NaN,oven,airplane,NaN,airplane8-bicycle3.png,airplane8-bicycle3.png,0.0,0.5617838,1.0586076,-0.35130748
convnext_large,1,67,NaN,knife,airplane,NaN,airplane8-bird1.png,airplane8-bird1.png,0.0,0.6910996,1.4760199,-0.5550225
convnext_large,1,68,NaN,car,airplane,NaN,airplane8-chair1.png,airplane8-chair1.png,0.0,2.6640174,3.4451826,-0.55236715
convnext_large,1,69,NaN,bottle,airplane,NaN,airplane8-clock2.png,airplane8-clock2.png,0.0,0.14164785,1.3562248,-0.85883564
convnext_large,1,70,NaN,elephant,airplane,NaN,airplane8-elephant3.png,airplane8-elephant3.png,0.0,0.08224881,7.9372077,-5.554295
convnext_large,1,71,NaN,oven,airplane,NaN,airplane8-oven2.png,airplane8-oven2.png,0.0,-0.43438104,4.7457476,-3.662904
convnext_large,1,72,NaN,airplane,airplane,NaN,airplane8-truck3.png,airplane8-truck3.png,1.0,1.9410267,1.4861988,0.3216119
convnext_large,1,73,NaN,airplane,airplane,NaN,airplane9-airplane2.png,airplane9-airplane2.png,1.0,2.866993,2.2045026,0.46845144
convnext_large,1,74,NaN,airplane,airplane,NaN,airplane9-boat1.png,airplane9-boat1.png,1.0,1.9694922,1.9425194,0.01907263
convnext_large,1,75,NaN,clock,airplane,NaN,airplane9-car2.png,airplane9-car2.png,0.0,-0.090942025,1.0621978,-0.81539303
convnext_large,1,76,NaN,clock,airplane,NaN,airplane9-clock1.png,airplane9-clock1.png,0.0,-0.65053487,5.5179496,-4.3617773
convnext_large,1,77,NaN,keyboard,airplane,NaN,airplane9-keyboard2.png,airplane9-keyboard2.png,0.0,-0.9666985,3.3540134,-3.0552049
convnext_large,1,78,NaN,knife,airplane,NaN,airplane9-knife3.png,airplane9-knife3.png,0.0,-0.8778174,5.922064,-4.808242
convnext_large,1,79,NaN,oven,airplane,NaN,airplane9-oven2.png,airplane9-oven2.png,0.0,0.24914554,3.9376326,-2.6081543
convnext_large,1,80,NaN,car,airplane,NaN,airplane9-truck1.png,airplane9-truck1.png,0.0,-0.093724884,2.7307484,-1.9972043
convnext_large,1,81,NaN,car,bear,NaN,bear1-airplane3.png,bear1-airplane3.png,0.0,-0.8358599,1.5547389,-1.6904086
convnext_large,1,82,NaN,bear,bear,NaN,bear1-bear3.png,bear1-bear3.png,1.0,3.314229,2.1116118,0.85037875
convnext_large,1,83,NaN,chair,bear,NaN,bear1-bicycle3.png,bear1-bicycle3.png,0.0,0.09934515,1.3401114,-0.87735426
convnext_large,1,84,NaN,bear,bear,NaN,bear1-bird2.png,bear1-bird2.png,1.0,4.298125,1.551893,1.9418792
convnext_large,1,85,NaN,oven,bear,NaN,bear1-chair2.png,bear1-chair2.png,0.0,-0.45844883,1.5946705,-1.4517747
convnext_large,1,86,NaN,clock,bear,NaN,bear1-clock2.png,bear1-clock2.png,0.0,0.05287835,3.1369393,-2.1807604
convnext_large,1,87,NaN,elephant,bear,NaN,bear1-elephant1.png,bear1-elephant1.png,0.0,-0.23301321,7.088362,-5.1769943
convnext_large,1,88,NaN,bear,bear,NaN,bear10-bear2.png,bear10-bear2.png,1.0,2.7773914,1.4172688,0.961752
convnext_large,1,89,NaN,bottle,bear,NaN,bear10-bottle1.png,bear10-bottle1.png,0.0,-0.3059738,3.2899537,-2.5427048
convnext_large,1,90,NaN,car,bear,NaN,bear10-car2.png,bear10-car2.png,0.0,0.27576008,1.3576208,-0.7649911
convnext_large,1,91,NaN,cat,bear,NaN,bear10-cat2.png,bear10-cat2.png,0.0,0.30325687,2.4668727,-1.5299073
convnext_large,1,92,NaN,chair,bear,NaN,bear10-chair2.png,bear10-chair2.png,0.0,0.063086376,1.5261399,-1.034535
convnext_large,1,93,NaN,clock,bear,NaN,bear10-clock1.png,bear10-clock1.png,0.0,-1.0023441,5.6155057,-4.679527
convnext_large,1,94,NaN,elephant,bear,NaN,bear10-elephant1.png,bear10-elephant1.png,0.0,-0.07744348,7.3879204,-5.2788095
convnext_large,1,95,NaN,clock,bear,NaN,bear10-keyboard3.png,bear10-keyboard3.png,0.0,0.9057548,1.7764577,-0.6156799
convnext_large,1,96,NaN,knife,bear,NaN,bear10-knife2.png,bear10-knife2.png,0.0,-0.57277304,3.3617806,-2.7821496
convnext_large,1,97,NaN,oven,bear,NaN,bear10-oven1.png,bear10-oven1.png,0.0,-0.40010008,2.272164,-1.8895761
convnext_large,1,98,NaN,car,bear,NaN,bear10-truck1.png,bear10-truck1.png,0.0,-0.5703392,1.4821743,-1.4513463
convnext_large,1,99,NaN,airplane,bear,NaN,bear2-airplane1.png,bear2-airplane1.png,0.0,0.4510062,3.3760884,-2.0683455
convnext_large,1,100,NaN,bear,bear,NaN,bear2-bird3.png,bear2-bird3.png,1.0,3.1759143,0.78075296,1.6936349
convnext_large,1,101,NaN,clock,bear,NaN,bear2-car2.png,bear2-car2.png,0.0,0.33026254,0.41516423,-0.060034562
convnext_large,1,102,NaN,bear,bear,NaN,bear2-cat2.png,bear2-cat2.png,1.0,3.0648332,1.564227,1.0610888
convnext_large,1,103,NaN,bear,bear,NaN,bear2-dog1.png,bear2-dog1.png,1.0,3.8574023,0.45027924,2.4092
convnext_large,1,104,NaN,elephant,bear,NaN,bear2-elephant1.png,bear2-elephant1.png,0.0,-0.09393225,6.9006996,-4.9459515
convnext_large,1,105,NaN,keyboard,bear,NaN,bear2-keyboard2.png,bear2-keyboard2.png,0.0,0.110360414,6.824932,-4.747919
convnext_large,1,106,NaN,knife,bear,NaN,bear2-knife2.png,bear2-knife2.png,0.0,-0.23937094,1.789234,-1.4344404
convnext_large,1,107,NaN,oven,bear,NaN,bear2-oven1.png,bear2-oven1.png,0.0,0.47031805,2.6557727,-1.5453498
convnext_large,1,108,NaN,airplane,bear,NaN,bear3-airplane1.png,bear3-airplane1.png,0.0,0.13171078,3.7736459,-2.575237
convnext_large,1,109,NaN,bicycle,bear,NaN,bear3-bicycle2.png,bear3-bicycle2.png,0.0,0.24701428,2.1633258,-1.3550369
convnext_large,1,110,NaN,bear,bear,NaN,bear3-bird3.png,bear3-bird3.png,1.0,3.2096364,1.1832732,1.4328552
convnext_large,1,111,NaN,car,bear,NaN,bear3-car2.png,bear3-car2.png,0.0,0.10842506,1.4933472,-0.97928786
convnext_large,1,112,NaN,cat,bear,NaN,bear3-cat1.png,bear3-cat1.png,0.0,1.592429,2.8792248,-0.909902
convnext_large,1,113,NaN,chair,bear,NaN,bear3-chair2.png,bear3-chair2.png,0.0,0.09780186,1.5048578,-0.99493885
convnext_large,1,114,NaN,airplane,bear,NaN,bear3-dog3.png,bear3-dog3.png,0.0,0.31279898,1.007237,-0.4910418
convnext_large,1,115,NaN,keyboard,bear,NaN,bear3-keyboard2.png,bear3-keyboard2.png,0.0,-0.3089289,5.909322,-4.3969674
convnext_large,1,116,NaN,truck,bear,NaN,bear3-truck3.png,bear3-truck3.png,0.0,-0.47640902,1.9059594,-1.6845888
convnext_large,1,117,NaN,boat,bear,NaN,bear4-boat2.png,bear4-boat2.png,0.0,-0.18901846,2.6007347,-1.9726534
convnext_large,1,118,NaN,car,bear,NaN,bear4-car3.png,bear4-car3.png,0.0,0.027017184,5.5139694,-3.8798614
convnext_large,1,119,NaN,bear,bear,NaN,bear4-cat3.png,bear4-cat3.png,1.0,2.5002716,1.0011294,1.0600536
convnext_large,1,120,NaN,clock,bear,NaN,bear4-clock3.png,bear4-clock3.png,0.0,-0.38596165,4.3681645,-3.3616748
convnext_large,1,121,NaN,elephant,bear,NaN,bear4-elephant2.png,bear4-elephant2.png,0.0,-0.24763516,7.100273,-5.195756
convnext_large,1,122,NaN,clock,bear,NaN,bear4-keyboard3.png,bear4-keyboard3.png,0.0,-0.111816496,1.5539923,-1.1779047
convnext_large,1,123,NaN,knife,bear,NaN,bear4-knife1.png,bear4-knife1.png,0.0,-0.8408502,2.2768497,-2.2045467
convnext_large,1,124,NaN,oven,bear,NaN,bear4-oven2.png,bear4-oven2.png,0.0,-0.03830658,4.712966,-3.3596573
convnext_large,1,125,NaN,bottle,bear,NaN,bear4-truck3.png,bear4-truck3.png,0.0,0.12288448,1.1154766,-0.7018686
convnext_large,1,126,NaN,airplane,bear,NaN,bear5-airplane3.png,bear5-airplane3.png,0.0,-0.24527034,4.60804,-3.4318085
convnext_large,1,127,NaN,chair,bear,NaN,bear5-bicycle3.png,bear5-bicycle3.png,0.0,0.24691164,1.6304321,-0.97829676
convnext_large,1,128,NaN,bear,bear,NaN,bear5-bird1.png,bear5-bird1.png,1.0,1.9997934,0.949244,0.7428506
convnext_large,1,129,NaN,boat,bear,NaN,bear5-boat2.png,bear5-boat2.png,0.0,-0.51789844,2.5401015,-2.1623325
convnext_large,1,130,NaN,bottle,bear,NaN,bear5-bottle1.png,bear5-bottle1.png,0.0,-0.23277375,3.0376067,-2.3125083
convnext_large,1,131,NaN,car,bear,NaN,bear5-chair1.png,bear5-chair1.png,0.0,-0.118335895,4.233316,-3.0770824
convnext_large,1,132,NaN,keyboard,bear,NaN,bear5-oven3.png,bear5-oven3.png,0.0,0.7151984,1.2464063,-0.37562072
convnext_large,1,133,NaN,bear,bear,NaN,bear6-bear1.png,bear6-bear1.png,1.0,2.650683,2.5881245,0.04423548
convnext_large,1,134,NaN,bear,bear,NaN,bear6-bird2.png,bear6-bird2.png,1.0,3.1053333,1.1311113,1.3959858
convnext_large,1,135,NaN,boat,bear,NaN,bear6-boat3.png,bear6-boat3.png,0.0,-0.07209411,1.1013024,-0.8297166
convnext_large,1,136,NaN,bottle,bear,NaN,bear6-bottle3.png,bear6-bottle3.png,0.0,-0.12545723,3.4197667,-2.506852
convnext_large,1,137,NaN,car,bear,NaN,bear6-car2.png,bear6-car2.png,0.0,-0.06588782,1.1974229,-0.8932956
convnext_large,1,138,NaN,cat,bear,NaN,bear6-cat3.png,bear6-cat3.png,0.0,0.09470628,1.1099735,-0.71790236
convnext_large,1,139,NaN,car,bear,NaN,bear6-chair1.png,bear6-chair1.png,0.0,-0.19242868,2.599786,-1.974394
convnext_large,1,140,NaN,clock,bear,NaN,bear6-clock1.png,bear6-clock1.png,0.0,-1.0452064,4.2700744,-3.7584713
convnext_large,1,141,NaN,bear,bear,NaN,bear7-bear2.png,bear7-bear2.png,1.0,3.3029919,1.3213865,1.4012066
convnext_large,1,142,NaN,bicycle,bear,NaN,bear7-bicycle2.png,bear7-bicycle2.png,0.0,0.10792151,2.5075798,-1.6968147
convnext_large,1,143,NaN,clock,bear,NaN,bear7-clock1.png,bear7-clock1.png,0.0,-0.96363235,5.0219626,-4.232455
convnext_large,1,144,NaN,bear,bear,NaN,bear7-dog3.png,bear7-dog3.png,1.0,2.452696,0.5472479,1.3473554
convnext_large,1,145,NaN,keyboard,bear,NaN,bear7-oven3.png,bear7-oven3.png,0.0,0.06567581,1.187201,-0.7930381
convnext_large,1,146,NaN,car,bear,NaN,bear7-truck1.png,bear7-truck1.png,0.0,-0.6927548,2.3309362,-2.1380725
convnext_large,1,147,NaN,clock,bear,NaN,bear8-airplane1.png,bear8-airplane1.png,0.0,-0.13915771,3.1885746,-2.3530622
convnext_large,1,148,NaN,bear,bear,NaN,bear8-bear1.png,bear8-bear1.png,1.0,3.0805054,0.80401033,1.6097251
convnext_large,1,149,NaN,bottle,bear,NaN,bear8-bicycle3.png,bear8-bicycle3.png,0.0,0.06129688,0.9138581,-0.60285187
convnext_large,1,150,NaN,boat,bear,NaN,bear8-boat2.png,bear8-boat2.png,0.0,-0.43214735,2.073578,-1.7718153
convnext_large,1,151,NaN,bottle,bear,NaN,bear8-bottle1.png,bear8-bottle1.png,0.0,-0.12754865,3.438021,-2.5212386
convnext_large,1,152,NaN,bear,bear,NaN,bear8-dog1.png,bear8-dog1.png,1.0,2.8559732,0.71840423,1.5114895
convnext_large,1,153,NaN,elephant,bear,NaN,bear8-elephant2.png,bear8-elephant2.png,0.0,-0.1424476,7.979807,-5.7433014
convnext_large,1,154,NaN,knife,bear,NaN,bear8-knife3.png,bear8-knife3.png,0.0,-0.3039574,3.0746548,-2.3890398
convnext_large,1,155,NaN,truck,bear,NaN,bear8-truck3.png,bear8-truck3.png,0.0,-0.4644704,2.2016358,-1.8852218
convnext_large,1,156,NaN,boat,bear,NaN,bear9-boat2.png,bear9-boat2.png,0.0,-0.27040756,2.5865695,-2.0201879
convnext_large,1,157,NaN,bottle,bear,NaN,bear9-bottle2.png,bear9-bottle2.png,0.0,0.1204641,2.7261844,-1.8425225
convnext_large,1,158,NaN,bear,bear,NaN,bear9-dog1.png,bear9-dog1.png,1.0,4.287387,0.4960181,2.6809025
convnext_large,1,159,NaN,keyboard,bear,NaN,bear9-keyboard3.png,bear9-keyboard3.png,0.0,-0.36429244,2.5456443,-2.057636
convnext_large,1,160,NaN,knife,bear,NaN,bear9-knife2.png,bear9-knife2.png,0.0,0.3217716,3.8182049,-2.4723518
convnext_large,1,161,NaN,clock,bicycle,NaN,bicycle1-airplane2.png,bicycle1-airplane2.png,0.0,1.8994124,2.685014,-0.55550426
convnext_large,1,162,NaN,bear,bicycle,NaN,bicycle1-bear1.png,bicycle1-bear1.png,0.0,1.2432275,3.2287412,-1.4039702
convnext_large,1,163,NaN,bicycle,bicycle,NaN,bicycle1-bicycle3.png,bicycle1-bicycle3.png,1.0,4.9130564,0.86648685,2.8613567
convnext_large,1,164,NaN,bicycle,bicycle,NaN,bicycle1-bird1.png,bicycle1-bird1.png,1.0,4.445697,1.0326242,2.4134068
convnext_large,1,165,NaN,bicycle,bicycle,NaN,bicycle1-boat3.png,bicycle1-boat3.png,1.0,3.4233487,2.1606076,0.8928928
convnext_large,1,166,NaN,clock,bicycle,NaN,bicycle1-bottle3.png,bicycle1-bottle3.png,0.0,2.725153,3.348499,-0.44077227
convnext_large,1,167,NaN,car,bicycle,NaN,bicycle1-chair1.png,bicycle1-chair1.png,0.0,0.8799742,4.898958,-2.8418508
convnext_large,1,168,NaN,clock,bicycle,NaN,bicycle1-clock3.png,bicycle1-clock3.png,0.0,1.2245184,4.6790414,-2.4427168
convnext_large,1,169,NaN,cat,bicycle,NaN,bicycle1-dog3.png,bicycle1-dog3.png,0.0,1.6732664,1.9710189,-0.21054281
convnext_large,1,170,NaN,elephant,bicycle,NaN,bicycle1-elephant2.png,bicycle1-elephant2.png,0.0,0.33030206,7.3509564,-4.964352
convnext_large,1,171,NaN,knife,bicycle,NaN,bicycle1-knife3.png,bicycle1-knife3.png,0.0,1.3896605,3.4549973,-1.4604136
convnext_large,1,172,NaN,bicycle,bicycle,NaN,bicycle1-oven1.png,bicycle1-oven1.png,1.0,4.1287737,3.0498533,0.7629119
convnext_large,1,173,NaN,bicycle,bicycle,NaN,bicycle1-truck1.png,bicycle1-truck1.png,1.0,2.9440362,2.20564,0.52212495
convnext_large,1,174,NaN,bicycle,bicycle,NaN,bicycle10-airplane2.png,bicycle10-airplane2.png,1.0,2.0889027,1.5161353,0.4050077
convnext_large,1,175,NaN,car,bicycle,NaN,bicycle10-boat3.png,bicycle10-boat3.png,0.0,1.3287194,1.3301375,-0.0010027578
convnext_large,1,176,NaN,clock,bicycle,NaN,bicycle10-clock2.png,bicycle10-clock2.png,0.0,1.8646677,4.5627503,-1.9078326
convnext_large,1,177,NaN,cat,bicycle,NaN,bicycle10-dog3.png,bicycle10-dog3.png,0.0,-0.26845247,3.4541798,-2.6322985
convnext_large,1,178,NaN,elephant,bicycle,NaN,bicycle10-elephant2.png,bicycle10-elephant2.png,0.0,0.6464776,6.8631706,-4.395866
convnext_large,1,179,NaN,bicycle,bicycle,NaN,bicycle2-bicycle1.png,bicycle2-bicycle1.png,1.0,6.7755246,0.971605,4.103991
convnext_large,1,180,NaN,bicycle,bicycle,NaN,bicycle2-bird3.png,bicycle2-bird3.png,1.0,3.4342299,1.6327423,1.2738441
convnext_large,1,181,NaN,bottle,bicycle,NaN,bicycle2-bottle1.png,bicycle2-bottle1.png,0.0,0.4966343,1.9951391,-1.059603
convnext_large,1,182,NaN,bicycle,bicycle,NaN,bicycle2-car2.png,bicycle2-car2.png,1.0,0.9395511,0.82157236,0.08342358
convnext_large,1,183,NaN,bear,bicycle,NaN,bicycle2-dog1.png,bicycle2-dog1.png,0.0,-0.082543194,1.6107734,-1.1973557
convnext_large,1,184,NaN,clock,bicycle,NaN,bicycle2-keyboard2.png,bicycle2-keyboard2.png,0.0,-0.10730919,4.772436,-3.4505012
convnext_large,1,185,NaN,bicycle,bicycle,NaN,bicycle2-knife2.png,bicycle2-knife2.png,1.0,3.6063328,2.2888646,0.9315907
convnext_large,1,186,NaN,bicycle,bicycle,NaN,bicycle3-bird1.png,bicycle3-bird1.png,1.0,3.791964,1.0710882,1.9239497
convnext_large,1,187,NaN,elephant,bicycle,NaN,bicycle3-elephant2.png,bicycle3-elephant2.png,0.0,0.37032288,7.0181394,-4.7007165
convnext_large,1,188,NaN,clock,bicycle,NaN,bicycle3-keyboard1.png,bicycle3-keyboard1.png,0.0,2.4159875,4.260075,-1.3039669
convnext_large,1,189,NaN,oven,bicycle,NaN,bicycle3-oven3.png,bicycle3-oven3.png,0.0,0.2690915,2.4629653,-1.5513031
convnext_large,1,190,NaN,knife,bicycle,NaN,bicycle3-truck3.png,bicycle3-truck3.png,0.0,-0.13936067,1.1220722,-0.8919678
convnext_large,1,191,NaN,clock,bicycle,NaN,bicycle4-airplane1.png,bicycle4-airplane1.png,0.0,4.0597143,4.7664948,-0.49976924
convnext_large,1,192,NaN,bicycle,bicycle,NaN,bicycle4-bicycle3.png,bicycle4-bicycle3.png,1.0,6.0592055,1.2583001,3.3947527
convnext_large,1,193,NaN,bicycle,bicycle,NaN,bicycle4-boat1.png,bicycle4-boat1.png,1.0,6.523597,2.6876543,2.712421
convnext_large,1,194,NaN,bottle,bicycle,NaN,bicycle4-bottle1.png,bicycle4-bottle1.png,0.0,0.9590008,2.897638,-1.3708236
convnext_large,1,195,NaN,bicycle,bicycle,NaN,bicycle4-car2.png,bicycle4-car2.png,1.0,2.964491,1.96423,0.7072913
convnext_large,1,196,NaN,bicycle,bicycle,NaN,bicycle4-cat1.png,bicycle4-cat1.png,1.0,4.236532,3.348407,0.62799937
convnext_large,1,197,NaN,bicycle,bicycle,NaN,bicycle4-chair2.png,bicycle4-chair2.png,1.0,2.238944,1.5237846,0.5056941
convnext_large,1,198,NaN,clock,bicycle,NaN,bicycle4-clock3.png,bicycle4-clock3.png,0.0,0.49022472,4.8846765,-3.1073465
convnext_large,1,199,NaN,clock,bicycle,NaN,bicycle4-keyboard3.png,bicycle4-keyboard3.png,0.0,1.6143851,4.88215,-2.310659
convnext_large,1,200,NaN,knife,bicycle,NaN,bicycle4-knife3.png,bicycle4-knife3.png,0.0,0.34524447,4.6649714,-3.0545082
convnext_large,1,201,NaN,clock,bicycle,NaN,bicycle4-oven3.png,bicycle4-oven3.png,0.0,0.577999,2.940366,-1.6704459
convnext_large,1,202,NaN,clock,bicycle,NaN,bicycle4-truck3.png,bicycle4-truck3.png,0.0,1.1635484,2.5393784,-0.9728588
convnext_large,1,203,NaN,cat,bicycle,NaN,bicycle5-bear1.png,bicycle5-bear1.png,0.0,-0.07516004,3.804928,-2.7436366
convnext_large,1,204,NaN,bottle,bicycle,NaN,bicycle5-bottle3.png,bicycle5-bottle3.png,0.0,2.791439,3.2090747,-0.29531303
convnext_large,1,205,NaN,bicycle,bicycle,NaN,bicycle5-car3.png,bicycle5-car3.png,1.0,4.987272,4.318048,0.4732127
convnext_large,1,206,NaN,cat,bicycle,NaN,bicycle5-cat1.png,bicycle5-cat1.png,0.0,0.5480321,1.008469,-0.32557803
convnext_large,1,207,NaN,bicycle,bicycle,NaN,bicycle5-chair2.png,bicycle5-chair2.png,1.0,2.2080169,1.5105916,0.49315414
convnext_large,1,208,NaN,bicycle,bicycle,NaN,bicycle5-dog2.png,bicycle5-dog2.png,1.0,4.2017374,1.2267698,2.1036198
convnext_large,1,209,NaN,elephant,bicycle,NaN,bicycle5-elephant1.png,bicycle5-elephant1.png,0.0,0.51930267,6.461752,-4.2019463
convnext_large,1,210,NaN,clock,bicycle,NaN,bicycle5-keyboard3.png,bicycle5-keyboard3.png,0.0,-0.049539745,4.6917453,-3.3525946
convnext_large,1,211,NaN,oven,bicycle,NaN,bicycle5-oven3.png,bicycle5-oven3.png,0.0,-0.7788214,2.6324286,-2.4121182
convnext_large,1,212,NaN,knife,bicycle,NaN,bicycle6-airplane2.png,bicycle6-airplane2.png,0.0,0.19709599,3.3976924,-2.2631633
convnext_large,1,213,NaN,bicycle,bicycle,NaN,bicycle6-bicycle3.png,bicycle6-bicycle3.png,1.0,1.8488212,1.5598869,0.20430736
convnext_large,1,214,NaN,bicycle,bicycle,NaN,bicycle6-boat2.png,bicycle6-boat2.png,1.0,2.6743762,2.015308,0.4660317
convnext_large,1,215,NaN,clock,bicycle,NaN,bicycle6-car2.png,bicycle6-car2.png,0.0,-0.63856137,0.96077234,-1.1308998
convnext_large,1,216,NaN,cat,bicycle,NaN,bicycle6-cat1.png,bicycle6-cat1.png,0.0,-1.1200244,2.5276291,-2.5792806
convnext_large,1,217,NaN,cat,bicycle,NaN,bicycle6-dog2.png,bicycle6-dog2.png,0.0,0.6074496,2.329099,-1.21739
convnext_large,1,218,NaN,bicycle,bicycle,NaN,bicycle7-bear2.png,bicycle7-bear2.png,1.0,5.0986404,2.2032225,2.0473697
convnext_large,1,219,NaN,bicycle,bicycle,NaN,bicycle7-bicycle2.png,bicycle7-bicycle2.png,1.0,7.0797215,0.782919,4.452512
convnext_large,1,220,NaN,bicycle,bicycle,NaN,bicycle7-cat1.png,bicycle7-cat1.png,1.0,5.5878263,3.01872,1.8166325
convnext_large,1,221,NaN,clock,bicycle,NaN,bicycle7-clock3.png,bicycle7-clock3.png,0.0,1.7129892,5.074011,-2.3766012
convnext_large,1,222,NaN,elephant,bicycle,NaN,bicycle7-elephant2.png,bicycle7-elephant2.png,0.0,1.7048312,6.393615,-3.3154707
convnext_large,1,223,NaN,knife,bicycle,NaN,bicycle7-knife2.png,bicycle7-knife2.png,0.0,3.6849928,3.756586,-0.0506241
convnext_large,1,224,NaN,bicycle,bicycle,NaN,bicycle7-oven1.png,bicycle7-oven1.png,1.0,3.290222,1.8089424,1.0474228
convnext_large,1,225,NaN,bottle,bicycle,NaN,bicycle7-truck3.png,bicycle7-truck3.png,0.0,-0.005167246,1.8174301,-1.288771
convnext_large,1,226,NaN,bicycle,bicycle,NaN,bicycle8-bear2.png,bicycle8-bear2.png,1.0,4.714228,2.1908872,1.7842715
convnext_large,1,227,NaN,bicycle,bicycle,NaN,bicycle8-bird2.png,bicycle8-bird2.png,1.0,4.9887238,1.6689152,2.347459
convnext_large,1,228,NaN,bicycle,bicycle,NaN,bicycle8-boat1.png,bicycle8-boat1.png,1.0,5.543083,2.5102968,2.1445038
convnext_large,1,229,NaN,bicycle,bicycle,NaN,bicycle8-chair2.png,bicycle8-chair2.png,1.0,2.8575637,1.4290036,1.0101446
convnext_large,1,230,NaN,clock,bicycle,NaN,bicycle8-clock3.png,bicycle8-clock3.png,0.0,1.7210908,5.2755117,-2.5133553
convnext_large,1,231,NaN,car,bicycle,NaN,bicycle8-truck1.png,bicycle8-truck1.png,0.0,2.8429303,3.6257436,-0.5535326
convnext_large,1,232,NaN,clock,bicycle,NaN,bicycle9-airplane2.png,bicycle9-airplane2.png,0.0,0.9372201,2.6138196,-1.185535
convnext_large,1,233,NaN,cat,bicycle,NaN,bicycle9-bear1.png,bicycle9-bear1.png,0.0,0.37479213,2.6286364,-1.5937086
convnext_large,1,234,NaN,clock,bicycle,NaN,bicycle9-bird3.png,bicycle9-bird3.png,0.0,1.2325482,1.5779892,-0.24426366
convnext_large,1,235,NaN,bottle,bicycle,NaN,bicycle9-bottle1.png,bicycle9-bottle1.png,0.0,0.6127808,2.1846387,-1.1114714
convnext_large,1,236,NaN,clock,bicycle,NaN,bicycle9-car1.png,bicycle9-car1.png,0.0,1.0055588,1.7230796,-0.5073638
convnext_large,1,237,NaN,cat,bicycle,NaN,bicycle9-cat3.png,bicycle9-cat3.png,0.0,2.281598,3.794139,-1.0695279
convnext_large,1,238,NaN,car,bicycle,NaN,bicycle9-chair1.png,bicycle9-chair1.png,0.0,1.8237026,3.4980543,-1.1839454
convnext_large,1,239,NaN,clock,bicycle,NaN,bicycle9-keyboard3.png,bicycle9-keyboard3.png,0.0,-1.0223196,2.4148543,-2.430449
convnext_large,1,240,NaN,clock,bicycle,NaN,bicycle9-knife3.png,bicycle9-knife3.png,0.0,-0.48319513,2.4774592,-2.0934987
convnext_large,1,241,NaN,bottle,bird,NaN,bird1-airplane2.png,bird1-airplane2.png,0.0,-0.27072313,1.5886457,-1.3147724
convnext_large,1,242,NaN,elephant,bird,NaN,bird1-bear1.png,bird1-bear1.png,0.0,-0.27052334,4.5974207,-3.4421566
convnext_large,1,243,NaN,bicycle,bird,NaN,bird1-bicycle2.png,bird1-bicycle2.png,0.0,-0.100576684,1.9433153,-1.4452498
convnext_large,1,244,NaN,boat,bird,NaN,bird1-boat1.png,bird1-boat1.png,0.0,-0.31101173,2.4043775,-1.9200702
convnext_large,1,245,NaN,chair,bird,NaN,bird1-chair2.png,bird1-chair2.png,0.0,-0.5285986,1.0753565,-1.1341676
convnext_large,1,246,NaN,clock,bird,NaN,bird1-clock3.png,bird1-clock3.png,0.0,0.27189282,4.2677994,-2.8255327
convnext_large,1,247,NaN,elephant,bird,NaN,bird1-elephant2.png,bird1-elephant2.png,0.0,-0.024716511,7.107058,-5.0429263
convnext_large,1,248,NaN,knife,bird,NaN,bird1-keyboard3.png,bird1-keyboard3.png,0.0,-0.6981751,5.7987976,-4.5940533
convnext_large,1,249,NaN,knife,bird,NaN,bird1-knife3.png,bird1-knife3.png,0.0,-0.59280777,3.5108662,-2.9017358
convnext_large,1,250,NaN,oven,bird,NaN,bird1-oven1.png,bird1-oven1.png,0.0,0.37710428,2.7848046,-1.7025013
convnext_large,1,251,NaN,bottle,bird,NaN,bird1-truck1.png,bird1-truck1.png,0.0,-0.73615867,1.6707656,-1.7019525
convnext_large,1,252,NaN,bear,bird,NaN,bird10-bear2.png,bird10-bear2.png,0.0,0.39343876,2.63206,-1.5829443
convnext_large,1,253,NaN,bicycle,bird,NaN,bird10-bicycle1.png,bird10-bicycle1.png,0.0,0.0038563414,1.7327392,-1.2225049
convnext_large,1,254,NaN,bird,bird,NaN,bird10-bird2.png,bird10-bird2.png,1.0,2.240993,1.1182822,0.79387647
convnext_large,1,255,NaN,cat,bird,NaN,bird10-cat1.png,bird10-cat1.png,0.0,-0.3814158,2.230985,-1.8472463
convnext_large,1,256,NaN,airplane,bird,NaN,bird10-chair1.png,bird10-chair1.png,0.0,0.058660794,3.8107424,-2.6531224
convnext_large,1,257,NaN,clock,bird,NaN,bird10-clock1.png,bird10-clock1.png,0.0,-0.30435288,4.1732154,-3.1661189
convnext_large,1,258,NaN,elephant,bird,NaN,bird10-elephant2.png,bird10-elephant2.png,0.0,-0.0071055777,6.764823,-4.7884765
convnext_large,1,259,NaN,airplane,bird,NaN,bird2-airplane3.png,bird2-airplane3.png,0.0,-0.1754202,3.4021077,-2.5296943
convnext_large,1,260,NaN,bird,bird,NaN,bird2-bird2.png,bird2-bird2.png,1.0,2.1243289,1.2219174,0.6381013
convnext_large,1,261,NaN,car,bird,NaN,bird2-car3.png,bird2-car3.png,0.0,-0.2606604,3.8859127,-2.93207
convnext_large,1,262,NaN,clock,bird,NaN,bird2-clock3.png,bird2-clock3.png,0.0,0.054841343,3.3108737,-2.3023627
convnext_large,1,263,NaN,dog,bird,NaN,bird2-dog2.png,bird2-dog2.png,0.0,0.28330496,0.84499013,-0.39717144
convnext_large,1,264,NaN,knife,bird,NaN,bird2-knife1.png,bird2-knife1.png,0.0,-0.24091074,3.8210378,-2.8722312
convnext_large,1,265,NaN,bear,bird,NaN,bird3-bear3.png,bird3-bear3.png,0.0,0.099820316,3.218055,-2.2049248
convnext_large,1,266,NaN,bird,bird,NaN,bird3-bird2.png,bird3-bird2.png,1.0,2.2071612,0.43699408,1.2516972
convnext_large,1,267,NaN,boat,bird,NaN,bird3-boat3.png,bird3-boat3.png,0.0,-0.8203852,1.6685889,-1.7599705
convnext_large,1,268,NaN,bottle,bird,NaN,bird3-bottle2.png,bird3-bottle2.png,0.0,-0.2485098,3.010244,-2.304287
convnext_large,1,269,NaN,cat,bird,NaN,bird3-cat1.png,bird3-cat1.png,0.0,0.22551055,1.3541566,-0.7980733
convnext_large,1,270,NaN,bear,bird,NaN,bird3-dog1.png,bird3-dog1.png,0.0,-0.58154,2.9173088,-2.4740598
convnext_large,1,271,NaN,knife,bird,NaN,bird3-knife3.png,bird3-knife3.png,0.0,-0.18475372,4.083572,-3.0181623
convnext_large,1,272,NaN,oven,bird,NaN,bird3-oven1.png,bird3-oven1.png,0.0,-0.065476924,2.5098076,-1.8210012
convnext_large,1,273,NaN,keyboard,bird,NaN,bird3-truck3.png,bird3-truck3.png,0.0,-0.28801247,1.3422765,-1.1527884
convnext_large,1,274,NaN,knife,bird,NaN,bird4-airplane1.png,bird4-airplane1.png,0.0,-0.23657945,3.0599058,-2.3309672
convnext_large,1,275,NaN,bicycle,bird,NaN,bird4-bicycle2.png,bird4-bicycle2.png,0.0,-0.30745277,2.1015625,-1.703431
convnext_large,1,276,NaN,cat,bird,NaN,bird4-cat3.png,bird4-cat3.png,0.0,-0.51215464,1.3796929,-1.3377383
convnext_large,1,277,NaN,clock,bird,NaN,bird4-clock1.png,bird4-clock1.png,0.0,-0.29016697,5.109321,-3.8180146
convnext_large,1,278,NaN,dog,bird,NaN,bird4-dog3.png,bird4-dog3.png,0.0,-0.21591264,0.9648755,-0.83494335
convnext_large,1,279,NaN,airplane,bird,NaN,bird5-airplane3.png,bird5-airplane3.png,0.0,-0.037006404,5.242732,-3.7333388
convnext_large,1,280,NaN,elephant,bird,NaN,bird5-bear3.png,bird5-bear3.png,0.0,1.403946,3.1803734,-1.2561239
convnext_large,1,281,NaN,bicycle,bird,NaN,bird5-bicycle1.png,bird5-bicycle1.png,0.0,-0.08201075,2.3227386,-1.7004147
convnext_large,1,282,NaN,bird,bird,NaN,bird5-bird1.png,bird5-bird1.png,1.0,1.9406576,1.88941,0.036237523
convnext_large,1,283,NaN,car,bird,NaN,bird5-car2.png,bird5-car2.png,0.0,-0.31596175,1.7825731,-1.4838883
convnext_large,1,284,NaN,cat,bird,NaN,bird5-cat2.png,bird5-cat2.png,0.0,0.29792503,1.682896,-0.97932243
convnext_large,1,285,NaN,car,bird,NaN,bird5-chair1.png,bird5-chair1.png,0.0,-0.06257721,4.2833786,-3.0730548
convnext_large,1,286,NaN,cat,bird,NaN,bird5-dog2.png,bird5-dog2.png,0.0,0.7185574,1.6749468,-0.6762694
convnext_large,1,287,NaN,knife,bird,NaN,bird5-keyboard2.png,bird5-keyboard2.png,0.0,-0.34763855,2.8762214,-2.2796133
convnext_large,1,288,NaN,keyboard,bird,NaN,bird5-oven3.png,bird5-oven3.png,0.0,0.2831374,2.3634932,-1.4710338
convnext_large,1,289,NaN,truck,bird,NaN,bird5-truck2.png,bird5-truck2.png,0.0,-0.2219876,2.9906447,-2.2716742
convnext_large,1,290,NaN,knife,bird,NaN,bird6-airplane2.png,bird6-airplane2.png,0.0,-0.5277369,1.5971159,-1.5024978
convnext_large,1,291,NaN,boat,bird,NaN,bird6-boat2.png,bird6-boat2.png,0.0,-0.1740479,2.4716787,-1.8708113
convnext_large,1,292,NaN,bottle,bird,NaN,bird6-bottle3.png,bird6-bottle3.png,0.0,-0.12352389,3.7288454,-2.7240365
convnext_large,1,293,NaN,car,bird,NaN,bird6-car3.png,bird6-car3.png,0.0,-0.17823924,5.627333,-4.1051598
convnext_large,1,294,NaN,elephant,bird,NaN,bird6-elephant2.png,bird6-elephant2.png,0.0,-0.091624156,7.1586447,-5.126714
convnext_large,1,295,NaN,knife,bird,NaN,bird6-oven1.png,bird6-oven1.png,0.0,-0.33876467,3.2570972,-2.5426583
convnext_large,1,296,NaN,car,bird,NaN,bird6-truck2.png,bird6-truck2.png,0.0,0.04107138,3.3424351,-2.3344166
convnext_large,1,297,NaN,cat,bird,NaN,bird7-bird2.png,bird7-bird2.png,0.0,1.0222397,1.358327,-0.23764965
convnext_large,1,298,NaN,boat,bird,NaN,bird7-boat1.png,bird7-boat1.png,0.0,-0.8554,2.9471648,-2.6888194
convnext_large,1,299,NaN,bottle,bird,NaN,bird7-bottle1.png,bird7-bottle1.png,0.0,-0.16632189,3.7759144,-2.7875822
convnext_large,1,300,NaN,clock,bird,NaN,bird7-car2.png,bird7-car2.png,0.0,-0.3794647,1.2424426,-1.1468617
convnext_large,1,301,NaN,oven,bird,NaN,bird7-cat3.png,bird7-cat3.png,0.0,-0.62269616,1.5057297,-1.5050243
convnext_large,1,302,NaN,keyboard,bird,NaN,bird7-keyboard3.png,bird7-keyboard3.png,0.0,-0.78713477,3.519831,-3.0454848
convnext_large,1,303,NaN,knife,bird,NaN,bird7-knife2.png,bird7-knife2.png,0.0,0.30375284,3.1006975,-1.9777385
convnext_large,1,304,NaN,oven,bird,NaN,bird7-oven3.png,bird7-oven3.png,0.0,0.13894458,1.6248847,-1.0507183
convnext_large,1,305,NaN,truck,bird,NaN,bird7-truck2.png,bird7-truck2.png,0.0,-0.019989628,2.4515305,-1.7476287
convnext_large,1,306,NaN,boat,bird,NaN,bird8-boat3.png,bird8-boat3.png,0.0,-0.30630046,2.2793517,-1.8283322
convnext_large,1,307,NaN,bottle,bird,NaN,bird8-bottle1.png,bird8-bottle1.png,0.0,-0.17472892,3.3750684,-2.5100858
convnext_large,1,308,NaN,clock,bird,NaN,bird8-car2.png,bird8-car2.png,0.0,-0.074841134,0.9220106,-0.70488065
convnext_large,1,309,NaN,car,bird,NaN,bird8-chair1.png,bird8-chair1.png,0.0,0.19370224,4.3090396,-2.909983
convnext_large,1,310,NaN,clock,bird,NaN,bird8-clock1.png,bird8-clock1.png,0.0,-0.6643422,5.5986257,-4.4285874
convnext_large,1,311,NaN,elephant,bird,NaN,bird8-elephant1.png,bird8-elephant1.png,0.0,0.060796246,6.8863344,-4.8263845
convnext_large,1,312,NaN,keyboard,bird,NaN,bird8-keyboard2.png,bird8-keyboard2.png,0.0,-0.24644578,3.5435667,-2.6799436
convnext_large,1,313,NaN,knife,bird,NaN,bird8-knife2.png,bird8-knife2.png,0.0,1.2033836,4.0921016,-2.042632
convnext_large,1,314,NaN,bear,bird,NaN,bird9-bear3.png,bird9-bear3.png,0.0,0.19882303,3.3867767,-2.2542238
convnext_large,1,315,NaN,bottle,bird,NaN,bird9-bicycle3.png,bird9-bicycle3.png,0.0,0.2975573,1.311887,-0.7172394
convnext_large,1,316,NaN,bottle,bird,NaN,bird9-bottle3.png,bird9-bottle3.png,0.0,0.31390554,3.9512918,-2.5720205
convnext_large,1,317,NaN,car,bird,NaN,bird9-chair1.png,bird9-chair1.png,0.0,0.22598796,2.9350414,-1.9155902
convnext_large,1,318,NaN,dog,bird,NaN,bird9-dog2.png,bird9-dog2.png,0.0,0.78096586,1.3937159,-0.4332797
convnext_large,1,319,NaN,elephant,bird,NaN,bird9-elephant2.png,bird9-elephant2.png,0.0,0.021649744,7.0776825,-4.9893684
convnext_large,1,320,NaN,keyboard,bird,NaN,bird9-keyboard1.png,bird9-keyboard1.png,0.0,0.78689736,1.9468815,-0.8202326
convnext_large,1,321,NaN,bear,boat,NaN,boat1-bear1.png,boat1-bear1.png,0.0,-0.1254786,3.3954043,-2.4896402
convnext_large,1,322,NaN,bicycle,boat,NaN,boat1-bicycle2.png,boat1-bicycle2.png,0.0,-0.8952295,0.94587344,-1.3018564
convnext_large,1,323,NaN,bird,boat,NaN,boat1-bird3.png,boat1-bird3.png,0.0,-0.72519255,1.9234896,-1.8729011
convnext_large,1,324,NaN,car,boat,NaN,boat1-car2.png,boat1-car2.png,0.0,-0.5586359,2.2015657,-1.9517573
convnext_large,1,325,NaN,airplane,boat,NaN,boat1-chair3.png,boat1-chair3.png,0.0,0.06893386,3.4814827,-2.4130363
convnext_large,1,326,NaN,elephant,boat,NaN,boat1-elephant3.png,boat1-elephant3.png,0.0,-0.04403449,7.863492,-5.5914655
convnext_large,1,327,NaN,knife,boat,NaN,boat1-keyboard3.png,boat1-keyboard3.png,0.0,-0.54753387,4.4359894,-3.5238833
convnext_large,1,328,NaN,oven,boat,NaN,boat1-oven1.png,boat1-oven1.png,0.0,0.21014006,2.6700146,-1.7393941
convnext_large,1,329,NaN,car,boat,NaN,boat1-truck3.png,boat1-truck3.png,0.0,-0.54179066,4.1517806,-3.318856
convnext_large,1,330,NaN,bear,boat,NaN,boat10-bear3.png,boat10-bear3.png,0.0,-0.57670957,2.2614264,-2.0068653
convnext_large,1,331,NaN,car,boat,NaN,boat10-boat3.png,boat10-boat3.png,0.0,0.76401067,2.611972,-1.3067061
convnext_large,1,332,NaN,cat,boat,NaN,boat10-cat1.png,boat10-cat1.png,0.0,-0.72871625,3.3903427,-2.9126146
convnext_large,1,333,NaN,clock,boat,NaN,boat10-oven1.png,boat10-oven1.png,0.0,-0.07553662,1.7753929,-1.3088049
convnext_large,1,334,NaN,car,boat,NaN,boat10-truck1.png,boat10-truck1.png,0.0,0.0074638007,3.4063275,-2.4033597
convnext_large,1,335,NaN,clock,boat,NaN,boat2-airplane1.png,boat2-airplane1.png,0.0,1.8147055,2.9436817,-0.79830676
convnext_large,1,336,NaN,elephant,boat,NaN,boat2-bear3.png,boat2-bear3.png,0.0,-0.48047218,3.3855698,-2.7337046
convnext_large,1,337,NaN,bird,boat,NaN,boat2-bird1.png,boat2-bird1.png,0.0,0.36604998,1.7101078,-0.9503924
convnext_large,1,338,NaN,bottle,boat,NaN,boat2-bottle2.png,boat2-bottle2.png,0.0,-0.14212282,2.1456244,-1.6176815
convnext_large,1,339,NaN,keyboard,boat,NaN,boat2-keyboard1.png,boat2-keyboard1.png,0.0,-0.611096,4.8273864,-3.8455877
convnext_large,1,340,NaN,keyboard,boat,NaN,boat2-oven3.png,boat2-oven3.png,0.0,-0.07994782,2.6859722,-1.9558008
convnext_large,1,341,NaN,car,boat,NaN,boat3-airplane2.png,boat3-airplane2.png,0.0,0.4922666,3.3704941,-2.0352142
convnext_large,1,342,NaN,bicycle,boat,NaN,boat3-bicycle2.png,boat3-bicycle2.png,0.0,-0.7384847,0.9841198,-1.2180654
convnext_large,1,343,NaN,car,boat,NaN,boat3-car3.png,boat3-car3.png,0.0,0.56041986,4.921655,-3.083859
convnext_large,1,344,NaN,cat,boat,NaN,boat3-cat3.png,boat3-cat3.png,0.0,-0.5584116,2.3835459,-2.0802782
convnext_large,1,345,NaN,airplane,boat,NaN,boat3-chair3.png,boat3-chair3.png,0.0,0.093968466,2.2841442,-1.5486882
convnext_large,1,346,NaN,clock,boat,NaN,boat3-clock3.png,boat3-clock3.png,0.0,-0.41832677,4.852266,-3.726872
convnext_large,1,347,NaN,oven,boat,NaN,boat3-dog3.png,boat3-dog3.png,0.0,-0.5805115,0.6790793,-0.89066523
convnext_large,1,348,NaN,keyboard,boat,NaN,boat3-keyboard2.png,boat3-keyboard2.png,0.0,-0.30851558,4.6447983,-3.5025218
convnext_large,1,349,NaN,chair,boat,NaN,boat4-bicycle3.png,boat4-bicycle3.png,0.0,-0.8349508,0.8913826,-1.220702
convnext_large,1,350,NaN,bird,boat,NaN,boat4-bird1.png,boat4-bird1.png,0.0,-0.6280309,1.3682963,-1.4116164
convnext_large,1,351,NaN,boat,boat,NaN,boat4-boat3.png,boat4-boat3.png,1.0,1.3016872,1.0453126,0.18128422
convnext_large,1,352,NaN,bottle,boat,NaN,boat4-bottle2.png,boat4-bottle2.png,0.0,0.067329824,2.6856537,-1.8514346
convnext_large,1,353,NaN,car,boat,NaN,boat4-car3.png,boat4-car3.png,0.0,0.6133808,5.6088147,-3.5323052
convnext_large,1,354,NaN,keyboard,boat,NaN,boat4-chair2.png,boat4-chair2.png,0.0,-0.27155852,1.7535198,-1.4319466
convnext_large,1,355,NaN,knife,boat,NaN,boat4-dog2.png,boat4-dog2.png,0.0,-1.3129044,1.5263264,-2.0076394
convnext_large,1,356,NaN,elephant,boat,NaN,boat4-elephant2.png,boat4-elephant2.png,0.0,-0.1389291,6.8991375,-4.9766645
convnext_large,1,357,NaN,knife,boat,NaN,boat4-knife2.png,boat4-knife2.png,0.0,-0.092926174,6.277299,-4.5044293
convnext_large,1,358,NaN,airplane,boat,NaN,boat5-airplane1.png,boat5-airplane1.png,0.0,1.411254,3.3654919,-1.3818549
convnext_large,1,359,NaN,bicycle,boat,NaN,boat5-bicycle3.png,boat5-bicycle3.png,0.0,-0.31684566,2.1350224,-1.7337326
convnext_large,1,360,NaN,knife,boat,NaN,boat5-boat3.png,boat5-boat3.png,0.0,-0.12322279,1.195533,-0.93250126
convnext_large,1,361,NaN,car,boat,NaN,boat5-car3.png,boat5-car3.png,0.0,0.68419296,4.497069,-2.6961105
convnext_large,1,362,NaN,clock,boat,NaN,boat5-clock3.png,boat5-clock3.png,0.0,-0.53560406,4.234736,-3.3731399
convnext_large,1,363,NaN,knife,boat,NaN,boat5-knife2.png,boat5-knife2.png,0.0,0.8828335,1.7121488,-0.58641446
convnext_large,1,364,NaN,car,boat,NaN,boat6-airplane2.png,boat6-airplane2.png,0.0,1.2287474,3.1798508,-1.3796386
convnext_large,1,365,NaN,bear,boat,NaN,boat6-bear1.png,boat6-bear1.png,0.0,-0.22939186,3.6453283,-2.739841
convnext_large,1,366,NaN,bicycle,boat,NaN,boat6-bicycle2.png,boat6-bicycle2.png,0.0,-0.74173987,3.7987494,-3.2106109
convnext_large,1,367,NaN,bottle,boat,NaN,boat6-bottle2.png,boat6-bottle2.png,0.0,0.05543352,3.2859366,-2.2843106
convnext_large,1,368,NaN,clock,boat,NaN,boat6-car1.png,boat6-car1.png,0.0,0.38981527,0.73966765,-0.247383
convnext_large,1,369,NaN,cat,boat,NaN,boat6-cat1.png,boat6-cat1.png,0.0,-0.37281513,0.82948184,-0.8501524
convnext_large,1,370,NaN,bottle,boat,NaN,boat6-clock2.png,boat6-clock2.png,0.0,-0.06729468,1.9740945,-1.4434801
convnext_large,1,371,NaN,bear,boat,NaN,boat6-dog1.png,boat6-dog1.png,0.0,-0.2718827,2.2936332,-1.8140938
convnext_large,1,372,NaN,elephant,boat,NaN,boat6-elephant2.png,boat6-elephant2.png,0.0,-0.03551658,6.9765415,-4.958274
convnext_large,1,373,NaN,knife,boat,NaN,boat6-knife2.png,boat6-knife2.png,0.0,0.5470889,3.7329898,-2.252772
convnext_large,1,374,NaN,bottle,boat,NaN,boat6-truck3.png,boat6-truck3.png,0.0,0.39338973,2.562592,-1.5338577
convnext_large,1,375,NaN,boat,boat,NaN,boat7-boat2.png,boat7-boat2.png,1.0,3.2236435,0.9992331,1.5728958
convnext_large,1,376,NaN,bottle,boat,NaN,boat7-bottle1.png,boat7-bottle1.png,0.0,-0.20704773,3.2064264,-2.4136908
convnext_large,1,377,NaN,cat,boat,NaN,boat7-cat3.png,boat7-cat3.png,0.0,-0.7592274,1.0379034,-1.2707634
convnext_large,1,378,NaN,car,boat,NaN,boat7-chair1.png,boat7-chair1.png,0.0,0.4308513,3.786445,-2.3727632
convnext_large,1,379,NaN,clock,boat,NaN,boat7-clock3.png,boat7-clock3.png,0.0,-1.0500135,3.7189753,-3.3721843
convnext_large,1,380,NaN,elephant,boat,NaN,boat7-elephant3.png,boat7-elephant3.png,0.0,-0.20649493,7.791508,-5.655442
convnext_large,1,381,NaN,keyboard,boat,NaN,boat7-keyboard3.png,boat7-keyboard3.png,0.0,-0.26251036,1.6678164,-1.3649471
convnext_large,1,382,NaN,keyboard,boat,NaN,boat7-oven3.png,boat7-oven3.png,0.0,-0.6256521,1.4261942,-1.4508744
convnext_large,1,383,NaN,car,boat,NaN,boat7-truck2.png,boat7-truck2.png,0.0,0.03310345,2.807214,-1.9615924
convnext_large,1,384,NaN,knife,boat,NaN,boat8-bird2.png,boat8-bird2.png,0.0,0.016714334,1.1646204,-0.8116922
convnext_large,1,385,NaN,bottle,boat,NaN,boat8-bottle1.png,boat8-bottle1.png,0.0,-0.5638896,3.8436694,-3.1166148
convnext_large,1,386,NaN,knife,boat,NaN,boat8-dog3.png,boat8-dog3.png,0.0,-0.49633494,1.2628939,-1.2439626
convnext_large,1,387,NaN,elephant,boat,NaN,boat8-elephant1.png,boat8-elephant1.png,0.0,-0.10362427,7.649122,-5.48202
convnext_large,1,388,NaN,knife,boat,NaN,boat8-knife1.png,boat8-knife1.png,0.0,-0.7474933,2.7984138,-2.507335
convnext_large,1,389,NaN,oven,boat,NaN,boat8-oven1.png,boat8-oven1.png,0.0,1.2792852,2.8817997,-1.1331489
convnext_large,1,390,NaN,car,boat,NaN,boat8-truck2.png,boat8-truck2.png,0.0,0.20762014,3.5355234,-2.353183
convnext_large,1,391,NaN,keyboard,boat,NaN,boat9-airplane2.png,boat9-airplane2.png,0.0,1.1768609,2.3237715,-0.81098825
convnext_large,1,392,NaN,elephant,boat,NaN,boat9-bear3.png,boat9-bear3.png,0.0,0.13162914,2.7772942,-1.8707676
convnext_large,1,393,NaN,cat,boat,NaN,boat9-bird1.png,boat9-bird1.png,0.0,0.2228996,1.6397581,-1.0018703
convnext_large,1,394,NaN,chair,boat,NaN,boat9-boat3.png,boat9-boat3.png,0.0,0.071090534,0.5890794,-0.36627343
convnext_large,1,395,NaN,cat,boat,NaN,boat9-cat3.png,boat9-cat3.png,0.0,0.110444285,2.4404504,-1.6475631
convnext_large,1,396,NaN,airplane,boat,NaN,boat9-chair2.png,boat9-chair2.png,0.0,-0.31399208,1.2617774,-1.1142373
convnext_large,1,397,NaN,clock,boat,NaN,boat9-clock1.png,boat9-clock1.png,0.0,-0.2442197,3.3534062,-2.5439057
convnext_large,1,398,NaN,cat,boat,NaN,boat9-dog2.png,boat9-dog2.png,0.0,-0.97556704,1.8249367,-1.9802552
convnext_large,1,399,NaN,keyboard,boat,NaN,boat9-keyboard2.png,boat9-keyboard2.png,0.0,-0.36550102,4.983633,-3.782409
convnext_large,1,400,NaN,knife,boat,NaN,boat9-knife2.png,boat9-knife2.png,0.0,-0.5053904,4.3603053,-3.4405668
convnext_large,1,401,NaN,bear,bottle,NaN,bottle1-bear1.png,bottle1-bear1.png,0.0,0.44728336,3.1811354,-1.9331254
convnext_large,1,402,NaN,bottle,bottle,NaN,bottle1-bird3.png,bottle1-bird3.png,1.0,2.2656355,0.28264937,1.4021829
convnext_large,1,403,NaN,car,bottle,NaN,bottle1-car1.png,bottle1-car1.png,0.0,-0.08786021,0.49565768,-0.4126095
convnext_large,1,404,NaN,bottle,bottle,NaN,bottle1-cat3.png,bottle1-cat3.png,1.0,3.7065485,2.8919175,0.5760311
convnext_large,1,405,NaN,oven,bottle,NaN,bottle1-chair2.png,bottle1-chair2.png,0.0,1.0123276,1.6475502,-0.44917026
convnext_large,1,406,NaN,bottle,bottle,NaN,bottle1-clock1.png,bottle1-clock1.png,1.0,2.4318118,1.9851757,0.3158194
convnext_large,1,407,NaN,bottle,bottle,NaN,bottle1-dog2.png,bottle1-dog2.png,1.0,2.586534,1.5296094,0.74735856
convnext_large,1,408,NaN,bottle,bottle,NaN,bottle1-keyboard3.png,bottle1-keyboard3.png,1.0,1.9037092,1.3500599,0.39148918
convnext_large,1,409,NaN,bottle,bottle,NaN,bottle10-bear2.png,bottle10-bear2.png,1.0,3.8017726,3.359454,0.31276655
convnext_large,1,410,NaN,bottle,bottle,NaN,bottle10-boat3.png,bottle10-boat3.png,1.0,3.1189408,1.070822,1.4482387
convnext_large,1,411,NaN,bottle,bottle,NaN,bottle10-car1.png,bottle10-car1.png,1.0,1.9020007,0.22660255,1.1846853
convnext_large,1,412,NaN,bottle,bottle,NaN,bottle10-clock2.png,bottle10-clock2.png,1.0,3.661246,2.4968,0.82338774
convnext_large,1,413,NaN,bear,bottle,NaN,bottle10-dog1.png,bottle10-dog1.png,0.0,0.45500666,0.8320912,-0.26663905
convnext_large,1,414,NaN,bottle,bottle,NaN,bottle10-truck3.png,bottle10-truck3.png,1.0,4.857066,0.40758175,3.1462605
convnext_large,1,415,NaN,bottle,bottle,NaN,bottle2-bottle3.png,bottle2-bottle3.png,1.0,3.265877,0.5303826,1.9342867
convnext_large,1,416,NaN,clock,bottle,NaN,bottle2-car2.png,bottle2-car2.png,0.0,-0.6270836,0.6192474,-0.8812891
convnext_large,1,417,NaN,chair,bottle,NaN,bottle2-chair3.png,bottle2-chair3.png,0.0,0.55607694,1.5670518,-0.71486723
convnext_large,1,418,NaN,clock,bottle,NaN,bottle2-clock1.png,bottle2-clock1.png,0.0,2.9674907,4.949093,-1.4012043
convnext_large,1,419,NaN,elephant,bottle,NaN,bottle2-elephant1.png,bottle2-elephant1.png,0.0,0.0048671877,6.8920965,-4.8700066
convnext_large,1,420,NaN,bottle,bottle,NaN,bottle2-knife3.png,bottle2-knife3.png,1.0,3.1691518,2.6534436,0.36466077
convnext_large,1,421,NaN,bottle,bottle,NaN,bottle3-airplane2.png,bottle3-airplane2.png,1.0,2.915016,0.66081256,1.5939624
convnext_large,1,422,NaN,bottle,bottle,NaN,bottle3-bear2.png,bottle3-bear2.png,1.0,2.9599597,2.7210987,0.1689003
convnext_large,1,423,NaN,bottle,bottle,NaN,bottle3-bicycle3.png,bottle3-bicycle3.png,1.0,2.9010386,1.4435489,1.0306009
convnext_large,1,424,NaN,bottle,bottle,NaN,bottle3-bird1.png,bottle3-bird1.png,1.0,1.7743415,1.2709495,0.35595188
convnext_large,1,425,NaN,bottle,bottle,NaN,bottle3-boat3.png,bottle3-boat3.png,1.0,1.9031613,0.74495506,0.8189755
convnext_large,1,426,NaN,bottle,bottle,NaN,bottle3-bottle3.png,bottle3-bottle3.png,1.0,3.6086643,0.45972657,2.2266352
convnext_large,1,427,NaN,bottle,bottle,NaN,bottle3-cat3.png,bottle3-cat3.png,1.0,2.5281587,1.5837201,0.6678189
convnext_large,1,428,NaN,airplane,bottle,NaN,bottle3-chair3.png,bottle3-chair3.png,0.0,0.32375675,1.7464457,-1.005993
convnext_large,1,429,NaN,knife,bottle,NaN,bottle3-knife3.png,bottle3-knife3.png,0.0,2.8960268,4.183612,-0.9104601
convnext_large,1,430,NaN,airplane,bottle,NaN,bottle4-airplane1.png,bottle4-airplane1.png,0.0,0.7122308,3.592134,-2.0363991
convnext_large,1,431,NaN,bicycle,bottle,NaN,bottle4-bicycle1.png,bottle4-bicycle1.png,0.0,0.24217919,2.235408,-1.4094257
convnext_large,1,432,NaN,car,bottle,NaN,bottle4-car3.png,bottle4-car3.png,0.0,-0.23835015,4.713037,-3.5011597
convnext_large,1,433,NaN,bottle,bottle,NaN,bottle4-dog2.png,bottle4-dog2.png,1.0,2.9782155,1.2805859,1.2004054
convnext_large,1,434,NaN,bottle,bottle,NaN,bottle4-oven2.png,bottle4-oven2.png,1.0,2.9260008,2.0586843,0.61328536
convnext_large,1,435,NaN,bottle,bottle,NaN,bottle4-truck1.png,bottle4-truck1.png,1.0,3.1727507,0.827868,1.6580825
convnext_large,1,436,NaN,airplane,bottle,NaN,bottle5-airplane1.png,bottle5-airplane1.png,0.0,1.0033723,3.3173797,-1.6362503
convnext_large,1,437,NaN,bird,bottle,NaN,bottle5-bird3.png,bottle5-bird3.png,0.0,1.4080206,1.467508,-0.042063903
convnext_large,1,438,NaN,bottle,bottle,NaN,bottle5-boat1.png,bottle5-boat1.png,1.0,3.1465504,0.8413976,1.6299893
convnext_large,1,439,NaN,cat,bottle,NaN,bottle5-cat1.png,bottle5-cat1.png,0.0,1.0636421,1.6571585,-0.41967943
convnext_large,1,440,NaN,car,bottle,NaN,bottle5-chair1.png,bottle5-chair1.png,0.0,1.2882503,3.4942389,-1.5598694
convnext_large,1,441,NaN,clock,bottle,NaN,bottle5-clock3.png,bottle5-clock3.png,0.0,-0.011192722,1.9301653,-1.3727474
convnext_large,1,442,NaN,elephant,bottle,NaN,bottle5-elephant1.png,bottle5-elephant1.png,0.0,0.033025656,7.310004,-5.145601
convnext_large,1,443,NaN,keyboard,bottle,NaN,bottle5-keyboard2.png,bottle5-keyboard2.png,0.0,2.225706,2.7267134,-0.3542657
convnext_large,1,444,NaN,knife,bottle,NaN,bottle5-knife1.png,bottle5-knife1.png,0.0,2.0266693,2.7454371,-0.50824565
convnext_large,1,445,NaN,oven,bottle,NaN,bottle5-oven2.png,bottle5-oven2.png,0.0,2.5119483,3.4449387,-0.65972376
convnext_large,1,446,NaN,bottle,bottle,NaN,bottle5-truck1.png,bottle5-truck1.png,1.0,4.1180787,0.28329542,2.7116013
convnext_large,1,447,NaN,airplane,bottle,NaN,bottle6-airplane1.png,bottle6-airplane1.png,0.0,1.1932946,2.3002684,-0.7827487
convnext_large,1,448,NaN,bottle,bottle,NaN,bottle6-bear2.png,bottle6-bear2.png,1.0,2.965502,2.3114293,0.4624993
convnext_large,1,449,NaN,bottle,bottle,NaN,bottle6-bicycle3.png,bottle6-bicycle3.png,1.0,3.1291707,1.600232,1.0811229
convnext_large,1,450,NaN,bottle,bottle,NaN,bottle6-bird1.png,bottle6-bird1.png,1.0,2.4451401,0.9107098,1.0850061
convnext_large,1,451,NaN,clock,bottle,NaN,bottle6-boat3.png,bottle6-boat3.png,0.0,1.3164243,1.5120877,-0.13835496
convnext_large,1,452,NaN,bottle,bottle,NaN,bottle6-bottle3.png,bottle6-bottle3.png,1.0,3.8639195,0.31486222,2.5095625
convnext_large,1,453,NaN,chair,bottle,NaN,bottle6-chair2.png,bottle6-chair2.png,0.0,0.64319545,1.7735794,-0.79930216
convnext_large,1,454,NaN,dog,bottle,NaN,bottle6-dog3.png,bottle6-dog3.png,0.0,0.3550354,0.9821975,-0.44347057
convnext_large,1,455,NaN,knife,bottle,NaN,bottle6-knife3.png,bottle6-knife3.png,0.0,2.0394528,2.4273887,-0.2743121
convnext_large,1,456,NaN,oven,bottle,NaN,bottle6-oven3.png,bottle6-oven3.png,0.0,0.99967575,3.3851728,-1.6868012
convnext_large,1,457,NaN,knife,bottle,NaN,bottle7-airplane3.png,bottle7-airplane3.png,0.0,0.79166794,2.2278094,-1.0155054
convnext_large,1,458,NaN,bear,bottle,NaN,bottle7-bear1.png,bottle7-bear1.png,0.0,0.11654967,3.2983928,-2.2499027
convnext_large,1,459,NaN,keyboard,bottle,NaN,bottle7-boat3.png,bottle7-boat3.png,0.0,0.9022864,1.4899318,-0.41552806
convnext_large,1,460,NaN,cat,bottle,NaN,bottle7-cat2.png,bottle7-cat2.png,0.0,0.6983732,3.053592,-1.6653913
convnext_large,1,461,NaN,clock,bottle,NaN,bottle7-clock1.png,bottle7-clock1.png,0.0,1.9972788,4.5256243,-1.7878103
convnext_large,1,462,NaN,elephant,bottle,NaN,bottle7-elephant2.png,bottle7-elephant2.png,0.0,0.22389507,6.897082,-4.7186556
convnext_large,1,463,NaN,clock,bottle,NaN,bottle7-keyboard2.png,bottle7-keyboard2.png,0.0,1.5301743,2.8650587,-0.94390583
convnext_large,1,464,NaN,bottle,bottle,NaN,bottle7-oven2.png,bottle7-oven2.png,1.0,3.0613554,1.4854932,1.1143029
convnext_large,1,465,NaN,knife,bottle,NaN,bottle7-truck2.png,bottle7-truck2.png,0.0,0.30998045,2.0557842,-1.2344698
convnext_large,1,466,NaN,airplane,bottle,NaN,bottle8-bicycle1.png,bottle8-bicycle1.png,0.0,1.0487787,2.7867308,-1.2289177
convnext_large,1,467,NaN,bottle,bottle,NaN,bottle8-bird1.png,bottle8-bird1.png,1.0,2.6478791,1.6019301,0.7395976
convnext_large,1,468,NaN,bottle,bottle,NaN,bottle8-bottle3.png,bottle8-bottle3.png,1.0,3.1691704,0.47888523,1.902319
convnext_large,1,469,NaN,bottle,bottle,NaN,bottle8-dog2.png,bottle8-dog2.png,1.0,1.7777245,1.3643856,0.29227474
convnext_large,1,470,NaN,elephant,bottle,NaN,bottle8-elephant3.png,bottle8-elephant3.png,0.0,1.8232193,7.37324,-3.9244573
convnext_large,1,471,NaN,bottle,bottle,NaN,bottle8-keyboard3.png,bottle8-keyboard3.png,1.0,2.7365634,1.5547527,0.8356664
convnext_large,1,472,NaN,bottle,bottle,NaN,bottle8-knife1.png,bottle8-knife1.png,1.0,2.348713,0.48672047,1.3166275
convnext_large,1,473,NaN,bicycle,bottle,NaN,bottle9-bicycle1.png,bottle9-bicycle1.png,0.0,1.2117198,1.5710541,-0.25408775
convnext_large,1,474,NaN,bottle,bottle,NaN,bottle9-bottle1.png,bottle9-bottle1.png,1.0,3.0520637,0.7147763,1.6527119
convnext_large,1,475,NaN,car,bottle,NaN,bottle9-car3.png,bottle9-car3.png,0.0,0.4215799,4.0915604,-2.5950682
convnext_large,1,476,NaN,bottle,bottle,NaN,bottle9-cat2.png,bottle9-cat2.png,1.0,1.7530218,0.95634913,0.5633327
convnext_large,1,477,NaN,elephant,bottle,NaN,bottle9-elephant2.png,bottle9-elephant2.png,0.0,0.23396127,7.225932,-4.9440703
convnext_large,1,478,NaN,bottle,bottle,NaN,bottle9-keyboard1.png,bottle9-keyboard1.png,1.0,3.822847,1.3590302,1.7421815
convnext_large,1,479,NaN,bottle,bottle,NaN,bottle9-oven2.png,bottle9-oven2.png,1.0,2.7211988,1.9158517,0.5694664
convnext_large,1,480,NaN,bottle,bottle,NaN,bottle9-truck1.png,bottle9-truck1.png,1.0,2.8871284,0.6076242,1.611853
convnext_large,1,481,NaN,car,car,NaN,car1-airplane1.png,car1-airplane1.png,1.0,3.650357,2.853528,0.5634432
convnext_large,1,482,NaN,car,car,NaN,car1-car2.png,car1-car2.png,1.0,2.5500267,1.8036795,0.52774715
convnext_large,1,483,NaN,airplane,car,NaN,car1-chair3.png,car1-chair3.png,0.0,1.0010835,2.2228167,-0.86389583
convnext_large,1,484,NaN,clock,car,NaN,car1-clock2.png,car1-clock2.png,0.0,2.3031557,3.1912324,-0.62796515
convnext_large,1,485,NaN,dog,car,NaN,car1-dog2.png,car1-dog2.png,0.0,0.3598479,0.9904722,-0.4459187
convnext_large,1,486,NaN,keyboard,car,NaN,car1-keyboard2.png,car1-keyboard2.png,0.0,0.71277696,7.333813,-4.6817794
convnext_large,1,487,NaN,oven,car,NaN,car1-oven3.png,car1-oven3.png,0.0,-0.038354646,3.1180274,-2.2318993
convnext_large,1,488,NaN,bicycle,car,NaN,car10-bicycle2.png,car10-bicycle2.png,0.0,1.0999092,2.0028126,-0.63844913
convnext_large,1,489,NaN,bottle,car,NaN,car10-bottle3.png,car10-bottle3.png,0.0,0.32596973,3.6511824,-2.3512805
convnext_large,1,490,NaN,car,car,NaN,car10-car1.png,car10-car1.png,1.0,3.6711056,1.2942241,1.6807091
convnext_large,1,491,NaN,car,car,NaN,car10-chair1.png,car10-chair1.png,1.0,5.944866,1.547737,3.1092398
convnext_large,1,492,NaN,bear,car,NaN,car10-dog1.png,car10-dog1.png,0.0,-0.30275488,1.6455765,-1.3776784
convnext_large,1,493,NaN,elephant,car,NaN,car10-elephant2.png,car10-elephant2.png,0.0,-0.036265947,7.477351,-5.3129296
convnext_large,1,494,NaN,keyboard,car,NaN,car10-keyboard2.png,car10-keyboard2.png,0.0,0.16602947,4.4979873,-3.0631568
convnext_large,1,495,NaN,car,car,NaN,car2-bird3.png,car2-bird3.png,1.0,3.2076454,1.2395625,1.3916448
convnext_large,1,496,NaN,car,car,NaN,car2-car3.png,car2-car3.png,1.0,6.2440133,1.2241614,3.5495713
convnext_large,1,497,NaN,cat,car,NaN,car2-cat3.png,car2-cat3.png,0.0,-0.029869517,3.1565044,-2.2531066
convnext_large,1,498,NaN,car,car,NaN,car2-chair1.png,car2-chair1.png,1.0,4.9569664,0.8660704,2.8927004
convnext_large,1,499,NaN,knife,car,NaN,car2-knife3.png,car2-knife3.png,0.0,-0.33201352,6.21066,-4.626369
convnext_large,1,500,NaN,car,car,NaN,car3-airplane3.png,car3-airplane3.png,1.0,3.6985493,3.608079,0.063972175
convnext_large,1,501,NaN,car,car,NaN,car3-bird2.png,car3-bird2.png,1.0,3.4502146,1.158558,1.6204458
convnext_large,1,502,NaN,car,car,NaN,car3-boat1.png,car3-boat1.png,1.0,3.055856,1.9284503,0.7971962
convnext_large,1,503,NaN,bottle,car,NaN,car3-bottle3.png,car3-bottle3.png,0.0,0.4395589,3.6791484,-2.2907357
convnext_large,1,504,NaN,car,car,NaN,car3-dog2.png,car3-dog2.png,1.0,2.8416598,1.1244031,1.2142838
convnext_large,1,505,NaN,elephant,car,NaN,car3-elephant3.png,car3-elephant3.png,0.0,-0.10592172,6.407357,-4.6055837
convnext_large,1,506,NaN,oven,car,NaN,car3-oven3.png,car3-oven3.png,0.0,0.39225626,3.594169,-2.264094
convnext_large,1,507,NaN,car,car,NaN,car3-truck1.png,car3-truck1.png,1.0,5.049289,1.7018267,2.3670137
convnext_large,1,508,NaN,elephant,car,NaN,car4-bear3.png,car4-bear3.png,0.0,-0.45792553,2.5152795,-2.1023736
convnext_large,1,509,NaN,keyboard,car,NaN,car4-bicycle3.png,car4-bicycle3.png,0.0,0.4860586,1.6611757,-0.83093333
convnext_large,1,510,NaN,cat,car,NaN,car4-bird1.png,car4-bird1.png,0.0,0.2571303,0.9801822,-0.51127493
convnext_large,1,511,NaN,boat,car,NaN,car4-boat1.png,car4-boat1.png,0.0,1.4516042,3.953072,-1.7688048
convnext_large,1,512,NaN,bottle,car,NaN,car4-bottle1.png,car4-bottle1.png,0.0,0.07400682,3.0635796,-2.1139472
convnext_large,1,513,NaN,car,car,NaN,car4-car2.png,car4-car2.png,1.0,2.755289,1.29882,1.0298792
convnext_large,1,514,NaN,cat,car,NaN,car4-cat3.png,car4-cat3.png,0.0,-0.2841383,2.4666464,-1.9450985
convnext_large,1,515,NaN,clock,car,NaN,car4-clock1.png,car4-clock1.png,0.0,0.9810619,4.423334,-2.4340541
convnext_large,1,516,NaN,elephant,car,NaN,car4-elephant3.png,car4-elephant3.png,0.0,0.08063031,7.48799,-5.2377944
convnext_large,1,517,NaN,oven,car,NaN,car4-oven2.png,car4-oven2.png,0.0,0.4230547,4.958405,-3.2069771
convnext_large,1,518,NaN,car,car,NaN,car5-airplane3.png,car5-airplane3.png,1.0,5.931923,2.0640647,2.7349887
convnext_large,1,519,NaN,cat,car,NaN,car5-bear3.png,car5-bear3.png,0.0,-0.8482628,2.0590532,-2.0557828
convnext_large,1,520,NaN,bottle,car,NaN,car5-bottle1.png,car5-bottle1.png,0.0,0.23102224,2.8230073,-1.8328104
convnext_large,1,521,NaN,cat,car,NaN,car5-cat1.png,car5-cat1.png,0.0,2.2964027,2.6556122,-0.2539995
convnext_large,1,522,NaN,clock,car,NaN,car5-keyboard3.png,car5-keyboard3.png,0.0,0.6291287,2.623542,-1.4102633
convnext_large,1,523,NaN,truck,car,NaN,car5-knife2.png,car5-knife2.png,0.0,2.5907536,2.8613935,-0.1913713
convnext_large,1,524,NaN,car,car,NaN,car5-oven2.png,car5-oven2.png,1.0,2.2111802,1.4910226,0.50922835
convnext_large,1,525,NaN,truck,car,NaN,car5-truck3.png,car5-truck3.png,0.0,2.8477018,2.8879814,-0.028481998
convnext_large,1,526,NaN,cat,car,NaN,car6-bear1.png,car6-bear1.png,0.0,-0.010915667,2.5892878,-1.8386216
convnext_large,1,527,NaN,car,car,NaN,car6-bicycle3.png,car6-bicycle3.png,1.0,4.8424473,1.7523384,2.185037
convnext_large,1,528,NaN,car,car,NaN,car6-boat1.png,car6-boat1.png,1.0,4.510975,3.0221314,1.0527713
convnext_large,1,529,NaN,bottle,car,NaN,car6-bottle1.png,car6-bottle1.png,0.0,0.20921664,3.809811,-2.5460048
convnext_large,1,530,NaN,airplane,car,NaN,car6-chair3.png,car6-chair3.png,0.0,0.9521661,1.8352528,-0.6244366
convnext_large,1,531,NaN,elephant,car,NaN,car6-elephant3.png,car6-elephant3.png,0.0,-0.082040794,7.0108747,-5.0154486
convnext_large,1,532,NaN,car,car,NaN,car6-knife1.png,car6-knife1.png,1.0,3.2586792,1.3497398,1.349824
convnext_large,1,533,NaN,car,car,NaN,car6-truck3.png,car6-truck3.png,1.0,3.520398,2.2263513,0.91502917
convnext_large,1,534,NaN,car,car,NaN,car7-airplane2.png,car7-airplane2.png,1.0,4.784621,0.88074875,2.7604544
convnext_large,1,535,NaN,bear,car,NaN,car7-bear1.png,car7-bear1.png,0.0,-0.40441933,2.2162273,-1.853077
convnext_large,1,536,NaN,knife,car,NaN,car7-bird3.png,car7-bird3.png,0.0,1.9334222,2.1582942,-0.15900852
convnext_large,1,537,NaN,car,car,NaN,car7-boat3.png,car7-boat3.png,1.0,3.486592,2.31497,0.8284619
convnext_large,1,538,NaN,car,car,NaN,car7-car1.png,car7-car1.png,1.0,3.368988,1.040106,1.6467682
convnext_large,1,539,NaN,clock,car,NaN,car7-clock1.png,car7-clock1.png,0.0,-0.010491192,5.1983643,-3.6832173
convnext_large,1,540,NaN,cat,car,NaN,car7-dog3.png,car7-dog3.png,0.0,-0.6921353,1.1760963,-1.3210392
convnext_large,1,541,NaN,elephant,car,NaN,car7-elephant3.png,car7-elephant3.png,0.0,3.188613,7.748606,-3.2244022
convnext_large,1,542,NaN,keyboard,car,NaN,car7-keyboard3.png,car7-keyboard3.png,0.0,0.68785524,2.39781,-1.2091206
convnext_large,1,543,NaN,oven,car,NaN,car7-oven2.png,car7-oven2.png,0.0,0.82741857,4.2199636,-2.3988917
convnext_large,1,544,NaN,airplane,car,NaN,car8-airplane3.png,car8-airplane3.png,0.0,3.003273,4.9948773,-1.4082769
convnext_large,1,545,NaN,bear,car,NaN,car8-bear1.png,car8-bear1.png,0.0,-0.13312462,2.5247033,-1.8793682
convnext_large,1,546,NaN,car,car,NaN,car8-bicycle2.png,car8-bicycle2.png,1.0,2.9507997,2.3381894,0.43318093
convnext_large,1,547,NaN,car,car,NaN,car8-boat3.png,car8-boat3.png,1.0,4.4536805,2.2905347,1.5295751
convnext_large,1,548,NaN,cat,car,NaN,car8-cat1.png,car8-cat1.png,0.0,-0.21755178,2.11969,-1.6526794
convnext_large,1,549,NaN,car,car,NaN,car8-chair1.png,car8-chair1.png,1.0,4.945683,1.2823133,2.5903935
convnext_large,1,550,NaN,car,car,NaN,car8-clock2.png,car8-clock2.png,1.0,3.4424765,1.3436056,1.4841257
convnext_large,1,551,NaN,cat,car,NaN,car8-dog1.png,car8-dog1.png,0.0,-0.74025685,1.3548574,-1.4814695
convnext_large,1,552,NaN,knife,car,NaN,car8-knife2.png,car8-knife2.png,0.0,0.93047667,1.0022846,-0.05077591
convnext_large,1,553,NaN,car,car,NaN,car8-truck3.png,car8-truck3.png,1.0,4.0232234,3.2009656,0.58142406
convnext_large,1,554,NaN,car,car,NaN,car9-bicycle2.png,car9-bicycle2.png,1.0,3.5557194,2.7055008,0.6011953
convnext_large,1,555,NaN,car,car,NaN,car9-bird1.png,car9-bird1.png,1.0,3.263848,1.2271842,1.4401389
convnext_large,1,556,NaN,cat,car,NaN,car9-cat1.png,car9-cat1.png,0.0,2.1510713,2.1707752,-0.013932737
convnext_large,1,557,NaN,car,car,NaN,car9-clock2.png,car9-clock2.png,1.0,3.6356325,2.8971784,0.5221659
convnext_large,1,558,NaN,clock,car,NaN,car9-keyboard2.png,car9-keyboard2.png,0.0,0.02395063,1.4481202,-1.00704
convnext_large,1,559,NaN,car,car,NaN,car9-knife1.png,car9-knife1.png,1.0,3.2872798,2.6090276,0.47959676
convnext_large,1,560,NaN,car,car,NaN,car9-truck3.png,car9-truck3.png,1.0,2.5471458,2.4407034,0.07526618
convnext_large,1,561,NaN,airplane,cat,NaN,cat1-airplane1.png,cat1-airplane1.png,0.0,1.9941225,2.1914215,-0.13951147
convnext_large,1,562,NaN,cat,cat,NaN,cat1-bird1.png,cat1-bird1.png,1.0,3.6843815,1.1573255,1.7868985
convnext_large,1,563,NaN,boat,cat,NaN,cat1-boat1.png,cat1-boat1.png,0.0,0.44778252,3.2950401,-2.0133152
convnext_large,1,564,NaN,car,cat,NaN,cat1-car2.png,cat1-car2.png,0.0,0.16645224,0.9661278,-0.56545603
convnext_large,1,565,NaN,cat,cat,NaN,cat1-cat3.png,cat1-cat3.png,1.0,3.5783377,1.4879979,1.4780934
convnext_large,1,566,NaN,keyboard,cat,NaN,cat1-chair2.png,cat1-chair2.png,0.0,0.33426332,1.2992806,-0.6823703
convnext_large,1,567,NaN,cat,cat,NaN,cat1-dog1.png,cat1-dog1.png,1.0,3.5763066,0.78612506,1.9729564
convnext_large,1,568,NaN,keyboard,cat,NaN,cat1-keyboard3.png,cat1-keyboard3.png,0.0,2.3940523,5.477579,-2.1803827
convnext_large,1,569,NaN,cat,cat,NaN,cat1-oven1.png,cat1-oven1.png,1.0,2.4334955,1.7195073,0.5048659
convnext_large,1,570,NaN,airplane,cat,NaN,cat10-airplane3.png,cat10-airplane3.png,0.0,0.0115473075,2.3346794,-1.6427025
convnext_large,1,571,NaN,bear,cat,NaN,cat10-bear1.png,cat10-bear1.png,0.0,1.6676579,3.0984225,-1.0117034
convnext_large,1,572,NaN,bicycle,cat,NaN,cat10-bicycle1.png,cat10-bicycle1.png,0.0,0.06999869,1.6217662,-1.0972654
convnext_large,1,573,NaN,cat,cat,NaN,cat10-bird2.png,cat10-bird2.png,1.0,2.0946844,1.2583948,0.591346
convnext_large,1,574,NaN,bottle,cat,NaN,cat10-bottle1.png,cat10-bottle1.png,0.0,-0.10768189,3.485743,-2.5409353
convnext_large,1,575,NaN,clock,cat,NaN,cat10-clock1.png,cat10-clock1.png,0.0,-0.55911595,3.7782524,-3.0669827
convnext_large,1,576,NaN,elephant,cat,NaN,cat10-elephant3.png,cat10-elephant3.png,0.0,1.1664281,8.035121,-4.8568993
convnext_large,1,577,NaN,keyboard,cat,NaN,cat10-keyboard1.png,cat10-keyboard1.png,0.0,-0.3281605,2.9372046,-2.3089619
convnext_large,1,578,NaN,oven,cat,NaN,cat10-oven2.png,cat10-oven2.png,0.0,0.4459832,3.433046,-2.1121726
convnext_large,1,579,NaN,boat,cat,NaN,cat2-boat2.png,cat2-boat2.png,0.0,0.052516166,2.2189326,-1.5318878
convnext_large,1,580,NaN,bottle,cat,NaN,cat2-bottle3.png,cat2-bottle3.png,0.0,-0.056983907,3.1069713,-2.2372541
convnext_large,1,581,NaN,car,cat,NaN,cat2-car3.png,cat2-car3.png,0.0,-0.12760259,3.1109817,-2.290025
convnext_large,1,582,NaN,cat,cat,NaN,cat2-cat1.png,cat2-cat1.png,1.0,2.6941683,0.74197966,1.3804059
convnext_large,1,583,NaN,elephant,cat,NaN,cat2-elephant1.png,cat2-elephant1.png,0.0,0.6853413,6.668692,-4.230868
convnext_large,1,584,NaN,knife,cat,NaN,cat2-knife3.png,cat2-knife3.png,0.0,-0.09511527,1.6617414,-1.2422853
convnext_large,1,585,NaN,car,cat,NaN,cat2-truck3.png,cat2-truck3.png,0.0,-0.44772342,1.8385519,-1.6166408
convnext_large,1,586,NaN,cat,cat,NaN,cat3-bear2.png,cat3-bear2.png,1.0,3.076133,2.0839303,0.70159334
convnext_large,1,587,NaN,airplane,cat,NaN,cat3-bicycle1.png,cat3-bicycle1.png,0.0,1.3231591,1.4325043,-0.077318735
convnext_large,1,588,NaN,cat,cat,NaN,cat3-cat1.png,cat3-cat1.png,1.0,4.15313,0.53647,2.557365
convnext_large,1,589,NaN,elephant,cat,NaN,cat3-elephant2.png,cat3-elephant2.png,0.0,0.18488379,7.2259026,-4.978752
convnext_large,1,590,NaN,oven,cat,NaN,cat3-oven2.png,cat3-oven2.png,0.0,1.5411667,5.116479,-2.5281274
convnext_large,1,591,NaN,car,cat,NaN,cat3-truck3.png,cat3-truck3.png,0.0,-0.32486245,3.4671676,-2.6813703
convnext_large,1,592,NaN,airplane,cat,NaN,cat4-airplane1.png,cat4-airplane1.png,0.0,0.08978567,2.9679327,-2.0351574
convnext_large,1,593,NaN,cat,cat,NaN,cat4-bird2.png,cat4-bird2.png,1.0,2.6754627,0.8112761,1.318179
convnext_large,1,594,NaN,clock,cat,NaN,cat4-car2.png,cat4-car2.png,0.0,0.14437273,0.61207336,-0.3307143
convnext_large,1,595,NaN,cat,cat,NaN,cat4-cat3.png,cat4-cat3.png,1.0,2.3790197,0.3182374,1.4571933
convnext_large,1,596,NaN,chair,cat,NaN,cat4-chair2.png,cat4-chair2.png,0.0,-0.12491117,1.3101542,-1.0147445
convnext_large,1,597,NaN,bottle,cat,NaN,cat4-clock2.png,cat4-clock2.png,0.0,-0.097421415,2.3403685,-1.7237778
convnext_large,1,598,NaN,dog,cat,NaN,cat4-dog3.png,cat4-dog3.png,0.0,0.42715812,0.97539985,-0.38766545
convnext_large,1,599,NaN,clock,cat,NaN,cat4-keyboard2.png,cat4-keyboard2.png,0.0,-0.22959308,2.3758647,-1.8423369
convnext_large,1,600,NaN,knife,cat,NaN,cat4-knife1.png,cat4-knife1.png,0.0,0.20846277,1.1914603,-0.6950842
convnext_large,1,601,NaN,oven,cat,NaN,cat4-oven1.png,cat4-oven1.png,0.0,0.44256353,2.5756547,-1.5083233
convnext_large,1,602,NaN,bottle,cat,NaN,cat4-truck3.png,cat4-truck3.png,0.0,0.09675629,1.5006715,-0.992718
convnext_large,1,603,NaN,car,cat,NaN,cat5-airplane2.png,cat5-airplane2.png,0.0,0.3073221,1.9173847,-1.1384861
convnext_large,1,604,NaN,cat,cat,NaN,cat5-bear2.png,cat5-bear2.png,1.0,3.0734174,2.9866593,0.06134727
convnext_large,1,605,NaN,cat,cat,NaN,cat5-bicycle3.png,cat5-bicycle3.png,1.0,1.9693314,0.84949404,0.79184455
convnext_large,1,606,NaN,boat,cat,NaN,cat5-boat1.png,cat5-boat1.png,0.0,0.12776399,4.272164,-2.9305332
convnext_large,1,607,NaN,bottle,cat,NaN,cat5-bottle1.png,cat5-bottle1.png,0.0,0.20242536,3.6668477,-2.4497166
convnext_large,1,608,NaN,clock,cat,NaN,cat5-car2.png,cat5-car2.png,0.0,1.0815544,1.3975741,-0.22345965
convnext_large,1,609,NaN,airplane,cat,NaN,cat5-chair3.png,cat5-chair3.png,0.0,1.2727245,2.2593255,-0.69763225
convnext_large,1,610,NaN,cat,cat,NaN,cat5-dog3.png,cat5-dog3.png,1.0,3.0837317,1.3179426,1.2486014
convnext_large,1,611,NaN,elephant,cat,NaN,cat5-elephant2.png,cat5-elephant2.png,0.0,0.52175164,7.3493805,-4.8278627
convnext_large,1,612,NaN,keyboard,cat,NaN,cat5-keyboard3.png,cat5-keyboard3.png,0.0,2.0737622,2.7469687,-0.47602895
convnext_large,1,613,NaN,knife,cat,NaN,cat5-knife2.png,cat5-knife2.png,0.0,1.9302782,3.3971145,-1.03721
convnext_large,1,614,NaN,cat,cat,NaN,cat6-bear1.png,cat6-bear1.png,1.0,2.286228,2.1966748,0.06332362
convnext_large,1,615,NaN,airplane,cat,NaN,cat6-chair3.png,cat6-chair3.png,0.0,0.32589012,2.863624,-1.794449
convnext_large,1,616,NaN,clock,cat,NaN,cat6-clock3.png,cat6-clock3.png,0.0,1.433828,3.2516568,-1.2853991
convnext_large,1,617,NaN,knife,cat,NaN,cat6-keyboard3.png,cat6-keyboard3.png,0.0,1.829103,5.3571453,-2.4947026
convnext_large,1,618,NaN,knife,cat,NaN,cat6-oven1.png,cat6-oven1.png,0.0,0.040621992,2.0151758,-1.3962204
convnext_large,1,619,NaN,knife,cat,NaN,cat7-airplane2.png,cat7-airplane2.png,0.0,0.2948446,2.157084,-1.3168021
convnext_large,1,620,NaN,chair,cat,NaN,cat7-boat3.png,cat7-boat3.png,0.0,0.3068671,2.3446774,-1.4409496
convnext_large,1,621,NaN,bottle,cat,NaN,cat7-bottle1.png,cat7-bottle1.png,0.0,-0.14542408,3.9285393,-2.880727
convnext_large,1,622,NaN,clock,cat,NaN,cat7-clock3.png,cat7-clock3.png,0.0,0.0056775906,4.4547143,-3.145944
convnext_large,1,623,NaN,cat,cat,NaN,cat7-dog3.png,cat7-dog3.png,1.0,2.8521397,1.5119768,0.9476383
convnext_large,1,624,NaN,elephant,cat,NaN,cat7-elephant1.png,cat7-elephant1.png,0.0,0.39484394,7.2806077,-4.8689704
convnext_large,1,625,NaN,knife,cat,NaN,cat7-knife2.png,cat7-knife2.png,0.0,-0.20454605,5.1515822,-3.7873547
convnext_large,1,626,NaN,truck,cat,NaN,cat7-truck2.png,cat7-truck2.png,0.0,-0.10304296,3.150423,-2.300548
convnext_large,1,627,NaN,bear,cat,NaN,cat8-bear1.png,cat8-bear1.png,0.0,1.6445688,3.5594053,-1.3539939
convnext_large,1,628,NaN,bicycle,cat,NaN,cat8-bicycle3.png,cat8-bicycle3.png,0.0,0.39546975,1.0274881,-0.44690445
convnext_large,1,629,NaN,cat,cat,NaN,cat8-bird2.png,cat8-bird2.png,1.0,2.3760602,1.3948658,0.6938093
convnext_large,1,630,NaN,car,cat,NaN,cat8-car2.png,cat8-car2.png,0.0,-0.087896995,1.265393,-0.9569205
convnext_large,1,631,NaN,bicycle,cat,NaN,cat9-bicycle1.png,cat9-bicycle1.png,0.0,0.08703903,1.0541215,-0.68383056
convnext_large,1,632,NaN,cat,cat,NaN,cat9-bird3.png,cat9-bird3.png,1.0,1.7178521,1.1244309,0.41961217
convnext_large,1,633,NaN,boat,cat,NaN,cat9-boat2.png,cat9-boat2.png,0.0,0.11317908,2.9807544,-2.027682
convnext_large,1,634,NaN,bottle,cat,NaN,cat9-bottle2.png,cat9-bottle2.png,0.0,-0.30181062,3.5682485,-2.736545
convnext_large,1,635,NaN,cat,cat,NaN,cat9-cat3.png,cat9-cat3.png,1.0,3.7529955,0.9736967,1.9652611
convnext_large,1,636,NaN,chair,cat,NaN,cat9-chair2.png,cat9-chair2.png,0.0,0.028038865,1.2972566,-0.8974725
convnext_large,1,637,NaN,clock,cat,NaN,cat9-clock2.png,cat9-clock2.png,0.0,0.08630923,2.3750734,-1.6184007
convnext_large,1,638,NaN,cat,cat,NaN,cat9-dog2.png,cat9-dog2.png,1.0,2.426551,1.1051129,0.93439794
convnext_large,1,639,NaN,bottle,cat,NaN,cat9-knife2.png,cat9-knife2.png,0.0,1.056471,1.8975493,-0.59473217
convnext_large,1,640,NaN,car,cat,NaN,cat9-truck1.png,cat9-truck1.png,0.0,-0.39094654,3.5020096,-2.7527359
convnext_large,1,641,NaN,bottle,chair,NaN,chair1-airplane2.png,chair1-airplane2.png,0.0,0.3189459,1.5274618,-0.85454977
convnext_large,1,642,NaN,bear,chair,NaN,chair1-bear1.png,chair1-bear1.png,0.0,0.16511077,2.3030612,-1.5117593
convnext_large,1,643,NaN,cat,chair,NaN,chair1-cat3.png,chair1-cat3.png,0.0,0.13276717,1.3571147,-0.8657444
convnext_large,1,644,NaN,car,chair,NaN,chair1-chair1.png,chair1-chair1.png,0.0,0.045597494,3.686697,-2.5746462
convnext_large,1,645,NaN,bottle,chair,NaN,chair1-clock2.png,chair1-clock2.png,0.0,-0.39131927,2.432234,-1.9965538
convnext_large,1,646,NaN,bear,chair,NaN,chair1-dog1.png,chair1-dog1.png,0.0,-0.10254236,0.522701,-0.44211382
convnext_large,1,647,NaN,elephant,chair,NaN,chair1-elephant1.png,chair1-elephant1.png,0.0,0.0005579889,7.3295836,-5.182404
convnext_large,1,648,NaN,oven,chair,NaN,chair1-oven3.png,chair1-oven3.png,0.0,-0.64353514,2.872529,-2.4862328
convnext_large,1,649,NaN,truck,chair,NaN,chair1-truck3.png,chair1-truck3.png,0.0,-0.32295668,2.7044368,-2.1406903
convnext_large,1,650,NaN,knife,chair,NaN,chair10-airplane2.png,chair10-airplane2.png,0.0,1.9856614,2.1434817,-0.11159584
convnext_large,1,651,NaN,bicycle,chair,NaN,chair10-bicycle1.png,chair10-bicycle1.png,0.0,-0.090493664,1.6863751,-1.256436
convnext_large,1,652,NaN,oven,chair,NaN,chair10-bird3.png,chair10-bird3.png,0.0,0.70111406,2.1223028,-1.0049322
convnext_large,1,653,NaN,bottle,chair,NaN,chair10-bottle3.png,chair10-bottle3.png,0.0,0.16516238,3.5712116,-2.4084406
convnext_large,1,654,NaN,clock,chair,NaN,chair10-car2.png,chair10-car2.png,0.0,-0.75852776,1.077525,-1.2982854
convnext_large,1,655,NaN,cat,chair,NaN,chair10-cat1.png,chair10-cat1.png,0.0,1.9165214,2.1741927,-0.18220109
convnext_large,1,656,NaN,clock,chair,NaN,chair10-clock1.png,chair10-clock1.png,0.0,0.038932204,4.934913,-3.4619813
convnext_large,1,657,NaN,bear,chair,NaN,chair10-dog1.png,chair10-dog1.png,0.0,-0.37109646,1.1843725,-1.0998827
convnext_large,1,658,NaN,oven,chair,NaN,chair10-oven1.png,chair10-oven1.png,0.0,1.601549,1.7726772,-0.12100588
convnext_large,1,659,NaN,bear,chair,NaN,chair2-bear2.png,chair2-bear2.png,0.0,2.496511,2.6472144,-0.10656342
convnext_large,1,660,NaN,boat,chair,NaN,chair2-boat1.png,chair2-boat1.png,0.0,0.9273087,1.6762381,-0.5295731
convnext_large,1,661,NaN,knife,chair,NaN,chair2-keyboard2.png,chair2-keyboard2.png,0.0,-0.3770372,2.8044865,-2.2496772
convnext_large,1,662,NaN,knife,chair,NaN,chair2-knife1.png,chair2-knife1.png,0.0,0.06526698,2.0587149,-1.4095806
convnext_large,1,663,NaN,knife,chair,NaN,chair3-airplane2.png,chair3-airplane2.png,0.0,0.4595353,2.8550467,-1.6938823
convnext_large,1,664,NaN,chair,chair,NaN,chair3-bicycle3.png,chair3-bicycle3.png,1.0,1.339333,0.5652083,0.54738885
convnext_large,1,665,NaN,bottle,chair,NaN,chair3-bottle3.png,chair3-bottle3.png,0.0,0.11817095,3.6621304,-2.5059578
convnext_large,1,666,NaN,car,chair,NaN,chair3-car3.png,chair3-car3.png,0.0,1.2724916,6.089147,-3.40589
convnext_large,1,667,NaN,chair,chair,NaN,chair3-dog2.png,chair3-dog2.png,1.0,3.4823327,0.699341,1.9678723
convnext_large,1,668,NaN,knife,chair,NaN,chair3-knife1.png,chair3-knife1.png,0.0,0.5637511,2.5386388,-1.3964565
convnext_large,1,669,NaN,bear,chair,NaN,chair4-bear2.png,chair4-bear2.png,0.0,1.9182377,3.2749624,-0.9593493
convnext_large,1,670,NaN,cat,chair,NaN,chair4-cat2.png,chair4-cat2.png,0.0,1.2595803,2.9177952,-1.1725351
convnext_large,1,671,NaN,airplane,chair,NaN,chair4-chair3.png,chair4-chair3.png,0.0,1.3128282,1.8029865,-0.34659427
convnext_large,1,672,NaN,keyboard,chair,NaN,chair4-keyboard2.png,chair4-keyboard2.png,0.0,-0.30030364,5.3127913,-3.9690576
convnext_large,1,673,NaN,oven,chair,NaN,chair4-oven2.png,chair4-oven2.png,0.0,-0.038841385,4.3612337,-3.1113229
convnext_large,1,674,NaN,knife,chair,NaN,chair4-truck2.png,chair4-truck2.png,0.0,1.1250033,2.082885,-0.67732465
convnext_large,1,675,NaN,bicycle,chair,NaN,chair5-bicycle1.png,chair5-bicycle1.png,0.0,-0.102243625,1.2171327,-0.93294
convnext_large,1,676,NaN,cat,chair,NaN,chair5-bird1.png,chair5-bird1.png,0.0,1.3668729,1.6537126,-0.20282632
convnext_large,1,677,NaN,airplane,chair,NaN,chair5-boat3.png,chair5-boat3.png,0.0,2.0559487,2.3277843,-0.19221677
convnext_large,1,678,NaN,bottle,chair,NaN,chair5-bottle3.png,chair5-bottle3.png,0.0,0.006747015,4.2112575,-2.9730377
convnext_large,1,679,NaN,car,chair,NaN,chair5-car1.png,chair5-car1.png,0.0,-0.14427106,1.8586274,-1.4162631
convnext_large,1,680,NaN,cat,chair,NaN,chair5-cat3.png,chair5-cat3.png,0.0,-0.04075925,1.8252062,-1.3194368
convnext_large,1,681,NaN,clock,chair,NaN,chair5-clock2.png,chair5-clock2.png,0.0,-0.5114148,2.5286968,-2.1496835
convnext_large,1,682,NaN,keyboard,chair,NaN,chair5-keyboard2.png,chair5-keyboard2.png,0.0,-0.82433677,4.552133,-3.8017383
convnext_large,1,683,NaN,knife,chair,NaN,chair5-knife3.png,chair5-knife3.png,0.0,-0.2557185,3.9981892,-3.007967
convnext_large,1,684,NaN,oven,chair,NaN,chair5-oven2.png,chair5-oven2.png,0.0,0.19961064,6.997652,-4.806941
convnext_large,1,685,NaN,car,chair,NaN,chair5-truck3.png,chair5-truck3.png,0.0,-0.011138469,1.827355,-1.3000113
convnext_large,1,686,NaN,knife,chair,NaN,chair6-bird2.png,chair6-bird2.png,0.0,2.3580282,3.7142189,-0.9589716
convnext_large,1,687,NaN,bear,chair,NaN,chair6-dog1.png,chair6-dog1.png,0.0,0.13611518,0.46497494,-0.23253895
convnext_large,1,688,NaN,elephant,chair,NaN,chair6-elephant2.png,chair6-elephant2.png,0.0,0.25794503,6.8251457,-4.643712
convnext_large,1,689,NaN,car,chair,NaN,chair6-truck2.png,chair6-truck2.png,0.0,0.50564545,2.484628,-1.399352
convnext_large,1,690,NaN,airplane,chair,NaN,chair7-airplane1.png,chair7-airplane1.png,0.0,-0.25757924,3.4690444,-2.6351209
convnext_large,1,691,NaN,chair,chair,NaN,chair7-bird1.png,chair7-bird1.png,1.0,2.478419,1.0132619,1.0360225
convnext_large,1,692,NaN,chair,chair,NaN,chair7-boat3.png,chair7-boat3.png,1.0,3.18642,1.5679718,1.1444156
convnext_large,1,693,NaN,bottle,chair,NaN,chair7-bottle1.png,chair7-bottle1.png,0.0,0.478338,3.6938689,-2.2737238
convnext_large,1,694,NaN,car,chair,NaN,chair7-car2.png,chair7-car2.png,0.0,-0.43009594,0.78459376,-0.8589154
convnext_large,1,695,NaN,cat,chair,NaN,chair7-cat1.png,chair7-cat1.png,0.0,2.75816,3.1008298,-0.24230409
convnext_large,1,696,NaN,car,chair,NaN,chair7-chair1.png,chair7-chair1.png,0.0,1.2461568,3.1091652,-1.3173459
convnext_large,1,697,NaN,bottle,chair,NaN,chair7-clock3.png,chair7-clock3.png,0.0,-0.23886864,1.7616426,-1.414575
convnext_large,1,698,NaN,elephant,chair,NaN,chair7-elephant1.png,chair7-elephant1.png,0.0,0.2949058,7.5438137,-5.125752
convnext_large,1,699,NaN,keyboard,chair,NaN,chair7-knife2.png,chair7-knife2.png,0.0,1.5314326,2.1225164,-0.41795933
convnext_large,1,700,NaN,keyboard,chair,NaN,chair7-truck3.png,chair7-truck3.png,0.0,0.91207695,2.072822,-0.8207708
convnext_large,1,701,NaN,airplane,chair,NaN,chair8-airplane1.png,chair8-airplane1.png,0.0,-0.3880937,5.3110847,-4.029928
convnext_large,1,702,NaN,elephant,chair,NaN,chair8-bear1.png,chair8-bear1.png,0.0,0.56578577,3.057745,-1.7620811
convnext_large,1,703,NaN,chair,chair,NaN,chair8-bicycle3.png,chair8-bicycle3.png,1.0,1.1410736,0.66051024,0.3398096
convnext_large,1,704,NaN,chair,chair,NaN,chair8-boat1.png,chair8-boat1.png,1.0,1.5559998,0.5526064,0.7095063
convnext_large,1,705,NaN,car,chair,NaN,chair8-car1.png,chair8-car1.png,0.0,0.34052563,2.5266933,-1.5458541
convnext_large,1,706,NaN,airplane,chair,NaN,chair8-chair3.png,chair8-chair3.png,0.0,0.8215917,2.6500173,-1.2928922
convnext_large,1,707,NaN,clock,chair,NaN,chair8-clock3.png,chair8-clock3.png,0.0,-0.24919242,3.6385996,-2.7490842
convnext_large,1,708,NaN,elephant,chair,NaN,chair8-elephant1.png,chair8-elephant1.png,0.0,-0.008360818,7.0516424,-4.992176
convnext_large,1,709,NaN,knife,chair,NaN,chair8-keyboard3.png,chair8-keyboard3.png,0.0,-1.0065389,2.8193545,-2.705315
convnext_large,1,710,NaN,knife,chair,NaN,chair8-knife2.png,chair8-knife2.png,0.0,0.61926687,6.1035366,-3.8779643
convnext_large,1,711,NaN,bottle,chair,NaN,chair8-oven1.png,chair8-oven1.png,0.0,0.15238655,1.6104587,-1.0310128
convnext_large,1,712,NaN,bear,chair,NaN,chair9-bear1.png,chair9-bear1.png,0.0,-0.0792575,2.030286,-1.4916726
convnext_large,1,713,NaN,chair,chair,NaN,chair9-bicycle3.png,chair9-bicycle3.png,1.0,1.3902664,0.6636609,0.5137877
convnext_large,1,714,NaN,clock,chair,NaN,chair9-bird3.png,chair9-bird3.png,0.0,-0.057833627,2.9121459,-2.1000926
convnext_large,1,715,NaN,oven,chair,NaN,chair9-boat2.png,chair9-boat2.png,0.0,3.4995122,4.2130804,-0.50456893
convnext_large,1,716,NaN,bottle,chair,NaN,chair9-bottle3.png,chair9-bottle3.png,0.0,0.27202967,4.0174646,-2.6484225
convnext_large,1,717,NaN,airplane,chair,NaN,chair9-chair3.png,chair9-chair3.png,0.0,0.74054104,2.1321099,-0.9839878
convnext_large,1,718,NaN,clock,chair,NaN,chair9-dog2.png,chair9-dog2.png,0.0,0.16954772,1.5070171,-0.9457337
convnext_large,1,719,NaN,elephant,chair,NaN,chair9-elephant1.png,chair9-elephant1.png,0.0,-0.13394552,7.3557534,-5.296017
convnext_large,1,720,NaN,keyboard,chair,NaN,chair9-keyboard2.png,chair9-keyboard2.png,0.0,-0.48272637,6.5107985,-4.945169
convnext_large,1,721,NaN,bear,clock,NaN,clock1-bear1.png,clock1-bear1.png,0.0,0.2946767,2.917881,-1.8548856
convnext_large,1,722,NaN,boat,clock,NaN,clock1-boat3.png,clock1-boat3.png,0.0,0.12894557,1.4247774,-0.9162915
convnext_large,1,723,NaN,car,clock,NaN,clock1-car1.png,clock1-car1.png,0.0,1.2980233,1.4972401,-0.1408675
convnext_large,1,724,NaN,clock,clock,NaN,clock1-clock2.png,clock1-clock2.png,1.0,5.053382,1.9886787,2.1670725
convnext_large,1,725,NaN,clock,clock,NaN,clock1-dog2.png,clock1-dog2.png,1.0,3.0395136,1.0939072,1.3757515
convnext_large,1,726,NaN,elephant,clock,NaN,clock1-elephant2.png,clock1-elephant2.png,0.0,0.15075028,6.885605,-4.7622614
convnext_large,1,727,NaN,clock,clock,NaN,clock1-truck3.png,clock1-truck3.png,1.0,3.4756706,1.5705601,1.3471166
convnext_large,1,728,NaN,clock,clock,NaN,clock10-airplane1.png,clock10-airplane1.png,1.0,5.596693,2.3524814,2.2940042
convnext_large,1,729,NaN,clock,clock,NaN,clock10-bird3.png,clock10-bird3.png,1.0,3.7126071,0.6773559,2.1462467
convnext_large,1,730,NaN,car,clock,NaN,clock10-boat2.png,clock10-boat2.png,0.0,2.0852406,3.2180614,-0.80102533
convnext_large,1,731,NaN,bottle,clock,NaN,clock10-bottle1.png,clock10-bottle1.png,0.0,0.88217646,2.9005587,-1.4272119
convnext_large,1,732,NaN,cat,clock,NaN,clock10-cat1.png,clock10-cat1.png,0.0,-0.8252301,3.0372112,-2.7311585
convnext_large,1,733,NaN,clock,clock,NaN,clock10-clock3.png,clock10-clock3.png,1.0,5.0002003,0.30407885,3.3206592
convnext_large,1,734,NaN,knife,clock,NaN,clock10-dog3.png,clock10-dog3.png,0.0,-0.67971045,0.9059526,-1.1212331
convnext_large,1,735,NaN,knife,clock,NaN,clock10-knife3.png,clock10-knife3.png,0.0,1.0597142,3.6182477,-1.8091565
convnext_large,1,736,NaN,oven,clock,NaN,clock10-oven2.png,clock10-oven2.png,0.0,1.0267688,3.9460468,-2.0642414
convnext_large,1,737,NaN,truck,clock,NaN,clock10-truck2.png,clock10-truck2.png,0.0,0.21939246,1.4485118,-0.8691187
convnext_large,1,738,NaN,clock,clock,NaN,clock2-bear2.png,clock2-bear2.png,1.0,3.2095108,2.9242704,0.20169543
convnext_large,1,739,NaN,clock,clock,NaN,clock2-bicycle1.png,clock2-bicycle1.png,1.0,5.60318,1.0194441,3.241191
convnext_large,1,740,NaN,clock,clock,NaN,clock2-bottle3.png,clock2-bottle3.png,1.0,5.093473,1.8989922,2.2588391
convnext_large,1,741,NaN,clock,clock,NaN,clock2-clock3.png,clock2-clock3.png,1.0,4.7844005,0.7026847,2.8862088
convnext_large,1,742,NaN,clock,clock,NaN,clock2-dog1.png,clock2-dog1.png,1.0,3.3167229,1.3870503,1.3644845
convnext_large,1,743,NaN,elephant,clock,NaN,clock2-elephant2.png,clock2-elephant2.png,0.0,3.60649,7.124679,-2.4877355
convnext_large,1,744,NaN,clock,clock,NaN,clock2-knife1.png,clock2-knife1.png,1.0,4.94882,0.5541532,3.1074986
convnext_large,1,745,NaN,clock,clock,NaN,clock3-bear3.png,clock3-bear3.png,1.0,3.6149127,3.1268833,0.34508896
convnext_large,1,746,NaN,clock,clock,NaN,clock3-bicycle2.png,clock3-bicycle2.png,1.0,4.5238433,1.5341222,2.114052
convnext_large,1,747,NaN,clock,clock,NaN,clock3-bird1.png,clock3-bird1.png,1.0,3.7538612,1.8775216,1.3267725
convnext_large,1,748,NaN,clock,clock,NaN,clock3-car2.png,clock3-car2.png,1.0,5.1772203,0.31373447,3.439004
convnext_large,1,749,NaN,clock,clock,NaN,clock3-cat1.png,clock3-cat1.png,1.0,3.64175,2.2482727,0.9853374
convnext_large,1,750,NaN,clock,clock,NaN,clock3-dog2.png,clock3-dog2.png,1.0,3.790933,1.6229422,1.533001
convnext_large,1,751,NaN,elephant,clock,NaN,clock3-elephant3.png,clock3-elephant3.png,0.0,3.7410145,7.3229613,-2.532819
convnext_large,1,752,NaN,clock,clock,NaN,clock3-keyboard3.png,clock3-keyboard3.png,1.0,3.7726414,3.598222,0.12333314
convnext_large,1,753,NaN,clock,clock,NaN,clock4-airplane1.png,clock4-airplane1.png,1.0,5.6719604,0.9623969,3.3301642
convnext_large,1,754,NaN,clock,clock,NaN,clock4-bird3.png,clock4-bird3.png,1.0,4.1367917,1.113299,2.1379323
convnext_large,1,755,NaN,clock,clock,NaN,clock4-boat3.png,clock4-boat3.png,1.0,3.679608,1.5241442,1.5241432
convnext_large,1,756,NaN,clock,clock,NaN,clock4-bottle3.png,clock4-bottle3.png,1.0,4.586611,2.112383,1.7495433
convnext_large,1,757,NaN,clock,clock,NaN,clock4-car2.png,clock4-car2.png,1.0,3.3733416,2.3213568,0.7438656
convnext_large,1,758,NaN,car,clock,NaN,clock4-chair1.png,clock4-chair1.png,0.0,2.5876608,3.7175522,-0.7989539
convnext_large,1,759,NaN,elephant,clock,NaN,clock4-elephant2.png,clock4-elephant2.png,0.0,2.7845595,8.088603,-3.7505255
convnext_large,1,760,NaN,clock,clock,NaN,clock4-knife1.png,clock4-knife1.png,1.0,3.1284103,0.3553052,1.9608815
convnext_large,1,761,NaN,clock,clock,NaN,clock4-oven1.png,clock4-oven1.png,1.0,5.4414215,1.0229288,3.1243463
convnext_large,1,762,NaN,clock,clock,NaN,clock5-airplane1.png,clock5-airplane1.png,1.0,4.7318053,2.4830546,1.5901068
convnext_large,1,763,NaN,clock,clock,NaN,clock5-bicycle1.png,clock5-bicycle1.png,1.0,4.99328,1.192281,2.6877122
convnext_large,1,764,NaN,clock,clock,NaN,clock5-chair3.png,clock5-chair3.png,1.0,2.7489834,0.92770404,1.2878389
convnext_large,1,765,NaN,clock,clock,NaN,clock5-clock2.png,clock5-clock2.png,1.0,5.1051583,0.89874965,2.97438
convnext_large,1,766,NaN,elephant,clock,NaN,clock5-elephant2.png,clock5-elephant2.png,0.0,2.934739,7.133623,-2.9690595
convnext_large,1,767,NaN,clock,clock,NaN,clock5-keyboard1.png,clock5-keyboard1.png,1.0,3.6367176,2.3029082,0.9431457
convnext_large,1,768,NaN,clock,clock,NaN,clock5-oven1.png,clock5-oven1.png,1.0,5.729173,1.2385825,3.175327
convnext_large,1,769,NaN,clock,clock,NaN,clock6-bicycle1.png,clock6-bicycle1.png,1.0,4.1095624,1.3179597,1.9739611
convnext_large,1,770,NaN,clock,clock,NaN,clock6-bird3.png,clock6-bird3.png,1.0,4.43018,0.86317456,2.522254
convnext_large,1,771,NaN,bottle,clock,NaN,clock6-bottle1.png,clock6-bottle1.png,0.0,2.9920006,3.050009,-0.04101816
convnext_large,1,772,NaN,clock,clock,NaN,clock6-car2.png,clock6-car2.png,1.0,5.2841773,0.7331706,3.2180479
convnext_large,1,773,NaN,airplane,clock,NaN,clock6-chair3.png,clock6-chair3.png,0.0,2.363435,2.649994,-0.20262772
convnext_large,1,774,NaN,clock,clock,NaN,clock6-clock2.png,clock6-clock2.png,1.0,5.610487,0.16117086,3.8532484
convnext_large,1,775,NaN,clock,clock,NaN,clock6-knife2.png,clock6-knife2.png,1.0,2.336888,1.8566363,0.3395893
convnext_large,1,776,NaN,oven,clock,NaN,clock6-oven1.png,clock6-oven1.png,0.0,0.5467743,6.622563,-4.2962313
convnext_large,1,777,NaN,keyboard,clock,NaN,clock6-truck3.png,clock6-truck3.png,0.0,0.61181813,1.8398865,-0.8683755
convnext_large,1,778,NaN,clock,clock,NaN,clock7-bear2.png,clock7-bear2.png,1.0,3.879796,1.8698571,1.4212415
convnext_large,1,779,NaN,clock,clock,NaN,clock7-bicycle1.png,clock7-bicycle1.png,1.0,4.9300327,0.6144003,3.0516129
convnext_large,1,780,NaN,clock,clock,NaN,clock7-boat3.png,clock7-boat3.png,1.0,4.4184804,1.0705204,2.3673654
convnext_large,1,781,NaN,bottle,clock,NaN,clock7-bottle2.png,clock7-bottle2.png,0.0,2.988691,4.7668424,-1.2573428
convnext_large,1,782,NaN,clock,clock,NaN,clock7-car1.png,clock7-car1.png,1.0,4.420298,3.6227925,0.56392163
convnext_large,1,783,NaN,clock,clock,NaN,clock7-cat2.png,clock7-cat2.png,1.0,5.1244454,1.7139803,2.4115632
convnext_large,1,784,NaN,clock,clock,NaN,clock7-dog2.png,clock7-dog2.png,1.0,4.003832,2.0399067,1.3887048
convnext_large,1,785,NaN,clock,clock,NaN,clock7-keyboard2.png,clock7-keyboard2.png,1.0,4.4778924,1.3232899,2.230641
convnext_large,1,786,NaN,clock,clock,NaN,clock7-truck3.png,clock7-truck3.png,1.0,5.1979666,3.868306,0.9402121
convnext_large,1,787,NaN,clock,clock,NaN,clock8-airplane2.png,clock8-airplane2.png,1.0,4.1449428,1.3642583,1.9662409
convnext_large,1,788,NaN,bear,clock,NaN,clock8-bear2.png,clock8-bear2.png,0.0,2.4880733,4.1671853,-1.1873115
convnext_large,1,789,NaN,clock,clock,NaN,clock8-boat1.png,clock8-boat1.png,1.0,4.981725,2.400274,1.8253616
convnext_large,1,790,NaN,cat,clock,NaN,clock8-cat1.png,clock8-cat1.png,0.0,2.354913,3.931537,-1.1148415
convnext_large,1,791,NaN,chair,clock,NaN,clock8-chair2.png,clock8-chair2.png,0.0,1.4144297,1.952321,-0.38034666
convnext_large,1,792,NaN,clock,clock,NaN,clock8-keyboard1.png,clock8-keyboard1.png,1.0,4.391592,0.5681044,2.7036142
convnext_large,1,793,NaN,clock,clock,NaN,clock8-knife1.png,clock8-knife1.png,1.0,3.769645,0.48157477,2.3250167
convnext_large,1,794,NaN,clock,clock,NaN,clock8-oven3.png,clock8-oven3.png,1.0,2.0724533,0.5269051,1.0928676
convnext_large,1,795,NaN,truck,clock,NaN,clock8-truck2.png,clock8-truck2.png,0.0,0.62515455,2.2531729,-1.1511829
convnext_large,1,796,NaN,clock,clock,NaN,clock9-airplane1.png,clock9-airplane1.png,1.0,5.736408,2.3620737,2.386015
convnext_large,1,797,NaN,clock,clock,NaN,clock9-bird2.png,clock9-bird2.png,1.0,4.3657093,1.6481285,1.9216199
convnext_large,1,798,NaN,cat,clock,NaN,clock9-cat1.png,clock9-cat1.png,0.0,2.7438087,3.5720356,-0.5856448
convnext_large,1,799,NaN,clock,clock,NaN,clock9-chair3.png,clock9-chair3.png,1.0,2.668747,1.4766684,0.84292686
convnext_large,1,800,NaN,clock,clock,NaN,clock9-keyboard2.png,clock9-keyboard2.png,1.0,5.2945433,2.3606567,2.0745711
convnext_large,1,801,NaN,car,dog,NaN,dog1-airplane3.png,dog1-airplane3.png,0.0,-0.1321413,0.8838129,-0.71838814
convnext_large,1,802,NaN,bear,dog,NaN,dog1-bear1.png,dog1-bear1.png,0.0,-0.20554018,3.2348242,-2.432705
convnext_large,1,803,NaN,elephant,dog,NaN,dog1-bird1.png,dog1-bird1.png,0.0,0.005344631,1.215162,-0.8554701
convnext_large,1,804,NaN,chair,dog,NaN,dog1-boat3.png,dog1-boat3.png,0.0,-0.72873473,2.5822299,-2.3412056
convnext_large,1,805,NaN,clock,dog,NaN,dog1-car2.png,dog1-car2.png,0.0,-0.45893955,1.1404994,-1.1309742
convnext_large,1,806,NaN,dog,dog,NaN,dog1-cat3.png,dog1-cat3.png,1.0,0.8845332,0.46018168,0.30006185
convnext_large,1,807,NaN,car,dog,NaN,dog1-chair1.png,dog1-chair1.png,0.0,-0.017220777,3.9626493,-2.8141932
convnext_large,1,808,NaN,dog,dog,NaN,dog1-dog2.png,dog1-dog2.png,1.0,0.7151877,0.61975443,0.06748153
convnext_large,1,809,NaN,knife,dog,NaN,dog1-knife3.png,dog1-knife3.png,0.0,-0.18317045,2.6869886,-2.029509
convnext_large,1,810,NaN,airplane,dog,NaN,dog10-airplane1.png,dog10-airplane1.png,0.0,-0.2345341,2.2765272,-1.7755884
convnext_large,1,811,NaN,bicycle,dog,NaN,dog10-bicycle1.png,dog10-bicycle1.png,0.0,-0.09478665,1.3414533,-1.015575
convnext_large,1,812,NaN,bottle,dog,NaN,dog10-bottle1.png,dog10-bottle1.png,0.0,-0.2782001,3.4538357,-2.638948
convnext_large,1,813,NaN,car,dog,NaN,dog10-car3.png,dog10-car3.png,0.0,-0.22473706,5.970568,-4.3807425
convnext_large,1,814,NaN,clock,dog,NaN,dog10-clock1.png,dog10-clock1.png,0.0,-0.5523283,4.7066445,-3.7186553
convnext_large,1,815,NaN,bear,dog,NaN,dog10-dog1.png,dog10-dog1.png,0.0,0.72798073,2.202926,-1.0429437
convnext_large,1,816,NaN,elephant,dog,NaN,dog10-elephant1.png,dog10-elephant1.png,0.0,-0.009253734,7.059597,-4.998432
convnext_large,1,817,NaN,keyboard,dog,NaN,dog10-keyboard2.png,dog10-keyboard2.png,0.0,-0.46300173,5.155405,-3.9728136
convnext_large,1,818,NaN,oven,dog,NaN,dog10-oven2.png,dog10-oven2.png,0.0,-0.27681383,3.759813,-2.8543262
convnext_large,1,819,NaN,car,dog,NaN,dog10-truck2.png,dog10-truck2.png,0.0,-0.18718944,2.920512,-2.1974766
convnext_large,1,820,NaN,car,dog,NaN,dog2-airplane2.png,dog2-airplane2.png,0.0,-0.3690045,2.450841,-1.9939319
convnext_large,1,821,NaN,bicycle,dog,NaN,dog2-bicycle2.png,dog2-bicycle2.png,0.0,-0.35242116,4.5390816,-3.4588149
convnext_large,1,822,NaN,bottle,dog,NaN,dog2-bottle2.png,dog2-bottle2.png,0.0,-0.21684216,2.895972,-2.201092
convnext_large,1,823,NaN,dog,dog,NaN,dog2-cat1.png,dog2-cat1.png,1.0,0.30074897,0.23355085,0.047516253
convnext_large,1,824,NaN,dog,dog,NaN,dog2-dog3.png,dog2-dog3.png,1.0,0.79832816,0.21065676,0.41554645
convnext_large,1,825,NaN,knife,dog,NaN,dog2-knife3.png,dog2-knife3.png,0.0,-0.3596215,5.540984,-4.1723585
convnext_large,1,826,NaN,elephant,dog,NaN,dog3-bear3.png,dog3-bear3.png,0.0,0.21820469,4.2000427,-2.8155847
convnext_large,1,827,NaN,bird,dog,NaN,dog3-bird2.png,dog3-bird2.png,0.0,0.69557005,0.90811384,-0.15029116
convnext_large,1,828,NaN,boat,dog,NaN,dog3-boat1.png,dog3-boat1.png,0.0,-0.7852142,1.3115759,-1.4826545
convnext_large,1,829,NaN,clock,dog,NaN,dog3-clock1.png,dog3-clock1.png,0.0,-0.8909973,3.737604,-3.2729154
convnext_large,1,830,NaN,bear,dog,NaN,dog3-dog1.png,dog3-dog1.png,0.0,0.9742713,2.2766626,-0.92092973
convnext_large,1,831,NaN,elephant,dog,NaN,dog3-elephant2.png,dog3-elephant2.png,0.0,0.02946221,7.39181,-5.205966
convnext_large,1,832,NaN,clock,dog,NaN,dog3-keyboard1.png,dog3-keyboard1.png,0.0,0.26800403,1.7078495,-1.0181245
convnext_large,1,833,NaN,knife,dog,NaN,dog3-knife3.png,dog3-knife3.png,0.0,-0.299697,7.744077,-5.6878076
convnext_large,1,834,NaN,car,dog,NaN,dog3-truck2.png,dog3-truck2.png,0.0,-0.19216567,2.9454155,-2.2186048
convnext_large,1,835,NaN,bottle,dog,NaN,dog4-airplane3.png,dog4-airplane3.png,0.0,-0.5518468,1.4276526,-1.3997175
convnext_large,1,836,NaN,bicycle,dog,NaN,dog4-bicycle1.png,dog4-bicycle1.png,0.0,-0.26013497,1.1158831,-0.9729917
convnext_large,1,837,NaN,bear,dog,NaN,dog4-bird1.png,dog4-bird1.png,0.0,0.8954704,1.9486088,-0.7446813
convnext_large,1,838,NaN,bottle,dog,NaN,dog4-bottle2.png,dog4-bottle2.png,0.0,-0.2502174,2.215893,-1.7438035
convnext_large,1,839,NaN,cat,dog,NaN,dog4-cat3.png,dog4-cat3.png,0.0,0.22293676,2.4295294,-1.5602965
convnext_large,1,840,NaN,car,dog,NaN,dog4-chair1.png,dog4-chair1.png,0.0,-0.054987162,3.219279,-2.3152559
convnext_large,1,841,NaN,clock,dog,NaN,dog4-clock1.png,dog4-clock1.png,0.0,-0.36313853,2.5377204,-2.051217
convnext_large,1,842,NaN,elephant,dog,NaN,dog4-elephant2.png,dog4-elephant2.png,0.0,0.029284906,7.1100125,-5.0068307
convnext_large,1,843,NaN,keyboard,dog,NaN,dog4-keyboard2.png,dog4-keyboard2.png,0.0,-0.50145596,4.1849217,-3.3137693
convnext_large,1,844,NaN,oven,dog,NaN,dog4-oven1.png,dog4-oven1.png,0.0,-0.05717952,3.0174956,-2.1741235
convnext_large,1,845,NaN,truck,dog,NaN,dog4-truck2.png,dog4-truck2.png,0.0,-0.26777104,2.6784072,-2.0832627
convnext_large,1,846,NaN,bear,dog,NaN,dog5-bear3.png,dog5-bear3.png,0.0,0.6000189,2.6077414,-1.4196742
convnext_large,1,847,NaN,boat,dog,NaN,dog5-boat3.png,dog5-boat3.png,0.0,-0.43437454,3.0265722,-2.447259
convnext_large,1,848,NaN,car,dog,NaN,dog5-car3.png,dog5-car3.png,0.0,-0.08623228,3.5254834,-2.5538685
convnext_large,1,849,NaN,elephant,dog,NaN,dog5-elephant1.png,dog5-elephant1.png,0.0,0.07890047,7.248412,-5.0696106
convnext_large,1,850,NaN,knife,dog,NaN,dog5-knife2.png,dog5-knife2.png,0.0,-0.5420806,4.589937,-3.6288846
convnext_large,1,851,NaN,oven,dog,NaN,dog5-oven1.png,dog5-oven1.png,0.0,-0.2932964,2.2717657,-1.8137728
convnext_large,1,852,NaN,knife,dog,NaN,dog5-truck2.png,dog5-truck2.png,0.0,-0.46438736,2.3093295,-1.9613141
convnext_large,1,853,NaN,airplane,dog,NaN,dog6-bicycle1.png,dog6-bicycle1.png,0.0,-0.050468974,1.2972068,-0.95295066
convnext_large,1,854,NaN,bottle,dog,NaN,dog6-bird1.png,dog6-bird1.png,0.0,-0.25474215,1.1239835,-0.97490627
convnext_large,1,855,NaN,cat,dog,NaN,dog6-cat1.png,dog6-cat1.png,0.0,1.0981761,1.6072127,-0.35994318
convnext_large,1,856,NaN,clock,dog,NaN,dog6-clock1.png,dog6-clock1.png,0.0,-0.50029844,5.1741743,-4.0124583
convnext_large,1,857,NaN,elephant,dog,NaN,dog6-elephant2.png,dog6-elephant2.png,0.0,0.03881071,6.7911916,-4.7746544
convnext_large,1,858,NaN,truck,dog,NaN,dog6-truck2.png,dog6-truck2.png,0.0,-0.25513652,2.1887946,-1.7281203
convnext_large,1,859,NaN,dog,dog,NaN,dog7-bird3.png,dog7-bird3.png,1.0,0.9449671,0.4731634,0.3336156
convnext_large,1,860,NaN,bicycle,dog,NaN,dog7-car2.png,dog7-car2.png,0.0,-0.13402407,0.36730874,-0.35449585
convnext_large,1,861,NaN,chair,dog,NaN,dog7-chair2.png,dog7-chair2.png,0.0,0.02188827,0.6082914,-0.41464964
convnext_large,1,862,NaN,bottle,dog,NaN,dog7-keyboard3.png,dog7-keyboard3.png,0.0,-0.563774,2.4954782,-2.163218
convnext_large,1,863,NaN,knife,dog,NaN,dog7-knife3.png,dog7-knife3.png,0.0,-0.39656943,2.9119577,-2.339482
convnext_large,1,864,NaN,oven,dog,NaN,dog7-oven2.png,dog7-oven2.png,0.0,-0.349961,5.4831114,-4.124605
convnext_large,1,865,NaN,elephant,dog,NaN,dog8-bear3.png,dog8-bear3.png,0.0,-0.18611227,4.0854163,-3.020427
convnext_large,1,866,NaN,chair,dog,NaN,dog8-boat3.png,dog8-boat3.png,0.0,-0.7315653,1.461221,-1.550534
convnext_large,1,867,NaN,bottle,dog,NaN,dog8-bottle2.png,dog8-bottle2.png,0.0,-0.38884085,2.318558,-1.9144201
convnext_large,1,868,NaN,airplane,dog,NaN,dog8-chair3.png,dog8-chair3.png,0.0,-0.25818315,2.2524776,-1.7753054
convnext_large,1,869,NaN,clock,dog,NaN,dog8-clock2.png,dog8-clock2.png,0.0,-0.21497051,1.9438562,-1.5265211
convnext_large,1,870,NaN,dog,dog,NaN,dog8-dog3.png,dog8-dog3.png,1.0,1.5574838,1.1548522,0.28470358
convnext_large,1,871,NaN,knife,dog,NaN,dog8-keyboard3.png,dog8-keyboard3.png,0.0,-0.590068,3.0235991,-2.5552485
convnext_large,1,872,NaN,oven,dog,NaN,dog8-oven3.png,dog8-oven3.png,0.0,0.11749067,2.2754748,-1.5259252
convnext_large,1,873,NaN,bottle,dog,NaN,dog9-airplane3.png,dog9-airplane3.png,0.0,-0.41416913,2.0315192,-1.7293627
convnext_large,1,874,NaN,bear,dog,NaN,dog9-bear3.png,dog9-bear3.png,0.0,0.06675132,3.0858305,-2.1348114
convnext_large,1,875,NaN,bottle,dog,NaN,dog9-bicycle3.png,dog9-bicycle3.png,0.0,-0.5644182,1.2649612,-1.2935666
convnext_large,1,876,NaN,boat,dog,NaN,dog9-boat1.png,dog9-boat1.png,0.0,-0.97532547,2.9362667,-2.7659132
convnext_large,1,877,NaN,bottle,dog,NaN,dog9-bottle1.png,dog9-bottle1.png,0.0,-0.56081736,3.1884305,-2.6511188
convnext_large,1,878,NaN,car,dog,NaN,dog9-car1.png,dog9-car1.png,0.0,-0.6463212,1.4616951,-1.4905926
convnext_large,1,879,NaN,cat,dog,NaN,dog9-cat1.png,dog9-cat1.png,0.0,0.8357849,1.191805,-0.25174424
convnext_large,1,880,NaN,chair,dog,NaN,dog9-chair2.png,dog9-chair2.png,0.0,-0.34959185,2.0402484,-1.6898721
convnext_large,1,881,NaN,car,elephant,NaN,elephant1-airplane2.png,elephant1-airplane2.png,0.0,0.61588883,2.184807,-1.1093928
convnext_large,1,882,NaN,elephant,elephant,NaN,elephant1-bear2.png,elephant1-bear2.png,1.0,5.3224344,2.965129,1.6668668
convnext_large,1,883,NaN,boat,elephant,NaN,elephant1-boat2.png,elephant1-boat2.png,0.0,-0.83368284,2.7129018,-2.5078142
