subj,session,trial,rt,object_response,category,condition,imagename,filename,is_correct,targ_act,max_nontarg_act,decision_margin
alexnet_w1_mlp_simclrhn_probe0,1,1,NaN,bicycle,airplane,NaN,airplane1-bicycle2.png,airplane1-bicycle2.png,0.0,-14.996698,-1.3953174,-9.617629
alexnet_w1_mlp_simclrhn_probe0,1,2,NaN,bicycle,airplane,NaN,airplane1-chair2.png,airplane1-chair2.png,0.0,-6.16861,-3.8687527,-1.6262448
alexnet_w1_mlp_simclrhn_probe0,1,3,NaN,bicycle,airplane,NaN,airplane1-clock1.png,airplane1-clock1.png,0.0,-13.973402,-5.2756786,-6.1502194
alexnet_w1_mlp_simclrhn_probe0,1,4,NaN,bicycle,airplane,NaN,airplane1-elephant1.png,airplane1-elephant1.png,0.0,-14.065058,-2.095149,-8.464004
alexnet_w1_mlp_simclrhn_probe0,1,5,NaN,airplane,airplane,NaN,airplane10-airplane1.png,airplane10-airplane1.png,1.0,1.470664,-4.5415335,4.2512655
alexnet_w1_mlp_simclrhn_probe0,1,6,NaN,elephant,airplane,NaN,airplane10-bear3.png,airplane10-bear3.png,0.0,-17.639002,-1.883807,-11.140605
alexnet_w1_mlp_simclrhn_probe0,1,7,NaN,airplane,airplane,NaN,airplane10-boat3.png,airplane10-boat3.png,1.0,-0.40580148,-5.393006,3.5264862
alexnet_w1_mlp_simclrhn_probe0,1,8,NaN,bicycle,airplane,NaN,airplane10-car3.png,airplane10-car3.png,0.0,-7.2556534,-7.0915556,-0.11603466
alexnet_w1_mlp_simclrhn_probe0,1,9,NaN,cat,airplane,NaN,airplane10-cat2.png,airplane10-cat2.png,0.0,-14.219044,0.014550269,-10.064671
alexnet_w1_mlp_simclrhn_probe0,1,10,NaN,cat,airplane,NaN,airplane10-dog3.png,airplane10-dog3.png,0.0,-12.079495,-1.9094442,-7.191313
alexnet_w1_mlp_simclrhn_probe0,1,11,NaN,cat,airplane,NaN,airplane10-elephant1.png,airplane10-elephant1.png,0.0,-13.383149,-3.0044467,-7.338851
alexnet_w1_mlp_simclrhn_probe0,1,12,NaN,airplane,airplane,NaN,airplane10-knife3.png,airplane10-knife3.png,1.0,-2.3396597,-2.435291,0.06762159
alexnet_w1_mlp_simclrhn_probe0,1,13,NaN,airplane,airplane,NaN,airplane10-oven2.png,airplane10-oven2.png,1.0,0.3567197,-1.8996899,1.5955226
alexnet_w1_mlp_simclrhn_probe0,1,14,NaN,airplane,airplane,NaN,airplane10-truck1.png,airplane10-truck1.png,1.0,-3.0915656,-4.73089,1.1591773
alexnet_w1_mlp_simclrhn_probe0,1,15,NaN,bear,airplane,NaN,airplane2-bear1.png,airplane2-bear1.png,0.0,-14.111378,-3.5268319,-7.4844046
alexnet_w1_mlp_simclrhn_probe0,1,16,NaN,bicycle,airplane,NaN,airplane2-bicycle1.png,airplane2-bicycle1.png,0.0,-23.458649,-6.184901,-12.214383
alexnet_w1_mlp_simclrhn_probe0,1,17,NaN,airplane,airplane,NaN,airplane2-bird3.png,airplane2-bird3.png,1.0,-3.8459885,-6.534032,1.9007337
alexnet_w1_mlp_simclrhn_probe0,1,18,NaN,bicycle,airplane,NaN,airplane2-bottle1.png,airplane2-bottle1.png,0.0,-8.572075,-6.0303497,-1.7972711
alexnet_w1_mlp_simclrhn_probe0,1,19,NaN,cat,airplane,NaN,airplane2-cat1.png,airplane2-cat1.png,0.0,-14.652652,-0.8613314,-9.751937
alexnet_w1_mlp_simclrhn_probe0,1,20,NaN,cat,airplane,NaN,airplane2-dog1.png,airplane2-dog1.png,0.0,-17.978941,-1.4610821,-11.67989
alexnet_w1_mlp_simclrhn_probe0,1,21,NaN,airplane,airplane,NaN,airplane3-airplane2.png,airplane3-airplane2.png,1.0,0.14469332,-5.474491,3.9733636
alexnet_w1_mlp_simclrhn_probe0,1,22,NaN,bicycle,airplane,NaN,airplane3-car1.png,airplane3-car1.png,0.0,-13.853218,-4.5569735,-6.5734377
alexnet_w1_mlp_simclrhn_probe0,1,23,NaN,cat,airplane,NaN,airplane3-cat1.png,airplane3-cat1.png,0.0,-14.173967,-2.5337555,-8.230873
alexnet_w1_mlp_simclrhn_probe0,1,24,NaN,airplane,airplane,NaN,airplane3-chair3.png,airplane3-chair3.png,1.0,-0.4651501,-6.6464105,4.3708115
alexnet_w1_mlp_simclrhn_probe0,1,25,NaN,bicycle,airplane,NaN,airplane3-clock1.png,airplane3-clock1.png,0.0,-13.549829,-7.611492,-4.199038
alexnet_w1_mlp_simclrhn_probe0,1,26,NaN,cat,airplane,NaN,airplane3-dog1.png,airplane3-dog1.png,0.0,-15.252177,-2.677925,-8.891339
alexnet_w1_mlp_simclrhn_probe0,1,27,NaN,cat,airplane,NaN,airplane3-elephant1.png,airplane3-elephant1.png,0.0,-15.598611,-2.2102458,-9.467004
alexnet_w1_mlp_simclrhn_probe0,1,28,NaN,airplane,airplane,NaN,airplane3-keyboard2.png,airplane3-keyboard2.png,1.0,-0.53098094,-3.7791164,2.2967787
alexnet_w1_mlp_simclrhn_probe0,1,29,NaN,airplane,airplane,NaN,airplane3-oven1.png,airplane3-oven1.png,1.0,0.05552298,-2.6776702,1.9326595
alexnet_w1_mlp_simclrhn_probe0,1,30,NaN,airplane,airplane,NaN,airplane4-airplane1.png,airplane4-airplane1.png,1.0,0.02300547,-4.692711,3.334515
alexnet_w1_mlp_simclrhn_probe0,1,31,NaN,elephant,airplane,NaN,airplane4-bear3.png,airplane4-bear3.png,0.0,-17.115812,-0.5538317,-11.711089
alexnet_w1_mlp_simclrhn_probe0,1,32,NaN,bird,airplane,NaN,airplane4-bicycle2.png,airplane4-bicycle2.png,0.0,-15.343747,-3.480247,-8.3887615
alexnet_w1_mlp_simclrhn_probe0,1,33,NaN,airplane,airplane,NaN,airplane4-bird3.png,airplane4-bird3.png,1.0,3.1413689,-8.285046,8.079696
alexnet_w1_mlp_simclrhn_probe0,1,34,NaN,airplane,airplane,NaN,airplane4-boat3.png,airplane4-boat3.png,1.0,-1.4122905,-5.722604,3.0478518
alexnet_w1_mlp_simclrhn_probe0,1,35,NaN,bicycle,airplane,NaN,airplane4-bottle1.png,airplane4-bottle1.png,0.0,-7.254242,-6.0712743,-0.8364845
alexnet_w1_mlp_simclrhn_probe0,1,36,NaN,bicycle,airplane,NaN,airplane4-car1.png,airplane4-car1.png,0.0,-11.838301,-7.475184,-3.0851896
alexnet_w1_mlp_simclrhn_probe0,1,37,NaN,cat,airplane,NaN,airplane4-cat3.png,airplane4-cat3.png,0.0,-8.531423,-3.0499446,-3.8759902
alexnet_w1_mlp_simclrhn_probe0,1,38,NaN,cat,airplane,NaN,airplane4-dog2.png,airplane4-dog2.png,0.0,-9.370152,-2.0563629,-5.1716304
alexnet_w1_mlp_simclrhn_probe0,1,39,NaN,cat,airplane,NaN,airplane4-elephant1.png,airplane4-elephant1.png,0.0,-14.000325,-2.9296515,-7.828149
alexnet_w1_mlp_simclrhn_probe0,1,40,NaN,airplane,airplane,NaN,airplane4-keyboard3.png,airplane4-keyboard3.png,1.0,-0.26550928,-2.7318676,1.7439786
alexnet_w1_mlp_simclrhn_probe0,1,41,NaN,airplane,airplane,NaN,airplane4-knife1.png,airplane4-knife1.png,1.0,-6.4404206,-6.7655973,0.22993466
alexnet_w1_mlp_simclrhn_probe0,1,42,NaN,truck,airplane,NaN,airplane4-truck2.png,airplane4-truck2.png,0.0,-7.3765182,-4.923153,-1.7347913
alexnet_w1_mlp_simclrhn_probe0,1,43,NaN,elephant,airplane,NaN,airplane5-bear2.png,airplane5-bear2.png,0.0,-15.795808,-0.15847175,-11.057266
alexnet_w1_mlp_simclrhn_probe0,1,44,NaN,bicycle,airplane,NaN,airplane5-bicycle1.png,airplane5-bicycle1.png,0.0,-20.153027,-5.3397846,-10.474544
alexnet_w1_mlp_simclrhn_probe0,1,45,NaN,bird,airplane,NaN,airplane5-bird2.png,airplane5-bird2.png,0.0,-11.675624,-5.2535257,-4.541109
alexnet_w1_mlp_simclrhn_probe0,1,46,NaN,airplane,airplane,NaN,airplane5-boat3.png,airplane5-boat3.png,1.0,-6.8067336,-7.7001343,0.63172966
alexnet_w1_mlp_simclrhn_probe0,1,47,NaN,bird,airplane,NaN,airplane5-bottle3.png,airplane5-bottle3.png,0.0,-15.728052,-6.9465876,-6.209433
alexnet_w1_mlp_simclrhn_probe0,1,48,NaN,airplane,airplane,NaN,airplane5-chair3.png,airplane5-chair3.png,1.0,0.23638335,-4.734992,3.5152934
alexnet_w1_mlp_simclrhn_probe0,1,49,NaN,cat,airplane,NaN,airplane5-dog3.png,airplane5-dog3.png,0.0,-16.299646,-0.49662217,-11.174426
alexnet_w1_mlp_simclrhn_probe0,1,50,NaN,bicycle,airplane,NaN,airplane5-knife1.png,airplane5-knife1.png,0.0,-9.249356,-7.04206,-1.5607942
alexnet_w1_mlp_simclrhn_probe0,1,51,NaN,chair,airplane,NaN,airplane5-oven3.png,airplane5-oven3.png,0.0,-4.8131366,-2.61551,-1.5539567
alexnet_w1_mlp_simclrhn_probe0,1,52,NaN,elephant,airplane,NaN,airplane6-bear3.png,airplane6-bear3.png,0.0,-20.729652,-1.6938846,-13.460321
alexnet_w1_mlp_simclrhn_probe0,1,53,NaN,bottle,airplane,NaN,airplane6-bottle2.png,airplane6-bottle2.png,0.0,-10.060699,-7.549769,-1.775496
alexnet_w1_mlp_simclrhn_probe0,1,54,NaN,airplane,airplane,NaN,airplane6-chair3.png,airplane6-chair3.png,1.0,0.23546477,-6.784575,4.9639177
alexnet_w1_mlp_simclrhn_probe0,1,55,NaN,airplane,airplane,NaN,airplane6-keyboard3.png,airplane6-keyboard3.png,1.0,-0.9941816,-1.5378085,0.3844023
alexnet_w1_mlp_simclrhn_probe0,1,56,NaN,bicycle,airplane,NaN,airplane6-knife1.png,airplane6-knife1.png,0.0,-9.516808,-7.6067286,-1.3506298
alexnet_w1_mlp_simclrhn_probe0,1,57,NaN,airplane,airplane,NaN,airplane7-airplane3.png,airplane7-airplane3.png,1.0,4.227498,-4.8004594,6.3837304
alexnet_w1_mlp_simclrhn_probe0,1,58,NaN,airplane,airplane,NaN,airplane7-bird3.png,airplane7-bird3.png,1.0,-0.65142155,-7.463396,4.8167934
alexnet_w1_mlp_simclrhn_probe0,1,59,NaN,chair,airplane,NaN,airplane7-boat2.png,airplane7-boat2.png,0.0,-7.779962,-7.269723,-0.36079356
alexnet_w1_mlp_simclrhn_probe0,1,60,NaN,knife,airplane,NaN,airplane7-bottle3.png,airplane7-bottle3.png,0.0,-16.420944,-8.802204,-5.387263
alexnet_w1_mlp_simclrhn_probe0,1,61,NaN,bicycle,airplane,NaN,airplane7-car1.png,airplane7-car1.png,0.0,-10.049352,-6.452564,-2.5433133
alexnet_w1_mlp_simclrhn_probe0,1,62,NaN,cat,airplane,NaN,airplane7-cat3.png,airplane7-cat3.png,0.0,-7.9782186,-3.5810626,-3.1092587
alexnet_w1_mlp_simclrhn_probe0,1,63,NaN,car,airplane,NaN,airplane7-clock3.png,airplane7-clock3.png,0.0,-8.025472,-6.978666,-0.74020356
alexnet_w1_mlp_simclrhn_probe0,1,64,NaN,airplane,airplane,NaN,airplane7-keyboard1.png,airplane7-keyboard1.png,1.0,-3.4267545,-5.0549316,1.1512952
alexnet_w1_mlp_simclrhn_probe0,1,65,NaN,chair,airplane,NaN,airplane7-truck1.png,airplane7-truck1.png,0.0,-8.646389,-3.5388541,-3.6115725
alexnet_w1_mlp_simclrhn_probe0,1,66,NaN,bicycle,airplane,NaN,airplane8-bicycle3.png,airplane8-bicycle3.png,0.0,-18.142021,-5.3439445,-9.049607
alexnet_w1_mlp_simclrhn_probe0,1,67,NaN,knife,airplane,NaN,airplane8-bird1.png,airplane8-bird1.png,0.0,-4.0827045,-3.9244359,-0.11191287
alexnet_w1_mlp_simclrhn_probe0,1,68,NaN,airplane,airplane,NaN,airplane8-chair1.png,airplane8-chair1.png,1.0,1.1437005,-4.703377,4.134508
alexnet_w1_mlp_simclrhn_probe0,1,69,NaN,airplane,airplane,NaN,airplane8-clock2.png,airplane8-clock2.png,1.0,-6.3477964,-8.357417,1.4210165
alexnet_w1_mlp_simclrhn_probe0,1,70,NaN,bird,airplane,NaN,airplane8-elephant3.png,airplane8-elephant3.png,0.0,-10.58302,-2.8857975,-5.4427586
alexnet_w1_mlp_simclrhn_probe0,1,71,NaN,airplane,airplane,NaN,airplane8-oven2.png,airplane8-oven2.png,1.0,-0.9148569,-2.1655035,0.8843407
alexnet_w1_mlp_simclrhn_probe0,1,72,NaN,airplane,airplane,NaN,airplane8-truck3.png,airplane8-truck3.png,1.0,-0.48218283,-4.866498,3.100179
alexnet_w1_mlp_simclrhn_probe0,1,73,NaN,airplane,airplane,NaN,airplane9-airplane2.png,airplane9-airplane2.png,1.0,4.756864,-3.74366,6.0107784
alexnet_w1_mlp_simclrhn_probe0,1,74,NaN,airplane,airplane,NaN,airplane9-boat1.png,airplane9-boat1.png,1.0,-1.8230634,-4.3739963,1.803782
alexnet_w1_mlp_simclrhn_probe0,1,75,NaN,bicycle,airplane,NaN,airplane9-car2.png,airplane9-car2.png,0.0,-7.803189,-4.173274,-2.5667374
alexnet_w1_mlp_simclrhn_probe0,1,76,NaN,bicycle,airplane,NaN,airplane9-clock1.png,airplane9-clock1.png,0.0,-13.835155,-7.5180426,-4.4668727
alexnet_w1_mlp_simclrhn_probe0,1,77,NaN,airplane,airplane,NaN,airplane9-keyboard2.png,airplane9-keyboard2.png,1.0,-2.163041,-3.858499,1.1988698
alexnet_w1_mlp_simclrhn_probe0,1,78,NaN,knife,airplane,NaN,airplane9-knife3.png,airplane9-knife3.png,0.0,-4.0225587,-2.046847,-1.397039
alexnet_w1_mlp_simclrhn_probe0,1,79,NaN,airplane,airplane,NaN,airplane9-oven2.png,airplane9-oven2.png,1.0,-1.5754135,-1.8609438,0.20190044
alexnet_w1_mlp_simclrhn_probe0,1,80,NaN,chair,airplane,NaN,airplane9-truck1.png,airplane9-truck1.png,0.0,-6.6023984,-3.7770307,-1.9978367
alexnet_w1_mlp_simclrhn_probe0,1,81,NaN,elephant,bear,NaN,bear1-airplane3.png,bear1-airplane3.png,0.0,-13.180233,-5.682728,-5.301537
alexnet_w1_mlp_simclrhn_probe0,1,82,NaN,cat,bear,NaN,bear1-bear3.png,bear1-bear3.png,0.0,-0.7360078,-0.06653444,-0.47338915
alexnet_w1_mlp_simclrhn_probe0,1,83,NaN,bird,bear,NaN,bear1-bicycle3.png,bear1-bicycle3.png,0.0,-9.942625,-5.2920303,-3.2884672
alexnet_w1_mlp_simclrhn_probe0,1,84,NaN,elephant,bear,NaN,bear1-bird2.png,bear1-bird2.png,0.0,-6.273518,-3.468892,-1.98317
alexnet_w1_mlp_simclrhn_probe0,1,85,NaN,chair,bear,NaN,bear1-chair2.png,bear1-chair2.png,0.0,-11.016328,-3.9848747,-4.971988
alexnet_w1_mlp_simclrhn_probe0,1,86,NaN,bottle,bear,NaN,bear1-clock2.png,bear1-clock2.png,0.0,-21.264105,-8.670233,-8.905212
alexnet_w1_mlp_simclrhn_probe0,1,87,NaN,cat,bear,NaN,bear1-elephant1.png,bear1-elephant1.png,0.0,-7.0629377,-1.3712234,-4.0246496
alexnet_w1_mlp_simclrhn_probe0,1,88,NaN,bear,bear,NaN,bear10-bear2.png,bear10-bear2.png,1.0,0.9642835,0.074053496,0.6294877
alexnet_w1_mlp_simclrhn_probe0,1,89,NaN,bicycle,bear,NaN,bear10-bottle1.png,bear10-bottle1.png,0.0,-11.690483,-6.3426476,-3.7814908
alexnet_w1_mlp_simclrhn_probe0,1,90,NaN,bicycle,bear,NaN,bear10-car2.png,bear10-car2.png,0.0,-16.093733,-3.1447086,-9.1563425
alexnet_w1_mlp_simclrhn_probe0,1,91,NaN,cat,bear,NaN,bear10-cat2.png,bear10-cat2.png,0.0,0.42374104,1.5528759,-0.79841894
alexnet_w1_mlp_simclrhn_probe0,1,92,NaN,chair,bear,NaN,bear10-chair2.png,bear10-chair2.png,0.0,-12.817956,-5.3210278,-5.301129
alexnet_w1_mlp_simclrhn_probe0,1,93,NaN,bicycle,bear,NaN,bear10-clock1.png,bear10-clock1.png,0.0,-19.188904,-5.0233603,-10.016552
alexnet_w1_mlp_simclrhn_probe0,1,94,NaN,cat,bear,NaN,bear10-elephant1.png,bear10-elephant1.png,0.0,-6.059513,-1.9678698,-2.8932288
alexnet_w1_mlp_simclrhn_probe0,1,95,NaN,clock,bear,NaN,bear10-keyboard3.png,bear10-keyboard3.png,0.0,-10.393362,-3.8184197,-4.6491866
alexnet_w1_mlp_simclrhn_probe0,1,96,NaN,oven,bear,NaN,bear10-knife2.png,bear10-knife2.png,0.0,-8.966135,-4.521516,-3.1428204
alexnet_w1_mlp_simclrhn_probe0,1,97,NaN,oven,bear,NaN,bear10-oven1.png,bear10-oven1.png,0.0,-11.192546,-1.3265486,-6.9763136
alexnet_w1_mlp_simclrhn_probe0,1,98,NaN,chair,bear,NaN,bear10-truck1.png,bear10-truck1.png,0.0,-21.418264,-5.065645,-11.563048
alexnet_w1_mlp_simclrhn_probe0,1,99,NaN,chair,bear,NaN,bear2-airplane1.png,bear2-airplane1.png,0.0,-12.282666,-5.5530996,-4.758522
alexnet_w1_mlp_simclrhn_probe0,1,100,NaN,elephant,bear,NaN,bear2-bird3.png,bear2-bird3.png,0.0,-6.757422,-3.998046,-1.9511735
alexnet_w1_mlp_simclrhn_probe0,1,101,NaN,bicycle,bear,NaN,bear2-car2.png,bear2-car2.png,0.0,-14.970055,-4.4090624,-7.4677496
alexnet_w1_mlp_simclrhn_probe0,1,102,NaN,cat,bear,NaN,bear2-cat2.png,bear2-cat2.png,0.0,2.1426415,2.5125468,-0.2615625
alexnet_w1_mlp_simclrhn_probe0,1,103,NaN,bear,bear,NaN,bear2-dog1.png,bear2-dog1.png,1.0,0.94629824,0.49869633,0.31650236
alexnet_w1_mlp_simclrhn_probe0,1,104,NaN,cat,bear,NaN,bear2-elephant1.png,bear2-elephant1.png,0.0,-5.831412,-1.6212214,-2.977054
alexnet_w1_mlp_simclrhn_probe0,1,105,NaN,clock,bear,NaN,bear2-keyboard2.png,bear2-keyboard2.png,0.0,-16.822485,-2.2572162,-10.2992
alexnet_w1_mlp_simclrhn_probe0,1,106,NaN,oven,bear,NaN,bear2-knife2.png,bear2-knife2.png,0.0,-9.800621,-4.3089075,-3.8832278
alexnet_w1_mlp_simclrhn_probe0,1,107,NaN,knife,bear,NaN,bear2-oven1.png,bear2-oven1.png,0.0,-12.376556,-0.87195504,-8.134982
alexnet_w1_mlp_simclrhn_probe0,1,108,NaN,elephant,bear,NaN,bear3-airplane1.png,bear3-airplane1.png,0.0,-9.459034,-3.265396,-4.3795633
alexnet_w1_mlp_simclrhn_probe0,1,109,NaN,bicycle,bear,NaN,bear3-bicycle2.png,bear3-bicycle2.png,0.0,-8.800869,-4.244013,-3.222184
alexnet_w1_mlp_simclrhn_probe0,1,110,NaN,elephant,bear,NaN,bear3-bird3.png,bear3-bird3.png,0.0,-7.483349,-4.311533,-2.2428126
alexnet_w1_mlp_simclrhn_probe0,1,111,NaN,oven,bear,NaN,bear3-car2.png,bear3-car2.png,0.0,-14.420686,-6.0548954,-5.9155073
alexnet_w1_mlp_simclrhn_probe0,1,112,NaN,cat,bear,NaN,bear3-cat1.png,bear3-cat1.png,0.0,0.5162165,1.5654384,-0.7419119
alexnet_w1_mlp_simclrhn_probe0,1,113,NaN,chair,bear,NaN,bear3-chair2.png,bear3-chair2.png,0.0,-12.253402,-3.5028687,-6.1875615
alexnet_w1_mlp_simclrhn_probe0,1,114,NaN,cat,bear,NaN,bear3-dog3.png,bear3-dog3.png,0.0,-2.9655447,-0.88413674,-1.4717778
alexnet_w1_mlp_simclrhn_probe0,1,115,NaN,keyboard,bear,NaN,bear3-keyboard2.png,bear3-keyboard2.png,0.0,-17.373878,-1.6230873,-11.137492
alexnet_w1_mlp_simclrhn_probe0,1,116,NaN,truck,bear,NaN,bear3-truck3.png,bear3-truck3.png,0.0,-15.664457,-2.872644,-9.045177
alexnet_w1_mlp_simclrhn_probe0,1,117,NaN,bicycle,bear,NaN,bear4-boat2.png,bear4-boat2.png,0.0,-17.11508,-5.065292,-8.520487
alexnet_w1_mlp_simclrhn_probe0,1,118,NaN,bicycle,bear,NaN,bear4-car3.png,bear4-car3.png,0.0,-18.188581,-7.772377,-7.365369
alexnet_w1_mlp_simclrhn_probe0,1,119,NaN,bear,bear,NaN,bear4-cat3.png,bear4-cat3.png,1.0,-2.3542004,-2.6721354,0.224814
alexnet_w1_mlp_simclrhn_probe0,1,120,NaN,bottle,bear,NaN,bear4-clock3.png,bear4-clock3.png,0.0,-19.341927,-8.009582,-8.013178
alexnet_w1_mlp_simclrhn_probe0,1,121,NaN,elephant,bear,NaN,bear4-elephant2.png,bear4-elephant2.png,0.0,-7.4236555,-1.2272909,-4.381491
alexnet_w1_mlp_simclrhn_probe0,1,122,NaN,clock,bear,NaN,bear4-keyboard3.png,bear4-keyboard3.png,0.0,-12.9622135,-2.8727427,-7.1343336
alexnet_w1_mlp_simclrhn_probe0,1,123,NaN,elephant,bear,NaN,bear4-knife1.png,bear4-knife1.png,0.0,-12.20068,-7.0460014,-3.6449082
alexnet_w1_mlp_simclrhn_probe0,1,124,NaN,truck,bear,NaN,bear4-oven2.png,bear4-oven2.png,0.0,-10.177668,-3.9001374,-4.4388843
alexnet_w1_mlp_simclrhn_probe0,1,125,NaN,knife,bear,NaN,bear4-truck3.png,bear4-truck3.png,0.0,-15.563995,-6.720448,-6.2533326
alexnet_w1_mlp_simclrhn_probe0,1,126,NaN,elephant,bear,NaN,bear5-airplane3.png,bear5-airplane3.png,0.0,-15.214862,-7.0976925,-5.7397056
alexnet_w1_mlp_simclrhn_probe0,1,127,NaN,bird,bear,NaN,bear5-bicycle3.png,bear5-bicycle3.png,0.0,-10.585527,-4.5186143,-4.2899556
alexnet_w1_mlp_simclrhn_probe0,1,128,NaN,elephant,bear,NaN,bear5-bird1.png,bear5-bird1.png,0.0,-6.4429846,-3.8316202,-1.8465135
alexnet_w1_mlp_simclrhn_probe0,1,129,NaN,bicycle,bear,NaN,bear5-boat2.png,bear5-boat2.png,0.0,-16.391949,-4.074394,-8.709826
alexnet_w1_mlp_simclrhn_probe0,1,130,NaN,bicycle,bear,NaN,bear5-bottle1.png,bear5-bottle1.png,0.0,-10.869289,-5.4128513,-3.8582845
alexnet_w1_mlp_simclrhn_probe0,1,131,NaN,bottle,bear,NaN,bear5-chair1.png,bear5-chair1.png,0.0,-19.158504,-6.29565,-9.095411
alexnet_w1_mlp_simclrhn_probe0,1,132,NaN,elephant,bear,NaN,bear5-oven3.png,bear5-oven3.png,0.0,-9.704283,-2.1713548,-5.3265843
alexnet_w1_mlp_simclrhn_probe0,1,133,NaN,cat,bear,NaN,bear6-bear1.png,bear6-bear1.png,0.0,-1.2811931,0.014746666,-0.9163678
alexnet_w1_mlp_simclrhn_probe0,1,134,NaN,cat,bear,NaN,bear6-bird2.png,bear6-bird2.png,0.0,-8.922267,-4.1718655,-3.3590412
alexnet_w1_mlp_simclrhn_probe0,1,135,NaN,bottle,bear,NaN,bear6-boat3.png,bear6-boat3.png,0.0,-11.856052,-4.8038754,-4.9866424
alexnet_w1_mlp_simclrhn_probe0,1,136,NaN,cat,bear,NaN,bear6-bottle3.png,bear6-bottle3.png,0.0,-15.433573,-6.2982774,-6.4596295
alexnet_w1_mlp_simclrhn_probe0,1,137,NaN,bicycle,bear,NaN,bear6-car2.png,bear6-car2.png,0.0,-16.096416,-6.147157,-7.0351887
alexnet_w1_mlp_simclrhn_probe0,1,138,NaN,cat,bear,NaN,bear6-cat3.png,bear6-cat3.png,0.0,-2.8198264,-0.047360938,-1.9604292
alexnet_w1_mlp_simclrhn_probe0,1,139,NaN,bottle,bear,NaN,bear6-chair1.png,bear6-chair1.png,0.0,-20.172943,-6.678639,-9.541915
alexnet_w1_mlp_simclrhn_probe0,1,140,NaN,bicycle,bear,NaN,bear6-clock1.png,bear6-clock1.png,0.0,-18.92427,-8.634085,-7.2762604
alexnet_w1_mlp_simclrhn_probe0,1,141,NaN,bear,bear,NaN,bear7-bear2.png,bear7-bear2.png,1.0,1.7620451,1.3935952,0.26053345
alexnet_w1_mlp_simclrhn_probe0,1,142,NaN,bicycle,bear,NaN,bear7-bicycle2.png,bear7-bicycle2.png,0.0,-9.175564,-3.8414776,-3.7717688
alexnet_w1_mlp_simclrhn_probe0,1,143,NaN,elephant,bear,NaN,bear7-clock1.png,bear7-clock1.png,0.0,-14.619438,-6.3459654,-5.850229
alexnet_w1_mlp_simclrhn_probe0,1,144,NaN,bear,bear,NaN,bear7-dog3.png,bear7-dog3.png,1.0,1.1541405,-0.38167435,1.0859851
alexnet_w1_mlp_simclrhn_probe0,1,145,NaN,oven,bear,NaN,bear7-oven3.png,bear7-oven3.png,0.0,-10.352606,-1.1132743,-6.533194
alexnet_w1_mlp_simclrhn_probe0,1,146,NaN,chair,bear,NaN,bear7-truck1.png,bear7-truck1.png,0.0,-21.639423,-3.998157,-12.474259
alexnet_w1_mlp_simclrhn_probe0,1,147,NaN,oven,bear,NaN,bear8-airplane1.png,bear8-airplane1.png,0.0,-11.549131,-4.474881,-5.00225
alexnet_w1_mlp_simclrhn_probe0,1,148,NaN,bear,bear,NaN,bear8-bear1.png,bear8-bear1.png,1.0,0.986574,0.047760528,0.66384137
alexnet_w1_mlp_simclrhn_probe0,1,149,NaN,bicycle,bear,NaN,bear8-bicycle3.png,bear8-bicycle3.png,0.0,-13.478646,-5.0259695,-5.9769454
alexnet_w1_mlp_simclrhn_probe0,1,150,NaN,chair,bear,NaN,bear8-boat2.png,bear8-boat2.png,0.0,-17.727097,-4.8002405,-9.140668
alexnet_w1_mlp_simclrhn_probe0,1,151,NaN,bicycle,bear,NaN,bear8-bottle1.png,bear8-bottle1.png,0.0,-10.999194,-5.4954333,-3.8917468
alexnet_w1_mlp_simclrhn_probe0,1,152,NaN,bear,bear,NaN,bear8-dog1.png,bear8-dog1.png,1.0,0.40580449,-0.8794548,0.90881556
alexnet_w1_mlp_simclrhn_probe0,1,153,NaN,elephant,bear,NaN,bear8-elephant2.png,bear8-elephant2.png,0.0,-7.2063055,-1.2813253,-4.189594
alexnet_w1_mlp_simclrhn_probe0,1,154,NaN,elephant,bear,NaN,bear8-knife3.png,bear8-knife3.png,0.0,-9.823677,-3.987446,-4.1268387
alexnet_w1_mlp_simclrhn_probe0,1,155,NaN,bottle,bear,NaN,bear8-truck3.png,bear8-truck3.png,0.0,-18.710377,-3.6424282,-10.654649
alexnet_w1_mlp_simclrhn_probe0,1,156,NaN,oven,bear,NaN,bear9-boat2.png,bear9-boat2.png,0.0,-14.094479,-3.9252982,-7.1906962
alexnet_w1_mlp_simclrhn_probe0,1,157,NaN,bottle,bear,NaN,bear9-bottle2.png,bear9-bottle2.png,0.0,-18.658197,-3.8718183,-10.455549
alexnet_w1_mlp_simclrhn_probe0,1,158,NaN,bear,bear,NaN,bear9-dog1.png,bear9-dog1.png,1.0,1.4278544,0.30564317,0.7935232
alexnet_w1_mlp_simclrhn_probe0,1,159,NaN,clock,bear,NaN,bear9-keyboard3.png,bear9-keyboard3.png,0.0,-13.967098,-1.790177,-8.610383
alexnet_w1_mlp_simclrhn_probe0,1,160,NaN,oven,bear,NaN,bear9-knife2.png,bear9-knife2.png,0.0,-8.389072,-3.032821,-3.787442
alexnet_w1_mlp_simclrhn_probe0,1,161,NaN,bicycle,bicycle,NaN,bicycle1-airplane2.png,bicycle1-airplane2.png,1.0,-0.11751178,-4.1584926,2.857405
alexnet_w1_mlp_simclrhn_probe0,1,162,NaN,elephant,bicycle,NaN,bicycle1-bear1.png,bicycle1-bear1.png,0.0,-7.549013,-3.6414647,-2.7630541
alexnet_w1_mlp_simclrhn_probe0,1,163,NaN,bicycle,bicycle,NaN,bicycle1-bicycle3.png,bicycle1-bicycle3.png,1.0,4.8580647,-9.417051,10.094031
alexnet_w1_mlp_simclrhn_probe0,1,164,NaN,bottle,bicycle,NaN,bicycle1-bird1.png,bicycle1-bird1.png,0.0,-4.3860607,-4.3299785,-0.03965614
alexnet_w1_mlp_simclrhn_probe0,1,165,NaN,bicycle,bicycle,NaN,bicycle1-boat3.png,bicycle1-boat3.png,1.0,-4.2050705,-7.9997244,2.6832256
alexnet_w1_mlp_simclrhn_probe0,1,166,NaN,bicycle,bicycle,NaN,bicycle1-bottle3.png,bicycle1-bottle3.png,1.0,9.278885,-13.806445,16.323793
alexnet_w1_mlp_simclrhn_probe0,1,167,NaN,bicycle,bicycle,NaN,bicycle1-chair1.png,bicycle1-chair1.png,1.0,-1.593787,-7.1266675,3.9123375
alexnet_w1_mlp_simclrhn_probe0,1,168,NaN,bicycle,bicycle,NaN,bicycle1-clock3.png,bicycle1-clock3.png,1.0,3.7859454,-6.910175,7.563299
alexnet_w1_mlp_simclrhn_probe0,1,169,NaN,elephant,bicycle,NaN,bicycle1-dog3.png,bicycle1-dog3.png,0.0,-11.437698,-4.679362,-4.778866
alexnet_w1_mlp_simclrhn_probe0,1,170,NaN,elephant,bicycle,NaN,bicycle1-elephant2.png,bicycle1-elephant2.png,0.0,-3.2417474,-2.4542537,-0.55684215
alexnet_w1_mlp_simclrhn_probe0,1,171,NaN,bicycle,bicycle,NaN,bicycle1-knife3.png,bicycle1-knife3.png,1.0,-3.434307,-4.79096,0.9592984
alexnet_w1_mlp_simclrhn_probe0,1,172,NaN,keyboard,bicycle,NaN,bicycle1-oven1.png,bicycle1-oven1.png,0.0,-7.586091,-1.7735252,-4.1101046
alexnet_w1_mlp_simclrhn_probe0,1,173,NaN,bicycle,bicycle,NaN,bicycle1-truck1.png,bicycle1-truck1.png,1.0,2.969809,-6.868098,6.956451
alexnet_w1_mlp_simclrhn_probe0,1,174,NaN,car,bicycle,NaN,bicycle10-airplane2.png,bicycle10-airplane2.png,0.0,-4.405696,-0.38102904,-2.8458693
alexnet_w1_mlp_simclrhn_probe0,1,175,NaN,truck,bicycle,NaN,bicycle10-boat3.png,bicycle10-boat3.png,0.0,-4.4420776,-4.14672,-0.20884944
alexnet_w1_mlp_simclrhn_probe0,1,176,NaN,bicycle,bicycle,NaN,bicycle10-clock2.png,bicycle10-clock2.png,1.0,0.35496736,-2.5046685,2.022068
alexnet_w1_mlp_simclrhn_probe0,1,177,NaN,cat,bicycle,NaN,bicycle10-dog3.png,bicycle10-dog3.png,0.0,-13.833811,-4.675903,-6.4756184
alexnet_w1_mlp_simclrhn_probe0,1,178,NaN,cat,bicycle,NaN,bicycle10-elephant2.png,bicycle10-elephant2.png,0.0,-3.9211476,-3.2030466,-0.5077741
alexnet_w1_mlp_simclrhn_probe0,1,179,NaN,bicycle,bicycle,NaN,bicycle2-bicycle1.png,bicycle2-bicycle1.png,1.0,0.8923169,-10.002225,7.7036047
alexnet_w1_mlp_simclrhn_probe0,1,180,NaN,bicycle,bicycle,NaN,bicycle2-bird3.png,bicycle2-bird3.png,1.0,-4.4933953,-8.725574,2.9926019
alexnet_w1_mlp_simclrhn_probe0,1,181,NaN,bicycle,bicycle,NaN,bicycle2-bottle1.png,bicycle2-bottle1.png,1.0,-1.4238315,-8.133639,4.7445507
alexnet_w1_mlp_simclrhn_probe0,1,182,NaN,bicycle,bicycle,NaN,bicycle2-car2.png,bicycle2-car2.png,1.0,-1.4210727,-6.07205,3.2887375
alexnet_w1_mlp_simclrhn_probe0,1,183,NaN,cat,bicycle,NaN,bicycle2-dog1.png,bicycle2-dog1.png,0.0,-11.694441,-0.15379,-8.160473
alexnet_w1_mlp_simclrhn_probe0,1,184,NaN,knife,bicycle,NaN,bicycle2-keyboard2.png,bicycle2-keyboard2.png,0.0,-5.0692644,-4.1201005,-0.6711603
alexnet_w1_mlp_simclrhn_probe0,1,185,NaN,bicycle,bicycle,NaN,bicycle2-knife2.png,bicycle2-knife2.png,1.0,-4.823044,-5.8591228,0.73261845
alexnet_w1_mlp_simclrhn_probe0,1,186,NaN,cat,bicycle,NaN,bicycle3-bird1.png,bicycle3-bird1.png,0.0,-5.4009895,-3.4289713,-1.3944275
alexnet_w1_mlp_simclrhn_probe0,1,187,NaN,elephant,bicycle,NaN,bicycle3-elephant2.png,bicycle3-elephant2.png,0.0,-4.539136,-2.8185134,-1.2166638
alexnet_w1_mlp_simclrhn_probe0,1,188,NaN,bicycle,bicycle,NaN,bicycle3-keyboard1.png,bicycle3-keyboard1.png,1.0,1.8507018,-9.365001,7.9306993
alexnet_w1_mlp_simclrhn_probe0,1,189,NaN,truck,bicycle,NaN,bicycle3-oven3.png,bicycle3-oven3.png,0.0,-6.3484507,-1.3726563,-3.518418
alexnet_w1_mlp_simclrhn_probe0,1,190,NaN,bottle,bicycle,NaN,bicycle3-truck3.png,bicycle3-truck3.png,0.0,-7.6436214,-3.3854384,-3.0109901
alexnet_w1_mlp_simclrhn_probe0,1,191,NaN,bicycle,bicycle,NaN,bicycle4-airplane1.png,bicycle4-airplane1.png,1.0,-0.60575366,-6.2745895,4.008472
alexnet_w1_mlp_simclrhn_probe0,1,192,NaN,bicycle,bicycle,NaN,bicycle4-bicycle3.png,bicycle4-bicycle3.png,1.0,3.8665037,-8.610766,8.8227625
alexnet_w1_mlp_simclrhn_probe0,1,193,NaN,bicycle,bicycle,NaN,bicycle4-boat1.png,bicycle4-boat1.png,1.0,3.1463256,-7.1311135,7.267247
alexnet_w1_mlp_simclrhn_probe0,1,194,NaN,bicycle,bicycle,NaN,bicycle4-bottle1.png,bicycle4-bottle1.png,1.0,1.3951409,-8.445552,6.9584208
alexnet_w1_mlp_simclrhn_probe0,1,195,NaN,bicycle,bicycle,NaN,bicycle4-car2.png,bicycle4-car2.png,1.0,1.4890152,-7.203384,6.1464543
alexnet_w1_mlp_simclrhn_probe0,1,196,NaN,cat,bicycle,NaN,bicycle4-cat1.png,bicycle4-cat1.png,0.0,-11.302885,-1.1145493,-7.2042413
alexnet_w1_mlp_simclrhn_probe0,1,197,NaN,bicycle,bicycle,NaN,bicycle4-chair2.png,bicycle4-chair2.png,1.0,-2.3218586,-5.9355855,2.5552907
alexnet_w1_mlp_simclrhn_probe0,1,198,NaN,bicycle,bicycle,NaN,bicycle4-clock3.png,bicycle4-clock3.png,1.0,0.59672296,-5.5136237,4.3206677
alexnet_w1_mlp_simclrhn_probe0,1,199,NaN,bottle,bicycle,NaN,bicycle4-keyboard3.png,bicycle4-keyboard3.png,0.0,-6.099197,-4.665977,-1.0134395
alexnet_w1_mlp_simclrhn_probe0,1,200,NaN,airplane,bicycle,NaN,bicycle4-knife3.png,bicycle4-knife3.png,0.0,-4.756134,-4.5595407,-0.13901244
alexnet_w1_mlp_simclrhn_probe0,1,201,NaN,chair,bicycle,NaN,bicycle4-oven3.png,bicycle4-oven3.png,0.0,-5.8225913,-2.5277145,-2.3298297
alexnet_w1_mlp_simclrhn_probe0,1,202,NaN,chair,bicycle,NaN,bicycle4-truck3.png,bicycle4-truck3.png,0.0,-6.782296,-5.674279,-0.7834863
alexnet_w1_mlp_simclrhn_probe0,1,203,NaN,cat,bicycle,NaN,bicycle5-bear1.png,bicycle5-bear1.png,0.0,-8.586927,-2.6317792,-4.2109256
alexnet_w1_mlp_simclrhn_probe0,1,204,NaN,bicycle,bicycle,NaN,bicycle5-bottle3.png,bicycle5-bottle3.png,1.0,3.7187107,-9.324334,9.222826
alexnet_w1_mlp_simclrhn_probe0,1,205,NaN,bicycle,bicycle,NaN,bicycle5-car3.png,bicycle5-car3.png,1.0,-0.07711762,-8.65813,6.067692
alexnet_w1_mlp_simclrhn_probe0,1,206,NaN,cat,bicycle,NaN,bicycle5-cat1.png,bicycle5-cat1.png,0.0,-7.418813,-2.776284,-3.2827642
alexnet_w1_mlp_simclrhn_probe0,1,207,NaN,bicycle,bicycle,NaN,bicycle5-chair2.png,bicycle5-chair2.png,1.0,-0.45327637,-5.4305716,3.5194793
alexnet_w1_mlp_simclrhn_probe0,1,208,NaN,cat,bicycle,NaN,bicycle5-dog2.png,bicycle5-dog2.png,0.0,-6.821316,-1.6365056,-3.6662145
alexnet_w1_mlp_simclrhn_probe0,1,209,NaN,bicycle,bicycle,NaN,bicycle5-elephant1.png,bicycle5-elephant1.png,1.0,-0.90698385,-2.3277287,1.0046184
alexnet_w1_mlp_simclrhn_probe0,1,210,NaN,airplane,bicycle,NaN,bicycle5-keyboard3.png,bicycle5-keyboard3.png,0.0,-6.3237605,-2.3479114,-2.8113499
alexnet_w1_mlp_simclrhn_probe0,1,211,NaN,chair,bicycle,NaN,bicycle5-oven3.png,bicycle5-oven3.png,0.0,-5.388454,-1.6527371,-2.6415508
alexnet_w1_mlp_simclrhn_probe0,1,212,NaN,chair,bicycle,NaN,bicycle6-airplane2.png,bicycle6-airplane2.png,0.0,-6.1619115,-5.397044,-0.5408429
alexnet_w1_mlp_simclrhn_probe0,1,213,NaN,bicycle,bicycle,NaN,bicycle6-bicycle3.png,bicycle6-bicycle3.png,1.0,-1.9404709,-8.314854,4.5073695
alexnet_w1_mlp_simclrhn_probe0,1,214,NaN,bicycle,bicycle,NaN,bicycle6-boat2.png,bicycle6-boat2.png,1.0,-1.7701154,-5.203435,2.4277236
alexnet_w1_mlp_simclrhn_probe0,1,215,NaN,bicycle,bicycle,NaN,bicycle6-car2.png,bicycle6-car2.png,1.0,-3.6108146,-6.7859893,2.2451875
alexnet_w1_mlp_simclrhn_probe0,1,216,NaN,cat,bicycle,NaN,bicycle6-cat1.png,bicycle6-cat1.png,0.0,-13.444368,-1.379968,-8.53082
alexnet_w1_mlp_simclrhn_probe0,1,217,NaN,cat,bicycle,NaN,bicycle6-dog2.png,bicycle6-dog2.png,0.0,-9.52218,-0.47474894,-6.3975
alexnet_w1_mlp_simclrhn_probe0,1,218,NaN,elephant,bicycle,NaN,bicycle7-bear2.png,bicycle7-bear2.png,0.0,-5.135397,-1.1811323,-2.7960875
alexnet_w1_mlp_simclrhn_probe0,1,219,NaN,bicycle,bicycle,NaN,bicycle7-bicycle2.png,bicycle7-bicycle2.png,1.0,4.167055,-7.6973453,8.389399
alexnet_w1_mlp_simclrhn_probe0,1,220,NaN,cat,bicycle,NaN,bicycle7-cat1.png,bicycle7-cat1.png,0.0,-10.405634,-1.9931923,-5.9484944
alexnet_w1_mlp_simclrhn_probe0,1,221,NaN,bicycle,bicycle,NaN,bicycle7-clock3.png,bicycle7-clock3.png,1.0,1.1234664,-7.539066,6.125335
alexnet_w1_mlp_simclrhn_probe0,1,222,NaN,elephant,bicycle,NaN,bicycle7-elephant2.png,bicycle7-elephant2.png,0.0,-3.928519,-3.7542121,-0.12325357
alexnet_w1_mlp_simclrhn_probe0,1,223,NaN,bicycle,bicycle,NaN,bicycle7-knife2.png,bicycle7-knife2.png,1.0,-3.5185566,-5.2310667,1.2109275
alexnet_w1_mlp_simclrhn_probe0,1,224,NaN,knife,bicycle,NaN,bicycle7-oven1.png,bicycle7-oven1.png,0.0,-6.4336147,-2.213667,-2.9839537
alexnet_w1_mlp_simclrhn_probe0,1,225,NaN,bottle,bicycle,NaN,bicycle7-truck3.png,bicycle7-truck3.png,0.0,-7.418576,-4.242053,-2.2461407
alexnet_w1_mlp_simclrhn_probe0,1,226,NaN,elephant,bicycle,NaN,bicycle8-bear2.png,bicycle8-bear2.png,0.0,-5.104537,-1.1908476,-2.7673965
alexnet_w1_mlp_simclrhn_probe0,1,227,NaN,bicycle,bicycle,NaN,bicycle8-bird2.png,bicycle8-bird2.png,1.0,2.6498644,-8.523459,7.900733
alexnet_w1_mlp_simclrhn_probe0,1,228,NaN,bicycle,bicycle,NaN,bicycle8-boat1.png,bicycle8-boat1.png,1.0,1.9546471,-8.790658,7.5980783
alexnet_w1_mlp_simclrhn_probe0,1,229,NaN,bicycle,bicycle,NaN,bicycle8-chair2.png,bicycle8-chair2.png,1.0,-1.326196,-6.997245,4.0100374
alexnet_w1_mlp_simclrhn_probe0,1,230,NaN,bicycle,bicycle,NaN,bicycle8-clock3.png,bicycle8-clock3.png,1.0,2.3371406,-7.0160584,6.6137104
alexnet_w1_mlp_simclrhn_probe0,1,231,NaN,bicycle,bicycle,NaN,bicycle8-truck1.png,bicycle8-truck1.png,1.0,1.3944851,-5.068601,4.570092
alexnet_w1_mlp_simclrhn_probe0,1,232,NaN,bicycle,bicycle,NaN,bicycle9-airplane2.png,bicycle9-airplane2.png,1.0,-2.4025958,-3.8603199,1.0307666
alexnet_w1_mlp_simclrhn_probe0,1,233,NaN,cat,bicycle,NaN,bicycle9-bear1.png,bicycle9-bear1.png,0.0,-8.82788,-3.9161112,-3.4731452
alexnet_w1_mlp_simclrhn_probe0,1,234,NaN,bicycle,bicycle,NaN,bicycle9-bird3.png,bicycle9-bird3.png,1.0,-2.084598,-8.742198,4.707634
alexnet_w1_mlp_simclrhn_probe0,1,235,NaN,bicycle,bicycle,NaN,bicycle9-bottle1.png,bicycle9-bottle1.png,1.0,1.6895843,-10.169504,8.385642
alexnet_w1_mlp_simclrhn_probe0,1,236,NaN,bicycle,bicycle,NaN,bicycle9-car1.png,bicycle9-car1.png,1.0,3.5126917,-9.8273325,9.432821
alexnet_w1_mlp_simclrhn_probe0,1,237,NaN,cat,bicycle,NaN,bicycle9-cat3.png,bicycle9-cat3.png,0.0,-8.353012,-2.4199455,-4.1953115
alexnet_w1_mlp_simclrhn_probe0,1,238,NaN,bicycle,bicycle,NaN,bicycle9-chair1.png,bicycle9-chair1.png,1.0,-2.8056068,-6.6249313,2.7006702
alexnet_w1_mlp_simclrhn_probe0,1,239,NaN,airplane,bicycle,NaN,bicycle9-keyboard3.png,bicycle9-keyboard3.png,0.0,-6.2893095,-2.6410205,-2.5797298
alexnet_w1_mlp_simclrhn_probe0,1,240,NaN,knife,bicycle,NaN,bicycle9-knife3.png,bicycle9-knife3.png,0.0,-6.0685854,-3.5069695,-1.811336
alexnet_w1_mlp_simclrhn_probe0,1,241,NaN,car,bird,NaN,bird1-airplane2.png,bird1-airplane2.png,0.0,-7.8213196,-7.3433175,-0.3379985
alexnet_w1_mlp_simclrhn_probe0,1,242,NaN,cat,bird,NaN,bird1-bear1.png,bird1-bear1.png,0.0,-4.3308563,-2.8116577,-1.0742357
alexnet_w1_mlp_simclrhn_probe0,1,243,NaN,bird,bird,NaN,bird1-bicycle2.png,bird1-bicycle2.png,1.0,-2.817571,-3.6166968,0.56506735
alexnet_w1_mlp_simclrhn_probe0,1,244,NaN,bicycle,bird,NaN,bird1-boat1.png,bird1-boat1.png,0.0,-8.9452915,-3.6348472,-3.7550514
alexnet_w1_mlp_simclrhn_probe0,1,245,NaN,bicycle,bird,NaN,bird1-chair2.png,bird1-chair2.png,0.0,-10.471644,-5.4112606,-3.5782318
alexnet_w1_mlp_simclrhn_probe0,1,246,NaN,bottle,bird,NaN,bird1-clock3.png,bird1-clock3.png,0.0,-16.777948,-5.0701795,-8.278644
alexnet_w1_mlp_simclrhn_probe0,1,247,NaN,elephant,bird,NaN,bird1-elephant2.png,bird1-elephant2.png,0.0,-4.614717,-1.1938226,-2.4189377
alexnet_w1_mlp_simclrhn_probe0,1,248,NaN,knife,bird,NaN,bird1-keyboard3.png,bird1-keyboard3.png,0.0,-6.431432,-3.1979651,-2.2864063
alexnet_w1_mlp_simclrhn_probe0,1,249,NaN,knife,bird,NaN,bird1-knife3.png,bird1-knife3.png,0.0,-6.842037,-3.5953012,-2.295789
alexnet_w1_mlp_simclrhn_probe0,1,250,NaN,knife,bird,NaN,bird1-oven1.png,bird1-oven1.png,0.0,-6.350871,-1.0580132,-3.742616
alexnet_w1_mlp_simclrhn_probe0,1,251,NaN,chair,bird,NaN,bird1-truck1.png,bird1-truck1.png,0.0,-14.90035,-5.179751,-6.873501
alexnet_w1_mlp_simclrhn_probe0,1,252,NaN,elephant,bird,NaN,bird10-bear2.png,bird10-bear2.png,0.0,-4.327593,-1.1531558,-2.244666
alexnet_w1_mlp_simclrhn_probe0,1,253,NaN,bicycle,bird,NaN,bird10-bicycle1.png,bird10-bicycle1.png,0.0,-4.9443655,-3.630198,-0.92925674
alexnet_w1_mlp_simclrhn_probe0,1,254,NaN,bird,bird,NaN,bird10-bird2.png,bird10-bird2.png,1.0,-3.2144508,-5.342698,1.5048981
alexnet_w1_mlp_simclrhn_probe0,1,255,NaN,cat,bird,NaN,bird10-cat1.png,bird10-cat1.png,0.0,-5.668793,-2.1070688,-2.5185196
alexnet_w1_mlp_simclrhn_probe0,1,256,NaN,chair,bird,NaN,bird10-chair1.png,bird10-chair1.png,0.0,-10.794135,-7.345623,-2.4384663
alexnet_w1_mlp_simclrhn_probe0,1,257,NaN,bicycle,bird,NaN,bird10-clock1.png,bird10-clock1.png,0.0,-9.798486,-7.229092,-1.8168356
alexnet_w1_mlp_simclrhn_probe0,1,258,NaN,elephant,bird,NaN,bird10-elephant2.png,bird10-elephant2.png,0.0,-6.5136027,-2.039441,-3.16371
alexnet_w1_mlp_simclrhn_probe0,1,259,NaN,bottle,bird,NaN,bird2-airplane3.png,bird2-airplane3.png,0.0,-12.018612,-5.680848,-4.481476
alexnet_w1_mlp_simclrhn_probe0,1,260,NaN,bicycle,bird,NaN,bird2-bird2.png,bird2-bird2.png,0.0,-4.83918,-2.5622768,-1.6100137
alexnet_w1_mlp_simclrhn_probe0,1,261,NaN,bicycle,bird,NaN,bird2-car3.png,bird2-car3.png,0.0,-9.464952,-3.2238696,-4.413112
alexnet_w1_mlp_simclrhn_probe0,1,262,NaN,bicycle,bird,NaN,bird2-clock3.png,bird2-clock3.png,0.0,-13.420937,-5.930908,-5.29625
alexnet_w1_mlp_simclrhn_probe0,1,263,NaN,cat,bird,NaN,bird2-dog2.png,bird2-dog2.png,0.0,-6.2850404,-1.0296253,-3.7161396
alexnet_w1_mlp_simclrhn_probe0,1,264,NaN,bicycle,bird,NaN,bird2-knife1.png,bird2-knife1.png,0.0,-10.243225,-4.771614,-3.8690133
alexnet_w1_mlp_simclrhn_probe0,1,265,NaN,cat,bird,NaN,bird3-bear3.png,bird3-bear3.png,0.0,-3.316032,-1.0265291,-1.6189231
alexnet_w1_mlp_simclrhn_probe0,1,266,NaN,bird,bird,NaN,bird3-bird2.png,bird3-bird2.png,1.0,-3.3878772,-3.7665358,0.26775202
alexnet_w1_mlp_simclrhn_probe0,1,267,NaN,bottle,bird,NaN,bird3-boat3.png,bird3-boat3.png,0.0,-10.568782,-6.6729426,-2.7547743
alexnet_w1_mlp_simclrhn_probe0,1,268,NaN,bicycle,bird,NaN,bird3-bottle2.png,bird3-bottle2.png,0.0,-10.9488125,-6.664342,-3.0295782
alexnet_w1_mlp_simclrhn_probe0,1,269,NaN,cat,bird,NaN,bird3-cat1.png,bird3-cat1.png,0.0,-5.14197,-0.70577693,-3.1368625
alexnet_w1_mlp_simclrhn_probe0,1,270,NaN,cat,bird,NaN,bird3-dog1.png,bird3-dog1.png,0.0,-4.8658423,-0.8980796,-2.8056319
alexnet_w1_mlp_simclrhn_probe0,1,271,NaN,clock,bird,NaN,bird3-knife3.png,bird3-knife3.png,0.0,-7.2550535,-2.6169226,-3.279654
alexnet_w1_mlp_simclrhn_probe0,1,272,NaN,knife,bird,NaN,bird3-oven1.png,bird3-oven1.png,0.0,-7.87654,-1.8937886,-4.2304444
alexnet_w1_mlp_simclrhn_probe0,1,273,NaN,bottle,bird,NaN,bird3-truck3.png,bird3-truck3.png,0.0,-10.017677,-2.6311588,-5.2230573
alexnet_w1_mlp_simclrhn_probe0,1,274,NaN,bicycle,bird,NaN,bird4-airplane1.png,bird4-airplane1.png,0.0,-7.2502956,-4.965804,-1.6153795
alexnet_w1_mlp_simclrhn_probe0,1,275,NaN,bird,bird,NaN,bird4-bicycle2.png,bird4-bicycle2.png,1.0,-5.159809,-6.2046986,0.73884845
alexnet_w1_mlp_simclrhn_probe0,1,276,NaN,cat,bird,NaN,bird4-cat3.png,bird4-cat3.png,0.0,-6.5458746,0.15380321,-4.7373877
alexnet_w1_mlp_simclrhn_probe0,1,277,NaN,knife,bird,NaN,bird4-clock1.png,bird4-clock1.png,0.0,-12.087407,-7.365357,-3.3389938
alexnet_w1_mlp_simclrhn_probe0,1,278,NaN,cat,bird,NaN,bird4-dog3.png,bird4-dog3.png,0.0,-6.469654,0.05959034,-4.6168733
alexnet_w1_mlp_simclrhn_probe0,1,279,NaN,knife,bird,NaN,bird5-airplane3.png,bird5-airplane3.png,0.0,-8.562206,-5.8348765,-1.9285134
alexnet_w1_mlp_simclrhn_probe0,1,280,NaN,cat,bird,NaN,bird5-bear3.png,bird5-bear3.png,0.0,-5.4309607,-1.01442,-3.1229658
alexnet_w1_mlp_simclrhn_probe0,1,281,NaN,bird,bird,NaN,bird5-bicycle1.png,bird5-bicycle1.png,1.0,-4.9659085,-7.0171204,1.4504259
alexnet_w1_mlp_simclrhn_probe0,1,282,NaN,cat,bird,NaN,bird5-bird1.png,bird5-bird1.png,0.0,-3.5964062,-3.1279767,-0.33122972
alexnet_w1_mlp_simclrhn_probe0,1,283,NaN,bicycle,bird,NaN,bird5-car2.png,bird5-car2.png,0.0,-8.466718,-5.1876,-2.3186862
alexnet_w1_mlp_simclrhn_probe0,1,284,NaN,cat,bird,NaN,bird5-cat2.png,bird5-cat2.png,0.0,-1.9328053,0.092036106,-1.431779
alexnet_w1_mlp_simclrhn_probe0,1,285,NaN,airplane,bird,NaN,bird5-chair1.png,bird5-chair1.png,0.0,-9.661856,-3.9366672,-4.0483193
alexnet_w1_mlp_simclrhn_probe0,1,286,NaN,cat,bird,NaN,bird5-dog2.png,bird5-dog2.png,0.0,-4.812226,-1.7045144,-2.1974838
alexnet_w1_mlp_simclrhn_probe0,1,287,NaN,knife,bird,NaN,bird5-keyboard2.png,bird5-keyboard2.png,0.0,-8.402276,-4.092969,-3.0471404
alexnet_w1_mlp_simclrhn_probe0,1,288,NaN,chair,bird,NaN,bird5-oven3.png,bird5-oven3.png,0.0,-11.375818,-1.7380618,-6.814923
alexnet_w1_mlp_simclrhn_probe0,1,289,NaN,chair,bird,NaN,bird5-truck2.png,bird5-truck2.png,0.0,-12.779598,-4.9062033,-5.567331
alexnet_w1_mlp_simclrhn_probe0,1,290,NaN,airplane,bird,NaN,bird6-airplane2.png,bird6-airplane2.png,0.0,-8.813758,-4.3669677,-3.1443555
alexnet_w1_mlp_simclrhn_probe0,1,291,NaN,bicycle,bird,NaN,bird6-boat2.png,bird6-boat2.png,0.0,-12.564038,-2.1819901,-7.3412166
alexnet_w1_mlp_simclrhn_probe0,1,292,NaN,bird,bird,NaN,bird6-bottle3.png,bird6-bottle3.png,1.0,-6.4689693,-8.093411,1.1486541
alexnet_w1_mlp_simclrhn_probe0,1,293,NaN,bicycle,bird,NaN,bird6-car3.png,bird6-car3.png,0.0,-11.003286,-5.171655,-4.123586
alexnet_w1_mlp_simclrhn_probe0,1,294,NaN,elephant,bird,NaN,bird6-elephant2.png,bird6-elephant2.png,0.0,-6.4577785,-1.3594341,-3.605074
alexnet_w1_mlp_simclrhn_probe0,1,295,NaN,knife,bird,NaN,bird6-oven1.png,bird6-oven1.png,0.0,-10.112877,-2.3696384,-5.4752965
alexnet_w1_mlp_simclrhn_probe0,1,296,NaN,chair,bird,NaN,bird6-truck2.png,bird6-truck2.png,0.0,-13.531198,-3.6429837,-6.9920235
alexnet_w1_mlp_simclrhn_probe0,1,297,NaN,bird,bird,NaN,bird7-bird2.png,bird7-bird2.png,1.0,-4.369575,-6.8904047,1.7824957
alexnet_w1_mlp_simclrhn_probe0,1,298,NaN,bicycle,bird,NaN,bird7-boat1.png,bird7-boat1.png,0.0,-11.387374,-4.5489664,-4.8354845
alexnet_w1_mlp_simclrhn_probe0,1,299,NaN,bicycle,bird,NaN,bird7-bottle1.png,bird7-bottle1.png,0.0,-9.538346,-6.6832085,-2.0188873
alexnet_w1_mlp_simclrhn_probe0,1,300,NaN,bicycle,bird,NaN,bird7-car2.png,bird7-car2.png,0.0,-9.637106,-3.2312431,-4.529629
alexnet_w1_mlp_simclrhn_probe0,1,301,NaN,cat,bird,NaN,bird7-cat3.png,bird7-cat3.png,0.0,-5.9727526,-3.3100166,-1.8828387
alexnet_w1_mlp_simclrhn_probe0,1,302,NaN,bottle,bird,NaN,bird7-keyboard3.png,bird7-keyboard3.png,0.0,-7.209048,-4.19449,-2.1316142
alexnet_w1_mlp_simclrhn_probe0,1,303,NaN,oven,bird,NaN,bird7-knife2.png,bird7-knife2.png,0.0,-9.260291,-5.652059,-2.5514054
alexnet_w1_mlp_simclrhn_probe0,1,304,NaN,knife,bird,NaN,bird7-oven3.png,bird7-oven3.png,0.0,-11.589344,-2.2353427,-6.614278
alexnet_w1_mlp_simclrhn_probe0,1,305,NaN,chair,bird,NaN,bird7-truck2.png,bird7-truck2.png,0.0,-12.7011175,-6.9071374,-4.096963
alexnet_w1_mlp_simclrhn_probe0,1,306,NaN,boat,bird,NaN,bird8-boat3.png,bird8-boat3.png,0.0,-11.859875,-6.414715,-3.8503096
alexnet_w1_mlp_simclrhn_probe0,1,307,NaN,bicycle,bird,NaN,bird8-bottle1.png,bird8-bottle1.png,0.0,-7.140888,-4.773001,-1.674349
alexnet_w1_mlp_simclrhn_probe0,1,308,NaN,bicycle,bird,NaN,bird8-car2.png,bird8-car2.png,0.0,-9.746409,-2.0957992,-5.409798
alexnet_w1_mlp_simclrhn_probe0,1,309,NaN,chair,bird,NaN,bird8-chair1.png,bird8-chair1.png,0.0,-11.076201,-5.6853194,-3.8119292
alexnet_w1_mlp_simclrhn_probe0,1,310,NaN,bicycle,bird,NaN,bird8-clock1.png,bird8-clock1.png,0.0,-11.950387,-5.957299,-4.237753
alexnet_w1_mlp_simclrhn_probe0,1,311,NaN,cat,bird,NaN,bird8-elephant1.png,bird8-elephant1.png,0.0,-4.2815223,-1.0685269,-2.271931
alexnet_w1_mlp_simclrhn_probe0,1,312,NaN,bottle,bird,NaN,bird8-keyboard2.png,bird8-keyboard2.png,0.0,-11.0012045,-3.1353095,-5.562028
alexnet_w1_mlp_simclrhn_probe0,1,313,NaN,knife,bird,NaN,bird8-knife2.png,bird8-knife2.png,0.0,-8.491692,-5.7537737,-1.9360003
alexnet_w1_mlp_simclrhn_probe0,1,314,NaN,cat,bird,NaN,bird9-bear3.png,bird9-bear3.png,0.0,-5.5483637,-1.9965578,-2.511506
alexnet_w1_mlp_simclrhn_probe0,1,315,NaN,bird,bird,NaN,bird9-bicycle3.png,bird9-bicycle3.png,1.0,-4.548309,-4.7741156,0.15966946
alexnet_w1_mlp_simclrhn_probe0,1,316,NaN,bird,bird,NaN,bird9-bottle3.png,bird9-bottle3.png,1.0,-4.660993,-8.173268,2.4835536
alexnet_w1_mlp_simclrhn_probe0,1,317,NaN,bottle,bird,NaN,bird9-chair1.png,bird9-chair1.png,0.0,-11.038769,-6.8994155,-2.9269648
alexnet_w1_mlp_simclrhn_probe0,1,318,NaN,cat,bird,NaN,bird9-dog2.png,bird9-dog2.png,0.0,-4.6444554,-0.28964743,-3.0793142
alexnet_w1_mlp_simclrhn_probe0,1,319,NaN,elephant,bird,NaN,bird9-elephant2.png,bird9-elephant2.png,0.0,-5.891576,-2.470088,-2.4193573
alexnet_w1_mlp_simclrhn_probe0,1,320,NaN,bicycle,bird,NaN,bird9-keyboard1.png,bird9-keyboard1.png,0.0,-7.9989486,-4.6817465,-2.345616
alexnet_w1_mlp_simclrhn_probe0,1,321,NaN,bear,boat,NaN,boat1-bear1.png,boat1-bear1.png,0.0,-13.455464,-2.6433477,-7.645321
alexnet_w1_mlp_simclrhn_probe0,1,322,NaN,bird,boat,NaN,boat1-bicycle2.png,boat1-bicycle2.png,0.0,-9.862509,-4.2030463,-4.0018444
alexnet_w1_mlp_simclrhn_probe0,1,323,NaN,knife,boat,NaN,boat1-bird3.png,boat1-bird3.png,0.0,-9.978662,-5.1792054,-3.393728
alexnet_w1_mlp_simclrhn_probe0,1,324,NaN,bicycle,boat,NaN,boat1-car2.png,boat1-car2.png,0.0,-6.419529,-4.690281,-1.2227631
alexnet_w1_mlp_simclrhn_probe0,1,325,NaN,airplane,boat,NaN,boat1-chair3.png,boat1-chair3.png,0.0,-4.5040793,-1.5530922,-2.086663
alexnet_w1_mlp_simclrhn_probe0,1,326,NaN,bird,boat,NaN,boat1-elephant3.png,boat1-elephant3.png,0.0,-7.38052,-3.7900424,-2.538851
alexnet_w1_mlp_simclrhn_probe0,1,327,NaN,airplane,boat,NaN,boat1-keyboard3.png,boat1-keyboard3.png,0.0,-5.0687456,-1.4769154,-2.5398076
alexnet_w1_mlp_simclrhn_probe0,1,328,NaN,knife,boat,NaN,boat1-oven1.png,boat1-oven1.png,0.0,-4.2374167,-1.5958346,-1.8678806
alexnet_w1_mlp_simclrhn_probe0,1,329,NaN,car,boat,NaN,boat1-truck3.png,boat1-truck3.png,0.0,-5.6303663,-3.0959976,-1.7920693
alexnet_w1_mlp_simclrhn_probe0,1,330,NaN,elephant,boat,NaN,boat10-bear3.png,boat10-bear3.png,0.0,-12.730284,-1.9462194,-7.625485
alexnet_w1_mlp_simclrhn_probe0,1,331,NaN,boat,boat,NaN,boat10-boat3.png,boat10-boat3.png,1.0,-5.228292,-8.105187,2.0342722
alexnet_w1_mlp_simclrhn_probe0,1,332,NaN,cat,boat,NaN,boat10-cat1.png,boat10-cat1.png,0.0,-12.517267,-2.9691973,-6.751505
alexnet_w1_mlp_simclrhn_probe0,1,333,NaN,car,boat,NaN,boat10-oven1.png,boat10-oven1.png,0.0,-5.4447556,-2.128459,-2.344976
alexnet_w1_mlp_simclrhn_probe0,1,334,NaN,car,boat,NaN,boat10-truck1.png,boat10-truck1.png,0.0,-4.893119,-3.7090054,-0.8372947
alexnet_w1_mlp_simclrhn_probe0,1,335,NaN,boat,boat,NaN,boat2-airplane1.png,boat2-airplane1.png,1.0,-4.5634446,-5.0788064,0.36441582
alexnet_w1_mlp_simclrhn_probe0,1,336,NaN,elephant,boat,NaN,boat2-bear3.png,boat2-bear3.png,0.0,-9.964641,-1.192637,-6.202743
alexnet_w1_mlp_simclrhn_probe0,1,337,NaN,cat,boat,NaN,boat2-bird1.png,boat2-bird1.png,0.0,-5.6073294,-3.1614418,-1.7295038
alexnet_w1_mlp_simclrhn_probe0,1,338,NaN,bottle,boat,NaN,boat2-bottle2.png,boat2-bottle2.png,0.0,-10.484381,-5.8167124,-3.30054
alexnet_w1_mlp_simclrhn_probe0,1,339,NaN,bicycle,boat,NaN,boat2-keyboard1.png,boat2-keyboard1.png,0.0,-7.809266,-5.478546,-1.648068
alexnet_w1_mlp_simclrhn_probe0,1,340,NaN,truck,boat,NaN,boat2-oven3.png,boat2-oven3.png,0.0,-2.8927016,-2.7672338,-0.088719115
alexnet_w1_mlp_simclrhn_probe0,1,341,NaN,airplane,boat,NaN,boat3-airplane2.png,boat3-airplane2.png,0.0,-5.884093,1.8311858,-5.455526
alexnet_w1_mlp_simclrhn_probe0,1,342,NaN,bicycle,boat,NaN,boat3-bicycle2.png,boat3-bicycle2.png,0.0,-8.636493,-2.4897041,-4.346436
alexnet_w1_mlp_simclrhn_probe0,1,343,NaN,bicycle,boat,NaN,boat3-car3.png,boat3-car3.png,0.0,-7.141069,-5.98703,-0.8160288
alexnet_w1_mlp_simclrhn_probe0,1,344,NaN,cat,boat,NaN,boat3-cat3.png,boat3-cat3.png,0.0,-9.074969,-2.7006118,-4.5073514
alexnet_w1_mlp_simclrhn_probe0,1,345,NaN,airplane,boat,NaN,boat3-chair3.png,boat3-chair3.png,0.0,-5.8551936,1.8281372,-5.432935
alexnet_w1_mlp_simclrhn_probe0,1,346,NaN,bottle,boat,NaN,boat3-clock3.png,boat3-clock3.png,0.0,-12.469999,-7.673042,-3.3919613
alexnet_w1_mlp_simclrhn_probe0,1,347,NaN,cat,boat,NaN,boat3-dog3.png,boat3-dog3.png,0.0,-11.486954,-1.2303362,-7.252524
alexnet_w1_mlp_simclrhn_probe0,1,348,NaN,airplane,boat,NaN,boat3-keyboard2.png,boat3-keyboard2.png,0.0,-7.805266,-1.4906607,-4.4651003
alexnet_w1_mlp_simclrhn_probe0,1,349,NaN,bird,boat,NaN,boat4-bicycle3.png,boat4-bicycle3.png,0.0,-11.268015,-4.581757,-4.727898
alexnet_w1_mlp_simclrhn_probe0,1,350,NaN,cat,boat,NaN,boat4-bird1.png,boat4-bird1.png,0.0,-5.2476788,-3.542242,-1.2059258
alexnet_w1_mlp_simclrhn_probe0,1,351,NaN,boat,boat,NaN,boat4-boat3.png,boat4-boat3.png,1.0,-3.609773,-5.336545,1.2210122
alexnet_w1_mlp_simclrhn_probe0,1,352,NaN,bottle,boat,NaN,boat4-bottle2.png,boat4-bottle2.png,0.0,-11.015109,-7.9007945,-2.202153
alexnet_w1_mlp_simclrhn_probe0,1,353,NaN,oven,boat,NaN,boat4-car3.png,boat4-car3.png,0.0,-7.557826,-5.5450716,-1.4232323
alexnet_w1_mlp_simclrhn_probe0,1,354,NaN,boat,boat,NaN,boat4-chair2.png,boat4-chair2.png,1.0,-2.6321898,-3.4290478,0.56346375
alexnet_w1_mlp_simclrhn_probe0,1,355,NaN,cat,boat,NaN,boat4-dog2.png,boat4-dog2.png,0.0,-8.792105,-0.9859479,-5.5197864
alexnet_w1_mlp_simclrhn_probe0,1,356,NaN,elephant,boat,NaN,boat4-elephant2.png,boat4-elephant2.png,0.0,-9.155568,-1.3521528,-5.517848
alexnet_w1_mlp_simclrhn_probe0,1,357,NaN,oven,boat,NaN,boat4-knife2.png,boat4-knife2.png,0.0,-4.52365,-2.0437744,-1.753537
alexnet_w1_mlp_simclrhn_probe0,1,358,NaN,clock,boat,NaN,boat5-airplane1.png,boat5-airplane1.png,0.0,-6.273014,-3.882201,-1.6905602
alexnet_w1_mlp_simclrhn_probe0,1,359,NaN,bicycle,boat,NaN,boat5-bicycle3.png,boat5-bicycle3.png,0.0,-8.447779,-1.5599191,-4.870452
alexnet_w1_mlp_simclrhn_probe0,1,360,NaN,boat,boat,NaN,boat5-boat3.png,boat5-boat3.png,1.0,-3.5874429,-5.6633444,1.4678841
alexnet_w1_mlp_simclrhn_probe0,1,361,NaN,oven,boat,NaN,boat5-car3.png,boat5-car3.png,0.0,-9.779001,-5.7065487,-2.879659
alexnet_w1_mlp_simclrhn_probe0,1,362,NaN,knife,boat,NaN,boat5-clock3.png,boat5-clock3.png,0.0,-9.683057,-5.597461,-2.8889525
alexnet_w1_mlp_simclrhn_probe0,1,363,NaN,boat,boat,NaN,boat5-knife2.png,boat5-knife2.png,1.0,-3.313305,-3.655655,0.24207802
alexnet_w1_mlp_simclrhn_probe0,1,364,NaN,knife,boat,NaN,boat6-airplane2.png,boat6-airplane2.png,0.0,-10.132259,-5.2483788,-3.4534252
alexnet_w1_mlp_simclrhn_probe0,1,365,NaN,bear,boat,NaN,boat6-bear1.png,boat6-bear1.png,0.0,-12.598909,-3.5279064,-6.414168
alexnet_w1_mlp_simclrhn_probe0,1,366,NaN,bicycle,boat,NaN,boat6-bicycle2.png,boat6-bicycle2.png,0.0,-11.07012,-1.406335,-6.8333282
alexnet_w1_mlp_simclrhn_probe0,1,367,NaN,bottle,boat,NaN,boat6-bottle2.png,boat6-bottle2.png,0.0,-13.729544,-6.642019,-5.011637
alexnet_w1_mlp_simclrhn_probe0,1,368,NaN,bicycle,boat,NaN,boat6-car1.png,boat6-car1.png,0.0,-10.970461,-1.9753435,-6.3605084
alexnet_w1_mlp_simclrhn_probe0,1,369,NaN,cat,boat,NaN,boat6-cat1.png,boat6-cat1.png,0.0,-12.531168,-1.6889502,-7.6666055
alexnet_w1_mlp_simclrhn_probe0,1,370,NaN,bicycle,boat,NaN,boat6-clock2.png,boat6-clock2.png,0.0,-12.852565,-6.5289893,-4.471443
alexnet_w1_mlp_simclrhn_probe0,1,371,NaN,cat,boat,NaN,boat6-dog1.png,boat6-dog1.png,0.0,-14.446759,-1.0680898,-9.460148
alexnet_w1_mlp_simclrhn_probe0,1,372,NaN,elephant,boat,NaN,boat6-elephant2.png,boat6-elephant2.png,0.0,-9.94362,-1.9864202,-5.62659
alexnet_w1_mlp_simclrhn_probe0,1,373,NaN,boat,boat,NaN,boat6-knife2.png,boat6-knife2.png,1.0,-5.4529634,-6.206981,0.5331711
alexnet_w1_mlp_simclrhn_probe0,1,374,NaN,knife,boat,NaN,boat6-truck3.png,boat6-truck3.png,0.0,-9.124178,-4.6595144,-3.1569939
alexnet_w1_mlp_simclrhn_probe0,1,375,NaN,bicycle,boat,NaN,boat7-boat2.png,boat7-boat2.png,0.0,-6.511138,-1.8974154,-3.2623947
alexnet_w1_mlp_simclrhn_probe0,1,376,NaN,bicycle,boat,NaN,boat7-bottle1.png,boat7-bottle1.png,0.0,-7.6046815,-3.5232077,-2.8860378
alexnet_w1_mlp_simclrhn_probe0,1,377,NaN,cat,boat,NaN,boat7-cat3.png,boat7-cat3.png,0.0,-10.189904,-1.5547276,-6.105992
alexnet_w1_mlp_simclrhn_probe0,1,378,NaN,bottle,boat,NaN,boat7-chair1.png,boat7-chair1.png,0.0,-7.0148764,-4.775543,-1.5834477
alexnet_w1_mlp_simclrhn_probe0,1,379,NaN,bicycle,boat,NaN,boat7-clock3.png,boat7-clock3.png,0.0,-12.916443,-5.845149,-5.0001597
alexnet_w1_mlp_simclrhn_probe0,1,380,NaN,bird,boat,NaN,boat7-elephant3.png,boat7-elephant3.png,0.0,-6.594149,-3.5375764,-2.1613233
alexnet_w1_mlp_simclrhn_probe0,1,381,NaN,bottle,boat,NaN,boat7-keyboard3.png,boat7-keyboard3.png,0.0,-6.915236,-3.0467002,-2.735468
alexnet_w1_mlp_simclrhn_probe0,1,382,NaN,chair,boat,NaN,boat7-oven3.png,boat7-oven3.png,0.0,-3.6443188,-2.3593798,-0.9085891
alexnet_w1_mlp_simclrhn_probe0,1,383,NaN,bottle,boat,NaN,boat7-truck2.png,boat7-truck2.png,0.0,-7.601045,-4.057609,-2.5055878
alexnet_w1_mlp_simclrhn_probe0,1,384,NaN,bird,boat,NaN,boat8-bird2.png,boat8-bird2.png,0.0,-9.768484,-4.500336,-3.7251432
alexnet_w1_mlp_simclrhn_probe0,1,385,NaN,knife,boat,NaN,boat8-bottle1.png,boat8-bottle1.png,0.0,-7.7254066,-6.4498205,-0.90197563
alexnet_w1_mlp_simclrhn_probe0,1,386,NaN,cat,boat,NaN,boat8-dog3.png,boat8-dog3.png,0.0,-13.823389,-2.4028375,-8.075549
alexnet_w1_mlp_simclrhn_probe0,1,387,NaN,bicycle,boat,NaN,boat8-elephant1.png,boat8-elephant1.png,0.0,-6.6594863,-1.9963515,-3.2973342
alexnet_w1_mlp_simclrhn_probe0,1,388,NaN,bicycle,boat,NaN,boat8-knife1.png,boat8-knife1.png,0.0,-8.47201,-6.598626,-1.3246822
alexnet_w1_mlp_simclrhn_probe0,1,389,NaN,airplane,boat,NaN,boat8-oven1.png,boat8-oven1.png,0.0,-4.6211963,-2.0566483,-1.8134093
alexnet_w1_mlp_simclrhn_probe0,1,390,NaN,car,boat,NaN,boat8-truck2.png,boat8-truck2.png,0.0,-4.423718,-1.8905457,-1.7912232
alexnet_w1_mlp_simclrhn_probe0,1,391,NaN,airplane,boat,NaN,boat9-airplane2.png,boat9-airplane2.png,0.0,-6.310569,-3.6724393,-1.8654393
alexnet_w1_mlp_simclrhn_probe0,1,392,NaN,elephant,boat,NaN,boat9-bear3.png,boat9-bear3.png,0.0,-13.364645,2.290518,-11.069872
alexnet_w1_mlp_simclrhn_probe0,1,393,NaN,cat,boat,NaN,boat9-bird1.png,boat9-bird1.png,0.0,-3.4382312,-3.1371753,-0.21287867
alexnet_w1_mlp_simclrhn_probe0,1,394,NaN,boat,boat,NaN,boat9-boat3.png,boat9-boat3.png,1.0,-4.1514077,-5.6129303,1.0334525
alexnet_w1_mlp_simclrhn_probe0,1,395,NaN,elephant,boat,NaN,boat9-cat3.png,boat9-cat3.png,0.0,-7.6823897,-1.5073854,-4.366388
alexnet_w1_mlp_simclrhn_probe0,1,396,NaN,boat,boat,NaN,boat9-chair2.png,boat9-chair2.png,1.0,-2.8097777,-4.3535786,1.091632
alexnet_w1_mlp_simclrhn_probe0,1,397,NaN,bicycle,boat,NaN,boat9-clock1.png,boat9-clock1.png,0.0,-7.8302336,-6.053323,-1.2564657
alexnet_w1_mlp_simclrhn_probe0,1,398,NaN,elephant,boat,NaN,boat9-dog2.png,boat9-dog2.png,0.0,-9.154169,-0.8633125,-5.8625207
alexnet_w1_mlp_simclrhn_probe0,1,399,NaN,airplane,boat,NaN,boat9-keyboard2.png,boat9-keyboard2.png,0.0,-3.7154784,-0.92352587,-1.9742087
alexnet_w1_mlp_simclrhn_probe0,1,400,NaN,boat,boat,NaN,boat9-knife2.png,boat9-knife2.png,1.0,-0.92478955,-2.7555232,1.2945242
alexnet_w1_mlp_simclrhn_probe0,1,401,NaN,cat,bottle,NaN,bottle1-bear1.png,bottle1-bear1.png,0.0,-6.966221,-1.6529684,-3.757037
alexnet_w1_mlp_simclrhn_probe0,1,402,NaN,bottle,bottle,NaN,bottle1-bird3.png,bottle1-bird3.png,1.0,-3.5914314,-9.253392,4.0036106
alexnet_w1_mlp_simclrhn_probe0,1,403,NaN,bicycle,bottle,NaN,bottle1-car1.png,bottle1-car1.png,0.0,-5.8985243,-4.2969646,-1.1324737
alexnet_w1_mlp_simclrhn_probe0,1,404,NaN,cat,bottle,NaN,bottle1-cat3.png,bottle1-cat3.png,0.0,-3.475654,-0.8791968,-1.8359724
alexnet_w1_mlp_simclrhn_probe0,1,405,NaN,bottle,bottle,NaN,bottle1-chair2.png,bottle1-chair2.png,1.0,-2.0821445,-2.7560549,0.47652662
alexnet_w1_mlp_simclrhn_probe0,1,406,NaN,bottle,bottle,NaN,bottle1-clock1.png,bottle1-clock1.png,1.0,-5.323517,-5.5561266,0.16447993
alexnet_w1_mlp_simclrhn_probe0,1,407,NaN,cat,bottle,NaN,bottle1-dog2.png,bottle1-dog2.png,0.0,-5.671754,-0.2386322,-3.8417974
alexnet_w1_mlp_simclrhn_probe0,1,408,NaN,bottle,bottle,NaN,bottle1-keyboard3.png,bottle1-keyboard3.png,1.0,-1.5475848,-3.7867508,1.5833296
alexnet_w1_mlp_simclrhn_probe0,1,409,NaN,elephant,bottle,NaN,bottle10-bear2.png,bottle10-bear2.png,0.0,-4.636611,-1.5681986,-2.1696951
alexnet_w1_mlp_simclrhn_probe0,1,410,NaN,bottle,bottle,NaN,bottle10-boat3.png,bottle10-boat3.png,1.0,-1.9884416,-6.3178244,3.061336
alexnet_w1_mlp_simclrhn_probe0,1,411,NaN,bottle,bottle,NaN,bottle10-car1.png,bottle10-car1.png,1.0,-4.6722255,-4.941015,0.19006273
alexnet_w1_mlp_simclrhn_probe0,1,412,NaN,bottle,bottle,NaN,bottle10-clock2.png,bottle10-clock2.png,1.0,-0.36912414,-6.0515037,4.0180492
alexnet_w1_mlp_simclrhn_probe0,1,413,NaN,cat,bottle,NaN,bottle10-dog1.png,bottle10-dog1.png,0.0,-7.888678,-1.2431986,-4.6990633
alexnet_w1_mlp_simclrhn_probe0,1,414,NaN,bottle,bottle,NaN,bottle10-truck3.png,bottle10-truck3.png,1.0,2.0785906,-2.7994661,3.449307
alexnet_w1_mlp_simclrhn_probe0,1,415,NaN,bottle,bottle,NaN,bottle2-bottle3.png,bottle2-bottle3.png,1.0,-6.111442,-7.484316,0.9707684
alexnet_w1_mlp_simclrhn_probe0,1,416,NaN,bicycle,bottle,NaN,bottle2-car2.png,bottle2-car2.png,0.0,-6.4091463,-2.869239,-2.5030925
alexnet_w1_mlp_simclrhn_probe0,1,417,NaN,chair,bottle,NaN,bottle2-chair3.png,bottle2-chair3.png,0.0,-5.0984354,-4.6281657,-0.3325309
alexnet_w1_mlp_simclrhn_probe0,1,418,NaN,bicycle,bottle,NaN,bottle2-clock1.png,bottle2-clock1.png,0.0,-5.7300916,-5.614364,-0.08183165
alexnet_w1_mlp_simclrhn_probe0,1,419,NaN,cat,bottle,NaN,bottle2-elephant1.png,bottle2-elephant1.png,0.0,-4.3165154,-1.2341297,-2.179576
alexnet_w1_mlp_simclrhn_probe0,1,420,NaN,bottle,bottle,NaN,bottle2-knife3.png,bottle2-knife3.png,1.0,-1.8710243,-3.2656662,0.9861608
alexnet_w1_mlp_simclrhn_probe0,1,421,NaN,bottle,bottle,NaN,bottle3-airplane2.png,bottle3-airplane2.png,1.0,-3.44449,-6.3539534,2.0573013
alexnet_w1_mlp_simclrhn_probe0,1,422,NaN,elephant,bottle,NaN,bottle3-bear2.png,bottle3-bear2.png,0.0,-6.6674128,0.008401096,-4.7205133
alexnet_w1_mlp_simclrhn_probe0,1,423,NaN,bicycle,bottle,NaN,bottle3-bicycle3.png,bottle3-bicycle3.png,0.0,-6.8794556,-1.2346637,-3.9914706
alexnet_w1_mlp_simclrhn_probe0,1,424,NaN,bottle,bottle,NaN,bottle3-bird1.png,bottle3-bird1.png,1.0,-2.563248,-2.6868973,0.0874333
alexnet_w1_mlp_simclrhn_probe0,1,425,NaN,bottle,bottle,NaN,bottle3-boat3.png,bottle3-boat3.png,1.0,-4.5445495,-6.8155193,1.6058183
alexnet_w1_mlp_simclrhn_probe0,1,426,NaN,bottle,bottle,NaN,bottle3-bottle3.png,bottle3-bottle3.png,1.0,-6.692817,-7.4784255,0.555509
alexnet_w1_mlp_simclrhn_probe0,1,427,NaN,cat,bottle,NaN,bottle3-cat3.png,bottle3-cat3.png,0.0,-4.4456797,-0.7232954,-2.6321232
alexnet_w1_mlp_simclrhn_probe0,1,428,NaN,bottle,bottle,NaN,bottle3-chair3.png,bottle3-chair3.png,1.0,-5.231822,-5.9745483,0.52518684
alexnet_w1_mlp_simclrhn_probe0,1,429,NaN,bottle,bottle,NaN,bottle3-knife3.png,bottle3-knife3.png,1.0,-2.5539231,-2.7069166,0.1081827
alexnet_w1_mlp_simclrhn_probe0,1,430,NaN,bicycle,bottle,NaN,bottle4-airplane1.png,bottle4-airplane1.png,0.0,-5.273815,-5.0930476,-0.12782195
alexnet_w1_mlp_simclrhn_probe0,1,431,NaN,bicycle,bottle,NaN,bottle4-bicycle1.png,bottle4-bicycle1.png,0.0,-8.307531,-1.753773,-4.6342072
alexnet_w1_mlp_simclrhn_probe0,1,432,NaN,bicycle,bottle,NaN,bottle4-car3.png,bottle4-car3.png,0.0,-8.71938,-2.3230848,-4.522864
alexnet_w1_mlp_simclrhn_probe0,1,433,NaN,cat,bottle,NaN,bottle4-dog2.png,bottle4-dog2.png,0.0,-5.3998423,-0.55602646,-3.425095
alexnet_w1_mlp_simclrhn_probe0,1,434,NaN,bottle,bottle,NaN,bottle4-oven2.png,bottle4-oven2.png,1.0,-0.74125326,-1.1175354,0.26607162
alexnet_w1_mlp_simclrhn_probe0,1,435,NaN,bottle,bottle,NaN,bottle4-truck1.png,bottle4-truck1.png,1.0,-3.2570949,-4.965177,1.2077966
alexnet_w1_mlp_simclrhn_probe0,1,436,NaN,bottle,bottle,NaN,bottle5-airplane1.png,bottle5-airplane1.png,1.0,-2.3907495,-4.798018,1.7021959
alexnet_w1_mlp_simclrhn_probe0,1,437,NaN,bottle,bottle,NaN,bottle5-bird3.png,bottle5-bird3.png,1.0,-3.5864697,-9.951238,4.500571
alexnet_w1_mlp_simclrhn_probe0,1,438,NaN,bottle,bottle,NaN,bottle5-boat1.png,bottle5-boat1.png,1.0,-3.980454,-5.907808,1.3628451
alexnet_w1_mlp_simclrhn_probe0,1,439,NaN,cat,bottle,NaN,bottle5-cat1.png,bottle5-cat1.png,0.0,-8.561761,1.017202,-6.7733502
alexnet_w1_mlp_simclrhn_probe0,1,440,NaN,bottle,bottle,NaN,bottle5-chair1.png,bottle5-chair1.png,1.0,-2.415053,-6.7947702,3.096928
alexnet_w1_mlp_simclrhn_probe0,1,441,NaN,bottle,bottle,NaN,bottle5-clock3.png,bottle5-clock3.png,1.0,-2.2553885,-6.2480764,2.8232567
alexnet_w1_mlp_simclrhn_probe0,1,442,NaN,cat,bottle,NaN,bottle5-elephant1.png,bottle5-elephant1.png,0.0,-3.6514492,-0.06637442,-2.5350308
alexnet_w1_mlp_simclrhn_probe0,1,443,NaN,bottle,bottle,NaN,bottle5-keyboard2.png,bottle5-keyboard2.png,1.0,-1.1935158,-3.9066687,1.9184889
alexnet_w1_mlp_simclrhn_probe0,1,444,NaN,bicycle,bottle,NaN,bottle5-knife1.png,bottle5-knife1.png,0.0,-5.13069,-4.940131,-0.1347455
alexnet_w1_mlp_simclrhn_probe0,1,445,NaN,bottle,bottle,NaN,bottle5-oven2.png,bottle5-oven2.png,1.0,-0.56894547,-2.950657,1.6841244
alexnet_w1_mlp_simclrhn_probe0,1,446,NaN,bottle,bottle,NaN,bottle5-truck1.png,bottle5-truck1.png,1.0,-1.8685377,-4.41922,1.8036048
alexnet_w1_mlp_simclrhn_probe0,1,447,NaN,bottle,bottle,NaN,bottle6-airplane1.png,bottle6-airplane1.png,1.0,-2.504442,-5.5476995,2.151908
alexnet_w1_mlp_simclrhn_probe0,1,448,NaN,elephant,bottle,NaN,bottle6-bear2.png,bottle6-bear2.png,0.0,-7.3078704,-0.44909042,-4.8498898
alexnet_w1_mlp_simclrhn_probe0,1,449,NaN,bottle,bottle,NaN,bottle6-bicycle3.png,bottle6-bicycle3.png,1.0,-4.434062,-6.831601,1.6953162
alexnet_w1_mlp_simclrhn_probe0,1,450,NaN,cat,bottle,NaN,bottle6-bird1.png,bottle6-bird1.png,0.0,-3.3384163,-3.324464,-0.009865735
alexnet_w1_mlp_simclrhn_probe0,1,451,NaN,bottle,bottle,NaN,bottle6-boat3.png,bottle6-boat3.png,1.0,-1.9930627,-3.9117239,1.3566983
alexnet_w1_mlp_simclrhn_probe0,1,452,NaN,bottle,bottle,NaN,bottle6-bottle3.png,bottle6-bottle3.png,1.0,-6.577529,-7.8211665,0.8793846
alexnet_w1_mlp_simclrhn_probe0,1,453,NaN,bottle,bottle,NaN,bottle6-chair2.png,bottle6-chair2.png,1.0,-2.9695113,-3.9084897,0.663958
alexnet_w1_mlp_simclrhn_probe0,1,454,NaN,cat,bottle,NaN,bottle6-dog3.png,bottle6-dog3.png,0.0,-7.6994615,-2.114732,-3.949
alexnet_w1_mlp_simclrhn_probe0,1,455,NaN,bottle,bottle,NaN,bottle6-knife3.png,bottle6-knife3.png,1.0,-2.2441216,-3.289255,0.7390209
alexnet_w1_mlp_simclrhn_probe0,1,456,NaN,bottle,bottle,NaN,bottle6-oven3.png,bottle6-oven3.png,1.0,-1.0762174,-2.208719,0.80079955
alexnet_w1_mlp_simclrhn_probe0,1,457,NaN,bottle,bottle,NaN,bottle7-airplane3.png,bottle7-airplane3.png,1.0,-5.512815,-5.7995768,0.20277119
alexnet_w1_mlp_simclrhn_probe0,1,458,NaN,bear,bottle,NaN,bottle7-bear1.png,bottle7-bear1.png,0.0,-10.310235,-0.79985714,-6.724853
alexnet_w1_mlp_simclrhn_probe0,1,459,NaN,bottle,bottle,NaN,bottle7-boat3.png,bottle7-boat3.png,1.0,-5.2176714,-5.947847,0.51631206
alexnet_w1_mlp_simclrhn_probe0,1,460,NaN,cat,bottle,NaN,bottle7-cat2.png,bottle7-cat2.png,0.0,-5.4185557,2.1962442,-5.3844767
alexnet_w1_mlp_simclrhn_probe0,1,461,NaN,bicycle,bottle,NaN,bottle7-clock1.png,bottle7-clock1.png,0.0,-7.8024125,-7.2823668,-0.36772788
alexnet_w1_mlp_simclrhn_probe0,1,462,NaN,elephant,bottle,NaN,bottle7-elephant2.png,bottle7-elephant2.png,0.0,-5.7040486,-0.21422938,-3.8818884
alexnet_w1_mlp_simclrhn_probe0,1,463,NaN,bottle,bottle,NaN,bottle7-keyboard2.png,bottle7-keyboard2.png,1.0,-2.584375,-4.217568,1.1548419
alexnet_w1_mlp_simclrhn_probe0,1,464,NaN,bottle,bottle,NaN,bottle7-oven2.png,bottle7-oven2.png,1.0,-2.0694852,-2.9870396,0.64880896
alexnet_w1_mlp_simclrhn_probe0,1,465,NaN,chair,bottle,NaN,bottle7-truck2.png,bottle7-truck2.png,0.0,-5.6530175,-5.1428847,-0.36071837
alexnet_w1_mlp_simclrhn_probe0,1,466,NaN,bicycle,bottle,NaN,bottle8-bicycle1.png,bottle8-bicycle1.png,0.0,-5.8044877,-3.1909633,-1.8480409
alexnet_w1_mlp_simclrhn_probe0,1,467,NaN,cat,bottle,NaN,bottle8-bird1.png,bottle8-bird1.png,0.0,-2.7453856,-2.6861465,-0.041888405
alexnet_w1_mlp_simclrhn_probe0,1,468,NaN,bottle,bottle,NaN,bottle8-bottle3.png,bottle8-bottle3.png,1.0,-4.8545346,-7.8690987,2.1316187
alexnet_w1_mlp_simclrhn_probe0,1,469,NaN,cat,bottle,NaN,bottle8-dog2.png,bottle8-dog2.png,0.0,-4.80331,-0.14968115,-3.2906125
alexnet_w1_mlp_simclrhn_probe0,1,470,NaN,cat,bottle,NaN,bottle8-elephant3.png,bottle8-elephant3.png,0.0,-3.4120624,-3.148198,-0.18658039
alexnet_w1_mlp_simclrhn_probe0,1,471,NaN,bottle,bottle,NaN,bottle8-keyboard3.png,bottle8-keyboard3.png,1.0,-0.747343,-4.8655314,2.911999
alexnet_w1_mlp_simclrhn_probe0,1,472,NaN,bicycle,bottle,NaN,bottle8-knife1.png,bottle8-knife1.png,0.0,-5.3627496,-5.0541835,-0.21818918
alexnet_w1_mlp_simclrhn_probe0,1,473,NaN,bicycle,bottle,NaN,bottle9-bicycle1.png,bottle9-bicycle1.png,0.0,-6.8863235,-6.027787,-0.6070768
alexnet_w1_mlp_simclrhn_probe0,1,474,NaN,bottle,bottle,NaN,bottle9-bottle1.png,bottle9-bottle1.png,1.0,-3.6729407,-5.2273126,1.0991069
alexnet_w1_mlp_simclrhn_probe0,1,475,NaN,bottle,bottle,NaN,bottle9-car3.png,bottle9-car3.png,1.0,-7.2627683,-8.995947,1.2255424
alexnet_w1_mlp_simclrhn_probe0,1,476,NaN,cat,bottle,NaN,bottle9-cat2.png,bottle9-cat2.png,0.0,-4.1296186,1.5872887,-4.0424643
alexnet_w1_mlp_simclrhn_probe0,1,477,NaN,elephant,bottle,NaN,bottle9-elephant2.png,bottle9-elephant2.png,0.0,-4.1378827,-2.723074,-1.0004209
alexnet_w1_mlp_simclrhn_probe0,1,478,NaN,bottle,bottle,NaN,bottle9-keyboard1.png,bottle9-keyboard1.png,1.0,-4.905472,-7.154071,1.5899997
alexnet_w1_mlp_simclrhn_probe0,1,479,NaN,bottle,bottle,NaN,bottle9-oven2.png,bottle9-oven2.png,1.0,-0.39858547,-1.6039941,0.8523527
alexnet_w1_mlp_simclrhn_probe0,1,480,NaN,bottle,bottle,NaN,bottle9-truck1.png,bottle9-truck1.png,1.0,-1.4672242,-5.169788,2.618108
alexnet_w1_mlp_simclrhn_probe0,1,481,NaN,car,car,NaN,car1-airplane1.png,car1-airplane1.png,1.0,-1.548264,-3.2040696,1.1708313
alexnet_w1_mlp_simclrhn_probe0,1,482,NaN,car,car,NaN,car1-car2.png,car1-car2.png,1.0,-4.7098346,-5.165567,0.32225144
alexnet_w1_mlp_simclrhn_probe0,1,483,NaN,airplane,car,NaN,car1-chair3.png,car1-chair3.png,0.0,-2.2211292,-0.68843997,-1.0837749
alexnet_w1_mlp_simclrhn_probe0,1,484,NaN,car,car,NaN,car1-clock2.png,car1-clock2.png,1.0,-1.4608445,-5.6832867,2.9857175
alexnet_w1_mlp_simclrhn_probe0,1,485,NaN,elephant,car,NaN,car1-dog2.png,car1-dog2.png,0.0,-9.723037,-2.0474672,-5.4274473
alexnet_w1_mlp_simclrhn_probe0,1,486,NaN,car,car,NaN,car1-keyboard2.png,car1-keyboard2.png,1.0,-1.3919086,-1.87311,0.34026077
alexnet_w1_mlp_simclrhn_probe0,1,487,NaN,truck,car,NaN,car1-oven3.png,car1-oven3.png,0.0,-2.9586842,-0.03633493,-2.066413
alexnet_w1_mlp_simclrhn_probe0,1,488,NaN,bicycle,car,NaN,car10-bicycle2.png,car10-bicycle2.png,0.0,-5.8690147,-1.528173,-3.0694387
alexnet_w1_mlp_simclrhn_probe0,1,489,NaN,bicycle,car,NaN,car10-bottle3.png,car10-bottle3.png,0.0,-10.123751,-6.688388,-2.4291685
alexnet_w1_mlp_simclrhn_probe0,1,490,NaN,car,car,NaN,car10-car1.png,car10-car1.png,1.0,-2.0914342,-3.0229533,0.6586834
alexnet_w1_mlp_simclrhn_probe0,1,491,NaN,car,car,NaN,car10-chair1.png,car10-chair1.png,1.0,2.8200996,0.6424061,1.5398618
alexnet_w1_mlp_simclrhn_probe0,1,492,NaN,elephant,car,NaN,car10-dog1.png,car10-dog1.png,0.0,-12.23661,-1.7026064,-7.448666
alexnet_w1_mlp_simclrhn_probe0,1,493,NaN,elephant,car,NaN,car10-elephant2.png,car10-elephant2.png,0.0,-7.7779555,-1.4808927,-4.452696
alexnet_w1_mlp_simclrhn_probe0,1,494,NaN,airplane,car,NaN,car10-keyboard2.png,car10-keyboard2.png,0.0,-1.54662,0.6292524,-1.5385741
alexnet_w1_mlp_simclrhn_probe0,1,495,NaN,elephant,car,NaN,car2-bird3.png,car2-bird3.png,0.0,-10.456152,-9.029087,-1.0090873
alexnet_w1_mlp_simclrhn_probe0,1,496,NaN,car,car,NaN,car2-car3.png,car2-car3.png,1.0,-4.979969,-7.132101,1.5217872
alexnet_w1_mlp_simclrhn_probe0,1,497,NaN,elephant,car,NaN,car2-cat3.png,car2-cat3.png,0.0,-9.263301,-3.6174207,-3.9922402
alexnet_w1_mlp_simclrhn_probe0,1,498,NaN,car,car,NaN,car2-chair1.png,car2-chair1.png,1.0,-2.6321232,-4.053576,1.0051188
alexnet_w1_mlp_simclrhn_probe0,1,499,NaN,knife,car,NaN,car2-knife3.png,car2-knife3.png,0.0,-5.850405,-4.868612,-0.69423276
alexnet_w1_mlp_simclrhn_probe0,1,500,NaN,car,car,NaN,car3-airplane3.png,car3-airplane3.png,1.0,2.6076257,-1.6771817,3.0298164
alexnet_w1_mlp_simclrhn_probe0,1,501,NaN,bicycle,car,NaN,car3-bird2.png,car3-bird2.png,0.0,-5.698156,-5.2481203,-0.3182232
alexnet_w1_mlp_simclrhn_probe0,1,502,NaN,car,car,NaN,car3-boat1.png,car3-boat1.png,1.0,-0.67363614,-4.6362567,2.8019958
alexnet_w1_mlp_simclrhn_probe0,1,503,NaN,oven,car,NaN,car3-bottle3.png,car3-bottle3.png,0.0,-14.663951,-9.185883,-3.8735793
alexnet_w1_mlp_simclrhn_probe0,1,504,NaN,cat,car,NaN,car3-dog2.png,car3-dog2.png,0.0,-11.169968,-2.3304355,-6.250493
alexnet_w1_mlp_simclrhn_probe0,1,505,NaN,elephant,car,NaN,car3-elephant3.png,car3-elephant3.png,0.0,-6.049231,-3.86685,-1.5431765
alexnet_w1_mlp_simclrhn_probe0,1,506,NaN,truck,car,NaN,car3-oven3.png,car3-oven3.png,0.0,-2.062339,-0.015827447,-1.4471023
alexnet_w1_mlp_simclrhn_probe0,1,507,NaN,car,car,NaN,car3-truck1.png,car3-truck1.png,1.0,1.9898524,-1.0119399,2.122588
alexnet_w1_mlp_simclrhn_probe0,1,508,NaN,cat,car,NaN,car4-bear3.png,car4-bear3.png,0.0,-13.617415,-4.0511246,-6.764389
alexnet_w1_mlp_simclrhn_probe0,1,509,NaN,bicycle,car,NaN,car4-bicycle3.png,car4-bicycle3.png,0.0,-8.274394,-1.587007,-4.728697
alexnet_w1_mlp_simclrhn_probe0,1,510,NaN,cat,car,NaN,car4-bird1.png,car4-bird1.png,0.0,-6.4367447,-4.562138,-1.3255471
alexnet_w1_mlp_simclrhn_probe0,1,511,NaN,car,car,NaN,car4-boat1.png,car4-boat1.png,1.0,-1.6698831,-4.890721,2.277476
alexnet_w1_mlp_simclrhn_probe0,1,512,NaN,bicycle,car,NaN,car4-bottle1.png,car4-bottle1.png,0.0,-11.382525,-4.799221,-4.6550994
alexnet_w1_mlp_simclrhn_probe0,1,513,NaN,car,car,NaN,car4-car2.png,car4-car2.png,1.0,-2.3811023,-3.8643062,1.0487835
alexnet_w1_mlp_simclrhn_probe0,1,514,NaN,cat,car,NaN,car4-cat3.png,car4-cat3.png,0.0,-11.438499,-3.4865596,-5.6228704
alexnet_w1_mlp_simclrhn_probe0,1,515,NaN,car,car,NaN,car4-clock1.png,car4-clock1.png,1.0,-5.824959,-7.4169807,1.1257296
alexnet_w1_mlp_simclrhn_probe0,1,516,NaN,knife,car,NaN,car4-elephant3.png,car4-elephant3.png,0.0,-7.333603,-4.384883,-2.08506
alexnet_w1_mlp_simclrhn_probe0,1,517,NaN,truck,car,NaN,car4-oven2.png,car4-oven2.png,0.0,-1.1380388,-0.6406571,-0.35170192
alexnet_w1_mlp_simclrhn_probe0,1,518,NaN,car,car,NaN,car5-airplane3.png,car5-airplane3.png,1.0,-0.80906504,-3.3736808,1.8134573
alexnet_w1_mlp_simclrhn_probe0,1,519,NaN,cat,car,NaN,car5-bear3.png,car5-bear3.png,0.0,-15.047452,-2.727856,-8.71127
alexnet_w1_mlp_simclrhn_probe0,1,520,NaN,bottle,car,NaN,car5-bottle1.png,car5-bottle1.png,0.0,-11.979485,-5.640794,-4.4821315
alexnet_w1_mlp_simclrhn_probe0,1,521,NaN,cat,car,NaN,car5-cat1.png,car5-cat1.png,0.0,-15.483117,-2.4361563,-9.2255945
alexnet_w1_mlp_simclrhn_probe0,1,522,NaN,clock,car,NaN,car5-keyboard3.png,car5-keyboard3.png,0.0,-3.3093703,-3.1261704,-0.12954189
alexnet_w1_mlp_simclrhn_probe0,1,523,NaN,car,car,NaN,car5-knife2.png,car5-knife2.png,1.0,-2.611088,-2.626405,0.010830728
alexnet_w1_mlp_simclrhn_probe0,1,524,NaN,truck,car,NaN,car5-oven2.png,car5-oven2.png,0.0,-0.575993,0.20590883,-0.5528881
alexnet_w1_mlp_simclrhn_probe0,1,525,NaN,car,car,NaN,car5-truck3.png,car5-truck3.png,1.0,-1.0079664,-2.501212,1.055884
alexnet_w1_mlp_simclrhn_probe0,1,526,NaN,elephant,car,NaN,car6-bear1.png,car6-bear1.png,0.0,-12.390556,-2.3489532,-7.100486
alexnet_w1_mlp_simclrhn_probe0,1,527,NaN,bicycle,car,NaN,car6-bicycle3.png,car6-bicycle3.png,0.0,-8.851295,-4.0142746,-3.4202902
alexnet_w1_mlp_simclrhn_probe0,1,528,NaN,car,car,NaN,car6-boat1.png,car6-boat1.png,1.0,-4.826291,-6.371959,1.0929525
alexnet_w1_mlp_simclrhn_probe0,1,529,NaN,bicycle,car,NaN,car6-bottle1.png,car6-bottle1.png,0.0,-12.7405615,-5.9838257,-4.777734
alexnet_w1_mlp_simclrhn_probe0,1,530,NaN,airplane,car,NaN,car6-chair3.png,car6-chair3.png,0.0,-5.021274,-2.0624607,-2.0921972
alexnet_w1_mlp_simclrhn_probe0,1,531,NaN,elephant,car,NaN,car6-elephant3.png,car6-elephant3.png,0.0,-6.1911054,-3.9396539,-1.5920167
alexnet_w1_mlp_simclrhn_probe0,1,532,NaN,car,car,NaN,car6-knife1.png,car6-knife1.png,1.0,-3.2336543,-5.873794,1.8668607
alexnet_w1_mlp_simclrhn_probe0,1,533,NaN,car,car,NaN,car6-truck3.png,car6-truck3.png,1.0,-2.0816262,-3.204239,0.7938071
alexnet_w1_mlp_simclrhn_probe0,1,534,NaN,car,car,NaN,car7-airplane2.png,car7-airplane2.png,1.0,-2.033107,-3.0427454,0.7139221
alexnet_w1_mlp_simclrhn_probe0,1,535,NaN,bear,car,NaN,car7-bear1.png,car7-bear1.png,0.0,-12.437874,-1.9271809,-7.4321823
alexnet_w1_mlp_simclrhn_probe0,1,536,NaN,airplane,car,NaN,car7-bird3.png,car7-bird3.png,0.0,-7.203275,-7.095098,-0.07649282
alexnet_w1_mlp_simclrhn_probe0,1,537,NaN,car,car,NaN,car7-boat3.png,car7-boat3.png,1.0,-4.236956,-4.3278084,0.06424225
alexnet_w1_mlp_simclrhn_probe0,1,538,NaN,bicycle,car,NaN,car7-car1.png,car7-car1.png,0.0,-6.9551682,-4.641313,-1.6361427
alexnet_w1_mlp_simclrhn_probe0,1,539,NaN,car,car,NaN,car7-clock1.png,car7-clock1.png,1.0,-6.595609,-6.6949186,0.070222385
alexnet_w1_mlp_simclrhn_probe0,1,540,NaN,cat,car,NaN,car7-dog3.png,car7-dog3.png,0.0,-11.765366,-2.703206,-6.4079146
alexnet_w1_mlp_simclrhn_probe0,1,541,NaN,elephant,car,NaN,car7-elephant3.png,car7-elephant3.png,0.0,-7.174431,-4.3529935,-1.9950576
alexnet_w1_mlp_simclrhn_probe0,1,542,NaN,airplane,car,NaN,car7-keyboard3.png,car7-keyboard3.png,0.0,-2.4918041,-2.2727556,-0.15489069
alexnet_w1_mlp_simclrhn_probe0,1,543,NaN,truck,car,NaN,car7-oven2.png,car7-oven2.png,0.0,-3.0160866,-0.9209112,-1.4815127
alexnet_w1_mlp_simclrhn_probe0,1,544,NaN,car,car,NaN,car8-airplane3.png,car8-airplane3.png,1.0,-2.7118263,-5.4903464,1.9647105
alexnet_w1_mlp_simclrhn_probe0,1,545,NaN,cat,car,NaN,car8-bear1.png,car8-bear1.png,0.0,-11.706403,-4.4184284,-5.153376
alexnet_w1_mlp_simclrhn_probe0,1,546,NaN,bicycle,car,NaN,car8-bicycle2.png,car8-bicycle2.png,0.0,-6.971283,-1.6589446,-3.7563906
alexnet_w1_mlp_simclrhn_probe0,1,547,NaN,truck,car,NaN,car8-boat3.png,car8-boat3.png,0.0,-3.7638912,-3.7030091,-0.04305014
alexnet_w1_mlp_simclrhn_probe0,1,548,NaN,cat,car,NaN,car8-cat1.png,car8-cat1.png,0.0,-14.013051,-2.2081168,-8.347349
alexnet_w1_mlp_simclrhn_probe0,1,549,NaN,car,car,NaN,car8-chair1.png,car8-chair1.png,1.0,-1.1358677,-4.416442,2.3197165
alexnet_w1_mlp_simclrhn_probe0,1,550,NaN,car,car,NaN,car8-clock2.png,car8-clock2.png,1.0,-3.8299768,-7.73338,2.7601228
alexnet_w1_mlp_simclrhn_probe0,1,551,NaN,cat,car,NaN,car8-dog1.png,car8-dog1.png,0.0,-12.4019785,-3.2139997,-6.496882
alexnet_w1_mlp_simclrhn_probe0,1,552,NaN,car,car,NaN,car8-knife2.png,car8-knife2.png,1.0,-4.987919,-5.545923,0.39456868
alexnet_w1_mlp_simclrhn_probe0,1,553,NaN,car,car,NaN,car8-truck3.png,car8-truck3.png,1.0,-2.409623,-2.9124017,0.35551828
alexnet_w1_mlp_simclrhn_probe0,1,554,NaN,bicycle,car,NaN,car9-bicycle2.png,car9-bicycle2.png,0.0,-5.3936234,-1.5151792,-2.7424743
alexnet_w1_mlp_simclrhn_probe0,1,555,NaN,knife,car,NaN,car9-bird1.png,car9-bird1.png,0.0,-6.050489,-4.3233514,-1.2212707
alexnet_w1_mlp_simclrhn_probe0,1,556,NaN,cat,car,NaN,car9-cat1.png,car9-cat1.png,0.0,-13.198548,-2.78143,-7.366015
alexnet_w1_mlp_simclrhn_probe0,1,557,NaN,car,car,NaN,car9-clock2.png,car9-clock2.png,1.0,-0.12552625,-2.8579187,1.9320934
alexnet_w1_mlp_simclrhn_probe0,1,558,NaN,car,car,NaN,car9-keyboard2.png,car9-keyboard2.png,1.0,-3.6376705,-4.5351167,0.63459027
alexnet_w1_mlp_simclrhn_probe0,1,559,NaN,car,car,NaN,car9-knife1.png,car9-knife1.png,1.0,-5.8343062,-6.398409,0.3988808
alexnet_w1_mlp_simclrhn_probe0,1,560,NaN,car,car,NaN,car9-truck3.png,car9-truck3.png,1.0,-1.8430544,-2.0106106,0.1184801
alexnet_w1_mlp_simclrhn_probe0,1,561,NaN,bottle,cat,NaN,cat1-airplane1.png,cat1-airplane1.png,0.0,-8.808606,-5.887822,-2.0653062
alexnet_w1_mlp_simclrhn_probe0,1,562,NaN,cat,cat,NaN,cat1-bird1.png,cat1-bird1.png,1.0,-2.3887565,-3.9622853,1.1126529
alexnet_w1_mlp_simclrhn_probe0,1,563,NaN,chair,cat,NaN,cat1-boat1.png,cat1-boat1.png,0.0,-11.073174,-6.0077972,-3.5817626
alexnet_w1_mlp_simclrhn_probe0,1,564,NaN,bicycle,cat,NaN,cat1-car2.png,cat1-car2.png,0.0,-8.401156,-5.4205694,-2.1075933
alexnet_w1_mlp_simclrhn_probe0,1,565,NaN,cat,cat,NaN,cat1-cat3.png,cat1-cat3.png,1.0,2.197199,-3.5003548,4.028779
alexnet_w1_mlp_simclrhn_probe0,1,566,NaN,chair,cat,NaN,cat1-chair2.png,cat1-chair2.png,0.0,-9.40364,-5.3076954,-2.89627
alexnet_w1_mlp_simclrhn_probe0,1,567,NaN,cat,cat,NaN,cat1-dog1.png,cat1-dog1.png,1.0,4.8138585,-2.9357557,5.479805
alexnet_w1_mlp_simclrhn_probe0,1,568,NaN,bottle,cat,NaN,cat1-keyboard3.png,cat1-keyboard3.png,0.0,-8.942052,-4.110954,-3.4161022
alexnet_w1_mlp_simclrhn_probe0,1,569,NaN,chair,cat,NaN,cat1-oven1.png,cat1-oven1.png,0.0,-7.6401496,-2.549529,-3.5996122
alexnet_w1_mlp_simclrhn_probe0,1,570,NaN,airplane,cat,NaN,cat10-airplane3.png,cat10-airplane3.png,0.0,-10.7986555,-6.4315033,-3.088043
alexnet_w1_mlp_simclrhn_probe0,1,571,NaN,cat,cat,NaN,cat10-bear1.png,cat10-bear1.png,1.0,-0.5610349,-1.7639954,0.8506215
alexnet_w1_mlp_simclrhn_probe0,1,572,NaN,bird,cat,NaN,cat10-bicycle1.png,cat10-bicycle1.png,0.0,-6.3324833,-3.16887,-2.2370124
alexnet_w1_mlp_simclrhn_probe0,1,573,NaN,cat,cat,NaN,cat10-bird2.png,cat10-bird2.png,1.0,-2.507126,-4.373954,1.3200465
alexnet_w1_mlp_simclrhn_probe0,1,574,NaN,bicycle,cat,NaN,cat10-bottle1.png,cat10-bottle1.png,0.0,-11.442562,-6.137619,-3.7511613
alexnet_w1_mlp_simclrhn_probe0,1,575,NaN,cat,cat,NaN,cat10-clock1.png,cat10-clock1.png,1.0,-6.592222,-6.743704,0.10711369
alexnet_w1_mlp_simclrhn_probe0,1,576,NaN,cat,cat,NaN,cat10-elephant3.png,cat10-elephant3.png,1.0,-2.5763288,-3.3313682,0.5338935
alexnet_w1_mlp_simclrhn_probe0,1,577,NaN,elephant,cat,NaN,cat10-keyboard1.png,cat10-keyboard1.png,0.0,-8.843041,-6.6228895,-1.5698845
alexnet_w1_mlp_simclrhn_probe0,1,578,NaN,truck,cat,NaN,cat10-oven2.png,cat10-oven2.png,0.0,-9.392918,-2.4563417,-4.9049
alexnet_w1_mlp_simclrhn_probe0,1,579,NaN,bicycle,cat,NaN,cat2-boat2.png,cat2-boat2.png,0.0,-8.514806,-5.580434,-2.0749145
alexnet_w1_mlp_simclrhn_probe0,1,580,NaN,cat,cat,NaN,cat2-bottle3.png,cat2-bottle3.png,1.0,-5.1288996,-8.787533,2.5870445
alexnet_w1_mlp_simclrhn_probe0,1,581,NaN,bicycle,cat,NaN,cat2-car3.png,cat2-car3.png,0.0,-8.274322,-7.4149666,-0.60765576
alexnet_w1_mlp_simclrhn_probe0,1,582,NaN,cat,cat,NaN,cat2-cat1.png,cat2-cat1.png,1.0,3.4532273,-0.68309605,2.9248223
alexnet_w1_mlp_simclrhn_probe0,1,583,NaN,cat,cat,NaN,cat2-elephant1.png,cat2-elephant1.png,1.0,-0.7333317,-3.8199363,2.182559
alexnet_w1_mlp_simclrhn_probe0,1,584,NaN,knife,cat,NaN,cat2-knife3.png,cat2-knife3.png,0.0,-7.6909013,-4.604147,-2.1826649
alexnet_w1_mlp_simclrhn_probe0,1,585,NaN,bottle,cat,NaN,cat2-truck3.png,cat2-truck3.png,0.0,-10.96963,-5.53383,-3.843691
alexnet_w1_mlp_simclrhn_probe0,1,586,NaN,cat,cat,NaN,cat3-bear2.png,cat3-bear2.png,1.0,1.4079872,1.2954504,0.079575524
alexnet_w1_mlp_simclrhn_probe0,1,587,NaN,cat,cat,NaN,cat3-bicycle1.png,cat3-bicycle1.png,1.0,-8.225593,-8.322605,0.06859821
alexnet_w1_mlp_simclrhn_probe0,1,588,NaN,cat,cat,NaN,cat3-cat1.png,cat3-cat1.png,1.0,3.17803,-0.8695148,2.8620465
alexnet_w1_mlp_simclrhn_probe0,1,589,NaN,cat,cat,NaN,cat3-elephant2.png,cat3-elephant2.png,1.0,-1.8723269,-2.6848316,0.5745276
alexnet_w1_mlp_simclrhn_probe0,1,590,NaN,truck,cat,NaN,cat3-oven2.png,cat3-oven2.png,0.0,-10.34197,-2.9471273,-5.228944
alexnet_w1_mlp_simclrhn_probe0,1,591,NaN,truck,cat,NaN,cat3-truck3.png,cat3-truck3.png,0.0,-12.924838,-5.9405622,-4.9386287
alexnet_w1_mlp_simclrhn_probe0,1,592,NaN,clock,cat,NaN,cat4-airplane1.png,cat4-airplane1.png,0.0,-10.228237,-4.562352,-4.006386
alexnet_w1_mlp_simclrhn_probe0,1,593,NaN,bird,cat,NaN,cat4-bird2.png,cat4-bird2.png,0.0,-5.5215855,-5.3003397,-0.15644439
alexnet_w1_mlp_simclrhn_probe0,1,594,NaN,bicycle,cat,NaN,cat4-car2.png,cat4-car2.png,0.0,-9.333583,-4.612906,-3.3380227
alexnet_w1_mlp_simclrhn_probe0,1,595,NaN,cat,cat,NaN,cat4-cat3.png,cat4-cat3.png,1.0,-1.6967125,-3.3823082,1.1918962
alexnet_w1_mlp_simclrhn_probe0,1,596,NaN,chair,cat,NaN,cat4-chair2.png,cat4-chair2.png,0.0,-11.415326,-6.008271,-3.8233652
alexnet_w1_mlp_simclrhn_probe0,1,597,NaN,bottle,cat,NaN,cat4-clock2.png,cat4-clock2.png,0.0,-13.805024,-7.67872,-4.331951
alexnet_w1_mlp_simclrhn_probe0,1,598,NaN,cat,cat,NaN,cat4-dog3.png,cat4-dog3.png,1.0,0.027697166,-3.6110568,2.5729876
alexnet_w1_mlp_simclrhn_probe0,1,599,NaN,bottle,cat,NaN,cat4-keyboard2.png,cat4-keyboard2.png,0.0,-8.676476,-3.8034198,-3.4457705
alexnet_w1_mlp_simclrhn_probe0,1,600,NaN,bicycle,cat,NaN,cat4-knife1.png,cat4-knife1.png,0.0,-10.112593,-5.4315996,-3.309962
alexnet_w1_mlp_simclrhn_probe0,1,601,NaN,knife,cat,NaN,cat4-oven1.png,cat4-oven1.png,0.0,-6.9514313,-1.6565721,-3.7440307
alexnet_w1_mlp_simclrhn_probe0,1,602,NaN,bottle,cat,NaN,cat4-truck3.png,cat4-truck3.png,0.0,-12.736886,-3.1302493,-6.792918
alexnet_w1_mlp_simclrhn_probe0,1,603,NaN,knife,cat,NaN,cat5-airplane2.png,cat5-airplane2.png,0.0,-12.258424,-6.838006,-3.8328142
alexnet_w1_mlp_simclrhn_probe0,1,604,NaN,cat,cat,NaN,cat5-bear2.png,cat5-bear2.png,1.0,1.3978704,0.11060262,0.9102358
alexnet_w1_mlp_simclrhn_probe0,1,605,NaN,cat,cat,NaN,cat5-bicycle3.png,cat5-bicycle3.png,1.0,-3.6748226,-6.0353694,1.6691587
alexnet_w1_mlp_simclrhn_probe0,1,606,NaN,chair,cat,NaN,cat5-boat1.png,cat5-boat1.png,0.0,-12.041325,-6.514721,-3.907899
alexnet_w1_mlp_simclrhn_probe0,1,607,NaN,bicycle,cat,NaN,cat5-bottle1.png,cat5-bottle1.png,0.0,-10.063558,-4.9543543,-3.6127524
alexnet_w1_mlp_simclrhn_probe0,1,608,NaN,bicycle,cat,NaN,cat5-car2.png,cat5-car2.png,0.0,-7.7027164,-6.6739063,-0.72747856
alexnet_w1_mlp_simclrhn_probe0,1,609,NaN,airplane,cat,NaN,cat5-chair3.png,cat5-chair3.png,0.0,-9.815212,-5.497504,-3.0530806
alexnet_w1_mlp_simclrhn_probe0,1,610,NaN,cat,cat,NaN,cat5-dog3.png,cat5-dog3.png,1.0,1.2780293,-2.5446699,2.7030566
alexnet_w1_mlp_simclrhn_probe0,1,611,NaN,elephant,cat,NaN,cat5-elephant2.png,cat5-elephant2.png,0.0,-1.1705233,-0.81640744,-0.2503977
alexnet_w1_mlp_simclrhn_probe0,1,612,NaN,airplane,cat,NaN,cat5-keyboard3.png,cat5-keyboard3.png,0.0,-8.57095,-2.8575435,-4.039988
alexnet_w1_mlp_simclrhn_probe0,1,613,NaN,oven,cat,NaN,cat5-knife2.png,cat5-knife2.png,0.0,-9.464845,-5.7460194,-2.6296067
alexnet_w1_mlp_simclrhn_probe0,1,614,NaN,cat,cat,NaN,cat6-bear1.png,cat6-bear1.png,1.0,0.22579955,-3.408988,2.570183
alexnet_w1_mlp_simclrhn_probe0,1,615,NaN,airplane,cat,NaN,cat6-chair3.png,cat6-chair3.png,0.0,-11.873044,-4.938789,-4.903259
alexnet_w1_mlp_simclrhn_probe0,1,616,NaN,cat,cat,NaN,cat6-clock3.png,cat6-clock3.png,1.0,-6.648929,-7.0998106,0.31882137
alexnet_w1_mlp_simclrhn_probe0,1,617,NaN,knife,cat,NaN,cat6-keyboard3.png,cat6-keyboard3.png,0.0,-8.307896,-3.5562627,-3.3599117
alexnet_w1_mlp_simclrhn_probe0,1,618,NaN,chair,cat,NaN,cat6-oven1.png,cat6-oven1.png,0.0,-7.4297156,-1.767554,-4.003753
alexnet_w1_mlp_simclrhn_probe0,1,619,NaN,chair,cat,NaN,cat7-airplane2.png,cat7-airplane2.png,0.0,-10.841687,-5.847932,-3.5311184
alexnet_w1_mlp_simclrhn_probe0,1,620,NaN,oven,cat,NaN,cat7-boat3.png,cat7-boat3.png,0.0,-10.341113,-5.9712987,-3.0899255
alexnet_w1_mlp_simclrhn_probe0,1,621,NaN,oven,cat,NaN,cat7-bottle1.png,cat7-bottle1.png,0.0,-9.913206,-4.095644,-4.1136374
alexnet_w1_mlp_simclrhn_probe0,1,622,NaN,cat,cat,NaN,cat7-clock3.png,cat7-clock3.png,1.0,-6.330055,-8.761336,1.7191753
alexnet_w1_mlp_simclrhn_probe0,1,623,NaN,cat,cat,NaN,cat7-dog3.png,cat7-dog3.png,1.0,2.8600798,-1.2296106,2.8918476
alexnet_w1_mlp_simclrhn_probe0,1,624,NaN,cat,cat,NaN,cat7-elephant1.png,cat7-elephant1.png,1.0,-1.1242355,-2.9584904,1.2970141
alexnet_w1_mlp_simclrhn_probe0,1,625,NaN,oven,cat,NaN,cat7-knife2.png,cat7-knife2.png,0.0,-9.272485,-3.5949209,-4.0146437
alexnet_w1_mlp_simclrhn_probe0,1,626,NaN,chair,cat,NaN,cat7-truck2.png,cat7-truck2.png,0.0,-10.548808,-4.104789,-4.5566096
alexnet_w1_mlp_simclrhn_probe0,1,627,NaN,cat,cat,NaN,cat8-bear1.png,cat8-bear1.png,1.0,0.81343037,-0.24482445,0.7482992
alexnet_w1_mlp_simclrhn_probe0,1,628,NaN,bicycle,cat,NaN,cat8-bicycle3.png,cat8-bicycle3.png,0.0,-4.3982205,-4.1077323,-0.2054062
alexnet_w1_mlp_simclrhn_probe0,1,629,NaN,cat,cat,NaN,cat8-bird2.png,cat8-bird2.png,1.0,-3.4721851,-4.341708,0.61484563
alexnet_w1_mlp_simclrhn_probe0,1,630,NaN,bicycle,cat,NaN,cat8-car2.png,cat8-car2.png,0.0,-8.396062,-5.2089224,-2.253648
alexnet_w1_mlp_simclrhn_probe0,1,631,NaN,bird,cat,NaN,cat9-bicycle1.png,cat9-bicycle1.png,0.0,-11.028348,-5.6279454,-3.8186612
alexnet_w1_mlp_simclrhn_probe0,1,632,NaN,dog,cat,NaN,cat9-bird3.png,cat9-bird3.png,0.0,-9.8147745,-7.164746,-1.8738533
alexnet_w1_mlp_simclrhn_probe0,1,633,NaN,boat,cat,NaN,cat9-boat2.png,cat9-boat2.png,0.0,-14.787349,-7.622449,-5.0663495
alexnet_w1_mlp_simclrhn_probe0,1,634,NaN,bottle,cat,NaN,cat9-bottle2.png,cat9-bottle2.png,0.0,-14.2358885,-7.56347,-4.7181125
alexnet_w1_mlp_simclrhn_probe0,1,635,NaN,cat,cat,NaN,cat9-cat3.png,cat9-cat3.png,1.0,-1.3978313,-2.96697,1.1095486
alexnet_w1_mlp_simclrhn_probe0,1,636,NaN,boat,cat,NaN,cat9-chair2.png,cat9-chair2.png,0.0,-10.935203,-5.83983,-3.6029727
alexnet_w1_mlp_simclrhn_probe0,1,637,NaN,car,cat,NaN,cat9-clock2.png,cat9-clock2.png,0.0,-13.833305,-9.230641,-3.254575
alexnet_w1_mlp_simclrhn_probe0,1,638,NaN,cat,cat,NaN,cat9-dog2.png,cat9-dog2.png,1.0,-0.7850454,-1.2208796,0.30818132
alexnet_w1_mlp_simclrhn_probe0,1,639,NaN,airplane,cat,NaN,cat9-knife2.png,cat9-knife2.png,0.0,-10.712129,-2.908281,-5.5181537
alexnet_w1_mlp_simclrhn_probe0,1,640,NaN,chair,cat,NaN,cat9-truck1.png,cat9-truck1.png,0.0,-12.784085,-5.0988684,-5.434269
alexnet_w1_mlp_simclrhn_probe0,1,641,NaN,chair,chair,NaN,chair1-airplane2.png,chair1-airplane2.png,1.0,-3.7801843,-5.32311,1.0910133
alexnet_w1_mlp_simclrhn_probe0,1,642,NaN,cat,chair,NaN,chair1-bear1.png,chair1-bear1.png,0.0,-11.779367,-0.5593682,-7.9337378
alexnet_w1_mlp_simclrhn_probe0,1,643,NaN,cat,chair,NaN,chair1-cat3.png,chair1-cat3.png,0.0,-9.92818,-0.8999335,-6.383934
alexnet_w1_mlp_simclrhn_probe0,1,644,NaN,chair,chair,NaN,chair1-chair1.png,chair1-chair1.png,1.0,-2.2745242,-5.679245,2.4075012
alexnet_w1_mlp_simclrhn_probe0,1,645,NaN,chair,chair,NaN,chair1-clock2.png,chair1-clock2.png,1.0,-7.043624,-8.956057,1.3522941
alexnet_w1_mlp_simclrhn_probe0,1,646,NaN,cat,chair,NaN,chair1-dog1.png,chair1-dog1.png,0.0,-12.944443,0.29050016,-9.358519
alexnet_w1_mlp_simclrhn_probe0,1,647,NaN,cat,chair,NaN,chair1-elephant1.png,chair1-elephant1.png,0.0,-4.2220488,-0.86264616,-2.3754563
alexnet_w1_mlp_simclrhn_probe0,1,648,NaN,chair,chair,NaN,chair1-oven3.png,chair1-oven3.png,1.0,-0.69497997,-1.9325743,0.8751114
alexnet_w1_mlp_simclrhn_probe0,1,649,NaN,chair,chair,NaN,chair1-truck3.png,chair1-truck3.png,1.0,-4.552994,-4.5615344,0.006039138
alexnet_w1_mlp_simclrhn_probe0,1,650,NaN,chair,chair,NaN,chair10-airplane2.png,chair10-airplane2.png,1.0,-0.94445586,-5.154109,2.976674
alexnet_w1_mlp_simclrhn_probe0,1,651,NaN,bicycle,chair,NaN,chair10-bicycle1.png,chair10-bicycle1.png,0.0,-5.8070707,-1.6747483,-2.9219933
alexnet_w1_mlp_simclrhn_probe0,1,652,NaN,oven,chair,NaN,chair10-bird3.png,chair10-bird3.png,0.0,-7.5468416,-5.545568,-1.4151142
alexnet_w1_mlp_simclrhn_probe0,1,653,NaN,chair,chair,NaN,chair10-bottle3.png,chair10-bottle3.png,1.0,-7.353685,-8.047736,0.49076837
alexnet_w1_mlp_simclrhn_probe0,1,654,NaN,bicycle,chair,NaN,chair10-car2.png,chair10-car2.png,0.0,-5.8939633,-4.1712027,-1.2181758
alexnet_w1_mlp_simclrhn_probe0,1,655,NaN,cat,chair,NaN,chair10-cat1.png,chair10-cat1.png,0.0,-13.95553,-0.16593754,-9.750714
alexnet_w1_mlp_simclrhn_probe0,1,656,NaN,chair,chair,NaN,chair10-clock1.png,chair10-clock1.png,1.0,-5.089655,-7.730708,1.8675066
alexnet_w1_mlp_simclrhn_probe0,1,657,NaN,cat,chair,NaN,chair10-dog1.png,chair10-dog1.png,0.0,-12.821217,-0.61806816,-8.628929
alexnet_w1_mlp_simclrhn_probe0,1,658,NaN,oven,chair,NaN,chair10-oven1.png,chair10-oven1.png,0.0,-0.088075876,1.9455191,-1.4379689
alexnet_w1_mlp_simclrhn_probe0,1,659,NaN,elephant,chair,NaN,chair2-bear2.png,chair2-bear2.png,0.0,-8.351286,0.3483551,-6.1515756
alexnet_w1_mlp_simclrhn_probe0,1,660,NaN,chair,chair,NaN,chair2-boat1.png,chair2-boat1.png,1.0,-1.0058432,-3.9148595,2.0569851
alexnet_w1_mlp_simclrhn_probe0,1,661,NaN,knife,chair,NaN,chair2-keyboard2.png,chair2-keyboard2.png,0.0,-3.608786,-3.3913903,-0.15372203
alexnet_w1_mlp_simclrhn_probe0,1,662,NaN,chair,chair,NaN,chair2-knife1.png,chair2-knife1.png,1.0,-5.828767,-6.529601,0.49556467
alexnet_w1_mlp_simclrhn_probe0,1,663,NaN,chair,chair,NaN,chair3-airplane2.png,chair3-airplane2.png,1.0,-2.0070877,-5.2923408,2.3230247
alexnet_w1_mlp_simclrhn_probe0,1,664,NaN,bicycle,chair,NaN,chair3-bicycle3.png,chair3-bicycle3.png,0.0,-5.0047464,-3.9517221,-0.74460065
alexnet_w1_mlp_simclrhn_probe0,1,665,NaN,chair,chair,NaN,chair3-bottle3.png,chair3-bottle3.png,1.0,-6.2915273,-6.6025724,0.21994215
alexnet_w1_mlp_simclrhn_probe0,1,666,NaN,chair,chair,NaN,chair3-car3.png,chair3-car3.png,1.0,-4.8071737,-5.84779,0.7358267
alexnet_w1_mlp_simclrhn_probe0,1,667,NaN,cat,chair,NaN,chair3-dog2.png,chair3-dog2.png,0.0,-9.670668,-0.40738693,-6.550129
alexnet_w1_mlp_simclrhn_probe0,1,668,NaN,chair,chair,NaN,chair3-knife1.png,chair3-knife1.png,1.0,-5.122514,-5.4503827,0.23183836
alexnet_w1_mlp_simclrhn_probe0,1,669,NaN,elephant,chair,NaN,chair4-bear2.png,chair4-bear2.png,0.0,-6.989764,-0.9393724,-4.278273
alexnet_w1_mlp_simclrhn_probe0,1,670,NaN,cat,chair,NaN,chair4-cat2.png,chair4-cat2.png,0.0,-9.325212,2.944617,-8.67608
alexnet_w1_mlp_simclrhn_probe0,1,671,NaN,chair,chair,NaN,chair4-chair3.png,chair4-chair3.png,1.0,-1.5822196,-6.183411,3.2535338
alexnet_w1_mlp_simclrhn_probe0,1,672,NaN,keyboard,chair,NaN,chair4-keyboard2.png,chair4-keyboard2.png,0.0,-6.673851,-4.6551256,-1.4274545
alexnet_w1_mlp_simclrhn_probe0,1,673,NaN,chair,chair,NaN,chair4-oven2.png,chair4-oven2.png,1.0,0.38017082,-4.436437,3.4058561
alexnet_w1_mlp_simclrhn_probe0,1,674,NaN,chair,chair,NaN,chair4-truck2.png,chair4-truck2.png,1.0,-1.3773606,-6.8594713,3.876438
alexnet_w1_mlp_simclrhn_probe0,1,675,NaN,bicycle,chair,NaN,chair5-bicycle1.png,chair5-bicycle1.png,0.0,-5.631645,-0.40690118,-3.6944518
alexnet_w1_mlp_simclrhn_probe0,1,676,NaN,cat,chair,NaN,chair5-bird1.png,chair5-bird1.png,0.0,-6.1382036,-3.8677788,-1.6054329
alexnet_w1_mlp_simclrhn_probe0,1,677,NaN,chair,chair,NaN,chair5-boat3.png,chair5-boat3.png,1.0,-3.413339,-7.1052747,2.6105928
alexnet_w1_mlp_simclrhn_probe0,1,678,NaN,bicycle,chair,NaN,chair5-bottle3.png,chair5-bottle3.png,0.0,-6.980881,-4.028144,-2.0879006
alexnet_w1_mlp_simclrhn_probe0,1,679,NaN,bicycle,chair,NaN,chair5-car1.png,chair5-car1.png,0.0,-4.8502226,-3.8923898,-0.6772901
alexnet_w1_mlp_simclrhn_probe0,1,680,NaN,cat,chair,NaN,chair5-cat3.png,chair5-cat3.png,0.0,-8.165415,-2.2325804,-4.1951475
alexnet_w1_mlp_simclrhn_probe0,1,681,NaN,chair,chair,NaN,chair5-clock2.png,chair5-clock2.png,1.0,-6.3431597,-7.9837794,1.1600934
alexnet_w1_mlp_simclrhn_probe0,1,682,NaN,clock,chair,NaN,chair5-keyboard2.png,chair5-keyboard2.png,0.0,-7.284004,-5.3122926,-1.3942107
alexnet_w1_mlp_simclrhn_probe0,1,683,NaN,knife,chair,NaN,chair5-knife3.png,chair5-knife3.png,0.0,-4.2964277,-2.801579,-1.0570177
alexnet_w1_mlp_simclrhn_probe0,1,684,NaN,chair,chair,NaN,chair5-oven2.png,chair5-oven2.png,1.0,-0.58054453,-4.041378,2.4471788
alexnet_w1_mlp_simclrhn_probe0,1,685,NaN,chair,chair,NaN,chair5-truck3.png,chair5-truck3.png,1.0,-2.6284518,-4.995301,1.673615
alexnet_w1_mlp_simclrhn_probe0,1,686,NaN,bird,chair,NaN,chair6-bird2.png,chair6-bird2.png,0.0,-8.146028,-5.9485803,-1.5538299
alexnet_w1_mlp_simclrhn_probe0,1,687,NaN,cat,chair,NaN,chair6-dog1.png,chair6-dog1.png,0.0,-11.069225,-1.862659,-6.510025
alexnet_w1_mlp_simclrhn_probe0,1,688,NaN,elephant,chair,NaN,chair6-elephant2.png,chair6-elephant2.png,0.0,-5.72736,-1.8545625,-2.7384813
alexnet_w1_mlp_simclrhn_probe0,1,689,NaN,chair,chair,NaN,chair6-truck2.png,chair6-truck2.png,1.0,-3.303176,-5.42511,1.5004339
alexnet_w1_mlp_simclrhn_probe0,1,690,NaN,chair,chair,NaN,chair7-airplane1.png,chair7-airplane1.png,1.0,-3.7124393,-5.8786693,1.5317559
alexnet_w1_mlp_simclrhn_probe0,1,691,NaN,cat,chair,NaN,chair7-bird1.png,chair7-bird1.png,0.0,-6.0810924,-3.8972924,-1.5441798
alexnet_w1_mlp_simclrhn_probe0,1,692,NaN,chair,chair,NaN,chair7-boat3.png,chair7-boat3.png,1.0,-3.863269,-6.125514,1.5996487
alexnet_w1_mlp_simclrhn_probe0,1,693,NaN,chair,chair,NaN,chair7-bottle1.png,chair7-bottle1.png,1.0,-4.8276906,-6.8250847,1.4123709
alexnet_w1_mlp_simclrhn_probe0,1,694,NaN,bicycle,chair,NaN,chair7-car2.png,chair7-car2.png,0.0,-5.8418484,-5.0813246,-0.5377715
alexnet_w1_mlp_simclrhn_probe0,1,695,NaN,cat,chair,NaN,chair7-cat1.png,chair7-cat1.png,0.0,-11.072722,-1.1046982,-7.0484576
alexnet_w1_mlp_simclrhn_probe0,1,696,NaN,chair,chair,NaN,chair7-chair1.png,chair7-chair1.png,1.0,-2.8495686,-4.4947143,1.1632937
alexnet_w1_mlp_simclrhn_probe0,1,697,NaN,chair,chair,NaN,chair7-clock3.png,chair7-clock3.png,1.0,-4.646138,-6.848823,1.5575334
alexnet_w1_mlp_simclrhn_probe0,1,698,NaN,cat,chair,NaN,chair7-elephant1.png,chair7-elephant1.png,0.0,-3.419559,-2.3551142,-0.7526761
alexnet_w1_mlp_simclrhn_probe0,1,699,NaN,oven,chair,NaN,chair7-knife2.png,chair7-knife2.png,0.0,-5.315514,-3.9272504,-0.9816507
alexnet_w1_mlp_simclrhn_probe0,1,700,NaN,chair,chair,NaN,chair7-truck3.png,chair7-truck3.png,1.0,-2.0612426,-4.3013735,1.5840118
alexnet_w1_mlp_simclrhn_probe0,1,701,NaN,chair,chair,NaN,chair8-airplane1.png,chair8-airplane1.png,1.0,-3.6956367,-5.6765704,1.4007317
alexnet_w1_mlp_simclrhn_probe0,1,702,NaN,elephant,chair,NaN,chair8-bear1.png,chair8-bear1.png,0.0,-9.413254,-4.102819,-3.7550445
alexnet_w1_mlp_simclrhn_probe0,1,703,NaN,bird,chair,NaN,chair8-bicycle3.png,chair8-bicycle3.png,0.0,-6.740036,-6.2535477,-0.3439992
alexnet_w1_mlp_simclrhn_probe0,1,704,NaN,chair,chair,NaN,chair8-boat1.png,chair8-boat1.png,1.0,-1.512117,-4.6345253,2.2078762
alexnet_w1_mlp_simclrhn_probe0,1,705,NaN,bicycle,chair,NaN,chair8-car1.png,chair8-car1.png,0.0,-6.8893957,-5.219885,-1.1805224
alexnet_w1_mlp_simclrhn_probe0,1,706,NaN,chair,chair,NaN,chair8-chair3.png,chair8-chair3.png,1.0,-3.881476,-6.1562724,1.6085241
alexnet_w1_mlp_simclrhn_probe0,1,707,NaN,chair,chair,NaN,chair8-clock3.png,chair8-clock3.png,1.0,-5.7061124,-6.8305235,0.79507875
alexnet_w1_mlp_simclrhn_probe0,1,708,NaN,cat,chair,NaN,chair8-elephant1.png,chair8-elephant1.png,0.0,-5.230084,-1.361607,-2.7354262
alexnet_w1_mlp_simclrhn_probe0,1,709,NaN,bottle,chair,NaN,chair8-keyboard3.png,chair8-keyboard3.png,0.0,-7.179268,-3.9822273,-2.2606492
alexnet_w1_mlp_simclrhn_probe0,1,710,NaN,oven,chair,NaN,chair8-knife2.png,chair8-knife2.png,0.0,-4.785124,-3.6081905,-0.8322175
alexnet_w1_mlp_simclrhn_probe0,1,711,NaN,chair,chair,NaN,chair8-oven1.png,chair8-oven1.png,1.0,1.1689322,-0.22070247,0.98262006
alexnet_w1_mlp_simclrhn_probe0,1,712,NaN,cat,chair,NaN,chair9-bear1.png,chair9-bear1.png,0.0,-10.574196,-1.1950676,-6.6320453
alexnet_w1_mlp_simclrhn_probe0,1,713,NaN,bicycle,chair,NaN,chair9-bicycle3.png,chair9-bicycle3.png,0.0,-6.838934,-2.3876286,-3.1475482
alexnet_w1_mlp_simclrhn_probe0,1,714,NaN,chair,chair,NaN,chair9-bird3.png,chair9-bird3.png,1.0,-6.9939327,-8.596875,1.1334515
alexnet_w1_mlp_simclrhn_probe0,1,715,NaN,chair,chair,NaN,chair9-boat2.png,chair9-boat2.png,1.0,-4.3603454,-6.6352973,1.608634
alexnet_w1_mlp_simclrhn_probe0,1,716,NaN,bird,chair,NaN,chair9-bottle3.png,chair9-bottle3.png,0.0,-9.892941,-8.342306,-1.0964648
alexnet_w1_mlp_simclrhn_probe0,1,717,NaN,airplane,chair,NaN,chair9-chair3.png,chair9-chair3.png,0.0,-3.5032458,-0.3873886,-2.2032437
alexnet_w1_mlp_simclrhn_probe0,1,718,NaN,cat,chair,NaN,chair9-dog2.png,chair9-dog2.png,0.0,-9.970879,-0.01706948,-7.038406
alexnet_w1_mlp_simclrhn_probe0,1,719,NaN,cat,chair,NaN,chair9-elephant1.png,chair9-elephant1.png,0.0,-3.8027997,-1.6224908,-1.5417112
alexnet_w1_mlp_simclrhn_probe0,1,720,NaN,bottle,chair,NaN,chair9-keyboard2.png,chair9-keyboard2.png,0.0,-6.113719,-3.1762373,-2.0771132
alexnet_w1_mlp_simclrhn_probe0,1,721,NaN,elephant,clock,NaN,clock1-bear1.png,clock1-bear1.png,0.0,-15.477376,-2.6199691,-9.091559
alexnet_w1_mlp_simclrhn_probe0,1,722,NaN,boat,clock,NaN,clock1-boat3.png,clock1-boat3.png,0.0,-10.046355,-5.8028827,-3.0005882
alexnet_w1_mlp_simclrhn_probe0,1,723,NaN,bicycle,clock,NaN,clock1-car1.png,clock1-car1.png,0.0,-12.8507,-3.428592,-6.662437
alexnet_w1_mlp_simclrhn_probe0,1,724,NaN,car,clock,NaN,clock1-clock2.png,clock1-clock2.png,0.0,-6.7951064,-6.2010903,-0.4200328
alexnet_w1_mlp_simclrhn_probe0,1,725,NaN,cat,clock,NaN,clock1-dog2.png,clock1-dog2.png,0.0,-9.674282,-1.9835876,-5.4381423
alexnet_w1_mlp_simclrhn_probe0,1,726,NaN,elephant,clock,NaN,clock1-elephant2.png,clock1-elephant2.png,0.0,-6.719013,-1.3524168,-3.7947567
alexnet_w1_mlp_simclrhn_probe0,1,727,NaN,truck,clock,NaN,clock1-truck3.png,clock1-truck3.png,0.0,-4.4304605,-2.6811523,-1.2369477
alexnet_w1_mlp_simclrhn_probe0,1,728,NaN,clock,clock,NaN,clock10-airplane1.png,clock10-airplane1.png,1.0,-2.4042854,-3.4619691,0.74789536
alexnet_w1_mlp_simclrhn_probe0,1,729,NaN,bottle,clock,NaN,clock10-bird3.png,clock10-bird3.png,0.0,-8.964307,-5.9395475,-2.1388278
alexnet_w1_mlp_simclrhn_probe0,1,730,NaN,bicycle,clock,NaN,clock10-boat2.png,clock10-boat2.png,0.0,-7.4269156,-5.383233,-1.4451019
alexnet_w1_mlp_simclrhn_probe0,1,731,NaN,bicycle,clock,NaN,clock10-bottle1.png,clock10-bottle1.png,0.0,-6.8857083,-3.4321737,-2.4420178
alexnet_w1_mlp_simclrhn_probe0,1,732,NaN,cat,clock,NaN,clock10-cat1.png,clock10-cat1.png,0.0,-13.311622,-2.6854343,-7.5138493
alexnet_w1_mlp_simclrhn_probe0,1,733,NaN,clock,clock,NaN,clock10-clock3.png,clock10-clock3.png,1.0,-2.2089396,-2.7745078,0.39991713
alexnet_w1_mlp_simclrhn_probe0,1,734,NaN,dog,clock,NaN,clock10-dog3.png,clock10-dog3.png,0.0,-10.476895,-6.70713,-2.6656268
alexnet_w1_mlp_simclrhn_probe0,1,735,NaN,bottle,clock,NaN,clock10-knife3.png,clock10-knife3.png,0.0,-4.919144,-3.6995301,-0.8623974
alexnet_w1_mlp_simclrhn_probe0,1,736,NaN,bottle,clock,NaN,clock10-oven2.png,clock10-oven2.png,0.0,-2.674081,-0.9433791,-1.2237911
alexnet_w1_mlp_simclrhn_probe0,1,737,NaN,bottle,clock,NaN,clock10-truck2.png,clock10-truck2.png,0.0,-6.1745973,-3.3700747,-1.983097
alexnet_w1_mlp_simclrhn_probe0,1,738,NaN,clock,clock,NaN,clock2-bear2.png,clock2-bear2.png,1.0,-3.5082128,-3.8067393,0.21109013
alexnet_w1_mlp_simclrhn_probe0,1,739,NaN,clock,clock,NaN,clock2-bicycle1.png,clock2-bicycle1.png,1.0,-0.36662388,-8.253691,5.5769987
alexnet_w1_mlp_simclrhn_probe0,1,740,NaN,clock,clock,NaN,clock2-bottle3.png,clock2-bottle3.png,1.0,1.1304139,-6.8343654,5.6319494
alexnet_w1_mlp_simclrhn_probe0,1,741,NaN,clock,clock,NaN,clock2-clock3.png,clock2-clock3.png,1.0,4.5968614,-1.3433287,4.200349
alexnet_w1_mlp_simclrhn_probe0,1,742,NaN,oven,clock,NaN,clock2-dog1.png,clock2-dog1.png,0.0,-7.2334123,-4.6932125,-1.7961925
alexnet_w1_mlp_simclrhn_probe0,1,743,NaN,clock,clock,NaN,clock2-elephant2.png,clock2-elephant2.png,1.0,-2.4200253,-3.8858778,1.0365143
alexnet_w1_mlp_simclrhn_probe0,1,744,NaN,clock,clock,NaN,clock2-knife1.png,clock2-knife1.png,1.0,-2.3395984,-6.218921,2.7430954
alexnet_w1_mlp_simclrhn_probe0,1,745,NaN,elephant,clock,NaN,clock3-bear3.png,clock3-bear3.png,0.0,-8.014826,-4.2768626,-2.6431391
alexnet_w1_mlp_simclrhn_probe0,1,746,NaN,clock,clock,NaN,clock3-bicycle2.png,clock3-bicycle2.png,1.0,0.6965044,-4.3110495,3.5408754
alexnet_w1_mlp_simclrhn_probe0,1,747,NaN,bottle,clock,NaN,clock3-bird1.png,clock3-bird1.png,0.0,-3.6176622,-2.902483,-0.5057081
alexnet_w1_mlp_simclrhn_probe0,1,748,NaN,clock,clock,NaN,clock3-car2.png,clock3-car2.png,1.0,-3.7571595,-5.022958,0.8950546
alexnet_w1_mlp_simclrhn_probe0,1,749,NaN,clock,clock,NaN,clock3-cat1.png,clock3-cat1.png,1.0,-5.5425773,-6.0904617,0.38741282
alexnet_w1_mlp_simclrhn_probe0,1,750,NaN,clock,clock,NaN,clock3-dog2.png,clock3-dog2.png,1.0,-3.0315144,-4.232827,0.8494564
alexnet_w1_mlp_simclrhn_probe0,1,751,NaN,clock,clock,NaN,clock3-elephant3.png,clock3-elephant3.png,1.0,-0.7747008,-3.9997869,2.2804801
alexnet_w1_mlp_simclrhn_probe0,1,752,NaN,clock,clock,NaN,clock3-keyboard3.png,clock3-keyboard3.png,1.0,1.7122852,-0.076784,1.2650629
alexnet_w1_mlp_simclrhn_probe0,1,753,NaN,clock,clock,NaN,clock4-airplane1.png,clock4-airplane1.png,1.0,-0.90718514,-5.519772,3.2615917
alexnet_w1_mlp_simclrhn_probe0,1,754,NaN,clock,clock,NaN,clock4-bird3.png,clock4-bird3.png,1.0,-2.6342268,-6.6185493,2.8173416
alexnet_w1_mlp_simclrhn_probe0,1,755,NaN,oven,clock,NaN,clock4-boat3.png,clock4-boat3.png,0.0,-6.6984696,-4.446042,-1.5927068
alexnet_w1_mlp_simclrhn_probe0,1,756,NaN,clock,clock,NaN,clock4-bottle3.png,clock4-bottle3.png,1.0,-3.899985,-7.683257,2.6751773
alexnet_w1_mlp_simclrhn_probe0,1,757,NaN,clock,clock,NaN,clock4-car2.png,clock4-car2.png,1.0,-5.5659366,-6.312472,0.5278802
alexnet_w1_mlp_simclrhn_probe0,1,758,NaN,car,clock,NaN,clock4-chair1.png,clock4-chair1.png,0.0,-4.938271,-3.2184703,-1.2160828
alexnet_w1_mlp_simclrhn_probe0,1,759,NaN,elephant,clock,NaN,clock4-elephant2.png,clock4-elephant2.png,0.0,-5.9756513,-1.7733129,-2.9715018
alexnet_w1_mlp_simclrhn_probe0,1,760,NaN,clock,clock,NaN,clock4-knife1.png,clock4-knife1.png,1.0,-4.18067,-6.10834,1.3630686
alexnet_w1_mlp_simclrhn_probe0,1,761,NaN,clock,clock,NaN,clock4-oven1.png,clock4-oven1.png,1.0,1.3738266,-1.1305861,1.7708873
alexnet_w1_mlp_simclrhn_probe0,1,762,NaN,clock,clock,NaN,clock5-airplane1.png,clock5-airplane1.png,1.0,3.6270845,-2.9018147,4.616629
alexnet_w1_mlp_simclrhn_probe0,1,763,NaN,clock,clock,NaN,clock5-bicycle1.png,clock5-bicycle1.png,1.0,-0.95373535,-7.848018,4.8749943
alexnet_w1_mlp_simclrhn_probe0,1,764,NaN,clock,clock,NaN,clock5-chair3.png,clock5-chair3.png,1.0,0.47039118,-1.7906376,1.5987889
alexnet_w1_mlp_simclrhn_probe0,1,765,NaN,clock,clock,NaN,clock5-clock2.png,clock5-clock2.png,1.0,6.9580607,-2.4254725,6.6351604
alexnet_w1_mlp_simclrhn_probe0,1,766,NaN,clock,clock,NaN,clock5-elephant2.png,clock5-elephant2.png,1.0,-2.5045755,-3.296982,0.5603161
alexnet_w1_mlp_simclrhn_probe0,1,767,NaN,clock,clock,NaN,clock5-keyboard1.png,clock5-keyboard1.png,1.0,-0.5340264,-4.348324,2.6971157
