subj,session,trial,rt,object_response,category,condition,imagename,filename,is_correct,targ_act,max_nontarg_act,decision_margin
alexnet_w1_mlp_simclrhn_probe2,1,1,NaN,bicycle,airplane,NaN,airplane1-bicycle2.png,airplane1-bicycle2.png,0.0,-12.1898575,-0.23106772,-8.456141
alexnet_w1_mlp_simclrhn_probe2,1,2,NaN,boat,airplane,NaN,airplane1-chair2.png,airplane1-chair2.png,0.0,-2.4632058,0.6940883,-2.232544
alexnet_w1_mlp_simclrhn_probe2,1,3,NaN,bicycle,airplane,NaN,airplane1-clock1.png,airplane1-clock1.png,0.0,-6.6158895,0.9634656,-5.3594136
alexnet_w1_mlp_simclrhn_probe2,1,4,NaN,bicycle,airplane,NaN,airplane1-elephant1.png,airplane1-elephant1.png,0.0,-6.9232273,-1.0575285,-4.1476755
alexnet_w1_mlp_simclrhn_probe2,1,5,NaN,airplane,airplane,NaN,airplane10-airplane1.png,airplane10-airplane1.png,1.0,2.2355907,-0.8420578,2.1762264
alexnet_w1_mlp_simclrhn_probe2,1,6,NaN,cat,airplane,NaN,airplane10-bear3.png,airplane10-bear3.png,0.0,-8.704669,-0.5560395,-5.761951
alexnet_w1_mlp_simclrhn_probe2,1,7,NaN,airplane,airplane,NaN,airplane10-boat3.png,airplane10-boat3.png,1.0,1.5650711,0.5761472,0.69927484
alexnet_w1_mlp_simclrhn_probe2,1,8,NaN,bicycle,airplane,NaN,airplane10-car3.png,airplane10-car3.png,0.0,-4.0534515,-1.0228295,-2.1429734
alexnet_w1_mlp_simclrhn_probe2,1,9,NaN,cat,airplane,NaN,airplane10-cat2.png,airplane10-cat2.png,0.0,-7.3956327,0.12959345,-5.3211384
alexnet_w1_mlp_simclrhn_probe2,1,10,NaN,cat,airplane,NaN,airplane10-dog3.png,airplane10-dog3.png,0.0,-9.743051,1.3353796,-7.8336334
alexnet_w1_mlp_simclrhn_probe2,1,11,NaN,cat,airplane,NaN,airplane10-elephant1.png,airplane10-elephant1.png,0.0,-6.627583,-1.5729505,-3.574165
alexnet_w1_mlp_simclrhn_probe2,1,12,NaN,knife,airplane,NaN,airplane10-knife3.png,airplane10-knife3.png,0.0,-1.4651963,-0.030948125,-1.0141666
alexnet_w1_mlp_simclrhn_probe2,1,13,NaN,airplane,airplane,NaN,airplane10-oven2.png,airplane10-oven2.png,1.0,1.7757334,0.14432827,1.1535777
alexnet_w1_mlp_simclrhn_probe2,1,14,NaN,chair,airplane,NaN,airplane10-truck1.png,airplane10-truck1.png,0.0,-2.6372313,0.6422141,-2.3189182
alexnet_w1_mlp_simclrhn_probe2,1,15,NaN,bird,airplane,NaN,airplane2-bear1.png,airplane2-bear1.png,0.0,-7.914586,-0.80247426,-5.0290227
alexnet_w1_mlp_simclrhn_probe2,1,16,NaN,bird,airplane,NaN,airplane2-bicycle1.png,airplane2-bicycle1.png,0.0,-13.456468,-1.7225058,-8.297164
alexnet_w1_mlp_simclrhn_probe2,1,17,NaN,airplane,airplane,NaN,airplane2-bird3.png,airplane2-bird3.png,1.0,-0.9674791,-1.4515784,0.3423099
alexnet_w1_mlp_simclrhn_probe2,1,18,NaN,oven,airplane,NaN,airplane2-bottle1.png,airplane2-bottle1.png,0.0,-3.9067838,-0.5476717,-2.375251
alexnet_w1_mlp_simclrhn_probe2,1,19,NaN,cat,airplane,NaN,airplane2-cat1.png,airplane2-cat1.png,0.0,-8.161384,1.2758626,-6.673141
alexnet_w1_mlp_simclrhn_probe2,1,20,NaN,cat,airplane,NaN,airplane2-dog1.png,airplane2-dog1.png,0.0,-8.07671,1.0814755,-6.475815
alexnet_w1_mlp_simclrhn_probe2,1,21,NaN,airplane,airplane,NaN,airplane3-airplane2.png,airplane3-airplane2.png,1.0,2.0382144,-1.868574,2.7625165
alexnet_w1_mlp_simclrhn_probe2,1,22,NaN,bicycle,airplane,NaN,airplane3-car1.png,airplane3-car1.png,0.0,-11.118341,0.7863743,-8.417905
alexnet_w1_mlp_simclrhn_probe2,1,23,NaN,cat,airplane,NaN,airplane3-cat1.png,airplane3-cat1.png,0.0,-11.584512,0.69739145,-8.684617
alexnet_w1_mlp_simclrhn_probe2,1,24,NaN,airplane,airplane,NaN,airplane3-chair3.png,airplane3-chair3.png,1.0,2.35132,-1.157353,2.4810066
alexnet_w1_mlp_simclrhn_probe2,1,25,NaN,bicycle,airplane,NaN,airplane3-clock1.png,airplane3-clock1.png,0.0,-7.9208317,-0.71222264,-5.0972567
alexnet_w1_mlp_simclrhn_probe2,1,26,NaN,cat,airplane,NaN,airplane3-dog1.png,airplane3-dog1.png,0.0,-7.091722,0.01900343,-5.0280423
alexnet_w1_mlp_simclrhn_probe2,1,27,NaN,cat,airplane,NaN,airplane3-elephant1.png,airplane3-elephant1.png,0.0,-8.526534,-1.8849621,-4.6963005
alexnet_w1_mlp_simclrhn_probe2,1,28,NaN,clock,airplane,NaN,airplane3-keyboard2.png,airplane3-keyboard2.png,0.0,0.14472586,0.2832035,-0.09791849
alexnet_w1_mlp_simclrhn_probe2,1,29,NaN,airplane,airplane,NaN,airplane3-oven1.png,airplane3-oven1.png,1.0,2.5583568,0.6380484,1.3578631
alexnet_w1_mlp_simclrhn_probe2,1,30,NaN,airplane,airplane,NaN,airplane4-airplane1.png,airplane4-airplane1.png,1.0,1.7170625,-0.2513734,1.3918943
alexnet_w1_mlp_simclrhn_probe2,1,31,NaN,bear,airplane,NaN,airplane4-bear3.png,airplane4-bear3.png,0.0,-9.7060585,0.1959068,-7.0017467
alexnet_w1_mlp_simclrhn_probe2,1,32,NaN,bird,airplane,NaN,airplane4-bicycle2.png,airplane4-bicycle2.png,0.0,-11.14716,-0.17589857,-7.757853
alexnet_w1_mlp_simclrhn_probe2,1,33,NaN,airplane,airplane,NaN,airplane4-bird3.png,airplane4-bird3.png,1.0,1.3994768,-2.0926008,2.469272
alexnet_w1_mlp_simclrhn_probe2,1,34,NaN,airplane,airplane,NaN,airplane4-boat3.png,airplane4-boat3.png,1.0,1.1115923,-0.14511335,0.8886251
alexnet_w1_mlp_simclrhn_probe2,1,35,NaN,oven,airplane,NaN,airplane4-bottle1.png,airplane4-bottle1.png,0.0,-3.2474246,-1.1662655,-1.4716017
alexnet_w1_mlp_simclrhn_probe2,1,36,NaN,bicycle,airplane,NaN,airplane4-car1.png,airplane4-car1.png,0.0,-9.398086,-1.6383957,-5.4869294
alexnet_w1_mlp_simclrhn_probe2,1,37,NaN,cat,airplane,NaN,airplane4-cat3.png,airplane4-cat3.png,0.0,-4.6108003,0.35466328,-3.5111132
alexnet_w1_mlp_simclrhn_probe2,1,38,NaN,cat,airplane,NaN,airplane4-dog2.png,airplane4-dog2.png,0.0,-4.7557316,0.069950365,-3.4122727
alexnet_w1_mlp_simclrhn_probe2,1,39,NaN,bicycle,airplane,NaN,airplane4-elephant1.png,airplane4-elephant1.png,0.0,-7.27418,-1.7012316,-3.9406698
alexnet_w1_mlp_simclrhn_probe2,1,40,NaN,airplane,airplane,NaN,airplane4-keyboard3.png,airplane4-keyboard3.png,1.0,1.585954,-0.12745728,1.2115647
alexnet_w1_mlp_simclrhn_probe2,1,41,NaN,knife,airplane,NaN,airplane4-knife1.png,airplane4-knife1.png,0.0,-3.2117162,-1.4228836,-1.2648957
alexnet_w1_mlp_simclrhn_probe2,1,42,NaN,chair,airplane,NaN,airplane4-truck2.png,airplane4-truck2.png,0.0,-1.9905243,-0.09820342,-1.3380729
alexnet_w1_mlp_simclrhn_probe2,1,43,NaN,bear,airplane,NaN,airplane5-bear2.png,airplane5-bear2.png,0.0,-12.267401,1.4246087,-9.681712
alexnet_w1_mlp_simclrhn_probe2,1,44,NaN,bicycle,airplane,NaN,airplane5-bicycle1.png,airplane5-bicycle1.png,0.0,-14.126219,-0.96327865,-9.307604
alexnet_w1_mlp_simclrhn_probe2,1,45,NaN,bird,airplane,NaN,airplane5-bird2.png,airplane5-bird2.png,0.0,-9.426891,-1.070737,-5.908694
alexnet_w1_mlp_simclrhn_probe2,1,46,NaN,oven,airplane,NaN,airplane5-boat3.png,airplane5-boat3.png,0.0,-1.5402799,0.5631426,-1.4873443
alexnet_w1_mlp_simclrhn_probe2,1,47,NaN,bird,airplane,NaN,airplane5-bottle3.png,airplane5-bottle3.png,0.0,-11.007751,-1.0449035,-7.0447974
alexnet_w1_mlp_simclrhn_probe2,1,48,NaN,airplane,airplane,NaN,airplane5-chair3.png,airplane5-chair3.png,1.0,2.2187738,-0.13924778,1.6673732
alexnet_w1_mlp_simclrhn_probe2,1,49,NaN,cat,airplane,NaN,airplane5-dog3.png,airplane5-dog3.png,0.0,-15.113625,1.936356,-12.056157
alexnet_w1_mlp_simclrhn_probe2,1,50,NaN,bicycle,airplane,NaN,airplane5-knife1.png,airplane5-knife1.png,0.0,-5.5579443,-0.6703538,-3.4560485
alexnet_w1_mlp_simclrhn_probe2,1,51,NaN,chair,airplane,NaN,airplane5-oven3.png,airplane5-oven3.png,0.0,-3.9961843,1.2749481,-3.7272537
alexnet_w1_mlp_simclrhn_probe2,1,52,NaN,cat,airplane,NaN,airplane6-bear3.png,airplane6-bear3.png,0.0,-12.437769,0.33200672,-9.029595
alexnet_w1_mlp_simclrhn_probe2,1,53,NaN,bottle,airplane,NaN,airplane6-bottle2.png,airplane6-bottle2.png,0.0,-4.5950603,-0.29870182,-3.0379844
alexnet_w1_mlp_simclrhn_probe2,1,54,NaN,airplane,airplane,NaN,airplane6-chair3.png,airplane6-chair3.png,1.0,2.8830495,-1.0001329,2.7458248
alexnet_w1_mlp_simclrhn_probe2,1,55,NaN,airplane,airplane,NaN,airplane6-keyboard3.png,airplane6-keyboard3.png,1.0,1.8195422,0.8872014,0.65926445
alexnet_w1_mlp_simclrhn_probe2,1,56,NaN,knife,airplane,NaN,airplane6-knife1.png,airplane6-knife1.png,0.0,-4.5272894,-1.1539438,-2.3853157
alexnet_w1_mlp_simclrhn_probe2,1,57,NaN,airplane,airplane,NaN,airplane7-airplane3.png,airplane7-airplane3.png,1.0,6.2026396,-0.18358502,4.515743
alexnet_w1_mlp_simclrhn_probe2,1,58,NaN,airplane,airplane,NaN,airplane7-bird3.png,airplane7-bird3.png,1.0,1.6370208,-1.7121562,2.3682258
alexnet_w1_mlp_simclrhn_probe2,1,59,NaN,boat,airplane,NaN,airplane7-boat2.png,airplane7-boat2.png,0.0,-0.8192675,-0.3662961,-0.32029915
alexnet_w1_mlp_simclrhn_probe2,1,60,NaN,oven,airplane,NaN,airplane7-bottle3.png,airplane7-bottle3.png,0.0,-7.8845577,-1.9468758,-4.1985755
alexnet_w1_mlp_simclrhn_probe2,1,61,NaN,bicycle,airplane,NaN,airplane7-car1.png,airplane7-car1.png,0.0,-6.215968,0.52109015,-4.7638197
alexnet_w1_mlp_simclrhn_probe2,1,62,NaN,cat,airplane,NaN,airplane7-cat3.png,airplane7-cat3.png,0.0,-3.354198,-0.47790647,-2.0338452
alexnet_w1_mlp_simclrhn_probe2,1,63,NaN,knife,airplane,NaN,airplane7-clock3.png,airplane7-clock3.png,0.0,-4.701003,-1.7929249,-2.0563219
alexnet_w1_mlp_simclrhn_probe2,1,64,NaN,airplane,airplane,NaN,airplane7-keyboard1.png,airplane7-keyboard1.png,1.0,0.16254595,-0.058393225,0.15622759
alexnet_w1_mlp_simclrhn_probe2,1,65,NaN,chair,airplane,NaN,airplane7-truck1.png,airplane7-truck1.png,0.0,-1.6412487,1.4133464,-2.159925
alexnet_w1_mlp_simclrhn_probe2,1,66,NaN,bird,airplane,NaN,airplane8-bicycle3.png,airplane8-bicycle3.png,0.0,-9.36067,-0.56546295,-6.2191505
alexnet_w1_mlp_simclrhn_probe2,1,67,NaN,knife,airplane,NaN,airplane8-bird1.png,airplane8-bird1.png,0.0,-2.8032513,-0.8013475,-1.4155598
alexnet_w1_mlp_simclrhn_probe2,1,68,NaN,airplane,airplane,NaN,airplane8-chair1.png,airplane8-chair1.png,1.0,4.6233463,-0.71270823,3.7731607
alexnet_w1_mlp_simclrhn_probe2,1,69,NaN,bicycle,airplane,NaN,airplane8-clock2.png,airplane8-clock2.png,0.0,-3.284575,-1.9836836,-0.9198691
alexnet_w1_mlp_simclrhn_probe2,1,70,NaN,bird,airplane,NaN,airplane8-elephant3.png,airplane8-elephant3.png,0.0,-5.093817,-1.132325,-2.801198
alexnet_w1_mlp_simclrhn_probe2,1,71,NaN,airplane,airplane,NaN,airplane8-oven2.png,airplane8-oven2.png,1.0,0.8932044,0.39876795,0.34961936
alexnet_w1_mlp_simclrhn_probe2,1,72,NaN,chair,airplane,NaN,airplane8-truck3.png,airplane8-truck3.png,0.0,0.22053796,0.6106182,-0.27582836
alexnet_w1_mlp_simclrhn_probe2,1,73,NaN,airplane,airplane,NaN,airplane9-airplane2.png,airplane9-airplane2.png,1.0,4.6879044,-0.11488339,3.3960838
alexnet_w1_mlp_simclrhn_probe2,1,74,NaN,bicycle,airplane,NaN,airplane9-boat1.png,airplane9-boat1.png,0.0,0.68456376,1.4497857,-0.54109365
alexnet_w1_mlp_simclrhn_probe2,1,75,NaN,bicycle,airplane,NaN,airplane9-car2.png,airplane9-car2.png,0.0,-9.962305,0.5933962,-7.464008
alexnet_w1_mlp_simclrhn_probe2,1,76,NaN,bicycle,airplane,NaN,airplane9-clock1.png,airplane9-clock1.png,0.0,-7.0739126,-0.34837025,-4.7556767
alexnet_w1_mlp_simclrhn_probe2,1,77,NaN,airplane,airplane,NaN,airplane9-keyboard2.png,airplane9-keyboard2.png,1.0,0.36411038,0.24714789,0.082704976
alexnet_w1_mlp_simclrhn_probe2,1,78,NaN,keyboard,airplane,NaN,airplane9-knife3.png,airplane9-knife3.png,0.0,-2.1872642,-0.14642629,-1.4430904
alexnet_w1_mlp_simclrhn_probe2,1,79,NaN,chair,airplane,NaN,airplane9-oven2.png,airplane9-oven2.png,0.0,0.040109992,0.59474415,-0.39218557
alexnet_w1_mlp_simclrhn_probe2,1,80,NaN,chair,airplane,NaN,airplane9-truck1.png,airplane9-truck1.png,0.0,-3.7229958,3.92974,-5.4113016
alexnet_w1_mlp_simclrhn_probe2,1,81,NaN,knife,bear,NaN,bear1-airplane3.png,bear1-airplane3.png,0.0,-5.9113107,-0.41354585,-3.8875067
alexnet_w1_mlp_simclrhn_probe2,1,82,NaN,bear,bear,NaN,bear1-bear3.png,bear1-bear3.png,1.0,1.4126611,1.2698375,0.100991525
alexnet_w1_mlp_simclrhn_probe2,1,83,NaN,cat,bear,NaN,bear1-bicycle3.png,bear1-bicycle3.png,0.0,-5.341666,-1.1339952,-2.975273
alexnet_w1_mlp_simclrhn_probe2,1,84,NaN,cat,bear,NaN,bear1-bird2.png,bear1-bird2.png,0.0,-1.8279535,0.95914584,-1.9707769
alexnet_w1_mlp_simclrhn_probe2,1,85,NaN,oven,bear,NaN,bear1-chair2.png,bear1-chair2.png,0.0,-3.825646,-0.050261684,-2.6695998
alexnet_w1_mlp_simclrhn_probe2,1,86,NaN,bottle,bear,NaN,bear1-clock2.png,bear1-clock2.png,0.0,-10.918516,-2.5954278,-5.8853126
alexnet_w1_mlp_simclrhn_probe2,1,87,NaN,elephant,bear,NaN,bear1-elephant1.png,bear1-elephant1.png,0.0,-3.8042784,-0.7169926,-2.1830406
alexnet_w1_mlp_simclrhn_probe2,1,88,NaN,bear,bear,NaN,bear10-bear2.png,bear10-bear2.png,1.0,3.0095496,0.4192012,1.831653
alexnet_w1_mlp_simclrhn_probe2,1,89,NaN,oven,bear,NaN,bear10-bottle1.png,bear10-bottle1.png,0.0,-5.2636166,-2.260898,-2.1232426
alexnet_w1_mlp_simclrhn_probe2,1,90,NaN,bicycle,bear,NaN,bear10-car2.png,bear10-car2.png,0.0,-9.646365,1.5622412,-7.925682
alexnet_w1_mlp_simclrhn_probe2,1,91,NaN,cat,bear,NaN,bear10-cat2.png,bear10-cat2.png,0.0,0.010998875,0.83249027,-0.58088213
alexnet_w1_mlp_simclrhn_probe2,1,92,NaN,oven,bear,NaN,bear10-chair2.png,bear10-chair2.png,0.0,-5.432726,-0.2904982,-3.636104
alexnet_w1_mlp_simclrhn_probe2,1,93,NaN,bicycle,bear,NaN,bear10-clock1.png,bear10-clock1.png,0.0,-9.223753,1.5365784,-7.608703
alexnet_w1_mlp_simclrhn_probe2,1,94,NaN,cat,bear,NaN,bear10-elephant1.png,bear10-elephant1.png,0.0,-3.3350983,-1.4469563,-1.335118
alexnet_w1_mlp_simclrhn_probe2,1,95,NaN,knife,bear,NaN,bear10-keyboard3.png,bear10-keyboard3.png,0.0,-5.8395667,-0.20662619,-3.9830904
alexnet_w1_mlp_simclrhn_probe2,1,96,NaN,oven,bear,NaN,bear10-knife2.png,bear10-knife2.png,0.0,-3.9178174,-1.4768176,-1.7260475
alexnet_w1_mlp_simclrhn_probe2,1,97,NaN,oven,bear,NaN,bear10-oven1.png,bear10-oven1.png,0.0,-7.698672,1.6390333,-6.602755
alexnet_w1_mlp_simclrhn_probe2,1,98,NaN,chair,bear,NaN,bear10-truck1.png,bear10-truck1.png,0.0,-11.252856,1.2449993,-8.837318
alexnet_w1_mlp_simclrhn_probe2,1,99,NaN,bicycle,bear,NaN,bear2-airplane1.png,bear2-airplane1.png,0.0,-5.4074397,-2.4266093,-2.1077654
alexnet_w1_mlp_simclrhn_probe2,1,100,NaN,elephant,bear,NaN,bear2-bird3.png,bear2-bird3.png,0.0,-0.269539,2.7015686,-2.1008904
alexnet_w1_mlp_simclrhn_probe2,1,101,NaN,bicycle,bear,NaN,bear2-car2.png,bear2-car2.png,0.0,-9.604576,0.24343044,-6.963592
alexnet_w1_mlp_simclrhn_probe2,1,102,NaN,cat,bear,NaN,bear2-cat2.png,bear2-cat2.png,0.0,0.79799026,1.320675,-0.36959395
alexnet_w1_mlp_simclrhn_probe2,1,103,NaN,bear,bear,NaN,bear2-dog1.png,bear2-dog1.png,1.0,0.9109438,0.9024418,0.0060118265
alexnet_w1_mlp_simclrhn_probe2,1,104,NaN,elephant,bear,NaN,bear2-elephant1.png,bear2-elephant1.png,0.0,-2.874034,-0.3555594,-1.7808305
alexnet_w1_mlp_simclrhn_probe2,1,105,NaN,keyboard,bear,NaN,bear2-keyboard2.png,bear2-keyboard2.png,0.0,-10.882619,2.1842165,-9.239648
alexnet_w1_mlp_simclrhn_probe2,1,106,NaN,knife,bear,NaN,bear2-knife2.png,bear2-knife2.png,0.0,-4.398292,-0.57866764,-2.7008824
alexnet_w1_mlp_simclrhn_probe2,1,107,NaN,oven,bear,NaN,bear2-oven1.png,bear2-oven1.png,0.0,-6.6881113,0.98360914,-5.4247255
alexnet_w1_mlp_simclrhn_probe2,1,108,NaN,bicycle,bear,NaN,bear3-airplane1.png,bear3-airplane1.png,0.0,-5.121673,-1.8137218,-2.3390749
alexnet_w1_mlp_simclrhn_probe2,1,109,NaN,bird,bear,NaN,bear3-bicycle2.png,bear3-bicycle2.png,0.0,-3.7395039,-0.8267253,-2.0596457
alexnet_w1_mlp_simclrhn_probe2,1,110,NaN,elephant,bear,NaN,bear3-bird3.png,bear3-bird3.png,0.0,-1.7336625,-0.8800652,-0.6035844
alexnet_w1_mlp_simclrhn_probe2,1,111,NaN,bicycle,bear,NaN,bear3-car2.png,bear3-car2.png,0.0,-8.582505,-0.2142069,-5.9172807
alexnet_w1_mlp_simclrhn_probe2,1,112,NaN,cat,bear,NaN,bear3-cat1.png,bear3-cat1.png,0.0,-0.5395388,1.7665668,-1.6306629
alexnet_w1_mlp_simclrhn_probe2,1,113,NaN,chair,bear,NaN,bear3-chair2.png,bear3-chair2.png,0.0,-4.570333,1.0163381,-3.950373
alexnet_w1_mlp_simclrhn_probe2,1,114,NaN,cat,bear,NaN,bear3-dog3.png,bear3-dog3.png,0.0,0.33806512,1.5253619,-0.8395456
alexnet_w1_mlp_simclrhn_probe2,1,115,NaN,keyboard,bear,NaN,bear3-keyboard2.png,bear3-keyboard2.png,0.0,-12.613088,3.4462194,-11.355645
alexnet_w1_mlp_simclrhn_probe2,1,116,NaN,chair,bear,NaN,bear3-truck3.png,bear3-truck3.png,0.0,-9.549547,0.8757818,-7.371821
alexnet_w1_mlp_simclrhn_probe2,1,117,NaN,bicycle,bear,NaN,bear4-boat2.png,bear4-boat2.png,0.0,-7.371658,1.4204342,-6.216948
alexnet_w1_mlp_simclrhn_probe2,1,118,NaN,bicycle,bear,NaN,bear4-car3.png,bear4-car3.png,0.0,-10.836582,-0.35240287,-7.4134345
alexnet_w1_mlp_simclrhn_probe2,1,119,NaN,cat,bear,NaN,bear4-cat3.png,bear4-cat3.png,0.0,0.54724497,1.5147263,-0.6841126
alexnet_w1_mlp_simclrhn_probe2,1,120,NaN,bottle,bear,NaN,bear4-clock3.png,bear4-clock3.png,0.0,-12.816162,-2.5266824,-7.275761
alexnet_w1_mlp_simclrhn_probe2,1,121,NaN,elephant,bear,NaN,bear4-elephant2.png,bear4-elephant2.png,0.0,-3.744166,-0.5052152,-2.2902842
alexnet_w1_mlp_simclrhn_probe2,1,122,NaN,clock,bear,NaN,bear4-keyboard3.png,bear4-keyboard3.png,0.0,-7.67059,-0.098338984,-5.35439
alexnet_w1_mlp_simclrhn_probe2,1,123,NaN,bicycle,bear,NaN,bear4-knife1.png,bear4-knife1.png,0.0,-6.710815,-2.9833636,-2.6357062
alexnet_w1_mlp_simclrhn_probe2,1,124,NaN,chair,bear,NaN,bear4-oven2.png,bear4-oven2.png,0.0,-6.442086,0.50826204,-4.9146385
alexnet_w1_mlp_simclrhn_probe2,1,125,NaN,bottle,bear,NaN,bear4-truck3.png,bear4-truck3.png,0.0,-9.491084,-0.7562029,-6.176494
alexnet_w1_mlp_simclrhn_probe2,1,126,NaN,knife,bear,NaN,bear5-airplane3.png,bear5-airplane3.png,0.0,-6.6964707,-0.20743766,-4.5884395
alexnet_w1_mlp_simclrhn_probe2,1,127,NaN,bird,bear,NaN,bear5-bicycle3.png,bear5-bicycle3.png,0.0,-5.679696,-1.3045545,-3.0936923
alexnet_w1_mlp_simclrhn_probe2,1,128,NaN,cat,bear,NaN,bear5-bird1.png,bear5-bird1.png,0.0,-2.7708187,-0.9948189,-1.2558215
alexnet_w1_mlp_simclrhn_probe2,1,129,NaN,bicycle,bear,NaN,bear5-boat2.png,bear5-boat2.png,0.0,-5.921541,0.6852274,-4.671691
alexnet_w1_mlp_simclrhn_probe2,1,130,NaN,oven,bear,NaN,bear5-bottle1.png,bear5-bottle1.png,0.0,-4.9885435,-1.6335082,-2.3723683
alexnet_w1_mlp_simclrhn_probe2,1,131,NaN,bottle,bear,NaN,bear5-chair1.png,bear5-chair1.png,0.0,-11.574924,-0.37452117,-7.9198813
alexnet_w1_mlp_simclrhn_probe2,1,132,NaN,chair,bear,NaN,bear5-oven3.png,bear5-oven3.png,0.0,-5.2297587,0.6762745,-4.176196
alexnet_w1_mlp_simclrhn_probe2,1,133,NaN,cat,bear,NaN,bear6-bear1.png,bear6-bear1.png,0.0,0.02904749,1.0791234,-0.7425158
alexnet_w1_mlp_simclrhn_probe2,1,134,NaN,cat,bear,NaN,bear6-bird2.png,bear6-bird2.png,0.0,-4.57337,-0.7469828,-2.7056644
alexnet_w1_mlp_simclrhn_probe2,1,135,NaN,oven,bear,NaN,bear6-boat3.png,bear6-boat3.png,0.0,-6.27118,1.1407573,-5.2410316
alexnet_w1_mlp_simclrhn_probe2,1,136,NaN,bicycle,bear,NaN,bear6-bottle3.png,bear6-bottle3.png,0.0,-6.585292,-1.8678579,-3.3357296
alexnet_w1_mlp_simclrhn_probe2,1,137,NaN,bicycle,bear,NaN,bear6-car2.png,bear6-car2.png,0.0,-9.955319,-0.865904,-6.4271874
alexnet_w1_mlp_simclrhn_probe2,1,138,NaN,cat,bear,NaN,bear6-cat3.png,bear6-cat3.png,0.0,-0.21897098,1.9195943,-1.512194
alexnet_w1_mlp_simclrhn_probe2,1,139,NaN,chair,bear,NaN,bear6-chair1.png,bear6-chair1.png,0.0,-13.570537,0.40697944,-9.883596
alexnet_w1_mlp_simclrhn_probe2,1,140,NaN,bicycle,bear,NaN,bear6-clock1.png,bear6-clock1.png,0.0,-10.228588,-1.2527618,-6.3468676
alexnet_w1_mlp_simclrhn_probe2,1,141,NaN,bear,bear,NaN,bear7-bear2.png,bear7-bear2.png,1.0,2.864189,0.95836246,1.3476229
alexnet_w1_mlp_simclrhn_probe2,1,142,NaN,bird,bear,NaN,bear7-bicycle2.png,bear7-bicycle2.png,0.0,-3.2317238,-0.6459354,-1.8284284
alexnet_w1_mlp_simclrhn_probe2,1,143,NaN,oven,bear,NaN,bear7-clock1.png,bear7-clock1.png,0.0,-6.878934,-1.3662913,-3.8980272
alexnet_w1_mlp_simclrhn_probe2,1,144,NaN,cat,bear,NaN,bear7-dog3.png,bear7-dog3.png,0.0,1.7428917,1.8204535,-0.054844514
alexnet_w1_mlp_simclrhn_probe2,1,145,NaN,oven,bear,NaN,bear7-oven3.png,bear7-oven3.png,0.0,-5.515436,2.1259823,-5.403299
alexnet_w1_mlp_simclrhn_probe2,1,146,NaN,chair,bear,NaN,bear7-truck1.png,bear7-truck1.png,0.0,-13.052664,1.0989549,-10.006706
alexnet_w1_mlp_simclrhn_probe2,1,147,NaN,bottle,bear,NaN,bear8-airplane1.png,bear8-airplane1.png,0.0,-5.737053,-1.2430695,-3.177726
alexnet_w1_mlp_simclrhn_probe2,1,148,NaN,bear,bear,NaN,bear8-bear1.png,bear8-bear1.png,1.0,0.50187016,0.24584971,0.18103379
alexnet_w1_mlp_simclrhn_probe2,1,149,NaN,bicycle,bear,NaN,bear8-bicycle3.png,bear8-bicycle3.png,0.0,-6.506254,-1.2335391,-3.7283726
alexnet_w1_mlp_simclrhn_probe2,1,150,NaN,bicycle,bear,NaN,bear8-boat2.png,bear8-boat2.png,0.0,-7.911428,-0.2569083,-5.412563
alexnet_w1_mlp_simclrhn_probe2,1,151,NaN,oven,bear,NaN,bear8-bottle1.png,bear8-bottle1.png,0.0,-6.693446,-1.6031044,-3.599415
alexnet_w1_mlp_simclrhn_probe2,1,152,NaN,bear,bear,NaN,bear8-dog1.png,bear8-dog1.png,1.0,0.94043386,0.7829895,0.11132997
alexnet_w1_mlp_simclrhn_probe2,1,153,NaN,elephant,bear,NaN,bear8-elephant2.png,bear8-elephant2.png,0.0,-3.4797451,-0.14838435,-2.3556278
alexnet_w1_mlp_simclrhn_probe2,1,154,NaN,knife,bear,NaN,bear8-knife3.png,bear8-knife3.png,0.0,-8.435135,-3.1597362,-3.7302704
alexnet_w1_mlp_simclrhn_probe2,1,155,NaN,bottle,bear,NaN,bear8-truck3.png,bear8-truck3.png,0.0,-12.535975,0.7321762,-9.382
alexnet_w1_mlp_simclrhn_probe2,1,156,NaN,oven,bear,NaN,bear9-boat2.png,bear9-boat2.png,0.0,-5.035615,0.80780303,-4.131921
alexnet_w1_mlp_simclrhn_probe2,1,157,NaN,bottle,bear,NaN,bear9-bottle2.png,bear9-bottle2.png,0.0,-7.7967167,0.21425796,-5.6646147
alexnet_w1_mlp_simclrhn_probe2,1,158,NaN,bear,bear,NaN,bear9-dog1.png,bear9-dog1.png,1.0,1.4694111,1.0041976,0.32895565
alexnet_w1_mlp_simclrhn_probe2,1,159,NaN,keyboard,bear,NaN,bear9-keyboard3.png,bear9-keyboard3.png,0.0,-7.613664,1.2796788,-6.288543
alexnet_w1_mlp_simclrhn_probe2,1,160,NaN,oven,bear,NaN,bear9-knife2.png,bear9-knife2.png,0.0,-3.9554925,0.63772815,-3.2478976
alexnet_w1_mlp_simclrhn_probe2,1,161,NaN,bicycle,bicycle,NaN,bicycle1-airplane2.png,bicycle1-airplane2.png,1.0,0.90908194,0.7452931,0.11581621
alexnet_w1_mlp_simclrhn_probe2,1,162,NaN,elephant,bicycle,NaN,bicycle1-bear1.png,bicycle1-bear1.png,0.0,-5.313759,-0.40290982,-3.4724948
alexnet_w1_mlp_simclrhn_probe2,1,163,NaN,bicycle,bicycle,NaN,bicycle1-bicycle3.png,bicycle1-bicycle3.png,1.0,5.623561,-3.102706,6.1704025
alexnet_w1_mlp_simclrhn_probe2,1,164,NaN,knife,bicycle,NaN,bicycle1-bird1.png,bicycle1-bird1.png,0.0,-3.9695055,-1.3774394,-1.8328676
alexnet_w1_mlp_simclrhn_probe2,1,165,NaN,chair,bicycle,NaN,bicycle1-boat3.png,bicycle1-boat3.png,0.0,-1.0622857,-1.0169628,-0.03204813
alexnet_w1_mlp_simclrhn_probe2,1,166,NaN,bicycle,bicycle,NaN,bicycle1-bottle3.png,bicycle1-bottle3.png,1.0,12.063244,-3.014259,10.661405
alexnet_w1_mlp_simclrhn_probe2,1,167,NaN,car,bicycle,NaN,bicycle1-chair1.png,bicycle1-chair1.png,0.0,-0.0708271,1.0356674,-0.7824098
alexnet_w1_mlp_simclrhn_probe2,1,168,NaN,bicycle,bicycle,NaN,bicycle1-clock3.png,bicycle1-clock3.png,1.0,4.882551,-0.18166733,3.5809433
alexnet_w1_mlp_simclrhn_probe2,1,169,NaN,cat,bicycle,NaN,bicycle1-dog3.png,bicycle1-dog3.png,0.0,-11.375755,-0.15167265,-7.9366255
alexnet_w1_mlp_simclrhn_probe2,1,170,NaN,elephant,bicycle,NaN,bicycle1-elephant2.png,bicycle1-elephant2.png,0.0,-2.5551167,-0.74451137,-1.2802913
alexnet_w1_mlp_simclrhn_probe2,1,171,NaN,bottle,bicycle,NaN,bicycle1-knife3.png,bicycle1-knife3.png,0.0,-4.323457,-1.3680712,-2.0897732
alexnet_w1_mlp_simclrhn_probe2,1,172,NaN,knife,bicycle,NaN,bicycle1-oven1.png,bicycle1-oven1.png,0.0,-6.295206,1.7546853,-5.692133
alexnet_w1_mlp_simclrhn_probe2,1,173,NaN,bicycle,bicycle,NaN,bicycle1-truck1.png,bicycle1-truck1.png,1.0,8.014866,1.1331862,4.866082
alexnet_w1_mlp_simclrhn_probe2,1,174,NaN,car,bicycle,NaN,bicycle10-airplane2.png,bicycle10-airplane2.png,0.0,1.6228108,3.1191685,-1.0580847
alexnet_w1_mlp_simclrhn_probe2,1,175,NaN,truck,bicycle,NaN,bicycle10-boat3.png,bicycle10-boat3.png,0.0,0.0036946535,0.30895153,-0.2158492
alexnet_w1_mlp_simclrhn_probe2,1,176,NaN,bicycle,bicycle,NaN,bicycle10-clock2.png,bicycle10-clock2.png,1.0,4.5154705,1.8664227,1.8731598
alexnet_w1_mlp_simclrhn_probe2,1,177,NaN,dog,bicycle,NaN,bicycle10-dog3.png,bicycle10-dog3.png,0.0,-14.838528,-0.28505594,-10.290858
alexnet_w1_mlp_simclrhn_probe2,1,178,NaN,elephant,bicycle,NaN,bicycle10-elephant2.png,bicycle10-elephant2.png,0.0,-2.2573552,-1.004892,-0.88562524
alexnet_w1_mlp_simclrhn_probe2,1,179,NaN,bicycle,bicycle,NaN,bicycle2-bicycle1.png,bicycle2-bicycle1.png,1.0,2.512342,-3.2451525,4.0711637
alexnet_w1_mlp_simclrhn_probe2,1,180,NaN,knife,bicycle,NaN,bicycle2-bird3.png,bicycle2-bird3.png,0.0,-1.925983,-1.4436235,-0.34107962
alexnet_w1_mlp_simclrhn_probe2,1,181,NaN,bicycle,bicycle,NaN,bicycle2-bottle1.png,bicycle2-bottle1.png,1.0,-0.55822015,-1.6175835,0.74908304
alexnet_w1_mlp_simclrhn_probe2,1,182,NaN,bicycle,bicycle,NaN,bicycle2-car2.png,bicycle2-car2.png,1.0,2.2704277,-4.4846783,4.7765813
alexnet_w1_mlp_simclrhn_probe2,1,183,NaN,cat,bicycle,NaN,bicycle2-dog1.png,bicycle2-dog1.png,0.0,-10.305441,1.0405818,-8.02285
alexnet_w1_mlp_simclrhn_probe2,1,184,NaN,knife,bicycle,NaN,bicycle2-keyboard2.png,bicycle2-keyboard2.png,0.0,-3.920258,0.10525206,-2.8464656
alexnet_w1_mlp_simclrhn_probe2,1,185,NaN,chair,bicycle,NaN,bicycle2-knife2.png,bicycle2-knife2.png,0.0,-1.6172441,-0.7183318,-0.635627
alexnet_w1_mlp_simclrhn_probe2,1,186,NaN,cat,bicycle,NaN,bicycle3-bird1.png,bicycle3-bird1.png,0.0,-3.886458,-0.52254444,-2.3786461
alexnet_w1_mlp_simclrhn_probe2,1,187,NaN,cat,bicycle,NaN,bicycle3-elephant2.png,bicycle3-elephant2.png,0.0,-2.9741445,-0.6113221,-1.6707677
alexnet_w1_mlp_simclrhn_probe2,1,188,NaN,bicycle,bicycle,NaN,bicycle3-keyboard1.png,bicycle3-keyboard1.png,1.0,3.7835763,-2.0139241,4.099452
alexnet_w1_mlp_simclrhn_probe2,1,189,NaN,chair,bicycle,NaN,bicycle3-oven3.png,bicycle3-oven3.png,0.0,-3.4871821,1.3958207,-3.4528043
alexnet_w1_mlp_simclrhn_probe2,1,190,NaN,bottle,bicycle,NaN,bicycle3-truck3.png,bicycle3-truck3.png,0.0,-5.4820213,0.6667396,-4.3478303
alexnet_w1_mlp_simclrhn_probe2,1,191,NaN,bicycle,bicycle,NaN,bicycle4-airplane1.png,bicycle4-airplane1.png,1.0,1.3583302,-1.2669282,1.856338
alexnet_w1_mlp_simclrhn_probe2,1,192,NaN,bicycle,bicycle,NaN,bicycle4-bicycle3.png,bicycle4-bicycle3.png,1.0,4.3963785,-3.0028567,5.2320495
alexnet_w1_mlp_simclrhn_probe2,1,193,NaN,bicycle,bicycle,NaN,bicycle4-boat1.png,bicycle4-boat1.png,1.0,6.0437465,-1.6597947,5.4472265
alexnet_w1_mlp_simclrhn_probe2,1,194,NaN,bicycle,bicycle,NaN,bicycle4-bottle1.png,bicycle4-bottle1.png,1.0,-0.70913965,-2.9392033,1.5768932
alexnet_w1_mlp_simclrhn_probe2,1,195,NaN,bicycle,bicycle,NaN,bicycle4-car2.png,bicycle4-car2.png,1.0,4.611582,-4.0691895,6.138232
alexnet_w1_mlp_simclrhn_probe2,1,196,NaN,cat,bicycle,NaN,bicycle4-cat1.png,bicycle4-cat1.png,0.0,-12.299644,2.3263347,-10.34213
alexnet_w1_mlp_simclrhn_probe2,1,197,NaN,bicycle,bicycle,NaN,bicycle4-chair2.png,bicycle4-chair2.png,1.0,0.7198123,-0.34535366,0.7531861
alexnet_w1_mlp_simclrhn_probe2,1,198,NaN,bicycle,bicycle,NaN,bicycle4-clock3.png,bicycle4-clock3.png,1.0,1.851238,-0.22054093,1.464969
alexnet_w1_mlp_simclrhn_probe2,1,199,NaN,knife,bicycle,NaN,bicycle4-keyboard3.png,bicycle4-keyboard3.png,0.0,-3.0806918,-0.66375303,-1.7090338
alexnet_w1_mlp_simclrhn_probe2,1,200,NaN,clock,bicycle,NaN,bicycle4-knife3.png,bicycle4-knife3.png,0.0,-4.0673347,-1.9909962,-1.4681929
alexnet_w1_mlp_simclrhn_probe2,1,201,NaN,chair,bicycle,NaN,bicycle4-oven3.png,bicycle4-oven3.png,0.0,-3.5450687,0.8606355,-3.1153035
alexnet_w1_mlp_simclrhn_probe2,1,202,NaN,chair,bicycle,NaN,bicycle4-truck3.png,bicycle4-truck3.png,0.0,-4.5599957,-0.05818653,-3.1832597
alexnet_w1_mlp_simclrhn_probe2,1,203,NaN,cat,bicycle,NaN,bicycle5-bear1.png,bicycle5-bear1.png,0.0,-6.5940003,0.41728368,-4.9577265
alexnet_w1_mlp_simclrhn_probe2,1,204,NaN,bicycle,bicycle,NaN,bicycle5-bottle3.png,bicycle5-bottle3.png,1.0,4.879649,-2.586935,5.2796726
alexnet_w1_mlp_simclrhn_probe2,1,205,NaN,bicycle,bicycle,NaN,bicycle5-car3.png,bicycle5-car3.png,1.0,5.413476,-1.2206433,4.6910305
alexnet_w1_mlp_simclrhn_probe2,1,206,NaN,cat,bicycle,NaN,bicycle5-cat1.png,bicycle5-cat1.png,0.0,-7.418796,0.9330867,-5.905673
alexnet_w1_mlp_simclrhn_probe2,1,207,NaN,bicycle,bicycle,NaN,bicycle5-chair2.png,bicycle5-chair2.png,1.0,2.6000273,0.5922607,1.4197055
alexnet_w1_mlp_simclrhn_probe2,1,208,NaN,cat,bicycle,NaN,bicycle5-dog2.png,bicycle5-dog2.png,0.0,-5.0544176,0.90965873,-4.217239
alexnet_w1_mlp_simclrhn_probe2,1,209,NaN,bicycle,bicycle,NaN,bicycle5-elephant1.png,bicycle5-elephant1.png,1.0,-1.42678,-1.6973921,0.19135167
alexnet_w1_mlp_simclrhn_probe2,1,210,NaN,airplane,bicycle,NaN,bicycle5-keyboard3.png,bicycle5-keyboard3.png,0.0,-3.2652283,0.45989543,-2.6340601
alexnet_w1_mlp_simclrhn_probe2,1,211,NaN,chair,bicycle,NaN,bicycle5-oven3.png,bicycle5-oven3.png,0.0,-3.12072,1.3420364,-3.1556451
alexnet_w1_mlp_simclrhn_probe2,1,212,NaN,chair,bicycle,NaN,bicycle6-airplane2.png,bicycle6-airplane2.png,0.0,-2.1211114,0.49310803,-1.8485323
alexnet_w1_mlp_simclrhn_probe2,1,213,NaN,bicycle,bicycle,NaN,bicycle6-bicycle3.png,bicycle6-bicycle3.png,1.0,0.721053,-2.38431,2.1958232
alexnet_w1_mlp_simclrhn_probe2,1,214,NaN,bicycle,bicycle,NaN,bicycle6-boat2.png,bicycle6-boat2.png,1.0,2.027822,0.7975451,0.8699372
alexnet_w1_mlp_simclrhn_probe2,1,215,NaN,bicycle,bicycle,NaN,bicycle6-car2.png,bicycle6-car2.png,1.0,1.7681464,-3.6361032,3.8213816
alexnet_w1_mlp_simclrhn_probe2,1,216,NaN,cat,bicycle,NaN,bicycle6-cat1.png,bicycle6-cat1.png,0.0,-12.293676,1.9421593,-10.0662565
alexnet_w1_mlp_simclrhn_probe2,1,217,NaN,cat,bicycle,NaN,bicycle6-dog2.png,bicycle6-dog2.png,0.0,-5.5526123,1.7556323,-5.1677094
alexnet_w1_mlp_simclrhn_probe2,1,218,NaN,elephant,bicycle,NaN,bicycle7-bear2.png,bicycle7-bear2.png,0.0,-5.9877048,1.1046565,-5.015057
alexnet_w1_mlp_simclrhn_probe2,1,219,NaN,bicycle,bicycle,NaN,bicycle7-bicycle2.png,bicycle7-bicycle2.png,1.0,3.3064988,-3.53636,4.838632
alexnet_w1_mlp_simclrhn_probe2,1,220,NaN,cat,bicycle,NaN,bicycle7-cat1.png,bicycle7-cat1.png,0.0,-11.1933975,1.5829536,-9.034245
alexnet_w1_mlp_simclrhn_probe2,1,221,NaN,bicycle,bicycle,NaN,bicycle7-clock3.png,bicycle7-clock3.png,1.0,1.563732,-0.9409962,1.7711104
alexnet_w1_mlp_simclrhn_probe2,1,222,NaN,elephant,bicycle,NaN,bicycle7-elephant2.png,bicycle7-elephant2.png,0.0,-2.8915687,-1.5670125,-0.93660265
alexnet_w1_mlp_simclrhn_probe2,1,223,NaN,bicycle,bicycle,NaN,bicycle7-knife2.png,bicycle7-knife2.png,1.0,-0.13711783,-0.6321836,0.35006437
alexnet_w1_mlp_simclrhn_probe2,1,224,NaN,knife,bicycle,NaN,bicycle7-oven1.png,bicycle7-oven1.png,0.0,-6.29436,1.0312393,-5.179981
alexnet_w1_mlp_simclrhn_probe2,1,225,NaN,bottle,bicycle,NaN,bicycle7-truck3.png,bicycle7-truck3.png,0.0,-6.440113,0.6102088,-4.9853306
alexnet_w1_mlp_simclrhn_probe2,1,226,NaN,elephant,bicycle,NaN,bicycle8-bear2.png,bicycle8-bear2.png,0.0,-4.8460045,0.79043335,-3.9855635
alexnet_w1_mlp_simclrhn_probe2,1,227,NaN,bicycle,bicycle,NaN,bicycle8-bird2.png,bicycle8-bird2.png,1.0,3.4058712,-3.0419705,4.559313
alexnet_w1_mlp_simclrhn_probe2,1,228,NaN,bicycle,bicycle,NaN,bicycle8-boat1.png,bicycle8-boat1.png,1.0,8.447876,-0.9719957,6.660855
alexnet_w1_mlp_simclrhn_probe2,1,229,NaN,bicycle,bicycle,NaN,bicycle8-chair2.png,bicycle8-chair2.png,1.0,1.7841897,-0.2860342,1.4638693
alexnet_w1_mlp_simclrhn_probe2,1,230,NaN,bicycle,bicycle,NaN,bicycle8-clock3.png,bicycle8-clock3.png,1.0,1.9053863,-0.47812214,1.685395
alexnet_w1_mlp_simclrhn_probe2,1,231,NaN,bicycle,bicycle,NaN,bicycle8-truck1.png,bicycle8-truck1.png,1.0,4.118084,0.59513086,2.4911041
alexnet_w1_mlp_simclrhn_probe2,1,232,NaN,bicycle,bicycle,NaN,bicycle9-airplane2.png,bicycle9-airplane2.png,1.0,1.5894713,1.2286772,0.25512
alexnet_w1_mlp_simclrhn_probe2,1,233,NaN,cat,bicycle,NaN,bicycle9-bear1.png,bicycle9-bear1.png,0.0,-5.4921093,-0.7206957,-3.3738992
alexnet_w1_mlp_simclrhn_probe2,1,234,NaN,bicycle,bicycle,NaN,bicycle9-bird3.png,bicycle9-bird3.png,1.0,0.8291689,-2.375013,2.265699
alexnet_w1_mlp_simclrhn_probe2,1,235,NaN,bicycle,bicycle,NaN,bicycle9-bottle1.png,bicycle9-bottle1.png,1.0,1.8425233,-2.6748118,3.1942382
alexnet_w1_mlp_simclrhn_probe2,1,236,NaN,bicycle,bicycle,NaN,bicycle9-car1.png,bicycle9-car1.png,1.0,12.543537,-0.8878989,9.49746
alexnet_w1_mlp_simclrhn_probe2,1,237,NaN,cat,bicycle,NaN,bicycle9-cat3.png,bicycle9-cat3.png,0.0,-6.633247,0.75063545,-5.2211933
alexnet_w1_mlp_simclrhn_probe2,1,238,NaN,bicycle,bicycle,NaN,bicycle9-chair1.png,bicycle9-chair1.png,1.0,0.70918334,0.39004496,0.22566491
alexnet_w1_mlp_simclrhn_probe2,1,239,NaN,knife,bicycle,NaN,bicycle9-keyboard3.png,bicycle9-keyboard3.png,0.0,-3.7445183,-0.26213813,-2.4624147
alexnet_w1_mlp_simclrhn_probe2,1,240,NaN,bottle,bicycle,NaN,bicycle9-knife3.png,bicycle9-knife3.png,0.0,-4.178556,-0.5845685,-2.541333
alexnet_w1_mlp_simclrhn_probe2,1,241,NaN,knife,bird,NaN,bird1-airplane2.png,bird1-airplane2.png,0.0,-4.0338,-2.1781383,-1.3121511
alexnet_w1_mlp_simclrhn_probe2,1,242,NaN,cat,bird,NaN,bird1-bear1.png,bird1-bear1.png,0.0,-2.3275065,-0.3375406,-1.4071184
alexnet_w1_mlp_simclrhn_probe2,1,243,NaN,bird,bird,NaN,bird1-bicycle2.png,bird1-bicycle2.png,1.0,-0.24039802,-0.7140784,0.33494264
alexnet_w1_mlp_simclrhn_probe2,1,244,NaN,bicycle,bird,NaN,bird1-boat1.png,bird1-boat1.png,0.0,-4.8771257,1.3872504,-4.429583
alexnet_w1_mlp_simclrhn_probe2,1,245,NaN,chair,bird,NaN,bird1-chair2.png,bird1-chair2.png,0.0,-4.46434,-0.37106436,-2.8943832
alexnet_w1_mlp_simclrhn_probe2,1,246,NaN,bottle,bird,NaN,bird1-clock3.png,bird1-clock3.png,0.0,-9.9220705,-0.4281488,-6.7132163
alexnet_w1_mlp_simclrhn_probe2,1,247,NaN,cat,bird,NaN,bird1-elephant2.png,bird1-elephant2.png,0.0,-1.4119374,-0.27138984,-0.8064889
alexnet_w1_mlp_simclrhn_probe2,1,248,NaN,knife,bird,NaN,bird1-keyboard3.png,bird1-keyboard3.png,0.0,-2.4784894,-0.42837054,-1.449653
alexnet_w1_mlp_simclrhn_probe2,1,249,NaN,knife,bird,NaN,bird1-knife3.png,bird1-knife3.png,0.0,-5.605584,-1.5636221,-2.858099
alexnet_w1_mlp_simclrhn_probe2,1,250,NaN,knife,bird,NaN,bird1-oven1.png,bird1-oven1.png,0.0,-5.5733833,1.273499,-4.841477
alexnet_w1_mlp_simclrhn_probe2,1,251,NaN,chair,bird,NaN,bird1-truck1.png,bird1-truck1.png,0.0,-8.959936,0.3326546,-6.570854
alexnet_w1_mlp_simclrhn_probe2,1,252,NaN,elephant,bird,NaN,bird10-bear2.png,bird10-bear2.png,0.0,-2.0368474,1.2594516,-2.3308353
alexnet_w1_mlp_simclrhn_probe2,1,253,NaN,bicycle,bird,NaN,bird10-bicycle1.png,bird10-bicycle1.png,0.0,-1.7905346,-1.3738413,-0.29464668
alexnet_w1_mlp_simclrhn_probe2,1,254,NaN,bird,bird,NaN,bird10-bird2.png,bird10-bird2.png,1.0,0.5340587,-1.598376,1.5078591
alexnet_w1_mlp_simclrhn_probe2,1,255,NaN,cat,bird,NaN,bird10-cat1.png,bird10-cat1.png,0.0,-4.5929155,1.2246822,-4.113663
alexnet_w1_mlp_simclrhn_probe2,1,256,NaN,chair,bird,NaN,bird10-chair1.png,bird10-chair1.png,0.0,-7.826315,-0.5486853,-5.1460614
alexnet_w1_mlp_simclrhn_probe2,1,257,NaN,bicycle,bird,NaN,bird10-clock1.png,bird10-clock1.png,0.0,-4.09273,0.32513005,-3.1238987
alexnet_w1_mlp_simclrhn_probe2,1,258,NaN,elephant,bird,NaN,bird10-elephant2.png,bird10-elephant2.png,0.0,-2.2784705,-0.54193807,-1.2279139
alexnet_w1_mlp_simclrhn_probe2,1,259,NaN,knife,bird,NaN,bird2-airplane3.png,bird2-airplane3.png,0.0,-7.0253706,-0.32284957,-4.739398
alexnet_w1_mlp_simclrhn_probe2,1,260,NaN,bicycle,bird,NaN,bird2-bird2.png,bird2-bird2.png,0.0,-1.3267156,0.80246294,-1.5055566
alexnet_w1_mlp_simclrhn_probe2,1,261,NaN,bicycle,bird,NaN,bird2-car3.png,bird2-car3.png,0.0,-4.899628,3.2146616,-5.73767
alexnet_w1_mlp_simclrhn_probe2,1,262,NaN,bicycle,bird,NaN,bird2-clock3.png,bird2-clock3.png,0.0,-6.8273096,-0.72588027,-4.314362
alexnet_w1_mlp_simclrhn_probe2,1,263,NaN,cat,bird,NaN,bird2-dog2.png,bird2-dog2.png,0.0,-2.2832248,0.739654,-2.1374981
alexnet_w1_mlp_simclrhn_probe2,1,264,NaN,bicycle,bird,NaN,bird2-knife1.png,bird2-knife1.png,0.0,-5.2740555,0.69161725,-4.2183676
alexnet_w1_mlp_simclrhn_probe2,1,265,NaN,cat,bird,NaN,bird3-bear3.png,bird3-bear3.png,0.0,-0.35172963,0.9662239,-0.93193394
alexnet_w1_mlp_simclrhn_probe2,1,266,NaN,bird,bird,NaN,bird3-bird2.png,bird3-bird2.png,1.0,-0.10423571,-1.5652734,1.0331097
alexnet_w1_mlp_simclrhn_probe2,1,267,NaN,oven,bird,NaN,bird3-boat3.png,bird3-boat3.png,0.0,-5.0649767,-0.9295318,-2.924201
alexnet_w1_mlp_simclrhn_probe2,1,268,NaN,bottle,bird,NaN,bird3-bottle2.png,bird3-bottle2.png,0.0,-4.7197094,-0.29644185,-3.1277225
alexnet_w1_mlp_simclrhn_probe2,1,269,NaN,cat,bird,NaN,bird3-cat1.png,bird3-cat1.png,0.0,-3.7053504,1.4425734,-3.640132
alexnet_w1_mlp_simclrhn_probe2,1,270,NaN,cat,bird,NaN,bird3-dog1.png,bird3-dog1.png,0.0,-2.27419,1.0135576,-2.3247886
alexnet_w1_mlp_simclrhn_probe2,1,271,NaN,clock,bird,NaN,bird3-knife3.png,bird3-knife3.png,0.0,-5.74681,-0.28270236,-3.8637075
alexnet_w1_mlp_simclrhn_probe2,1,272,NaN,knife,bird,NaN,bird3-oven1.png,bird3-oven1.png,0.0,-5.7487016,1.2238231,-4.9303193
alexnet_w1_mlp_simclrhn_probe2,1,273,NaN,bottle,bird,NaN,bird3-truck3.png,bird3-truck3.png,0.0,-7.1149454,0.4313836,-5.3360605
alexnet_w1_mlp_simclrhn_probe2,1,274,NaN,bicycle,bird,NaN,bird4-airplane1.png,bird4-airplane1.png,0.0,-4.45939,-0.85360944,-2.549672
alexnet_w1_mlp_simclrhn_probe2,1,275,NaN,bird,bird,NaN,bird4-bicycle2.png,bird4-bicycle2.png,1.0,-1.4918333,-2.385159,0.6316767
alexnet_w1_mlp_simclrhn_probe2,1,276,NaN,cat,bird,NaN,bird4-cat3.png,bird4-cat3.png,0.0,-3.6594715,1.9676541,-3.9789789
alexnet_w1_mlp_simclrhn_probe2,1,277,NaN,bicycle,bird,NaN,bird4-clock1.png,bird4-clock1.png,0.0,-4.6114845,-0.8692764,-2.6461408
alexnet_w1_mlp_simclrhn_probe2,1,278,NaN,cat,bird,NaN,bird4-dog3.png,bird4-dog3.png,0.0,-6.1186733,1.8591565,-5.6411777
alexnet_w1_mlp_simclrhn_probe2,1,279,NaN,knife,bird,NaN,bird5-airplane3.png,bird5-airplane3.png,0.0,-4.2246876,-0.5257555,-2.61554
alexnet_w1_mlp_simclrhn_probe2,1,280,NaN,cat,bird,NaN,bird5-bear3.png,bird5-bear3.png,0.0,-1.0113633,1.2525358,-1.6008184
alexnet_w1_mlp_simclrhn_probe2,1,281,NaN,bird,bird,NaN,bird5-bicycle1.png,bird5-bicycle1.png,1.0,-1.6342965,-4.113905,1.753348
alexnet_w1_mlp_simclrhn_probe2,1,282,NaN,cat,bird,NaN,bird5-bird1.png,bird5-bird1.png,0.0,-1.389475,-0.24229968,-0.81117547
alexnet_w1_mlp_simclrhn_probe2,1,283,NaN,bicycle,bird,NaN,bird5-car2.png,bird5-car2.png,0.0,-5.540412,0.114919916,-3.9989238
alexnet_w1_mlp_simclrhn_probe2,1,284,NaN,cat,bird,NaN,bird5-cat2.png,bird5-cat2.png,0.0,-0.62400216,0.24807829,-0.616654
alexnet_w1_mlp_simclrhn_probe2,1,285,NaN,airplane,bird,NaN,bird5-chair1.png,bird5-chair1.png,0.0,-6.620414,1.5120671,-5.750532
alexnet_w1_mlp_simclrhn_probe2,1,286,NaN,cat,bird,NaN,bird5-dog2.png,bird5-dog2.png,0.0,-3.103575,0.85256976,-2.797417
alexnet_w1_mlp_simclrhn_probe2,1,287,NaN,knife,bird,NaN,bird5-keyboard2.png,bird5-keyboard2.png,0.0,-6.637836,0.6638848,-5.1630964
alexnet_w1_mlp_simclrhn_probe2,1,288,NaN,chair,bird,NaN,bird5-oven3.png,bird5-oven3.png,0.0,-7.0142574,1.3139081,-5.888902
alexnet_w1_mlp_simclrhn_probe2,1,289,NaN,chair,bird,NaN,bird5-truck2.png,bird5-truck2.png,0.0,-8.748314,0.9113872,-6.8304405
alexnet_w1_mlp_simclrhn_probe2,1,290,NaN,knife,bird,NaN,bird6-airplane2.png,bird6-airplane2.png,0.0,-4.5271683,-1.9393028,-1.8298972
alexnet_w1_mlp_simclrhn_probe2,1,291,NaN,bicycle,bird,NaN,bird6-boat2.png,bird6-boat2.png,0.0,-6.7050257,2.2085917,-6.3028793
alexnet_w1_mlp_simclrhn_probe2,1,292,NaN,bird,bird,NaN,bird6-bottle3.png,bird6-bottle3.png,1.0,-1.9718622,-2.101845,0.09191174
alexnet_w1_mlp_simclrhn_probe2,1,293,NaN,bicycle,bird,NaN,bird6-car3.png,bird6-car3.png,0.0,-4.8930984,1.5088274,-4.5268455
alexnet_w1_mlp_simclrhn_probe2,1,294,NaN,cat,bird,NaN,bird6-elephant2.png,bird6-elephant2.png,0.0,-1.7801598,-0.6260634,-0.81606936
alexnet_w1_mlp_simclrhn_probe2,1,295,NaN,oven,bird,NaN,bird6-oven1.png,bird6-oven1.png,0.0,-6.5413866,0.6939061,-5.1161246
alexnet_w1_mlp_simclrhn_probe2,1,296,NaN,chair,bird,NaN,bird6-truck2.png,bird6-truck2.png,0.0,-9.960092,1.6907982,-8.238423
alexnet_w1_mlp_simclrhn_probe2,1,297,NaN,bird,bird,NaN,bird7-bird2.png,bird7-bird2.png,1.0,-0.26394612,-2.2857654,1.4296422
alexnet_w1_mlp_simclrhn_probe2,1,298,NaN,bicycle,bird,NaN,bird7-boat1.png,bird7-boat1.png,0.0,-7.9772224,1.0358291,-6.3731904
alexnet_w1_mlp_simclrhn_probe2,1,299,NaN,bicycle,bird,NaN,bird7-bottle1.png,bird7-bottle1.png,0.0,-4.824271,-1.5358973,-2.3252316
alexnet_w1_mlp_simclrhn_probe2,1,300,NaN,bicycle,bird,NaN,bird7-car2.png,bird7-car2.png,0.0,-6.410303,2.0445485,-5.9784827
alexnet_w1_mlp_simclrhn_probe2,1,301,NaN,cat,bird,NaN,bird7-cat3.png,bird7-cat3.png,0.0,-3.0244477,0.7181997,-2.6464515
alexnet_w1_mlp_simclrhn_probe2,1,302,NaN,knife,bird,NaN,bird7-keyboard3.png,bird7-keyboard3.png,0.0,-2.6575744,-0.87345743,-1.2615613
alexnet_w1_mlp_simclrhn_probe2,1,303,NaN,oven,bird,NaN,bird7-knife2.png,bird7-knife2.png,0.0,-5.1539235,-1.198058,-2.7972193
alexnet_w1_mlp_simclrhn_probe2,1,304,NaN,chair,bird,NaN,bird7-oven3.png,bird7-oven3.png,0.0,-7.063883,1.0848196,-5.762003
alexnet_w1_mlp_simclrhn_probe2,1,305,NaN,chair,bird,NaN,bird7-truck2.png,bird7-truck2.png,0.0,-8.692058,-0.6025004,-5.720181
alexnet_w1_mlp_simclrhn_probe2,1,306,NaN,boat,bird,NaN,bird8-boat3.png,bird8-boat3.png,0.0,-6.8566427,0.23578405,-5.0151033
alexnet_w1_mlp_simclrhn_probe2,1,307,NaN,bicycle,bird,NaN,bird8-bottle1.png,bird8-bottle1.png,0.0,-4.066973,-2.4580972,-1.1376472
alexnet_w1_mlp_simclrhn_probe2,1,308,NaN,bicycle,bird,NaN,bird8-car2.png,bird8-car2.png,0.0,-6.9254756,2.0909677,-6.3755884
alexnet_w1_mlp_simclrhn_probe2,1,309,NaN,airplane,bird,NaN,bird8-chair1.png,bird8-chair1.png,0.0,-8.3435135,0.22422275,-6.058305
alexnet_w1_mlp_simclrhn_probe2,1,310,NaN,bicycle,bird,NaN,bird8-clock1.png,bird8-clock1.png,0.0,-5.3650775,0.760258,-4.3312664
alexnet_w1_mlp_simclrhn_probe2,1,311,NaN,cat,bird,NaN,bird8-elephant1.png,bird8-elephant1.png,0.0,-1.9113356,-1.1051012,-0.5700938
alexnet_w1_mlp_simclrhn_probe2,1,312,NaN,clock,bird,NaN,bird8-keyboard2.png,bird8-keyboard2.png,0.0,-6.8693967,0.25044098,-5.034486
alexnet_w1_mlp_simclrhn_probe2,1,313,NaN,oven,bird,NaN,bird8-knife2.png,bird8-knife2.png,0.0,-4.9374275,-0.8371155,-2.8993587
alexnet_w1_mlp_simclrhn_probe2,1,314,NaN,cat,bird,NaN,bird9-bear3.png,bird9-bear3.png,0.0,-1.1734205,0.64189845,-1.2836244
alexnet_w1_mlp_simclrhn_probe2,1,315,NaN,bicycle,bird,NaN,bird9-bicycle3.png,bird9-bicycle3.png,0.0,-1.1931037,-0.9420749,-0.17750415
alexnet_w1_mlp_simclrhn_probe2,1,316,NaN,bird,bird,NaN,bird9-bottle3.png,bird9-bottle3.png,1.0,-0.2866964,-3.1626272,2.03359
alexnet_w1_mlp_simclrhn_probe2,1,317,NaN,bicycle,bird,NaN,bird9-chair1.png,bird9-chair1.png,0.0,-6.4808373,-1.0450139,-3.8437078
alexnet_w1_mlp_simclrhn_probe2,1,318,NaN,cat,bird,NaN,bird9-dog2.png,bird9-dog2.png,0.0,-2.5947695,0.85065395,-2.4362822
alexnet_w1_mlp_simclrhn_probe2,1,319,NaN,elephant,bird,NaN,bird9-elephant2.png,bird9-elephant2.png,0.0,-2.2851462,-0.7248454,-1.1032993
alexnet_w1_mlp_simclrhn_probe2,1,320,NaN,bicycle,bird,NaN,bird9-keyboard1.png,bird9-keyboard1.png,0.0,-3.1908855,0.89788854,-2.8912
alexnet_w1_mlp_simclrhn_probe2,1,321,NaN,cat,boat,NaN,boat1-bear1.png,boat1-bear1.png,0.0,-6.345517,-0.3463554,-4.242048
alexnet_w1_mlp_simclrhn_probe2,1,322,NaN,bird,boat,NaN,boat1-bicycle2.png,boat1-bicycle2.png,0.0,-4.636796,-0.832285,-2.6901956
alexnet_w1_mlp_simclrhn_probe2,1,323,NaN,knife,boat,NaN,boat1-bird3.png,boat1-bird3.png,0.0,-4.276174,0.18529543,-3.1547356
alexnet_w1_mlp_simclrhn_probe2,1,324,NaN,bicycle,boat,NaN,boat1-car2.png,boat1-car2.png,0.0,-5.2975035,-1.0472465,-3.0053856
alexnet_w1_mlp_simclrhn_probe2,1,325,NaN,airplane,boat,NaN,boat1-chair3.png,boat1-chair3.png,0.0,-1.2582054,0.67477,-1.3668201
alexnet_w1_mlp_simclrhn_probe2,1,326,NaN,bird,boat,NaN,boat1-elephant3.png,boat1-elephant3.png,0.0,-3.707749,-1.2374506,-1.7467647
alexnet_w1_mlp_simclrhn_probe2,1,327,NaN,airplane,boat,NaN,boat1-keyboard3.png,boat1-keyboard3.png,0.0,-2.1238322,1.0237433,-2.225672
alexnet_w1_mlp_simclrhn_probe2,1,328,NaN,knife,boat,NaN,boat1-oven1.png,boat1-oven1.png,0.0,-1.8727337,1.2588848,-2.2143886
alexnet_w1_mlp_simclrhn_probe2,1,329,NaN,airplane,boat,NaN,boat1-truck3.png,boat1-truck3.png,0.0,-2.2484667,0.39488593,-1.8691326
alexnet_w1_mlp_simclrhn_probe2,1,330,NaN,cat,boat,NaN,boat10-bear3.png,boat10-bear3.png,0.0,-7.3403716,0.02007691,-5.204623
alexnet_w1_mlp_simclrhn_probe2,1,331,NaN,boat,boat,NaN,boat10-boat3.png,boat10-boat3.png,1.0,-0.7753317,-1.5033011,0.51475215
alexnet_w1_mlp_simclrhn_probe2,1,332,NaN,cat,boat,NaN,boat10-cat1.png,boat10-cat1.png,0.0,-8.139831,0.9935599,-6.4582825
alexnet_w1_mlp_simclrhn_probe2,1,333,NaN,oven,boat,NaN,boat10-oven1.png,boat10-oven1.png,0.0,-3.3262048,1.0353605,-3.0840924
alexnet_w1_mlp_simclrhn_probe2,1,334,NaN,car,boat,NaN,boat10-truck1.png,boat10-truck1.png,0.0,-2.7414718,0.17587507,-2.0628757
alexnet_w1_mlp_simclrhn_probe2,1,335,NaN,bicycle,boat,NaN,boat2-airplane1.png,boat2-airplane1.png,0.0,-2.5663564,0.033421606,-1.8383206
alexnet_w1_mlp_simclrhn_probe2,1,336,NaN,bear,boat,NaN,boat2-bear3.png,boat2-bear3.png,0.0,-6.2308335,0.6450193,-4.861962
alexnet_w1_mlp_simclrhn_probe2,1,337,NaN,cat,boat,NaN,boat2-bird1.png,boat2-bird1.png,0.0,-3.7304256,-0.7045372,-2.1396263
alexnet_w1_mlp_simclrhn_probe2,1,338,NaN,bottle,boat,NaN,boat2-bottle2.png,boat2-bottle2.png,0.0,-2.7891603,0.48833328,-2.3175378
alexnet_w1_mlp_simclrhn_probe2,1,339,NaN,bicycle,boat,NaN,boat2-keyboard1.png,boat2-keyboard1.png,0.0,-3.0977516,-0.6145196,-1.7559103
alexnet_w1_mlp_simclrhn_probe2,1,340,NaN,chair,boat,NaN,boat2-oven3.png,boat2-oven3.png,0.0,-2.1084397,0.42824823,-1.7937092
alexnet_w1_mlp_simclrhn_probe2,1,341,NaN,airplane,boat,NaN,boat3-airplane2.png,boat3-airplane2.png,0.0,-1.6479448,2.0366902,-2.6054306
alexnet_w1_mlp_simclrhn_probe2,1,342,NaN,bicycle,boat,NaN,boat3-bicycle2.png,boat3-bicycle2.png,0.0,-4.963425,0.29083544,-3.7153232
alexnet_w1_mlp_simclrhn_probe2,1,343,NaN,bicycle,boat,NaN,boat3-car3.png,boat3-car3.png,0.0,-1.7787558,0.50349313,-1.6137937
alexnet_w1_mlp_simclrhn_probe2,1,344,NaN,oven,boat,NaN,boat3-cat3.png,boat3-cat3.png,0.0,-3.023408,0.46623915,-2.4675531
alexnet_w1_mlp_simclrhn_probe2,1,345,NaN,airplane,boat,NaN,boat3-chair3.png,boat3-chair3.png,0.0,-0.5206,1.7292401,-1.5908772
alexnet_w1_mlp_simclrhn_probe2,1,346,NaN,bottle,boat,NaN,boat3-clock3.png,boat3-clock3.png,0.0,-5.1328545,-1.4530294,-2.6020293
alexnet_w1_mlp_simclrhn_probe2,1,347,NaN,cat,boat,NaN,boat3-dog3.png,boat3-dog3.png,0.0,-9.293026,1.1191651,-7.362531
alexnet_w1_mlp_simclrhn_probe2,1,348,NaN,airplane,boat,NaN,boat3-keyboard2.png,boat3-keyboard2.png,0.0,-3.1222682,1.1784244,-3.041049
alexnet_w1_mlp_simclrhn_probe2,1,349,NaN,bird,boat,NaN,boat4-bicycle3.png,boat4-bicycle3.png,0.0,-7.303313,-0.25652662,-4.9828305
alexnet_w1_mlp_simclrhn_probe2,1,350,NaN,cat,boat,NaN,boat4-bird1.png,boat4-bird1.png,0.0,-2.435672,-0.63254684,-1.275002
alexnet_w1_mlp_simclrhn_probe2,1,351,NaN,boat,boat,NaN,boat4-boat3.png,boat4-boat3.png,1.0,1.5752559,0.40454108,0.8278204
alexnet_w1_mlp_simclrhn_probe2,1,352,NaN,bottle,boat,NaN,boat4-bottle2.png,boat4-bottle2.png,0.0,-3.467341,-0.2138263,-2.3005824
alexnet_w1_mlp_simclrhn_probe2,1,353,NaN,oven,boat,NaN,boat4-car3.png,boat4-car3.png,0.0,-4.3337975,0.10056627,-3.1355689
alexnet_w1_mlp_simclrhn_probe2,1,354,NaN,boat,boat,NaN,boat4-chair2.png,boat4-chair2.png,1.0,1.863066,0.4049883,1.0310166
alexnet_w1_mlp_simclrhn_probe2,1,355,NaN,cat,boat,NaN,boat4-dog2.png,boat4-dog2.png,0.0,-4.057181,0.019322077,-2.8825228
alexnet_w1_mlp_simclrhn_probe2,1,356,NaN,cat,boat,NaN,boat4-elephant2.png,boat4-elephant2.png,0.0,-3.1644182,-0.16780253,-2.1189272
alexnet_w1_mlp_simclrhn_probe2,1,357,NaN,oven,boat,NaN,boat4-knife2.png,boat4-knife2.png,0.0,-2.405606,0.06511732,-1.7470653
alexnet_w1_mlp_simclrhn_probe2,1,358,NaN,bottle,boat,NaN,boat5-airplane1.png,boat5-airplane1.png,0.0,-3.5592606,-1.3191831,-1.583974
alexnet_w1_mlp_simclrhn_probe2,1,359,NaN,bird,boat,NaN,boat5-bicycle3.png,boat5-bicycle3.png,0.0,-5.2939816,0.27217302,-3.9358656
alexnet_w1_mlp_simclrhn_probe2,1,360,NaN,boat,boat,NaN,boat5-boat3.png,boat5-boat3.png,1.0,-0.0314399,-0.27472684,0.17202985
alexnet_w1_mlp_simclrhn_probe2,1,361,NaN,bicycle,boat,NaN,boat5-car3.png,boat5-car3.png,0.0,-5.7556543,-1.5769427,-2.9547956
alexnet_w1_mlp_simclrhn_probe2,1,362,NaN,knife,boat,NaN,boat5-clock3.png,boat5-clock3.png,0.0,-5.126557,-1.573093,-2.5126784
alexnet_w1_mlp_simclrhn_probe2,1,363,NaN,boat,boat,NaN,boat5-knife2.png,boat5-knife2.png,1.0,-0.5643867,-0.8969393,0.23515017
alexnet_w1_mlp_simclrhn_probe2,1,364,NaN,knife,boat,NaN,boat6-airplane2.png,boat6-airplane2.png,0.0,-4.8725553,0.4109273,-3.7359865
alexnet_w1_mlp_simclrhn_probe2,1,365,NaN,cat,boat,NaN,boat6-bear1.png,boat6-bear1.png,0.0,-5.3486743,-0.67591125,-3.3041425
alexnet_w1_mlp_simclrhn_probe2,1,366,NaN,bicycle,boat,NaN,boat6-bicycle2.png,boat6-bicycle2.png,0.0,-6.957062,-0.23918149,-4.750259
alexnet_w1_mlp_simclrhn_probe2,1,367,NaN,bicycle,boat,NaN,boat6-bottle2.png,boat6-bottle2.png,0.0,-5.1103234,-0.47611845,-3.2768776
alexnet_w1_mlp_simclrhn_probe2,1,368,NaN,bicycle,boat,NaN,boat6-car1.png,boat6-car1.png,0.0,-5.6067524,2.1920753,-5.514604
alexnet_w1_mlp_simclrhn_probe2,1,369,NaN,cat,boat,NaN,boat6-cat1.png,boat6-cat1.png,0.0,-8.100672,0.8044899,-6.2969003
alexnet_w1_mlp_simclrhn_probe2,1,370,NaN,bicycle,boat,NaN,boat6-clock2.png,boat6-clock2.png,0.0,-5.2627316,0.08281827,-3.7798743
alexnet_w1_mlp_simclrhn_probe2,1,371,NaN,cat,boat,NaN,boat6-dog1.png,boat6-dog1.png,0.0,-8.461749,0.82747644,-6.5684743
alexnet_w1_mlp_simclrhn_probe2,1,372,NaN,elephant,boat,NaN,boat6-elephant2.png,boat6-elephant2.png,0.0,-3.8561509,-0.5064347,-2.368607
alexnet_w1_mlp_simclrhn_probe2,1,373,NaN,knife,boat,NaN,boat6-knife2.png,boat6-knife2.png,0.0,-2.8714952,-1.1931205,-1.1867902
alexnet_w1_mlp_simclrhn_probe2,1,374,NaN,chair,boat,NaN,boat6-truck3.png,boat6-truck3.png,0.0,-4.3287606,0.23105925,-3.2242794
alexnet_w1_mlp_simclrhn_probe2,1,375,NaN,bicycle,boat,NaN,boat7-boat2.png,boat7-boat2.png,0.0,-1.6974872,1.8141923,-2.4831326
alexnet_w1_mlp_simclrhn_probe2,1,376,NaN,bicycle,boat,NaN,boat7-bottle1.png,boat7-bottle1.png,0.0,-3.1803226,-0.60202044,-1.823135
alexnet_w1_mlp_simclrhn_probe2,1,377,NaN,cat,boat,NaN,boat7-cat3.png,boat7-cat3.png,0.0,-5.5654197,1.0296706,-4.663433
alexnet_w1_mlp_simclrhn_probe2,1,378,NaN,bottle,boat,NaN,boat7-chair1.png,boat7-chair1.png,0.0,-2.9050128,-0.21769933,-1.9002177
alexnet_w1_mlp_simclrhn_probe2,1,379,NaN,bottle,boat,NaN,boat7-clock3.png,boat7-clock3.png,0.0,-7.061381,-1.5174769,-3.9201322
alexnet_w1_mlp_simclrhn_probe2,1,380,NaN,elephant,boat,NaN,boat7-elephant3.png,boat7-elephant3.png,0.0,-4.0090613,-1.6772826,-1.6488166
alexnet_w1_mlp_simclrhn_probe2,1,381,NaN,bottle,boat,NaN,boat7-keyboard3.png,boat7-keyboard3.png,0.0,-2.6939287,-0.5992383,-1.4811697
alexnet_w1_mlp_simclrhn_probe2,1,382,NaN,chair,boat,NaN,boat7-oven3.png,boat7-oven3.png,0.0,-1.812677,0.3625579,-1.5381233
alexnet_w1_mlp_simclrhn_probe2,1,383,NaN,chair,boat,NaN,boat7-truck2.png,boat7-truck2.png,0.0,-2.9464827,0.2919989,-2.2899523
alexnet_w1_mlp_simclrhn_probe2,1,384,NaN,bicycle,boat,NaN,boat8-bird2.png,boat8-bird2.png,0.0,-4.42777,-0.70651066,-2.6313279
alexnet_w1_mlp_simclrhn_probe2,1,385,NaN,oven,boat,NaN,boat8-bottle1.png,boat8-bottle1.png,0.0,-4.10375,-1.0541034,-2.156426
alexnet_w1_mlp_simclrhn_probe2,1,386,NaN,cat,boat,NaN,boat8-dog3.png,boat8-dog3.png,0.0,-11.151479,1.1661872,-8.709906
alexnet_w1_mlp_simclrhn_probe2,1,387,NaN,bicycle,boat,NaN,boat8-elephant1.png,boat8-elephant1.png,0.0,-3.2620213,-0.23787956,-2.1383913
alexnet_w1_mlp_simclrhn_probe2,1,388,NaN,bicycle,boat,NaN,boat8-knife1.png,boat8-knife1.png,0.0,-3.9848735,-0.16114438,-2.7037847
alexnet_w1_mlp_simclrhn_probe2,1,389,NaN,airplane,boat,NaN,boat8-oven1.png,boat8-oven1.png,0.0,-2.0674567,0.5192708,-1.8290926
alexnet_w1_mlp_simclrhn_probe2,1,390,NaN,car,boat,NaN,boat8-truck2.png,boat8-truck2.png,0.0,-0.9912256,2.3689277,-2.375987
alexnet_w1_mlp_simclrhn_probe2,1,391,NaN,chair,boat,NaN,boat9-airplane2.png,boat9-airplane2.png,0.0,-2.1920362,0.5121846,-1.9121729
alexnet_w1_mlp_simclrhn_probe2,1,392,NaN,elephant,boat,NaN,boat9-bear3.png,boat9-bear3.png,0.0,-7.607518,2.0753946,-6.8468533
alexnet_w1_mlp_simclrhn_probe2,1,393,NaN,cat,boat,NaN,boat9-bird1.png,boat9-bird1.png,0.0,-1.8584754,-0.6238446,-0.8730158
alexnet_w1_mlp_simclrhn_probe2,1,394,NaN,boat,boat,NaN,boat9-boat3.png,boat9-boat3.png,1.0,1.1734661,-0.93071246,1.4878789
alexnet_w1_mlp_simclrhn_probe2,1,395,NaN,elephant,boat,NaN,boat9-cat3.png,boat9-cat3.png,0.0,-3.50261,0.33265635,-2.711943
alexnet_w1_mlp_simclrhn_probe2,1,396,NaN,boat,boat,NaN,boat9-chair2.png,boat9-chair2.png,1.0,1.5769082,-1.1241833,1.9099602
alexnet_w1_mlp_simclrhn_probe2,1,397,NaN,bicycle,boat,NaN,boat9-clock1.png,boat9-clock1.png,0.0,-2.8960114,-0.28329512,-1.8474693
alexnet_w1_mlp_simclrhn_probe2,1,398,NaN,oven,boat,NaN,boat9-dog2.png,boat9-dog2.png,0.0,-4.1286497,0.07626949,-2.973327
alexnet_w1_mlp_simclrhn_probe2,1,399,NaN,knife,boat,NaN,boat9-keyboard2.png,boat9-keyboard2.png,0.0,-1.9518398,0.24960853,-1.5566591
alexnet_w1_mlp_simclrhn_probe2,1,400,NaN,boat,boat,NaN,boat9-knife2.png,boat9-knife2.png,1.0,1.8526491,-0.6373843,1.7607195
alexnet_w1_mlp_simclrhn_probe2,1,401,NaN,cat,bottle,NaN,bottle1-bear1.png,bottle1-bear1.png,0.0,-3.1400564,0.28522465,-2.4220395
alexnet_w1_mlp_simclrhn_probe2,1,402,NaN,bottle,bottle,NaN,bottle1-bird3.png,bottle1-bird3.png,1.0,0.112037,-3.080385,2.257383
alexnet_w1_mlp_simclrhn_probe2,1,403,NaN,bottle,bottle,NaN,bottle1-car1.png,bottle1-car1.png,1.0,-0.5382469,-0.6544053,0.08213637
alexnet_w1_mlp_simclrhn_probe2,1,404,NaN,cat,bottle,NaN,bottle1-cat3.png,bottle1-cat3.png,0.0,-1.9407755,1.1544032,-2.1886218
alexnet_w1_mlp_simclrhn_probe2,1,405,NaN,oven,bottle,NaN,bottle1-chair2.png,bottle1-chair2.png,0.0,0.38626528,0.61876756,-0.16440395
alexnet_w1_mlp_simclrhn_probe2,1,406,NaN,bottle,bottle,NaN,bottle1-clock1.png,bottle1-clock1.png,1.0,-0.5245537,-0.54196286,0.012310125
alexnet_w1_mlp_simclrhn_probe2,1,407,NaN,cat,bottle,NaN,bottle1-dog2.png,bottle1-dog2.png,0.0,-1.9327801,0.9709366,-2.053238
alexnet_w1_mlp_simclrhn_probe2,1,408,NaN,bottle,bottle,NaN,bottle1-keyboard3.png,bottle1-keyboard3.png,1.0,0.076097324,-0.5825365,0.46572447
alexnet_w1_mlp_simclrhn_probe2,1,409,NaN,elephant,bottle,NaN,bottle10-bear2.png,bottle10-bear2.png,0.0,-3.0094912,1.5665303,-3.235736
alexnet_w1_mlp_simclrhn_probe2,1,410,NaN,bottle,bottle,NaN,bottle10-boat3.png,bottle10-boat3.png,1.0,1.813588,-0.3298459,1.5156368
alexnet_w1_mlp_simclrhn_probe2,1,411,NaN,chair,bottle,NaN,bottle10-car1.png,bottle10-car1.png,0.0,0.360123,1.2639403,-0.63909537
alexnet_w1_mlp_simclrhn_probe2,1,412,NaN,bottle,bottle,NaN,bottle10-clock2.png,bottle10-clock2.png,1.0,2.952856,-0.88940424,2.7168884
alexnet_w1_mlp_simclrhn_probe2,1,413,NaN,cat,bottle,NaN,bottle10-dog1.png,bottle10-dog1.png,0.0,-4.7207785,1.1418024,-4.1454706
alexnet_w1_mlp_simclrhn_probe2,1,414,NaN,bottle,bottle,NaN,bottle10-truck3.png,bottle10-truck3.png,1.0,3.3954272,0.30591273,2.1846168
alexnet_w1_mlp_simclrhn_probe2,1,415,NaN,bird,bottle,NaN,bottle2-bottle3.png,bottle2-bottle3.png,0.0,-4.854417,-1.4593598,-2.400668
alexnet_w1_mlp_simclrhn_probe2,1,416,NaN,bicycle,bottle,NaN,bottle2-car2.png,bottle2-car2.png,0.0,-3.0506215,-0.04783389,-2.1232915
alexnet_w1_mlp_simclrhn_probe2,1,417,NaN,chair,bottle,NaN,bottle2-chair3.png,bottle2-chair3.png,0.0,-0.5859223,-0.3884172,-0.13965718
alexnet_w1_mlp_simclrhn_probe2,1,418,NaN,bicycle,bottle,NaN,bottle2-clock1.png,bottle2-clock1.png,0.0,-1.818868,-0.13689825,-1.1893322
alexnet_w1_mlp_simclrhn_probe2,1,419,NaN,elephant,bottle,NaN,bottle2-elephant1.png,bottle2-elephant1.png,0.0,-1.8416728,-0.33260635,-1.0670712
alexnet_w1_mlp_simclrhn_probe2,1,420,NaN,bottle,bottle,NaN,bottle2-knife3.png,bottle2-knife3.png,1.0,-0.109894864,-1.4999815,0.9829397
alexnet_w1_mlp_simclrhn_probe2,1,421,NaN,chair,bottle,NaN,bottle3-airplane2.png,bottle3-airplane2.png,0.0,-0.08678585,0.34479743,-0.30517548
alexnet_w1_mlp_simclrhn_probe2,1,422,NaN,elephant,bottle,NaN,bottle3-bear2.png,bottle3-bear2.png,0.0,-4.1049285,1.3801595,-3.878543
alexnet_w1_mlp_simclrhn_probe2,1,423,NaN,bicycle,bottle,NaN,bottle3-bicycle3.png,bottle3-bicycle3.png,0.0,-3.347509,0.7360343,-2.8875012
alexnet_w1_mlp_simclrhn_probe2,1,424,NaN,cat,bottle,NaN,bottle3-bird1.png,bottle3-bird1.png,0.0,-1.3564805,-0.60651606,-0.5303049
alexnet_w1_mlp_simclrhn_probe2,1,425,NaN,bottle,bottle,NaN,bottle3-boat3.png,bottle3-boat3.png,1.0,0.29939514,-0.5376031,0.5918471
alexnet_w1_mlp_simclrhn_probe2,1,426,NaN,bird,bottle,NaN,bottle3-bottle3.png,bottle3-bottle3.png,0.0,-4.287825,-1.8026475,-1.757286
alexnet_w1_mlp_simclrhn_probe2,1,427,NaN,cat,bottle,NaN,bottle3-cat3.png,bottle3-cat3.png,0.0,-2.0604584,1.0257586,-2.182285
alexnet_w1_mlp_simclrhn_probe2,1,428,NaN,bottle,bottle,NaN,bottle3-chair3.png,bottle3-chair3.png,1.0,-0.70496637,-0.8938507,0.13356139
alexnet_w1_mlp_simclrhn_probe2,1,429,NaN,bottle,bottle,NaN,bottle3-knife3.png,bottle3-knife3.png,1.0,-1.6382596,-1.6438322,0.003940393
alexnet_w1_mlp_simclrhn_probe2,1,430,NaN,bottle,bottle,NaN,bottle4-airplane1.png,bottle4-airplane1.png,1.0,-0.9856253,-1.6199963,0.44856805
alexnet_w1_mlp_simclrhn_probe2,1,431,NaN,bicycle,bottle,NaN,bottle4-bicycle1.png,bottle4-bicycle1.png,0.0,-4.6485085,-0.8135456,-2.7117283
alexnet_w1_mlp_simclrhn_probe2,1,432,NaN,bicycle,bottle,NaN,bottle4-car3.png,bottle4-car3.png,0.0,-2.508436,1.766156,-3.022593
alexnet_w1_mlp_simclrhn_probe2,1,433,NaN,cat,bottle,NaN,bottle4-dog2.png,bottle4-dog2.png,0.0,-2.3569367,0.36925077,-1.9277056
alexnet_w1_mlp_simclrhn_probe2,1,434,NaN,bottle,bottle,NaN,bottle4-oven2.png,bottle4-oven2.png,1.0,1.9262908,0.057863012,1.321178
alexnet_w1_mlp_simclrhn_probe2,1,435,NaN,bottle,bottle,NaN,bottle4-truck1.png,bottle4-truck1.png,1.0,0.8353671,0.5074897,0.23184434
alexnet_w1_mlp_simclrhn_probe2,1,436,NaN,bottle,bottle,NaN,bottle5-airplane1.png,bottle5-airplane1.png,1.0,-0.097338475,-1.894454,1.2707527
alexnet_w1_mlp_simclrhn_probe2,1,437,NaN,bottle,bottle,NaN,bottle5-bird3.png,bottle5-bird3.png,1.0,-0.678955,-3.958663,2.3191037
alexnet_w1_mlp_simclrhn_probe2,1,438,NaN,chair,bottle,NaN,bottle5-boat1.png,bottle5-boat1.png,0.0,-0.7338273,0.054024667,-0.55709547
alexnet_w1_mlp_simclrhn_probe2,1,439,NaN,cat,bottle,NaN,bottle5-cat1.png,bottle5-cat1.png,0.0,-6.430488,1.415494,-5.5479474
alexnet_w1_mlp_simclrhn_probe2,1,440,NaN,bottle,bottle,NaN,bottle5-chair1.png,bottle5-chair1.png,1.0,1.4828905,-0.8014902,1.6153011
alexnet_w1_mlp_simclrhn_probe2,1,441,NaN,bottle,bottle,NaN,bottle5-clock3.png,bottle5-clock3.png,1.0,0.69851315,-1.5657861,1.6011015
alexnet_w1_mlp_simclrhn_probe2,1,442,NaN,elephant,bottle,NaN,bottle5-elephant1.png,bottle5-elephant1.png,0.0,-1.8931074,-0.9606949,-0.6593152
alexnet_w1_mlp_simclrhn_probe2,1,443,NaN,bottle,bottle,NaN,bottle5-keyboard2.png,bottle5-keyboard2.png,1.0,0.8516089,-0.6914761,1.0911258
alexnet_w1_mlp_simclrhn_probe2,1,444,NaN,bicycle,bottle,NaN,bottle5-knife1.png,bottle5-knife1.png,0.0,-1.1995896,-0.05331561,-0.8105381
alexnet_w1_mlp_simclrhn_probe2,1,445,NaN,bottle,bottle,NaN,bottle5-oven2.png,bottle5-oven2.png,1.0,1.645168,0.11804667,1.0798378
alexnet_w1_mlp_simclrhn_probe2,1,446,NaN,bottle,bottle,NaN,bottle5-truck1.png,bottle5-truck1.png,1.0,1.9554589,1.1207726,0.59021235
alexnet_w1_mlp_simclrhn_probe2,1,447,NaN,bottle,bottle,NaN,bottle6-airplane1.png,bottle6-airplane1.png,1.0,1.4860499,-0.7159762,1.5570676
alexnet_w1_mlp_simclrhn_probe2,1,448,NaN,elephant,bottle,NaN,bottle6-bear2.png,bottle6-bear2.png,0.0,-4.162876,1.0837522,-3.7099266
alexnet_w1_mlp_simclrhn_probe2,1,449,NaN,bicycle,bottle,NaN,bottle6-bicycle3.png,bottle6-bicycle3.png,0.0,-1.54296,-0.959922,-0.41227016
alexnet_w1_mlp_simclrhn_probe2,1,450,NaN,cat,bottle,NaN,bottle6-bird1.png,bottle6-bird1.png,0.0,-2.245107,-0.2838221,-1.3868378
alexnet_w1_mlp_simclrhn_probe2,1,451,NaN,bottle,bottle,NaN,bottle6-boat3.png,bottle6-boat3.png,1.0,3.712834,0.803801,2.0569968
alexnet_w1_mlp_simclrhn_probe2,1,452,NaN,bicycle,bottle,NaN,bottle6-bottle3.png,bottle6-bottle3.png,0.0,-4.131549,-2.1895254,-1.373218
alexnet_w1_mlp_simclrhn_probe2,1,453,NaN,chair,bottle,NaN,bottle6-chair2.png,bottle6-chair2.png,0.0,0.32367447,0.655955,-0.23495783
alexnet_w1_mlp_simclrhn_probe2,1,454,NaN,cat,bottle,NaN,bottle6-dog3.png,bottle6-dog3.png,0.0,-6.386478,0.9178872,-5.164966
alexnet_w1_mlp_simclrhn_probe2,1,455,NaN,bottle,bottle,NaN,bottle6-knife3.png,bottle6-knife3.png,1.0,-1.2544804,-1.884723,0.44564882
alexnet_w1_mlp_simclrhn_probe2,1,456,NaN,chair,bottle,NaN,bottle6-oven3.png,bottle6-oven3.png,0.0,0.29659018,0.44989422,-0.10840233
alexnet_w1_mlp_simclrhn_probe2,1,457,NaN,chair,bottle,NaN,bottle7-airplane3.png,bottle7-airplane3.png,0.0,-0.61015797,-0.37768656,-0.16438212
alexnet_w1_mlp_simclrhn_probe2,1,458,NaN,bear,bottle,NaN,bottle7-bear1.png,bottle7-bear1.png,0.0,-6.8076477,0.76688325,-5.3560023
alexnet_w1_mlp_simclrhn_probe2,1,459,NaN,bottle,bottle,NaN,bottle7-boat3.png,bottle7-boat3.png,1.0,-0.07765551,-0.21217495,0.09511961
alexnet_w1_mlp_simclrhn_probe2,1,460,NaN,cat,bottle,NaN,bottle7-cat2.png,bottle7-cat2.png,0.0,-3.745823,1.1280191,-3.446327
alexnet_w1_mlp_simclrhn_probe2,1,461,NaN,bicycle,bottle,NaN,bottle7-clock1.png,bottle7-clock1.png,0.0,-1.5360097,0.061293006,-1.1294636
alexnet_w1_mlp_simclrhn_probe2,1,462,NaN,elephant,bottle,NaN,bottle7-elephant2.png,bottle7-elephant2.png,0.0,-2.527737,0.7522216,-2.3192809
alexnet_w1_mlp_simclrhn_probe2,1,463,NaN,knife,bottle,NaN,bottle7-keyboard2.png,bottle7-keyboard2.png,0.0,-0.40143865,-0.03552863,-0.25873747
alexnet_w1_mlp_simclrhn_probe2,1,464,NaN,bottle,bottle,NaN,bottle7-oven2.png,bottle7-oven2.png,1.0,1.128224,0.64858234,0.33915788
alexnet_w1_mlp_simclrhn_probe2,1,465,NaN,chair,bottle,NaN,bottle7-truck2.png,bottle7-truck2.png,0.0,-0.59645253,1.0306985,-1.1505696
alexnet_w1_mlp_simclrhn_probe2,1,466,NaN,bicycle,bottle,NaN,bottle8-bicycle1.png,bottle8-bicycle1.png,0.0,-2.9600217,-0.8382765,-1.5003004
alexnet_w1_mlp_simclrhn_probe2,1,467,NaN,cat,bottle,NaN,bottle8-bird1.png,bottle8-bird1.png,0.0,-1.2955478,-0.41349757,-0.6237037
alexnet_w1_mlp_simclrhn_probe2,1,468,NaN,bicycle,bottle,NaN,bottle8-bottle3.png,bottle8-bottle3.png,0.0,-2.054936,-1.0984582,-0.67633194
alexnet_w1_mlp_simclrhn_probe2,1,469,NaN,cat,bottle,NaN,bottle8-dog2.png,bottle8-dog2.png,0.0,-2.8426645,1.081462,-2.7747767
alexnet_w1_mlp_simclrhn_probe2,1,470,NaN,elephant,bottle,NaN,bottle8-elephant3.png,bottle8-elephant3.png,0.0,-2.5376494,-1.6465055,-0.6301339
alexnet_w1_mlp_simclrhn_probe2,1,471,NaN,bottle,bottle,NaN,bottle8-keyboard3.png,bottle8-keyboard3.png,1.0,0.6503945,-1.0170327,1.1790491
alexnet_w1_mlp_simclrhn_probe2,1,472,NaN,bicycle,bottle,NaN,bottle8-knife1.png,bottle8-knife1.png,0.0,-0.9471015,0.6827956,-1.1525114
alexnet_w1_mlp_simclrhn_probe2,1,473,NaN,bicycle,bottle,NaN,bottle9-bicycle1.png,bottle9-bicycle1.png,0.0,-2.25281,-1.678715,-0.4059465
alexnet_w1_mlp_simclrhn_probe2,1,474,NaN,bottle,bottle,NaN,bottle9-bottle1.png,bottle9-bottle1.png,1.0,-1.0940721,-1.4975642,0.285312
alexnet_w1_mlp_simclrhn_probe2,1,475,NaN,bottle,bottle,NaN,bottle9-car3.png,bottle9-car3.png,1.0,-0.05515198,-0.9352099,0.6222949
alexnet_w1_mlp_simclrhn_probe2,1,476,NaN,cat,bottle,NaN,bottle9-cat2.png,bottle9-cat2.png,0.0,-2.1758208,0.333005,-1.7740078
alexnet_w1_mlp_simclrhn_probe2,1,477,NaN,cat,bottle,NaN,bottle9-elephant2.png,bottle9-elephant2.png,0.0,-2.0807042,-0.8115999,-0.8973922
alexnet_w1_mlp_simclrhn_probe2,1,478,NaN,bottle,bottle,NaN,bottle9-keyboard1.png,bottle9-keyboard1.png,1.0,0.3500905,-1.5458068,1.3406018
alexnet_w1_mlp_simclrhn_probe2,1,479,NaN,bottle,bottle,NaN,bottle9-oven2.png,bottle9-oven2.png,1.0,1.3642426,0.7040435,0.46683124
alexnet_w1_mlp_simclrhn_probe2,1,480,NaN,bottle,bottle,NaN,bottle9-truck1.png,bottle9-truck1.png,1.0,2.4983618,0.5367334,1.3870808
alexnet_w1_mlp_simclrhn_probe2,1,481,NaN,car,car,NaN,car1-airplane1.png,car1-airplane1.png,1.0,1.0132154,0.5531222,0.32533503
alexnet_w1_mlp_simclrhn_probe2,1,482,NaN,bicycle,car,NaN,car1-car2.png,car1-car2.png,0.0,-3.6381633,-0.15207611,-2.465036
alexnet_w1_mlp_simclrhn_probe2,1,483,NaN,airplane,car,NaN,car1-chair3.png,car1-chair3.png,0.0,0.5522689,2.597381,-1.4461126
alexnet_w1_mlp_simclrhn_probe2,1,484,NaN,car,car,NaN,car1-clock2.png,car1-clock2.png,1.0,1.6798878,0.2634946,1.0015413
alexnet_w1_mlp_simclrhn_probe2,1,485,NaN,cat,car,NaN,car1-dog2.png,car1-dog2.png,0.0,-7.1341004,0.34881184,-5.291218
alexnet_w1_mlp_simclrhn_probe2,1,486,NaN,keyboard,car,NaN,car1-keyboard2.png,car1-keyboard2.png,0.0,1.1986618,1.9563975,-0.5358001
alexnet_w1_mlp_simclrhn_probe2,1,487,NaN,oven,car,NaN,car1-oven3.png,car1-oven3.png,0.0,-2.3367898,1.0676013,-2.4072683
alexnet_w1_mlp_simclrhn_probe2,1,488,NaN,bicycle,car,NaN,car10-bicycle2.png,car10-bicycle2.png,0.0,-4.214193,1.1642768,-3.8031523
alexnet_w1_mlp_simclrhn_probe2,1,489,NaN,bicycle,car,NaN,car10-bottle3.png,car10-bottle3.png,0.0,-4.285169,0.3458959,-3.2746575
alexnet_w1_mlp_simclrhn_probe2,1,490,NaN,bicycle,car,NaN,car10-car1.png,car10-car1.png,0.0,0.8691003,1.8467968,-0.6913358
alexnet_w1_mlp_simclrhn_probe2,1,491,NaN,airplane,car,NaN,car10-chair1.png,car10-chair1.png,0.0,4.626914,6.158551,-1.083031
alexnet_w1_mlp_simclrhn_probe2,1,492,NaN,cat,car,NaN,car10-dog1.png,car10-dog1.png,0.0,-5.34972,0.1924159,-3.918882
alexnet_w1_mlp_simclrhn_probe2,1,493,NaN,elephant,car,NaN,car10-elephant2.png,car10-elephant2.png,0.0,-4.0098777,-0.35514757,-2.5842845
alexnet_w1_mlp_simclrhn_probe2,1,494,NaN,airplane,car,NaN,car10-keyboard2.png,car10-keyboard2.png,0.0,-0.5788293,1.3947709,-1.3955461
alexnet_w1_mlp_simclrhn_probe2,1,495,NaN,elephant,car,NaN,car2-bird3.png,car2-bird3.png,0.0,-4.1843934,-1.2044748,-2.1071205
alexnet_w1_mlp_simclrhn_probe2,1,496,NaN,bicycle,car,NaN,car2-car3.png,car2-car3.png,0.0,-0.46233144,2.3389862,-1.9808308
alexnet_w1_mlp_simclrhn_probe2,1,497,NaN,elephant,car,NaN,car2-cat3.png,car2-cat3.png,0.0,-6.7388554,0.22040011,-4.920937
alexnet_w1_mlp_simclrhn_probe2,1,498,NaN,car,car,NaN,car2-chair1.png,car2-chair1.png,1.0,4.0578322,1.0473706,2.128718
alexnet_w1_mlp_simclrhn_probe2,1,499,NaN,bottle,car,NaN,car2-knife3.png,car2-knife3.png,0.0,-4.355186,-0.6165217,-2.6436348
alexnet_w1_mlp_simclrhn_probe2,1,500,NaN,car,car,NaN,car3-airplane3.png,car3-airplane3.png,1.0,6.1807137,3.6677446,1.7769375
alexnet_w1_mlp_simclrhn_probe2,1,501,NaN,bicycle,car,NaN,car3-bird2.png,car3-bird2.png,0.0,-4.4050984,0.24414434,-3.287511
alexnet_w1_mlp_simclrhn_probe2,1,502,NaN,car,car,NaN,car3-boat1.png,car3-boat1.png,1.0,4.031101,1.4209468,1.845658
alexnet_w1_mlp_simclrhn_probe2,1,503,NaN,oven,car,NaN,car3-bottle3.png,car3-bottle3.png,0.0,-11.155078,-0.96553475,-7.205095
alexnet_w1_mlp_simclrhn_probe2,1,504,NaN,cat,car,NaN,car3-dog2.png,car3-dog2.png,0.0,-6.0332623,0.20060413,-4.408009
alexnet_w1_mlp_simclrhn_probe2,1,505,NaN,bird,car,NaN,car3-elephant3.png,car3-elephant3.png,0.0,-4.9995575,-1.3479072,-2.5821068
alexnet_w1_mlp_simclrhn_probe2,1,506,NaN,truck,car,NaN,car3-oven3.png,car3-oven3.png,0.0,-0.84299785,0.98439765,-1.2921637
alexnet_w1_mlp_simclrhn_probe2,1,507,NaN,car,car,NaN,car3-truck1.png,car3-truck1.png,1.0,6.2410903,3.127186,2.2018628
alexnet_w1_mlp_simclrhn_probe2,1,508,NaN,cat,car,NaN,car4-bear3.png,car4-bear3.png,0.0,-13.471784,-0.24213965,-9.354771
alexnet_w1_mlp_simclrhn_probe2,1,509,NaN,bicycle,car,NaN,car4-bicycle3.png,car4-bicycle3.png,0.0,-7.734405,1.182239,-6.3050194
alexnet_w1_mlp_simclrhn_probe2,1,510,NaN,cat,car,NaN,car4-bird1.png,car4-bird1.png,0.0,-4.80115,-1.2450446,-2.5145462
alexnet_w1_mlp_simclrhn_probe2,1,511,NaN,car,car,NaN,car4-boat1.png,car4-boat1.png,1.0,1.8256578,-0.3076699,1.5084906
alexnet_w1_mlp_simclrhn_probe2,1,512,NaN,oven,car,NaN,car4-bottle1.png,car4-bottle1.png,0.0,-9.175679,-1.4439642,-5.4671483
alexnet_w1_mlp_simclrhn_probe2,1,513,NaN,bicycle,car,NaN,car4-car2.png,car4-car2.png,0.0,-1.3781883,1.4037316,-1.9671144
alexnet_w1_mlp_simclrhn_probe2,1,514,NaN,cat,car,NaN,car4-cat3.png,car4-cat3.png,0.0,-9.3837805,-0.16206759,-6.5207357
alexnet_w1_mlp_simclrhn_probe2,1,515,NaN,bicycle,car,NaN,car4-clock1.png,car4-clock1.png,0.0,-4.881457,-1.1697726,-2.624557
alexnet_w1_mlp_simclrhn_probe2,1,516,NaN,bird,car,NaN,car4-elephant3.png,car4-elephant3.png,0.0,-6.255915,-2.2010024,-2.8672562
alexnet_w1_mlp_simclrhn_probe2,1,517,NaN,truck,car,NaN,car4-oven2.png,car4-oven2.png,0.0,0.319969,1.1569202,-0.59181386
alexnet_w1_mlp_simclrhn_probe2,1,518,NaN,car,car,NaN,car5-airplane3.png,car5-airplane3.png,1.0,3.7871504,1.0864038,1.9097162
alexnet_w1_mlp_simclrhn_probe2,1,519,NaN,cat,car,NaN,car5-bear3.png,car5-bear3.png,0.0,-11.429604,0.34173775,-8.323595
alexnet_w1_mlp_simclrhn_probe2,1,520,NaN,bottle,car,NaN,car5-bottle1.png,car5-bottle1.png,0.0,-9.165636,-1.2273844,-5.6131916
alexnet_w1_mlp_simclrhn_probe2,1,521,NaN,cat,car,NaN,car5-cat1.png,car5-cat1.png,0.0,-13.219409,1.4416269,-10.366918
alexnet_w1_mlp_simclrhn_probe2,1,522,NaN,clock,car,NaN,car5-keyboard3.png,car5-keyboard3.png,0.0,-1.7493353,-0.55728793,-0.8429048
alexnet_w1_mlp_simclrhn_probe2,1,523,NaN,car,car,NaN,car5-knife2.png,car5-knife2.png,1.0,1.8789955,1.5955112,0.2004537
alexnet_w1_mlp_simclrhn_probe2,1,524,NaN,truck,car,NaN,car5-oven2.png,car5-oven2.png,0.0,0.93011314,2.3169174,-0.9806188
alexnet_w1_mlp_simclrhn_probe2,1,525,NaN,car,car,NaN,car5-truck3.png,car5-truck3.png,1.0,2.706906,1.8905535,0.57724845
alexnet_w1_mlp_simclrhn_probe2,1,526,NaN,elephant,car,NaN,car6-bear1.png,car6-bear1.png,0.0,-9.856692,-0.30648217,-6.7530184
alexnet_w1_mlp_simclrhn_probe2,1,527,NaN,bicycle,car,NaN,car6-bicycle3.png,car6-bicycle3.png,0.0,-6.756117,1.397581,-5.7655354
alexnet_w1_mlp_simclrhn_probe2,1,528,NaN,bicycle,car,NaN,car6-boat1.png,car6-boat1.png,0.0,1.7239819,3.8258967,-1.4862783
alexnet_w1_mlp_simclrhn_probe2,1,529,NaN,bicycle,car,NaN,car6-bottle1.png,car6-bottle1.png,0.0,-8.578113,-1.4586935,-5.0341897
alexnet_w1_mlp_simclrhn_probe2,1,530,NaN,airplane,car,NaN,car6-chair3.png,car6-chair3.png,0.0,0.71408874,1.7131009,-0.7064083
alexnet_w1_mlp_simclrhn_probe2,1,531,NaN,elephant,car,NaN,car6-elephant3.png,car6-elephant3.png,0.0,-6.0354843,-1.5986814,-3.1372933
alexnet_w1_mlp_simclrhn_probe2,1,532,NaN,bicycle,car,NaN,car6-knife1.png,car6-knife1.png,0.0,0.81820124,1.3833795,-0.39964136
alexnet_w1_mlp_simclrhn_probe2,1,533,NaN,car,car,NaN,car6-truck3.png,car6-truck3.png,1.0,2.6977358,0.9405529,1.2425159
alexnet_w1_mlp_simclrhn_probe2,1,534,NaN,car,car,NaN,car7-airplane2.png,car7-airplane2.png,1.0,1.2927696,-0.2709132,1.1056907
alexnet_w1_mlp_simclrhn_probe2,1,535,NaN,bear,car,NaN,car7-bear1.png,car7-bear1.png,0.0,-11.004651,-0.9008739,-7.144449
alexnet_w1_mlp_simclrhn_probe2,1,536,NaN,knife,car,NaN,car7-bird3.png,car7-bird3.png,0.0,-3.6245975,-1.6039022,-1.4288473
alexnet_w1_mlp_simclrhn_probe2,1,537,NaN,car,car,NaN,car7-boat3.png,car7-boat3.png,1.0,2.7658284,2.364246,0.2839617
alexnet_w1_mlp_simclrhn_probe2,1,538,NaN,bicycle,car,NaN,car7-car1.png,car7-car1.png,0.0,-3.0636923,2.756194,-4.115281
alexnet_w1_mlp_simclrhn_probe2,1,539,NaN,bicycle,car,NaN,car7-clock1.png,car7-clock1.png,0.0,-2.6134431,1.5376525,-2.9352677
alexnet_w1_mlp_simclrhn_probe2,1,540,NaN,cat,car,NaN,car7-dog3.png,car7-dog3.png,0.0,-11.472899,1.3268551,-9.050793
alexnet_w1_mlp_simclrhn_probe2,1,541,NaN,bird,car,NaN,car7-elephant3.png,car7-elephant3.png,0.0,-6.2296867,-1.4938824,-3.3487196
alexnet_w1_mlp_simclrhn_probe2,1,542,NaN,knife,car,NaN,car7-keyboard3.png,car7-keyboard3.png,0.0,-0.33937868,0.2379999,-0.4082683
alexnet_w1_mlp_simclrhn_probe2,1,543,NaN,chair,car,NaN,car7-oven2.png,car7-oven2.png,0.0,-1.0487089,0.5072801,-1.1002504
alexnet_w1_mlp_simclrhn_probe2,1,544,NaN,car,car,NaN,car8-airplane3.png,car8-airplane3.png,1.0,2.0322697,-0.6399326,1.8895324
alexnet_w1_mlp_simclrhn_probe2,1,545,NaN,oven,car,NaN,car8-bear1.png,car8-bear1.png,0.0,-9.82865,-1.0057114,-6.23876
alexnet_w1_mlp_simclrhn_probe2,1,546,NaN,bicycle,car,NaN,car8-bicycle2.png,car8-bicycle2.png,0.0,-6.3837657,1.8055282,-5.790705
alexnet_w1_mlp_simclrhn_probe2,1,547,NaN,car,car,NaN,car8-boat3.png,car8-boat3.png,1.0,3.0056183,1.7870389,0.8616658
alexnet_w1_mlp_simclrhn_probe2,1,548,NaN,cat,car,NaN,car8-cat1.png,car8-cat1.png,0.0,-12.833089,1.7282019,-10.296388
alexnet_w1_mlp_simclrhn_probe2,1,549,NaN,car,car,NaN,car8-chair1.png,car8-chair1.png,1.0,4.509859,0.5655296,2.7890623
alexnet_w1_mlp_simclrhn_probe2,1,550,NaN,bicycle,car,NaN,car8-clock2.png,car8-clock2.png,0.0,1.0518442,1.4225442,-0.26212448
alexnet_w1_mlp_simclrhn_probe2,1,551,NaN,cat,car,NaN,car8-dog1.png,car8-dog1.png,0.0,-8.218811,-0.12701626,-5.721763
alexnet_w1_mlp_simclrhn_probe2,1,552,NaN,airplane,car,NaN,car8-knife2.png,car8-knife2.png,0.0,-0.5717506,-0.05966933,-0.36209613
alexnet_w1_mlp_simclrhn_probe2,1,553,NaN,car,car,NaN,car8-truck3.png,car8-truck3.png,1.0,2.2671268,0.56612456,1.2027903
alexnet_w1_mlp_simclrhn_probe2,1,554,NaN,bicycle,car,NaN,car9-bicycle2.png,car9-bicycle2.png,0.0,-5.1840453,1.1979431,-4.5127473
alexnet_w1_mlp_simclrhn_probe2,1,555,NaN,knife,car,NaN,car9-bird1.png,car9-bird1.png,0.0,-4.150172,-1.1398675,-2.1286068
alexnet_w1_mlp_simclrhn_probe2,1,556,NaN,cat,car,NaN,car9-cat1.png,car9-cat1.png,0.0,-12.149661,1.5326182,-9.674833
alexnet_w1_mlp_simclrhn_probe2,1,557,NaN,car,car,NaN,car9-clock2.png,car9-clock2.png,1.0,5.787092,2.06332,2.6331046
alexnet_w1_mlp_simclrhn_probe2,1,558,NaN,airplane,car,NaN,car9-keyboard2.png,car9-keyboard2.png,0.0,-1.4124013,-1.0201395,-0.27737102
alexnet_w1_mlp_simclrhn_probe2,1,559,NaN,car,car,NaN,car9-knife1.png,car9-knife1.png,1.0,0.26994663,0.22978744,0.02839684
alexnet_w1_mlp_simclrhn_probe2,1,560,NaN,car,car,NaN,car9-truck3.png,car9-truck3.png,1.0,2.1142807,0.38007206,1.2262707
alexnet_w1_mlp_simclrhn_probe2,1,561,NaN,bicycle,cat,NaN,cat1-airplane1.png,cat1-airplane1.png,0.0,-4.7123394,-1.8305066,-2.0377636
alexnet_w1_mlp_simclrhn_probe2,1,562,NaN,cat,cat,NaN,cat1-bird1.png,cat1-bird1.png,1.0,0.081077,-1.3086255,0.98266804
alexnet_w1_mlp_simclrhn_probe2,1,563,NaN,bicycle,cat,NaN,cat1-boat1.png,cat1-boat1.png,0.0,-5.882178,0.3529318,-4.4088883
alexnet_w1_mlp_simclrhn_probe2,1,564,NaN,bicycle,cat,NaN,cat1-car2.png,cat1-car2.png,0.0,-4.054092,1.4045432,-3.859838
alexnet_w1_mlp_simclrhn_probe2,1,565,NaN,cat,cat,NaN,cat1-cat3.png,cat1-cat3.png,1.0,3.9758008,-0.36722547,3.0709834
alexnet_w1_mlp_simclrhn_probe2,1,566,NaN,chair,cat,NaN,cat1-chair2.png,cat1-chair2.png,0.0,-3.9759343,0.8866056,-3.438335
alexnet_w1_mlp_simclrhn_probe2,1,567,NaN,cat,cat,NaN,cat1-dog1.png,cat1-dog1.png,1.0,3.6368706,-0.47569463,2.9080226
alexnet_w1_mlp_simclrhn_probe2,1,568,NaN,knife,cat,NaN,cat1-keyboard3.png,cat1-keyboard3.png,0.0,-4.528297,-0.11034585,-3.1239634
alexnet_w1_mlp_simclrhn_probe2,1,569,NaN,chair,cat,NaN,cat1-oven1.png,cat1-oven1.png,0.0,-4.81607,1.1684164,-4.2316713
alexnet_w1_mlp_simclrhn_probe2,1,570,NaN,knife,cat,NaN,cat10-airplane3.png,cat10-airplane3.png,0.0,-4.3076015,-0.527389,-2.673014
alexnet_w1_mlp_simclrhn_probe2,1,571,NaN,cat,cat,NaN,cat10-bear1.png,cat10-bear1.png,1.0,1.3118412,-0.90041584,1.5643021
alexnet_w1_mlp_simclrhn_probe2,1,572,NaN,bird,cat,NaN,cat10-bicycle1.png,cat10-bicycle1.png,0.0,-3.608467,-1.5470235,-1.4576608
alexnet_w1_mlp_simclrhn_probe2,1,573,NaN,cat,cat,NaN,cat10-bird2.png,cat10-bird2.png,1.0,0.0052575073,-2.3017647,1.6313112
alexnet_w1_mlp_simclrhn_probe2,1,574,NaN,oven,cat,NaN,cat10-bottle1.png,cat10-bottle1.png,0.0,-4.543843,-0.84608227,-2.6147115
alexnet_w1_mlp_simclrhn_probe2,1,575,NaN,oven,cat,NaN,cat10-clock1.png,cat10-clock1.png,0.0,-2.7027855,-1.764478,-0.6634836
alexnet_w1_mlp_simclrhn_probe2,1,576,NaN,bird,cat,NaN,cat10-elephant3.png,cat10-elephant3.png,0.0,-1.8467075,-1.4599572,-0.2734737
alexnet_w1_mlp_simclrhn_probe2,1,577,NaN,oven,cat,NaN,cat10-keyboard1.png,cat10-keyboard1.png,0.0,-3.2232428,-0.6243568,-1.83769
alexnet_w1_mlp_simclrhn_probe2,1,578,NaN,chair,cat,NaN,cat10-oven2.png,cat10-oven2.png,0.0,-4.6169696,0.6957602,-3.7566674
alexnet_w1_mlp_simclrhn_probe2,1,579,NaN,bicycle,cat,NaN,cat2-boat2.png,cat2-boat2.png,0.0,-3.4872162,0.45982984,-2.790983
alexnet_w1_mlp_simclrhn_probe2,1,580,NaN,bird,cat,NaN,cat2-bottle3.png,cat2-bottle3.png,0.0,-4.5924344,-4.264976,-0.23154804
alexnet_w1_mlp_simclrhn_probe2,1,581,NaN,bicycle,cat,NaN,cat2-car3.png,cat2-car3.png,0.0,-3.051531,-0.70462966,-1.6595099
alexnet_w1_mlp_simclrhn_probe2,1,582,NaN,cat,cat,NaN,cat2-cat1.png,cat2-cat1.png,1.0,2.5586789,0.039000444,1.7816817
alexnet_w1_mlp_simclrhn_probe2,1,583,NaN,elephant,cat,NaN,cat2-elephant1.png,cat2-elephant1.png,0.0,-1.4639711,-1.1270093,-0.23826802
alexnet_w1_mlp_simclrhn_probe2,1,584,NaN,bottle,cat,NaN,cat2-knife3.png,cat2-knife3.png,0.0,-5.510021,-1.5344162,-2.8111773
alexnet_w1_mlp_simclrhn_probe2,1,585,NaN,bottle,cat,NaN,cat2-truck3.png,cat2-truck3.png,0.0,-5.4925685,-0.4532966,-3.5633032
alexnet_w1_mlp_simclrhn_probe2,1,586,NaN,bear,cat,NaN,cat3-bear2.png,cat3-bear2.png,0.0,1.2480072,2.5369473,-0.91141826
alexnet_w1_mlp_simclrhn_probe2,1,587,NaN,bicycle,cat,NaN,cat3-bicycle1.png,cat3-bicycle1.png,0.0,-3.9580662,-2.9959922,-0.6802891
alexnet_w1_mlp_simclrhn_probe2,1,588,NaN,cat,cat,NaN,cat3-cat1.png,cat3-cat1.png,1.0,3.1519682,0.78877294,1.6710316
alexnet_w1_mlp_simclrhn_probe2,1,589,NaN,cat,cat,NaN,cat3-elephant2.png,cat3-elephant2.png,1.0,0.08124467,-0.74279845,0.5826865
alexnet_w1_mlp_simclrhn_probe2,1,590,NaN,oven,cat,NaN,cat3-oven2.png,cat3-oven2.png,0.0,-4.764827,0.989887,-4.069197
alexnet_w1_mlp_simclrhn_probe2,1,591,NaN,chair,cat,NaN,cat3-truck3.png,cat3-truck3.png,0.0,-6.252622,1.3264356,-5.3592033
alexnet_w1_mlp_simclrhn_probe2,1,592,NaN,bicycle,cat,NaN,cat4-airplane1.png,cat4-airplane1.png,0.0,-4.30715,-1.208188,-2.191297
alexnet_w1_mlp_simclrhn_probe2,1,593,NaN,cat,cat,NaN,cat4-bird2.png,cat4-bird2.png,1.0,-1.4312105,-2.0327194,0.425331
alexnet_w1_mlp_simclrhn_probe2,1,594,NaN,bicycle,cat,NaN,cat4-car2.png,cat4-car2.png,0.0,-4.4058604,0.005048819,-3.1189837
alexnet_w1_mlp_simclrhn_probe2,1,595,NaN,cat,cat,NaN,cat4-cat3.png,cat4-cat3.png,1.0,1.2838241,-0.61222005,1.3407056
alexnet_w1_mlp_simclrhn_probe2,1,596,NaN,chair,cat,NaN,cat4-chair2.png,cat4-chair2.png,0.0,-4.816638,0.10005909,-3.47663
alexnet_w1_mlp_simclrhn_probe2,1,597,NaN,bicycle,cat,NaN,cat4-clock2.png,cat4-clock2.png,0.0,-6.35207,-0.74999046,-3.9612684
alexnet_w1_mlp_simclrhn_probe2,1,598,NaN,cat,cat,NaN,cat4-dog3.png,cat4-dog3.png,1.0,1.8627354,0.428531,1.0141356
alexnet_w1_mlp_simclrhn_probe2,1,599,NaN,clock,cat,NaN,cat4-keyboard2.png,cat4-keyboard2.png,0.0,-3.685273,-0.358368,-2.352477
alexnet_w1_mlp_simclrhn_probe2,1,600,NaN,bicycle,cat,NaN,cat4-knife1.png,cat4-knife1.png,0.0,-4.491359,1.7727575,-4.4293995
alexnet_w1_mlp_simclrhn_probe2,1,601,NaN,chair,cat,NaN,cat4-oven1.png,cat4-oven1.png,0.0,-4.8841357,0.7552114,-3.9876206
alexnet_w1_mlp_simclrhn_probe2,1,602,NaN,bottle,cat,NaN,cat4-truck3.png,cat4-truck3.png,0.0,-7.3193016,0.79144585,-5.7351646
alexnet_w1_mlp_simclrhn_probe2,1,603,NaN,chair,cat,NaN,cat5-airplane2.png,cat5-airplane2.png,0.0,-7.2208123,0.5487019,-5.493876
alexnet_w1_mlp_simclrhn_probe2,1,604,NaN,cat,cat,NaN,cat5-bear2.png,cat5-bear2.png,1.0,1.5979718,0.8024396,0.5625262
alexnet_w1_mlp_simclrhn_probe2,1,605,NaN,cat,cat,NaN,cat5-bicycle3.png,cat5-bicycle3.png,1.0,-1.1039654,-1.275063,0.1209843
alexnet_w1_mlp_simclrhn_probe2,1,606,NaN,chair,cat,NaN,cat5-boat1.png,cat5-boat1.png,0.0,-6.6681275,0.7576828,-5.250841
alexnet_w1_mlp_simclrhn_probe2,1,607,NaN,bicycle,cat,NaN,cat5-bottle1.png,cat5-bottle1.png,0.0,-3.2510302,-0.3452132,-2.054723
alexnet_w1_mlp_simclrhn_probe2,1,608,NaN,bicycle,cat,NaN,cat5-car2.png,cat5-car2.png,0.0,-2.8891468,-0.58866477,-1.6266865
alexnet_w1_mlp_simclrhn_probe2,1,609,NaN,chair,cat,NaN,cat5-chair3.png,cat5-chair3.png,0.0,-3.7783508,-0.14869128,-2.566557
alexnet_w1_mlp_simclrhn_probe2,1,610,NaN,cat,cat,NaN,cat5-dog3.png,cat5-dog3.png,1.0,2.8601787,0.505177,1.6652377
alexnet_w1_mlp_simclrhn_probe2,1,611,NaN,cat,cat,NaN,cat5-elephant2.png,cat5-elephant2.png,1.0,-0.0458709,-0.17021051,0.08792138
alexnet_w1_mlp_simclrhn_probe2,1,612,NaN,knife,cat,NaN,cat5-keyboard3.png,cat5-keyboard3.png,0.0,-3.4664652,-0.11669254,-2.368647
alexnet_w1_mlp_simclrhn_probe2,1,613,NaN,oven,cat,NaN,cat5-knife2.png,cat5-knife2.png,0.0,-3.8258226,0.32795802,-2.9371665
alexnet_w1_mlp_simclrhn_probe2,1,614,NaN,cat,cat,NaN,cat6-bear1.png,cat6-bear1.png,1.0,1.806243,-1.6314008,2.4307814
alexnet_w1_mlp_simclrhn_probe2,1,615,NaN,chair,cat,NaN,cat6-chair3.png,cat6-chair3.png,0.0,-4.742571,0.59100765,-3.7714097
alexnet_w1_mlp_simclrhn_probe2,1,616,NaN,bottle,cat,NaN,cat6-clock3.png,cat6-clock3.png,0.0,-3.9896412,-1.6110696,-1.6819041
alexnet_w1_mlp_simclrhn_probe2,1,617,NaN,knife,cat,NaN,cat6-keyboard3.png,cat6-keyboard3.png,0.0,-3.5912583,0.42246234,-2.838129
alexnet_w1_mlp_simclrhn_probe2,1,618,NaN,chair,cat,NaN,cat6-oven1.png,cat6-oven1.png,0.0,-4.9046884,1.4953523,-4.525512
alexnet_w1_mlp_simclrhn_probe2,1,619,NaN,knife,cat,NaN,cat7-airplane2.png,cat7-airplane2.png,0.0,-5.3688216,-0.8163246,-3.2191014
alexnet_w1_mlp_simclrhn_probe2,1,620,NaN,oven,cat,NaN,cat7-boat3.png,cat7-boat3.png,0.0,-4.0773973,2.3398626,-4.5376883
alexnet_w1_mlp_simclrhn_probe2,1,621,NaN,oven,cat,NaN,cat7-bottle1.png,cat7-bottle1.png,0.0,-4.116504,-0.4876835,-2.5659637
alexnet_w1_mlp_simclrhn_probe2,1,622,NaN,cat,cat,NaN,cat7-clock3.png,cat7-clock3.png,1.0,-2.2501025,-2.4690616,0.15482746
alexnet_w1_mlp_simclrhn_probe2,1,623,NaN,cat,cat,NaN,cat7-dog3.png,cat7-dog3.png,1.0,2.8979797,1.2240791,1.1836265
alexnet_w1_mlp_simclrhn_probe2,1,624,NaN,cat,cat,NaN,cat7-elephant1.png,cat7-elephant1.png,1.0,-1.4719452,-1.653297,0.12823507
alexnet_w1_mlp_simclrhn_probe2,1,625,NaN,oven,cat,NaN,cat7-knife2.png,cat7-knife2.png,0.0,-3.634324,-0.19775702,-2.4300199
alexnet_w1_mlp_simclrhn_probe2,1,626,NaN,chair,cat,NaN,cat7-truck2.png,cat7-truck2.png,0.0,-5.14212,1.4744105,-4.6785936
alexnet_w1_mlp_simclrhn_probe2,1,627,NaN,cat,cat,NaN,cat8-bear1.png,cat8-bear1.png,1.0,0.91660935,0.12681681,0.5584677
alexnet_w1_mlp_simclrhn_probe2,1,628,NaN,bicycle,cat,NaN,cat8-bicycle3.png,cat8-bicycle3.png,0.0,-1.3355325,-0.53137285,-0.56862676
alexnet_w1_mlp_simclrhn_probe2,1,629,NaN,cat,cat,NaN,cat8-bird2.png,cat8-bird2.png,1.0,-1.535614,-1.8438463,0.21795316
alexnet_w1_mlp_simclrhn_probe2,1,630,NaN,bicycle,cat,NaN,cat8-car2.png,cat8-car2.png,0.0,-3.395317,-0.1532422,-2.2924933
alexnet_w1_mlp_simclrhn_probe2,1,631,NaN,bird,cat,NaN,cat9-bicycle1.png,cat9-bicycle1.png,0.0,-4.8116355,-1.9316621,-2.0364487
alexnet_w1_mlp_simclrhn_probe2,1,632,NaN,dog,cat,NaN,cat9-bird3.png,cat9-bird3.png,0.0,-1.8598965,0.12545593,-1.4038563
alexnet_w1_mlp_simclrhn_probe2,1,633,NaN,bicycle,cat,NaN,cat9-boat2.png,cat9-boat2.png,0.0,-5.8067303,-0.5361496,-3.7268634
alexnet_w1_mlp_simclrhn_probe2,1,634,NaN,bottle,cat,NaN,cat9-bottle2.png,cat9-bottle2.png,0.0,-6.512773,0.2390038,-4.774227
alexnet_w1_mlp_simclrhn_probe2,1,635,NaN,cat,cat,NaN,cat9-cat3.png,cat9-cat3.png,1.0,1.428925,-0.022701893,1.0264553
alexnet_w1_mlp_simclrhn_probe2,1,636,NaN,boat,cat,NaN,cat9-chair2.png,cat9-chair2.png,0.0,-4.614516,0.42155844,-3.5610423
alexnet_w1_mlp_simclrhn_probe2,1,637,NaN,bottle,cat,NaN,cat9-clock2.png,cat9-clock2.png,0.0,-4.613906,-3.296165,-0.93178356
alexnet_w1_mlp_simclrhn_probe2,1,638,NaN,cat,cat,NaN,cat9-dog2.png,cat9-dog2.png,1.0,0.7053418,0.1744642,0.37538716
alexnet_w1_mlp_simclrhn_probe2,1,639,NaN,airplane,cat,NaN,cat9-knife2.png,cat9-knife2.png,0.0,-4.137007,0.2130767,-3.0759737
alexnet_w1_mlp_simclrhn_probe2,1,640,NaN,chair,cat,NaN,cat9-truck1.png,cat9-truck1.png,0.0,-5.7932878,1.6778814,-5.282914
alexnet_w1_mlp_simclrhn_probe2,1,641,NaN,chair,chair,NaN,chair1-airplane2.png,chair1-airplane2.png,1.0,2.0972357,-0.054704368,1.5216515
alexnet_w1_mlp_simclrhn_probe2,1,642,NaN,cat,chair,NaN,chair1-bear1.png,chair1-bear1.png,0.0,-6.193629,0.6932418,-4.869753
alexnet_w1_mlp_simclrhn_probe2,1,643,NaN,cat,chair,NaN,chair1-cat3.png,chair1-cat3.png,0.0,-6.3459134,2.0119479,-5.9099007
alexnet_w1_mlp_simclrhn_probe2,1,644,NaN,chair,chair,NaN,chair1-chair1.png,chair1-chair1.png,1.0,2.095777,-0.20289315,1.6254054
alexnet_w1_mlp_simclrhn_probe2,1,645,NaN,chair,chair,NaN,chair1-clock2.png,chair1-clock2.png,1.0,-0.56872106,-1.331379,0.53928065
alexnet_w1_mlp_simclrhn_probe2,1,646,NaN,cat,chair,NaN,chair1-dog1.png,chair1-dog1.png,0.0,-6.6720586,2.0146673,-6.1424427
alexnet_w1_mlp_simclrhn_probe2,1,647,NaN,elephant,chair,NaN,chair1-elephant1.png,chair1-elephant1.png,0.0,-2.785284,-0.96100855,-1.2899576
alexnet_w1_mlp_simclrhn_probe2,1,648,NaN,chair,chair,NaN,chair1-oven3.png,chair1-oven3.png,1.0,1.4276692,0.41469896,0.71627814
alexnet_w1_mlp_simclrhn_probe2,1,649,NaN,bottle,chair,NaN,chair1-truck3.png,chair1-truck3.png,0.0,-0.08076087,0.13587178,-0.15318242
alexnet_w1_mlp_simclrhn_probe2,1,650,NaN,chair,chair,NaN,chair10-airplane2.png,chair10-airplane2.png,1.0,3.155001,-0.24911356,2.4070725
alexnet_w1_mlp_simclrhn_probe2,1,651,NaN,bicycle,chair,NaN,chair10-bicycle1.png,chair10-bicycle1.png,0.0,-3.4463866,-0.4981888,-2.0846908
alexnet_w1_mlp_simclrhn_probe2,1,652,NaN,oven,chair,NaN,chair10-bird3.png,chair10-bird3.png,0.0,-0.9473604,-0.74043506,-0.1463183
alexnet_w1_mlp_simclrhn_probe2,1,653,NaN,oven,chair,NaN,chair10-bottle3.png,chair10-bottle3.png,0.0,-1.7313225,0.70552325,-1.7231102
alexnet_w1_mlp_simclrhn_probe2,1,654,NaN,bicycle,chair,NaN,chair10-car2.png,chair10-car2.png,0.0,-2.7993631,0.15280631,-2.0874991
alexnet_w1_mlp_simclrhn_probe2,1,655,NaN,cat,chair,NaN,chair10-cat1.png,chair10-cat1.png,0.0,-10.762169,2.648823,-9.483004
alexnet_w1_mlp_simclrhn_probe2,1,656,NaN,chair,chair,NaN,chair10-clock1.png,chair10-clock1.png,1.0,0.70163757,-0.27383566,0.6897637
alexnet_w1_mlp_simclrhn_probe2,1,657,NaN,cat,chair,NaN,chair10-dog1.png,chair10-dog1.png,0.0,-6.810972,1.4701852,-5.855663
alexnet_w1_mlp_simclrhn_probe2,1,658,NaN,oven,chair,NaN,chair10-oven1.png,chair10-oven1.png,0.0,0.93415725,2.5291882,-1.1278572
alexnet_w1_mlp_simclrhn_probe2,1,659,NaN,elephant,chair,NaN,chair2-bear2.png,chair2-bear2.png,0.0,-4.4562798,1.7211188,-4.3680806
alexnet_w1_mlp_simclrhn_probe2,1,660,NaN,chair,chair,NaN,chair2-boat1.png,chair2-boat1.png,1.0,1.6911865,0.95886636,0.5178286
alexnet_w1_mlp_simclrhn_probe2,1,661,NaN,knife,chair,NaN,chair2-keyboard2.png,chair2-keyboard2.png,0.0,-0.417303,0.006097257,-0.29938918
alexnet_w1_mlp_simclrhn_probe2,1,662,NaN,bicycle,chair,NaN,chair2-knife1.png,chair2-knife1.png,0.0,0.19523358,0.56974965,-0.26482287
alexnet_w1_mlp_simclrhn_probe2,1,663,NaN,chair,chair,NaN,chair3-airplane2.png,chair3-airplane2.png,1.0,2.7077012,-0.011316001,1.9226356
alexnet_w1_mlp_simclrhn_probe2,1,664,NaN,bicycle,chair,NaN,chair3-bicycle3.png,chair3-bicycle3.png,0.0,-2.8865192,-1.1330115,-1.2399173
alexnet_w1_mlp_simclrhn_probe2,1,665,NaN,oven,chair,NaN,chair3-bottle3.png,chair3-bottle3.png,0.0,-2.3969116,0.0013467222,-1.6958249
alexnet_w1_mlp_simclrhn_probe2,1,666,NaN,chair,chair,NaN,chair3-car3.png,chair3-car3.png,1.0,-0.38353238,-0.5291374,0.102958284
alexnet_w1_mlp_simclrhn_probe2,1,667,NaN,cat,chair,NaN,chair3-dog2.png,chair3-dog2.png,0.0,-5.6330748,1.7403789,-5.213819
alexnet_w1_mlp_simclrhn_probe2,1,668,NaN,chair,chair,NaN,chair3-knife1.png,chair3-knife1.png,1.0,0.51065063,0.25239113,0.18261705
alexnet_w1_mlp_simclrhn_probe2,1,669,NaN,elephant,chair,NaN,chair4-bear2.png,chair4-bear2.png,0.0,-3.8459616,1.8889184,-4.0551724
alexnet_w1_mlp_simclrhn_probe2,1,670,NaN,cat,chair,NaN,chair4-cat2.png,chair4-cat2.png,0.0,-4.362367,1.505381,-4.1491246
alexnet_w1_mlp_simclrhn_probe2,1,671,NaN,chair,chair,NaN,chair4-chair3.png,chair4-chair3.png,1.0,2.0914059,-0.5694502,1.8815093
alexnet_w1_mlp_simclrhn_probe2,1,672,NaN,keyboard,chair,NaN,chair4-keyboard2.png,chair4-keyboard2.png,0.0,-1.464921,0.21053055,-1.1847231
alexnet_w1_mlp_simclrhn_probe2,1,673,NaN,chair,chair,NaN,chair4-oven2.png,chair4-oven2.png,1.0,2.983632,0.07840788,2.054304
alexnet_w1_mlp_simclrhn_probe2,1,674,NaN,chair,chair,NaN,chair4-truck2.png,chair4-truck2.png,1.0,3.6253884,-0.9833058,3.258839
alexnet_w1_mlp_simclrhn_probe2,1,675,NaN,bicycle,chair,NaN,chair5-bicycle1.png,chair5-bicycle1.png,0.0,-4.610894,0.81613934,-3.8374922
alexnet_w1_mlp_simclrhn_probe2,1,676,NaN,cat,chair,NaN,chair5-bird1.png,chair5-bird1.png,0.0,-3.2462955,-1.028675,-1.5680944
alexnet_w1_mlp_simclrhn_probe2,1,677,NaN,chair,chair,NaN,chair5-boat3.png,chair5-boat3.png,1.0,1.7473946,-0.89137155,1.8658894
alexnet_w1_mlp_simclrhn_probe2,1,678,NaN,bicycle,chair,NaN,chair5-bottle3.png,chair5-bottle3.png,0.0,-3.1359177,2.0984278,-3.7012413
alexnet_w1_mlp_simclrhn_probe2,1,679,NaN,bicycle,chair,NaN,chair5-car1.png,chair5-car1.png,0.0,-0.15729338,2.6734772,-2.001657
alexnet_w1_mlp_simclrhn_probe2,1,680,NaN,cat,chair,NaN,chair5-cat3.png,chair5-cat3.png,0.0,-6.2082887,0.9221861,-5.042007
alexnet_w1_mlp_simclrhn_probe2,1,681,NaN,bicycle,chair,NaN,chair5-clock2.png,chair5-clock2.png,0.0,-0.4871007,0.7806246,-0.8964172
alexnet_w1_mlp_simclrhn_probe2,1,682,NaN,keyboard,chair,NaN,chair5-keyboard2.png,chair5-keyboard2.png,0.0,-1.4731653,1.0334715,-1.7724597
alexnet_w1_mlp_simclrhn_probe2,1,683,NaN,bottle,chair,NaN,chair5-knife3.png,chair5-knife3.png,0.0,-3.1809356,-2.53314,-0.4580607
alexnet_w1_mlp_simclrhn_probe2,1,684,NaN,chair,chair,NaN,chair5-oven2.png,chair5-oven2.png,1.0,2.322122,0.4368856,1.3330635
alexnet_w1_mlp_simclrhn_probe2,1,685,NaN,chair,chair,NaN,chair5-truck3.png,chair5-truck3.png,1.0,2.0824013,-0.37069607,1.7346019
alexnet_w1_mlp_simclrhn_probe2,1,686,NaN,oven,chair,NaN,chair6-bird2.png,chair6-bird2.png,0.0,-3.4871233,-1.4425586,-1.4457256
alexnet_w1_mlp_simclrhn_probe2,1,687,NaN,cat,chair,NaN,chair6-dog1.png,chair6-dog1.png,0.0,-4.4851594,0.7637687,-3.7115526
alexnet_w1_mlp_simclrhn_probe2,1,688,NaN,elephant,chair,NaN,chair6-elephant2.png,chair6-elephant2.png,0.0,-2.4027588,-0.03874743,-1.6716084
alexnet_w1_mlp_simclrhn_probe2,1,689,NaN,chair,chair,NaN,chair6-truck2.png,chair6-truck2.png,1.0,1.9165611,-1.1599971,2.175455
alexnet_w1_mlp_simclrhn_probe2,1,690,NaN,chair,chair,NaN,chair7-airplane1.png,chair7-airplane1.png,1.0,0.052036315,-1.3182037,0.968906
alexnet_w1_mlp_simclrhn_probe2,1,691,NaN,cat,chair,NaN,chair7-bird1.png,chair7-bird1.png,0.0,-3.1459012,-0.7135002,-1.7199672
alexnet_w1_mlp_simclrhn_probe2,1,692,NaN,oven,chair,NaN,chair7-boat3.png,chair7-boat3.png,0.0,1.8371644,1.8950374,-0.0409224
alexnet_w1_mlp_simclrhn_probe2,1,693,NaN,oven,chair,NaN,chair7-bottle1.png,chair7-bottle1.png,0.0,-2.2946377,-1.1678104,-0.7967872
alexnet_w1_mlp_simclrhn_probe2,1,694,NaN,bicycle,chair,NaN,chair7-car2.png,chair7-car2.png,0.0,-2.041257,1.0762069,-2.2043798
alexnet_w1_mlp_simclrhn_probe2,1,695,NaN,cat,chair,NaN,chair7-cat1.png,chair7-cat1.png,0.0,-7.5585613,2.6927845,-7.248796
alexnet_w1_mlp_simclrhn_probe2,1,696,NaN,chair,chair,NaN,chair7-chair1.png,chair7-chair1.png,1.0,2.2750435,0.10813892,1.5322329
alexnet_w1_mlp_simclrhn_probe2,1,697,NaN,chair,chair,NaN,chair7-clock3.png,chair7-clock3.png,1.0,0.5193987,-1.0722488,1.1254648
alexnet_w1_mlp_simclrhn_probe2,1,698,NaN,bicycle,chair,NaN,chair7-elephant1.png,chair7-elephant1.png,0.0,-2.351117,-1.5511757,-0.56564385
alexnet_w1_mlp_simclrhn_probe2,1,699,NaN,oven,chair,NaN,chair7-knife2.png,chair7-knife2.png,0.0,-0.8303842,0.26654464,-0.77564585
alexnet_w1_mlp_simclrhn_probe2,1,700,NaN,chair,chair,NaN,chair7-truck3.png,chair7-truck3.png,1.0,2.9390233,-0.51009345,2.4388938
alexnet_w1_mlp_simclrhn_probe2,1,701,NaN,chair,chair,NaN,chair8-airplane1.png,chair8-airplane1.png,1.0,-0.109709255,-1.1452922,0.7322677
alexnet_w1_mlp_simclrhn_probe2,1,702,NaN,elephant,chair,NaN,chair8-bear1.png,chair8-bear1.png,0.0,-3.635044,-0.6487423,-2.1116343
alexnet_w1_mlp_simclrhn_probe2,1,703,NaN,bicycle,chair,NaN,chair8-bicycle3.png,chair8-bicycle3.png,0.0,-3.054807,-0.790918,-1.6008111
alexnet_w1_mlp_simclrhn_probe2,1,704,NaN,chair,chair,NaN,chair8-boat1.png,chair8-boat1.png,1.0,1.7584074,-0.8419899,1.8387585
alexnet_w1_mlp_simclrhn_probe2,1,705,NaN,bicycle,chair,NaN,chair8-car1.png,chair8-car1.png,0.0,-1.3604316,-0.8279418,-0.37652713
alexnet_w1_mlp_simclrhn_probe2,1,706,NaN,chair,chair,NaN,chair8-chair3.png,chair8-chair3.png,1.0,-0.048078388,-0.19547006,0.10422166
alexnet_w1_mlp_simclrhn_probe2,1,707,NaN,chair,chair,NaN,chair8-clock3.png,chair8-clock3.png,1.0,-1.2510396,-1.4659917,0.1519941
alexnet_w1_mlp_simclrhn_probe2,1,708,NaN,elephant,chair,NaN,chair8-elephant1.png,chair8-elephant1.png,0.0,-2.631808,-1.4038284,-0.8683128
alexnet_w1_mlp_simclrhn_probe2,1,709,NaN,knife,chair,NaN,chair8-keyboard3.png,chair8-keyboard3.png,0.0,-3.4778132,-0.94391596,-1.791736
alexnet_w1_mlp_simclrhn_probe2,1,710,NaN,oven,chair,NaN,chair8-knife2.png,chair8-knife2.png,0.0,-1.0431472,0.5223387,-1.1069658
alexnet_w1_mlp_simclrhn_probe2,1,711,NaN,knife,chair,NaN,chair8-oven1.png,chair8-oven1.png,0.0,0.9249752,2.27296,-0.9531692
alexnet_w1_mlp_simclrhn_probe2,1,712,NaN,cat,chair,NaN,chair9-bear1.png,chair9-bear1.png,0.0,-5.6511874,0.55252033,-4.386684
alexnet_w1_mlp_simclrhn_probe2,1,713,NaN,bicycle,chair,NaN,chair9-bicycle3.png,chair9-bicycle3.png,0.0,-2.6590755,0.32048842,-2.10687
alexnet_w1_mlp_simclrhn_probe2,1,714,NaN,chair,chair,NaN,chair9-bird3.png,chair9-bird3.png,1.0,-1.1375254,-2.0101333,0.6170269
alexnet_w1_mlp_simclrhn_probe2,1,715,NaN,chair,chair,NaN,chair9-boat2.png,chair9-boat2.png,1.0,0.9199179,-0.98283494,1.3454494
alexnet_w1_mlp_simclrhn_probe2,1,716,NaN,bird,chair,NaN,chair9-bottle3.png,chair9-bottle3.png,0.0,-4.3551097,-1.6550785,-1.9092104
alexnet_w1_mlp_simclrhn_probe2,1,717,NaN,chair,chair,NaN,chair9-chair3.png,chair9-chair3.png,1.0,1.0241821,-0.027156115,0.7434084
alexnet_w1_mlp_simclrhn_probe2,1,718,NaN,cat,chair,NaN,chair9-dog2.png,chair9-dog2.png,0.0,-4.5321035,1.1127537,-3.991517
alexnet_w1_mlp_simclrhn_probe2,1,719,NaN,bicycle,chair,NaN,chair9-elephant1.png,chair9-elephant1.png,0.0,-2.0704467,-1.4294859,-0.45322776
alexnet_w1_mlp_simclrhn_probe2,1,720,NaN,knife,chair,NaN,chair9-keyboard2.png,chair9-keyboard2.png,0.0,-1.746743,-0.5151119,-0.8708947
alexnet_w1_mlp_simclrhn_probe2,1,721,NaN,elephant,clock,NaN,clock1-bear1.png,clock1-bear1.png,0.0,-9.973554,0.48298776,-7.3938913
alexnet_w1_mlp_simclrhn_probe2,1,722,NaN,knife,clock,NaN,clock1-boat3.png,clock1-boat3.png,0.0,-4.025841,-1.4111049,-1.8488978
alexnet_w1_mlp_simclrhn_probe2,1,723,NaN,bicycle,clock,NaN,clock1-car1.png,clock1-car1.png,0.0,-5.0807285,0.7656877,-4.134041
alexnet_w1_mlp_simclrhn_probe2,1,724,NaN,knife,clock,NaN,clock1-clock2.png,clock1-clock2.png,0.0,-1.6185478,-1.2728105,-0.24447322
alexnet_w1_mlp_simclrhn_probe2,1,725,NaN,cat,clock,NaN,clock1-dog2.png,clock1-dog2.png,0.0,-5.1777062,-0.031993013,-3.6385689
alexnet_w1_mlp_simclrhn_probe2,1,726,NaN,elephant,clock,NaN,clock1-elephant2.png,clock1-elephant2.png,0.0,-3.0552876,-0.18616441,-2.0287764
alexnet_w1_mlp_simclrhn_probe2,1,727,NaN,airplane,clock,NaN,clock1-truck3.png,clock1-truck3.png,0.0,-1.4426975,0.78891486,-1.5779883
alexnet_w1_mlp_simclrhn_probe2,1,728,NaN,bottle,clock,NaN,clock10-airplane1.png,clock10-airplane1.png,0.0,0.0051112175,0.10024599,-0.06727044
alexnet_w1_mlp_simclrhn_probe2,1,729,NaN,bottle,clock,NaN,clock10-bird3.png,clock10-bird3.png,0.0,-1.2942027,-0.3895847,-0.63966155
alexnet_w1_mlp_simclrhn_probe2,1,730,NaN,bottle,clock,NaN,clock10-boat2.png,clock10-boat2.png,0.0,-0.10884682,0.602211,-0.50279385
alexnet_w1_mlp_simclrhn_probe2,1,731,NaN,bicycle,clock,NaN,clock10-bottle1.png,clock10-bottle1.png,0.0,-2.5817974,-1.6177754,-0.68166643
alexnet_w1_mlp_simclrhn_probe2,1,732,NaN,cat,clock,NaN,clock10-cat1.png,clock10-cat1.png,0.0,-8.84557,0.06539333,-6.3010025
alexnet_w1_mlp_simclrhn_probe2,1,733,NaN,clock,clock,NaN,clock10-clock3.png,clock10-clock3.png,1.0,2.3387969,0.08590146,1.5930376
alexnet_w1_mlp_simclrhn_probe2,1,734,NaN,dog,clock,NaN,clock10-dog3.png,clock10-dog3.png,0.0,-8.055583,-1.1765033,-4.864244
alexnet_w1_mlp_simclrhn_probe2,1,735,NaN,bottle,clock,NaN,clock10-knife3.png,clock10-knife3.png,0.0,-2.0993845,-1.5182962,-0.41089147
alexnet_w1_mlp_simclrhn_probe2,1,736,NaN,bottle,clock,NaN,clock10-oven2.png,clock10-oven2.png,0.0,-0.019157952,1.5875772,-1.1361334
alexnet_w1_mlp_simclrhn_probe2,1,737,NaN,car,clock,NaN,clock10-truck2.png,clock10-truck2.png,0.0,-0.6363294,1.3004967,-1.369543
alexnet_w1_mlp_simclrhn_probe2,1,738,NaN,elephant,clock,NaN,clock2-bear2.png,clock2-bear2.png,0.0,-2.866264,-1.7084075,-0.81872827
alexnet_w1_mlp_simclrhn_probe2,1,739,NaN,clock,clock,NaN,clock2-bicycle1.png,clock2-bicycle1.png,1.0,-0.11646732,-3.8821986,2.6627743
alexnet_w1_mlp_simclrhn_probe2,1,740,NaN,clock,clock,NaN,clock2-bottle3.png,clock2-bottle3.png,1.0,3.0421975,-3.3463957,4.5174174
alexnet_w1_mlp_simclrhn_probe2,1,741,NaN,clock,clock,NaN,clock2-clock3.png,clock2-clock3.png,1.0,5.102018,-1.6688126,4.7877
alexnet_w1_mlp_simclrhn_probe2,1,742,NaN,oven,clock,NaN,clock2-dog1.png,clock2-dog1.png,0.0,-3.8615706,-0.29388165,-2.522737
alexnet_w1_mlp_simclrhn_probe2,1,743,NaN,clock,clock,NaN,clock2-elephant2.png,clock2-elephant2.png,1.0,-1.2495826,-2.0914016,0.5952559
alexnet_w1_mlp_simclrhn_probe2,1,744,NaN,clock,clock,NaN,clock2-knife1.png,clock2-knife1.png,1.0,-0.3223978,-1.9140911,1.1254971
alexnet_w1_mlp_simclrhn_probe2,1,745,NaN,elephant,clock,NaN,clock3-bear3.png,clock3-bear3.png,0.0,-4.760177,0.23556548,-3.5325236
alexnet_w1_mlp_simclrhn_probe2,1,746,NaN,clock,clock,NaN,clock3-bicycle2.png,clock3-bicycle2.png,1.0,-0.6834877,-2.7058651,1.4300369
alexnet_w1_mlp_simclrhn_probe2,1,747,NaN,bottle,clock,NaN,clock3-bird1.png,clock3-bird1.png,0.0,-2.0017216,-1.349532,-0.4611677
alexnet_w1_mlp_simclrhn_probe2,1,748,NaN,bicycle,clock,NaN,clock3-car2.png,clock3-car2.png,0.0,-1.6120526,1.9555092,-2.5226471
alexnet_w1_mlp_simclrhn_probe2,1,749,NaN,oven,clock,NaN,clock3-cat1.png,clock3-cat1.png,0.0,-2.3727949,-1.3938363,-0.69222826
alexnet_w1_mlp_simclrhn_probe2,1,750,NaN,clock,clock,NaN,clock3-dog2.png,clock3-dog2.png,1.0,-1.0111423,-1.5034992,0.3481489
alexnet_w1_mlp_simclrhn_probe2,1,751,NaN,clock,clock,NaN,clock3-elephant3.png,clock3-elephant3.png,1.0,-1.5241462,-2.4955587,0.6868924
alexnet_w1_mlp_simclrhn_probe2,1,752,NaN,clock,clock,NaN,clock3-keyboard3.png,clock3-keyboard3.png,1.0,1.5760632,-0.4360697,1.4227928
alexnet_w1_mlp_simclrhn_probe2,1,753,NaN,clock,clock,NaN,clock4-airplane1.png,clock4-airplane1.png,1.0,2.0050147,-0.4576378,1.7413583
alexnet_w1_mlp_simclrhn_probe2,1,754,NaN,clock,clock,NaN,clock4-bird3.png,clock4-bird3.png,1.0,0.4853809,-1.6071352,1.4796323
alexnet_w1_mlp_simclrhn_probe2,1,755,NaN,oven,clock,NaN,clock4-boat3.png,clock4-boat3.png,0.0,-2.1078565,1.8854333,-2.8236825
alexnet_w1_mlp_simclrhn_probe2,1,756,NaN,clock,clock,NaN,clock4-bottle3.png,clock4-bottle3.png,1.0,0.47971234,-2.9783118,2.4451923
alexnet_w1_mlp_simclrhn_probe2,1,757,NaN,bicycle,clock,NaN,clock4-car2.png,clock4-car2.png,0.0,-2.5322878,-0.36632764,-1.5315653
alexnet_w1_mlp_simclrhn_probe2,1,758,NaN,car,clock,NaN,clock4-chair1.png,clock4-chair1.png,0.0,-0.7239788,1.4647117,-1.5476378
alexnet_w1_mlp_simclrhn_probe2,1,759,NaN,elephant,clock,NaN,clock4-elephant2.png,clock4-elephant2.png,0.0,-2.8840876,-0.55197823,-1.6490505
alexnet_w1_mlp_simclrhn_probe2,1,760,NaN,bottle,clock,NaN,clock4-knife1.png,clock4-knife1.png,0.0,-1.6723953,-1.5072854,-0.1167504
alexnet_w1_mlp_simclrhn_probe2,1,761,NaN,clock,clock,NaN,clock4-oven1.png,clock4-oven1.png,1.0,1.5539304,0.7984491,0.534206
alexnet_w1_mlp_simclrhn_probe2,1,762,NaN,clock,clock,NaN,clock5-airplane1.png,clock5-airplane1.png,1.0,3.8954468,-0.81423074,3.330245
alexnet_w1_mlp_simclrhn_probe2,1,763,NaN,clock,clock,NaN,clock5-bicycle1.png,clock5-bicycle1.png,1.0,-0.5163646,-4.154431,2.5725014
alexnet_w1_mlp_simclrhn_probe2,1,764,NaN,clock,clock,NaN,clock5-chair3.png,clock5-chair3.png,1.0,2.1640098,1.2021419,0.68014336
alexnet_w1_mlp_simclrhn_probe2,1,765,NaN,clock,clock,NaN,clock5-clock2.png,clock5-clock2.png,1.0,7.818302,-1.9279951,6.8916726
alexnet_w1_mlp_simclrhn_probe2,1,766,NaN,clock,clock,NaN,clock5-elephant2.png,clock5-elephant2.png,1.0,-1.2174339,-1.8753608,0.4652246
