subj,session,trial,rt,object_response,category,condition,imagename,filename,is_correct,targ_act,max_nontarg_act,decision_margin
alexnet_w1_mlp_simclrhn_probe3,1,1,NaN,bicycle,airplane,NaN,airplane1-bicycle2.png,airplane1-bicycle2.png,0.0,-0.23889415,1.070477,-0.92586523
alexnet_w1_mlp_simclrhn_probe3,1,2,NaN,boat,airplane,NaN,airplane1-chair2.png,airplane1-chair2.png,0.0,0.15261452,2.9334266,-1.9663311
alexnet_w1_mlp_simclrhn_probe3,1,3,NaN,bicycle,airplane,NaN,airplane1-clock1.png,airplane1-clock1.png,0.0,-0.30353355,2.712324,-2.1325333
alexnet_w1_mlp_simclrhn_probe3,1,4,NaN,bicycle,airplane,NaN,airplane1-elephant1.png,airplane1-elephant1.png,0.0,-1.1378862,0.62717986,-1.2480901
alexnet_w1_mlp_simclrhn_probe3,1,5,NaN,airplane,airplane,NaN,airplane10-airplane1.png,airplane10-airplane1.png,1.0,4.119668,1.0954264,2.1384616
alexnet_w1_mlp_simclrhn_probe3,1,6,NaN,bird,airplane,NaN,airplane10-bear3.png,airplane10-bear3.png,0.0,-0.7693651,1.1681471,-1.370028
alexnet_w1_mlp_simclrhn_probe3,1,7,NaN,boat,airplane,NaN,airplane10-boat3.png,airplane10-boat3.png,0.0,2.4007156,2.738954,-0.23917073
alexnet_w1_mlp_simclrhn_probe3,1,8,NaN,bicycle,airplane,NaN,airplane10-car3.png,airplane10-car3.png,0.0,0.9343244,1.8871156,-0.6737251
alexnet_w1_mlp_simclrhn_probe3,1,9,NaN,cat,airplane,NaN,airplane10-cat2.png,airplane10-cat2.png,0.0,-1.6168002,1.0198154,-1.8643689
alexnet_w1_mlp_simclrhn_probe3,1,10,NaN,cat,airplane,NaN,airplane10-dog3.png,airplane10-dog3.png,0.0,-0.5653427,2.456901,-2.137049
alexnet_w1_mlp_simclrhn_probe3,1,11,NaN,bicycle,airplane,NaN,airplane10-elephant1.png,airplane10-elephant1.png,0.0,-1.1970721,0.1594553,-0.9592098
alexnet_w1_mlp_simclrhn_probe3,1,12,NaN,bottle,airplane,NaN,airplane10-knife3.png,airplane10-knife3.png,0.0,0.39064705,1.5440954,-0.8156112
alexnet_w1_mlp_simclrhn_probe3,1,13,NaN,airplane,airplane,NaN,airplane10-oven2.png,airplane10-oven2.png,1.0,3.6688397,1.720704,1.37754
alexnet_w1_mlp_simclrhn_probe3,1,14,NaN,chair,airplane,NaN,airplane10-truck1.png,airplane10-truck1.png,0.0,1.4660012,2.8198469,-0.9573135
alexnet_w1_mlp_simclrhn_probe3,1,15,NaN,cat,airplane,NaN,airplane2-bear1.png,airplane2-bear1.png,0.0,0.00065211207,1.0522685,-0.74360514
alexnet_w1_mlp_simclrhn_probe3,1,16,NaN,bird,airplane,NaN,airplane2-bicycle1.png,airplane2-bicycle1.png,0.0,0.1315423,0.9615018,-0.58687
alexnet_w1_mlp_simclrhn_probe3,1,17,NaN,airplane,airplane,NaN,airplane2-bird3.png,airplane2-bird3.png,1.0,1.5861832,0.7871377,0.5650105
alexnet_w1_mlp_simclrhn_probe3,1,18,NaN,boat,airplane,NaN,airplane2-bottle1.png,airplane2-bottle1.png,0.0,0.032468386,0.8032032,-0.54499185
alexnet_w1_mlp_simclrhn_probe3,1,19,NaN,cat,airplane,NaN,airplane2-cat1.png,airplane2-cat1.png,0.0,-0.4584516,2.706558,-2.2379997
alexnet_w1_mlp_simclrhn_probe3,1,20,NaN,cat,airplane,NaN,airplane2-dog1.png,airplane2-dog1.png,0.0,-0.42942536,2.1502724,-1.8241217
alexnet_w1_mlp_simclrhn_probe3,1,21,NaN,airplane,airplane,NaN,airplane3-airplane2.png,airplane3-airplane2.png,1.0,5.5886927,1.6343977,2.7961087
alexnet_w1_mlp_simclrhn_probe3,1,22,NaN,bicycle,airplane,NaN,airplane3-car1.png,airplane3-car1.png,0.0,-2.2171557,3.2837338,-3.8897166
alexnet_w1_mlp_simclrhn_probe3,1,23,NaN,cat,airplane,NaN,airplane3-cat1.png,airplane3-cat1.png,0.0,0.16676712,2.4430344,-1.6095641
alexnet_w1_mlp_simclrhn_probe3,1,24,NaN,airplane,airplane,NaN,airplane3-chair3.png,airplane3-chair3.png,1.0,3.6009197,1.1952268,1.7010819
alexnet_w1_mlp_simclrhn_probe3,1,25,NaN,bicycle,airplane,NaN,airplane3-clock1.png,airplane3-clock1.png,0.0,-0.09757424,1.7329884,-1.2944032
alexnet_w1_mlp_simclrhn_probe3,1,26,NaN,cat,airplane,NaN,airplane3-dog1.png,airplane3-dog1.png,0.0,-0.62183183,1.3071586,-1.3640022
alexnet_w1_mlp_simclrhn_probe3,1,27,NaN,cat,airplane,NaN,airplane3-elephant1.png,airplane3-elephant1.png,0.0,-1.5790424,0.3286795,-1.3489631
alexnet_w1_mlp_simclrhn_probe3,1,28,NaN,keyboard,airplane,NaN,airplane3-keyboard2.png,airplane3-keyboard2.png,0.0,1.4952134,1.7082237,-0.15062104
alexnet_w1_mlp_simclrhn_probe3,1,29,NaN,airplane,airplane,NaN,airplane3-oven1.png,airplane3-oven1.png,1.0,4.97433,2.5529199,1.7121955
alexnet_w1_mlp_simclrhn_probe3,1,30,NaN,airplane,airplane,NaN,airplane4-airplane1.png,airplane4-airplane1.png,1.0,4.245448,1.6627123,1.82627
alexnet_w1_mlp_simclrhn_probe3,1,31,NaN,bear,airplane,NaN,airplane4-bear3.png,airplane4-bear3.png,0.0,-0.91808146,1.6169617,-1.7925463
alexnet_w1_mlp_simclrhn_probe3,1,32,NaN,bird,airplane,NaN,airplane4-bicycle2.png,airplane4-bicycle2.png,0.0,0.111606725,1.7121196,-1.1317335
alexnet_w1_mlp_simclrhn_probe3,1,33,NaN,airplane,airplane,NaN,airplane4-bird3.png,airplane4-bird3.png,1.0,3.0121288,0.46998525,1.797567
alexnet_w1_mlp_simclrhn_probe3,1,34,NaN,boat,airplane,NaN,airplane4-boat3.png,airplane4-boat3.png,0.0,2.2067347,2.2218807,-0.010709852
alexnet_w1_mlp_simclrhn_probe3,1,35,NaN,keyboard,airplane,NaN,airplane4-bottle1.png,airplane4-bottle1.png,0.0,0.15527207,1.5376894,-0.9775168
alexnet_w1_mlp_simclrhn_probe3,1,36,NaN,bicycle,airplane,NaN,airplane4-car1.png,airplane4-car1.png,0.0,-1.5438621,1.8349891,-2.3892086
alexnet_w1_mlp_simclrhn_probe3,1,37,NaN,cat,airplane,NaN,airplane4-cat3.png,airplane4-cat3.png,0.0,-0.45145243,1.5813829,-1.4374316
alexnet_w1_mlp_simclrhn_probe3,1,38,NaN,cat,airplane,NaN,airplane4-dog2.png,airplane4-dog2.png,0.0,-0.051808998,1.4960275,-1.0944856
alexnet_w1_mlp_simclrhn_probe3,1,39,NaN,bicycle,airplane,NaN,airplane4-elephant1.png,airplane4-elephant1.png,0.0,-1.2698933,0.3115292,-1.1182345
alexnet_w1_mlp_simclrhn_probe3,1,40,NaN,airplane,airplane,NaN,airplane4-keyboard3.png,airplane4-keyboard3.png,1.0,2.3791094,1.427444,0.67292905
alexnet_w1_mlp_simclrhn_probe3,1,41,NaN,oven,airplane,NaN,airplane4-knife1.png,airplane4-knife1.png,0.0,0.86577165,1.0704578,-0.14473498
alexnet_w1_mlp_simclrhn_probe3,1,42,NaN,chair,airplane,NaN,airplane4-truck2.png,airplane4-truck2.png,0.0,1.4582126,3.002976,-1.0923127
alexnet_w1_mlp_simclrhn_probe3,1,43,NaN,cat,airplane,NaN,airplane5-bear2.png,airplane5-bear2.png,0.0,-0.5130787,2.6406949,-2.2300546
alexnet_w1_mlp_simclrhn_probe3,1,44,NaN,bird,airplane,NaN,airplane5-bicycle1.png,airplane5-bicycle1.png,0.0,0.10101205,1.4355838,-0.9436848
alexnet_w1_mlp_simclrhn_probe3,1,45,NaN,bird,airplane,NaN,airplane5-bird2.png,airplane5-bird2.png,0.0,-0.44557345,0.90526056,-0.9551839
alexnet_w1_mlp_simclrhn_probe3,1,46,NaN,boat,airplane,NaN,airplane5-boat3.png,airplane5-boat3.png,0.0,1.8310914,3.1860628,-0.9581095
alexnet_w1_mlp_simclrhn_probe3,1,47,NaN,bird,airplane,NaN,airplane5-bottle3.png,airplane5-bottle3.png,0.0,-0.23183943,1.7367722,-1.3920187
alexnet_w1_mlp_simclrhn_probe3,1,48,NaN,airplane,airplane,NaN,airplane5-chair3.png,airplane5-chair3.png,1.0,3.2250683,1.4327753,1.2673426
alexnet_w1_mlp_simclrhn_probe3,1,49,NaN,cat,airplane,NaN,airplane5-dog3.png,airplane5-dog3.png,0.0,-0.48768243,3.0419512,-2.495828
alexnet_w1_mlp_simclrhn_probe3,1,50,NaN,bicycle,airplane,NaN,airplane5-knife1.png,airplane5-knife1.png,0.0,0.07054359,2.1625862,-1.4792976
alexnet_w1_mlp_simclrhn_probe3,1,51,NaN,chair,airplane,NaN,airplane5-oven3.png,airplane5-oven3.png,0.0,-0.06429972,2.359493,-1.7138804
alexnet_w1_mlp_simclrhn_probe3,1,52,NaN,cat,airplane,NaN,airplane6-bear3.png,airplane6-bear3.png,0.0,-0.8196258,2.321932,-2.221417
alexnet_w1_mlp_simclrhn_probe3,1,53,NaN,bottle,airplane,NaN,airplane6-bottle2.png,airplane6-bottle2.png,0.0,0.73488235,2.390475,-1.1706809
alexnet_w1_mlp_simclrhn_probe3,1,54,NaN,airplane,airplane,NaN,airplane6-chair3.png,airplane6-chair3.png,1.0,3.6592383,1.595223,1.4594793
alexnet_w1_mlp_simclrhn_probe3,1,55,NaN,airplane,airplane,NaN,airplane6-keyboard3.png,airplane6-keyboard3.png,1.0,2.5792298,1.9620531,0.4364099
alexnet_w1_mlp_simclrhn_probe3,1,56,NaN,bicycle,airplane,NaN,airplane6-knife1.png,airplane6-knife1.png,0.0,0.5647414,1.604804,-0.73543537
alexnet_w1_mlp_simclrhn_probe3,1,57,NaN,airplane,airplane,NaN,airplane7-airplane3.png,airplane7-airplane3.png,1.0,7.6648645,1.804833,4.143668
alexnet_w1_mlp_simclrhn_probe3,1,58,NaN,airplane,airplane,NaN,airplane7-bird3.png,airplane7-bird3.png,1.0,3.2489195,0.37392592,2.0329275
alexnet_w1_mlp_simclrhn_probe3,1,59,NaN,oven,airplane,NaN,airplane7-boat2.png,airplane7-boat2.png,0.0,1.1288913,2.1279173,-0.70641804
alexnet_w1_mlp_simclrhn_probe3,1,60,NaN,oven,airplane,NaN,airplane7-bottle3.png,airplane7-bottle3.png,0.0,0.16573882,1.158945,-0.7023028
alexnet_w1_mlp_simclrhn_probe3,1,61,NaN,bicycle,airplane,NaN,airplane7-car1.png,airplane7-car1.png,0.0,-0.34965888,2.3338706,-1.897542
alexnet_w1_mlp_simclrhn_probe3,1,62,NaN,cat,airplane,NaN,airplane7-cat3.png,airplane7-cat3.png,0.0,-0.20871979,1.1648408,-0.97125405
alexnet_w1_mlp_simclrhn_probe3,1,63,NaN,airplane,airplane,NaN,airplane7-clock3.png,airplane7-clock3.png,1.0,0.79385114,0.73138297,0.04417167
alexnet_w1_mlp_simclrhn_probe3,1,64,NaN,bicycle,airplane,NaN,airplane7-keyboard1.png,airplane7-keyboard1.png,0.0,1.79325,2.1873,-0.27863544
alexnet_w1_mlp_simclrhn_probe3,1,65,NaN,chair,airplane,NaN,airplane7-truck1.png,airplane7-truck1.png,0.0,1.6546358,3.587256,-1.3665688
alexnet_w1_mlp_simclrhn_probe3,1,66,NaN,bird,airplane,NaN,airplane8-bicycle3.png,airplane8-bicycle3.png,0.0,0.017751455,0.9997271,-0.6943616
alexnet_w1_mlp_simclrhn_probe3,1,67,NaN,cat,airplane,NaN,airplane8-bird1.png,airplane8-bird1.png,0.0,-0.012131095,0.6224293,-0.44870198
alexnet_w1_mlp_simclrhn_probe3,1,68,NaN,airplane,airplane,NaN,airplane8-chair1.png,airplane8-chair1.png,1.0,6.2643795,1.7848352,3.167516
alexnet_w1_mlp_simclrhn_probe3,1,69,NaN,bicycle,airplane,NaN,airplane8-clock2.png,airplane8-clock2.png,0.0,0.7652832,1.0597658,-0.20823064
alexnet_w1_mlp_simclrhn_probe3,1,70,NaN,keyboard,airplane,NaN,airplane8-elephant3.png,airplane8-elephant3.png,0.0,-0.26861334,0.42129028,-0.48783553
alexnet_w1_mlp_simclrhn_probe3,1,71,NaN,airplane,airplane,NaN,airplane8-oven2.png,airplane8-oven2.png,1.0,2.516041,1.7037761,0.57435805
alexnet_w1_mlp_simclrhn_probe3,1,72,NaN,chair,airplane,NaN,airplane8-truck3.png,airplane8-truck3.png,0.0,2.0324643,2.7378407,-0.49877644
alexnet_w1_mlp_simclrhn_probe3,1,73,NaN,airplane,airplane,NaN,airplane9-airplane2.png,airplane9-airplane2.png,1.0,8.541832,3.0446513,3.887094
alexnet_w1_mlp_simclrhn_probe3,1,74,NaN,airplane,airplane,NaN,airplane9-boat1.png,airplane9-boat1.png,1.0,3.975657,3.6115987,0.25742808
alexnet_w1_mlp_simclrhn_probe3,1,75,NaN,bicycle,airplane,NaN,airplane9-car2.png,airplane9-car2.png,0.0,-1.6474187,3.0068178,-3.2910426
alexnet_w1_mlp_simclrhn_probe3,1,76,NaN,bicycle,airplane,NaN,airplane9-clock1.png,airplane9-clock1.png,0.0,0.2522391,2.2916045,-1.442049
alexnet_w1_mlp_simclrhn_probe3,1,77,NaN,keyboard,airplane,NaN,airplane9-keyboard2.png,airplane9-keyboard2.png,0.0,1.5801432,1.7463684,-0.117538966
alexnet_w1_mlp_simclrhn_probe3,1,78,NaN,bottle,airplane,NaN,airplane9-knife3.png,airplane9-knife3.png,0.0,0.1425283,1.7162647,-1.1127998
alexnet_w1_mlp_simclrhn_probe3,1,79,NaN,airplane,airplane,NaN,airplane9-oven2.png,airplane9-oven2.png,1.0,2.3654492,2.2575989,0.07626169
alexnet_w1_mlp_simclrhn_probe3,1,80,NaN,chair,airplane,NaN,airplane9-truck1.png,airplane9-truck1.png,0.0,0.84321165,5.8721037,-3.5559638
alexnet_w1_mlp_simclrhn_probe3,1,81,NaN,knife,bear,NaN,bear1-airplane3.png,bear1-airplane3.png,0.0,-0.2946318,1.4349494,-1.2229986
alexnet_w1_mlp_simclrhn_probe3,1,82,NaN,bear,bear,NaN,bear1-bear3.png,bear1-bear3.png,1.0,2.0872276,2.0473998,0.028162524
alexnet_w1_mlp_simclrhn_probe3,1,83,NaN,cat,bear,NaN,bear1-bicycle3.png,bear1-bicycle3.png,0.0,-0.72761714,1.598744,-1.6449858
alexnet_w1_mlp_simclrhn_probe3,1,84,NaN,cat,bear,NaN,bear1-bird2.png,bear1-bird2.png,0.0,0.5219078,2.7152874,-1.5509536
alexnet_w1_mlp_simclrhn_probe3,1,85,NaN,oven,bear,NaN,bear1-chair2.png,bear1-chair2.png,0.0,-0.24643528,1.7301381,-1.3976485
alexnet_w1_mlp_simclrhn_probe3,1,86,NaN,cat,bear,NaN,bear1-clock2.png,bear1-clock2.png,0.0,-1.1895146,1.1222771,-1.6346837
alexnet_w1_mlp_simclrhn_probe3,1,87,NaN,elephant,bear,NaN,bear1-elephant1.png,bear1-elephant1.png,0.0,-0.4304676,0.54875386,-0.69241416
alexnet_w1_mlp_simclrhn_probe3,1,88,NaN,bear,bear,NaN,bear10-bear2.png,bear10-bear2.png,1.0,4.5694094,1.908495,1.8815507
alexnet_w1_mlp_simclrhn_probe3,1,89,NaN,keyboard,bear,NaN,bear10-bottle1.png,bear10-bottle1.png,0.0,-0.041026264,0.8521296,-0.6315566
alexnet_w1_mlp_simclrhn_probe3,1,90,NaN,bicycle,bear,NaN,bear10-car2.png,bear10-car2.png,0.0,-1.0740358,3.2776356,-3.0770962
alexnet_w1_mlp_simclrhn_probe3,1,91,NaN,cat,bear,NaN,bear10-cat2.png,bear10-cat2.png,0.0,0.95225596,1.6994957,-0.52837825
alexnet_w1_mlp_simclrhn_probe3,1,92,NaN,oven,bear,NaN,bear10-chair2.png,bear10-chair2.png,0.0,-0.22070624,1.5707476,-1.2667491
alexnet_w1_mlp_simclrhn_probe3,1,93,NaN,bicycle,bear,NaN,bear10-clock1.png,bear10-clock1.png,0.0,-0.4514347,3.156339,-2.5510812
alexnet_w1_mlp_simclrhn_probe3,1,94,NaN,cat,bear,NaN,bear10-elephant1.png,bear10-elephant1.png,0.0,-0.38602793,0.15376756,-0.38169307
alexnet_w1_mlp_simclrhn_probe3,1,95,NaN,keyboard,bear,NaN,bear10-keyboard3.png,bear10-keyboard3.png,0.0,-0.6618987,1.055401,-1.2143143
alexnet_w1_mlp_simclrhn_probe3,1,96,NaN,oven,bear,NaN,bear10-knife2.png,bear10-knife2.png,0.0,-0.12884763,0.833994,-0.68083185
alexnet_w1_mlp_simclrhn_probe3,1,97,NaN,oven,bear,NaN,bear10-oven1.png,bear10-oven1.png,0.0,-0.3823107,2.4429595,-1.9977677
alexnet_w1_mlp_simclrhn_probe3,1,98,NaN,chair,bear,NaN,bear10-truck1.png,bear10-truck1.png,0.0,-1.2714378,3.3669734,-3.279852
alexnet_w1_mlp_simclrhn_probe3,1,99,NaN,bird,bear,NaN,bear2-airplane1.png,bear2-airplane1.png,0.0,-0.13470891,1.072023,-0.85328835
alexnet_w1_mlp_simclrhn_probe3,1,100,NaN,elephant,bear,NaN,bear2-bird3.png,bear2-bird3.png,0.0,3.3956108,5.4040394,-1.4201735
alexnet_w1_mlp_simclrhn_probe3,1,101,NaN,bicycle,bear,NaN,bear2-car2.png,bear2-car2.png,0.0,-0.9056874,2.8491058,-2.6550398
alexnet_w1_mlp_simclrhn_probe3,1,102,NaN,cat,bear,NaN,bear2-cat2.png,bear2-cat2.png,0.0,0.91838956,1.6821238,-0.5400417
alexnet_w1_mlp_simclrhn_probe3,1,103,NaN,bear,bear,NaN,bear2-dog1.png,bear2-dog1.png,1.0,1.7457659,1.4010868,0.24372494
alexnet_w1_mlp_simclrhn_probe3,1,104,NaN,elephant,bear,NaN,bear2-elephant1.png,bear2-elephant1.png,0.0,-0.30772042,0.45544106,-0.5396367
alexnet_w1_mlp_simclrhn_probe3,1,105,NaN,keyboard,bear,NaN,bear2-keyboard2.png,bear2-keyboard2.png,0.0,-0.38390756,2.989402,-2.3852901
alexnet_w1_mlp_simclrhn_probe3,1,106,NaN,oven,bear,NaN,bear2-knife2.png,bear2-knife2.png,0.0,-0.15923727,1.2613646,-1.0045172
alexnet_w1_mlp_simclrhn_probe3,1,107,NaN,knife,bear,NaN,bear2-oven1.png,bear2-oven1.png,0.0,-0.348346,2.2345114,-1.8263559
alexnet_w1_mlp_simclrhn_probe3,1,108,NaN,bicycle,bear,NaN,bear3-airplane1.png,bear3-airplane1.png,0.0,0.11711581,0.99789494,-0.62280494
alexnet_w1_mlp_simclrhn_probe3,1,109,NaN,bird,bear,NaN,bear3-bicycle2.png,bear3-bicycle2.png,0.0,-0.15542053,1.0605401,-0.859814
alexnet_w1_mlp_simclrhn_probe3,1,110,NaN,dog,bear,NaN,bear3-bird3.png,bear3-bird3.png,0.0,0.9626574,1.0383054,-0.05349122
alexnet_w1_mlp_simclrhn_probe3,1,111,NaN,bicycle,bear,NaN,bear3-car2.png,bear3-car2.png,0.0,-0.9660917,2.2461448,-2.2713943
alexnet_w1_mlp_simclrhn_probe3,1,112,NaN,cat,bear,NaN,bear3-cat1.png,bear3-cat1.png,0.0,0.18381923,2.417518,-1.5794635
alexnet_w1_mlp_simclrhn_probe3,1,113,NaN,oven,bear,NaN,bear3-chair2.png,bear3-chair2.png,0.0,-0.32374945,2.268536,-1.8330228
alexnet_w1_mlp_simclrhn_probe3,1,114,NaN,dog,bear,NaN,bear3-dog3.png,bear3-dog3.png,0.0,1.1681341,2.4214103,-0.88620013
alexnet_w1_mlp_simclrhn_probe3,1,115,NaN,keyboard,bear,NaN,bear3-keyboard2.png,bear3-keyboard2.png,0.0,-0.9511813,4.5551596,-3.8935711
alexnet_w1_mlp_simclrhn_probe3,1,116,NaN,chair,bear,NaN,bear3-truck3.png,bear3-truck3.png,0.0,-0.48087764,3.1401389,-2.5604453
alexnet_w1_mlp_simclrhn_probe3,1,117,NaN,bicycle,bear,NaN,bear4-boat2.png,bear4-boat2.png,0.0,-0.50284505,3.043458,-2.5076149
alexnet_w1_mlp_simclrhn_probe3,1,118,NaN,bicycle,bear,NaN,bear4-car3.png,bear4-car3.png,0.0,-1.0972526,2.5456328,-2.5759091
alexnet_w1_mlp_simclrhn_probe3,1,119,NaN,cat,bear,NaN,bear4-cat3.png,bear4-cat3.png,0.0,1.8161163,2.761337,-0.668372
alexnet_w1_mlp_simclrhn_probe3,1,120,NaN,cat,bear,NaN,bear4-clock3.png,bear4-clock3.png,0.0,-0.994083,1.158713,-1.5222567
alexnet_w1_mlp_simclrhn_probe3,1,121,NaN,cat,bear,NaN,bear4-elephant2.png,bear4-elephant2.png,0.0,-0.6417674,1.2490577,-1.3370153
alexnet_w1_mlp_simclrhn_probe3,1,122,NaN,keyboard,bear,NaN,bear4-keyboard3.png,bear4-keyboard3.png,0.0,-0.65297467,1.2396607,-1.3382953
alexnet_w1_mlp_simclrhn_probe3,1,123,NaN,cat,bear,NaN,bear4-knife1.png,bear4-knife1.png,0.0,-0.75230193,0.9811098,-1.2257073
alexnet_w1_mlp_simclrhn_probe3,1,124,NaN,chair,bear,NaN,bear4-oven2.png,bear4-oven2.png,0.0,-0.13954711,2.2876525,-1.7162893
alexnet_w1_mlp_simclrhn_probe3,1,125,NaN,bottle,bear,NaN,bear4-truck3.png,bear4-truck3.png,0.0,-0.67240167,1.7586774,-1.7190324
alexnet_w1_mlp_simclrhn_probe3,1,126,NaN,knife,bear,NaN,bear5-airplane3.png,bear5-airplane3.png,0.0,-0.7315805,0.9628678,-1.1981559
alexnet_w1_mlp_simclrhn_probe3,1,127,NaN,cat,bear,NaN,bear5-bicycle3.png,bear5-bicycle3.png,0.0,-0.7355652,1.0712715,-1.2776265
alexnet_w1_mlp_simclrhn_probe3,1,128,NaN,cat,bear,NaN,bear5-bird1.png,bear5-bird1.png,0.0,-0.11382556,0.9601616,-0.7594237
alexnet_w1_mlp_simclrhn_probe3,1,129,NaN,bicycle,bear,NaN,bear5-boat2.png,bear5-boat2.png,0.0,-0.61604095,1.976679,-1.8333299
alexnet_w1_mlp_simclrhn_probe3,1,130,NaN,bicycle,bear,NaN,bear5-bottle1.png,bear5-bottle1.png,0.0,-0.14722054,1.0421665,-0.8410236
alexnet_w1_mlp_simclrhn_probe3,1,131,NaN,bottle,bear,NaN,bear5-chair1.png,bear5-chair1.png,0.0,-0.92142844,1.7054155,-1.8574592
alexnet_w1_mlp_simclrhn_probe3,1,132,NaN,chair,bear,NaN,bear5-oven3.png,bear5-oven3.png,0.0,-0.6331949,2.059214,-1.9038208
alexnet_w1_mlp_simclrhn_probe3,1,133,NaN,cat,bear,NaN,bear6-bear1.png,bear6-bear1.png,0.0,1.8722686,2.8599598,-0.69840324
alexnet_w1_mlp_simclrhn_probe3,1,134,NaN,cat,bear,NaN,bear6-bird2.png,bear6-bird2.png,0.0,-0.9342023,1.587838,-1.7833519
alexnet_w1_mlp_simclrhn_probe3,1,135,NaN,oven,bear,NaN,bear6-boat3.png,bear6-boat3.png,0.0,0.21560207,3.665933,-2.4397523
alexnet_w1_mlp_simclrhn_probe3,1,136,NaN,cat,bear,NaN,bear6-bottle3.png,bear6-bottle3.png,0.0,-1.0531008,1.3702494,-1.7135675
alexnet_w1_mlp_simclrhn_probe3,1,137,NaN,bicycle,bear,NaN,bear6-car2.png,bear6-car2.png,0.0,-0.76117694,2.472692,-2.2866907
alexnet_w1_mlp_simclrhn_probe3,1,138,NaN,cat,bear,NaN,bear6-cat3.png,bear6-cat3.png,0.0,0.79545224,2.5363686,-1.2310138
alexnet_w1_mlp_simclrhn_probe3,1,139,NaN,chair,bear,NaN,bear6-chair1.png,bear6-chair1.png,0.0,-1.2419398,2.8343287,-2.882357
alexnet_w1_mlp_simclrhn_probe3,1,140,NaN,bicycle,bear,NaN,bear6-clock1.png,bear6-clock1.png,0.0,-1.1926699,1.982361,-2.2450857
alexnet_w1_mlp_simclrhn_probe3,1,141,NaN,bear,bear,NaN,bear7-bear2.png,bear7-bear2.png,1.0,3.8565345,2.2388065,1.1439065
alexnet_w1_mlp_simclrhn_probe3,1,142,NaN,bird,bear,NaN,bear7-bicycle2.png,bear7-bicycle2.png,0.0,0.18218076,1.1925467,-0.71443665
alexnet_w1_mlp_simclrhn_probe3,1,143,NaN,oven,bear,NaN,bear7-clock1.png,bear7-clock1.png,0.0,-0.591011,1.4499053,-1.4431458
alexnet_w1_mlp_simclrhn_probe3,1,144,NaN,cat,bear,NaN,bear7-dog3.png,bear7-dog3.png,0.0,1.6816483,2.4715033,-0.55851185
alexnet_w1_mlp_simclrhn_probe3,1,145,NaN,oven,bear,NaN,bear7-oven3.png,bear7-oven3.png,0.0,-0.5252197,3.1066756,-2.568138
alexnet_w1_mlp_simclrhn_probe3,1,146,NaN,chair,bear,NaN,bear7-truck1.png,bear7-truck1.png,0.0,-1.5237834,3.2904944,-3.4042084
alexnet_w1_mlp_simclrhn_probe3,1,147,NaN,oven,bear,NaN,bear8-airplane1.png,bear8-airplane1.png,0.0,-0.5630304,1.0368952,-1.1313182
alexnet_w1_mlp_simclrhn_probe3,1,148,NaN,bear,bear,NaN,bear8-bear1.png,bear8-bear1.png,1.0,1.8692843,1.3955015,0.33501503
alexnet_w1_mlp_simclrhn_probe3,1,149,NaN,bicycle,bear,NaN,bear8-bicycle3.png,bear8-bicycle3.png,0.0,-0.7108146,0.6756439,-0.9803742
alexnet_w1_mlp_simclrhn_probe3,1,150,NaN,oven,bear,NaN,bear8-boat2.png,bear8-boat2.png,0.0,-0.46300977,2.0910587,-1.8059993
alexnet_w1_mlp_simclrhn_probe3,1,151,NaN,keyboard,bear,NaN,bear8-bottle1.png,bear8-bottle1.png,0.0,-0.3047492,0.87758005,-0.836033
alexnet_w1_mlp_simclrhn_probe3,1,152,NaN,bear,bear,NaN,bear8-dog1.png,bear8-dog1.png,1.0,2.210259,1.3166792,0.63185626
alexnet_w1_mlp_simclrhn_probe3,1,153,NaN,cat,bear,NaN,bear8-elephant2.png,bear8-elephant2.png,0.0,-0.5373219,1.21894,-1.2418648
alexnet_w1_mlp_simclrhn_probe3,1,154,NaN,knife,bear,NaN,bear8-knife3.png,bear8-knife3.png,0.0,-1.9076406,0.5877145,-1.7644826
alexnet_w1_mlp_simclrhn_probe3,1,155,NaN,bottle,bear,NaN,bear8-truck3.png,bear8-truck3.png,0.0,-0.86271393,2.893098,-2.6557603
alexnet_w1_mlp_simclrhn_probe3,1,156,NaN,oven,bear,NaN,bear9-boat2.png,bear9-boat2.png,0.0,-0.32966232,2.6681726,-2.1197894
alexnet_w1_mlp_simclrhn_probe3,1,157,NaN,bottle,bear,NaN,bear9-bottle2.png,bear9-bottle2.png,0.0,-1.0785507,2.098103,-2.2462335
alexnet_w1_mlp_simclrhn_probe3,1,158,NaN,bear,bear,NaN,bear9-dog1.png,bear9-dog1.png,1.0,2.4386163,1.6117885,0.5846555
alexnet_w1_mlp_simclrhn_probe3,1,159,NaN,keyboard,bear,NaN,bear9-keyboard3.png,bear9-keyboard3.png,0.0,-0.7296567,2.506671,-2.2884293
alexnet_w1_mlp_simclrhn_probe3,1,160,NaN,oven,bear,NaN,bear9-knife2.png,bear9-knife2.png,0.0,0.042628467,2.30197,-1.5975957
alexnet_w1_mlp_simclrhn_probe3,1,161,NaN,bicycle,bicycle,NaN,bicycle1-airplane2.png,bicycle1-airplane2.png,1.0,3.6742992,3.1323178,0.38323876
alexnet_w1_mlp_simclrhn_probe3,1,162,NaN,cat,bicycle,NaN,bicycle1-bear1.png,bicycle1-bear1.png,0.0,-0.8255993,1.6022083,-1.7167193
alexnet_w1_mlp_simclrhn_probe3,1,163,NaN,bicycle,bicycle,NaN,bicycle1-bicycle3.png,bicycle1-bicycle3.png,1.0,7.58636,1.6105511,4.2255354
alexnet_w1_mlp_simclrhn_probe3,1,164,NaN,cat,bicycle,NaN,bicycle1-bird1.png,bicycle1-bird1.png,0.0,-0.59569913,0.8020149,-0.9883331
alexnet_w1_mlp_simclrhn_probe3,1,165,NaN,chair,bicycle,NaN,bicycle1-boat3.png,bicycle1-boat3.png,0.0,2.1358764,2.5034792,-0.25993446
alexnet_w1_mlp_simclrhn_probe3,1,166,NaN,bicycle,bicycle,NaN,bicycle1-bottle3.png,bicycle1-bottle3.png,1.0,15.941821,3.4103103,8.861116
alexnet_w1_mlp_simclrhn_probe3,1,167,NaN,car,bicycle,NaN,bicycle1-chair1.png,bicycle1-chair1.png,0.0,2.822558,2.965709,-0.101223074
alexnet_w1_mlp_simclrhn_probe3,1,168,NaN,bicycle,bicycle,NaN,bicycle1-clock3.png,bicycle1-clock3.png,1.0,6.680025,2.4759402,2.972737
alexnet_w1_mlp_simclrhn_probe3,1,169,NaN,cat,bicycle,NaN,bicycle1-dog3.png,bicycle1-dog3.png,0.0,-0.70514715,1.6647768,-1.6757894
alexnet_w1_mlp_simclrhn_probe3,1,170,NaN,cat,bicycle,NaN,bicycle1-elephant2.png,bicycle1-elephant2.png,0.0,-0.45983598,1.1726223,-1.1543224
alexnet_w1_mlp_simclrhn_probe3,1,171,NaN,clock,bicycle,NaN,bicycle1-knife3.png,bicycle1-knife3.png,0.0,-0.399517,1.4394082,-1.3003165
alexnet_w1_mlp_simclrhn_probe3,1,172,NaN,knife,bicycle,NaN,bicycle1-oven1.png,bicycle1-oven1.png,0.0,-0.17039645,2.9694152,-2.220182
alexnet_w1_mlp_simclrhn_probe3,1,173,NaN,bicycle,bicycle,NaN,bicycle1-truck1.png,bicycle1-truck1.png,1.0,11.225601,5.6502767,3.94235
alexnet_w1_mlp_simclrhn_probe3,1,174,NaN,car,bicycle,NaN,bicycle10-airplane2.png,bicycle10-airplane2.png,0.0,4.923753,5.0331106,-0.07732767
alexnet_w1_mlp_simclrhn_probe3,1,175,NaN,bicycle,bicycle,NaN,bicycle10-boat3.png,bicycle10-boat3.png,1.0,3.482636,2.8642983,0.43723074
alexnet_w1_mlp_simclrhn_probe3,1,176,NaN,bicycle,bicycle,NaN,bicycle10-clock2.png,bicycle10-clock2.png,1.0,7.008952,3.1823041,2.7058487
alexnet_w1_mlp_simclrhn_probe3,1,177,NaN,dog,bicycle,NaN,bicycle10-dog3.png,bicycle10-dog3.png,0.0,-0.76297927,1.9279392,-1.9027667
alexnet_w1_mlp_simclrhn_probe3,1,178,NaN,cat,bicycle,NaN,bicycle10-elephant2.png,bicycle10-elephant2.png,0.0,-0.2091535,0.98531204,-0.8446147
alexnet_w1_mlp_simclrhn_probe3,1,179,NaN,bicycle,bicycle,NaN,bicycle2-bicycle1.png,bicycle2-bicycle1.png,1.0,3.8423877,0.6344515,2.2683535
alexnet_w1_mlp_simclrhn_probe3,1,180,NaN,bicycle,bicycle,NaN,bicycle2-bird3.png,bicycle2-bird3.png,1.0,0.9301963,0.5025007,0.30242646
alexnet_w1_mlp_simclrhn_probe3,1,181,NaN,bicycle,bicycle,NaN,bicycle2-bottle1.png,bicycle2-bottle1.png,1.0,1.423797,0.6559295,0.54296434
alexnet_w1_mlp_simclrhn_probe3,1,182,NaN,bicycle,bicycle,NaN,bicycle2-car2.png,bicycle2-car2.png,1.0,4.2949615,0.13026328,2.9448864
alexnet_w1_mlp_simclrhn_probe3,1,183,NaN,cat,bicycle,NaN,bicycle2-dog1.png,bicycle2-dog1.png,0.0,-0.97841346,2.3629785,-2.362721
alexnet_w1_mlp_simclrhn_probe3,1,184,NaN,knife,bicycle,NaN,bicycle2-keyboard2.png,bicycle2-keyboard2.png,0.0,-0.030604526,1.7335951,-1.2474775
alexnet_w1_mlp_simclrhn_probe3,1,185,NaN,chair,bicycle,NaN,bicycle2-knife2.png,bicycle2-knife2.png,0.0,0.42578417,1.5753188,-0.8128438
alexnet_w1_mlp_simclrhn_probe3,1,186,NaN,cat,bicycle,NaN,bicycle3-bird1.png,bicycle3-bird1.png,0.0,-0.5149471,1.3135101,-1.2929144
alexnet_w1_mlp_simclrhn_probe3,1,187,NaN,cat,bicycle,NaN,bicycle3-elephant2.png,bicycle3-elephant2.png,0.0,-0.5554446,1.1305617,-1.1921865
alexnet_w1_mlp_simclrhn_probe3,1,188,NaN,bicycle,bicycle,NaN,bicycle3-keyboard1.png,bicycle3-keyboard1.png,1.0,6.4761877,1.5031836,3.5164452
alexnet_w1_mlp_simclrhn_probe3,1,189,NaN,chair,bicycle,NaN,bicycle3-oven3.png,bicycle3-oven3.png,0.0,0.3245253,2.6773827,-1.6637214
alexnet_w1_mlp_simclrhn_probe3,1,190,NaN,bottle,bicycle,NaN,bicycle3-truck3.png,bicycle3-truck3.png,0.0,-0.61731416,2.8129883,-2.42559
alexnet_w1_mlp_simclrhn_probe3,1,191,NaN,bicycle,bicycle,NaN,bicycle4-airplane1.png,bicycle4-airplane1.png,1.0,2.868702,1.4578805,0.99760145
alexnet_w1_mlp_simclrhn_probe3,1,192,NaN,bicycle,bicycle,NaN,bicycle4-bicycle3.png,bicycle4-bicycle3.png,1.0,6.5286884,1.4996611,3.5560596
alexnet_w1_mlp_simclrhn_probe3,1,193,NaN,bicycle,bicycle,NaN,bicycle4-boat1.png,bicycle4-boat1.png,1.0,8.979944,2.5567765,4.5418653
alexnet_w1_mlp_simclrhn_probe3,1,194,NaN,bicycle,bicycle,NaN,bicycle4-bottle1.png,bicycle4-bottle1.png,1.0,2.2224724,0.79948854,1.0062016
alexnet_w1_mlp_simclrhn_probe3,1,195,NaN,bicycle,bicycle,NaN,bicycle4-car2.png,bicycle4-car2.png,1.0,7.2848525,0.80768776,4.580047
alexnet_w1_mlp_simclrhn_probe3,1,196,NaN,cat,bicycle,NaN,bicycle4-cat1.png,bicycle4-cat1.png,0.0,-0.88688004,4.0124006,-3.4643145
alexnet_w1_mlp_simclrhn_probe3,1,197,NaN,bicycle,bicycle,NaN,bicycle4-chair2.png,bicycle4-chair2.png,1.0,2.672133,2.067607,0.4274645
alexnet_w1_mlp_simclrhn_probe3,1,198,NaN,bicycle,bicycle,NaN,bicycle4-clock3.png,bicycle4-clock3.png,1.0,4.1481576,2.0004346,1.5186695
alexnet_w1_mlp_simclrhn_probe3,1,199,NaN,keyboard,bicycle,NaN,bicycle4-keyboard3.png,bicycle4-keyboard3.png,0.0,0.16281453,0.82846886,-0.47068867
alexnet_w1_mlp_simclrhn_probe3,1,200,NaN,clock,bicycle,NaN,bicycle4-knife3.png,bicycle4-knife3.png,0.0,-0.3227669,1.2500772,-1.1121688
alexnet_w1_mlp_simclrhn_probe3,1,201,NaN,chair,bicycle,NaN,bicycle4-oven3.png,bicycle4-oven3.png,0.0,0.052531525,2.3124862,-1.5980293
alexnet_w1_mlp_simclrhn_probe3,1,202,NaN,chair,bicycle,NaN,bicycle4-truck3.png,bicycle4-truck3.png,0.0,-0.21394634,2.7908943,-2.1247432
alexnet_w1_mlp_simclrhn_probe3,1,203,NaN,cat,bicycle,NaN,bicycle5-bear1.png,bicycle5-bear1.png,0.0,-0.87182534,2.4224443,-2.3294003
alexnet_w1_mlp_simclrhn_probe3,1,204,NaN,bicycle,bicycle,NaN,bicycle5-bottle3.png,bicycle5-bottle3.png,1.0,6.3324113,1.3013396,3.557505
alexnet_w1_mlp_simclrhn_probe3,1,205,NaN,bicycle,bicycle,NaN,bicycle5-car3.png,bicycle5-car3.png,1.0,8.651831,2.613737,4.269577
alexnet_w1_mlp_simclrhn_probe3,1,206,NaN,cat,bicycle,NaN,bicycle5-cat1.png,bicycle5-cat1.png,0.0,-0.5932941,3.0200493,-2.5550196
alexnet_w1_mlp_simclrhn_probe3,1,207,NaN,bicycle,bicycle,NaN,bicycle5-chair2.png,bicycle5-chair2.png,1.0,4.9098663,3.3902912,1.0745019
alexnet_w1_mlp_simclrhn_probe3,1,208,NaN,cat,bicycle,NaN,bicycle5-dog2.png,bicycle5-dog2.png,0.0,-0.26126885,2.2463188,-1.7731323
alexnet_w1_mlp_simclrhn_probe3,1,209,NaN,bicycle,bicycle,NaN,bicycle5-elephant1.png,bicycle5-elephant1.png,1.0,0.6940998,0.38902727,0.21571885
alexnet_w1_mlp_simclrhn_probe3,1,210,NaN,airplane,bicycle,NaN,bicycle5-keyboard3.png,bicycle5-keyboard3.png,0.0,-0.30837464,1.2656302,-1.1129895
alexnet_w1_mlp_simclrhn_probe3,1,211,NaN,chair,bicycle,NaN,bicycle5-oven3.png,bicycle5-oven3.png,0.0,0.35262233,2.5851457,-1.5786325
alexnet_w1_mlp_simclrhn_probe3,1,212,NaN,chair,bicycle,NaN,bicycle6-airplane2.png,bicycle6-airplane2.png,0.0,2.2155938,3.205886,-0.7002423
alexnet_w1_mlp_simclrhn_probe3,1,213,NaN,bicycle,bicycle,NaN,bicycle6-bicycle3.png,bicycle6-bicycle3.png,1.0,2.171178,1.0078543,0.8225941
alexnet_w1_mlp_simclrhn_probe3,1,214,NaN,bicycle,bicycle,NaN,bicycle6-boat2.png,bicycle6-boat2.png,1.0,3.9487746,2.7784553,0.82754076
alexnet_w1_mlp_simclrhn_probe3,1,215,NaN,bicycle,bicycle,NaN,bicycle6-car2.png,bicycle6-car2.png,1.0,4.572876,0.57411957,2.8275478
alexnet_w1_mlp_simclrhn_probe3,1,216,NaN,cat,bicycle,NaN,bicycle6-cat1.png,bicycle6-cat1.png,0.0,-0.7419548,3.9067125,-3.2871044
alexnet_w1_mlp_simclrhn_probe3,1,217,NaN,cat,bicycle,NaN,bicycle6-dog2.png,bicycle6-dog2.png,0.0,-0.15139273,2.8930712,-2.152761
alexnet_w1_mlp_simclrhn_probe3,1,218,NaN,elephant,bicycle,NaN,bicycle7-bear2.png,bicycle7-bear2.png,0.0,-0.3535249,2.264912,-1.8515145
alexnet_w1_mlp_simclrhn_probe3,1,219,NaN,bicycle,bicycle,NaN,bicycle7-bicycle2.png,bicycle7-bicycle2.png,1.0,5.0936346,0.75225,3.0698223
alexnet_w1_mlp_simclrhn_probe3,1,220,NaN,cat,bicycle,NaN,bicycle7-cat1.png,bicycle7-cat1.png,0.0,-0.97725767,3.6673005,-3.2841985
alexnet_w1_mlp_simclrhn_probe3,1,221,NaN,bicycle,bicycle,NaN,bicycle7-clock3.png,bicycle7-clock3.png,1.0,4.343096,2.1723685,1.534936
alexnet_w1_mlp_simclrhn_probe3,1,222,NaN,cat,bicycle,NaN,bicycle7-elephant2.png,bicycle7-elephant2.png,0.0,-0.24170677,1.0559353,-0.9175715
alexnet_w1_mlp_simclrhn_probe3,1,223,NaN,bicycle,bicycle,NaN,bicycle7-knife2.png,bicycle7-knife2.png,1.0,2.5247192,1.941482,0.41241106
alexnet_w1_mlp_simclrhn_probe3,1,224,NaN,knife,bicycle,NaN,bicycle7-oven1.png,bicycle7-oven1.png,0.0,-0.012973309,2.5628157,-1.8213578
alexnet_w1_mlp_simclrhn_probe3,1,225,NaN,bottle,bicycle,NaN,bicycle7-truck3.png,bicycle7-truck3.png,0.0,-0.6512816,2.931401,-2.5333393
alexnet_w1_mlp_simclrhn_probe3,1,226,NaN,elephant,bicycle,NaN,bicycle8-bear2.png,bicycle8-bear2.png,0.0,-0.47228518,1.8507683,-1.642647
alexnet_w1_mlp_simclrhn_probe3,1,227,NaN,bicycle,bicycle,NaN,bicycle8-bird2.png,bicycle8-bird2.png,1.0,5.551834,0.6131376,3.4921858
alexnet_w1_mlp_simclrhn_probe3,1,228,NaN,bicycle,bicycle,NaN,bicycle8-boat1.png,bicycle8-boat1.png,1.0,11.907675,3.3389084,6.059033
alexnet_w1_mlp_simclrhn_probe3,1,229,NaN,bicycle,bicycle,NaN,bicycle8-chair2.png,bicycle8-chair2.png,1.0,4.140258,2.168339,1.3943572
alexnet_w1_mlp_simclrhn_probe3,1,230,NaN,bicycle,bicycle,NaN,bicycle8-clock3.png,bicycle8-clock3.png,1.0,4.165078,2.0322094,1.508166
alexnet_w1_mlp_simclrhn_probe3,1,231,NaN,bicycle,bicycle,NaN,bicycle8-truck1.png,bicycle8-truck1.png,1.0,7.069389,2.8977823,2.9497714
alexnet_w1_mlp_simclrhn_probe3,1,232,NaN,bicycle,bicycle,NaN,bicycle9-airplane2.png,bicycle9-airplane2.png,1.0,5.200793,3.6092505,1.1253903
alexnet_w1_mlp_simclrhn_probe3,1,233,NaN,cat,bicycle,NaN,bicycle9-bear1.png,bicycle9-bear1.png,0.0,-0.5949115,1.6065813,-1.5566905
alexnet_w1_mlp_simclrhn_probe3,1,234,NaN,bicycle,bicycle,NaN,bicycle9-bird3.png,bicycle9-bird3.png,1.0,4.3493247,1.374249,2.1036963
alexnet_w1_mlp_simclrhn_probe3,1,235,NaN,bicycle,bicycle,NaN,bicycle9-bottle1.png,bicycle9-bottle1.png,1.0,3.4323566,0.7489421,1.8974606
alexnet_w1_mlp_simclrhn_probe3,1,236,NaN,bicycle,bicycle,NaN,bicycle9-car1.png,bicycle9-car1.png,1.0,16.625475,4.3702593,8.665747
alexnet_w1_mlp_simclrhn_probe3,1,237,NaN,cat,bicycle,NaN,bicycle9-cat3.png,bicycle9-cat3.png,0.0,-0.6218319,2.4676044,-2.1845615
alexnet_w1_mlp_simclrhn_probe3,1,238,NaN,bicycle,bicycle,NaN,bicycle9-chair1.png,bicycle9-chair1.png,1.0,4.47067,3.3285804,0.80757946
alexnet_w1_mlp_simclrhn_probe3,1,239,NaN,knife,bicycle,NaN,bicycle9-keyboard3.png,bicycle9-keyboard3.png,0.0,-0.3935576,1.0011549,-0.98621064
alexnet_w1_mlp_simclrhn_probe3,1,240,NaN,bottle,bicycle,NaN,bicycle9-knife3.png,bicycle9-knife3.png,0.0,-0.09651701,2.0525062,-1.519589
alexnet_w1_mlp_simclrhn_probe3,1,241,NaN,bird,bird,NaN,bird1-airplane2.png,bird1-airplane2.png,1.0,1.2057166,1.1888393,0.0119340485
alexnet_w1_mlp_simclrhn_probe3,1,242,NaN,cat,bird,NaN,bird1-bear1.png,bird1-bear1.png,0.0,0.7420524,1.6391419,-0.6343381
alexnet_w1_mlp_simclrhn_probe3,1,243,NaN,bird,bird,NaN,bird1-bicycle2.png,bird1-bicycle2.png,1.0,1.4205214,0.6147037,0.5697991
alexnet_w1_mlp_simclrhn_probe3,1,244,NaN,bicycle,bird,NaN,bird1-boat1.png,bird1-boat1.png,0.0,0.64811057,3.7028685,-2.16004
alexnet_w1_mlp_simclrhn_probe3,1,245,NaN,boat,bird,NaN,bird1-chair2.png,bird1-chair2.png,0.0,-0.29227266,1.5034223,-1.2697481
alexnet_w1_mlp_simclrhn_probe3,1,246,NaN,clock,bird,NaN,bird1-clock3.png,bird1-clock3.png,0.0,-0.57963675,1.6115037,-1.5493703
alexnet_w1_mlp_simclrhn_probe3,1,247,NaN,cat,bird,NaN,bird1-elephant2.png,bird1-elephant2.png,0.0,0.4769333,0.8671124,-0.27589828
alexnet_w1_mlp_simclrhn_probe3,1,248,NaN,airplane,bird,NaN,bird1-keyboard3.png,bird1-keyboard3.png,0.0,0.19253877,0.79327404,-0.424784
alexnet_w1_mlp_simclrhn_probe3,1,249,NaN,knife,bird,NaN,bird1-knife3.png,bird1-knife3.png,0.0,-0.6877439,0.8547322,-1.0906954
alexnet_w1_mlp_simclrhn_probe3,1,250,NaN,knife,bird,NaN,bird1-oven1.png,bird1-oven1.png,0.0,-0.46377167,2.4354334,-2.0500476
alexnet_w1_mlp_simclrhn_probe3,1,251,NaN,chair,bird,NaN,bird1-truck1.png,bird1-truck1.png,0.0,-1.0838075,3.1976032,-3.0274146
alexnet_w1_mlp_simclrhn_probe3,1,252,NaN,elephant,bird,NaN,bird10-bear2.png,bird10-bear2.png,0.0,0.46481362,2.0453272,-1.1175919
alexnet_w1_mlp_simclrhn_probe3,1,253,NaN,bird,bird,NaN,bird10-bicycle1.png,bird10-bicycle1.png,1.0,0.8132971,0.7147121,0.06971013
alexnet_w1_mlp_simclrhn_probe3,1,254,NaN,bird,bird,NaN,bird10-bird2.png,bird10-bird2.png,1.0,2.303642,1.441063,0.60993546
alexnet_w1_mlp_simclrhn_probe3,1,255,NaN,cat,bird,NaN,bird10-cat1.png,bird10-cat1.png,0.0,0.19931227,3.239089,-2.1494467
alexnet_w1_mlp_simclrhn_probe3,1,256,NaN,chair,bird,NaN,bird10-chair1.png,bird10-chair1.png,0.0,-0.20834771,1.7815233,-1.4070513
alexnet_w1_mlp_simclrhn_probe3,1,257,NaN,bicycle,bird,NaN,bird10-clock1.png,bird10-clock1.png,0.0,0.26413044,2.4679952,-1.5583677
alexnet_w1_mlp_simclrhn_probe3,1,258,NaN,cat,bird,NaN,bird10-elephant2.png,bird10-elephant2.png,0.0,0.32091737,1.3550729,-0.7312584
alexnet_w1_mlp_simclrhn_probe3,1,259,NaN,knife,bird,NaN,bird2-airplane3.png,bird2-airplane3.png,0.0,-0.36377448,1.0198796,-0.97839123
alexnet_w1_mlp_simclrhn_probe3,1,260,NaN,bicycle,bird,NaN,bird2-bird2.png,bird2-bird2.png,0.0,0.41665688,2.0370207,-1.1457703
alexnet_w1_mlp_simclrhn_probe3,1,261,NaN,bicycle,bird,NaN,bird2-car3.png,bird2-car3.png,0.0,0.5448083,5.564148,-3.549209
alexnet_w1_mlp_simclrhn_probe3,1,262,NaN,bicycle,bird,NaN,bird2-clock3.png,bird2-clock3.png,0.0,-0.73046094,1.8864411,-1.8504293
alexnet_w1_mlp_simclrhn_probe3,1,263,NaN,cat,bird,NaN,bird2-dog2.png,bird2-dog2.png,0.0,-0.35155627,1.756414,-1.49056
alexnet_w1_mlp_simclrhn_probe3,1,264,NaN,bicycle,bird,NaN,bird2-knife1.png,bird2-knife1.png,0.0,-0.14739811,3.2225595,-2.3829198
alexnet_w1_mlp_simclrhn_probe3,1,265,NaN,cat,bird,NaN,bird3-bear3.png,bird3-bear3.png,0.0,1.4631653,2.3785896,-0.64730275
alexnet_w1_mlp_simclrhn_probe3,1,266,NaN,bird,bird,NaN,bird3-bird2.png,bird3-bird2.png,1.0,1.437499,0.84085864,0.4218885
alexnet_w1_mlp_simclrhn_probe3,1,267,NaN,oven,bird,NaN,bird3-boat3.png,bird3-boat3.png,0.0,-0.3034052,1.6729796,-1.397515
alexnet_w1_mlp_simclrhn_probe3,1,268,NaN,bottle,bird,NaN,bird3-bottle2.png,bird3-bottle2.png,0.0,0.37750044,1.7710963,-0.9854212
alexnet_w1_mlp_simclrhn_probe3,1,269,NaN,cat,bird,NaN,bird3-cat1.png,bird3-cat1.png,0.0,0.3646144,2.6323202,-1.6035101
alexnet_w1_mlp_simclrhn_probe3,1,270,NaN,cat,bird,NaN,bird3-dog1.png,bird3-dog1.png,0.0,0.4258201,1.9075727,-1.0477574
alexnet_w1_mlp_simclrhn_probe3,1,271,NaN,clock,bird,NaN,bird3-knife3.png,bird3-knife3.png,0.0,-0.6381181,1.7208618,-1.6680508
alexnet_w1_mlp_simclrhn_probe3,1,272,NaN,knife,bird,NaN,bird3-oven1.png,bird3-oven1.png,0.0,-0.5135998,2.3551354,-2.0285022
alexnet_w1_mlp_simclrhn_probe3,1,273,NaN,bottle,bird,NaN,bird3-truck3.png,bird3-truck3.png,0.0,-0.49528632,2.180369,-1.891974
alexnet_w1_mlp_simclrhn_probe3,1,274,NaN,bicycle,bird,NaN,bird4-airplane1.png,bird4-airplane1.png,0.0,0.22152622,1.4436836,-0.86419576
alexnet_w1_mlp_simclrhn_probe3,1,275,NaN,bird,bird,NaN,bird4-bicycle2.png,bird4-bicycle2.png,1.0,0.9838991,0.34838337,0.4493775
alexnet_w1_mlp_simclrhn_probe3,1,276,NaN,cat,bird,NaN,bird4-cat3.png,bird4-cat3.png,0.0,-0.14125122,2.8891685,-2.1428304
alexnet_w1_mlp_simclrhn_probe3,1,277,NaN,bicycle,bird,NaN,bird4-clock1.png,bird4-clock1.png,0.0,-0.3516772,1.7406051,-1.479467
alexnet_w1_mlp_simclrhn_probe3,1,278,NaN,cat,bird,NaN,bird4-dog3.png,bird4-dog3.png,0.0,-0.20132631,2.7484891,-2.0858345
alexnet_w1_mlp_simclrhn_probe3,1,279,NaN,knife,bird,NaN,bird5-airplane3.png,bird5-airplane3.png,0.0,0.066922575,0.5428977,-0.33656526
alexnet_w1_mlp_simclrhn_probe3,1,280,NaN,cat,bird,NaN,bird5-bear3.png,bird5-bear3.png,0.0,1.0436419,2.600467,-1.1008415
alexnet_w1_mlp_simclrhn_probe3,1,281,NaN,bird,bird,NaN,bird5-bicycle1.png,bird5-bicycle1.png,1.0,1.2994194,0.48921442,0.5729014
alexnet_w1_mlp_simclrhn_probe3,1,282,NaN,cat,bird,NaN,bird5-bird1.png,bird5-bird1.png,0.0,0.32553095,1.1126426,-0.556572
alexnet_w1_mlp_simclrhn_probe3,1,283,NaN,bicycle,bird,NaN,bird5-car2.png,bird5-car2.png,0.0,-0.3155422,2.631262,-2.0837054
alexnet_w1_mlp_simclrhn_probe3,1,284,NaN,cat,bird,NaN,bird5-cat2.png,bird5-cat2.png,0.0,0.6393219,1.2292861,-0.41716766
alexnet_w1_mlp_simclrhn_probe3,1,285,NaN,airplane,bird,NaN,bird5-chair1.png,bird5-chair1.png,0.0,-0.4781952,3.6149998,-2.894326
alexnet_w1_mlp_simclrhn_probe3,1,286,NaN,cat,bird,NaN,bird5-dog2.png,bird5-dog2.png,0.0,-0.01022816,2.121285,-1.5072074
alexnet_w1_mlp_simclrhn_probe3,1,287,NaN,keyboard,bird,NaN,bird5-keyboard2.png,bird5-keyboard2.png,0.0,-0.61644155,2.4944289,-2.1997175
alexnet_w1_mlp_simclrhn_probe3,1,288,NaN,chair,bird,NaN,bird5-oven3.png,bird5-oven3.png,0.0,-0.6268395,2.3574457,-2.1102085
alexnet_w1_mlp_simclrhn_probe3,1,289,NaN,chair,bird,NaN,bird5-truck2.png,bird5-truck2.png,0.0,-0.93940955,3.373933,-3.0499938
alexnet_w1_mlp_simclrhn_probe3,1,290,NaN,airplane,bird,NaN,bird6-airplane2.png,bird6-airplane2.png,0.0,0.955676,3.2556887,-1.6263546
alexnet_w1_mlp_simclrhn_probe3,1,291,NaN,bicycle,bird,NaN,bird6-boat2.png,bird6-boat2.png,0.0,-0.0889603,3.9154038,-2.831513
alexnet_w1_mlp_simclrhn_probe3,1,292,NaN,bird,bird,NaN,bird6-bottle3.png,bird6-bottle3.png,1.0,0.6126281,0.31472903,0.21064645
alexnet_w1_mlp_simclrhn_probe3,1,293,NaN,bicycle,bird,NaN,bird6-car3.png,bird6-car3.png,0.0,0.17894332,3.9570887,-2.6715522
alexnet_w1_mlp_simclrhn_probe3,1,294,NaN,cat,bird,NaN,bird6-elephant2.png,bird6-elephant2.png,0.0,0.32709324,1.2468253,-0.6503488
alexnet_w1_mlp_simclrhn_probe3,1,295,NaN,knife,bird,NaN,bird6-oven1.png,bird6-oven1.png,0.0,-0.7675679,2.3162832,-2.180612
alexnet_w1_mlp_simclrhn_probe3,1,296,NaN,chair,bird,NaN,bird6-truck2.png,bird6-truck2.png,0.0,-0.93439454,4.272127,-3.6815667
alexnet_w1_mlp_simclrhn_probe3,1,297,NaN,bird,bird,NaN,bird7-bird2.png,bird7-bird2.png,1.0,1.6923203,0.7954123,0.63420975
alexnet_w1_mlp_simclrhn_probe3,1,298,NaN,bicycle,bird,NaN,bird7-boat1.png,bird7-boat1.png,0.0,-0.4379175,4.231919,-3.3020732
alexnet_w1_mlp_simclrhn_probe3,1,299,NaN,boat,bird,NaN,bird7-bottle1.png,bird7-bottle1.png,0.0,-0.48295996,1.215523,-1.2010089
alexnet_w1_mlp_simclrhn_probe3,1,300,NaN,bicycle,bird,NaN,bird7-car2.png,bird7-car2.png,0.0,-0.4109202,4.3541203,-3.3693924
alexnet_w1_mlp_simclrhn_probe3,1,301,NaN,cat,bird,NaN,bird7-cat3.png,bird7-cat3.png,0.0,0.037995424,2.0618877,-1.4311081
alexnet_w1_mlp_simclrhn_probe3,1,302,NaN,airplane,bird,NaN,bird7-keyboard3.png,bird7-keyboard3.png,0.0,0.0004850468,0.65850824,-0.46529266
alexnet_w1_mlp_simclrhn_probe3,1,303,NaN,oven,bird,NaN,bird7-knife2.png,bird7-knife2.png,0.0,-0.17338207,1.4932964,-1.1785196
alexnet_w1_mlp_simclrhn_probe3,1,304,NaN,chair,bird,NaN,bird7-oven3.png,bird7-oven3.png,0.0,-0.739933,2.19843,-2.0777364
alexnet_w1_mlp_simclrhn_probe3,1,305,NaN,chair,bird,NaN,bird7-truck2.png,bird7-truck2.png,0.0,-0.786936,2.6084862,-2.400926
alexnet_w1_mlp_simclrhn_probe3,1,306,NaN,boat,bird,NaN,bird8-boat3.png,bird8-boat3.png,0.0,-0.39599016,3.1633346,-2.5168228
alexnet_w1_mlp_simclrhn_probe3,1,307,NaN,bicycle,bird,NaN,bird8-bottle1.png,bird8-bottle1.png,0.0,-0.050615862,1.2388744,-0.91180736
alexnet_w1_mlp_simclrhn_probe3,1,308,NaN,bicycle,bird,NaN,bird8-car2.png,bird8-car2.png,0.0,-0.62388206,4.254744,-3.4497094
alexnet_w1_mlp_simclrhn_probe3,1,309,NaN,airplane,bird,NaN,bird8-chair1.png,bird8-chair1.png,0.0,-0.58727604,2.902245,-2.467464
alexnet_w1_mlp_simclrhn_probe3,1,310,NaN,bicycle,bird,NaN,bird8-clock1.png,bird8-clock1.png,0.0,-0.316858,3.0181117,-2.3581798
alexnet_w1_mlp_simclrhn_probe3,1,311,NaN,cat,bird,NaN,bird8-elephant1.png,bird8-elephant1.png,0.0,-0.09491447,0.34605005,-0.311809
alexnet_w1_mlp_simclrhn_probe3,1,312,NaN,clock,bird,NaN,bird8-keyboard2.png,bird8-keyboard2.png,0.0,-0.6495381,1.4994527,-1.519566
alexnet_w1_mlp_simclrhn_probe3,1,313,NaN,oven,bird,NaN,bird8-knife2.png,bird8-knife2.png,0.0,-0.2850605,1.5076108,-1.2676101
alexnet_w1_mlp_simclrhn_probe3,1,314,NaN,cat,bird,NaN,bird9-bear3.png,bird9-bear3.png,0.0,1.0601091,2.197532,-0.8042794
alexnet_w1_mlp_simclrhn_probe3,1,315,NaN,bicycle,bird,NaN,bird9-bicycle3.png,bird9-bicycle3.png,0.0,0.77083147,0.94448334,-0.12279042
alexnet_w1_mlp_simclrhn_probe3,1,316,NaN,bird,bird,NaN,bird9-bottle3.png,bird9-bottle3.png,1.0,2.2688825,0.9282515,0.9479693
alexnet_w1_mlp_simclrhn_probe3,1,317,NaN,bicycle,bird,NaN,bird9-chair1.png,bird9-chair1.png,0.0,-0.50423485,1.587667,-1.479198
alexnet_w1_mlp_simclrhn_probe3,1,318,NaN,cat,bird,NaN,bird9-dog2.png,bird9-dog2.png,0.0,0.07878157,1.9200283,-1.3019581
alexnet_w1_mlp_simclrhn_probe3,1,319,NaN,cat,bird,NaN,bird9-elephant2.png,bird9-elephant2.png,0.0,0.2560111,0.9943345,-0.5220735
alexnet_w1_mlp_simclrhn_probe3,1,320,NaN,bicycle,bird,NaN,bird9-keyboard1.png,bird9-keyboard1.png,0.0,-0.24054037,2.9720254,-2.271627
alexnet_w1_mlp_simclrhn_probe3,1,321,NaN,cat,boat,NaN,boat1-bear1.png,boat1-bear1.png,0.0,-0.26896992,1.514998,-1.2614558
alexnet_w1_mlp_simclrhn_probe3,1,322,NaN,bird,boat,NaN,boat1-bicycle2.png,boat1-bicycle2.png,0.0,0.20070915,0.84834665,-0.45794886
alexnet_w1_mlp_simclrhn_probe3,1,323,NaN,airplane,boat,NaN,boat1-bird3.png,boat1-bird3.png,0.0,-0.18409926,1.9984591,-1.5433018
alexnet_w1_mlp_simclrhn_probe3,1,324,NaN,bicycle,boat,NaN,boat1-car2.png,boat1-car2.png,0.0,-1.0822917,1.7802244,-2.0241046
alexnet_w1_mlp_simclrhn_probe3,1,325,NaN,airplane,boat,NaN,boat1-chair3.png,boat1-chair3.png,0.0,1.4106604,2.5284138,-0.790371
alexnet_w1_mlp_simclrhn_probe3,1,326,NaN,keyboard,boat,NaN,boat1-elephant3.png,boat1-elephant3.png,0.0,-0.5906497,0.45977604,-0.7427632
alexnet_w1_mlp_simclrhn_probe3,1,327,NaN,airplane,boat,NaN,boat1-keyboard3.png,boat1-keyboard3.png,0.0,-0.30846053,1.6638441,-1.39463
alexnet_w1_mlp_simclrhn_probe3,1,328,NaN,airplane,boat,NaN,boat1-oven1.png,boat1-oven1.png,0.0,-0.03320738,2.1932583,-1.574349
alexnet_w1_mlp_simclrhn_probe3,1,329,NaN,chair,boat,NaN,boat1-truck3.png,boat1-truck3.png,0.0,0.49140677,2.3769042,-1.333248
alexnet_w1_mlp_simclrhn_probe3,1,330,NaN,cat,boat,NaN,boat10-bear3.png,boat10-bear3.png,0.0,-0.5021956,1.8877937,-1.6899778
alexnet_w1_mlp_simclrhn_probe3,1,331,NaN,boat,boat,NaN,boat10-boat3.png,boat10-boat3.png,1.0,3.3445554,2.3125396,0.7297454
alexnet_w1_mlp_simclrhn_probe3,1,332,NaN,cat,boat,NaN,boat10-cat1.png,boat10-cat1.png,0.0,-0.5930357,2.6817062,-2.3155923
alexnet_w1_mlp_simclrhn_probe3,1,333,NaN,car,boat,NaN,boat10-oven1.png,boat10-oven1.png,0.0,-0.15274374,2.773883,-2.0694377
alexnet_w1_mlp_simclrhn_probe3,1,334,NaN,car,boat,NaN,boat10-truck1.png,boat10-truck1.png,0.0,1.4438288,3.657239,-1.5651174
alexnet_w1_mlp_simclrhn_probe3,1,335,NaN,bicycle,boat,NaN,boat2-airplane1.png,boat2-airplane1.png,0.0,0.14004776,1.6147954,-1.0428041
alexnet_w1_mlp_simclrhn_probe3,1,336,NaN,bear,boat,NaN,boat2-bear3.png,boat2-bear3.png,0.0,-0.2713341,1.5591649,-1.2943583
alexnet_w1_mlp_simclrhn_probe3,1,337,NaN,cat,boat,NaN,boat2-bird1.png,boat2-bird1.png,0.0,-0.49405107,1.1520377,-1.1639606
alexnet_w1_mlp_simclrhn_probe3,1,338,NaN,bottle,boat,NaN,boat2-bottle2.png,boat2-bottle2.png,0.0,1.2896996,2.9226582,-1.1546762
alexnet_w1_mlp_simclrhn_probe3,1,339,NaN,bicycle,boat,NaN,boat2-keyboard1.png,boat2-keyboard1.png,0.0,0.64830506,2.2986982,-1.1670042
alexnet_w1_mlp_simclrhn_probe3,1,340,NaN,chair,boat,NaN,boat2-oven3.png,boat2-oven3.png,0.0,0.50640947,1.651722,-0.80985826
alexnet_w1_mlp_simclrhn_probe3,1,341,NaN,airplane,boat,NaN,boat3-airplane2.png,boat3-airplane2.png,0.0,1.304124,4.5054617,-2.2636876
alexnet_w1_mlp_simclrhn_probe3,1,342,NaN,bird,boat,NaN,boat3-bicycle2.png,boat3-bicycle2.png,0.0,0.06564842,1.2897649,-0.86558104
alexnet_w1_mlp_simclrhn_probe3,1,343,NaN,bicycle,boat,NaN,boat3-car3.png,boat3-car3.png,0.0,2.178382,3.589919,-0.9981075
alexnet_w1_mlp_simclrhn_probe3,1,344,NaN,oven,boat,NaN,boat3-cat3.png,boat3-cat3.png,0.0,-0.06285391,1.7862433,-1.3075092
alexnet_w1_mlp_simclrhn_probe3,1,345,NaN,airplane,boat,NaN,boat3-chair3.png,boat3-chair3.png,0.0,1.9086044,2.392367,-0.34207174
alexnet_w1_mlp_simclrhn_probe3,1,346,NaN,bicycle,boat,NaN,boat3-clock3.png,boat3-clock3.png,0.0,0.46980768,1.3751175,-0.6401507
alexnet_w1_mlp_simclrhn_probe3,1,347,NaN,cat,boat,NaN,boat3-dog3.png,boat3-dog3.png,0.0,-0.49110723,2.348753,-2.0080845
alexnet_w1_mlp_simclrhn_probe3,1,348,NaN,airplane,boat,NaN,boat3-keyboard2.png,boat3-keyboard2.png,0.0,-0.18416245,2.520495,-1.9124815
alexnet_w1_mlp_simclrhn_probe3,1,349,NaN,bird,boat,NaN,boat4-bicycle3.png,boat4-bicycle3.png,0.0,0.13276972,1.5263128,-0.9853838
alexnet_w1_mlp_simclrhn_probe3,1,350,NaN,cat,boat,NaN,boat4-bird1.png,boat4-bird1.png,0.0,-0.3244894,0.95814914,-0.90696245
alexnet_w1_mlp_simclrhn_probe3,1,351,NaN,boat,boat,NaN,boat4-boat3.png,boat4-boat3.png,1.0,4.016164,2.1062539,1.3505104
alexnet_w1_mlp_simclrhn_probe3,1,352,NaN,bottle,boat,NaN,boat4-bottle2.png,boat4-bottle2.png,0.0,1.1920245,2.3497293,-0.818621
alexnet_w1_mlp_simclrhn_probe3,1,353,NaN,oven,boat,NaN,boat4-car3.png,boat4-car3.png,0.0,0.14586702,2.221338,-1.4675796
alexnet_w1_mlp_simclrhn_probe3,1,354,NaN,boat,boat,NaN,boat4-chair2.png,boat4-chair2.png,1.0,3.3142982,1.235546,1.4698997
alexnet_w1_mlp_simclrhn_probe3,1,355,NaN,oven,boat,NaN,boat4-dog2.png,boat4-dog2.png,0.0,-0.2840499,1.4417558,-1.2203289
alexnet_w1_mlp_simclrhn_probe3,1,356,NaN,cat,boat,NaN,boat4-elephant2.png,boat4-elephant2.png,0.0,-0.78954303,1.019345,-1.279077
alexnet_w1_mlp_simclrhn_probe3,1,357,NaN,oven,boat,NaN,boat4-knife2.png,boat4-knife2.png,0.0,0.40845567,2.1689692,-1.2448711
alexnet_w1_mlp_simclrhn_probe3,1,358,NaN,bicycle,boat,NaN,boat5-airplane1.png,boat5-airplane1.png,0.0,-0.86804533,0.4108043,-0.9042832
alexnet_w1_mlp_simclrhn_probe3,1,359,NaN,bird,boat,NaN,boat5-bicycle3.png,boat5-bicycle3.png,0.0,-0.38359255,1.5174155,-1.3442158
alexnet_w1_mlp_simclrhn_probe3,1,360,NaN,boat,boat,NaN,boat5-boat3.png,boat5-boat3.png,1.0,2.5367763,1.6807032,0.6053351
alexnet_w1_mlp_simclrhn_probe3,1,361,NaN,bicycle,boat,NaN,boat5-car3.png,boat5-car3.png,0.0,-0.11138537,1.3818403,-1.05587
alexnet_w1_mlp_simclrhn_probe3,1,362,NaN,clock,boat,NaN,boat5-clock3.png,boat5-clock3.png,0.0,-0.5206358,0.9209977,-1.0193888
alexnet_w1_mlp_simclrhn_probe3,1,363,NaN,boat,boat,NaN,boat5-knife2.png,boat5-knife2.png,1.0,1.2181666,0.9061263,0.2206458
alexnet_w1_mlp_simclrhn_probe3,1,364,NaN,knife,boat,NaN,boat6-airplane2.png,boat6-airplane2.png,0.0,-0.036343686,2.5348353,-1.8180981
alexnet_w1_mlp_simclrhn_probe3,1,365,NaN,cat,boat,NaN,boat6-bear1.png,boat6-bear1.png,0.0,-0.36504516,1.2371439,-1.1329187
alexnet_w1_mlp_simclrhn_probe3,1,366,NaN,cat,boat,NaN,boat6-bicycle2.png,boat6-bicycle2.png,0.0,-0.31391582,1.0137542,-0.93880457
alexnet_w1_mlp_simclrhn_probe3,1,367,NaN,bicycle,boat,NaN,boat6-bottle2.png,boat6-bottle2.png,0.0,-0.19960582,1.6422073,-1.3023585
alexnet_w1_mlp_simclrhn_probe3,1,368,NaN,bicycle,boat,NaN,boat6-car1.png,boat6-car1.png,0.0,-0.8522975,4.580869,-3.841829
alexnet_w1_mlp_simclrhn_probe3,1,369,NaN,cat,boat,NaN,boat6-cat1.png,boat6-cat1.png,0.0,-0.45542327,2.6710374,-2.2107418
alexnet_w1_mlp_simclrhn_probe3,1,370,NaN,bicycle,boat,NaN,boat6-clock2.png,boat6-clock2.png,0.0,-0.45369372,2.3823295,-2.005371
alexnet_w1_mlp_simclrhn_probe3,1,371,NaN,cat,boat,NaN,boat6-dog1.png,boat6-dog1.png,0.0,-1.0915041,1.6467056,-1.9362067
alexnet_w1_mlp_simclrhn_probe3,1,372,NaN,cat,boat,NaN,boat6-elephant2.png,boat6-elephant2.png,0.0,-1.2445838,1.0032903,-1.5894872
alexnet_w1_mlp_simclrhn_probe3,1,373,NaN,oven,boat,NaN,boat6-knife2.png,boat6-knife2.png,0.0,0.04805746,0.6479106,-0.42416024
alexnet_w1_mlp_simclrhn_probe3,1,374,NaN,chair,boat,NaN,boat6-truck3.png,boat6-truck3.png,0.0,-0.49704355,2.6622024,-2.2339244
alexnet_w1_mlp_simclrhn_probe3,1,375,NaN,bicycle,boat,NaN,boat7-boat2.png,boat7-boat2.png,0.0,1.7576196,3.2534695,-1.0577255
alexnet_w1_mlp_simclrhn_probe3,1,376,NaN,bicycle,boat,NaN,boat7-bottle1.png,boat7-bottle1.png,0.0,0.6930969,1.2762765,-0.41237026
alexnet_w1_mlp_simclrhn_probe3,1,377,NaN,cat,boat,NaN,boat7-cat3.png,boat7-cat3.png,0.0,-0.30924907,2.0620215,-1.6767416
alexnet_w1_mlp_simclrhn_probe3,1,378,NaN,bottle,boat,NaN,boat7-chair1.png,boat7-chair1.png,0.0,-0.050631136,1.6479273,-1.2010622
alexnet_w1_mlp_simclrhn_probe3,1,379,NaN,bicycle,boat,NaN,boat7-clock3.png,boat7-clock3.png,0.0,-0.7613479,1.2767948,-1.4411845
alexnet_w1_mlp_simclrhn_probe3,1,380,NaN,keyboard,boat,NaN,boat7-elephant3.png,boat7-elephant3.png,0.0,-0.8370201,0.31484503,-0.8144916
alexnet_w1_mlp_simclrhn_probe3,1,381,NaN,bottle,boat,NaN,boat7-keyboard3.png,boat7-keyboard3.png,0.0,-0.24938281,0.7088043,-0.6775406
alexnet_w1_mlp_simclrhn_probe3,1,382,NaN,chair,boat,NaN,boat7-oven3.png,boat7-oven3.png,0.0,-0.018514132,1.8778468,-1.3409297
alexnet_w1_mlp_simclrhn_probe3,1,383,NaN,chair,boat,NaN,boat7-truck2.png,boat7-truck2.png,0.0,0.316926,2.473046,-1.5246072
alexnet_w1_mlp_simclrhn_probe3,1,384,NaN,bicycle,boat,NaN,boat8-bird2.png,boat8-bird2.png,0.0,0.36120623,1.1397411,-0.55050725
alexnet_w1_mlp_simclrhn_probe3,1,385,NaN,keyboard,boat,NaN,boat8-bottle1.png,boat8-bottle1.png,0.0,0.7428626,1.1917412,-0.31740513
alexnet_w1_mlp_simclrhn_probe3,1,386,NaN,cat,boat,NaN,boat8-dog3.png,boat8-dog3.png,0.0,-0.75121325,2.5550416,-2.3378754
alexnet_w1_mlp_simclrhn_probe3,1,387,NaN,bicycle,boat,NaN,boat8-elephant1.png,boat8-elephant1.png,0.0,-0.11642496,0.9947634,-0.7857288
alexnet_w1_mlp_simclrhn_probe3,1,388,NaN,bicycle,boat,NaN,boat8-knife1.png,boat8-knife1.png,0.0,0.5632534,2.0171027,-1.0280267
alexnet_w1_mlp_simclrhn_probe3,1,389,NaN,airplane,boat,NaN,boat8-oven1.png,boat8-oven1.png,0.0,0.121944055,2.8972301,-1.9624237
alexnet_w1_mlp_simclrhn_probe3,1,390,NaN,car,boat,NaN,boat8-truck2.png,boat8-truck2.png,0.0,1.0673181,3.4382763,-1.6765207
alexnet_w1_mlp_simclrhn_probe3,1,391,NaN,chair,boat,NaN,boat9-airplane2.png,boat9-airplane2.png,0.0,0.83726823,2.3831203,-1.0930825
alexnet_w1_mlp_simclrhn_probe3,1,392,NaN,elephant,boat,NaN,boat9-bear3.png,boat9-bear3.png,0.0,-0.65335226,2.7428555,-2.4014816
alexnet_w1_mlp_simclrhn_probe3,1,393,NaN,cat,boat,NaN,boat9-bird1.png,boat9-bird1.png,0.0,-0.13040245,0.7803051,-0.6439675
alexnet_w1_mlp_simclrhn_probe3,1,394,NaN,boat,boat,NaN,boat9-boat3.png,boat9-boat3.png,1.0,3.8246098,1.8516457,1.3950963
alexnet_w1_mlp_simclrhn_probe3,1,395,NaN,cat,boat,NaN,boat9-cat3.png,boat9-cat3.png,0.0,-0.103598736,1.4571868,-1.1036421
alexnet_w1_mlp_simclrhn_probe3,1,396,NaN,boat,boat,NaN,boat9-chair2.png,boat9-chair2.png,1.0,4.526292,1.1484958,2.3884625
alexnet_w1_mlp_simclrhn_probe3,1,397,NaN,bicycle,boat,NaN,boat9-clock1.png,boat9-clock1.png,0.0,0.8327591,2.4292753,-1.1289074
alexnet_w1_mlp_simclrhn_probe3,1,398,NaN,oven,boat,NaN,boat9-dog2.png,boat9-dog2.png,0.0,-0.5550394,1.2175757,-1.2534282
alexnet_w1_mlp_simclrhn_probe3,1,399,NaN,knife,boat,NaN,boat9-keyboard2.png,boat9-keyboard2.png,0.0,0.41193762,1.435097,-0.72348297
alexnet_w1_mlp_simclrhn_probe3,1,400,NaN,boat,boat,NaN,boat9-knife2.png,boat9-knife2.png,1.0,3.784869,1.2874869,1.7659159
alexnet_w1_mlp_simclrhn_probe3,1,401,NaN,cat,bottle,NaN,bottle1-bear1.png,bottle1-bear1.png,0.0,-0.3149059,1.8468481,-1.528591
alexnet_w1_mlp_simclrhn_probe3,1,402,NaN,bottle,bottle,NaN,bottle1-bird3.png,bottle1-bird3.png,1.0,2.3110116,0.5351413,1.2557299
alexnet_w1_mlp_simclrhn_probe3,1,403,NaN,bicycle,bottle,NaN,bottle1-car1.png,bottle1-car1.png,0.0,1.6692631,2.1778736,-0.35964194
alexnet_w1_mlp_simclrhn_probe3,1,404,NaN,cat,bottle,NaN,bottle1-cat3.png,bottle1-cat3.png,0.0,0.60547596,2.4475384,-1.3025349
alexnet_w1_mlp_simclrhn_probe3,1,405,NaN,oven,bottle,NaN,bottle1-chair2.png,bottle1-chair2.png,0.0,2.0772517,2.9278412,-0.6014576
alexnet_w1_mlp_simclrhn_probe3,1,406,NaN,bicycle,bottle,NaN,bottle1-clock1.png,bottle1-clock1.png,0.0,1.5044743,2.2383547,-0.5189318
alexnet_w1_mlp_simclrhn_probe3,1,407,NaN,cat,bottle,NaN,bottle1-dog2.png,bottle1-dog2.png,0.0,-0.11198188,1.8563399,-1.3918138
alexnet_w1_mlp_simclrhn_probe3,1,408,NaN,bottle,bottle,NaN,bottle1-keyboard3.png,bottle1-keyboard3.png,1.0,1.184724,0.6702629,0.36377895
alexnet_w1_mlp_simclrhn_probe3,1,409,NaN,elephant,bottle,NaN,bottle10-bear2.png,bottle10-bear2.png,0.0,0.23330681,2.1914976,-1.38465
alexnet_w1_mlp_simclrhn_probe3,1,410,NaN,bottle,bottle,NaN,bottle10-boat3.png,bottle10-boat3.png,1.0,3.8535206,3.4083889,0.3147557
alexnet_w1_mlp_simclrhn_probe3,1,411,NaN,chair,bottle,NaN,bottle10-car1.png,bottle10-car1.png,0.0,2.323932,4.0621443,-1.2291018
alexnet_w1_mlp_simclrhn_probe3,1,412,NaN,bottle,bottle,NaN,bottle10-clock2.png,bottle10-clock2.png,1.0,4.466576,2.1906915,1.6092935
alexnet_w1_mlp_simclrhn_probe3,1,413,NaN,cat,bottle,NaN,bottle10-dog1.png,bottle10-dog1.png,0.0,-0.5251942,2.0489614,-1.820203
alexnet_w1_mlp_simclrhn_probe3,1,414,NaN,bottle,bottle,NaN,bottle10-truck3.png,bottle10-truck3.png,1.0,5.1522446,2.4776707,1.8912094
alexnet_w1_mlp_simclrhn_probe3,1,415,NaN,bicycle,bottle,NaN,bottle2-bottle3.png,bottle2-bottle3.png,0.0,0.31183764,1.4725896,-0.82077557
alexnet_w1_mlp_simclrhn_probe3,1,416,NaN,bicycle,bottle,NaN,bottle2-car2.png,bottle2-car2.png,0.0,0.14995836,3.1948225,-2.1530442
alexnet_w1_mlp_simclrhn_probe3,1,417,NaN,chair,bottle,NaN,bottle2-chair3.png,bottle2-chair3.png,0.0,1.3712109,1.7502122,-0.26799437
alexnet_w1_mlp_simclrhn_probe3,1,418,NaN,bicycle,bottle,NaN,bottle2-clock1.png,bottle2-clock1.png,0.0,0.73446476,3.0093267,-1.6085702
alexnet_w1_mlp_simclrhn_probe3,1,419,NaN,elephant,bottle,NaN,bottle2-elephant1.png,bottle2-elephant1.png,0.0,0.06606675,0.8614706,-0.56243545
alexnet_w1_mlp_simclrhn_probe3,1,420,NaN,bottle,bottle,NaN,bottle2-knife3.png,bottle2-knife3.png,1.0,2.273792,1.4263266,0.5992485
alexnet_w1_mlp_simclrhn_probe3,1,421,NaN,chair,bottle,NaN,bottle3-airplane2.png,bottle3-airplane2.png,0.0,1.6916174,2.9852662,-0.9147479
alexnet_w1_mlp_simclrhn_probe3,1,422,NaN,elephant,bottle,NaN,bottle3-bear2.png,bottle3-bear2.png,0.0,-0.28157398,1.8414819,-1.5012273
alexnet_w1_mlp_simclrhn_probe3,1,423,NaN,bicycle,bottle,NaN,bottle3-bicycle3.png,bottle3-bicycle3.png,0.0,0.009594737,2.2466574,-1.5818422
alexnet_w1_mlp_simclrhn_probe3,1,424,NaN,cat,bottle,NaN,bottle3-bird1.png,bottle3-bird1.png,0.0,0.32468542,1.09174,-0.5423895
alexnet_w1_mlp_simclrhn_probe3,1,425,NaN,bottle,bottle,NaN,bottle3-boat3.png,bottle3-boat3.png,1.0,2.5202758,2.1372545,0.270837
alexnet_w1_mlp_simclrhn_probe3,1,426,NaN,bicycle,bottle,NaN,bottle3-bottle3.png,bottle3-bottle3.png,0.0,0.3331701,1.2739898,-0.66526
alexnet_w1_mlp_simclrhn_probe3,1,427,NaN,cat,bottle,NaN,bottle3-cat3.png,bottle3-cat3.png,0.0,0.4189773,2.249548,-1.2944089
alexnet_w1_mlp_simclrhn_probe3,1,428,NaN,airplane,bottle,NaN,bottle3-chair3.png,bottle3-chair3.png,0.0,1.1311561,1.3350849,-0.14419946
alexnet_w1_mlp_simclrhn_probe3,1,429,NaN,clock,bottle,NaN,bottle3-knife3.png,bottle3-knife3.png,0.0,0.95024854,1.4713334,-0.36846262
alexnet_w1_mlp_simclrhn_probe3,1,430,NaN,bottle,bottle,NaN,bottle4-airplane1.png,bottle4-airplane1.png,1.0,0.90834457,0.903005,0.003775641
alexnet_w1_mlp_simclrhn_probe3,1,431,NaN,bicycle,bottle,NaN,bottle4-bicycle1.png,bottle4-bicycle1.png,0.0,-0.036978547,0.8584565,-0.6331682
alexnet_w1_mlp_simclrhn_probe3,1,432,NaN,bicycle,bottle,NaN,bottle4-car3.png,bottle4-car3.png,0.0,0.60252696,3.7867367,-2.2515764
alexnet_w1_mlp_simclrhn_probe3,1,433,NaN,cat,bottle,NaN,bottle4-dog2.png,bottle4-dog2.png,0.0,-0.26799926,1.388075,-1.1710213
alexnet_w1_mlp_simclrhn_probe3,1,434,NaN,bottle,bottle,NaN,bottle4-oven2.png,bottle4-oven2.png,1.0,3.6380255,1.5957502,1.4441068
alexnet_w1_mlp_simclrhn_probe3,1,435,NaN,chair,bottle,NaN,bottle4-truck1.png,bottle4-truck1.png,0.0,3.522204,3.8916426,-0.26123258
alexnet_w1_mlp_simclrhn_probe3,1,436,NaN,bottle,bottle,NaN,bottle5-airplane1.png,bottle5-airplane1.png,1.0,1.2519331,1.122066,0.091829896
alexnet_w1_mlp_simclrhn_probe3,1,437,NaN,bottle,bottle,NaN,bottle5-bird3.png,bottle5-bird3.png,1.0,1.8827574,0.5205686,0.96321297
alexnet_w1_mlp_simclrhn_probe3,1,438,NaN,chair,bottle,NaN,bottle5-boat1.png,bottle5-boat1.png,0.0,1.9442164,2.719422,-0.5481532
alexnet_w1_mlp_simclrhn_probe3,1,439,NaN,cat,bottle,NaN,bottle5-cat1.png,bottle5-cat1.png,0.0,0.076475464,2.6819735,-1.8423654
alexnet_w1_mlp_simclrhn_probe3,1,440,NaN,bottle,bottle,NaN,bottle5-chair1.png,bottle5-chair1.png,1.0,3.3454025,1.8207779,1.0780724
alexnet_w1_mlp_simclrhn_probe3,1,441,NaN,bottle,bottle,NaN,bottle5-clock3.png,bottle5-clock3.png,1.0,1.8839033,1.6816208,0.14303528
alexnet_w1_mlp_simclrhn_probe3,1,442,NaN,elephant,bottle,NaN,bottle5-elephant1.png,bottle5-elephant1.png,0.0,0.067742966,0.55116963,-0.34183428
alexnet_w1_mlp_simclrhn_probe3,1,443,NaN,bottle,bottle,NaN,bottle5-keyboard2.png,bottle5-keyboard2.png,1.0,1.8396858,1.1949672,0.45588493
alexnet_w1_mlp_simclrhn_probe3,1,444,NaN,bicycle,bottle,NaN,bottle5-knife1.png,bottle5-knife1.png,0.0,1.3108094,2.5245373,-0.8582353
alexnet_w1_mlp_simclrhn_probe3,1,445,NaN,bottle,bottle,NaN,bottle5-oven2.png,bottle5-oven2.png,1.0,3.2954357,1.7876137,1.0661911
alexnet_w1_mlp_simclrhn_probe3,1,446,NaN,bottle,bottle,NaN,bottle5-truck1.png,bottle5-truck1.png,1.0,4.422725,3.616735,0.56992114
alexnet_w1_mlp_simclrhn_probe3,1,447,NaN,bottle,bottle,NaN,bottle6-airplane1.png,bottle6-airplane1.png,1.0,3.0858743,2.0464633,0.7349746
alexnet_w1_mlp_simclrhn_probe3,1,448,NaN,elephant,bottle,NaN,bottle6-bear2.png,bottle6-bear2.png,0.0,-0.012753708,1.6045911,-1.1436355
alexnet_w1_mlp_simclrhn_probe3,1,449,NaN,bicycle,bottle,NaN,bottle6-bicycle3.png,bottle6-bicycle3.png,0.0,0.9673446,1.5141333,-0.38663805
alexnet_w1_mlp_simclrhn_probe3,1,450,NaN,cat,bottle,NaN,bottle6-bird1.png,bottle6-bird1.png,0.0,0.08340497,1.4391575,-0.9586618
alexnet_w1_mlp_simclrhn_probe3,1,451,NaN,bottle,bottle,NaN,bottle6-boat3.png,bottle6-boat3.png,1.0,5.781185,4.217841,1.1054511
alexnet_w1_mlp_simclrhn_probe3,1,452,NaN,bicycle,bottle,NaN,bottle6-bottle3.png,bottle6-bottle3.png,0.0,0.40525427,1.4146026,-0.7137171
alexnet_w1_mlp_simclrhn_probe3,1,453,NaN,oven,bottle,NaN,bottle6-chair2.png,bottle6-chair2.png,0.0,2.0532928,2.825737,-0.5462006
alexnet_w1_mlp_simclrhn_probe3,1,454,NaN,cat,bottle,NaN,bottle6-dog3.png,bottle6-dog3.png,0.0,0.22980109,2.107628,-1.3278242
alexnet_w1_mlp_simclrhn_probe3,1,455,NaN,bottle,bottle,NaN,bottle6-knife3.png,bottle6-knife3.png,1.0,1.842725,1.298354,0.38492844
alexnet_w1_mlp_simclrhn_probe3,1,456,NaN,bottle,bottle,NaN,bottle6-oven3.png,bottle6-oven3.png,1.0,2.1806784,2.0258293,0.10949482
alexnet_w1_mlp_simclrhn_probe3,1,457,NaN,chair,bottle,NaN,bottle7-airplane3.png,bottle7-airplane3.png,0.0,1.2574099,2.104955,-0.59930485
alexnet_w1_mlp_simclrhn_probe3,1,458,NaN,bear,bottle,NaN,bottle7-bear1.png,bottle7-bear1.png,0.0,-0.48641476,2.3294706,-1.9911317
alexnet_w1_mlp_simclrhn_probe3,1,459,NaN,bottle,bottle,NaN,bottle7-boat3.png,bottle7-boat3.png,1.0,2.159437,2.0554328,0.073542036
alexnet_w1_mlp_simclrhn_probe3,1,460,NaN,cat,bottle,NaN,bottle7-cat2.png,bottle7-cat2.png,0.0,-0.12089903,1.5757241,-1.1996938
alexnet_w1_mlp_simclrhn_probe3,1,461,NaN,bicycle,bottle,NaN,bottle7-clock1.png,bottle7-clock1.png,0.0,1.1893609,2.8172019,-1.1510575
alexnet_w1_mlp_simclrhn_probe3,1,462,NaN,cat,bottle,NaN,bottle7-elephant2.png,bottle7-elephant2.png,0.0,-0.50667465,1.2349961,-1.2315472
alexnet_w1_mlp_simclrhn_probe3,1,463,NaN,keyboard,bottle,NaN,bottle7-keyboard2.png,bottle7-keyboard2.png,0.0,1.007212,1.4075307,-0.28306803
alexnet_w1_mlp_simclrhn_probe3,1,464,NaN,bottle,bottle,NaN,bottle7-oven2.png,bottle7-oven2.png,1.0,2.763004,2.0542195,0.5011864
alexnet_w1_mlp_simclrhn_probe3,1,465,NaN,chair,bottle,NaN,bottle7-truck2.png,bottle7-truck2.png,0.0,1.7922238,3.5358658,-1.232941
alexnet_w1_mlp_simclrhn_probe3,1,466,NaN,bicycle,bottle,NaN,bottle8-bicycle1.png,bottle8-bicycle1.png,0.0,0.26728788,1.2218009,-0.6749427
alexnet_w1_mlp_simclrhn_probe3,1,467,NaN,cat,bottle,NaN,bottle8-bird1.png,bottle8-bird1.png,0.0,0.48410848,1.212735,-0.5152168
alexnet_w1_mlp_simclrhn_probe3,1,468,NaN,bicycle,bottle,NaN,bottle8-bottle3.png,bottle8-bottle3.png,0.0,1.0753266,1.6397231,-0.3990886
alexnet_w1_mlp_simclrhn_probe3,1,469,NaN,cat,bottle,NaN,bottle8-dog2.png,bottle8-dog2.png,0.0,-0.017815437,1.7557955,-1.2541324
alexnet_w1_mlp_simclrhn_probe3,1,470,NaN,elephant,bottle,NaN,bottle8-elephant3.png,bottle8-elephant3.png,0.0,-0.22468361,0.41875392,-0.45497903
alexnet_w1_mlp_simclrhn_probe3,1,471,NaN,bottle,bottle,NaN,bottle8-keyboard3.png,bottle8-keyboard3.png,1.0,1.6999937,0.63218695,0.7550534
alexnet_w1_mlp_simclrhn_probe3,1,472,NaN,bicycle,bottle,NaN,bottle8-knife1.png,bottle8-knife1.png,0.0,1.1386453,2.8186889,-1.1879703
alexnet_w1_mlp_simclrhn_probe3,1,473,NaN,bicycle,bottle,NaN,bottle9-bicycle1.png,bottle9-bicycle1.png,0.0,0.47035018,0.71551925,-0.17336072
alexnet_w1_mlp_simclrhn_probe3,1,474,NaN,oven,bottle,NaN,bottle9-bottle1.png,bottle9-bottle1.png,0.0,0.23672733,1.2672153,-0.728665
alexnet_w1_mlp_simclrhn_probe3,1,475,NaN,bottle,bottle,NaN,bottle9-car3.png,bottle9-car3.png,1.0,2.3946946,2.2513225,0.10137936
alexnet_w1_mlp_simclrhn_probe3,1,476,NaN,cat,bottle,NaN,bottle9-cat2.png,bottle9-cat2.png,0.0,0.07666095,1.2355634,-0.8194678
alexnet_w1_mlp_simclrhn_probe3,1,477,NaN,cat,bottle,NaN,bottle9-elephant2.png,bottle9-elephant2.png,0.0,-0.3332029,1.0359986,-0.96817166
alexnet_w1_mlp_simclrhn_probe3,1,478,NaN,bottle,bottle,NaN,bottle9-keyboard1.png,bottle9-keyboard1.png,1.0,1.9658252,1.3763454,0.41682518
alexnet_w1_mlp_simclrhn_probe3,1,479,NaN,bottle,bottle,NaN,bottle9-oven2.png,bottle9-oven2.png,1.0,2.7750745,2.47077,0.21517585
alexnet_w1_mlp_simclrhn_probe3,1,480,NaN,bottle,bottle,NaN,bottle9-truck1.png,bottle9-truck1.png,1.0,4.370862,3.2703757,0.77816135
alexnet_w1_mlp_simclrhn_probe3,1,481,NaN,car,car,NaN,car1-airplane1.png,car1-airplane1.png,1.0,3.4228108,1.9882643,1.0143776
alexnet_w1_mlp_simclrhn_probe3,1,482,NaN,bicycle,car,NaN,car1-car2.png,car1-car2.png,0.0,0.63822246,2.4703226,-1.2954905
alexnet_w1_mlp_simclrhn_probe3,1,483,NaN,airplane,car,NaN,car1-chair3.png,car1-chair3.png,0.0,1.6567713,3.0105023,-0.9572324
alexnet_w1_mlp_simclrhn_probe3,1,484,NaN,car,car,NaN,car1-clock2.png,car1-clock2.png,1.0,3.1079905,2.5991952,0.3597726
alexnet_w1_mlp_simclrhn_probe3,1,485,NaN,cat,car,NaN,car1-dog2.png,car1-dog2.png,0.0,-0.5462813,1.7296416,-1.6093204
alexnet_w1_mlp_simclrhn_probe3,1,486,NaN,keyboard,car,NaN,car1-keyboard2.png,car1-keyboard2.png,0.0,1.5505266,3.3874922,-1.2989309
alexnet_w1_mlp_simclrhn_probe3,1,487,NaN,oven,car,NaN,car1-oven3.png,car1-oven3.png,0.0,-0.5000766,1.9260471,-1.7155285
alexnet_w1_mlp_simclrhn_probe3,1,488,NaN,bicycle,car,NaN,car10-bicycle2.png,car10-bicycle2.png,0.0,0.068374775,1.6165079,-1.0946954
alexnet_w1_mlp_simclrhn_probe3,1,489,NaN,bicycle,car,NaN,car10-bottle3.png,car10-bottle3.png,0.0,-0.024939211,1.5349061,-1.1029773
alexnet_w1_mlp_simclrhn_probe3,1,490,NaN,bicycle,car,NaN,car10-car1.png,car10-car1.png,0.0,3.920173,4.0319977,-0.07907204
alexnet_w1_mlp_simclrhn_probe3,1,491,NaN,airplane,car,NaN,car10-chair1.png,car10-chair1.png,0.0,6.4887557,7.208476,-0.5089192
alexnet_w1_mlp_simclrhn_probe3,1,492,NaN,cat,car,NaN,car10-dog1.png,car10-dog1.png,0.0,-0.59511644,1.1679971,-1.2467096
alexnet_w1_mlp_simclrhn_probe3,1,493,NaN,cat,car,NaN,car10-elephant2.png,car10-elephant2.png,0.0,-0.5227364,1.0736835,-1.1288393
alexnet_w1_mlp_simclrhn_probe3,1,494,NaN,airplane,car,NaN,car10-keyboard2.png,car10-keyboard2.png,0.0,0.59442353,2.373993,-1.2583456
alexnet_w1_mlp_simclrhn_probe3,1,495,NaN,elephant,car,NaN,car2-bird3.png,car2-bird3.png,0.0,0.093221046,2.3559053,-1.5999595
alexnet_w1_mlp_simclrhn_probe3,1,496,NaN,bicycle,car,NaN,car2-car3.png,car2-car3.png,0.0,2.8570843,5.6609783,-1.9826525
alexnet_w1_mlp_simclrhn_probe3,1,497,NaN,cat,car,NaN,car2-cat3.png,car2-cat3.png,0.0,-0.7776079,1.9117255,-1.9016459
alexnet_w1_mlp_simclrhn_probe3,1,498,NaN,car,car,NaN,car2-chair1.png,car2-chair1.png,1.0,6.9783072,4.717497,1.5986344
alexnet_w1_mlp_simclrhn_probe3,1,499,NaN,bottle,car,NaN,car2-knife3.png,car2-knife3.png,0.0,-0.33437142,2.088804,-1.7134438
alexnet_w1_mlp_simclrhn_probe3,1,500,NaN,car,car,NaN,car3-airplane3.png,car3-airplane3.png,1.0,9.104945,5.1081023,2.8261948
alexnet_w1_mlp_simclrhn_probe3,1,501,NaN,bicycle,car,NaN,car3-bird2.png,car3-bird2.png,0.0,-0.20050335,1.6188678,-1.2864897
alexnet_w1_mlp_simclrhn_probe3,1,502,NaN,car,car,NaN,car3-boat1.png,car3-boat1.png,1.0,8.299497,4.788211,2.4828541
alexnet_w1_mlp_simclrhn_probe3,1,503,NaN,oven,car,NaN,car3-bottle3.png,car3-bottle3.png,0.0,-0.22784738,1.7728384,-1.4146985
alexnet_w1_mlp_simclrhn_probe3,1,504,NaN,cat,car,NaN,car3-dog2.png,car3-dog2.png,0.0,-0.2214905,1.5601765,-1.2598288
alexnet_w1_mlp_simclrhn_probe3,1,505,NaN,keyboard,car,NaN,car3-elephant3.png,car3-elephant3.png,0.0,-0.32680354,0.64724743,-0.6887581
alexnet_w1_mlp_simclrhn_probe3,1,506,NaN,truck,car,NaN,car3-oven3.png,car3-oven3.png,0.0,0.48560032,2.1460629,-1.1741244
alexnet_w1_mlp_simclrhn_probe3,1,507,NaN,car,car,NaN,car3-truck1.png,car3-truck1.png,1.0,9.411553,6.4424343,2.0994842
alexnet_w1_mlp_simclrhn_probe3,1,508,NaN,cat,car,NaN,car4-bear3.png,car4-bear3.png,0.0,-0.4860508,2.0410497,-1.78693
alexnet_w1_mlp_simclrhn_probe3,1,509,NaN,bicycle,car,NaN,car4-bicycle3.png,car4-bicycle3.png,0.0,-0.15353985,2.151981,-1.6302496
alexnet_w1_mlp_simclrhn_probe3,1,510,NaN,cat,car,NaN,car4-bird1.png,car4-bird1.png,0.0,-0.6172176,1.0315844,-1.1658791
alexnet_w1_mlp_simclrhn_probe3,1,511,NaN,car,car,NaN,car4-boat1.png,car4-boat1.png,1.0,6.552428,3.4837556,2.169879
alexnet_w1_mlp_simclrhn_probe3,1,512,NaN,keyboard,car,NaN,car4-bottle1.png,car4-bottle1.png,0.0,0.04639526,1.3341901,-0.9106085
alexnet_w1_mlp_simclrhn_probe3,1,513,NaN,bicycle,car,NaN,car4-car2.png,car4-car2.png,0.0,3.119241,3.9106176,-0.5595878
alexnet_w1_mlp_simclrhn_probe3,1,514,NaN,cat,car,NaN,car4-cat3.png,car4-cat3.png,0.0,-0.90263575,1.771371,-1.8908083
alexnet_w1_mlp_simclrhn_probe3,1,515,NaN,bicycle,car,NaN,car4-clock1.png,car4-clock1.png,0.0,0.23882462,2.4757426,-1.5817399
alexnet_w1_mlp_simclrhn_probe3,1,516,NaN,keyboard,car,NaN,car4-elephant3.png,car4-elephant3.png,0.0,-0.2704753,0.62429404,-0.63269746
alexnet_w1_mlp_simclrhn_probe3,1,517,NaN,truck,car,NaN,car4-oven2.png,car4-oven2.png,0.0,1.9574699,3.305116,-0.9529296
alexnet_w1_mlp_simclrhn_probe3,1,518,NaN,car,car,NaN,car5-airplane3.png,car5-airplane3.png,1.0,6.159638,3.4178867,1.9387109
alexnet_w1_mlp_simclrhn_probe3,1,519,NaN,cat,car,NaN,car5-bear3.png,car5-bear3.png,0.0,-0.56971514,2.047803,-1.8508648
alexnet_w1_mlp_simclrhn_probe3,1,520,NaN,keyboard,car,NaN,car5-bottle1.png,car5-bottle1.png,0.0,0.033051778,2.3900576,-1.6666548
alexnet_w1_mlp_simclrhn_probe3,1,521,NaN,cat,car,NaN,car5-cat1.png,car5-cat1.png,0.0,-0.40147814,3.1311648,-2.4979558
alexnet_w1_mlp_simclrhn_probe3,1,522,NaN,clock,car,NaN,car5-keyboard3.png,car5-keyboard3.png,0.0,0.34063944,0.9815977,-0.45322597
alexnet_w1_mlp_simclrhn_probe3,1,523,NaN,car,car,NaN,car5-knife2.png,car5-knife2.png,1.0,4.036746,3.5457606,0.3471791
alexnet_w1_mlp_simclrhn_probe3,1,524,NaN,truck,car,NaN,car5-oven2.png,car5-oven2.png,0.0,2.615105,4.329278,-1.2121035
alexnet_w1_mlp_simclrhn_probe3,1,525,NaN,car,car,NaN,car5-truck3.png,car5-truck3.png,1.0,4.8320994,4.4872046,0.24387752
alexnet_w1_mlp_simclrhn_probe3,1,526,NaN,cat,car,NaN,car6-bear1.png,car6-bear1.png,0.0,-0.7542545,1.4391874,-1.5509976
alexnet_w1_mlp_simclrhn_probe3,1,527,NaN,bicycle,car,NaN,car6-bicycle3.png,car6-bicycle3.png,0.0,0.082814485,2.654552,-1.8184931
alexnet_w1_mlp_simclrhn_probe3,1,528,NaN,bicycle,car,NaN,car6-boat1.png,car6-boat1.png,0.0,4.952111,6.538558,-1.1217877
alexnet_w1_mlp_simclrhn_probe3,1,529,NaN,bicycle,car,NaN,car6-bottle1.png,car6-bottle1.png,0.0,-0.037009414,1.5422347,-1.1166942
alexnet_w1_mlp_simclrhn_probe3,1,530,NaN,airplane,car,NaN,car6-chair3.png,car6-chair3.png,0.0,2.1610115,2.8872647,-0.5135386
alexnet_w1_mlp_simclrhn_probe3,1,531,NaN,keyboard,car,NaN,car6-elephant3.png,car6-elephant3.png,0.0,-0.4625469,0.52886647,-0.70103514
alexnet_w1_mlp_simclrhn_probe3,1,532,NaN,bicycle,car,NaN,car6-knife1.png,car6-knife1.png,0.0,2.586338,4.2429113,-1.1713742
alexnet_w1_mlp_simclrhn_probe3,1,533,NaN,car,car,NaN,car6-truck3.png,car6-truck3.png,1.0,3.8716195,2.7422771,0.7985656
alexnet_w1_mlp_simclrhn_probe3,1,534,NaN,car,car,NaN,car7-airplane2.png,car7-airplane2.png,1.0,3.9934294,2.9649963,0.727212
alexnet_w1_mlp_simclrhn_probe3,1,535,NaN,bear,car,NaN,car7-bear1.png,car7-bear1.png,0.0,-0.27359214,1.1862725,-1.0322802
alexnet_w1_mlp_simclrhn_probe3,1,536,NaN,airplane,car,NaN,car7-bird3.png,car7-bird3.png,0.0,0.17461199,1.0527835,-0.620961
alexnet_w1_mlp_simclrhn_probe3,1,537,NaN,boat,car,NaN,car7-boat3.png,car7-boat3.png,0.0,2.4538534,4.163625,-1.2089909
alexnet_w1_mlp_simclrhn_probe3,1,538,NaN,bicycle,car,NaN,car7-car1.png,car7-car1.png,0.0,1.0108614,4.91136,-2.7580688
alexnet_w1_mlp_simclrhn_probe3,1,539,NaN,bicycle,car,NaN,car7-clock1.png,car7-clock1.png,0.0,1.035632,4.0392084,-2.1238492
alexnet_w1_mlp_simclrhn_probe3,1,540,NaN,cat,car,NaN,car7-dog3.png,car7-dog3.png,0.0,-0.70964575,2.444802,-2.2305315
alexnet_w1_mlp_simclrhn_probe3,1,541,NaN,keyboard,car,NaN,car7-elephant3.png,car7-elephant3.png,0.0,-0.42282215,0.5736166,-0.7045886
alexnet_w1_mlp_simclrhn_probe3,1,542,NaN,keyboard,car,NaN,car7-keyboard3.png,car7-keyboard3.png,0.0,0.6430133,1.6502196,-0.71220237
alexnet_w1_mlp_simclrhn_probe3,1,543,NaN,chair,car,NaN,car7-oven2.png,car7-oven2.png,0.0,0.81093836,2.2929385,-1.0479324
alexnet_w1_mlp_simclrhn_probe3,1,544,NaN,car,car,NaN,car8-airplane3.png,car8-airplane3.png,1.0,4.2191854,1.7922738,1.7160857
alexnet_w1_mlp_simclrhn_probe3,1,545,NaN,cat,car,NaN,car8-bear1.png,car8-bear1.png,0.0,-0.35800895,1.6026616,-1.3864034
alexnet_w1_mlp_simclrhn_probe3,1,546,NaN,bicycle,car,NaN,car8-bicycle2.png,car8-bicycle2.png,0.0,0.320546,2.133953,-1.2822725
alexnet_w1_mlp_simclrhn_probe3,1,547,NaN,car,car,NaN,car8-boat3.png,car8-boat3.png,1.0,3.7464237,3.2886903,0.3236664
alexnet_w1_mlp_simclrhn_probe3,1,548,NaN,cat,car,NaN,car8-cat1.png,car8-cat1.png,0.0,-0.47750267,3.6957407,-2.950929
alexnet_w1_mlp_simclrhn_probe3,1,549,NaN,car,car,NaN,car8-chair1.png,car8-chair1.png,1.0,7.015026,3.4919028,2.4912243
alexnet_w1_mlp_simclrhn_probe3,1,550,NaN,bicycle,car,NaN,car8-clock2.png,car8-clock2.png,0.0,2.7427437,3.631063,-0.6281366
alexnet_w1_mlp_simclrhn_probe3,1,551,NaN,cat,car,NaN,car8-dog1.png,car8-dog1.png,0.0,-0.53008467,1.6827202,-1.5646893
alexnet_w1_mlp_simclrhn_probe3,1,552,NaN,airplane,car,NaN,car8-knife2.png,car8-knife2.png,0.0,1.8531002,2.0626419,-0.14816834
alexnet_w1_mlp_simclrhn_probe3,1,553,NaN,car,car,NaN,car8-truck3.png,car8-truck3.png,1.0,4.2586303,3.415484,0.5961945
alexnet_w1_mlp_simclrhn_probe3,1,554,NaN,bicycle,car,NaN,car9-bicycle2.png,car9-bicycle2.png,0.0,0.37233856,1.8448098,-1.0411944
alexnet_w1_mlp_simclrhn_probe3,1,555,NaN,cat,car,NaN,car9-bird1.png,car9-bird1.png,0.0,-0.5169673,1.0718094,-1.1234348
alexnet_w1_mlp_simclrhn_probe3,1,556,NaN,cat,car,NaN,car9-cat1.png,car9-cat1.png,0.0,-0.5277812,3.2044437,-2.6390817
alexnet_w1_mlp_simclrhn_probe3,1,557,NaN,car,car,NaN,car9-clock2.png,car9-clock2.png,1.0,7.556089,4.0198374,2.5005076
alexnet_w1_mlp_simclrhn_probe3,1,558,NaN,airplane,car,NaN,car9-keyboard2.png,car9-keyboard2.png,0.0,0.756452,0.78126526,-0.017545607
alexnet_w1_mlp_simclrhn_probe3,1,559,NaN,bicycle,car,NaN,car9-knife1.png,car9-knife1.png,0.0,2.2161093,2.9478016,-0.5173846
alexnet_w1_mlp_simclrhn_probe3,1,560,NaN,car,car,NaN,car9-truck3.png,car9-truck3.png,1.0,3.8199866,2.220292,1.1311549
alexnet_w1_mlp_simclrhn_probe3,1,561,NaN,bicycle,cat,NaN,cat1-airplane1.png,cat1-airplane1.png,0.0,-0.37985694,1.6297768,-1.4210258
alexnet_w1_mlp_simclrhn_probe3,1,562,NaN,cat,cat,NaN,cat1-bird1.png,cat1-bird1.png,1.0,1.5946041,0.40000057,0.8447123
alexnet_w1_mlp_simclrhn_probe3,1,563,NaN,bicycle,cat,NaN,cat1-boat1.png,cat1-boat1.png,0.0,-0.7580721,3.5276349,-3.0304525
alexnet_w1_mlp_simclrhn_probe3,1,564,NaN,bicycle,cat,NaN,cat1-car2.png,cat1-car2.png,0.0,0.5701713,4.3646183,-2.6830792
alexnet_w1_mlp_simclrhn_probe3,1,565,NaN,cat,cat,NaN,cat1-cat3.png,cat1-cat3.png,1.0,5.0816965,0.7163929,3.0867357
alexnet_w1_mlp_simclrhn_probe3,1,566,NaN,chair,cat,NaN,cat1-chair2.png,cat1-chair2.png,0.0,-0.10126955,2.418826,-1.7819767
alexnet_w1_mlp_simclrhn_probe3,1,567,NaN,cat,cat,NaN,cat1-dog1.png,cat1-dog1.png,1.0,4.110019,0.5716913,2.5019758
alexnet_w1_mlp_simclrhn_probe3,1,568,NaN,keyboard,cat,NaN,cat1-keyboard3.png,cat1-keyboard3.png,0.0,-0.20866168,1.5897682,-1.2716819
alexnet_w1_mlp_simclrhn_probe3,1,569,NaN,chair,cat,NaN,cat1-oven1.png,cat1-oven1.png,0.0,-0.4621409,1.9379202,-1.6970996
alexnet_w1_mlp_simclrhn_probe3,1,570,NaN,knife,cat,NaN,cat10-airplane3.png,cat10-airplane3.png,0.0,0.5068304,0.933095,-0.30141458
alexnet_w1_mlp_simclrhn_probe3,1,571,NaN,cat,cat,NaN,cat10-bear1.png,cat10-bear1.png,1.0,2.993951,1.3227203,1.1817386
alexnet_w1_mlp_simclrhn_probe3,1,572,NaN,bird,cat,NaN,cat10-bicycle1.png,cat10-bicycle1.png,0.0,0.5911877,0.8385119,-0.1748846
alexnet_w1_mlp_simclrhn_probe3,1,573,NaN,cat,cat,NaN,cat10-bird2.png,cat10-bird2.png,1.0,2.2712908,0.7818955,1.0531615
alexnet_w1_mlp_simclrhn_probe3,1,574,NaN,keyboard,cat,NaN,cat10-bottle1.png,cat10-bottle1.png,0.0,-0.4049418,1.3556151,-1.2449018
alexnet_w1_mlp_simclrhn_probe3,1,575,NaN,oven,cat,NaN,cat10-clock1.png,cat10-clock1.png,0.0,1.2385947,1.4170868,-0.12621304
alexnet_w1_mlp_simclrhn_probe3,1,576,NaN,keyboard,cat,NaN,cat10-elephant3.png,cat10-elephant3.png,0.0,0.09126449,0.6368633,-0.3857966
alexnet_w1_mlp_simclrhn_probe3,1,577,NaN,oven,cat,NaN,cat10-keyboard1.png,cat10-keyboard1.png,0.0,0.2096806,1.9991065,-1.2653153
alexnet_w1_mlp_simclrhn_probe3,1,578,NaN,chair,cat,NaN,cat10-oven2.png,cat10-oven2.png,0.0,-0.46674588,2.1516519,-1.8514868
alexnet_w1_mlp_simclrhn_probe3,1,579,NaN,bicycle,cat,NaN,cat2-boat2.png,cat2-boat2.png,0.0,0.4670457,2.5774598,-1.4922881
alexnet_w1_mlp_simclrhn_probe3,1,580,NaN,cat,cat,NaN,cat2-bottle3.png,cat2-bottle3.png,1.0,1.7527585,-0.12496693,1.3277525
alexnet_w1_mlp_simclrhn_probe3,1,581,NaN,bicycle,cat,NaN,cat2-car3.png,cat2-car3.png,0.0,1.4655308,2.1936426,-0.5148528
alexnet_w1_mlp_simclrhn_probe3,1,582,NaN,cat,cat,NaN,cat2-cat1.png,cat2-cat1.png,1.0,3.120609,0.9547611,1.5314858
alexnet_w1_mlp_simclrhn_probe3,1,583,NaN,cat,cat,NaN,cat2-elephant1.png,cat2-elephant1.png,1.0,0.3547766,0.34092712,0.009793052
alexnet_w1_mlp_simclrhn_probe3,1,584,NaN,bottle,cat,NaN,cat2-knife3.png,cat2-knife3.png,0.0,-1.0620165,1.4639568,-1.7861329
alexnet_w1_mlp_simclrhn_probe3,1,585,NaN,chair,cat,NaN,cat2-truck3.png,cat2-truck3.png,0.0,0.08161688,1.8939738,-1.2815299
alexnet_w1_mlp_simclrhn_probe3,1,586,NaN,bear,cat,NaN,cat3-bear2.png,cat3-bear2.png,0.0,2.1871066,3.3917644,-0.8518217
alexnet_w1_mlp_simclrhn_probe3,1,587,NaN,cat,cat,NaN,cat3-bicycle1.png,cat3-bicycle1.png,1.0,1.093925,0.3209495,0.5465762
alexnet_w1_mlp_simclrhn_probe3,1,588,NaN,cat,cat,NaN,cat3-cat1.png,cat3-cat1.png,1.0,4.353111,1.8344097,1.7809906
alexnet_w1_mlp_simclrhn_probe3,1,589,NaN,cat,cat,NaN,cat3-elephant2.png,cat3-elephant2.png,1.0,1.4849552,0.4056109,0.76321167
alexnet_w1_mlp_simclrhn_probe3,1,590,NaN,chair,cat,NaN,cat3-oven2.png,cat3-oven2.png,0.0,-0.5680215,2.4821532,-2.1567993
alexnet_w1_mlp_simclrhn_probe3,1,591,NaN,chair,cat,NaN,cat3-truck3.png,cat3-truck3.png,0.0,-0.43265834,3.8478308,-3.0267627
alexnet_w1_mlp_simclrhn_probe3,1,592,NaN,bicycle,cat,NaN,cat4-airplane1.png,cat4-airplane1.png,0.0,-0.5243705,1.1814555,-1.2062012
alexnet_w1_mlp_simclrhn_probe3,1,593,NaN,cat,cat,NaN,cat4-bird2.png,cat4-bird2.png,1.0,1.864542,0.9086824,0.6758948
alexnet_w1_mlp_simclrhn_probe3,1,594,NaN,bicycle,cat,NaN,cat4-car2.png,cat4-car2.png,0.0,0.6326024,2.7852206,-1.522131
alexnet_w1_mlp_simclrhn_probe3,1,595,NaN,cat,cat,NaN,cat4-cat3.png,cat4-cat3.png,1.0,2.4816668,0.88377786,1.1298782
alexnet_w1_mlp_simclrhn_probe3,1,596,NaN,chair,cat,NaN,cat4-chair2.png,cat4-chair2.png,0.0,-0.20576175,2.070436,-1.6095148
alexnet_w1_mlp_simclrhn_probe3,1,597,NaN,bicycle,cat,NaN,cat4-clock2.png,cat4-clock2.png,0.0,0.21436691,2.1942062,-1.3999579
alexnet_w1_mlp_simclrhn_probe3,1,598,NaN,cat,cat,NaN,cat4-dog3.png,cat4-dog3.png,1.0,3.1014645,2.1089342,0.70182496
alexnet_w1_mlp_simclrhn_probe3,1,599,NaN,clock,cat,NaN,cat4-keyboard2.png,cat4-keyboard2.png,0.0,0.051175665,0.97296745,-0.6518052
alexnet_w1_mlp_simclrhn_probe3,1,600,NaN,bicycle,cat,NaN,cat4-knife1.png,cat4-knife1.png,0.0,0.11363236,4.0956025,-2.8156781
alexnet_w1_mlp_simclrhn_probe3,1,601,NaN,knife,cat,NaN,cat4-oven1.png,cat4-oven1.png,0.0,-0.6824191,2.1027608,-1.9694196
alexnet_w1_mlp_simclrhn_probe3,1,602,NaN,bottle,cat,NaN,cat4-truck3.png,cat4-truck3.png,0.0,-0.603052,2.7520425,-2.37241
alexnet_w1_mlp_simclrhn_probe3,1,603,NaN,chair,cat,NaN,cat5-airplane2.png,cat5-airplane2.png,0.0,-0.4848909,2.5961685,-2.178638
alexnet_w1_mlp_simclrhn_probe3,1,604,NaN,cat,cat,NaN,cat5-bear2.png,cat5-bear2.png,1.0,2.673834,1.706939,0.6836981
alexnet_w1_mlp_simclrhn_probe3,1,605,NaN,cat,cat,NaN,cat5-bicycle3.png,cat5-bicycle3.png,1.0,1.6569386,0.67875516,0.69168013
alexnet_w1_mlp_simclrhn_probe3,1,606,NaN,chair,cat,NaN,cat5-boat1.png,cat5-boat1.png,0.0,-0.4860905,2.845772,-2.3559825
alexnet_w1_mlp_simclrhn_probe3,1,607,NaN,bicycle,cat,NaN,cat5-bottle1.png,cat5-bottle1.png,0.0,-0.16116016,1.1148837,-0.9022992
alexnet_w1_mlp_simclrhn_probe3,1,608,NaN,bicycle,cat,NaN,cat5-car2.png,cat5-car2.png,0.0,1.084373,2.6300933,-1.0929893
alexnet_w1_mlp_simclrhn_probe3,1,609,NaN,chair,cat,NaN,cat5-chair3.png,cat5-chair3.png,0.0,-0.062362567,1.8114516,-1.3249867
alexnet_w1_mlp_simclrhn_probe3,1,610,NaN,cat,cat,NaN,cat5-dog3.png,cat5-dog3.png,1.0,3.8838327,2.0101602,1.3248866
alexnet_w1_mlp_simclrhn_probe3,1,611,NaN,cat,cat,NaN,cat5-elephant2.png,cat5-elephant2.png,1.0,1.2412409,0.29078344,0.6720749
alexnet_w1_mlp_simclrhn_probe3,1,612,NaN,airplane,cat,NaN,cat5-keyboard3.png,cat5-keyboard3.png,0.0,-0.22269838,1.0480036,-0.89852196
alexnet_w1_mlp_simclrhn_probe3,1,613,NaN,oven,cat,NaN,cat5-knife2.png,cat5-knife2.png,0.0,0.25678876,2.515962,-1.5974767
alexnet_w1_mlp_simclrhn_probe3,1,614,NaN,cat,cat,NaN,cat6-bear1.png,cat6-bear1.png,1.0,3.6454113,0.99672806,1.8729018
alexnet_w1_mlp_simclrhn_probe3,1,615,NaN,chair,cat,NaN,cat6-chair3.png,cat6-chair3.png,0.0,-0.53561693,2.379541,-2.061328
alexnet_w1_mlp_simclrhn_probe3,1,616,NaN,bicycle,cat,NaN,cat6-clock3.png,cat6-clock3.png,0.0,0.9840911,2.1094127,-0.79572254
alexnet_w1_mlp_simclrhn_probe3,1,617,NaN,keyboard,cat,NaN,cat6-keyboard3.png,cat6-keyboard3.png,0.0,-0.034430116,1.4458541,-1.0467191
alexnet_w1_mlp_simclrhn_probe3,1,618,NaN,chair,cat,NaN,cat6-oven1.png,cat6-oven1.png,0.0,-0.58634454,2.3022935,-2.0425756
alexnet_w1_mlp_simclrhn_probe3,1,619,NaN,chair,cat,NaN,cat7-airplane2.png,cat7-airplane2.png,0.0,-0.01844365,1.6193688,-1.1581084
alexnet_w1_mlp_simclrhn_probe3,1,620,NaN,oven,cat,NaN,cat7-boat3.png,cat7-boat3.png,0.0,0.25267395,4.200519,-2.7915483
alexnet_w1_mlp_simclrhn_probe3,1,621,NaN,oven,cat,NaN,cat7-bottle1.png,cat7-bottle1.png,0.0,-0.17309918,0.5629326,-0.52045304
alexnet_w1_mlp_simclrhn_probe3,1,622,NaN,cat,cat,NaN,cat7-clock3.png,cat7-clock3.png,1.0,1.5502658,0.4646058,0.76767755
alexnet_w1_mlp_simclrhn_probe3,1,623,NaN,cat,cat,NaN,cat7-dog3.png,cat7-dog3.png,1.0,3.8221579,2.116322,1.2062081
alexnet_w1_mlp_simclrhn_probe3,1,624,NaN,cat,cat,NaN,cat7-elephant1.png,cat7-elephant1.png,1.0,0.32323158,0.1824699,0.099533536
alexnet_w1_mlp_simclrhn_probe3,1,625,NaN,oven,cat,NaN,cat7-knife2.png,cat7-knife2.png,0.0,0.11852456,2.092707,-1.3959577
alexnet_w1_mlp_simclrhn_probe3,1,626,NaN,chair,cat,NaN,cat7-truck2.png,cat7-truck2.png,0.0,-0.17663795,3.939479,-2.9105344
alexnet_w1_mlp_simclrhn_probe3,1,627,NaN,cat,cat,NaN,cat8-bear1.png,cat8-bear1.png,1.0,2.161134,1.5472788,0.4340612
alexnet_w1_mlp_simclrhn_probe3,1,628,NaN,cat,cat,NaN,cat8-bicycle3.png,cat8-bicycle3.png,1.0,0.99564916,0.9198878,0.053571384
alexnet_w1_mlp_simclrhn_probe3,1,629,NaN,cat,cat,NaN,cat8-bird2.png,cat8-bird2.png,1.0,1.2669967,0.3136252,0.6741355
alexnet_w1_mlp_simclrhn_probe3,1,630,NaN,bicycle,cat,NaN,cat8-car2.png,cat8-car2.png,0.0,0.7492666,2.7543905,-1.4178367
alexnet_w1_mlp_simclrhn_probe3,1,631,NaN,bird,cat,NaN,cat9-bicycle1.png,cat9-bicycle1.png,0.0,0.029832324,0.757493,-0.5145338
alexnet_w1_mlp_simclrhn_probe3,1,632,NaN,dog,cat,NaN,cat9-bird3.png,cat9-bird3.png,0.0,1.3538623,2.7419014,-0.98149186
alexnet_w1_mlp_simclrhn_probe3,1,633,NaN,oven,cat,NaN,cat9-boat2.png,cat9-boat2.png,0.0,-0.5341887,2.135339,-1.8876412
alexnet_w1_mlp_simclrhn_probe3,1,634,NaN,bottle,cat,NaN,cat9-bottle2.png,cat9-bottle2.png,0.0,-1.139972,2.7934356,-2.7813392
alexnet_w1_mlp_simclrhn_probe3,1,635,NaN,cat,cat,NaN,cat9-cat3.png,cat9-cat3.png,1.0,2.4201608,1.2375268,0.8362485
alexnet_w1_mlp_simclrhn_probe3,1,636,NaN,boat,cat,NaN,cat9-chair2.png,cat9-chair2.png,0.0,-0.40479258,2.0296767,-1.7214297
alexnet_w1_mlp_simclrhn_probe3,1,637,NaN,cat,cat,NaN,cat9-clock2.png,cat9-clock2.png,1.0,1.1646715,0.82712525,0.23868127
alexnet_w1_mlp_simclrhn_probe3,1,638,NaN,cat,cat,NaN,cat9-dog2.png,cat9-dog2.png,1.0,1.8212341,1.5435933,0.19632171
alexnet_w1_mlp_simclrhn_probe3,1,639,NaN,airplane,cat,NaN,cat9-knife2.png,cat9-knife2.png,0.0,-0.16325028,1.8243847,-1.4054703
alexnet_w1_mlp_simclrhn_probe3,1,640,NaN,chair,cat,NaN,cat9-truck1.png,cat9-truck1.png,0.0,-0.08060319,3.9972327,-2.8834655
alexnet_w1_mlp_simclrhn_probe3,1,641,NaN,chair,chair,NaN,chair1-airplane2.png,chair1-airplane2.png,1.0,4.1632504,1.7863243,1.6807406
alexnet_w1_mlp_simclrhn_probe3,1,642,NaN,cat,chair,NaN,chair1-bear1.png,chair1-bear1.png,0.0,-0.8349923,2.5060341,-2.3624623
alexnet_w1_mlp_simclrhn_probe3,1,643,NaN,cat,chair,NaN,chair1-cat3.png,chair1-cat3.png,0.0,-0.6707094,3.3732843,-2.8595357
alexnet_w1_mlp_simclrhn_probe3,1,644,NaN,chair,chair,NaN,chair1-chair1.png,chair1-chair1.png,1.0,3.8857908,1.8623246,1.4308066
alexnet_w1_mlp_simclrhn_probe3,1,645,NaN,chair,chair,NaN,chair1-clock2.png,chair1-clock2.png,1.0,2.087529,1.3065759,0.5522172
alexnet_w1_mlp_simclrhn_probe3,1,646,NaN,cat,chair,NaN,chair1-dog1.png,chair1-dog1.png,0.0,-1.0447047,2.757974,-2.6888998
alexnet_w1_mlp_simclrhn_probe3,1,647,NaN,elephant,chair,NaN,chair1-elephant1.png,chair1-elephant1.png,0.0,0.08435956,0.5721721,-0.34493557
alexnet_w1_mlp_simclrhn_probe3,1,648,NaN,chair,chair,NaN,chair1-oven3.png,chair1-oven3.png,1.0,2.7011318,1.3769033,0.93637097
alexnet_w1_mlp_simclrhn_probe3,1,649,NaN,bottle,chair,NaN,chair1-truck3.png,chair1-truck3.png,0.0,2.3236198,2.5190697,-0.1382039
alexnet_w1_mlp_simclrhn_probe3,1,650,NaN,chair,chair,NaN,chair10-airplane2.png,chair10-airplane2.png,1.0,5.0733085,1.8219159,2.2990818
alexnet_w1_mlp_simclrhn_probe3,1,651,NaN,bicycle,chair,NaN,chair10-bicycle1.png,chair10-bicycle1.png,0.0,0.31148764,1.1728625,-0.609084
alexnet_w1_mlp_simclrhn_probe3,1,652,NaN,chair,chair,NaN,chair10-bird3.png,chair10-bird3.png,1.0,1.5871952,1.190124,0.2807717
alexnet_w1_mlp_simclrhn_probe3,1,653,NaN,oven,chair,NaN,chair10-bottle3.png,chair10-bottle3.png,0.0,1.2289298,3.31672,-1.4762907
alexnet_w1_mlp_simclrhn_probe3,1,654,NaN,bicycle,chair,NaN,chair10-car2.png,chair10-car2.png,0.0,0.9545807,2.9819224,-1.433547
alexnet_w1_mlp_simclrhn_probe3,1,655,NaN,cat,chair,NaN,chair10-cat1.png,chair10-cat1.png,0.0,-0.5642997,4.2923326,-3.4341576
alexnet_w1_mlp_simclrhn_probe3,1,656,NaN,oven,chair,NaN,chair10-clock1.png,chair10-clock1.png,0.0,3.319796,3.5469646,-0.16063243
alexnet_w1_mlp_simclrhn_probe3,1,657,NaN,cat,chair,NaN,chair10-dog1.png,chair10-dog1.png,0.0,-0.6940363,2.6510556,-2.3653371
alexnet_w1_mlp_simclrhn_probe3,1,658,NaN,oven,chair,NaN,chair10-oven1.png,chair10-oven1.png,0.0,2.0216277,2.6159854,-0.42027438
alexnet_w1_mlp_simclrhn_probe3,1,659,NaN,elephant,chair,NaN,chair2-bear2.png,chair2-bear2.png,0.0,-0.4877947,2.3757074,-2.0248017
alexnet_w1_mlp_simclrhn_probe3,1,660,NaN,oven,chair,NaN,chair2-boat1.png,chair2-boat1.png,0.0,3.2082043,3.591267,-0.27086633
alexnet_w1_mlp_simclrhn_probe3,1,661,NaN,chair,chair,NaN,chair2-keyboard2.png,chair2-keyboard2.png,1.0,1.3531203,1.2785797,0.052708175
alexnet_w1_mlp_simclrhn_probe3,1,662,NaN,bicycle,chair,NaN,chair2-knife1.png,chair2-knife1.png,0.0,2.1109443,3.0726233,-0.6800097
alexnet_w1_mlp_simclrhn_probe3,1,663,NaN,chair,chair,NaN,chair3-airplane2.png,chair3-airplane2.png,1.0,4.475878,2.0633557,1.7059108
alexnet_w1_mlp_simclrhn_probe3,1,664,NaN,bicycle,chair,NaN,chair3-bicycle3.png,chair3-bicycle3.png,0.0,0.38914365,1.0738997,-0.48419568
alexnet_w1_mlp_simclrhn_probe3,1,665,NaN,bicycle,chair,NaN,chair3-bottle3.png,chair3-bottle3.png,0.0,0.99171203,2.092237,-0.77818865
alexnet_w1_mlp_simclrhn_probe3,1,666,NaN,bicycle,chair,NaN,chair3-car3.png,chair3-car3.png,0.0,2.5511785,3.1123033,-0.39677516
alexnet_w1_mlp_simclrhn_probe3,1,667,NaN,cat,chair,NaN,chair3-dog2.png,chair3-dog2.png,0.0,-0.3110818,2.852187,-2.236769
alexnet_w1_mlp_simclrhn_probe3,1,668,NaN,bicycle,chair,NaN,chair3-knife1.png,chair3-knife1.png,0.0,2.697528,3.1715305,-0.33517045
alexnet_w1_mlp_simclrhn_probe3,1,669,NaN,elephant,chair,NaN,chair4-bear2.png,chair4-bear2.png,0.0,-0.3982704,2.200134,-1.8373494
alexnet_w1_mlp_simclrhn_probe3,1,670,NaN,cat,chair,NaN,chair4-cat2.png,chair4-cat2.png,0.0,-0.36849454,1.83915,-1.5610404
alexnet_w1_mlp_simclrhn_probe3,1,671,NaN,chair,chair,NaN,chair4-chair3.png,chair4-chair3.png,1.0,4.102331,1.7361683,1.6731298
alexnet_w1_mlp_simclrhn_probe3,1,672,NaN,keyboard,chair,NaN,chair4-keyboard2.png,chair4-keyboard2.png,0.0,0.8632508,2.1984544,-0.94413155
alexnet_w1_mlp_simclrhn_probe3,1,673,NaN,chair,chair,NaN,chair4-oven2.png,chair4-oven2.png,1.0,4.529227,1.9263526,1.8405101
alexnet_w1_mlp_simclrhn_probe3,1,674,NaN,chair,chair,NaN,chair4-truck2.png,chair4-truck2.png,1.0,6.1055765,1.5854492,3.1962128
alexnet_w1_mlp_simclrhn_probe3,1,675,NaN,bicycle,chair,NaN,chair5-bicycle1.png,chair5-bicycle1.png,0.0,0.14662924,2.074171,-1.362978
alexnet_w1_mlp_simclrhn_probe3,1,676,NaN,cat,chair,NaN,chair5-bird1.png,chair5-bird1.png,0.0,-0.40364277,0.8823347,-0.9093234
alexnet_w1_mlp_simclrhn_probe3,1,677,NaN,chair,chair,NaN,chair5-boat3.png,chair5-boat3.png,1.0,3.6458447,1.7343093,1.3516597
alexnet_w1_mlp_simclrhn_probe3,1,678,NaN,bicycle,chair,NaN,chair5-bottle3.png,chair5-bottle3.png,0.0,0.8612905,3.47481,-1.8480374
alexnet_w1_mlp_simclrhn_probe3,1,679,NaN,bicycle,chair,NaN,chair5-car1.png,chair5-car1.png,0.0,2.431254,5.208189,-1.9635897
alexnet_w1_mlp_simclrhn_probe3,1,680,NaN,cat,chair,NaN,chair5-cat3.png,chair5-cat3.png,0.0,-0.47481394,2.2402036,-1.9198073
alexnet_w1_mlp_simclrhn_probe3,1,681,NaN,bicycle,chair,NaN,chair5-clock2.png,chair5-clock2.png,0.0,2.2695596,3.4299917,-0.8205494
alexnet_w1_mlp_simclrhn_probe3,1,682,NaN,keyboard,chair,NaN,chair5-keyboard2.png,chair5-keyboard2.png,0.0,1.0206279,2.8978748,-1.327414
alexnet_w1_mlp_simclrhn_probe3,1,683,NaN,clock,chair,NaN,chair5-knife3.png,chair5-knife3.png,0.0,0.31725204,1.3993164,-0.7651351
alexnet_w1_mlp_simclrhn_probe3,1,684,NaN,chair,chair,NaN,chair5-oven2.png,chair5-oven2.png,1.0,3.7284732,1.708251,1.4285128
alexnet_w1_mlp_simclrhn_probe3,1,685,NaN,chair,chair,NaN,chair5-truck3.png,chair5-truck3.png,1.0,4.426064,1.8180563,1.8441399
alexnet_w1_mlp_simclrhn_probe3,1,686,NaN,oven,chair,NaN,chair6-bird2.png,chair6-bird2.png,0.0,0.2189655,1.6073987,-0.9817706
alexnet_w1_mlp_simclrhn_probe3,1,687,NaN,cat,chair,NaN,chair6-dog1.png,chair6-dog1.png,0.0,-0.6564106,1.9187495,-1.8209132
alexnet_w1_mlp_simclrhn_probe3,1,688,NaN,cat,chair,NaN,chair6-elephant2.png,chair6-elephant2.png,0.0,-0.3013739,1.3470894,-1.1656395
alexnet_w1_mlp_simclrhn_probe3,1,689,NaN,chair,chair,NaN,chair6-truck2.png,chair6-truck2.png,1.0,4.4015884,1.4154167,2.1115422
alexnet_w1_mlp_simclrhn_probe3,1,690,NaN,chair,chair,NaN,chair7-airplane1.png,chair7-airplane1.png,1.0,2.1957152,1.6395874,0.39324173
alexnet_w1_mlp_simclrhn_probe3,1,691,NaN,cat,chair,NaN,chair7-bird1.png,chair7-bird1.png,0.0,-0.24433458,1.1145002,-0.9608413
alexnet_w1_mlp_simclrhn_probe3,1,692,NaN,oven,chair,NaN,chair7-boat3.png,chair7-boat3.png,0.0,3.8189535,4.145268,-0.23073916
alexnet_w1_mlp_simclrhn_probe3,1,693,NaN,bicycle,chair,NaN,chair7-bottle1.png,chair7-bottle1.png,0.0,0.45656353,1.0082405,-0.39009452
alexnet_w1_mlp_simclrhn_probe3,1,694,NaN,bicycle,chair,NaN,chair7-car2.png,chair7-car2.png,0.0,0.9285738,3.4292006,-1.7682102
alexnet_w1_mlp_simclrhn_probe3,1,695,NaN,cat,chair,NaN,chair7-cat1.png,chair7-cat1.png,0.0,-0.36792552,4.2750006,-3.2830446
alexnet_w1_mlp_simclrhn_probe3,1,696,NaN,chair,chair,NaN,chair7-chair1.png,chair7-chair1.png,1.0,4.5644107,2.7463825,1.2855401
alexnet_w1_mlp_simclrhn_probe3,1,697,NaN,chair,chair,NaN,chair7-clock3.png,chair7-clock3.png,1.0,2.3425725,2.1915748,0.106771454
alexnet_w1_mlp_simclrhn_probe3,1,698,NaN,bicycle,chair,NaN,chair7-elephant1.png,chair7-elephant1.png,0.0,0.112673886,0.26101846,-0.10489546
alexnet_w1_mlp_simclrhn_probe3,1,699,NaN,oven,chair,NaN,chair7-knife2.png,chair7-knife2.png,0.0,1.5352526,1.9981663,-0.32732946
alexnet_w1_mlp_simclrhn_probe3,1,700,NaN,chair,chair,NaN,chair7-truck3.png,chair7-truck3.png,1.0,4.9855175,1.2823315,2.618548
alexnet_w1_mlp_simclrhn_probe3,1,701,NaN,chair,chair,NaN,chair8-airplane1.png,chair8-airplane1.png,1.0,2.4747434,1.8758492,0.4234821
alexnet_w1_mlp_simclrhn_probe3,1,702,NaN,bear,chair,NaN,chair8-bear1.png,chair8-bear1.png,0.0,-0.5357226,1.4202615,-1.3830897
alexnet_w1_mlp_simclrhn_probe3,1,703,NaN,bicycle,chair,NaN,chair8-bicycle3.png,chair8-bicycle3.png,0.0,0.39799547,1.1807508,-0.55349165
alexnet_w1_mlp_simclrhn_probe3,1,704,NaN,chair,chair,NaN,chair8-boat1.png,chair8-boat1.png,1.0,3.9351046,2.843544,0.77184993
alexnet_w1_mlp_simclrhn_probe3,1,705,NaN,bicycle,chair,NaN,chair8-car1.png,chair8-car1.png,0.0,1.9105146,2.5740232,-0.46917146
alexnet_w1_mlp_simclrhn_probe3,1,706,NaN,chair,chair,NaN,chair8-chair3.png,chair8-chair3.png,1.0,2.1153657,2.0637932,0.03646731
alexnet_w1_mlp_simclrhn_probe3,1,707,NaN,chair,chair,NaN,chair8-clock3.png,chair8-clock3.png,1.0,1.3759255,0.85208005,0.3704147
alexnet_w1_mlp_simclrhn_probe3,1,708,NaN,cat,chair,NaN,chair8-elephant1.png,chair8-elephant1.png,0.0,0.051688045,0.32556683,-0.19366154
alexnet_w1_mlp_simclrhn_probe3,1,709,NaN,airplane,chair,NaN,chair8-keyboard3.png,chair8-keyboard3.png,0.0,-0.56064934,0.71165955,-0.8996582
alexnet_w1_mlp_simclrhn_probe3,1,710,NaN,oven,chair,NaN,chair8-knife2.png,chair8-knife2.png,0.0,1.5509436,2.8142655,-0.89330345
alexnet_w1_mlp_simclrhn_probe3,1,711,NaN,knife,chair,NaN,chair8-oven1.png,chair8-oven1.png,0.0,2.1701171,3.5324063,-0.96328396
alexnet_w1_mlp_simclrhn_probe3,1,712,NaN,cat,chair,NaN,chair9-bear1.png,chair9-bear1.png,0.0,-0.58496225,2.051782,-1.8644596
alexnet_w1_mlp_simclrhn_probe3,1,713,NaN,bird,chair,NaN,chair9-bicycle3.png,chair9-bicycle3.png,0.0,0.22525041,1.2482425,-0.7233647
alexnet_w1_mlp_simclrhn_probe3,1,714,NaN,chair,chair,NaN,chair9-bird3.png,chair9-bird3.png,1.0,0.929387,0.6371459,0.20664567
alexnet_w1_mlp_simclrhn_probe3,1,715,NaN,chair,chair,NaN,chair9-boat2.png,chair9-boat2.png,1.0,3.1846082,2.9647303,0.1554772
alexnet_w1_mlp_simclrhn_probe3,1,716,NaN,bird,chair,NaN,chair9-bottle3.png,chair9-bottle3.png,0.0,0.35612053,1.5781739,-0.8641222
alexnet_w1_mlp_simclrhn_probe3,1,717,NaN,chair,chair,NaN,chair9-chair3.png,chair9-chair3.png,1.0,3.0017452,2.2158523,0.55571026
alexnet_w1_mlp_simclrhn_probe3,1,718,NaN,cat,chair,NaN,chair9-dog2.png,chair9-dog2.png,0.0,-0.2897469,2.0371716,-1.6453799
alexnet_w1_mlp_simclrhn_probe3,1,719,NaN,bicycle,chair,NaN,chair9-elephant1.png,chair9-elephant1.png,0.0,0.17664373,0.48571908,-0.21854928
alexnet_w1_mlp_simclrhn_probe3,1,720,NaN,keyboard,chair,NaN,chair9-keyboard2.png,chair9-keyboard2.png,0.0,0.37915802,1.1149548,-0.5202869
alexnet_w1_mlp_simclrhn_probe3,1,721,NaN,cat,clock,NaN,clock1-bear1.png,clock1-bear1.png,0.0,-0.3659481,1.4595103,-1.290794
alexnet_w1_mlp_simclrhn_probe3,1,722,NaN,airplane,clock,NaN,clock1-boat3.png,clock1-boat3.png,0.0,0.38673067,1.8072917,-1.0044883
alexnet_w1_mlp_simclrhn_probe3,1,723,NaN,bicycle,clock,NaN,clock1-car1.png,clock1-car1.png,0.0,-0.3259113,3.1960976,-2.4904363
alexnet_w1_mlp_simclrhn_probe3,1,724,NaN,clock,clock,NaN,clock1-clock2.png,clock1-clock2.png,1.0,1.6645327,1.3353219,0.23278716
alexnet_w1_mlp_simclrhn_probe3,1,725,NaN,oven,clock,NaN,clock1-dog2.png,clock1-dog2.png,0.0,0.13879992,1.4821515,-0.94989306
alexnet_w1_mlp_simclrhn_probe3,1,726,NaN,cat,clock,NaN,clock1-elephant2.png,clock1-elephant2.png,0.0,-0.40608522,0.8611283,-0.8960552
alexnet_w1_mlp_simclrhn_probe3,1,727,NaN,chair,clock,NaN,clock1-truck3.png,clock1-truck3.png,0.0,0.5891795,2.4522886,-1.3174171
alexnet_w1_mlp_simclrhn_probe3,1,728,NaN,bottle,clock,NaN,clock10-airplane1.png,clock10-airplane1.png,0.0,1.3395648,1.7181686,-0.26771334
alexnet_w1_mlp_simclrhn_probe3,1,729,NaN,clock,clock,NaN,clock10-bird3.png,clock10-bird3.png,1.0,2.3415978,0.9192212,1.0057722
alexnet_w1_mlp_simclrhn_probe3,1,730,NaN,bottle,clock,NaN,clock10-boat2.png,clock10-boat2.png,0.0,1.7391814,3.0880072,-0.9537639
alexnet_w1_mlp_simclrhn_probe3,1,731,NaN,bicycle,clock,NaN,clock10-bottle1.png,clock10-bottle1.png,0.0,0.2686585,1.0634301,-0.56198835
alexnet_w1_mlp_simclrhn_probe3,1,732,NaN,cat,clock,NaN,clock10-cat1.png,clock10-cat1.png,0.0,-0.03588343,1.9588766,-1.4105084
alexnet_w1_mlp_simclrhn_probe3,1,733,NaN,clock,clock,NaN,clock10-clock3.png,clock10-clock3.png,1.0,3.984604,1.6106111,1.6786665
alexnet_w1_mlp_simclrhn_probe3,1,734,NaN,dog,clock,NaN,clock10-dog3.png,clock10-dog3.png,0.0,0.21353804,1.463461,-0.88382906
alexnet_w1_mlp_simclrhn_probe3,1,735,NaN,bottle,clock,NaN,clock10-knife3.png,clock10-knife3.png,0.0,1.3643159,1.4456968,-0.057545032
alexnet_w1_mlp_simclrhn_probe3,1,736,NaN,bottle,clock,NaN,clock10-oven2.png,clock10-oven2.png,0.0,1.425937,3.6721652,-1.5883232
alexnet_w1_mlp_simclrhn_probe3,1,737,NaN,bottle,clock,NaN,clock10-truck2.png,clock10-truck2.png,0.0,2.078442,3.1905332,-0.7863671
alexnet_w1_mlp_simclrhn_probe3,1,738,NaN,clock,clock,NaN,clock2-bear2.png,clock2-bear2.png,1.0,0.93961954,0.8660066,0.052052204
alexnet_w1_mlp_simclrhn_probe3,1,739,NaN,clock,clock,NaN,clock2-bicycle1.png,clock2-bicycle1.png,1.0,4.841185,2.1236215,1.9216077
alexnet_w1_mlp_simclrhn_probe3,1,740,NaN,clock,clock,NaN,clock2-bottle3.png,clock2-bottle3.png,1.0,7.405018,2.48742,3.4772668
alexnet_w1_mlp_simclrhn_probe3,1,741,NaN,clock,clock,NaN,clock2-clock3.png,clock2-clock3.png,1.0,7.7432313,0.9041505,4.8359604
alexnet_w1_mlp_simclrhn_probe3,1,742,NaN,oven,clock,NaN,clock2-dog1.png,clock2-dog1.png,0.0,0.57080036,1.5025296,-0.6588321
alexnet_w1_mlp_simclrhn_probe3,1,743,NaN,clock,clock,NaN,clock2-elephant2.png,clock2-elephant2.png,1.0,0.6643793,0.30349788,0.2551817
alexnet_w1_mlp_simclrhn_probe3,1,744,NaN,clock,clock,NaN,clock2-knife1.png,clock2-knife1.png,1.0,2.406894,2.1325111,0.19401796
alexnet_w1_mlp_simclrhn_probe3,1,745,NaN,elephant,clock,NaN,clock3-bear3.png,clock3-bear3.png,0.0,0.26951346,1.4535491,-0.8372397
alexnet_w1_mlp_simclrhn_probe3,1,746,NaN,clock,clock,NaN,clock3-bicycle2.png,clock3-bicycle2.png,1.0,2.2022374,1.4190063,0.553828
alexnet_w1_mlp_simclrhn_probe3,1,747,NaN,clock,clock,NaN,clock3-bird1.png,clock3-bird1.png,1.0,0.5569868,0.31672347,0.16989185
alexnet_w1_mlp_simclrhn_probe3,1,748,NaN,bicycle,clock,NaN,clock3-car2.png,clock3-car2.png,0.0,1.0315096,4.97657,-2.7895792
alexnet_w1_mlp_simclrhn_probe3,1,749,NaN,oven,clock,NaN,clock3-cat1.png,clock3-cat1.png,0.0,1.0277084,1.0930796,-0.04622439
alexnet_w1_mlp_simclrhn_probe3,1,750,NaN,clock,clock,NaN,clock3-dog2.png,clock3-dog2.png,1.0,1.1720285,0.94925976,0.15752132
alexnet_w1_mlp_simclrhn_probe3,1,751,NaN,clock,clock,NaN,clock3-elephant3.png,clock3-elephant3.png,1.0,0.77326274,0.5502675,0.15768144
alexnet_w1_mlp_simclrhn_probe3,1,752,NaN,clock,clock,NaN,clock3-keyboard3.png,clock3-keyboard3.png,1.0,2.4185607,0.7863134,1.1541731
alexnet_w1_mlp_simclrhn_probe3,1,753,NaN,clock,clock,NaN,clock4-airplane1.png,clock4-airplane1.png,1.0,2.6335742,0.6888925,1.3750976
alexnet_w1_mlp_simclrhn_probe3,1,754,NaN,clock,clock,NaN,clock4-bird3.png,clock4-bird3.png,1.0,4.04526,1.8225291,1.5717081
alexnet_w1_mlp_simclrhn_probe3,1,755,NaN,oven,clock,NaN,clock4-boat3.png,clock4-boat3.png,0.0,1.5564194,4.1634007,-1.8434142
alexnet_w1_mlp_simclrhn_probe3,1,756,NaN,clock,clock,NaN,clock4-bottle3.png,clock4-bottle3.png,1.0,3.526949,2.0004978,1.079364
alexnet_w1_mlp_simclrhn_probe3,1,757,NaN,bicycle,clock,NaN,clock4-car2.png,clock4-car2.png,0.0,-0.055355866,2.6941338,-1.9441828
alexnet_w1_mlp_simclrhn_probe3,1,758,NaN,car,clock,NaN,clock4-chair1.png,clock4-chair1.png,0.0,2.4076567,3.415204,-0.7124436
alexnet_w1_mlp_simclrhn_probe3,1,759,NaN,cat,clock,NaN,clock4-elephant2.png,clock4-elephant2.png,0.0,-0.4290311,0.9617626,-0.9834397
alexnet_w1_mlp_simclrhn_probe3,1,760,NaN,clock,clock,NaN,clock4-knife1.png,clock4-knife1.png,1.0,1.8659396,1.164795,0.4957841
alexnet_w1_mlp_simclrhn_probe3,1,761,NaN,clock,clock,NaN,clock4-oven1.png,clock4-oven1.png,1.0,2.3543012,2.1947532,0.1128175
alexnet_w1_mlp_simclrhn_probe3,1,762,NaN,clock,clock,NaN,clock5-airplane1.png,clock5-airplane1.png,1.0,4.7948413,1.0450826,2.65148
alexnet_w1_mlp_simclrhn_probe3,1,763,NaN,clock,clock,NaN,clock5-bicycle1.png,clock5-bicycle1.png,1.0,4.050355,1.9993198,1.4503009
alexnet_w1_mlp_simclrhn_probe3,1,764,NaN,clock,clock,NaN,clock5-chair3.png,clock5-chair3.png,1.0,4.7370934,3.2023528,1.0852256
alexnet_w1_mlp_simclrhn_probe3,1,765,NaN,clock,clock,NaN,clock5-clock2.png,clock5-clock2.png,1.0,10.852612,2.2064204,6.11378
alexnet_w1_mlp_simclrhn_probe3,1,766,NaN,clock,clock,NaN,clock5-elephant2.png,clock5-elephant2.png,1.0,0.27368605,0.1418988,0.09318766
alexnet_w1_mlp_simclrhn_probe3,1,767,NaN,clock,clock,NaN,clock5-keyboard1.png,clock5-keyboard1.png,1.0,4.9317117,0.8291269,2.9009657
alexnet_w1_mlp_simclrhn_probe3,1,768,NaN,knife,clock,NaN,clock5-oven1.png,clock5-oven1.png,0.0,2.2442725,2.5526698,-0.21806982
alexnet_w1_mlp_simclrhn_probe3,1,769,NaN,clock,clock,NaN,clock6-bicycle1.png,clock6-bicycle1.png,1.0,2.6854522,1.8482351,0.5920019
alexnet_w1_mlp_simclrhn_probe3,1,770,NaN,clock,clock,NaN,clock6-bird3.png,clock6-bird3.png,1.0,6.5811563,1.1280749,3.8559108
