subj,session,trial,rt,object_response,category,condition,imagename,filename,is_correct,targ_act,max_nontarg_act,decision_margin
alexnet_w3_mlp_simclrhn_probe0,1,1,NaN,bicycle,airplane,NaN,airplane1-bicycle2.png,airplane1-bicycle2.png,0.0,-14.034528,-1.3596187,-8.962515
alexnet_w3_mlp_simclrhn_probe0,1,2,NaN,bicycle,airplane,NaN,airplane1-chair2.png,airplane1-chair2.png,0.0,-6.177355,-2.794733,-2.3918748
alexnet_w3_mlp_simclrhn_probe0,1,3,NaN,bicycle,airplane,NaN,airplane1-clock1.png,airplane1-clock1.png,0.0,-11.345272,-3.5754738,-5.494077
alexnet_w3_mlp_simclrhn_probe0,1,4,NaN,cat,airplane,NaN,airplane1-elephant1.png,airplane1-elephant1.png,0.0,-10.833483,-1.6987644,-6.459221
alexnet_w3_mlp_simclrhn_probe0,1,5,NaN,airplane,airplane,NaN,airplane10-airplane1.png,airplane10-airplane1.png,1.0,4.5655704,-3.0012536,5.3505526
alexnet_w3_mlp_simclrhn_probe0,1,6,NaN,cat,airplane,NaN,airplane10-bear3.png,airplane10-bear3.png,0.0,-17.924484,-1.4596796,-11.642376
alexnet_w3_mlp_simclrhn_probe0,1,7,NaN,airplane,airplane,NaN,airplane10-boat3.png,airplane10-boat3.png,1.0,-0.23013428,-3.4081125,2.24717
alexnet_w3_mlp_simclrhn_probe0,1,8,NaN,bicycle,airplane,NaN,airplane10-car3.png,airplane10-car3.png,0.0,-4.8759828,-4.4145074,-0.32631236
alexnet_w3_mlp_simclrhn_probe0,1,9,NaN,cat,airplane,NaN,airplane10-cat2.png,airplane10-cat2.png,0.0,-9.985599,-0.21588139,-6.9082336
alexnet_w3_mlp_simclrhn_probe0,1,10,NaN,cat,airplane,NaN,airplane10-dog3.png,airplane10-dog3.png,0.0,-11.776239,0.04346776,-8.357795
alexnet_w3_mlp_simclrhn_probe0,1,11,NaN,cat,airplane,NaN,airplane10-elephant1.png,airplane10-elephant1.png,0.0,-8.410097,-2.0821812,-4.4745126
alexnet_w3_mlp_simclrhn_probe0,1,12,NaN,knife,airplane,NaN,airplane10-knife3.png,airplane10-knife3.png,0.0,-1.5884364,-1.169769,-0.2960425
alexnet_w3_mlp_simclrhn_probe0,1,13,NaN,airplane,airplane,NaN,airplane10-oven2.png,airplane10-oven2.png,1.0,1.372328,-0.79433906,1.5320649
alexnet_w3_mlp_simclrhn_probe0,1,14,NaN,chair,airplane,NaN,airplane10-truck1.png,airplane10-truck1.png,0.0,-2.5334263,-2.1258812,-0.2881779
alexnet_w3_mlp_simclrhn_probe0,1,15,NaN,bear,airplane,NaN,airplane2-bear1.png,airplane2-bear1.png,0.0,-14.12441,-0.77187204,-9.441669
alexnet_w3_mlp_simclrhn_probe0,1,16,NaN,bicycle,airplane,NaN,airplane2-bicycle1.png,airplane2-bicycle1.png,0.0,-16.955862,-4.6910114,-8.672559
alexnet_w3_mlp_simclrhn_probe0,1,17,NaN,airplane,airplane,NaN,airplane2-bird3.png,airplane2-bird3.png,1.0,-1.5350945,-6.0752573,3.21038
alexnet_w3_mlp_simclrhn_probe0,1,18,NaN,bicycle,airplane,NaN,airplane2-bottle1.png,airplane2-bottle1.png,0.0,-6.824251,-4.2636375,-1.8106273
alexnet_w3_mlp_simclrhn_probe0,1,19,NaN,cat,airplane,NaN,airplane2-cat1.png,airplane2-cat1.png,0.0,-11.12164,-0.7240445,-7.3522105
alexnet_w3_mlp_simclrhn_probe0,1,20,NaN,cat,airplane,NaN,airplane2-dog1.png,airplane2-dog1.png,0.0,-15.633821,-0.7850451,-10.49967
alexnet_w3_mlp_simclrhn_probe0,1,21,NaN,airplane,airplane,NaN,airplane3-airplane2.png,airplane3-airplane2.png,1.0,0.94651306,-3.1612768,2.9046462
alexnet_w3_mlp_simclrhn_probe0,1,22,NaN,bicycle,airplane,NaN,airplane3-car1.png,airplane3-car1.png,0.0,-9.210458,-2.669422,-4.625211
alexnet_w3_mlp_simclrhn_probe0,1,23,NaN,cat,airplane,NaN,airplane3-cat1.png,airplane3-cat1.png,0.0,-12.469574,-0.69140965,-8.32842
alexnet_w3_mlp_simclrhn_probe0,1,24,NaN,airplane,airplane,NaN,airplane3-chair3.png,airplane3-chair3.png,1.0,1.2719725,-4.1972256,3.8673072
alexnet_w3_mlp_simclrhn_probe0,1,25,NaN,bicycle,airplane,NaN,airplane3-clock1.png,airplane3-clock1.png,0.0,-11.152708,-5.562356,-3.952976
alexnet_w3_mlp_simclrhn_probe0,1,26,NaN,cat,airplane,NaN,airplane3-dog1.png,airplane3-dog1.png,0.0,-13.767796,-0.9991271,-9.028812
alexnet_w3_mlp_simclrhn_probe0,1,27,NaN,cat,airplane,NaN,airplane3-elephant1.png,airplane3-elephant1.png,0.0,-10.109039,-1.8189036,-5.862011
alexnet_w3_mlp_simclrhn_probe0,1,28,NaN,airplane,airplane,NaN,airplane3-keyboard2.png,airplane3-keyboard2.png,1.0,-0.71601915,-2.3358312,1.14538
alexnet_w3_mlp_simclrhn_probe0,1,29,NaN,airplane,airplane,NaN,airplane3-oven1.png,airplane3-oven1.png,1.0,1.8645588,-1.7046062,2.5237808
alexnet_w3_mlp_simclrhn_probe0,1,30,NaN,airplane,airplane,NaN,airplane4-airplane1.png,airplane4-airplane1.png,1.0,0.5614486,-4.596779,3.6474178
alexnet_w3_mlp_simclrhn_probe0,1,31,NaN,elephant,airplane,NaN,airplane4-bear3.png,airplane4-bear3.png,0.0,-15.967674,-0.34024048,-11.050264
alexnet_w3_mlp_simclrhn_probe0,1,32,NaN,bicycle,airplane,NaN,airplane4-bicycle2.png,airplane4-bicycle2.png,0.0,-12.615557,-2.3672237,-7.246666
alexnet_w3_mlp_simclrhn_probe0,1,33,NaN,airplane,airplane,NaN,airplane4-bird3.png,airplane4-bird3.png,1.0,2.611394,-5.8949547,6.014897
alexnet_w3_mlp_simclrhn_probe0,1,34,NaN,airplane,airplane,NaN,airplane4-boat3.png,airplane4-boat3.png,1.0,-0.41070372,-3.982458,2.5256119
alexnet_w3_mlp_simclrhn_probe0,1,35,NaN,bicycle,airplane,NaN,airplane4-bottle1.png,airplane4-bottle1.png,0.0,-5.25274,-3.5824523,-1.1810718
alexnet_w3_mlp_simclrhn_probe0,1,36,NaN,bicycle,airplane,NaN,airplane4-car1.png,airplane4-car1.png,0.0,-8.061594,-5.115642,-2.0831027
alexnet_w3_mlp_simclrhn_probe0,1,37,NaN,cat,airplane,NaN,airplane4-cat3.png,airplane4-cat3.png,0.0,-7.023631,-1.3939981,-3.9807518
alexnet_w3_mlp_simclrhn_probe0,1,38,NaN,cat,airplane,NaN,airplane4-dog2.png,airplane4-dog2.png,0.0,-9.325916,-0.76465034,-6.0537295
alexnet_w3_mlp_simclrhn_probe0,1,39,NaN,cat,airplane,NaN,airplane4-elephant1.png,airplane4-elephant1.png,0.0,-8.720968,-2.3351362,-4.5154653
alexnet_w3_mlp_simclrhn_probe0,1,40,NaN,airplane,airplane,NaN,airplane4-keyboard3.png,airplane4-keyboard3.png,1.0,1.0085273,-1.2554282,1.6008583
alexnet_w3_mlp_simclrhn_probe0,1,41,NaN,airplane,airplane,NaN,airplane4-knife1.png,airplane4-knife1.png,1.0,-5.1212378,-5.8240924,0.49699327
alexnet_w3_mlp_simclrhn_probe0,1,42,NaN,truck,airplane,NaN,airplane4-truck2.png,airplane4-truck2.png,0.0,-5.9944563,-2.679931,-2.3437233
alexnet_w3_mlp_simclrhn_probe0,1,43,NaN,elephant,airplane,NaN,airplane5-bear2.png,airplane5-bear2.png,0.0,-14.230251,0.4568755,-10.385367
alexnet_w3_mlp_simclrhn_probe0,1,44,NaN,bicycle,airplane,NaN,airplane5-bicycle1.png,airplane5-bicycle1.png,0.0,-17.364979,-2.3105893,-10.6450615
alexnet_w3_mlp_simclrhn_probe0,1,45,NaN,bird,airplane,NaN,airplane5-bird2.png,airplane5-bird2.png,0.0,-10.378124,-4.095271,-4.442648
alexnet_w3_mlp_simclrhn_probe0,1,46,NaN,airplane,airplane,NaN,airplane5-boat3.png,airplane5-boat3.png,1.0,-4.0263863,-4.392701,0.25902376
alexnet_w3_mlp_simclrhn_probe0,1,47,NaN,bicycle,airplane,NaN,airplane5-bottle3.png,airplane5-bottle3.png,0.0,-11.899137,-4.4584885,-5.261333
alexnet_w3_mlp_simclrhn_probe0,1,48,NaN,airplane,airplane,NaN,airplane5-chair3.png,airplane5-chair3.png,1.0,2.524984,-4.1954165,4.752041
alexnet_w3_mlp_simclrhn_probe0,1,49,NaN,cat,airplane,NaN,airplane5-dog3.png,airplane5-dog3.png,0.0,-14.92602,0.50841457,-10.913794
alexnet_w3_mlp_simclrhn_probe0,1,50,NaN,knife,airplane,NaN,airplane5-knife1.png,airplane5-knife1.png,0.0,-7.8404727,-5.8256035,-1.4247277
alexnet_w3_mlp_simclrhn_probe0,1,51,NaN,chair,airplane,NaN,airplane5-oven3.png,airplane5-oven3.png,0.0,-3.3955903,-0.6856092,-1.9162459
alexnet_w3_mlp_simclrhn_probe0,1,52,NaN,cat,airplane,NaN,airplane6-bear3.png,airplane6-bear3.png,0.0,-18.385721,-1.4810878,-11.953381
alexnet_w3_mlp_simclrhn_probe0,1,53,NaN,bottle,airplane,NaN,airplane6-bottle2.png,airplane6-bottle2.png,0.0,-8.567188,-3.9456565,-3.2679162
alexnet_w3_mlp_simclrhn_probe0,1,54,NaN,airplane,airplane,NaN,airplane6-chair3.png,airplane6-chair3.png,1.0,0.9292637,-5.003475,4.19508
alexnet_w3_mlp_simclrhn_probe0,1,55,NaN,airplane,airplane,NaN,airplane6-keyboard3.png,airplane6-keyboard3.png,1.0,0.57203937,-1.0098029,1.1185315
alexnet_w3_mlp_simclrhn_probe0,1,56,NaN,bicycle,airplane,NaN,airplane6-knife1.png,airplane6-knife1.png,0.0,-5.6635923,-4.6437435,-0.72114205
alexnet_w3_mlp_simclrhn_probe0,1,57,NaN,airplane,airplane,NaN,airplane7-airplane3.png,airplane7-airplane3.png,1.0,3.949925,-2.6867523,4.6928396
alexnet_w3_mlp_simclrhn_probe0,1,58,NaN,airplane,airplane,NaN,airplane7-bird3.png,airplane7-bird3.png,1.0,-1.5058084,-6.1000338,3.248608
alexnet_w3_mlp_simclrhn_probe0,1,59,NaN,boat,airplane,NaN,airplane7-boat2.png,airplane7-boat2.png,0.0,-2.988951,-2.4750104,-0.36341086
alexnet_w3_mlp_simclrhn_probe0,1,60,NaN,bicycle,airplane,NaN,airplane7-bottle3.png,airplane7-bottle3.png,0.0,-10.705529,-7.5176487,-2.254172
alexnet_w3_mlp_simclrhn_probe0,1,61,NaN,bicycle,airplane,NaN,airplane7-car1.png,airplane7-car1.png,0.0,-5.6934404,-3.5643537,-1.5054917
alexnet_w3_mlp_simclrhn_probe0,1,62,NaN,cat,airplane,NaN,airplane7-cat3.png,airplane7-cat3.png,0.0,-7.7613277,-1.3614789,-4.525377
alexnet_w3_mlp_simclrhn_probe0,1,63,NaN,car,airplane,NaN,airplane7-clock3.png,airplane7-clock3.png,0.0,-6.934015,-6.0232396,-0.6440153
alexnet_w3_mlp_simclrhn_probe0,1,64,NaN,airplane,airplane,NaN,airplane7-keyboard1.png,airplane7-keyboard1.png,1.0,-2.560632,-4.387209,1.291585
alexnet_w3_mlp_simclrhn_probe0,1,65,NaN,chair,airplane,NaN,airplane7-truck1.png,airplane7-truck1.png,0.0,-5.628962,-1.8104181,-2.7001183
alexnet_w3_mlp_simclrhn_probe0,1,66,NaN,bicycle,airplane,NaN,airplane8-bicycle3.png,airplane8-bicycle3.png,0.0,-14.4484215,-4.3018,-7.174745
alexnet_w3_mlp_simclrhn_probe0,1,67,NaN,cat,airplane,NaN,airplane8-bird1.png,airplane8-bird1.png,0.0,-4.510466,-2.567395,-1.3739588
alexnet_w3_mlp_simclrhn_probe0,1,68,NaN,airplane,airplane,NaN,airplane8-chair1.png,airplane8-chair1.png,1.0,1.1521224,-3.2714026,3.1279044
alexnet_w3_mlp_simclrhn_probe0,1,69,NaN,car,airplane,NaN,airplane8-clock2.png,airplane8-clock2.png,0.0,-6.874087,-6.5480447,-0.23054664
alexnet_w3_mlp_simclrhn_probe0,1,70,NaN,bird,airplane,NaN,airplane8-elephant3.png,airplane8-elephant3.png,0.0,-8.937679,-1.9468683,-4.9432497
alexnet_w3_mlp_simclrhn_probe0,1,71,NaN,airplane,airplane,NaN,airplane8-oven2.png,airplane8-oven2.png,1.0,-0.1930657,-1.3552659,0.82179964
alexnet_w3_mlp_simclrhn_probe0,1,72,NaN,airplane,airplane,NaN,airplane8-truck3.png,airplane8-truck3.png,1.0,-0.3094287,-3.1846087,2.0330594
alexnet_w3_mlp_simclrhn_probe0,1,73,NaN,airplane,airplane,NaN,airplane9-airplane2.png,airplane9-airplane2.png,1.0,3.1041696,-1.7640427,3.4423459
alexnet_w3_mlp_simclrhn_probe0,1,74,NaN,airplane,airplane,NaN,airplane9-boat1.png,airplane9-boat1.png,1.0,-0.73368514,-2.378813,1.1632811
alexnet_w3_mlp_simclrhn_probe0,1,75,NaN,bicycle,airplane,NaN,airplane9-car2.png,airplane9-car2.png,0.0,-4.994289,-2.0049844,-2.1137576
alexnet_w3_mlp_simclrhn_probe0,1,76,NaN,bicycle,airplane,NaN,airplane9-clock1.png,airplane9-clock1.png,0.0,-12.189312,-5.1073475,-5.007705
alexnet_w3_mlp_simclrhn_probe0,1,77,NaN,airplane,airplane,NaN,airplane9-keyboard2.png,airplane9-keyboard2.png,1.0,-1.1164026,-2.0783346,0.6801886
alexnet_w3_mlp_simclrhn_probe0,1,78,NaN,knife,airplane,NaN,airplane9-knife3.png,airplane9-knife3.png,0.0,-2.9255917,-1.7423638,-0.8366685
alexnet_w3_mlp_simclrhn_probe0,1,79,NaN,truck,airplane,NaN,airplane9-oven2.png,airplane9-oven2.png,0.0,-2.087397,-1.9472592,-0.09909247
alexnet_w3_mlp_simclrhn_probe0,1,80,NaN,chair,airplane,NaN,airplane9-truck1.png,airplane9-truck1.png,0.0,-5.4601097,-0.33461392,-3.624273
alexnet_w3_mlp_simclrhn_probe0,1,81,NaN,elephant,bear,NaN,bear1-airplane3.png,bear1-airplane3.png,0.0,-9.13674,-3.5331154,-3.9623609
alexnet_w3_mlp_simclrhn_probe0,1,82,NaN,elephant,bear,NaN,bear1-bear3.png,bear1-bear3.png,0.0,1.2677299,1.359468,-0.06486864
alexnet_w3_mlp_simclrhn_probe0,1,83,NaN,elephant,bear,NaN,bear1-bicycle3.png,bear1-bicycle3.png,0.0,-8.422295,-4.056954,-3.0867622
alexnet_w3_mlp_simclrhn_probe0,1,84,NaN,elephant,bear,NaN,bear1-bird2.png,bear1-bird2.png,0.0,-6.082554,-2.27105,-2.6951404
alexnet_w3_mlp_simclrhn_probe0,1,85,NaN,chair,bear,NaN,bear1-chair2.png,bear1-chair2.png,0.0,-9.450825,-2.62748,-4.8248334
alexnet_w3_mlp_simclrhn_probe0,1,86,NaN,bottle,bear,NaN,bear1-clock2.png,bear1-clock2.png,0.0,-16.931728,-7.464189,-6.694561
alexnet_w3_mlp_simclrhn_probe0,1,87,NaN,cat,bear,NaN,bear1-elephant1.png,bear1-elephant1.png,0.0,-3.9188557,-1.2548176,-1.8837595
alexnet_w3_mlp_simclrhn_probe0,1,88,NaN,bear,bear,NaN,bear10-bear2.png,bear10-bear2.png,1.0,1.2172331,0.50499505,0.5036283
alexnet_w3_mlp_simclrhn_probe0,1,89,NaN,bicycle,bear,NaN,bear10-bottle1.png,bear10-bottle1.png,0.0,-8.725016,-4.62669,-2.897954
alexnet_w3_mlp_simclrhn_probe0,1,90,NaN,bicycle,bear,NaN,bear10-car2.png,bear10-car2.png,0.0,-12.588845,-2.5015233,-7.132814
alexnet_w3_mlp_simclrhn_probe0,1,91,NaN,cat,bear,NaN,bear10-cat2.png,bear10-cat2.png,0.0,-0.7519485,0.543021,-0.9156818
alexnet_w3_mlp_simclrhn_probe0,1,92,NaN,chair,bear,NaN,bear10-chair2.png,bear10-chair2.png,0.0,-11.134092,-3.5377495,-5.3714256
alexnet_w3_mlp_simclrhn_probe0,1,93,NaN,bicycle,bear,NaN,bear10-clock1.png,bear10-clock1.png,0.0,-15.863336,-3.5473442,-8.708721
alexnet_w3_mlp_simclrhn_probe0,1,94,NaN,cat,bear,NaN,bear10-elephant1.png,bear10-elephant1.png,0.0,-4.420322,-2.1894095,-1.5774933
alexnet_w3_mlp_simclrhn_probe0,1,95,NaN,clock,bear,NaN,bear10-keyboard3.png,bear10-keyboard3.png,0.0,-8.070695,-2.4100654,-4.0026693
alexnet_w3_mlp_simclrhn_probe0,1,96,NaN,oven,bear,NaN,bear10-knife2.png,bear10-knife2.png,0.0,-6.9539175,-3.641211,-2.3424373
alexnet_w3_mlp_simclrhn_probe0,1,97,NaN,oven,bear,NaN,bear10-oven1.png,bear10-oven1.png,0.0,-8.43112,-1.0788718,-5.1988244
alexnet_w3_mlp_simclrhn_probe0,1,98,NaN,chair,bear,NaN,bear10-truck1.png,bear10-truck1.png,0.0,-15.037422,-3.3639443,-8.2543955
alexnet_w3_mlp_simclrhn_probe0,1,99,NaN,chair,bear,NaN,bear2-airplane1.png,bear2-airplane1.png,0.0,-8.847618,-4.3561807,-3.175926
alexnet_w3_mlp_simclrhn_probe0,1,100,NaN,elephant,bear,NaN,bear2-bird3.png,bear2-bird3.png,0.0,-4.2252216,-2.8019443,-1.006409
alexnet_w3_mlp_simclrhn_probe0,1,101,NaN,bicycle,bear,NaN,bear2-car2.png,bear2-car2.png,0.0,-12.031982,-2.8676229,-6.480181
alexnet_w3_mlp_simclrhn_probe0,1,102,NaN,bear,bear,NaN,bear2-cat2.png,bear2-cat2.png,1.0,1.3242964,1.1342511,0.13438228
alexnet_w3_mlp_simclrhn_probe0,1,103,NaN,bear,bear,NaN,bear2-dog1.png,bear2-dog1.png,1.0,1.4428651,0.40187576,0.73609066
alexnet_w3_mlp_simclrhn_probe0,1,104,NaN,elephant,bear,NaN,bear2-elephant1.png,bear2-elephant1.png,0.0,-3.5223722,-1.0422635,-1.7537017
alexnet_w3_mlp_simclrhn_probe0,1,105,NaN,clock,bear,NaN,bear2-keyboard2.png,bear2-keyboard2.png,0.0,-12.961177,-1.5590452,-8.062525
alexnet_w3_mlp_simclrhn_probe0,1,106,NaN,oven,bear,NaN,bear2-knife2.png,bear2-knife2.png,0.0,-7.013774,-3.2869365,-2.635272
alexnet_w3_mlp_simclrhn_probe0,1,107,NaN,knife,bear,NaN,bear2-oven1.png,bear2-oven1.png,0.0,-7.962236,-0.25168985,-5.4521794
alexnet_w3_mlp_simclrhn_probe0,1,108,NaN,elephant,bear,NaN,bear3-airplane1.png,bear3-airplane1.png,0.0,-7.806916,-4.0798483,-2.635435
alexnet_w3_mlp_simclrhn_probe0,1,109,NaN,bird,bear,NaN,bear3-bicycle2.png,bear3-bicycle2.png,0.0,-7.9485636,-4.063235,-2.7473423
alexnet_w3_mlp_simclrhn_probe0,1,110,NaN,elephant,bear,NaN,bear3-bird3.png,bear3-bird3.png,0.0,-6.1866956,-2.319398,-2.7345924
alexnet_w3_mlp_simclrhn_probe0,1,111,NaN,bicycle,bear,NaN,bear3-car2.png,bear3-car2.png,0.0,-12.229743,-3.9791403,-5.8340573
alexnet_w3_mlp_simclrhn_probe0,1,112,NaN,cat,bear,NaN,bear3-cat1.png,bear3-cat1.png,0.0,0.31056193,1.3938662,-0.76601183
alexnet_w3_mlp_simclrhn_probe0,1,113,NaN,chair,bear,NaN,bear3-chair2.png,bear3-chair2.png,0.0,-10.845327,-2.4205868,-5.9571915
alexnet_w3_mlp_simclrhn_probe0,1,114,NaN,elephant,bear,NaN,bear3-dog3.png,bear3-dog3.png,0.0,-2.4570518,0.20895931,-1.8851546
alexnet_w3_mlp_simclrhn_probe0,1,115,NaN,keyboard,bear,NaN,bear3-keyboard2.png,bear3-keyboard2.png,0.0,-12.612671,0.09875715,-8.988337
alexnet_w3_mlp_simclrhn_probe0,1,116,NaN,truck,bear,NaN,bear3-truck3.png,bear3-truck3.png,0.0,-13.078691,-1.7013946,-8.044964
alexnet_w3_mlp_simclrhn_probe0,1,117,NaN,bicycle,bear,NaN,bear4-boat2.png,bear4-boat2.png,0.0,-15.496016,-3.0859303,-8.775256
alexnet_w3_mlp_simclrhn_probe0,1,118,NaN,bicycle,bear,NaN,bear4-car3.png,bear4-car3.png,0.0,-14.285545,-4.4592986,-6.9482055
alexnet_w3_mlp_simclrhn_probe0,1,119,NaN,bear,bear,NaN,bear4-cat3.png,bear4-cat3.png,1.0,0.18310553,-1.9123307,1.4816973
alexnet_w3_mlp_simclrhn_probe0,1,120,NaN,bottle,bear,NaN,bear4-clock3.png,bear4-clock3.png,0.0,-15.902767,-6.4711866,-6.6691346
alexnet_w3_mlp_simclrhn_probe0,1,121,NaN,elephant,bear,NaN,bear4-elephant2.png,bear4-elephant2.png,0.0,-4.9781237,-0.5007924,-3.1659513
alexnet_w3_mlp_simclrhn_probe0,1,122,NaN,clock,bear,NaN,bear4-keyboard3.png,bear4-keyboard3.png,0.0,-10.0419445,-2.278933,-5.4892783
alexnet_w3_mlp_simclrhn_probe0,1,123,NaN,elephant,bear,NaN,bear4-knife1.png,bear4-knife1.png,0.0,-10.761124,-5.9472694,-3.403909
alexnet_w3_mlp_simclrhn_probe0,1,124,NaN,elephant,bear,NaN,bear4-oven2.png,bear4-oven2.png,0.0,-7.3315783,-2.6090488,-3.3393326
alexnet_w3_mlp_simclrhn_probe0,1,125,NaN,bottle,bear,NaN,bear4-truck3.png,bear4-truck3.png,0.0,-12.781891,-3.3435118,-6.673942
alexnet_w3_mlp_simclrhn_probe0,1,126,NaN,knife,bear,NaN,bear5-airplane3.png,bear5-airplane3.png,0.0,-12.13935,-5.079679,-4.9919415
alexnet_w3_mlp_simclrhn_probe0,1,127,NaN,bicycle,bear,NaN,bear5-bicycle3.png,bear5-bicycle3.png,0.0,-8.56678,-3.5113368,-3.5747383
alexnet_w3_mlp_simclrhn_probe0,1,128,NaN,elephant,bear,NaN,bear5-bird1.png,bear5-bird1.png,0.0,-3.5465071,-1.0021231,-1.7991512
alexnet_w3_mlp_simclrhn_probe0,1,129,NaN,bicycle,bear,NaN,bear5-boat2.png,bear5-boat2.png,0.0,-12.622698,-2.3382668,-7.2721915
alexnet_w3_mlp_simclrhn_probe0,1,130,NaN,bicycle,bear,NaN,bear5-bottle1.png,bear5-bottle1.png,0.0,-8.921805,-3.8446784,-3.590071
alexnet_w3_mlp_simclrhn_probe0,1,131,NaN,bottle,bear,NaN,bear5-chair1.png,bear5-chair1.png,0.0,-14.565168,-4.681028,-6.9891424
alexnet_w3_mlp_simclrhn_probe0,1,132,NaN,elephant,bear,NaN,bear5-oven3.png,bear5-oven3.png,0.0,-9.414705,-1.6638498,-5.4806824
alexnet_w3_mlp_simclrhn_probe0,1,133,NaN,bear,bear,NaN,bear6-bear1.png,bear6-bear1.png,1.0,1.1209792,0.33787453,0.5537386
alexnet_w3_mlp_simclrhn_probe0,1,134,NaN,cat,bear,NaN,bear6-bird2.png,bear6-bird2.png,0.0,-6.4603224,-3.1662982,-2.329227
alexnet_w3_mlp_simclrhn_probe0,1,135,NaN,bottle,bear,NaN,bear6-boat3.png,bear6-boat3.png,0.0,-9.746762,-3.5103564,-4.409805
alexnet_w3_mlp_simclrhn_probe0,1,136,NaN,bicycle,bear,NaN,bear6-bottle3.png,bear6-bottle3.png,0.0,-14.726075,-6.5659046,-5.770112
alexnet_w3_mlp_simclrhn_probe0,1,137,NaN,bicycle,bear,NaN,bear6-car2.png,bear6-car2.png,0.0,-12.974884,-4.193161,-6.209616
alexnet_w3_mlp_simclrhn_probe0,1,138,NaN,cat,bear,NaN,bear6-cat3.png,bear6-cat3.png,0.0,-1.1147668,-0.2228636,-0.63067085
alexnet_w3_mlp_simclrhn_probe0,1,139,NaN,bottle,bear,NaN,bear6-chair1.png,bear6-chair1.png,0.0,-15.920305,-4.1693683,-8.309167
alexnet_w3_mlp_simclrhn_probe0,1,140,NaN,bicycle,bear,NaN,bear6-clock1.png,bear6-clock1.png,0.0,-14.75938,-3.7205997,-7.8055964
alexnet_w3_mlp_simclrhn_probe0,1,141,NaN,bear,bear,NaN,bear7-bear2.png,bear7-bear2.png,1.0,1.1986272,0.06324795,0.80283445
alexnet_w3_mlp_simclrhn_probe0,1,142,NaN,bird,bear,NaN,bear7-bicycle2.png,bear7-bicycle2.png,0.0,-7.7238564,-4.3838944,-2.3617098
alexnet_w3_mlp_simclrhn_probe0,1,143,NaN,elephant,bear,NaN,bear7-clock1.png,bear7-clock1.png,0.0,-13.14459,-6.068181,-5.003777
alexnet_w3_mlp_simclrhn_probe0,1,144,NaN,bear,bear,NaN,bear7-dog3.png,bear7-dog3.png,1.0,0.1286972,-0.3541953,0.34145656
alexnet_w3_mlp_simclrhn_probe0,1,145,NaN,chair,bear,NaN,bear7-oven3.png,bear7-oven3.png,0.0,-9.405619,-0.55126494,-6.260974
alexnet_w3_mlp_simclrhn_probe0,1,146,NaN,chair,bear,NaN,bear7-truck1.png,bear7-truck1.png,0.0,-16.010176,-1.9264784,-9.958678
alexnet_w3_mlp_simclrhn_probe0,1,147,NaN,chair,bear,NaN,bear8-airplane1.png,bear8-airplane1.png,0.0,-9.9230175,-4.242563,-4.0166883
alexnet_w3_mlp_simclrhn_probe0,1,148,NaN,bear,bear,NaN,bear8-bear1.png,bear8-bear1.png,1.0,2.2025092,-0.1178514,1.6407428
alexnet_w3_mlp_simclrhn_probe0,1,149,NaN,bicycle,bear,NaN,bear8-bicycle3.png,bear8-bicycle3.png,0.0,-10.008675,-4.2523155,-4.0703607
alexnet_w3_mlp_simclrhn_probe0,1,150,NaN,bicycle,bear,NaN,bear8-boat2.png,bear8-boat2.png,0.0,-12.507315,-2.4715374,-7.096366
alexnet_w3_mlp_simclrhn_probe0,1,151,NaN,bicycle,bear,NaN,bear8-bottle1.png,bear8-bottle1.png,0.0,-8.424824,-3.6108546,-3.4039903
alexnet_w3_mlp_simclrhn_probe0,1,152,NaN,bear,bear,NaN,bear8-dog1.png,bear8-dog1.png,1.0,1.0518456,-0.7297821,1.259801
alexnet_w3_mlp_simclrhn_probe0,1,153,NaN,elephant,bear,NaN,bear8-elephant2.png,bear8-elephant2.png,0.0,-4.46302,-0.07831502,-3.1004543
alexnet_w3_mlp_simclrhn_probe0,1,154,NaN,elephant,bear,NaN,bear8-knife3.png,bear8-knife3.png,0.0,-7.370429,-1.8427757,-3.908641
alexnet_w3_mlp_simclrhn_probe0,1,155,NaN,bottle,bear,NaN,bear8-truck3.png,bear8-truck3.png,0.0,-15.492245,-2.156958,-9.429472
alexnet_w3_mlp_simclrhn_probe0,1,156,NaN,oven,bear,NaN,bear9-boat2.png,bear9-boat2.png,0.0,-11.513458,-3.9044082,-5.3804107
alexnet_w3_mlp_simclrhn_probe0,1,157,NaN,bottle,bear,NaN,bear9-bottle2.png,bear9-bottle2.png,0.0,-14.529548,-3.2459197,-7.97873
alexnet_w3_mlp_simclrhn_probe0,1,158,NaN,bear,bear,NaN,bear9-dog1.png,bear9-dog1.png,1.0,2.1906796,0.35623303,1.2971497
alexnet_w3_mlp_simclrhn_probe0,1,159,NaN,keyboard,bear,NaN,bear9-keyboard3.png,bear9-keyboard3.png,0.0,-10.596127,-0.967258,-6.808638
alexnet_w3_mlp_simclrhn_probe0,1,160,NaN,oven,bear,NaN,bear9-knife2.png,bear9-knife2.png,0.0,-5.299862,-2.0701685,-2.2837381
alexnet_w3_mlp_simclrhn_probe0,1,161,NaN,bicycle,bicycle,NaN,bicycle1-airplane2.png,bicycle1-airplane2.png,1.0,2.8759632,0.112139784,1.9543184
alexnet_w3_mlp_simclrhn_probe0,1,162,NaN,cat,bicycle,NaN,bicycle1-bear1.png,bicycle1-bear1.png,0.0,-7.160285,-1.8070828,-3.7852857
alexnet_w3_mlp_simclrhn_probe0,1,163,NaN,bicycle,bicycle,NaN,bicycle1-bicycle3.png,bicycle1-bicycle3.png,1.0,6.817342,-7.328076,10.002321
alexnet_w3_mlp_simclrhn_probe0,1,164,NaN,cat,bicycle,NaN,bicycle1-bird1.png,bicycle1-bird1.png,0.0,-3.7434683,-2.8751314,-0.61400694
alexnet_w3_mlp_simclrhn_probe0,1,165,NaN,bicycle,bicycle,NaN,bicycle1-boat3.png,bicycle1-boat3.png,1.0,-1.729553,-5.58127,2.7235754
alexnet_w3_mlp_simclrhn_probe0,1,166,NaN,bicycle,bicycle,NaN,bicycle1-bottle3.png,bicycle1-bottle3.png,1.0,13.05097,-6.5230317,13.840909
alexnet_w3_mlp_simclrhn_probe0,1,167,NaN,bicycle,bicycle,NaN,bicycle1-chair1.png,bicycle1-chair1.png,1.0,-0.93347454,-2.7085037,1.2551352
alexnet_w3_mlp_simclrhn_probe0,1,168,NaN,bicycle,bicycle,NaN,bicycle1-clock3.png,bicycle1-clock3.png,1.0,6.3786745,-3.1523657,6.7394633
alexnet_w3_mlp_simclrhn_probe0,1,169,NaN,cat,bicycle,NaN,bicycle1-dog3.png,bicycle1-dog3.png,0.0,-10.237363,-2.8940563,-5.192502
alexnet_w3_mlp_simclrhn_probe0,1,170,NaN,cat,bicycle,NaN,bicycle1-elephant2.png,bicycle1-elephant2.png,0.0,-3.1204653,-1.7745389,-0.9517137
alexnet_w3_mlp_simclrhn_probe0,1,171,NaN,knife,bicycle,NaN,bicycle1-knife3.png,bicycle1-knife3.png,0.0,-3.4142635,-2.7747827,-0.45218125
alexnet_w3_mlp_simclrhn_probe0,1,172,NaN,knife,bicycle,NaN,bicycle1-oven1.png,bicycle1-oven1.png,0.0,-5.697258,-0.47772473,-3.6907675
alexnet_w3_mlp_simclrhn_probe0,1,173,NaN,bicycle,bicycle,NaN,bicycle1-truck1.png,bicycle1-truck1.png,1.0,5.9532776,-1.4582524,5.240743
alexnet_w3_mlp_simclrhn_probe0,1,174,NaN,car,bicycle,NaN,bicycle10-airplane2.png,bicycle10-airplane2.png,0.0,-2.178958,0.17080224,-1.6615313
alexnet_w3_mlp_simclrhn_probe0,1,175,NaN,truck,bicycle,NaN,bicycle10-boat3.png,bicycle10-boat3.png,0.0,-3.6262174,-2.0848975,-1.0898777
alexnet_w3_mlp_simclrhn_probe0,1,176,NaN,bicycle,bicycle,NaN,bicycle10-clock2.png,bicycle10-clock2.png,1.0,3.092636,-0.019572496,2.2006638
alexnet_w3_mlp_simclrhn_probe0,1,177,NaN,cat,bicycle,NaN,bicycle10-dog3.png,bicycle10-dog3.png,0.0,-11.041585,-3.577048,-5.2782245
alexnet_w3_mlp_simclrhn_probe0,1,178,NaN,cat,bicycle,NaN,bicycle10-elephant2.png,bicycle10-elephant2.png,0.0,-4.125058,-1.6501399,-1.7500316
alexnet_w3_mlp_simclrhn_probe0,1,179,NaN,bicycle,bicycle,NaN,bicycle2-bicycle1.png,bicycle2-bicycle1.png,1.0,4.2868986,-9.000918,9.3959055
alexnet_w3_mlp_simclrhn_probe0,1,180,NaN,bicycle,bicycle,NaN,bicycle2-bird3.png,bicycle2-bird3.png,1.0,-3.6893854,-6.472505,1.9679629
alexnet_w3_mlp_simclrhn_probe0,1,181,NaN,bicycle,bicycle,NaN,bicycle2-bottle1.png,bicycle2-bottle1.png,1.0,0.60824496,-7.055807,5.4193034
alexnet_w3_mlp_simclrhn_probe0,1,182,NaN,bicycle,bicycle,NaN,bicycle2-car2.png,bicycle2-car2.png,1.0,-1.1394494,-4.7182193,2.5305724
alexnet_w3_mlp_simclrhn_probe0,1,183,NaN,cat,bicycle,NaN,bicycle2-dog1.png,bicycle2-dog1.png,0.0,-9.502264,-0.44936743,-6.401365
alexnet_w3_mlp_simclrhn_probe0,1,184,NaN,knife,bicycle,NaN,bicycle2-keyboard2.png,bicycle2-keyboard2.png,0.0,-4.4151683,-2.7681322,-1.1646304
alexnet_w3_mlp_simclrhn_probe0,1,185,NaN,bicycle,bicycle,NaN,bicycle2-knife2.png,bicycle2-knife2.png,1.0,-4.1534023,-4.7529035,0.42391133
alexnet_w3_mlp_simclrhn_probe0,1,186,NaN,cat,bicycle,NaN,bicycle3-bird1.png,bicycle3-bird1.png,0.0,-5.135167,-2.4378526,-1.9072894
alexnet_w3_mlp_simclrhn_probe0,1,187,NaN,cat,bicycle,NaN,bicycle3-elephant2.png,bicycle3-elephant2.png,0.0,-3.450812,-1.6543645,-1.2702804
alexnet_w3_mlp_simclrhn_probe0,1,188,NaN,bicycle,bicycle,NaN,bicycle3-keyboard1.png,bicycle3-keyboard1.png,1.0,1.7031727,-6.562937,5.845022
alexnet_w3_mlp_simclrhn_probe0,1,189,NaN,chair,bicycle,NaN,bicycle3-oven3.png,bicycle3-oven3.png,0.0,-5.238583,-0.5050547,-3.3471098
alexnet_w3_mlp_simclrhn_probe0,1,190,NaN,truck,bicycle,NaN,bicycle3-truck3.png,bicycle3-truck3.png,0.0,-5.996279,-1.9581131,-2.8554144
alexnet_w3_mlp_simclrhn_probe0,1,191,NaN,bicycle,bicycle,NaN,bicycle4-airplane1.png,bicycle4-airplane1.png,1.0,0.60803723,-4.514465,3.6221561
alexnet_w3_mlp_simclrhn_probe0,1,192,NaN,bicycle,bicycle,NaN,bicycle4-bicycle3.png,bicycle4-bicycle3.png,1.0,4.6645417,-7.559518,8.643716
alexnet_w3_mlp_simclrhn_probe0,1,193,NaN,bicycle,bicycle,NaN,bicycle4-boat1.png,bicycle4-boat1.png,1.0,3.9868512,-3.908925,5.583157
alexnet_w3_mlp_simclrhn_probe0,1,194,NaN,bicycle,bicycle,NaN,bicycle4-bottle1.png,bicycle4-bottle1.png,1.0,0.22811186,-7.3829403,5.3818264
alexnet_w3_mlp_simclrhn_probe0,1,195,NaN,bicycle,bicycle,NaN,bicycle4-car2.png,bicycle4-car2.png,1.0,3.9347806,-3.2504797,5.080746
alexnet_w3_mlp_simclrhn_probe0,1,196,NaN,cat,bicycle,NaN,bicycle4-cat1.png,bicycle4-cat1.png,0.0,-9.526037,0.14473908,-6.8382716
alexnet_w3_mlp_simclrhn_probe0,1,197,NaN,bicycle,bicycle,NaN,bicycle4-chair2.png,bicycle4-chair2.png,1.0,-0.7194105,-3.4638155,1.9405874
alexnet_w3_mlp_simclrhn_probe0,1,198,NaN,bicycle,bicycle,NaN,bicycle4-clock3.png,bicycle4-clock3.png,1.0,1.762979,-4.23276,4.239628
alexnet_w3_mlp_simclrhn_probe0,1,199,NaN,knife,bicycle,NaN,bicycle4-keyboard3.png,bicycle4-keyboard3.png,0.0,-5.049407,-2.5116682,-1.7944523
alexnet_w3_mlp_simclrhn_probe0,1,200,NaN,knife,bicycle,NaN,bicycle4-knife3.png,bicycle4-knife3.png,0.0,-4.1610737,-2.162765,-1.4130176
alexnet_w3_mlp_simclrhn_probe0,1,201,NaN,chair,bicycle,NaN,bicycle4-oven3.png,bicycle4-oven3.png,0.0,-5.2526226,-0.9286876,-3.057484
alexnet_w3_mlp_simclrhn_probe0,1,202,NaN,truck,bicycle,NaN,bicycle4-truck3.png,bicycle4-truck3.png,0.0,-5.167862,-3.3691037,-1.2719142
alexnet_w3_mlp_simclrhn_probe0,1,203,NaN,cat,bicycle,NaN,bicycle5-bear1.png,bicycle5-bear1.png,0.0,-7.5822887,-1.8819065,-4.030779
alexnet_w3_mlp_simclrhn_probe0,1,204,NaN,bicycle,bicycle,NaN,bicycle5-bottle3.png,bicycle5-bottle3.png,1.0,6.744901,-9.268466,11.32316
alexnet_w3_mlp_simclrhn_probe0,1,205,NaN,bicycle,bicycle,NaN,bicycle5-car3.png,bicycle5-car3.png,1.0,3.8208256,-5.1576686,6.3487544
alexnet_w3_mlp_simclrhn_probe0,1,206,NaN,cat,bicycle,NaN,bicycle5-cat1.png,bicycle5-cat1.png,0.0,-7.1225233,-1.7800995,-3.7776642
alexnet_w3_mlp_simclrhn_probe0,1,207,NaN,bicycle,bicycle,NaN,bicycle5-chair2.png,bicycle5-chair2.png,1.0,-0.13981919,-3.450863,2.3412616
alexnet_w3_mlp_simclrhn_probe0,1,208,NaN,cat,bicycle,NaN,bicycle5-dog2.png,bicycle5-dog2.png,0.0,-5.682028,-1.7011142,-2.8149312
alexnet_w3_mlp_simclrhn_probe0,1,209,NaN,bicycle,bicycle,NaN,bicycle5-elephant1.png,bicycle5-elephant1.png,1.0,-0.50311327,-1.8661894,0.96384037
alexnet_w3_mlp_simclrhn_probe0,1,210,NaN,airplane,bicycle,NaN,bicycle5-keyboard3.png,bicycle5-keyboard3.png,0.0,-5.532117,-2.1559846,-2.387286
alexnet_w3_mlp_simclrhn_probe0,1,211,NaN,chair,bicycle,NaN,bicycle5-oven3.png,bicycle5-oven3.png,0.0,-4.2952957,-0.1299621,-2.9453359
alexnet_w3_mlp_simclrhn_probe0,1,212,NaN,airplane,bicycle,NaN,bicycle6-airplane2.png,bicycle6-airplane2.png,0.0,-4.2046022,-2.943954,-0.8914129
alexnet_w3_mlp_simclrhn_probe0,1,213,NaN,bicycle,bicycle,NaN,bicycle6-bicycle3.png,bicycle6-bicycle3.png,1.0,0.22076403,-6.9275374,5.0546126
alexnet_w3_mlp_simclrhn_probe0,1,214,NaN,bicycle,bicycle,NaN,bicycle6-boat2.png,bicycle6-boat2.png,1.0,0.32983768,-3.2583447,2.537228
alexnet_w3_mlp_simclrhn_probe0,1,215,NaN,bicycle,bicycle,NaN,bicycle6-car2.png,bicycle6-car2.png,1.0,-1.9587309,-5.7463574,2.6782565
alexnet_w3_mlp_simclrhn_probe0,1,216,NaN,cat,bicycle,NaN,bicycle6-cat1.png,bicycle6-cat1.png,0.0,-10.838953,-0.8664093,-7.0516534
alexnet_w3_mlp_simclrhn_probe0,1,217,NaN,cat,bicycle,NaN,bicycle6-dog2.png,bicycle6-dog2.png,0.0,-6.613585,-0.9801561,-3.9834359
alexnet_w3_mlp_simclrhn_probe0,1,218,NaN,elephant,bicycle,NaN,bicycle7-bear2.png,bicycle7-bear2.png,0.0,-5.221869,-0.6875459,-3.2062507
alexnet_w3_mlp_simclrhn_probe0,1,219,NaN,bicycle,bicycle,NaN,bicycle7-bicycle2.png,bicycle7-bicycle2.png,1.0,7.668568,-7.6272345,10.815766
alexnet_w3_mlp_simclrhn_probe0,1,220,NaN,cat,bicycle,NaN,bicycle7-cat1.png,bicycle7-cat1.png,0.0,-8.4754305,-1.5322434,-4.909575
alexnet_w3_mlp_simclrhn_probe0,1,221,NaN,bicycle,bicycle,NaN,bicycle7-clock3.png,bicycle7-clock3.png,1.0,4.902495,-3.879319,6.20968
alexnet_w3_mlp_simclrhn_probe0,1,222,NaN,cat,bicycle,NaN,bicycle7-elephant2.png,bicycle7-elephant2.png,0.0,-3.5448647,-2.199569,-0.9512677
alexnet_w3_mlp_simclrhn_probe0,1,223,NaN,bicycle,bicycle,NaN,bicycle7-knife2.png,bicycle7-knife2.png,1.0,-2.1815739,-3.2716837,0.7708241
alexnet_w3_mlp_simclrhn_probe0,1,224,NaN,knife,bicycle,NaN,bicycle7-oven1.png,bicycle7-oven1.png,0.0,-4.9840674,-0.51795673,-3.1580172
alexnet_w3_mlp_simclrhn_probe0,1,225,NaN,bottle,bicycle,NaN,bicycle7-truck3.png,bicycle7-truck3.png,0.0,-5.249358,-3.2387803,-1.4216933
alexnet_w3_mlp_simclrhn_probe0,1,226,NaN,elephant,bicycle,NaN,bicycle8-bear2.png,bicycle8-bear2.png,0.0,-3.7364662,-1.4421854,-1.6223015
alexnet_w3_mlp_simclrhn_probe0,1,227,NaN,bicycle,bicycle,NaN,bicycle8-bird2.png,bicycle8-bird2.png,1.0,3.8538535,-6.945226,7.6361027
alexnet_w3_mlp_simclrhn_probe0,1,228,NaN,bicycle,bicycle,NaN,bicycle8-boat1.png,bicycle8-boat1.png,1.0,5.9939713,-5.144205,7.87588
alexnet_w3_mlp_simclrhn_probe0,1,229,NaN,bicycle,bicycle,NaN,bicycle8-chair2.png,bicycle8-chair2.png,1.0,0.78260744,-3.8625152,3.2845976
alexnet_w3_mlp_simclrhn_probe0,1,230,NaN,bicycle,bicycle,NaN,bicycle8-clock3.png,bicycle8-clock3.png,1.0,3.1031904,-4.2767296,5.2183914
alexnet_w3_mlp_simclrhn_probe0,1,231,NaN,bicycle,bicycle,NaN,bicycle8-truck1.png,bicycle8-truck1.png,1.0,3.6901855,-2.689602,4.511191
alexnet_w3_mlp_simclrhn_probe0,1,232,NaN,bicycle,bicycle,NaN,bicycle9-airplane2.png,bicycle9-airplane2.png,1.0,2.7449791,-0.81600493,2.517996
alexnet_w3_mlp_simclrhn_probe0,1,233,NaN,cat,bicycle,NaN,bicycle9-bear1.png,bicycle9-bear1.png,0.0,-8.309398,-1.7735051,-4.621574
alexnet_w3_mlp_simclrhn_probe0,1,234,NaN,bicycle,bicycle,NaN,bicycle9-bird3.png,bicycle9-bird3.png,1.0,-0.22308862,-6.316396,4.308619
alexnet_w3_mlp_simclrhn_probe0,1,235,NaN,bicycle,bicycle,NaN,bicycle9-bottle1.png,bicycle9-bottle1.png,1.0,3.9400668,-7.3910975,8.012343
alexnet_w3_mlp_simclrhn_probe0,1,236,NaN,bicycle,bicycle,NaN,bicycle9-car1.png,bicycle9-car1.png,1.0,7.3416195,-7.0607605,10.184021
alexnet_w3_mlp_simclrhn_probe0,1,237,NaN,cat,bicycle,NaN,bicycle9-cat3.png,bicycle9-cat3.png,0.0,-6.609495,-1.8604454,-3.3580854
alexnet_w3_mlp_simclrhn_probe0,1,238,NaN,bicycle,bicycle,NaN,bicycle9-chair1.png,bicycle9-chair1.png,1.0,-0.95732445,-3.3790493,1.7124181
alexnet_w3_mlp_simclrhn_probe0,1,239,NaN,airplane,bicycle,NaN,bicycle9-keyboard3.png,bicycle9-keyboard3.png,0.0,-4.987111,-2.8708355,-1.4964328
alexnet_w3_mlp_simclrhn_probe0,1,240,NaN,knife,bicycle,NaN,bicycle9-knife3.png,bicycle9-knife3.png,0.0,-3.99059,-2.1162977,-1.3253249
alexnet_w3_mlp_simclrhn_probe0,1,241,NaN,car,bird,NaN,bird1-airplane2.png,bird1-airplane2.png,0.0,-6.355524,-2.9318857,-2.420878
alexnet_w3_mlp_simclrhn_probe0,1,242,NaN,cat,bird,NaN,bird1-bear1.png,bird1-bear1.png,0.0,-3.8396752,-1.005937,-2.0037556
alexnet_w3_mlp_simclrhn_probe0,1,243,NaN,bird,bird,NaN,bird1-bicycle2.png,bird1-bicycle2.png,1.0,-3.4894602,-4.253822,0.5404853
alexnet_w3_mlp_simclrhn_probe0,1,244,NaN,bicycle,bird,NaN,bird1-boat1.png,bird1-boat1.png,0.0,-8.4161415,-3.5431929,-3.4456952
alexnet_w3_mlp_simclrhn_probe0,1,245,NaN,boat,bird,NaN,bird1-chair2.png,bird1-chair2.png,0.0,-9.047531,-4.0657153,-3.5226758
alexnet_w3_mlp_simclrhn_probe0,1,246,NaN,bottle,bird,NaN,bird1-clock3.png,bird1-clock3.png,0.0,-11.704691,-3.1793423,-6.0283318
alexnet_w3_mlp_simclrhn_probe0,1,247,NaN,elephant,bird,NaN,bird1-elephant2.png,bird1-elephant2.png,0.0,-3.6701987,0.18756145,-2.7278485
alexnet_w3_mlp_simclrhn_probe0,1,248,NaN,knife,bird,NaN,bird1-keyboard3.png,bird1-keyboard3.png,0.0,-4.8446336,-1.717628,-2.2111268
alexnet_w3_mlp_simclrhn_probe0,1,249,NaN,knife,bird,NaN,bird1-knife3.png,bird1-knife3.png,0.0,-5.656595,-2.571049,-2.1818106
alexnet_w3_mlp_simclrhn_probe0,1,250,NaN,knife,bird,NaN,bird1-oven1.png,bird1-oven1.png,0.0,-5.854253,-0.22821745,-3.9782078
alexnet_w3_mlp_simclrhn_probe0,1,251,NaN,chair,bird,NaN,bird1-truck1.png,bird1-truck1.png,0.0,-11.227703,-3.5978742,-5.395104
alexnet_w3_mlp_simclrhn_probe0,1,252,NaN,elephant,bird,NaN,bird10-bear2.png,bird10-bear2.png,0.0,-4.0945206,-0.526812,-2.5227509
alexnet_w3_mlp_simclrhn_probe0,1,253,NaN,bicycle,bird,NaN,bird10-bicycle1.png,bird10-bicycle1.png,0.0,-5.306057,-1.9481206,-2.3744197
alexnet_w3_mlp_simclrhn_probe0,1,254,NaN,bird,bird,NaN,bird10-bird2.png,bird10-bird2.png,1.0,-1.8754684,-2.958096,0.7655334
alexnet_w3_mlp_simclrhn_probe0,1,255,NaN,cat,bird,NaN,bird10-cat1.png,bird10-cat1.png,0.0,-4.4895515,-1.2051197,-2.3224442
alexnet_w3_mlp_simclrhn_probe0,1,256,NaN,chair,bird,NaN,bird10-chair1.png,bird10-chair1.png,0.0,-8.761296,-4.258443,-3.183998
alexnet_w3_mlp_simclrhn_probe0,1,257,NaN,bicycle,bird,NaN,bird10-clock1.png,bird10-clock1.png,0.0,-7.914183,-4.535245,-2.38927
alexnet_w3_mlp_simclrhn_probe0,1,258,NaN,elephant,bird,NaN,bird10-elephant2.png,bird10-elephant2.png,0.0,-4.4973674,-0.8175308,-2.6020374
alexnet_w3_mlp_simclrhn_probe0,1,259,NaN,bottle,bird,NaN,bird2-airplane3.png,bird2-airplane3.png,0.0,-9.291004,-3.8707678,-3.8326862
alexnet_w3_mlp_simclrhn_probe0,1,260,NaN,bicycle,bird,NaN,bird2-bird2.png,bird2-bird2.png,0.0,-3.608014,-1.8560318,-1.2388386
alexnet_w3_mlp_simclrhn_probe0,1,261,NaN,bicycle,bird,NaN,bird2-car3.png,bird2-car3.png,0.0,-7.92639,-1.6769733,-4.419005
alexnet_w3_mlp_simclrhn_probe0,1,262,NaN,bottle,bird,NaN,bird2-clock3.png,bird2-clock3.png,0.0,-9.569392,-5.1793814,-3.1042066
alexnet_w3_mlp_simclrhn_probe0,1,263,NaN,cat,bird,NaN,bird2-dog2.png,bird2-dog2.png,0.0,-4.558615,-0.3266054,-2.992483
alexnet_w3_mlp_simclrhn_probe0,1,264,NaN,bicycle,bird,NaN,bird2-knife1.png,bird2-knife1.png,0.0,-9.129457,-4.784945,-3.0720344
alexnet_w3_mlp_simclrhn_probe0,1,265,NaN,cat,bird,NaN,bird3-bear3.png,bird3-bear3.png,0.0,-2.1553285,-0.61787766,-1.0871419
alexnet_w3_mlp_simclrhn_probe0,1,266,NaN,bird,bird,NaN,bird3-bird2.png,bird3-bird2.png,1.0,-2.7029784,-4.389556,1.1925905
alexnet_w3_mlp_simclrhn_probe0,1,267,NaN,bottle,bird,NaN,bird3-boat3.png,bird3-boat3.png,0.0,-8.529829,-4.7894926,-2.6448174
alexnet_w3_mlp_simclrhn_probe0,1,268,NaN,bottle,bird,NaN,bird3-bottle2.png,bird3-bottle2.png,0.0,-11.682968,-4.408792,-5.1436195
alexnet_w3_mlp_simclrhn_probe0,1,269,NaN,cat,bird,NaN,bird3-cat1.png,bird3-cat1.png,0.0,-3.5225236,-0.2631396,-2.3047326
alexnet_w3_mlp_simclrhn_probe0,1,270,NaN,cat,bird,NaN,bird3-dog1.png,bird3-dog1.png,0.0,-4.109537,-0.2200471,-2.750285
alexnet_w3_mlp_simclrhn_probe0,1,271,NaN,knife,bird,NaN,bird3-knife3.png,bird3-knife3.png,0.0,-5.5845656,-2.1531503,-2.426377
alexnet_w3_mlp_simclrhn_probe0,1,272,NaN,knife,bird,NaN,bird3-oven1.png,bird3-oven1.png,0.0,-5.5414553,-1.2581208,-3.028775
alexnet_w3_mlp_simclrhn_probe0,1,273,NaN,bottle,bird,NaN,bird3-truck3.png,bird3-truck3.png,0.0,-7.717188,-2.0706086,-3.9927347
alexnet_w3_mlp_simclrhn_probe0,1,274,NaN,bicycle,bird,NaN,bird4-airplane1.png,bird4-airplane1.png,0.0,-6.7649984,-3.31365,-2.440472
alexnet_w3_mlp_simclrhn_probe0,1,275,NaN,bicycle,bird,NaN,bird4-bicycle2.png,bird4-bicycle2.png,0.0,-4.5276127,-2.9003692,-1.150635
alexnet_w3_mlp_simclrhn_probe0,1,276,NaN,cat,bird,NaN,bird4-cat3.png,bird4-cat3.png,0.0,-4.859352,0.5686905,-3.8382056
alexnet_w3_mlp_simclrhn_probe0,1,277,NaN,knife,bird,NaN,bird4-clock1.png,bird4-clock1.png,0.0,-9.812743,-5.103844,-3.3296945
alexnet_w3_mlp_simclrhn_probe0,1,278,NaN,cat,bird,NaN,bird4-dog3.png,bird4-dog3.png,0.0,-5.708466,0.24552763,-4.210109
alexnet_w3_mlp_simclrhn_probe0,1,279,NaN,airplane,bird,NaN,bird5-airplane3.png,bird5-airplane3.png,0.0,-6.2382445,-2.4880304,-2.6518018
alexnet_w3_mlp_simclrhn_probe0,1,280,NaN,cat,bird,NaN,bird5-bear3.png,bird5-bear3.png,0.0,-3.3934836,-0.020533005,-2.3850362
alexnet_w3_mlp_simclrhn_probe0,1,281,NaN,bicycle,bird,NaN,bird5-bicycle1.png,bird5-bicycle1.png,0.0,-4.0129676,-3.3544044,-0.46567446
alexnet_w3_mlp_simclrhn_probe0,1,282,NaN,cat,bird,NaN,bird5-bird1.png,bird5-bird1.png,0.0,-2.1185062,-1.6895376,-0.30332658
alexnet_w3_mlp_simclrhn_probe0,1,283,NaN,bicycle,bird,NaN,bird5-car2.png,bird5-car2.png,0.0,-5.5000715,-2.591828,-2.0564387
alexnet_w3_mlp_simclrhn_probe0,1,284,NaN,cat,bird,NaN,bird5-cat2.png,bird5-cat2.png,0.0,-1.9155834,-0.23775248,-1.1864057
alexnet_w3_mlp_simclrhn_probe0,1,285,NaN,airplane,bird,NaN,bird5-chair1.png,bird5-chair1.png,0.0,-7.630137,-1.3482177,-4.441988
alexnet_w3_mlp_simclrhn_probe0,1,286,NaN,cat,bird,NaN,bird5-dog2.png,bird5-dog2.png,0.0,-3.8551612,-1.4442593,-1.7047652
alexnet_w3_mlp_simclrhn_probe0,1,287,NaN,knife,bird,NaN,bird5-keyboard2.png,bird5-keyboard2.png,0.0,-7.1032677,-1.9097975,-3.672338
alexnet_w3_mlp_simclrhn_probe0,1,288,NaN,chair,bird,NaN,bird5-oven3.png,bird5-oven3.png,0.0,-8.447516,-0.102496,-5.9008207
alexnet_w3_mlp_simclrhn_probe0,1,289,NaN,chair,bird,NaN,bird5-truck2.png,bird5-truck2.png,0.0,-9.269487,-2.7611785,-4.6020694
alexnet_w3_mlp_simclrhn_probe0,1,290,NaN,airplane,bird,NaN,bird6-airplane2.png,bird6-airplane2.png,0.0,-5.6035576,-1.2560279,-3.0741675
alexnet_w3_mlp_simclrhn_probe0,1,291,NaN,bicycle,bird,NaN,bird6-boat2.png,bird6-boat2.png,0.0,-11.706906,-1.5727999,-7.1658955
alexnet_w3_mlp_simclrhn_probe0,1,292,NaN,bird,bird,NaN,bird6-bottle3.png,bird6-bottle3.png,1.0,-5.835148,-6.225935,0.27632824
alexnet_w3_mlp_simclrhn_probe0,1,293,NaN,bicycle,bird,NaN,bird6-car3.png,bird6-car3.png,0.0,-8.619275,-3.9672997,-3.2894435
alexnet_w3_mlp_simclrhn_probe0,1,294,NaN,elephant,bird,NaN,bird6-elephant2.png,bird6-elephant2.png,0.0,-4.8675723,-0.47944066,-3.1028776
alexnet_w3_mlp_simclrhn_probe0,1,295,NaN,knife,bird,NaN,bird6-oven1.png,bird6-oven1.png,0.0,-6.588857,-1.3064868,-3.7352002
alexnet_w3_mlp_simclrhn_probe0,1,296,NaN,chair,bird,NaN,bird6-truck2.png,bird6-truck2.png,0.0,-10.977385,-2.051323,-6.311679
alexnet_w3_mlp_simclrhn_probe0,1,297,NaN,bird,bird,NaN,bird7-bird2.png,bird7-bird2.png,1.0,-4.3006086,-5.9073615,1.1361458
alexnet_w3_mlp_simclrhn_probe0,1,298,NaN,boat,bird,NaN,bird7-boat1.png,bird7-boat1.png,0.0,-9.13547,-1.685469,-5.2679467
alexnet_w3_mlp_simclrhn_probe0,1,299,NaN,bicycle,bird,NaN,bird7-bottle1.png,bird7-bottle1.png,0.0,-6.780921,-3.3423204,-2.4314578
alexnet_w3_mlp_simclrhn_probe0,1,300,NaN,bicycle,bird,NaN,bird7-car2.png,bird7-car2.png,0.0,-7.167869,-1.6024951,-3.9353137
alexnet_w3_mlp_simclrhn_probe0,1,301,NaN,bear,bird,NaN,bird7-cat3.png,bird7-cat3.png,0.0,-5.018872,-2.5516794,-1.7445685
alexnet_w3_mlp_simclrhn_probe0,1,302,NaN,knife,bird,NaN,bird7-keyboard3.png,bird7-keyboard3.png,0.0,-5.509862,-2.8658645,-1.8695885
alexnet_w3_mlp_simclrhn_probe0,1,303,NaN,oven,bird,NaN,bird7-knife2.png,bird7-knife2.png,0.0,-7.0358567,-3.742058,-2.3290675
alexnet_w3_mlp_simclrhn_probe0,1,304,NaN,chair,bird,NaN,bird7-oven3.png,bird7-oven3.png,0.0,-9.019661,-1.2678415,-5.4813643
alexnet_w3_mlp_simclrhn_probe0,1,305,NaN,car,bird,NaN,bird7-truck2.png,bird7-truck2.png,0.0,-10.558935,-4.7432094,-4.112339
alexnet_w3_mlp_simclrhn_probe0,1,306,NaN,boat,bird,NaN,bird8-boat3.png,bird8-boat3.png,0.0,-9.92189,-2.6145084,-5.167099
alexnet_w3_mlp_simclrhn_probe0,1,307,NaN,bicycle,bird,NaN,bird8-bottle1.png,bird8-bottle1.png,0.0,-7.093349,-4.8544316,-1.5831537
alexnet_w3_mlp_simclrhn_probe0,1,308,NaN,bicycle,bird,NaN,bird8-car2.png,bird8-car2.png,0.0,-7.0307074,-1.812073,-3.690132
alexnet_w3_mlp_simclrhn_probe0,1,309,NaN,chair,bird,NaN,bird8-chair1.png,bird8-chair1.png,0.0,-8.680206,-2.522972,-4.353822
alexnet_w3_mlp_simclrhn_probe0,1,310,NaN,bicycle,bird,NaN,bird8-clock1.png,bird8-clock1.png,0.0,-10.500602,-4.338299,-4.357406
alexnet_w3_mlp_simclrhn_probe0,1,311,NaN,cat,bird,NaN,bird8-elephant1.png,bird8-elephant1.png,0.0,-2.6480176,-1.9348162,-0.50430954
alexnet_w3_mlp_simclrhn_probe0,1,312,NaN,clock,bird,NaN,bird8-keyboard2.png,bird8-keyboard2.png,0.0,-8.220804,-2.0424488,-4.368757
alexnet_w3_mlp_simclrhn_probe0,1,313,NaN,knife,bird,NaN,bird8-knife2.png,bird8-knife2.png,0.0,-6.600322,-3.198282,-2.4056053
alexnet_w3_mlp_simclrhn_probe0,1,314,NaN,cat,bird,NaN,bird9-bear3.png,bird9-bear3.png,0.0,-4.066465,-0.6699527,-2.401697
alexnet_w3_mlp_simclrhn_probe0,1,315,NaN,bicycle,bird,NaN,bird9-bicycle3.png,bird9-bicycle3.png,0.0,-3.4514513,-2.2871,-0.8233207
alexnet_w3_mlp_simclrhn_probe0,1,316,NaN,bird,bird,NaN,bird9-bottle3.png,bird9-bottle3.png,1.0,-3.5178149,-4.3617764,0.5967709
alexnet_w3_mlp_simclrhn_probe0,1,317,NaN,bottle,bird,NaN,bird9-chair1.png,bird9-chair1.png,0.0,-7.5878024,-5.1937404,-1.6928575
alexnet_w3_mlp_simclrhn_probe0,1,318,NaN,cat,bird,NaN,bird9-dog2.png,bird9-dog2.png,0.0,-3.482561,0.028422514,-2.4826405
alexnet_w3_mlp_simclrhn_probe0,1,319,NaN,elephant,bird,NaN,bird9-elephant2.png,bird9-elephant2.png,0.0,-4.1283493,-0.8017528,-2.352259
alexnet_w3_mlp_simclrhn_probe0,1,320,NaN,bicycle,bird,NaN,bird9-keyboard1.png,bird9-keyboard1.png,0.0,-6.508522,-4.726362,-1.2601773
alexnet_w3_mlp_simclrhn_probe0,1,321,NaN,bear,boat,NaN,boat1-bear1.png,boat1-bear1.png,0.0,-11.8460045,-1.0399892,-7.6410065
alexnet_w3_mlp_simclrhn_probe0,1,322,NaN,bicycle,boat,NaN,boat1-bicycle2.png,boat1-bicycle2.png,0.0,-7.5083947,-1.2861266,-4.399808
alexnet_w3_mlp_simclrhn_probe0,1,323,NaN,knife,boat,NaN,boat1-bird3.png,boat1-bird3.png,0.0,-8.208409,-3.9742951,-2.9939709
alexnet_w3_mlp_simclrhn_probe0,1,324,NaN,bicycle,boat,NaN,boat1-car2.png,boat1-car2.png,0.0,-5.010829,-3.771186,-0.8765599
alexnet_w3_mlp_simclrhn_probe0,1,325,NaN,airplane,boat,NaN,boat1-chair3.png,boat1-chair3.png,0.0,-3.6993346,-0.4333226,-2.3094192
alexnet_w3_mlp_simclrhn_probe0,1,326,NaN,cat,boat,NaN,boat1-elephant3.png,boat1-elephant3.png,0.0,-7.038433,-2.6548138,-3.099687
alexnet_w3_mlp_simclrhn_probe0,1,327,NaN,airplane,boat,NaN,boat1-keyboard3.png,boat1-keyboard3.png,0.0,-4.752304,-0.7767471,-2.8111432
alexnet_w3_mlp_simclrhn_probe0,1,328,NaN,knife,boat,NaN,boat1-oven1.png,boat1-oven1.png,0.0,-2.953931,0.22425067,-2.2473137
alexnet_w3_mlp_simclrhn_probe0,1,329,NaN,airplane,boat,NaN,boat1-truck3.png,boat1-truck3.png,0.0,-4.3998785,-2.5693398,-1.2943864
alexnet_w3_mlp_simclrhn_probe0,1,330,NaN,elephant,boat,NaN,boat10-bear3.png,boat10-bear3.png,0.0,-10.80195,-1.601095,-6.505987
alexnet_w3_mlp_simclrhn_probe0,1,331,NaN,boat,boat,NaN,boat10-boat3.png,boat10-boat3.png,1.0,-2.1636891,-4.4477167,1.6150514
alexnet_w3_mlp_simclrhn_probe0,1,332,NaN,cat,boat,NaN,boat10-cat1.png,boat10-cat1.png,0.0,-10.814784,-1.3329355,-6.7046795
alexnet_w3_mlp_simclrhn_probe0,1,333,NaN,car,boat,NaN,boat10-oven1.png,boat10-oven1.png,0.0,-3.553725,-0.04795732,-2.4789522
alexnet_w3_mlp_simclrhn_probe0,1,334,NaN,car,boat,NaN,boat10-truck1.png,boat10-truck1.png,0.0,-2.1630516,-1.7690989,-0.27856666
alexnet_w3_mlp_simclrhn_probe0,1,335,NaN,airplane,boat,NaN,boat2-airplane1.png,boat2-airplane1.png,0.0,-3.535762,-2.981034,-0.39225197
alexnet_w3_mlp_simclrhn_probe0,1,336,NaN,elephant,boat,NaN,boat2-bear3.png,boat2-bear3.png,0.0,-8.558371,-0.3157661,-5.8284016
alexnet_w3_mlp_simclrhn_probe0,1,337,NaN,cat,boat,NaN,boat2-bird1.png,boat2-bird1.png,0.0,-3.7791488,-1.198474,-1.8248125
alexnet_w3_mlp_simclrhn_probe0,1,338,NaN,bottle,boat,NaN,boat2-bottle2.png,boat2-bottle2.png,0.0,-10.134851,-2.7620506,-5.2133574
alexnet_w3_mlp_simclrhn_probe0,1,339,NaN,bicycle,boat,NaN,boat2-keyboard1.png,boat2-keyboard1.png,0.0,-5.8964677,-3.8432012,-1.4518787
alexnet_w3_mlp_simclrhn_probe0,1,340,NaN,chair,boat,NaN,boat2-oven3.png,boat2-oven3.png,0.0,-3.1078045,-1.4506156,-1.1718096
alexnet_w3_mlp_simclrhn_probe0,1,341,NaN,airplane,boat,NaN,boat3-airplane2.png,boat3-airplane2.png,0.0,-2.452005,2.2471037,-3.3227715
alexnet_w3_mlp_simclrhn_probe0,1,342,NaN,bicycle,boat,NaN,boat3-bicycle2.png,boat3-bicycle2.png,0.0,-8.109512,-2.0597336,-4.2778397
alexnet_w3_mlp_simclrhn_probe0,1,343,NaN,bicycle,boat,NaN,boat3-car3.png,boat3-car3.png,0.0,-4.290017,-3.0944571,-0.8453886
alexnet_w3_mlp_simclrhn_probe0,1,344,NaN,cat,boat,NaN,boat3-cat3.png,boat3-cat3.png,0.0,-6.7930975,-1.4370464,-3.7873
alexnet_w3_mlp_simclrhn_probe0,1,345,NaN,airplane,boat,NaN,boat3-chair3.png,boat3-chair3.png,0.0,-3.7147942,1.9861791,-4.031197
alexnet_w3_mlp_simclrhn_probe0,1,346,NaN,bottle,boat,NaN,boat3-clock3.png,boat3-clock3.png,0.0,-10.876352,-6.368611,-3.1874547
alexnet_w3_mlp_simclrhn_probe0,1,347,NaN,cat,boat,NaN,boat3-dog3.png,boat3-dog3.png,0.0,-10.9466715,-0.34096226,-7.499369
alexnet_w3_mlp_simclrhn_probe0,1,348,NaN,airplane,boat,NaN,boat3-keyboard2.png,boat3-keyboard2.png,0.0,-5.9331055,-0.42890653,-3.8920565
alexnet_w3_mlp_simclrhn_probe0,1,349,NaN,bicycle,boat,NaN,boat4-bicycle3.png,boat4-bicycle3.png,0.0,-9.319084,-3.790459,-3.9093287
alexnet_w3_mlp_simclrhn_probe0,1,350,NaN,cat,boat,NaN,boat4-bird1.png,boat4-bird1.png,0.0,-3.7396808,-2.0015898,-1.229016
alexnet_w3_mlp_simclrhn_probe0,1,351,NaN,boat,boat,NaN,boat4-boat3.png,boat4-boat3.png,1.0,-2.513656,-2.9002717,0.2733786
alexnet_w3_mlp_simclrhn_probe0,1,352,NaN,bottle,boat,NaN,boat4-bottle2.png,boat4-bottle2.png,0.0,-8.115915,-4.573724,-2.5047076
alexnet_w3_mlp_simclrhn_probe0,1,353,NaN,oven,boat,NaN,boat4-car3.png,boat4-car3.png,0.0,-6.280237,-4.3756366,-1.346756
alexnet_w3_mlp_simclrhn_probe0,1,354,NaN,boat,boat,NaN,boat4-chair2.png,boat4-chair2.png,1.0,-2.581985,-2.9003804,0.22513953
alexnet_w3_mlp_simclrhn_probe0,1,355,NaN,cat,boat,NaN,boat4-dog2.png,boat4-dog2.png,0.0,-7.429905,-0.58799565,-4.8379607
alexnet_w3_mlp_simclrhn_probe0,1,356,NaN,cat,boat,NaN,boat4-elephant2.png,boat4-elephant2.png,0.0,-7.314354,-0.42275754,-4.8730946
alexnet_w3_mlp_simclrhn_probe0,1,357,NaN,oven,boat,NaN,boat4-knife2.png,boat4-knife2.png,0.0,-4.374809,-1.1234505,-2.2990575
alexnet_w3_mlp_simclrhn_probe0,1,358,NaN,clock,boat,NaN,boat5-airplane1.png,boat5-airplane1.png,0.0,-4.544723,-2.7672255,-1.2568805
alexnet_w3_mlp_simclrhn_probe0,1,359,NaN,bicycle,boat,NaN,boat5-bicycle3.png,boat5-bicycle3.png,0.0,-6.5234213,-0.19733788,-4.4732165
alexnet_w3_mlp_simclrhn_probe0,1,360,NaN,boat,boat,NaN,boat5-boat3.png,boat5-boat3.png,1.0,-2.5185738,-3.6512442,0.80091894
alexnet_w3_mlp_simclrhn_probe0,1,361,NaN,bicycle,boat,NaN,boat5-car3.png,boat5-car3.png,0.0,-6.781254,-3.22013,-2.5180948
alexnet_w3_mlp_simclrhn_probe0,1,362,NaN,clock,boat,NaN,boat5-clock3.png,boat5-clock3.png,0.0,-7.514675,-4.7937713,-1.9239696
alexnet_w3_mlp_simclrhn_probe0,1,363,NaN,oven,boat,NaN,boat5-knife2.png,boat5-knife2.png,0.0,-2.77543,-2.7311382,-0.031318985
alexnet_w3_mlp_simclrhn_probe0,1,364,NaN,car,boat,NaN,boat6-airplane2.png,boat6-airplane2.png,0.0,-5.154788,-2.6293285,-1.7857696
alexnet_w3_mlp_simclrhn_probe0,1,365,NaN,bear,boat,NaN,boat6-bear1.png,boat6-bear1.png,0.0,-11.236354,-0.48208165,-7.604419
alexnet_w3_mlp_simclrhn_probe0,1,366,NaN,bicycle,boat,NaN,boat6-bicycle2.png,boat6-bicycle2.png,0.0,-9.076311,-1.3835533,-5.439601
alexnet_w3_mlp_simclrhn_probe0,1,367,NaN,bottle,boat,NaN,boat6-bottle2.png,boat6-bottle2.png,0.0,-10.897282,-3.722422,-5.0733924
alexnet_w3_mlp_simclrhn_probe0,1,368,NaN,bicycle,boat,NaN,boat6-car1.png,boat6-car1.png,0.0,-7.625415,-0.99368155,-4.689344
alexnet_w3_mlp_simclrhn_probe0,1,369,NaN,cat,boat,NaN,boat6-cat1.png,boat6-cat1.png,0.0,-8.962992,-0.33671656,-6.0996976
alexnet_w3_mlp_simclrhn_probe0,1,370,NaN,bicycle,boat,NaN,boat6-clock2.png,boat6-clock2.png,0.0,-8.70284,-4.7203894,-2.8160179
alexnet_w3_mlp_simclrhn_probe0,1,371,NaN,cat,boat,NaN,boat6-dog1.png,boat6-dog1.png,0.0,-11.013046,-0.13557048,-7.691537
alexnet_w3_mlp_simclrhn_probe0,1,372,NaN,cat,boat,NaN,boat6-elephant2.png,boat6-elephant2.png,0.0,-7.1537323,-1.3130661,-4.129975
alexnet_w3_mlp_simclrhn_probe0,1,373,NaN,knife,boat,NaN,boat6-knife2.png,boat6-knife2.png,0.0,-4.845865,-3.5237076,-0.9349063
alexnet_w3_mlp_simclrhn_probe0,1,374,NaN,chair,boat,NaN,boat6-truck3.png,boat6-truck3.png,0.0,-6.6704826,-3.0328918,-2.5721653
alexnet_w3_mlp_simclrhn_probe0,1,375,NaN,bicycle,boat,NaN,boat7-boat2.png,boat7-boat2.png,0.0,-3.8978455,-0.89902306,-2.1204877
alexnet_w3_mlp_simclrhn_probe0,1,376,NaN,bicycle,boat,NaN,boat7-bottle1.png,boat7-bottle1.png,0.0,-5.1345305,-2.5434165,-1.8321943
alexnet_w3_mlp_simclrhn_probe0,1,377,NaN,cat,boat,NaN,boat7-cat3.png,boat7-cat3.png,0.0,-7.232393,-0.69659096,-4.62151
alexnet_w3_mlp_simclrhn_probe0,1,378,NaN,bottle,boat,NaN,boat7-chair1.png,boat7-chair1.png,0.0,-5.1658654,-3.0822582,-1.4733328
alexnet_w3_mlp_simclrhn_probe0,1,379,NaN,bicycle,boat,NaN,boat7-clock3.png,boat7-clock3.png,0.0,-9.451128,-3.7370143,-4.0404887
alexnet_w3_mlp_simclrhn_probe0,1,380,NaN,cat,boat,NaN,boat7-elephant3.png,boat7-elephant3.png,0.0,-5.963804,-1.9147072,-2.8631437
alexnet_w3_mlp_simclrhn_probe0,1,381,NaN,bottle,boat,NaN,boat7-keyboard3.png,boat7-keyboard3.png,0.0,-5.408143,-2.0701187,-2.3603396
alexnet_w3_mlp_simclrhn_probe0,1,382,NaN,chair,boat,NaN,boat7-oven3.png,boat7-oven3.png,0.0,-2.7354133,-0.91120493,-1.2899101
alexnet_w3_mlp_simclrhn_probe0,1,383,NaN,bottle,boat,NaN,boat7-truck2.png,boat7-truck2.png,0.0,-6.0036535,-2.6028059,-2.4047625
alexnet_w3_mlp_simclrhn_probe0,1,384,NaN,bicycle,boat,NaN,boat8-bird2.png,boat8-bird2.png,0.0,-7.1252546,-4.2245374,-2.051117
alexnet_w3_mlp_simclrhn_probe0,1,385,NaN,knife,boat,NaN,boat8-bottle1.png,boat8-bottle1.png,0.0,-5.3315926,-4.5940533,-0.52151906
alexnet_w3_mlp_simclrhn_probe0,1,386,NaN,cat,boat,NaN,boat8-dog3.png,boat8-dog3.png,0.0,-11.65957,0.40395927,-8.530203
alexnet_w3_mlp_simclrhn_probe0,1,387,NaN,bicycle,boat,NaN,boat8-elephant1.png,boat8-elephant1.png,0.0,-4.742038,-1.3678371,-2.3859203
alexnet_w3_mlp_simclrhn_probe0,1,388,NaN,bicycle,boat,NaN,boat8-knife1.png,boat8-knife1.png,0.0,-6.9414444,-4.503914,-1.7235944
alexnet_w3_mlp_simclrhn_probe0,1,389,NaN,knife,boat,NaN,boat8-oven1.png,boat8-oven1.png,0.0,-3.067963,-0.41277927,-1.8774983
alexnet_w3_mlp_simclrhn_probe0,1,390,NaN,car,boat,NaN,boat8-truck2.png,boat8-truck2.png,0.0,-3.3305993,-0.8256123,-1.7712933
alexnet_w3_mlp_simclrhn_probe0,1,391,NaN,airplane,boat,NaN,boat9-airplane2.png,boat9-airplane2.png,0.0,-3.0800185,-1.4388192,-1.1605033
alexnet_w3_mlp_simclrhn_probe0,1,392,NaN,elephant,boat,NaN,boat9-bear3.png,boat9-bear3.png,0.0,-11.471089,2.2688344,-9.715593
alexnet_w3_mlp_simclrhn_probe0,1,393,NaN,cat,boat,NaN,boat9-bird1.png,boat9-bird1.png,0.0,-2.7907286,-1.3155015,-1.0431432
alexnet_w3_mlp_simclrhn_probe0,1,394,NaN,boat,boat,NaN,boat9-boat3.png,boat9-boat3.png,1.0,-1.7700685,-3.1199174,0.9544873
alexnet_w3_mlp_simclrhn_probe0,1,395,NaN,elephant,boat,NaN,boat9-cat3.png,boat9-cat3.png,0.0,-6.4264364,-0.8684944,-3.9300585
alexnet_w3_mlp_simclrhn_probe0,1,396,NaN,boat,boat,NaN,boat9-chair2.png,boat9-chair2.png,1.0,-1.5195526,-2.8122866,0.914101
alexnet_w3_mlp_simclrhn_probe0,1,397,NaN,bicycle,boat,NaN,boat9-clock1.png,boat9-clock1.png,0.0,-4.2365875,-2.3905447,-1.3053495
alexnet_w3_mlp_simclrhn_probe0,1,398,NaN,elephant,boat,NaN,boat9-dog2.png,boat9-dog2.png,0.0,-8.094479,-1.3220037,-4.7888627
alexnet_w3_mlp_simclrhn_probe0,1,399,NaN,airplane,boat,NaN,boat9-keyboard2.png,boat9-keyboard2.png,0.0,-2.9345758,-0.5344118,-1.6971724
alexnet_w3_mlp_simclrhn_probe0,1,400,NaN,boat,boat,NaN,boat9-knife2.png,boat9-knife2.png,1.0,-0.9905716,-2.0979,0.78299934
alexnet_w3_mlp_simclrhn_probe0,1,401,NaN,cat,bottle,NaN,bottle1-bear1.png,bottle1-bear1.png,0.0,-5.390942,-0.59330106,-3.3924444
alexnet_w3_mlp_simclrhn_probe0,1,402,NaN,bottle,bottle,NaN,bottle1-bird3.png,bottle1-bird3.png,1.0,-1.6192405,-7.623075,4.2453523
alexnet_w3_mlp_simclrhn_probe0,1,403,NaN,bottle,bottle,NaN,bottle1-car1.png,bottle1-car1.png,1.0,-3.225771,-3.265318,0.027963929
alexnet_w3_mlp_simclrhn_probe0,1,404,NaN,cat,bottle,NaN,bottle1-cat3.png,bottle1-cat3.png,0.0,-2.531739,-0.86089057,-1.1814682
alexnet_w3_mlp_simclrhn_probe0,1,405,NaN,bottle,bottle,NaN,bottle1-chair2.png,bottle1-chair2.png,1.0,-1.0282029,-2.1001377,0.7579724
alexnet_w3_mlp_simclrhn_probe0,1,406,NaN,bottle,bottle,NaN,bottle1-clock1.png,bottle1-clock1.png,1.0,-2.6905496,-5.29965,1.8449128
alexnet_w3_mlp_simclrhn_probe0,1,407,NaN,cat,bottle,NaN,bottle1-dog2.png,bottle1-dog2.png,0.0,-5.182283,-0.045098048,-3.6325386
alexnet_w3_mlp_simclrhn_probe0,1,408,NaN,bottle,bottle,NaN,bottle1-keyboard3.png,bottle1-keyboard3.png,1.0,-1.3512655,-2.7333808,0.9773031
alexnet_w3_mlp_simclrhn_probe0,1,409,NaN,elephant,bottle,NaN,bottle10-bear2.png,bottle10-bear2.png,0.0,-4.6244354,-0.36773926,-3.0099387
alexnet_w3_mlp_simclrhn_probe0,1,410,NaN,bottle,bottle,NaN,bottle10-boat3.png,bottle10-boat3.png,1.0,-0.37488538,-4.2555156,2.74402
alexnet_w3_mlp_simclrhn_probe0,1,411,NaN,bottle,bottle,NaN,bottle10-car1.png,bottle10-car1.png,1.0,-2.2733455,-3.387473,0.7878072
alexnet_w3_mlp_simclrhn_probe0,1,412,NaN,bottle,bottle,NaN,bottle10-clock2.png,bottle10-clock2.png,1.0,0.16279776,-3.747225,2.7648036
alexnet_w3_mlp_simclrhn_probe0,1,413,NaN,cat,bottle,NaN,bottle10-dog1.png,bottle10-dog1.png,0.0,-6.6568246,-0.009670933,-4.700248
alexnet_w3_mlp_simclrhn_probe0,1,414,NaN,bottle,bottle,NaN,bottle10-truck3.png,bottle10-truck3.png,1.0,2.0463371,-0.89505213,2.0798764
alexnet_w3_mlp_simclrhn_probe0,1,415,NaN,bottle,bottle,NaN,bottle2-bottle3.png,bottle2-bottle3.png,1.0,-3.2103317,-4.6542897,1.0210326
alexnet_w3_mlp_simclrhn_probe0,1,416,NaN,bicycle,bottle,NaN,bottle2-car2.png,bottle2-car2.png,0.0,-5.080364,-1.4501877,-2.5669224
alexnet_w3_mlp_simclrhn_probe0,1,417,NaN,chair,bottle,NaN,bottle2-chair3.png,bottle2-chair3.png,0.0,-3.3896694,-2.704382,-0.48457143
alexnet_w3_mlp_simclrhn_probe0,1,418,NaN,bicycle,bottle,NaN,bottle2-clock1.png,bottle2-clock1.png,0.0,-4.451583,-3.035786,-1.0011196
alexnet_w3_mlp_simclrhn_probe0,1,419,NaN,cat,bottle,NaN,bottle2-elephant1.png,bottle2-elephant1.png,0.0,-3.6124647,-1.8912902,-1.2170541
alexnet_w3_mlp_simclrhn_probe0,1,420,NaN,bottle,bottle,NaN,bottle2-knife3.png,bottle2-knife3.png,1.0,-0.30017474,-3.554946,2.3014708
alexnet_w3_mlp_simclrhn_probe0,1,421,NaN,bottle,bottle,NaN,bottle3-airplane2.png,bottle3-airplane2.png,1.0,-1.5070707,-5.110676,2.5481339
alexnet_w3_mlp_simclrhn_probe0,1,422,NaN,elephant,bottle,NaN,bottle3-bear2.png,bottle3-bear2.png,0.0,-6.11444,0.4482775,-4.640542
alexnet_w3_mlp_simclrhn_probe0,1,423,NaN,bicycle,bottle,NaN,bottle3-bicycle3.png,bottle3-bicycle3.png,0.0,-4.831698,-1.0112696,-2.7014508
alexnet_w3_mlp_simclrhn_probe0,1,424,NaN,cat,bottle,NaN,bottle3-bird1.png,bottle3-bird1.png,0.0,-2.1458468,-1.2086391,-0.66270596
alexnet_w3_mlp_simclrhn_probe0,1,425,NaN,bottle,bottle,NaN,bottle3-boat3.png,bottle3-boat3.png,1.0,-1.8462743,-4.829171,2.1092267
alexnet_w3_mlp_simclrhn_probe0,1,426,NaN,bottle,bottle,NaN,bottle3-bottle3.png,bottle3-bottle3.png,1.0,-4.1455026,-5.967642,1.288447
alexnet_w3_mlp_simclrhn_probe0,1,427,NaN,cat,bottle,NaN,bottle3-cat3.png,bottle3-cat3.png,0.0,-3.3427563,-0.29335833,-2.15625
alexnet_w3_mlp_simclrhn_probe0,1,428,NaN,bottle,bottle,NaN,bottle3-chair3.png,bottle3-chair3.png,1.0,-3.9249523,-4.5396686,0.43467006
alexnet_w3_mlp_simclrhn_probe0,1,429,NaN,bottle,bottle,NaN,bottle3-knife3.png,bottle3-knife3.png,1.0,-0.9776135,-2.875291,1.3418608
alexnet_w3_mlp_simclrhn_probe0,1,430,NaN,bottle,bottle,NaN,bottle4-airplane1.png,bottle4-airplane1.png,1.0,-3.6945932,-3.8149753,0.08512298
alexnet_w3_mlp_simclrhn_probe0,1,431,NaN,bicycle,bottle,NaN,bottle4-bicycle1.png,bottle4-bicycle1.png,0.0,-6.681272,-2.2590284,-3.1269984
alexnet_w3_mlp_simclrhn_probe0,1,432,NaN,bicycle,bottle,NaN,bottle4-car3.png,bottle4-car3.png,0.0,-6.5222363,-1.9867601,-3.207066
alexnet_w3_mlp_simclrhn_probe0,1,433,NaN,cat,bottle,NaN,bottle4-dog2.png,bottle4-dog2.png,0.0,-4.0307918,-0.5472109,-2.4632638
alexnet_w3_mlp_simclrhn_probe0,1,434,NaN,bottle,bottle,NaN,bottle4-oven2.png,bottle4-oven2.png,1.0,0.05019463,-1.5025854,1.0979813
alexnet_w3_mlp_simclrhn_probe0,1,435,NaN,bottle,bottle,NaN,bottle4-truck1.png,bottle4-truck1.png,1.0,-1.8071787,-3.1874173,0.97597605
alexnet_w3_mlp_simclrhn_probe0,1,436,NaN,bottle,bottle,NaN,bottle5-airplane1.png,bottle5-airplane1.png,1.0,-2.757661,-3.58661,0.5861555
alexnet_w3_mlp_simclrhn_probe0,1,437,NaN,bottle,bottle,NaN,bottle5-bird3.png,bottle5-bird3.png,1.0,-2.0657241,-7.320104,3.7154078
alexnet_w3_mlp_simclrhn_probe0,1,438,NaN,bottle,bottle,NaN,bottle5-boat1.png,bottle5-boat1.png,1.0,-2.5721343,-3.8846288,0.92807376
alexnet_w3_mlp_simclrhn_probe0,1,439,NaN,cat,bottle,NaN,bottle5-cat1.png,bottle5-cat1.png,0.0,-7.4168925,0.892451,-5.875593
alexnet_w3_mlp_simclrhn_probe0,1,440,NaN,bottle,bottle,NaN,bottle5-chair1.png,bottle5-chair1.png,1.0,-1.6206169,-4.6080914,2.1124635
alexnet_w3_mlp_simclrhn_probe0,1,441,NaN,bottle,bottle,NaN,bottle5-clock3.png,bottle5-clock3.png,1.0,-1.8448122,-5.451577,2.550368
alexnet_w3_mlp_simclrhn_probe0,1,442,NaN,cat,bottle,NaN,bottle5-elephant1.png,bottle5-elephant1.png,0.0,-2.9140937,-1.3364419,-1.1155684
alexnet_w3_mlp_simclrhn_probe0,1,443,NaN,bottle,bottle,NaN,bottle5-keyboard2.png,bottle5-keyboard2.png,1.0,-0.6199395,-3.1846254,1.8135067
alexnet_w3_mlp_simclrhn_probe0,1,444,NaN,bottle,bottle,NaN,bottle5-knife1.png,bottle5-knife1.png,1.0,-3.0720706,-4.6825705,1.1387954
alexnet_w3_mlp_simclrhn_probe0,1,445,NaN,bottle,bottle,NaN,bottle5-oven2.png,bottle5-oven2.png,1.0,-0.33072588,-2.0481,1.2143669
alexnet_w3_mlp_simclrhn_probe0,1,446,NaN,bottle,bottle,NaN,bottle5-truck1.png,bottle5-truck1.png,1.0,-1.1275834,-2.4462156,0.9324138
alexnet_w3_mlp_simclrhn_probe0,1,447,NaN,bottle,bottle,NaN,bottle6-airplane1.png,bottle6-airplane1.png,1.0,-1.9493603,-4.0015917,1.4511467
alexnet_w3_mlp_simclrhn_probe0,1,448,NaN,elephant,bottle,NaN,bottle6-bear2.png,bottle6-bear2.png,0.0,-6.9828496,0.39846933,-5.219381
alexnet_w3_mlp_simclrhn_probe0,1,449,NaN,bottle,bottle,NaN,bottle6-bicycle3.png,bottle6-bicycle3.png,1.0,-2.8097878,-4.227361,1.0023758
alexnet_w3_mlp_simclrhn_probe0,1,450,NaN,cat,bottle,NaN,bottle6-bird1.png,bottle6-bird1.png,0.0,-2.7583644,-1.924271,-0.58979315
alexnet_w3_mlp_simclrhn_probe0,1,451,NaN,bottle,bottle,NaN,bottle6-boat3.png,bottle6-boat3.png,1.0,-0.45540014,-3.0947177,1.8662794
alexnet_w3_mlp_simclrhn_probe0,1,452,NaN,bottle,bottle,NaN,bottle6-bottle3.png,bottle6-bottle3.png,1.0,-4.1612506,-7.119739,2.0919673
alexnet_w3_mlp_simclrhn_probe0,1,453,NaN,bottle,bottle,NaN,bottle6-chair2.png,bottle6-chair2.png,1.0,-1.2902428,-3.2628155,1.3948195
alexnet_w3_mlp_simclrhn_probe0,1,454,NaN,cat,bottle,NaN,bottle6-dog3.png,bottle6-dog3.png,0.0,-7.053914,-0.32159412,-4.760469
alexnet_w3_mlp_simclrhn_probe0,1,455,NaN,bottle,bottle,NaN,bottle6-knife3.png,bottle6-knife3.png,1.0,-1.3090857,-3.0399215,1.2238858
alexnet_w3_mlp_simclrhn_probe0,1,456,NaN,bottle,bottle,NaN,bottle6-oven3.png,bottle6-oven3.png,1.0,-0.49056974,-1.4748112,0.69596386
alexnet_w3_mlp_simclrhn_probe0,1,457,NaN,bottle,bottle,NaN,bottle7-airplane3.png,bottle7-airplane3.png,1.0,-3.1018178,-4.170409,0.7556082
alexnet_w3_mlp_simclrhn_probe0,1,458,NaN,bear,bottle,NaN,bottle7-bear1.png,bottle7-bear1.png,0.0,-7.829236,-0.43929508,-5.225477
alexnet_w3_mlp_simclrhn_probe0,1,459,NaN,bottle,bottle,NaN,bottle7-boat3.png,bottle7-boat3.png,1.0,-3.4006512,-4.0962706,0.49187717
alexnet_w3_mlp_simclrhn_probe0,1,460,NaN,cat,bottle,NaN,bottle7-cat2.png,bottle7-cat2.png,0.0,-5.2409554,0.118860096,-3.789962
alexnet_w3_mlp_simclrhn_probe0,1,461,NaN,bottle,bottle,NaN,bottle7-clock1.png,bottle7-clock1.png,1.0,-5.100982,-6.0533314,0.67341256
alexnet_w3_mlp_simclrhn_probe0,1,462,NaN,elephant,bottle,NaN,bottle7-elephant2.png,bottle7-elephant2.png,0.0,-6.082793,0.80902696,-4.873253
alexnet_w3_mlp_simclrhn_probe0,1,463,NaN,bottle,bottle,NaN,bottle7-keyboard2.png,bottle7-keyboard2.png,1.0,-1.4737784,-2.9495306,1.0435144
alexnet_w3_mlp_simclrhn_probe0,1,464,NaN,bottle,bottle,NaN,bottle7-oven2.png,bottle7-oven2.png,1.0,-0.38837904,-1.347048,0.67788136
alexnet_w3_mlp_simclrhn_probe0,1,465,NaN,chair,bottle,NaN,bottle7-truck2.png,bottle7-truck2.png,0.0,-3.782644,-2.9738173,-0.57192683
alexnet_w3_mlp_simclrhn_probe0,1,466,NaN,bicycle,bottle,NaN,bottle8-bicycle1.png,bottle8-bicycle1.png,0.0,-4.073535,-3.0491462,-0.7243523
alexnet_w3_mlp_simclrhn_probe0,1,467,NaN,cat,bottle,NaN,bottle8-bird1.png,bottle8-bird1.png,0.0,-2.3401554,-1.2187072,-0.7929836
alexnet_w3_mlp_simclrhn_probe0,1,468,NaN,bottle,bottle,NaN,bottle8-bottle3.png,bottle8-bottle3.png,1.0,-1.9372498,-5.76219,2.704641
alexnet_w3_mlp_simclrhn_probe0,1,469,NaN,cat,bottle,NaN,bottle8-dog2.png,bottle8-dog2.png,0.0,-3.697274,-0.75225776,-2.0824409
alexnet_w3_mlp_simclrhn_probe0,1,470,NaN,cat,bottle,NaN,bottle8-elephant3.png,bottle8-elephant3.png,0.0,-3.3562865,-2.6032355,-0.5324875
alexnet_w3_mlp_simclrhn_probe0,1,471,NaN,bottle,bottle,NaN,bottle8-keyboard3.png,bottle8-keyboard3.png,1.0,-1.331125,-3.8990219,1.8157773
alexnet_w3_mlp_simclrhn_probe0,1,472,NaN,bottle,bottle,NaN,bottle8-knife1.png,bottle8-knife1.png,1.0,-3.2983418,-5.383611,1.4745082
alexnet_w3_mlp_simclrhn_probe0,1,473,NaN,bicycle,bottle,NaN,bottle9-bicycle1.png,bottle9-bicycle1.png,0.0,-4.9162874,-3.7314196,-0.8378281
alexnet_w3_mlp_simclrhn_probe0,1,474,NaN,bottle,bottle,NaN,bottle9-bottle1.png,bottle9-bottle1.png,1.0,-1.7307222,-4.248792,1.7805444
alexnet_w3_mlp_simclrhn_probe0,1,475,NaN,bottle,bottle,NaN,bottle9-car3.png,bottle9-car3.png,1.0,-4.3377523,-5.9430285,1.1351017
alexnet_w3_mlp_simclrhn_probe0,1,476,NaN,cat,bottle,NaN,bottle9-cat2.png,bottle9-cat2.png,0.0,-4.5007133,-0.035187524,-3.1576035
alexnet_w3_mlp_simclrhn_probe0,1,477,NaN,elephant,bottle,NaN,bottle9-elephant2.png,bottle9-elephant2.png,0.0,-3.6592753,-1.8806019,-1.257712
alexnet_w3_mlp_simclrhn_probe0,1,478,NaN,bottle,bottle,NaN,bottle9-keyboard1.png,bottle9-keyboard1.png,1.0,-2.2994182,-4.044562,1.234003
alexnet_w3_mlp_simclrhn_probe0,1,479,NaN,bottle,bottle,NaN,bottle9-oven2.png,bottle9-oven2.png,1.0,-0.16338052,-0.83479774,0.4747637
alexnet_w3_mlp_simclrhn_probe0,1,480,NaN,bottle,bottle,NaN,bottle9-truck1.png,bottle9-truck1.png,1.0,-0.8078017,-2.9312158,1.5014805
alexnet_w3_mlp_simclrhn_probe0,1,481,NaN,car,car,NaN,car1-airplane1.png,car1-airplane1.png,1.0,0.15396352,-0.8639873,0.7198
alexnet_w3_mlp_simclrhn_probe0,1,482,NaN,car,car,NaN,car1-car2.png,car1-car2.png,1.0,-2.2711017,-4.686762,1.7081296
alexnet_w3_mlp_simclrhn_probe0,1,483,NaN,airplane,car,NaN,car1-chair3.png,car1-chair3.png,0.0,-1.5088867,-0.21117136,-0.9176233
alexnet_w3_mlp_simclrhn_probe0,1,484,NaN,car,car,NaN,car1-clock2.png,car1-clock2.png,1.0,0.36197925,-3.8400428,2.9712784
alexnet_w3_mlp_simclrhn_probe0,1,485,NaN,cat,car,NaN,car1-dog2.png,car1-dog2.png,0.0,-10.516194,-1.9686431,-6.0440316
alexnet_w3_mlp_simclrhn_probe0,1,486,NaN,keyboard,car,NaN,car1-keyboard2.png,car1-keyboard2.png,0.0,-1.6004229,-0.6234546,-0.69082093
alexnet_w3_mlp_simclrhn_probe0,1,487,NaN,oven,car,NaN,car1-oven3.png,car1-oven3.png,0.0,-2.6564817,0.0019133985,-1.8797692
alexnet_w3_mlp_simclrhn_probe0,1,488,NaN,bicycle,car,NaN,car10-bicycle2.png,car10-bicycle2.png,0.0,-5.7271514,-0.21708572,-3.8962047
alexnet_w3_mlp_simclrhn_probe0,1,489,NaN,bicycle,car,NaN,car10-bottle3.png,car10-bottle3.png,0.0,-5.6056304,-2.9284961,-1.8930198
alexnet_w3_mlp_simclrhn_probe0,1,490,NaN,car,car,NaN,car10-car1.png,car10-car1.png,1.0,1.2993275,-1.7568178,2.161021
alexnet_w3_mlp_simclrhn_probe0,1,491,NaN,car,car,NaN,car10-chair1.png,car10-chair1.png,1.0,2.8180332,2.7072005,0.07837055
alexnet_w3_mlp_simclrhn_probe0,1,492,NaN,cat,car,NaN,car10-dog1.png,car10-dog1.png,0.0,-10.63435,-0.36520317,-7.2613835
alexnet_w3_mlp_simclrhn_probe0,1,493,NaN,cat,car,NaN,car10-elephant2.png,car10-elephant2.png,0.0,-7.3592753,-0.9034321,-4.564971
alexnet_w3_mlp_simclrhn_probe0,1,494,NaN,airplane,car,NaN,car10-keyboard2.png,car10-keyboard2.png,0.0,-1.214827,1.23601,-1.7330034
alexnet_w3_mlp_simclrhn_probe0,1,495,NaN,elephant,car,NaN,car2-bird3.png,car2-bird3.png,0.0,-7.4497743,-7.3439035,-0.07486191
alexnet_w3_mlp_simclrhn_probe0,1,496,NaN,car,car,NaN,car2-car3.png,car2-car3.png,1.0,0.062358975,-2.6779778,1.9377109
alexnet_w3_mlp_simclrhn_probe0,1,497,NaN,elephant,car,NaN,car2-cat3.png,car2-cat3.png,0.0,-8.91434,-2.4463985,-4.5735254
alexnet_w3_mlp_simclrhn_probe0,1,498,NaN,car,car,NaN,car2-chair1.png,car2-chair1.png,1.0,1.5956559,-1.7446344,2.361942
alexnet_w3_mlp_simclrhn_probe0,1,499,NaN,bottle,car,NaN,car2-knife3.png,car2-knife3.png,0.0,-4.295779,-3.2624207,-0.7306949
alexnet_w3_mlp_simclrhn_probe0,1,500,NaN,car,car,NaN,car3-airplane3.png,car3-airplane3.png,1.0,3.8004682,0.49628913,2.3364077
alexnet_w3_mlp_simclrhn_probe0,1,501,NaN,bicycle,car,NaN,car3-bird2.png,car3-bird2.png,0.0,-6.225616,-4.2660275,-1.3856384
alexnet_w3_mlp_simclrhn_probe0,1,502,NaN,car,car,NaN,car3-boat1.png,car3-boat1.png,1.0,2.321946,-1.0534545,2.3867686
alexnet_w3_mlp_simclrhn_probe0,1,503,NaN,bicycle,car,NaN,car3-bottle3.png,car3-bottle3.png,0.0,-10.088929,-6.876934,-2.2712235
alexnet_w3_mlp_simclrhn_probe0,1,504,NaN,cat,car,NaN,car3-dog2.png,car3-dog2.png,0.0,-9.855651,-1.7603235,-5.724261
alexnet_w3_mlp_simclrhn_probe0,1,505,NaN,elephant,car,NaN,car3-elephant3.png,car3-elephant3.png,0.0,-6.3756657,-2.841579,-2.4989767
alexnet_w3_mlp_simclrhn_probe0,1,506,NaN,truck,car,NaN,car3-oven3.png,car3-oven3.png,0.0,-1.167864,0.32663625,-1.0567712
alexnet_w3_mlp_simclrhn_probe0,1,507,NaN,car,car,NaN,car3-truck1.png,car3-truck1.png,1.0,3.6613064,-0.92782736,3.2450078
alexnet_w3_mlp_simclrhn_probe0,1,508,NaN,cat,car,NaN,car4-bear3.png,car4-bear3.png,0.0,-11.812953,-2.8698452,-6.3237324
alexnet_w3_mlp_simclrhn_probe0,1,509,NaN,bicycle,car,NaN,car4-bicycle3.png,car4-bicycle3.png,0.0,-7.8105483,-1.2168491,-4.66245
alexnet_w3_mlp_simclrhn_probe0,1,510,NaN,cat,car,NaN,car4-bird1.png,car4-bird1.png,0.0,-5.428896,-2.807129,-1.8538693
alexnet_w3_mlp_simclrhn_probe0,1,511,NaN,car,car,NaN,car4-boat1.png,car4-boat1.png,1.0,0.6207642,-1.8189819,1.7251611
alexnet_w3_mlp_simclrhn_probe0,1,512,NaN,bottle,car,NaN,car4-bottle1.png,car4-bottle1.png,0.0,-9.163596,-4.104627,-3.5772314
alexnet_w3_mlp_simclrhn_probe0,1,513,NaN,car,car,NaN,car4-car2.png,car4-car2.png,1.0,1.6298615,-2.0315878,2.5890357
alexnet_w3_mlp_simclrhn_probe0,1,514,NaN,cat,car,NaN,car4-cat3.png,car4-cat3.png,0.0,-10.157571,-2.6037748,-5.3413405
alexnet_w3_mlp_simclrhn_probe0,1,515,NaN,car,car,NaN,car4-clock1.png,car4-clock1.png,1.0,-3.3903153,-4.742645,0.95624137
alexnet_w3_mlp_simclrhn_probe0,1,516,NaN,bird,car,NaN,car4-elephant3.png,car4-elephant3.png,0.0,-6.422951,-3.9450283,-1.7521561
alexnet_w3_mlp_simclrhn_probe0,1,517,NaN,truck,car,NaN,car4-oven2.png,car4-oven2.png,0.0,-2.2599802,-0.74484634,-1.0713614
alexnet_w3_mlp_simclrhn_probe0,1,518,NaN,car,car,NaN,car5-airplane3.png,car5-airplane3.png,1.0,1.421382,-1.0237129,1.7289431
alexnet_w3_mlp_simclrhn_probe0,1,519,NaN,cat,car,NaN,car5-bear3.png,car5-bear3.png,0.0,-12.766415,-1.8970156,-7.685826
alexnet_w3_mlp_simclrhn_probe0,1,520,NaN,bottle,car,NaN,car5-bottle1.png,car5-bottle1.png,0.0,-9.322099,-2.968968,-4.492342
alexnet_w3_mlp_simclrhn_probe0,1,521,NaN,cat,car,NaN,car5-cat1.png,car5-cat1.png,0.0,-11.207667,-1.5752702,-6.811133
alexnet_w3_mlp_simclrhn_probe0,1,522,NaN,bottle,car,NaN,car5-keyboard3.png,car5-keyboard3.png,0.0,-1.9179665,-1.9060705,-0.008411752
alexnet_w3_mlp_simclrhn_probe0,1,523,NaN,truck,car,NaN,car5-knife2.png,car5-knife2.png,0.0,0.12518339,0.21465965,-0.06326927
alexnet_w3_mlp_simclrhn_probe0,1,524,NaN,truck,car,NaN,car5-oven2.png,car5-oven2.png,0.0,0.28040805,1.2248807,-0.66784304
alexnet_w3_mlp_simclrhn_probe0,1,525,NaN,car,car,NaN,car5-truck3.png,car5-truck3.png,1.0,1.0753031,0.10761422,0.68425936
alexnet_w3_mlp_simclrhn_probe0,1,526,NaN,elephant,car,NaN,car6-bear1.png,car6-bear1.png,0.0,-11.91201,-1.3528907,-7.466425
alexnet_w3_mlp_simclrhn_probe0,1,527,NaN,bicycle,car,NaN,car6-bicycle3.png,car6-bicycle3.png,0.0,-6.937195,-1.2501813,-4.021326
alexnet_w3_mlp_simclrhn_probe0,1,528,NaN,bicycle,car,NaN,car6-boat1.png,car6-boat1.png,0.0,-1.911037,-1.8185778,-0.06537853
alexnet_w3_mlp_simclrhn_probe0,1,529,NaN,bicycle,car,NaN,car6-bottle1.png,car6-bottle1.png,0.0,-9.8585615,-3.7819352,-4.2968235
alexnet_w3_mlp_simclrhn_probe0,1,530,NaN,airplane,car,NaN,car6-chair3.png,car6-chair3.png,0.0,-2.9196122,-0.1329517,-1.9704665
alexnet_w3_mlp_simclrhn_probe0,1,531,NaN,elephant,car,NaN,car6-elephant3.png,car6-elephant3.png,0.0,-6.2401733,-2.5410926,-2.6156452
alexnet_w3_mlp_simclrhn_probe0,1,532,NaN,car,car,NaN,car6-knife1.png,car6-knife1.png,1.0,-1.6893382,-4.287638,1.8372756
alexnet_w3_mlp_simclrhn_probe0,1,533,NaN,car,car,NaN,car6-truck3.png,car6-truck3.png,1.0,-0.5695969,-1.6082103,0.73441064
alexnet_w3_mlp_simclrhn_probe0,1,534,NaN,car,car,NaN,car7-airplane2.png,car7-airplane2.png,1.0,0.90392226,-1.437325,1.6555119
alexnet_w3_mlp_simclrhn_probe0,1,535,NaN,bear,car,NaN,car7-bear1.png,car7-bear1.png,0.0,-11.313472,-1.2497873,-7.1161
alexnet_w3_mlp_simclrhn_probe0,1,536,NaN,car,car,NaN,car7-bird3.png,car7-bird3.png,1.0,-4.2575936,-7.392593,2.2167792
alexnet_w3_mlp_simclrhn_probe0,1,537,NaN,truck,car,NaN,car7-boat3.png,car7-boat3.png,0.0,-2.2221544,-1.9011075,-0.2270144
alexnet_w3_mlp_simclrhn_probe0,1,538,NaN,bicycle,car,NaN,car7-car1.png,car7-car1.png,0.0,-3.4908888,-1.9601896,-1.0823679
alexnet_w3_mlp_simclrhn_probe0,1,539,NaN,car,car,NaN,car7-clock1.png,car7-clock1.png,1.0,-4.3059163,-4.4069653,0.071452394
alexnet_w3_mlp_simclrhn_probe0,1,540,NaN,cat,car,NaN,car7-dog3.png,car7-dog3.png,0.0,-10.229952,-2.2268069,-5.659078
alexnet_w3_mlp_simclrhn_probe0,1,541,NaN,elephant,car,NaN,car7-elephant3.png,car7-elephant3.png,0.0,-6.6355367,-2.9835398,-2.5823517
alexnet_w3_mlp_simclrhn_probe0,1,542,NaN,car,car,NaN,car7-keyboard3.png,car7-keyboard3.png,1.0,-1.6590909,-1.9401057,0.19870748
alexnet_w3_mlp_simclrhn_probe0,1,543,NaN,truck,car,NaN,car7-oven2.png,car7-oven2.png,0.0,-2.5503743,-1.1006103,-1.025138
alexnet_w3_mlp_simclrhn_probe0,1,544,NaN,car,car,NaN,car8-airplane3.png,car8-airplane3.png,1.0,-0.38466153,-2.6809092,1.6236924
alexnet_w3_mlp_simclrhn_probe0,1,545,NaN,bear,car,NaN,car8-bear1.png,car8-bear1.png,0.0,-11.481046,-2.0355136,-6.679
alexnet_w3_mlp_simclrhn_probe0,1,546,NaN,bicycle,car,NaN,car8-bicycle2.png,car8-bicycle2.png,0.0,-6.2411613,-0.10603103,-4.3381925
alexnet_w3_mlp_simclrhn_probe0,1,547,NaN,car,car,NaN,car8-boat3.png,car8-boat3.png,1.0,-0.9758687,-1.6608244,0.48433685
alexnet_w3_mlp_simclrhn_probe0,1,548,NaN,cat,car,NaN,car8-cat1.png,car8-cat1.png,0.0,-11.12133,-1.6445066,-6.7011266
alexnet_w3_mlp_simclrhn_probe0,1,549,NaN,car,car,NaN,car8-chair1.png,car8-chair1.png,1.0,0.7753689,-2.527914,2.335774
alexnet_w3_mlp_simclrhn_probe0,1,550,NaN,car,car,NaN,car8-clock2.png,car8-clock2.png,1.0,0.40998134,-4.0144844,3.1285698
alexnet_w3_mlp_simclrhn_probe0,1,551,NaN,cat,car,NaN,car8-dog1.png,car8-dog1.png,0.0,-10.627721,-1.8828079,-6.1835876
alexnet_w3_mlp_simclrhn_probe0,1,552,NaN,airplane,car,NaN,car8-knife2.png,car8-knife2.png,0.0,-4.741888,-4.0793123,-0.4685118
alexnet_w3_mlp_simclrhn_probe0,1,553,NaN,car,car,NaN,car8-truck3.png,car8-truck3.png,1.0,0.15278406,-0.9227102,0.76048934
alexnet_w3_mlp_simclrhn_probe0,1,554,NaN,bicycle,car,NaN,car9-bicycle2.png,car9-bicycle2.png,0.0,-4.1106954,0.71203715,-3.4101868
alexnet_w3_mlp_simclrhn_probe0,1,555,NaN,cat,car,NaN,car9-bird1.png,car9-bird1.png,0.0,-4.6010356,-2.3223543,-1.611271
alexnet_w3_mlp_simclrhn_probe0,1,556,NaN,cat,car,NaN,car9-cat1.png,car9-cat1.png,0.0,-10.690403,-1.6308657,-6.40606
alexnet_w3_mlp_simclrhn_probe0,1,557,NaN,car,car,NaN,car9-clock2.png,car9-clock2.png,1.0,2.9400918,-0.23865595,2.2477143
alexnet_w3_mlp_simclrhn_probe0,1,558,NaN,airplane,car,NaN,car9-keyboard2.png,car9-keyboard2.png,0.0,-2.7383645,-2.1574566,-0.41076386
alexnet_w3_mlp_simclrhn_probe0,1,559,NaN,car,car,NaN,car9-knife1.png,car9-knife1.png,1.0,-3.3012273,-4.626727,0.93726987
alexnet_w3_mlp_simclrhn_probe0,1,560,NaN,car,car,NaN,car9-truck3.png,car9-truck3.png,1.0,0.50534374,0.11768085,0.27411905
alexnet_w3_mlp_simclrhn_probe0,1,561,NaN,chair,cat,NaN,cat1-airplane1.png,cat1-airplane1.png,0.0,-8.137411,-3.864977,-3.0210674
alexnet_w3_mlp_simclrhn_probe0,1,562,NaN,cat,cat,NaN,cat1-bird1.png,cat1-bird1.png,1.0,-0.5317655,-2.095055,1.1054127
alexnet_w3_mlp_simclrhn_probe0,1,563,NaN,bicycle,cat,NaN,cat1-boat1.png,cat1-boat1.png,0.0,-8.133206,-2.235187,-4.1705294
alexnet_w3_mlp_simclrhn_probe0,1,564,NaN,bicycle,cat,NaN,cat1-car2.png,cat1-car2.png,0.0,-6.9518237,-2.4516149,-3.1821282
alexnet_w3_mlp_simclrhn_probe0,1,565,NaN,cat,cat,NaN,cat1-cat3.png,cat1-cat3.png,1.0,2.106525,-3.0672162,3.6583877
alexnet_w3_mlp_simclrhn_probe0,1,566,NaN,chair,cat,NaN,cat1-chair2.png,cat1-chair2.png,0.0,-9.167041,-2.1683774,-4.9488025
alexnet_w3_mlp_simclrhn_probe0,1,567,NaN,cat,cat,NaN,cat1-dog1.png,cat1-dog1.png,1.0,4.4592757,-2.7885687,5.125
alexnet_w3_mlp_simclrhn_probe0,1,568,NaN,bottle,cat,NaN,cat1-keyboard3.png,cat1-keyboard3.png,0.0,-6.705145,-2.375871,-3.0612593
alexnet_w3_mlp_simclrhn_probe0,1,569,NaN,chair,cat,NaN,cat1-oven1.png,cat1-oven1.png,0.0,-6.169745,-1.1604941,-3.5420752
alexnet_w3_mlp_simclrhn_probe0,1,570,NaN,bottle,cat,NaN,cat10-airplane3.png,cat10-airplane3.png,0.0,-8.34118,-5.4558554,-2.0402327
alexnet_w3_mlp_simclrhn_probe0,1,571,NaN,cat,cat,NaN,cat10-bear1.png,cat10-bear1.png,1.0,1.1793022,0.032589227,0.8108486
alexnet_w3_mlp_simclrhn_probe0,1,572,NaN,bird,cat,NaN,cat10-bicycle1.png,cat10-bicycle1.png,0.0,-5.7843404,-2.9729214,-1.9879735
alexnet_w3_mlp_simclrhn_probe0,1,573,NaN,cat,cat,NaN,cat10-bird2.png,cat10-bird2.png,1.0,-1.8790073,-4.2002487,1.6413655
alexnet_w3_mlp_simclrhn_probe0,1,574,NaN,bicycle,cat,NaN,cat10-bottle1.png,cat10-bottle1.png,0.0,-8.663081,-3.7637336,-3.4643617
alexnet_w3_mlp_simclrhn_probe0,1,575,NaN,bicycle,cat,NaN,cat10-clock1.png,cat10-clock1.png,0.0,-5.597847,-4.88078,-0.50704277
alexnet_w3_mlp_simclrhn_probe0,1,576,NaN,cat,cat,NaN,cat10-elephant3.png,cat10-elephant3.png,1.0,-1.6889343,-2.2016232,0.3625258
alexnet_w3_mlp_simclrhn_probe0,1,577,NaN,elephant,cat,NaN,cat10-keyboard1.png,cat10-keyboard1.png,0.0,-7.14413,-4.5688543,-1.8209951
alexnet_w3_mlp_simclrhn_probe0,1,578,NaN,truck,cat,NaN,cat10-oven2.png,cat10-oven2.png,0.0,-7.030627,-1.2534616,-4.085073
alexnet_w3_mlp_simclrhn_probe0,1,579,NaN,bicycle,cat,NaN,cat2-boat2.png,cat2-boat2.png,0.0,-8.831111,-1.9169403,-4.889057
alexnet_w3_mlp_simclrhn_probe0,1,580,NaN,cat,cat,NaN,cat2-bottle3.png,cat2-bottle3.png,1.0,-4.143335,-5.3870106,0.8794115
alexnet_w3_mlp_simclrhn_probe0,1,581,NaN,bicycle,cat,NaN,cat2-car3.png,cat2-car3.png,0.0,-5.724064,-5.6429644,-0.057346016
alexnet_w3_mlp_simclrhn_probe0,1,582,NaN,cat,cat,NaN,cat2-cat1.png,cat2-cat1.png,1.0,2.7174485,-0.90235,2.5595841
alexnet_w3_mlp_simclrhn_probe0,1,583,NaN,cat,cat,NaN,cat2-elephant1.png,cat2-elephant1.png,1.0,-0.8755434,-2.5822082,1.2067943
alexnet_w3_mlp_simclrhn_probe0,1,584,NaN,bottle,cat,NaN,cat2-knife3.png,cat2-knife3.png,0.0,-6.2427697,-3.3624055,-2.036725
alexnet_w3_mlp_simclrhn_probe0,1,585,NaN,bottle,cat,NaN,cat2-truck3.png,cat2-truck3.png,0.0,-8.379403,-3.2393248,-3.6345844
alexnet_w3_mlp_simclrhn_probe0,1,586,NaN,bear,cat,NaN,cat3-bear2.png,cat3-bear2.png,0.0,1.280958,1.2927015,-0.0083038565
alexnet_w3_mlp_simclrhn_probe0,1,587,NaN,cat,cat,NaN,cat3-bicycle1.png,cat3-bicycle1.png,1.0,-6.3457503,-6.962118,0.43583786
alexnet_w3_mlp_simclrhn_probe0,1,588,NaN,cat,cat,NaN,cat3-cat1.png,cat3-cat1.png,1.0,3.9527452,-0.7821051,3.3480449
alexnet_w3_mlp_simclrhn_probe0,1,589,NaN,cat,cat,NaN,cat3-elephant2.png,cat3-elephant2.png,1.0,-0.8088997,-1.7725663,0.6814152
alexnet_w3_mlp_simclrhn_probe0,1,590,NaN,truck,cat,NaN,cat3-oven2.png,cat3-oven2.png,0.0,-8.288609,-1.7812725,-4.601382
alexnet_w3_mlp_simclrhn_probe0,1,591,NaN,truck,cat,NaN,cat3-truck3.png,cat3-truck3.png,0.0,-10.418616,-2.8123698,-5.3784285
alexnet_w3_mlp_simclrhn_probe0,1,592,NaN,bottle,cat,NaN,cat4-airplane1.png,cat4-airplane1.png,0.0,-7.3934655,-4.709534,-1.8978261
alexnet_w3_mlp_simclrhn_probe0,1,593,NaN,cat,cat,NaN,cat4-bird2.png,cat4-bird2.png,1.0,-3.775051,-4.693893,0.6497193
alexnet_w3_mlp_simclrhn_probe0,1,594,NaN,bicycle,cat,NaN,cat4-car2.png,cat4-car2.png,0.0,-7.5946765,-4.3433094,-2.2990637
alexnet_w3_mlp_simclrhn_probe0,1,595,NaN,cat,cat,NaN,cat4-cat3.png,cat4-cat3.png,1.0,-0.52632886,-2.1705925,1.16267
alexnet_w3_mlp_simclrhn_probe0,1,596,NaN,chair,cat,NaN,cat4-chair2.png,cat4-chair2.png,0.0,-10.068847,-2.9444196,-5.0377307
alexnet_w3_mlp_simclrhn_probe0,1,597,NaN,bottle,cat,NaN,cat4-clock2.png,cat4-clock2.png,0.0,-9.772359,-5.508596,-3.0149357
alexnet_w3_mlp_simclrhn_probe0,1,598,NaN,cat,cat,NaN,cat4-dog3.png,cat4-dog3.png,1.0,1.1376462,-2.140518,2.3180122
alexnet_w3_mlp_simclrhn_probe0,1,599,NaN,clock,cat,NaN,cat4-keyboard2.png,cat4-keyboard2.png,0.0,-6.31667,-1.8318453,-3.1712499
alexnet_w3_mlp_simclrhn_probe0,1,600,NaN,bicycle,cat,NaN,cat4-knife1.png,cat4-knife1.png,0.0,-8.800792,-4.4276114,-3.0923057
alexnet_w3_mlp_simclrhn_probe0,1,601,NaN,knife,cat,NaN,cat4-oven1.png,cat4-oven1.png,0.0,-5.1763034,-0.7377005,-3.1385663
alexnet_w3_mlp_simclrhn_probe0,1,602,NaN,bottle,cat,NaN,cat4-truck3.png,cat4-truck3.png,0.0,-8.992371,-2.0692124,-4.895412
alexnet_w3_mlp_simclrhn_probe0,1,603,NaN,chair,cat,NaN,cat5-airplane2.png,cat5-airplane2.png,0.0,-8.165853,-3.3504243,-3.4050221
alexnet_w3_mlp_simclrhn_probe0,1,604,NaN,cat,cat,NaN,cat5-bear2.png,cat5-bear2.png,1.0,1.1405234,-0.67410946,1.2831392
alexnet_w3_mlp_simclrhn_probe0,1,605,NaN,cat,cat,NaN,cat5-bicycle3.png,cat5-bicycle3.png,1.0,-2.7922325,-5.8734775,2.1787694
alexnet_w3_mlp_simclrhn_probe0,1,606,NaN,chair,cat,NaN,cat5-boat1.png,cat5-boat1.png,0.0,-9.766624,-4.348395,-3.8312669
alexnet_w3_mlp_simclrhn_probe0,1,607,NaN,bicycle,cat,NaN,cat5-bottle1.png,cat5-bottle1.png,0.0,-7.544735,-3.4282057,-2.910826
alexnet_w3_mlp_simclrhn_probe0,1,608,NaN,bicycle,cat,NaN,cat5-car2.png,cat5-car2.png,0.0,-7.096287,-4.205104,-2.0443752
alexnet_w3_mlp_simclrhn_probe0,1,609,NaN,airplane,cat,NaN,cat5-chair3.png,cat5-chair3.png,0.0,-8.229971,-3.997092,-2.9930973
alexnet_w3_mlp_simclrhn_probe0,1,610,NaN,cat,cat,NaN,cat5-dog3.png,cat5-dog3.png,1.0,3.3397017,-2.3130176,3.9970763
alexnet_w3_mlp_simclrhn_probe0,1,611,NaN,cat,cat,NaN,cat5-elephant2.png,cat5-elephant2.png,1.0,0.6273367,-0.44590122,0.7588938
alexnet_w3_mlp_simclrhn_probe0,1,612,NaN,airplane,cat,NaN,cat5-keyboard3.png,cat5-keyboard3.png,0.0,-6.353166,-2.0664685,-3.0311527
alexnet_w3_mlp_simclrhn_probe0,1,613,NaN,oven,cat,NaN,cat5-knife2.png,cat5-knife2.png,0.0,-6.7608,-3.2745838,-2.465127
alexnet_w3_mlp_simclrhn_probe0,1,614,NaN,cat,cat,NaN,cat6-bear1.png,cat6-bear1.png,1.0,1.1506706,-0.85017276,1.4148101
alexnet_w3_mlp_simclrhn_probe0,1,615,NaN,airplane,cat,NaN,cat6-chair3.png,cat6-chair3.png,0.0,-9.56769,-2.3903632,-5.0751367
alexnet_w3_mlp_simclrhn_probe0,1,616,NaN,cat,cat,NaN,cat6-clock3.png,cat6-clock3.png,1.0,-5.138417,-5.8064346,0.47235996
alexnet_w3_mlp_simclrhn_probe0,1,617,NaN,knife,cat,NaN,cat6-keyboard3.png,cat6-keyboard3.png,0.0,-5.4010606,-1.7398221,-2.5888865
alexnet_w3_mlp_simclrhn_probe0,1,618,NaN,chair,cat,NaN,cat6-oven1.png,cat6-oven1.png,0.0,-5.792125,-1.2455361,-3.2149239
alexnet_w3_mlp_simclrhn_probe0,1,619,NaN,car,cat,NaN,cat7-airplane2.png,cat7-airplane2.png,0.0,-8.090631,-3.4988945,-3.2468476
alexnet_w3_mlp_simclrhn_probe0,1,620,NaN,oven,cat,NaN,cat7-boat3.png,cat7-boat3.png,0.0,-8.959739,-3.9572005,-3.5373287
alexnet_w3_mlp_simclrhn_probe0,1,621,NaN,bicycle,cat,NaN,cat7-bottle1.png,cat7-bottle1.png,0.0,-8.122562,-3.4074922,-3.3340583
alexnet_w3_mlp_simclrhn_probe0,1,622,NaN,cat,cat,NaN,cat7-clock3.png,cat7-clock3.png,1.0,-6.016979,-6.506665,0.3462603
alexnet_w3_mlp_simclrhn_probe0,1,623,NaN,cat,cat,NaN,cat7-dog3.png,cat7-dog3.png,1.0,2.2287529,-0.82071614,2.1563003
alexnet_w3_mlp_simclrhn_probe0,1,624,NaN,cat,cat,NaN,cat7-elephant1.png,cat7-elephant1.png,1.0,-1.6700214,-2.6954832,0.725111
alexnet_w3_mlp_simclrhn_probe0,1,625,NaN,oven,cat,NaN,cat7-knife2.png,cat7-knife2.png,0.0,-7.894396,-2.198721,-4.0274506
alexnet_w3_mlp_simclrhn_probe0,1,626,NaN,chair,cat,NaN,cat7-truck2.png,cat7-truck2.png,0.0,-7.833679,-3.213085,-3.2672534
alexnet_w3_mlp_simclrhn_probe0,1,627,NaN,bear,cat,NaN,cat8-bear1.png,cat8-bear1.png,0.0,0.48491144,0.84493685,-0.2545764
alexnet_w3_mlp_simclrhn_probe0,1,628,NaN,bicycle,cat,NaN,cat8-bicycle3.png,cat8-bicycle3.png,0.0,-4.577599,-2.4752948,-1.4865535
alexnet_w3_mlp_simclrhn_probe0,1,629,NaN,cat,cat,NaN,cat8-bird2.png,cat8-bird2.png,1.0,-2.2692444,-4.993544,1.9263709
alexnet_w3_mlp_simclrhn_probe0,1,630,NaN,bicycle,cat,NaN,cat8-car2.png,cat8-car2.png,0.0,-6.5667744,-3.388622,-2.247293
alexnet_w3_mlp_simclrhn_probe0,1,631,NaN,bird,cat,NaN,cat9-bicycle1.png,cat9-bicycle1.png,0.0,-8.625414,-5.290239,-2.358325
alexnet_w3_mlp_simclrhn_probe0,1,632,NaN,dog,cat,NaN,cat9-bird3.png,cat9-bird3.png,0.0,-4.7248416,-4.4575,-0.18903907
alexnet_w3_mlp_simclrhn_probe0,1,633,NaN,bicycle,cat,NaN,cat9-boat2.png,cat9-boat2.png,0.0,-11.970254,-4.060361,-5.593139
alexnet_w3_mlp_simclrhn_probe0,1,634,NaN,bottle,cat,NaN,cat9-bottle2.png,cat9-bottle2.png,0.0,-11.696934,-3.3642561,-5.892093
alexnet_w3_mlp_simclrhn_probe0,1,635,NaN,cat,cat,NaN,cat9-cat3.png,cat9-cat3.png,1.0,-0.13564016,-1.0926633,0.6767176
alexnet_w3_mlp_simclrhn_probe0,1,636,NaN,boat,cat,NaN,cat9-chair2.png,cat9-chair2.png,0.0,-9.683647,-3.654652,-4.2631435
alexnet_w3_mlp_simclrhn_probe0,1,637,NaN,car,cat,NaN,cat9-clock2.png,cat9-clock2.png,0.0,-9.110584,-5.2304854,-2.7436442
alexnet_w3_mlp_simclrhn_probe0,1,638,NaN,cat,cat,NaN,cat9-dog2.png,cat9-dog2.png,1.0,0.308493,-1.2841196,1.1261472
alexnet_w3_mlp_simclrhn_probe0,1,639,NaN,airplane,cat,NaN,cat9-knife2.png,cat9-knife2.png,0.0,-8.1973295,-1.8953269,-4.456189
alexnet_w3_mlp_simclrhn_probe0,1,640,NaN,chair,cat,NaN,cat9-truck1.png,cat9-truck1.png,0.0,-9.401832,-3.0255923,-4.5086823
alexnet_w3_mlp_simclrhn_probe0,1,641,NaN,chair,chair,NaN,chair1-airplane2.png,chair1-airplane2.png,1.0,-2.2557595,-4.149839,1.3393165
alexnet_w3_mlp_simclrhn_probe0,1,642,NaN,cat,chair,NaN,chair1-bear1.png,chair1-bear1.png,0.0,-9.992872,-0.6696331,-6.592526
alexnet_w3_mlp_simclrhn_probe0,1,643,NaN,cat,chair,NaN,chair1-cat3.png,chair1-cat3.png,0.0,-8.592968,-0.69377667,-5.585572
alexnet_w3_mlp_simclrhn_probe0,1,644,NaN,chair,chair,NaN,chair1-chair1.png,chair1-chair1.png,1.0,-1.2678714,-4.306521,2.1486497
alexnet_w3_mlp_simclrhn_probe0,1,645,NaN,bottle,chair,NaN,chair1-clock2.png,chair1-clock2.png,0.0,-5.7526503,-5.6217203,-0.09258146
alexnet_w3_mlp_simclrhn_probe0,1,646,NaN,cat,chair,NaN,chair1-dog1.png,chair1-dog1.png,0.0,-11.463234,0.65053487,-8.565728
alexnet_w3_mlp_simclrhn_probe0,1,647,NaN,cat,chair,NaN,chair1-elephant1.png,chair1-elephant1.png,0.0,-3.8732939,-1.2362882,-1.8646448
alexnet_w3_mlp_simclrhn_probe0,1,648,NaN,chair,chair,NaN,chair1-oven3.png,chair1-oven3.png,1.0,0.25723362,-1.2027466,1.032362
alexnet_w3_mlp_simclrhn_probe0,1,649,NaN,bottle,chair,NaN,chair1-truck3.png,chair1-truck3.png,0.0,-3.0725813,-2.595615,-0.33726618
alexnet_w3_mlp_simclrhn_probe0,1,650,NaN,chair,chair,NaN,chair10-airplane2.png,chair10-airplane2.png,1.0,0.55646443,-2.948198,2.4781706
alexnet_w3_mlp_simclrhn_probe0,1,651,NaN,bicycle,chair,NaN,chair10-bicycle1.png,chair10-bicycle1.png,0.0,-5.33816,-1.6625999,-2.5990133
alexnet_w3_mlp_simclrhn_probe0,1,652,NaN,oven,chair,NaN,chair10-bird3.png,chair10-bird3.png,0.0,-5.207926,-3.821229,-0.9805427
alexnet_w3_mlp_simclrhn_probe0,1,653,NaN,oven,chair,NaN,chair10-bottle3.png,chair10-bottle3.png,0.0,-5.3523617,-4.7159696,-0.4499972
alexnet_w3_mlp_simclrhn_probe0,1,654,NaN,bicycle,chair,NaN,chair10-car2.png,chair10-car2.png,0.0,-4.8921547,-3.6268241,-0.89472383
alexnet_w3_mlp_simclrhn_probe0,1,655,NaN,cat,chair,NaN,chair10-cat1.png,chair10-cat1.png,0.0,-10.958303,0.41964388,-8.0454235
alexnet_w3_mlp_simclrhn_probe0,1,656,NaN,chair,chair,NaN,chair10-clock1.png,chair10-clock1.png,1.0,-3.5758073,-5.520279,1.3749491
alexnet_w3_mlp_simclrhn_probe0,1,657,NaN,cat,chair,NaN,chair10-dog1.png,chair10-dog1.png,0.0,-10.710494,0.41926455,-7.869928
alexnet_w3_mlp_simclrhn_probe0,1,658,NaN,chair,chair,NaN,chair10-oven1.png,chair10-oven1.png,1.0,1.4000816,0.8396652,0.3962743
alexnet_w3_mlp_simclrhn_probe0,1,659,NaN,elephant,chair,NaN,chair2-bear2.png,chair2-bear2.png,0.0,-7.6010103,-0.8122788,-4.8003583
alexnet_w3_mlp_simclrhn_probe0,1,660,NaN,chair,chair,NaN,chair2-boat1.png,chair2-boat1.png,1.0,0.057329297,-3.384698,2.4338808
alexnet_w3_mlp_simclrhn_probe0,1,661,NaN,knife,chair,NaN,chair2-keyboard2.png,chair2-keyboard2.png,0.0,-3.203383,-2.738445,-0.32876077
alexnet_w3_mlp_simclrhn_probe0,1,662,NaN,chair,chair,NaN,chair2-knife1.png,chair2-knife1.png,1.0,-3.2904673,-5.572689,1.6137745
alexnet_w3_mlp_simclrhn_probe0,1,663,NaN,chair,chair,NaN,chair3-airplane2.png,chair3-airplane2.png,1.0,-0.36718047,-3.2571821,2.04354
alexnet_w3_mlp_simclrhn_probe0,1,664,NaN,chair,chair,NaN,chair3-bicycle3.png,chair3-bicycle3.png,1.0,-3.0574896,-3.668344,0.43193927
alexnet_w3_mlp_simclrhn_probe0,1,665,NaN,chair,chair,NaN,chair3-bottle3.png,chair3-bottle3.png,1.0,-3.8105319,-3.8917212,0.057409573
alexnet_w3_mlp_simclrhn_probe0,1,666,NaN,bicycle,chair,NaN,chair3-car3.png,chair3-car3.png,0.0,-3.1947498,-2.5931518,-0.42539406
alexnet_w3_mlp_simclrhn_probe0,1,667,NaN,cat,chair,NaN,chair3-dog2.png,chair3-dog2.png,0.0,-8.80401,-0.0150998635,-6.214699
alexnet_w3_mlp_simclrhn_probe0,1,668,NaN,chair,chair,NaN,chair3-knife1.png,chair3-knife1.png,1.0,-2.4449582,-4.085289,1.1598891
alexnet_w3_mlp_simclrhn_probe0,1,669,NaN,cat,chair,NaN,chair4-bear2.png,chair4-bear2.png,0.0,-6.5418572,-0.9592797,-3.9474785
alexnet_w3_mlp_simclrhn_probe0,1,670,NaN,cat,chair,NaN,chair4-cat2.png,chair4-cat2.png,0.0,-8.332111,2.0808904,-7.3631043
alexnet_w3_mlp_simclrhn_probe0,1,671,NaN,chair,chair,NaN,chair4-chair3.png,chair4-chair3.png,1.0,-1.2164602,-4.412248,2.2597632
alexnet_w3_mlp_simclrhn_probe0,1,672,NaN,keyboard,chair,NaN,chair4-keyboard2.png,chair4-keyboard2.png,0.0,-4.314624,-3.0367656,-0.9035823
alexnet_w3_mlp_simclrhn_probe0,1,673,NaN,chair,chair,NaN,chair4-oven2.png,chair4-oven2.png,1.0,0.58692026,-3.197079,2.6756916
alexnet_w3_mlp_simclrhn_probe0,1,674,NaN,chair,chair,NaN,chair4-truck2.png,chair4-truck2.png,1.0,-0.861374,-5.155447,3.0363684
alexnet_w3_mlp_simclrhn_probe0,1,675,NaN,bicycle,chair,NaN,chair5-bicycle1.png,chair5-bicycle1.png,0.0,-5.4595547,1.9974427,-5.2728934
alexnet_w3_mlp_simclrhn_probe0,1,676,NaN,cat,chair,NaN,chair5-bird1.png,chair5-bird1.png,0.0,-4.7532706,-1.873304,-2.036444
alexnet_w3_mlp_simclrhn_probe0,1,677,NaN,chair,chair,NaN,chair5-boat3.png,chair5-boat3.png,1.0,-2.2777889,-5.1494627,2.03058
alexnet_w3_mlp_simclrhn_probe0,1,678,NaN,bicycle,chair,NaN,chair5-bottle3.png,chair5-bottle3.png,0.0,-3.9807773,-1.2682807,-1.9180247
alexnet_w3_mlp_simclrhn_probe0,1,679,NaN,bicycle,chair,NaN,chair5-car1.png,chair5-car1.png,0.0,-2.7252846,-1.3052583,-1.0041102
alexnet_w3_mlp_simclrhn_probe0,1,680,NaN,cat,chair,NaN,chair5-cat3.png,chair5-cat3.png,0.0,-7.5045238,-1.2809895,-4.4007034
alexnet_w3_mlp_simclrhn_probe0,1,681,NaN,chair,chair,NaN,chair5-clock2.png,chair5-clock2.png,1.0,-3.7927232,-4.745799,0.6739264
alexnet_w3_mlp_simclrhn_probe0,1,682,NaN,keyboard,chair,NaN,chair5-keyboard2.png,chair5-keyboard2.png,0.0,-5.5405426,-3.2315679,-1.6326917
alexnet_w3_mlp_simclrhn_probe0,1,683,NaN,knife,chair,NaN,chair5-knife3.png,chair5-knife3.png,0.0,-2.0922847,-1.9751331,-0.08283871
alexnet_w3_mlp_simclrhn_probe0,1,684,NaN,chair,chair,NaN,chair5-oven2.png,chair5-oven2.png,1.0,0.21627375,-2.9812143,2.2609656
alexnet_w3_mlp_simclrhn_probe0,1,685,NaN,chair,chair,NaN,chair5-truck3.png,chair5-truck3.png,1.0,-0.66301334,-2.8746827,1.5638865
alexnet_w3_mlp_simclrhn_probe0,1,686,NaN,cat,chair,NaN,chair6-bird2.png,chair6-bird2.png,0.0,-6.9706297,-5.0705314,-1.3435724
alexnet_w3_mlp_simclrhn_probe0,1,687,NaN,cat,chair,NaN,chair6-dog1.png,chair6-dog1.png,0.0,-9.08384,-0.6237439,-5.9821916
alexnet_w3_mlp_simclrhn_probe0,1,688,NaN,cat,chair,NaN,chair6-elephant2.png,chair6-elephant2.png,0.0,-5.1249747,-0.7864878,-3.0677733
alexnet_w3_mlp_simclrhn_probe0,1,689,NaN,chair,chair,NaN,chair6-truck2.png,chair6-truck2.png,1.0,-1.0185568,-3.3189876,1.6266502
alexnet_w3_mlp_simclrhn_probe0,1,690,NaN,chair,chair,NaN,chair7-airplane1.png,chair7-airplane1.png,1.0,-2.953326,-4.821469,1.3209765
alexnet_w3_mlp_simclrhn_probe0,1,691,NaN,cat,chair,NaN,chair7-bird1.png,chair7-bird1.png,0.0,-4.4317036,-1.8010281,-1.8601683
alexnet_w3_mlp_simclrhn_probe0,1,692,NaN,chair,chair,NaN,chair7-boat3.png,chair7-boat3.png,1.0,-2.3315427,-3.3605614,0.7276261
alexnet_w3_mlp_simclrhn_probe0,1,693,NaN,chair,chair,NaN,chair7-bottle1.png,chair7-bottle1.png,1.0,-3.946167,-5.4922132,1.0932198
alexnet_w3_mlp_simclrhn_probe0,1,694,NaN,bicycle,chair,NaN,chair7-car2.png,chair7-car2.png,0.0,-4.0111256,-3.3075743,-0.4974859
alexnet_w3_mlp_simclrhn_probe0,1,695,NaN,cat,chair,NaN,chair7-cat1.png,chair7-cat1.png,0.0,-9.481977,0.7137015,-7.2094336
alexnet_w3_mlp_simclrhn_probe0,1,696,NaN,chair,chair,NaN,chair7-chair1.png,chair7-chair1.png,1.0,-1.1907704,-2.0571687,0.61263615
alexnet_w3_mlp_simclrhn_probe0,1,697,NaN,chair,chair,NaN,chair7-clock3.png,chair7-clock3.png,1.0,-3.4973996,-4.680365,0.83648294
alexnet_w3_mlp_simclrhn_probe0,1,698,NaN,bicycle,chair,NaN,chair7-elephant1.png,chair7-elephant1.png,0.0,-2.994676,-2.338286,-0.46413797
alexnet_w3_mlp_simclrhn_probe0,1,699,NaN,oven,chair,NaN,chair7-knife2.png,chair7-knife2.png,0.0,-3.2743783,-1.9969442,-0.90328234
alexnet_w3_mlp_simclrhn_probe0,1,700,NaN,chair,chair,NaN,chair7-truck3.png,chair7-truck3.png,1.0,-0.8953619,-2.5928779,1.200325
alexnet_w3_mlp_simclrhn_probe0,1,701,NaN,chair,chair,NaN,chair8-airplane1.png,chair8-airplane1.png,1.0,-2.7599332,-4.092103,0.9419863
alexnet_w3_mlp_simclrhn_probe0,1,702,NaN,elephant,chair,NaN,chair8-bear1.png,chair8-bear1.png,0.0,-8.608656,-1.9312694,-4.7216253
alexnet_w3_mlp_simclrhn_probe0,1,703,NaN,bicycle,chair,NaN,chair8-bicycle3.png,chair8-bicycle3.png,0.0,-5.136621,-3.925655,-0.85628235
alexnet_w3_mlp_simclrhn_probe0,1,704,NaN,chair,chair,NaN,chair8-boat1.png,chair8-boat1.png,1.0,-0.36656296,-2.8730009,1.7723192
alexnet_w3_mlp_simclrhn_probe0,1,705,NaN,bicycle,chair,NaN,chair8-car1.png,chair8-car1.png,0.0,-4.7384353,-2.4966996,-1.5851465
alexnet_w3_mlp_simclrhn_probe0,1,706,NaN,chair,chair,NaN,chair8-chair3.png,chair8-chair3.png,1.0,-1.7916117,-4.3785896,1.8292696
alexnet_w3_mlp_simclrhn_probe0,1,707,NaN,chair,chair,NaN,chair8-clock3.png,chair8-clock3.png,1.0,-4.0185003,-5.1625323,0.8089528
alexnet_w3_mlp_simclrhn_probe0,1,708,NaN,cat,chair,NaN,chair8-elephant1.png,chair8-elephant1.png,0.0,-4.3265915,-1.3946179,-2.0732183
alexnet_w3_mlp_simclrhn_probe0,1,709,NaN,bottle,chair,NaN,chair8-keyboard3.png,chair8-keyboard3.png,0.0,-5.873296,-2.9224374,-2.086572
alexnet_w3_mlp_simclrhn_probe0,1,710,NaN,oven,chair,NaN,chair8-knife2.png,chair8-knife2.png,0.0,-3.1178956,-2.37441,-0.52572376
alexnet_w3_mlp_simclrhn_probe0,1,711,NaN,chair,chair,NaN,chair8-oven1.png,chair8-oven1.png,1.0,1.2410066,0.094121315,0.81097037
alexnet_w3_mlp_simclrhn_probe0,1,712,NaN,cat,chair,NaN,chair9-bear1.png,chair9-bear1.png,0.0,-9.238631,-0.24483632,-6.359574
alexnet_w3_mlp_simclrhn_probe0,1,713,NaN,bicycle,chair,NaN,chair9-bicycle3.png,chair9-bicycle3.png,0.0,-4.833541,-1.0810202,-2.6534328
alexnet_w3_mlp_simclrhn_probe0,1,714,NaN,chair,chair,NaN,chair9-bird3.png,chair9-bird3.png,1.0,-6.0822535,-6.2872252,0.14493695
alexnet_w3_mlp_simclrhn_probe0,1,715,NaN,chair,chair,NaN,chair9-boat2.png,chair9-boat2.png,1.0,-2.7787793,-3.4815774,0.49695334
alexnet_w3_mlp_simclrhn_probe0,1,716,NaN,bicycle,chair,NaN,chair9-bottle3.png,chair9-bottle3.png,0.0,-8.28005,-6.3688517,-1.3514215
alexnet_w3_mlp_simclrhn_probe0,1,717,NaN,airplane,chair,NaN,chair9-chair3.png,chair9-chair3.png,0.0,-1.8115355,0.7072035,-1.7810174
alexnet_w3_mlp_simclrhn_probe0,1,718,NaN,cat,chair,NaN,chair9-dog2.png,chair9-dog2.png,0.0,-9.282126,0.3921298,-6.8407326
alexnet_w3_mlp_simclrhn_probe0,1,719,NaN,cat,chair,NaN,chair9-elephant1.png,chair9-elephant1.png,0.0,-3.850967,-1.2095239,-1.8677824
alexnet_w3_mlp_simclrhn_probe0,1,720,NaN,bottle,chair,NaN,chair9-keyboard2.png,chair9-keyboard2.png,0.0,-4.7843738,-2.2346144,-1.8029522
alexnet_w3_mlp_simclrhn_probe0,1,721,NaN,elephant,clock,NaN,clock1-bear1.png,clock1-bear1.png,0.0,-12.696023,-1.8988099,-7.6347823
alexnet_w3_mlp_simclrhn_probe0,1,722,NaN,boat,clock,NaN,clock1-boat3.png,clock1-boat3.png,0.0,-8.5915785,-3.966163,-3.270663
alexnet_w3_mlp_simclrhn_probe0,1,723,NaN,bicycle,clock,NaN,clock1-car1.png,clock1-car1.png,0.0,-8.978026,-3.5096998,-3.8666909
alexnet_w3_mlp_simclrhn_probe0,1,724,NaN,car,clock,NaN,clock1-clock2.png,clock1-clock2.png,0.0,-4.4206376,-2.9057286,-1.0712025
alexnet_w3_mlp_simclrhn_probe0,1,725,NaN,cat,clock,NaN,clock1-dog2.png,clock1-dog2.png,0.0,-8.690216,-1.2001985,-5.296242
alexnet_w3_mlp_simclrhn_probe0,1,726,NaN,elephant,clock,NaN,clock1-elephant2.png,clock1-elephant2.png,0.0,-6.0820537,-1.120031,-3.50868
alexnet_w3_mlp_simclrhn_probe0,1,727,NaN,knife,clock,NaN,clock1-truck3.png,clock1-truck3.png,0.0,-3.3098514,-1.4631819,-1.3057926
alexnet_w3_mlp_simclrhn_probe0,1,728,NaN,clock,clock,NaN,clock10-airplane1.png,clock10-airplane1.png,1.0,-0.8345005,-2.9349773,1.4852613
alexnet_w3_mlp_simclrhn_probe0,1,729,NaN,bottle,clock,NaN,clock10-bird3.png,clock10-bird3.png,0.0,-5.116181,-4.480948,-0.4491775
alexnet_w3_mlp_simclrhn_probe0,1,730,NaN,bicycle,clock,NaN,clock10-boat2.png,clock10-boat2.png,0.0,-6.2672668,-1.7007504,-3.2290149
alexnet_w3_mlp_simclrhn_probe0,1,731,NaN,bicycle,clock,NaN,clock10-bottle1.png,clock10-bottle1.png,0.0,-5.581055,-2.0208428,-2.5174503
alexnet_w3_mlp_simclrhn_probe0,1,732,NaN,cat,clock,NaN,clock10-cat1.png,clock10-cat1.png,0.0,-10.275376,-2.70987,-5.349621
alexnet_w3_mlp_simclrhn_probe0,1,733,NaN,clock,clock,NaN,clock10-clock3.png,clock10-clock3.png,1.0,0.44539967,-2.25713,1.9109771
alexnet_w3_mlp_simclrhn_probe0,1,734,NaN,dog,clock,NaN,clock10-dog3.png,clock10-dog3.png,0.0,-8.9125185,-4.235693,-3.3070152
alexnet_w3_mlp_simclrhn_probe0,1,735,NaN,bottle,clock,NaN,clock10-knife3.png,clock10-knife3.png,0.0,-3.9709785,-2.6584058,-0.9281291
alexnet_w3_mlp_simclrhn_probe0,1,736,NaN,bottle,clock,NaN,clock10-oven2.png,clock10-oven2.png,0.0,-2.5074966,0.17577825,-1.8973618
alexnet_w3_mlp_simclrhn_probe0,1,737,NaN,bottle,clock,NaN,clock10-truck2.png,clock10-truck2.png,0.0,-5.5539403,-1.3396187,-2.9799755
alexnet_w3_mlp_simclrhn_probe0,1,738,NaN,elephant,clock,NaN,clock2-bear2.png,clock2-bear2.png,0.0,-4.012207,-3.3187385,-0.49035633
alexnet_w3_mlp_simclrhn_probe0,1,739,NaN,clock,clock,NaN,clock2-bicycle1.png,clock2-bicycle1.png,1.0,-1.3793293,-6.7890887,3.8252778
alexnet_w3_mlp_simclrhn_probe0,1,740,NaN,clock,clock,NaN,clock2-bottle3.png,clock2-bottle3.png,1.0,-0.09232696,-8.038706,5.6189384
alexnet_w3_mlp_simclrhn_probe0,1,741,NaN,clock,clock,NaN,clock2-clock3.png,clock2-clock3.png,1.0,3.8207252,-2.4097562,4.4056153
alexnet_w3_mlp_simclrhn_probe0,1,742,NaN,cat,clock,NaN,clock2-dog1.png,clock2-dog1.png,0.0,-6.2074223,-3.9324472,-1.6086503
alexnet_w3_mlp_simclrhn_probe0,1,743,NaN,clock,clock,NaN,clock2-elephant2.png,clock2-elephant2.png,1.0,-3.0970318,-3.28617,0.13374089
alexnet_w3_mlp_simclrhn_probe0,1,744,NaN,clock,clock,NaN,clock2-knife1.png,clock2-knife1.png,1.0,-1.6869982,-5.0058413,2.3467762
alexnet_w3_mlp_simclrhn_probe0,1,745,NaN,elephant,clock,NaN,clock3-bear3.png,clock3-bear3.png,0.0,-8.422223,-2.5860677,-4.1267853
alexnet_w3_mlp_simclrhn_probe0,1,746,NaN,clock,clock,NaN,clock3-bicycle2.png,clock3-bicycle2.png,1.0,0.32042423,-3.497913,2.6999722
alexnet_w3_mlp_simclrhn_probe0,1,747,NaN,bottle,clock,NaN,clock3-bird1.png,clock3-bird1.png,0.0,-3.1106775,-2.1679606,-0.6666015
alexnet_w3_mlp_simclrhn_probe0,1,748,NaN,bicycle,clock,NaN,clock3-car2.png,clock3-car2.png,0.0,-2.7174072,-1.6073995,-0.78489405
alexnet_w3_mlp_simclrhn_probe0,1,749,NaN,elephant,clock,NaN,clock3-cat1.png,clock3-cat1.png,0.0,-4.7391596,-4.5514235,-0.13274942
alexnet_w3_mlp_simclrhn_probe0,1,750,NaN,clock,clock,NaN,clock3-dog2.png,clock3-dog2.png,1.0,-2.6094398,-3.7488863,0.8057104
alexnet_w3_mlp_simclrhn_probe0,1,751,NaN,clock,clock,NaN,clock3-elephant3.png,clock3-elephant3.png,1.0,-0.8731387,-3.9191308,2.1538417
alexnet_w3_mlp_simclrhn_probe0,1,752,NaN,clock,clock,NaN,clock3-keyboard3.png,clock3-keyboard3.png,1.0,1.6464709,0.069957666,1.1147633
alexnet_w3_mlp_simclrhn_probe0,1,753,NaN,clock,clock,NaN,clock4-airplane1.png,clock4-airplane1.png,1.0,0.28888473,-4.187366,3.1651874
alexnet_w3_mlp_simclrhn_probe0,1,754,NaN,clock,clock,NaN,clock4-bird3.png,clock4-bird3.png,1.0,-1.9277277,-5.8299766,2.7593067
alexnet_w3_mlp_simclrhn_probe0,1,755,NaN,oven,clock,NaN,clock4-boat3.png,clock4-boat3.png,0.0,-4.4013042,-3.1952248,-0.852827
alexnet_w3_mlp_simclrhn_probe0,1,756,NaN,clock,clock,NaN,clock4-bottle3.png,clock4-bottle3.png,1.0,-2.8819723,-6.3301086,2.4382007
alexnet_w3_mlp_simclrhn_probe0,1,757,NaN,bicycle,clock,NaN,clock4-car2.png,clock4-car2.png,0.0,-5.6303864,-3.6656418,-1.3892843
alexnet_w3_mlp_simclrhn_probe0,1,758,NaN,car,clock,NaN,clock4-chair1.png,clock4-chair1.png,0.0,-4.6448817,-1.7159783,-2.0710475
alexnet_w3_mlp_simclrhn_probe0,1,759,NaN,elephant,clock,NaN,clock4-elephant2.png,clock4-elephant2.png,0.0,-6.324038,-1.0363822,-3.7389374
alexnet_w3_mlp_simclrhn_probe0,1,760,NaN,clock,clock,NaN,clock4-knife1.png,clock4-knife1.png,1.0,-4.4742427,-5.4297557,0.67564976
alexnet_w3_mlp_simclrhn_probe0,1,761,NaN,clock,clock,NaN,clock4-oven1.png,clock4-oven1.png,1.0,1.1415968,-1.2638232,1.7008888
alexnet_w3_mlp_simclrhn_probe0,1,762,NaN,clock,clock,NaN,clock5-airplane1.png,clock5-airplane1.png,1.0,2.9754238,-3.232153,4.3894196
alexnet_w3_mlp_simclrhn_probe0,1,763,NaN,clock,clock,NaN,clock5-bicycle1.png,clock5-bicycle1.png,1.0,-2.0287492,-6.433619,3.1147134
alexnet_w3_mlp_simclrhn_probe0,1,764,NaN,clock,clock,NaN,clock5-chair3.png,clock5-chair3.png,1.0,-1.1730719,-3.0408695,1.3207324
alexnet_w3_mlp_simclrhn_probe0,1,765,NaN,clock,clock,NaN,clock5-clock2.png,clock5-clock2.png,1.0,8.745599,-2.2974992,7.80865
alexnet_w3_mlp_simclrhn_probe0,1,766,NaN,elephant,clock,NaN,clock5-elephant2.png,clock5-elephant2.png,0.0,-3.45102,-2.4114323,-0.73509955
