subj,session,trial,rt,object_response,category,condition,imagename,filename,is_correct,targ_act,max_nontarg_act,decision_margin
alexnet_w1_mlp_simclrhn_probe1,1,1,NaN,bicycle,airplane,NaN,airplane1-bicycle2.png,airplane1-bicycle2.png,0.0,-13.795528,-1.0488696,-9.013248
alexnet_w1_mlp_simclrhn_probe1,1,2,NaN,bicycle,airplane,NaN,airplane1-chair2.png,airplane1-chair2.png,0.0,-7.098688,-0.83865607,-4.4265113
alexnet_w1_mlp_simclrhn_probe1,1,3,NaN,bicycle,airplane,NaN,airplane1-clock1.png,airplane1-clock1.png,0.0,-11.756235,-1.1698709,-7.4856906
alexnet_w1_mlp_simclrhn_probe1,1,4,NaN,bicycle,airplane,NaN,airplane1-elephant1.png,airplane1-elephant1.png,0.0,-10.375086,-2.7090487,-5.4207067
alexnet_w1_mlp_simclrhn_probe1,1,5,NaN,airplane,airplane,NaN,airplane10-airplane1.png,airplane10-airplane1.png,1.0,4.522234,-1.4301193,4.2089496
alexnet_w1_mlp_simclrhn_probe1,1,6,NaN,cat,airplane,NaN,airplane10-bear3.png,airplane10-bear3.png,0.0,-18.062748,-2.0483468,-11.323892
alexnet_w1_mlp_simclrhn_probe1,1,7,NaN,airplane,airplane,NaN,airplane10-boat3.png,airplane10-boat3.png,1.0,0.24365246,-1.2104232,1.0281868
alexnet_w1_mlp_simclrhn_probe1,1,8,NaN,bicycle,airplane,NaN,airplane10-car3.png,airplane10-car3.png,0.0,-5.2304244,-3.3787212,-1.3093519
alexnet_w1_mlp_simclrhn_probe1,1,9,NaN,cat,airplane,NaN,airplane10-cat2.png,airplane10-cat2.png,0.0,-9.252426,-0.51303166,-6.179685
alexnet_w1_mlp_simclrhn_probe1,1,10,NaN,cat,airplane,NaN,airplane10-dog3.png,airplane10-dog3.png,0.0,-13.27715,0.26001072,-9.572218
alexnet_w1_mlp_simclrhn_probe1,1,11,NaN,bird,airplane,NaN,airplane10-elephant1.png,airplane10-elephant1.png,0.0,-9.10026,-3.3494558,-4.0664325
alexnet_w1_mlp_simclrhn_probe1,1,12,NaN,knife,airplane,NaN,airplane10-knife3.png,airplane10-knife3.png,0.0,-1.4963635,0.07314333,-1.1098089
alexnet_w1_mlp_simclrhn_probe1,1,13,NaN,airplane,airplane,NaN,airplane10-oven2.png,airplane10-oven2.png,1.0,1.0595062,0.47694606,0.41193223
alexnet_w1_mlp_simclrhn_probe1,1,14,NaN,chair,airplane,NaN,airplane10-truck1.png,airplane10-truck1.png,0.0,-3.6907148,-0.18543643,-2.4786062
alexnet_w1_mlp_simclrhn_probe1,1,15,NaN,cat,airplane,NaN,airplane2-bear1.png,airplane2-bear1.png,0.0,-12.311483,-0.70035917,-8.210304
alexnet_w1_mlp_simclrhn_probe1,1,16,NaN,bicycle,airplane,NaN,airplane2-bicycle1.png,airplane2-bicycle1.png,0.0,-19.255308,-4.573183,-10.38183
alexnet_w1_mlp_simclrhn_probe1,1,17,NaN,airplane,airplane,NaN,airplane2-bird3.png,airplane2-bird3.png,1.0,-1.905247,-4.0562057,1.5209576
alexnet_w1_mlp_simclrhn_probe1,1,18,NaN,bicycle,airplane,NaN,airplane2-bottle1.png,airplane2-bottle1.png,0.0,-9.054026,-4.858531,-2.966663
alexnet_w1_mlp_simclrhn_probe1,1,19,NaN,cat,airplane,NaN,airplane2-cat1.png,airplane2-cat1.png,0.0,-12.022043,0.010629634,-8.508385
alexnet_w1_mlp_simclrhn_probe1,1,20,NaN,cat,airplane,NaN,airplane2-dog1.png,airplane2-dog1.png,0.0,-16.074831,-0.8627081,-10.756596
alexnet_w1_mlp_simclrhn_probe1,1,21,NaN,airplane,airplane,NaN,airplane3-airplane2.png,airplane3-airplane2.png,1.0,-0.26918375,-2.9321961,1.8830342
alexnet_w1_mlp_simclrhn_probe1,1,22,NaN,bicycle,airplane,NaN,airplane3-car1.png,airplane3-car1.png,0.0,-11.641024,-3.0971465,-6.0414333
alexnet_w1_mlp_simclrhn_probe1,1,23,NaN,cat,airplane,NaN,airplane3-cat1.png,airplane3-cat1.png,0.0,-14.65129,-0.43745396,-10.0507
alexnet_w1_mlp_simclrhn_probe1,1,24,NaN,airplane,airplane,NaN,airplane3-chair3.png,airplane3-chair3.png,1.0,3.0720186,-2.7884822,4.144
alexnet_w1_mlp_simclrhn_probe1,1,25,NaN,bicycle,airplane,NaN,airplane3-clock1.png,airplane3-clock1.png,0.0,-12.613371,-3.3042507,-6.582542
alexnet_w1_mlp_simclrhn_probe1,1,26,NaN,cat,airplane,NaN,airplane3-dog1.png,airplane3-dog1.png,0.0,-13.27645,-2.1866295,-7.8416877
alexnet_w1_mlp_simclrhn_probe1,1,27,NaN,bicycle,airplane,NaN,airplane3-elephant1.png,airplane3-elephant1.png,0.0,-10.413155,-3.3288665,-5.0093484
alexnet_w1_mlp_simclrhn_probe1,1,28,NaN,airplane,airplane,NaN,airplane3-keyboard2.png,airplane3-keyboard2.png,1.0,-0.5855329,-0.83687186,0.17772348
alexnet_w1_mlp_simclrhn_probe1,1,29,NaN,airplane,airplane,NaN,airplane3-oven1.png,airplane3-oven1.png,1.0,1.9036947,-1.6250026,2.495166
alexnet_w1_mlp_simclrhn_probe1,1,30,NaN,airplane,airplane,NaN,airplane4-airplane1.png,airplane4-airplane1.png,1.0,0.73816204,-2.0169284,1.9481432
alexnet_w1_mlp_simclrhn_probe1,1,31,NaN,elephant,airplane,NaN,airplane4-bear3.png,airplane4-bear3.png,0.0,-16.098194,-2.55026,-9.579836
alexnet_w1_mlp_simclrhn_probe1,1,32,NaN,bicycle,airplane,NaN,airplane4-bicycle2.png,airplane4-bicycle2.png,0.0,-14.254503,-2.6545582,-8.2024
alexnet_w1_mlp_simclrhn_probe1,1,33,NaN,airplane,airplane,NaN,airplane4-bird3.png,airplane4-bird3.png,1.0,1.28906,-3.9479623,3.703134
alexnet_w1_mlp_simclrhn_probe1,1,34,NaN,airplane,airplane,NaN,airplane4-boat3.png,airplane4-boat3.png,1.0,0.46570688,-0.7770713,0.8787769
alexnet_w1_mlp_simclrhn_probe1,1,35,NaN,bicycle,airplane,NaN,airplane4-bottle1.png,airplane4-bottle1.png,0.0,-7.856558,-4.6731114,-2.2510366
alexnet_w1_mlp_simclrhn_probe1,1,36,NaN,knife,airplane,NaN,airplane4-car1.png,airplane4-car1.png,0.0,-9.988638,-4.77322,-3.6878574
alexnet_w1_mlp_simclrhn_probe1,1,37,NaN,cat,airplane,NaN,airplane4-cat3.png,airplane4-cat3.png,0.0,-7.4017076,-0.22413106,-5.075313
alexnet_w1_mlp_simclrhn_probe1,1,38,NaN,cat,airplane,NaN,airplane4-dog2.png,airplane4-dog2.png,0.0,-9.255031,-0.75928956,-6.007396
alexnet_w1_mlp_simclrhn_probe1,1,39,NaN,bicycle,airplane,NaN,airplane4-elephant1.png,airplane4-elephant1.png,0.0,-9.456095,-3.322779,-4.3369093
alexnet_w1_mlp_simclrhn_probe1,1,40,NaN,airplane,airplane,NaN,airplane4-keyboard3.png,airplane4-keyboard3.png,1.0,0.994764,-0.6465807,1.1606059
alexnet_w1_mlp_simclrhn_probe1,1,41,NaN,knife,airplane,NaN,airplane4-knife1.png,airplane4-knife1.png,0.0,-6.359049,-3.0618558,-2.3314676
alexnet_w1_mlp_simclrhn_probe1,1,42,NaN,car,airplane,NaN,airplane4-truck2.png,airplane4-truck2.png,0.0,-3.5998616,-0.48103836,-2.205341
alexnet_w1_mlp_simclrhn_probe1,1,43,NaN,elephant,airplane,NaN,airplane5-bear2.png,airplane5-bear2.png,0.0,-13.429763,1.4901278,-10.549956
alexnet_w1_mlp_simclrhn_probe1,1,44,NaN,bicycle,airplane,NaN,airplane5-bicycle1.png,airplane5-bicycle1.png,0.0,-16.786983,-1.4054611,-10.876379
alexnet_w1_mlp_simclrhn_probe1,1,45,NaN,bird,airplane,NaN,airplane5-bird2.png,airplane5-bird2.png,0.0,-12.370424,-3.4194517,-6.3292937
alexnet_w1_mlp_simclrhn_probe1,1,46,NaN,boat,airplane,NaN,airplane5-boat3.png,airplane5-boat3.png,0.0,-3.4743052,-1.8966051,-1.1156024
alexnet_w1_mlp_simclrhn_probe1,1,47,NaN,bicycle,airplane,NaN,airplane5-bottle3.png,airplane5-bottle3.png,0.0,-11.960598,-3.0382977,-6.309019
alexnet_w1_mlp_simclrhn_probe1,1,48,NaN,airplane,airplane,NaN,airplane5-chair3.png,airplane5-chair3.png,1.0,4.478233,-1.9513168,4.546378
alexnet_w1_mlp_simclrhn_probe1,1,49,NaN,cat,airplane,NaN,airplane5-dog3.png,airplane5-dog3.png,0.0,-16.349571,0.66779995,-12.033099
alexnet_w1_mlp_simclrhn_probe1,1,50,NaN,knife,airplane,NaN,airplane5-knife1.png,airplane5-knife1.png,0.0,-8.092001,-1.8323939,-4.426211
alexnet_w1_mlp_simclrhn_probe1,1,51,NaN,chair,airplane,NaN,airplane5-oven3.png,airplane5-oven3.png,0.0,-5.676824,-0.005897239,-4.009951
alexnet_w1_mlp_simclrhn_probe1,1,52,NaN,elephant,airplane,NaN,airplane6-bear3.png,airplane6-bear3.png,0.0,-17.495562,-1.8204217,-11.083999
alexnet_w1_mlp_simclrhn_probe1,1,53,NaN,bottle,airplane,NaN,airplane6-bottle2.png,airplane6-bottle2.png,0.0,-12.587961,-0.29576275,-8.691896
alexnet_w1_mlp_simclrhn_probe1,1,54,NaN,airplane,airplane,NaN,airplane6-chair3.png,airplane6-chair3.png,1.0,2.9799027,-2.5262547,3.8934412
alexnet_w1_mlp_simclrhn_probe1,1,55,NaN,airplane,airplane,NaN,airplane6-keyboard3.png,airplane6-keyboard3.png,1.0,1.1157017,-0.64075583,1.2420031
alexnet_w1_mlp_simclrhn_probe1,1,56,NaN,knife,airplane,NaN,airplane6-knife1.png,airplane6-knife1.png,0.0,-6.8483,-3.5927527,-2.3020196
alexnet_w1_mlp_simclrhn_probe1,1,57,NaN,airplane,airplane,NaN,airplane7-airplane3.png,airplane7-airplane3.png,1.0,5.293872,-1.495114,4.800538
alexnet_w1_mlp_simclrhn_probe1,1,58,NaN,airplane,airplane,NaN,airplane7-bird3.png,airplane7-bird3.png,1.0,-1.259567,-2.939423,1.1878376
alexnet_w1_mlp_simclrhn_probe1,1,59,NaN,boat,airplane,NaN,airplane7-boat2.png,airplane7-boat2.png,0.0,-3.7552705,-1.4211509,-1.6504718
alexnet_w1_mlp_simclrhn_probe1,1,60,NaN,knife,airplane,NaN,airplane7-bottle3.png,airplane7-bottle3.png,0.0,-11.622522,-4.9757447,-4.6999817
alexnet_w1_mlp_simclrhn_probe1,1,61,NaN,bicycle,airplane,NaN,airplane7-car1.png,airplane7-car1.png,0.0,-7.8149686,-3.2189033,-3.2499092
alexnet_w1_mlp_simclrhn_probe1,1,62,NaN,cat,airplane,NaN,airplane7-cat3.png,airplane7-cat3.png,0.0,-6.7167687,-0.28713,-4.5464416
alexnet_w1_mlp_simclrhn_probe1,1,63,NaN,bottle,airplane,NaN,airplane7-clock3.png,airplane7-clock3.png,0.0,-7.036541,-3.0527894,-2.8169377
alexnet_w1_mlp_simclrhn_probe1,1,64,NaN,airplane,airplane,NaN,airplane7-keyboard1.png,airplane7-keyboard1.png,1.0,-1.6113303,-2.139089,0.37318185
alexnet_w1_mlp_simclrhn_probe1,1,65,NaN,chair,airplane,NaN,airplane7-truck1.png,airplane7-truck1.png,0.0,-6.171422,0.36260802,-4.620257
alexnet_w1_mlp_simclrhn_probe1,1,66,NaN,bicycle,airplane,NaN,airplane8-bicycle3.png,airplane8-bicycle3.png,0.0,-16.63496,-4.475721,-8.59788
alexnet_w1_mlp_simclrhn_probe1,1,67,NaN,knife,airplane,NaN,airplane8-bird1.png,airplane8-bird1.png,0.0,-3.8933244,-2.158807,-1.226489
alexnet_w1_mlp_simclrhn_probe1,1,68,NaN,airplane,airplane,NaN,airplane8-chair1.png,airplane8-chair1.png,1.0,1.0556428,-2.6387758,2.6123486
alexnet_w1_mlp_simclrhn_probe1,1,69,NaN,bottle,airplane,NaN,airplane8-clock2.png,airplane8-clock2.png,0.0,-5.034457,-2.8960903,-1.5120538
alexnet_w1_mlp_simclrhn_probe1,1,70,NaN,knife,airplane,NaN,airplane8-elephant3.png,airplane8-elephant3.png,0.0,-9.287071,-2.8616338,-4.5434704
alexnet_w1_mlp_simclrhn_probe1,1,71,NaN,knife,airplane,NaN,airplane8-oven2.png,airplane8-oven2.png,0.0,-0.069946006,0.4323592,-0.35518342
alexnet_w1_mlp_simclrhn_probe1,1,72,NaN,knife,airplane,NaN,airplane8-truck3.png,airplane8-truck3.png,0.0,-1.7504071,-1.6981394,-0.036958825
alexnet_w1_mlp_simclrhn_probe1,1,73,NaN,airplane,airplane,NaN,airplane9-airplane2.png,airplane9-airplane2.png,1.0,0.9193773,-1.4310681,1.6620158
alexnet_w1_mlp_simclrhn_probe1,1,74,NaN,chair,airplane,NaN,airplane9-boat1.png,airplane9-boat1.png,0.0,-1.4698465,-1.1250267,-0.24382441
alexnet_w1_mlp_simclrhn_probe1,1,75,NaN,bicycle,airplane,NaN,airplane9-car2.png,airplane9-car2.png,0.0,-8.344493,-1.8405814,-4.59896
alexnet_w1_mlp_simclrhn_probe1,1,76,NaN,bicycle,airplane,NaN,airplane9-clock1.png,airplane9-clock1.png,0.0,-13.588435,-2.8746247,-7.5758076
alexnet_w1_mlp_simclrhn_probe1,1,77,NaN,knife,airplane,NaN,airplane9-keyboard2.png,airplane9-keyboard2.png,0.0,-1.2032762,-0.9817716,-0.15662739
alexnet_w1_mlp_simclrhn_probe1,1,78,NaN,knife,airplane,NaN,airplane9-knife3.png,airplane9-knife3.png,0.0,-3.8697295,-0.2058158,-2.5907784
alexnet_w1_mlp_simclrhn_probe1,1,79,NaN,chair,airplane,NaN,airplane9-oven2.png,airplane9-oven2.png,0.0,-0.19934237,0.15880847,-0.2532509
alexnet_w1_mlp_simclrhn_probe1,1,80,NaN,chair,airplane,NaN,airplane9-truck1.png,airplane9-truck1.png,0.0,-9.637711,1.6538403,-7.984332
alexnet_w1_mlp_simclrhn_probe1,1,81,NaN,knife,bear,NaN,bear1-airplane3.png,bear1-airplane3.png,0.0,-7.1429973,-1.1122841,-4.264358
alexnet_w1_mlp_simclrhn_probe1,1,82,NaN,bear,bear,NaN,bear1-bear3.png,bear1-bear3.png,1.0,1.2307221,-0.2985702,1.081373
alexnet_w1_mlp_simclrhn_probe1,1,83,NaN,bird,bear,NaN,bear1-bicycle3.png,bear1-bicycle3.png,0.0,-7.5737333,-2.3868217,-3.6677005
alexnet_w1_mlp_simclrhn_probe1,1,84,NaN,elephant,bear,NaN,bear1-bird2.png,bear1-bird2.png,0.0,-4.9312353,-0.7566362,-2.9518874
alexnet_w1_mlp_simclrhn_probe1,1,85,NaN,chair,bear,NaN,bear1-chair2.png,bear1-chair2.png,0.0,-8.767085,-0.98941016,-5.4996467
alexnet_w1_mlp_simclrhn_probe1,1,86,NaN,bottle,bear,NaN,bear1-clock2.png,bear1-clock2.png,0.0,-14.911344,-3.483095,-8.080992
alexnet_w1_mlp_simclrhn_probe1,1,87,NaN,elephant,bear,NaN,bear1-elephant1.png,bear1-elephant1.png,0.0,-5.067214,-1.8263872,-2.2916107
alexnet_w1_mlp_simclrhn_probe1,1,88,NaN,bear,bear,NaN,bear10-bear2.png,bear10-bear2.png,1.0,2.5938425,0.06135118,1.7907417
alexnet_w1_mlp_simclrhn_probe1,1,89,NaN,knife,bear,NaN,bear10-bottle1.png,bear10-bottle1.png,0.0,-9.646191,-5.004356,-3.2822728
alexnet_w1_mlp_simclrhn_probe1,1,90,NaN,bicycle,bear,NaN,bear10-car2.png,bear10-car2.png,0.0,-15.481834,-2.314259,-9.310883
alexnet_w1_mlp_simclrhn_probe1,1,91,NaN,cat,bear,NaN,bear10-cat2.png,bear10-cat2.png,0.0,-1.0850714,0.24817736,-0.9427493
alexnet_w1_mlp_simclrhn_probe1,1,92,NaN,bottle,bear,NaN,bear10-chair2.png,bear10-chair2.png,0.0,-12.161201,-2.5840173,-6.772091
alexnet_w1_mlp_simclrhn_probe1,1,93,NaN,bicycle,bear,NaN,bear10-clock1.png,bear10-clock1.png,0.0,-14.913746,-1.3560705,-9.586724
alexnet_w1_mlp_simclrhn_probe1,1,94,NaN,elephant,bear,NaN,bear10-elephant1.png,bear10-elephant1.png,0.0,-5.641429,-3.092002,-1.8027172
alexnet_w1_mlp_simclrhn_probe1,1,95,NaN,keyboard,bear,NaN,bear10-keyboard3.png,bear10-keyboard3.png,0.0,-7.3337383,-0.8540821,-4.581809
alexnet_w1_mlp_simclrhn_probe1,1,96,NaN,knife,bear,NaN,bear10-knife2.png,bear10-knife2.png,0.0,-5.635513,-2.0762227,-2.5167983
alexnet_w1_mlp_simclrhn_probe1,1,97,NaN,oven,bear,NaN,bear10-oven1.png,bear10-oven1.png,0.0,-8.62181,-0.33661526,-5.858517
alexnet_w1_mlp_simclrhn_probe1,1,98,NaN,bicycle,bear,NaN,bear10-truck1.png,bear10-truck1.png,0.0,-14.420666,-1.7636389,-8.94987
alexnet_w1_mlp_simclrhn_probe1,1,99,NaN,knife,bear,NaN,bear2-airplane1.png,bear2-airplane1.png,0.0,-7.117938,-2.2095044,-3.470787
alexnet_w1_mlp_simclrhn_probe1,1,100,NaN,elephant,bear,NaN,bear2-bird3.png,bear2-bird3.png,0.0,-1.107203,1.1219621,-1.5762578
alexnet_w1_mlp_simclrhn_probe1,1,101,NaN,bicycle,bear,NaN,bear2-car2.png,bear2-car2.png,0.0,-16.413076,-4.251798,-8.599322
alexnet_w1_mlp_simclrhn_probe1,1,102,NaN,cat,bear,NaN,bear2-cat2.png,bear2-cat2.png,0.0,0.09857452,0.4143583,-0.22329284
alexnet_w1_mlp_simclrhn_probe1,1,103,NaN,bear,bear,NaN,bear2-dog1.png,bear2-dog1.png,1.0,0.88556504,0.29312548,0.418918
alexnet_w1_mlp_simclrhn_probe1,1,104,NaN,elephant,bear,NaN,bear2-elephant1.png,bear2-elephant1.png,0.0,-4.842255,-0.8341486,-2.8341594
alexnet_w1_mlp_simclrhn_probe1,1,105,NaN,keyboard,bear,NaN,bear2-keyboard2.png,bear2-keyboard2.png,0.0,-13.778362,0.69241005,-10.232382
alexnet_w1_mlp_simclrhn_probe1,1,106,NaN,knife,bear,NaN,bear2-knife2.png,bear2-knife2.png,0.0,-6.753475,-0.4405811,-4.46389
alexnet_w1_mlp_simclrhn_probe1,1,107,NaN,knife,bear,NaN,bear2-oven1.png,bear2-oven1.png,0.0,-7.69632,0.14630722,-5.5455747
alexnet_w1_mlp_simclrhn_probe1,1,108,NaN,knife,bear,NaN,bear3-airplane1.png,bear3-airplane1.png,0.0,-6.9007545,-2.2767544,-3.269662
alexnet_w1_mlp_simclrhn_probe1,1,109,NaN,bird,bear,NaN,bear3-bicycle2.png,bear3-bicycle2.png,0.0,-6.2630997,-2.7621663,-2.4755337
alexnet_w1_mlp_simclrhn_probe1,1,110,NaN,elephant,bear,NaN,bear3-bird3.png,bear3-bird3.png,0.0,-3.6410213,-0.42280847,-2.2756202
alexnet_w1_mlp_simclrhn_probe1,1,111,NaN,bottle,bear,NaN,bear3-car2.png,bear3-car2.png,0.0,-13.312275,-3.5771337,-6.883785
alexnet_w1_mlp_simclrhn_probe1,1,112,NaN,cat,bear,NaN,bear3-cat1.png,bear3-cat1.png,0.0,-0.5872994,2.19238,-1.9655302
alexnet_w1_mlp_simclrhn_probe1,1,113,NaN,chair,bear,NaN,bear3-chair2.png,bear3-chair2.png,0.0,-10.967138,-0.30533084,-7.5390363
alexnet_w1_mlp_simclrhn_probe1,1,114,NaN,cat,bear,NaN,bear3-dog3.png,bear3-dog3.png,0.0,-1.5414044,0.46218976,-1.4167551
alexnet_w1_mlp_simclrhn_probe1,1,115,NaN,keyboard,bear,NaN,bear3-keyboard2.png,bear3-keyboard2.png,0.0,-14.873995,1.4501776,-11.542933
alexnet_w1_mlp_simclrhn_probe1,1,116,NaN,truck,bear,NaN,bear3-truck3.png,bear3-truck3.png,0.0,-14.450657,-1.301234,-9.298046
alexnet_w1_mlp_simclrhn_probe1,1,117,NaN,bicycle,bear,NaN,bear4-boat2.png,bear4-boat2.png,0.0,-16.435873,-0.07751486,-11.567106
alexnet_w1_mlp_simclrhn_probe1,1,118,NaN,bicycle,bear,NaN,bear4-car3.png,bear4-car3.png,0.0,-14.473283,-2.5426683,-8.436218
alexnet_w1_mlp_simclrhn_probe1,1,119,NaN,bear,bear,NaN,bear4-cat3.png,bear4-cat3.png,1.0,1.2337612,-0.23906362,1.0414444
alexnet_w1_mlp_simclrhn_probe1,1,120,NaN,bottle,bear,NaN,bear4-clock3.png,bear4-clock3.png,0.0,-15.651104,-3.2371712,-8.777976
alexnet_w1_mlp_simclrhn_probe1,1,121,NaN,elephant,bear,NaN,bear4-elephant2.png,bear4-elephant2.png,0.0,-5.975243,-1.1868812,-3.3858833
alexnet_w1_mlp_simclrhn_probe1,1,122,NaN,clock,bear,NaN,bear4-keyboard3.png,bear4-keyboard3.png,0.0,-11.998402,-1.3098727,-7.5579314
alexnet_w1_mlp_simclrhn_probe1,1,123,NaN,knife,bear,NaN,bear4-knife1.png,bear4-knife1.png,0.0,-11.283258,-4.1814523,-5.021735
alexnet_w1_mlp_simclrhn_probe1,1,124,NaN,bottle,bear,NaN,bear4-oven2.png,bear4-oven2.png,0.0,-6.222212,-0.72345024,-3.8882117
alexnet_w1_mlp_simclrhn_probe1,1,125,NaN,bottle,bear,NaN,bear4-truck3.png,bear4-truck3.png,0.0,-14.460741,-2.0049198,-8.807595
alexnet_w1_mlp_simclrhn_probe1,1,126,NaN,knife,bear,NaN,bear5-airplane3.png,bear5-airplane3.png,0.0,-10.756956,-1.2474349,-6.7242475
alexnet_w1_mlp_simclrhn_probe1,1,127,NaN,bicycle,bear,NaN,bear5-bicycle3.png,bear5-bicycle3.png,0.0,-7.8076982,-2.6407309,-3.6535978
alexnet_w1_mlp_simclrhn_probe1,1,128,NaN,cat,bear,NaN,bear5-bird1.png,bear5-bird1.png,0.0,-4.419204,-1.6343459,-1.9691921
alexnet_w1_mlp_simclrhn_probe1,1,129,NaN,bicycle,bear,NaN,bear5-boat2.png,bear5-boat2.png,0.0,-12.219976,-1.1627188,-7.818662
alexnet_w1_mlp_simclrhn_probe1,1,130,NaN,bicycle,bear,NaN,bear5-bottle1.png,bear5-bottle1.png,0.0,-8.638667,-3.010548,-3.9796813
alexnet_w1_mlp_simclrhn_probe1,1,131,NaN,chair,bear,NaN,bear5-chair1.png,bear5-chair1.png,0.0,-15.065046,-2.4128845,-8.946429
alexnet_w1_mlp_simclrhn_probe1,1,132,NaN,oven,bear,NaN,bear5-oven3.png,bear5-oven3.png,0.0,-10.341518,0.19478355,-7.4502907
alexnet_w1_mlp_simclrhn_probe1,1,133,NaN,bear,bear,NaN,bear6-bear1.png,bear6-bear1.png,1.0,1.1404281,1.092906,0.033603176
alexnet_w1_mlp_simclrhn_probe1,1,134,NaN,cat,bear,NaN,bear6-bird2.png,bear6-bird2.png,0.0,-5.8530407,-1.2172343,-3.2780104
alexnet_w1_mlp_simclrhn_probe1,1,135,NaN,bottle,bear,NaN,bear6-boat3.png,bear6-boat3.png,0.0,-11.080186,-0.07510013,-7.781771
alexnet_w1_mlp_simclrhn_probe1,1,136,NaN,bottle,bear,NaN,bear6-bottle3.png,bear6-bottle3.png,0.0,-14.028315,-3.8754735,-7.1791434
alexnet_w1_mlp_simclrhn_probe1,1,137,NaN,bicycle,bear,NaN,bear6-car2.png,bear6-car2.png,0.0,-15.34977,-3.6029267,-8.3062725
alexnet_w1_mlp_simclrhn_probe1,1,138,NaN,cat,bear,NaN,bear6-cat3.png,bear6-cat3.png,0.0,-1.9611442,0.049180944,-1.4215146
alexnet_w1_mlp_simclrhn_probe1,1,139,NaN,chair,bear,NaN,bear6-chair1.png,bear6-chair1.png,0.0,-20.412235,-2.3799596,-12.750745
alexnet_w1_mlp_simclrhn_probe1,1,140,NaN,bicycle,bear,NaN,bear6-clock1.png,bear6-clock1.png,0.0,-14.730455,-2.3295064,-8.768796
alexnet_w1_mlp_simclrhn_probe1,1,141,NaN,bear,bear,NaN,bear7-bear2.png,bear7-bear2.png,1.0,2.7249389,0.69727063,1.4337779
alexnet_w1_mlp_simclrhn_probe1,1,142,NaN,bicycle,bear,NaN,bear7-bicycle2.png,bear7-bicycle2.png,0.0,-6.4227624,-2.8024392,-2.5599551
alexnet_w1_mlp_simclrhn_probe1,1,143,NaN,elephant,bear,NaN,bear7-clock1.png,bear7-clock1.png,0.0,-10.949467,-3.3090038,-5.402623
alexnet_w1_mlp_simclrhn_probe1,1,144,NaN,bear,bear,NaN,bear7-dog3.png,bear7-dog3.png,1.0,0.75116277,0.012155334,0.52255714
alexnet_w1_mlp_simclrhn_probe1,1,145,NaN,oven,bear,NaN,bear7-oven3.png,bear7-oven3.png,0.0,-10.032632,1.6373478,-8.251923
alexnet_w1_mlp_simclrhn_probe1,1,146,NaN,chair,bear,NaN,bear7-truck1.png,bear7-truck1.png,0.0,-16.78694,-0.6709347,-11.395737
alexnet_w1_mlp_simclrhn_probe1,1,147,NaN,bottle,bear,NaN,bear8-airplane1.png,bear8-airplane1.png,0.0,-9.721116,-3.1015763,-4.6807213
alexnet_w1_mlp_simclrhn_probe1,1,148,NaN,bear,bear,NaN,bear8-bear1.png,bear8-bear1.png,1.0,1.6211469,-0.07480645,1.1992202
alexnet_w1_mlp_simclrhn_probe1,1,149,NaN,bicycle,bear,NaN,bear8-bicycle3.png,bear8-bicycle3.png,0.0,-10.055189,-3.6177702,-4.551943
alexnet_w1_mlp_simclrhn_probe1,1,150,NaN,bicycle,bear,NaN,bear8-boat2.png,bear8-boat2.png,0.0,-13.759296,-1.5214863,-8.653439
alexnet_w1_mlp_simclrhn_probe1,1,151,NaN,bottle,bear,NaN,bear8-bottle1.png,bear8-bottle1.png,0.0,-9.258155,-3.3850474,-4.152914
alexnet_w1_mlp_simclrhn_probe1,1,152,NaN,bear,bear,NaN,bear8-dog1.png,bear8-dog1.png,1.0,0.009894729,-0.6750377,0.48432037
alexnet_w1_mlp_simclrhn_probe1,1,153,NaN,elephant,bear,NaN,bear8-elephant2.png,bear8-elephant2.png,0.0,-5.334729,0.017763615,-3.784784
alexnet_w1_mlp_simclrhn_probe1,1,154,NaN,knife,bear,NaN,bear8-knife3.png,bear8-knife3.png,0.0,-9.341633,-2.5820544,-4.779744
alexnet_w1_mlp_simclrhn_probe1,1,155,NaN,bottle,bear,NaN,bear8-truck3.png,bear8-truck3.png,0.0,-17.330736,-0.21906066,-12.099782
alexnet_w1_mlp_simclrhn_probe1,1,156,NaN,chair,bear,NaN,bear9-boat2.png,bear9-boat2.png,0.0,-12.015822,-2.5423794,-6.6987357
alexnet_w1_mlp_simclrhn_probe1,1,157,NaN,bottle,bear,NaN,bear9-bottle2.png,bear9-bottle2.png,0.0,-14.7174225,-1.5244007,-9.328876
alexnet_w1_mlp_simclrhn_probe1,1,158,NaN,bear,bear,NaN,bear9-dog1.png,bear9-dog1.png,1.0,1.3169203,0.7399772,0.40796039
alexnet_w1_mlp_simclrhn_probe1,1,159,NaN,keyboard,bear,NaN,bear9-keyboard3.png,bear9-keyboard3.png,0.0,-11.052765,-0.18298596,-7.6860943
alexnet_w1_mlp_simclrhn_probe1,1,160,NaN,oven,bear,NaN,bear9-knife2.png,bear9-knife2.png,0.0,-5.717692,-0.54482424,-3.65777
alexnet_w1_mlp_simclrhn_probe1,1,161,NaN,bicycle,bicycle,NaN,bicycle1-airplane2.png,bicycle1-airplane2.png,1.0,2.3915973,-0.016338825,1.702668
alexnet_w1_mlp_simclrhn_probe1,1,162,NaN,elephant,bicycle,NaN,bicycle1-bear1.png,bicycle1-bear1.png,0.0,-8.590165,-1.1516893,-5.2597966
alexnet_w1_mlp_simclrhn_probe1,1,163,NaN,bicycle,bicycle,NaN,bicycle1-bicycle3.png,bicycle1-bicycle3.png,1.0,8.747736,-3.5275156,8.6799135
alexnet_w1_mlp_simclrhn_probe1,1,164,NaN,bottle,bicycle,NaN,bicycle1-bird1.png,bicycle1-bird1.png,0.0,-4.8027163,-2.4046478,-1.6956905
alexnet_w1_mlp_simclrhn_probe1,1,165,NaN,bicycle,bicycle,NaN,bicycle1-boat3.png,bicycle1-boat3.png,1.0,0.012441516,-3.0057383,2.1341755
alexnet_w1_mlp_simclrhn_probe1,1,166,NaN,bicycle,bicycle,NaN,bicycle1-bottle3.png,bicycle1-bottle3.png,1.0,18.186516,-1.9599018,14.245668
alexnet_w1_mlp_simclrhn_probe1,1,167,NaN,car,bicycle,NaN,bicycle1-chair1.png,bicycle1-chair1.png,0.0,-1.503176,-0.11268183,-0.98322785
alexnet_w1_mlp_simclrhn_probe1,1,168,NaN,bicycle,bicycle,NaN,bicycle1-clock3.png,bicycle1-clock3.png,1.0,8.457252,0.52418727,5.609524
alexnet_w1_mlp_simclrhn_probe1,1,169,NaN,cat,bicycle,NaN,bicycle1-dog3.png,bicycle1-dog3.png,0.0,-13.277388,-2.0845053,-7.914563
alexnet_w1_mlp_simclrhn_probe1,1,170,NaN,elephant,bicycle,NaN,bicycle1-elephant2.png,bicycle1-elephant2.png,0.0,-4.9705,-3.020607,-1.3787826
alexnet_w1_mlp_simclrhn_probe1,1,171,NaN,bottle,bicycle,NaN,bicycle1-knife3.png,bicycle1-knife3.png,0.0,-5.2320185,-1.4721699,-2.6586144
alexnet_w1_mlp_simclrhn_probe1,1,172,NaN,knife,bicycle,NaN,bicycle1-oven1.png,bicycle1-oven1.png,0.0,-7.8756776,0.53503275,-5.9472704
alexnet_w1_mlp_simclrhn_probe1,1,173,NaN,bicycle,bicycle,NaN,bicycle1-truck1.png,bicycle1-truck1.png,1.0,8.496468,0.14616702,5.9045544
alexnet_w1_mlp_simclrhn_probe1,1,174,NaN,car,bicycle,NaN,bicycle10-airplane2.png,bicycle10-airplane2.png,0.0,-1.6905067,1.3948942,-2.181708
alexnet_w1_mlp_simclrhn_probe1,1,175,NaN,truck,bicycle,NaN,bicycle10-boat3.png,bicycle10-boat3.png,0.0,-1.5643404,0.3577688,-1.3591365
alexnet_w1_mlp_simclrhn_probe1,1,176,NaN,bicycle,bicycle,NaN,bicycle10-clock2.png,bicycle10-clock2.png,1.0,7.030012,1.9695859,3.5782619
alexnet_w1_mlp_simclrhn_probe1,1,177,NaN,cat,bicycle,NaN,bicycle10-dog3.png,bicycle10-dog3.png,0.0,-13.4795,-2.5782862,-7.708322
alexnet_w1_mlp_simclrhn_probe1,1,178,NaN,elephant,bicycle,NaN,bicycle10-elephant2.png,bicycle10-elephant2.png,0.0,-4.829852,-1.7995682,-2.1427343
alexnet_w1_mlp_simclrhn_probe1,1,179,NaN,bicycle,bicycle,NaN,bicycle2-bicycle1.png,bicycle2-bicycle1.png,1.0,4.952626,-9.194484,10.003517
alexnet_w1_mlp_simclrhn_probe1,1,180,NaN,bicycle,bicycle,NaN,bicycle2-bird3.png,bicycle2-bird3.png,1.0,-1.3111959,-3.2767763,1.3898753
alexnet_w1_mlp_simclrhn_probe1,1,181,NaN,bicycle,bicycle,NaN,bicycle2-bottle1.png,bicycle2-bottle1.png,1.0,0.58499706,-5.0128946,3.9583073
alexnet_w1_mlp_simclrhn_probe1,1,182,NaN,bicycle,bicycle,NaN,bicycle2-car2.png,bicycle2-car2.png,1.0,0.60576046,-2.9569073,2.5191867
alexnet_w1_mlp_simclrhn_probe1,1,183,NaN,cat,bicycle,NaN,bicycle2-dog1.png,bicycle2-dog1.png,0.0,-12.104881,-1.0329114,-7.8290653
alexnet_w1_mlp_simclrhn_probe1,1,184,NaN,knife,bicycle,NaN,bicycle2-keyboard2.png,bicycle2-keyboard2.png,0.0,-3.870518,-1.8946761,-1.3971312
alexnet_w1_mlp_simclrhn_probe1,1,185,NaN,knife,bicycle,NaN,bicycle2-knife2.png,bicycle2-knife2.png,0.0,-3.1638775,-2.3002849,-0.6106522
alexnet_w1_mlp_simclrhn_probe1,1,186,NaN,cat,bicycle,NaN,bicycle3-bird1.png,bicycle3-bird1.png,0.0,-6.2771406,-2.219699,-2.8690445
alexnet_w1_mlp_simclrhn_probe1,1,187,NaN,cat,bicycle,NaN,bicycle3-elephant2.png,bicycle3-elephant2.png,0.0,-4.384316,-1.1089779,-2.3160138
alexnet_w1_mlp_simclrhn_probe1,1,188,NaN,bicycle,bicycle,NaN,bicycle3-keyboard1.png,bicycle3-keyboard1.png,1.0,4.458503,-3.9397802,5.9384828
alexnet_w1_mlp_simclrhn_probe1,1,189,NaN,chair,bicycle,NaN,bicycle3-oven3.png,bicycle3-oven3.png,0.0,-4.439472,0.69530874,-3.6308384
alexnet_w1_mlp_simclrhn_probe1,1,190,NaN,chair,bicycle,NaN,bicycle3-truck3.png,bicycle3-truck3.png,0.0,-6.3237762,-1.3926516,-3.4868317
alexnet_w1_mlp_simclrhn_probe1,1,191,NaN,bicycle,bicycle,NaN,bicycle4-airplane1.png,bicycle4-airplane1.png,1.0,1.7668337,-1.3148168,2.179056
alexnet_w1_mlp_simclrhn_probe1,1,192,NaN,bicycle,bicycle,NaN,bicycle4-bicycle3.png,bicycle4-bicycle3.png,1.0,6.1670833,-4.3182874,7.4142766
alexnet_w1_mlp_simclrhn_probe1,1,193,NaN,bicycle,bicycle,NaN,bicycle4-boat1.png,bicycle4-boat1.png,1.0,5.732314,-2.5982378,5.89059
alexnet_w1_mlp_simclrhn_probe1,1,194,NaN,bicycle,bicycle,NaN,bicycle4-bottle1.png,bicycle4-bottle1.png,1.0,-0.695385,-3.6800423,2.1104715
alexnet_w1_mlp_simclrhn_probe1,1,195,NaN,bicycle,bicycle,NaN,bicycle4-car2.png,bicycle4-car2.png,1.0,5.4662347,-0.9674452,4.549299
alexnet_w1_mlp_simclrhn_probe1,1,196,NaN,cat,bicycle,NaN,bicycle4-cat1.png,bicycle4-cat1.png,0.0,-12.7674265,1.5143027,-10.098707
alexnet_w1_mlp_simclrhn_probe1,1,197,NaN,bicycle,bicycle,NaN,bicycle4-chair2.png,bicycle4-chair2.png,1.0,1.0416954,-2.1698167,2.2708821
alexnet_w1_mlp_simclrhn_probe1,1,198,NaN,bicycle,bicycle,NaN,bicycle4-clock3.png,bicycle4-clock3.png,1.0,3.7049382,-0.7081237,3.1205063
alexnet_w1_mlp_simclrhn_probe1,1,199,NaN,bottle,bicycle,NaN,bicycle4-keyboard3.png,bicycle4-keyboard3.png,0.0,-4.1313996,-1.2911066,-2.0083904
alexnet_w1_mlp_simclrhn_probe1,1,200,NaN,knife,bicycle,NaN,bicycle4-knife3.png,bicycle4-knife3.png,0.0,-4.760666,-1.8692365,-2.0445495
alexnet_w1_mlp_simclrhn_probe1,1,201,NaN,chair,bicycle,NaN,bicycle4-oven3.png,bicycle4-oven3.png,0.0,-5.9411087,-0.5825539,-3.7890706
alexnet_w1_mlp_simclrhn_probe1,1,202,NaN,chair,bicycle,NaN,bicycle4-truck3.png,bicycle4-truck3.png,0.0,-6.6083446,-2.2160494,-3.1058216
alexnet_w1_mlp_simclrhn_probe1,1,203,NaN,cat,bicycle,NaN,bicycle5-bear1.png,bicycle5-bear1.png,0.0,-9.83041,-0.5543895,-6.559137
alexnet_w1_mlp_simclrhn_probe1,1,204,NaN,bicycle,bicycle,NaN,bicycle5-bottle3.png,bicycle5-bottle3.png,1.0,9.456766,-6.6104836,11.361261
alexnet_w1_mlp_simclrhn_probe1,1,205,NaN,bicycle,bicycle,NaN,bicycle5-car3.png,bicycle5-car3.png,1.0,7.4541607,-3.1188428,7.476243
alexnet_w1_mlp_simclrhn_probe1,1,206,NaN,cat,bicycle,NaN,bicycle5-cat1.png,bicycle5-cat1.png,0.0,-7.81087,-0.0048648515,-5.5196795
alexnet_w1_mlp_simclrhn_probe1,1,207,NaN,bicycle,bicycle,NaN,bicycle5-chair2.png,bicycle5-chair2.png,1.0,0.9789341,-1.5093037,1.7594498
alexnet_w1_mlp_simclrhn_probe1,1,208,NaN,cat,bicycle,NaN,bicycle5-dog2.png,bicycle5-dog2.png,0.0,-5.151155,-0.060151767,-3.599883
alexnet_w1_mlp_simclrhn_probe1,1,209,NaN,bicycle,bicycle,NaN,bicycle5-elephant1.png,bicycle5-elephant1.png,1.0,-1.4118016,-2.8031406,0.9838253
alexnet_w1_mlp_simclrhn_probe1,1,210,NaN,airplane,bicycle,NaN,bicycle5-keyboard3.png,bicycle5-keyboard3.png,0.0,-4.772624,-0.5029235,-3.0191343
alexnet_w1_mlp_simclrhn_probe1,1,211,NaN,chair,bicycle,NaN,bicycle5-oven3.png,bicycle5-oven3.png,0.0,-3.5876179,0.9484061,-3.2074535
alexnet_w1_mlp_simclrhn_probe1,1,212,NaN,chair,bicycle,NaN,bicycle6-airplane2.png,bicycle6-airplane2.png,0.0,-5.3172474,-1.2836951,-2.852152
alexnet_w1_mlp_simclrhn_probe1,1,213,NaN,bicycle,bicycle,NaN,bicycle6-bicycle3.png,bicycle6-bicycle3.png,1.0,1.7598115,-5.718881,5.288234
alexnet_w1_mlp_simclrhn_probe1,1,214,NaN,bicycle,bicycle,NaN,bicycle6-boat2.png,bicycle6-boat2.png,1.0,2.7678127,-1.136164,2.7605283
alexnet_w1_mlp_simclrhn_probe1,1,215,NaN,bicycle,bicycle,NaN,bicycle6-car2.png,bicycle6-car2.png,1.0,-0.39009765,-3.7532306,2.3780942
alexnet_w1_mlp_simclrhn_probe1,1,216,NaN,cat,bicycle,NaN,bicycle6-cat1.png,bicycle6-cat1.png,0.0,-11.391766,0.60867566,-8.485594
alexnet_w1_mlp_simclrhn_probe1,1,217,NaN,cat,bicycle,NaN,bicycle6-dog2.png,bicycle6-dog2.png,0.0,-5.1851645,0.6747313,-4.143572
alexnet_w1_mlp_simclrhn_probe1,1,218,NaN,elephant,bicycle,NaN,bicycle7-bear2.png,bicycle7-bear2.png,0.0,-6.3455567,0.74015176,-5.0103526
alexnet_w1_mlp_simclrhn_probe1,1,219,NaN,bicycle,bicycle,NaN,bicycle7-bicycle2.png,bicycle7-bicycle2.png,1.0,10.731948,-5.8301263,11.711156
alexnet_w1_mlp_simclrhn_probe1,1,220,NaN,cat,bicycle,NaN,bicycle7-cat1.png,bicycle7-cat1.png,0.0,-9.951811,-0.43743077,-6.727683
alexnet_w1_mlp_simclrhn_probe1,1,221,NaN,bicycle,bicycle,NaN,bicycle7-clock3.png,bicycle7-clock3.png,1.0,6.8766413,-0.36040878,5.1173673
alexnet_w1_mlp_simclrhn_probe1,1,222,NaN,cat,bicycle,NaN,bicycle7-elephant2.png,bicycle7-elephant2.png,0.0,-5.2163916,-2.9496994,-1.6027935
alexnet_w1_mlp_simclrhn_probe1,1,223,NaN,bicycle,bicycle,NaN,bicycle7-knife2.png,bicycle7-knife2.png,1.0,-0.18350613,-0.8687049,0.48450872
alexnet_w1_mlp_simclrhn_probe1,1,224,NaN,knife,bicycle,NaN,bicycle7-oven1.png,bicycle7-oven1.png,0.0,-6.8292685,-0.12244125,-4.742443
alexnet_w1_mlp_simclrhn_probe1,1,225,NaN,bottle,bicycle,NaN,bicycle7-truck3.png,bicycle7-truck3.png,0.0,-7.3634887,-1.1527797,-4.3916345
alexnet_w1_mlp_simclrhn_probe1,1,226,NaN,elephant,bicycle,NaN,bicycle8-bear2.png,bicycle8-bear2.png,0.0,-4.3591824,-0.52973783,-2.7078261
alexnet_w1_mlp_simclrhn_probe1,1,227,NaN,bicycle,bicycle,NaN,bicycle8-bird2.png,bicycle8-bird2.png,1.0,6.396646,-3.8737872,7.2622933
alexnet_w1_mlp_simclrhn_probe1,1,228,NaN,bicycle,bicycle,NaN,bicycle8-boat1.png,bicycle8-boat1.png,1.0,9.519335,-2.4777787,8.48324
alexnet_w1_mlp_simclrhn_probe1,1,229,NaN,bicycle,bicycle,NaN,bicycle8-chair2.png,bicycle8-chair2.png,1.0,3.1567326,-1.5135163,3.3023648
alexnet_w1_mlp_simclrhn_probe1,1,230,NaN,bicycle,bicycle,NaN,bicycle8-clock3.png,bicycle8-clock3.png,1.0,4.769859,-0.45060745,3.691427
alexnet_w1_mlp_simclrhn_probe1,1,231,NaN,bicycle,bicycle,NaN,bicycle8-truck1.png,bicycle8-truck1.png,1.0,6.006955,0.21102495,4.098342
alexnet_w1_mlp_simclrhn_probe1,1,232,NaN,bicycle,bicycle,NaN,bicycle9-airplane2.png,bicycle9-airplane2.png,1.0,4.3600397,0.18964024,2.9489179
alexnet_w1_mlp_simclrhn_probe1,1,233,NaN,cat,bicycle,NaN,bicycle9-bear1.png,bicycle9-bear1.png,0.0,-9.469183,-0.9583506,-6.018068
alexnet_w1_mlp_simclrhn_probe1,1,234,NaN,bicycle,bicycle,NaN,bicycle9-bird3.png,bicycle9-bird3.png,1.0,2.829206,-1.4619722,3.0343213
alexnet_w1_mlp_simclrhn_probe1,1,235,NaN,bicycle,bicycle,NaN,bicycle9-bottle1.png,bicycle9-bottle1.png,1.0,4.902948,-4.159331,6.407999
alexnet_w1_mlp_simclrhn_probe1,1,236,NaN,bicycle,bicycle,NaN,bicycle9-car1.png,bicycle9-car1.png,1.0,12.436618,-3.480486,11.255093
alexnet_w1_mlp_simclrhn_probe1,1,237,NaN,cat,bicycle,NaN,bicycle9-cat3.png,bicycle9-cat3.png,0.0,-6.9956803,-0.7370956,-4.425488
alexnet_w1_mlp_simclrhn_probe1,1,238,NaN,bicycle,bicycle,NaN,bicycle9-chair1.png,bicycle9-chair1.png,1.0,0.5446683,-0.17399907,0.5081746
alexnet_w1_mlp_simclrhn_probe1,1,239,NaN,clock,bicycle,NaN,bicycle9-keyboard3.png,bicycle9-keyboard3.png,0.0,-4.6761885,-1.0077533,-2.5939753
alexnet_w1_mlp_simclrhn_probe1,1,240,NaN,bottle,bicycle,NaN,bicycle9-knife3.png,bicycle9-knife3.png,0.0,-5.983696,-1.3414929,-3.2825334
alexnet_w1_mlp_simclrhn_probe1,1,241,NaN,car,bird,NaN,bird1-airplane2.png,bird1-airplane2.png,0.0,-7.6191874,-3.3363922,-3.0283935
alexnet_w1_mlp_simclrhn_probe1,1,242,NaN,cat,bird,NaN,bird1-bear1.png,bird1-bear1.png,0.0,-2.6740522,-0.11453549,-1.8098516
alexnet_w1_mlp_simclrhn_probe1,1,243,NaN,bird,bird,NaN,bird1-bicycle2.png,bird1-bicycle2.png,1.0,-2.647033,-2.913636,0.18851678
alexnet_w1_mlp_simclrhn_probe1,1,244,NaN,bicycle,bird,NaN,bird1-boat1.png,bird1-boat1.png,0.0,-7.876047,-0.54930043,-5.1807923
alexnet_w1_mlp_simclrhn_probe1,1,245,NaN,bicycle,bird,NaN,bird1-chair2.png,bird1-chair2.png,0.0,-8.287755,-2.0817418,-4.3883142
alexnet_w1_mlp_simclrhn_probe1,1,246,NaN,bottle,bird,NaN,bird1-clock3.png,bird1-clock3.png,0.0,-14.533068,-0.9484166,-9.605799
alexnet_w1_mlp_simclrhn_probe1,1,247,NaN,elephant,bird,NaN,bird1-elephant2.png,bird1-elephant2.png,0.0,-4.284252,-0.78414285,-2.474951
alexnet_w1_mlp_simclrhn_probe1,1,248,NaN,knife,bird,NaN,bird1-keyboard3.png,bird1-keyboard3.png,0.0,-3.6867974,-1.050302,-1.8642838
alexnet_w1_mlp_simclrhn_probe1,1,249,NaN,knife,bird,NaN,bird1-knife3.png,bird1-knife3.png,0.0,-5.7623253,-1.8700297,-2.7522686
alexnet_w1_mlp_simclrhn_probe1,1,250,NaN,knife,bird,NaN,bird1-oven1.png,bird1-oven1.png,0.0,-6.3820186,0.34988305,-4.7601733
alexnet_w1_mlp_simclrhn_probe1,1,251,NaN,chair,bird,NaN,bird1-truck1.png,bird1-truck1.png,0.0,-11.042022,-1.7310634,-6.5838423
alexnet_w1_mlp_simclrhn_probe1,1,252,NaN,elephant,bird,NaN,bird10-bear2.png,bird10-bear2.png,0.0,-2.3494267,0.66570085,-2.1320171
alexnet_w1_mlp_simclrhn_probe1,1,253,NaN,bicycle,bird,NaN,bird10-bicycle1.png,bird10-bicycle1.png,0.0,-5.297214,-0.9014768,-3.1082556
alexnet_w1_mlp_simclrhn_probe1,1,254,NaN,bird,bird,NaN,bird10-bird2.png,bird10-bird2.png,1.0,0.5364128,-2.8701787,2.408824
alexnet_w1_mlp_simclrhn_probe1,1,255,NaN,cat,bird,NaN,bird10-cat1.png,bird10-cat1.png,0.0,-4.5647745,-0.43798685,-2.9180796
alexnet_w1_mlp_simclrhn_probe1,1,256,NaN,chair,bird,NaN,bird10-chair1.png,bird10-chair1.png,0.0,-9.864871,-1.9327792,-5.6088357
alexnet_w1_mlp_simclrhn_probe1,1,257,NaN,bicycle,bird,NaN,bird10-clock1.png,bird10-clock1.png,0.0,-8.257043,-2.5614457,-4.0273952
alexnet_w1_mlp_simclrhn_probe1,1,258,NaN,elephant,bird,NaN,bird10-elephant2.png,bird10-elephant2.png,0.0,-4.7069373,-1.6444774,-2.1654863
alexnet_w1_mlp_simclrhn_probe1,1,259,NaN,knife,bird,NaN,bird2-airplane3.png,bird2-airplane3.png,0.0,-9.993327,-1.8690091,-5.7447605
alexnet_w1_mlp_simclrhn_probe1,1,260,NaN,bicycle,bird,NaN,bird2-bird2.png,bird2-bird2.png,0.0,-3.0714436,-0.8692386,-1.5571941
alexnet_w1_mlp_simclrhn_probe1,1,261,NaN,bicycle,bird,NaN,bird2-car3.png,bird2-car3.png,0.0,-7.973427,-0.23368342,-5.472825
alexnet_w1_mlp_simclrhn_probe1,1,262,NaN,bottle,bird,NaN,bird2-clock3.png,bird2-clock3.png,0.0,-10.3526745,-1.4244736,-6.3131914
alexnet_w1_mlp_simclrhn_probe1,1,263,NaN,cat,bird,NaN,bird2-dog2.png,bird2-dog2.png,0.0,-4.4095764,0.46841136,-3.4492583
alexnet_w1_mlp_simclrhn_probe1,1,264,NaN,bicycle,bird,NaN,bird2-knife1.png,bird2-knife1.png,0.0,-7.888918,-2.0941155,-4.097544
alexnet_w1_mlp_simclrhn_probe1,1,265,NaN,bird,bird,NaN,bird3-bear3.png,bird3-bear3.png,1.0,-0.8843715,-2.7479484,1.3177478
alexnet_w1_mlp_simclrhn_probe1,1,266,NaN,bird,bird,NaN,bird3-bird2.png,bird3-bird2.png,1.0,-0.81968045,-3.6007757,1.9665314
alexnet_w1_mlp_simclrhn_probe1,1,267,NaN,bottle,bird,NaN,bird3-boat3.png,bird3-boat3.png,0.0,-7.4721184,-2.37891,-3.601442
alexnet_w1_mlp_simclrhn_probe1,1,268,NaN,bottle,bird,NaN,bird3-bottle2.png,bird3-bottle2.png,0.0,-9.42361,-0.783862,-6.1092243
alexnet_w1_mlp_simclrhn_probe1,1,269,NaN,cat,bird,NaN,bird3-cat1.png,bird3-cat1.png,0.0,-4.522044,0.5163807,-3.5627046
alexnet_w1_mlp_simclrhn_probe1,1,270,NaN,cat,bird,NaN,bird3-dog1.png,bird3-dog1.png,0.0,-5.036717,-0.6106446,-3.1297057
alexnet_w1_mlp_simclrhn_probe1,1,271,NaN,knife,bird,NaN,bird3-knife3.png,bird3-knife3.png,0.0,-5.6318984,-1.4371262,-2.966152
alexnet_w1_mlp_simclrhn_probe1,1,272,NaN,knife,bird,NaN,bird3-oven1.png,bird3-oven1.png,0.0,-4.852489,-0.9936024,-2.728645
alexnet_w1_mlp_simclrhn_probe1,1,273,NaN,knife,bird,NaN,bird3-truck3.png,bird3-truck3.png,0.0,-7.16531,-1.4605633,-4.033865
alexnet_w1_mlp_simclrhn_probe1,1,274,NaN,chair,bird,NaN,bird4-airplane1.png,bird4-airplane1.png,0.0,-6.8052516,-2.6684442,-2.9251647
alexnet_w1_mlp_simclrhn_probe1,1,275,NaN,bicycle,bird,NaN,bird4-bicycle2.png,bird4-bicycle2.png,0.0,-3.0239968,-1.0948827,-1.3640897
alexnet_w1_mlp_simclrhn_probe1,1,276,NaN,cat,bird,NaN,bird4-cat3.png,bird4-cat3.png,0.0,-4.883551,1.4280729,-4.462992
alexnet_w1_mlp_simclrhn_probe1,1,277,NaN,bicycle,bird,NaN,bird4-clock1.png,bird4-clock1.png,0.0,-9.713863,-3.0761185,-4.6935945
alexnet_w1_mlp_simclrhn_probe1,1,278,NaN,cat,bird,NaN,bird4-dog3.png,bird4-dog3.png,0.0,-6.627258,0.47317123,-5.0207615
alexnet_w1_mlp_simclrhn_probe1,1,279,NaN,airplane,bird,NaN,bird5-airplane3.png,bird5-airplane3.png,0.0,-5.763429,-0.99915373,-3.3688517
alexnet_w1_mlp_simclrhn_probe1,1,280,NaN,cat,bird,NaN,bird5-bear3.png,bird5-bear3.png,0.0,-2.1096883,-1.7902169,-0.22590037
alexnet_w1_mlp_simclrhn_probe1,1,281,NaN,bird,bird,NaN,bird5-bicycle1.png,bird5-bicycle1.png,1.0,-3.1565652,-4.5583534,0.991214
alexnet_w1_mlp_simclrhn_probe1,1,282,NaN,bird,bird,NaN,bird5-bird1.png,bird5-bird1.png,1.0,-1.9163097,-2.5400672,0.44106317
alexnet_w1_mlp_simclrhn_probe1,1,283,NaN,bicycle,bird,NaN,bird5-car2.png,bird5-car2.png,0.0,-7.0312557,-2.115203,-3.4761744
alexnet_w1_mlp_simclrhn_probe1,1,284,NaN,cat,bird,NaN,bird5-cat2.png,bird5-cat2.png,0.0,-1.9845407,-0.5153615,-1.0388665
alexnet_w1_mlp_simclrhn_probe1,1,285,NaN,airplane,bird,NaN,bird5-chair1.png,bird5-chair1.png,0.0,-9.916422,-1.0823597,-6.2466254
alexnet_w1_mlp_simclrhn_probe1,1,286,NaN,cat,bird,NaN,bird5-dog2.png,bird5-dog2.png,0.0,-3.2579083,-0.48376894,-1.9616128
alexnet_w1_mlp_simclrhn_probe1,1,287,NaN,knife,bird,NaN,bird5-keyboard2.png,bird5-keyboard2.png,0.0,-8.764475,-1.0009224,-5.4896607
alexnet_w1_mlp_simclrhn_probe1,1,288,NaN,chair,bird,NaN,bird5-oven3.png,bird5-oven3.png,0.0,-8.868904,0.5285633,-6.6450133
alexnet_w1_mlp_simclrhn_probe1,1,289,NaN,chair,bird,NaN,bird5-truck2.png,bird5-truck2.png,0.0,-9.42538,-0.5339551,-6.2871866
alexnet_w1_mlp_simclrhn_probe1,1,290,NaN,airplane,bird,NaN,bird6-airplane2.png,bird6-airplane2.png,0.0,-6.2094507,-2.458332,-2.6524415
alexnet_w1_mlp_simclrhn_probe1,1,291,NaN,bicycle,bird,NaN,bird6-boat2.png,bird6-boat2.png,0.0,-11.843604,0.031139076,-8.396711
alexnet_w1_mlp_simclrhn_probe1,1,292,NaN,bird,bird,NaN,bird6-bottle3.png,bird6-bottle3.png,1.0,-5.781096,-6.137028,0.2516821
alexnet_w1_mlp_simclrhn_probe1,1,293,NaN,bicycle,bird,NaN,bird6-car3.png,bird6-car3.png,0.0,-7.861114,-1.2561764,-4.6703963
alexnet_w1_mlp_simclrhn_probe1,1,294,NaN,elephant,bird,NaN,bird6-elephant2.png,bird6-elephant2.png,0.0,-6.0886936,-0.97424686,-3.6164598
alexnet_w1_mlp_simclrhn_probe1,1,295,NaN,knife,bird,NaN,bird6-oven1.png,bird6-oven1.png,0.0,-5.753648,-0.6504931,-3.6084752
alexnet_w1_mlp_simclrhn_probe1,1,296,NaN,chair,bird,NaN,bird6-truck2.png,bird6-truck2.png,0.0,-11.089396,0.12370467,-7.92886
alexnet_w1_mlp_simclrhn_probe1,1,297,NaN,bird,bird,NaN,bird7-bird2.png,bird7-bird2.png,1.0,-3.6021304,-4.5598345,0.67719907
alexnet_w1_mlp_simclrhn_probe1,1,298,NaN,boat,bird,NaN,bird7-boat1.png,bird7-boat1.png,0.0,-10.239267,-1.1292436,-6.4417596
alexnet_w1_mlp_simclrhn_probe1,1,299,NaN,bicycle,bird,NaN,bird7-bottle1.png,bird7-bottle1.png,0.0,-8.293855,-3.534152,-3.365618
alexnet_w1_mlp_simclrhn_probe1,1,300,NaN,bicycle,bird,NaN,bird7-car2.png,bird7-car2.png,0.0,-8.820497,-0.8899564,-5.607739
alexnet_w1_mlp_simclrhn_probe1,1,301,NaN,cat,bird,NaN,bird7-cat3.png,bird7-cat3.png,0.0,-4.5980864,-1.0155597,-2.5332289
alexnet_w1_mlp_simclrhn_probe1,1,302,NaN,knife,bird,NaN,bird7-keyboard3.png,bird7-keyboard3.png,0.0,-4.4242687,-1.4365983,-2.112602
alexnet_w1_mlp_simclrhn_probe1,1,303,NaN,oven,bird,NaN,bird7-knife2.png,bird7-knife2.png,0.0,-5.6280355,-1.0483361,-3.2383366
alexnet_w1_mlp_simclrhn_probe1,1,304,NaN,chair,bird,NaN,bird7-oven3.png,bird7-oven3.png,0.0,-8.202532,-0.0379795,-5.7732105
alexnet_w1_mlp_simclrhn_probe1,1,305,NaN,car,bird,NaN,bird7-truck2.png,bird7-truck2.png,0.0,-11.384008,-2.517849,-6.2693214
alexnet_w1_mlp_simclrhn_probe1,1,306,NaN,boat,bird,NaN,bird8-boat3.png,bird8-boat3.png,0.0,-10.667201,-0.6840854,-7.0591288
alexnet_w1_mlp_simclrhn_probe1,1,307,NaN,bicycle,bird,NaN,bird8-bottle1.png,bird8-bottle1.png,0.0,-6.8590684,-3.5577388,-2.3343925
alexnet_w1_mlp_simclrhn_probe1,1,308,NaN,bicycle,bird,NaN,bird8-car2.png,bird8-car2.png,0.0,-7.570217,-1.4465772,-4.3300676
alexnet_w1_mlp_simclrhn_probe1,1,309,NaN,chair,bird,NaN,bird8-chair1.png,bird8-chair1.png,0.0,-11.019437,-1.2196823,-6.929473
alexnet_w1_mlp_simclrhn_probe1,1,310,NaN,bicycle,bird,NaN,bird8-clock1.png,bird8-clock1.png,0.0,-11.988569,-2.6259775,-6.6203523
alexnet_w1_mlp_simclrhn_probe1,1,311,NaN,bird,bird,NaN,bird8-elephant1.png,bird8-elephant1.png,1.0,-2.9854896,-3.278141,0.20693581
alexnet_w1_mlp_simclrhn_probe1,1,312,NaN,clock,bird,NaN,bird8-keyboard2.png,bird8-keyboard2.png,0.0,-7.5380225,-0.62256855,-4.8899646
alexnet_w1_mlp_simclrhn_probe1,1,313,NaN,knife,bird,NaN,bird8-knife2.png,bird8-knife2.png,0.0,-5.289546,-0.23396768,-3.5748336
alexnet_w1_mlp_simclrhn_probe1,1,314,NaN,cat,bird,NaN,bird9-bear3.png,bird9-bear3.png,0.0,-3.8143735,-1.4209915,-1.6923767
alexnet_w1_mlp_simclrhn_probe1,1,315,NaN,bicycle,bird,NaN,bird9-bicycle3.png,bird9-bicycle3.png,0.0,-2.9485648,-2.7321417,-0.1530342
alexnet_w1_mlp_simclrhn_probe1,1,316,NaN,bird,bird,NaN,bird9-bottle3.png,bird9-bottle3.png,1.0,-1.5435551,-6.2833843,3.3515654
alexnet_w1_mlp_simclrhn_probe1,1,317,NaN,bottle,bird,NaN,bird9-chair1.png,bird9-chair1.png,0.0,-8.085716,-3.3250487,-3.3663006
alexnet_w1_mlp_simclrhn_probe1,1,318,NaN,cat,bird,NaN,bird9-dog2.png,bird9-dog2.png,0.0,-4.3288045,0.30906495,-3.279469
alexnet_w1_mlp_simclrhn_probe1,1,319,NaN,elephant,bird,NaN,bird9-elephant2.png,bird9-elephant2.png,0.0,-5.5620093,-2.0044754,-2.5155563
alexnet_w1_mlp_simclrhn_probe1,1,320,NaN,bicycle,bird,NaN,bird9-keyboard1.png,bird9-keyboard1.png,0.0,-4.1772084,-2.707849,-1.038994
alexnet_w1_mlp_simclrhn_probe1,1,321,NaN,bear,boat,NaN,boat1-bear1.png,boat1-bear1.png,0.0,-11.166727,-0.43241215,-7.590307
alexnet_w1_mlp_simclrhn_probe1,1,322,NaN,bicycle,boat,NaN,boat1-bicycle2.png,boat1-bicycle2.png,0.0,-8.094989,-2.2435608,-4.1375847
alexnet_w1_mlp_simclrhn_probe1,1,323,NaN,knife,boat,NaN,boat1-bird3.png,boat1-bird3.png,0.0,-7.9482093,-1.9084117,-4.270782
alexnet_w1_mlp_simclrhn_probe1,1,324,NaN,bicycle,boat,NaN,boat1-car2.png,boat1-car2.png,0.0,-5.26562,-3.6925507,-1.1123282
alexnet_w1_mlp_simclrhn_probe1,1,325,NaN,airplane,boat,NaN,boat1-chair3.png,boat1-chair3.png,0.0,-2.4447927,2.3149421,-3.365641
alexnet_w1_mlp_simclrhn_probe1,1,326,NaN,cat,boat,NaN,boat1-elephant3.png,boat1-elephant3.png,0.0,-7.9276595,-3.560089,-3.0883386
alexnet_w1_mlp_simclrhn_probe1,1,327,NaN,airplane,boat,NaN,boat1-keyboard3.png,boat1-keyboard3.png,0.0,-3.586869,0.44335333,-2.8497977
alexnet_w1_mlp_simclrhn_probe1,1,328,NaN,knife,boat,NaN,boat1-oven1.png,boat1-oven1.png,0.0,-3.0513954,1.595983,-3.286193
alexnet_w1_mlp_simclrhn_probe1,1,329,NaN,airplane,boat,NaN,boat1-truck3.png,boat1-truck3.png,0.0,-2.912683,-0.42411435,-1.7596838
alexnet_w1_mlp_simclrhn_probe1,1,330,NaN,cat,boat,NaN,boat10-bear3.png,boat10-bear3.png,0.0,-12.336754,-1.7503347,-7.4857287
alexnet_w1_mlp_simclrhn_probe1,1,331,NaN,boat,boat,NaN,boat10-boat3.png,boat10-boat3.png,1.0,-0.13517861,-2.8243432,1.9015266
alexnet_w1_mlp_simclrhn_probe1,1,332,NaN,cat,boat,NaN,boat10-cat1.png,boat10-cat1.png,0.0,-12.3748255,0.6631514,-9.219242
alexnet_w1_mlp_simclrhn_probe1,1,333,NaN,car,boat,NaN,boat10-oven1.png,boat10-oven1.png,0.0,-3.8605762,0.9840319,-3.4256554
alexnet_w1_mlp_simclrhn_probe1,1,334,NaN,chair,boat,NaN,boat10-truck1.png,boat10-truck1.png,0.0,-2.211475,-1.2994254,-0.6449164
alexnet_w1_mlp_simclrhn_probe1,1,335,NaN,clock,boat,NaN,boat2-airplane1.png,boat2-airplane1.png,0.0,-2.5336368,-1.6122622,-0.65151024
alexnet_w1_mlp_simclrhn_probe1,1,336,NaN,elephant,boat,NaN,boat2-bear3.png,boat2-bear3.png,0.0,-10.813607,-2.1364017,-6.135711
alexnet_w1_mlp_simclrhn_probe1,1,337,NaN,cat,boat,NaN,boat2-bird1.png,boat2-bird1.png,0.0,-5.0673842,-1.862943,-2.265882
alexnet_w1_mlp_simclrhn_probe1,1,338,NaN,bottle,boat,NaN,boat2-bottle2.png,boat2-bottle2.png,0.0,-9.177867,0.8516808,-7.0919614
alexnet_w1_mlp_simclrhn_probe1,1,339,NaN,bicycle,boat,NaN,boat2-keyboard1.png,boat2-keyboard1.png,0.0,-3.7181618,-1.8163958,-1.3447517
alexnet_w1_mlp_simclrhn_probe1,1,340,NaN,chair,boat,NaN,boat2-oven3.png,boat2-oven3.png,0.0,-3.88314,-0.7412182,-2.2216744
alexnet_w1_mlp_simclrhn_probe1,1,341,NaN,airplane,boat,NaN,boat3-airplane2.png,boat3-airplane2.png,0.0,-2.3098,0.10469377,-1.7073048
alexnet_w1_mlp_simclrhn_probe1,1,342,NaN,bicycle,boat,NaN,boat3-bicycle2.png,boat3-bicycle2.png,0.0,-8.478193,-1.8899853,-4.658567
alexnet_w1_mlp_simclrhn_probe1,1,343,NaN,bicycle,boat,NaN,boat3-car3.png,boat3-car3.png,0.0,-4.3334227,-1.9788637,-1.6649246
alexnet_w1_mlp_simclrhn_probe1,1,344,NaN,cat,boat,NaN,boat3-cat3.png,boat3-cat3.png,0.0,-5.769212,-0.16456628,-3.963083
alexnet_w1_mlp_simclrhn_probe1,1,345,NaN,airplane,boat,NaN,boat3-chair3.png,boat3-chair3.png,0.0,-3.0690198,2.9979744,-4.290013
alexnet_w1_mlp_simclrhn_probe1,1,346,NaN,bottle,boat,NaN,boat3-clock3.png,boat3-clock3.png,0.0,-9.320548,-3.220859,-4.3131313
alexnet_w1_mlp_simclrhn_probe1,1,347,NaN,cat,boat,NaN,boat3-dog3.png,boat3-dog3.png,0.0,-12.22558,-0.24945562,-8.468399
alexnet_w1_mlp_simclrhn_probe1,1,348,NaN,airplane,boat,NaN,boat3-keyboard2.png,boat3-keyboard2.png,0.0,-4.3743773,0.45694134,-3.416258
alexnet_w1_mlp_simclrhn_probe1,1,349,NaN,bird,boat,NaN,boat4-bicycle3.png,boat4-bicycle3.png,0.0,-8.596817,-2.904749,-4.0249
alexnet_w1_mlp_simclrhn_probe1,1,350,NaN,cat,boat,NaN,boat4-bird1.png,boat4-bird1.png,0.0,-4.354765,-2.086055,-1.6042202
alexnet_w1_mlp_simclrhn_probe1,1,351,NaN,boat,boat,NaN,boat4-boat3.png,boat4-boat3.png,1.0,-0.26403433,-1.6112014,0.95259094
alexnet_w1_mlp_simclrhn_probe1,1,352,NaN,bottle,boat,NaN,boat4-bottle2.png,boat4-bottle2.png,0.0,-5.8976126,-1.0425489,-3.4330482
alexnet_w1_mlp_simclrhn_probe1,1,353,NaN,oven,boat,NaN,boat4-car3.png,boat4-car3.png,0.0,-5.252817,-1.7807047,-2.4551542
alexnet_w1_mlp_simclrhn_probe1,1,354,NaN,boat,boat,NaN,boat4-chair2.png,boat4-chair2.png,1.0,-1.2198279,-1.7417572,0.36905974
alexnet_w1_mlp_simclrhn_probe1,1,355,NaN,cat,boat,NaN,boat4-dog2.png,boat4-dog2.png,0.0,-8.351482,-1.0126487,-5.189339
alexnet_w1_mlp_simclrhn_probe1,1,356,NaN,cat,boat,NaN,boat4-elephant2.png,boat4-elephant2.png,0.0,-8.275291,-1.1903328,-5.0098224
alexnet_w1_mlp_simclrhn_probe1,1,357,NaN,oven,boat,NaN,boat4-knife2.png,boat4-knife2.png,0.0,-4.345023,0.46857274,-3.4037263
alexnet_w1_mlp_simclrhn_probe1,1,358,NaN,clock,boat,NaN,boat5-airplane1.png,boat5-airplane1.png,0.0,-3.6094327,-1.9258114,-1.1905
alexnet_w1_mlp_simclrhn_probe1,1,359,NaN,bicycle,boat,NaN,boat5-bicycle3.png,boat5-bicycle3.png,0.0,-5.898307,-0.6187251,-3.733228
alexnet_w1_mlp_simclrhn_probe1,1,360,NaN,boat,boat,NaN,boat5-boat3.png,boat5-boat3.png,1.0,-0.67697144,-2.449816,1.2535905
alexnet_w1_mlp_simclrhn_probe1,1,361,NaN,bicycle,boat,NaN,boat5-car3.png,boat5-car3.png,0.0,-4.5221386,-2.2324822,-1.6190315
alexnet_w1_mlp_simclrhn_probe1,1,362,NaN,clock,boat,NaN,boat5-clock3.png,boat5-clock3.png,0.0,-5.4893503,-1.905429,-2.5342152
alexnet_w1_mlp_simclrhn_probe1,1,363,NaN,boat,boat,NaN,boat5-knife2.png,boat5-knife2.png,1.0,-1.9948963,-2.0407295,0.03240899
alexnet_w1_mlp_simclrhn_probe1,1,364,NaN,knife,boat,NaN,boat6-airplane2.png,boat6-airplane2.png,0.0,-3.9916203,-1.8388674,-1.5222262
alexnet_w1_mlp_simclrhn_probe1,1,365,NaN,cat,boat,NaN,boat6-bear1.png,boat6-bear1.png,0.0,-11.585142,-0.19145496,-8.056554
alexnet_w1_mlp_simclrhn_probe1,1,366,NaN,bicycle,boat,NaN,boat6-bicycle2.png,boat6-bicycle2.png,0.0,-8.574039,-1.5038676,-4.9993668
alexnet_w1_mlp_simclrhn_probe1,1,367,NaN,bottle,boat,NaN,boat6-bottle2.png,boat6-bottle2.png,0.0,-7.4738207,-1.128142,-4.4870725
alexnet_w1_mlp_simclrhn_probe1,1,368,NaN,bicycle,boat,NaN,boat6-car1.png,boat6-car1.png,0.0,-6.8921266,-0.9817993,-4.1792326
alexnet_w1_mlp_simclrhn_probe1,1,369,NaN,cat,boat,NaN,boat6-cat1.png,boat6-cat1.png,0.0,-9.332506,1.1228278,-7.3930373
alexnet_w1_mlp_simclrhn_probe1,1,370,NaN,bicycle,boat,NaN,boat6-clock2.png,boat6-clock2.png,0.0,-7.3877,-2.0013583,-3.8087192
alexnet_w1_mlp_simclrhn_probe1,1,371,NaN,cat,boat,NaN,boat6-dog1.png,boat6-dog1.png,0.0,-11.107676,-1.2290579,-6.9852376
alexnet_w1_mlp_simclrhn_probe1,1,372,NaN,elephant,boat,NaN,boat6-elephant2.png,boat6-elephant2.png,0.0,-8.246602,-1.3821517,-4.8538995
alexnet_w1_mlp_simclrhn_probe1,1,373,NaN,knife,boat,NaN,boat6-knife2.png,boat6-knife2.png,0.0,-4.641592,-0.574202,-2.876079
alexnet_w1_mlp_simclrhn_probe1,1,374,NaN,chair,boat,NaN,boat6-truck3.png,boat6-truck3.png,0.0,-4.632474,-1.8851144,-1.9426765
alexnet_w1_mlp_simclrhn_probe1,1,375,NaN,bicycle,boat,NaN,boat7-boat2.png,boat7-boat2.png,0.0,-3.1713104,0.8953457,-2.87556
alexnet_w1_mlp_simclrhn_probe1,1,376,NaN,bottle,boat,NaN,boat7-bottle1.png,boat7-bottle1.png,0.0,-6.818408,-3.6216416,-2.2604551
alexnet_w1_mlp_simclrhn_probe1,1,377,NaN,cat,boat,NaN,boat7-cat3.png,boat7-cat3.png,0.0,-6.9500704,-0.15181117,-4.8070955
alexnet_w1_mlp_simclrhn_probe1,1,378,NaN,bottle,boat,NaN,boat7-chair1.png,boat7-chair1.png,0.0,-4.9983654,-2.2015615,-1.9776391
alexnet_w1_mlp_simclrhn_probe1,1,379,NaN,bottle,boat,NaN,boat7-clock3.png,boat7-clock3.png,0.0,-9.017471,-2.1475122,-4.857795
alexnet_w1_mlp_simclrhn_probe1,1,380,NaN,elephant,boat,NaN,boat7-elephant3.png,boat7-elephant3.png,0.0,-6.9246063,-3.049541,-2.7400851
alexnet_w1_mlp_simclrhn_probe1,1,381,NaN,bottle,boat,NaN,boat7-keyboard3.png,boat7-keyboard3.png,0.0,-4.0046525,-1.144594,-2.0223668
alexnet_w1_mlp_simclrhn_probe1,1,382,NaN,chair,boat,NaN,boat7-oven3.png,boat7-oven3.png,0.0,-2.9061427,-0.28765154,-1.8515528
alexnet_w1_mlp_simclrhn_probe1,1,383,NaN,bottle,boat,NaN,boat7-truck2.png,boat7-truck2.png,0.0,-5.223533,-1.6902381,-2.498417
alexnet_w1_mlp_simclrhn_probe1,1,384,NaN,bicycle,boat,NaN,boat8-bird2.png,boat8-bird2.png,0.0,-7.16158,-3.6687627,-2.469795
alexnet_w1_mlp_simclrhn_probe1,1,385,NaN,knife,boat,NaN,boat8-bottle1.png,boat8-bottle1.png,0.0,-6.822039,-3.7914653,-2.1429393
alexnet_w1_mlp_simclrhn_probe1,1,386,NaN,cat,boat,NaN,boat8-dog3.png,boat8-dog3.png,0.0,-14.119626,0.957323,-10.661014
alexnet_w1_mlp_simclrhn_probe1,1,387,NaN,bicycle,boat,NaN,boat8-elephant1.png,boat8-elephant1.png,0.0,-5.5725255,-1.67732,-2.7543263
alexnet_w1_mlp_simclrhn_probe1,1,388,NaN,bicycle,boat,NaN,boat8-knife1.png,boat8-knife1.png,0.0,-5.643428,-2.9762344,-1.8859906
alexnet_w1_mlp_simclrhn_probe1,1,389,NaN,knife,boat,NaN,boat8-oven1.png,boat8-oven1.png,0.0,-3.0950065,-0.096178725,-2.1204915
alexnet_w1_mlp_simclrhn_probe1,1,390,NaN,car,boat,NaN,boat8-truck2.png,boat8-truck2.png,0.0,-1.1674078,2.2356513,-2.406326
alexnet_w1_mlp_simclrhn_probe1,1,391,NaN,airplane,boat,NaN,boat9-airplane2.png,boat9-airplane2.png,0.0,-2.0027413,-0.83213055,-0.82774687
alexnet_w1_mlp_simclrhn_probe1,1,392,NaN,elephant,boat,NaN,boat9-bear3.png,boat9-bear3.png,0.0,-12.321315,1.4241984,-9.719545
alexnet_w1_mlp_simclrhn_probe1,1,393,NaN,cat,boat,NaN,boat9-bird1.png,boat9-bird1.png,0.0,-3.6104074,-2.079681,-1.0823871
alexnet_w1_mlp_simclrhn_probe1,1,394,NaN,boat,boat,NaN,boat9-boat3.png,boat9-boat3.png,1.0,0.56492585,-1.9875996,1.8049082
alexnet_w1_mlp_simclrhn_probe1,1,395,NaN,cat,boat,NaN,boat9-cat3.png,boat9-cat3.png,0.0,-5.1253877,-0.7323678,-3.106334
alexnet_w1_mlp_simclrhn_probe1,1,396,NaN,boat,boat,NaN,boat9-chair2.png,boat9-chair2.png,1.0,-0.5378426,-2.3764145,1.3000667
alexnet_w1_mlp_simclrhn_probe1,1,397,NaN,bicycle,boat,NaN,boat9-clock1.png,boat9-clock1.png,0.0,-3.3471007,-1.4900792,-1.3131126
alexnet_w1_mlp_simclrhn_probe1,1,398,NaN,cat,boat,NaN,boat9-dog2.png,boat9-dog2.png,0.0,-7.3323984,-1.1515374,-4.3705287
alexnet_w1_mlp_simclrhn_probe1,1,399,NaN,airplane,boat,NaN,boat9-keyboard2.png,boat9-keyboard2.png,0.0,-1.5490803,1.1783824,-1.9286075
alexnet_w1_mlp_simclrhn_probe1,1,400,NaN,boat,boat,NaN,boat9-knife2.png,boat9-knife2.png,1.0,0.50489885,-1.2405529,1.2342207
alexnet_w1_mlp_simclrhn_probe1,1,401,NaN,cat,bottle,NaN,bottle1-bear1.png,bottle1-bear1.png,0.0,-4.8801637,-0.7028525,-2.953805
alexnet_w1_mlp_simclrhn_probe1,1,402,NaN,bottle,bottle,NaN,bottle1-bird3.png,bottle1-bird3.png,1.0,0.55497324,-4.5175877,3.5868423
alexnet_w1_mlp_simclrhn_probe1,1,403,NaN,bottle,bottle,NaN,bottle1-car1.png,bottle1-car1.png,1.0,-1.1409032,-4.323116,2.250164
alexnet_w1_mlp_simclrhn_probe1,1,404,NaN,cat,bottle,NaN,bottle1-cat3.png,bottle1-cat3.png,0.0,-2.4104962,-0.075731955,-1.6509277
alexnet_w1_mlp_simclrhn_probe1,1,405,NaN,bottle,bottle,NaN,bottle1-chair2.png,bottle1-chair2.png,1.0,-0.19036779,-1.7327411,1.0906227
alexnet_w1_mlp_simclrhn_probe1,1,406,NaN,bottle,bottle,NaN,bottle1-clock1.png,bottle1-clock1.png,1.0,0.15745905,-4.1206865,3.025106
alexnet_w1_mlp_simclrhn_probe1,1,407,NaN,cat,bottle,NaN,bottle1-dog2.png,bottle1-dog2.png,0.0,-4.609292,0.3666421,-3.5185168
alexnet_w1_mlp_simclrhn_probe1,1,408,NaN,bottle,bottle,NaN,bottle1-keyboard3.png,bottle1-keyboard3.png,1.0,-0.90570706,-1.9360242,0.7285442
alexnet_w1_mlp_simclrhn_probe1,1,409,NaN,elephant,bottle,NaN,bottle10-bear2.png,bottle10-bear2.png,0.0,-3.1108875,1.447048,-3.2229474
alexnet_w1_mlp_simclrhn_probe1,1,410,NaN,bottle,bottle,NaN,bottle10-boat3.png,bottle10-boat3.png,1.0,2.009752,-3.1639853,3.658385
alexnet_w1_mlp_simclrhn_probe1,1,411,NaN,bottle,bottle,NaN,bottle10-car1.png,bottle10-car1.png,1.0,-0.04914454,-1.9143456,1.3188964
alexnet_w1_mlp_simclrhn_probe1,1,412,NaN,bottle,bottle,NaN,bottle10-clock2.png,bottle10-clock2.png,1.0,2.9570282,-1.3450917,3.042058
alexnet_w1_mlp_simclrhn_probe1,1,413,NaN,cat,bottle,NaN,bottle10-dog1.png,bottle10-dog1.png,0.0,-5.2890267,-0.015617132,-3.728864
alexnet_w1_mlp_simclrhn_probe1,1,414,NaN,bottle,bottle,NaN,bottle10-truck3.png,bottle10-truck3.png,1.0,2.4779975,-1.2140892,2.6106997
alexnet_w1_mlp_simclrhn_probe1,1,415,NaN,bottle,bottle,NaN,bottle2-bottle3.png,bottle2-bottle3.png,1.0,-2.8516974,-7.030448,2.9548228
alexnet_w1_mlp_simclrhn_probe1,1,416,NaN,bicycle,bottle,NaN,bottle2-car2.png,bottle2-car2.png,0.0,-4.275268,-2.5723739,-1.204128
alexnet_w1_mlp_simclrhn_probe1,1,417,NaN,chair,bottle,NaN,bottle2-chair3.png,bottle2-chair3.png,0.0,-2.2422297,-1.3338631,-0.64231217
alexnet_w1_mlp_simclrhn_probe1,1,418,NaN,bicycle,bottle,NaN,bottle2-clock1.png,bottle2-clock1.png,0.0,-2.3243365,-1.903519,-0.2975629
alexnet_w1_mlp_simclrhn_probe1,1,419,NaN,elephant,bottle,NaN,bottle2-elephant1.png,bottle2-elephant1.png,0.0,-3.3739684,-2.6066952,-0.54254407
alexnet_w1_mlp_simclrhn_probe1,1,420,NaN,bottle,bottle,NaN,bottle2-knife3.png,bottle2-knife3.png,1.0,0.79759645,-2.3338702,2.2142813
alexnet_w1_mlp_simclrhn_probe1,1,421,NaN,bottle,bottle,NaN,bottle3-airplane2.png,bottle3-airplane2.png,1.0,-0.4083802,-3.2200525,1.9881525
alexnet_w1_mlp_simclrhn_probe1,1,422,NaN,elephant,bottle,NaN,bottle3-bear2.png,bottle3-bear2.png,0.0,-6.7035003,0.67608887,-5.218158
alexnet_w1_mlp_simclrhn_probe1,1,423,NaN,bicycle,bottle,NaN,bottle3-bicycle3.png,bottle3-bicycle3.png,0.0,-4.611422,-0.5173025,-2.8949797
alexnet_w1_mlp_simclrhn_probe1,1,424,NaN,cat,bottle,NaN,bottle3-bird1.png,bottle3-bird1.png,0.0,-2.8295026,-1.8723541,-0.67680615
alexnet_w1_mlp_simclrhn_probe1,1,425,NaN,bottle,bottle,NaN,bottle3-boat3.png,bottle3-boat3.png,1.0,0.46054196,-2.6770606,2.21862
alexnet_w1_mlp_simclrhn_probe1,1,426,NaN,bottle,bottle,NaN,bottle3-bottle3.png,bottle3-bottle3.png,1.0,-4.0558915,-7.513503,2.4449005
alexnet_w1_mlp_simclrhn_probe1,1,427,NaN,cat,bottle,NaN,bottle3-cat3.png,bottle3-cat3.png,0.0,-3.377154,0.24196605,-2.5591044
alexnet_w1_mlp_simclrhn_probe1,1,428,NaN,bottle,bottle,NaN,bottle3-chair3.png,bottle3-chair3.png,1.0,-2.1926978,-2.2542372,0.043514937
alexnet_w1_mlp_simclrhn_probe1,1,429,NaN,bottle,bottle,NaN,bottle3-knife3.png,bottle3-knife3.png,1.0,-0.89670694,-2.0769684,0.83457094
alexnet_w1_mlp_simclrhn_probe1,1,430,NaN,bottle,bottle,NaN,bottle4-airplane1.png,bottle4-airplane1.png,1.0,-2.881602,-3.1199245,0.16851945
alexnet_w1_mlp_simclrhn_probe1,1,431,NaN,bicycle,bottle,NaN,bottle4-bicycle1.png,bottle4-bicycle1.png,0.0,-5.8062263,-1.5382041,-3.0179474
alexnet_w1_mlp_simclrhn_probe1,1,432,NaN,bicycle,bottle,NaN,bottle4-car3.png,bottle4-car3.png,0.0,-4.2354045,-0.9255545,-2.3404174
alexnet_w1_mlp_simclrhn_probe1,1,433,NaN,cat,bottle,NaN,bottle4-dog2.png,bottle4-dog2.png,0.0,-3.865108,-0.7204234,-2.2236278
alexnet_w1_mlp_simclrhn_probe1,1,434,NaN,bottle,bottle,NaN,bottle4-oven2.png,bottle4-oven2.png,1.0,1.8623865,-0.017745942,1.3294544
alexnet_w1_mlp_simclrhn_probe1,1,435,NaN,bottle,bottle,NaN,bottle4-truck1.png,bottle4-truck1.png,1.0,-0.37114066,-1.3948565,0.72387636
alexnet_w1_mlp_simclrhn_probe1,1,436,NaN,bottle,bottle,NaN,bottle5-airplane1.png,bottle5-airplane1.png,1.0,-2.1810946,-2.803771,0.4402987
alexnet_w1_mlp_simclrhn_probe1,1,437,NaN,bottle,bottle,NaN,bottle5-bird3.png,bottle5-bird3.png,1.0,0.6282216,-6.348086,4.9329944
alexnet_w1_mlp_simclrhn_probe1,1,438,NaN,bottle,bottle,NaN,bottle5-boat1.png,bottle5-boat1.png,1.0,-2.3661625,-2.8123379,0.3154936
alexnet_w1_mlp_simclrhn_probe1,1,439,NaN,cat,bottle,NaN,bottle5-cat1.png,bottle5-cat1.png,0.0,-8.215654,1.0014826,-6.5175004
alexnet_w1_mlp_simclrhn_probe1,1,440,NaN,bottle,bottle,NaN,bottle5-chair1.png,bottle5-chair1.png,1.0,-0.5849835,-3.9566574,2.3841336
alexnet_w1_mlp_simclrhn_probe1,1,441,NaN,bottle,bottle,NaN,bottle5-clock3.png,bottle5-clock3.png,1.0,0.5826713,-2.4737024,2.1611826
alexnet_w1_mlp_simclrhn_probe1,1,442,NaN,elephant,bottle,NaN,bottle5-elephant1.png,bottle5-elephant1.png,0.0,-3.6463115,-3.2084692,-0.3096013
alexnet_w1_mlp_simclrhn_probe1,1,443,NaN,bottle,bottle,NaN,bottle5-keyboard2.png,bottle5-keyboard2.png,1.0,0.240645,-1.4308197,1.1819041
alexnet_w1_mlp_simclrhn_probe1,1,444,NaN,bottle,bottle,NaN,bottle5-knife1.png,bottle5-knife1.png,1.0,-1.4253572,-4.123195,1.9076594
alexnet_w1_mlp_simclrhn_probe1,1,445,NaN,bottle,bottle,NaN,bottle5-oven2.png,bottle5-oven2.png,1.0,1.43219,-0.26452464,1.1997584
alexnet_w1_mlp_simclrhn_probe1,1,446,NaN,bottle,bottle,NaN,bottle5-truck1.png,bottle5-truck1.png,1.0,0.6554049,-1.0744064,1.2231613
alexnet_w1_mlp_simclrhn_probe1,1,447,NaN,bottle,bottle,NaN,bottle6-airplane1.png,bottle6-airplane1.png,1.0,-0.14790761,-2.7692204,1.8535479
alexnet_w1_mlp_simclrhn_probe1,1,448,NaN,elephant,bottle,NaN,bottle6-bear2.png,bottle6-bear2.png,0.0,-6.538079,1.0968413,-5.398704
alexnet_w1_mlp_simclrhn_probe1,1,449,NaN,bottle,bottle,NaN,bottle6-bicycle3.png,bottle6-bicycle3.png,1.0,-1.2833775,-3.9040043,1.8530631
alexnet_w1_mlp_simclrhn_probe1,1,450,NaN,cat,bottle,NaN,bottle6-bird1.png,bottle6-bird1.png,0.0,-2.7882025,-1.4996022,-0.91117805
alexnet_w1_mlp_simclrhn_probe1,1,451,NaN,bottle,bottle,NaN,bottle6-boat3.png,bottle6-boat3.png,1.0,3.1950188,-1.118794,3.0503263
alexnet_w1_mlp_simclrhn_probe1,1,452,NaN,bottle,bottle,NaN,bottle6-bottle3.png,bottle6-bottle3.png,1.0,-1.8457377,-6.964703,3.6196551
alexnet_w1_mlp_simclrhn_probe1,1,453,NaN,bottle,bottle,NaN,bottle6-chair2.png,bottle6-chair2.png,1.0,0.5921512,-1.865298,1.737679
alexnet_w1_mlp_simclrhn_probe1,1,454,NaN,cat,bottle,NaN,bottle6-dog3.png,bottle6-dog3.png,0.0,-7.5035596,0.70017594,-5.800917
alexnet_w1_mlp_simclrhn_probe1,1,455,NaN,bottle,bottle,NaN,bottle6-knife3.png,bottle6-knife3.png,1.0,-0.95981014,-2.4127927,1.0274138
alexnet_w1_mlp_simclrhn_probe1,1,456,NaN,bottle,bottle,NaN,bottle6-oven3.png,bottle6-oven3.png,1.0,0.046545293,-1.168605,0.859241
alexnet_w1_mlp_simclrhn_probe1,1,457,NaN,knife,bottle,NaN,bottle7-airplane3.png,bottle7-airplane3.png,0.0,-1.930579,-1.3832862,-0.3869944
alexnet_w1_mlp_simclrhn_probe1,1,458,NaN,bear,bottle,NaN,bottle7-bear1.png,bottle7-bear1.png,0.0,-7.453168,-0.6362669,-4.820277
alexnet_w1_mlp_simclrhn_probe1,1,459,NaN,bottle,bottle,NaN,bottle7-boat3.png,bottle7-boat3.png,1.0,-2.1293094,-3.1609612,0.72948796
alexnet_w1_mlp_simclrhn_probe1,1,460,NaN,cat,bottle,NaN,bottle7-cat2.png,bottle7-cat2.png,0.0,-5.3543057,-0.720088,-3.276887
alexnet_w1_mlp_simclrhn_probe1,1,461,NaN,bottle,bottle,NaN,bottle7-clock1.png,bottle7-clock1.png,1.0,-1.9904505,-4.7601137,1.9584478
alexnet_w1_mlp_simclrhn_probe1,1,462,NaN,elephant,bottle,NaN,bottle7-elephant2.png,bottle7-elephant2.png,0.0,-6.3294077,0.87682354,-5.095575
alexnet_w1_mlp_simclrhn_probe1,1,463,NaN,bottle,bottle,NaN,bottle7-keyboard2.png,bottle7-keyboard2.png,1.0,-0.89068985,-1.8520129,0.679758
alexnet_w1_mlp_simclrhn_probe1,1,464,NaN,bottle,bottle,NaN,bottle7-oven2.png,bottle7-oven2.png,1.0,0.54406774,-0.5209601,0.7530884
alexnet_w1_mlp_simclrhn_probe1,1,465,NaN,chair,bottle,NaN,bottle7-truck2.png,bottle7-truck2.png,0.0,-1.8577157,-0.81404865,-0.73798406
alexnet_w1_mlp_simclrhn_probe1,1,466,NaN,bottle,bottle,NaN,bottle8-bicycle1.png,bottle8-bicycle1.png,1.0,-3.2841284,-3.4336028,0.10569435
alexnet_w1_mlp_simclrhn_probe1,1,467,NaN,cat,bottle,NaN,bottle8-bird1.png,bottle8-bird1.png,0.0,-3.0797029,-1.7712656,-0.9252049
alexnet_w1_mlp_simclrhn_probe1,1,468,NaN,bottle,bottle,NaN,bottle8-bottle3.png,bottle8-bottle3.png,1.0,0.55160576,-6.255017,4.813009
alexnet_w1_mlp_simclrhn_probe1,1,469,NaN,cat,bottle,NaN,bottle8-dog2.png,bottle8-dog2.png,0.0,-2.5800483,-0.28182516,-1.6250893
alexnet_w1_mlp_simclrhn_probe1,1,470,NaN,bottle,bottle,NaN,bottle8-elephant3.png,bottle8-elephant3.png,1.0,-2.9753385,-3.9492128,0.68863314
alexnet_w1_mlp_simclrhn_probe1,1,471,NaN,bottle,bottle,NaN,bottle8-keyboard3.png,bottle8-keyboard3.png,1.0,-0.62740344,-2.5634234,1.3689728
alexnet_w1_mlp_simclrhn_probe1,1,472,NaN,bottle,bottle,NaN,bottle8-knife1.png,bottle8-knife1.png,1.0,-0.95416635,-3.8676581,2.06015
alexnet_w1_mlp_simclrhn_probe1,1,473,NaN,bottle,bottle,NaN,bottle9-bicycle1.png,bottle9-bicycle1.png,1.0,-4.0327144,-6.391137,1.6676568
alexnet_w1_mlp_simclrhn_probe1,1,474,NaN,bottle,bottle,NaN,bottle9-bottle1.png,bottle9-bottle1.png,1.0,-2.1162496,-2.7563095,0.45259073
alexnet_w1_mlp_simclrhn_probe1,1,475,NaN,bottle,bottle,NaN,bottle9-car3.png,bottle9-car3.png,1.0,-0.7434638,-3.0041666,1.5985583
alexnet_w1_mlp_simclrhn_probe1,1,476,NaN,cat,bottle,NaN,bottle9-cat2.png,bottle9-cat2.png,0.0,-4.0945964,-0.73503536,-2.3755684
alexnet_w1_mlp_simclrhn_probe1,1,477,NaN,bottle,bottle,NaN,bottle9-elephant2.png,bottle9-elephant2.png,1.0,-3.0637984,-3.3948135,0.23406303
alexnet_w1_mlp_simclrhn_probe1,1,478,NaN,bottle,bottle,NaN,bottle9-keyboard1.png,bottle9-keyboard1.png,1.0,-0.50815856,-2.8114111,1.6286457
alexnet_w1_mlp_simclrhn_probe1,1,479,NaN,bottle,bottle,NaN,bottle9-oven2.png,bottle9-oven2.png,1.0,0.48231676,-0.22322705,0.4988948
alexnet_w1_mlp_simclrhn_probe1,1,480,NaN,bottle,bottle,NaN,bottle9-truck1.png,bottle9-truck1.png,1.0,0.111252435,-1.841001,1.3804517
alexnet_w1_mlp_simclrhn_probe1,1,481,NaN,car,car,NaN,car1-airplane1.png,car1-airplane1.png,1.0,1.6753219,1.2718468,0.28530002
alexnet_w1_mlp_simclrhn_probe1,1,482,NaN,car,car,NaN,car1-car2.png,car1-car2.png,1.0,0.11231387,-0.2147196,0.23124757
alexnet_w1_mlp_simclrhn_probe1,1,483,NaN,airplane,car,NaN,car1-chair3.png,car1-chair3.png,0.0,-0.1964097,3.559752,-2.6560075
alexnet_w1_mlp_simclrhn_probe1,1,484,NaN,car,car,NaN,car1-clock2.png,car1-clock2.png,1.0,3.3555553,-0.66171896,2.840642
alexnet_w1_mlp_simclrhn_probe1,1,485,NaN,cat,car,NaN,car1-dog2.png,car1-dog2.png,0.0,-7.9515114,-0.82035047,-5.0424924
alexnet_w1_mlp_simclrhn_probe1,1,486,NaN,keyboard,car,NaN,car1-keyboard2.png,car1-keyboard2.png,0.0,0.08884573,0.80922794,-0.50938714
alexnet_w1_mlp_simclrhn_probe1,1,487,NaN,oven,car,NaN,car1-oven3.png,car1-oven3.png,0.0,-3.2195961,-0.110463046,-2.198489
alexnet_w1_mlp_simclrhn_probe1,1,488,NaN,bicycle,car,NaN,car10-bicycle2.png,car10-bicycle2.png,0.0,-4.1130853,0.49635273,-3.2593648
alexnet_w1_mlp_simclrhn_probe1,1,489,NaN,bicycle,car,NaN,car10-bottle3.png,car10-bottle3.png,0.0,-3.2454531,-1.199241,-1.4468906
alexnet_w1_mlp_simclrhn_probe1,1,490,NaN,car,car,NaN,car10-car1.png,car10-car1.png,1.0,4.45532,0.97063106,2.4640472
alexnet_w1_mlp_simclrhn_probe1,1,491,NaN,airplane,car,NaN,car10-chair1.png,car10-chair1.png,0.0,4.206254,5.196192,-0.6999917
alexnet_w1_mlp_simclrhn_probe1,1,492,NaN,cat,car,NaN,car10-dog1.png,car10-dog1.png,0.0,-12.024539,-1.0381409,-7.7685566
alexnet_w1_mlp_simclrhn_probe1,1,493,NaN,cat,car,NaN,car10-elephant2.png,car10-elephant2.png,0.0,-10.483796,-1.3104359,-6.486545
alexnet_w1_mlp_simclrhn_probe1,1,494,NaN,airplane,car,NaN,car10-keyboard2.png,car10-keyboard2.png,0.0,-0.7154172,1.6807313,-1.6943328
alexnet_w1_mlp_simclrhn_probe1,1,495,NaN,elephant,car,NaN,car2-bird3.png,car2-bird3.png,0.0,-3.499998,-3.4035525,-0.06819731
alexnet_w1_mlp_simclrhn_probe1,1,496,NaN,car,car,NaN,car2-car3.png,car2-car3.png,1.0,4.318265,1.7202744,1.8370568
alexnet_w1_mlp_simclrhn_probe1,1,497,NaN,cat,car,NaN,car2-cat3.png,car2-cat3.png,0.0,-7.650847,-0.37007686,-5.148282
alexnet_w1_mlp_simclrhn_probe1,1,498,NaN,car,car,NaN,car2-chair1.png,car2-chair1.png,1.0,4.4541903,0.58593684,2.7352684
alexnet_w1_mlp_simclrhn_probe1,1,499,NaN,knife,car,NaN,car2-knife3.png,car2-knife3.png,0.0,-3.959458,-1.4330399,-1.7864475
alexnet_w1_mlp_simclrhn_probe1,1,500,NaN,car,car,NaN,car3-airplane3.png,car3-airplane3.png,1.0,7.2324944,3.4831874,2.6511605
alexnet_w1_mlp_simclrhn_probe1,1,501,NaN,bicycle,car,NaN,car3-bird2.png,car3-bird2.png,0.0,-6.119077,-1.8367331,-3.0280745
alexnet_w1_mlp_simclrhn_probe1,1,502,NaN,car,car,NaN,car3-boat1.png,car3-boat1.png,1.0,4.123403,1.8227862,1.6267817
alexnet_w1_mlp_simclrhn_probe1,1,503,NaN,bicycle,car,NaN,car3-bottle3.png,car3-bottle3.png,0.0,-10.586247,-5.1581583,-3.8382387
alexnet_w1_mlp_simclrhn_probe1,1,504,NaN,cat,car,NaN,car3-dog2.png,car3-dog2.png,0.0,-7.3219924,-0.58038586,-4.767036
alexnet_w1_mlp_simclrhn_probe1,1,505,NaN,elephant,car,NaN,car3-elephant3.png,car3-elephant3.png,0.0,-7.5727115,-3.0261836,-3.2148807
alexnet_w1_mlp_simclrhn_probe1,1,506,NaN,truck,car,NaN,car3-oven3.png,car3-oven3.png,0.0,-0.5215568,0.12780342,-0.459167
alexnet_w1_mlp_simclrhn_probe1,1,507,NaN,car,car,NaN,car3-truck1.png,car3-truck1.png,1.0,5.7890472,0.21027586,3.9447873
alexnet_w1_mlp_simclrhn_probe1,1,508,NaN,cat,car,NaN,car4-bear3.png,car4-bear3.png,0.0,-15.355728,-2.5526268,-9.05316
alexnet_w1_mlp_simclrhn_probe1,1,509,NaN,bicycle,car,NaN,car4-bicycle3.png,car4-bicycle3.png,0.0,-7.2999268,0.58777374,-5.5774465
alexnet_w1_mlp_simclrhn_probe1,1,510,NaN,bird,car,NaN,car4-bird1.png,car4-bird1.png,0.0,-6.455316,-2.4851677,-2.807319
alexnet_w1_mlp_simclrhn_probe1,1,511,NaN,car,car,NaN,car4-boat1.png,car4-boat1.png,1.0,1.2168334,-1.233794,1.7328552
alexnet_w1_mlp_simclrhn_probe1,1,512,NaN,bottle,car,NaN,car4-bottle1.png,car4-bottle1.png,0.0,-12.50986,-3.723489,-6.212903
alexnet_w1_mlp_simclrhn_probe1,1,513,NaN,car,car,NaN,car4-car2.png,car4-car2.png,1.0,2.8819516,-0.2033323,2.1816251
alexnet_w1_mlp_simclrhn_probe1,1,514,NaN,cat,car,NaN,car4-cat3.png,car4-cat3.png,0.0,-10.892764,-1.1083912,-6.9185967
alexnet_w1_mlp_simclrhn_probe1,1,515,NaN,bicycle,car,NaN,car4-clock1.png,car4-clock1.png,0.0,-2.4503376,-2.0224547,-0.3025589
alexnet_w1_mlp_simclrhn_probe1,1,516,NaN,knife,car,NaN,car4-elephant3.png,car4-elephant3.png,0.0,-7.666752,-3.5450299,-2.9144979
alexnet_w1_mlp_simclrhn_probe1,1,517,NaN,truck,car,NaN,car4-oven2.png,car4-oven2.png,0.0,-0.35941625,0.3211612,-0.48124096
alexnet_w1_mlp_simclrhn_probe1,1,518,NaN,car,car,NaN,car5-airplane3.png,car5-airplane3.png,1.0,5.528255,2.6874557,2.0087485
alexnet_w1_mlp_simclrhn_probe1,1,519,NaN,cat,car,NaN,car5-bear3.png,car5-bear3.png,0.0,-15.03025,-1.4505277,-9.602313
alexnet_w1_mlp_simclrhn_probe1,1,520,NaN,bottle,car,NaN,car5-bottle1.png,car5-bottle1.png,0.0,-11.26619,-2.4055774,-6.265399
alexnet_w1_mlp_simclrhn_probe1,1,521,NaN,cat,car,NaN,car5-cat1.png,car5-cat1.png,0.0,-12.493756,-0.015391071,-8.823537
alexnet_w1_mlp_simclrhn_probe1,1,522,NaN,car,car,NaN,car5-keyboard3.png,car5-keyboard3.png,1.0,-0.25013712,-0.6797742,0.3037993
alexnet_w1_mlp_simclrhn_probe1,1,523,NaN,truck,car,NaN,car5-knife2.png,car5-knife2.png,0.0,3.183164,3.3288455,-0.103012465
alexnet_w1_mlp_simclrhn_probe1,1,524,NaN,truck,car,NaN,car5-oven2.png,car5-oven2.png,0.0,1.6417149,2.8028593,-0.8210531
alexnet_w1_mlp_simclrhn_probe1,1,525,NaN,car,car,NaN,car5-truck3.png,car5-truck3.png,1.0,3.2957966,1.8707051,1.0076919
alexnet_w1_mlp_simclrhn_probe1,1,526,NaN,elephant,car,NaN,car6-bear1.png,car6-bear1.png,0.0,-12.476115,-0.44588286,-8.5066595
alexnet_w1_mlp_simclrhn_probe1,1,527,NaN,bicycle,car,NaN,car6-bicycle3.png,car6-bicycle3.png,0.0,-5.003798,1.9341625,-4.905879
alexnet_w1_mlp_simclrhn_probe1,1,528,NaN,bicycle,car,NaN,car6-boat1.png,car6-boat1.png,0.0,1.2324103,3.1692672,-1.3695647
alexnet_w1_mlp_simclrhn_probe1,1,529,NaN,bicycle,car,NaN,car6-bottle1.png,car6-bottle1.png,0.0,-9.657992,-0.9588908,-6.1511936
alexnet_w1_mlp_simclrhn_probe1,1,530,NaN,airplane,car,NaN,car6-chair3.png,car6-chair3.png,0.0,0.38817248,3.7077577,-2.3473012
alexnet_w1_mlp_simclrhn_probe1,1,531,NaN,elephant,car,NaN,car6-elephant3.png,car6-elephant3.png,0.0,-7.177389,-2.0721803,-3.609928
alexnet_w1_mlp_simclrhn_probe1,1,532,NaN,car,car,NaN,car6-knife1.png,car6-knife1.png,1.0,2.4054368,-0.87847537,2.3220766
alexnet_w1_mlp_simclrhn_probe1,1,533,NaN,car,car,NaN,car6-truck3.png,car6-truck3.png,1.0,2.3064697,0.54178345,1.2478216
alexnet_w1_mlp_simclrhn_probe1,1,534,NaN,car,car,NaN,car7-airplane2.png,car7-airplane2.png,1.0,1.7903482,-1.3518188,2.2218478
alexnet_w1_mlp_simclrhn_probe1,1,535,NaN,cat,car,NaN,car7-bear1.png,car7-bear1.png,0.0,-14.237805,-0.6962351,-9.575336
alexnet_w1_mlp_simclrhn_probe1,1,536,NaN,car,car,NaN,car7-bird3.png,car7-bird3.png,1.0,-1.2461107,-2.9194434,1.1832249
alexnet_w1_mlp_simclrhn_probe1,1,537,NaN,boat,car,NaN,car7-boat3.png,car7-boat3.png,0.0,2.0408344,2.4820495,-0.31198615
alexnet_w1_mlp_simclrhn_probe1,1,538,NaN,bicycle,car,NaN,car7-car1.png,car7-car1.png,0.0,-1.4741459,0.009820521,-1.0493227
alexnet_w1_mlp_simclrhn_probe1,1,539,NaN,bicycle,car,NaN,car7-clock1.png,car7-clock1.png,0.0,-1.800512,-0.5254757,-0.90158683
alexnet_w1_mlp_simclrhn_probe1,1,540,NaN,cat,car,NaN,car7-dog3.png,car7-dog3.png,0.0,-10.704602,-1.0113069,-6.854195
alexnet_w1_mlp_simclrhn_probe1,1,541,NaN,elephant,car,NaN,car7-elephant3.png,car7-elephant3.png,0.0,-8.324363,-2.2709522,-4.280408
alexnet_w1_mlp_simclrhn_probe1,1,542,NaN,car,car,NaN,car7-keyboard3.png,car7-keyboard3.png,1.0,0.110664986,-0.23374279,0.24353307
alexnet_w1_mlp_simclrhn_probe1,1,543,NaN,truck,car,NaN,car7-oven2.png,car7-oven2.png,0.0,-0.09941822,0.5812271,-0.48128894
alexnet_w1_mlp_simclrhn_probe1,1,544,NaN,car,car,NaN,car8-airplane3.png,car8-airplane3.png,1.0,2.1493366,-0.48426643,1.8622386
alexnet_w1_mlp_simclrhn_probe1,1,545,NaN,cat,car,NaN,car8-bear1.png,car8-bear1.png,0.0,-13.424443,-1.0163273,-8.773864
alexnet_w1_mlp_simclrhn_probe1,1,546,NaN,bicycle,car,NaN,car8-bicycle2.png,car8-bicycle2.png,0.0,-5.4463487,2.2853317,-5.4671235
alexnet_w1_mlp_simclrhn_probe1,1,547,NaN,car,car,NaN,car8-boat3.png,car8-boat3.png,1.0,2.2123501,1.3940837,0.5786017
alexnet_w1_mlp_simclrhn_probe1,1,548,NaN,cat,car,NaN,car8-cat1.png,car8-cat1.png,0.0,-10.429765,0.7834831,-7.928964
alexnet_w1_mlp_simclrhn_probe1,1,549,NaN,car,car,NaN,car8-chair1.png,car8-chair1.png,1.0,3.2906086,-1.4366752,3.3426945
alexnet_w1_mlp_simclrhn_probe1,1,550,NaN,car,car,NaN,car8-clock2.png,car8-clock2.png,1.0,3.0198243,0.7308923,1.6185193
alexnet_w1_mlp_simclrhn_probe1,1,551,NaN,cat,car,NaN,car8-dog1.png,car8-dog1.png,0.0,-11.815257,-1.7040609,-7.149696
alexnet_w1_mlp_simclrhn_probe1,1,552,NaN,airplane,car,NaN,car8-knife2.png,car8-knife2.png,0.0,-2.6261747,-1.8402644,-0.5557225
alexnet_w1_mlp_simclrhn_probe1,1,553,NaN,car,car,NaN,car8-truck3.png,car8-truck3.png,1.0,2.400058,0.588863,1.2807083
alexnet_w1_mlp_simclrhn_probe1,1,554,NaN,bicycle,car,NaN,car9-bicycle2.png,car9-bicycle2.png,0.0,-2.7567978,2.5374098,-3.74357
alexnet_w1_mlp_simclrhn_probe1,1,555,NaN,knife,car,NaN,car9-bird1.png,car9-bird1.png,0.0,-4.7432575,-1.8431127,-2.050712
alexnet_w1_mlp_simclrhn_probe1,1,556,NaN,cat,car,NaN,car9-cat1.png,car9-cat1.png,0.0,-11.355826,-0.31111565,-7.80979
alexnet_w1_mlp_simclrhn_probe1,1,557,NaN,car,car,NaN,car9-clock2.png,car9-clock2.png,1.0,7.621784,3.384252,2.9963877
alexnet_w1_mlp_simclrhn_probe1,1,558,NaN,car,car,NaN,car9-keyboard2.png,car9-keyboard2.png,1.0,-1.272305,-1.8307598,0.39488715
alexnet_w1_mlp_simclrhn_probe1,1,559,NaN,car,car,NaN,car9-knife1.png,car9-knife1.png,1.0,0.10986099,-1.1529803,0.8929637
alexnet_w1_mlp_simclrhn_probe1,1,560,NaN,car,car,NaN,car9-truck3.png,car9-truck3.png,1.0,3.1871338,2.051585,0.8029543
alexnet_w1_mlp_simclrhn_probe1,1,561,NaN,chair,cat,NaN,cat1-airplane1.png,cat1-airplane1.png,0.0,-6.3615947,-2.0580616,-3.0430574
alexnet_w1_mlp_simclrhn_probe1,1,562,NaN,cat,cat,NaN,cat1-bird1.png,cat1-bird1.png,1.0,-0.34551477,-2.4878745,1.5148771
alexnet_w1_mlp_simclrhn_probe1,1,563,NaN,chair,cat,NaN,cat1-boat1.png,cat1-boat1.png,0.0,-8.065494,-1.17913,-4.8693943
alexnet_w1_mlp_simclrhn_probe1,1,564,NaN,bicycle,cat,NaN,cat1-car2.png,cat1-car2.png,0.0,-7.5945582,-0.65337574,-4.9081573
alexnet_w1_mlp_simclrhn_probe1,1,565,NaN,cat,cat,NaN,cat1-cat3.png,cat1-cat3.png,1.0,4.5246916,-1.9290978,4.563518
alexnet_w1_mlp_simclrhn_probe1,1,566,NaN,chair,cat,NaN,cat1-chair2.png,cat1-chair2.png,0.0,-7.1046205,-0.1581828,-4.9118733
alexnet_w1_mlp_simclrhn_probe1,1,567,NaN,cat,cat,NaN,cat1-dog1.png,cat1-dog1.png,1.0,4.1443477,-2.4186912,4.6407695
alexnet_w1_mlp_simclrhn_probe1,1,568,NaN,knife,cat,NaN,cat1-keyboard3.png,cat1-keyboard3.png,0.0,-6.349975,-0.8678689,-3.8764346
alexnet_w1_mlp_simclrhn_probe1,1,569,NaN,knife,cat,NaN,cat1-oven1.png,cat1-oven1.png,0.0,-5.5337005,-0.12124899,-3.827181
alexnet_w1_mlp_simclrhn_probe1,1,570,NaN,knife,cat,NaN,cat10-airplane3.png,cat10-airplane3.png,0.0,-6.5766206,-1.843648,-3.3467171
alexnet_w1_mlp_simclrhn_probe1,1,571,NaN,cat,cat,NaN,cat10-bear1.png,cat10-bear1.png,1.0,1.8327886,-0.8918911,1.9266396
alexnet_w1_mlp_simclrhn_probe1,1,572,NaN,bird,cat,NaN,cat10-bicycle1.png,cat10-bicycle1.png,0.0,-5.647764,-3.7846813,-1.3173985
alexnet_w1_mlp_simclrhn_probe1,1,573,NaN,cat,cat,NaN,cat10-bird2.png,cat10-bird2.png,1.0,0.4729475,-3.2154627,2.6081
alexnet_w1_mlp_simclrhn_probe1,1,574,NaN,knife,cat,NaN,cat10-bottle1.png,cat10-bottle1.png,0.0,-9.215869,-4.1952105,-3.5501418
alexnet_w1_mlp_simclrhn_probe1,1,575,NaN,knife,cat,NaN,cat10-clock1.png,cat10-clock1.png,0.0,-4.3245606,-3.7336764,-0.41781825
alexnet_w1_mlp_simclrhn_probe1,1,576,NaN,cat,cat,NaN,cat10-elephant3.png,cat10-elephant3.png,1.0,-2.9862096,-3.3630219,0.26644647
alexnet_w1_mlp_simclrhn_probe1,1,577,NaN,oven,cat,NaN,cat10-keyboard1.png,cat10-keyboard1.png,0.0,-5.882378,-2.512682,-2.382735
alexnet_w1_mlp_simclrhn_probe1,1,578,NaN,chair,cat,NaN,cat10-oven2.png,cat10-oven2.png,0.0,-6.1006,-0.024525058,-4.2964334
alexnet_w1_mlp_simclrhn_probe1,1,579,NaN,bicycle,cat,NaN,cat2-boat2.png,cat2-boat2.png,0.0,-7.44632,-0.82973117,-4.678635
alexnet_w1_mlp_simclrhn_probe1,1,580,NaN,cat,cat,NaN,cat2-bottle3.png,cat2-bottle3.png,1.0,-6.122577,-7.266605,0.80894977
alexnet_w1_mlp_simclrhn_probe1,1,581,NaN,cat,cat,NaN,cat2-car3.png,cat2-car3.png,1.0,-5.039957,-5.5335226,0.34900355
alexnet_w1_mlp_simclrhn_probe1,1,582,NaN,cat,cat,NaN,cat2-cat1.png,cat2-cat1.png,1.0,2.3134456,-1.4974552,2.6947138
alexnet_w1_mlp_simclrhn_probe1,1,583,NaN,cat,cat,NaN,cat2-elephant1.png,cat2-elephant1.png,1.0,-2.7658045,-3.1049905,0.23984069
alexnet_w1_mlp_simclrhn_probe1,1,584,NaN,knife,cat,NaN,cat2-knife3.png,cat2-knife3.png,0.0,-6.0886803,-1.9563208,-2.9220195
alexnet_w1_mlp_simclrhn_probe1,1,585,NaN,bottle,cat,NaN,cat2-truck3.png,cat2-truck3.png,0.0,-10.126282,-2.0957756,-5.6784253
alexnet_w1_mlp_simclrhn_probe1,1,586,NaN,cat,cat,NaN,cat3-bear2.png,cat3-bear2.png,1.0,2.9050753,2.1788704,0.5135044
alexnet_w1_mlp_simclrhn_probe1,1,587,NaN,cat,cat,NaN,cat3-bicycle1.png,cat3-bicycle1.png,1.0,-4.89987,-5.5500712,0.45976177
alexnet_w1_mlp_simclrhn_probe1,1,588,NaN,cat,cat,NaN,cat3-cat1.png,cat3-cat1.png,1.0,6.1780305,-0.41186696,4.6597614
alexnet_w1_mlp_simclrhn_probe1,1,589,NaN,cat,cat,NaN,cat3-elephant2.png,cat3-elephant2.png,1.0,-1.0349145,-2.4977982,1.034415
alexnet_w1_mlp_simclrhn_probe1,1,590,NaN,oven,cat,NaN,cat3-oven2.png,cat3-oven2.png,0.0,-6.5085044,0.28620657,-4.8045864
alexnet_w1_mlp_simclrhn_probe1,1,591,NaN,truck,cat,NaN,cat3-truck3.png,cat3-truck3.png,0.0,-10.130223,-1.811918,-5.88193
alexnet_w1_mlp_simclrhn_probe1,1,592,NaN,knife,cat,NaN,cat4-airplane1.png,cat4-airplane1.png,0.0,-6.2340684,-3.1573272,-2.1755846
alexnet_w1_mlp_simclrhn_probe1,1,593,NaN,cat,cat,NaN,cat4-bird2.png,cat4-bird2.png,1.0,-2.317758,-4.9320455,1.8485804
alexnet_w1_mlp_simclrhn_probe1,1,594,NaN,bicycle,cat,NaN,cat4-car2.png,cat4-car2.png,0.0,-8.371661,-4.223052,-2.9335098
alexnet_w1_mlp_simclrhn_probe1,1,595,NaN,cat,cat,NaN,cat4-cat3.png,cat4-cat3.png,1.0,0.55787003,-1.9628729,1.7824345
alexnet_w1_mlp_simclrhn_probe1,1,596,NaN,chair,cat,NaN,cat4-chair2.png,cat4-chair2.png,0.0,-9.807649,-1.9276036,-5.5720334
alexnet_w1_mlp_simclrhn_probe1,1,597,NaN,bottle,cat,NaN,cat4-clock2.png,cat4-clock2.png,0.0,-7.315127,-1.8992494,-3.8296037
alexnet_w1_mlp_simclrhn_probe1,1,598,NaN,cat,cat,NaN,cat4-dog3.png,cat4-dog3.png,1.0,1.6947203,-0.523452,1.5684847
alexnet_w1_mlp_simclrhn_probe1,1,599,NaN,clock,cat,NaN,cat4-keyboard2.png,cat4-keyboard2.png,0.0,-4.699412,-0.11542896,-3.2413654
alexnet_w1_mlp_simclrhn_probe1,1,600,NaN,bicycle,cat,NaN,cat4-knife1.png,cat4-knife1.png,0.0,-6.765466,-1.8622615,-3.4670894
alexnet_w1_mlp_simclrhn_probe1,1,601,NaN,knife,cat,NaN,cat4-oven1.png,cat4-oven1.png,0.0,-5.492991,0.5135708,-4.2472806
alexnet_w1_mlp_simclrhn_probe1,1,602,NaN,bottle,cat,NaN,cat4-truck3.png,cat4-truck3.png,0.0,-9.416915,-1.1191695,-5.8673925
alexnet_w1_mlp_simclrhn_probe1,1,603,NaN,chair,cat,NaN,cat5-airplane2.png,cat5-airplane2.png,0.0,-8.045924,-0.84753,-5.0900335
alexnet_w1_mlp_simclrhn_probe1,1,604,NaN,cat,cat,NaN,cat5-bear2.png,cat5-bear2.png,1.0,2.3550074,0.17989215,1.5380388
alexnet_w1_mlp_simclrhn_probe1,1,605,NaN,cat,cat,NaN,cat5-bicycle3.png,cat5-bicycle3.png,1.0,-1.1395175,-5.491804,3.0775313
alexnet_w1_mlp_simclrhn_probe1,1,606,NaN,chair,cat,NaN,cat5-boat1.png,cat5-boat1.png,0.0,-9.235059,-1.488652,-5.4775367
alexnet_w1_mlp_simclrhn_probe1,1,607,NaN,bicycle,cat,NaN,cat5-bottle1.png,cat5-bottle1.png,0.0,-7.610527,-2.4352832,-3.65945
alexnet_w1_mlp_simclrhn_probe1,1,608,NaN,bicycle,cat,NaN,cat5-car2.png,cat5-car2.png,0.0,-6.1142445,-2.4584374,-2.585046
alexnet_w1_mlp_simclrhn_probe1,1,609,NaN,chair,cat,NaN,cat5-chair3.png,cat5-chair3.png,0.0,-7.245651,-0.73074037,-4.606737
alexnet_w1_mlp_simclrhn_probe1,1,610,NaN,cat,cat,NaN,cat5-dog3.png,cat5-dog3.png,1.0,4.6145363,-1.0178964,3.9827316
alexnet_w1_mlp_simclrhn_probe1,1,611,NaN,cat,cat,NaN,cat5-elephant2.png,cat5-elephant2.png,1.0,-0.013975699,-1.2860398,0.8994852
alexnet_w1_mlp_simclrhn_probe1,1,612,NaN,airplane,cat,NaN,cat5-keyboard3.png,cat5-keyboard3.png,0.0,-5.1866827,-0.51984537,-3.2999523
alexnet_w1_mlp_simclrhn_probe1,1,613,NaN,knife,cat,NaN,cat5-knife2.png,cat5-knife2.png,0.0,-5.6236405,0.034895062,-4.0011888
alexnet_w1_mlp_simclrhn_probe1,1,614,NaN,cat,cat,NaN,cat6-bear1.png,cat6-bear1.png,1.0,2.691899,-1.1309838,2.7031865
alexnet_w1_mlp_simclrhn_probe1,1,615,NaN,airplane,cat,NaN,cat6-chair3.png,cat6-chair3.png,0.0,-8.701453,-0.6746742,-5.6757903
alexnet_w1_mlp_simclrhn_probe1,1,616,NaN,bottle,cat,NaN,cat6-clock3.png,cat6-clock3.png,0.0,-4.7491736,-2.7596378,-1.4068143
alexnet_w1_mlp_simclrhn_probe1,1,617,NaN,knife,cat,NaN,cat6-keyboard3.png,cat6-keyboard3.png,0.0,-4.5335264,-0.3124345,-2.9847627
alexnet_w1_mlp_simclrhn_probe1,1,618,NaN,knife,cat,NaN,cat6-oven1.png,cat6-oven1.png,0.0,-5.755871,0.33952373,-4.310095
alexnet_w1_mlp_simclrhn_probe1,1,619,NaN,knife,cat,NaN,cat7-airplane2.png,cat7-airplane2.png,0.0,-7.9317927,-1.8623067,-4.2917747
alexnet_w1_mlp_simclrhn_probe1,1,620,NaN,oven,cat,NaN,cat7-boat3.png,cat7-boat3.png,0.0,-7.1867814,-1.6048917,-3.9469922
alexnet_w1_mlp_simclrhn_probe1,1,621,NaN,bicycle,cat,NaN,cat7-bottle1.png,cat7-bottle1.png,0.0,-7.6799645,-3.8011599,-2.7427292
alexnet_w1_mlp_simclrhn_probe1,1,622,NaN,knife,cat,NaN,cat7-clock3.png,cat7-clock3.png,0.0,-5.2644506,-2.771165,-1.7630192
alexnet_w1_mlp_simclrhn_probe1,1,623,NaN,cat,cat,NaN,cat7-dog3.png,cat7-dog3.png,1.0,1.2122252,0.3675795,0.59725475
alexnet_w1_mlp_simclrhn_probe1,1,624,NaN,cat,cat,NaN,cat7-elephant1.png,cat7-elephant1.png,1.0,-2.9814417,-3.1468081,0.116931714
alexnet_w1_mlp_simclrhn_probe1,1,625,NaN,knife,cat,NaN,cat7-knife2.png,cat7-knife2.png,0.0,-7.054447,-0.46176007,-4.6617336
alexnet_w1_mlp_simclrhn_probe1,1,626,NaN,chair,cat,NaN,cat7-truck2.png,cat7-truck2.png,0.0,-7.6968307,-0.8849914,-4.8166976
alexnet_w1_mlp_simclrhn_probe1,1,627,NaN,cat,cat,NaN,cat8-bear1.png,cat8-bear1.png,1.0,0.2944653,-0.25970212,0.39185554
alexnet_w1_mlp_simclrhn_probe1,1,628,NaN,bicycle,cat,NaN,cat8-bicycle3.png,cat8-bicycle3.png,0.0,-4.2579265,-2.1419458,-1.4962243
alexnet_w1_mlp_simclrhn_probe1,1,629,NaN,cat,cat,NaN,cat8-bird2.png,cat8-bird2.png,1.0,-2.1889846,-5.007883,1.9932623
alexnet_w1_mlp_simclrhn_probe1,1,630,NaN,bicycle,cat,NaN,cat8-car2.png,cat8-car2.png,0.0,-8.689883,-4.511653,-2.9544551
alexnet_w1_mlp_simclrhn_probe1,1,631,NaN,bird,cat,NaN,cat9-bicycle1.png,cat9-bicycle1.png,0.0,-7.2743697,-5.11684,-1.525604
alexnet_w1_mlp_simclrhn_probe1,1,632,NaN,dog,cat,NaN,cat9-bird3.png,cat9-bird3.png,0.0,-1.3650141,-0.3369374,-0.72696
alexnet_w1_mlp_simclrhn_probe1,1,633,NaN,bicycle,cat,NaN,cat9-boat2.png,cat9-boat2.png,0.0,-11.169922,-2.7374854,-5.9626327
alexnet_w1_mlp_simclrhn_probe1,1,634,NaN,bottle,cat,NaN,cat9-bottle2.png,cat9-bottle2.png,0.0,-14.233619,-0.08027584,-10.007925
alexnet_w1_mlp_simclrhn_probe1,1,635,NaN,cat,cat,NaN,cat9-cat3.png,cat9-cat3.png,1.0,0.8134365,-0.91759944,1.2240273
alexnet_w1_mlp_simclrhn_probe1,1,636,NaN,chair,cat,NaN,cat9-chair2.png,cat9-chair2.png,0.0,-9.44803,-2.205048,-5.121562
alexnet_w1_mlp_simclrhn_probe1,1,637,NaN,knife,cat,NaN,cat9-clock2.png,cat9-clock2.png,0.0,-6.7200184,-4.023773,-1.9065332
alexnet_w1_mlp_simclrhn_probe1,1,638,NaN,cat,cat,NaN,cat9-dog2.png,cat9-dog2.png,1.0,0.1479427,-0.4446715,0.41904154
alexnet_w1_mlp_simclrhn_probe1,1,639,NaN,knife,cat,NaN,cat9-knife2.png,cat9-knife2.png,0.0,-6.977812,-1.24838,-4.0513206
alexnet_w1_mlp_simclrhn_probe1,1,640,NaN,chair,cat,NaN,cat9-truck1.png,cat9-truck1.png,0.0,-9.152523,-1.0505264,-5.7289767
alexnet_w1_mlp_simclrhn_probe1,1,641,NaN,chair,chair,NaN,chair1-airplane2.png,chair1-airplane2.png,1.0,-0.43254316,-2.028123,1.1282452
alexnet_w1_mlp_simclrhn_probe1,1,642,NaN,cat,chair,NaN,chair1-bear1.png,chair1-bear1.png,0.0,-9.937825,0.59248656,-7.446055
alexnet_w1_mlp_simclrhn_probe1,1,643,NaN,cat,chair,NaN,chair1-cat3.png,chair1-cat3.png,0.0,-7.785427,1.0377105,-6.2389
alexnet_w1_mlp_simclrhn_probe1,1,644,NaN,chair,chair,NaN,chair1-chair1.png,chair1-chair1.png,1.0,1.0103035,-2.722624,2.6395783
alexnet_w1_mlp_simclrhn_probe1,1,645,NaN,bottle,chair,NaN,chair1-clock2.png,chair1-clock2.png,0.0,-2.5459416,-2.1181538,-0.30249164
alexnet_w1_mlp_simclrhn_probe1,1,646,NaN,cat,chair,NaN,chair1-dog1.png,chair1-dog1.png,0.0,-10.372131,1.2100047,-8.189807
alexnet_w1_mlp_simclrhn_probe1,1,647,NaN,elephant,chair,NaN,chair1-elephant1.png,chair1-elephant1.png,0.0,-4.944598,-2.355338,-1.8308834
alexnet_w1_mlp_simclrhn_probe1,1,648,NaN,chair,chair,NaN,chair1-oven3.png,chair1-oven3.png,1.0,0.7051122,-0.54740083,0.88566047
alexnet_w1_mlp_simclrhn_probe1,1,649,NaN,knife,chair,NaN,chair1-truck3.png,chair1-truck3.png,0.0,-2.3457294,-1.4042118,-0.6657535
alexnet_w1_mlp_simclrhn_probe1,1,650,NaN,chair,chair,NaN,chair10-airplane2.png,chair10-airplane2.png,1.0,1.9350114,-2.2368298,2.949937
alexnet_w1_mlp_simclrhn_probe1,1,651,NaN,bicycle,chair,NaN,chair10-bicycle1.png,chair10-bicycle1.png,0.0,-4.9338036,-1.3956829,-2.5018291
alexnet_w1_mlp_simclrhn_probe1,1,652,NaN,oven,chair,NaN,chair10-bird3.png,chair10-bird3.png,0.0,-2.513074,-1.1774871,-0.9444025
alexnet_w1_mlp_simclrhn_probe1,1,653,NaN,oven,chair,NaN,chair10-bottle3.png,chair10-bottle3.png,0.0,-2.8540077,-1.7910175,-0.7516476
alexnet_w1_mlp_simclrhn_probe1,1,654,NaN,chair,chair,NaN,chair10-car2.png,chair10-car2.png,1.0,-3.4252381,-3.7328665,0.21752612
alexnet_w1_mlp_simclrhn_probe1,1,655,NaN,cat,chair,NaN,chair10-cat1.png,chair10-cat1.png,0.0,-11.055849,1.5555264,-8.917589
alexnet_w1_mlp_simclrhn_probe1,1,656,NaN,chair,chair,NaN,chair10-clock1.png,chair10-clock1.png,1.0,-1.0276167,-3.5517929,1.784862
alexnet_w1_mlp_simclrhn_probe1,1,657,NaN,cat,chair,NaN,chair10-dog1.png,chair10-dog1.png,0.0,-9.302673,1.1386424,-7.3831253
alexnet_w1_mlp_simclrhn_probe1,1,658,NaN,chair,chair,NaN,chair10-oven1.png,chair10-oven1.png,1.0,1.2045174,0.47715884,0.51432014
alexnet_w1_mlp_simclrhn_probe1,1,659,NaN,elephant,chair,NaN,chair2-bear2.png,chair2-bear2.png,0.0,-6.23205,0.8319664,-4.9950137
alexnet_w1_mlp_simclrhn_probe1,1,660,NaN,chair,chair,NaN,chair2-boat1.png,chair2-boat1.png,1.0,0.69338644,-1.2376088,1.3654199
alexnet_w1_mlp_simclrhn_probe1,1,661,NaN,knife,chair,NaN,chair2-keyboard2.png,chair2-keyboard2.png,0.0,-1.594429,-0.62538624,-0.6852167
alexnet_w1_mlp_simclrhn_probe1,1,662,NaN,chair,chair,NaN,chair2-knife1.png,chair2-knife1.png,1.0,-0.4642696,-1.6585426,0.84447855
alexnet_w1_mlp_simclrhn_probe1,1,663,NaN,chair,chair,NaN,chair3-airplane2.png,chair3-airplane2.png,1.0,1.2288744,-2.3901489,2.559036
alexnet_w1_mlp_simclrhn_probe1,1,664,NaN,chair,chair,NaN,chair3-bicycle3.png,chair3-bicycle3.png,1.0,-2.03925,-2.6388388,0.42397335
alexnet_w1_mlp_simclrhn_probe1,1,665,NaN,oven,chair,NaN,chair3-bottle3.png,chair3-bottle3.png,0.0,-2.6429813,-2.5843158,-0.041482784
alexnet_w1_mlp_simclrhn_probe1,1,666,NaN,chair,chair,NaN,chair3-car3.png,chair3-car3.png,1.0,-1.5092571,-2.7666516,0.88911223
alexnet_w1_mlp_simclrhn_probe1,1,667,NaN,cat,chair,NaN,chair3-dog2.png,chair3-dog2.png,0.0,-7.1477146,1.1317284,-5.85445
alexnet_w1_mlp_simclrhn_probe1,1,668,NaN,chair,chair,NaN,chair3-knife1.png,chair3-knife1.png,1.0,-0.571616,-2.5497708,1.3987668
alexnet_w1_mlp_simclrhn_probe1,1,669,NaN,elephant,chair,NaN,chair4-bear2.png,chair4-bear2.png,0.0,-4.865512,1.1171098,-4.2303524
alexnet_w1_mlp_simclrhn_probe1,1,670,NaN,cat,chair,NaN,chair4-cat2.png,chair4-cat2.png,0.0,-8.928321,1.7373763,-7.5417867
alexnet_w1_mlp_simclrhn_probe1,1,671,NaN,chair,chair,NaN,chair4-chair3.png,chair4-chair3.png,1.0,1.2676066,-1.7804215,2.1552813
alexnet_w1_mlp_simclrhn_probe1,1,672,NaN,bottle,chair,NaN,chair4-keyboard2.png,chair4-keyboard2.png,0.0,-2.6899035,-1.1960104,-1.056342
alexnet_w1_mlp_simclrhn_probe1,1,673,NaN,chair,chair,NaN,chair4-oven2.png,chair4-oven2.png,1.0,2.3087835,-0.70710456,2.132555
alexnet_w1_mlp_simclrhn_probe1,1,674,NaN,chair,chair,NaN,chair4-truck2.png,chair4-truck2.png,1.0,1.6205722,-2.4949615,2.910122
alexnet_w1_mlp_simclrhn_probe1,1,675,NaN,bicycle,chair,NaN,chair5-bicycle1.png,chair5-bicycle1.png,0.0,-4.2274594,2.455402,-4.725497
alexnet_w1_mlp_simclrhn_probe1,1,676,NaN,cat,chair,NaN,chair5-bird1.png,chair5-bird1.png,0.0,-5.742963,-2.713689,-2.14202
alexnet_w1_mlp_simclrhn_probe1,1,677,NaN,chair,chair,NaN,chair5-boat3.png,chair5-boat3.png,1.0,-0.66613406,-2.4173875,1.2383232
alexnet_w1_mlp_simclrhn_probe1,1,678,NaN,bicycle,chair,NaN,chair5-bottle3.png,chair5-bottle3.png,0.0,-3.3504536,-0.060289413,-2.3264976
alexnet_w1_mlp_simclrhn_probe1,1,679,NaN,chair,chair,NaN,chair5-car1.png,chair5-car1.png,1.0,-0.7995578,-1.4782752,0.47992566
alexnet_w1_mlp_simclrhn_probe1,1,680,NaN,cat,chair,NaN,chair5-cat3.png,chair5-cat3.png,0.0,-7.3999896,-0.14662246,-5.128905
alexnet_w1_mlp_simclrhn_probe1,1,681,NaN,bicycle,chair,NaN,chair5-clock2.png,chair5-clock2.png,0.0,-0.6103624,-0.4318912,-0.1261982
alexnet_w1_mlp_simclrhn_probe1,1,682,NaN,keyboard,chair,NaN,chair5-keyboard2.png,chair5-keyboard2.png,0.0,-4.1015387,-1.4329277,-1.886993
alexnet_w1_mlp_simclrhn_probe1,1,683,NaN,knife,chair,NaN,chair5-knife3.png,chair5-knife3.png,0.0,-1.7729695,-1.4507964,-0.2278108
alexnet_w1_mlp_simclrhn_probe1,1,684,NaN,chair,chair,NaN,chair5-oven2.png,chair5-oven2.png,1.0,1.6093403,-0.92758536,1.7938775
alexnet_w1_mlp_simclrhn_probe1,1,685,NaN,chair,chair,NaN,chair5-truck3.png,chair5-truck3.png,1.0,-0.7410097,-2.0112076,0.8981655
alexnet_w1_mlp_simclrhn_probe1,1,686,NaN,cat,chair,NaN,chair6-bird2.png,chair6-bird2.png,0.0,-5.7268248,-4.2885528,-1.0170119
alexnet_w1_mlp_simclrhn_probe1,1,687,NaN,cat,chair,NaN,chair6-dog1.png,chair6-dog1.png,0.0,-8.93454,-0.016639432,-6.3059077
alexnet_w1_mlp_simclrhn_probe1,1,688,NaN,cat,chair,NaN,chair6-elephant2.png,chair6-elephant2.png,0.0,-6.2645097,-1.2188355,-3.5678306
alexnet_w1_mlp_simclrhn_probe1,1,689,NaN,chair,chair,NaN,chair6-truck2.png,chair6-truck2.png,1.0,0.56491756,-1.1818177,1.2351283
alexnet_w1_mlp_simclrhn_probe1,1,690,NaN,chair,chair,NaN,chair7-airplane1.png,chair7-airplane1.png,1.0,-1.1813165,-1.9781213,0.5634261
alexnet_w1_mlp_simclrhn_probe1,1,691,NaN,knife,chair,NaN,chair7-bird1.png,chair7-bird1.png,0.0,-4.727853,-1.8346128,-2.0458295
alexnet_w1_mlp_simclrhn_probe1,1,692,NaN,oven,chair,NaN,chair7-boat3.png,chair7-boat3.png,0.0,-0.72309583,-0.3669081,-0.25186276
alexnet_w1_mlp_simclrhn_probe1,1,693,NaN,chair,chair,NaN,chair7-bottle1.png,chair7-bottle1.png,1.0,-2.7511885,-4.216575,1.0361848
alexnet_w1_mlp_simclrhn_probe1,1,694,NaN,chair,chair,NaN,chair7-car2.png,chair7-car2.png,1.0,-2.0079105,-2.8402216,0.58853287
alexnet_w1_mlp_simclrhn_probe1,1,695,NaN,cat,chair,NaN,chair7-cat1.png,chair7-cat1.png,0.0,-8.673792,2.8070383,-8.118173
alexnet_w1_mlp_simclrhn_probe1,1,696,NaN,chair,chair,NaN,chair7-chair1.png,chair7-chair1.png,1.0,0.44432086,-1.6353551,1.4705529
alexnet_w1_mlp_simclrhn_probe1,1,697,NaN,chair,chair,NaN,chair7-clock3.png,chair7-clock3.png,1.0,-0.9363786,-2.1780365,0.8779847
alexnet_w1_mlp_simclrhn_probe1,1,698,NaN,bicycle,chair,NaN,chair7-elephant1.png,chair7-elephant1.png,0.0,-3.5117753,-3.072344,-0.3107248
alexnet_w1_mlp_simclrhn_probe1,1,699,NaN,knife,chair,NaN,chair7-knife2.png,chair7-knife2.png,0.0,-1.4498885,0.10041247,-1.0962284
alexnet_w1_mlp_simclrhn_probe1,1,700,NaN,chair,chair,NaN,chair7-truck3.png,chair7-truck3.png,1.0,1.084252,-1.0023924,1.4754804
alexnet_w1_mlp_simclrhn_probe1,1,701,NaN,chair,chair,NaN,chair8-airplane1.png,chair8-airplane1.png,1.0,-1.6557636,-2.0660417,0.2901104
alexnet_w1_mlp_simclrhn_probe1,1,702,NaN,elephant,chair,NaN,chair8-bear1.png,chair8-bear1.png,0.0,-8.796578,-1.734673,-4.993521
alexnet_w1_mlp_simclrhn_probe1,1,703,NaN,bicycle,chair,NaN,chair8-bicycle3.png,chair8-bicycle3.png,0.0,-3.6682756,-3.1113884,-0.39377868
alexnet_w1_mlp_simclrhn_probe1,1,704,NaN,chair,chair,NaN,chair8-boat1.png,chair8-boat1.png,1.0,0.73733777,-2.4823964,2.276696
alexnet_w1_mlp_simclrhn_probe1,1,705,NaN,chair,chair,NaN,chair8-car1.png,chair8-car1.png,1.0,-2.066101,-2.4456859,0.268407
alexnet_w1_mlp_simclrhn_probe1,1,706,NaN,chair,chair,NaN,chair8-chair3.png,chair8-chair3.png,1.0,0.034995317,-1.8673983,1.3451954
alexnet_w1_mlp_simclrhn_probe1,1,707,NaN,chair,chair,NaN,chair8-clock3.png,chair8-clock3.png,1.0,-1.5218097,-2.8227215,0.91988355
alexnet_w1_mlp_simclrhn_probe1,1,708,NaN,elephant,chair,NaN,chair8-elephant1.png,chair8-elephant1.png,0.0,-5.6470547,-2.0826628,-2.5204058
alexnet_w1_mlp_simclrhn_probe1,1,709,NaN,bottle,chair,NaN,chair8-keyboard3.png,chair8-keyboard3.png,0.0,-4.6161094,-1.8903598,-1.9273959
alexnet_w1_mlp_simclrhn_probe1,1,710,NaN,oven,chair,NaN,chair8-knife2.png,chair8-knife2.png,0.0,-2.3731549,-1.0040176,-0.9681263
alexnet_w1_mlp_simclrhn_probe1,1,711,NaN,chair,chair,NaN,chair8-oven1.png,chair8-oven1.png,1.0,1.0110341,0.94081295,0.049653877
alexnet_w1_mlp_simclrhn_probe1,1,712,NaN,cat,chair,NaN,chair9-bear1.png,chair9-bear1.png,0.0,-8.587271,0.75009966,-6.6025176
alexnet_w1_mlp_simclrhn_probe1,1,713,NaN,bicycle,chair,NaN,chair9-bicycle3.png,chair9-bicycle3.png,0.0,-2.4848053,0.120729536,-1.8423914
alexnet_w1_mlp_simclrhn_probe1,1,714,NaN,chair,chair,NaN,chair9-bird3.png,chair9-bird3.png,1.0,-3.5361104,-3.6534276,0.08295579
alexnet_w1_mlp_simclrhn_probe1,1,715,NaN,chair,chair,NaN,chair9-boat2.png,chair9-boat2.png,1.0,-0.8361587,-2.6554952,1.2864652
alexnet_w1_mlp_simclrhn_probe1,1,716,NaN,oven,chair,NaN,chair9-bottle3.png,chair9-bottle3.png,0.0,-5.592611,-4.5832014,-0.71376026
alexnet_w1_mlp_simclrhn_probe1,1,717,NaN,airplane,chair,NaN,chair9-chair3.png,chair9-chair3.png,0.0,-0.12217158,2.1759605,-1.6250249
alexnet_w1_mlp_simclrhn_probe1,1,718,NaN,cat,chair,NaN,chair9-dog2.png,chair9-dog2.png,0.0,-7.006473,1.3463378,-5.906329
alexnet_w1_mlp_simclrhn_probe1,1,719,NaN,cat,chair,NaN,chair9-elephant1.png,chair9-elephant1.png,0.0,-4.396201,-2.6286457,-1.2498505
alexnet_w1_mlp_simclrhn_probe1,1,720,NaN,bottle,chair,NaN,chair9-keyboard2.png,chair9-keyboard2.png,0.0,-3.0741525,-0.84425145,-1.5767782
alexnet_w1_mlp_simclrhn_probe1,1,721,NaN,elephant,clock,NaN,clock1-bear1.png,clock1-bear1.png,0.0,-10.586643,-0.27041113,-7.2946777
alexnet_w1_mlp_simclrhn_probe1,1,722,NaN,boat,clock,NaN,clock1-boat3.png,clock1-boat3.png,0.0,-4.684333,-1.0973591,-2.5363734
alexnet_w1_mlp_simclrhn_probe1,1,723,NaN,bicycle,clock,NaN,clock1-car1.png,clock1-car1.png,0.0,-6.490202,-2.606906,-2.745905
alexnet_w1_mlp_simclrhn_probe1,1,724,NaN,car,clock,NaN,clock1-clock2.png,clock1-clock2.png,0.0,-1.7219177,-1.3508439,-0.26238883
alexnet_w1_mlp_simclrhn_probe1,1,725,NaN,cat,clock,NaN,clock1-dog2.png,clock1-dog2.png,0.0,-5.691488,-0.5495385,-3.6359072
alexnet_w1_mlp_simclrhn_probe1,1,726,NaN,elephant,clock,NaN,clock1-elephant2.png,clock1-elephant2.png,0.0,-5.9618587,-0.8889158,-3.5871122
alexnet_w1_mlp_simclrhn_probe1,1,727,NaN,knife,clock,NaN,clock1-truck3.png,clock1-truck3.png,0.0,-2.1124747,0.07585503,-1.5473828
alexnet_w1_mlp_simclrhn_probe1,1,728,NaN,clock,clock,NaN,clock10-airplane1.png,clock10-airplane1.png,1.0,1.8357333,-1.6716404,2.4800878
alexnet_w1_mlp_simclrhn_probe1,1,729,NaN,clock,clock,NaN,clock10-bird3.png,clock10-bird3.png,1.0,-2.015417,-2.1164846,0.071465544
alexnet_w1_mlp_simclrhn_probe1,1,730,NaN,bicycle,clock,NaN,clock10-boat2.png,clock10-boat2.png,0.0,-1.2700729,-0.49346912,-0.5491418
alexnet_w1_mlp_simclrhn_probe1,1,731,NaN,bicycle,clock,NaN,clock10-bottle1.png,clock10-bottle1.png,0.0,-4.0327115,-3.1057088,-0.65548986
alexnet_w1_mlp_simclrhn_probe1,1,732,NaN,cat,clock,NaN,clock10-cat1.png,clock10-cat1.png,0.0,-7.989057,-1.7109371,-4.4393015
alexnet_w1_mlp_simclrhn_probe1,1,733,NaN,clock,clock,NaN,clock10-clock3.png,clock10-clock3.png,1.0,2.9049723,-0.9900964,2.7542295
alexnet_w1_mlp_simclrhn_probe1,1,734,NaN,dog,clock,NaN,clock10-dog3.png,clock10-dog3.png,0.0,-8.082389,-3.160437,-3.4803455
alexnet_w1_mlp_simclrhn_probe1,1,735,NaN,bottle,clock,NaN,clock10-knife3.png,clock10-knife3.png,0.0,-2.6489704,-1.7191095,-0.65751094
alexnet_w1_mlp_simclrhn_probe1,1,736,NaN,bottle,clock,NaN,clock10-oven2.png,clock10-oven2.png,0.0,-0.9540066,2.1862693,-2.2205105
alexnet_w1_mlp_simclrhn_probe1,1,737,NaN,bottle,clock,NaN,clock10-truck2.png,clock10-truck2.png,0.0,-2.890999,1.3352045,-2.988377
alexnet_w1_mlp_simclrhn_probe1,1,738,NaN,elephant,clock,NaN,clock2-bear2.png,clock2-bear2.png,0.0,-3.5304143,-3.099093,-0.3049903
alexnet_w1_mlp_simclrhn_probe1,1,739,NaN,clock,clock,NaN,clock2-bicycle1.png,clock2-bicycle1.png,1.0,-0.057844955,-6.4491596,4.519342
alexnet_w1_mlp_simclrhn_probe1,1,740,NaN,clock,clock,NaN,clock2-bottle3.png,clock2-bottle3.png,1.0,3.2864196,-6.571206,6.970394
alexnet_w1_mlp_simclrhn_probe1,1,741,NaN,clock,clock,NaN,clock2-clock3.png,clock2-clock3.png,1.0,5.8257346,-2.4630027,5.8610225
alexnet_w1_mlp_simclrhn_probe1,1,742,NaN,cat,clock,NaN,clock2-dog1.png,clock2-dog1.png,0.0,-5.1496916,-4.30098,-0.60012966
alexnet_w1_mlp_simclrhn_probe1,1,743,NaN,clock,clock,NaN,clock2-elephant2.png,clock2-elephant2.png,1.0,-2.443219,-3.2631478,0.5797773
alexnet_w1_mlp_simclrhn_probe1,1,744,NaN,clock,clock,NaN,clock2-knife1.png,clock2-knife1.png,1.0,-0.31055975,-3.6555989,2.3653
alexnet_w1_mlp_simclrhn_probe1,1,745,NaN,elephant,clock,NaN,clock3-bear3.png,clock3-bear3.png,0.0,-8.8079605,-0.62107635,-5.7890015
alexnet_w1_mlp_simclrhn_probe1,1,746,NaN,clock,clock,NaN,clock3-bicycle2.png,clock3-bicycle2.png,1.0,0.112680756,-4.0090036,2.9144711
alexnet_w1_mlp_simclrhn_probe1,1,747,NaN,bottle,clock,NaN,clock3-bird1.png,clock3-bird1.png,0.0,-1.6611332,-1.0109603,-0.45974162
alexnet_w1_mlp_simclrhn_probe1,1,748,NaN,bicycle,clock,NaN,clock3-car2.png,clock3-car2.png,0.0,-1.1686362,0.31700176,-1.0505047
alexnet_w1_mlp_simclrhn_probe1,1,749,NaN,elephant,clock,NaN,clock3-cat1.png,clock3-cat1.png,0.0,-3.3324347,-3.007899,-0.22948134
alexnet_w1_mlp_simclrhn_probe1,1,750,NaN,clock,clock,NaN,clock3-dog2.png,clock3-dog2.png,1.0,-1.3148495,-2.2314126,0.648108
alexnet_w1_mlp_simclrhn_probe1,1,751,NaN,clock,clock,NaN,clock3-elephant3.png,clock3-elephant3.png,1.0,-1.9267648,-4.172501,1.5879753
alexnet_w1_mlp_simclrhn_probe1,1,752,NaN,clock,clock,NaN,clock3-keyboard3.png,clock3-keyboard3.png,1.0,1.6740766,-0.111262426,1.2624253
alexnet_w1_mlp_simclrhn_probe1,1,753,NaN,clock,clock,NaN,clock4-airplane1.png,clock4-airplane1.png,1.0,2.58975,-1.9136908,3.1844137
alexnet_w1_mlp_simclrhn_probe1,1,754,NaN,clock,clock,NaN,clock4-bird3.png,clock4-bird3.png,1.0,1.8791684,-2.8815324,3.3663237
alexnet_w1_mlp_simclrhn_probe1,1,755,NaN,clock,clock,NaN,clock4-boat3.png,clock4-boat3.png,1.0,-1.6876407,-1.904745,0.15351593
alexnet_w1_mlp_simclrhn_probe1,1,756,NaN,clock,clock,NaN,clock4-bottle3.png,clock4-bottle3.png,1.0,0.43977866,-4.306179,3.355899
alexnet_w1_mlp_simclrhn_probe1,1,757,NaN,bicycle,clock,NaN,clock4-car2.png,clock4-car2.png,0.0,-2.5362399,-0.8283759,-1.2076423
alexnet_w1_mlp_simclrhn_probe1,1,758,NaN,car,clock,NaN,clock4-chair1.png,clock4-chair1.png,0.0,-2.5402458,0.35100064,-2.04442
alexnet_w1_mlp_simclrhn_probe1,1,759,NaN,elephant,clock,NaN,clock4-elephant2.png,clock4-elephant2.png,0.0,-6.5786896,-0.8491831,-4.051373
alexnet_w1_mlp_simclrhn_probe1,1,760,NaN,clock,clock,NaN,clock4-knife1.png,clock4-knife1.png,1.0,-1.7374372,-3.2626636,1.0784979
alexnet_w1_mlp_simclrhn_probe1,1,761,NaN,clock,clock,NaN,clock4-oven1.png,clock4-oven1.png,1.0,1.4392862,-0.9129553,1.663286
alexnet_w1_mlp_simclrhn_probe1,1,762,NaN,clock,clock,NaN,clock5-airplane1.png,clock5-airplane1.png,1.0,4.615254,-2.3124423,4.898621
alexnet_w1_mlp_simclrhn_probe1,1,763,NaN,clock,clock,NaN,clock5-bicycle1.png,clock5-bicycle1.png,1.0,-0.4413258,-6.424685,4.230874
alexnet_w1_mlp_simclrhn_probe1,1,764,NaN,clock,clock,NaN,clock5-chair3.png,clock5-chair3.png,1.0,1.5030149,-0.58484703,1.4763414
alexnet_w1_mlp_simclrhn_probe1,1,765,NaN,clock,clock,NaN,clock5-clock2.png,clock5-clock2.png,1.0,10.635829,-2.8981826,9.569992
alexnet_w1_mlp_simclrhn_probe1,1,766,NaN,elephant,clock,NaN,clock5-elephant2.png,clock5-elephant2.png,0.0,-3.6558845,-3.2558746,-0.2828497
