subj,session,trial,rt,object_response,category,condition,imagename,filename,is_correct,targ_act,max_nontarg_act,decision_margin
alexnet_w3_mlp_simclrhn_probe2,1,1,NaN,bird,airplane,NaN,airplane1-bicycle2.png,airplane1-bicycle2.png,0.0,-10.733133,-0.33712426,-7.351089
alexnet_w3_mlp_simclrhn_probe2,1,2,NaN,chair,airplane,NaN,airplane1-chair2.png,airplane1-chair2.png,0.0,-1.5254916,1.0332146,-1.8092786
alexnet_w3_mlp_simclrhn_probe2,1,3,NaN,bicycle,airplane,NaN,airplane1-clock1.png,airplane1-clock1.png,0.0,-6.3159285,-0.059311926,-4.424096
alexnet_w3_mlp_simclrhn_probe2,1,4,NaN,bicycle,airplane,NaN,airplane1-elephant1.png,airplane1-elephant1.png,0.0,-6.8311243,-1.0780033,-4.068071
alexnet_w3_mlp_simclrhn_probe2,1,5,NaN,airplane,airplane,NaN,airplane10-airplane1.png,airplane10-airplane1.png,1.0,3.974987,0.11521734,2.7292693
alexnet_w3_mlp_simclrhn_probe2,1,6,NaN,cat,airplane,NaN,airplane10-bear3.png,airplane10-bear3.png,0.0,-8.159159,-0.4529864,-5.4490867
alexnet_w3_mlp_simclrhn_probe2,1,7,NaN,airplane,airplane,NaN,airplane10-boat3.png,airplane10-boat3.png,1.0,1.3857329,0.09808178,0.9105068
alexnet_w3_mlp_simclrhn_probe2,1,8,NaN,bicycle,airplane,NaN,airplane10-car3.png,airplane10-car3.png,0.0,-4.076684,-0.9713051,-2.1958344
alexnet_w3_mlp_simclrhn_probe2,1,9,NaN,cat,airplane,NaN,airplane10-cat2.png,airplane10-cat2.png,0.0,-5.373812,0.05889048,-3.8415008
alexnet_w3_mlp_simclrhn_probe2,1,10,NaN,cat,airplane,NaN,airplane10-dog3.png,airplane10-dog3.png,0.0,-9.682972,1.0753942,-7.6073136
alexnet_w3_mlp_simclrhn_probe2,1,11,NaN,cat,airplane,NaN,airplane10-elephant1.png,airplane10-elephant1.png,0.0,-5.857657,-1.5619336,-3.0375352
alexnet_w3_mlp_simclrhn_probe2,1,12,NaN,knife,airplane,NaN,airplane10-knife3.png,airplane10-knife3.png,0.0,-0.27906892,0.38023657,-0.46619937
alexnet_w3_mlp_simclrhn_probe2,1,13,NaN,airplane,airplane,NaN,airplane10-oven2.png,airplane10-oven2.png,1.0,0.94751763,0.9009663,0.032916773
alexnet_w3_mlp_simclrhn_probe2,1,14,NaN,chair,airplane,NaN,airplane10-truck1.png,airplane10-truck1.png,0.0,-2.795444,1.2662746,-2.8720686
alexnet_w3_mlp_simclrhn_probe2,1,15,NaN,cat,airplane,NaN,airplane2-bear1.png,airplane2-bear1.png,0.0,-7.280698,-0.28415567,-4.9473023
alexnet_w3_mlp_simclrhn_probe2,1,16,NaN,bicycle,airplane,NaN,airplane2-bicycle1.png,airplane2-bicycle1.png,0.0,-10.321077,-2.0325916,-5.8608446
alexnet_w3_mlp_simclrhn_probe2,1,17,NaN,airplane,airplane,NaN,airplane2-bird3.png,airplane2-bird3.png,1.0,-1.7163874,-2.4185963,0.49653667
alexnet_w3_mlp_simclrhn_probe2,1,18,NaN,oven,airplane,NaN,airplane2-bottle1.png,airplane2-bottle1.png,0.0,-2.3894677,0.04566571,-1.7218994
alexnet_w3_mlp_simclrhn_probe2,1,19,NaN,cat,airplane,NaN,airplane2-cat1.png,airplane2-cat1.png,0.0,-7.412658,0.56070226,-5.638017
alexnet_w3_mlp_simclrhn_probe2,1,20,NaN,cat,airplane,NaN,airplane2-dog1.png,airplane2-dog1.png,0.0,-7.362421,-0.1411628,-5.1062007
alexnet_w3_mlp_simclrhn_probe2,1,21,NaN,airplane,airplane,NaN,airplane3-airplane2.png,airplane3-airplane2.png,1.0,0.6043514,-1.1729538,1.2567446
alexnet_w3_mlp_simclrhn_probe2,1,22,NaN,bicycle,airplane,NaN,airplane3-car1.png,airplane3-car1.png,0.0,-8.017588,-0.30763185,-5.451762
alexnet_w3_mlp_simclrhn_probe2,1,23,NaN,cat,airplane,NaN,airplane3-cat1.png,airplane3-cat1.png,0.0,-9.759151,-0.14192937,-6.800403
alexnet_w3_mlp_simclrhn_probe2,1,24,NaN,airplane,airplane,NaN,airplane3-chair3.png,airplane3-chair3.png,1.0,2.5797458,-0.6324854,2.2713904
alexnet_w3_mlp_simclrhn_probe2,1,25,NaN,bottle,airplane,NaN,airplane3-clock1.png,airplane3-clock1.png,0.0,-8.921005,-1.5211273,-5.232504
alexnet_w3_mlp_simclrhn_probe2,1,26,NaN,cat,airplane,NaN,airplane3-dog1.png,airplane3-dog1.png,0.0,-6.0096846,-0.6536345,-3.7872994
alexnet_w3_mlp_simclrhn_probe2,1,27,NaN,bicycle,airplane,NaN,airplane3-elephant1.png,airplane3-elephant1.png,0.0,-7.2307076,-1.4025836,-4.121106
alexnet_w3_mlp_simclrhn_probe2,1,28,NaN,keyboard,airplane,NaN,airplane3-keyboard2.png,airplane3-keyboard2.png,0.0,-0.9850347,0.73650444,-1.217312
alexnet_w3_mlp_simclrhn_probe2,1,29,NaN,airplane,airplane,NaN,airplane3-oven1.png,airplane3-oven1.png,1.0,3.4924397,0.1277888,2.3791676
alexnet_w3_mlp_simclrhn_probe2,1,30,NaN,airplane,airplane,NaN,airplane4-airplane1.png,airplane4-airplane1.png,1.0,-0.3762575,-0.5611887,0.1307661
alexnet_w3_mlp_simclrhn_probe2,1,31,NaN,bear,airplane,NaN,airplane4-bear3.png,airplane4-bear3.png,0.0,-7.4554873,-0.38142955,-5.0021143
alexnet_w3_mlp_simclrhn_probe2,1,32,NaN,bicycle,airplane,NaN,airplane4-bicycle2.png,airplane4-bicycle2.png,0.0,-9.30268,-1.4635642,-5.5430923
alexnet_w3_mlp_simclrhn_probe2,1,33,NaN,airplane,airplane,NaN,airplane4-bird3.png,airplane4-bird3.png,1.0,0.20765984,-1.7290256,1.3694434
alexnet_w3_mlp_simclrhn_probe2,1,34,NaN,airplane,airplane,NaN,airplane4-boat3.png,airplane4-boat3.png,1.0,1.8464065,0.36073226,1.0505303
alexnet_w3_mlp_simclrhn_probe2,1,35,NaN,oven,airplane,NaN,airplane4-bottle1.png,airplane4-bottle1.png,0.0,-1.6591451,-0.03233087,-1.1503314
alexnet_w3_mlp_simclrhn_probe2,1,36,NaN,bicycle,airplane,NaN,airplane4-car1.png,airplane4-car1.png,0.0,-7.4576354,-1.6549361,-4.103128
alexnet_w3_mlp_simclrhn_probe2,1,37,NaN,cat,airplane,NaN,airplane4-cat3.png,airplane4-cat3.png,0.0,-5.040497,0.27226758,-3.7566917
alexnet_w3_mlp_simclrhn_probe2,1,38,NaN,cat,airplane,NaN,airplane4-dog2.png,airplane4-dog2.png,0.0,-5.159008,-0.61032486,-3.2164047
alexnet_w3_mlp_simclrhn_probe2,1,39,NaN,bicycle,airplane,NaN,airplane4-elephant1.png,airplane4-elephant1.png,0.0,-6.108141,-1.2934273,-3.4045167
alexnet_w3_mlp_simclrhn_probe2,1,40,NaN,knife,airplane,NaN,airplane4-keyboard3.png,airplane4-keyboard3.png,0.0,0.6161147,0.69539744,-0.05606138
alexnet_w3_mlp_simclrhn_probe2,1,41,NaN,knife,airplane,NaN,airplane4-knife1.png,airplane4-knife1.png,0.0,-3.999359,-0.9579768,-2.1505818
alexnet_w3_mlp_simclrhn_probe2,1,42,NaN,chair,airplane,NaN,airplane4-truck2.png,airplane4-truck2.png,0.0,-1.3354739,0.72807,-1.4591458
alexnet_w3_mlp_simclrhn_probe2,1,43,NaN,bear,airplane,NaN,airplane5-bear2.png,airplane5-bear2.png,0.0,-9.109579,0.9830354,-7.136556
alexnet_w3_mlp_simclrhn_probe2,1,44,NaN,bicycle,airplane,NaN,airplane5-bicycle1.png,airplane5-bicycle1.png,0.0,-12.590846,-0.92366207,-8.249945
alexnet_w3_mlp_simclrhn_probe2,1,45,NaN,oven,airplane,NaN,airplane5-bird2.png,airplane5-bird2.png,0.0,-8.5175,-1.554787,-4.9233813
alexnet_w3_mlp_simclrhn_probe2,1,46,NaN,oven,airplane,NaN,airplane5-boat3.png,airplane5-boat3.png,0.0,-0.6691701,0.78497696,-1.0282373
alexnet_w3_mlp_simclrhn_probe2,1,47,NaN,oven,airplane,NaN,airplane5-bottle3.png,airplane5-bottle3.png,0.0,-7.854517,-1.2024946,-4.70369
alexnet_w3_mlp_simclrhn_probe2,1,48,NaN,airplane,airplane,NaN,airplane5-chair3.png,airplane5-chair3.png,1.0,3.0236115,-0.35768646,2.3909388
alexnet_w3_mlp_simclrhn_probe2,1,49,NaN,cat,airplane,NaN,airplane5-dog3.png,airplane5-dog3.png,0.0,-14.452402,0.9047188,-10.859124
alexnet_w3_mlp_simclrhn_probe2,1,50,NaN,knife,airplane,NaN,airplane5-knife1.png,airplane5-knife1.png,0.0,-5.6875925,-0.31785798,-3.7969759
alexnet_w3_mlp_simclrhn_probe2,1,51,NaN,chair,airplane,NaN,airplane5-oven3.png,airplane5-oven3.png,0.0,-3.6199594,1.4204146,-3.5640826
alexnet_w3_mlp_simclrhn_probe2,1,52,NaN,bear,airplane,NaN,airplane6-bear3.png,airplane6-bear3.png,0.0,-10.177578,-0.12733123,-7.106598
alexnet_w3_mlp_simclrhn_probe2,1,53,NaN,bottle,airplane,NaN,airplane6-bottle2.png,airplane6-bottle2.png,0.0,-5.4118376,1.9977906,-5.239398
alexnet_w3_mlp_simclrhn_probe2,1,54,NaN,airplane,airplane,NaN,airplane6-chair3.png,airplane6-chair3.png,1.0,2.8860292,-0.689285,2.528129
alexnet_w3_mlp_simclrhn_probe2,1,55,NaN,airplane,airplane,NaN,airplane6-keyboard3.png,airplane6-keyboard3.png,1.0,0.8168054,0.78544897,0.022172362
alexnet_w3_mlp_simclrhn_probe2,1,56,NaN,bicycle,airplane,NaN,airplane6-knife1.png,airplane6-knife1.png,0.0,-3.8715594,-0.8845124,-2.1121612
alexnet_w3_mlp_simclrhn_probe2,1,57,NaN,airplane,airplane,NaN,airplane7-airplane3.png,airplane7-airplane3.png,1.0,5.5675187,-0.19599189,4.0754175
alexnet_w3_mlp_simclrhn_probe2,1,58,NaN,airplane,airplane,NaN,airplane7-bird3.png,airplane7-bird3.png,1.0,-0.8639784,-1.6887077,0.5831717
alexnet_w3_mlp_simclrhn_probe2,1,59,NaN,boat,airplane,NaN,airplane7-boat2.png,airplane7-boat2.png,0.0,0.5803883,1.1922331,-0.4326396
alexnet_w3_mlp_simclrhn_probe2,1,60,NaN,oven,airplane,NaN,airplane7-bottle3.png,airplane7-bottle3.png,0.0,-5.751091,-1.0890454,-3.296564
alexnet_w3_mlp_simclrhn_probe2,1,61,NaN,bicycle,airplane,NaN,airplane7-car1.png,airplane7-car1.png,0.0,-5.3681455,-0.29964,-3.5839746
alexnet_w3_mlp_simclrhn_probe2,1,62,NaN,cat,airplane,NaN,airplane7-cat3.png,airplane7-cat3.png,0.0,-4.700963,0.21420087,-3.475546
alexnet_w3_mlp_simclrhn_probe2,1,63,NaN,bottle,airplane,NaN,airplane7-clock3.png,airplane7-clock3.png,0.0,-4.539173,-1.3107074,-2.2828698
alexnet_w3_mlp_simclrhn_probe2,1,64,NaN,bicycle,airplane,NaN,airplane7-keyboard1.png,airplane7-keyboard1.png,0.0,-1.466061,-1.0743083,-0.277011
alexnet_w3_mlp_simclrhn_probe2,1,65,NaN,chair,airplane,NaN,airplane7-truck1.png,airplane7-truck1.png,0.0,-3.3731308,1.6387931,-3.5439653
alexnet_w3_mlp_simclrhn_probe2,1,66,NaN,bird,airplane,NaN,airplane8-bicycle3.png,airplane8-bicycle3.png,0.0,-7.772129,-0.69403106,-5.004971
alexnet_w3_mlp_simclrhn_probe2,1,67,NaN,knife,airplane,NaN,airplane8-bird1.png,airplane8-bird1.png,0.0,-1.9932144,-0.38935536,-1.1340996
alexnet_w3_mlp_simclrhn_probe2,1,68,NaN,airplane,airplane,NaN,airplane8-chair1.png,airplane8-chair1.png,1.0,2.2486563,-0.61855936,2.0274277
alexnet_w3_mlp_simclrhn_probe2,1,69,NaN,bottle,airplane,NaN,airplane8-clock2.png,airplane8-clock2.png,0.0,-4.2990103,-1.3838408,-2.061336
alexnet_w3_mlp_simclrhn_probe2,1,70,NaN,bird,airplane,NaN,airplane8-elephant3.png,airplane8-elephant3.png,0.0,-4.1413956,-0.99653506,-2.2237523
alexnet_w3_mlp_simclrhn_probe2,1,71,NaN,knife,airplane,NaN,airplane8-oven2.png,airplane8-oven2.png,0.0,0.59271634,1.1162612,-0.37020215
alexnet_w3_mlp_simclrhn_probe2,1,72,NaN,chair,airplane,NaN,airplane8-truck3.png,airplane8-truck3.png,0.0,-0.93660206,0.75054723,-1.1929947
alexnet_w3_mlp_simclrhn_probe2,1,73,NaN,airplane,airplane,NaN,airplane9-airplane2.png,airplane9-airplane2.png,1.0,3.1025877,-1.073451,2.9529054
alexnet_w3_mlp_simclrhn_probe2,1,74,NaN,airplane,airplane,NaN,airplane9-boat1.png,airplane9-boat1.png,1.0,1.2368138,1.0613842,0.12404745
alexnet_w3_mlp_simclrhn_probe2,1,75,NaN,bicycle,airplane,NaN,airplane9-car2.png,airplane9-car2.png,0.0,-5.6177444,0.5195201,-4.3397017
alexnet_w3_mlp_simclrhn_probe2,1,76,NaN,oven,airplane,NaN,airplane9-clock1.png,airplane9-clock1.png,0.0,-6.853361,-0.42030144,-4.54886
alexnet_w3_mlp_simclrhn_probe2,1,77,NaN,knife,airplane,NaN,airplane9-keyboard2.png,airplane9-keyboard2.png,0.0,-0.6883024,0.37164098,-0.7494932
alexnet_w3_mlp_simclrhn_probe2,1,78,NaN,bottle,airplane,NaN,airplane9-knife3.png,airplane9-knife3.png,0.0,-0.55795634,0.6326089,-0.8418568
alexnet_w3_mlp_simclrhn_probe2,1,79,NaN,chair,airplane,NaN,airplane9-oven2.png,airplane9-oven2.png,0.0,0.56998897,0.8989887,-0.23263796
alexnet_w3_mlp_simclrhn_probe2,1,80,NaN,chair,airplane,NaN,airplane9-truck1.png,airplane9-truck1.png,0.0,-5.1624775,3.3338315,-6.007798
alexnet_w3_mlp_simclrhn_probe2,1,81,NaN,knife,bear,NaN,bear1-airplane3.png,bear1-airplane3.png,0.0,-6.0095916,-0.08984862,-4.1858907
alexnet_w3_mlp_simclrhn_probe2,1,82,NaN,bear,bear,NaN,bear1-bear3.png,bear1-bear3.png,1.0,1.3313868,0.0045620203,0.9382068
alexnet_w3_mlp_simclrhn_probe2,1,83,NaN,bird,bear,NaN,bear1-bicycle3.png,bear1-bicycle3.png,0.0,-3.5788574,-0.80653846,-1.9603255
alexnet_w3_mlp_simclrhn_probe2,1,84,NaN,cat,bear,NaN,bear1-bird2.png,bear1-bird2.png,0.0,-2.923205,-0.032675367,-2.0439131
alexnet_w3_mlp_simclrhn_probe2,1,85,NaN,chair,bear,NaN,bear1-chair2.png,bear1-chair2.png,0.0,-3.2039976,0.55498654,-2.658003
alexnet_w3_mlp_simclrhn_probe2,1,86,NaN,bottle,bear,NaN,bear1-clock2.png,bear1-clock2.png,0.0,-9.088364,-1.4784194,-5.3810434
alexnet_w3_mlp_simclrhn_probe2,1,87,NaN,elephant,bear,NaN,bear1-elephant1.png,bear1-elephant1.png,0.0,-3.1797035,-1.1368119,-1.4445424
alexnet_w3_mlp_simclrhn_probe2,1,88,NaN,bear,bear,NaN,bear10-bear2.png,bear10-bear2.png,1.0,2.2199776,-0.4704803,1.902441
alexnet_w3_mlp_simclrhn_probe2,1,89,NaN,oven,bear,NaN,bear10-bottle1.png,bear10-bottle1.png,0.0,-4.3273497,-1.0736816,-2.300691
alexnet_w3_mlp_simclrhn_probe2,1,90,NaN,bicycle,bear,NaN,bear10-car2.png,bear10-car2.png,0.0,-7.144258,0.18052635,-5.1794047
alexnet_w3_mlp_simclrhn_probe2,1,91,NaN,cat,bear,NaN,bear10-cat2.png,bear10-cat2.png,0.0,-0.4219985,0.44758856,-0.61489093
alexnet_w3_mlp_simclrhn_probe2,1,92,NaN,chair,bear,NaN,bear10-chair2.png,bear10-chair2.png,0.0,-4.426551,0.3247161,-3.3596532
alexnet_w3_mlp_simclrhn_probe2,1,93,NaN,bicycle,bear,NaN,bear10-clock1.png,bear10-clock1.png,0.0,-8.292219,-0.66426015,-5.3937817
alexnet_w3_mlp_simclrhn_probe2,1,94,NaN,cat,bear,NaN,bear10-elephant1.png,bear10-elephant1.png,0.0,-3.4283974,-1.8351803,-1.1265746
alexnet_w3_mlp_simclrhn_probe2,1,95,NaN,keyboard,bear,NaN,bear10-keyboard3.png,bear10-keyboard3.png,0.0,-6.247285,0.43728,-4.7267013
alexnet_w3_mlp_simclrhn_probe2,1,96,NaN,oven,bear,NaN,bear10-knife2.png,bear10-knife2.png,0.0,-3.2440467,-0.88707364,-1.6666317
alexnet_w3_mlp_simclrhn_probe2,1,97,NaN,oven,bear,NaN,bear10-oven1.png,bear10-oven1.png,0.0,-5.8675714,1.1504745,-4.9625077
alexnet_w3_mlp_simclrhn_probe2,1,98,NaN,chair,bear,NaN,bear10-truck1.png,bear10-truck1.png,0.0,-9.3626995,0.70968205,-7.1222496
alexnet_w3_mlp_simclrhn_probe2,1,99,NaN,chair,bear,NaN,bear2-airplane1.png,bear2-airplane1.png,0.0,-3.8560984,-1.2269204,-1.8591096
alexnet_w3_mlp_simclrhn_probe2,1,100,NaN,elephant,bear,NaN,bear2-bird3.png,bear2-bird3.png,0.0,0.71500796,1.3997337,-0.4841742
alexnet_w3_mlp_simclrhn_probe2,1,101,NaN,bicycle,bear,NaN,bear2-car2.png,bear2-car2.png,0.0,-8.323865,-0.767502,-5.343156
alexnet_w3_mlp_simclrhn_probe2,1,102,NaN,cat,bear,NaN,bear2-cat2.png,bear2-cat2.png,0.0,0.4718081,0.81800383,-0.24479735
alexnet_w3_mlp_simclrhn_probe2,1,103,NaN,bear,bear,NaN,bear2-dog1.png,bear2-dog1.png,1.0,0.96170884,0.07758621,0.6251691
alexnet_w3_mlp_simclrhn_probe2,1,104,NaN,elephant,bear,NaN,bear2-elephant1.png,bear2-elephant1.png,0.0,-2.8973408,-0.45651084,-1.7259275
alexnet_w3_mlp_simclrhn_probe2,1,105,NaN,keyboard,bear,NaN,bear2-keyboard2.png,bear2-keyboard2.png,0.0,-8.425432,1.5233605,-7.0348587
alexnet_w3_mlp_simclrhn_probe2,1,106,NaN,knife,bear,NaN,bear2-knife2.png,bear2-knife2.png,0.0,-3.943583,-0.21332279,-2.6376922
alexnet_w3_mlp_simclrhn_probe2,1,107,NaN,knife,bear,NaN,bear2-oven1.png,bear2-oven1.png,0.0,-6.616976,-0.3621656,-4.4228187
alexnet_w3_mlp_simclrhn_probe2,1,108,NaN,knife,bear,NaN,bear3-airplane1.png,bear3-airplane1.png,0.0,-4.395932,-1.362466,-2.1449847
alexnet_w3_mlp_simclrhn_probe2,1,109,NaN,bird,bear,NaN,bear3-bicycle2.png,bear3-bicycle2.png,0.0,-2.8133812,-0.6901985,-1.5013169
alexnet_w3_mlp_simclrhn_probe2,1,110,NaN,elephant,bear,NaN,bear3-bird3.png,bear3-bird3.png,0.0,-1.5035616,-0.7868,-0.506827
alexnet_w3_mlp_simclrhn_probe2,1,111,NaN,chair,bear,NaN,bear3-car2.png,bear3-car2.png,0.0,-7.743598,-0.7477011,-4.946846
alexnet_w3_mlp_simclrhn_probe2,1,112,NaN,cat,bear,NaN,bear3-cat1.png,bear3-cat1.png,0.0,-0.46180084,1.1198175,-1.118373
alexnet_w3_mlp_simclrhn_probe2,1,113,NaN,chair,bear,NaN,bear3-chair2.png,bear3-chair2.png,0.0,-3.9682677,1.3590846,-3.767007
alexnet_w3_mlp_simclrhn_probe2,1,114,NaN,cat,bear,NaN,bear3-dog3.png,bear3-dog3.png,0.0,-0.28615877,0.5933438,-0.6219022
alexnet_w3_mlp_simclrhn_probe2,1,115,NaN,keyboard,bear,NaN,bear3-keyboard2.png,bear3-keyboard2.png,0.0,-7.325655,2.3321729,-6.8291154
alexnet_w3_mlp_simclrhn_probe2,1,116,NaN,chair,bear,NaN,bear3-truck3.png,bear3-truck3.png,0.0,-8.874814,1.4094691,-7.272086
alexnet_w3_mlp_simclrhn_probe2,1,117,NaN,bicycle,bear,NaN,bear4-boat2.png,bear4-boat2.png,0.0,-6.6470356,0.99278766,-5.402171
alexnet_w3_mlp_simclrhn_probe2,1,118,NaN,bicycle,bear,NaN,bear4-car3.png,bear4-car3.png,0.0,-8.869711,-0.65602565,-5.8079524
alexnet_w3_mlp_simclrhn_probe2,1,119,NaN,bear,bear,NaN,bear4-cat3.png,bear4-cat3.png,1.0,0.76224875,0.42480794,0.23860669
alexnet_w3_mlp_simclrhn_probe2,1,120,NaN,bottle,bear,NaN,bear4-clock3.png,bear4-clock3.png,0.0,-9.316862,-1.0565566,-5.840918
alexnet_w3_mlp_simclrhn_probe2,1,121,NaN,cat,bear,NaN,bear4-elephant2.png,bear4-elephant2.png,0.0,-1.9041326,0.098539434,-1.4161029
alexnet_w3_mlp_simclrhn_probe2,1,122,NaN,knife,bear,NaN,bear4-keyboard3.png,bear4-keyboard3.png,0.0,-6.161957,0.110310175,-4.4351625
alexnet_w3_mlp_simclrhn_probe2,1,123,NaN,knife,bear,NaN,bear4-knife1.png,bear4-knife1.png,0.0,-6.3695936,-1.6575468,-3.3319201
alexnet_w3_mlp_simclrhn_probe2,1,124,NaN,bottle,bear,NaN,bear4-oven2.png,bear4-oven2.png,0.0,-4.233521,0.26263827,-3.1792645
alexnet_w3_mlp_simclrhn_probe2,1,125,NaN,bottle,bear,NaN,bear4-truck3.png,bear4-truck3.png,0.0,-10.260476,0.20608565,-7.4009767
alexnet_w3_mlp_simclrhn_probe2,1,126,NaN,knife,bear,NaN,bear5-airplane3.png,bear5-airplane3.png,0.0,-7.714821,-0.08596428,-5.3944163
alexnet_w3_mlp_simclrhn_probe2,1,127,NaN,bird,bear,NaN,bear5-bicycle3.png,bear5-bicycle3.png,0.0,-3.654224,-1.2683557,-1.6870636
alexnet_w3_mlp_simclrhn_probe2,1,128,NaN,cat,bear,NaN,bear5-bird1.png,bear5-bird1.png,0.0,-1.7324545,-0.4362234,-0.9165738
alexnet_w3_mlp_simclrhn_probe2,1,129,NaN,oven,bear,NaN,bear5-boat2.png,bear5-boat2.png,0.0,-4.927439,0.20422626,-3.6286354
alexnet_w3_mlp_simclrhn_probe2,1,130,NaN,oven,bear,NaN,bear5-bottle1.png,bear5-bottle1.png,0.0,-3.3398926,-0.31002522,-2.1424398
alexnet_w3_mlp_simclrhn_probe2,1,131,NaN,bottle,bear,NaN,bear5-chair1.png,bear5-chair1.png,0.0,-9.612321,-0.09378718,-6.73062
alexnet_w3_mlp_simclrhn_probe2,1,132,NaN,chair,bear,NaN,bear5-oven3.png,bear5-oven3.png,0.0,-4.6373763,1.3734329,-4.2502837
alexnet_w3_mlp_simclrhn_probe2,1,133,NaN,cat,bear,NaN,bear6-bear1.png,bear6-bear1.png,0.0,0.29226717,0.3552917,-0.044565067
alexnet_w3_mlp_simclrhn_probe2,1,134,NaN,cat,bear,NaN,bear6-bird2.png,bear6-bird2.png,0.0,-3.5815976,-0.7694874,-1.9884622
alexnet_w3_mlp_simclrhn_probe2,1,135,NaN,oven,bear,NaN,bear6-boat3.png,bear6-boat3.png,0.0,-7.015202,2.5452547,-6.7602644
alexnet_w3_mlp_simclrhn_probe2,1,136,NaN,bottle,bear,NaN,bear6-bottle3.png,bear6-bottle3.png,0.0,-6.3121433,-1.7423801,-3.2313106
alexnet_w3_mlp_simclrhn_probe2,1,137,NaN,bicycle,bear,NaN,bear6-car2.png,bear6-car2.png,0.0,-7.694871,-0.7377465,-4.9194303
alexnet_w3_mlp_simclrhn_probe2,1,138,NaN,cat,bear,NaN,bear6-cat3.png,bear6-cat3.png,0.0,-0.82125586,0.9855578,-1.2776103
alexnet_w3_mlp_simclrhn_probe2,1,139,NaN,chair,bear,NaN,bear6-chair1.png,bear6-chair1.png,0.0,-12.189056,0.23401403,-8.784438
alexnet_w3_mlp_simclrhn_probe2,1,140,NaN,bottle,bear,NaN,bear6-clock1.png,bear6-clock1.png,0.0,-9.057913,-1.2029523,-5.554296
alexnet_w3_mlp_simclrhn_probe2,1,141,NaN,bear,bear,NaN,bear7-bear2.png,bear7-bear2.png,1.0,1.8684846,0.24796145,1.145883
alexnet_w3_mlp_simclrhn_probe2,1,142,NaN,bird,bear,NaN,bear7-bicycle2.png,bear7-bicycle2.png,0.0,-3.1449652,-0.92102784,-1.5725611
alexnet_w3_mlp_simclrhn_probe2,1,143,NaN,oven,bear,NaN,bear7-clock1.png,bear7-clock1.png,0.0,-5.9292793,-0.74113894,-3.6685693
alexnet_w3_mlp_simclrhn_probe2,1,144,NaN,cat,bear,NaN,bear7-dog3.png,bear7-dog3.png,0.0,0.318706,0.9434552,-0.44176438
alexnet_w3_mlp_simclrhn_probe2,1,145,NaN,oven,bear,NaN,bear7-oven3.png,bear7-oven3.png,0.0,-4.852907,2.168975,-4.9652205
alexnet_w3_mlp_simclrhn_probe2,1,146,NaN,chair,bear,NaN,bear7-truck1.png,bear7-truck1.png,0.0,-9.548253,1.0489992,-7.4933887
alexnet_w3_mlp_simclrhn_probe2,1,147,NaN,bottle,bear,NaN,bear8-airplane1.png,bear8-airplane1.png,0.0,-5.7710133,-0.38531753,-3.808262
alexnet_w3_mlp_simclrhn_probe2,1,148,NaN,bear,bear,NaN,bear8-bear1.png,bear8-bear1.png,1.0,1.1149309,-0.43520665,1.0961127
alexnet_w3_mlp_simclrhn_probe2,1,149,NaN,bicycle,bear,NaN,bear8-bicycle3.png,bear8-bicycle3.png,0.0,-4.4425116,-1.7294184,-1.9184467
alexnet_w3_mlp_simclrhn_probe2,1,150,NaN,chair,bear,NaN,bear8-boat2.png,bear8-boat2.png,0.0,-5.715724,0.004808128,-4.045027
alexnet_w3_mlp_simclrhn_probe2,1,151,NaN,oven,bear,NaN,bear8-bottle1.png,bear8-bottle1.png,0.0,-3.8498466,-0.8068818,-2.1517012
alexnet_w3_mlp_simclrhn_probe2,1,152,NaN,bear,bear,NaN,bear8-dog1.png,bear8-dog1.png,1.0,0.87378114,0.052440975,0.5807752
alexnet_w3_mlp_simclrhn_probe2,1,153,NaN,elephant,bear,NaN,bear8-elephant2.png,bear8-elephant2.png,0.0,-1.7225707,0.42737594,-1.5202419
alexnet_w3_mlp_simclrhn_probe2,1,154,NaN,knife,bear,NaN,bear8-knife3.png,bear8-knife3.png,0.0,-3.2852404,-0.6625895,-1.8544942
alexnet_w3_mlp_simclrhn_probe2,1,155,NaN,bottle,bear,NaN,bear8-truck3.png,bear8-truck3.png,0.0,-10.959154,0.8741959,-8.367442
alexnet_w3_mlp_simclrhn_probe2,1,156,NaN,oven,bear,NaN,bear9-boat2.png,bear9-boat2.png,0.0,-4.2956343,0.72698987,-3.5515316
alexnet_w3_mlp_simclrhn_probe2,1,157,NaN,bottle,bear,NaN,bear9-bottle2.png,bear9-bottle2.png,0.0,-6.6164603,0.5662307,-5.07893
alexnet_w3_mlp_simclrhn_probe2,1,158,NaN,bear,bear,NaN,bear9-dog1.png,bear9-dog1.png,1.0,1.3323104,0.21486945,0.7901501
alexnet_w3_mlp_simclrhn_probe2,1,159,NaN,keyboard,bear,NaN,bear9-keyboard3.png,bear9-keyboard3.png,0.0,-6.535075,1.4808053,-5.6680837
alexnet_w3_mlp_simclrhn_probe2,1,160,NaN,oven,bear,NaN,bear9-knife2.png,bear9-knife2.png,0.0,-3.1663797,0.6688439,-2.7119126
alexnet_w3_mlp_simclrhn_probe2,1,161,NaN,bicycle,bicycle,NaN,bicycle1-airplane2.png,bicycle1-airplane2.png,1.0,2.1492033,0.3019154,1.3062298
alexnet_w3_mlp_simclrhn_probe2,1,162,NaN,elephant,bicycle,NaN,bicycle1-bear1.png,bicycle1-bear1.png,0.0,-6.2029247,-0.83946157,-3.7925415
alexnet_w3_mlp_simclrhn_probe2,1,163,NaN,bicycle,bicycle,NaN,bicycle1-bicycle3.png,bicycle1-bicycle3.png,1.0,5.7556934,-1.4139832,5.069727
alexnet_w3_mlp_simclrhn_probe2,1,164,NaN,knife,bicycle,NaN,bicycle1-bird1.png,bicycle1-bird1.png,0.0,-2.9957533,-1.1095575,-1.3337419
alexnet_w3_mlp_simclrhn_probe2,1,165,NaN,bicycle,bicycle,NaN,bicycle1-boat3.png,bicycle1-boat3.png,1.0,-0.055058092,-0.56824,0.36287442
alexnet_w3_mlp_simclrhn_probe2,1,166,NaN,bicycle,bicycle,NaN,bicycle1-bottle3.png,bicycle1-bottle3.png,1.0,13.5560055,-1.1526456,10.400587
alexnet_w3_mlp_simclrhn_probe2,1,167,NaN,chair,bicycle,NaN,bicycle1-chair1.png,bicycle1-chair1.png,0.0,-1.3432392,0.59696686,-1.3719329
alexnet_w3_mlp_simclrhn_probe2,1,168,NaN,bicycle,bicycle,NaN,bicycle1-clock3.png,bicycle1-clock3.png,1.0,5.8125834,1.483735,3.0609581
alexnet_w3_mlp_simclrhn_probe2,1,169,NaN,cat,bicycle,NaN,bicycle1-dog3.png,bicycle1-dog3.png,0.0,-8.422185,-0.49661693,-5.6042233
alexnet_w3_mlp_simclrhn_probe2,1,170,NaN,elephant,bicycle,NaN,bicycle1-elephant2.png,bicycle1-elephant2.png,0.0,-2.0286365,-0.8482533,-0.83465695
alexnet_w3_mlp_simclrhn_probe2,1,171,NaN,bottle,bicycle,NaN,bicycle1-knife3.png,bicycle1-knife3.png,0.0,-2.6476574,0.33202165,-2.1069512
alexnet_w3_mlp_simclrhn_probe2,1,172,NaN,knife,bicycle,NaN,bicycle1-oven1.png,bicycle1-oven1.png,0.0,-4.752482,1.8354038,-4.658339
alexnet_w3_mlp_simclrhn_probe2,1,173,NaN,bicycle,bicycle,NaN,bicycle1-truck1.png,bicycle1-truck1.png,1.0,8.038275,1.8523232,4.3741283
alexnet_w3_mlp_simclrhn_probe2,1,174,NaN,car,bicycle,NaN,bicycle10-airplane2.png,bicycle10-airplane2.png,0.0,0.20986152,1.3332926,-0.79438573
alexnet_w3_mlp_simclrhn_probe2,1,175,NaN,truck,bicycle,NaN,bicycle10-boat3.png,bicycle10-boat3.png,0.0,-0.5682283,0.7080306,-0.9024514
alexnet_w3_mlp_simclrhn_probe2,1,176,NaN,bicycle,bicycle,NaN,bicycle10-clock2.png,bicycle10-clock2.png,1.0,5.646038,1.2552146,3.104781
alexnet_w3_mlp_simclrhn_probe2,1,177,NaN,cat,bicycle,NaN,bicycle10-dog3.png,bicycle10-dog3.png,0.0,-9.024475,-0.68656,-5.895797
alexnet_w3_mlp_simclrhn_probe2,1,178,NaN,elephant,bicycle,NaN,bicycle10-elephant2.png,bicycle10-elephant2.png,0.0,-2.448943,-0.42924947,-1.4281389
alexnet_w3_mlp_simclrhn_probe2,1,179,NaN,bicycle,bicycle,NaN,bicycle2-bicycle1.png,bicycle2-bicycle1.png,1.0,1.6258123,-3.6064758,3.6997867
alexnet_w3_mlp_simclrhn_probe2,1,180,NaN,knife,bicycle,NaN,bicycle2-bird3.png,bicycle2-bird3.png,0.0,-2.0763369,-1.7421846,-0.2362813
alexnet_w3_mlp_simclrhn_probe2,1,181,NaN,bicycle,bicycle,NaN,bicycle2-bottle1.png,bicycle2-bottle1.png,1.0,-0.83382106,-1.2173381,0.27118748
alexnet_w3_mlp_simclrhn_probe2,1,182,NaN,bicycle,bicycle,NaN,bicycle2-car2.png,bicycle2-car2.png,1.0,1.249464,-1.1044261,1.6644517
alexnet_w3_mlp_simclrhn_probe2,1,183,NaN,cat,bicycle,NaN,bicycle2-dog1.png,bicycle2-dog1.png,0.0,-8.034111,-0.099756144,-5.610436
alexnet_w3_mlp_simclrhn_probe2,1,184,NaN,knife,bicycle,NaN,bicycle2-keyboard2.png,bicycle2-keyboard2.png,0.0,-3.6858976,0.23295328,-2.7710462
alexnet_w3_mlp_simclrhn_probe2,1,185,NaN,chair,bicycle,NaN,bicycle2-knife2.png,bicycle2-knife2.png,0.0,-1.7109118,-0.14609858,-1.10649
alexnet_w3_mlp_simclrhn_probe2,1,186,NaN,cat,bicycle,NaN,bicycle3-bird1.png,bicycle3-bird1.png,0.0,-3.3791528,-0.5098578,-2.028898
alexnet_w3_mlp_simclrhn_probe2,1,187,NaN,cat,bicycle,NaN,bicycle3-elephant2.png,bicycle3-elephant2.png,0.0,-2.2888525,-0.32460484,-1.3889328
alexnet_w3_mlp_simclrhn_probe2,1,188,NaN,bicycle,bicycle,NaN,bicycle3-keyboard1.png,bicycle3-keyboard1.png,1.0,3.402866,-1.6367362,3.5635371
alexnet_w3_mlp_simclrhn_probe2,1,189,NaN,chair,bicycle,NaN,bicycle3-oven3.png,bicycle3-oven3.png,0.0,-2.6374822,1.5786114,-2.9812284
alexnet_w3_mlp_simclrhn_probe2,1,190,NaN,chair,bicycle,NaN,bicycle3-truck3.png,bicycle3-truck3.png,0.0,-5.0295973,0.42803153,-3.8591263
alexnet_w3_mlp_simclrhn_probe2,1,191,NaN,bicycle,bicycle,NaN,bicycle4-airplane1.png,bicycle4-airplane1.png,1.0,2.4686484,-0.24676827,1.9200896
alexnet_w3_mlp_simclrhn_probe2,1,192,NaN,bicycle,bicycle,NaN,bicycle4-bicycle3.png,bicycle4-bicycle3.png,1.0,3.9248624,-1.9974549,4.187711
alexnet_w3_mlp_simclrhn_probe2,1,193,NaN,bicycle,bicycle,NaN,bicycle4-boat1.png,bicycle4-boat1.png,1.0,5.8490562,-0.7331718,4.6543384
alexnet_w3_mlp_simclrhn_probe2,1,194,NaN,clock,bicycle,NaN,bicycle4-bottle1.png,bicycle4-bottle1.png,0.0,-2.1618795,-1.6916475,-0.33250424
alexnet_w3_mlp_simclrhn_probe2,1,195,NaN,bicycle,bicycle,NaN,bicycle4-car2.png,bicycle4-car2.png,1.0,5.7187424,-0.9823962,4.7384205
alexnet_w3_mlp_simclrhn_probe2,1,196,NaN,cat,bicycle,NaN,bicycle4-cat1.png,bicycle4-cat1.png,0.0,-10.982393,1.777783,-9.022808
alexnet_w3_mlp_simclrhn_probe2,1,197,NaN,bicycle,bicycle,NaN,bicycle4-chair2.png,bicycle4-chair2.png,1.0,0.86702776,0.15064698,0.5065577
alexnet_w3_mlp_simclrhn_probe2,1,198,NaN,bicycle,bicycle,NaN,bicycle4-clock3.png,bicycle4-clock3.png,1.0,2.019119,-0.14192359,1.528088
alexnet_w3_mlp_simclrhn_probe2,1,199,NaN,knife,bicycle,NaN,bicycle4-keyboard3.png,bicycle4-keyboard3.png,0.0,-3.431847,-0.43135196,-2.1216705
alexnet_w3_mlp_simclrhn_probe2,1,200,NaN,bottle,bicycle,NaN,bicycle4-knife3.png,bicycle4-knife3.png,0.0,-3.9880118,-1.8332417,-1.5236526
alexnet_w3_mlp_simclrhn_probe2,1,201,NaN,chair,bicycle,NaN,bicycle4-oven3.png,bicycle4-oven3.png,0.0,-2.1765292,1.1886655,-2.3795521
alexnet_w3_mlp_simclrhn_probe2,1,202,NaN,chair,bicycle,NaN,bicycle4-truck3.png,bicycle4-truck3.png,0.0,-4.1112914,0.55842924,-3.3019912
alexnet_w3_mlp_simclrhn_probe2,1,203,NaN,cat,bicycle,NaN,bicycle5-bear1.png,bicycle5-bear1.png,0.0,-6.597476,-0.33911705,-4.4253283
alexnet_w3_mlp_simclrhn_probe2,1,204,NaN,bicycle,bicycle,NaN,bicycle5-bottle3.png,bicycle5-bottle3.png,1.0,6.1138844,-2.607445,6.1669116
alexnet_w3_mlp_simclrhn_probe2,1,205,NaN,bicycle,bicycle,NaN,bicycle5-car3.png,bicycle5-car3.png,1.0,7.3949103,-0.13407323,5.3237953
alexnet_w3_mlp_simclrhn_probe2,1,206,NaN,cat,bicycle,NaN,bicycle5-cat1.png,bicycle5-cat1.png,0.0,-6.186367,0.27830532,-4.5712137
alexnet_w3_mlp_simclrhn_probe2,1,207,NaN,bicycle,bicycle,NaN,bicycle5-chair2.png,bicycle5-chair2.png,1.0,0.9165861,0.17993858,0.52088845
alexnet_w3_mlp_simclrhn_probe2,1,208,NaN,cat,bicycle,NaN,bicycle5-dog2.png,bicycle5-dog2.png,0.0,-3.3555636,-0.21281044,-2.2222621
alexnet_w3_mlp_simclrhn_probe2,1,209,NaN,bicycle,bicycle,NaN,bicycle5-elephant1.png,bicycle5-elephant1.png,1.0,-1.1534252,-1.7803411,0.44329652
alexnet_w3_mlp_simclrhn_probe2,1,210,NaN,knife,bicycle,NaN,bicycle5-keyboard3.png,bicycle5-keyboard3.png,0.0,-3.4858932,0.06632549,-2.511798
alexnet_w3_mlp_simclrhn_probe2,1,211,NaN,chair,bicycle,NaN,bicycle5-oven3.png,bicycle5-oven3.png,0.0,-2.429074,1.4448562,-2.7392824
alexnet_w3_mlp_simclrhn_probe2,1,212,NaN,chair,bicycle,NaN,bicycle6-airplane2.png,bicycle6-airplane2.png,0.0,-3.1440468,0.645313,-2.679482
alexnet_w3_mlp_simclrhn_probe2,1,213,NaN,bicycle,bicycle,NaN,bicycle6-bicycle3.png,bicycle6-bicycle3.png,1.0,0.14916284,-2.5294461,1.8940625
alexnet_w3_mlp_simclrhn_probe2,1,214,NaN,bicycle,bicycle,NaN,bicycle6-boat2.png,bicycle6-boat2.png,1.0,1.6541681,1.1230006,0.37559214
alexnet_w3_mlp_simclrhn_probe2,1,215,NaN,bicycle,bicycle,NaN,bicycle6-car2.png,bicycle6-car2.png,1.0,1.1035142,-0.7205863,1.2898339
alexnet_w3_mlp_simclrhn_probe2,1,216,NaN,cat,bicycle,NaN,bicycle6-cat1.png,bicycle6-cat1.png,0.0,-9.530902,1.0420011,-7.4761715
alexnet_w3_mlp_simclrhn_probe2,1,217,NaN,cat,bicycle,NaN,bicycle6-dog2.png,bicycle6-dog2.png,0.0,-4.2426653,0.3890065,-3.2750866
alexnet_w3_mlp_simclrhn_probe2,1,218,NaN,elephant,bicycle,NaN,bicycle7-bear2.png,bicycle7-bear2.png,0.0,-4.854416,0.63132924,-3.8790076
alexnet_w3_mlp_simclrhn_probe2,1,219,NaN,bicycle,bicycle,NaN,bicycle7-bicycle2.png,bicycle7-bicycle2.png,1.0,7.7990513,-2.3577611,7.181951
alexnet_w3_mlp_simclrhn_probe2,1,220,NaN,cat,bicycle,NaN,bicycle7-cat1.png,bicycle7-cat1.png,0.0,-8.720729,0.38289163,-6.437232
alexnet_w3_mlp_simclrhn_probe2,1,221,NaN,bicycle,bicycle,NaN,bicycle7-clock3.png,bicycle7-clock3.png,1.0,4.0207543,1.086823,2.0746028
alexnet_w3_mlp_simclrhn_probe2,1,222,NaN,elephant,bicycle,NaN,bicycle7-elephant2.png,bicycle7-elephant2.png,0.0,-2.4145684,-0.9771083,-1.0164379
alexnet_w3_mlp_simclrhn_probe2,1,223,NaN,bicycle,bicycle,NaN,bicycle7-knife2.png,bicycle7-knife2.png,1.0,0.21797654,0.17655739,0.029287761
alexnet_w3_mlp_simclrhn_probe2,1,224,NaN,knife,bicycle,NaN,bicycle7-oven1.png,bicycle7-oven1.png,0.0,-4.2264915,1.4948964,-4.0456324
alexnet_w3_mlp_simclrhn_probe2,1,225,NaN,bottle,bicycle,NaN,bicycle7-truck3.png,bicycle7-truck3.png,0.0,-5.3653917,0.7931261,-4.3547297
alexnet_w3_mlp_simclrhn_probe2,1,226,NaN,elephant,bicycle,NaN,bicycle8-bear2.png,bicycle8-bear2.png,0.0,-3.829398,-0.28590032,-2.5056312
alexnet_w3_mlp_simclrhn_probe2,1,227,NaN,bicycle,bicycle,NaN,bicycle8-bird2.png,bicycle8-bird2.png,1.0,4.5096307,-2.2807443,4.8015203
alexnet_w3_mlp_simclrhn_probe2,1,228,NaN,bicycle,bicycle,NaN,bicycle8-boat1.png,bicycle8-boat1.png,1.0,10.392894,0.10960102,7.271386
alexnet_w3_mlp_simclrhn_probe2,1,229,NaN,bicycle,bicycle,NaN,bicycle8-chair2.png,bicycle8-chair2.png,1.0,2.176233,0.34414408,1.2954825
alexnet_w3_mlp_simclrhn_probe2,1,230,NaN,bicycle,bicycle,NaN,bicycle8-clock3.png,bicycle8-clock3.png,1.0,2.123105,0.26959285,1.310631
alexnet_w3_mlp_simclrhn_probe2,1,231,NaN,bicycle,bicycle,NaN,bicycle8-truck1.png,bicycle8-truck1.png,1.0,5.9517384,0.046115607,4.175906
alexnet_w3_mlp_simclrhn_probe2,1,232,NaN,bicycle,bicycle,NaN,bicycle9-airplane2.png,bicycle9-airplane2.png,1.0,4.758665,0.7899593,2.8062987
alexnet_w3_mlp_simclrhn_probe2,1,233,NaN,cat,bicycle,NaN,bicycle9-bear1.png,bicycle9-bear1.png,0.0,-6.8995056,-0.35830536,-4.625327
alexnet_w3_mlp_simclrhn_probe2,1,234,NaN,bicycle,bicycle,NaN,bicycle9-bird3.png,bicycle9-bird3.png,1.0,2.7618551,-0.48002848,2.292358
alexnet_w3_mlp_simclrhn_probe2,1,235,NaN,bicycle,bicycle,NaN,bicycle9-bottle1.png,bicycle9-bottle1.png,1.0,1.9723139,-1.785022,2.6568377
alexnet_w3_mlp_simclrhn_probe2,1,236,NaN,bicycle,bicycle,NaN,bicycle9-car1.png,bicycle9-car1.png,1.0,13.691711,0.20380062,9.537394
alexnet_w3_mlp_simclrhn_probe2,1,237,NaN,cat,bicycle,NaN,bicycle9-cat3.png,bicycle9-cat3.png,0.0,-5.8111143,-0.08857942,-4.0464435
alexnet_w3_mlp_simclrhn_probe2,1,238,NaN,bicycle,bicycle,NaN,bicycle9-chair1.png,bicycle9-chair1.png,1.0,1.140996,0.8123282,0.2324032
alexnet_w3_mlp_simclrhn_probe2,1,239,NaN,car,bicycle,NaN,bicycle9-keyboard3.png,bicycle9-keyboard3.png,0.0,-3.2144988,-0.0851163,-2.2128074
alexnet_w3_mlp_simclrhn_probe2,1,240,NaN,bottle,bicycle,NaN,bicycle9-knife3.png,bicycle9-knife3.png,0.0,-2.3730667,0.59230334,-2.0968332
alexnet_w3_mlp_simclrhn_probe2,1,241,NaN,chair,bird,NaN,bird1-airplane2.png,bird1-airplane2.png,0.0,-9.531824,-1.7845762,-5.4781313
alexnet_w3_mlp_simclrhn_probe2,1,242,NaN,cat,bird,NaN,bird1-bear1.png,bird1-bear1.png,0.0,-2.3738399,-0.22209187,-1.5215156
alexnet_w3_mlp_simclrhn_probe2,1,243,NaN,bird,bird,NaN,bird1-bicycle2.png,bird1-bicycle2.png,1.0,-1.0129162,-1.6347644,0.4397131
alexnet_w3_mlp_simclrhn_probe2,1,244,NaN,bicycle,bird,NaN,bird1-boat1.png,bird1-boat1.png,0.0,-8.137312,0.24437653,-5.9267488
alexnet_w3_mlp_simclrhn_probe2,1,245,NaN,oven,bird,NaN,bird1-chair2.png,bird1-chair2.png,0.0,-4.1099687,0.48147848,-3.2466435
alexnet_w3_mlp_simclrhn_probe2,1,246,NaN,bottle,bird,NaN,bird1-clock3.png,bird1-clock3.png,0.0,-9.303812,0.087862015,-6.6409163
alexnet_w3_mlp_simclrhn_probe2,1,247,NaN,elephant,bird,NaN,bird1-elephant2.png,bird1-elephant2.png,0.0,-1.1131549,0.30889755,-1.0055429
alexnet_w3_mlp_simclrhn_probe2,1,248,NaN,knife,bird,NaN,bird1-keyboard3.png,bird1-keyboard3.png,0.0,-2.668501,0.011125719,-1.8947823
alexnet_w3_mlp_simclrhn_probe2,1,249,NaN,knife,bird,NaN,bird1-knife3.png,bird1-knife3.png,0.0,-2.9579031,-0.29685768,-1.8816434
alexnet_w3_mlp_simclrhn_probe2,1,250,NaN,knife,bird,NaN,bird1-oven1.png,bird1-oven1.png,0.0,-5.9416733,1.2908454,-5.114163
alexnet_w3_mlp_simclrhn_probe2,1,251,NaN,chair,bird,NaN,bird1-truck1.png,bird1-truck1.png,0.0,-7.1409245,1.0506266,-5.7923017
alexnet_w3_mlp_simclrhn_probe2,1,252,NaN,bear,bird,NaN,bird10-bear2.png,bird10-bear2.png,0.0,-2.596043,0.32850054,-2.0679646
alexnet_w3_mlp_simclrhn_probe2,1,253,NaN,bicycle,bird,NaN,bird10-bicycle1.png,bird10-bicycle1.png,0.0,-2.2294872,-1.6286101,-0.42488423
alexnet_w3_mlp_simclrhn_probe2,1,254,NaN,bird,bird,NaN,bird10-bird2.png,bird10-bird2.png,1.0,1.3999847,-2.8219192,2.9853368
alexnet_w3_mlp_simclrhn_probe2,1,255,NaN,cat,bird,NaN,bird10-cat1.png,bird10-cat1.png,0.0,-4.5562,0.6084942,-3.6519904
alexnet_w3_mlp_simclrhn_probe2,1,256,NaN,chair,bird,NaN,bird10-chair1.png,bird10-chair1.png,0.0,-9.376144,-0.41277817,-6.3380575
alexnet_w3_mlp_simclrhn_probe2,1,257,NaN,bicycle,bird,NaN,bird10-clock1.png,bird10-clock1.png,0.0,-6.7318444,-1.3502719,-3.8053467
alexnet_w3_mlp_simclrhn_probe2,1,258,NaN,elephant,bird,NaN,bird10-elephant2.png,bird10-elephant2.png,0.0,-1.305789,0.02348116,-0.9399359
alexnet_w3_mlp_simclrhn_probe2,1,259,NaN,knife,bird,NaN,bird2-airplane3.png,bird2-airplane3.png,0.0,-6.6195207,-0.25626397,-4.4995017
alexnet_w3_mlp_simclrhn_probe2,1,260,NaN,bicycle,bird,NaN,bird2-bird2.png,bird2-bird2.png,0.0,-1.6665584,-0.50079453,-0.82431954
alexnet_w3_mlp_simclrhn_probe2,1,261,NaN,bicycle,bird,NaN,bird2-car3.png,bird2-car3.png,0.0,-5.4008484,1.7434453,-5.051779
alexnet_w3_mlp_simclrhn_probe2,1,262,NaN,bottle,bird,NaN,bird2-clock3.png,bird2-clock3.png,0.0,-7.1717467,-0.6073847,-4.641705
alexnet_w3_mlp_simclrhn_probe2,1,263,NaN,cat,bird,NaN,bird2-dog2.png,bird2-dog2.png,0.0,-2.5134768,0.51681775,-2.142742
alexnet_w3_mlp_simclrhn_probe2,1,264,NaN,bicycle,bird,NaN,bird2-knife1.png,bird2-knife1.png,0.0,-6.787162,-0.040454477,-4.7706428
alexnet_w3_mlp_simclrhn_probe2,1,265,NaN,cat,bird,NaN,bird3-bear3.png,bird3-bear3.png,0.0,-0.41383517,0.07319447,-0.34438196
alexnet_w3_mlp_simclrhn_probe2,1,266,NaN,bird,bird,NaN,bird3-bird2.png,bird3-bird2.png,1.0,0.3913658,-1.6258988,1.4264215
alexnet_w3_mlp_simclrhn_probe2,1,267,NaN,oven,bird,NaN,bird3-boat3.png,bird3-boat3.png,0.0,-4.90141,-0.40295285,-3.1808898
alexnet_w3_mlp_simclrhn_probe2,1,268,NaN,bottle,bird,NaN,bird3-bottle2.png,bird3-bottle2.png,0.0,-5.872349,0.9937629,-4.8550744
alexnet_w3_mlp_simclrhn_probe2,1,269,NaN,cat,bird,NaN,bird3-cat1.png,bird3-cat1.png,0.0,-3.2334685,0.9525592,-2.9599686
alexnet_w3_mlp_simclrhn_probe2,1,270,NaN,cat,bird,NaN,bird3-dog1.png,bird3-dog1.png,0.0,-1.8465246,0.072202824,-1.3567451
alexnet_w3_mlp_simclrhn_probe2,1,271,NaN,knife,bird,NaN,bird3-knife3.png,bird3-knife3.png,0.0,-3.0071206,-0.04047993,-2.0977318
alexnet_w3_mlp_simclrhn_probe2,1,272,NaN,knife,bird,NaN,bird3-oven1.png,bird3-oven1.png,0.0,-2.254436,0.6188937,-2.031751
alexnet_w3_mlp_simclrhn_probe2,1,273,NaN,knife,bird,NaN,bird3-truck3.png,bird3-truck3.png,0.0,-6.9333267,0.45826167,-5.226642
alexnet_w3_mlp_simclrhn_probe2,1,274,NaN,chair,bird,NaN,bird4-airplane1.png,bird4-airplane1.png,0.0,-5.1310215,-0.45573592,-3.305926
alexnet_w3_mlp_simclrhn_probe2,1,275,NaN,bird,bird,NaN,bird4-bicycle2.png,bird4-bicycle2.png,1.0,-1.1757919,-1.2798203,0.07355923
alexnet_w3_mlp_simclrhn_probe2,1,276,NaN,cat,bird,NaN,bird4-cat3.png,bird4-cat3.png,0.0,-4.0646615,1.429831,-3.885193
alexnet_w3_mlp_simclrhn_probe2,1,277,NaN,oven,bird,NaN,bird4-clock1.png,bird4-clock1.png,0.0,-5.1583977,0.12383949,-3.7351058
alexnet_w3_mlp_simclrhn_probe2,1,278,NaN,cat,bird,NaN,bird4-dog3.png,bird4-dog3.png,0.0,-5.6258645,1.0845481,-4.7449784
alexnet_w3_mlp_simclrhn_probe2,1,279,NaN,knife,bird,NaN,bird5-airplane3.png,bird5-airplane3.png,0.0,-4.098001,-0.4342925,-2.5906332
alexnet_w3_mlp_simclrhn_probe2,1,280,NaN,cat,bird,NaN,bird5-bear3.png,bird5-bear3.png,0.0,-0.5482333,0.15318759,-0.49597946
alexnet_w3_mlp_simclrhn_probe2,1,281,NaN,bird,bird,NaN,bird5-bicycle1.png,bird5-bicycle1.png,1.0,-0.8049945,-3.4828506,1.8935301
alexnet_w3_mlp_simclrhn_probe2,1,282,NaN,bird,bird,NaN,bird5-bird1.png,bird5-bird1.png,1.0,-0.020485425,-0.38167462,0.25539932
alexnet_w3_mlp_simclrhn_probe2,1,283,NaN,bicycle,bird,NaN,bird5-car2.png,bird5-car2.png,0.0,-3.9275606,0.22767203,-2.938193
alexnet_w3_mlp_simclrhn_probe2,1,284,NaN,cat,bird,NaN,bird5-cat2.png,bird5-cat2.png,0.0,-1.2837076,-0.08034002,-0.8509094
alexnet_w3_mlp_simclrhn_probe2,1,285,NaN,airplane,bird,NaN,bird5-chair1.png,bird5-chair1.png,0.0,-7.455096,0.72635746,-5.7851615
alexnet_w3_mlp_simclrhn_probe2,1,286,NaN,cat,bird,NaN,bird5-dog2.png,bird5-dog2.png,0.0,-2.4556081,0.017617166,-1.7488345
alexnet_w3_mlp_simclrhn_probe2,1,287,NaN,knife,bird,NaN,bird5-keyboard2.png,bird5-keyboard2.png,0.0,-5.183984,1.0684047,-4.4211063
alexnet_w3_mlp_simclrhn_probe2,1,288,NaN,chair,bird,NaN,bird5-oven3.png,bird5-oven3.png,0.0,-5.535757,1.5011618,-4.975853
alexnet_w3_mlp_simclrhn_probe2,1,289,NaN,chair,bird,NaN,bird5-truck2.png,bird5-truck2.png,0.0,-6.894594,1.100132,-5.6531253
alexnet_w3_mlp_simclrhn_probe2,1,290,NaN,airplane,bird,NaN,bird6-airplane2.png,bird6-airplane2.png,0.0,-4.0737095,-0.5789307,-2.4711819
alexnet_w3_mlp_simclrhn_probe2,1,291,NaN,bicycle,bird,NaN,bird6-boat2.png,bird6-boat2.png,0.0,-5.893419,0.9588309,-4.845272
alexnet_w3_mlp_simclrhn_probe2,1,292,NaN,bird,bird,NaN,bird6-bottle3.png,bird6-bottle3.png,1.0,-2.3439877,-2.531916,0.1328853
alexnet_w3_mlp_simclrhn_probe2,1,293,NaN,bicycle,bird,NaN,bird6-car3.png,bird6-car3.png,0.0,-5.506692,-0.16214159,-3.7791677
alexnet_w3_mlp_simclrhn_probe2,1,294,NaN,elephant,bird,NaN,bird6-elephant2.png,bird6-elephant2.png,0.0,-1.5003011,0.09984177,-1.131472
alexnet_w3_mlp_simclrhn_probe2,1,295,NaN,knife,bird,NaN,bird6-oven1.png,bird6-oven1.png,0.0,-4.2624006,0.19368404,-3.1509278
alexnet_w3_mlp_simclrhn_probe2,1,296,NaN,chair,bird,NaN,bird6-truck2.png,bird6-truck2.png,0.0,-7.8881445,1.6603208,-6.751785
alexnet_w3_mlp_simclrhn_probe2,1,297,NaN,bird,bird,NaN,bird7-bird2.png,bird7-bird2.png,1.0,-1.7644434,-2.152624,0.27448505
alexnet_w3_mlp_simclrhn_probe2,1,298,NaN,chair,bird,NaN,bird7-boat1.png,bird7-boat1.png,0.0,-9.076123,0.6959944,-6.9099307
alexnet_w3_mlp_simclrhn_probe2,1,299,NaN,oven,bird,NaN,bird7-bottle1.png,bird7-bottle1.png,0.0,-3.5117505,0.103412926,-2.5563066
alexnet_w3_mlp_simclrhn_probe2,1,300,NaN,bicycle,bird,NaN,bird7-car2.png,bird7-car2.png,0.0,-8.115964,0.18443297,-5.869267
alexnet_w3_mlp_simclrhn_probe2,1,301,NaN,cat,bird,NaN,bird7-cat3.png,bird7-cat3.png,0.0,-3.1738973,0.30616465,-2.4607754
alexnet_w3_mlp_simclrhn_probe2,1,302,NaN,knife,bird,NaN,bird7-keyboard3.png,bird7-keyboard3.png,0.0,-3.0464935,-0.34129348,-1.9128653
alexnet_w3_mlp_simclrhn_probe2,1,303,NaN,oven,bird,NaN,bird7-knife2.png,bird7-knife2.png,0.0,-4.5447984,-0.021235064,-3.1986425
alexnet_w3_mlp_simclrhn_probe2,1,304,NaN,chair,bird,NaN,bird7-oven3.png,bird7-oven3.png,0.0,-4.9963446,1.3335087,-4.475882
alexnet_w3_mlp_simclrhn_probe2,1,305,NaN,chair,bird,NaN,bird7-truck2.png,bird7-truck2.png,0.0,-8.998098,-0.13533965,-6.2669168
alexnet_w3_mlp_simclrhn_probe2,1,306,NaN,boat,bird,NaN,bird8-boat3.png,bird8-boat3.png,0.0,-6.887077,0.66451895,-5.3397846
alexnet_w3_mlp_simclrhn_probe2,1,307,NaN,bicycle,bird,NaN,bird8-bottle1.png,bird8-bottle1.png,0.0,-3.2459948,-1.9567144,-0.91165894
alexnet_w3_mlp_simclrhn_probe2,1,308,NaN,bicycle,bird,NaN,bird8-car2.png,bird8-car2.png,0.0,-5.3193536,0.32659185,-3.9922864
alexnet_w3_mlp_simclrhn_probe2,1,309,NaN,chair,bird,NaN,bird8-chair1.png,bird8-chair1.png,0.0,-9.000271,0.28333384,-6.5645
alexnet_w3_mlp_simclrhn_probe2,1,310,NaN,bicycle,bird,NaN,bird8-clock1.png,bird8-clock1.png,0.0,-7.597251,-1.0653391,-4.618759
alexnet_w3_mlp_simclrhn_probe2,1,311,NaN,elephant,bird,NaN,bird8-elephant1.png,bird8-elephant1.png,0.0,-1.5220084,-1.2501924,-0.19220296
alexnet_w3_mlp_simclrhn_probe2,1,312,NaN,knife,bird,NaN,bird8-keyboard2.png,bird8-keyboard2.png,0.0,-5.184097,0.27429172,-3.8596635
alexnet_w3_mlp_simclrhn_probe2,1,313,NaN,knife,bird,NaN,bird8-knife2.png,bird8-knife2.png,0.0,-4.024577,-0.29718095,-2.6356673
alexnet_w3_mlp_simclrhn_probe2,1,314,NaN,cat,bird,NaN,bird9-bear3.png,bird9-bear3.png,0.0,-1.8064675,0.26212904,-1.4627187
alexnet_w3_mlp_simclrhn_probe2,1,315,NaN,bird,bird,NaN,bird9-bicycle3.png,bird9-bicycle3.png,1.0,-1.3453507,-1.6208638,0.19481716
alexnet_w3_mlp_simclrhn_probe2,1,316,NaN,bird,bird,NaN,bird9-bottle3.png,bird9-bottle3.png,1.0,0.55262786,-3.057287,2.5525954
alexnet_w3_mlp_simclrhn_probe2,1,317,NaN,bottle,bird,NaN,bird9-chair1.png,bird9-chair1.png,0.0,-6.4252934,-0.9023091,-3.90534
alexnet_w3_mlp_simclrhn_probe2,1,318,NaN,cat,bird,NaN,bird9-dog2.png,bird9-dog2.png,0.0,-3.119632,0.19230218,-2.3418913
alexnet_w3_mlp_simclrhn_probe2,1,319,NaN,elephant,bird,NaN,bird9-elephant2.png,bird9-elephant2.png,0.0,-1.5079393,-0.03841895,-1.0391078
alexnet_w3_mlp_simclrhn_probe2,1,320,NaN,bicycle,bird,NaN,bird9-keyboard1.png,bird9-keyboard1.png,0.0,-3.0140586,-1.0909851,-1.3598183
alexnet_w3_mlp_simclrhn_probe2,1,321,NaN,cat,boat,NaN,boat1-bear1.png,boat1-bear1.png,0.0,-7.362352,-0.11808914,-5.1224675
alexnet_w3_mlp_simclrhn_probe2,1,322,NaN,bicycle,boat,NaN,boat1-bicycle2.png,boat1-bicycle2.png,0.0,-4.4931803,-0.8665987,-2.5643806
alexnet_w3_mlp_simclrhn_probe2,1,323,NaN,knife,boat,NaN,boat1-bird3.png,boat1-bird3.png,0.0,-4.5488157,0.085024916,-3.2766201
alexnet_w3_mlp_simclrhn_probe2,1,324,NaN,bicycle,boat,NaN,boat1-car2.png,boat1-car2.png,0.0,-3.144389,-0.6707486,-1.749128
alexnet_w3_mlp_simclrhn_probe2,1,325,NaN,airplane,boat,NaN,boat1-chair3.png,boat1-chair3.png,0.0,-1.4620863,1.8829806,-2.3653197
alexnet_w3_mlp_simclrhn_probe2,1,326,NaN,bird,boat,NaN,boat1-elephant3.png,boat1-elephant3.png,0.0,-3.2022228,-1.1691531,-1.4375973
alexnet_w3_mlp_simclrhn_probe2,1,327,NaN,airplane,boat,NaN,boat1-keyboard3.png,boat1-keyboard3.png,0.0,-2.475647,-0.1775806,-1.6249783
alexnet_w3_mlp_simclrhn_probe2,1,328,NaN,knife,boat,NaN,boat1-oven1.png,boat1-oven1.png,0.0,-2.0194876,1.4208741,-2.4327033
alexnet_w3_mlp_simclrhn_probe2,1,329,NaN,knife,boat,NaN,boat1-truck3.png,boat1-truck3.png,0.0,-2.7042344,0.22318253,-2.0699964
alexnet_w3_mlp_simclrhn_probe2,1,330,NaN,cat,boat,NaN,boat10-bear3.png,boat10-bear3.png,0.0,-7.7965918,-0.16263898,-5.39802
alexnet_w3_mlp_simclrhn_probe2,1,331,NaN,boat,boat,NaN,boat10-boat3.png,boat10-boat3.png,1.0,0.35266447,-0.45407063,0.57044786
alexnet_w3_mlp_simclrhn_probe2,1,332,NaN,cat,boat,NaN,boat10-cat1.png,boat10-cat1.png,0.0,-7.602984,0.96450907,-6.0581326
alexnet_w3_mlp_simclrhn_probe2,1,333,NaN,car,boat,NaN,boat10-oven1.png,boat10-oven1.png,0.0,-1.5879517,1.1663152,-1.9475607
alexnet_w3_mlp_simclrhn_probe2,1,334,NaN,chair,boat,NaN,boat10-truck1.png,boat10-truck1.png,0.0,-2.6425574,0.90246606,-2.50671
alexnet_w3_mlp_simclrhn_probe2,1,335,NaN,clock,boat,NaN,boat2-airplane1.png,boat2-airplane1.png,0.0,-2.049785,-0.38596895,-1.1764956
alexnet_w3_mlp_simclrhn_probe2,1,336,NaN,bear,boat,NaN,boat2-bear3.png,boat2-bear3.png,0.0,-6.0890446,-0.27300772,-4.112559
alexnet_w3_mlp_simclrhn_probe2,1,337,NaN,bird,boat,NaN,boat2-bird1.png,boat2-bird1.png,0.0,-2.4387767,-0.5409307,-1.3419797
alexnet_w3_mlp_simclrhn_probe2,1,338,NaN,bottle,boat,NaN,boat2-bottle2.png,boat2-bottle2.png,0.0,-3.9935603,2.2931685,-4.445389
alexnet_w3_mlp_simclrhn_probe2,1,339,NaN,bicycle,boat,NaN,boat2-keyboard1.png,boat2-keyboard1.png,0.0,-2.583966,-0.9760289,-1.1369833
alexnet_w3_mlp_simclrhn_probe2,1,340,NaN,chair,boat,NaN,boat2-oven3.png,boat2-oven3.png,0.0,-2.2816942,0.86237156,-2.2231903
alexnet_w3_mlp_simclrhn_probe2,1,341,NaN,airplane,boat,NaN,boat3-airplane2.png,boat3-airplane2.png,0.0,-0.64253056,1.5423207,-1.5449231
alexnet_w3_mlp_simclrhn_probe2,1,342,NaN,bicycle,boat,NaN,boat3-bicycle2.png,boat3-bicycle2.png,0.0,-4.6891255,-0.7640509,-2.775447
alexnet_w3_mlp_simclrhn_probe2,1,343,NaN,bicycle,boat,NaN,boat3-car3.png,boat3-car3.png,0.0,-1.640981,0.6176239,-1.597075
alexnet_w3_mlp_simclrhn_probe2,1,344,NaN,oven,boat,NaN,boat3-cat3.png,boat3-cat3.png,0.0,-2.5030234,0.29458,-1.9782044
alexnet_w3_mlp_simclrhn_probe2,1,345,NaN,airplane,boat,NaN,boat3-chair3.png,boat3-chair3.png,0.0,-0.5689357,2.2767272,-2.0121875
alexnet_w3_mlp_simclrhn_probe2,1,346,NaN,bottle,boat,NaN,boat3-clock3.png,boat3-clock3.png,0.0,-4.9465284,-0.59367687,-3.0779307
alexnet_w3_mlp_simclrhn_probe2,1,347,NaN,cat,boat,NaN,boat3-dog3.png,boat3-dog3.png,0.0,-9.2178545,0.59750235,-6.940506
alexnet_w3_mlp_simclrhn_probe2,1,348,NaN,airplane,boat,NaN,boat3-keyboard2.png,boat3-keyboard2.png,0.0,-2.8291306,-0.031173274,-1.9784547
alexnet_w3_mlp_simclrhn_probe2,1,349,NaN,bird,boat,NaN,boat4-bicycle3.png,boat4-bicycle3.png,0.0,-4.9109716,-0.18310933,-3.3431036
alexnet_w3_mlp_simclrhn_probe2,1,350,NaN,cat,boat,NaN,boat4-bird1.png,boat4-bird1.png,0.0,-2.2896185,-0.67270046,-1.1433338
alexnet_w3_mlp_simclrhn_probe2,1,351,NaN,boat,boat,NaN,boat4-boat3.png,boat4-boat3.png,1.0,1.416043,1.028477,0.27405062
alexnet_w3_mlp_simclrhn_probe2,1,352,NaN,bottle,boat,NaN,boat4-bottle2.png,boat4-bottle2.png,0.0,-2.2713869,0.80302125,-2.173935
alexnet_w3_mlp_simclrhn_probe2,1,353,NaN,oven,boat,NaN,boat4-car3.png,boat4-car3.png,0.0,-3.8101177,0.40702808,-2.9819725
alexnet_w3_mlp_simclrhn_probe2,1,354,NaN,boat,boat,NaN,boat4-chair2.png,boat4-chair2.png,1.0,1.3773053,0.51265955,0.61139685
alexnet_w3_mlp_simclrhn_probe2,1,355,NaN,cat,boat,NaN,boat4-dog2.png,boat4-dog2.png,0.0,-4.046712,-0.6513486,-2.4008844
alexnet_w3_mlp_simclrhn_probe2,1,356,NaN,cat,boat,NaN,boat4-elephant2.png,boat4-elephant2.png,0.0,-2.332596,-0.064264394,-1.6039528
alexnet_w3_mlp_simclrhn_probe2,1,357,NaN,oven,boat,NaN,boat4-knife2.png,boat4-knife2.png,0.0,-3.4456418,0.77161,-2.9820473
alexnet_w3_mlp_simclrhn_probe2,1,358,NaN,bottle,boat,NaN,boat5-airplane1.png,boat5-airplane1.png,0.0,-2.757878,-0.14033929,-1.8508794
alexnet_w3_mlp_simclrhn_probe2,1,359,NaN,bicycle,boat,NaN,boat5-bicycle3.png,boat5-bicycle3.png,0.0,-3.771218,-0.076241694,-2.612743
alexnet_w3_mlp_simclrhn_probe2,1,360,NaN,boat,boat,NaN,boat5-boat3.png,boat5-boat3.png,1.0,1.0873991,-0.60045546,1.1934934
alexnet_w3_mlp_simclrhn_probe2,1,361,NaN,bicycle,boat,NaN,boat5-car3.png,boat5-car3.png,0.0,-4.305423,-0.7824832,-2.4910946
alexnet_w3_mlp_simclrhn_probe2,1,362,NaN,clock,boat,NaN,boat5-clock3.png,boat5-clock3.png,0.0,-3.9098663,-1.0838332,-1.9983072
alexnet_w3_mlp_simclrhn_probe2,1,363,NaN,oven,boat,NaN,boat5-knife2.png,boat5-knife2.png,0.0,-1.0666311,-0.056349047,-0.7143773
alexnet_w3_mlp_simclrhn_probe2,1,364,NaN,knife,boat,NaN,boat6-airplane2.png,boat6-airplane2.png,0.0,-2.8178499,-0.67104375,-1.5180212
alexnet_w3_mlp_simclrhn_probe2,1,365,NaN,cat,boat,NaN,boat6-bear1.png,boat6-bear1.png,0.0,-7.2030435,0.06648772,-5.140335
alexnet_w3_mlp_simclrhn_probe2,1,366,NaN,bicycle,boat,NaN,boat6-bicycle2.png,boat6-bicycle2.png,0.0,-5.5628343,-1.1514946,-3.1192882
alexnet_w3_mlp_simclrhn_probe2,1,367,NaN,bottle,boat,NaN,boat6-bottle2.png,boat6-bottle2.png,0.0,-3.5568955,0.19478108,-2.652836
alexnet_w3_mlp_simclrhn_probe2,1,368,NaN,bicycle,boat,NaN,boat6-car1.png,boat6-car1.png,0.0,-4.351119,0.6125834,-3.5098674
alexnet_w3_mlp_simclrhn_probe2,1,369,NaN,cat,boat,NaN,boat6-cat1.png,boat6-cat1.png,0.0,-6.4550033,1.092358,-5.3367906
alexnet_w3_mlp_simclrhn_probe2,1,370,NaN,bicycle,boat,NaN,boat6-clock2.png,boat6-clock2.png,0.0,-4.133171,0.13589582,-3.018686
alexnet_w3_mlp_simclrhn_probe2,1,371,NaN,cat,boat,NaN,boat6-dog1.png,boat6-dog1.png,0.0,-6.4336486,-0.2348352,-4.383223
alexnet_w3_mlp_simclrhn_probe2,1,372,NaN,elephant,boat,NaN,boat6-elephant2.png,boat6-elephant2.png,0.0,-3.2283368,0.03506747,-2.3075755
alexnet_w3_mlp_simclrhn_probe2,1,373,NaN,knife,boat,NaN,boat6-knife2.png,boat6-knife2.png,0.0,-3.4216588,-0.38710672,-2.1457524
alexnet_w3_mlp_simclrhn_probe2,1,374,NaN,chair,boat,NaN,boat6-truck3.png,boat6-truck3.png,0.0,-3.3664908,0.35582674,-2.632076
alexnet_w3_mlp_simclrhn_probe2,1,375,NaN,chair,boat,NaN,boat7-boat2.png,boat7-boat2.png,0.0,-1.3881601,0.32452685,-1.2110527
alexnet_w3_mlp_simclrhn_probe2,1,376,NaN,oven,boat,NaN,boat7-bottle1.png,boat7-bottle1.png,0.0,-3.1298003,-0.38389394,-1.9416491
alexnet_w3_mlp_simclrhn_probe2,1,377,NaN,cat,boat,NaN,boat7-cat3.png,boat7-cat3.png,0.0,-4.945765,0.55896634,-3.892433
alexnet_w3_mlp_simclrhn_probe2,1,378,NaN,bottle,boat,NaN,boat7-chair1.png,boat7-chair1.png,0.0,-3.1309085,-0.24217616,-2.0426424
alexnet_w3_mlp_simclrhn_probe2,1,379,NaN,bottle,boat,NaN,boat7-clock3.png,boat7-clock3.png,0.0,-5.5592947,-0.6508511,-3.4707937
alexnet_w3_mlp_simclrhn_probe2,1,380,NaN,elephant,boat,NaN,boat7-elephant3.png,boat7-elephant3.png,0.0,-3.2010093,-1.3167286,-1.3323877
alexnet_w3_mlp_simclrhn_probe2,1,381,NaN,knife,boat,NaN,boat7-keyboard3.png,boat7-keyboard3.png,0.0,-2.5772572,-0.44303143,-1.5091256
alexnet_w3_mlp_simclrhn_probe2,1,382,NaN,chair,boat,NaN,boat7-oven3.png,boat7-oven3.png,0.0,-1.7035573,0.8734891,-1.822247
alexnet_w3_mlp_simclrhn_probe2,1,383,NaN,bottle,boat,NaN,boat7-truck2.png,boat7-truck2.png,0.0,-3.139402,0.39931723,-2.5022523
alexnet_w3_mlp_simclrhn_probe2,1,384,NaN,oven,boat,NaN,boat8-bird2.png,boat8-bird2.png,0.0,-3.7452729,-1.0670061,-1.8938206
alexnet_w3_mlp_simclrhn_probe2,1,385,NaN,oven,boat,NaN,boat8-bottle1.png,boat8-bottle1.png,0.0,-2.425576,0.425371,-2.015924
alexnet_w3_mlp_simclrhn_probe2,1,386,NaN,cat,boat,NaN,boat8-dog3.png,boat8-dog3.png,0.0,-11.997164,0.97728205,-9.174318
alexnet_w3_mlp_simclrhn_probe2,1,387,NaN,bicycle,boat,NaN,boat8-elephant1.png,boat8-elephant1.png,0.0,-3.1730363,-0.34793496,-1.9976484
alexnet_w3_mlp_simclrhn_probe2,1,388,NaN,bicycle,boat,NaN,boat8-knife1.png,boat8-knife1.png,0.0,-2.570606,0.2499226,-1.9944149
alexnet_w3_mlp_simclrhn_probe2,1,389,NaN,knife,boat,NaN,boat8-oven1.png,boat8-oven1.png,0.0,-1.9921516,0.6499392,-1.8682404
alexnet_w3_mlp_simclrhn_probe2,1,390,NaN,car,boat,NaN,boat8-truck2.png,boat8-truck2.png,0.0,-0.4142572,2.414605,-2.0003076
alexnet_w3_mlp_simclrhn_probe2,1,391,NaN,chair,boat,NaN,boat9-airplane2.png,boat9-airplane2.png,0.0,-1.3186303,0.46937335,-1.2643095
alexnet_w3_mlp_simclrhn_probe2,1,392,NaN,elephant,boat,NaN,boat9-bear3.png,boat9-bear3.png,0.0,-5.1820674,0.07931979,-3.7203627
alexnet_w3_mlp_simclrhn_probe2,1,393,NaN,cat,boat,NaN,boat9-bird1.png,boat9-bird1.png,0.0,-1.7745075,-0.45092198,-0.9359163
alexnet_w3_mlp_simclrhn_probe2,1,394,NaN,boat,boat,NaN,boat9-boat3.png,boat9-boat3.png,1.0,1.5142187,-0.59210145,1.4893932
alexnet_w3_mlp_simclrhn_probe2,1,395,NaN,cat,boat,NaN,boat9-cat3.png,boat9-cat3.png,0.0,-2.9785137,-0.08810834,-2.0438254
alexnet_w3_mlp_simclrhn_probe2,1,396,NaN,boat,boat,NaN,boat9-chair2.png,boat9-chair2.png,1.0,1.927339,0.011561975,1.354659
alexnet_w3_mlp_simclrhn_probe2,1,397,NaN,bicycle,boat,NaN,boat9-clock1.png,boat9-clock1.png,0.0,-1.2537625,0.4687597,-1.2180071
alexnet_w3_mlp_simclrhn_probe2,1,398,NaN,oven,boat,NaN,boat9-dog2.png,boat9-dog2.png,0.0,-2.5729527,-0.21570526,-1.6668258
alexnet_w3_mlp_simclrhn_probe2,1,399,NaN,knife,boat,NaN,boat9-keyboard2.png,boat9-keyboard2.png,0.0,-1.5347346,0.7220131,-1.5957617
alexnet_w3_mlp_simclrhn_probe2,1,400,NaN,boat,boat,NaN,boat9-knife2.png,boat9-knife2.png,1.0,0.6223494,-0.36717403,0.69969875
alexnet_w3_mlp_simclrhn_probe2,1,401,NaN,cat,bottle,NaN,bottle1-bear1.png,bottle1-bear1.png,0.0,-2.3333123,0.13469116,-1.7451421
alexnet_w3_mlp_simclrhn_probe2,1,402,NaN,bottle,bottle,NaN,bottle1-bird3.png,bottle1-bird3.png,1.0,1.1824893,-1.6490037,2.002168
alexnet_w3_mlp_simclrhn_probe2,1,403,NaN,bottle,bottle,NaN,bottle1-car1.png,bottle1-car1.png,1.0,0.7122348,-0.66733325,0.97550195
alexnet_w3_mlp_simclrhn_probe2,1,404,NaN,cat,bottle,NaN,bottle1-cat3.png,bottle1-cat3.png,0.0,-1.7796037,0.8880403,-1.8863093
alexnet_w3_mlp_simclrhn_probe2,1,405,NaN,oven,bottle,NaN,bottle1-chair2.png,bottle1-chair2.png,0.0,0.6727978,1.2472216,-0.40617895
alexnet_w3_mlp_simclrhn_probe2,1,406,NaN,bottle,bottle,NaN,bottle1-clock1.png,bottle1-clock1.png,1.0,0.5966577,-1.2508564,1.3063898
alexnet_w3_mlp_simclrhn_probe2,1,407,NaN,cat,bottle,NaN,bottle1-dog2.png,bottle1-dog2.png,0.0,-2.094393,0.4603862,-1.8065017
alexnet_w3_mlp_simclrhn_probe2,1,408,NaN,bottle,bottle,NaN,bottle1-keyboard3.png,bottle1-keyboard3.png,1.0,-0.08600747,-0.38249737,0.20965002
alexnet_w3_mlp_simclrhn_probe2,1,409,NaN,elephant,bottle,NaN,bottle10-bear2.png,bottle10-bear2.png,0.0,-2.5514076,1.415174,-2.8047967
alexnet_w3_mlp_simclrhn_probe2,1,410,NaN,bottle,bottle,NaN,bottle10-boat3.png,bottle10-boat3.png,1.0,2.4122963,-0.5569967,2.0996072
alexnet_w3_mlp_simclrhn_probe2,1,411,NaN,bottle,bottle,NaN,bottle10-car1.png,bottle10-car1.png,1.0,1.4378566,1.2180514,0.1554257
alexnet_w3_mlp_simclrhn_probe2,1,412,NaN,bottle,bottle,NaN,bottle10-clock2.png,bottle10-clock2.png,1.0,2.8172557,-0.43394247,2.2989445
alexnet_w3_mlp_simclrhn_probe2,1,413,NaN,cat,bottle,NaN,bottle10-dog1.png,bottle10-dog1.png,0.0,-2.4854798,0.45635772,-2.0801933
alexnet_w3_mlp_simclrhn_probe2,1,414,NaN,bottle,bottle,NaN,bottle10-truck3.png,bottle10-truck3.png,1.0,2.61036,0.8243706,1.2628852
alexnet_w3_mlp_simclrhn_probe2,1,415,NaN,bottle,bottle,NaN,bottle2-bottle3.png,bottle2-bottle3.png,1.0,-1.4753875,-2.4366674,0.6797276
alexnet_w3_mlp_simclrhn_probe2,1,416,NaN,bicycle,bottle,NaN,bottle2-car2.png,bottle2-car2.png,0.0,-1.1827114,-0.6264976,-0.3933025
alexnet_w3_mlp_simclrhn_probe2,1,417,NaN,chair,bottle,NaN,bottle2-chair3.png,bottle2-chair3.png,0.0,-0.2714831,0.3668105,-0.45134175
alexnet_w3_mlp_simclrhn_probe2,1,418,NaN,bicycle,bottle,NaN,bottle2-clock1.png,bottle2-clock1.png,0.0,-1.2757375,-1.1009718,-0.12357802
alexnet_w3_mlp_simclrhn_probe2,1,419,NaN,elephant,bottle,NaN,bottle2-elephant1.png,bottle2-elephant1.png,0.0,-1.5679858,-0.84668875,-0.510034
alexnet_w3_mlp_simclrhn_probe2,1,420,NaN,bottle,bottle,NaN,bottle2-knife3.png,bottle2-knife3.png,1.0,1.4265774,-0.20376655,1.1528274
alexnet_w3_mlp_simclrhn_probe2,1,421,NaN,bottle,bottle,NaN,bottle3-airplane2.png,bottle3-airplane2.png,1.0,0.88193613,-0.55203176,1.0139683
alexnet_w3_mlp_simclrhn_probe2,1,422,NaN,elephant,bottle,NaN,bottle3-bear2.png,bottle3-bear2.png,0.0,-3.2618566,0.48336697,-2.648273
alexnet_w3_mlp_simclrhn_probe2,1,423,NaN,bicycle,bottle,NaN,bottle3-bicycle3.png,bottle3-bicycle3.png,0.0,-1.9682009,-0.22144443,-1.2351434
alexnet_w3_mlp_simclrhn_probe2,1,424,NaN,cat,bottle,NaN,bottle3-bird1.png,bottle3-bird1.png,0.0,-1.2517273,-0.37169042,-0.6222801
alexnet_w3_mlp_simclrhn_probe2,1,425,NaN,bottle,bottle,NaN,bottle3-boat3.png,bottle3-boat3.png,1.0,1.6066707,0.87907326,0.5144891
alexnet_w3_mlp_simclrhn_probe2,1,426,NaN,bottle,bottle,NaN,bottle3-bottle3.png,bottle3-bottle3.png,1.0,-1.4698112,-2.4848666,0.7177526
alexnet_w3_mlp_simclrhn_probe2,1,427,NaN,cat,bottle,NaN,bottle3-cat3.png,bottle3-cat3.png,0.0,-1.9988855,1.0090038,-2.126899
alexnet_w3_mlp_simclrhn_probe2,1,428,NaN,bottle,bottle,NaN,bottle3-chair3.png,bottle3-chair3.png,1.0,-0.4937456,-0.5728622,0.055943895
alexnet_w3_mlp_simclrhn_probe2,1,429,NaN,bottle,bottle,NaN,bottle3-knife3.png,bottle3-knife3.png,1.0,-0.12519278,-0.3831856,0.18242846
alexnet_w3_mlp_simclrhn_probe2,1,430,NaN,bottle,bottle,NaN,bottle4-airplane1.png,bottle4-airplane1.png,1.0,0.16187038,-0.039588515,0.14245294
alexnet_w3_mlp_simclrhn_probe2,1,431,NaN,bicycle,bottle,NaN,bottle4-bicycle1.png,bottle4-bicycle1.png,0.0,-2.5478077,-0.9251284,-1.1474075
alexnet_w3_mlp_simclrhn_probe2,1,432,NaN,bicycle,bottle,NaN,bottle4-car3.png,bottle4-car3.png,0.0,-1.9170927,-0.19254762,-1.2194375
alexnet_w3_mlp_simclrhn_probe2,1,433,NaN,cat,bottle,NaN,bottle4-dog2.png,bottle4-dog2.png,0.0,-1.764743,0.24656071,-1.4222065
alexnet_w3_mlp_simclrhn_probe2,1,434,NaN,bottle,bottle,NaN,bottle4-oven2.png,bottle4-oven2.png,1.0,2.4034274,0.20973127,1.5511774
alexnet_w3_mlp_simclrhn_probe2,1,435,NaN,chair,bottle,NaN,bottle4-truck1.png,bottle4-truck1.png,0.0,0.79320824,1.1159614,-0.22822097
alexnet_w3_mlp_simclrhn_probe2,1,436,NaN,bottle,bottle,NaN,bottle5-airplane1.png,bottle5-airplane1.png,1.0,-0.041285317,-0.9801215,0.6638574
alexnet_w3_mlp_simclrhn_probe2,1,437,NaN,bottle,bottle,NaN,bottle5-bird3.png,bottle5-bird3.png,1.0,0.77487993,-2.871126,2.5781155
alexnet_w3_mlp_simclrhn_probe2,1,438,NaN,chair,bottle,NaN,bottle5-boat1.png,bottle5-boat1.png,0.0,0.037183534,0.622784,-0.41408208
alexnet_w3_mlp_simclrhn_probe2,1,439,NaN,cat,bottle,NaN,bottle5-cat1.png,bottle5-cat1.png,0.0,-5.676348,1.1920105,-4.856663
alexnet_w3_mlp_simclrhn_probe2,1,440,NaN,bottle,bottle,NaN,bottle5-chair1.png,bottle5-chair1.png,1.0,1.4285108,-0.63394153,1.458374
alexnet_w3_mlp_simclrhn_probe2,1,441,NaN,bottle,bottle,NaN,bottle5-clock3.png,bottle5-clock3.png,1.0,0.8190388,-1.6766176,1.7646956
alexnet_w3_mlp_simclrhn_probe2,1,442,NaN,elephant,bottle,NaN,bottle5-elephant1.png,bottle5-elephant1.png,0.0,-1.7031478,-1.3104153,-0.27770382
alexnet_w3_mlp_simclrhn_probe2,1,443,NaN,bottle,bottle,NaN,bottle5-keyboard2.png,bottle5-keyboard2.png,1.0,0.81191635,-0.3695281,0.8354074
alexnet_w3_mlp_simclrhn_probe2,1,444,NaN,bottle,bottle,NaN,bottle5-knife1.png,bottle5-knife1.png,1.0,-0.115146995,-0.85580707,0.52372575
alexnet_w3_mlp_simclrhn_probe2,1,445,NaN,bottle,bottle,NaN,bottle5-oven2.png,bottle5-oven2.png,1.0,1.5992256,0.69037575,0.64265394
alexnet_w3_mlp_simclrhn_probe2,1,446,NaN,bottle,bottle,NaN,bottle5-truck1.png,bottle5-truck1.png,1.0,1.6637958,1.0882251,0.40698996
alexnet_w3_mlp_simclrhn_probe2,1,447,NaN,bottle,bottle,NaN,bottle6-airplane1.png,bottle6-airplane1.png,1.0,1.1636387,-0.5307595,1.1981205
alexnet_w3_mlp_simclrhn_probe2,1,448,NaN,elephant,bottle,NaN,bottle6-bear2.png,bottle6-bear2.png,0.0,-4.201512,-0.071024284,-2.9206958
alexnet_w3_mlp_simclrhn_probe2,1,449,NaN,bottle,bottle,NaN,bottle6-bicycle3.png,bottle6-bicycle3.png,1.0,-0.80918163,-1.6904745,0.6231682
alexnet_w3_mlp_simclrhn_probe2,1,450,NaN,cat,bottle,NaN,bottle6-bird1.png,bottle6-bird1.png,0.0,-1.9094648,-0.26043847,-1.1660378
alexnet_w3_mlp_simclrhn_probe2,1,451,NaN,bottle,bottle,NaN,bottle6-boat3.png,bottle6-boat3.png,1.0,4.1758876,1.5506175,1.8563464
alexnet_w3_mlp_simclrhn_probe2,1,452,NaN,bottle,bottle,NaN,bottle6-bottle3.png,bottle6-bottle3.png,1.0,-0.95216304,-1.8900404,0.66317946
alexnet_w3_mlp_simclrhn_probe2,1,453,NaN,oven,bottle,NaN,bottle6-chair2.png,bottle6-chair2.png,0.0,1.1573546,1.3027905,-0.10283873
alexnet_w3_mlp_simclrhn_probe2,1,454,NaN,cat,bottle,NaN,bottle6-dog3.png,bottle6-dog3.png,0.0,-6.9111524,1.0104815,-5.601441
alexnet_w3_mlp_simclrhn_probe2,1,455,NaN,bottle,bottle,NaN,bottle6-knife3.png,bottle6-knife3.png,1.0,-0.46096483,-1.3249135,0.610904
alexnet_w3_mlp_simclrhn_probe2,1,456,NaN,chair,bottle,NaN,bottle6-oven3.png,bottle6-oven3.png,0.0,0.74127877,0.9335512,-0.13595714
alexnet_w3_mlp_simclrhn_probe2,1,457,NaN,bottle,bottle,NaN,bottle7-airplane3.png,bottle7-airplane3.png,1.0,0.1150604,-0.04699728,0.114592075
alexnet_w3_mlp_simclrhn_probe2,1,458,NaN,cat,bottle,NaN,bottle7-bear1.png,bottle7-bear1.png,0.0,-6.044538,0.04996516,-4.309465
alexnet_w3_mlp_simclrhn_probe2,1,459,NaN,oven,bottle,NaN,bottle7-boat3.png,bottle7-boat3.png,0.0,-0.019125244,0.17061312,-0.13416529
alexnet_w3_mlp_simclrhn_probe2,1,460,NaN,cat,bottle,NaN,bottle7-cat2.png,bottle7-cat2.png,0.0,-2.2210078,0.21154368,-1.7200736
alexnet_w3_mlp_simclrhn_probe2,1,461,NaN,bottle,bottle,NaN,bottle7-clock1.png,bottle7-clock1.png,1.0,-0.626031,-2.0238767,0.9884262
alexnet_w3_mlp_simclrhn_probe2,1,462,NaN,elephant,bottle,NaN,bottle7-elephant2.png,bottle7-elephant2.png,0.0,-2.455096,1.420196,-2.7402453
alexnet_w3_mlp_simclrhn_probe2,1,463,NaN,knife,bottle,NaN,bottle7-keyboard2.png,bottle7-keyboard2.png,0.0,-0.095928,0.14822373,-0.17264134
alexnet_w3_mlp_simclrhn_probe2,1,464,NaN,bottle,bottle,NaN,bottle7-oven2.png,bottle7-oven2.png,1.0,1.5409125,0.5870445,0.6744866
alexnet_w3_mlp_simclrhn_probe2,1,465,NaN,chair,bottle,NaN,bottle7-truck2.png,bottle7-truck2.png,0.0,-0.26221785,0.8830047,-0.80979466
alexnet_w3_mlp_simclrhn_probe2,1,466,NaN,bottle,bottle,NaN,bottle8-bicycle1.png,bottle8-bicycle1.png,1.0,-1.8267263,-2.3252988,0.35254398
alexnet_w3_mlp_simclrhn_probe2,1,467,NaN,cat,bottle,NaN,bottle8-bird1.png,bottle8-bird1.png,0.0,-1.2922175,-0.11938212,-0.82931983
alexnet_w3_mlp_simclrhn_probe2,1,468,NaN,bottle,bottle,NaN,bottle8-bottle3.png,bottle8-bottle3.png,1.0,0.3210639,-2.7098536,2.1431825
alexnet_w3_mlp_simclrhn_probe2,1,469,NaN,cat,bottle,NaN,bottle8-dog2.png,bottle8-dog2.png,0.0,-1.3610697,-0.045494705,-0.930252
alexnet_w3_mlp_simclrhn_probe2,1,470,NaN,elephant,bottle,NaN,bottle8-elephant3.png,bottle8-elephant3.png,0.0,-1.9407667,-1.3773198,-0.39841712
alexnet_w3_mlp_simclrhn_probe2,1,471,NaN,bottle,bottle,NaN,bottle8-keyboard3.png,bottle8-keyboard3.png,1.0,-0.2214209,-0.9455092,0.5120078
alexnet_w3_mlp_simclrhn_probe2,1,472,NaN,bottle,bottle,NaN,bottle8-knife1.png,bottle8-knife1.png,1.0,0.27301806,-0.7183728,0.7010192
alexnet_w3_mlp_simclrhn_probe2,1,473,NaN,bottle,bottle,NaN,bottle9-bicycle1.png,bottle9-bicycle1.png,1.0,-1.6604414,-2.4135094,0.5324995
alexnet_w3_mlp_simclrhn_probe2,1,474,NaN,clock,bottle,NaN,bottle9-bottle1.png,bottle9-bottle1.png,0.0,-1.0664715,0.020656904,-0.76871586
alexnet_w3_mlp_simclrhn_probe2,1,475,NaN,bottle,bottle,NaN,bottle9-car3.png,bottle9-car3.png,1.0,0.7203019,-1.0334718,1.2401053
alexnet_w3_mlp_simclrhn_probe2,1,476,NaN,cat,bottle,NaN,bottle9-cat2.png,bottle9-cat2.png,0.0,-1.8328435,-0.29236075,-1.0892859
alexnet_w3_mlp_simclrhn_probe2,1,477,NaN,cat,bottle,NaN,bottle9-elephant2.png,bottle9-elephant2.png,0.0,-1.5386494,-0.6434474,-0.6330035
alexnet_w3_mlp_simclrhn_probe2,1,478,NaN,bottle,bottle,NaN,bottle9-keyboard1.png,bottle9-keyboard1.png,1.0,0.74565876,-0.8592784,1.134862
alexnet_w3_mlp_simclrhn_probe2,1,479,NaN,oven,bottle,NaN,bottle9-oven2.png,bottle9-oven2.png,0.0,0.9770918,1.139051,-0.11452243
alexnet_w3_mlp_simclrhn_probe2,1,480,NaN,bottle,bottle,NaN,bottle9-truck1.png,bottle9-truck1.png,1.0,1.8719008,1.2042651,0.47208974
alexnet_w3_mlp_simclrhn_probe2,1,481,NaN,car,car,NaN,car1-airplane1.png,car1-airplane1.png,1.0,1.6301899,1.0950563,0.3783966
alexnet_w3_mlp_simclrhn_probe2,1,482,NaN,bicycle,car,NaN,car1-car2.png,car1-car2.png,0.0,-1.8487011,-0.108415246,-1.2305679
alexnet_w3_mlp_simclrhn_probe2,1,483,NaN,airplane,car,NaN,car1-chair3.png,car1-chair3.png,0.0,-0.05259468,3.7164106,-2.6650894
alexnet_w3_mlp_simclrhn_probe2,1,484,NaN,car,car,NaN,car1-clock2.png,car1-clock2.png,1.0,2.422635,0.9439966,1.0455552
alexnet_w3_mlp_simclrhn_probe2,1,485,NaN,oven,car,NaN,car1-dog2.png,car1-dog2.png,0.0,-4.392735,0.3014828,-3.3193133
alexnet_w3_mlp_simclrhn_probe2,1,486,NaN,keyboard,car,NaN,car1-keyboard2.png,car1-keyboard2.png,0.0,0.38876596,2.1820087,-1.2680142
alexnet_w3_mlp_simclrhn_probe2,1,487,NaN,oven,car,NaN,car1-oven3.png,car1-oven3.png,0.0,-1.9873661,1.391005,-2.3888693
alexnet_w3_mlp_simclrhn_probe2,1,488,NaN,bicycle,car,NaN,car10-bicycle2.png,car10-bicycle2.png,0.0,-4.062,0.29381365,-3.0800254
alexnet_w3_mlp_simclrhn_probe2,1,489,NaN,bicycle,car,NaN,car10-bottle3.png,car10-bottle3.png,0.0,-2.1984208,0.5018811,-1.9094018
alexnet_w3_mlp_simclrhn_probe2,1,490,NaN,car,car,NaN,car10-car1.png,car10-car1.png,1.0,2.9401789,1.3886118,1.0971236
alexnet_w3_mlp_simclrhn_probe2,1,491,NaN,airplane,car,NaN,car10-chair1.png,car10-chair1.png,0.0,2.7575426,5.6937637,-2.076222
alexnet_w3_mlp_simclrhn_probe2,1,492,NaN,cat,car,NaN,car10-dog1.png,car10-dog1.png,0.0,-5.477958,-0.19981675,-3.7322097
alexnet_w3_mlp_simclrhn_probe2,1,493,NaN,elephant,car,NaN,car10-elephant2.png,car10-elephant2.png,0.0,-3.6940668,-0.18948853,-2.478111
alexnet_w3_mlp_simclrhn_probe2,1,494,NaN,airplane,car,NaN,car10-keyboard2.png,car10-keyboard2.png,0.0,-0.57490665,0.9125865,-1.0518165
alexnet_w3_mlp_simclrhn_probe2,1,495,NaN,oven,car,NaN,car2-bird3.png,car2-bird3.png,0.0,-5.112671,-1.663178,-2.4391599
alexnet_w3_mlp_simclrhn_probe2,1,496,NaN,car,car,NaN,car2-car3.png,car2-car3.png,1.0,2.0462997,1.9308894,0.08160742
alexnet_w3_mlp_simclrhn_probe2,1,497,NaN,cat,car,NaN,car2-cat3.png,car2-cat3.png,0.0,-8.427543,0.2471565,-6.1339383
alexnet_w3_mlp_simclrhn_probe2,1,498,NaN,car,car,NaN,car2-chair1.png,car2-chair1.png,1.0,4.437441,1.5928264,2.0114462
alexnet_w3_mlp_simclrhn_probe2,1,499,NaN,bottle,car,NaN,car2-knife3.png,car2-knife3.png,0.0,-1.6895045,0.3852473,-1.4670712
alexnet_w3_mlp_simclrhn_probe2,1,500,NaN,car,car,NaN,car3-airplane3.png,car3-airplane3.png,1.0,5.668408,4.3865333,0.90642226
alexnet_w3_mlp_simclrhn_probe2,1,501,NaN,bicycle,car,NaN,car3-bird2.png,car3-bird2.png,0.0,-5.4935665,-0.98777074,-3.186079
alexnet_w3_mlp_simclrhn_probe2,1,502,NaN,car,car,NaN,car3-boat1.png,car3-boat1.png,1.0,3.7123442,2.5343633,0.8329583
alexnet_w3_mlp_simclrhn_probe2,1,503,NaN,oven,car,NaN,car3-bottle3.png,car3-bottle3.png,0.0,-7.144708,-1.1599844,-4.231839
alexnet_w3_mlp_simclrhn_probe2,1,504,NaN,cat,car,NaN,car3-dog2.png,car3-dog2.png,0.0,-4.6744585,-0.2769481,-3.1095095
alexnet_w3_mlp_simclrhn_probe2,1,505,NaN,oven,car,NaN,car3-elephant3.png,car3-elephant3.png,0.0,-4.506049,-1.4621882,-2.1523347
alexnet_w3_mlp_simclrhn_probe2,1,506,NaN,chair,car,NaN,car3-oven3.png,car3-oven3.png,0.0,-0.7771304,0.85753775,-1.155885
alexnet_w3_mlp_simclrhn_probe2,1,507,NaN,car,car,NaN,car3-truck1.png,car3-truck1.png,1.0,3.643296,0.91915864,1.926256
alexnet_w3_mlp_simclrhn_probe2,1,508,NaN,cat,car,NaN,car4-bear3.png,car4-bear3.png,0.0,-13.371719,-0.6039259,-9.028193
alexnet_w3_mlp_simclrhn_probe2,1,509,NaN,bicycle,car,NaN,car4-bicycle3.png,car4-bicycle3.png,0.0,-5.5886474,0.04659386,-3.9847171
alexnet_w3_mlp_simclrhn_probe2,1,510,NaN,bird,car,NaN,car4-bird1.png,car4-bird1.png,0.0,-4.466889,-0.55949295,-2.7629461
alexnet_w3_mlp_simclrhn_probe2,1,511,NaN,car,car,NaN,car4-boat1.png,car4-boat1.png,1.0,1.1508813,-0.24291304,0.98556143
alexnet_w3_mlp_simclrhn_probe2,1,512,NaN,oven,car,NaN,car4-bottle1.png,car4-bottle1.png,0.0,-6.7181163,-0.3342446,-4.514079
alexnet_w3_mlp_simclrhn_probe2,1,513,NaN,car,car,NaN,car4-car2.png,car4-car2.png,1.0,3.054917,0.71088964,1.6574777
alexnet_w3_mlp_simclrhn_probe2,1,514,NaN,cat,car,NaN,car4-cat3.png,car4-cat3.png,0.0,-9.908086,0.2644004,-7.193034
alexnet_w3_mlp_simclrhn_probe2,1,515,NaN,bicycle,car,NaN,car4-clock1.png,car4-clock1.png,0.0,-3.4442625,-0.7618887,-1.8967247
alexnet_w3_mlp_simclrhn_probe2,1,516,NaN,knife,car,NaN,car4-elephant3.png,car4-elephant3.png,0.0,-5.341582,-1.7015728,-2.573875
alexnet_w3_mlp_simclrhn_probe2,1,517,NaN,oven,car,NaN,car4-oven2.png,car4-oven2.png,0.0,-1.1537204,1.161378,-1.6370218
alexnet_w3_mlp_simclrhn_probe2,1,518,NaN,car,car,NaN,car5-airplane3.png,car5-airplane3.png,1.0,5.751587,3.052473,1.9085617
alexnet_w3_mlp_simclrhn_probe2,1,519,NaN,cat,car,NaN,car5-bear3.png,car5-bear3.png,0.0,-11.026657,-0.23547597,-7.630518
alexnet_w3_mlp_simclrhn_probe2,1,520,NaN,oven,car,NaN,car5-bottle1.png,car5-bottle1.png,0.0,-6.1127563,-0.37238714,-4.0590544
alexnet_w3_mlp_simclrhn_probe2,1,521,NaN,cat,car,NaN,car5-cat1.png,car5-cat1.png,0.0,-10.247619,0.7495417,-7.7761664
alexnet_w3_mlp_simclrhn_probe2,1,522,NaN,clock,car,NaN,car5-keyboard3.png,car5-keyboard3.png,0.0,-0.86341125,0.0098975,-0.6175226
alexnet_w3_mlp_simclrhn_probe2,1,523,NaN,car,car,NaN,car5-knife2.png,car5-knife2.png,1.0,3.5821831,3.3527894,0.16220586
alexnet_w3_mlp_simclrhn_probe2,1,524,NaN,truck,car,NaN,car5-oven2.png,car5-oven2.png,0.0,1.3926558,2.3311117,-0.66358846
alexnet_w3_mlp_simclrhn_probe2,1,525,NaN,car,car,NaN,car5-truck3.png,car5-truck3.png,1.0,3.6998692,2.7125897,0.698112
alexnet_w3_mlp_simclrhn_probe2,1,526,NaN,elephant,car,NaN,car6-bear1.png,car6-bear1.png,0.0,-11.060471,-0.49251208,-7.4726753
alexnet_w3_mlp_simclrhn_probe2,1,527,NaN,bicycle,car,NaN,car6-bicycle3.png,car6-bicycle3.png,0.0,-4.5815454,1.8563046,-4.5522475
alexnet_w3_mlp_simclrhn_probe2,1,528,NaN,bicycle,car,NaN,car6-boat1.png,car6-boat1.png,0.0,0.84907365,3.0387626,-1.5483439
alexnet_w3_mlp_simclrhn_probe2,1,529,NaN,bicycle,car,NaN,car6-bottle1.png,car6-bottle1.png,0.0,-6.626203,-1.1001308,-3.9075234
alexnet_w3_mlp_simclrhn_probe2,1,530,NaN,airplane,car,NaN,car6-chair3.png,car6-chair3.png,0.0,0.31216523,3.4204764,-2.197908
alexnet_w3_mlp_simclrhn_probe2,1,531,NaN,elephant,car,NaN,car6-elephant3.png,car6-elephant3.png,0.0,-5.0984025,-1.0657654,-2.851505
alexnet_w3_mlp_simclrhn_probe2,1,532,NaN,car,car,NaN,car6-knife1.png,car6-knife1.png,1.0,1.6095624,1.3060738,0.21459886
alexnet_w3_mlp_simclrhn_probe2,1,533,NaN,car,car,NaN,car6-truck3.png,car6-truck3.png,1.0,1.9223849,0.2810257,1.1606162
alexnet_w3_mlp_simclrhn_probe2,1,534,NaN,car,car,NaN,car7-airplane2.png,car7-airplane2.png,1.0,1.7715173,-0.58204246,1.6642181
alexnet_w3_mlp_simclrhn_probe2,1,535,NaN,cat,car,NaN,car7-bear1.png,car7-bear1.png,0.0,-11.73024,-0.37606898,-8.028611
alexnet_w3_mlp_simclrhn_probe2,1,536,NaN,knife,car,NaN,car7-bird3.png,car7-bird3.png,0.0,-2.7043245,-1.6707627,-0.7308386
alexnet_w3_mlp_simclrhn_probe2,1,537,NaN,boat,car,NaN,car7-boat3.png,car7-boat3.png,0.0,2.382952,3.1022577,-0.508626
alexnet_w3_mlp_simclrhn_probe2,1,538,NaN,bicycle,car,NaN,car7-car1.png,car7-car1.png,0.0,-0.484831,2.3006244,-1.9696145
alexnet_w3_mlp_simclrhn_probe2,1,539,NaN,bicycle,car,NaN,car7-clock1.png,car7-clock1.png,0.0,-2.547745,0.73243433,-2.319437
alexnet_w3_mlp_simclrhn_probe2,1,540,NaN,cat,car,NaN,car7-dog3.png,car7-dog3.png,0.0,-11.751565,0.53978646,-8.6912985
alexnet_w3_mlp_simclrhn_probe2,1,541,NaN,elephant,car,NaN,car7-elephant3.png,car7-elephant3.png,0.0,-4.5705156,-1.0413824,-2.495474
alexnet_w3_mlp_simclrhn_probe2,1,542,NaN,keyboard,car,NaN,car7-keyboard3.png,car7-keyboard3.png,0.0,-0.2160215,0.53196573,-0.5289068
alexnet_w3_mlp_simclrhn_probe2,1,543,NaN,chair,car,NaN,car7-oven2.png,car7-oven2.png,0.0,-1.1128627,0.8117895,-1.3609346
alexnet_w3_mlp_simclrhn_probe2,1,544,NaN,car,car,NaN,car8-airplane3.png,car8-airplane3.png,1.0,2.183582,0.088638425,1.4813488
alexnet_w3_mlp_simclrhn_probe2,1,545,NaN,cat,car,NaN,car8-bear1.png,car8-bear1.png,0.0,-10.872071,-0.22844386,-7.526181
alexnet_w3_mlp_simclrhn_probe2,1,546,NaN,bicycle,car,NaN,car8-bicycle2.png,car8-bicycle2.png,0.0,-4.992962,1.4915993,-4.585277
alexnet_w3_mlp_simclrhn_probe2,1,547,NaN,car,car,NaN,car8-boat3.png,car8-boat3.png,1.0,2.3704383,1.54246,0.5854691
alexnet_w3_mlp_simclrhn_probe2,1,548,NaN,cat,car,NaN,car8-cat1.png,car8-cat1.png,0.0,-10.636193,1.2372143,-8.395767
alexnet_w3_mlp_simclrhn_probe2,1,549,NaN,car,car,NaN,car8-chair1.png,car8-chair1.png,1.0,3.7532108,1.6637174,1.4774948
alexnet_w3_mlp_simclrhn_probe2,1,550,NaN,car,car,NaN,car8-clock2.png,car8-clock2.png,1.0,1.5214571,1.4602735,0.04326332
alexnet_w3_mlp_simclrhn_probe2,1,551,NaN,cat,car,NaN,car8-dog1.png,car8-dog1.png,0.0,-6.676155,-0.43093404,-4.4160385
alexnet_w3_mlp_simclrhn_probe2,1,552,NaN,airplane,car,NaN,car8-knife2.png,car8-knife2.png,0.0,-2.3011534,-0.8637111,-1.0164253
alexnet_w3_mlp_simclrhn_probe2,1,553,NaN,car,car,NaN,car8-truck3.png,car8-truck3.png,1.0,2.2930298,0.894609,0.98883283
alexnet_w3_mlp_simclrhn_probe2,1,554,NaN,bicycle,car,NaN,car9-bicycle2.png,car9-bicycle2.png,0.0,-2.64703,1.6775197,-3.0579185
alexnet_w3_mlp_simclrhn_probe2,1,555,NaN,knife,car,NaN,car9-bird1.png,car9-bird1.png,0.0,-3.0763836,-0.59338695,-1.7557439
alexnet_w3_mlp_simclrhn_probe2,1,556,NaN,cat,car,NaN,car9-cat1.png,car9-cat1.png,0.0,-11.634204,0.6663211,-8.697784
alexnet_w3_mlp_simclrhn_probe2,1,557,NaN,car,car,NaN,car9-clock2.png,car9-clock2.png,1.0,5.567019,2.7015545,2.0261893
alexnet_w3_mlp_simclrhn_probe2,1,558,NaN,knife,car,NaN,car9-keyboard2.png,car9-keyboard2.png,0.0,-0.5214815,-0.16787975,-0.2500342
alexnet_w3_mlp_simclrhn_probe2,1,559,NaN,car,car,NaN,car9-knife1.png,car9-knife1.png,1.0,0.35823497,0.23824492,0.08484578
alexnet_w3_mlp_simclrhn_probe2,1,560,NaN,car,car,NaN,car9-truck3.png,car9-truck3.png,1.0,2.67558,1.3480086,0.93873477
alexnet_w3_mlp_simclrhn_probe2,1,561,NaN,chair,cat,NaN,cat1-airplane1.png,cat1-airplane1.png,0.0,-4.608807,-0.16915084,-3.139311
alexnet_w3_mlp_simclrhn_probe2,1,562,NaN,cat,cat,NaN,cat1-bird1.png,cat1-bird1.png,1.0,-0.13462117,-1.025179,0.62971956
alexnet_w3_mlp_simclrhn_probe2,1,563,NaN,chair,cat,NaN,cat1-boat1.png,cat1-boat1.png,0.0,-4.742931,0.8230789,-3.9357631
alexnet_w3_mlp_simclrhn_probe2,1,564,NaN,bicycle,cat,NaN,cat1-car2.png,cat1-car2.png,0.0,-3.9135077,0.872174,-3.3839881
alexnet_w3_mlp_simclrhn_probe2,1,565,NaN,cat,cat,NaN,cat1-cat3.png,cat1-cat3.png,1.0,3.881048,-0.9094557,3.3873975
alexnet_w3_mlp_simclrhn_probe2,1,566,NaN,chair,cat,NaN,cat1-chair2.png,cat1-chair2.png,0.0,-3.7098408,1.1845644,-3.4608672
alexnet_w3_mlp_simclrhn_probe2,1,567,NaN,cat,cat,NaN,cat1-dog1.png,cat1-dog1.png,1.0,2.1813247,-0.95902807,2.2205648
alexnet_w3_mlp_simclrhn_probe2,1,568,NaN,knife,cat,NaN,cat1-keyboard3.png,cat1-keyboard3.png,0.0,-4.5540547,0.35631615,-3.4721565
alexnet_w3_mlp_simclrhn_probe2,1,569,NaN,chair,cat,NaN,cat1-oven1.png,cat1-oven1.png,0.0,-4.8998466,0.547723,-3.8520133
alexnet_w3_mlp_simclrhn_probe2,1,570,NaN,knife,cat,NaN,cat10-airplane3.png,cat10-airplane3.png,0.0,-3.8759196,0.004303515,-2.743732
alexnet_w3_mlp_simclrhn_probe2,1,571,NaN,cat,cat,NaN,cat10-bear1.png,cat10-bear1.png,1.0,0.6134933,-0.7380306,0.9556717
alexnet_w3_mlp_simclrhn_probe2,1,572,NaN,bird,cat,NaN,cat10-bicycle1.png,cat10-bicycle1.png,0.0,-3.0087826,-1.7200916,-0.9112422
alexnet_w3_mlp_simclrhn_probe2,1,573,NaN,cat,cat,NaN,cat10-bird2.png,cat10-bird2.png,1.0,0.5137186,-2.3646338,2.0353026
alexnet_w3_mlp_simclrhn_probe2,1,574,NaN,oven,cat,NaN,cat10-bottle1.png,cat10-bottle1.png,0.0,-3.790825,0.35040003,-2.9282882
alexnet_w3_mlp_simclrhn_probe2,1,575,NaN,oven,cat,NaN,cat10-clock1.png,cat10-clock1.png,0.0,-2.488895,-0.31144264,-1.5396913
alexnet_w3_mlp_simclrhn_probe2,1,576,NaN,elephant,cat,NaN,cat10-elephant3.png,cat10-elephant3.png,0.0,-1.3605986,-1.26589,-0.06696907
alexnet_w3_mlp_simclrhn_probe2,1,577,NaN,oven,cat,NaN,cat10-keyboard1.png,cat10-keyboard1.png,0.0,-2.826762,-0.110814184,-1.9204652
alexnet_w3_mlp_simclrhn_probe2,1,578,NaN,chair,cat,NaN,cat10-oven2.png,cat10-oven2.png,0.0,-4.3173194,1.4737089,-4.0948753
alexnet_w3_mlp_simclrhn_probe2,1,579,NaN,bicycle,cat,NaN,cat2-boat2.png,cat2-boat2.png,0.0,-4.1554475,0.4537509,-3.2591956
alexnet_w3_mlp_simclrhn_probe2,1,580,NaN,cat,cat,NaN,cat2-bottle3.png,cat2-bottle3.png,1.0,-3.2263095,-3.6414902,0.29357708
alexnet_w3_mlp_simclrhn_probe2,1,581,NaN,bicycle,cat,NaN,cat2-car3.png,cat2-car3.png,0.0,-2.6447356,-2.2511578,-0.27830154
alexnet_w3_mlp_simclrhn_probe2,1,582,NaN,cat,cat,NaN,cat2-cat1.png,cat2-cat1.png,1.0,1.5244322,-0.6983861,1.57177
alexnet_w3_mlp_simclrhn_probe2,1,583,NaN,elephant,cat,NaN,cat2-elephant1.png,cat2-elephant1.png,0.0,-1.4783677,-1.094964,-0.27110735
alexnet_w3_mlp_simclrhn_probe2,1,584,NaN,bottle,cat,NaN,cat2-knife3.png,cat2-knife3.png,0.0,-3.3361766,-0.4675269,-2.0284417
alexnet_w3_mlp_simclrhn_probe2,1,585,NaN,bottle,cat,NaN,cat2-truck3.png,cat2-truck3.png,0.0,-6.3190465,0.4604704,-4.7938423
alexnet_w3_mlp_simclrhn_probe2,1,586,NaN,bear,cat,NaN,cat3-bear2.png,cat3-bear2.png,0.0,1.2603279,1.7083385,-0.31679133
alexnet_w3_mlp_simclrhn_probe2,1,587,NaN,bird,cat,NaN,cat3-bicycle1.png,cat3-bicycle1.png,0.0,-2.4876091,-1.7448617,-0.52520174
alexnet_w3_mlp_simclrhn_probe2,1,588,NaN,cat,cat,NaN,cat3-cat1.png,cat3-cat1.png,1.0,4.5366583,-0.1606955,3.3215308
alexnet_w3_mlp_simclrhn_probe2,1,589,NaN,cat,cat,NaN,cat3-elephant2.png,cat3-elephant2.png,1.0,0.005055865,-0.4558705,0.3259242
alexnet_w3_mlp_simclrhn_probe2,1,590,NaN,oven,cat,NaN,cat3-oven2.png,cat3-oven2.png,0.0,-3.9366093,1.1033314,-3.5637765
alexnet_w3_mlp_simclrhn_probe2,1,591,NaN,chair,cat,NaN,cat3-truck3.png,cat3-truck3.png,0.0,-5.076831,0.80640304,-4.1600747
alexnet_w3_mlp_simclrhn_probe2,1,592,NaN,chair,cat,NaN,cat4-airplane1.png,cat4-airplane1.png,0.0,-3.2381775,-0.70911324,-1.7883185
alexnet_w3_mlp_simclrhn_probe2,1,593,NaN,cat,cat,NaN,cat4-bird2.png,cat4-bird2.png,1.0,-1.0645672,-2.711845,1.1648012
alexnet_w3_mlp_simclrhn_probe2,1,594,NaN,bicycle,cat,NaN,cat4-car2.png,cat4-car2.png,0.0,-3.222475,-0.61615676,-1.8429453
alexnet_w3_mlp_simclrhn_probe2,1,595,NaN,cat,cat,NaN,cat4-cat3.png,cat4-cat3.png,1.0,0.96355075,-0.9396988,1.3458006
alexnet_w3_mlp_simclrhn_probe2,1,596,NaN,chair,cat,NaN,cat4-chair2.png,cat4-chair2.png,0.0,-4.261795,0.45582798,-3.3358634
alexnet_w3_mlp_simclrhn_probe2,1,597,NaN,bottle,cat,NaN,cat4-clock2.png,cat4-clock2.png,0.0,-4.905014,-0.8376395,-2.8760684
alexnet_w3_mlp_simclrhn_probe2,1,598,NaN,cat,cat,NaN,cat4-dog3.png,cat4-dog3.png,1.0,1.0817739,0.28769532,0.56149834
alexnet_w3_mlp_simclrhn_probe2,1,599,NaN,clock,cat,NaN,cat4-keyboard2.png,cat4-keyboard2.png,0.0,-3.318992,0.33394542,-2.5830169
alexnet_w3_mlp_simclrhn_probe2,1,600,NaN,bicycle,cat,NaN,cat4-knife1.png,cat4-knife1.png,0.0,-4.609837,0.36728534,-3.519357
alexnet_w3_mlp_simclrhn_probe2,1,601,NaN,knife,cat,NaN,cat4-oven1.png,cat4-oven1.png,0.0,-4.084982,0.9773504,-3.5796094
alexnet_w3_mlp_simclrhn_probe2,1,602,NaN,bottle,cat,NaN,cat4-truck3.png,cat4-truck3.png,0.0,-6.183189,0.6637845,-4.8415413
alexnet_w3_mlp_simclrhn_probe2,1,603,NaN,chair,cat,NaN,cat5-airplane2.png,cat5-airplane2.png,0.0,-6.340527,-0.16907191,-4.3638783
alexnet_w3_mlp_simclrhn_probe2,1,604,NaN,cat,cat,NaN,cat5-bear2.png,cat5-bear2.png,1.0,1.3856169,-0.22177759,1.1365995
alexnet_w3_mlp_simclrhn_probe2,1,605,NaN,cat,cat,NaN,cat5-bicycle3.png,cat5-bicycle3.png,1.0,-0.64978284,-1.7415528,0.7719979
alexnet_w3_mlp_simclrhn_probe2,1,606,NaN,chair,cat,NaN,cat5-boat1.png,cat5-boat1.png,0.0,-6.079985,0.56566525,-4.6991844
alexnet_w3_mlp_simclrhn_probe2,1,607,NaN,oven,cat,NaN,cat5-bottle1.png,cat5-bottle1.png,0.0,-2.9219313,0.07125479,-2.116502
alexnet_w3_mlp_simclrhn_probe2,1,608,NaN,bicycle,cat,NaN,cat5-car2.png,cat5-car2.png,0.0,-3.3227608,-0.59315944,-1.9301196
alexnet_w3_mlp_simclrhn_probe2,1,609,NaN,chair,cat,NaN,cat5-chair3.png,cat5-chair3.png,0.0,-3.6845608,0.67537916,-3.0829432
alexnet_w3_mlp_simclrhn_probe2,1,610,NaN,cat,cat,NaN,cat5-dog3.png,cat5-dog3.png,1.0,3.463555,-0.20349269,2.5929945
alexnet_w3_mlp_simclrhn_probe2,1,611,NaN,cat,cat,NaN,cat5-elephant2.png,cat5-elephant2.png,1.0,0.50314945,0.07856241,0.3002284
alexnet_w3_mlp_simclrhn_probe2,1,612,NaN,knife,cat,NaN,cat5-keyboard3.png,cat5-keyboard3.png,0.0,-3.1186721,-0.08150323,-2.1476028
alexnet_w3_mlp_simclrhn_probe2,1,613,NaN,oven,cat,NaN,cat5-knife2.png,cat5-knife2.png,0.0,-3.1797578,0.886872,-2.8755417
alexnet_w3_mlp_simclrhn_probe2,1,614,NaN,cat,cat,NaN,cat6-bear1.png,cat6-bear1.png,1.0,1.2603512,-0.5929217,1.3104619
alexnet_w3_mlp_simclrhn_probe2,1,615,NaN,chair,cat,NaN,cat6-chair3.png,cat6-chair3.png,0.0,-4.547891,1.1011394,-3.994468
alexnet_w3_mlp_simclrhn_probe2,1,616,NaN,bottle,cat,NaN,cat6-clock3.png,cat6-clock3.png,0.0,-3.2107763,-0.79905623,-1.7053436
alexnet_w3_mlp_simclrhn_probe2,1,617,NaN,knife,cat,NaN,cat6-keyboard3.png,cat6-keyboard3.png,0.0,-2.6858776,0.6890605,-2.3864417
alexnet_w3_mlp_simclrhn_probe2,1,618,NaN,knife,cat,NaN,cat6-oven1.png,cat6-oven1.png,0.0,-4.5096235,0.90065527,-3.825645
alexnet_w3_mlp_simclrhn_probe2,1,619,NaN,knife,cat,NaN,cat7-airplane2.png,cat7-airplane2.png,0.0,-4.8467155,-0.49284464,-3.0786517
alexnet_w3_mlp_simclrhn_probe2,1,620,NaN,oven,cat,NaN,cat7-boat3.png,cat7-boat3.png,0.0,-3.5772932,1.7070936,-3.7366257
alexnet_w3_mlp_simclrhn_probe2,1,621,NaN,oven,cat,NaN,cat7-bottle1.png,cat7-bottle1.png,0.0,-3.5278218,0.2025984,-2.6378055
alexnet_w3_mlp_simclrhn_probe2,1,622,NaN,bottle,cat,NaN,cat7-clock3.png,cat7-clock3.png,0.0,-2.8753545,-1.4551039,-1.0042689
alexnet_w3_mlp_simclrhn_probe2,1,623,NaN,cat,cat,NaN,cat7-dog3.png,cat7-dog3.png,1.0,0.824498,0.81290007,0.008200976
alexnet_w3_mlp_simclrhn_probe2,1,624,NaN,cat,cat,NaN,cat7-elephant1.png,cat7-elephant1.png,1.0,-1.6071132,-1.7211189,0.080614194
alexnet_w3_mlp_simclrhn_probe2,1,625,NaN,oven,cat,NaN,cat7-knife2.png,cat7-knife2.png,0.0,-3.1643639,0.46381047,-2.5655067
alexnet_w3_mlp_simclrhn_probe2,1,626,NaN,chair,cat,NaN,cat7-truck2.png,cat7-truck2.png,0.0,-4.1197796,1.3731736,-3.8841045
alexnet_w3_mlp_simclrhn_probe2,1,627,NaN,bear,cat,NaN,cat8-bear1.png,cat8-bear1.png,0.0,0.4734652,0.491484,-0.012741203
alexnet_w3_mlp_simclrhn_probe2,1,628,NaN,bicycle,cat,NaN,cat8-bicycle3.png,cat8-bicycle3.png,0.0,-2.0897446,-1.0852098,-0.7103133
alexnet_w3_mlp_simclrhn_probe2,1,629,NaN,cat,cat,NaN,cat8-bird2.png,cat8-bird2.png,1.0,-1.5425338,-3.148878,1.135857
alexnet_w3_mlp_simclrhn_probe2,1,630,NaN,bicycle,cat,NaN,cat8-car2.png,cat8-car2.png,0.0,-2.9649794,-1.2157888,-1.2368646
alexnet_w3_mlp_simclrhn_probe2,1,631,NaN,bird,cat,NaN,cat9-bicycle1.png,cat9-bicycle1.png,0.0,-3.7970798,-2.015069,-1.260072
alexnet_w3_mlp_simclrhn_probe2,1,632,NaN,dog,cat,NaN,cat9-bird3.png,cat9-bird3.png,0.0,0.2009166,0.929796,-0.5153956
alexnet_w3_mlp_simclrhn_probe2,1,633,NaN,oven,cat,NaN,cat9-boat2.png,cat9-boat2.png,0.0,-4.793616,0.36733213,-3.6493413
alexnet_w3_mlp_simclrhn_probe2,1,634,NaN,bottle,cat,NaN,cat9-bottle2.png,cat9-bottle2.png,0.0,-6.9275994,2.1617877,-6.4271674
alexnet_w3_mlp_simclrhn_probe2,1,635,NaN,cat,cat,NaN,cat9-cat3.png,cat9-cat3.png,1.0,1.0372394,-0.27577335,0.9284403
alexnet_w3_mlp_simclrhn_probe2,1,636,NaN,boat,cat,NaN,cat9-chair2.png,cat9-chair2.png,0.0,-4.1634116,0.4017892,-3.2280846
alexnet_w3_mlp_simclrhn_probe2,1,637,NaN,bottle,cat,NaN,cat9-clock2.png,cat9-clock2.png,0.0,-3.38755,-1.7819363,-1.1353405
alexnet_w3_mlp_simclrhn_probe2,1,638,NaN,cat,cat,NaN,cat9-dog2.png,cat9-dog2.png,1.0,0.1255405,0.006522476,0.08415845
alexnet_w3_mlp_simclrhn_probe2,1,639,NaN,airplane,cat,NaN,cat9-knife2.png,cat9-knife2.png,0.0,-3.3355095,0.006824486,-2.363387
alexnet_w3_mlp_simclrhn_probe2,1,640,NaN,chair,cat,NaN,cat9-truck1.png,cat9-truck1.png,0.0,-5.4482713,1.1581979,-4.671479
alexnet_w3_mlp_simclrhn_probe2,1,641,NaN,chair,chair,NaN,chair1-airplane2.png,chair1-airplane2.png,1.0,2.2452612,-0.15393981,1.6964912
alexnet_w3_mlp_simclrhn_probe2,1,642,NaN,cat,chair,NaN,chair1-bear1.png,chair1-bear1.png,0.0,-5.7820816,0.3947413,-4.3676734
alexnet_w3_mlp_simclrhn_probe2,1,643,NaN,cat,chair,NaN,chair1-cat3.png,chair1-cat3.png,0.0,-5.1216063,1.4274216,-4.630862
alexnet_w3_mlp_simclrhn_probe2,1,644,NaN,chair,chair,NaN,chair1-chair1.png,chair1-chair1.png,1.0,2.0750756,-0.17727754,1.5926542
alexnet_w3_mlp_simclrhn_probe2,1,645,NaN,bottle,chair,NaN,chair1-clock2.png,chair1-clock2.png,0.0,-0.3963527,-0.3404607,-0.039521627
alexnet_w3_mlp_simclrhn_probe2,1,646,NaN,cat,chair,NaN,chair1-dog1.png,chair1-dog1.png,0.0,-3.8624237,0.7431901,-3.2566607
alexnet_w3_mlp_simclrhn_probe2,1,647,NaN,elephant,chair,NaN,chair1-elephant1.png,chair1-elephant1.png,0.0,-2.512719,-1.2190175,-0.914785
alexnet_w3_mlp_simclrhn_probe2,1,648,NaN,chair,chair,NaN,chair1-oven3.png,chair1-oven3.png,1.0,1.6666112,0.41700375,0.8836059
alexnet_w3_mlp_simclrhn_probe2,1,649,NaN,knife,chair,NaN,chair1-truck3.png,chair1-truck3.png,0.0,0.080228806,0.695532,-0.4350851
alexnet_w3_mlp_simclrhn_probe2,1,650,NaN,chair,chair,NaN,chair10-airplane2.png,chair10-airplane2.png,1.0,3.616862,0.278491,2.3605847
alexnet_w3_mlp_simclrhn_probe2,1,651,NaN,bicycle,chair,NaN,chair10-bicycle1.png,chair10-bicycle1.png,0.0,-2.7431123,-0.8149545,-1.3634135
alexnet_w3_mlp_simclrhn_probe2,1,652,NaN,oven,chair,NaN,chair10-bird3.png,chair10-bird3.png,0.0,-1.1785421,-0.64983195,-0.37385458
alexnet_w3_mlp_simclrhn_probe2,1,653,NaN,oven,chair,NaN,chair10-bottle3.png,chair10-bottle3.png,0.0,-1.2973627,1.0023705,-1.6261569
alexnet_w3_mlp_simclrhn_probe2,1,654,NaN,bottle,chair,NaN,chair10-car2.png,chair10-car2.png,0.0,-1.5126706,-1.5113603,-0.00092655636
alexnet_w3_mlp_simclrhn_probe2,1,655,NaN,cat,chair,NaN,chair10-cat1.png,chair10-cat1.png,0.0,-7.528211,1.3453127,-6.274529
alexnet_w3_mlp_simclrhn_probe2,1,656,NaN,chair,chair,NaN,chair10-clock1.png,chair10-clock1.png,1.0,0.507272,0.15440731,0.24951302
alexnet_w3_mlp_simclrhn_probe2,1,657,NaN,cat,chair,NaN,chair10-dog1.png,chair10-dog1.png,0.0,-5.033155,0.5008591,-3.913139
alexnet_w3_mlp_simclrhn_probe2,1,658,NaN,oven,chair,NaN,chair10-oven1.png,chair10-oven1.png,0.0,2.103404,2.3449788,-0.17081916
alexnet_w3_mlp_simclrhn_probe2,1,659,NaN,elephant,chair,NaN,chair2-bear2.png,chair2-bear2.png,0.0,-3.821869,0.85371536,-3.3061373
alexnet_w3_mlp_simclrhn_probe2,1,660,NaN,chair,chair,NaN,chair2-boat1.png,chair2-boat1.png,1.0,1.8379071,1.111089,0.513938
alexnet_w3_mlp_simclrhn_probe2,1,661,NaN,knife,chair,NaN,chair2-keyboard2.png,chair2-keyboard2.png,0.0,-0.82264924,0.5232494,-0.9516941
alexnet_w3_mlp_simclrhn_probe2,1,662,NaN,chair,chair,NaN,chair2-knife1.png,chair2-knife1.png,1.0,0.9886118,-0.20268852,0.8423766
alexnet_w3_mlp_simclrhn_probe2,1,663,NaN,chair,chair,NaN,chair3-airplane2.png,chair3-airplane2.png,1.0,1.693706,-0.22135267,1.354151
alexnet_w3_mlp_simclrhn_probe2,1,664,NaN,chair,chair,NaN,chair3-bicycle3.png,chair3-bicycle3.png,1.0,-1.096813,-1.1552638,0.04133097
alexnet_w3_mlp_simclrhn_probe2,1,665,NaN,oven,chair,NaN,chair3-bottle3.png,chair3-bottle3.png,0.0,-0.980668,0.22751898,-0.85431725
alexnet_w3_mlp_simclrhn_probe2,1,666,NaN,chair,chair,NaN,chair3-car3.png,chair3-car3.png,1.0,-0.3886719,-0.95684093,0.40175617
alexnet_w3_mlp_simclrhn_probe2,1,667,NaN,cat,chair,NaN,chair3-dog2.png,chair3-dog2.png,0.0,-4.3590956,0.7392376,-3.605066
alexnet_w3_mlp_simclrhn_probe2,1,668,NaN,chair,chair,NaN,chair3-knife1.png,chair3-knife1.png,1.0,0.36668792,-0.6454282,0.71567416
alexnet_w3_mlp_simclrhn_probe2,1,669,NaN,elephant,chair,NaN,chair4-bear2.png,chair4-bear2.png,0.0,-2.5691633,0.86008257,-2.424843
alexnet_w3_mlp_simclrhn_probe2,1,670,NaN,cat,chair,NaN,chair4-cat2.png,chair4-cat2.png,0.0,-4.146393,1.17025,-3.7594342
alexnet_w3_mlp_simclrhn_probe2,1,671,NaN,chair,chair,NaN,chair4-chair3.png,chair4-chair3.png,1.0,2.3456254,-0.52252644,2.0280898
alexnet_w3_mlp_simclrhn_probe2,1,672,NaN,keyboard,chair,NaN,chair4-keyboard2.png,chair4-keyboard2.png,0.0,-0.92394,1.0477812,-1.3942175
alexnet_w3_mlp_simclrhn_probe2,1,673,NaN,chair,chair,NaN,chair4-oven2.png,chair4-oven2.png,1.0,2.5552337,-0.14035058,1.906066
alexnet_w3_mlp_simclrhn_probe2,1,674,NaN,chair,chair,NaN,chair4-truck2.png,chair4-truck2.png,1.0,3.5054812,-0.69731426,2.9718254
alexnet_w3_mlp_simclrhn_probe2,1,675,NaN,bicycle,chair,NaN,chair5-bicycle1.png,chair5-bicycle1.png,0.0,-2.1722078,1.2062685,-2.3889437
alexnet_w3_mlp_simclrhn_probe2,1,676,NaN,cat,chair,NaN,chair5-bird1.png,chair5-bird1.png,0.0,-3.0314965,-0.82576734,-1.5596862
alexnet_w3_mlp_simclrhn_probe2,1,677,NaN,chair,chair,NaN,chair5-boat3.png,chair5-boat3.png,1.0,1.0567807,-0.30960155,0.9661782
alexnet_w3_mlp_simclrhn_probe2,1,678,NaN,bicycle,chair,NaN,chair5-bottle3.png,chair5-bottle3.png,0.0,-1.3978225,0.97828877,-1.6801645
alexnet_w3_mlp_simclrhn_probe2,1,679,NaN,chair,chair,NaN,chair5-car1.png,chair5-car1.png,1.0,1.1843125,0.68357795,0.35407278
alexnet_w3_mlp_simclrhn_probe2,1,680,NaN,cat,chair,NaN,chair5-cat3.png,chair5-cat3.png,0.0,-6.3827095,0.76138806,-5.0516396
alexnet_w3_mlp_simclrhn_probe2,1,681,NaN,bicycle,chair,NaN,chair5-clock2.png,chair5-clock2.png,0.0,0.8712977,1.5317369,-0.467001
alexnet_w3_mlp_simclrhn_probe2,1,682,NaN,keyboard,chair,NaN,chair5-keyboard2.png,chair5-keyboard2.png,0.0,-1.3578947,1.2381879,-1.8357077
alexnet_w3_mlp_simclrhn_probe2,1,683,NaN,chair,chair,NaN,chair5-knife3.png,chair5-knife3.png,1.0,-2.1842086,-2.2927978,0.07678414
alexnet_w3_mlp_simclrhn_probe2,1,684,NaN,chair,chair,NaN,chair5-oven2.png,chair5-oven2.png,1.0,2.4937465,0.24360326,1.5910916
alexnet_w3_mlp_simclrhn_probe2,1,685,NaN,chair,chair,NaN,chair5-truck3.png,chair5-truck3.png,1.0,2.2024748,0.3602304,1.3026636
alexnet_w3_mlp_simclrhn_probe2,1,686,NaN,oven,chair,NaN,chair6-bird2.png,chair6-bird2.png,0.0,-2.9240253,-1.4646591,-1.0319277
alexnet_w3_mlp_simclrhn_probe2,1,687,NaN,cat,chair,NaN,chair6-dog1.png,chair6-dog1.png,0.0,-2.6372123,-0.074690364,-1.8119767
alexnet_w3_mlp_simclrhn_probe2,1,688,NaN,cat,chair,NaN,chair6-elephant2.png,chair6-elephant2.png,0.0,-2.1943288,-0.12819855,-1.4609747
alexnet_w3_mlp_simclrhn_probe2,1,689,NaN,chair,chair,NaN,chair6-truck2.png,chair6-truck2.png,1.0,2.4755113,-0.6800299,2.2313046
alexnet_w3_mlp_simclrhn_probe2,1,690,NaN,chair,chair,NaN,chair7-airplane1.png,chair7-airplane1.png,1.0,0.61022663,-0.6704946,0.9056066
alexnet_w3_mlp_simclrhn_probe2,1,691,NaN,knife,chair,NaN,chair7-bird1.png,chair7-bird1.png,0.0,-2.635611,-0.51971257,-1.4961662
alexnet_w3_mlp_simclrhn_probe2,1,692,NaN,oven,chair,NaN,chair7-boat3.png,chair7-boat3.png,0.0,1.4310498,1.7592607,-0.2320801
alexnet_w3_mlp_simclrhn_probe2,1,693,NaN,oven,chair,NaN,chair7-bottle1.png,chair7-bottle1.png,0.0,-0.41260463,0.5611308,-0.688535
alexnet_w3_mlp_simclrhn_probe2,1,694,NaN,chair,chair,NaN,chair7-car2.png,chair7-car2.png,1.0,0.16004618,-0.29283547,0.32023567
alexnet_w3_mlp_simclrhn_probe2,1,695,NaN,cat,chair,NaN,chair7-cat1.png,chair7-cat1.png,0.0,-6.1737638,2.073641,-5.831796
alexnet_w3_mlp_simclrhn_probe2,1,696,NaN,chair,chair,NaN,chair7-chair1.png,chair7-chair1.png,1.0,2.2732048,-0.9522598,2.280748
alexnet_w3_mlp_simclrhn_probe2,1,697,NaN,chair,chair,NaN,chair7-clock3.png,chair7-clock3.png,1.0,0.32353634,-0.6439233,0.6840973
alexnet_w3_mlp_simclrhn_probe2,1,698,NaN,bicycle,chair,NaN,chair7-elephant1.png,chair7-elephant1.png,0.0,-2.025203,-1.2979875,-0.51421905
alexnet_w3_mlp_simclrhn_probe2,1,699,NaN,oven,chair,NaN,chair7-knife2.png,chair7-knife2.png,0.0,-0.22320268,0.70030975,-0.65302193
alexnet_w3_mlp_simclrhn_probe2,1,700,NaN,chair,chair,NaN,chair7-truck3.png,chair7-truck3.png,1.0,2.9879029,0.16037619,1.9993633
alexnet_w3_mlp_simclrhn_probe2,1,701,NaN,chair,chair,NaN,chair8-airplane1.png,chair8-airplane1.png,1.0,-0.17824994,-1.3709594,0.84337294
alexnet_w3_mlp_simclrhn_probe2,1,702,NaN,elephant,chair,NaN,chair8-bear1.png,chair8-bear1.png,0.0,-4.249857,-0.99709576,-2.3000495
alexnet_w3_mlp_simclrhn_probe2,1,703,NaN,bicycle,chair,NaN,chair8-bicycle3.png,chair8-bicycle3.png,0.0,-1.7411343,-1.5144126,-0.16031641
alexnet_w3_mlp_simclrhn_probe2,1,704,NaN,chair,chair,NaN,chair8-boat1.png,chair8-boat1.png,1.0,1.931297,-0.82209873,1.9469447
alexnet_w3_mlp_simclrhn_probe2,1,705,NaN,chair,chair,NaN,chair8-car1.png,chair8-car1.png,1.0,0.15610819,-0.94122446,0.77593136
alexnet_w3_mlp_simclrhn_probe2,1,706,NaN,chair,chair,NaN,chair8-chair3.png,chair8-chair3.png,1.0,0.86693305,-0.04202631,0.64273137
alexnet_w3_mlp_simclrhn_probe2,1,707,NaN,chair,chair,NaN,chair8-clock3.png,chair8-clock3.png,1.0,-0.72639644,-1.2285569,0.35508105
alexnet_w3_mlp_simclrhn_probe2,1,708,NaN,elephant,chair,NaN,chair8-elephant1.png,chair8-elephant1.png,0.0,-2.4307485,-1.2998154,-0.7996904
alexnet_w3_mlp_simclrhn_probe2,1,709,NaN,knife,chair,NaN,chair8-keyboard3.png,chair8-keyboard3.png,0.0,-3.6539068,-1.0320876,-1.8539062
alexnet_w3_mlp_simclrhn_probe2,1,710,NaN,oven,chair,NaN,chair8-knife2.png,chair8-knife2.png,0.0,-0.5750783,0.19078287,-0.5415456
alexnet_w3_mlp_simclrhn_probe2,1,711,NaN,knife,chair,NaN,chair8-oven1.png,chair8-oven1.png,0.0,1.3665123,1.8652947,-0.35269243
alexnet_w3_mlp_simclrhn_probe2,1,712,NaN,cat,chair,NaN,chair9-bear1.png,chair9-bear1.png,0.0,-5.642604,0.31805587,-4.2148232
alexnet_w3_mlp_simclrhn_probe2,1,713,NaN,bicycle,chair,NaN,chair9-bicycle3.png,chair9-bicycle3.png,0.0,-1.7849793,-0.22609834,-1.1022954
alexnet_w3_mlp_simclrhn_probe2,1,714,NaN,chair,chair,NaN,chair9-bird3.png,chair9-bird3.png,1.0,-2.104099,-2.1676414,0.04493124
alexnet_w3_mlp_simclrhn_probe2,1,715,NaN,chair,chair,NaN,chair9-boat2.png,chair9-boat2.png,1.0,1.0462947,-0.1099965,0.8176214
alexnet_w3_mlp_simclrhn_probe2,1,716,NaN,oven,chair,NaN,chair9-bottle3.png,chair9-bottle3.png,0.0,-2.9228516,-1.5528271,-0.9687536
alexnet_w3_mlp_simclrhn_probe2,1,717,NaN,airplane,chair,NaN,chair9-chair3.png,chair9-chair3.png,0.0,1.1566557,1.6693206,-0.36250883
alexnet_w3_mlp_simclrhn_probe2,1,718,NaN,cat,chair,NaN,chair9-dog2.png,chair9-dog2.png,0.0,-4.7599363,0.39839438,-3.6474907
alexnet_w3_mlp_simclrhn_probe2,1,719,NaN,bicycle,chair,NaN,chair9-elephant1.png,chair9-elephant1.png,0.0,-2.2663875,-1.2938462,-0.6876905
alexnet_w3_mlp_simclrhn_probe2,1,720,NaN,knife,chair,NaN,chair9-keyboard2.png,chair9-keyboard2.png,0.0,-1.6873292,-0.00023232773,-1.1929576
alexnet_w3_mlp_simclrhn_probe2,1,721,NaN,elephant,clock,NaN,clock1-bear1.png,clock1-bear1.png,0.0,-8.431518,-0.14896911,-5.8566465
alexnet_w3_mlp_simclrhn_probe2,1,722,NaN,boat,clock,NaN,clock1-boat3.png,clock1-boat3.png,0.0,-3.1210537,-0.82514155,-1.6234552
alexnet_w3_mlp_simclrhn_probe2,1,723,NaN,knife,clock,NaN,clock1-car1.png,clock1-car1.png,0.0,-4.3328357,-0.7603747,-2.5261114
alexnet_w3_mlp_simclrhn_probe2,1,724,NaN,clock,clock,NaN,clock1-clock2.png,clock1-clock2.png,1.0,-0.55714434,-1.368865,0.5739732
alexnet_w3_mlp_simclrhn_probe2,1,725,NaN,cat,clock,NaN,clock1-dog2.png,clock1-dog2.png,0.0,-4.354484,-0.2953861,-2.8702157
alexnet_w3_mlp_simclrhn_probe2,1,726,NaN,elephant,clock,NaN,clock1-elephant2.png,clock1-elephant2.png,0.0,-2.7558546,-0.012777656,-1.9396484
alexnet_w3_mlp_simclrhn_probe2,1,727,NaN,knife,clock,NaN,clock1-truck3.png,clock1-truck3.png,0.0,-1.0070702,1.087676,-1.4812092
alexnet_w3_mlp_simclrhn_probe2,1,728,NaN,clock,clock,NaN,clock10-airplane1.png,clock10-airplane1.png,1.0,1.6344999,-0.72585946,1.6690261
alexnet_w3_mlp_simclrhn_probe2,1,729,NaN,clock,clock,NaN,clock10-bird3.png,clock10-bird3.png,1.0,0.2305917,-0.005687177,0.1670744
alexnet_w3_mlp_simclrhn_probe2,1,730,NaN,bottle,clock,NaN,clock10-boat2.png,clock10-boat2.png,0.0,0.65268207,0.68596596,-0.023535265
alexnet_w3_mlp_simclrhn_probe2,1,731,NaN,oven,clock,NaN,clock10-bottle1.png,clock10-bottle1.png,0.0,-1.1900754,-0.80539894,-0.27200735
alexnet_w3_mlp_simclrhn_probe2,1,732,NaN,cat,clock,NaN,clock10-cat1.png,clock10-cat1.png,0.0,-6.107441,-0.53944474,-3.937168
alexnet_w3_mlp_simclrhn_probe2,1,733,NaN,clock,clock,NaN,clock10-clock3.png,clock10-clock3.png,1.0,3.1196072,0.3261178,1.9752954
alexnet_w3_mlp_simclrhn_probe2,1,734,NaN,dog,clock,NaN,clock10-dog3.png,clock10-dog3.png,0.0,-7.453247,-1.3979872,-4.2817154
alexnet_w3_mlp_simclrhn_probe2,1,735,NaN,bottle,clock,NaN,clock10-knife3.png,clock10-knife3.png,0.0,-0.35262778,-0.002619854,-0.24749298
alexnet_w3_mlp_simclrhn_probe2,1,736,NaN,bottle,clock,NaN,clock10-oven2.png,clock10-oven2.png,0.0,0.048538517,2.4388955,-1.6902376
alexnet_w3_mlp_simclrhn_probe2,1,737,NaN,bottle,clock,NaN,clock10-truck2.png,clock10-truck2.png,0.0,-1.2378229,1.9978886,-2.2879937
alexnet_w3_mlp_simclrhn_probe2,1,738,NaN,elephant,clock,NaN,clock2-bear2.png,clock2-bear2.png,0.0,-2.1008122,-1.8403527,-0.1841727
alexnet_w3_mlp_simclrhn_probe2,1,739,NaN,clock,clock,NaN,clock2-bicycle1.png,clock2-bicycle1.png,1.0,0.99008864,-4.0605016,3.5713065
alexnet_w3_mlp_simclrhn_probe2,1,740,NaN,clock,clock,NaN,clock2-bottle3.png,clock2-bottle3.png,1.0,3.586667,-2.9272077,4.606005
alexnet_w3_mlp_simclrhn_probe2,1,741,NaN,clock,clock,NaN,clock2-clock3.png,clock2-clock3.png,1.0,5.8392773,-1.4684918,5.167373
alexnet_w3_mlp_simclrhn_probe2,1,742,NaN,oven,clock,NaN,clock2-dog1.png,clock2-dog1.png,0.0,-2.8737676,-1.0525014,-1.2878296
alexnet_w3_mlp_simclrhn_probe2,1,743,NaN,clock,clock,NaN,clock2-elephant2.png,clock2-elephant2.png,1.0,-1.049921,-1.8537372,0.5683839
alexnet_w3_mlp_simclrhn_probe2,1,744,NaN,clock,clock,NaN,clock2-knife1.png,clock2-knife1.png,1.0,1.4255892,-1.2110089,1.8643564
alexnet_w3_mlp_simclrhn_probe2,1,745,NaN,elephant,clock,NaN,clock3-bear3.png,clock3-bear3.png,0.0,-4.8450537,0.4752894,-3.7620506
alexnet_w3_mlp_simclrhn_probe2,1,746,NaN,clock,clock,NaN,clock3-bicycle2.png,clock3-bicycle2.png,1.0,0.123094715,-2.4832397,1.8429568
alexnet_w3_mlp_simclrhn_probe2,1,747,NaN,bottle,clock,NaN,clock3-bird1.png,clock3-bird1.png,0.0,-1.0233752,-0.63066083,-0.27769098
alexnet_w3_mlp_simclrhn_probe2,1,748,NaN,bicycle,clock,NaN,clock3-car2.png,clock3-car2.png,0.0,-0.53878826,1.7196177,-1.5969342
alexnet_w3_mlp_simclrhn_probe2,1,749,NaN,oven,clock,NaN,clock3-cat1.png,clock3-cat1.png,0.0,-1.87718,-1.1703377,-0.499813
alexnet_w3_mlp_simclrhn_probe2,1,750,NaN,clock,clock,NaN,clock3-dog2.png,clock3-dog2.png,1.0,-0.44405726,-1.0303352,0.41456112
alexnet_w3_mlp_simclrhn_probe2,1,751,NaN,clock,clock,NaN,clock3-elephant3.png,clock3-elephant3.png,1.0,-1.0472702,-2.206184,0.81947577
alexnet_w3_mlp_simclrhn_probe2,1,752,NaN,clock,clock,NaN,clock3-keyboard3.png,clock3-keyboard3.png,1.0,1.5705107,-0.22055247,1.2664729
alexnet_w3_mlp_simclrhn_probe2,1,753,NaN,clock,clock,NaN,clock4-airplane1.png,clock4-airplane1.png,1.0,3.0316775,-0.4762981,2.4805133
alexnet_w3_mlp_simclrhn_probe2,1,754,NaN,clock,clock,NaN,clock4-bird3.png,clock4-bird3.png,1.0,0.9601965,-0.9838848,1.3746731
alexnet_w3_mlp_simclrhn_probe2,1,755,NaN,oven,clock,NaN,clock4-boat3.png,clock4-boat3.png,0.0,-0.81767946,0.20002617,-0.7196266
alexnet_w3_mlp_simclrhn_probe2,1,756,NaN,clock,clock,NaN,clock4-bottle3.png,clock4-bottle3.png,1.0,0.9151702,-2.320718,2.2881186
alexnet_w3_mlp_simclrhn_probe2,1,757,NaN,bicycle,clock,NaN,clock4-car2.png,clock4-car2.png,0.0,-1.6286174,0.4731537,-1.4861766
alexnet_w3_mlp_simclrhn_probe2,1,758,NaN,car,clock,NaN,clock4-chair1.png,clock4-chair1.png,0.0,-1.3418065,0.09521302,-1.0161263
alexnet_w3_mlp_simclrhn_probe2,1,759,NaN,elephant,clock,NaN,clock4-elephant2.png,clock4-elephant2.png,0.0,-2.6938007,-0.006861031,-1.8999534
alexnet_w3_mlp_simclrhn_probe2,1,760,NaN,clock,clock,NaN,clock4-knife1.png,clock4-knife1.png,1.0,-0.7094156,-1.026185,0.22398981
alexnet_w3_mlp_simclrhn_probe2,1,761,NaN,clock,clock,NaN,clock4-oven1.png,clock4-oven1.png,1.0,1.4193283,0.51032376,0.6427633
alexnet_w3_mlp_simclrhn_probe2,1,762,NaN,clock,clock,NaN,clock5-airplane1.png,clock5-airplane1.png,1.0,4.9778633,-1.0040812,4.2298737
alexnet_w3_mlp_simclrhn_probe2,1,763,NaN,clock,clock,NaN,clock5-bicycle1.png,clock5-bicycle1.png,1.0,0.3044702,-4.0274606,3.0631375
alexnet_w3_mlp_simclrhn_probe2,1,764,NaN,clock,clock,NaN,clock5-chair3.png,clock5-chair3.png,1.0,1.7787784,0.34195065,1.0159907
alexnet_w3_mlp_simclrhn_probe2,1,765,NaN,clock,clock,NaN,clock5-clock2.png,clock5-clock2.png,1.0,10.659361,-1.845907,8.84256
alexnet_w3_mlp_simclrhn_probe2,1,766,NaN,clock,clock,NaN,clock5-elephant2.png,clock5-elephant2.png,1.0,-1.330452,-1.448365,0.083377086
