subj,session,trial,rt,object_response,category,condition,imagename,filename,is_correct,targ_act,max_nontarg_act,decision_margin
alexnet_w1_mlp_simclrhn_probe3,1,1,NaN,airplane,airplane,0,0001_ske_dnn_0_airplane_00_airplane-0001-sketch-0.png,airplane-0001-sketch-0.png,1.0,3.8202422,1.4840995,1.6519023
alexnet_w1_mlp_simclrhn_probe3,1,2,NaN,airplane,airplane,0,0002_ske_dnn_0_airplane_00_airplane-0002-sketch-1.png,airplane-0002-sketch-1.png,1.0,2.5832906,1.9149251,0.47260576
alexnet_w1_mlp_simclrhn_probe3,1,3,NaN,airplane,airplane,0,0003_ske_dnn_0_airplane_00_airplane-0003-sketch-10.png,airplane-0003-sketch-10.png,1.0,0.82043535,0.62076616,0.14118743
alexnet_w1_mlp_simclrhn_probe3,1,4,NaN,airplane,airplane,0,0004_ske_dnn_0_airplane_00_airplane-0004-sketch-11.png,airplane-0004-sketch-11.png,1.0,1.0371988,0.6397742,0.28102162
alexnet_w1_mlp_simclrhn_probe3,1,5,NaN,airplane,airplane,0,0005_ske_dnn_0_airplane_00_airplane-0005-sketch-12.png,airplane-0005-sketch-12.png,1.0,2.4482431,0.7997213,1.165681
alexnet_w1_mlp_simclrhn_probe3,1,6,NaN,airplane,airplane,0,0006_ske_dnn_0_airplane_00_airplane-0006-sketch-13.png,airplane-0006-sketch-13.png,1.0,8.652,1.2543865,5.230903
alexnet_w1_mlp_simclrhn_probe3,1,7,NaN,airplane,airplane,0,0007_ske_dnn_0_airplane_00_airplane-0007-sketch-14.png,airplane-0007-sketch-14.png,1.0,1.7086589,1.0916045,0.4363234
alexnet_w1_mlp_simclrhn_probe3,1,8,NaN,knife,airplane,0,0008_ske_dnn_0_airplane_00_airplane-0008-sketch-15.png,airplane-0008-sketch-15.png,0.0,1.37016,1.9428786,-0.40497324
alexnet_w1_mlp_simclrhn_probe3,1,9,NaN,airplane,airplane,0,0009_ske_dnn_0_airplane_00_airplane-0009-sketch-16.png,airplane-0009-sketch-16.png,1.0,2.2907662,1.5921274,0.49401224
alexnet_w1_mlp_simclrhn_probe3,1,10,NaN,airplane,airplane,0,0010_ske_dnn_0_airplane_00_airplane-0010-sketch-17.png,airplane-0010-sketch-17.png,1.0,1.6361711,1.1441106,0.34793934
alexnet_w1_mlp_simclrhn_probe3,1,11,NaN,clock,airplane,0,0011_ske_dnn_0_airplane_00_airplane-0011-sketch-18.png,airplane-0011-sketch-18.png,0.0,1.8025635,2.89614,-0.77327543
alexnet_w1_mlp_simclrhn_probe3,1,12,NaN,airplane,airplane,0,0012_ske_dnn_0_airplane_00_airplane-0012-sketch-19.png,airplane-0012-sketch-19.png,1.0,2.3288867,2.222432,0.075274944
alexnet_w1_mlp_simclrhn_probe3,1,13,NaN,airplane,airplane,0,0013_ske_dnn_0_airplane_00_airplane-0013-sketch-2.png,airplane-0013-sketch-2.png,1.0,4.366284,0.82814026,2.5018454
alexnet_w1_mlp_simclrhn_probe3,1,14,NaN,airplane,airplane,0,0014_ske_dnn_0_airplane_00_airplane-0014-sketch-20.png,airplane-0014-sketch-20.png,1.0,3.181466,1.6010276,1.1175388
alexnet_w1_mlp_simclrhn_probe3,1,15,NaN,airplane,airplane,0,0015_ske_dnn_0_airplane_00_airplane-0015-sketch-21.png,airplane-0015-sketch-21.png,1.0,3.1077223,1.2961048,1.281007
alexnet_w1_mlp_simclrhn_probe3,1,16,NaN,airplane,airplane,0,0016_ske_dnn_0_airplane_00_airplane-0016-sketch-22.png,airplane-0016-sketch-22.png,1.0,6.0696573,0.87406814,3.6738362
alexnet_w1_mlp_simclrhn_probe3,1,17,NaN,airplane,airplane,0,0017_ske_dnn_0_airplane_00_airplane-0017-sketch-23.png,airplane-0017-sketch-23.png,1.0,2.3573885,2.0474994,0.21912467
alexnet_w1_mlp_simclrhn_probe3,1,18,NaN,clock,airplane,0,0018_ske_dnn_0_airplane_00_airplane-0018-sketch-24.png,airplane-0018-sketch-24.png,0.0,0.584373,1.6269757,-0.73723143
alexnet_w1_mlp_simclrhn_probe3,1,19,NaN,clock,airplane,0,0019_ske_dnn_0_airplane_00_airplane-0019-sketch-25.png,airplane-0019-sketch-25.png,0.0,1.3089588,2.5675244,-0.8899403
alexnet_w1_mlp_simclrhn_probe3,1,20,NaN,knife,airplane,0,0020_ske_dnn_0_airplane_00_airplane-0020-sketch-26.png,airplane-0020-sketch-26.png,0.0,0.5506356,1.519206,-0.68488276
alexnet_w1_mlp_simclrhn_probe3,1,21,NaN,clock,airplane,0,0021_ske_dnn_0_airplane_00_airplane-0021-sketch-27.png,airplane-0021-sketch-27.png,0.0,0.54129654,2.4512987,-1.3505756
alexnet_w1_mlp_simclrhn_probe3,1,22,NaN,airplane,airplane,0,0022_ske_dnn_0_airplane_00_airplane-0022-sketch-28.png,airplane-0022-sketch-28.png,1.0,2.7098143,1.8773384,0.5886494
alexnet_w1_mlp_simclrhn_probe3,1,23,NaN,knife,airplane,0,0023_ske_dnn_0_airplane_00_airplane-0023-sketch-29.png,airplane-0023-sketch-29.png,0.0,0.9551939,1.208185,-0.17889172
alexnet_w1_mlp_simclrhn_probe3,1,24,NaN,airplane,airplane,0,0024_ske_dnn_0_airplane_00_airplane-0024-sketch-3.png,airplane-0024-sketch-3.png,1.0,1.4830797,1.0461392,0.30896354
alexnet_w1_mlp_simclrhn_probe3,1,25,NaN,airplane,airplane,0,0025_ske_dnn_0_airplane_00_airplane-0025-sketch-30.png,airplane-0025-sketch-30.png,1.0,2.3282595,1.9847773,0.24287856
alexnet_w1_mlp_simclrhn_probe3,1,26,NaN,clock,airplane,0,0026_ske_dnn_0_airplane_00_airplane-0027-sketch-32.png,airplane-0027-sketch-32.png,0.0,0.83230853,2.7142441,-1.3307295
alexnet_w1_mlp_simclrhn_probe3,1,27,NaN,knife,airplane,0,0027_ske_dnn_0_airplane_00_airplane-0028-sketch-33.png,airplane-0028-sketch-33.png,0.0,0.94032013,2.6210651,-1.1884662
alexnet_w1_mlp_simclrhn_probe3,1,28,NaN,clock,airplane,0,0028_ske_dnn_0_airplane_00_airplane-0029-sketch-34.png,airplane-0029-sketch-34.png,0.0,1.4056498,1.924929,-0.3671859
alexnet_w1_mlp_simclrhn_probe3,1,29,NaN,airplane,airplane,0,0029_ske_dnn_0_airplane_00_airplane-0030-sketch-35.png,airplane-0030-sketch-35.png,1.0,1.8055812,1.1932265,0.4330002
alexnet_w1_mlp_simclrhn_probe3,1,30,NaN,knife,airplane,0,0030_ske_dnn_0_airplane_00_airplane-0031-sketch-36.png,airplane-0031-sketch-36.png,0.0,1.2267858,1.8972946,-0.47412136
alexnet_w1_mlp_simclrhn_probe3,1,31,NaN,airplane,airplane,0,0031_ske_dnn_0_airplane_00_airplane-0032-sketch-37.png,airplane-0032-sketch-37.png,1.0,1.666609,0.9734472,0.49013945
alexnet_w1_mlp_simclrhn_probe3,1,32,NaN,airplane,airplane,0,0032_ske_dnn_0_airplane_00_airplane-0033-sketch-38.png,airplane-0033-sketch-38.png,1.0,1.188573,1.1597967,0.020347908
alexnet_w1_mlp_simclrhn_probe3,1,33,NaN,clock,airplane,0,0033_ske_dnn_0_airplane_00_airplane-0034-sketch-39.png,airplane-0034-sketch-39.png,0.0,0.7972032,1.7335385,-0.66208905
alexnet_w1_mlp_simclrhn_probe3,1,34,NaN,airplane,airplane,0,0034_ske_dnn_0_airplane_00_airplane-0035-sketch-4.png,airplane-0035-sketch-4.png,1.0,2.500822,2.16142,0.23999344
alexnet_w1_mlp_simclrhn_probe3,1,35,NaN,airplane,airplane,0,0035_ske_dnn_0_airplane_00_airplane-0036-sketch-40.png,airplane-0036-sketch-40.png,1.0,4.4728184,1.3686984,2.1949444
alexnet_w1_mlp_simclrhn_probe3,1,36,NaN,knife,airplane,0,0036_ske_dnn_0_airplane_00_airplane-0037-sketch-41.png,airplane-0037-sketch-41.png,0.0,2.0519614,2.2015839,-0.10579904
alexnet_w1_mlp_simclrhn_probe3,1,37,NaN,clock,airplane,0,0037_ske_dnn_0_airplane_00_airplane-0038-sketch-42.png,airplane-0038-sketch-42.png,0.0,0.62961113,2.5942013,-1.389175
alexnet_w1_mlp_simclrhn_probe3,1,38,NaN,knife,airplane,0,0038_ske_dnn_0_airplane_00_airplane-0039-sketch-43.png,airplane-0039-sketch-43.png,0.0,0.4611675,1.5365682,-0.76042306
alexnet_w1_mlp_simclrhn_probe3,1,39,NaN,knife,airplane,0,0039_ske_dnn_0_airplane_00_airplane-0040-sketch-44.png,airplane-0040-sketch-44.png,0.0,0.30780956,2.3590348,-1.4504353
alexnet_w1_mlp_simclrhn_probe3,1,40,NaN,airplane,airplane,0,0040_ske_dnn_0_airplane_00_airplane-0041-sketch-45.png,airplane-0041-sketch-45.png,1.0,2.22818,1.7947601,0.3064741
alexnet_w1_mlp_simclrhn_probe3,1,41,NaN,clock,airplane,0,0041_ske_dnn_0_airplane_00_airplane-0042-sketch-46.png,airplane-0042-sketch-46.png,0.0,0.2679779,1.230105,-0.68032664
alexnet_w1_mlp_simclrhn_probe3,1,42,NaN,knife,airplane,0,0042_ske_dnn_0_airplane_00_airplane-0043-sketch-47.png,airplane-0043-sketch-47.png,0.0,1.8120685,2.6612077,-0.6004321
alexnet_w1_mlp_simclrhn_probe3,1,43,NaN,airplane,airplane,0,0043_ske_dnn_0_airplane_00_airplane-0044-sketch-48.png,airplane-0044-sketch-48.png,1.0,2.141641,1.6292346,0.362326
alexnet_w1_mlp_simclrhn_probe3,1,44,NaN,airplane,airplane,0,0044_ske_dnn_0_airplane_00_airplane-0045-sketch-49.png,airplane-0045-sketch-49.png,1.0,3.8307898,1.6342157,1.5532125
alexnet_w1_mlp_simclrhn_probe3,1,45,NaN,airplane,airplane,0,0045_ske_dnn_0_airplane_00_airplane-0046-sketch-5.png,airplane-0046-sketch-5.png,1.0,1.0285302,0.756619,0.19227031
alexnet_w1_mlp_simclrhn_probe3,1,46,NaN,airplane,airplane,0,0046_ske_dnn_0_airplane_00_airplane-0047-sketch-50.png,airplane-0047-sketch-50.png,1.0,2.363109,1.945936,0.29498598
alexnet_w1_mlp_simclrhn_probe3,1,47,NaN,airplane,airplane,0,0047_ske_dnn_0_airplane_00_airplane-0048-sketch-6.png,airplane-0048-sketch-6.png,1.0,1.757438,1.30268,0.3215624
alexnet_w1_mlp_simclrhn_probe3,1,48,NaN,knife,airplane,0,0048_ske_dnn_0_airplane_00_airplane-0049-sketch-7.png,airplane-0049-sketch-7.png,0.0,1.6813772,2.2364826,-0.39251882
alexnet_w1_mlp_simclrhn_probe3,1,49,NaN,clock,airplane,0,0049_ske_dnn_0_airplane_00_airplane-0050-sketch-8.png,airplane-0050-sketch-8.png,0.0,-0.39014786,2.537957,-2.070483
alexnet_w1_mlp_simclrhn_probe3,1,50,NaN,airplane,airplane,0,0050_ske_dnn_0_airplane_00_airplane-0051-sketch-9.png,airplane-0051-sketch-9.png,1.0,2.1929364,1.8889242,0.21496908
alexnet_w1_mlp_simclrhn_probe3,1,51,NaN,cat,bear,0,0051_ske_dnn_0_bear_00_bear-0005-sketch-12.png,bear-0005-sketch-12.png,0.0,-0.6075512,0.50572675,-0.78720635
alexnet_w1_mlp_simclrhn_probe3,1,52,NaN,clock,bear,0,0052_ske_dnn_0_bear_00_bear-0007-sketch-14.png,bear-0007-sketch-14.png,0.0,-0.25271875,0.9328327,-0.83831143
alexnet_w1_mlp_simclrhn_probe3,1,53,NaN,cat,bear,0,0053_ske_dnn_0_bear_00_bear-0017-sketch-23.png,bear-0017-sketch-23.png,0.0,-0.1532037,3.0310595,-2.251614
alexnet_w1_mlp_simclrhn_probe3,1,54,NaN,cat,bear,0,0054_ske_dnn_0_bear_00_bear-0022-sketch-28.png,bear-0022-sketch-28.png,0.0,0.24458659,1.8229133,-1.1160455
alexnet_w1_mlp_simclrhn_probe3,1,55,NaN,cat,bear,0,0055_ske_dnn_0_bear_00_bear-0023-sketch-29.png,bear-0023-sketch-29.png,0.0,-0.09573472,2.1274283,-1.5720137
alexnet_w1_mlp_simclrhn_probe3,1,56,NaN,cat,bear,0,0056_ske_dnn_0_bear_00_bear-0026-sketch-31.png,bear-0026-sketch-31.png,0.0,0.9262215,1.1463326,-0.15564208
alexnet_w1_mlp_simclrhn_probe3,1,57,NaN,cat,bear,0,0057_ske_dnn_0_bear_00_bear-0027-sketch-32.png,bear-0027-sketch-32.png,0.0,-0.48391217,3.181874,-2.5921023
alexnet_w1_mlp_simclrhn_probe3,1,58,NaN,bear,bear,0,0058_ske_dnn_0_bear_00_bear-0030-sketch-35.png,bear-0030-sketch-35.png,1.0,0.99048597,0.78888756,0.1425516
alexnet_w1_mlp_simclrhn_probe3,1,59,NaN,cat,bear,0,0059_ske_dnn_0_bear_00_bear-0033-sketch-38.png,bear-0033-sketch-38.png,0.0,1.4024096,3.9927475,-1.8316456
alexnet_w1_mlp_simclrhn_probe3,1,60,NaN,clock,bear,0,0060_ske_dnn_0_bear_00_bear-0036-sketch-40.png,bear-0036-sketch-40.png,0.0,-0.8072283,0.33502653,-0.80769616
alexnet_w1_mlp_simclrhn_probe3,1,61,NaN,bear,bear,0,0061_ske_dnn_0_bear_00_bear-0037-sketch-41.png,bear-0037-sketch-41.png,1.0,2.4427595,1.7228793,0.5090322
alexnet_w1_mlp_simclrhn_probe3,1,62,NaN,cat,bear,0,0062_ske_dnn_0_bear_00_bear-0038-sketch-42.png,bear-0038-sketch-42.png,0.0,0.5156109,2.4440145,-1.3635873
alexnet_w1_mlp_simclrhn_probe3,1,63,NaN,bear,bear,0,0063_ske_dnn_0_bear_00_bear-0039-sketch-43.png,bear-0039-sketch-43.png,1.0,1.8956264,1.513841,0.26996306
alexnet_w1_mlp_simclrhn_probe3,1,64,NaN,bear,bear,0,0064_ske_dnn_0_bear_00_bear-0041-sketch-45.png,bear-0041-sketch-45.png,1.0,0.92822105,0.6221707,0.2164103
alexnet_w1_mlp_simclrhn_probe3,1,65,NaN,bear,bear,0,0065_ske_dnn_0_bear_00_bear-0045-sketch-49.png,bear-0045-sketch-49.png,1.0,4.865727,4.4642477,0.2838887
alexnet_w1_mlp_simclrhn_probe3,1,66,NaN,cat,bear,0,0066_ske_dnn_0_bear_00_bear-0048-sketch-7.png,bear-0048-sketch-7.png,0.0,-0.5848619,1.0541918,-1.158986
alexnet_w1_mlp_simclrhn_probe3,1,67,NaN,cat,bear,0,0067_ske_dnn_0_bear_00_bear-0049-sketch-8.png,bear-0049-sketch-8.png,0.0,-0.7233381,3.087166,-2.6944335
alexnet_w1_mlp_simclrhn_probe3,1,68,NaN,cat,bear,0,0068_ske_dnn_0_bear_00_bear-0053-sketch-10.png,bear-0053-sketch-10.png,0.0,1.2810414,4.001638,-1.9237523
alexnet_w1_mlp_simclrhn_probe3,1,69,NaN,bear,bear,0,0069_ske_dnn_0_bear_00_bear-0059-sketch-16.png,bear-0059-sketch-16.png,1.0,2.3325267,0.29227594,1.4426752
alexnet_w1_mlp_simclrhn_probe3,1,70,NaN,knife,bear,0,0070_ske_dnn_0_bear_00_bear-0068-sketch-24.png,bear-0068-sketch-24.png,0.0,0.50576866,1.0835614,-0.4085612
alexnet_w1_mlp_simclrhn_probe3,1,71,NaN,bird,bear,0,0071_ske_dnn_0_bear_00_bear-0070-sketch-26.png,bear-0070-sketch-26.png,0.0,-0.24136396,0.63834196,-0.622046
alexnet_w1_mlp_simclrhn_probe3,1,72,NaN,bear,bear,0,0072_ske_dnn_0_bear_00_bear-0073-sketch-29.png,bear-0073-sketch-29.png,1.0,2.9966946,2.0653813,0.6585379
alexnet_w1_mlp_simclrhn_probe3,1,73,NaN,bear,bear,0,0073_ske_dnn_0_bear_00_bear-0079-sketch-34.png,bear-0079-sketch-34.png,1.0,8.014189,2.27772,4.056296
alexnet_w1_mlp_simclrhn_probe3,1,74,NaN,bear,bear,0,0074_ske_dnn_0_bear_00_bear-0081-sketch-36.png,bear-0081-sketch-36.png,1.0,3.1195357,0.7294266,1.6900624
alexnet_w1_mlp_simclrhn_probe3,1,75,NaN,cat,bear,0,0075_ske_dnn_0_bear_00_bear-0085-sketch-4.png,bear-0085-sketch-4.png,0.0,1.826883,3.0066757,-0.8342395
alexnet_w1_mlp_simclrhn_probe3,1,76,NaN,bear,bear,0,0076_ske_dnn_0_bear_00_bear-0086-sketch-40.png,bear-0086-sketch-40.png,1.0,0.66034514,0.43067497,0.16240133
alexnet_w1_mlp_simclrhn_probe3,1,77,NaN,clock,bear,0,0077_ske_dnn_0_bear_00_bear-0087-sketch-41.png,bear-0087-sketch-41.png,0.0,-0.2202033,1.9086109,-1.505299
alexnet_w1_mlp_simclrhn_probe3,1,78,NaN,clock,bear,0,0078_ske_dnn_0_bear_00_bear-0090-sketch-44.png,bear-0090-sketch-44.png,0.0,-0.13139124,3.2395208,-2.3835948
alexnet_w1_mlp_simclrhn_probe3,1,79,NaN,clock,bear,0,0079_ske_dnn_0_bear_00_bear-0103-sketch-1.png,bear-0103-sketch-1.png,0.0,-0.3633259,2.2423353,-1.8424807
alexnet_w1_mlp_simclrhn_probe3,1,80,NaN,clock,bear,0,0080_ske_dnn_0_bear_00_bear-0107-sketch-13.png,bear-0107-sketch-13.png,0.0,-0.3462266,1.8990259,-1.5876334
alexnet_w1_mlp_simclrhn_probe3,1,81,NaN,bird,bear,0,0081_ske_dnn_0_bear_00_bear-0110-sketch-16.png,bear-0110-sketch-16.png,0.0,-0.14992446,0.5461622,-0.4922076
alexnet_w1_mlp_simclrhn_probe3,1,82,NaN,elephant,bear,0,0082_ske_dnn_0_bear_00_bear-0112-sketch-18.png,bear-0112-sketch-18.png,0.0,-0.021226764,0.44429198,-0.32917148
alexnet_w1_mlp_simclrhn_probe3,1,83,NaN,clock,bear,0,0083_ske_dnn_0_bear_00_bear-0117-sketch-22.png,bear-0117-sketch-22.png,0.0,-0.748674,2.6980565,-2.4372065
alexnet_w1_mlp_simclrhn_probe3,1,84,NaN,elephant,bear,0,0084_ske_dnn_0_bear_00_bear-0123-sketch-28.png,bear-0123-sketch-28.png,0.0,0.7359069,1.0817052,-0.24451634
alexnet_w1_mlp_simclrhn_probe3,1,85,NaN,clock,bear,0,0085_ske_dnn_0_bear_00_bear-0135-sketch-39.png,bear-0135-sketch-39.png,0.0,-0.26396888,2.8091185,-2.173001
alexnet_w1_mlp_simclrhn_probe3,1,86,NaN,clock,bear,0,0086_ske_dnn_0_bear_00_bear-0136-sketch-4.png,bear-0136-sketch-4.png,0.0,-0.2137089,1.4101557,-1.1482457
alexnet_w1_mlp_simclrhn_probe3,1,87,NaN,clock,bear,0,0087_ske_dnn_0_bear_00_bear-0137-sketch-40.png,bear-0137-sketch-40.png,0.0,-0.1332941,1.3506056,-1.0492755
alexnet_w1_mlp_simclrhn_probe3,1,88,NaN,cat,bear,0,0088_ske_dnn_0_bear_00_bear-0148-sketch-50.png,bear-0148-sketch-50.png,0.0,0.5243279,1.5364704,-0.7156929
alexnet_w1_mlp_simclrhn_probe3,1,89,NaN,bicycle,bear,0,0089_ske_dnn_0_bear_00_bear-0149-sketch-6.png,bear-0149-sketch-6.png,0.0,-0.43217522,0.76946926,-0.8496909
alexnet_w1_mlp_simclrhn_probe3,1,90,NaN,bear,bear,0,0090_ske_dnn_0_bear_00_bear-0161-sketch-16.png,bear-0161-sketch-16.png,1.0,2.2823608,1.9288522,0.24996832
alexnet_w1_mlp_simclrhn_probe3,1,91,NaN,cat,bear,0,0091_ske_dnn_0_bear_00_bear-0166-sketch-20.png,bear-0166-sketch-20.png,0.0,-0.99909276,2.7233436,-2.6321602
alexnet_w1_mlp_simclrhn_probe3,1,92,NaN,clock,bear,0,0092_ske_dnn_0_bear_00_bear-0170-sketch-24.png,bear-0170-sketch-24.png,0.0,-0.15167275,2.3082287,-1.7394131
alexnet_w1_mlp_simclrhn_probe3,1,93,NaN,bear,bear,0,0093_ske_dnn_0_bear_00_bear-0171-sketch-25.png,bear-0171-sketch-25.png,1.0,2.689999,0.48191336,1.5613525
alexnet_w1_mlp_simclrhn_probe3,1,94,NaN,cat,bear,0,0094_ske_dnn_0_bear_00_bear-0179-sketch-32.png,bear-0179-sketch-32.png,0.0,-0.44808388,1.6542349,-1.4865639
alexnet_w1_mlp_simclrhn_probe3,1,95,NaN,clock,bear,0,0095_ske_dnn_0_bear_00_bear-0187-sketch-4.png,bear-0187-sketch-4.png,0.0,-0.375203,3.0491593,-2.4213898
alexnet_w1_mlp_simclrhn_probe3,1,96,NaN,bear,bear,0,0096_ske_dnn_0_bear_00_bear-0188-sketch-40.png,bear-0188-sketch-40.png,1.0,2.3101652,0.8023836,1.0661626
alexnet_w1_mlp_simclrhn_probe3,1,97,NaN,cat,bear,0,0097_ske_dnn_0_bear_00_bear-0195-sketch-47.png,bear-0195-sketch-47.png,0.0,-0.56815284,0.24979822,-0.5783788
alexnet_w1_mlp_simclrhn_probe3,1,98,NaN,bear,bear,0,0098_ske_dnn_0_bear_00_bear-0198-sketch-5.png,bear-0198-sketch-5.png,1.0,4.0822706,1.8267274,1.5949099
alexnet_w1_mlp_simclrhn_probe3,1,99,NaN,cat,bear,0,0099_ske_dnn_0_bear_00_bear-0199-sketch-50.png,bear-0199-sketch-50.png,0.0,-0.4802745,1.9546481,-1.7217504
alexnet_w1_mlp_simclrhn_probe3,1,100,NaN,keyboard,bear,0,0100_ske_dnn_0_bear_00_bear-0201-sketch-7.png,bear-0201-sketch-7.png,0.0,-0.23109579,0.7911333,-0.7228251
alexnet_w1_mlp_simclrhn_probe3,1,101,NaN,bicycle,bicycle,0,0101_ske_dnn_0_bicycle_00_bicycle-0002-sketch-1.png,bicycle-0002-sketch-1.png,1.0,15.767258,5.8593373,7.005958
alexnet_w1_mlp_simclrhn_probe3,1,102,NaN,clock,bicycle,0,0102_ske_dnn_0_bicycle_00_bicycle-0003-sketch-10.png,bicycle-0003-sketch-10.png,0.0,-0.21767399,1.694508,-1.3521168
alexnet_w1_mlp_simclrhn_probe3,1,103,NaN,bicycle,bicycle,0,0103_ske_dnn_0_bicycle_00_bicycle-0004-sketch-11.png,bicycle-0004-sketch-11.png,1.0,8.451533,3.7266014,3.3410313
alexnet_w1_mlp_simclrhn_probe3,1,104,NaN,bicycle,bicycle,0,0104_ske_dnn_0_bicycle_00_bicycle-0008-sketch-15.png,bicycle-0008-sketch-15.png,1.0,3.8081064,1.1394324,1.8870375
alexnet_w1_mlp_simclrhn_probe3,1,105,NaN,bicycle,bicycle,0,0105_ske_dnn_0_bicycle_00_bicycle-0011-sketch-18.png,bicycle-0011-sketch-18.png,1.0,4.2726803,1.6173099,1.8776304
alexnet_w1_mlp_simclrhn_probe3,1,106,NaN,bicycle,bicycle,0,0106_ske_dnn_0_bicycle_00_bicycle-0013-sketch-2.png,bicycle-0013-sketch-2.png,1.0,12.168352,0.8302239,8.017267
alexnet_w1_mlp_simclrhn_probe3,1,107,NaN,clock,bicycle,0,0107_ske_dnn_0_bicycle_00_bicycle-0016-sketch-22.png,bicycle-0016-sketch-22.png,0.0,-0.15278277,1.7153025,-1.3209357
alexnet_w1_mlp_simclrhn_probe3,1,108,NaN,bicycle,bicycle,0,0108_ske_dnn_0_bicycle_00_bicycle-0019-sketch-25.png,bicycle-0019-sketch-25.png,1.0,9.403003,3.8686204,3.9133995
alexnet_w1_mlp_simclrhn_probe3,1,109,NaN,bicycle,bicycle,0,0109_ske_dnn_0_bicycle_00_bicycle-0020-sketch-26.png,bicycle-0020-sketch-26.png,1.0,3.5890155,1.3480393,1.5846096
alexnet_w1_mlp_simclrhn_probe3,1,110,NaN,bicycle,bicycle,0,0110_ske_dnn_0_bicycle_00_bicycle-0022-sketch-28.png,bicycle-0022-sketch-28.png,1.0,5.0869894,0.9260539,2.9422257
alexnet_w1_mlp_simclrhn_probe3,1,111,NaN,clock,bicycle,0,0111_ske_dnn_0_bicycle_00_bicycle-0023-sketch-29.png,bicycle-0023-sketch-29.png,0.0,2.684174,3.7248871,-0.7358953
alexnet_w1_mlp_simclrhn_probe3,1,112,NaN,clock,bicycle,0,0112_ske_dnn_0_bicycle_00_bicycle-0025-sketch-30.png,bicycle-0025-sketch-30.png,0.0,1.7921722,1.9100147,-0.08332727
alexnet_w1_mlp_simclrhn_probe3,1,113,NaN,oven,bicycle,0,0113_ske_dnn_0_bicycle_00_bicycle-0026-sketch-31.png,bicycle-0026-sketch-31.png,0.0,1.9373741,2.1305385,-0.13658783
alexnet_w1_mlp_simclrhn_probe3,1,114,NaN,bicycle,bicycle,0,0114_ske_dnn_0_bicycle_00_bicycle-0031-sketch-36.png,bicycle-0031-sketch-36.png,1.0,2.1491494,0.78424656,0.96513206
alexnet_w1_mlp_simclrhn_probe3,1,115,NaN,bicycle,bicycle,0,0115_ske_dnn_0_bicycle_00_bicycle-0034-sketch-39.png,bicycle-0034-sketch-39.png,1.0,1.5033423,1.2901968,0.15071663
alexnet_w1_mlp_simclrhn_probe3,1,116,NaN,clock,bicycle,0,0116_ske_dnn_0_bicycle_00_bicycle-0037-sketch-41.png,bicycle-0037-sketch-41.png,0.0,2.4675405,3.4523308,-0.69635195
alexnet_w1_mlp_simclrhn_probe3,1,117,NaN,clock,bicycle,0,0117_ske_dnn_0_bicycle_00_bicycle-0038-sketch-42.png,bicycle-0038-sketch-42.png,0.0,1.8483068,1.9392409,-0.06430016
alexnet_w1_mlp_simclrhn_probe3,1,118,NaN,bicycle,bicycle,0,0118_ske_dnn_0_bicycle_00_bicycle-0039-sketch-43.png,bicycle-0039-sketch-43.png,1.0,1.9746431,1.9680319,0.0046748444
alexnet_w1_mlp_simclrhn_probe3,1,119,NaN,bicycle,bicycle,0,0119_ske_dnn_0_bicycle_00_bicycle-0040-sketch-44.png,bicycle-0040-sketch-44.png,1.0,2.3717742,0.51428413,1.3134439
alexnet_w1_mlp_simclrhn_probe3,1,120,NaN,bicycle,bicycle,0,0120_ske_dnn_0_bicycle_00_bicycle-0044-sketch-48.png,bicycle-0044-sketch-48.png,1.0,7.728487,0.6091725,5.034116
alexnet_w1_mlp_simclrhn_probe3,1,121,NaN,bicycle,bicycle,0,0121_ske_dnn_0_bicycle_00_bicycle-0045-sketch-49.png,bicycle-0045-sketch-49.png,1.0,15.767258,5.8593373,7.005958
alexnet_w1_mlp_simclrhn_probe3,1,122,NaN,clock,bicycle,0,0122_ske_dnn_0_bicycle_00_bicycle-0046-sketch-5.png,bicycle-0046-sketch-5.png,0.0,3.2028615,3.4482124,-0.17348924
alexnet_w1_mlp_simclrhn_probe3,1,123,NaN,bicycle,bicycle,0,0123_ske_dnn_0_bicycle_00_bicycle-0047-sketch-50.png,bicycle-0047-sketch-50.png,1.0,12.168352,0.8302239,8.017267
alexnet_w1_mlp_simclrhn_probe3,1,124,NaN,bicycle,bicycle,0,0124_ske_dnn_0_bicycle_00_bicycle-0048-sketch-6.png,bicycle-0048-sketch-6.png,1.0,3.5235434,1.653154,1.322565
alexnet_w1_mlp_simclrhn_probe3,1,125,NaN,bicycle,bicycle,0,0125_ske_dnn_0_bicycle_00_bicycle-0053-sketch-1.png,bicycle-0053-sketch-1.png,1.0,4.9262853,0.7818439,2.9305627
alexnet_w1_mlp_simclrhn_probe3,1,126,NaN,bicycle,bicycle,0,0126_ske_dnn_0_bicycle_00_bicycle-0054-sketch-10.png,bicycle-0054-sketch-10.png,1.0,3.1886506,0.24634816,2.080522
alexnet_w1_mlp_simclrhn_probe3,1,127,NaN,bicycle,bicycle,0,0127_ske_dnn_0_bicycle_00_bicycle-0056-sketch-12.png,bicycle-0056-sketch-12.png,1.0,2.7736857,0.7078237,1.460785
alexnet_w1_mlp_simclrhn_probe3,1,128,NaN,clock,bicycle,0,0128_ske_dnn_0_bicycle_00_bicycle-0057-sketch-13.png,bicycle-0057-sketch-13.png,0.0,0.19665138,1.2530605,-0.7469941
alexnet_w1_mlp_simclrhn_probe3,1,129,NaN,bicycle,bicycle,0,0129_ske_dnn_0_bicycle_00_bicycle-0058-sketch-14.png,bicycle-0058-sketch-14.png,1.0,1.8837129,0.55570567,0.9390429
alexnet_w1_mlp_simclrhn_probe3,1,130,NaN,clock,bicycle,0,0130_ske_dnn_0_bicycle_00_bicycle-0059-sketch-15.png,bicycle-0059-sketch-15.png,0.0,0.20605841,3.3288934,-2.2081778
alexnet_w1_mlp_simclrhn_probe3,1,131,NaN,bicycle,bicycle,0,0131_ske_dnn_0_bicycle_00_bicycle-0060-sketch-16.png,bicycle-0060-sketch-16.png,1.0,2.2348719,1.6212462,0.43389887
alexnet_w1_mlp_simclrhn_probe3,1,132,NaN,bicycle,bicycle,0,0132_ske_dnn_0_bicycle_00_bicycle-0062-sketch-18.png,bicycle-0062-sketch-18.png,1.0,3.9587212,2.4028018,1.1002011
alexnet_w1_mlp_simclrhn_probe3,1,133,NaN,bicycle,bicycle,0,0133_ske_dnn_0_bicycle_00_bicycle-0066-sketch-21.png,bicycle-0066-sketch-21.png,1.0,5.3960133,2.0870974,2.339757
alexnet_w1_mlp_simclrhn_probe3,1,134,NaN,bicycle,bicycle,0,0134_ske_dnn_0_bicycle_00_bicycle-0068-sketch-23.png,bicycle-0068-sketch-23.png,1.0,16.924257,3.6087596,9.415479
alexnet_w1_mlp_simclrhn_probe3,1,135,NaN,clock,bicycle,0,0135_ske_dnn_0_bicycle_00_bicycle-0070-sketch-25.png,bicycle-0070-sketch-25.png,0.0,1.755942,3.3567886,-1.1319696
alexnet_w1_mlp_simclrhn_probe3,1,136,NaN,clock,bicycle,0,0136_ske_dnn_0_bicycle_00_bicycle-0071-sketch-26.png,bicycle-0071-sketch-26.png,0.0,1.9143636,3.7645075,-1.3082494
alexnet_w1_mlp_simclrhn_probe3,1,137,NaN,bicycle,bicycle,0,0137_ske_dnn_0_bicycle_00_bicycle-0075-sketch-3.png,bicycle-0075-sketch-3.png,1.0,6.0867233,2.5712888,2.4857876
alexnet_w1_mlp_simclrhn_probe3,1,138,NaN,bicycle,bicycle,0,0138_ske_dnn_0_bicycle_00_bicycle-0078-sketch-32.png,bicycle-0078-sketch-32.png,1.0,13.042251,6.2120395,4.8296885
alexnet_w1_mlp_simclrhn_probe3,1,139,NaN,bicycle,bicycle,0,0139_ske_dnn_0_bicycle_00_bicycle-0080-sketch-34.png,bicycle-0080-sketch-34.png,1.0,5.9651694,3.9816003,1.4025952
alexnet_w1_mlp_simclrhn_probe3,1,140,NaN,bicycle,bicycle,0,0140_ske_dnn_0_bicycle_00_bicycle-0081-sketch-35.png,bicycle-0081-sketch-35.png,1.0,6.3235435,2.7172906,2.550006
alexnet_w1_mlp_simclrhn_probe3,1,141,NaN,clock,bicycle,0,0141_ske_dnn_0_bicycle_00_bicycle-0083-sketch-37.png,bicycle-0083-sketch-37.png,0.0,0.85643697,2.284483,-1.009781
alexnet_w1_mlp_simclrhn_probe3,1,142,NaN,clock,bicycle,0,0142_ske_dnn_0_bicycle_00_bicycle-0084-sketch-38.png,bicycle-0084-sketch-38.png,0.0,0.37471002,2.7526162,-1.6814336
alexnet_w1_mlp_simclrhn_probe3,1,143,NaN,bicycle,bicycle,0,0143_ske_dnn_0_bicycle_00_bicycle-0087-sketch-40.png,bicycle-0087-sketch-40.png,1.0,13.003871,3.2650683,6.8863735
alexnet_w1_mlp_simclrhn_probe3,1,144,NaN,bicycle,bicycle,0,0144_ske_dnn_0_bicycle_00_bicycle-0090-sketch-43.png,bicycle-0090-sketch-43.png,1.0,8.160624,4.607374,2.5125268
alexnet_w1_mlp_simclrhn_probe3,1,145,NaN,clock,bicycle,0,0145_ske_dnn_0_bicycle_00_bicycle-0094-sketch-47.png,bicycle-0094-sketch-47.png,0.0,0.36451834,3.32079,-2.0903997
alexnet_w1_mlp_simclrhn_probe3,1,146,NaN,bicycle,bicycle,0,0146_ske_dnn_0_bicycle_00_bicycle-0095-sketch-48.png,bicycle-0095-sketch-48.png,1.0,2.8526487,1.8043901,0.74123085
alexnet_w1_mlp_simclrhn_probe3,1,147,NaN,bicycle,bicycle,0,0147_ske_dnn_0_bicycle_00_bicycle-0098-sketch-50.png,bicycle-0098-sketch-50.png,1.0,4.1616325,2.5506108,1.1391644
alexnet_w1_mlp_simclrhn_probe3,1,148,NaN,clock,bicycle,0,0148_ske_dnn_0_bicycle_00_bicycle-0099-sketch-6.png,bicycle-0099-sketch-6.png,0.0,0.42214197,2.853,-1.7188761
alexnet_w1_mlp_simclrhn_probe3,1,149,NaN,bicycle,bicycle,0,0149_ske_dnn_0_bicycle_00_bicycle-0101-sketch-8.png,bicycle-0101-sketch-8.png,1.0,13.662779,3.5088763,7.179893
alexnet_w1_mlp_simclrhn_probe3,1,150,NaN,bicycle,bicycle,0,0150_ske_dnn_0_bicycle_00_bicycle-0102-sketch-9.png,bicycle-0102-sketch-9.png,1.0,2.096393,1.1797603,0.64815724
alexnet_w1_mlp_simclrhn_probe3,1,151,NaN,clock,bird,0,0151_ske_dnn_0_bird_00_bird-0030-sketch-35.png,bird-0030-sketch-35.png,0.0,-0.43611792,2.873925,-2.3405538
alexnet_w1_mlp_simclrhn_probe3,1,152,NaN,bird,bird,0,0152_ske_dnn_0_bird_00_bird-0047-sketch-50.png,bird-0047-sketch-50.png,1.0,0.90946144,0.5595741,0.24740769
alexnet_w1_mlp_simclrhn_probe3,1,153,NaN,bird,bird,0,0153_ske_dnn_0_bird_00_bird-0072-sketch-27.png,bird-0072-sketch-27.png,1.0,0.5069712,0.37347847,0.0943936
alexnet_w1_mlp_simclrhn_probe3,1,154,NaN,bird,bird,0,0154_ske_dnn_0_bird_00_bird-0228-sketch-3.png,bird-0228-sketch-3.png,1.0,2.9337473,0.54710907,1.687608
alexnet_w1_mlp_simclrhn_probe3,1,155,NaN,bird,bird,0,0155_ske_dnn_0_bird_00_bird-0274-sketch-25.png,bird-0274-sketch-25.png,1.0,1.0974114,0.28949884,0.5712805
alexnet_w1_mlp_simclrhn_probe3,1,156,NaN,clock,bird,0,0156_ske_dnn_0_bird_00_bird-0292-sketch-41.png,bird-0292-sketch-41.png,0.0,0.31388614,1.5052139,-0.8423959
alexnet_w1_mlp_simclrhn_probe3,1,157,NaN,clock,bird,0,0157_ske_dnn_0_bird_00_bird-0316-sketch-17.png,bird-0316-sketch-17.png,0.0,0.049135894,0.87841654,-0.58638996
alexnet_w1_mlp_simclrhn_probe3,1,158,NaN,clock,bird,0,0158_ske_dnn_0_bird_00_bird-0325-sketch-25.png,bird-0325-sketch-25.png,0.0,-0.07288325,0.5754084,-0.45841143
alexnet_w1_mlp_simclrhn_probe3,1,159,NaN,clock,bird,0,0159_ske_dnn_0_bird_00_bird-0357-sketch-9.png,bird-0357-sketch-9.png,0.0,0.79423904,1.5672687,-0.5466145
alexnet_w1_mlp_simclrhn_probe3,1,160,NaN,bird,bird,0,0160_ske_dnn_0_bird_00_bird-0384-sketch-32.png,bird-0384-sketch-32.png,1.0,1.8466254,0.1811689,1.1776556
alexnet_w1_mlp_simclrhn_probe3,1,161,NaN,bird,bird,0,0161_ske_dnn_0_bird_00_bird-0415-sketch-14.png,bird-0415-sketch-14.png,1.0,2.002666,0.70583856,0.91699547
alexnet_w1_mlp_simclrhn_probe3,1,162,NaN,bird,bird,0,0162_ske_dnn_0_bird_00_bird-0474-sketch-21.png,bird-0474-sketch-21.png,1.0,1.3925867,0.38600096,0.7117636
alexnet_w1_mlp_simclrhn_probe3,1,163,NaN,bird,bird,0,0163_ske_dnn_0_bird_00_bird-0479-sketch-26.png,bird-0479-sketch-26.png,1.0,0.8885475,0.2510822,0.450756
alexnet_w1_mlp_simclrhn_probe3,1,164,NaN,airplane,bird,0,0164_ske_dnn_0_bird_00_bird-0491-sketch-37.png,bird-0491-sketch-37.png,0.0,1.447837,1.5940367,-0.1033788
alexnet_w1_mlp_simclrhn_probe3,1,165,NaN,bird,bird,0,0165_ske_dnn_0_bird_00_bird-0578-sketch-23.png,bird-0578-sketch-23.png,1.0,1.5040524,0.6462027,0.60659134
alexnet_w1_mlp_simclrhn_probe3,1,166,NaN,bird,bird,0,0166_ske_dnn_0_bird_00_bird-0640-sketch-33.png,bird-0640-sketch-33.png,1.0,1.0186473,0.2685869,0.53037286
alexnet_w1_mlp_simclrhn_probe3,1,167,NaN,clock,bird,0,0167_ske_dnn_0_bird_00_bird-0646-sketch-39.png,bird-0646-sketch-39.png,0.0,-0.13370498,2.167816,-1.627421
alexnet_w1_mlp_simclrhn_probe3,1,168,NaN,bottle,bird,0,0168_ske_dnn_0_bird_00_bird-0685-sketch-28.png,bird-0685-sketch-28.png,0.0,0.117657386,0.67254573,-0.39236534
alexnet_w1_mlp_simclrhn_probe3,1,169,NaN,bird,bird,0,0169_ske_dnn_0_bird_00_bird-0694-sketch-36.png,bird-0694-sketch-36.png,1.0,1.0306914,0.6535565,0.2666746
alexnet_w1_mlp_simclrhn_probe3,1,170,NaN,bird,bird,0,0170_ske_dnn_0_bird_00_bird-0733-sketch-25.png,bird-0733-sketch-25.png,1.0,2.231744,0.3234585,1.3493618
alexnet_w1_mlp_simclrhn_probe3,1,171,NaN,bird,bird,0,0171_ske_dnn_0_bird_00_bird-0748-sketch-39.png,bird-0748-sketch-39.png,1.0,6.08746,0.2953036,4.095673
alexnet_w1_mlp_simclrhn_probe3,1,172,NaN,bird,bird,0,0172_ske_dnn_0_bird_00_bird-0749-sketch-4.png,bird-0749-sketch-4.png,1.0,2.3948295,0.90432763,1.053944
alexnet_w1_mlp_simclrhn_probe3,1,173,NaN,bird,bird,0,0173_ske_dnn_0_bird_00_bird-0809-sketch-48.png,bird-0809-sketch-48.png,1.0,2.3879457,0.89164114,1.058047
alexnet_w1_mlp_simclrhn_probe3,1,174,NaN,bird,bird,0,0174_ske_dnn_0_bird_00_bird-0834-sketch-24.png,bird-0834-sketch-24.png,1.0,1.3312502,1.1901335,0.099784605
alexnet_w1_mlp_simclrhn_probe3,1,175,NaN,bird,bird,0,0175_ske_dnn_0_bird_00_bird-0880-sketch-2.png,bird-0880-sketch-2.png,1.0,0.89202064,0.8168687,0.05314043
alexnet_w1_mlp_simclrhn_probe3,1,176,NaN,bird,bird,0,0176_ske_dnn_0_bird_00_bird-0939-sketch-27.png,bird-0939-sketch-27.png,1.0,1.1678869,0.5159527,0.46098706
alexnet_w1_mlp_simclrhn_probe3,1,177,NaN,bird,bird,0,0177_ske_dnn_0_bird_00_bird-0954-sketch-40.png,bird-0954-sketch-40.png,1.0,1.825892,0.90985036,0.64773923
alexnet_w1_mlp_simclrhn_probe3,1,178,NaN,bicycle,bird,0,0178_ske_dnn_0_bird_00_bird-1033-sketch-20.png,bird-1033-sketch-20.png,0.0,0.4052647,1.0690842,-0.46939123
alexnet_w1_mlp_simclrhn_probe3,1,179,NaN,bird,bird,0,0179_ske_dnn_0_bird_00_bird-1081-sketch-18.png,bird-1081-sketch-18.png,1.0,1.8716093,0.9654751,0.64073366
alexnet_w1_mlp_simclrhn_probe3,1,180,NaN,chair,bird,0,0180_ske_dnn_0_bird_00_bird-1096-sketch-31.png,bird-1096-sketch-31.png,0.0,0.11358223,0.8722768,-0.53647804
alexnet_w1_mlp_simclrhn_probe3,1,181,NaN,cat,bird,0,0181_ske_dnn_0_bird_00_bird-1148-sketch-32.png,bird-1148-sketch-32.png,0.0,-0.5643354,0.40834036,-0.6877857
alexnet_w1_mlp_simclrhn_probe3,1,182,NaN,bird,bird,0,0182_ske_dnn_0_bird_00_bird-1201-sketch-34.png,bird-1201-sketch-34.png,1.0,4.8193936,0.44246596,3.0949554
alexnet_w1_mlp_simclrhn_probe3,1,183,NaN,bird,bird,0,0183_ske_dnn_0_bird_00_bird-1342-sketch-24.png,bird-1342-sketch-24.png,1.0,2.9050112,2.5857062,0.22578269
alexnet_w1_mlp_simclrhn_probe3,1,184,NaN,bird,bird,0,0184_ske_dnn_0_bird_00_bird-1510-sketch-39.png,bird-1510-sketch-39.png,1.0,0.65285397,0.37647685,0.19542813
alexnet_w1_mlp_simclrhn_probe3,1,185,NaN,clock,bird,0,0185_ske_dnn_0_bird_00_bird-1562-sketch-40.png,bird-1562-sketch-40.png,0.0,-0.32932958,2.0013964,-1.6480721
alexnet_w1_mlp_simclrhn_probe3,1,186,NaN,bird,bird,0,0186_ske_dnn_0_bird_00_bird-1565-sketch-43.png,bird-1565-sketch-43.png,1.0,1.1355956,0.45005783,0.48474836
alexnet_w1_mlp_simclrhn_probe3,1,187,NaN,bicycle,bird,0,0187_ske_dnn_0_bird_00_bird-1702-sketch-29.png,bird-1702-sketch-29.png,0.0,0.45417315,1.3092446,-0.60462683
alexnet_w1_mlp_simclrhn_probe3,1,188,NaN,airplane,bird,0,0188_ske_dnn_0_bird_00_bird-1721-sketch-46.png,bird-1721-sketch-46.png,0.0,2.0812316,2.4323263,-0.24826147
alexnet_w1_mlp_simclrhn_probe3,1,189,NaN,clock,bird,0,0189_ske_dnn_0_bird_00_bird-1740-sketch-17.png,bird-1740-sketch-17.png,0.0,0.6344561,0.7988027,-0.11621058
alexnet_w1_mlp_simclrhn_probe3,1,190,NaN,bird,bird,0,0190_ske_dnn_0_bird_00_bird-1749-sketch-25.png,bird-1749-sketch-25.png,1.0,2.248409,0.47068077,1.2570437
alexnet_w1_mlp_simclrhn_probe3,1,191,NaN,clock,bird,0,0191_ske_dnn_0_bird_00_bird-1756-sketch-31.png,bird-1756-sketch-31.png,0.0,0.7901459,1.19844,-0.28870752
alexnet_w1_mlp_simclrhn_probe3,1,192,NaN,bird,bird,0,0192_ske_dnn_0_bird_00_bird-1860-sketch-33.png,bird-1860-sketch-33.png,1.0,2.5766447,0.9436383,1.1547098
alexnet_w1_mlp_simclrhn_probe3,1,193,NaN,bird,bird,0,0193_ske_dnn_0_bird_00_bird-1937-sketch-10.png,bird-1937-sketch-10.png,1.0,5.0320907,0.10856642,3.4814575
alexnet_w1_mlp_simclrhn_probe3,1,194,NaN,bird,bird,0,0194_ske_dnn_0_bird_00_bird-1948-sketch-20.png,bird-1948-sketch-20.png,1.0,1.1504445,0.83979005,0.21966588
alexnet_w1_mlp_simclrhn_probe3,1,195,NaN,bird,bird,0,0195_ske_dnn_0_bird_00_bird-2010-sketch-30.png,bird-2010-sketch-30.png,1.0,1.6035482,1.0633336,0.38198936
alexnet_w1_mlp_simclrhn_probe3,1,196,NaN,bird,bird,0,0196_ske_dnn_0_bird_00_bird-2169-sketch-36.png,bird-2169-sketch-36.png,1.0,1.7905401,0.26624748,1.0778376
alexnet_w1_mlp_simclrhn_probe3,1,197,NaN,bird,bird,0,0197_ske_dnn_0_bird_00_bird-2262-sketch-28.png,bird-2262-sketch-28.png,1.0,1.8919388,1.1751038,0.5068789
alexnet_w1_mlp_simclrhn_probe3,1,198,NaN,clock,bird,0,0198_ske_dnn_0_bird_00_bird-2312-sketch-27.png,bird-2312-sketch-27.png,0.0,0.16512834,1.7612257,-1.1286113
alexnet_w1_mlp_simclrhn_probe3,1,199,NaN,knife,bird,0,0199_ske_dnn_0_bird_00_bird-2313-sketch-28.png,bird-2313-sketch-28.png,0.0,0.2118744,1.2987163,-0.7685133
alexnet_w1_mlp_simclrhn_probe3,1,200,NaN,bird,bird,0,0200_ske_dnn_0_bird_00_bird-2372-sketch-36.png,bird-2372-sketch-36.png,1.0,1.8174306,1.0168095,0.5661247
alexnet_w1_mlp_simclrhn_probe3,1,201,NaN,knife,boat,0,0201_ske_dnn_0_boat_00_boat-0001-sketch-0.png,boat-0001-sketch-0.png,0.0,0.15594654,0.38970596,-0.16529287
alexnet_w1_mlp_simclrhn_probe3,1,202,NaN,boat,boat,0,0202_ske_dnn_0_boat_00_boat-0002-sketch-1.png,boat-0002-sketch-1.png,1.0,6.0845957,2.3228889,2.6599286
alexnet_w1_mlp_simclrhn_probe3,1,203,NaN,knife,boat,0,0203_ske_dnn_0_boat_00_boat-0010-sketch-17.png,boat-0010-sketch-17.png,0.0,-0.41220587,1.3041133,-1.2136209
alexnet_w1_mlp_simclrhn_probe3,1,204,NaN,airplane,boat,0,0204_ske_dnn_0_boat_00_boat-0016-sketch-22.png,boat-0016-sketch-22.png,0.0,-0.13611892,1.7209799,-1.3131672
alexnet_w1_mlp_simclrhn_probe3,1,205,NaN,clock,boat,0,0205_ske_dnn_0_boat_00_boat-0029-sketch-34.png,boat-0029-sketch-34.png,0.0,-0.67751837,2.112584,-1.9729004
alexnet_w1_mlp_simclrhn_probe3,1,206,NaN,knife,boat,0,0206_ske_dnn_0_boat_00_boat-0034-sketch-39.png,boat-0034-sketch-39.png,0.0,0.014099452,1.3058553,-0.9134093
alexnet_w1_mlp_simclrhn_probe3,1,207,NaN,knife,boat,0,0207_ske_dnn_0_boat_00_boat-0036-sketch-40.png,boat-0036-sketch-40.png,0.0,-0.31460816,2.3621256,-1.8927366
alexnet_w1_mlp_simclrhn_probe3,1,208,NaN,knife,boat,0,0208_ske_dnn_0_boat_00_boat-0051-sketch-9.png,boat-0051-sketch-9.png,0.0,-0.5385974,1.4729002,-1.4223435
alexnet_w1_mlp_simclrhn_probe3,1,209,NaN,airplane,boat,0,0209_ske_dnn_0_boat_00_boat-0052-sketch-0.png,boat-0052-sketch-0.png,0.0,3.8554492,4.0020514,-0.10366338
alexnet_w1_mlp_simclrhn_probe3,1,210,NaN,boat,boat,0,0210_ske_dnn_0_boat_00_boat-0059-sketch-15.png,boat-0059-sketch-15.png,1.0,3.0141387,1.6816766,0.942193
alexnet_w1_mlp_simclrhn_probe3,1,211,NaN,chair,boat,0,0211_ske_dnn_0_boat_00_boat-0064-sketch-2.png,boat-0064-sketch-2.png,0.0,0.13349661,1.8475022,-1.211985
alexnet_w1_mlp_simclrhn_probe3,1,212,NaN,airplane,boat,0,0212_ske_dnn_0_boat_00_boat-0065-sketch-20.png,boat-0065-sketch-20.png,0.0,0.9156243,2.383719,-1.0380996
alexnet_w1_mlp_simclrhn_probe3,1,213,NaN,airplane,boat,0,0213_ske_dnn_0_boat_00_boat-0067-sketch-22.png,boat-0067-sketch-22.png,0.0,1.3878685,2.5593138,-0.8283369
alexnet_w1_mlp_simclrhn_probe3,1,214,NaN,clock,boat,0,0214_ske_dnn_0_boat_00_boat-0068-sketch-23.png,boat-0068-sketch-23.png,0.0,-0.5870311,3.8054545,-3.1059563
alexnet_w1_mlp_simclrhn_probe3,1,215,NaN,chair,boat,0,0215_ske_dnn_0_boat_00_boat-0070-sketch-25.png,boat-0070-sketch-25.png,0.0,0.33490202,2.3672795,-1.4371079
alexnet_w1_mlp_simclrhn_probe3,1,216,NaN,bicycle,boat,0,0216_ske_dnn_0_boat_00_boat-0074-sketch-29.png,boat-0074-sketch-29.png,0.0,0.20189175,0.95267683,-0.5308853
alexnet_w1_mlp_simclrhn_probe3,1,217,NaN,airplane,boat,0,0217_ske_dnn_0_boat_00_boat-0079-sketch-33.png,boat-0079-sketch-33.png,0.0,0.1076241,1.3572152,-0.8835944
alexnet_w1_mlp_simclrhn_probe3,1,218,NaN,chair,boat,0,0218_ske_dnn_0_boat_00_boat-0080-sketch-34.png,boat-0080-sketch-34.png,0.0,0.9219402,3.225004,-1.6285121
alexnet_w1_mlp_simclrhn_probe3,1,219,NaN,chair,boat,0,0219_ske_dnn_0_boat_00_boat-0085-sketch-39.png,boat-0085-sketch-39.png,0.0,0.29346767,1.242291,-0.6709194
alexnet_w1_mlp_simclrhn_probe3,1,220,NaN,knife,boat,0,0220_ske_dnn_0_boat_00_boat-0088-sketch-41.png,boat-0088-sketch-41.png,0.0,0.32454744,0.7249152,-0.28310278
alexnet_w1_mlp_simclrhn_probe3,1,221,NaN,boat,boat,0,0221_ske_dnn_0_boat_00_boat-0094-sketch-47.png,boat-0094-sketch-47.png,1.0,4.891089,2.7717378,1.4986076
alexnet_w1_mlp_simclrhn_probe3,1,222,NaN,chair,boat,0,0222_ske_dnn_0_boat_00_boat-0099-sketch-6.png,boat-0099-sketch-6.png,0.0,1.3233843,2.8694224,-1.093214
alexnet_w1_mlp_simclrhn_probe3,1,223,NaN,airplane,boat,0,0223_ske_dnn_0_boat_00_boat-0107-sketch-12.png,boat-0107-sketch-12.png,0.0,0.35931075,1.2593427,-0.6364187
alexnet_w1_mlp_simclrhn_probe3,1,224,NaN,airplane,boat,0,0224_ske_dnn_0_boat_00_boat-0108-sketch-13.png,boat-0108-sketch-13.png,0.0,1.3402302,1.5040537,-0.115840696
alexnet_w1_mlp_simclrhn_probe3,1,225,NaN,oven,boat,0,0225_ske_dnn_0_boat_00_boat-0110-sketch-15.png,boat-0110-sketch-15.png,0.0,-0.3981039,1.1028869,-1.0613608
alexnet_w1_mlp_simclrhn_probe3,1,226,NaN,airplane,boat,0,0226_ske_dnn_0_boat_00_boat-0113-sketch-18.png,boat-0113-sketch-18.png,0.0,-0.029482055,1.1614845,-0.8421405
alexnet_w1_mlp_simclrhn_probe3,1,227,NaN,oven,boat,0,0227_ske_dnn_0_boat_00_boat-0115-sketch-2.png,boat-0115-sketch-2.png,0.0,-0.3869298,1.095196,-1.0480212
alexnet_w1_mlp_simclrhn_probe3,1,228,NaN,bicycle,boat,0,0228_ske_dnn_0_boat_00_boat-0123-sketch-27.png,boat-0123-sketch-27.png,0.0,0.32750106,1.3895671,-0.75099415
alexnet_w1_mlp_simclrhn_probe3,1,229,NaN,oven,boat,0,0229_ske_dnn_0_boat_00_boat-0124-sketch-28.png,boat-0124-sketch-28.png,0.0,-0.5461513,0.94764566,-1.0562739
alexnet_w1_mlp_simclrhn_probe3,1,230,NaN,knife,boat,0,0230_ske_dnn_0_boat_00_boat-0125-sketch-29.png,boat-0125-sketch-29.png,0.0,-1.078411,2.8914685,-2.807129
alexnet_w1_mlp_simclrhn_probe3,1,231,NaN,clock,boat,0,0231_ske_dnn_0_boat_00_boat-0126-sketch-3.png,boat-0126-sketch-3.png,0.0,-0.9210038,2.17595,-2.189877
alexnet_w1_mlp_simclrhn_probe3,1,232,NaN,airplane,boat,0,0232_ske_dnn_0_boat_00_boat-0128-sketch-31.png,boat-0128-sketch-31.png,0.0,-0.6280905,1.2619691,-1.336474
alexnet_w1_mlp_simclrhn_probe3,1,233,NaN,keyboard,boat,0,0233_ske_dnn_0_boat_00_boat-0130-sketch-33.png,boat-0130-sketch-33.png,0.0,-0.46476546,1.9881608,-1.734481
alexnet_w1_mlp_simclrhn_probe3,1,234,NaN,oven,boat,0,0234_ske_dnn_0_boat_00_boat-0132-sketch-35.png,boat-0132-sketch-35.png,0.0,-0.83416,0.86891276,-1.2042544
alexnet_w1_mlp_simclrhn_probe3,1,235,NaN,oven,boat,0,0235_ske_dnn_0_boat_00_boat-0146-sketch-48.png,boat-0146-sketch-48.png,0.0,-0.5502659,0.83370167,-0.9786129
alexnet_w1_mlp_simclrhn_probe3,1,236,NaN,airplane,boat,0,0236_ske_dnn_0_boat_00_boat-0152-sketch-8.png,boat-0152-sketch-8.png,0.0,0.045023024,2.1888275,-1.5158987
alexnet_w1_mlp_simclrhn_probe3,1,237,NaN,knife,boat,0,0237_ske_dnn_0_boat_00_boat-0165-sketch-19.png,boat-0165-sketch-19.png,0.0,-0.5311519,0.7230898,-0.88688284
alexnet_w1_mlp_simclrhn_probe3,1,238,NaN,oven,boat,0,0238_ske_dnn_0_boat_00_boat-0166-sketch-2.png,boat-0166-sketch-2.png,0.0,0.080659464,1.297112,-0.86016184
alexnet_w1_mlp_simclrhn_probe3,1,239,NaN,airplane,boat,0,0239_ske_dnn_0_boat_00_boat-0173-sketch-26.png,boat-0173-sketch-26.png,0.0,-0.017919421,2.284412,-1.6279942
alexnet_w1_mlp_simclrhn_probe3,1,240,NaN,car,boat,0,0240_ske_dnn_0_boat_00_boat-0178-sketch-30.png,boat-0178-sketch-30.png,0.0,-1.0844829,3.9807007,-3.5816257
alexnet_w1_mlp_simclrhn_probe3,1,241,NaN,oven,boat,0,0241_ske_dnn_0_boat_00_boat-0180-sketch-32.png,boat-0180-sketch-32.png,0.0,-0.7803267,0.93135226,-1.2103398
alexnet_w1_mlp_simclrhn_probe3,1,242,NaN,knife,boat,0,0242_ske_dnn_0_boat_00_boat-0194-sketch-45.png,boat-0194-sketch-45.png,0.0,-0.355472,1.4403346,-1.269827
alexnet_w1_mlp_simclrhn_probe3,1,243,NaN,oven,boat,0,0243_ske_dnn_0_boat_00_boat-0197-sketch-48.png,boat-0197-sketch-48.png,0.0,-0.7652449,1.3736794,-1.512448
alexnet_w1_mlp_simclrhn_probe3,1,244,NaN,chair,boat,0,0244_ske_dnn_0_boat_00_boat-0212-sketch-15.png,boat-0212-sketch-15.png,0.0,2.2394192,2.3191748,-0.056395687
alexnet_w1_mlp_simclrhn_probe3,1,245,NaN,chair,boat,0,0245_ske_dnn_0_boat_00_boat-0228-sketch-3.png,boat-0228-sketch-3.png,0.0,-0.36186078,3.579487,-2.786954
alexnet_w1_mlp_simclrhn_probe3,1,246,NaN,bicycle,boat,0,0246_ske_dnn_0_boat_00_boat-0233-sketch-34.png,boat-0233-sketch-34.png,0.0,0.36534673,2.7721424,-1.7018616
alexnet_w1_mlp_simclrhn_probe3,1,247,NaN,chair,boat,0,0247_ske_dnn_0_boat_00_boat-0234-sketch-35.png,boat-0234-sketch-35.png,0.0,1.0539078,1.9407873,-0.6271186
alexnet_w1_mlp_simclrhn_probe3,1,248,NaN,keyboard,boat,0,0248_ske_dnn_0_boat_00_boat-0237-sketch-38.png,boat-0237-sketch-38.png,0.0,-0.33761078,1.5146469,-1.309744
alexnet_w1_mlp_simclrhn_probe3,1,249,NaN,boat,boat,0,0249_ske_dnn_0_boat_00_boat-0239-sketch-4.png,boat-0239-sketch-4.png,1.0,3.1620574,1.6227617,1.0884464
alexnet_w1_mlp_simclrhn_probe3,1,250,NaN,chair,boat,0,0250_ske_dnn_0_boat_00_boat-0253-sketch-7.png,boat-0253-sketch-7.png,0.0,1.3509549,1.467202,-0.08219908
alexnet_w1_mlp_simclrhn_probe3,1,251,NaN,bottle,bottle,0,0251_ske_dnn_0_bottle_00_bottle-0002-sketch-1.png,bottle-0002-sketch-1.png,1.0,6.020256,4.1658473,1.311265
alexnet_w1_mlp_simclrhn_probe3,1,252,NaN,clock,bottle,0,0252_ske_dnn_0_bottle_00_bottle-0003-sketch-10.png,bottle-0003-sketch-10.png,0.0,0.9117969,5.5909467,-3.3086586
alexnet_w1_mlp_simclrhn_probe3,1,253,NaN,clock,bottle,0,0253_ske_dnn_0_bottle_00_bottle-0019-sketch-25.png,bottle-0019-sketch-25.png,0.0,0.6921417,4.1402164,-2.4381568
alexnet_w1_mlp_simclrhn_probe3,1,254,NaN,clock,bottle,0,0254_ske_dnn_0_bottle_00_bottle-0030-sketch-35.png,bottle-0030-sketch-35.png,0.0,5.1713157,6.243019,-0.7578088
alexnet_w1_mlp_simclrhn_probe3,1,255,NaN,clock,bottle,0,0255_ske_dnn_0_bottle_00_bottle-0031-sketch-36.png,bottle-0031-sketch-36.png,0.0,3.1153617,3.1387365,-0.016528478
alexnet_w1_mlp_simclrhn_probe3,1,256,NaN,clock,bottle,0,0256_ske_dnn_0_bottle_00_bottle-0038-sketch-42.png,bottle-0038-sketch-42.png,0.0,0.6800321,5.6990695,-3.5489953
alexnet_w1_mlp_simclrhn_probe3,1,257,NaN,bottle,bottle,0,0257_ske_dnn_0_bottle_00_bottle-0039-sketch-43.png,bottle-0039-sketch-43.png,1.0,8.401967,1.4019527,4.9497576
alexnet_w1_mlp_simclrhn_probe3,1,258,NaN,clock,bottle,0,0258_ske_dnn_0_bottle_00_bottle-0041-sketch-45.png,bottle-0041-sketch-45.png,0.0,0.85747486,5.1306405,-3.0215845
alexnet_w1_mlp_simclrhn_probe3,1,259,NaN,clock,bottle,0,0259_ske_dnn_0_bottle_00_bottle-0045-sketch-49.png,bottle-0045-sketch-49.png,0.0,2.1059096,4.0273666,-1.3586754
alexnet_w1_mlp_simclrhn_probe3,1,260,NaN,bottle,bottle,0,0260_ske_dnn_0_bottle_00_bottle-0050-sketch-9.png,bottle-0050-sketch-9.png,1.0,3.1084194,2.6670616,0.31208715
alexnet_w1_mlp_simclrhn_probe3,1,261,NaN,bottle,bottle,0,0261_ske_dnn_0_bottle_00_bottle-0054-sketch-11.png,bottle-0054-sketch-11.png,1.0,4.504364,4.1494994,0.25092718
alexnet_w1_mlp_simclrhn_probe3,1,262,NaN,bottle,bottle,0,0262_ske_dnn_0_bottle_00_bottle-0066-sketch-22.png,bottle-0066-sketch-22.png,1.0,5.6308866,3.6722405,1.384972
alexnet_w1_mlp_simclrhn_probe3,1,263,NaN,clock,bottle,0,0263_ske_dnn_0_bottle_00_bottle-0071-sketch-27.png,bottle-0071-sketch-27.png,0.0,-0.046668295,2.4637616,-1.775142
alexnet_w1_mlp_simclrhn_probe3,1,264,NaN,clock,bottle,0,0264_ske_dnn_0_bottle_00_bottle-0082-sketch-37.png,bottle-0082-sketch-37.png,0.0,0.853375,2.6716337,-1.2857032
alexnet_w1_mlp_simclrhn_probe3,1,265,NaN,bottle,bottle,0,0265_ske_dnn_0_bottle_00_bottle-0086-sketch-40.png,bottle-0086-sketch-40.png,1.0,4.4149423,2.7852066,1.1523972
alexnet_w1_mlp_simclrhn_probe3,1,266,NaN,bottle,bottle,0,0266_ske_dnn_0_bottle_00_bottle-0090-sketch-44.png,bottle-0090-sketch-44.png,1.0,4.6659966,3.839547,0.58438814
alexnet_w1_mlp_simclrhn_probe3,1,267,NaN,clock,bottle,0,0267_ske_dnn_0_bottle_00_bottle-0097-sketch-50.png,bottle-0097-sketch-50.png,0.0,0.31338665,1.6907434,-0.97393835
alexnet_w1_mlp_simclrhn_probe3,1,268,NaN,bicycle,bottle,0,0268_ske_dnn_0_bottle_00_bottle-0107-sketch-13.png,bottle-0107-sketch-13.png,0.0,-0.5826388,1.2841344,-1.3200079
alexnet_w1_mlp_simclrhn_probe3,1,269,NaN,bicycle,bottle,0,0269_ske_dnn_0_bottle_00_bottle-0114-sketch-2.png,bottle-0114-sketch-2.png,0.0,0.04437273,0.7619029,-0.5073705
alexnet_w1_mlp_simclrhn_probe3,1,270,NaN,knife,bottle,0,0270_ske_dnn_0_bottle_00_bottle-0126-sketch-30.png,bottle-0126-sketch-30.png,0.0,-0.13003789,1.0412064,-0.8281948
alexnet_w1_mlp_simclrhn_probe3,1,271,NaN,bottle,bottle,0,0271_ske_dnn_0_bottle_00_bottle-0130-sketch-34.png,bottle-0130-sketch-34.png,1.0,4.09586,4.0806184,0.010777455
alexnet_w1_mlp_simclrhn_probe3,1,272,NaN,clock,bottle,0,0272_ske_dnn_0_bottle_00_bottle-0131-sketch-35.png,bottle-0131-sketch-35.png,0.0,-0.06929259,0.59096426,-0.46687213
alexnet_w1_mlp_simclrhn_probe3,1,273,NaN,clock,bottle,0,0273_ske_dnn_0_bottle_00_bottle-0133-sketch-37.png,bottle-0133-sketch-37.png,0.0,-0.5811152,2.6766443,-2.3035839
alexnet_w1_mlp_simclrhn_probe3,1,274,NaN,clock,bottle,0,0274_ske_dnn_0_bottle_00_bottle-0135-sketch-39.png,bottle-0135-sketch-39.png,0.0,0.7611966,1.0097203,-0.1757328
alexnet_w1_mlp_simclrhn_probe3,1,275,NaN,keyboard,bottle,0,0275_ske_dnn_0_bottle_00_bottle-0143-sketch-46.png,bottle-0143-sketch-46.png,0.0,0.9730387,4.4726605,-2.4746065
alexnet_w1_mlp_simclrhn_probe3,1,276,NaN,bottle,bottle,0,0276_ske_dnn_0_bottle_00_bottle-0145-sketch-48.png,bottle-0145-sketch-48.png,1.0,1.3458722,1.1596806,0.13165732
alexnet_w1_mlp_simclrhn_probe3,1,277,NaN,clock,bottle,0,0277_ske_dnn_0_bottle_00_bottle-0150-sketch-7.png,bottle-0150-sketch-7.png,0.0,4.537236,7.000932,-1.7420962
alexnet_w1_mlp_simclrhn_probe3,1,278,NaN,clock,bottle,0,0278_ske_dnn_0_bottle_00_bottle-0162-sketch-17.png,bottle-0162-sketch-17.png,0.0,1.4305136,2.8958817,-1.0361717
alexnet_w1_mlp_simclrhn_probe3,1,279,NaN,clock,bottle,0,0279_ske_dnn_0_bottle_00_bottle-0165-sketch-2.png,bottle-0165-sketch-2.png,0.0,1.7562071,3.1901462,-1.0139481
alexnet_w1_mlp_simclrhn_probe3,1,280,NaN,clock,bottle,0,0280_ske_dnn_0_bottle_00_bottle-0184-sketch-37.png,bottle-0184-sketch-37.png,0.0,1.3556958,1.7332634,-0.26698056
alexnet_w1_mlp_simclrhn_probe3,1,281,NaN,clock,bottle,0,0281_ske_dnn_0_bottle_00_bottle-0185-sketch-38.png,bottle-0185-sketch-38.png,0.0,1.6753122,3.9353077,-1.5980581
alexnet_w1_mlp_simclrhn_probe3,1,282,NaN,clock,bottle,0,0282_ske_dnn_0_bottle_00_bottle-0189-sketch-41.png,bottle-0189-sketch-41.png,0.0,0.20877859,0.83566576,-0.4432762
alexnet_w1_mlp_simclrhn_probe3,1,283,NaN,bottle,bottle,0,0283_ske_dnn_0_bottle_00_bottle-0202-sketch-8.png,bottle-0202-sketch-8.png,1.0,1.346984,1.2797946,0.04751012
alexnet_w1_mlp_simclrhn_probe3,1,284,NaN,clock,bottle,0,0284_ske_dnn_0_bottle_00_bottle-0207-sketch-11.png,bottle-0207-sketch-11.png,0.0,2.9900062,4.97732,-1.4052433
alexnet_w1_mlp_simclrhn_probe3,1,285,NaN,clock,bottle,0,0285_ske_dnn_0_bottle_00_bottle-0215-sketch-19.png,bottle-0215-sketch-19.png,0.0,-0.4358222,4.537058,-3.5163572
alexnet_w1_mlp_simclrhn_probe3,1,286,NaN,clock,bottle,0,0286_ske_dnn_0_bottle_00_bottle-0217-sketch-20.png,bottle-0217-sketch-20.png,0.0,-0.037788045,5.7942715,-4.123889
alexnet_w1_mlp_simclrhn_probe3,1,287,NaN,knife,bottle,0,0287_ske_dnn_0_bottle_00_bottle-0237-sketch-39.png,bottle-0237-sketch-39.png,0.0,-0.10392213,2.2857661,-1.6897649
alexnet_w1_mlp_simclrhn_probe3,1,288,NaN,clock,bottle,0,0288_ske_dnn_0_bottle_00_bottle-0243-sketch-44.png,bottle-0243-sketch-44.png,0.0,0.22598635,1.633694,-0.99539965
alexnet_w1_mlp_simclrhn_probe3,1,289,NaN,bottle,bottle,0,0289_ske_dnn_0_bottle_00_bottle-0245-sketch-46.png,bottle-0245-sketch-46.png,1.0,2.3374443,1.0163088,0.9341839
alexnet_w1_mlp_simclrhn_probe3,1,290,NaN,bottle,bottle,0,0290_ske_dnn_0_bottle_00_bottle-0268-sketch-20.png,bottle-0268-sketch-20.png,1.0,5.077362,4.09184,0.6968695
alexnet_w1_mlp_simclrhn_probe3,1,291,NaN,clock,bottle,0,0291_ske_dnn_0_bottle_00_bottle-0280-sketch-31.png,bottle-0280-sketch-31.png,0.0,1.9649248,5.333891,-2.3822188
alexnet_w1_mlp_simclrhn_probe3,1,292,NaN,bottle,bottle,0,0292_ske_dnn_0_bottle_00_bottle-0292-sketch-42.png,bottle-0292-sketch-42.png,1.0,5.32616,4.056814,0.897563
alexnet_w1_mlp_simclrhn_probe3,1,293,NaN,bottle,bottle,0,0293_ske_dnn_0_bottle_00_bottle-0294-sketch-44.png,bottle-0294-sketch-44.png,1.0,1.818841,0.4309768,0.9813681
alexnet_w1_mlp_simclrhn_probe3,1,294,NaN,clock,bottle,0,0294_ske_dnn_0_bottle_00_bottle-0296-sketch-46.png,bottle-0296-sketch-46.png,0.0,0.73951656,3.2266257,-1.7586519
alexnet_w1_mlp_simclrhn_probe3,1,295,NaN,bottle,bottle,0,0295_ske_dnn_0_bottle_00_bottle-0301-sketch-50.png,bottle-0301-sketch-50.png,1.0,2.8186774,2.7690141,0.03511726
alexnet_w1_mlp_simclrhn_probe3,1,296,NaN,bottle,bottle,0,0296_ske_dnn_0_bottle_00_bottle-0305-sketch-9.png,bottle-0305-sketch-9.png,1.0,2.8370328,1.18408,1.1688142
alexnet_w1_mlp_simclrhn_probe3,1,297,NaN,bottle,bottle,0,0297_ske_dnn_0_bottle_00_bottle-0313-sketch-15.png,bottle-0313-sketch-15.png,1.0,1.8502433,0.8946973,0.67567307
alexnet_w1_mlp_simclrhn_probe3,1,298,NaN,bottle,bottle,0,0298_ske_dnn_0_bottle_00_bottle-0321-sketch-22.png,bottle-0321-sketch-22.png,1.0,5.6903486,2.3203611,2.382941
alexnet_w1_mlp_simclrhn_probe3,1,299,NaN,bottle,bottle,0,0299_ske_dnn_0_bottle_00_bottle-0330-sketch-30.png,bottle-0330-sketch-30.png,1.0,5.8714423,2.0207562,2.7228463
alexnet_w1_mlp_simclrhn_probe3,1,300,NaN,bottle,bottle,0,0300_ske_dnn_0_bottle_00_bottle-0338-sketch-38.png,bottle-0338-sketch-38.png,1.0,3.0275111,1.9431283,0.7667744
alexnet_w1_mlp_simclrhn_probe3,1,301,NaN,truck,car,0,0301_ske_dnn_0_car_00_car-0002-sketch-1.png,car-0002-sketch-1.png,0.0,0.9064645,2.9821265,-1.4677147
alexnet_w1_mlp_simclrhn_probe3,1,302,NaN,truck,car,0,0302_ske_dnn_0_car_00_car-0004-sketch-11.png,car-0004-sketch-11.png,0.0,0.9605417,1.51897,-0.39486843
alexnet_w1_mlp_simclrhn_probe3,1,303,NaN,truck,car,0,0303_ske_dnn_0_car_00_car-0005-sketch-12.png,car-0005-sketch-12.png,0.0,0.49432322,2.6969647,-1.5575027
alexnet_w1_mlp_simclrhn_probe3,1,304,NaN,chair,car,0,0304_ske_dnn_0_car_00_car-0009-sketch-16.png,car-0009-sketch-16.png,0.0,0.76145697,1.6175995,-0.6053842
alexnet_w1_mlp_simclrhn_probe3,1,305,NaN,truck,car,0,0305_ske_dnn_0_car_00_car-0013-sketch-2.png,car-0013-sketch-2.png,0.0,1.5597972,1.5979592,-0.026984604
alexnet_w1_mlp_simclrhn_probe3,1,306,NaN,airplane,car,0,0306_ske_dnn_0_car_00_car-0014-sketch-20.png,car-0014-sketch-20.png,0.0,0.016590714,0.8783297,-0.6093415
alexnet_w1_mlp_simclrhn_probe3,1,307,NaN,oven,car,0,0307_ske_dnn_0_car_00_car-0017-sketch-23.png,car-0017-sketch-23.png,0.0,-0.6902059,2.0382633,-1.929319
alexnet_w1_mlp_simclrhn_probe3,1,308,NaN,oven,car,0,0308_ske_dnn_0_car_00_car-0018-sketch-24.png,car-0018-sketch-24.png,0.0,1.1631254,1.4515889,-0.20397449
alexnet_w1_mlp_simclrhn_probe3,1,309,NaN,clock,car,0,0309_ske_dnn_0_car_00_car-0021-sketch-27.png,car-0021-sketch-27.png,0.0,-0.8124054,1.9906381,-1.9820511
alexnet_w1_mlp_simclrhn_probe3,1,310,NaN,clock,car,0,0310_ske_dnn_0_car_00_car-0022-sketch-28.png,car-0022-sketch-28.png,0.0,-0.09465015,1.2874123,-0.9772657
alexnet_w1_mlp_simclrhn_probe3,1,311,NaN,car,car,0,0311_ske_dnn_0_car_00_car-0024-sketch-3.png,car-0024-sketch-3.png,1.0,14.029991,5.1866355,6.2531967
alexnet_w1_mlp_simclrhn_probe3,1,312,NaN,clock,car,0,0312_ske_dnn_0_car_00_car-0025-sketch-30.png,car-0025-sketch-30.png,0.0,-1.1276952,3.3230152,-3.1471274
alexnet_w1_mlp_simclrhn_probe3,1,313,NaN,oven,car,0,0313_ske_dnn_0_car_00_car-0029-sketch-34.png,car-0029-sketch-34.png,0.0,-0.66142994,1.879102,-1.7964274
alexnet_w1_mlp_simclrhn_probe3,1,314,NaN,oven,car,0,0314_ske_dnn_0_car_00_car-0030-sketch-35.png,car-0030-sketch-35.png,0.0,1.3051007,1.5394182,-0.16568753
alexnet_w1_mlp_simclrhn_probe3,1,315,NaN,knife,car,0,0315_ske_dnn_0_car_00_car-0032-sketch-37.png,car-0032-sketch-37.png,0.0,-0.09095434,2.6485221,-1.9371024
alexnet_w1_mlp_simclrhn_probe3,1,316,NaN,clock,car,0,0316_ske_dnn_0_car_00_car-0034-sketch-39.png,car-0034-sketch-39.png,0.0,0.012480855,1.395223,-0.97774637
alexnet_w1_mlp_simclrhn_probe3,1,317,NaN,truck,car,0,0317_ske_dnn_0_car_00_car-0040-sketch-44.png,car-0040-sketch-44.png,0.0,0.7732327,1.3651501,-0.41854882
alexnet_w1_mlp_simclrhn_probe3,1,318,NaN,car,car,0,0318_ske_dnn_0_car_00_car-0043-sketch-47.png,car-0043-sketch-47.png,1.0,14.029991,5.1866355,6.2531967
alexnet_w1_mlp_simclrhn_probe3,1,319,NaN,car,car,0,0319_ske_dnn_0_car_00_car-0044-sketch-48.png,car-0044-sketch-48.png,1.0,7.474953,1.944615,3.9105399
alexnet_w1_mlp_simclrhn_probe3,1,320,NaN,chair,car,0,0320_ske_dnn_0_car_00_car-0045-sketch-49.png,car-0045-sketch-49.png,0.0,0.37253603,1.7806515,-0.99568796
alexnet_w1_mlp_simclrhn_probe3,1,321,NaN,truck,car,0,0321_ske_dnn_0_car_00_car-0047-sketch-50.png,car-0047-sketch-50.png,0.0,0.82409996,1.3930341,-0.4022972
alexnet_w1_mlp_simclrhn_probe3,1,322,NaN,clock,car,0,0322_ske_dnn_0_car_00_car-0050-sketch-8.png,car-0050-sketch-8.png,0.0,-1.0024213,3.564621,-3.2293866
alexnet_w1_mlp_simclrhn_probe3,1,323,NaN,clock,car,0,0323_ske_dnn_0_car_00_car-0052-sketch-0.png,car-0052-sketch-0.png,0.0,0.3659717,0.9706487,-0.42757118
alexnet_w1_mlp_simclrhn_probe3,1,324,NaN,car,car,0,0324_ske_dnn_0_car_00_car-0055-sketch-11.png,car-0055-sketch-11.png,1.0,4.940468,3.0990994,1.3020442
alexnet_w1_mlp_simclrhn_probe3,1,325,NaN,clock,car,0,0325_ske_dnn_0_car_00_car-0064-sketch-2.png,car-0064-sketch-2.png,0.0,0.07063732,1.4611578,-0.98324645
alexnet_w1_mlp_simclrhn_probe3,1,326,NaN,truck,car,0,0326_ske_dnn_0_car_00_car-0069-sketch-24.png,car-0069-sketch-24.png,0.0,2.5488987,3.2578535,-0.5013068
alexnet_w1_mlp_simclrhn_probe3,1,327,NaN,car,car,0,0327_ske_dnn_0_car_00_car-0076-sketch-30.png,car-0076-sketch-30.png,1.0,1.4573622,1.1837955,0.19344088
alexnet_w1_mlp_simclrhn_probe3,1,328,NaN,airplane,car,0,0328_ske_dnn_0_car_00_car-0079-sketch-33.png,car-0079-sketch-33.png,0.0,-0.18661217,1.7965307,-1.4022938
alexnet_w1_mlp_simclrhn_probe3,1,329,NaN,clock,car,0,0329_ske_dnn_0_car_00_car-0083-sketch-37.png,car-0083-sketch-37.png,0.0,0.08103261,1.944379,-1.3175849
alexnet_w1_mlp_simclrhn_probe3,1,330,NaN,bicycle,car,0,0330_ske_dnn_0_car_00_car-0092-sketch-45.png,car-0092-sketch-45.png,0.0,-0.46140102,2.7248313,-2.2530065
alexnet_w1_mlp_simclrhn_probe3,1,331,NaN,car,car,0,0331_ske_dnn_0_car_00_car-0096-sketch-49.png,car-0096-sketch-49.png,1.0,7.8685813,2.7385907,3.6274512
alexnet_w1_mlp_simclrhn_probe3,1,332,NaN,clock,car,0,0332_ske_dnn_0_car_00_car-0098-sketch-50.png,car-0098-sketch-50.png,0.0,-0.056035,1.6067462,-1.175764
alexnet_w1_mlp_simclrhn_probe3,1,333,NaN,car,car,0,0333_ske_dnn_0_car_00_car-0100-sketch-7.png,car-0100-sketch-7.png,1.0,3.0703487,2.3825378,0.48635575
alexnet_w1_mlp_simclrhn_probe3,1,334,NaN,car,car,0,0334_ske_dnn_0_car_00_car-0112-sketch-17.png,car-0112-sketch-17.png,1.0,6.4086604,3.0077329,2.404819
alexnet_w1_mlp_simclrhn_probe3,1,335,NaN,clock,car,0,0335_ske_dnn_0_car_00_car-0114-sketch-19.png,car-0114-sketch-19.png,0.0,1.1953739,2.4315035,-0.87407565
alexnet_w1_mlp_simclrhn_probe3,1,336,NaN,car,car,0,0336_ske_dnn_0_car_00_car-0116-sketch-20.png,car-0116-sketch-20.png,1.0,4.1406407,2.2912052,1.3077484
alexnet_w1_mlp_simclrhn_probe3,1,337,NaN,clock,car,0,0337_ske_dnn_0_car_00_car-0117-sketch-21.png,car-0117-sketch-21.png,0.0,1.1617584,2.4081485,-0.8813309
alexnet_w1_mlp_simclrhn_probe3,1,338,NaN,car,car,0,0338_ske_dnn_0_car_00_car-0120-sketch-24.png,car-0120-sketch-24.png,1.0,4.936523,2.76404,1.5361775
alexnet_w1_mlp_simclrhn_probe3,1,339,NaN,clock,car,0,0339_ske_dnn_0_car_00_car-0122-sketch-26.png,car-0122-sketch-26.png,0.0,2.0656579,6.2201977,-2.9377036
alexnet_w1_mlp_simclrhn_probe3,1,340,NaN,clock,car,0,0340_ske_dnn_0_car_00_car-0124-sketch-28.png,car-0124-sketch-28.png,0.0,-0.23148148,2.3158753,-1.8012533
alexnet_w1_mlp_simclrhn_probe3,1,341,NaN,car,car,0,0341_ske_dnn_0_car_00_car-0125-sketch-29.png,car-0125-sketch-29.png,1.0,1.6340824,1.2077924,0.30143258
alexnet_w1_mlp_simclrhn_probe3,1,342,NaN,clock,car,0,0342_ske_dnn_0_car_00_car-0129-sketch-32.png,car-0129-sketch-32.png,0.0,0.30672166,2.7106202,-1.6998129
alexnet_w1_mlp_simclrhn_probe3,1,343,NaN,car,car,0,0343_ske_dnn_0_car_00_car-0132-sketch-35.png,car-0132-sketch-35.png,1.0,6.2122498,1.7859627,3.1298578
alexnet_w1_mlp_simclrhn_probe3,1,344,NaN,knife,car,0,0344_ske_dnn_0_car_00_car-0136-sketch-39.png,car-0136-sketch-39.png,0.0,-1.2782421,1.8572617,-2.217136
alexnet_w1_mlp_simclrhn_probe3,1,345,NaN,car,car,0,0345_ske_dnn_0_car_00_car-0138-sketch-40.png,car-0138-sketch-40.png,1.0,5.326617,2.6890733,1.8650249
alexnet_w1_mlp_simclrhn_probe3,1,346,NaN,car,car,0,0346_ske_dnn_0_car_00_car-0139-sketch-41.png,car-0139-sketch-41.png,1.0,5.3572593,2.6538696,1.9115852
alexnet_w1_mlp_simclrhn_probe3,1,347,NaN,clock,car,0,0347_ske_dnn_0_car_00_car-0143-sketch-45.png,car-0143-sketch-45.png,0.0,0.620869,2.747405,-1.5036881
alexnet_w1_mlp_simclrhn_probe3,1,348,NaN,bicycle,car,0,0348_ske_dnn_0_car_00_car-0145-sketch-47.png,car-0145-sketch-47.png,0.0,0.27252117,0.7817341,-0.36006796
alexnet_w1_mlp_simclrhn_probe3,1,349,NaN,car,car,0,0349_ske_dnn_0_car_00_car-0151-sketch-7.png,car-0151-sketch-7.png,1.0,6.991169,3.5303478,2.4471703
alexnet_w1_mlp_simclrhn_probe3,1,350,NaN,clock,car,0,0350_ske_dnn_0_car_00_car-0153-sketch-9.png,car-0153-sketch-9.png,0.0,0.17358144,1.5740695,-0.9902946
alexnet_w1_mlp_simclrhn_probe3,1,351,NaN,cat,cat,0,0351_ske_dnn_0_cat_00_cat-0002-sketch-1.png,cat-0002-sketch-1.png,1.0,7.8654823,0.521868,5.19272
alexnet_w1_mlp_simclrhn_probe3,1,352,NaN,cat,cat,0,0352_ske_dnn_0_cat_00_cat-0009-sketch-16.png,cat-0009-sketch-16.png,1.0,6.7384973,1.2933877,3.8502738
alexnet_w1_mlp_simclrhn_probe3,1,353,NaN,cat,cat,0,0353_ske_dnn_0_cat_00_cat-0011-sketch-18.png,cat-0011-sketch-18.png,1.0,0.42811975,0.3791426,0.034632064
alexnet_w1_mlp_simclrhn_probe3,1,354,NaN,cat,cat,0,0354_ske_dnn_0_cat_00_cat-0015-sketch-21.png,cat-0015-sketch-21.png,1.0,8.217216,0.46319136,5.482923
alexnet_w1_mlp_simclrhn_probe3,1,355,NaN,cat,cat,0,0355_ske_dnn_0_cat_00_cat-0016-sketch-22.png,cat-0016-sketch-22.png,1.0,7.9356647,0.47959518,5.2722373
alexnet_w1_mlp_simclrhn_probe3,1,356,NaN,cat,cat,0,0356_ske_dnn_0_cat_00_cat-0021-sketch-27.png,cat-0021-sketch-27.png,1.0,6.9581833,0.9708497,4.2336845
alexnet_w1_mlp_simclrhn_probe3,1,357,NaN,cat,cat,0,0357_ske_dnn_0_cat_00_cat-0027-sketch-32.png,cat-0027-sketch-32.png,1.0,7.1269736,0.90458745,4.399892
alexnet_w1_mlp_simclrhn_probe3,1,358,NaN,cat,cat,0,0358_ske_dnn_0_cat_00_cat-0042-sketch-46.png,cat-0042-sketch-46.png,1.0,6.178081,0.56264156,3.9707153
alexnet_w1_mlp_simclrhn_probe3,1,359,NaN,cat,cat,0,0359_ske_dnn_0_cat_00_cat-0043-sketch-47.png,cat-0043-sketch-47.png,1.0,3.333111,0.49109328,2.00961
alexnet_w1_mlp_simclrhn_probe3,1,360,NaN,cat,cat,0,0360_ske_dnn_0_cat_00_cat-0044-sketch-48.png,cat-0044-sketch-48.png,1.0,5.5390553,1.8270236,2.6248028
alexnet_w1_mlp_simclrhn_probe3,1,361,NaN,cat,cat,0,0361_ske_dnn_0_cat_00_cat-0048-sketch-7.png,cat-0048-sketch-7.png,1.0,7.0440254,1.0697619,4.2244425
alexnet_w1_mlp_simclrhn_probe3,1,362,NaN,cat,cat,0,0362_ske_dnn_0_cat_00_cat-0052-sketch-1.png,cat-0052-sketch-1.png,1.0,11.333005,0.8574126,7.407363
alexnet_w1_mlp_simclrhn_probe3,1,363,NaN,clock,cat,0,0363_ske_dnn_0_cat_00_cat-0053-sketch-10.png,cat-0053-sketch-10.png,0.0,0.114968635,1.0976837,-0.6948845
alexnet_w1_mlp_simclrhn_probe3,1,364,NaN,cat,cat,0,0364_ske_dnn_0_cat_00_cat-0059-sketch-16.png,cat-0059-sketch-16.png,1.0,0.515496,0.4461336,0.049046624
alexnet_w1_mlp_simclrhn_probe3,1,365,NaN,cat,cat,0,0365_ske_dnn_0_cat_00_cat-0062-sketch-19.png,cat-0062-sketch-19.png,1.0,1.4548265,0.29794922,0.8180358
alexnet_w1_mlp_simclrhn_probe3,1,366,NaN,cat,cat,0,0366_ske_dnn_0_cat_00_cat-0067-sketch-23.png,cat-0067-sketch-23.png,1.0,2.1162994,0.4200523,1.1994278
alexnet_w1_mlp_simclrhn_probe3,1,367,NaN,clock,cat,0,0367_ske_dnn_0_cat_00_cat-0073-sketch-29.png,cat-0073-sketch-29.png,0.0,0.40440127,0.8729885,-0.33134124
alexnet_w1_mlp_simclrhn_probe3,1,368,NaN,cat,cat,0,0368_ske_dnn_0_cat_00_cat-0082-sketch-37.png,cat-0082-sketch-37.png,1.0,1.7484794,0.7004685,0.74105555
alexnet_w1_mlp_simclrhn_probe3,1,369,NaN,cat,cat,0,0369_ske_dnn_0_cat_00_cat-0085-sketch-4.png,cat-0085-sketch-4.png,1.0,5.1700187,0.50586665,3.2980537
alexnet_w1_mlp_simclrhn_probe3,1,370,NaN,cat,cat,0,0370_ske_dnn_0_cat_00_cat-0090-sketch-44.png,cat-0090-sketch-44.png,1.0,4.930114,0.61736584,3.0495734
alexnet_w1_mlp_simclrhn_probe3,1,371,NaN,cat,cat,0,0371_ske_dnn_0_cat_00_cat-0104-sketch-10.png,cat-0104-sketch-10.png,1.0,0.19929524,0.14445324,0.038779147
alexnet_w1_mlp_simclrhn_probe3,1,372,NaN,cat,cat,0,0372_ske_dnn_0_cat_00_cat-0124-sketch-29.png,cat-0124-sketch-29.png,1.0,1.7720981,0.30218142,1.039388
alexnet_w1_mlp_simclrhn_probe3,1,373,NaN,cat,cat,0,0373_ske_dnn_0_cat_00_cat-0128-sketch-32.png,cat-0128-sketch-32.png,1.0,4.8956757,0.540695,3.0794363
alexnet_w1_mlp_simclrhn_probe3,1,374,NaN,cat,cat,0,0374_ske_dnn_0_cat_00_cat-0134-sketch-38.png,cat-0134-sketch-38.png,1.0,1.0266023,0.3339051,0.48981088
alexnet_w1_mlp_simclrhn_probe3,1,375,NaN,cat,cat,0,0375_ske_dnn_0_cat_00_cat-0140-sketch-43.png,cat-0140-sketch-43.png,1.0,5.768854,0.6132433,3.6455677
alexnet_w1_mlp_simclrhn_probe3,1,376,NaN,cat,cat,0,0376_ske_dnn_0_cat_00_cat-0149-sketch-6.png,cat-0149-sketch-6.png,1.0,2.4085166,0.25577357,1.5222193
alexnet_w1_mlp_simclrhn_probe3,1,377,NaN,cat,cat,0,0377_ske_dnn_0_cat_00_cat-0150-sketch-7.png,cat-0150-sketch-7.png,1.0,2.8987072,0.38194424,1.7796202
alexnet_w1_mlp_simclrhn_probe3,1,378,NaN,clock,cat,0,0378_ske_dnn_0_cat_00_cat-0152-sketch-9.png,cat-0152-sketch-9.png,0.0,0.3905842,0.92485094,-0.37778363
alexnet_w1_mlp_simclrhn_probe3,1,379,NaN,chair,cat,0,0379_ske_dnn_0_cat_00_cat-0158-sketch-13.png,cat-0158-sketch-13.png,0.0,-0.49650764,1.8742703,-1.6763933
alexnet_w1_mlp_simclrhn_probe3,1,380,NaN,cat,cat,0,0380_ske_dnn_0_cat_00_cat-0160-sketch-15.png,cat-0160-sketch-15.png,1.0,1.9172236,0.34872717,1.1090945
alexnet_w1_mlp_simclrhn_probe3,1,381,NaN,cat,cat,0,0381_ske_dnn_0_cat_00_cat-0175-sketch-29.png,cat-0175-sketch-29.png,1.0,4.2991776,0.6906041,2.5516467
alexnet_w1_mlp_simclrhn_probe3,1,382,NaN,clock,cat,0,0382_ske_dnn_0_cat_00_cat-0207-sketch-11.png,cat-0207-sketch-11.png,0.0,-0.7689269,3.1720705,-2.786706
alexnet_w1_mlp_simclrhn_probe3,1,383,NaN,clock,cat,0,0383_ske_dnn_0_cat_00_cat-0229-sketch-31.png,cat-0229-sketch-31.png,0.0,-0.52654374,1.7305456,-1.5960032
alexnet_w1_mlp_simclrhn_probe3,1,384,NaN,clock,cat,0,0384_ske_dnn_0_cat_00_cat-0233-sketch-35.png,cat-0233-sketch-35.png,0.0,-0.7689269,3.1720705,-2.786706
alexnet_w1_mlp_simclrhn_probe3,1,385,NaN,clock,cat,0,0385_ske_dnn_0_cat_00_cat-0241-sketch-42.png,cat-0241-sketch-42.png,0.0,0.07107558,2.9070485,-2.0053356
alexnet_w1_mlp_simclrhn_probe3,1,386,NaN,clock,cat,0,0386_ske_dnn_0_cat_00_cat-0245-sketch-46.png,cat-0245-sketch-46.png,0.0,-0.49281415,1.6092572,-1.4863889
alexnet_w1_mlp_simclrhn_probe3,1,387,NaN,clock,cat,0,0387_ske_dnn_0_cat_00_cat-0250-sketch-50.png,cat-0250-sketch-50.png,0.0,-0.7745839,3.1237319,-2.7565255
alexnet_w1_mlp_simclrhn_probe3,1,388,NaN,clock,cat,0,0388_ske_dnn_0_cat_00_cat-0251-sketch-6.png,cat-0251-sketch-6.png,0.0,0.07107558,2.9070485,-2.0053356
alexnet_w1_mlp_simclrhn_probe3,1,389,NaN,cat,cat,0,0389_ske_dnn_0_cat_00_cat-0258-sketch-11.png,cat-0258-sketch-11.png,1.0,9.799782,0.46927297,6.5976663
alexnet_w1_mlp_simclrhn_probe3,1,390,NaN,bicycle,cat,0,0390_ske_dnn_0_cat_00_cat-0260-sketch-13.png,cat-0260-sketch-13.png,0.0,-0.65478426,2.6031728,-2.3037236
alexnet_w1_mlp_simclrhn_probe3,1,391,NaN,knife,cat,0,0391_ske_dnn_0_cat_00_cat-0264-sketch-17.png,cat-0264-sketch-17.png,0.0,0.511012,0.7022472,-0.1352237
alexnet_w1_mlp_simclrhn_probe3,1,392,NaN,cat,cat,0,0392_ske_dnn_0_cat_00_cat-0265-sketch-18.png,cat-0265-sketch-18.png,1.0,2.4120986,0.72691065,1.191608
alexnet_w1_mlp_simclrhn_probe3,1,393,NaN,clock,cat,0,0393_ske_dnn_0_cat_00_cat-0269-sketch-21.png,cat-0269-sketch-21.png,0.0,1.3177171,1.364221,-0.032883223
alexnet_w1_mlp_simclrhn_probe3,1,394,NaN,cat,cat,0,0394_ske_dnn_0_cat_00_cat-0274-sketch-26.png,cat-0274-sketch-26.png,1.0,3.9521446,0.5104765,2.433627
alexnet_w1_mlp_simclrhn_probe3,1,395,NaN,cat,cat,0,0395_ske_dnn_0_cat_00_cat-0279-sketch-30.png,cat-0279-sketch-30.png,1.0,0.3699595,0.28881314,0.05737914
alexnet_w1_mlp_simclrhn_probe3,1,396,NaN,clock,cat,0,0396_ske_dnn_0_cat_00_cat-0289-sketch-4.png,cat-0289-sketch-4.png,0.0,0.18197583,0.35255945,-0.12062084
alexnet_w1_mlp_simclrhn_probe3,1,397,NaN,cat,cat,0,0397_ske_dnn_0_cat_00_cat-0293-sketch-43.png,cat-0293-sketch-43.png,1.0,5.066467,0.48920223,3.236615
alexnet_w1_mlp_simclrhn_probe3,1,398,NaN,cat,cat,0,0398_ske_dnn_0_cat_00_cat-0295-sketch-45.png,cat-0295-sketch-45.png,1.0,8.346256,0.72894716,5.386251
alexnet_w1_mlp_simclrhn_probe3,1,399,NaN,cat,cat,0,0399_ske_dnn_0_cat_00_cat-0302-sketch-6.png,cat-0302-sketch-6.png,1.0,4.2848496,0.7633169,2.4900997
alexnet_w1_mlp_simclrhn_probe3,1,400,NaN,cat,cat,0,0400_ske_dnn_0_cat_00_cat-0304-sketch-8.png,cat-0304-sketch-8.png,1.0,6.60215,0.58894515,4.251978
alexnet_w1_mlp_simclrhn_probe3,1,401,NaN,clock,chair,0,0401_ske_dnn_0_chair_00_chair-0002-sketch-1.png,chair-0002-sketch-1.png,0.0,0.40998977,1.4604174,-0.74276453
alexnet_w1_mlp_simclrhn_probe3,1,402,NaN,chair,chair,0,0402_ske_dnn_0_chair_00_chair-0005-sketch-12.png,chair-0005-sketch-12.png,1.0,7.0704927,2.7649195,3.0445004
alexnet_w1_mlp_simclrhn_probe3,1,403,NaN,chair,chair,0,0403_ske_dnn_0_chair_00_chair-0006-sketch-13.png,chair-0006-sketch-13.png,1.0,2.2980895,1.3884518,0.643211
alexnet_w1_mlp_simclrhn_probe3,1,404,NaN,chair,chair,0,0404_ske_dnn_0_chair_00_chair-0011-sketch-18.png,chair-0011-sketch-18.png,1.0,3.377308,1.7984309,1.1164346
alexnet_w1_mlp_simclrhn_probe3,1,405,NaN,clock,chair,0,0405_ske_dnn_0_chair_00_chair-0013-sketch-2.png,chair-0013-sketch-2.png,0.0,1.5450705,3.2585204,-1.2115921
alexnet_w1_mlp_simclrhn_probe3,1,406,NaN,chair,chair,0,0406_ske_dnn_0_chair_00_chair-0014-sketch-20.png,chair-0014-sketch-20.png,1.0,4.1632767,2.0068588,1.5248177
alexnet_w1_mlp_simclrhn_probe3,1,407,NaN,clock,chair,0,0407_ske_dnn_0_chair_00_chair-0017-sketch-23.png,chair-0017-sketch-23.png,0.0,1.6664611,2.3491342,-0.4827228
alexnet_w1_mlp_simclrhn_probe3,1,408,NaN,chair,chair,0,0408_ske_dnn_0_chair_00_chair-0029-sketch-34.png,chair-0029-sketch-34.png,1.0,2.5821123,1.9303036,0.4608984
alexnet_w1_mlp_simclrhn_probe3,1,409,NaN,clock,chair,0,0409_ske_dnn_0_chair_00_chair-0034-sketch-39.png,chair-0034-sketch-39.png,0.0,1.6277943,3.4075854,-1.2585024
alexnet_w1_mlp_simclrhn_probe3,1,410,NaN,chair,chair,0,0410_ske_dnn_0_chair_00_chair-0040-sketch-44.png,chair-0040-sketch-44.png,1.0,7.5962687,2.2152414,3.804961
alexnet_w1_mlp_simclrhn_probe3,1,411,NaN,chair,chair,0,0411_ske_dnn_0_chair_00_chair-0051-sketch-9.png,chair-0051-sketch-9.png,1.0,3.7869022,1.2405183,1.8005654
alexnet_w1_mlp_simclrhn_probe3,1,412,NaN,knife,chair,0,0412_ske_dnn_0_chair_00_chair-0052-sketch-0.png,chair-0052-sketch-0.png,0.0,0.7975838,1.6338297,-0.59131515
alexnet_w1_mlp_simclrhn_probe3,1,413,NaN,clock,chair,0,0413_ske_dnn_0_chair_00_chair-0055-sketch-11.png,chair-0055-sketch-11.png,0.0,2.2116544,2.512801,-0.21294273
alexnet_w1_mlp_simclrhn_probe3,1,414,NaN,chair,chair,0,0414_ske_dnn_0_chair_00_chair-0060-sketch-16.png,chair-0060-sketch-16.png,1.0,5.6328635,4.4686775,0.8232038
alexnet_w1_mlp_simclrhn_probe3,1,415,NaN,chair,chair,0,0415_ske_dnn_0_chair_00_chair-0062-sketch-18.png,chair-0062-sketch-18.png,1.0,5.887679,3.1739326,1.9189086
alexnet_w1_mlp_simclrhn_probe3,1,416,NaN,chair,chair,0,0416_ske_dnn_0_chair_00_chair-0063-sketch-19.png,chair-0063-sketch-19.png,1.0,6.0166526,3.6571794,1.6683996
alexnet_w1_mlp_simclrhn_probe3,1,417,NaN,chair,chair,0,0417_ske_dnn_0_chair_00_chair-0064-sketch-2.png,chair-0064-sketch-2.png,1.0,2.1712148,1.1444125,0.7260589
alexnet_w1_mlp_simclrhn_probe3,1,418,NaN,chair,chair,0,0418_ske_dnn_0_chair_00_chair-0066-sketch-21.png,chair-0066-sketch-21.png,1.0,2.0741074,1.4710664,0.42641443
alexnet_w1_mlp_simclrhn_probe3,1,419,NaN,chair,chair,0,0419_ske_dnn_0_chair_00_chair-0067-sketch-22.png,chair-0067-sketch-22.png,1.0,4.401035,1.7716525,1.8592541
alexnet_w1_mlp_simclrhn_probe3,1,420,NaN,chair,chair,0,0420_ske_dnn_0_chair_00_chair-0071-sketch-26.png,chair-0071-sketch-26.png,1.0,2.597226,1.3587704,0.8757203
alexnet_w1_mlp_simclrhn_probe3,1,421,NaN,chair,chair,0,0421_ske_dnn_0_chair_00_chair-0072-sketch-27.png,chair-0072-sketch-27.png,1.0,3.8876128,2.1620388,1.2201651
alexnet_w1_mlp_simclrhn_probe3,1,422,NaN,chair,chair,0,0422_ske_dnn_0_chair_00_chair-0076-sketch-30.png,chair-0076-sketch-30.png,1.0,6.359161,2.3692994,2.821258
alexnet_w1_mlp_simclrhn_probe3,1,423,NaN,chair,chair,0,0423_ske_dnn_0_chair_00_chair-0079-sketch-33.png,chair-0079-sketch-33.png,1.0,7.062904,3.5384326,2.4921775
alexnet_w1_mlp_simclrhn_probe3,1,424,NaN,clock,chair,0,0424_ske_dnn_0_chair_00_chair-0083-sketch-37.png,chair-0083-sketch-37.png,0.0,1.7210212,2.9747465,-0.88651764
alexnet_w1_mlp_simclrhn_probe3,1,425,NaN,chair,chair,0,0425_ske_dnn_0_chair_00_chair-0088-sketch-41.png,chair-0088-sketch-41.png,1.0,2.7867432,1.5106128,0.90236044
alexnet_w1_mlp_simclrhn_probe3,1,426,NaN,chair,chair,0,0426_ske_dnn_0_chair_00_chair-0094-sketch-47.png,chair-0094-sketch-47.png,1.0,5.2058825,2.5197961,1.8993499
alexnet_w1_mlp_simclrhn_probe3,1,427,NaN,knife,chair,0,0427_ske_dnn_0_chair_00_chair-0105-sketch-11.png,chair-0105-sketch-11.png,0.0,0.78265524,0.93634707,-0.10867654
alexnet_w1_mlp_simclrhn_probe3,1,428,NaN,chair,chair,0,0428_ske_dnn_0_chair_00_chair-0118-sketch-23.png,chair-0118-sketch-23.png,1.0,4.2524023,2.7048085,1.0943141
alexnet_w1_mlp_simclrhn_probe3,1,429,NaN,chair,chair,0,0429_ske_dnn_0_chair_00_chair-0122-sketch-27.png,chair-0122-sketch-27.png,1.0,6.4407043,1.6170343,3.4108498
alexnet_w1_mlp_simclrhn_probe3,1,430,NaN,chair,chair,0,0430_ske_dnn_0_chair_00_chair-0124-sketch-29.png,chair-0124-sketch-29.png,1.0,2.8106415,1.290546,1.0748699
alexnet_w1_mlp_simclrhn_probe3,1,431,NaN,chair,chair,0,0431_ske_dnn_0_chair_00_chair-0125-sketch-3.png,chair-0125-sketch-3.png,1.0,3.3443825,1.68461,1.1736364
alexnet_w1_mlp_simclrhn_probe3,1,432,NaN,chair,chair,0,0432_ske_dnn_0_chair_00_chair-0127-sketch-31.png,chair-0127-sketch-31.png,1.0,3.0768883,1.0084988,1.4625722
alexnet_w1_mlp_simclrhn_probe3,1,433,NaN,chair,chair,0,0433_ske_dnn_0_chair_00_chair-0129-sketch-33.png,chair-0129-sketch-33.png,1.0,3.7712107,3.3860812,0.27232766
alexnet_w1_mlp_simclrhn_probe3,1,434,NaN,chair,chair,0,0434_ske_dnn_0_chair_00_chair-0130-sketch-34.png,chair-0130-sketch-34.png,1.0,4.831684,3.7057896,0.7961277
alexnet_w1_mlp_simclrhn_probe3,1,435,NaN,chair,chair,0,0435_ske_dnn_0_chair_00_chair-0131-sketch-35.png,chair-0131-sketch-35.png,1.0,2.9464135,2.941991,0.0031271277
alexnet_w1_mlp_simclrhn_probe3,1,436,NaN,chair,chair,0,0436_ske_dnn_0_chair_00_chair-0135-sketch-39.png,chair-0135-sketch-39.png,1.0,5.8696184,2.215878,2.5835845
alexnet_w1_mlp_simclrhn_probe3,1,437,NaN,chair,chair,0,0437_ske_dnn_0_chair_00_chair-0144-sketch-47.png,chair-0144-sketch-47.png,1.0,2.265549,1.7059882,0.39566922
alexnet_w1_mlp_simclrhn_probe3,1,438,NaN,chair,chair,0,0438_ske_dnn_0_chair_00_chair-0145-sketch-48.png,chair-0145-sketch-48.png,1.0,2.5724273,1.4656967,0.78257674
alexnet_w1_mlp_simclrhn_probe3,1,439,NaN,bicycle,chair,0,0439_ske_dnn_0_chair_00_chair-0153-sketch-0.png,chair-0153-sketch-0.png,0.0,2.2683396,3.6473117,-0.9750805
alexnet_w1_mlp_simclrhn_probe3,1,440,NaN,chair,chair,0,0440_ske_dnn_0_chair_00_chair-0155-sketch-10.png,chair-0155-sketch-10.png,1.0,3.429328,3.388499,0.028870422
alexnet_w1_mlp_simclrhn_probe3,1,441,NaN,chair,chair,0,0441_ske_dnn_0_chair_00_chair-0163-sketch-18.png,chair-0163-sketch-18.png,1.0,2.9968712,1.1841127,1.2818139
alexnet_w1_mlp_simclrhn_probe3,1,442,NaN,clock,chair,0,0442_ske_dnn_0_chair_00_chair-0166-sketch-20.png,chair-0166-sketch-20.png,0.0,1.0721495,1.8862944,-0.57568735
alexnet_w1_mlp_simclrhn_probe3,1,443,NaN,chair,chair,0,0443_ske_dnn_0_chair_00_chair-0167-sketch-21.png,chair-0167-sketch-21.png,1.0,3.0009875,1.8135653,0.83963436
alexnet_w1_mlp_simclrhn_probe3,1,444,NaN,oven,chair,0,0444_ske_dnn_0_chair_00_chair-0168-sketch-22.png,chair-0168-sketch-22.png,0.0,2.655691,2.7852063,-0.091581225
alexnet_w1_mlp_simclrhn_probe3,1,445,NaN,chair,chair,0,0445_ske_dnn_0_chair_00_chair-0175-sketch-29.png,chair-0175-sketch-29.png,1.0,2.181586,1.5845194,0.4221899
alexnet_w1_mlp_simclrhn_probe3,1,446,NaN,clock,chair,0,0446_ske_dnn_0_chair_00_chair-0176-sketch-3.png,chair-0176-sketch-3.png,0.0,0.92041683,4.2424383,-2.349024
alexnet_w1_mlp_simclrhn_probe3,1,447,NaN,clock,chair,0,0447_ske_dnn_0_chair_00_chair-0178-sketch-31.png,chair-0178-sketch-31.png,0.0,1.4928463,1.9037555,-0.29055676
alexnet_w1_mlp_simclrhn_probe3,1,448,NaN,chair,chair,0,0448_ske_dnn_0_chair_00_chair-0180-sketch-33.png,chair-0180-sketch-33.png,1.0,0.7091583,0.1913693,0.3661321
alexnet_w1_mlp_simclrhn_probe3,1,449,NaN,oven,chair,0,0449_ske_dnn_0_chair_00_chair-0197-sketch-49.png,chair-0197-sketch-49.png,0.0,2.7720342,2.988768,-0.15325403
alexnet_w1_mlp_simclrhn_probe3,1,450,NaN,chair,chair,0,0450_ske_dnn_0_chair_00_chair-0200-sketch-6.png,chair-0200-sketch-6.png,1.0,0.5618015,0.27814645,0.20057441
alexnet_w1_mlp_simclrhn_probe3,1,451,NaN,clock,clock,0,0451_ske_dnn_0_clock_00_clock-0005-sketch-12.png,clock-0005-sketch-12.png,1.0,13.987896,1.2057772,9.038323
alexnet_w1_mlp_simclrhn_probe3,1,452,NaN,clock,clock,0,0452_ske_dnn_0_clock_00_clock-0007-sketch-14.png,clock-0007-sketch-14.png,1.0,9.950686,0.9594301,6.3577785
alexnet_w1_mlp_simclrhn_probe3,1,453,NaN,clock,clock,0,0453_ske_dnn_0_clock_00_clock-0015-sketch-21.png,clock-0015-sketch-21.png,1.0,6.5149245,0.50801486,4.2475266
alexnet_w1_mlp_simclrhn_probe3,1,454,NaN,clock,clock,0,0454_ske_dnn_0_clock_00_clock-0017-sketch-23.png,clock-0017-sketch-23.png,1.0,4.743328,0.46659058,3.0241103
alexnet_w1_mlp_simclrhn_probe3,1,455,NaN,clock,clock,0,0455_ske_dnn_0_clock_00_clock-0018-sketch-24.png,clock-0018-sketch-24.png,1.0,9.037963,1.5692189,5.2812
alexnet_w1_mlp_simclrhn_probe3,1,456,NaN,clock,clock,0,0456_ske_dnn_0_clock_00_clock-0021-sketch-27.png,clock-0021-sketch-27.png,1.0,2.9633358,2.698672,0.1871455
alexnet_w1_mlp_simclrhn_probe3,1,457,NaN,clock,clock,0,0457_ske_dnn_0_clock_00_clock-0022-sketch-28.png,clock-0022-sketch-28.png,1.0,4.2777495,1.8754458,1.6986853
alexnet_w1_mlp_simclrhn_probe3,1,458,NaN,clock,clock,0,0458_ske_dnn_0_clock_00_clock-0027-sketch-32.png,clock-0027-sketch-32.png,1.0,3.3802407,0.4065459,2.1027198
alexnet_w1_mlp_simclrhn_probe3,1,459,NaN,clock,clock,0,0459_ske_dnn_0_clock_00_clock-0028-sketch-33.png,clock-0028-sketch-33.png,1.0,12.1171875,1.8579283,7.2543917
alexnet_w1_mlp_simclrhn_probe3,1,460,NaN,clock,clock,0,0460_ske_dnn_0_clock_00_clock-0030-sketch-35.png,clock-0030-sketch-35.png,1.0,10.982808,1.4252372,6.7582235
alexnet_w1_mlp_simclrhn_probe3,1,461,NaN,clock,clock,0,0461_ske_dnn_0_clock_00_clock-0033-sketch-38.png,clock-0033-sketch-38.png,1.0,11.210645,1.4754281,6.8838377
alexnet_w1_mlp_simclrhn_probe3,1,462,NaN,clock,clock,0,0462_ske_dnn_0_clock_00_clock-0035-sketch-4.png,clock-0035-sketch-4.png,1.0,11.614673,0.9689042,7.527695
alexnet_w1_mlp_simclrhn_probe3,1,463,NaN,clock,clock,0,0463_ske_dnn_0_clock_00_clock-0044-sketch-48.png,clock-0044-sketch-48.png,1.0,2.5100412,0.14343493,1.6734433
alexnet_w1_mlp_simclrhn_probe3,1,464,NaN,clock,clock,0,0464_ske_dnn_0_clock_00_clock-0046-sketch-5.png,clock-0046-sketch-5.png,1.0,5.682476,0.7531692,3.4855464
alexnet_w1_mlp_simclrhn_probe3,1,465,NaN,clock,clock,0,0465_ske_dnn_0_clock_00_clock-0049-sketch-7.png,clock-0049-sketch-7.png,1.0,5.281096,0.5845098,3.320988
alexnet_w1_mlp_simclrhn_probe3,1,466,NaN,keyboard,clock,0,0466_ske_dnn_0_clock_00_clock-0057-sketch-13.png,clock-0057-sketch-13.png,0.0,2.6520429,2.899416,-0.1749192
alexnet_w1_mlp_simclrhn_probe3,1,467,NaN,clock,clock,0,0467_ske_dnn_0_clock_00_clock-0059-sketch-15.png,clock-0059-sketch-15.png,1.0,4.529426,0.85697246,2.596817
alexnet_w1_mlp_simclrhn_probe3,1,468,NaN,clock,clock,0,0468_ske_dnn_0_clock_00_clock-0060-sketch-16.png,clock-0060-sketch-16.png,1.0,2.357238,1.1807343,0.8319138
alexnet_w1_mlp_simclrhn_probe3,1,469,NaN,clock,clock,0,0469_ske_dnn_0_clock_00_clock-0067-sketch-22.png,clock-0067-sketch-22.png,1.0,5.702534,2.636558,2.1679726
alexnet_w1_mlp_simclrhn_probe3,1,470,NaN,clock,clock,0,0470_ske_dnn_0_clock_00_clock-0069-sketch-24.png,clock-0069-sketch-24.png,1.0,2.9646199,2.7574306,0.14650498
alexnet_w1_mlp_simclrhn_probe3,1,471,NaN,clock,clock,0,0471_ske_dnn_0_clock_00_clock-0070-sketch-25.png,clock-0070-sketch-25.png,1.0,4.173567,2.661246,1.0693723
alexnet_w1_mlp_simclrhn_probe3,1,472,NaN,clock,clock,0,0472_ske_dnn_0_clock_00_clock-0071-sketch-26.png,clock-0071-sketch-26.png,1.0,8.869625,1.0759109,5.510988
alexnet_w1_mlp_simclrhn_probe3,1,473,NaN,chair,clock,0,0473_ske_dnn_0_clock_00_clock-0073-sketch-28.png,clock-0073-sketch-28.png,0.0,0.9849489,2.3367603,-0.95587504
alexnet_w1_mlp_simclrhn_probe3,1,474,NaN,oven,clock,0,0474_ske_dnn_0_clock_00_clock-0074-sketch-29.png,clock-0074-sketch-29.png,0.0,1.2180891,2.4029224,-0.83780366
alexnet_w1_mlp_simclrhn_probe3,1,475,NaN,clock,clock,0,0475_ske_dnn_0_clock_00_clock-0076-sketch-30.png,clock-0076-sketch-30.png,1.0,6.1638045,2.3599296,2.689746
alexnet_w1_mlp_simclrhn_probe3,1,476,NaN,clock,clock,0,0476_ske_dnn_0_clock_00_clock-0077-sketch-31.png,clock-0077-sketch-31.png,1.0,4.2991185,2.8051548,1.0563918
alexnet_w1_mlp_simclrhn_probe3,1,477,NaN,clock,clock,0,0477_ske_dnn_0_clock_00_clock-0078-sketch-32.png,clock-0078-sketch-32.png,1.0,4.537007,2.1690235,1.6744171
alexnet_w1_mlp_simclrhn_probe3,1,478,NaN,clock,clock,0,0478_ske_dnn_0_clock_00_clock-0081-sketch-35.png,clock-0081-sketch-35.png,1.0,4.9495387,1.5438831,2.408162
alexnet_w1_mlp_simclrhn_probe3,1,479,NaN,clock,clock,0,0479_ske_dnn_0_clock_00_clock-0085-sketch-39.png,clock-0085-sketch-39.png,1.0,6.9286537,3.424708,2.477664
alexnet_w1_mlp_simclrhn_probe3,1,480,NaN,oven,clock,0,0480_ske_dnn_0_clock_00_clock-0087-sketch-40.png,clock-0087-sketch-40.png,0.0,1.917164,3.0027876,-0.76765186
alexnet_w1_mlp_simclrhn_probe3,1,481,NaN,clock,clock,0,0481_ske_dnn_0_clock_00_clock-0092-sketch-45.png,clock-0092-sketch-45.png,1.0,4.2225432,1.599479,1.8547865
alexnet_w1_mlp_simclrhn_probe3,1,482,NaN,clock,clock,0,0482_ske_dnn_0_clock_00_clock-0093-sketch-46.png,clock-0093-sketch-46.png,1.0,4.421189,0.96190387,2.446084
alexnet_w1_mlp_simclrhn_probe3,1,483,NaN,clock,clock,0,0483_ske_dnn_0_clock_00_clock-0095-sketch-48.png,clock-0095-sketch-48.png,1.0,6.9030843,3.2735138,2.566494
alexnet_w1_mlp_simclrhn_probe3,1,484,NaN,keyboard,clock,0,0484_ske_dnn_0_clock_00_clock-0099-sketch-6.png,clock-0099-sketch-6.png,0.0,1.7684226,3.5776496,-1.2793167
alexnet_w1_mlp_simclrhn_probe3,1,485,NaN,clock,clock,0,0485_ske_dnn_0_clock_00_clock-0110-sketch-15.png,clock-0110-sketch-15.png,1.0,5.962799,1.4053032,3.2226365
alexnet_w1_mlp_simclrhn_probe3,1,486,NaN,clock,clock,0,0486_ske_dnn_0_clock_00_clock-0112-sketch-17.png,clock-0112-sketch-17.png,1.0,22.120699,1.3399215,14.694228
alexnet_w1_mlp_simclrhn_probe3,1,487,NaN,clock,clock,0,0487_ske_dnn_0_clock_00_clock-0115-sketch-2.png,clock-0115-sketch-2.png,1.0,5.4497795,1.9920704,2.4449697
alexnet_w1_mlp_simclrhn_probe3,1,488,NaN,clock,clock,0,0488_ske_dnn_0_clock_00_clock-0118-sketch-22.png,clock-0118-sketch-22.png,1.0,8.775298,1.5467379,5.1113644
alexnet_w1_mlp_simclrhn_probe3,1,489,NaN,clock,clock,0,0489_ske_dnn_0_clock_00_clock-0123-sketch-27.png,clock-0123-sketch-27.png,1.0,11.486786,0.7436943,7.5965133
alexnet_w1_mlp_simclrhn_probe3,1,490,NaN,clock,clock,0,0490_ske_dnn_0_clock_00_clock-0127-sketch-30.png,clock-0127-sketch-30.png,1.0,9.963756,1.7266253,5.8245306
alexnet_w1_mlp_simclrhn_probe3,1,491,NaN,clock,clock,0,0491_ske_dnn_0_clock_00_clock-0131-sketch-34.png,clock-0131-sketch-34.png,1.0,8.469799,2.2155333,4.422434
alexnet_w1_mlp_simclrhn_probe3,1,492,NaN,clock,clock,0,0492_ske_dnn_0_clock_00_clock-0132-sketch-35.png,clock-0132-sketch-35.png,1.0,5.040588,1.0391946,2.8294125
alexnet_w1_mlp_simclrhn_probe3,1,493,NaN,clock,clock,0,0493_ske_dnn_0_clock_00_clock-0133-sketch-36.png,clock-0133-sketch-36.png,1.0,2.92795,0.19850591,1.9300084
alexnet_w1_mlp_simclrhn_probe3,1,494,NaN,clock,clock,0,0494_ske_dnn_0_clock_00_clock-0136-sketch-39.png,clock-0136-sketch-39.png,1.0,9.906998,1.0961826,6.230187
alexnet_w1_mlp_simclrhn_probe3,1,495,NaN,clock,clock,0,0495_ske_dnn_0_clock_00_clock-0137-sketch-4.png,clock-0137-sketch-4.png,1.0,7.450523,0.42060426,4.9709034
alexnet_w1_mlp_simclrhn_probe3,1,496,NaN,clock,clock,0,0496_ske_dnn_0_clock_00_clock-0138-sketch-40.png,clock-0138-sketch-40.png,1.0,8.761755,3.7254298,3.56122
alexnet_w1_mlp_simclrhn_probe3,1,497,NaN,clock,clock,0,0497_ske_dnn_0_clock_00_clock-0141-sketch-43.png,clock-0141-sketch-43.png,1.0,5.4730797,0.35430747,3.6195185
alexnet_w1_mlp_simclrhn_probe3,1,498,NaN,clock,clock,0,0498_ske_dnn_0_clock_00_clock-0143-sketch-45.png,clock-0143-sketch-45.png,1.0,5.0222,0.49298263,3.2026405
alexnet_w1_mlp_simclrhn_probe3,1,499,NaN,clock,clock,0,0499_ske_dnn_0_clock_00_clock-0144-sketch-46.png,clock-0144-sketch-46.png,1.0,7.4396286,0.44134822,4.9485316
alexnet_w1_mlp_simclrhn_probe3,1,500,NaN,clock,clock,0,0500_ske_dnn_0_clock_00_clock-0150-sketch-6.png,clock-0150-sketch-6.png,1.0,10.844415,1.7282223,6.4461217
alexnet_w1_mlp_simclrhn_probe3,1,501,NaN,dog,dog,0,0501_ske_dnn_0_dog_00_dog-0011-sketch-18.png,dog-0011-sketch-18.png,1.0,1.4558171,1.3200847,0.095977314
alexnet_w1_mlp_simclrhn_probe3,1,502,NaN,cat,dog,0,0502_ske_dnn_0_dog_00_dog-0111-sketch-17.png,dog-0111-sketch-17.png,0.0,0.32319826,0.9959143,-0.47568208
alexnet_w1_mlp_simclrhn_probe3,1,503,NaN,clock,dog,0,0503_ske_dnn_0_dog_00_dog-0215-sketch-19.png,dog-0215-sketch-19.png,0.0,-0.7182166,4.144522,-3.4384756
alexnet_w1_mlp_simclrhn_probe3,1,504,NaN,cat,dog,0,0504_ske_dnn_0_dog_00_dog-0243-sketch-44.png,dog-0243-sketch-44.png,0.0,0.107179426,0.9783113,-0.6159833
alexnet_w1_mlp_simclrhn_probe3,1,505,NaN,cat,dog,0,0505_ske_dnn_0_dog_00_dog-0476-sketch-26.png,dog-0476-sketch-26.png,0.0,0.39138857,0.94028884,-0.38813108
alexnet_w1_mlp_simclrhn_probe3,1,506,NaN,cat,dog,0,0506_ske_dnn_0_dog_00_dog-0607-sketch-8.png,dog-0607-sketch-8.png,0.0,0.17402712,1.0567185,-0.6241571
alexnet_w1_mlp_simclrhn_probe3,1,507,NaN,dog,dog,0,0507_ske_dnn_0_dog_00_dog-0630-sketch-28.png,dog-0630-sketch-28.png,1.0,2.2910044,1.5373634,0.5329047
alexnet_w1_mlp_simclrhn_probe3,1,508,NaN,cat,dog,0,0508_ske_dnn_0_dog_00_dog-1035-sketch-27.png,dog-1035-sketch-27.png,0.0,0.79065746,0.98373866,-0.13652903
alexnet_w1_mlp_simclrhn_probe3,1,509,NaN,cat,dog,0,0509_ske_dnn_0_dog_00_dog-1292-sketch-3.png,dog-1292-sketch-3.png,0.0,1.231589,1.5100039,-0.19686912
alexnet_w1_mlp_simclrhn_probe3,1,510,NaN,cat,dog,0,0510_ske_dnn_0_dog_00_dog-1393-sketch-3.png,dog-1393-sketch-3.png,0.0,0.29219607,1.0299002,-0.5216356
alexnet_w1_mlp_simclrhn_probe3,1,511,NaN,cat,dog,0,0511_ske_dnn_0_dog_00_dog-1460-sketch-44.png,dog-1460-sketch-44.png,0.0,0.41460058,0.77117723,-0.25213778
alexnet_w1_mlp_simclrhn_probe3,1,512,NaN,clock,dog,0,0512_ske_dnn_0_dog_00_dog-1617-sketch-48.png,dog-1617-sketch-48.png,0.0,-0.6405024,2.86185,-2.4765372
alexnet_w1_mlp_simclrhn_probe3,1,513,NaN,dog,dog,0,0513_ske_dnn_0_dog_00_dog-1657-sketch-38.png,dog-1657-sketch-38.png,1.0,1.5932977,0.42314944,0.82741976
alexnet_w1_mlp_simclrhn_probe3,1,514,NaN,clock,dog,0,0514_ske_dnn_0_dog_00_dog-1711-sketch-40.png,dog-1711-sketch-40.png,0.0,0.40134576,0.5933599,-0.1357745
alexnet_w1_mlp_simclrhn_probe3,1,515,NaN,dog,dog,0,0515_ske_dnn_0_dog_00_dog-1759-sketch-38.png,dog-1759-sketch-38.png,1.0,1.0183035,0.62084854,0.2810431
alexnet_w1_mlp_simclrhn_probe3,1,516,NaN,clock,dog,0,0516_ske_dnn_0_dog_00_dog-1797-sketch-26.png,dog-1797-sketch-26.png,0.0,-0.3396813,1.7519499,-1.4790066
alexnet_w1_mlp_simclrhn_probe3,1,517,NaN,clock,dog,0,0517_ske_dnn_0_dog_00_dog-1973-sketch-47.png,dog-1973-sketch-47.png,0.0,-0.02797876,0.49662772,-0.37095279
alexnet_w1_mlp_simclrhn_probe3,1,518,NaN,clock,dog,0,0518_ske_dnn_0_dog_00_dog-2150-sketch-22.png,dog-2150-sketch-22.png,0.0,-0.293258,3.2426891,-2.5002923
alexnet_w1_mlp_simclrhn_probe3,1,519,NaN,clock,dog,0,0519_ske_dnn_0_dog_00_dog-2198-sketch-20.png,dog-2198-sketch-20.png,0.0,-0.70829463,3.545616,-3.0079691
alexnet_w1_mlp_simclrhn_probe3,1,520,NaN,dog,dog,0,0520_ske_dnn_0_dog_00_dog-2291-sketch-12.png,dog-2291-sketch-12.png,1.0,1.351935,0.53806305,0.5754944
alexnet_w1_mlp_simclrhn_probe3,1,521,NaN,bird,dog,0,0521_ske_dnn_0_dog_00_dog-2323-sketch-41.png,dog-2323-sketch-41.png,0.0,0.42218605,1.5207046,-0.77677
alexnet_w1_mlp_simclrhn_probe3,1,522,NaN,bicycle,dog,0,0522_ske_dnn_0_dog_00_dog-2454-sketch-21.png,dog-2454-sketch-21.png,0.0,0.21901947,0.7464084,-0.3729203
alexnet_w1_mlp_simclrhn_probe3,1,523,NaN,dog,dog,0,0523_ske_dnn_0_dog_00_dog-2506-sketch-23.png,dog-2506-sketch-23.png,1.0,2.141598,1.1814044,0.6789594
alexnet_w1_mlp_simclrhn_probe3,1,524,NaN,elephant,dog,0,0524_ske_dnn_0_dog_00_dog-2541-sketch-0.png,dog-2541-sketch-0.png,0.0,0.58855873,0.63421226,-0.032281917
alexnet_w1_mlp_simclrhn_probe3,1,525,NaN,elephant,dog,0,0525_ske_dnn_0_dog_00_dog-2615-sketch-3.png,dog-2615-sketch-3.png,0.0,0.6660398,1.1706727,-0.35682932
alexnet_w1_mlp_simclrhn_probe3,1,526,NaN,clock,dog,0,0526_ske_dnn_0_dog_00_dog-2948-sketch-10.png,dog-2948-sketch-10.png,0.0,0.91626483,1.6792544,-0.53951514
alexnet_w1_mlp_simclrhn_probe3,1,527,NaN,dog,dog,0,0527_ske_dnn_0_dog_00_dog-3000-sketch-11.png,dog-3000-sketch-11.png,1.0,1.8195528,1.0956635,0.511867
alexnet_w1_mlp_simclrhn_probe3,1,528,NaN,clock,dog,0,0528_ske_dnn_0_dog_00_dog-3153-sketch-11.png,dog-3153-sketch-11.png,0.0,-0.1489124,0.39530125,-0.38481718
alexnet_w1_mlp_simclrhn_probe3,1,529,NaN,cat,dog,0,0529_ske_dnn_0_dog_00_dog-3251-sketch-9.png,dog-3251-sketch-9.png,0.0,0.10306681,0.72934175,-0.44284326
alexnet_w1_mlp_simclrhn_probe3,1,530,NaN,dog,dog,0,0530_ske_dnn_0_dog_00_dog-3303-sketch-0.png,dog-3303-sketch-0.png,1.0,0.9083693,0.3622854,0.38613966
alexnet_w1_mlp_simclrhn_probe3,1,531,NaN,dog,dog,0,0531_ske_dnn_0_dog_00_dog-3338-sketch-40.png,dog-3338-sketch-40.png,1.0,1.8974409,0.47920957,1.002841
alexnet_w1_mlp_simclrhn_probe3,1,532,NaN,cat,dog,0,0532_ske_dnn_0_dog_00_dog-3417-sketch-2.png,dog-3417-sketch-2.png,0.0,0.29895866,0.9412578,-0.45417407
alexnet_w1_mlp_simclrhn_probe3,1,533,NaN,cat,dog,0,0533_ske_dnn_0_dog_00_dog-3503-sketch-6.png,dog-3503-sketch-6.png,0.0,0.24786611,0.53879493,-0.20571776
alexnet_w1_mlp_simclrhn_probe3,1,534,NaN,dog,dog,0,0534_ske_dnn_0_dog_00_dog-3573-sketch-22.png,dog-3573-sketch-22.png,1.0,1.8639411,1.774353,0.063348316
alexnet_w1_mlp_simclrhn_probe3,1,535,NaN,cat,dog,0,0535_ske_dnn_0_dog_00_dog-3646-sketch-42.png,dog-3646-sketch-42.png,0.0,2.2254,3.975465,-1.2374829
alexnet_w1_mlp_simclrhn_probe3,1,536,NaN,bird,dog,0,0536_ske_dnn_0_dog_00_dog-3695-sketch-40.png,dog-3695-sketch-40.png,0.0,0.031015228,0.8303634,-0.5652245
alexnet_w1_mlp_simclrhn_probe3,1,537,NaN,chair,dog,0,0537_ske_dnn_0_dog_00_dog-3915-sketch-0.png,dog-3915-sketch-0.png,0.0,-0.28721082,0.23824438,-0.37155297
alexnet_w1_mlp_simclrhn_probe3,1,538,NaN,cat,dog,0,0538_ske_dnn_0_dog_00_dog-4202-sketch-4.png,dog-4202-sketch-4.png,0.0,0.876738,3.5756838,-1.9084429
alexnet_w1_mlp_simclrhn_probe3,1,539,NaN,cat,dog,0,0539_ske_dnn_0_dog_00_dog-4208-sketch-45.png,dog-4208-sketch-45.png,0.0,0.59603184,1.3244823,-0.51509225
alexnet_w1_mlp_simclrhn_probe3,1,540,NaN,dog,dog,0,0540_ske_dnn_0_dog_00_dog-4325-sketch-13.png,dog-4325-sketch-13.png,1.0,1.1279398,0.3218264,0.5700083
alexnet_w1_mlp_simclrhn_probe3,1,541,NaN,dog,dog,0,0541_ske_dnn_0_dog_00_dog-4475-sketch-11.png,dog-4475-sketch-11.png,1.0,1.634614,1.1266234,0.3592036
alexnet_w1_mlp_simclrhn_probe3,1,542,NaN,clock,dog,0,0542_ske_dnn_0_dog_00_dog-4499-sketch-33.png,dog-4499-sketch-33.png,0.0,-0.3573994,1.0660604,-1.006538
alexnet_w1_mlp_simclrhn_probe3,1,543,NaN,cat,dog,0,0543_ske_dnn_0_dog_00_dog-4581-sketch-16.png,dog-4581-sketch-16.png,0.0,-0.08423016,1.117685,-0.84988236
alexnet_w1_mlp_simclrhn_probe3,1,544,NaN,clock,dog,0,0544_ske_dnn_0_dog_00_dog-4709-sketch-4.png,dog-4709-sketch-4.png,0.0,-0.2358117,2.346327,-1.8258479
alexnet_w1_mlp_simclrhn_probe3,1,545,NaN,cat,dog,0,0545_ske_dnn_0_dog_00_dog-4909-sketch-37.png,dog-4909-sketch-37.png,0.0,0.11998362,0.77903485,-0.4660196
alexnet_w1_mlp_simclrhn_probe3,1,546,NaN,cat,dog,0,0546_ske_dnn_0_dog_00_dog-5028-sketch-8.png,dog-5028-sketch-8.png,0.0,0.48524824,1.346783,-0.60919714
alexnet_w1_mlp_simclrhn_probe3,1,547,NaN,bird,dog,0,0547_ske_dnn_0_dog_00_dog-5084-sketch-11.png,dog-5084-sketch-11.png,0.0,-0.0071808943,0.5745995,-0.41138086
alexnet_w1_mlp_simclrhn_probe3,1,548,NaN,clock,dog,0,0548_ske_dnn_0_dog_00_dog-5223-sketch-45.png,dog-5223-sketch-45.png,0.0,0.51328266,1.3066484,-0.56099427
alexnet_w1_mlp_simclrhn_probe3,1,549,NaN,dog,dog,0,0549_ske_dnn_0_dog_00_dog-5325-sketch-45.png,dog-5325-sketch-45.png,1.0,0.88670397,0.8168156,0.049418528
alexnet_w1_mlp_simclrhn_probe3,1,550,NaN,dog,dog,0,0550_ske_dnn_0_dog_00_dog-5354-sketch-25.png,dog-5354-sketch-25.png,1.0,0.5770278,0.37290812,0.14433442
alexnet_w1_mlp_simclrhn_probe3,1,551,NaN,elephant,elephant,0,0551_ske_dnn_0_elephant_00_elephant-0001-sketch-0.png,elephant-0001-sketch-0.png,1.0,1.4295208,0.9847824,0.31447756
alexnet_w1_mlp_simclrhn_probe3,1,552,NaN,elephant,elephant,0,0552_ske_dnn_0_elephant_00_elephant-0002-sketch-1.png,elephant-0002-sketch-1.png,1.0,3.1580691,2.381357,0.5492185
alexnet_w1_mlp_simclrhn_probe3,1,553,NaN,clock,elephant,0,0553_ske_dnn_0_elephant_00_elephant-0006-sketch-13.png,elephant-0006-sketch-13.png,0.0,-0.49423873,1.0727047,-1.1079963
alexnet_w1_mlp_simclrhn_probe3,1,554,NaN,clock,elephant,0,0554_ske_dnn_0_elephant_00_elephant-0011-sketch-18.png,elephant-0011-sketch-18.png,0.0,-0.83242196,1.6392547,-1.7477393
alexnet_w1_mlp_simclrhn_probe3,1,555,NaN,clock,elephant,0,0555_ske_dnn_0_elephant_00_elephant-0012-sketch-19.png,elephant-0012-sketch-19.png,0.0,-0.55274224,1.4415666,-1.4101893
alexnet_w1_mlp_simclrhn_probe3,1,556,NaN,chair,elephant,0,0556_ske_dnn_0_elephant_00_elephant-0013-sketch-2.png,elephant-0013-sketch-2.png,0.0,-0.016719885,1.2523336,-0.8973564
alexnet_w1_mlp_simclrhn_probe3,1,557,NaN,elephant,elephant,0,0557_ske_dnn_0_elephant_00_elephant-0014-sketch-20.png,elephant-0014-sketch-20.png,1.0,0.9481546,0.94739276,0.00053872104
alexnet_w1_mlp_simclrhn_probe3,1,558,NaN,cat,elephant,0,0558_ske_dnn_0_elephant_00_elephant-0015-sketch-21.png,elephant-0015-sketch-21.png,0.0,0.46518394,0.903536,-0.30996174
alexnet_w1_mlp_simclrhn_probe3,1,559,NaN,clock,elephant,0,0559_ske_dnn_0_elephant_00_elephant-0016-sketch-22.png,elephant-0016-sketch-22.png,0.0,-0.8770373,2.3702674,-2.2961912
alexnet_w1_mlp_simclrhn_probe3,1,560,NaN,elephant,elephant,0,0560_ske_dnn_0_elephant_00_elephant-0019-sketch-25.png,elephant-0019-sketch-25.png,1.0,3.7076788,1.2000456,1.7731645
alexnet_w1_mlp_simclrhn_probe3,1,561,NaN,clock,elephant,0,0561_ske_dnn_0_elephant_00_elephant-0020-sketch-26.png,elephant-0020-sketch-26.png,0.0,-0.6909027,1.5347481,-1.5737728
alexnet_w1_mlp_simclrhn_probe3,1,562,NaN,clock,elephant,0,0562_ske_dnn_0_elephant_00_elephant-0021-sketch-27.png,elephant-0021-sketch-27.png,0.0,-0.5967103,0.850323,-1.0232072
alexnet_w1_mlp_simclrhn_probe3,1,563,NaN,clock,elephant,0,0563_ske_dnn_0_elephant_00_elephant-0022-sketch-28.png,elephant-0022-sketch-28.png,0.0,-1.0276122,3.1622622,-2.962689
alexnet_w1_mlp_simclrhn_probe3,1,564,NaN,elephant,elephant,0,0564_ske_dnn_0_elephant_00_elephant-0025-sketch-30.png,elephant-0025-sketch-30.png,1.0,1.6388327,1.1699896,0.33152214
alexnet_w1_mlp_simclrhn_probe3,1,565,NaN,elephant,elephant,0,0565_ske_dnn_0_elephant_00_elephant-0028-sketch-33.png,elephant-0028-sketch-33.png,1.0,3.9174755,2.3867013,1.0824208
alexnet_w1_mlp_simclrhn_probe3,1,566,NaN,chair,elephant,0,0566_ske_dnn_0_elephant_00_elephant-0029-sketch-34.png,elephant-0029-sketch-34.png,0.0,-0.15076363,0.9915912,-0.80776685
alexnet_w1_mlp_simclrhn_probe3,1,567,NaN,clock,elephant,0,0567_ske_dnn_0_elephant_00_elephant-0030-sketch-35.png,elephant-0030-sketch-35.png,0.0,-1.2149183,2.9388,-2.9371226
alexnet_w1_mlp_simclrhn_probe3,1,568,NaN,knife,elephant,0,0568_ske_dnn_0_elephant_00_elephant-0032-sketch-37.png,elephant-0032-sketch-37.png,0.0,0.14925878,0.60352176,-0.32121244
alexnet_w1_mlp_simclrhn_probe3,1,569,NaN,clock,elephant,0,0569_ske_dnn_0_elephant_00_elephant-0033-sketch-38.png,elephant-0033-sketch-38.png,0.0,-0.85952145,1.3351355,-1.5518568
alexnet_w1_mlp_simclrhn_probe3,1,570,NaN,elephant,elephant,0,0570_ske_dnn_0_elephant_00_elephant-0037-sketch-41.png,elephant-0037-sketch-41.png,1.0,0.708243,0.26809144,0.31123418
alexnet_w1_mlp_simclrhn_probe3,1,571,NaN,elephant,elephant,0,0571_ske_dnn_0_elephant_00_elephant-0039-sketch-43.png,elephant-0039-sketch-43.png,1.0,1.8945103,0.5710378,0.9358364
alexnet_w1_mlp_simclrhn_probe3,1,572,NaN,cat,elephant,0,0572_ske_dnn_0_elephant_00_elephant-0040-sketch-44.png,elephant-0040-sketch-44.png,0.0,1.0817156,2.0152662,-0.66011995
alexnet_w1_mlp_simclrhn_probe3,1,573,NaN,cat,elephant,0,0573_ske_dnn_0_elephant_00_elephant-0043-sketch-47.png,elephant-0043-sketch-47.png,0.0,0.79780746,1.040938,-0.17191927
alexnet_w1_mlp_simclrhn_probe3,1,574,NaN,cat,elephant,0,0574_ske_dnn_0_elephant_00_elephant-0044-sketch-48.png,elephant-0044-sketch-48.png,0.0,0.72254634,1.7703042,-0.7408767
alexnet_w1_mlp_simclrhn_probe3,1,575,NaN,knife,elephant,0,0575_ske_dnn_0_elephant_00_elephant-0046-sketch-5.png,elephant-0046-sketch-5.png,0.0,-0.082548186,0.6007303,-0.48315087
alexnet_w1_mlp_simclrhn_probe3,1,576,NaN,clock,elephant,0,0576_ske_dnn_0_elephant_00_elephant-0047-sketch-50.png,elephant-0047-sketch-50.png,0.0,-0.77528024,1.6117522,-1.687887
alexnet_w1_mlp_simclrhn_probe3,1,577,NaN,clock,elephant,0,0577_ske_dnn_0_elephant_00_elephant-0048-sketch-6.png,elephant-0048-sketch-6.png,0.0,-0.9119637,1.5241953,-1.7226247
alexnet_w1_mlp_simclrhn_probe3,1,578,NaN,elephant,elephant,0,0578_ske_dnn_0_elephant_00_elephant-0050-sketch-8.png,elephant-0050-sketch-8.png,1.0,1.8165228,1.493076,0.22871149
alexnet_w1_mlp_simclrhn_probe3,1,579,NaN,elephant,elephant,0,0579_ske_dnn_0_elephant_00_elephant-0052-sketch-0.png,elephant-0052-sketch-0.png,1.0,2.7130551,1.0448726,1.1795832
alexnet_w1_mlp_simclrhn_probe3,1,580,NaN,clock,elephant,0,0580_ske_dnn_0_elephant_00_elephant-0054-sketch-10.png,elephant-0054-sketch-10.png,0.0,0.2870551,0.6518623,-0.25795767
alexnet_w1_mlp_simclrhn_probe3,1,581,NaN,cat,elephant,0,0581_ske_dnn_0_elephant_00_elephant-0055-sketch-11.png,elephant-0055-sketch-11.png,0.0,-0.61377394,0.4288033,-0.7372135
alexnet_w1_mlp_simclrhn_probe3,1,582,NaN,oven,elephant,0,0582_ske_dnn_0_elephant_00_elephant-0057-sketch-13.png,elephant-0057-sketch-13.png,0.0,0.13295403,0.5515848,-0.29601663
alexnet_w1_mlp_simclrhn_probe3,1,583,NaN,elephant,elephant,0,0583_ske_dnn_0_elephant_00_elephant-0058-sketch-14.png,elephant-0058-sketch-14.png,1.0,10.125931,2.5937119,5.326083
alexnet_w1_mlp_simclrhn_probe3,1,584,NaN,elephant,elephant,0,0584_ske_dnn_0_elephant_00_elephant-0061-sketch-17.png,elephant-0061-sketch-17.png,1.0,15.661852,3.8290982,8.367021
alexnet_w1_mlp_simclrhn_probe3,1,585,NaN,chair,elephant,0,0585_ske_dnn_0_elephant_00_elephant-0062-sketch-18.png,elephant-0062-sketch-18.png,0.0,-0.3921702,0.6983964,-0.7711471
alexnet_w1_mlp_simclrhn_probe3,1,586,NaN,bicycle,elephant,0,0586_ske_dnn_0_elephant_00_elephant-0065-sketch-20.png,elephant-0065-sketch-20.png,0.0,-0.49091366,1.2917258,-1.2605164
alexnet_w1_mlp_simclrhn_probe3,1,587,NaN,elephant,elephant,0,0587_ske_dnn_0_elephant_00_elephant-0066-sketch-21.png,elephant-0066-sketch-21.png,1.0,9.206707,2.1753697,4.971906
alexnet_w1_mlp_simclrhn_probe3,1,588,NaN,elephant,elephant,0,0588_ske_dnn_0_elephant_00_elephant-0071-sketch-26.png,elephant-0071-sketch-26.png,1.0,10.167447,1.8364515,5.8909035
alexnet_w1_mlp_simclrhn_probe3,1,589,NaN,bicycle,elephant,0,0589_ske_dnn_0_elephant_00_elephant-0075-sketch-3.png,elephant-0075-sketch-3.png,0.0,-0.6781682,1.2617038,-1.3716967
alexnet_w1_mlp_simclrhn_probe3,1,590,NaN,clock,elephant,0,0590_ske_dnn_0_elephant_00_elephant-0076-sketch-30.png,elephant-0076-sketch-30.png,0.0,-0.7549628,1.9128419,-1.8864229
alexnet_w1_mlp_simclrhn_probe3,1,591,NaN,cat,elephant,0,0591_ske_dnn_0_elephant_00_elephant-0077-sketch-31.png,elephant-0077-sketch-31.png,0.0,1.1101604,1.3024778,-0.135989
alexnet_w1_mlp_simclrhn_probe3,1,592,NaN,elephant,elephant,0,0592_ske_dnn_0_elephant_00_elephant-0079-sketch-33.png,elephant-0079-sketch-33.png,1.0,2.9953442,1.240953,1.2405419
alexnet_w1_mlp_simclrhn_probe3,1,593,NaN,clock,elephant,0,0593_ske_dnn_0_elephant_00_elephant-0080-sketch-34.png,elephant-0080-sketch-34.png,0.0,-0.5095788,0.52342373,-0.7304432
alexnet_w1_mlp_simclrhn_probe3,1,594,NaN,elephant,elephant,0,0594_ske_dnn_0_elephant_00_elephant-0082-sketch-36.png,elephant-0082-sketch-36.png,1.0,1.0971739,0.9315734,0.117097266
alexnet_w1_mlp_simclrhn_probe3,1,595,NaN,elephant,elephant,0,0595_ske_dnn_0_elephant_00_elephant-0086-sketch-4.png,elephant-0086-sketch-4.png,1.0,1.4722712,1.2868726,0.1310966
alexnet_w1_mlp_simclrhn_probe3,1,596,NaN,elephant,elephant,0,0596_ske_dnn_0_elephant_00_elephant-0090-sketch-43.png,elephant-0090-sketch-43.png,1.0,8.044363,2.4955304,3.9236174
alexnet_w1_mlp_simclrhn_probe3,1,597,NaN,cat,elephant,0,0597_ske_dnn_0_elephant_00_elephant-0094-sketch-47.png,elephant-0094-sketch-47.png,0.0,0.382164,0.54799074,-0.117257215
alexnet_w1_mlp_simclrhn_probe3,1,598,NaN,clock,elephant,0,0598_ske_dnn_0_elephant_00_elephant-0098-sketch-50.png,elephant-0098-sketch-50.png,0.0,-0.5364615,3.9245312,-3.1543984
alexnet_w1_mlp_simclrhn_probe3,1,599,NaN,elephant,elephant,0,0599_ske_dnn_0_elephant_00_elephant-0100-sketch-7.png,elephant-0100-sketch-7.png,1.0,5.7193108,1.9544188,2.6621807
alexnet_w1_mlp_simclrhn_probe3,1,600,NaN,clock,elephant,0,0600_ske_dnn_0_elephant_00_elephant-0101-sketch-8.png,elephant-0101-sketch-8.png,0.0,-0.5087134,3.9665902,-3.1645176
alexnet_w1_mlp_simclrhn_probe3,1,601,NaN,keyboard,keyboard,0,0601_ske_dnn_0_keyboard_00_keyboard-0002-sketch-1.png,keyboard-0002-sketch-1.png,1.0,3.325108,1.3619413,1.3881686
alexnet_w1_mlp_simclrhn_probe3,1,602,NaN,keyboard,keyboard,0,0602_ske_dnn_0_keyboard_00_keyboard-0003-sketch-10.png,keyboard-0003-sketch-10.png,1.0,6.228761,2.7465935,2.4622645
alexnet_w1_mlp_simclrhn_probe3,1,603,NaN,keyboard,keyboard,0,0603_ske_dnn_0_keyboard_00_keyboard-0004-sketch-11.png,keyboard-0004-sketch-11.png,1.0,11.76511,1.1211212,7.526437
alexnet_w1_mlp_simclrhn_probe3,1,604,NaN,keyboard,keyboard,0,0604_ske_dnn_0_keyboard_00_keyboard-0005-sketch-12.png,keyboard-0005-sketch-12.png,1.0,8.534807,1.1885713,5.1945734
alexnet_w1_mlp_simclrhn_probe3,1,605,NaN,keyboard,keyboard,0,0605_ske_dnn_0_keyboard_00_keyboard-0006-sketch-13.png,keyboard-0006-sketch-13.png,1.0,2.8765063,1.2060552,1.1811874
alexnet_w1_mlp_simclrhn_probe3,1,606,NaN,keyboard,keyboard,0,0606_ske_dnn_0_keyboard_00_keyboard-0007-sketch-14.png,keyboard-0007-sketch-14.png,1.0,5.9323134,0.9698641,3.5089817
