subj,session,trial,rt,object_response,category,condition,imagename,filename,is_correct,targ_act,max_nontarg_act,decision_margin
vit_b_16,1,1,NaN,airplane,airplane,0,0001_ske_dnn_0_airplane_00_airplane-0001-sketch-0.png,airplane-0001-sketch-0.png,1.0,7.4130955,0.6444494,4.7861557
vit_b_16,1,2,NaN,airplane,airplane,0,0002_ske_dnn_0_airplane_00_airplane-0002-sketch-1.png,airplane-0002-sketch-1.png,1.0,3.6376252,1.3563839,1.6130813
vit_b_16,1,3,NaN,knife,airplane,0,0003_ske_dnn_0_airplane_00_airplane-0003-sketch-10.png,airplane-0003-sketch-10.png,0.0,1.3281564,2.3318014,-0.70968425
vit_b_16,1,4,NaN,knife,airplane,0,0004_ske_dnn_0_airplane_00_airplane-0004-sketch-11.png,airplane-0004-sketch-11.png,0.0,-0.55043525,1.3808287,-1.3656099
vit_b_16,1,5,NaN,airplane,airplane,0,0005_ske_dnn_0_airplane_00_airplane-0005-sketch-12.png,airplane-0005-sketch-12.png,1.0,6.330702,0.4798224,4.1371965
vit_b_16,1,6,NaN,airplane,airplane,0,0006_ske_dnn_0_airplane_00_airplane-0006-sketch-13.png,airplane-0006-sketch-13.png,1.0,6.6816187,0.7494574,4.1946716
vit_b_16,1,7,NaN,knife,airplane,0,0007_ske_dnn_0_airplane_00_airplane-0007-sketch-14.png,airplane-0007-sketch-14.png,0.0,0.46120572,2.9369159,-1.7505915
vit_b_16,1,8,NaN,knife,airplane,0,0008_ske_dnn_0_airplane_00_airplane-0008-sketch-15.png,airplane-0008-sketch-15.png,0.0,-0.10855043,2.1520607,-1.5984935
vit_b_16,1,9,NaN,airplane,airplane,0,0009_ske_dnn_0_airplane_00_airplane-0009-sketch-16.png,airplane-0009-sketch-16.png,1.0,2.2164822,0.81316406,0.9922958
vit_b_16,1,10,NaN,airplane,airplane,0,0010_ske_dnn_0_airplane_00_airplane-0010-sketch-17.png,airplane-0010-sketch-17.png,1.0,2.0419729,1.7024535,0.24007647
vit_b_16,1,11,NaN,knife,airplane,0,0011_ske_dnn_0_airplane_00_airplane-0011-sketch-18.png,airplane-0011-sketch-18.png,0.0,0.644616,2.905076,-1.5983865
vit_b_16,1,12,NaN,knife,airplane,0,0012_ske_dnn_0_airplane_00_airplane-0012-sketch-19.png,airplane-0012-sketch-19.png,0.0,-0.05340384,0.96312237,-0.7187926
vit_b_16,1,13,NaN,airplane,airplane,0,0013_ske_dnn_0_airplane_00_airplane-0013-sketch-2.png,airplane-0013-sketch-2.png,1.0,8.058362,0.56518656,5.2984753
vit_b_16,1,14,NaN,airplane,airplane,0,0014_ske_dnn_0_airplane_00_airplane-0014-sketch-20.png,airplane-0014-sketch-20.png,1.0,2.1312668,2.1194322,0.008368341
vit_b_16,1,15,NaN,airplane,airplane,0,0015_ske_dnn_0_airplane_00_airplane-0015-sketch-21.png,airplane-0015-sketch-21.png,1.0,2.3091307,1.987251,0.22760327
vit_b_16,1,16,NaN,airplane,airplane,0,0016_ske_dnn_0_airplane_00_airplane-0016-sketch-22.png,airplane-0016-sketch-22.png,1.0,8.801552,0.39451048,5.9446764
vit_b_16,1,17,NaN,knife,airplane,0,0017_ske_dnn_0_airplane_00_airplane-0017-sketch-23.png,airplane-0017-sketch-23.png,0.0,0.42980283,1.8408848,-0.9977857
vit_b_16,1,18,NaN,airplane,airplane,0,0018_ske_dnn_0_airplane_00_airplane-0018-sketch-24.png,airplane-0018-sketch-24.png,1.0,3.1900437,2.3964615,0.5611474
vit_b_16,1,19,NaN,knife,airplane,0,0019_ske_dnn_0_airplane_00_airplane-0019-sketch-25.png,airplane-0019-sketch-25.png,0.0,-0.27467608,2.3848808,-1.8805907
vit_b_16,1,20,NaN,knife,airplane,0,0020_ske_dnn_0_airplane_00_airplane-0020-sketch-26.png,airplane-0020-sketch-26.png,0.0,0.57893217,1.7966429,-0.86105156
vit_b_16,1,21,NaN,knife,airplane,0,0021_ske_dnn_0_airplane_00_airplane-0021-sketch-27.png,airplane-0021-sketch-27.png,0.0,0.69724405,2.3761516,-1.1871669
vit_b_16,1,22,NaN,airplane,airplane,0,0022_ske_dnn_0_airplane_00_airplane-0022-sketch-28.png,airplane-0022-sketch-28.png,1.0,3.2264047,1.1682292,1.4553499
vit_b_16,1,23,NaN,knife,airplane,0,0023_ske_dnn_0_airplane_00_airplane-0023-sketch-29.png,airplane-0023-sketch-29.png,0.0,0.454817,3.0907342,-1.8638749
vit_b_16,1,24,NaN,clock,airplane,0,0024_ske_dnn_0_airplane_00_airplane-0024-sketch-3.png,airplane-0024-sketch-3.png,0.0,1.1206058,4.6758404,-2.5139303
vit_b_16,1,25,NaN,airplane,airplane,0,0025_ske_dnn_0_airplane_00_airplane-0025-sketch-30.png,airplane-0025-sketch-30.png,1.0,2.803721,1.4577277,0.951761
vit_b_16,1,26,NaN,knife,airplane,0,0026_ske_dnn_0_airplane_00_airplane-0027-sketch-32.png,airplane-0027-sketch-32.png,0.0,0.1909146,2.745078,-1.8060663
vit_b_16,1,27,NaN,clock,airplane,0,0027_ske_dnn_0_airplane_00_airplane-0028-sketch-33.png,airplane-0028-sketch-33.png,0.0,0.88638914,1.8556118,-0.6853439
vit_b_16,1,28,NaN,knife,airplane,0,0028_ske_dnn_0_airplane_00_airplane-0029-sketch-34.png,airplane-0029-sketch-34.png,0.0,0.59047925,1.9185096,-0.93905926
vit_b_16,1,29,NaN,knife,airplane,0,0029_ske_dnn_0_airplane_00_airplane-0030-sketch-35.png,airplane-0030-sketch-35.png,0.0,1.485486,1.8248479,-0.23996511
vit_b_16,1,30,NaN,airplane,airplane,0,0030_ske_dnn_0_airplane_00_airplane-0031-sketch-36.png,airplane-0031-sketch-36.png,1.0,6.0925055,2.4095302,2.6042569
vit_b_16,1,31,NaN,knife,airplane,0,0031_ske_dnn_0_airplane_00_airplane-0032-sketch-37.png,airplane-0032-sketch-37.png,0.0,0.2685563,1.8990895,-1.1529611
vit_b_16,1,32,NaN,knife,airplane,0,0032_ske_dnn_0_airplane_00_airplane-0033-sketch-38.png,airplane-0033-sketch-38.png,0.0,0.5097096,2.525804,-1.4255941
vit_b_16,1,33,NaN,clock,airplane,0,0033_ske_dnn_0_airplane_00_airplane-0034-sketch-39.png,airplane-0034-sketch-39.png,0.0,0.025040805,2.2798808,-1.5944126
vit_b_16,1,34,NaN,airplane,airplane,0,0034_ske_dnn_0_airplane_00_airplane-0035-sketch-4.png,airplane-0035-sketch-4.png,1.0,4.5821924,1.2083883,2.38564
vit_b_16,1,35,NaN,airplane,airplane,0,0035_ske_dnn_0_airplane_00_airplane-0036-sketch-40.png,airplane-0036-sketch-40.png,1.0,8.897177,0.4070569,6.0034213
vit_b_16,1,36,NaN,airplane,airplane,0,0036_ske_dnn_0_airplane_00_airplane-0037-sketch-41.png,airplane-0037-sketch-41.png,1.0,4.3433533,1.6255918,1.9217477
vit_b_16,1,37,NaN,knife,airplane,0,0037_ske_dnn_0_airplane_00_airplane-0038-sketch-42.png,airplane-0038-sketch-42.png,0.0,-0.44505835,5.1010895,-3.9217188
vit_b_16,1,38,NaN,airplane,airplane,0,0038_ske_dnn_0_airplane_00_airplane-0039-sketch-43.png,airplane-0039-sketch-43.png,1.0,3.1363883,2.3677232,0.5435283
vit_b_16,1,39,NaN,knife,airplane,0,0039_ske_dnn_0_airplane_00_airplane-0040-sketch-44.png,airplane-0040-sketch-44.png,0.0,-0.05097297,3.3040657,-2.3723707
vit_b_16,1,40,NaN,knife,airplane,0,0040_ske_dnn_0_airplane_00_airplane-0041-sketch-45.png,airplane-0041-sketch-45.png,0.0,-0.58695143,3.3304782,-2.7700412
vit_b_16,1,41,NaN,chair,airplane,0,0041_ske_dnn_0_airplane_00_airplane-0042-sketch-46.png,airplane-0042-sketch-46.png,0.0,-0.630403,2.2129807,-2.010576
vit_b_16,1,42,NaN,knife,airplane,0,0042_ske_dnn_0_airplane_00_airplane-0043-sketch-47.png,airplane-0043-sketch-47.png,0.0,-0.019785985,1.4748075,-1.0568372
vit_b_16,1,43,NaN,knife,airplane,0,0043_ske_dnn_0_airplane_00_airplane-0044-sketch-48.png,airplane-0044-sketch-48.png,0.0,0.6359589,0.99157524,-0.25145873
vit_b_16,1,44,NaN,airplane,airplane,0,0044_ske_dnn_0_airplane_00_airplane-0045-sketch-49.png,airplane-0045-sketch-49.png,1.0,7.1105714,0.65370786,4.565692
vit_b_16,1,45,NaN,knife,airplane,0,0045_ske_dnn_0_airplane_00_airplane-0046-sketch-5.png,airplane-0046-sketch-5.png,0.0,0.64677763,2.50535,-1.3142092
vit_b_16,1,46,NaN,airplane,airplane,0,0046_ske_dnn_0_airplane_00_airplane-0047-sketch-50.png,airplane-0047-sketch-50.png,1.0,3.1008558,1.1501359,1.3793674
vit_b_16,1,47,NaN,airplane,airplane,0,0047_ske_dnn_0_airplane_00_airplane-0048-sketch-6.png,airplane-0048-sketch-6.png,1.0,3.290979,0.91785747,1.6780503
vit_b_16,1,48,NaN,airplane,airplane,0,0048_ske_dnn_0_airplane_00_airplane-0049-sketch-7.png,airplane-0049-sketch-7.png,1.0,4.354106,2.8731384,1.0472022
vit_b_16,1,49,NaN,chair,airplane,0,0049_ske_dnn_0_airplane_00_airplane-0050-sketch-8.png,airplane-0050-sketch-8.png,0.0,-0.039282456,1.367709,-0.99489325
vit_b_16,1,50,NaN,clock,airplane,0,0050_ske_dnn_0_airplane_00_airplane-0051-sketch-9.png,airplane-0051-sketch-9.png,0.0,-0.16076763,1.5703903,-1.2241136
vit_b_16,1,51,NaN,cat,bear,0,0051_ske_dnn_0_bear_00_bear-0005-sketch-12.png,bear-0005-sketch-12.png,0.0,1.9228898,2.1265838,-0.1440334
vit_b_16,1,52,NaN,bear,bear,0,0052_ske_dnn_0_bear_00_bear-0007-sketch-14.png,bear-0007-sketch-14.png,1.0,2.4225156,0.37320027,1.4490849
vit_b_16,1,53,NaN,bear,bear,0,0053_ske_dnn_0_bear_00_bear-0017-sketch-23.png,bear-0017-sketch-23.png,1.0,5.422512,1.0592898,3.085264
vit_b_16,1,54,NaN,bear,bear,0,0054_ske_dnn_0_bear_00_bear-0022-sketch-28.png,bear-0022-sketch-28.png,1.0,1.3048946,0.65441173,0.45996082
vit_b_16,1,55,NaN,bear,bear,0,0055_ske_dnn_0_bear_00_bear-0023-sketch-29.png,bear-0023-sketch-29.png,1.0,2.3595881,1.7056614,0.46239603
vit_b_16,1,56,NaN,bear,bear,0,0056_ske_dnn_0_bear_00_bear-0026-sketch-31.png,bear-0026-sketch-31.png,1.0,5.5246377,0.7288615,3.3911262
vit_b_16,1,57,NaN,bear,bear,0,0057_ske_dnn_0_bear_00_bear-0027-sketch-32.png,bear-0027-sketch-32.png,1.0,3.8455567,0.7456345,2.191976
vit_b_16,1,58,NaN,bear,bear,0,0058_ske_dnn_0_bear_00_bear-0030-sketch-35.png,bear-0030-sketch-35.png,1.0,5.178522,0.19313017,3.5252047
vit_b_16,1,59,NaN,bear,bear,0,0059_ske_dnn_0_bear_00_bear-0033-sketch-38.png,bear-0033-sketch-38.png,1.0,6.1959953,0.7816129,3.8285465
vit_b_16,1,60,NaN,cat,bear,0,0060_ske_dnn_0_bear_00_bear-0036-sketch-40.png,bear-0036-sketch-40.png,0.0,0.85360175,1.5583063,-0.4983014
vit_b_16,1,61,NaN,cat,bear,0,0061_ske_dnn_0_bear_00_bear-0037-sketch-41.png,bear-0037-sketch-41.png,0.0,2.1637013,2.386417,-0.15748373
vit_b_16,1,62,NaN,bear,bear,0,0062_ske_dnn_0_bear_00_bear-0038-sketch-42.png,bear-0038-sketch-42.png,1.0,6.16326,0.386229,4.0849776
vit_b_16,1,63,NaN,bear,bear,0,0063_ske_dnn_0_bear_00_bear-0039-sketch-43.png,bear-0039-sketch-43.png,1.0,5.678899,0.7413211,3.4913948
vit_b_16,1,64,NaN,bear,bear,0,0064_ske_dnn_0_bear_00_bear-0041-sketch-45.png,bear-0041-sketch-45.png,1.0,4.6350136,0.15312949,3.1691706
vit_b_16,1,65,NaN,bear,bear,0,0065_ske_dnn_0_bear_00_bear-0045-sketch-49.png,bear-0045-sketch-49.png,1.0,4.570198,1.0895278,2.4612055
vit_b_16,1,66,NaN,bear,bear,0,0066_ske_dnn_0_bear_00_bear-0048-sketch-7.png,bear-0048-sketch-7.png,1.0,5.416579,3.0217361,1.6934094
vit_b_16,1,67,NaN,bear,bear,0,0067_ske_dnn_0_bear_00_bear-0049-sketch-8.png,bear-0049-sketch-8.png,1.0,3.3784811,0.6491452,1.929932
vit_b_16,1,68,NaN,bear,bear,0,0068_ske_dnn_0_bear_00_bear-0053-sketch-10.png,bear-0053-sketch-10.png,1.0,5.559722,0.4706678,3.5985048
vit_b_16,1,69,NaN,bear,bear,0,0069_ske_dnn_0_bear_00_bear-0059-sketch-16.png,bear-0059-sketch-16.png,1.0,6.0012965,0.36264753,3.987127
vit_b_16,1,70,NaN,bear,bear,0,0070_ske_dnn_0_bear_00_bear-0068-sketch-24.png,bear-0068-sketch-24.png,1.0,6.176151,1.9968895,2.955184
vit_b_16,1,71,NaN,bear,bear,0,0071_ske_dnn_0_bear_00_bear-0070-sketch-26.png,bear-0070-sketch-26.png,1.0,1.4770424,1.2983983,0.12632051
vit_b_16,1,72,NaN,bear,bear,0,0072_ske_dnn_0_bear_00_bear-0073-sketch-29.png,bear-0073-sketch-29.png,1.0,5.057772,0.40608388,3.2892404
vit_b_16,1,73,NaN,bear,bear,0,0073_ske_dnn_0_bear_00_bear-0079-sketch-34.png,bear-0079-sketch-34.png,1.0,7.465474,0.8633882,4.66838
vit_b_16,1,74,NaN,bear,bear,0,0074_ske_dnn_0_bear_00_bear-0081-sketch-36.png,bear-0081-sketch-36.png,1.0,5.443101,0.2634818,3.662544
vit_b_16,1,75,NaN,bear,bear,0,0075_ske_dnn_0_bear_00_bear-0085-sketch-4.png,bear-0085-sketch-4.png,1.0,5.340438,1.6971422,2.5761993
vit_b_16,1,76,NaN,bear,bear,0,0076_ske_dnn_0_bear_00_bear-0086-sketch-40.png,bear-0086-sketch-40.png,1.0,6.1470947,2.0235016,2.9158208
vit_b_16,1,77,NaN,knife,bear,0,0077_ske_dnn_0_bear_00_bear-0087-sketch-41.png,bear-0087-sketch-41.png,0.0,-0.1608007,0.5957824,-0.53498507
vit_b_16,1,78,NaN,knife,bear,0,0078_ske_dnn_0_bear_00_bear-0090-sketch-44.png,bear-0090-sketch-44.png,0.0,-0.5144668,2.4752727,-2.1140652
vit_b_16,1,79,NaN,knife,bear,0,0079_ske_dnn_0_bear_00_bear-0103-sketch-1.png,bear-0103-sketch-1.png,0.0,0.74865365,2.2762237,-1.0801551
vit_b_16,1,80,NaN,chair,bear,0,0080_ske_dnn_0_bear_00_bear-0107-sketch-13.png,bear-0107-sketch-13.png,0.0,0.57038206,1.6723418,-0.7792032
vit_b_16,1,81,NaN,bear,bear,0,0081_ske_dnn_0_bear_00_bear-0110-sketch-16.png,bear-0110-sketch-16.png,1.0,2.542606,0.95443743,1.1230048
vit_b_16,1,82,NaN,bear,bear,0,0082_ske_dnn_0_bear_00_bear-0112-sketch-18.png,bear-0112-sketch-18.png,1.0,1.2158018,0.4190298,0.5634029
vit_b_16,1,83,NaN,knife,bear,0,0083_ske_dnn_0_bear_00_bear-0117-sketch-22.png,bear-0117-sketch-22.png,0.0,-0.4979666,3.0202448,-2.4877512
vit_b_16,1,84,NaN,bear,bear,0,0084_ske_dnn_0_bear_00_bear-0123-sketch-28.png,bear-0123-sketch-28.png,1.0,2.455562,1.4565538,0.7064056
vit_b_16,1,85,NaN,clock,bear,0,0085_ske_dnn_0_bear_00_bear-0135-sketch-39.png,bear-0135-sketch-39.png,0.0,-0.8130622,1.7132702,-1.7863867
vit_b_16,1,86,NaN,bear,bear,0,0086_ske_dnn_0_bear_00_bear-0136-sketch-4.png,bear-0136-sketch-4.png,1.0,1.8575137,1.5488822,0.21823537
vit_b_16,1,87,NaN,knife,bear,0,0087_ske_dnn_0_bear_00_bear-0137-sketch-40.png,bear-0137-sketch-40.png,0.0,-0.4863692,0.9238952,-0.9972075
vit_b_16,1,88,NaN,bear,bear,0,0088_ske_dnn_0_bear_00_bear-0148-sketch-50.png,bear-0148-sketch-50.png,1.0,2.8994,0.17295735,1.927886
vit_b_16,1,89,NaN,knife,bear,0,0089_ske_dnn_0_bear_00_bear-0149-sketch-6.png,bear-0149-sketch-6.png,0.0,0.07503554,1.9857537,-1.3510817
vit_b_16,1,90,NaN,bear,bear,0,0090_ske_dnn_0_bear_00_bear-0161-sketch-16.png,bear-0161-sketch-16.png,1.0,4.9659843,1.3296324,2.5712893
vit_b_16,1,91,NaN,knife,bear,0,0091_ske_dnn_0_bear_00_bear-0166-sketch-20.png,bear-0166-sketch-20.png,0.0,0.0015865043,1.5863408,-1.1205904
vit_b_16,1,92,NaN,dog,bear,0,0092_ske_dnn_0_bear_00_bear-0170-sketch-24.png,bear-0170-sketch-24.png,0.0,0.035402462,0.80860454,-0.5467364
vit_b_16,1,93,NaN,bear,bear,0,0093_ske_dnn_0_bear_00_bear-0171-sketch-25.png,bear-0171-sketch-25.png,1.0,6.2523746,0.3310538,4.1870065
vit_b_16,1,94,NaN,cat,bear,0,0094_ske_dnn_0_bear_00_bear-0179-sketch-32.png,bear-0179-sketch-32.png,0.0,1.2552071,1.8208038,-0.39993727
vit_b_16,1,95,NaN,knife,bear,0,0095_ske_dnn_0_bear_00_bear-0187-sketch-4.png,bear-0187-sketch-4.png,0.0,0.26475358,1.8660085,-1.1322583
vit_b_16,1,96,NaN,bear,bear,0,0096_ske_dnn_0_bear_00_bear-0188-sketch-40.png,bear-0188-sketch-40.png,1.0,4.2426405,0.6555518,2.5364547
vit_b_16,1,97,NaN,bear,bear,0,0097_ske_dnn_0_bear_00_bear-0195-sketch-47.png,bear-0195-sketch-47.png,1.0,4.0757236,0.7268705,2.3679967
vit_b_16,1,98,NaN,bear,bear,0,0098_ske_dnn_0_bear_00_bear-0198-sketch-5.png,bear-0198-sketch-5.png,1.0,3.9769804,0.67928505,2.3318229
vit_b_16,1,99,NaN,bear,bear,0,0099_ske_dnn_0_bear_00_bear-0199-sketch-50.png,bear-0199-sketch-50.png,1.0,1.0720015,0.83081335,0.17054576
vit_b_16,1,100,NaN,clock,bear,0,0100_ske_dnn_0_bear_00_bear-0201-sketch-7.png,bear-0201-sketch-7.png,0.0,-0.6190773,2.2566862,-2.0334718
vit_b_16,1,101,NaN,bicycle,bicycle,0,0101_ske_dnn_0_bicycle_00_bicycle-0002-sketch-1.png,bicycle-0002-sketch-1.png,1.0,4.591175,0.19400024,3.1092722
vit_b_16,1,102,NaN,oven,bicycle,0,0102_ske_dnn_0_bicycle_00_bicycle-0003-sketch-10.png,bicycle-0003-sketch-10.png,0.0,0.37140125,1.7774993,-0.99426156
vit_b_16,1,103,NaN,bicycle,bicycle,0,0103_ske_dnn_0_bicycle_00_bicycle-0004-sketch-11.png,bicycle-0004-sketch-11.png,1.0,5.3375535,0.6371618,3.323679
vit_b_16,1,104,NaN,bicycle,bicycle,0,0104_ske_dnn_0_bicycle_00_bicycle-0008-sketch-15.png,bicycle-0008-sketch-15.png,1.0,4.636312,1.9670134,1.8874792
vit_b_16,1,105,NaN,bicycle,bicycle,0,0105_ske_dnn_0_bicycle_00_bicycle-0011-sketch-18.png,bicycle-0011-sketch-18.png,1.0,6.16756,1.3443962,3.410492
vit_b_16,1,106,NaN,bicycle,bicycle,0,0106_ske_dnn_0_bicycle_00_bicycle-0013-sketch-2.png,bicycle-0013-sketch-2.png,1.0,2.966319,1.1040977,1.3167894
vit_b_16,1,107,NaN,oven,bicycle,0,0107_ske_dnn_0_bicycle_00_bicycle-0016-sketch-22.png,bicycle-0016-sketch-22.png,0.0,0.77534455,1.3286965,-0.39127892
vit_b_16,1,108,NaN,bicycle,bicycle,0,0108_ske_dnn_0_bicycle_00_bicycle-0019-sketch-25.png,bicycle-0019-sketch-25.png,1.0,4.3067703,1.2420075,2.1671147
vit_b_16,1,109,NaN,bicycle,bicycle,0,0109_ske_dnn_0_bicycle_00_bicycle-0020-sketch-26.png,bicycle-0020-sketch-26.png,1.0,4.2132645,1.6885659,1.7852316
vit_b_16,1,110,NaN,bicycle,bicycle,0,0110_ske_dnn_0_bicycle_00_bicycle-0022-sketch-28.png,bicycle-0022-sketch-28.png,1.0,6.7592773,0.938518,4.1158986
vit_b_16,1,111,NaN,bicycle,bicycle,0,0111_ske_dnn_0_bicycle_00_bicycle-0023-sketch-29.png,bicycle-0023-sketch-29.png,1.0,4.347816,1.3730158,2.1035013
vit_b_16,1,112,NaN,bicycle,bicycle,0,0112_ske_dnn_0_bicycle_00_bicycle-0025-sketch-30.png,bicycle-0025-sketch-30.png,1.0,3.8322763,2.583578,0.882963
vit_b_16,1,113,NaN,bicycle,bicycle,0,0113_ske_dnn_0_bicycle_00_bicycle-0026-sketch-31.png,bicycle-0026-sketch-31.png,1.0,7.806567,0.70240676,5.0234
vit_b_16,1,114,NaN,bicycle,bicycle,0,0114_ske_dnn_0_bicycle_00_bicycle-0031-sketch-36.png,bicycle-0031-sketch-36.png,1.0,4.342063,0.54304296,2.686313
vit_b_16,1,115,NaN,knife,bicycle,0,0115_ske_dnn_0_bicycle_00_bicycle-0034-sketch-39.png,bicycle-0034-sketch-39.png,0.0,0.036172237,1.1764051,-0.80626637
vit_b_16,1,116,NaN,bicycle,bicycle,0,0116_ske_dnn_0_bicycle_00_bicycle-0037-sketch-41.png,bicycle-0037-sketch-41.png,1.0,4.367318,1.3443239,2.1375797
vit_b_16,1,117,NaN,bicycle,bicycle,0,0117_ske_dnn_0_bicycle_00_bicycle-0038-sketch-42.png,bicycle-0038-sketch-42.png,1.0,3.7606301,2.7935822,0.6838062
vit_b_16,1,118,NaN,bicycle,bicycle,0,0118_ske_dnn_0_bicycle_00_bicycle-0039-sketch-43.png,bicycle-0039-sketch-43.png,1.0,7.6028743,1.2725173,4.4762387
vit_b_16,1,119,NaN,bicycle,bicycle,0,0119_ske_dnn_0_bicycle_00_bicycle-0040-sketch-44.png,bicycle-0040-sketch-44.png,1.0,5.86314,0.8775259,3.5253618
vit_b_16,1,120,NaN,bicycle,bicycle,0,0120_ske_dnn_0_bicycle_00_bicycle-0044-sketch-48.png,bicycle-0044-sketch-48.png,1.0,7.5360003,1.2782301,4.4249115
vit_b_16,1,121,NaN,bicycle,bicycle,0,0121_ske_dnn_0_bicycle_00_bicycle-0045-sketch-49.png,bicycle-0045-sketch-49.png,1.0,4.591175,0.19400024,3.1092722
vit_b_16,1,122,NaN,bicycle,bicycle,0,0122_ske_dnn_0_bicycle_00_bicycle-0046-sketch-5.png,bicycle-0046-sketch-5.png,1.0,7.097898,1.0691689,4.262955
vit_b_16,1,123,NaN,bicycle,bicycle,0,0123_ske_dnn_0_bicycle_00_bicycle-0047-sketch-50.png,bicycle-0047-sketch-50.png,1.0,2.966319,1.1040977,1.3167894
vit_b_16,1,124,NaN,bicycle,bicycle,0,0124_ske_dnn_0_bicycle_00_bicycle-0048-sketch-6.png,bicycle-0048-sketch-6.png,1.0,6.235266,1.4208428,3.4043117
vit_b_16,1,125,NaN,bicycle,bicycle,0,0125_ske_dnn_0_bicycle_00_bicycle-0053-sketch-1.png,bicycle-0053-sketch-1.png,1.0,8.385008,0.8156023,5.352378
vit_b_16,1,126,NaN,bicycle,bicycle,0,0126_ske_dnn_0_bicycle_00_bicycle-0054-sketch-10.png,bicycle-0054-sketch-10.png,1.0,8.478618,0.806074,5.4253078
vit_b_16,1,127,NaN,bicycle,bicycle,0,0127_ske_dnn_0_bicycle_00_bicycle-0056-sketch-12.png,bicycle-0056-sketch-12.png,1.0,6.801359,1.0057343,4.0981255
vit_b_16,1,128,NaN,bicycle,bicycle,0,0128_ske_dnn_0_bicycle_00_bicycle-0057-sketch-13.png,bicycle-0057-sketch-13.png,1.0,6.328602,2.1065598,2.9854345
vit_b_16,1,129,NaN,bicycle,bicycle,0,0129_ske_dnn_0_bicycle_00_bicycle-0058-sketch-14.png,bicycle-0058-sketch-14.png,1.0,6.5126514,1.5719286,3.4936187
vit_b_16,1,130,NaN,clock,bicycle,0,0130_ske_dnn_0_bicycle_00_bicycle-0059-sketch-15.png,bicycle-0059-sketch-15.png,0.0,-0.55499554,4.4711776,-3.5540411
vit_b_16,1,131,NaN,knife,bicycle,0,0131_ske_dnn_0_bicycle_00_bicycle-0060-sketch-16.png,bicycle-0060-sketch-16.png,0.0,0.05084087,2.7169676,-1.8852363
vit_b_16,1,132,NaN,bicycle,bicycle,0,0132_ske_dnn_0_bicycle_00_bicycle-0062-sketch-18.png,bicycle-0062-sketch-18.png,1.0,3.4290907,1.6573018,1.252844
vit_b_16,1,133,NaN,bicycle,bicycle,0,0133_ske_dnn_0_bicycle_00_bicycle-0066-sketch-21.png,bicycle-0066-sketch-21.png,1.0,7.2907033,0.647208,4.697661
vit_b_16,1,134,NaN,bicycle,bicycle,0,0134_ske_dnn_0_bicycle_00_bicycle-0068-sketch-23.png,bicycle-0068-sketch-23.png,1.0,5.1742787,0.96528506,2.9762082
vit_b_16,1,135,NaN,bicycle,bicycle,0,0135_ske_dnn_0_bicycle_00_bicycle-0070-sketch-25.png,bicycle-0070-sketch-25.png,1.0,5.396604,2.2378008,2.233611
vit_b_16,1,136,NaN,clock,bicycle,0,0136_ske_dnn_0_bicycle_00_bicycle-0071-sketch-26.png,bicycle-0071-sketch-26.png,0.0,3.0044265,4.397199,-0.984839
vit_b_16,1,137,NaN,bicycle,bicycle,0,0137_ske_dnn_0_bicycle_00_bicycle-0075-sketch-3.png,bicycle-0075-sketch-3.png,1.0,6.470548,0.50336933,4.219433
vit_b_16,1,138,NaN,bicycle,bicycle,0,0138_ske_dnn_0_bicycle_00_bicycle-0078-sketch-32.png,bicycle-0078-sketch-32.png,1.0,6.7913027,1.282456,3.895343
vit_b_16,1,139,NaN,bicycle,bicycle,0,0139_ske_dnn_0_bicycle_00_bicycle-0080-sketch-34.png,bicycle-0080-sketch-34.png,1.0,6.9060783,1.5037131,3.820049
vit_b_16,1,140,NaN,bicycle,bicycle,0,0140_ske_dnn_0_bicycle_00_bicycle-0081-sketch-35.png,bicycle-0081-sketch-35.png,1.0,6.332018,0.43857405,4.1672945
vit_b_16,1,141,NaN,bicycle,bicycle,0,0141_ske_dnn_0_bicycle_00_bicycle-0083-sketch-37.png,bicycle-0083-sketch-37.png,1.0,4.0335293,1.3138207,1.9231243
vit_b_16,1,142,NaN,bicycle,bicycle,0,0142_ske_dnn_0_bicycle_00_bicycle-0084-sketch-38.png,bicycle-0084-sketch-38.png,1.0,4.2307243,1.7744873,1.7368219
vit_b_16,1,143,NaN,bicycle,bicycle,0,0143_ske_dnn_0_bicycle_00_bicycle-0087-sketch-40.png,bicycle-0087-sketch-40.png,1.0,7.015442,0.9981151,4.254893
vit_b_16,1,144,NaN,bicycle,bicycle,0,0144_ske_dnn_0_bicycle_00_bicycle-0090-sketch-43.png,bicycle-0090-sketch-43.png,1.0,7.936597,1.6002048,4.480506
vit_b_16,1,145,NaN,clock,bicycle,0,0145_ske_dnn_0_bicycle_00_bicycle-0094-sketch-47.png,bicycle-0094-sketch-47.png,0.0,-0.5182971,4.808972,-3.7669482
vit_b_16,1,146,NaN,knife,bicycle,0,0146_ske_dnn_0_bicycle_00_bicycle-0095-sketch-48.png,bicycle-0095-sketch-48.png,0.0,0.32985443,2.5467677,-1.5675944
vit_b_16,1,147,NaN,bicycle,bicycle,0,0147_ske_dnn_0_bicycle_00_bicycle-0098-sketch-50.png,bicycle-0098-sketch-50.png,1.0,3.2882934,1.8519708,1.0156335
vit_b_16,1,148,NaN,bicycle,bicycle,0,0148_ske_dnn_0_bicycle_00_bicycle-0099-sketch-6.png,bicycle-0099-sketch-6.png,1.0,3.939361,1.6336837,1.6303601
vit_b_16,1,149,NaN,bicycle,bicycle,0,0149_ske_dnn_0_bicycle_00_bicycle-0101-sketch-8.png,bicycle-0101-sketch-8.png,1.0,6.8234377,1.0260533,4.09937
vit_b_16,1,150,NaN,bicycle,bicycle,0,0150_ske_dnn_0_bicycle_00_bicycle-0102-sketch-9.png,bicycle-0102-sketch-9.png,1.0,1.6482484,0.83070683,0.57808924
vit_b_16,1,151,NaN,knife,bird,0,0151_ske_dnn_0_bird_00_bird-0030-sketch-35.png,bird-0030-sketch-35.png,0.0,-0.5793688,2.1471105,-1.927912
vit_b_16,1,152,NaN,knife,bird,0,0152_ske_dnn_0_bird_00_bird-0047-sketch-50.png,bird-0047-sketch-50.png,0.0,0.5939654,0.76743084,-0.12265859
vit_b_16,1,153,NaN,knife,bird,0,0153_ske_dnn_0_bird_00_bird-0072-sketch-27.png,bird-0072-sketch-27.png,0.0,0.8035467,1.495825,-0.4895147
vit_b_16,1,154,NaN,keyboard,bird,0,0154_ske_dnn_0_bird_00_bird-0228-sketch-3.png,bird-0228-sketch-3.png,0.0,0.42389527,0.5697988,-0.1031694
vit_b_16,1,155,NaN,knife,bird,0,0155_ske_dnn_0_bird_00_bird-0274-sketch-25.png,bird-0274-sketch-25.png,0.0,-0.16780065,2.5045679,-1.88965
vit_b_16,1,156,NaN,knife,bird,0,0156_ske_dnn_0_bird_00_bird-0292-sketch-41.png,bird-0292-sketch-41.png,0.0,0.72626007,1.4499815,-0.5117483
vit_b_16,1,157,NaN,knife,bird,0,0157_ske_dnn_0_bird_00_bird-0316-sketch-17.png,bird-0316-sketch-17.png,0.0,-0.3695597,1.6639482,-1.4379072
vit_b_16,1,158,NaN,bottle,bird,0,0158_ske_dnn_0_bird_00_bird-0325-sketch-25.png,bird-0325-sketch-25.png,0.0,-0.58918977,1.0480255,-1.157686
vit_b_16,1,159,NaN,chair,bird,0,0159_ske_dnn_0_bird_00_bird-0357-sketch-9.png,bird-0357-sketch-9.png,0.0,-0.2550454,1.298288,-1.0983726
vit_b_16,1,160,NaN,bird,bird,0,0160_ske_dnn_0_bird_00_bird-0384-sketch-32.png,bird-0384-sketch-32.png,1.0,2.2264152,0.8493852,0.9737072
vit_b_16,1,161,NaN,keyboard,bird,0,0161_ske_dnn_0_bird_00_bird-0415-sketch-14.png,bird-0415-sketch-14.png,0.0,0.62469274,0.79098487,-0.11758629
vit_b_16,1,162,NaN,cat,bird,0,0162_ske_dnn_0_bird_00_bird-0474-sketch-21.png,bird-0474-sketch-21.png,0.0,-0.055899393,0.50472355,-0.39642027
vit_b_16,1,163,NaN,knife,bird,0,0163_ske_dnn_0_bird_00_bird-0479-sketch-26.png,bird-0479-sketch-26.png,0.0,0.46476173,1.912814,-1.0239276
vit_b_16,1,164,NaN,bicycle,bird,0,0164_ske_dnn_0_bird_00_bird-0491-sketch-37.png,bird-0491-sketch-37.png,0.0,0.7725894,0.9597749,-0.13236016
vit_b_16,1,165,NaN,bird,bird,0,0165_ske_dnn_0_bird_00_bird-0578-sketch-23.png,bird-0578-sketch-23.png,1.0,1.6575004,0.6013072,0.7468413
vit_b_16,1,166,NaN,knife,bird,0,0166_ske_dnn_0_bird_00_bird-0640-sketch-33.png,bird-0640-sketch-33.png,0.0,0.7889626,0.97759354,-0.13338222
vit_b_16,1,167,NaN,knife,bird,0,0167_ske_dnn_0_bird_00_bird-0646-sketch-39.png,bird-0646-sketch-39.png,0.0,-0.37563968,2.577754,-2.0883648
vit_b_16,1,168,NaN,knife,bird,0,0168_ske_dnn_0_bird_00_bird-0685-sketch-28.png,bird-0685-sketch-28.png,0.0,0.100898996,1.5047903,-0.9927011
vit_b_16,1,169,NaN,cat,bird,0,0169_ske_dnn_0_bird_00_bird-0694-sketch-36.png,bird-0694-sketch-36.png,0.0,0.10841475,4.3784394,-3.0193636
vit_b_16,1,170,NaN,knife,bird,0,0170_ske_dnn_0_bird_00_bird-0733-sketch-25.png,bird-0733-sketch-25.png,0.0,0.6447629,0.80203676,-0.11120944
vit_b_16,1,171,NaN,bird,bird,0,0171_ske_dnn_0_bird_00_bird-0748-sketch-39.png,bird-0748-sketch-39.png,1.0,0.5245629,0.1982004,0.23077314
vit_b_16,1,172,NaN,clock,bird,0,0172_ske_dnn_0_bird_00_bird-0749-sketch-4.png,bird-0749-sketch-4.png,0.0,0.02149654,1.73554,-1.2120118
vit_b_16,1,173,NaN,knife,bird,0,0173_ske_dnn_0_bird_00_bird-0809-sketch-48.png,bird-0809-sketch-48.png,0.0,0.87521905,0.88733834,-0.0085696345
vit_b_16,1,174,NaN,cat,bird,0,0174_ske_dnn_0_bird_00_bird-0834-sketch-24.png,bird-0834-sketch-24.png,0.0,0.7179624,1.5652577,-0.59912825
vit_b_16,1,175,NaN,bird,bird,0,0175_ske_dnn_0_bird_00_bird-0880-sketch-2.png,bird-0880-sketch-2.png,1.0,0.55291766,0.3197223,0.16489403
vit_b_16,1,176,NaN,knife,bird,0,0176_ske_dnn_0_bird_00_bird-0939-sketch-27.png,bird-0939-sketch-27.png,0.0,0.2602776,0.91042805,-0.45972577
vit_b_16,1,177,NaN,airplane,bird,0,0177_ske_dnn_0_bird_00_bird-0954-sketch-40.png,bird-0954-sketch-40.png,0.0,0.21351492,0.3455537,-0.09336551
vit_b_16,1,178,NaN,knife,bird,0,0178_ske_dnn_0_bird_00_bird-1033-sketch-20.png,bird-1033-sketch-20.png,0.0,-0.5322725,2.8690882,-2.4051254
vit_b_16,1,179,NaN,knife,bird,0,0179_ske_dnn_0_bird_00_bird-1081-sketch-18.png,bird-1081-sketch-18.png,0.0,0.87678194,1.228109,-0.24842575
vit_b_16,1,180,NaN,knife,bird,0,0180_ske_dnn_0_bird_00_bird-1096-sketch-31.png,bird-1096-sketch-31.png,0.0,-0.38470608,2.2175283,-1.8400576
vit_b_16,1,181,NaN,clock,bird,0,0181_ske_dnn_0_bird_00_bird-1148-sketch-32.png,bird-1148-sketch-32.png,0.0,-0.20661078,0.5226014,-0.5156309
vit_b_16,1,182,NaN,bird,bird,0,0182_ske_dnn_0_bird_00_bird-1201-sketch-34.png,bird-1201-sketch-34.png,1.0,1.1740648,0.6578111,0.36504647
vit_b_16,1,183,NaN,airplane,bird,0,0183_ske_dnn_0_bird_00_bird-1342-sketch-24.png,bird-1342-sketch-24.png,0.0,0.32424626,1.1098835,-0.5555294
vit_b_16,1,184,NaN,bird,bird,0,0184_ske_dnn_0_bird_00_bird-1510-sketch-39.png,bird-1510-sketch-39.png,1.0,0.98093486,0.24827653,0.51806766
vit_b_16,1,185,NaN,knife,bird,0,0185_ske_dnn_0_bird_00_bird-1562-sketch-40.png,bird-1562-sketch-40.png,0.0,-0.71155727,2.7191803,-2.4258978
vit_b_16,1,186,NaN,bird,bird,0,0186_ske_dnn_0_bird_00_bird-1565-sketch-43.png,bird-1565-sketch-43.png,1.0,0.35284996,0.28616259,0.047155097
vit_b_16,1,187,NaN,elephant,bird,0,0187_ske_dnn_0_bird_00_bird-1702-sketch-29.png,bird-1702-sketch-29.png,0.0,-0.17654254,0.65851766,-0.59047675
vit_b_16,1,188,NaN,bird,bird,0,0188_ske_dnn_0_bird_00_bird-1721-sketch-46.png,bird-1721-sketch-46.png,1.0,0.77581155,0.33823368,0.3094143
vit_b_16,1,189,NaN,bottle,bird,0,0189_ske_dnn_0_bird_00_bird-1740-sketch-17.png,bird-1740-sketch-17.png,0.0,-0.11144629,1.6258265,-1.2284373
vit_b_16,1,190,NaN,bird,bird,0,0190_ske_dnn_0_bird_00_bird-1749-sketch-25.png,bird-1749-sketch-25.png,1.0,0.53362274,0.3187348,0.15194872
vit_b_16,1,191,NaN,knife,bird,0,0191_ske_dnn_0_bird_00_bird-1756-sketch-31.png,bird-1756-sketch-31.png,0.0,0.26295424,2.5357256,-1.607092
vit_b_16,1,192,NaN,bird,bird,0,0192_ske_dnn_0_bird_00_bird-1860-sketch-33.png,bird-1860-sketch-33.png,1.0,0.56005,0.3134401,0.17437953
vit_b_16,1,193,NaN,bird,bird,0,0193_ske_dnn_0_bird_00_bird-1937-sketch-10.png,bird-1937-sketch-10.png,1.0,1.3265369,0.20798427,0.79093623
vit_b_16,1,194,NaN,bird,bird,0,0194_ske_dnn_0_bird_00_bird-1948-sketch-20.png,bird-1948-sketch-20.png,1.0,1.0709876,0.43501645,0.4496995
vit_b_16,1,195,NaN,knife,bird,0,0195_ske_dnn_0_bird_00_bird-2010-sketch-30.png,bird-2010-sketch-30.png,0.0,0.22219053,2.5675488,-1.6584187
vit_b_16,1,196,NaN,chair,bird,0,0196_ske_dnn_0_bird_00_bird-2169-sketch-36.png,bird-2169-sketch-36.png,0.0,0.16375718,0.45116833,-0.20323038
vit_b_16,1,197,NaN,bird,bird,0,0197_ske_dnn_0_bird_00_bird-2262-sketch-28.png,bird-2262-sketch-28.png,1.0,0.9593872,0.1683096,0.55937636
vit_b_16,1,198,NaN,airplane,bird,0,0198_ske_dnn_0_bird_00_bird-2312-sketch-27.png,bird-2312-sketch-27.png,0.0,0.103880376,1.4979631,-0.98576534
vit_b_16,1,199,NaN,bicycle,bird,0,0199_ske_dnn_0_bird_00_bird-2313-sketch-28.png,bird-2313-sketch-28.png,0.0,0.31242487,1.0471954,-0.51956123
vit_b_16,1,200,NaN,bird,bird,0,0200_ske_dnn_0_bird_00_bird-2372-sketch-36.png,bird-2372-sketch-36.png,1.0,1.0794684,0.91929966,0.11325638
vit_b_16,1,201,NaN,boat,boat,0,0201_ske_dnn_0_boat_00_boat-0001-sketch-0.png,boat-0001-sketch-0.png,1.0,1.8975441,1.3110162,0.41473788
vit_b_16,1,202,NaN,boat,boat,0,0202_ske_dnn_0_boat_00_boat-0002-sketch-1.png,boat-0002-sketch-1.png,1.0,2.994316,0.8007202,1.5511066
vit_b_16,1,203,NaN,boat,boat,0,0203_ske_dnn_0_boat_00_boat-0010-sketch-17.png,boat-0010-sketch-17.png,1.0,2.2449365,1.3358674,0.6428089
vit_b_16,1,204,NaN,knife,boat,0,0204_ske_dnn_0_boat_00_boat-0016-sketch-22.png,boat-0016-sketch-22.png,0.0,-0.4817559,1.1538754,-1.156566
vit_b_16,1,205,NaN,knife,boat,0,0205_ske_dnn_0_boat_00_boat-0029-sketch-34.png,boat-0029-sketch-34.png,0.0,-0.5132344,3.297731,-2.6947594
vit_b_16,1,206,NaN,knife,boat,0,0206_ske_dnn_0_boat_00_boat-0034-sketch-39.png,boat-0034-sketch-39.png,0.0,0.42767948,3.5394864,-2.2003798
vit_b_16,1,207,NaN,knife,boat,0,0207_ske_dnn_0_boat_00_boat-0036-sketch-40.png,boat-0036-sketch-40.png,0.0,2.236423,2.8364801,-0.42430446
vit_b_16,1,208,NaN,knife,boat,0,0208_ske_dnn_0_boat_00_boat-0051-sketch-9.png,boat-0051-sketch-9.png,0.0,1.5894551,2.8032565,-0.8582872
vit_b_16,1,209,NaN,chair,boat,0,0209_ske_dnn_0_boat_00_boat-0052-sketch-0.png,boat-0052-sketch-0.png,0.0,0.9689108,1.5745832,-0.42827505
vit_b_16,1,210,NaN,boat,boat,0,0210_ske_dnn_0_boat_00_boat-0059-sketch-15.png,boat-0059-sketch-15.png,1.0,2.663199,1.0900903,1.1123558
vit_b_16,1,211,NaN,oven,boat,0,0211_ske_dnn_0_boat_00_boat-0064-sketch-2.png,boat-0064-sketch-2.png,0.0,-0.4210961,1.4683813,-1.3360623
vit_b_16,1,212,NaN,keyboard,boat,0,0212_ske_dnn_0_boat_00_boat-0065-sketch-20.png,boat-0065-sketch-20.png,0.0,0.973773,5.9645615,-3.5290203
vit_b_16,1,213,NaN,chair,boat,0,0213_ske_dnn_0_boat_00_boat-0067-sketch-22.png,boat-0067-sketch-22.png,0.0,1.0558937,1.8578042,-0.5670364
vit_b_16,1,214,NaN,knife,boat,0,0214_ske_dnn_0_boat_00_boat-0068-sketch-23.png,boat-0068-sketch-23.png,0.0,-0.12262104,3.4302688,-2.5122726
vit_b_16,1,215,NaN,boat,boat,0,0215_ske_dnn_0_boat_00_boat-0070-sketch-25.png,boat-0070-sketch-25.png,1.0,2.6799352,1.0892248,1.1248021
vit_b_16,1,216,NaN,bicycle,boat,0,0216_ske_dnn_0_boat_00_boat-0074-sketch-29.png,boat-0074-sketch-29.png,0.0,0.11659676,0.91513896,-0.5646546
vit_b_16,1,217,NaN,airplane,boat,0,0217_ske_dnn_0_boat_00_boat-0079-sketch-33.png,boat-0079-sketch-33.png,0.0,1.0965973,2.0676365,-0.6866284
vit_b_16,1,218,NaN,boat,boat,0,0218_ske_dnn_0_boat_00_boat-0080-sketch-34.png,boat-0080-sketch-34.png,1.0,2.2955403,1.0441124,0.8848932
vit_b_16,1,219,NaN,boat,boat,0,0219_ske_dnn_0_boat_00_boat-0085-sketch-39.png,boat-0085-sketch-39.png,1.0,0.9750239,0.8333709,0.1001638
vit_b_16,1,220,NaN,boat,boat,0,0220_ske_dnn_0_boat_00_boat-0088-sketch-41.png,boat-0088-sketch-41.png,1.0,1.2040873,0.5657449,0.45137623
vit_b_16,1,221,NaN,boat,boat,0,0221_ske_dnn_0_boat_00_boat-0094-sketch-47.png,boat-0094-sketch-47.png,1.0,2.2579618,0.075684614,1.543103
vit_b_16,1,222,NaN,boat,boat,0,0222_ske_dnn_0_boat_00_boat-0099-sketch-6.png,boat-0099-sketch-6.png,1.0,2.0168653,1.0528928,0.68163145
vit_b_16,1,223,NaN,knife,boat,0,0223_ske_dnn_0_boat_00_boat-0107-sketch-12.png,boat-0107-sketch-12.png,0.0,0.44337663,1.1563114,-0.504121
vit_b_16,1,224,NaN,boat,boat,0,0224_ske_dnn_0_boat_00_boat-0108-sketch-13.png,boat-0108-sketch-13.png,1.0,3.6999347,1.6137704,1.475141
vit_b_16,1,225,NaN,knife,boat,0,0225_ske_dnn_0_boat_00_boat-0110-sketch-15.png,boat-0110-sketch-15.png,0.0,0.6151854,3.5641265,-2.0852163
vit_b_16,1,226,NaN,keyboard,boat,0,0226_ske_dnn_0_boat_00_boat-0113-sketch-18.png,boat-0113-sketch-18.png,0.0,-0.03459859,1.4851825,-1.0746475
vit_b_16,1,227,NaN,knife,boat,0,0227_ske_dnn_0_boat_00_boat-0115-sketch-2.png,boat-0115-sketch-2.png,0.0,0.808407,3.1448483,-1.6521136
vit_b_16,1,228,NaN,boat,boat,0,0228_ske_dnn_0_boat_00_boat-0123-sketch-27.png,boat-0123-sketch-27.png,1.0,1.0450149,0.9033815,0.10014989
vit_b_16,1,229,NaN,knife,boat,0,0229_ske_dnn_0_boat_00_boat-0124-sketch-28.png,boat-0124-sketch-28.png,0.0,-0.04056089,3.720169,-2.6592379
vit_b_16,1,230,NaN,knife,boat,0,0230_ske_dnn_0_boat_00_boat-0125-sketch-29.png,boat-0125-sketch-29.png,0.0,-0.4033494,2.6367402,-2.149668
vit_b_16,1,231,NaN,knife,boat,0,0231_ske_dnn_0_boat_00_boat-0126-sketch-3.png,boat-0126-sketch-3.png,0.0,-0.39728683,4.4950776,-3.4594243
vit_b_16,1,232,NaN,clock,boat,0,0232_ske_dnn_0_boat_00_boat-0128-sketch-31.png,boat-0128-sketch-31.png,0.0,-0.874306,2.2104275,-2.181236
vit_b_16,1,233,NaN,knife,boat,0,0233_ske_dnn_0_boat_00_boat-0130-sketch-33.png,boat-0130-sketch-33.png,0.0,-0.09737259,1.2112669,-0.9253479
vit_b_16,1,234,NaN,car,boat,0,0234_ske_dnn_0_boat_00_boat-0132-sketch-35.png,boat-0132-sketch-35.png,0.0,0.3475891,1.7556987,-0.99568385
vit_b_16,1,235,NaN,car,boat,0,0235_ske_dnn_0_boat_00_boat-0146-sketch-48.png,boat-0146-sketch-48.png,0.0,0.49856576,1.2015764,-0.49710354
vit_b_16,1,236,NaN,knife,boat,0,0236_ske_dnn_0_boat_00_boat-0152-sketch-8.png,boat-0152-sketch-8.png,0.0,-0.038589776,2.5458412,-1.8274686
vit_b_16,1,237,NaN,knife,boat,0,0237_ske_dnn_0_boat_00_boat-0165-sketch-19.png,boat-0165-sketch-19.png,0.0,0.29202533,2.6365476,-1.6578276
vit_b_16,1,238,NaN,boat,boat,0,0238_ske_dnn_0_boat_00_boat-0166-sketch-2.png,boat-0166-sketch-2.png,1.0,1.3965323,0.5788132,0.5782147
vit_b_16,1,239,NaN,oven,boat,0,0239_ske_dnn_0_boat_00_boat-0173-sketch-26.png,boat-0173-sketch-26.png,0.0,-0.37864432,1.9380537,-1.638153
vit_b_16,1,240,NaN,car,boat,0,0240_ske_dnn_0_boat_00_boat-0178-sketch-30.png,boat-0178-sketch-30.png,0.0,0.66984326,3.13791,-1.7451867
vit_b_16,1,241,NaN,knife,boat,0,0241_ske_dnn_0_boat_00_boat-0180-sketch-32.png,boat-0180-sketch-32.png,0.0,-0.52165806,2.539912,-2.1648571
vit_b_16,1,242,NaN,knife,boat,0,0242_ske_dnn_0_boat_00_boat-0194-sketch-45.png,boat-0194-sketch-45.png,0.0,-0.08239936,3.511468,-2.541248
vit_b_16,1,243,NaN,boat,boat,0,0243_ske_dnn_0_boat_00_boat-0197-sketch-48.png,boat-0197-sketch-48.png,1.0,0.8156365,0.633249,0.12896746
vit_b_16,1,244,NaN,knife,boat,0,0244_ske_dnn_0_boat_00_boat-0212-sketch-15.png,boat-0212-sketch-15.png,0.0,0.91748655,0.98781,-0.049726203
vit_b_16,1,245,NaN,chair,boat,0,0245_ske_dnn_0_boat_00_boat-0228-sketch-3.png,boat-0228-sketch-3.png,0.0,-0.71419185,2.6711009,-2.3937635
vit_b_16,1,246,NaN,knife,boat,0,0246_ske_dnn_0_boat_00_boat-0233-sketch-34.png,boat-0233-sketch-34.png,0.0,0.81469506,0.92345536,-0.076905146
vit_b_16,1,247,NaN,chair,boat,0,0247_ske_dnn_0_boat_00_boat-0234-sketch-35.png,boat-0234-sketch-35.png,0.0,0.9524368,2.8434463,-1.3371457
vit_b_16,1,248,NaN,clock,boat,0,0248_ske_dnn_0_boat_00_boat-0237-sketch-38.png,boat-0237-sketch-38.png,0.0,0.7926118,2.0879717,-0.91595775
vit_b_16,1,249,NaN,bicycle,boat,0,0249_ske_dnn_0_boat_00_boat-0239-sketch-4.png,boat-0239-sketch-4.png,0.0,1.6518605,2.7097414,-0.7480348
vit_b_16,1,250,NaN,chair,boat,0,0250_ske_dnn_0_boat_00_boat-0253-sketch-7.png,boat-0253-sketch-7.png,0.0,1.9706093,2.1881945,-0.15385598
vit_b_16,1,251,NaN,bottle,bottle,0,0251_ske_dnn_0_bottle_00_bottle-0002-sketch-1.png,bottle-0002-sketch-1.png,1.0,5.131572,1.3067664,2.7045457
vit_b_16,1,252,NaN,bottle,bottle,0,0252_ske_dnn_0_bottle_00_bottle-0003-sketch-10.png,bottle-0003-sketch-10.png,1.0,3.4896915,2.7174406,0.54606384
vit_b_16,1,253,NaN,bottle,bottle,0,0253_ske_dnn_0_bottle_00_bottle-0019-sketch-25.png,bottle-0019-sketch-25.png,1.0,2.9331017,2.7792192,0.10881136
vit_b_16,1,254,NaN,bottle,bottle,0,0254_ske_dnn_0_bottle_00_bottle-0030-sketch-35.png,bottle-0030-sketch-35.png,1.0,4.6969037,0.19938244,3.180228
vit_b_16,1,255,NaN,bottle,bottle,0,0255_ske_dnn_0_bottle_00_bottle-0031-sketch-36.png,bottle-0031-sketch-36.png,1.0,5.103971,0.64170057,3.1553016
vit_b_16,1,256,NaN,knife,bottle,0,0256_ske_dnn_0_bottle_00_bottle-0038-sketch-42.png,bottle-0038-sketch-42.png,0.0,2.0123508,3.6152716,-1.1334362
vit_b_16,1,257,NaN,bottle,bottle,0,0257_ske_dnn_0_bottle_00_bottle-0039-sketch-43.png,bottle-0039-sketch-43.png,1.0,4.2398033,0.09756568,2.9290044
vit_b_16,1,258,NaN,bottle,bottle,0,0258_ske_dnn_0_bottle_00_bottle-0041-sketch-45.png,bottle-0041-sketch-45.png,1.0,4.0735297,1.9267757,1.5179844
vit_b_16,1,259,NaN,bottle,bottle,0,0259_ske_dnn_0_bottle_00_bottle-0045-sketch-49.png,bottle-0045-sketch-49.png,1.0,3.5343707,1.4190398,1.4957647
vit_b_16,1,260,NaN,bottle,bottle,0,0260_ske_dnn_0_bottle_00_bottle-0050-sketch-9.png,bottle-0050-sketch-9.png,1.0,3.7341993,0.44599873,2.325109
vit_b_16,1,261,NaN,knife,bottle,0,0261_ske_dnn_0_bottle_00_bottle-0054-sketch-11.png,bottle-0054-sketch-11.png,0.0,2.7118766,2.8675852,-0.11010257
vit_b_16,1,262,NaN,keyboard,bottle,0,0262_ske_dnn_0_bottle_00_bottle-0066-sketch-22.png,bottle-0066-sketch-22.png,0.0,1.1841011,1.855228,-0.47455835
vit_b_16,1,263,NaN,knife,bottle,0,0263_ske_dnn_0_bottle_00_bottle-0071-sketch-27.png,bottle-0071-sketch-27.png,0.0,-0.3380687,1.1016074,-1.0180048
vit_b_16,1,264,NaN,knife,bottle,0,0264_ske_dnn_0_bottle_00_bottle-0082-sketch-37.png,bottle-0082-sketch-37.png,0.0,0.2606471,2.2620192,-1.4151838
vit_b_16,1,265,NaN,bottle,bottle,0,0265_ske_dnn_0_bottle_00_bottle-0086-sketch-40.png,bottle-0086-sketch-40.png,1.0,2.8844888,0.644763,1.5837253
vit_b_16,1,266,NaN,bottle,bottle,0,0266_ske_dnn_0_bottle_00_bottle-0090-sketch-44.png,bottle-0090-sketch-44.png,1.0,3.1804557,2.4071336,0.5468213
vit_b_16,1,267,NaN,bottle,bottle,0,0267_ske_dnn_0_bottle_00_bottle-0097-sketch-50.png,bottle-0097-sketch-50.png,1.0,4.4619575,3.595032,0.6130089
vit_b_16,1,268,NaN,knife,bottle,0,0268_ske_dnn_0_bottle_00_bottle-0107-sketch-13.png,bottle-0107-sketch-13.png,0.0,2.064137,3.2344422,-0.8275308
vit_b_16,1,269,NaN,bottle,bottle,0,0269_ske_dnn_0_bottle_00_bottle-0114-sketch-2.png,bottle-0114-sketch-2.png,1.0,3.1871028,1.8197974,0.9668309
vit_b_16,1,270,NaN,bottle,bottle,0,0270_ske_dnn_0_bottle_00_bottle-0126-sketch-30.png,bottle-0126-sketch-30.png,1.0,3.9779341,0.9712154,2.1260712
vit_b_16,1,271,NaN,knife,bottle,0,0271_ske_dnn_0_bottle_00_bottle-0130-sketch-34.png,bottle-0130-sketch-34.png,0.0,3.298679,3.9307415,-0.44693565
vit_b_16,1,272,NaN,knife,bottle,0,0272_ske_dnn_0_bottle_00_bottle-0131-sketch-35.png,bottle-0131-sketch-35.png,0.0,0.6499044,1.3764112,-0.5137179
vit_b_16,1,273,NaN,knife,bottle,0,0273_ske_dnn_0_bottle_00_bottle-0133-sketch-37.png,bottle-0133-sketch-37.png,0.0,2.110313,3.989383,-1.3287032
vit_b_16,1,274,NaN,knife,bottle,0,0274_ske_dnn_0_bottle_00_bottle-0135-sketch-39.png,bottle-0135-sketch-39.png,0.0,1.5913502,2.152705,-0.39693776
vit_b_16,1,275,NaN,bottle,bottle,0,0275_ske_dnn_0_bottle_00_bottle-0143-sketch-46.png,bottle-0143-sketch-46.png,1.0,3.0621626,1.8238932,0.8755887
vit_b_16,1,276,NaN,bottle,bottle,0,0276_ske_dnn_0_bottle_00_bottle-0145-sketch-48.png,bottle-0145-sketch-48.png,1.0,2.4575403,1.1694106,0.9108453
vit_b_16,1,277,NaN,bottle,bottle,0,0277_ske_dnn_0_bottle_00_bottle-0150-sketch-7.png,bottle-0150-sketch-7.png,1.0,5.0044217,0.874566,2.920249
vit_b_16,1,278,NaN,knife,bottle,0,0278_ske_dnn_0_bottle_00_bottle-0162-sketch-17.png,bottle-0162-sketch-17.png,0.0,1.0233476,2.9205556,-1.3415287
vit_b_16,1,279,NaN,bottle,bottle,0,0279_ske_dnn_0_bottle_00_bottle-0165-sketch-2.png,bottle-0165-sketch-2.png,1.0,3.6759427,1.1767176,1.7672191
vit_b_16,1,280,NaN,knife,bottle,0,0280_ske_dnn_0_bottle_00_bottle-0184-sketch-37.png,bottle-0184-sketch-37.png,0.0,2.0871406,2.8127747,-0.5131008
vit_b_16,1,281,NaN,bottle,bottle,0,0281_ske_dnn_0_bottle_00_bottle-0185-sketch-38.png,bottle-0185-sketch-38.png,1.0,1.8058189,1.5336866,0.19242658
vit_b_16,1,282,NaN,bottle,bottle,0,0282_ske_dnn_0_bottle_00_bottle-0189-sketch-41.png,bottle-0189-sketch-41.png,1.0,4.6164894,2.7608638,1.3121254
vit_b_16,1,283,NaN,bottle,bottle,0,0283_ske_dnn_0_bottle_00_bottle-0202-sketch-8.png,bottle-0202-sketch-8.png,1.0,4.9357686,2.6871035,1.5900464
vit_b_16,1,284,NaN,keyboard,bottle,0,0284_ske_dnn_0_bottle_00_bottle-0207-sketch-11.png,bottle-0207-sketch-11.png,0.0,2.0269644,2.2895617,-0.18568435
vit_b_16,1,285,NaN,knife,bottle,0,0285_ske_dnn_0_bottle_00_bottle-0215-sketch-19.png,bottle-0215-sketch-19.png,0.0,0.5824038,3.1011722,-1.7810382
vit_b_16,1,286,NaN,knife,bottle,0,0286_ske_dnn_0_bottle_00_bottle-0217-sketch-20.png,bottle-0217-sketch-20.png,0.0,-0.09365324,4.587254,-3.3099012
vit_b_16,1,287,NaN,knife,bottle,0,0287_ske_dnn_0_bottle_00_bottle-0237-sketch-39.png,bottle-0237-sketch-39.png,0.0,1.8819607,3.5302277,-1.1655008
vit_b_16,1,288,NaN,knife,bottle,0,0288_ske_dnn_0_bottle_00_bottle-0243-sketch-44.png,bottle-0243-sketch-44.png,0.0,1.5155629,3.3219604,-1.277316
vit_b_16,1,289,NaN,bottle,bottle,0,0289_ske_dnn_0_bottle_00_bottle-0245-sketch-46.png,bottle-0245-sketch-46.png,1.0,2.5754235,0.7345057,1.3017255
vit_b_16,1,290,NaN,bottle,bottle,0,0290_ske_dnn_0_bottle_00_bottle-0268-sketch-20.png,bottle-0268-sketch-20.png,1.0,1.844785,0.41473472,1.0111983
vit_b_16,1,291,NaN,bottle,bottle,0,0291_ske_dnn_0_bottle_00_bottle-0280-sketch-31.png,bottle-0280-sketch-31.png,1.0,3.7164695,1.0367094,1.8948765
vit_b_16,1,292,NaN,bottle,bottle,0,0292_ske_dnn_0_bottle_00_bottle-0292-sketch-42.png,bottle-0292-sketch-42.png,1.0,6.0640745,0.7046857,3.7896602
vit_b_16,1,293,NaN,bottle,bottle,0,0293_ske_dnn_0_bottle_00_bottle-0294-sketch-44.png,bottle-0294-sketch-44.png,1.0,3.6596725,1.0847377,1.820754
vit_b_16,1,294,NaN,knife,bottle,0,0294_ske_dnn_0_bottle_00_bottle-0296-sketch-46.png,bottle-0296-sketch-46.png,0.0,2.222939,2.9380307,-0.5056462
vit_b_16,1,295,NaN,bottle,bottle,0,0295_ske_dnn_0_bottle_00_bottle-0301-sketch-50.png,bottle-0301-sketch-50.png,1.0,1.6153761,0.50500643,0.78514993
vit_b_16,1,296,NaN,bottle,bottle,0,0296_ske_dnn_0_bottle_00_bottle-0305-sketch-9.png,bottle-0305-sketch-9.png,1.0,2.162257,0.6292468,1.0840019
vit_b_16,1,297,NaN,bottle,bottle,0,0297_ske_dnn_0_bottle_00_bottle-0313-sketch-15.png,bottle-0313-sketch-15.png,1.0,5.1282187,0.6688655,3.1532388
vit_b_16,1,298,NaN,bottle,bottle,0,0298_ske_dnn_0_bottle_00_bottle-0321-sketch-22.png,bottle-0321-sketch-22.png,1.0,4.994286,0.33067143,3.2976737
vit_b_16,1,299,NaN,bottle,bottle,0,0299_ske_dnn_0_bottle_00_bottle-0330-sketch-30.png,bottle-0330-sketch-30.png,1.0,4.1755743,0.32480723,2.7229035
vit_b_16,1,300,NaN,bottle,bottle,0,0300_ske_dnn_0_bottle_00_bottle-0338-sketch-38.png,bottle-0338-sketch-38.png,1.0,1.8744962,1.7889001,0.060525574
vit_b_16,1,301,NaN,truck,car,0,0301_ske_dnn_0_car_00_car-0002-sketch-1.png,car-0002-sketch-1.png,0.0,1.4929562,3.402944,-1.3505654
vit_b_16,1,302,NaN,car,car,0,0302_ske_dnn_0_car_00_car-0004-sketch-11.png,car-0004-sketch-11.png,1.0,2.7797568,1.8704914,0.64294773
vit_b_16,1,303,NaN,truck,car,0,0303_ske_dnn_0_car_00_car-0005-sketch-12.png,car-0005-sketch-12.png,0.0,1.5121704,2.8710895,-0.9609009
vit_b_16,1,304,NaN,oven,car,0,0304_ske_dnn_0_car_00_car-0009-sketch-16.png,car-0009-sketch-16.png,0.0,1.0374666,1.4172827,-0.2685705
vit_b_16,1,305,NaN,car,car,0,0305_ske_dnn_0_car_00_car-0013-sketch-2.png,car-0013-sketch-2.png,1.0,7.0086236,2.9825077,2.8468938
vit_b_16,1,306,NaN,car,car,0,0306_ske_dnn_0_car_00_car-0014-sketch-20.png,car-0014-sketch-20.png,1.0,4.3417993,3.2077749,0.80187637
vit_b_16,1,307,NaN,keyboard,car,0,0307_ske_dnn_0_car_00_car-0017-sketch-23.png,car-0017-sketch-23.png,0.0,1.0584413,2.0067918,-0.6705851
vit_b_16,1,308,NaN,knife,car,0,0308_ske_dnn_0_car_00_car-0018-sketch-24.png,car-0018-sketch-24.png,0.0,2.4386742,3.4961538,-0.747751
vit_b_16,1,309,NaN,oven,car,0,0309_ske_dnn_0_car_00_car-0021-sketch-27.png,car-0021-sketch-27.png,0.0,-0.30867425,1.3403748,-1.1660538
vit_b_16,1,310,NaN,knife,car,0,0310_ske_dnn_0_car_00_car-0022-sketch-28.png,car-0022-sketch-28.png,0.0,0.3255577,2.7340357,-1.7030512
vit_b_16,1,311,NaN,car,car,0,0311_ske_dnn_0_car_00_car-0024-sketch-3.png,car-0024-sketch-3.png,1.0,3.8721104,0.79151493,2.17831
vit_b_16,1,312,NaN,oven,car,0,0312_ske_dnn_0_car_00_car-0025-sketch-30.png,car-0025-sketch-30.png,0.0,-1.0492595,4.166968,-3.6884298
vit_b_16,1,313,NaN,boat,car,0,0313_ske_dnn_0_car_00_car-0029-sketch-34.png,car-0029-sketch-34.png,0.0,1.1028454,1.6958901,-0.4193459
vit_b_16,1,314,NaN,knife,car,0,0314_ske_dnn_0_car_00_car-0030-sketch-35.png,car-0030-sketch-35.png,0.0,2.4389312,3.9932775,-1.0990888
vit_b_16,1,315,NaN,car,car,0,0315_ske_dnn_0_car_00_car-0032-sketch-37.png,car-0032-sketch-37.png,1.0,4.9084954,3.6363795,0.8995218
vit_b_16,1,316,NaN,knife,car,0,0316_ske_dnn_0_car_00_car-0034-sketch-39.png,car-0034-sketch-39.png,0.0,0.45494473,2.5474534,-1.4796271
vit_b_16,1,317,NaN,car,car,0,0317_ske_dnn_0_car_00_car-0040-sketch-44.png,car-0040-sketch-44.png,1.0,2.351756,1.9822779,0.26126057
vit_b_16,1,318,NaN,car,car,0,0318_ske_dnn_0_car_00_car-0043-sketch-47.png,car-0043-sketch-47.png,1.0,3.8721104,0.79151493,2.17831
vit_b_16,1,319,NaN,car,car,0,0319_ske_dnn_0_car_00_car-0044-sketch-48.png,car-0044-sketch-48.png,1.0,3.9877346,0.637978,2.3686357
vit_b_16,1,320,NaN,oven,car,0,0320_ske_dnn_0_car_00_car-0045-sketch-49.png,car-0045-sketch-49.png,0.0,0.91720134,1.2797134,-0.25633472
vit_b_16,1,321,NaN,car,car,0,0321_ske_dnn_0_car_00_car-0047-sketch-50.png,car-0047-sketch-50.png,1.0,2.4246294,1.9712334,0.32059944
vit_b_16,1,322,NaN,oven,car,0,0322_ske_dnn_0_car_00_car-0050-sketch-8.png,car-0050-sketch-8.png,0.0,0.8916232,3.16427,-1.6070039
vit_b_16,1,323,NaN,knife,car,0,0323_ske_dnn_0_car_00_car-0052-sketch-0.png,car-0052-sketch-0.png,0.0,0.23893602,0.8762202,-0.450628
vit_b_16,1,324,NaN,car,car,0,0324_ske_dnn_0_car_00_car-0055-sketch-11.png,car-0055-sketch-11.png,1.0,6.993437,0.47977707,4.605853
vit_b_16,1,325,NaN,knife,car,0,0325_ske_dnn_0_car_00_car-0064-sketch-2.png,car-0064-sketch-2.png,0.0,0.15871939,2.475016,-1.6378692
vit_b_16,1,326,NaN,car,car,0,0326_ske_dnn_0_car_00_car-0069-sketch-24.png,car-0069-sketch-24.png,1.0,3.164199,2.647141,0.3656153
vit_b_16,1,327,NaN,car,car,0,0327_ske_dnn_0_car_00_car-0076-sketch-30.png,car-0076-sketch-30.png,1.0,7.05764,1.7353876,3.7634008
vit_b_16,1,328,NaN,car,car,0,0328_ske_dnn_0_car_00_car-0079-sketch-33.png,car-0079-sketch-33.png,1.0,1.6324147,1.6069423,0.01801171
vit_b_16,1,329,NaN,car,car,0,0329_ske_dnn_0_car_00_car-0083-sketch-37.png,car-0083-sketch-37.png,1.0,2.87786,2.7005022,0.12541099
vit_b_16,1,330,NaN,bicycle,car,0,0330_ske_dnn_0_car_00_car-0092-sketch-45.png,car-0092-sketch-45.png,0.0,0.66181976,2.776006,-1.4949555
vit_b_16,1,331,NaN,car,car,0,0331_ske_dnn_0_car_00_car-0096-sketch-49.png,car-0096-sketch-49.png,1.0,6.2276225,0.33901143,4.1638765
vit_b_16,1,332,NaN,knife,car,0,0332_ske_dnn_0_car_00_car-0098-sketch-50.png,car-0098-sketch-50.png,0.0,0.34846655,2.0587268,-1.2093366
vit_b_16,1,333,NaN,car,car,0,0333_ske_dnn_0_car_00_car-0100-sketch-7.png,car-0100-sketch-7.png,1.0,6.144606,0.38004988,4.076157
vit_b_16,1,334,NaN,car,car,0,0334_ske_dnn_0_car_00_car-0112-sketch-17.png,car-0112-sketch-17.png,1.0,6.155153,0.31061587,4.132712
vit_b_16,1,335,NaN,car,car,0,0335_ske_dnn_0_car_00_car-0114-sketch-19.png,car-0114-sketch-19.png,1.0,4.948231,1.2713075,2.5999777
vit_b_16,1,336,NaN,car,car,0,0336_ske_dnn_0_car_00_car-0116-sketch-20.png,car-0116-sketch-20.png,1.0,5.3328843,1.5231208,2.6939096
vit_b_16,1,337,NaN,knife,car,0,0337_ske_dnn_0_car_00_car-0117-sketch-21.png,car-0117-sketch-21.png,0.0,-0.12698382,3.9914775,-2.9121919
vit_b_16,1,338,NaN,knife,car,0,0338_ske_dnn_0_car_00_car-0120-sketch-24.png,car-0120-sketch-24.png,0.0,1.3306596,1.9531822,-0.44018996
vit_b_16,1,339,NaN,knife,car,0,0339_ske_dnn_0_car_00_car-0122-sketch-26.png,car-0122-sketch-26.png,0.0,-0.17405702,2.9419663,-2.2033613
vit_b_16,1,340,NaN,knife,car,0,0340_ske_dnn_0_car_00_car-0124-sketch-28.png,car-0124-sketch-28.png,0.0,0.6104186,2.329862,-1.2158302
vit_b_16,1,341,NaN,car,car,0,0341_ske_dnn_0_car_00_car-0125-sketch-29.png,car-0125-sketch-29.png,1.0,5.7791348,2.1622028,2.557557
vit_b_16,1,342,NaN,chair,car,0,0342_ske_dnn_0_car_00_car-0129-sketch-32.png,car-0129-sketch-32.png,0.0,-0.43343058,1.7649938,-1.5545207
vit_b_16,1,343,NaN,car,car,0,0343_ske_dnn_0_car_00_car-0132-sketch-35.png,car-0132-sketch-35.png,1.0,6.046873,0.114868514,4.1945605
vit_b_16,1,344,NaN,knife,car,0,0344_ske_dnn_0_car_00_car-0136-sketch-39.png,car-0136-sketch-39.png,0.0,-0.7694071,2.900755,-2.5951965
vit_b_16,1,345,NaN,car,car,0,0345_ske_dnn_0_car_00_car-0138-sketch-40.png,car-0138-sketch-40.png,1.0,7.587843,0.70757776,4.8650823
vit_b_16,1,346,NaN,car,car,0,0346_ske_dnn_0_car_00_car-0139-sketch-41.png,car-0139-sketch-41.png,1.0,6.6566715,0.39696875,4.426278
vit_b_16,1,347,NaN,knife,car,0,0347_ske_dnn_0_car_00_car-0143-sketch-45.png,car-0143-sketch-45.png,0.0,0.44933176,1.4974711,-0.74114645
vit_b_16,1,348,NaN,car,car,0,0348_ske_dnn_0_car_00_car-0145-sketch-47.png,car-0145-sketch-47.png,1.0,3.3354728,0.8453213,1.760803
vit_b_16,1,349,NaN,car,car,0,0349_ske_dnn_0_car_00_car-0151-sketch-7.png,car-0151-sketch-7.png,1.0,6.1178565,0.5740392,3.9200711
vit_b_16,1,350,NaN,car,car,0,0350_ske_dnn_0_car_00_car-0153-sketch-9.png,car-0153-sketch-9.png,1.0,6.097303,1.6014162,3.1790721
vit_b_16,1,351,NaN,cat,cat,0,0351_ske_dnn_0_cat_00_cat-0002-sketch-1.png,cat-0002-sketch-1.png,1.0,4.315004,0.68299687,2.5682168
vit_b_16,1,352,NaN,cat,cat,0,0352_ske_dnn_0_cat_00_cat-0009-sketch-16.png,cat-0009-sketch-16.png,1.0,5.313134,0.9658448,3.073998
vit_b_16,1,353,NaN,cat,cat,0,0353_ske_dnn_0_cat_00_cat-0011-sketch-18.png,cat-0011-sketch-18.png,1.0,2.3157766,0.5153509,1.2730933
vit_b_16,1,354,NaN,cat,cat,0,0354_ske_dnn_0_cat_00_cat-0015-sketch-21.png,cat-0015-sketch-21.png,1.0,3.9309483,0.3904602,2.503503
vit_b_16,1,355,NaN,cat,cat,0,0355_ske_dnn_0_cat_00_cat-0016-sketch-22.png,cat-0016-sketch-22.png,1.0,3.9097948,0.7204452,2.2552109
vit_b_16,1,356,NaN,cat,cat,0,0356_ske_dnn_0_cat_00_cat-0021-sketch-27.png,cat-0021-sketch-27.png,1.0,3.982795,0.35010022,2.5687032
vit_b_16,1,357,NaN,cat,cat,0,0357_ske_dnn_0_cat_00_cat-0027-sketch-32.png,cat-0027-sketch-32.png,1.0,3.9499404,0.3809079,2.5236874
vit_b_16,1,358,NaN,cat,cat,0,0358_ske_dnn_0_cat_00_cat-0042-sketch-46.png,cat-0042-sketch-46.png,1.0,4.023095,0.6626805,2.3761718
vit_b_16,1,359,NaN,cat,cat,0,0359_ske_dnn_0_cat_00_cat-0043-sketch-47.png,cat-0043-sketch-47.png,1.0,4.9724383,0.37950173,3.2476966
vit_b_16,1,360,NaN,cat,cat,0,0360_ske_dnn_0_cat_00_cat-0044-sketch-48.png,cat-0044-sketch-48.png,1.0,4.0260177,1.5952667,1.7188004
vit_b_16,1,361,NaN,cat,cat,0,0361_ske_dnn_0_cat_00_cat-0048-sketch-7.png,cat-0048-sketch-7.png,1.0,4.3527966,0.5206045,2.709769
vit_b_16,1,362,NaN,cat,cat,0,0362_ske_dnn_0_cat_00_cat-0052-sketch-1.png,cat-0052-sketch-1.png,1.0,3.9508142,0.92793775,2.1374965
vit_b_16,1,363,NaN,clock,cat,0,0363_ske_dnn_0_cat_00_cat-0053-sketch-10.png,cat-0053-sketch-10.png,0.0,0.7284519,1.7170948,-0.6990761
vit_b_16,1,364,NaN,knife,cat,0,0364_ske_dnn_0_cat_00_cat-0059-sketch-16.png,cat-0059-sketch-16.png,0.0,-0.6496026,3.2549014,-2.7609015
vit_b_16,1,365,NaN,cat,cat,0,0365_ske_dnn_0_cat_00_cat-0062-sketch-19.png,cat-0062-sketch-19.png,1.0,4.5690293,1.7838928,1.9693891
vit_b_16,1,366,NaN,cat,cat,0,0366_ske_dnn_0_cat_00_cat-0067-sketch-23.png,cat-0067-sketch-23.png,1.0,4.2173996,0.46207547,2.6554153
vit_b_16,1,367,NaN,cat,cat,0,0367_ske_dnn_0_cat_00_cat-0073-sketch-29.png,cat-0073-sketch-29.png,1.0,3.5157156,2.997898,0.36615226
vit_b_16,1,368,NaN,cat,cat,0,0368_ske_dnn_0_cat_00_cat-0082-sketch-37.png,cat-0082-sketch-37.png,1.0,4.942144,0.19606592,3.355984
vit_b_16,1,369,NaN,cat,cat,0,0369_ske_dnn_0_cat_00_cat-0085-sketch-4.png,cat-0085-sketch-4.png,1.0,4.8860536,0.21131054,3.3055427
vit_b_16,1,370,NaN,cat,cat,0,0370_ske_dnn_0_cat_00_cat-0090-sketch-44.png,cat-0090-sketch-44.png,1.0,4.847175,0.24268991,3.2558627
vit_b_16,1,371,NaN,clock,cat,0,0371_ske_dnn_0_cat_00_cat-0104-sketch-10.png,cat-0104-sketch-10.png,0.0,0.7016205,0.7567075,-0.03895237
vit_b_16,1,372,NaN,cat,cat,0,0372_ske_dnn_0_cat_00_cat-0124-sketch-29.png,cat-0124-sketch-29.png,1.0,2.8053207,0.35603973,1.7319032
vit_b_16,1,373,NaN,cat,cat,0,0373_ske_dnn_0_cat_00_cat-0128-sketch-32.png,cat-0128-sketch-32.png,1.0,4.219624,1.6677752,1.8044297
vit_b_16,1,374,NaN,cat,cat,0,0374_ske_dnn_0_cat_00_cat-0134-sketch-38.png,cat-0134-sketch-38.png,1.0,1.2148374,0.63496363,0.4100327
vit_b_16,1,375,NaN,cat,cat,0,0375_ske_dnn_0_cat_00_cat-0140-sketch-43.png,cat-0140-sketch-43.png,1.0,2.0666432,1.7740175,0.20691767
vit_b_16,1,376,NaN,cat,cat,0,0376_ske_dnn_0_cat_00_cat-0149-sketch-6.png,cat-0149-sketch-6.png,1.0,1.6110891,0.18601225,1.0076815
vit_b_16,1,377,NaN,cat,cat,0,0377_ske_dnn_0_cat_00_cat-0150-sketch-7.png,cat-0150-sketch-7.png,1.0,3.8613338,0.7082539,2.2295642
vit_b_16,1,378,NaN,knife,cat,0,0378_ske_dnn_0_cat_00_cat-0152-sketch-9.png,cat-0152-sketch-9.png,0.0,0.5104518,2.582244,-1.4649783
vit_b_16,1,379,NaN,knife,cat,0,0379_ske_dnn_0_cat_00_cat-0158-sketch-13.png,cat-0158-sketch-13.png,0.0,-0.30005607,1.3755021,-1.1847986
vit_b_16,1,380,NaN,cat,cat,0,0380_ske_dnn_0_cat_00_cat-0160-sketch-15.png,cat-0160-sketch-15.png,1.0,3.855343,1.015213,2.0082753
vit_b_16,1,381,NaN,cat,cat,0,0381_ske_dnn_0_cat_00_cat-0175-sketch-29.png,cat-0175-sketch-29.png,1.0,3.2417116,1.3121035,1.364439
vit_b_16,1,382,NaN,knife,cat,0,0382_ske_dnn_0_cat_00_cat-0207-sketch-11.png,cat-0207-sketch-11.png,0.0,-0.8439584,3.134948,-2.8135118
vit_b_16,1,383,NaN,knife,cat,0,0383_ske_dnn_0_cat_00_cat-0229-sketch-31.png,cat-0229-sketch-31.png,0.0,-1.0745726,3.688733,-3.3681657
vit_b_16,1,384,NaN,knife,cat,0,0384_ske_dnn_0_cat_00_cat-0233-sketch-35.png,cat-0233-sketch-35.png,0.0,-0.8439584,3.134948,-2.8135118
vit_b_16,1,385,NaN,knife,cat,0,0385_ske_dnn_0_cat_00_cat-0241-sketch-42.png,cat-0241-sketch-42.png,0.0,-0.50782686,1.9309932,-1.7245063
vit_b_16,1,386,NaN,knife,cat,0,0386_ske_dnn_0_cat_00_cat-0245-sketch-46.png,cat-0245-sketch-46.png,0.0,-1.0462376,3.5831413,-3.2734652
vit_b_16,1,387,NaN,knife,cat,0,0387_ske_dnn_0_cat_00_cat-0250-sketch-50.png,cat-0250-sketch-50.png,0.0,-0.7588927,3.136939,-2.754769
vit_b_16,1,388,NaN,knife,cat,0,0388_ske_dnn_0_cat_00_cat-0251-sketch-6.png,cat-0251-sketch-6.png,0.0,-0.50782686,1.9309932,-1.7245063
vit_b_16,1,389,NaN,cat,cat,0,0389_ske_dnn_0_cat_00_cat-0258-sketch-11.png,cat-0258-sketch-11.png,1.0,1.8988603,0.6042111,0.9154553
vit_b_16,1,390,NaN,knife,cat,0,0390_ske_dnn_0_cat_00_cat-0260-sketch-13.png,cat-0260-sketch-13.png,0.0,0.16286175,1.4184034,-0.88780206
vit_b_16,1,391,NaN,cat,cat,0,0391_ske_dnn_0_cat_00_cat-0264-sketch-17.png,cat-0264-sketch-17.png,1.0,0.8887305,0.87040794,0.012956026
vit_b_16,1,392,NaN,cat,cat,0,0392_ske_dnn_0_cat_00_cat-0265-sketch-18.png,cat-0265-sketch-18.png,1.0,1.8481731,1.3547089,0.3489319
vit_b_16,1,393,NaN,cat,cat,0,0393_ske_dnn_0_cat_00_cat-0269-sketch-21.png,cat-0269-sketch-21.png,1.0,3.2784169,0.4459522,2.002855
vit_b_16,1,394,NaN,cat,cat,0,0394_ske_dnn_0_cat_00_cat-0274-sketch-26.png,cat-0274-sketch-26.png,1.0,2.534858,0.59448415,1.3720516
vit_b_16,1,395,NaN,knife,cat,0,0395_ske_dnn_0_cat_00_cat-0279-sketch-30.png,cat-0279-sketch-30.png,0.0,0.6687886,1.8126138,-0.80880666
vit_b_16,1,396,NaN,knife,cat,0,0396_ske_dnn_0_cat_00_cat-0289-sketch-4.png,cat-0289-sketch-4.png,0.0,-0.46240512,1.8619283,-1.643552
vit_b_16,1,397,NaN,cat,cat,0,0397_ske_dnn_0_cat_00_cat-0293-sketch-43.png,cat-0293-sketch-43.png,1.0,1.5031124,0.298116,0.8520612
vit_b_16,1,398,NaN,cat,cat,0,0398_ske_dnn_0_cat_00_cat-0295-sketch-45.png,cat-0295-sketch-45.png,1.0,2.240804,0.3526823,1.3351036
vit_b_16,1,399,NaN,cat,cat,0,0399_ske_dnn_0_cat_00_cat-0302-sketch-6.png,cat-0302-sketch-6.png,1.0,1.5742408,0.66804284,0.6407787
vit_b_16,1,400,NaN,cat,cat,0,0400_ske_dnn_0_cat_00_cat-0304-sketch-8.png,cat-0304-sketch-8.png,1.0,3.0569732,0.2898663,1.9566401
vit_b_16,1,401,NaN,chair,chair,0,0401_ske_dnn_0_chair_00_chair-0002-sketch-1.png,chair-0002-sketch-1.png,1.0,1.5434734,1.4540179,0.06325458
vit_b_16,1,402,NaN,chair,chair,0,0402_ske_dnn_0_chair_00_chair-0005-sketch-12.png,chair-0005-sketch-12.png,1.0,2.7071104,0.07332677,1.8623663
vit_b_16,1,403,NaN,chair,chair,0,0403_ske_dnn_0_chair_00_chair-0006-sketch-13.png,chair-0006-sketch-13.png,1.0,5.283186,0.5256337,3.3640974
vit_b_16,1,404,NaN,chair,chair,0,0404_ske_dnn_0_chair_00_chair-0011-sketch-18.png,chair-0011-sketch-18.png,1.0,3.4126198,1.3477455,1.4600866
vit_b_16,1,405,NaN,knife,chair,0,0405_ske_dnn_0_chair_00_chair-0013-sketch-2.png,chair-0013-sketch-2.png,0.0,2.1990688,2.2878113,-0.06275042
vit_b_16,1,406,NaN,chair,chair,0,0406_ske_dnn_0_chair_00_chair-0014-sketch-20.png,chair-0014-sketch-20.png,1.0,5.0113797,0.76335734,3.0038056
vit_b_16,1,407,NaN,chair,chair,0,0407_ske_dnn_0_chair_00_chair-0017-sketch-23.png,chair-0017-sketch-23.png,1.0,5.1316876,0.96411824,2.9469166
vit_b_16,1,408,NaN,chair,chair,0,0408_ske_dnn_0_chair_00_chair-0029-sketch-34.png,chair-0029-sketch-34.png,1.0,2.0680661,0.7920518,0.9022784
vit_b_16,1,409,NaN,knife,chair,0,0409_ske_dnn_0_chair_00_chair-0034-sketch-39.png,chair-0034-sketch-39.png,0.0,1.9793311,2.2951424,-0.2233123
vit_b_16,1,410,NaN,chair,chair,0,0410_ske_dnn_0_chair_00_chair-0040-sketch-44.png,chair-0040-sketch-44.png,1.0,2.7054007,0.09346675,1.8469162
vit_b_16,1,411,NaN,chair,chair,0,0411_ske_dnn_0_chair_00_chair-0051-sketch-9.png,chair-0051-sketch-9.png,1.0,3.9737985,0.15027955,2.7036362
vit_b_16,1,412,NaN,chair,chair,0,0412_ske_dnn_0_chair_00_chair-0052-sketch-0.png,chair-0052-sketch-0.png,1.0,2.1285133,1.9176025,0.14913645
vit_b_16,1,413,NaN,chair,chair,0,0413_ske_dnn_0_chair_00_chair-0055-sketch-11.png,chair-0055-sketch-11.png,1.0,3.7127428,3.6222773,0.0639688
vit_b_16,1,414,NaN,chair,chair,0,0414_ske_dnn_0_chair_00_chair-0060-sketch-16.png,chair-0060-sketch-16.png,1.0,2.7547503,0.75265735,1.4156934
vit_b_16,1,415,NaN,chair,chair,0,0415_ske_dnn_0_chair_00_chair-0062-sketch-18.png,chair-0062-sketch-18.png,1.0,2.9022455,0.276962,1.8563558
vit_b_16,1,416,NaN,chair,chair,0,0416_ske_dnn_0_chair_00_chair-0063-sketch-19.png,chair-0063-sketch-19.png,1.0,2.6016054,0.5530541,1.4485445
vit_b_16,1,417,NaN,chair,chair,0,0417_ske_dnn_0_chair_00_chair-0064-sketch-2.png,chair-0064-sketch-2.png,1.0,3.1418276,1.5344514,1.1365867
vit_b_16,1,418,NaN,chair,chair,0,0418_ske_dnn_0_chair_00_chair-0066-sketch-21.png,chair-0066-sketch-21.png,1.0,2.6011417,0.70832455,1.3384238
vit_b_16,1,419,NaN,chair,chair,0,0419_ske_dnn_0_chair_00_chair-0067-sketch-22.png,chair-0067-sketch-22.png,1.0,3.5999322,0.46205124,2.218817
vit_b_16,1,420,NaN,chair,chair,0,0420_ske_dnn_0_chair_00_chair-0071-sketch-26.png,chair-0071-sketch-26.png,1.0,3.1513999,0.64813286,1.7700771
vit_b_16,1,421,NaN,chair,chair,0,0421_ske_dnn_0_chair_00_chair-0072-sketch-27.png,chair-0072-sketch-27.png,1.0,3.645681,0.5380679,2.1974144
vit_b_16,1,422,NaN,chair,chair,0,0422_ske_dnn_0_chair_00_chair-0076-sketch-30.png,chair-0076-sketch-30.png,1.0,2.8205285,0.09057917,1.9303657
vit_b_16,1,423,NaN,chair,chair,0,0423_ske_dnn_0_chair_00_chair-0079-sketch-33.png,chair-0079-sketch-33.png,1.0,2.8405287,0.11987129,1.9237953
vit_b_16,1,424,NaN,chair,chair,0,0424_ske_dnn_0_chair_00_chair-0083-sketch-37.png,chair-0083-sketch-37.png,1.0,3.6410644,1.132271,1.7739848
vit_b_16,1,425,NaN,chair,chair,0,0425_ske_dnn_0_chair_00_chair-0088-sketch-41.png,chair-0088-sketch-41.png,1.0,2.2666025,2.0175412,0.17611296
vit_b_16,1,426,NaN,chair,chair,0,0426_ske_dnn_0_chair_00_chair-0094-sketch-47.png,chair-0094-sketch-47.png,1.0,3.0524228,0.31273225,1.9372538
vit_b_16,1,427,NaN,chair,chair,0,0427_ske_dnn_0_chair_00_chair-0105-sketch-11.png,chair-0105-sketch-11.png,1.0,3.8164935,1.9888515,1.292338
vit_b_16,1,428,NaN,chair,chair,0,0428_ske_dnn_0_chair_00_chair-0118-sketch-23.png,chair-0118-sketch-23.png,1.0,4.6095657,0.9410826,2.5940094
vit_b_16,1,429,NaN,chair,chair,0,0429_ske_dnn_0_chair_00_chair-0122-sketch-27.png,chair-0122-sketch-27.png,1.0,3.7297704,1.1201963,1.8452475
vit_b_16,1,430,NaN,chair,chair,0,0430_ske_dnn_0_chair_00_chair-0124-sketch-29.png,chair-0124-sketch-29.png,1.0,3.0857217,0.92303884,1.5292479
vit_b_16,1,431,NaN,chair,chair,0,0431_ske_dnn_0_chair_00_chair-0125-sketch-3.png,chair-0125-sketch-3.png,1.0,3.052343,1.9174913,0.80246127
vit_b_16,1,432,NaN,chair,chair,0,0432_ske_dnn_0_chair_00_chair-0127-sketch-31.png,chair-0127-sketch-31.png,1.0,2.7508013,1.039102,1.2103542
vit_b_16,1,433,NaN,chair,chair,0,0433_ske_dnn_0_chair_00_chair-0129-sketch-33.png,chair-0129-sketch-33.png,1.0,3.4438267,1.5635061,1.3295875
vit_b_16,1,434,NaN,chair,chair,0,0434_ske_dnn_0_chair_00_chair-0130-sketch-34.png,chair-0130-sketch-34.png,1.0,2.9806607,0.8092841,1.5353953
vit_b_16,1,435,NaN,chair,chair,0,0435_ske_dnn_0_chair_00_chair-0131-sketch-35.png,chair-0131-sketch-35.png,1.0,4.741183,1.6700453,2.171622
vit_b_16,1,436,NaN,chair,chair,0,0436_ske_dnn_0_chair_00_chair-0135-sketch-39.png,chair-0135-sketch-39.png,1.0,3.002215,0.6990725,1.6285677
vit_b_16,1,437,NaN,chair,chair,0,0437_ske_dnn_0_chair_00_chair-0144-sketch-47.png,chair-0144-sketch-47.png,1.0,2.6693726,0.4905672,1.5406481
vit_b_16,1,438,NaN,knife,chair,0,0438_ske_dnn_0_chair_00_chair-0145-sketch-48.png,chair-0145-sketch-48.png,0.0,3.6971242,4.5844846,-0.6274585
vit_b_16,1,439,NaN,chair,chair,0,0439_ske_dnn_0_chair_00_chair-0153-sketch-0.png,chair-0153-sketch-0.png,1.0,2.3963268,1.4751278,0.651386
vit_b_16,1,440,NaN,chair,chair,0,0440_ske_dnn_0_chair_00_chair-0155-sketch-10.png,chair-0155-sketch-10.png,1.0,4.3524466,2.7187388,1.1552058
vit_b_16,1,441,NaN,chair,chair,0,0441_ske_dnn_0_chair_00_chair-0163-sketch-18.png,chair-0163-sketch-18.png,1.0,2.4569979,1.4942037,0.6807983
vit_b_16,1,442,NaN,chair,chair,0,0442_ske_dnn_0_chair_00_chair-0166-sketch-20.png,chair-0166-sketch-20.png,1.0,3.0812674,1.6833752,0.988459
vit_b_16,1,443,NaN,chair,chair,0,0443_ske_dnn_0_chair_00_chair-0167-sketch-21.png,chair-0167-sketch-21.png,1.0,4.0172634,2.176958,1.3012924
vit_b_16,1,444,NaN,chair,chair,0,0444_ske_dnn_0_chair_00_chair-0168-sketch-22.png,chair-0168-sketch-22.png,1.0,3.0339618,2.1406438,0.6316712
vit_b_16,1,445,NaN,knife,chair,0,0445_ske_dnn_0_chair_00_chair-0175-sketch-29.png,chair-0175-sketch-29.png,0.0,1.2834207,3.9318848,-1.8727471
vit_b_16,1,446,NaN,chair,chair,0,0446_ske_dnn_0_chair_00_chair-0176-sketch-3.png,chair-0176-sketch-3.png,1.0,3.2594209,2.3617718,0.63473374
vit_b_16,1,447,NaN,chair,chair,0,0447_ske_dnn_0_chair_00_chair-0178-sketch-31.png,chair-0178-sketch-31.png,1.0,4.0057964,2.0907502,1.3541422
vit_b_16,1,448,NaN,chair,chair,0,0448_ske_dnn_0_chair_00_chair-0180-sketch-33.png,chair-0180-sketch-33.png,1.0,2.6357152,0.87373996,1.2459047
vit_b_16,1,449,NaN,chair,chair,0,0449_ske_dnn_0_chair_00_chair-0197-sketch-49.png,chair-0197-sketch-49.png,1.0,3.1381142,1.8752007,0.89301467
vit_b_16,1,450,NaN,chair,chair,0,0450_ske_dnn_0_chair_00_chair-0200-sketch-6.png,chair-0200-sketch-6.png,1.0,2.5583403,0.6798562,1.3282889
vit_b_16,1,451,NaN,clock,clock,0,0451_ske_dnn_0_clock_00_clock-0005-sketch-12.png,clock-0005-sketch-12.png,1.0,6.921003,0.17219222,4.77213
vit_b_16,1,452,NaN,clock,clock,0,0452_ske_dnn_0_clock_00_clock-0007-sketch-14.png,clock-0007-sketch-14.png,1.0,6.2372785,0.2633359,4.2242155
vit_b_16,1,453,NaN,clock,clock,0,0453_ske_dnn_0_clock_00_clock-0015-sketch-21.png,clock-0015-sketch-21.png,1.0,5.476212,0.50330067,3.5163794
vit_b_16,1,454,NaN,clock,clock,0,0454_ske_dnn_0_clock_00_clock-0017-sketch-23.png,clock-0017-sketch-23.png,1.0,5.8531423,1.4339206,3.1248617
vit_b_16,1,455,NaN,clock,clock,0,0455_ske_dnn_0_clock_00_clock-0018-sketch-24.png,clock-0018-sketch-24.png,1.0,5.95994,0.5731513,3.809035
vit_b_16,1,456,NaN,clock,clock,0,0456_ske_dnn_0_clock_00_clock-0021-sketch-27.png,clock-0021-sketch-27.png,1.0,6.587786,1.0374656,3.9246695
vit_b_16,1,457,NaN,clock,clock,0,0457_ske_dnn_0_clock_00_clock-0022-sketch-28.png,clock-0022-sketch-28.png,1.0,6.682741,0.76566243,4.1840067
vit_b_16,1,458,NaN,clock,clock,0,0458_ske_dnn_0_clock_00_clock-0027-sketch-32.png,clock-0027-sketch-32.png,1.0,5.3113284,1.6524416,2.5872238
vit_b_16,1,459,NaN,clock,clock,0,0459_ske_dnn_0_clock_00_clock-0028-sketch-33.png,clock-0028-sketch-33.png,1.0,6.218861,0.47312495,4.062849
vit_b_16,1,460,NaN,clock,clock,0,0460_ske_dnn_0_clock_00_clock-0030-sketch-35.png,clock-0030-sketch-35.png,1.0,6.166107,0.4950853,4.0100183
vit_b_16,1,461,NaN,clock,clock,0,0461_ske_dnn_0_clock_00_clock-0033-sketch-38.png,clock-0033-sketch-38.png,1.0,6.3041787,1.1139935,3.670015
vit_b_16,1,462,NaN,clock,clock,0,0462_ske_dnn_0_clock_00_clock-0035-sketch-4.png,clock-0035-sketch-4.png,1.0,6.3513274,0.823139,3.9090195
vit_b_16,1,463,NaN,clock,clock,0,0463_ske_dnn_0_clock_00_clock-0044-sketch-48.png,clock-0044-sketch-48.png,1.0,5.6591225,2.228468,2.4258392
vit_b_16,1,464,NaN,clock,clock,0,0464_ske_dnn_0_clock_00_clock-0046-sketch-5.png,clock-0046-sketch-5.png,1.0,6.262306,2.2573977,2.831898
vit_b_16,1,465,NaN,clock,clock,0,0465_ske_dnn_0_clock_00_clock-0049-sketch-7.png,clock-0049-sketch-7.png,1.0,5.2969913,1.8395952,2.4447482
vit_b_16,1,466,NaN,clock,clock,0,0466_ske_dnn_0_clock_00_clock-0057-sketch-13.png,clock-0057-sketch-13.png,1.0,3.092846,1.9468365,0.8103511
vit_b_16,1,467,NaN,clock,clock,0,0467_ske_dnn_0_clock_00_clock-0059-sketch-15.png,clock-0059-sketch-15.png,1.0,5.0668845,0.62388486,3.1416755
vit_b_16,1,468,NaN,clock,clock,0,0468_ske_dnn_0_clock_00_clock-0060-sketch-16.png,clock-0060-sketch-16.png,1.0,3.6382236,2.0823846,1.1001444
vit_b_16,1,469,NaN,clock,clock,0,0469_ske_dnn_0_clock_00_clock-0067-sketch-22.png,clock-0067-sketch-22.png,1.0,3.6179402,0.5046264,2.2014453
vit_b_16,1,470,NaN,clock,clock,0,0470_ske_dnn_0_clock_00_clock-0069-sketch-24.png,clock-0069-sketch-24.png,1.0,4.891916,1.9433966,2.084918
vit_b_16,1,471,NaN,knife,clock,0,0471_ske_dnn_0_clock_00_clock-0070-sketch-25.png,clock-0070-sketch-25.png,0.0,3.546667,4.6393576,-0.7726489
vit_b_16,1,472,NaN,clock,clock,0,0472_ske_dnn_0_clock_00_clock-0071-sketch-26.png,clock-0071-sketch-26.png,1.0,4.433834,0.6098769,2.703946
vit_b_16,1,473,NaN,clock,clock,0,0473_ske_dnn_0_clock_00_clock-0073-sketch-28.png,clock-0073-sketch-28.png,1.0,3.1132348,2.4375095,0.4778099
vit_b_16,1,474,NaN,clock,clock,0,0474_ske_dnn_0_clock_00_clock-0074-sketch-29.png,clock-0074-sketch-29.png,1.0,4.8041577,0.087778196,3.334984
vit_b_16,1,475,NaN,clock,clock,0,0475_ske_dnn_0_clock_00_clock-0076-sketch-30.png,clock-0076-sketch-30.png,1.0,5.5666885,0.60536516,3.5081854
vit_b_16,1,476,NaN,clock,clock,0,0476_ske_dnn_0_clock_00_clock-0077-sketch-31.png,clock-0077-sketch-31.png,1.0,5.0476823,1.3694508,2.6009026
vit_b_16,1,477,NaN,clock,clock,0,0477_ske_dnn_0_clock_00_clock-0078-sketch-32.png,clock-0078-sketch-32.png,1.0,4.6069827,2.5678113,1.4419119
vit_b_16,1,478,NaN,clock,clock,0,0478_ske_dnn_0_clock_00_clock-0081-sketch-35.png,clock-0081-sketch-35.png,1.0,4.1659226,1.6877085,1.7523621
vit_b_16,1,479,NaN,clock,clock,0,0479_ske_dnn_0_clock_00_clock-0085-sketch-39.png,clock-0085-sketch-39.png,1.0,3.7708027,0.83682805,2.0746334
vit_b_16,1,480,NaN,knife,clock,0,0480_ske_dnn_0_clock_00_clock-0087-sketch-40.png,clock-0087-sketch-40.png,0.0,0.2894952,1.0251805,-0.520208
vit_b_16,1,481,NaN,clock,clock,0,0481_ske_dnn_0_clock_00_clock-0092-sketch-45.png,clock-0092-sketch-45.png,1.0,3.7995527,1.1559774,1.86929
vit_b_16,1,482,NaN,clock,clock,0,0482_ske_dnn_0_clock_00_clock-0093-sketch-46.png,clock-0093-sketch-46.png,1.0,4.9581013,0.61565447,3.0705736
vit_b_16,1,483,NaN,clock,clock,0,0483_ske_dnn_0_clock_00_clock-0095-sketch-48.png,clock-0095-sketch-48.png,1.0,3.725341,0.5876119,2.2187097
vit_b_16,1,484,NaN,clock,clock,0,0484_ske_dnn_0_clock_00_clock-0099-sketch-6.png,clock-0099-sketch-6.png,1.0,5.0134435,1.2264901,2.6777806
vit_b_16,1,485,NaN,clock,clock,0,0485_ske_dnn_0_clock_00_clock-0110-sketch-15.png,clock-0110-sketch-15.png,1.0,5.5752616,0.30525798,3.7264555
vit_b_16,1,486,NaN,clock,clock,0,0486_ske_dnn_0_clock_00_clock-0112-sketch-17.png,clock-0112-sketch-17.png,1.0,6.060421,0.6169514,3.8491142
vit_b_16,1,487,NaN,clock,clock,0,0487_ske_dnn_0_clock_00_clock-0115-sketch-2.png,clock-0115-sketch-2.png,1.0,4.539591,1.4547755,2.181294
vit_b_16,1,488,NaN,clock,clock,0,0488_ske_dnn_0_clock_00_clock-0118-sketch-22.png,clock-0118-sketch-22.png,1.0,3.5472476,0.90835583,1.8659782
vit_b_16,1,489,NaN,clock,clock,0,0489_ske_dnn_0_clock_00_clock-0123-sketch-27.png,clock-0123-sketch-27.png,1.0,6.642097,0.9025254,4.0584903
vit_b_16,1,490,NaN,clock,clock,0,0490_ske_dnn_0_clock_00_clock-0127-sketch-30.png,clock-0127-sketch-30.png,1.0,6.0552287,0.43208474,3.9761634
vit_b_16,1,491,NaN,clock,clock,0,0491_ske_dnn_0_clock_00_clock-0131-sketch-34.png,clock-0131-sketch-34.png,1.0,5.9250507,0.79372036,3.6283987
vit_b_16,1,492,NaN,clock,clock,0,0492_ske_dnn_0_clock_00_clock-0132-sketch-35.png,clock-0132-sketch-35.png,1.0,5.678908,0.37769797,3.7485216
vit_b_16,1,493,NaN,clock,clock,0,0493_ske_dnn_0_clock_00_clock-0133-sketch-36.png,clock-0133-sketch-36.png,1.0,6.508362,0.6360074,4.152382
vit_b_16,1,494,NaN,clock,clock,0,0494_ske_dnn_0_clock_00_clock-0136-sketch-39.png,clock-0136-sketch-39.png,1.0,6.050438,0.27324384,4.085093
vit_b_16,1,495,NaN,clock,clock,0,0495_ske_dnn_0_clock_00_clock-0137-sketch-4.png,clock-0137-sketch-4.png,1.0,5.5071616,0.6573484,3.429336
vit_b_16,1,496,NaN,clock,clock,0,0496_ske_dnn_0_clock_00_clock-0138-sketch-40.png,clock-0138-sketch-40.png,1.0,6.1939874,0.35112783,4.131526
vit_b_16,1,497,NaN,clock,clock,0,0497_ske_dnn_0_clock_00_clock-0141-sketch-43.png,clock-0141-sketch-43.png,1.0,6.306728,1.1455356,3.6495142
vit_b_16,1,498,NaN,clock,clock,0,0498_ske_dnn_0_clock_00_clock-0143-sketch-45.png,clock-0143-sketch-45.png,1.0,5.7041173,2.0475607,2.585576
vit_b_16,1,499,NaN,clock,clock,0,0499_ske_dnn_0_clock_00_clock-0144-sketch-46.png,clock-0144-sketch-46.png,1.0,5.3534713,0.6184965,3.3481328
vit_b_16,1,500,NaN,clock,clock,0,0500_ske_dnn_0_clock_00_clock-0150-sketch-6.png,clock-0150-sketch-6.png,1.0,2.9690685,0.10166204,2.0275626
vit_b_16,1,501,NaN,boat,dog,0,0501_ske_dnn_0_dog_00_dog-0011-sketch-18.png,dog-0011-sketch-18.png,0.0,0.02464662,0.30304962,-0.19686066
vit_b_16,1,502,NaN,knife,dog,0,0502_ske_dnn_0_dog_00_dog-0111-sketch-17.png,dog-0111-sketch-17.png,0.0,1.0697626,1.2772878,-0.14674252
vit_b_16,1,503,NaN,knife,dog,0,0503_ske_dnn_0_dog_00_dog-0215-sketch-19.png,dog-0215-sketch-19.png,0.0,-0.11319969,3.5808873,-2.612114
vit_b_16,1,504,NaN,keyboard,dog,0,0504_ske_dnn_0_dog_00_dog-0243-sketch-44.png,dog-0243-sketch-44.png,0.0,0.7710022,1.1073196,-0.23781233
vit_b_16,1,505,NaN,dog,dog,0,0505_ske_dnn_0_dog_00_dog-0476-sketch-26.png,dog-0476-sketch-26.png,1.0,0.5591078,0.53556716,0.01664573
vit_b_16,1,506,NaN,bottle,dog,0,0506_ske_dnn_0_dog_00_dog-0607-sketch-8.png,dog-0607-sketch-8.png,0.0,-0.16121784,0.34550807,-0.35830933
vit_b_16,1,507,NaN,knife,dog,0,0507_ske_dnn_0_dog_00_dog-0630-sketch-28.png,dog-0630-sketch-28.png,0.0,-0.014172259,0.63426775,-0.45851633
vit_b_16,1,508,NaN,dog,dog,0,0508_ske_dnn_0_dog_00_dog-1035-sketch-27.png,dog-1035-sketch-27.png,1.0,1.0998014,0.49893212,0.42487878
vit_b_16,1,509,NaN,dog,dog,0,0509_ske_dnn_0_dog_00_dog-1292-sketch-3.png,dog-1292-sketch-3.png,1.0,1.1356331,0.017313493,0.7907714
vit_b_16,1,510,NaN,dog,dog,0,0510_ske_dnn_0_dog_00_dog-1393-sketch-3.png,dog-1393-sketch-3.png,1.0,1.3510605,0.10346346,0.8821844
vit_b_16,1,511,NaN,keyboard,dog,0,0511_ske_dnn_0_dog_00_dog-1460-sketch-44.png,dog-1460-sketch-44.png,0.0,0.605312,0.66834766,-0.04457295
vit_b_16,1,512,NaN,knife,dog,0,0512_ske_dnn_0_dog_00_dog-1617-sketch-48.png,dog-1617-sketch-48.png,0.0,-0.42409635,2.59417,-2.1342368
vit_b_16,1,513,NaN,airplane,dog,0,0513_ske_dnn_0_dog_00_dog-1657-sketch-38.png,dog-1657-sketch-38.png,0.0,-0.3489063,0.48209614,-0.5876075
vit_b_16,1,514,NaN,dog,dog,0,0514_ske_dnn_0_dog_00_dog-1711-sketch-40.png,dog-1711-sketch-40.png,1.0,0.64930797,0.57184184,0.05477683
vit_b_16,1,515,NaN,clock,dog,0,0515_ske_dnn_0_dog_00_dog-1759-sketch-38.png,dog-1759-sketch-38.png,0.0,0.16765153,2.1467915,-1.3994633
vit_b_16,1,516,NaN,knife,dog,0,0516_ske_dnn_0_dog_00_dog-1797-sketch-26.png,dog-1797-sketch-26.png,0.0,-0.37512764,2.3964248,-1.9597834
vit_b_16,1,517,NaN,dog,dog,0,0517_ske_dnn_0_dog_00_dog-1973-sketch-47.png,dog-1973-sketch-47.png,1.0,0.97675854,0.88131255,0.06749051
vit_b_16,1,518,NaN,clock,dog,0,0518_ske_dnn_0_dog_00_dog-2150-sketch-22.png,dog-2150-sketch-22.png,0.0,0.17280088,1.0434071,-0.61561155
vit_b_16,1,519,NaN,knife,dog,0,0519_ske_dnn_0_dog_00_dog-2198-sketch-20.png,dog-2198-sketch-20.png,0.0,-0.22543988,3.2611942,-2.4654226
vit_b_16,1,520,NaN,airplane,dog,0,0520_ske_dnn_0_dog_00_dog-2291-sketch-12.png,dog-2291-sketch-12.png,0.0,-0.4034253,0.41681272,-0.5799959
vit_b_16,1,521,NaN,dog,dog,0,0521_ske_dnn_0_dog_00_dog-2323-sketch-41.png,dog-2323-sketch-41.png,1.0,1.4685426,0.8074131,0.46748915
vit_b_16,1,522,NaN,clock,dog,0,0522_ske_dnn_0_dog_00_dog-2454-sketch-21.png,dog-2454-sketch-21.png,0.0,0.27011457,1.6521031,-0.9772135
vit_b_16,1,523,NaN,dog,dog,0,0523_ske_dnn_0_dog_00_dog-2506-sketch-23.png,dog-2506-sketch-23.png,1.0,0.87076926,0.17923693,0.4889872
vit_b_16,1,524,NaN,dog,dog,0,0524_ske_dnn_0_dog_00_dog-2541-sketch-0.png,dog-2541-sketch-0.png,1.0,0.6775767,0.4712262,0.14591187
vit_b_16,1,525,NaN,dog,dog,0,0525_ske_dnn_0_dog_00_dog-2615-sketch-3.png,dog-2615-sketch-3.png,1.0,0.577844,0.3768993,0.14208938
vit_b_16,1,526,NaN,dog,dog,0,0526_ske_dnn_0_dog_00_dog-2948-sketch-10.png,dog-2948-sketch-10.png,1.0,0.82498515,0.1666542,0.46551025
vit_b_16,1,527,NaN,dog,dog,0,0527_ske_dnn_0_dog_00_dog-3000-sketch-11.png,dog-3000-sketch-11.png,1.0,0.31810004,0.31660742,0.0010554414
vit_b_16,1,528,NaN,clock,dog,0,0528_ske_dnn_0_dog_00_dog-3153-sketch-11.png,dog-3153-sketch-11.png,0.0,-0.35527956,1.3670448,-1.2178673
vit_b_16,1,529,NaN,car,dog,0,0529_ske_dnn_0_dog_00_dog-3251-sketch-9.png,dog-3251-sketch-9.png,0.0,0.30516818,0.3101387,-0.003514689
vit_b_16,1,530,NaN,knife,dog,0,0530_ske_dnn_0_dog_00_dog-3303-sketch-0.png,dog-3303-sketch-0.png,0.0,0.23950164,0.3573807,-0.08335307
vit_b_16,1,531,NaN,dog,dog,0,0531_ske_dnn_0_dog_00_dog-3338-sketch-40.png,dog-3338-sketch-40.png,1.0,0.29113433,0.28684673,0.0030317914
vit_b_16,1,532,NaN,dog,dog,0,0532_ske_dnn_0_dog_00_dog-3417-sketch-2.png,dog-3417-sketch-2.png,1.0,0.7010433,0.15100136,0.38893837
vit_b_16,1,533,NaN,dog,dog,0,0533_ske_dnn_0_dog_00_dog-3503-sketch-6.png,dog-3503-sketch-6.png,1.0,0.70636725,0.5409423,0.1169731
vit_b_16,1,534,NaN,cat,dog,0,0534_ske_dnn_0_dog_00_dog-3573-sketch-22.png,dog-3573-sketch-22.png,0.0,0.33267388,1.0521293,-0.5087318
vit_b_16,1,535,NaN,boat,dog,0,0535_ske_dnn_0_dog_00_dog-3646-sketch-42.png,dog-3646-sketch-42.png,0.0,-0.14504531,0.27310628,-0.29567784
vit_b_16,1,536,NaN,cat,dog,0,0536_ske_dnn_0_dog_00_dog-3695-sketch-40.png,dog-3695-sketch-40.png,0.0,0.74733335,0.8529923,-0.07471216
vit_b_16,1,537,NaN,chair,dog,0,0537_ske_dnn_0_dog_00_dog-3915-sketch-0.png,dog-3915-sketch-0.png,0.0,0.66303295,1.7680511,-0.7813658
vit_b_16,1,538,NaN,airplane,dog,0,0538_ske_dnn_0_dog_00_dog-4202-sketch-4.png,dog-4202-sketch-4.png,0.0,-0.4188987,0.5806711,-0.7068026
vit_b_16,1,539,NaN,dog,dog,0,0539_ske_dnn_0_dog_00_dog-4208-sketch-45.png,dog-4208-sketch-45.png,1.0,1.023184,0.36741585,0.4636981
vit_b_16,1,540,NaN,dog,dog,0,0540_ske_dnn_0_dog_00_dog-4325-sketch-13.png,dog-4325-sketch-13.png,1.0,0.87737983,0.29267743,0.41344702
vit_b_16,1,541,NaN,dog,dog,0,0541_ske_dnn_0_dog_00_dog-4475-sketch-11.png,dog-4475-sketch-11.png,1.0,1.0508872,0.536822,0.363499
vit_b_16,1,542,NaN,knife,dog,0,0542_ske_dnn_0_dog_00_dog-4499-sketch-33.png,dog-4499-sketch-33.png,0.0,-0.33835024,1.4580079,-1.2702171
vit_b_16,1,543,NaN,oven,dog,0,0543_ske_dnn_0_dog_00_dog-4581-sketch-16.png,dog-4581-sketch-16.png,0.0,0.62914383,0.9254527,-0.20952202
vit_b_16,1,544,NaN,knife,dog,0,0544_ske_dnn_0_dog_00_dog-4709-sketch-4.png,dog-4709-sketch-4.png,0.0,-0.1163343,1.0133133,-0.7987815
vit_b_16,1,545,NaN,cat,dog,0,0545_ske_dnn_0_dog_00_dog-4909-sketch-37.png,dog-4909-sketch-37.png,0.0,0.47580662,0.592654,-0.08262356
vit_b_16,1,546,NaN,cat,dog,0,0546_ske_dnn_0_dog_00_dog-5028-sketch-8.png,dog-5028-sketch-8.png,0.0,0.61269736,1.4278841,-0.57642406
vit_b_16,1,547,NaN,bear,dog,0,0547_ske_dnn_0_dog_00_dog-5084-sketch-11.png,dog-5084-sketch-11.png,0.0,0.54336995,1.049152,-0.35764194
vit_b_16,1,548,NaN,knife,dog,0,0548_ske_dnn_0_dog_00_dog-5223-sketch-45.png,dog-5223-sketch-45.png,0.0,-0.48610902,1.4422976,-1.3635894
vit_b_16,1,549,NaN,dog,dog,0,0549_ske_dnn_0_dog_00_dog-5325-sketch-45.png,dog-5325-sketch-45.png,1.0,0.349082,0.29627374,0.037341077
vit_b_16,1,550,NaN,knife,dog,0,0550_ske_dnn_0_dog_00_dog-5354-sketch-25.png,dog-5354-sketch-25.png,0.0,-0.16418707,0.5531418,-0.5072281
vit_b_16,1,551,NaN,elephant,elephant,0,0551_ske_dnn_0_elephant_00_elephant-0001-sketch-0.png,elephant-0001-sketch-0.png,1.0,7.574195,0.7595359,4.8186917
vit_b_16,1,552,NaN,elephant,elephant,0,0552_ske_dnn_0_elephant_00_elephant-0002-sketch-1.png,elephant-0002-sketch-1.png,1.0,8.260927,0.4870949,5.4969296
vit_b_16,1,553,NaN,elephant,elephant,0,0553_ske_dnn_0_elephant_00_elephant-0006-sketch-13.png,elephant-0006-sketch-13.png,1.0,6.7874804,1.4166019,3.7977846
vit_b_16,1,554,NaN,chair,elephant,0,0554_ske_dnn_0_elephant_00_elephant-0011-sketch-18.png,elephant-0011-sketch-18.png,0.0,-0.40565363,4.362281,-3.3714387
vit_b_16,1,555,NaN,knife,elephant,0,0555_ske_dnn_0_elephant_00_elephant-0012-sketch-19.png,elephant-0012-sketch-19.png,0.0,0.06428015,1.9210023,-1.3129008
vit_b_16,1,556,NaN,elephant,elephant,0,0556_ske_dnn_0_elephant_00_elephant-0013-sketch-2.png,elephant-0013-sketch-2.png,1.0,4.3925457,0.7503294,2.5754359
vit_b_16,1,557,NaN,elephant,elephant,0,0557_ske_dnn_0_elephant_00_elephant-0014-sketch-20.png,elephant-0014-sketch-20.png,1.0,6.036912,1.1041963,3.4879565
vit_b_16,1,558,NaN,elephant,elephant,0,0558_ske_dnn_0_elephant_00_elephant-0015-sketch-21.png,elephant-0015-sketch-21.png,1.0,1.2104869,1.1629624,0.033604864
vit_b_16,1,559,NaN,knife,elephant,0,0559_ske_dnn_0_elephant_00_elephant-0016-sketch-22.png,elephant-0016-sketch-22.png,0.0,-0.5642191,5.217238,-4.0881076
vit_b_16,1,560,NaN,elephant,elephant,0,0560_ske_dnn_0_elephant_00_elephant-0019-sketch-25.png,elephant-0019-sketch-25.png,1.0,7.225934,0.4812367,4.7692213
vit_b_16,1,561,NaN,knife,elephant,0,0561_ske_dnn_0_elephant_00_elephant-0020-sketch-26.png,elephant-0020-sketch-26.png,0.0,1.6783307,2.2725132,-0.4201505
vit_b_16,1,562,NaN,knife,elephant,0,0562_ske_dnn_0_elephant_00_elephant-0021-sketch-27.png,elephant-0021-sketch-27.png,0.0,0.7472609,2.271161,-1.0775602
vit_b_16,1,563,NaN,knife,elephant,0,0563_ske_dnn_0_elephant_00_elephant-0022-sketch-28.png,elephant-0022-sketch-28.png,0.0,0.6888062,1.6950583,-0.71152776
vit_b_16,1,564,NaN,elephant,elephant,0,0564_ske_dnn_0_elephant_00_elephant-0025-sketch-30.png,elephant-0025-sketch-30.png,1.0,4.5389595,1.0741761,2.449972
vit_b_16,1,565,NaN,elephant,elephant,0,0565_ske_dnn_0_elephant_00_elephant-0028-sketch-33.png,elephant-0028-sketch-33.png,1.0,8.416968,0.39484316,5.672499
vit_b_16,1,566,NaN,elephant,elephant,0,0566_ske_dnn_0_elephant_00_elephant-0029-sketch-34.png,elephant-0029-sketch-34.png,1.0,3.8214767,0.67645466,2.2238665
vit_b_16,1,567,NaN,knife,elephant,0,0567_ske_dnn_0_elephant_00_elephant-0030-sketch-35.png,elephant-0030-sketch-35.png,0.0,0.26317775,2.9316974,-1.8869283
vit_b_16,1,568,NaN,elephant,elephant,0,0568_ske_dnn_0_elephant_00_elephant-0032-sketch-37.png,elephant-0032-sketch-37.png,1.0,7.727793,0.57577264,5.0572424
vit_b_16,1,569,NaN,knife,elephant,0,0569_ske_dnn_0_elephant_00_elephant-0033-sketch-38.png,elephant-0033-sketch-38.png,0.0,0.021292577,1.5613711,-1.089
vit_b_16,1,570,NaN,elephant,elephant,0,0570_ske_dnn_0_elephant_00_elephant-0037-sketch-41.png,elephant-0037-sketch-41.png,1.0,5.5426836,1.0174768,3.1998043
vit_b_16,1,571,NaN,elephant,elephant,0,0571_ske_dnn_0_elephant_00_elephant-0039-sketch-43.png,elephant-0039-sketch-43.png,1.0,6.433054,0.6559728,4.0850134
vit_b_16,1,572,NaN,elephant,elephant,0,0572_ske_dnn_0_elephant_00_elephant-0040-sketch-44.png,elephant-0040-sketch-44.png,1.0,8.113491,0.44109306,5.4252048
vit_b_16,1,573,NaN,elephant,elephant,0,0573_ske_dnn_0_elephant_00_elephant-0043-sketch-47.png,elephant-0043-sketch-47.png,1.0,1.6609656,0.9006815,0.537602
vit_b_16,1,574,NaN,elephant,elephant,0,0574_ske_dnn_0_elephant_00_elephant-0044-sketch-48.png,elephant-0044-sketch-48.png,1.0,4.9003296,0.6455477,3.008585
vit_b_16,1,575,NaN,elephant,elephant,0,0575_ske_dnn_0_elephant_00_elephant-0046-sketch-5.png,elephant-0046-sketch-5.png,1.0,7.7672076,0.48359072,5.1502953
vit_b_16,1,576,NaN,chair,elephant,0,0576_ske_dnn_0_elephant_00_elephant-0047-sketch-50.png,elephant-0047-sketch-50.png,0.0,-0.3764556,4.1450872,-3.197214
vit_b_16,1,577,NaN,knife,elephant,0,0577_ske_dnn_0_elephant_00_elephant-0048-sketch-6.png,elephant-0048-sketch-6.png,0.0,0.0011501834,1.8700204,-1.3214909
vit_b_16,1,578,NaN,elephant,elephant,0,0578_ske_dnn_0_elephant_00_elephant-0050-sketch-8.png,elephant-0050-sketch-8.png,1.0,5.1542873,1.1705197,2.8169491
vit_b_16,1,579,NaN,elephant,elephant,0,0579_ske_dnn_0_elephant_00_elephant-0052-sketch-0.png,elephant-0052-sketch-0.png,1.0,8.097978,1.1234626,4.931727
vit_b_16,1,580,NaN,elephant,elephant,0,0580_ske_dnn_0_elephant_00_elephant-0054-sketch-10.png,elephant-0054-sketch-10.png,1.0,4.1272035,0.7215404,2.4081674
vit_b_16,1,581,NaN,knife,elephant,0,0581_ske_dnn_0_elephant_00_elephant-0055-sketch-11.png,elephant-0055-sketch-11.png,0.0,0.18194166,1.253876,-0.75797206
vit_b_16,1,582,NaN,elephant,elephant,0,0582_ske_dnn_0_elephant_00_elephant-0057-sketch-13.png,elephant-0057-sketch-13.png,1.0,5.210601,0.9165713,3.0363376
vit_b_16,1,583,NaN,elephant,elephant,0,0583_ske_dnn_0_elephant_00_elephant-0058-sketch-14.png,elephant-0058-sketch-14.png,1.0,6.6145935,0.3692028,4.416158
vit_b_16,1,584,NaN,elephant,elephant,0,0584_ske_dnn_0_elephant_00_elephant-0061-sketch-17.png,elephant-0061-sketch-17.png,1.0,7.258095,0.32644466,4.901417
vit_b_16,1,585,NaN,elephant,elephant,0,0585_ske_dnn_0_elephant_00_elephant-0062-sketch-18.png,elephant-0062-sketch-18.png,1.0,4.9797187,1.3971581,2.533253
vit_b_16,1,586,NaN,knife,elephant,0,0586_ske_dnn_0_elephant_00_elephant-0065-sketch-20.png,elephant-0065-sketch-20.png,0.0,0.9484471,3.600437,-1.8752401
vit_b_16,1,587,NaN,elephant,elephant,0,0587_ske_dnn_0_elephant_00_elephant-0066-sketch-21.png,elephant-0066-sketch-21.png,1.0,7.2709084,0.6865102,4.655873
vit_b_16,1,588,NaN,elephant,elephant,0,0588_ske_dnn_0_elephant_00_elephant-0071-sketch-26.png,elephant-0071-sketch-26.png,1.0,7.301038,0.5009559,4.808384
vit_b_16,1,589,NaN,knife,elephant,0,0589_ske_dnn_0_elephant_00_elephant-0075-sketch-3.png,elephant-0075-sketch-3.png,0.0,1.5896217,3.4873617,-1.3419049
vit_b_16,1,590,NaN,knife,elephant,0,0590_ske_dnn_0_elephant_00_elephant-0076-sketch-30.png,elephant-0076-sketch-30.png,0.0,-0.5664797,2.376153,-2.0807555
vit_b_16,1,591,NaN,elephant,elephant,0,0591_ske_dnn_0_elephant_00_elephant-0077-sketch-31.png,elephant-0077-sketch-31.png,1.0,7.1150265,0.718327,4.5231495
vit_b_16,1,592,NaN,elephant,elephant,0,0592_ske_dnn_0_elephant_00_elephant-0079-sketch-33.png,elephant-0079-sketch-33.png,1.0,5.980515,0.80539274,3.6593642
vit_b_16,1,593,NaN,elephant,elephant,0,0593_ske_dnn_0_elephant_00_elephant-0080-sketch-34.png,elephant-0080-sketch-34.png,1.0,2.7325587,2.376655,0.25166187
vit_b_16,1,594,NaN,elephant,elephant,0,0594_ske_dnn_0_elephant_00_elephant-0082-sketch-36.png,elephant-0082-sketch-36.png,1.0,3.969191,0.88286173,2.1823645
vit_b_16,1,595,NaN,elephant,elephant,0,0595_ske_dnn_0_elephant_00_elephant-0086-sketch-4.png,elephant-0086-sketch-4.png,1.0,5.197073,0.7599128,3.137546
vit_b_16,1,596,NaN,elephant,elephant,0,0596_ske_dnn_0_elephant_00_elephant-0090-sketch-43.png,elephant-0090-sketch-43.png,1.0,7.446966,0.6390301,4.813938
vit_b_16,1,597,NaN,elephant,elephant,0,0597_ske_dnn_0_elephant_00_elephant-0094-sketch-47.png,elephant-0094-sketch-47.png,1.0,7.7084928,0.8864995,4.823878
vit_b_16,1,598,NaN,knife,elephant,0,0598_ske_dnn_0_elephant_00_elephant-0098-sketch-50.png,elephant-0098-sketch-50.png,0.0,0.064975254,2.047834,-1.4020928
vit_b_16,1,599,NaN,elephant,elephant,0,0599_ske_dnn_0_elephant_00_elephant-0100-sketch-7.png,elephant-0100-sketch-7.png,1.0,6.7309265,0.39593294,4.479517
vit_b_16,1,600,NaN,knife,elephant,0,0600_ske_dnn_0_elephant_00_elephant-0101-sketch-8.png,elephant-0101-sketch-8.png,0.0,0.13345522,1.9230295,-1.2654202
vit_b_16,1,601,NaN,keyboard,keyboard,0,0601_ske_dnn_0_keyboard_00_keyboard-0002-sketch-1.png,keyboard-0002-sketch-1.png,1.0,7.0160465,0.6846254,4.4769907
vit_b_16,1,602,NaN,keyboard,keyboard,0,0602_ske_dnn_0_keyboard_00_keyboard-0003-sketch-10.png,keyboard-0003-sketch-10.png,1.0,2.7545946,0.9654847,1.2650918
vit_b_16,1,603,NaN,keyboard,keyboard,0,0603_ske_dnn_0_keyboard_00_keyboard-0004-sketch-11.png,keyboard-0004-sketch-11.png,1.0,7.6354218,0.92613095,4.7441854
vit_b_16,1,604,NaN,keyboard,keyboard,0,0604_ske_dnn_0_keyboard_00_keyboard-0005-sketch-12.png,keyboard-0005-sketch-12.png,1.0,7.6017914,1.7134618,4.1636777
vit_b_16,1,605,NaN,keyboard,keyboard,0,0605_ske_dnn_0_keyboard_00_keyboard-0006-sketch-13.png,keyboard-0006-sketch-13.png,1.0,6.2300844,0.6981901,3.91164
vit_b_16,1,606,NaN,keyboard,keyboard,0,0606_ske_dnn_0_keyboard_00_keyboard-0007-sketch-14.png,keyboard-0007-sketch-14.png,1.0,7.6847563,0.36061874,5.1789474
vit_b_16,1,607,NaN,keyboard,keyboard,0,0607_ske_dnn_0_keyboard_00_keyboard-0008-sketch-15.png,keyboard-0008-sketch-15.png,1.0,7.8019066,0.78222716,4.963663
vit_b_16,1,608,NaN,keyboard,keyboard,0,0608_ske_dnn_0_keyboard_00_keyboard-0009-sketch-16.png,keyboard-0009-sketch-16.png,1.0,7.549838,1.3476272,4.3856254
vit_b_16,1,609,NaN,knife,keyboard,0,0609_ske_dnn_0_keyboard_00_keyboard-0010-sketch-17.png,keyboard-0010-sketch-17.png,0.0,1.0664532,1.75764,-0.48874286
vit_b_16,1,610,NaN,keyboard,keyboard,0,0610_ske_dnn_0_keyboard_00_keyboard-0014-sketch-20.png,keyboard-0014-sketch-20.png,1.0,7.40813,0.7831794,4.684548
vit_b_16,1,611,NaN,keyboard,keyboard,0,0611_ske_dnn_0_keyboard_00_keyboard-0016-sketch-22.png,keyboard-0016-sketch-22.png,1.0,7.6890717,0.6089914,5.0063725
vit_b_16,1,612,NaN,keyboard,keyboard,0,0612_ske_dnn_0_keyboard_00_keyboard-0017-sketch-23.png,keyboard-0017-sketch-23.png,1.0,7.04611,1.0706627,4.22528
vit_b_16,1,613,NaN,keyboard,keyboard,0,0613_ske_dnn_0_keyboard_00_keyboard-0019-sketch-25.png,keyboard-0019-sketch-25.png,1.0,6.3240366,0.97468626,3.782562
vit_b_16,1,614,NaN,keyboard,keyboard,0,0614_ske_dnn_0_keyboard_00_keyboard-0022-sketch-28.png,keyboard-0022-sketch-28.png,1.0,6.59521,0.56759906,4.2621646
vit_b_16,1,615,NaN,keyboard,keyboard,0,0615_ske_dnn_0_keyboard_00_keyboard-0023-sketch-29.png,keyboard-0023-sketch-29.png,1.0,7.7203984,0.546427,5.072764
vit_b_16,1,616,NaN,keyboard,keyboard,0,0616_ske_dnn_0_keyboard_00_keyboard-0026-sketch-31.png,keyboard-0026-sketch-31.png,1.0,7.0322037,0.66015124,4.5057216
vit_b_16,1,617,NaN,clock,keyboard,0,0617_ske_dnn_0_keyboard_00_keyboard-0028-sketch-33.png,keyboard-0028-sketch-33.png,0.0,-0.31358957,1.3670448,-1.188388
vit_b_16,1,618,NaN,keyboard,keyboard,0,0618_ske_dnn_0_keyboard_00_keyboard-0029-sketch-34.png,keyboard-0029-sketch-34.png,1.0,7.7990465,0.9032694,4.876051
vit_b_16,1,619,NaN,keyboard,keyboard,0,0619_ske_dnn_0_keyboard_00_keyboard-0031-sketch-36.png,keyboard-0031-sketch-36.png,1.0,7.1653757,0.944143,4.399076
vit_b_16,1,620,NaN,keyboard,keyboard,0,0620_ske_dnn_0_keyboard_00_keyboard-0033-sketch-38.png,keyboard-0033-sketch-38.png,1.0,6.214654,1.0667573,3.6401129
vit_b_16,1,621,NaN,keyboard,keyboard,0,0621_ske_dnn_0_keyboard_00_keyboard-0034-sketch-39.png,keyboard-0034-sketch-39.png,1.0,4.144307,2.5459232,1.1302282
vit_b_16,1,622,NaN,keyboard,keyboard,0,0622_ske_dnn_0_keyboard_00_keyboard-0035-sketch-4.png,keyboard-0035-sketch-4.png,1.0,7.63939,0.9858121,4.70479
vit_b_16,1,623,NaN,keyboard,keyboard,0,0623_ske_dnn_0_keyboard_00_keyboard-0037-sketch-41.png,keyboard-0037-sketch-41.png,1.0,7.6559134,0.98032147,4.7203565
vit_b_16,1,624,NaN,keyboard,keyboard,0,0624_ske_dnn_0_keyboard_00_keyboard-0038-sketch-42.png,keyboard-0038-sketch-42.png,1.0,7.6033144,1.7834259,4.1152825
vit_b_16,1,625,NaN,keyboard,keyboard,0,0625_ske_dnn_0_keyboard_00_keyboard-0039-sketch-43.png,keyboard-0039-sketch-43.png,1.0,6.1135716,0.55849034,3.9280357
vit_b_16,1,626,NaN,keyboard,keyboard,0,0626_ske_dnn_0_keyboard_00_keyboard-0041-sketch-45.png,keyboard-0041-sketch-45.png,1.0,7.818309,0.752409,4.996346
vit_b_16,1,627,NaN,keyboard,keyboard,0,0627_ske_dnn_0_keyboard_00_keyboard-0042-sketch-46.png,keyboard-0042-sketch-46.png,1.0,7.5942144,1.2987986,4.4515314
vit_b_16,1,628,NaN,knife,keyboard,0,0628_ske_dnn_0_keyboard_00_keyboard-0043-sketch-47.png,keyboard-0043-sketch-47.png,0.0,0.9929918,2.0314782,-0.73432076
vit_b_16,1,629,NaN,keyboard,keyboard,0,0629_ske_dnn_0_keyboard_00_keyboard-0044-sketch-48.png,keyboard-0044-sketch-48.png,1.0,7.5312243,0.44195834,5.012868
vit_b_16,1,630,NaN,keyboard,keyboard,0,0630_ske_dnn_0_keyboard_00_keyboard-0045-sketch-49.png,keyboard-0045-sketch-49.png,1.0,7.321685,0.94991136,4.5055246
vit_b_16,1,631,NaN,keyboard,keyboard,0,0631_ske_dnn_0_keyboard_00_keyboard-0047-sketch-50.png,keyboard-0047-sketch-50.png,1.0,7.4177065,0.7372755,4.7237782
vit_b_16,1,632,NaN,keyboard,keyboard,0,0632_ske_dnn_0_keyboard_00_keyboard-0049-sketch-7.png,keyboard-0049-sketch-7.png,1.0,7.142415,0.7462298,4.522786
vit_b_16,1,633,NaN,knife,keyboard,0,0633_ske_dnn_0_keyboard_00_keyboard-0052-sketch-0.png,keyboard-0052-sketch-0.png,0.0,1.8707104,3.8767886,-1.4185115
vit_b_16,1,634,NaN,keyboard,keyboard,0,0634_ske_dnn_0_keyboard_00_keyboard-0053-sketch-1.png,keyboard-0053-sketch-1.png,1.0,6.949815,1.0259506,4.1888046
vit_b_16,1,635,NaN,keyboard,keyboard,0,0635_ske_dnn_0_keyboard_00_keyboard-0059-sketch-15.png,keyboard-0059-sketch-15.png,1.0,5.669477,0.564895,3.6094844
vit_b_16,1,636,NaN,keyboard,keyboard,0,0636_ske_dnn_0_keyboard_00_keyboard-0061-sketch-17.png,keyboard-0061-sketch-17.png,1.0,5.800201,0.2419283,3.9302924
vit_b_16,1,637,NaN,keyboard,keyboard,0,0637_ske_dnn_0_keyboard_00_keyboard-0062-sketch-18.png,keyboard-0062-sketch-18.png,1.0,5.4811063,3.8666186,1.1416152
vit_b_16,1,638,NaN,keyboard,keyboard,0,0638_ske_dnn_0_keyboard_00_keyboard-0063-sketch-19.png,keyboard-0063-sketch-19.png,1.0,6.8240943,1.0565051,4.0783014
vit_b_16,1,639,NaN,keyboard,keyboard,0,0639_ske_dnn_0_keyboard_00_keyboard-0064-sketch-2.png,keyboard-0064-sketch-2.png,1.0,6.1968737,0.705959,3.8826632
vit_b_16,1,640,NaN,keyboard,keyboard,0,0640_ske_dnn_0_keyboard_00_keyboard-0068-sketch-23.png,keyboard-0068-sketch-23.png,1.0,6.2750263,1.0396658,3.7019591
vit_b_16,1,641,NaN,knife,keyboard,0,0641_ske_dnn_0_keyboard_00_keyboard-0071-sketch-26.png,keyboard-0071-sketch-26.png,0.0,0.19303703,3.7413838,-2.5090601
vit_b_16,1,642,NaN,keyboard,keyboard,0,0642_ske_dnn_0_keyboard_00_keyboard-0074-sketch-29.png,keyboard-0074-sketch-29.png,1.0,5.424481,0.68342,3.3524363
vit_b_16,1,643,NaN,keyboard,keyboard,0,0643_ske_dnn_0_keyboard_00_keyboard-0076-sketch-30.png,keyboard-0076-sketch-30.png,1.0,5.5937357,0.54090863,3.5728881
vit_b_16,1,644,NaN,keyboard,keyboard,0,0644_ske_dnn_0_keyboard_00_keyboard-0084-sketch-38.png,keyboard-0084-sketch-38.png,1.0,5.943934,0.5105182,3.8420053
vit_b_16,1,645,NaN,keyboard,keyboard,0,0645_ske_dnn_0_keyboard_00_keyboard-0085-sketch-39.png,keyboard-0085-sketch-39.png,1.0,2.1822758,1.1945013,0.69846207
vit_b_16,1,646,NaN,keyboard,keyboard,0,0646_ske_dnn_0_keyboard_00_keyboard-0086-sketch-4.png,keyboard-0086-sketch-4.png,1.0,6.0485725,0.829895,3.6901624
vit_b_16,1,647,NaN,keyboard,keyboard,0,0647_ske_dnn_0_keyboard_00_keyboard-0087-sketch-40.png,keyboard-0087-sketch-40.png,1.0,6.229373,2.068161,2.9424212
vit_b_16,1,648,NaN,chair,keyboard,0,0648_ske_dnn_0_keyboard_00_keyboard-0088-sketch-41.png,keyboard-0088-sketch-41.png,0.0,2.9083314,3.6222563,-0.5048211
vit_b_16,1,649,NaN,keyboard,keyboard,0,0649_ske_dnn_0_keyboard_00_keyboard-0091-sketch-44.png,keyboard-0091-sketch-44.png,1.0,5.638554,2.297583,2.3624232
vit_b_16,1,650,NaN,keyboard,keyboard,0,0650_ske_dnn_0_keyboard_00_keyboard-0098-sketch-50.png,keyboard-0098-sketch-50.png,1.0,6.8136535,1.1134496,4.030653
vit_b_16,1,651,NaN,knife,knife,0,0651_ske_dnn_0_knife_00_knife-0001-sketch-0.png,knife-0001-sketch-0.png,1.0,5.908985,1.7198796,2.9621449
vit_b_16,1,652,NaN,knife,knife,0,0652_ske_dnn_0_knife_00_knife-0002-sketch-1.png,knife-0002-sketch-1.png,1.0,3.877719,3.030004,0.59942496
vit_b_16,1,653,NaN,knife,knife,0,0653_ske_dnn_0_knife_00_knife-0004-sketch-11.png,knife-0004-sketch-11.png,1.0,4.05689,1.1909398,2.026533
vit_b_16,1,654,NaN,knife,knife,0,0654_ske_dnn_0_knife_00_knife-0005-sketch-12.png,knife-0005-sketch-12.png,1.0,9.193145,0.7205852,5.9910045
vit_b_16,1,655,NaN,knife,knife,0,0655_ske_dnn_0_knife_00_knife-0006-sketch-13.png,knife-0006-sketch-13.png,1.0,8.260824,0.5312786,5.4656143
vit_b_16,1,656,NaN,knife,knife,0,0656_ske_dnn_0_knife_00_knife-0007-sketch-14.png,knife-0007-sketch-14.png,1.0,7.41151,0.607704,4.8110175
vit_b_16,1,657,NaN,knife,knife,0,0657_ske_dnn_0_knife_00_knife-0008-sketch-15.png,knife-0008-sketch-15.png,1.0,8.660987,0.78753555,5.567371
vit_b_16,1,658,NaN,knife,knife,0,0658_ske_dnn_0_knife_00_knife-0009-sketch-16.png,knife-0009-sketch-16.png,1.0,8.931888,0.3732667,6.0518584
vit_b_16,1,659,NaN,knife,knife,0,0659_ske_dnn_0_knife_00_knife-0010-sketch-17.png,knife-0010-sketch-17.png,1.0,9.3116,0.5204039,6.2163143
vit_b_16,1,660,NaN,knife,knife,0,0660_ske_dnn_0_knife_00_knife-0011-sketch-18.png,knife-0011-sketch-18.png,1.0,10.24057,1.1275693,6.443865
vit_b_16,1,661,NaN,knife,knife,0,0661_ske_dnn_0_knife_00_knife-0012-sketch-19.png,knife-0012-sketch-19.png,1.0,6.8826685,1.8839773,3.5346084
vit_b_16,1,662,NaN,knife,knife,0,0662_ske_dnn_0_knife_00_knife-0013-sketch-2.png,knife-0013-sketch-2.png,1.0,8.91505,0.49149865,5.95635
vit_b_16,1,663,NaN,knife,knife,0,0663_ske_dnn_0_knife_00_knife-0014-sketch-20.png,knife-0014-sketch-20.png,1.0,2.9607477,2.6090655,0.24867687
vit_b_16,1,664,NaN,knife,knife,0,0664_ske_dnn_0_knife_00_knife-0015-sketch-21.png,knife-0015-sketch-21.png,1.0,9.134091,0.85885715,5.8514743
vit_b_16,1,665,NaN,knife,knife,0,0665_ske_dnn_0_knife_00_knife-0016-sketch-22.png,knife-0016-sketch-22.png,1.0,4.409555,1.366256,2.1519375
vit_b_16,1,666,NaN,knife,knife,0,0666_ske_dnn_0_knife_00_knife-0017-sketch-23.png,knife-0017-sketch-23.png,1.0,3.1927526,0.3816277,1.9877654
vit_b_16,1,667,NaN,knife,knife,0,0667_ske_dnn_0_knife_00_knife-0018-sketch-24.png,knife-0018-sketch-24.png,1.0,7.323501,1.3020078,4.2578387
vit_b_16,1,668,NaN,knife,knife,0,0668_ske_dnn_0_knife_00_knife-0019-sketch-25.png,knife-0019-sketch-25.png,1.0,10.199645,1.4664183,6.175324
vit_b_16,1,669,NaN,knife,knife,0,0669_ske_dnn_0_knife_00_knife-0020-sketch-26.png,knife-0020-sketch-26.png,1.0,7.1934724,0.8887371,4.4581213
vit_b_16,1,670,NaN,knife,knife,0,0670_ske_dnn_0_knife_00_knife-0021-sketch-27.png,knife-0021-sketch-27.png,1.0,2.1577232,1.5699705,0.41560394
vit_b_16,1,671,NaN,knife,knife,0,0671_ske_dnn_0_knife_00_knife-0022-sketch-28.png,knife-0022-sketch-28.png,1.0,9.148069,0.6207063,6.029756
vit_b_16,1,672,NaN,knife,knife,0,0672_ske_dnn_0_knife_00_knife-0023-sketch-29.png,knife-0023-sketch-29.png,1.0,8.580965,0.7711133,5.522399
vit_b_16,1,673,NaN,knife,knife,0,0673_ske_dnn_0_knife_00_knife-0024-sketch-3.png,knife-0024-sketch-3.png,1.0,9.437346,0.51069826,6.3120937
vit_b_16,1,674,NaN,knife,knife,0,0674_ske_dnn_0_knife_00_knife-0025-sketch-30.png,knife-0025-sketch-30.png,1.0,2.7700515,0.9624894,1.2781395
vit_b_16,1,675,NaN,knife,knife,0,0675_ske_dnn_0_knife_00_knife-0026-sketch-31.png,knife-0026-sketch-31.png,1.0,6.142946,2.1990063,2.7887864
vit_b_16,1,676,NaN,knife,knife,0,0676_ske_dnn_0_knife_00_knife-0027-sketch-32.png,knife-0027-sketch-32.png,1.0,4.060395,2.9997458,0.7499921
vit_b_16,1,677,NaN,knife,knife,0,0677_ske_dnn_0_knife_00_knife-0028-sketch-33.png,knife-0028-sketch-33.png,1.0,9.035739,0.5459521,6.003186
vit_b_16,1,678,NaN,knife,knife,0,0678_ske_dnn_0_knife_00_knife-0029-sketch-34.png,knife-0029-sketch-34.png,1.0,8.69099,1.0280308,5.418531
vit_b_16,1,679,NaN,knife,knife,0,0679_ske_dnn_0_knife_00_knife-0030-sketch-35.png,knife-0030-sketch-35.png,1.0,7.1588936,1.2407898,4.1847315
vit_b_16,1,680,NaN,knife,knife,0,0680_ske_dnn_0_knife_00_knife-0031-sketch-36.png,knife-0031-sketch-36.png,1.0,4.609138,0.5694072,2.8565214
vit_b_16,1,681,NaN,knife,knife,0,0681_ske_dnn_0_knife_00_knife-0032-sketch-37.png,knife-0032-sketch-37.png,1.0,8.449994,1.4143206,4.9749727
vit_b_16,1,682,NaN,knife,knife,0,0682_ske_dnn_0_knife_00_knife-0033-sketch-38.png,knife-0033-sketch-38.png,1.0,1.8893036,1.4431835,0.3154545
vit_b_16,1,683,NaN,knife,knife,0,0683_ske_dnn_0_knife_00_knife-0034-sketch-39.png,knife-0034-sketch-39.png,1.0,9.154343,0.7051672,5.9744697
vit_b_16,1,684,NaN,knife,knife,0,0684_ske_dnn_0_knife_00_knife-0035-sketch-4.png,knife-0035-sketch-4.png,1.0,7.6722975,0.78944284,4.8669133
vit_b_16,1,685,NaN,knife,knife,0,0685_ske_dnn_0_knife_00_knife-0036-sketch-40.png,knife-0036-sketch-40.png,1.0,9.300561,0.45185626,6.256979
vit_b_16,1,686,NaN,knife,knife,0,0686_ske_dnn_0_knife_00_knife-0037-sketch-41.png,knife-0037-sketch-41.png,1.0,8.995337,1.072281,5.6024466
vit_b_16,1,687,NaN,knife,knife,0,0687_ske_dnn_0_knife_00_knife-0038-sketch-42.png,knife-0038-sketch-42.png,1.0,3.5493586,1.346677,1.5575311
vit_b_16,1,688,NaN,knife,knife,0,0688_ske_dnn_0_knife_00_knife-0039-sketch-43.png,knife-0039-sketch-43.png,1.0,9.118855,0.6970594,5.955109
vit_b_16,1,689,NaN,knife,knife,0,0689_ske_dnn_0_knife_00_knife-0040-sketch-44.png,knife-0040-sketch-44.png,1.0,8.755871,0.50761265,5.8324
vit_b_16,1,690,NaN,knife,knife,0,0690_ske_dnn_0_knife_00_knife-0041-sketch-45.png,knife-0041-sketch-45.png,1.0,5.9874964,0.77695227,3.684411
vit_b_16,1,691,NaN,knife,knife,0,0691_ske_dnn_0_knife_00_knife-0042-sketch-46.png,knife-0042-sketch-46.png,1.0,7.5638437,0.8865184,4.721582
vit_b_16,1,692,NaN,knife,knife,0,0692_ske_dnn_0_knife_00_knife-0043-sketch-47.png,knife-0043-sketch-47.png,1.0,8.618064,0.36737424,5.8341184
vit_b_16,1,693,NaN,knife,knife,0,0693_ske_dnn_0_knife_00_knife-0044-sketch-48.png,knife-0044-sketch-48.png,1.0,9.307927,0.5529044,6.1907363
vit_b_16,1,694,NaN,knife,knife,0,0694_ske_dnn_0_knife_00_knife-0045-sketch-49.png,knife-0045-sketch-49.png,1.0,10.387456,0.7902025,6.7862835
vit_b_16,1,695,NaN,knife,knife,0,0695_ske_dnn_0_knife_00_knife-0046-sketch-5.png,knife-0046-sketch-5.png,1.0,4.7362814,0.7741279,2.8016655
vit_b_16,1,696,NaN,knife,knife,0,0696_ske_dnn_0_knife_00_knife-0047-sketch-50.png,knife-0047-sketch-50.png,1.0,6.2194047,1.8908603,3.0607433
vit_b_16,1,697,NaN,knife,knife,0,0697_ske_dnn_0_knife_00_knife-0048-sketch-6.png,knife-0048-sketch-6.png,1.0,8.09686,1.5072582,4.659552
