subj,session,trial,rt,object_response,category,condition,imagename,filename,is_correct,targ_act,max_nontarg_act,decision_margin
alexnet_w3_mlp_simclrhn_probe0,1,1,NaN,airplane,airplane,0,0001_ske_dnn_0_airplane_00_airplane-0001-sketch-0.png,airplane-0001-sketch-0.png,1.0,4.771024,0.31974468,3.14753
alexnet_w3_mlp_simclrhn_probe0,1,2,NaN,airplane,airplane,0,0002_ske_dnn_0_airplane_00_airplane-0002-sketch-1.png,airplane-0002-sketch-1.png,1.0,4.2089157,-0.45404413,3.2972107
alexnet_w3_mlp_simclrhn_probe0,1,3,NaN,airplane,airplane,0,0003_ske_dnn_0_airplane_00_airplane-0003-sketch-10.png,airplane-0003-sketch-10.png,1.0,-1.0701811,-1.4049758,0.23673557
alexnet_w3_mlp_simclrhn_probe0,1,4,NaN,airplane,airplane,0,0004_ske_dnn_0_airplane_00_airplane-0004-sketch-11.png,airplane-0004-sketch-11.png,1.0,-0.07132476,-1.005862,0.6608176
alexnet_w3_mlp_simclrhn_probe0,1,5,NaN,airplane,airplane,0,0005_ske_dnn_0_airplane_00_airplane-0005-sketch-12.png,airplane-0005-sketch-12.png,1.0,3.88822,-1.1889344,3.5900905
alexnet_w3_mlp_simclrhn_probe0,1,6,NaN,airplane,airplane,0,0006_ske_dnn_0_airplane_00_airplane-0006-sketch-13.png,airplane-0006-sketch-13.png,1.0,5.735454,-2.5686126,5.871862
alexnet_w3_mlp_simclrhn_probe0,1,7,NaN,airplane,airplane,0,0007_ske_dnn_0_airplane_00_airplane-0007-sketch-14.png,airplane-0007-sketch-14.png,1.0,0.8368079,0.5443166,0.2068226
alexnet_w3_mlp_simclrhn_probe0,1,8,NaN,clock,airplane,0,0008_ske_dnn_0_airplane_00_airplane-0008-sketch-15.png,airplane-0008-sketch-15.png,0.0,0.74486715,0.96297693,-0.15422691
alexnet_w3_mlp_simclrhn_probe0,1,9,NaN,airplane,airplane,0,0009_ske_dnn_0_airplane_00_airplane-0009-sketch-16.png,airplane-0009-sketch-16.png,1.0,2.9799023,-1.6237782,3.2552938
alexnet_w3_mlp_simclrhn_probe0,1,10,NaN,airplane,airplane,0,0010_ske_dnn_0_airplane_00_airplane-0010-sketch-17.png,airplane-0010-sketch-17.png,1.0,0.37300324,-2.0639544,1.7231892
alexnet_w3_mlp_simclrhn_probe0,1,11,NaN,clock,airplane,0,0011_ske_dnn_0_airplane_00_airplane-0011-sketch-18.png,airplane-0011-sketch-18.png,0.0,0.28976458,2.3943255,-1.4881493
alexnet_w3_mlp_simclrhn_probe0,1,12,NaN,airplane,airplane,0,0012_ske_dnn_0_airplane_00_airplane-0012-sketch-19.png,airplane-0012-sketch-19.png,1.0,0.93914855,-0.6317635,1.1108027
alexnet_w3_mlp_simclrhn_probe0,1,13,NaN,airplane,airplane,0,0013_ske_dnn_0_airplane_00_airplane-0013-sketch-2.png,airplane-0013-sketch-2.png,1.0,4.229571,-0.9075718,3.6325085
alexnet_w3_mlp_simclrhn_probe0,1,14,NaN,airplane,airplane,0,0014_ske_dnn_0_airplane_00_airplane-0014-sketch-20.png,airplane-0014-sketch-20.png,1.0,2.2911792,1.006453,0.90843856
alexnet_w3_mlp_simclrhn_probe0,1,15,NaN,airplane,airplane,0,0015_ske_dnn_0_airplane_00_airplane-0015-sketch-21.png,airplane-0015-sketch-21.png,1.0,0.7345815,-0.73488146,1.0390671
alexnet_w3_mlp_simclrhn_probe0,1,16,NaN,airplane,airplane,0,0016_ske_dnn_0_airplane_00_airplane-0016-sketch-22.png,airplane-0016-sketch-22.png,1.0,4.495534,-2.5329976,4.9699225
alexnet_w3_mlp_simclrhn_probe0,1,17,NaN,airplane,airplane,0,0017_ske_dnn_0_airplane_00_airplane-0017-sketch-23.png,airplane-0017-sketch-23.png,1.0,0.97745204,0.15564536,0.58110505
alexnet_w3_mlp_simclrhn_probe0,1,18,NaN,airplane,airplane,0,0018_ske_dnn_0_airplane_00_airplane-0018-sketch-24.png,airplane-0018-sketch-24.png,1.0,-0.19304797,-0.23831989,0.032012083
alexnet_w3_mlp_simclrhn_probe0,1,19,NaN,clock,airplane,0,0019_ske_dnn_0_airplane_00_airplane-0019-sketch-25.png,airplane-0019-sketch-25.png,0.0,-0.91034496,3.1921127,-2.9008756
alexnet_w3_mlp_simclrhn_probe0,1,20,NaN,clock,airplane,0,0020_ske_dnn_0_airplane_00_airplane-0020-sketch-26.png,airplane-0020-sketch-26.png,0.0,-0.4395916,-0.20308442,-0.16723582
alexnet_w3_mlp_simclrhn_probe0,1,21,NaN,clock,airplane,0,0021_ske_dnn_0_airplane_00_airplane-0021-sketch-27.png,airplane-0021-sketch-27.png,0.0,-0.11388181,1.6866336,-1.2731566
alexnet_w3_mlp_simclrhn_probe0,1,22,NaN,airplane,airplane,0,0022_ske_dnn_0_airplane_00_airplane-0022-sketch-28.png,airplane-0022-sketch-28.png,1.0,1.3382596,0.75293666,0.4138858
alexnet_w3_mlp_simclrhn_probe0,1,23,NaN,airplane,airplane,0,0023_ske_dnn_0_airplane_00_airplane-0023-sketch-29.png,airplane-0023-sketch-29.png,1.0,-1.2968172,-1.957166,0.4669371
alexnet_w3_mlp_simclrhn_probe0,1,24,NaN,airplane,airplane,0,0024_ske_dnn_0_airplane_00_airplane-0024-sketch-3.png,airplane-0024-sketch-3.png,1.0,1.2759802,0.99221563,0.20065188
alexnet_w3_mlp_simclrhn_probe0,1,25,NaN,airplane,airplane,0,0025_ske_dnn_0_airplane_00_airplane-0025-sketch-30.png,airplane-0025-sketch-30.png,1.0,1.7230513,0.35993657,0.96386766
alexnet_w3_mlp_simclrhn_probe0,1,26,NaN,clock,airplane,0,0026_ske_dnn_0_airplane_00_airplane-0027-sketch-32.png,airplane-0027-sketch-32.png,0.0,2.4377482,3.071248,-0.44795206
alexnet_w3_mlp_simclrhn_probe0,1,27,NaN,clock,airplane,0,0027_ske_dnn_0_airplane_00_airplane-0028-sketch-33.png,airplane-0028-sketch-33.png,0.0,0.33842042,1.8028936,-1.035539
alexnet_w3_mlp_simclrhn_probe0,1,28,NaN,clock,airplane,0,0028_ske_dnn_0_airplane_00_airplane-0029-sketch-34.png,airplane-0029-sketch-34.png,0.0,-0.6974721,0.76607305,-1.0348827
alexnet_w3_mlp_simclrhn_probe0,1,29,NaN,airplane,airplane,0,0029_ske_dnn_0_airplane_00_airplane-0030-sketch-35.png,airplane-0030-sketch-35.png,1.0,0.0395703,-0.42508066,0.32855785
alexnet_w3_mlp_simclrhn_probe0,1,30,NaN,airplane,airplane,0,0030_ske_dnn_0_airplane_00_airplane-0031-sketch-36.png,airplane-0031-sketch-36.png,1.0,0.027846755,-1.4616247,1.0532155
alexnet_w3_mlp_simclrhn_probe0,1,31,NaN,airplane,airplane,0,0031_ske_dnn_0_airplane_00_airplane-0032-sketch-37.png,airplane-0032-sketch-37.png,1.0,1.5275735,-2.061711,2.5380075
alexnet_w3_mlp_simclrhn_probe0,1,32,NaN,airplane,airplane,0,0032_ske_dnn_0_airplane_00_airplane-0033-sketch-38.png,airplane-0033-sketch-38.png,1.0,-0.15052663,-1.3443562,0.84416497
alexnet_w3_mlp_simclrhn_probe0,1,33,NaN,clock,airplane,0,0033_ske_dnn_0_airplane_00_airplane-0034-sketch-39.png,airplane-0034-sketch-39.png,0.0,-1.463599,0.18790948,-1.1677928
alexnet_w3_mlp_simclrhn_probe0,1,34,NaN,airplane,airplane,0,0034_ske_dnn_0_airplane_00_airplane-0035-sketch-4.png,airplane-0035-sketch-4.png,1.0,0.76618683,-0.26131982,0.7265569
alexnet_w3_mlp_simclrhn_probe0,1,35,NaN,airplane,airplane,0,0035_ske_dnn_0_airplane_00_airplane-0036-sketch-40.png,airplane-0036-sketch-40.png,1.0,3.3721712,-0.9178435,3.0334985
alexnet_w3_mlp_simclrhn_probe0,1,36,NaN,airplane,airplane,0,0036_ske_dnn_0_airplane_00_airplane-0037-sketch-41.png,airplane-0037-sketch-41.png,1.0,2.3782763,0.88528806,1.0557022
alexnet_w3_mlp_simclrhn_probe0,1,37,NaN,airplane,airplane,0,0037_ske_dnn_0_airplane_00_airplane-0038-sketch-42.png,airplane-0038-sketch-42.png,1.0,0.61962414,0.52241176,0.06873953
alexnet_w3_mlp_simclrhn_probe0,1,38,NaN,airplane,airplane,0,0038_ske_dnn_0_airplane_00_airplane-0039-sketch-43.png,airplane-0039-sketch-43.png,1.0,-0.020975664,-0.957876,0.66248864
alexnet_w3_mlp_simclrhn_probe0,1,39,NaN,clock,airplane,0,0039_ske_dnn_0_airplane_00_airplane-0040-sketch-44.png,airplane-0040-sketch-44.png,0.0,-1.722233,1.6572567,-2.3896604
alexnet_w3_mlp_simclrhn_probe0,1,40,NaN,airplane,airplane,0,0040_ske_dnn_0_airplane_00_airplane-0041-sketch-45.png,airplane-0041-sketch-45.png,1.0,1.4024066,-0.17913054,1.1183157
alexnet_w3_mlp_simclrhn_probe0,1,41,NaN,clock,airplane,0,0041_ske_dnn_0_airplane_00_airplane-0042-sketch-46.png,airplane-0042-sketch-46.png,0.0,-1.5414845,0.3271843,-1.3213484
alexnet_w3_mlp_simclrhn_probe0,1,42,NaN,airplane,airplane,0,0042_ske_dnn_0_airplane_00_airplane-0043-sketch-47.png,airplane-0043-sketch-47.png,1.0,3.4825597,1.9031496,1.1168116
alexnet_w3_mlp_simclrhn_probe0,1,43,NaN,clock,airplane,0,0043_ske_dnn_0_airplane_00_airplane-0044-sketch-48.png,airplane-0044-sketch-48.png,0.0,0.93178004,1.4593118,-0.37302133
alexnet_w3_mlp_simclrhn_probe0,1,44,NaN,airplane,airplane,0,0044_ske_dnn_0_airplane_00_airplane-0045-sketch-49.png,airplane-0045-sketch-49.png,1.0,5.3770895,0.28625813,3.5997615
alexnet_w3_mlp_simclrhn_probe0,1,45,NaN,airplane,airplane,0,0045_ske_dnn_0_airplane_00_airplane-0046-sketch-5.png,airplane-0046-sketch-5.png,1.0,-0.53200006,-1.249351,0.50724375
alexnet_w3_mlp_simclrhn_probe0,1,46,NaN,airplane,airplane,0,0046_ske_dnn_0_airplane_00_airplane-0047-sketch-50.png,airplane-0047-sketch-50.png,1.0,3.356849,-0.28048107,2.5719807
alexnet_w3_mlp_simclrhn_probe0,1,47,NaN,airplane,airplane,0,0047_ske_dnn_0_airplane_00_airplane-0048-sketch-6.png,airplane-0048-sketch-6.png,1.0,0.44346488,-1.2212595,1.1771379
alexnet_w3_mlp_simclrhn_probe0,1,48,NaN,airplane,airplane,0,0048_ske_dnn_0_airplane_00_airplane-0049-sketch-7.png,airplane-0049-sketch-7.png,1.0,1.4892904,0.32595235,0.8226042
alexnet_w3_mlp_simclrhn_probe0,1,49,NaN,clock,airplane,0,0049_ske_dnn_0_airplane_00_airplane-0050-sketch-8.png,airplane-0050-sketch-8.png,0.0,0.078516096,3.7669992,-2.6081514
alexnet_w3_mlp_simclrhn_probe0,1,50,NaN,airplane,airplane,0,0050_ske_dnn_0_airplane_00_airplane-0051-sketch-9.png,airplane-0051-sketch-9.png,1.0,3.4949675,0.786382,1.9152592
alexnet_w3_mlp_simclrhn_probe0,1,51,NaN,bird,bear,0,0051_ske_dnn_0_bear_00_bear-0005-sketch-12.png,bear-0005-sketch-12.png,0.0,-9.962555,-3.7664447,-4.3813114
alexnet_w3_mlp_simclrhn_probe0,1,52,NaN,clock,bear,0,0052_ske_dnn_0_bear_00_bear-0007-sketch-14.png,bear-0007-sketch-14.png,0.0,-11.148153,-3.7326868,-5.2435265
alexnet_w3_mlp_simclrhn_probe0,1,53,NaN,cat,bear,0,0053_ske_dnn_0_bear_00_bear-0017-sketch-23.png,bear-0017-sketch-23.png,0.0,-4.722867,1.0860893,-4.1075525
alexnet_w3_mlp_simclrhn_probe0,1,54,NaN,elephant,bear,0,0054_ske_dnn_0_bear_00_bear-0022-sketch-28.png,bear-0022-sketch-28.png,0.0,-8.337751,-1.9928972,-4.48649
alexnet_w3_mlp_simclrhn_probe0,1,55,NaN,cat,bear,0,0055_ske_dnn_0_bear_00_bear-0023-sketch-29.png,bear-0023-sketch-29.png,0.0,-7.715727,-4.2090425,-2.4796002
alexnet_w3_mlp_simclrhn_probe0,1,56,NaN,elephant,bear,0,0056_ske_dnn_0_bear_00_bear-0026-sketch-31.png,bear-0026-sketch-31.png,0.0,-1.5568652,-1.4544702,-0.07240424
alexnet_w3_mlp_simclrhn_probe0,1,57,NaN,cat,bear,0,0057_ske_dnn_0_bear_00_bear-0027-sketch-32.png,bear-0027-sketch-32.png,0.0,-8.432837,-2.9680007,-3.8642228
alexnet_w3_mlp_simclrhn_probe0,1,58,NaN,bear,bear,0,0058_ske_dnn_0_bear_00_bear-0030-sketch-35.png,bear-0030-sketch-35.png,1.0,-3.0691164,-3.2557986,0.13200428
alexnet_w3_mlp_simclrhn_probe0,1,59,NaN,cat,bear,0,0059_ske_dnn_0_bear_00_bear-0033-sketch-38.png,bear-0033-sketch-38.png,0.0,-4.6648016,-2.4550006,-1.5625653
alexnet_w3_mlp_simclrhn_probe0,1,60,NaN,clock,bear,0,0060_ske_dnn_0_bear_00_bear-0036-sketch-40.png,bear-0036-sketch-40.png,0.0,-11.229737,-3.7144158,-5.314135
alexnet_w3_mlp_simclrhn_probe0,1,61,NaN,cat,bear,0,0061_ske_dnn_0_bear_00_bear-0037-sketch-41.png,bear-0037-sketch-41.png,0.0,-0.16227674,-0.04913767,-0.080001414
alexnet_w3_mlp_simclrhn_probe0,1,62,NaN,cat,bear,0,0062_ske_dnn_0_bear_00_bear-0038-sketch-42.png,bear-0038-sketch-42.png,0.0,-3.0063136,-0.49464726,-1.7760164
alexnet_w3_mlp_simclrhn_probe0,1,63,NaN,elephant,bear,0,0063_ske_dnn_0_bear_00_bear-0039-sketch-43.png,bear-0039-sketch-43.png,0.0,-5.626728,-3.1552997,-1.7475638
alexnet_w3_mlp_simclrhn_probe0,1,64,NaN,bear,bear,0,0064_ske_dnn_0_bear_00_bear-0041-sketch-45.png,bear-0041-sketch-45.png,1.0,-1.6937647,-3.544039,1.3083415
alexnet_w3_mlp_simclrhn_probe0,1,65,NaN,elephant,bear,0,0065_ske_dnn_0_bear_00_bear-0045-sketch-49.png,bear-0045-sketch-49.png,0.0,0.8906268,1.9154398,-0.7246523
alexnet_w3_mlp_simclrhn_probe0,1,66,NaN,cat,bear,0,0066_ske_dnn_0_bear_00_bear-0048-sketch-7.png,bear-0048-sketch-7.png,0.0,-9.434588,-4.65539,-3.3794038
alexnet_w3_mlp_simclrhn_probe0,1,67,NaN,cat,bear,0,0067_ske_dnn_0_bear_00_bear-0049-sketch-8.png,bear-0049-sketch-8.png,0.0,-10.34911,-2.515278,-5.5393558
alexnet_w3_mlp_simclrhn_probe0,1,68,NaN,cat,bear,0,0068_ske_dnn_0_bear_00_bear-0053-sketch-10.png,bear-0053-sketch-10.png,0.0,-7.420325,-2.5737712,-3.427031
alexnet_w3_mlp_simclrhn_probe0,1,69,NaN,bear,bear,0,0069_ske_dnn_0_bear_00_bear-0059-sketch-16.png,bear-0059-sketch-16.png,1.0,0.030515164,-2.3385339,1.6751707
alexnet_w3_mlp_simclrhn_probe0,1,70,NaN,elephant,bear,0,0070_ske_dnn_0_bear_00_bear-0068-sketch-24.png,bear-0068-sketch-24.png,0.0,-4.3315887,-2.5357642,-1.2698398
alexnet_w3_mlp_simclrhn_probe0,1,71,NaN,cat,bear,0,0071_ske_dnn_0_bear_00_bear-0070-sketch-26.png,bear-0070-sketch-26.png,0.0,-8.94676,-4.9805245,-2.804552
alexnet_w3_mlp_simclrhn_probe0,1,72,NaN,bear,bear,0,0072_ske_dnn_0_bear_00_bear-0073-sketch-29.png,bear-0073-sketch-29.png,1.0,0.2284492,-0.40210274,0.44586757
alexnet_w3_mlp_simclrhn_probe0,1,73,NaN,bear,bear,0,0073_ske_dnn_0_bear_00_bear-0079-sketch-34.png,bear-0079-sketch-34.png,1.0,4.6729727,-1.3639199,4.268728
alexnet_w3_mlp_simclrhn_probe0,1,74,NaN,bear,bear,0,0074_ske_dnn_0_bear_00_bear-0081-sketch-36.png,bear-0081-sketch-36.png,1.0,0.6836798,-2.4975219,2.2494493
alexnet_w3_mlp_simclrhn_probe0,1,75,NaN,cat,bear,0,0075_ske_dnn_0_bear_00_bear-0085-sketch-4.png,bear-0085-sketch-4.png,0.0,-0.66800404,-0.10561157,-0.39767155
alexnet_w3_mlp_simclrhn_probe0,1,76,NaN,dog,bear,0,0076_ske_dnn_0_bear_00_bear-0086-sketch-40.png,bear-0086-sketch-40.png,0.0,-3.5372667,-2.5763218,-0.6794907
alexnet_w3_mlp_simclrhn_probe0,1,77,NaN,clock,bear,0,0077_ske_dnn_0_bear_00_bear-0087-sketch-41.png,bear-0087-sketch-41.png,0.0,-9.9985285,0.17723322,-7.1953506
alexnet_w3_mlp_simclrhn_probe0,1,78,NaN,clock,bear,0,0078_ske_dnn_0_bear_00_bear-0090-sketch-44.png,bear-0090-sketch-44.png,0.0,-18.788164,1.9849267,-14.688793
alexnet_w3_mlp_simclrhn_probe0,1,79,NaN,clock,bear,0,0079_ske_dnn_0_bear_00_bear-0103-sketch-1.png,bear-0103-sketch-1.png,0.0,-11.014732,-0.13222921,-7.695092
alexnet_w3_mlp_simclrhn_probe0,1,80,NaN,clock,bear,0,0080_ske_dnn_0_bear_00_bear-0107-sketch-13.png,bear-0107-sketch-13.png,0.0,-12.259476,-4.0717864,-5.7895703
alexnet_w3_mlp_simclrhn_probe0,1,81,NaN,dog,bear,0,0081_ske_dnn_0_bear_00_bear-0110-sketch-16.png,bear-0110-sketch-16.png,0.0,-9.762033,-3.9256158,-4.126971
alexnet_w3_mlp_simclrhn_probe0,1,82,NaN,elephant,bear,0,0082_ske_dnn_0_bear_00_bear-0112-sketch-18.png,bear-0112-sketch-18.png,0.0,-6.4614086,-3.5704641,-2.0442064
alexnet_w3_mlp_simclrhn_probe0,1,83,NaN,clock,bear,0,0083_ske_dnn_0_bear_00_bear-0117-sketch-22.png,bear-0117-sketch-22.png,0.0,-12.463976,1.4575735,-9.844023
alexnet_w3_mlp_simclrhn_probe0,1,84,NaN,elephant,bear,0,0084_ske_dnn_0_bear_00_bear-0123-sketch-28.png,bear-0123-sketch-28.png,0.0,-3.9008908,-1.570425,-1.6478882
alexnet_w3_mlp_simclrhn_probe0,1,85,NaN,clock,bear,0,0085_ske_dnn_0_bear_00_bear-0135-sketch-39.png,bear-0135-sketch-39.png,0.0,-6.360833,1.5111914,-5.566362
alexnet_w3_mlp_simclrhn_probe0,1,86,NaN,clock,bear,0,0086_ske_dnn_0_bear_00_bear-0136-sketch-4.png,bear-0136-sketch-4.png,0.0,-7.8342447,-0.03895842,-5.5120997
alexnet_w3_mlp_simclrhn_probe0,1,87,NaN,bicycle,bear,0,0087_ske_dnn_0_bear_00_bear-0137-sketch-40.png,bear-0137-sketch-40.png,0.0,-10.334479,-2.0717573,-5.842627
alexnet_w3_mlp_simclrhn_probe0,1,88,NaN,bear,bear,0,0088_ske_dnn_0_bear_00_bear-0148-sketch-50.png,bear-0148-sketch-50.png,1.0,-1.0402358,-1.616597,0.407549
alexnet_w3_mlp_simclrhn_probe0,1,89,NaN,bicycle,bear,0,0089_ske_dnn_0_bear_00_bear-0149-sketch-6.png,bear-0149-sketch-6.png,0.0,-11.099976,-2.86274,-5.8246055
alexnet_w3_mlp_simclrhn_probe0,1,90,NaN,bear,bear,0,0090_ske_dnn_0_bear_00_bear-0161-sketch-16.png,bear-0161-sketch-16.png,1.0,1.8460815,-0.20526807,1.4505233
alexnet_w3_mlp_simclrhn_probe0,1,91,NaN,cat,bear,0,0091_ske_dnn_0_bear_00_bear-0166-sketch-20.png,bear-0166-sketch-20.png,0.0,-11.127269,-2.5529883,-6.062932
alexnet_w3_mlp_simclrhn_probe0,1,92,NaN,clock,bear,0,0092_ske_dnn_0_bear_00_bear-0170-sketch-24.png,bear-0170-sketch-24.png,0.0,-19.95264,-2.600882,-12.2695465
alexnet_w3_mlp_simclrhn_probe0,1,93,NaN,bear,bear,0,0093_ske_dnn_0_bear_00_bear-0171-sketch-25.png,bear-0171-sketch-25.png,1.0,-0.42176357,-1.7212687,0.91888887
alexnet_w3_mlp_simclrhn_probe0,1,94,NaN,cat,bear,0,0094_ske_dnn_0_bear_00_bear-0179-sketch-32.png,bear-0179-sketch-32.png,0.0,-12.230343,-4.062059,-5.775849
alexnet_w3_mlp_simclrhn_probe0,1,95,NaN,clock,bear,0,0095_ske_dnn_0_bear_00_bear-0187-sketch-4.png,bear-0187-sketch-4.png,0.0,-13.461944,2.5826008,-11.345206
alexnet_w3_mlp_simclrhn_probe0,1,96,NaN,bear,bear,0,0096_ske_dnn_0_bear_00_bear-0188-sketch-40.png,bear-0188-sketch-40.png,1.0,0.71999,-1.1065443,1.2915548
alexnet_w3_mlp_simclrhn_probe0,1,97,NaN,cat,bear,0,0097_ske_dnn_0_bear_00_bear-0195-sketch-47.png,bear-0195-sketch-47.png,0.0,-10.376693,-6.2317643,-2.930907
alexnet_w3_mlp_simclrhn_probe0,1,98,NaN,cat,bear,0,0098_ske_dnn_0_bear_00_bear-0198-sketch-5.png,bear-0198-sketch-5.png,0.0,-5.358311,-4.452041,-0.6408297
alexnet_w3_mlp_simclrhn_probe0,1,99,NaN,cat,bear,0,0099_ske_dnn_0_bear_00_bear-0199-sketch-50.png,bear-0199-sketch-50.png,0.0,-10.862768,-3.2320983,-5.395698
alexnet_w3_mlp_simclrhn_probe0,1,100,NaN,clock,bear,0,0100_ske_dnn_0_bear_00_bear-0201-sketch-7.png,bear-0201-sketch-7.png,0.0,-3.286375,-0.10944473,-2.2464292
alexnet_w3_mlp_simclrhn_probe0,1,101,NaN,bicycle,bicycle,0,0101_ske_dnn_0_bicycle_00_bicycle-0002-sketch-1.png,bicycle-0002-sketch-1.png,1.0,11.574553,-1.5023512,9.246767
alexnet_w3_mlp_simclrhn_probe0,1,102,NaN,clock,bicycle,0,0102_ske_dnn_0_bicycle_00_bicycle-0003-sketch-10.png,bicycle-0003-sketch-10.png,0.0,-4.2692327,1.0322471,-3.7487123
alexnet_w3_mlp_simclrhn_probe0,1,103,NaN,bicycle,bicycle,0,0103_ske_dnn_0_bicycle_00_bicycle-0004-sketch-11.png,bicycle-0004-sketch-11.png,1.0,9.364891,0.8791001,6.0003605
alexnet_w3_mlp_simclrhn_probe0,1,104,NaN,bicycle,bicycle,0,0104_ske_dnn_0_bicycle_00_bicycle-0008-sketch-15.png,bicycle-0008-sketch-15.png,1.0,2.5209222,-4.0409026,4.6399107
alexnet_w3_mlp_simclrhn_probe0,1,105,NaN,bicycle,bicycle,0,0105_ske_dnn_0_bicycle_00_bicycle-0011-sketch-18.png,bicycle-0011-sketch-18.png,1.0,3.2215865,-1.8895501,3.6141193
alexnet_w3_mlp_simclrhn_probe0,1,106,NaN,bicycle,bicycle,0,0106_ske_dnn_0_bicycle_00_bicycle-0013-sketch-2.png,bicycle-0013-sketch-2.png,1.0,6.8210497,-2.4731324,6.571979
alexnet_w3_mlp_simclrhn_probe0,1,107,NaN,clock,bicycle,0,0107_ske_dnn_0_bicycle_00_bicycle-0016-sketch-22.png,bicycle-0016-sketch-22.png,0.0,-4.186315,0.81294745,-3.5350122
alexnet_w3_mlp_simclrhn_probe0,1,108,NaN,bicycle,bicycle,0,0108_ske_dnn_0_bicycle_00_bicycle-0019-sketch-25.png,bicycle-0019-sketch-25.png,1.0,7.929699,-0.8425326,6.202904
alexnet_w3_mlp_simclrhn_probe0,1,109,NaN,bicycle,bicycle,0,0109_ske_dnn_0_bicycle_00_bicycle-0020-sketch-26.png,bicycle-0020-sketch-26.png,1.0,-1.3430796,-5.2149396,2.7378185
alexnet_w3_mlp_simclrhn_probe0,1,110,NaN,bicycle,bicycle,0,0110_ske_dnn_0_bicycle_00_bicycle-0022-sketch-28.png,bicycle-0022-sketch-28.png,1.0,-1.2944981,-7.2722087,4.22688
alexnet_w3_mlp_simclrhn_probe0,1,111,NaN,clock,bicycle,0,0111_ske_dnn_0_bicycle_00_bicycle-0023-sketch-29.png,bicycle-0023-sketch-29.png,0.0,1.7384533,1.9287062,-0.13452911
alexnet_w3_mlp_simclrhn_probe0,1,112,NaN,clock,bicycle,0,0112_ske_dnn_0_bicycle_00_bicycle-0025-sketch-30.png,bicycle-0025-sketch-30.png,0.0,-1.6272821,-0.20501864,-1.0056922
alexnet_w3_mlp_simclrhn_probe0,1,113,NaN,bicycle,bicycle,0,0113_ske_dnn_0_bicycle_00_bicycle-0026-sketch-31.png,bicycle-0026-sketch-31.png,1.0,-2.1504545,-4.981651,2.0019581
alexnet_w3_mlp_simclrhn_probe0,1,114,NaN,bicycle,bicycle,0,0114_ske_dnn_0_bicycle_00_bicycle-0031-sketch-36.png,bicycle-0031-sketch-36.png,1.0,-4.2786145,-5.1982517,0.6502817
alexnet_w3_mlp_simclrhn_probe0,1,115,NaN,bicycle,bicycle,0,0115_ske_dnn_0_bicycle_00_bicycle-0034-sketch-39.png,bicycle-0034-sketch-39.png,1.0,-0.16955209,-2.6986,1.788307
alexnet_w3_mlp_simclrhn_probe0,1,116,NaN,clock,bicycle,0,0116_ske_dnn_0_bicycle_00_bicycle-0037-sketch-41.png,bicycle-0037-sketch-41.png,0.0,1.489981,1.9525919,-0.32711527
alexnet_w3_mlp_simclrhn_probe0,1,117,NaN,clock,bicycle,0,0117_ske_dnn_0_bicycle_00_bicycle-0038-sketch-42.png,bicycle-0038-sketch-42.png,0.0,-1.4752154,-0.10819296,-0.96663094
alexnet_w3_mlp_simclrhn_probe0,1,118,NaN,bicycle,bicycle,0,0118_ske_dnn_0_bicycle_00_bicycle-0039-sketch-43.png,bicycle-0039-sketch-43.png,1.0,-1.640598,-5.0576406,2.416214
alexnet_w3_mlp_simclrhn_probe0,1,119,NaN,bicycle,bicycle,0,0119_ske_dnn_0_bicycle_00_bicycle-0040-sketch-44.png,bicycle-0040-sketch-44.png,1.0,-2.0330307,-5.018387,2.1109655
alexnet_w3_mlp_simclrhn_probe0,1,120,NaN,bicycle,bicycle,0,0120_ske_dnn_0_bicycle_00_bicycle-0044-sketch-48.png,bicycle-0044-sketch-48.png,1.0,1.8216734,-6.340236,5.7713413
alexnet_w3_mlp_simclrhn_probe0,1,121,NaN,bicycle,bicycle,0,0121_ske_dnn_0_bicycle_00_bicycle-0045-sketch-49.png,bicycle-0045-sketch-49.png,1.0,11.574553,-1.5023512,9.246767
alexnet_w3_mlp_simclrhn_probe0,1,122,NaN,clock,bicycle,0,0122_ske_dnn_0_bicycle_00_bicycle-0046-sketch-5.png,bicycle-0046-sketch-5.png,0.0,0.8080145,2.9251812,-1.4970628
alexnet_w3_mlp_simclrhn_probe0,1,123,NaN,bicycle,bicycle,0,0123_ske_dnn_0_bicycle_00_bicycle-0047-sketch-50.png,bicycle-0047-sketch-50.png,1.0,6.8210497,-2.4731324,6.571979
alexnet_w3_mlp_simclrhn_probe0,1,124,NaN,bicycle,bicycle,0,0124_ske_dnn_0_bicycle_00_bicycle-0048-sketch-6.png,bicycle-0048-sketch-6.png,1.0,2.5710268,-1.2033411,2.6688812
alexnet_w3_mlp_simclrhn_probe0,1,125,NaN,bicycle,bicycle,0,0125_ske_dnn_0_bicycle_00_bicycle-0053-sketch-1.png,bicycle-0053-sketch-1.png,1.0,1.6613922,-7.6584415,6.590118
alexnet_w3_mlp_simclrhn_probe0,1,126,NaN,bicycle,bicycle,0,0126_ske_dnn_0_bicycle_00_bicycle-0054-sketch-10.png,bicycle-0054-sketch-10.png,1.0,4.735479,-7.6035914,8.72504
alexnet_w3_mlp_simclrhn_probe0,1,127,NaN,bicycle,bicycle,0,0127_ske_dnn_0_bicycle_00_bicycle-0056-sketch-12.png,bicycle-0056-sketch-12.png,1.0,4.6835637,-4.9887843,6.839383
alexnet_w3_mlp_simclrhn_probe0,1,128,NaN,clock,bicycle,0,0128_ske_dnn_0_bicycle_00_bicycle-0057-sketch-13.png,bicycle-0057-sketch-13.png,0.0,-2.8848114,-1.9093593,-0.68974876
alexnet_w3_mlp_simclrhn_probe0,1,129,NaN,bicycle,bicycle,0,0129_ske_dnn_0_bicycle_00_bicycle-0058-sketch-14.png,bicycle-0058-sketch-14.png,1.0,1.8335867,-4.3376923,4.3637533
alexnet_w3_mlp_simclrhn_probe0,1,130,NaN,clock,bicycle,0,0130_ske_dnn_0_bicycle_00_bicycle-0059-sketch-15.png,bicycle-0059-sketch-15.png,0.0,-3.9692812,1.9190454,-4.163676
alexnet_w3_mlp_simclrhn_probe0,1,131,NaN,bicycle,bicycle,0,0131_ske_dnn_0_bicycle_00_bicycle-0060-sketch-16.png,bicycle-0060-sketch-16.png,1.0,3.5533686,0.91023463,1.8689779
alexnet_w3_mlp_simclrhn_probe0,1,132,NaN,bicycle,bicycle,0,0132_ske_dnn_0_bicycle_00_bicycle-0062-sketch-18.png,bicycle-0062-sketch-18.png,1.0,4.926795,3.0305073,1.3408779
alexnet_w3_mlp_simclrhn_probe0,1,133,NaN,bicycle,bicycle,0,0133_ske_dnn_0_bicycle_00_bicycle-0066-sketch-21.png,bicycle-0066-sketch-21.png,1.0,3.963736,-1.4374743,3.8192325
alexnet_w3_mlp_simclrhn_probe0,1,134,NaN,bicycle,bicycle,0,0134_ske_dnn_0_bicycle_00_bicycle-0068-sketch-23.png,bicycle-0068-sketch-23.png,1.0,14.252702,-2.5996313,11.916399
alexnet_w3_mlp_simclrhn_probe0,1,135,NaN,clock,bicycle,0,0135_ske_dnn_0_bicycle_00_bicycle-0070-sketch-25.png,bicycle-0070-sketch-25.png,0.0,2.147692,3.524367,-0.9734563
alexnet_w3_mlp_simclrhn_probe0,1,136,NaN,clock,bicycle,0,0136_ske_dnn_0_bicycle_00_bicycle-0071-sketch-26.png,bicycle-0071-sketch-26.png,0.0,4.3001146,4.420527,-0.08514439
alexnet_w3_mlp_simclrhn_probe0,1,137,NaN,bicycle,bicycle,0,0137_ske_dnn_0_bicycle_00_bicycle-0075-sketch-3.png,bicycle-0075-sketch-3.png,1.0,4.624917,-1.4195852,4.2741084
alexnet_w3_mlp_simclrhn_probe0,1,138,NaN,bicycle,bicycle,0,0138_ske_dnn_0_bicycle_00_bicycle-0078-sketch-32.png,bicycle-0078-sketch-32.png,1.0,14.156587,5.0172668,6.4624753
alexnet_w3_mlp_simclrhn_probe0,1,139,NaN,bicycle,bicycle,0,0139_ske_dnn_0_bicycle_00_bicycle-0080-sketch-34.png,bicycle-0080-sketch-34.png,1.0,8.000417,4.570764,2.4251306
alexnet_w3_mlp_simclrhn_probe0,1,140,NaN,bicycle,bicycle,0,0140_ske_dnn_0_bicycle_00_bicycle-0081-sketch-35.png,bicycle-0081-sketch-35.png,1.0,4.785983,-1.287263,4.2944336
alexnet_w3_mlp_simclrhn_probe0,1,141,NaN,clock,bicycle,0,0141_ske_dnn_0_bicycle_00_bicycle-0083-sketch-37.png,bicycle-0083-sketch-37.png,0.0,2.0170999,2.4535246,-0.3085989
alexnet_w3_mlp_simclrhn_probe0,1,142,NaN,clock,bicycle,0,0142_ske_dnn_0_bicycle_00_bicycle-0084-sketch-38.png,bicycle-0084-sketch-38.png,0.0,0.1822244,2.9600532,-1.9642216
alexnet_w3_mlp_simclrhn_probe0,1,143,NaN,bicycle,bicycle,0,0143_ske_dnn_0_bicycle_00_bicycle-0087-sketch-40.png,bicycle-0087-sketch-40.png,1.0,12.623429,-3.963937,11.729039
alexnet_w3_mlp_simclrhn_probe0,1,144,NaN,bicycle,bicycle,0,0144_ske_dnn_0_bicycle_00_bicycle-0090-sketch-43.png,bicycle-0090-sketch-43.png,1.0,9.879108,5.134366,3.3550396
alexnet_w3_mlp_simclrhn_probe0,1,145,NaN,clock,bicycle,0,0145_ske_dnn_0_bicycle_00_bicycle-0094-sketch-47.png,bicycle-0094-sketch-47.png,0.0,-2.8608673,2.72233,-3.947917
alexnet_w3_mlp_simclrhn_probe0,1,146,NaN,bicycle,bicycle,0,0146_ske_dnn_0_bicycle_00_bicycle-0095-sketch-48.png,bicycle-0095-sketch-48.png,1.0,4.103658,1.3381777,1.9554901
alexnet_w3_mlp_simclrhn_probe0,1,147,NaN,bicycle,bicycle,0,0147_ske_dnn_0_bicycle_00_bicycle-0098-sketch-50.png,bicycle-0098-sketch-50.png,1.0,4.8472557,2.9708083,1.3268487
alexnet_w3_mlp_simclrhn_probe0,1,148,NaN,clock,bicycle,0,0148_ske_dnn_0_bicycle_00_bicycle-0099-sketch-6.png,bicycle-0099-sketch-6.png,0.0,0.99907124,2.7857096,-1.2633442
alexnet_w3_mlp_simclrhn_probe0,1,149,NaN,bicycle,bicycle,0,0149_ske_dnn_0_bicycle_00_bicycle-0101-sketch-8.png,bicycle-0101-sketch-8.png,1.0,12.612841,-3.3906276,11.31616
alexnet_w3_mlp_simclrhn_probe0,1,150,NaN,bicycle,bicycle,0,0150_ske_dnn_0_bicycle_00_bicycle-0102-sketch-9.png,bicycle-0102-sketch-9.png,1.0,1.3964412,-5.554427,4.9150066
alexnet_w3_mlp_simclrhn_probe0,1,151,NaN,clock,bird,0,0151_ske_dnn_0_bird_00_bird-0030-sketch-35.png,bird-0030-sketch-35.png,0.0,-6.1930423,0.5037831,-4.7353706
alexnet_w3_mlp_simclrhn_probe0,1,152,NaN,bird,bird,0,0152_ske_dnn_0_bird_00_bird-0047-sketch-50.png,bird-0047-sketch-50.png,1.0,-3.3236783,-4.5725164,0.88306195
alexnet_w3_mlp_simclrhn_probe0,1,153,NaN,bicycle,bird,0,0153_ske_dnn_0_bird_00_bird-0072-sketch-27.png,bird-0072-sketch-27.png,0.0,-4.0122676,-3.9209187,-0.06459342
alexnet_w3_mlp_simclrhn_probe0,1,154,NaN,bird,bird,0,0154_ske_dnn_0_bird_00_bird-0228-sketch-3.png,bird-0228-sketch-3.png,1.0,0.35758936,-3.403149,2.6592436
alexnet_w3_mlp_simclrhn_probe0,1,155,NaN,bird,bird,0,0155_ske_dnn_0_bird_00_bird-0274-sketch-25.png,bird-0274-sketch-25.png,1.0,-1.9632624,-2.5515866,0.41600803
alexnet_w3_mlp_simclrhn_probe0,1,156,NaN,clock,bird,0,0156_ske_dnn_0_bird_00_bird-0292-sketch-41.png,bird-0292-sketch-41.png,0.0,-2.2182558,-0.19736671,-1.4289844
alexnet_w3_mlp_simclrhn_probe0,1,157,NaN,bicycle,bird,0,0157_ske_dnn_0_bird_00_bird-0316-sketch-17.png,bird-0316-sketch-17.png,0.0,-5.0704446,-3.6715207,-0.98918855
alexnet_w3_mlp_simclrhn_probe0,1,158,NaN,bicycle,bird,0,0158_ske_dnn_0_bird_00_bird-0325-sketch-25.png,bird-0325-sketch-25.png,0.0,-2.9217699,-0.8458086,-1.4679263
alexnet_w3_mlp_simclrhn_probe0,1,159,NaN,clock,bird,0,0159_ske_dnn_0_bird_00_bird-0357-sketch-9.png,bird-0357-sketch-9.png,0.0,-1.6983196,-1.3299831,-0.2604532
alexnet_w3_mlp_simclrhn_probe0,1,160,NaN,bird,bird,0,0160_ske_dnn_0_bird_00_bird-0384-sketch-32.png,bird-0384-sketch-32.png,1.0,-2.0526853,-3.035601,0.69502634
alexnet_w3_mlp_simclrhn_probe0,1,161,NaN,bird,bird,0,0161_ske_dnn_0_bird_00_bird-0415-sketch-14.png,bird-0415-sketch-14.png,1.0,-0.4080266,-1.9923832,1.1203094
alexnet_w3_mlp_simclrhn_probe0,1,162,NaN,bicycle,bird,0,0162_ske_dnn_0_bird_00_bird-0474-sketch-21.png,bird-0474-sketch-21.png,0.0,-2.7496116,-2.6258836,-0.087488934
alexnet_w3_mlp_simclrhn_probe0,1,163,NaN,bird,bird,0,0163_ske_dnn_0_bird_00_bird-0479-sketch-26.png,bird-0479-sketch-26.png,1.0,-2.0832517,-2.5094683,0.30138066
alexnet_w3_mlp_simclrhn_probe0,1,164,NaN,bicycle,bird,0,0164_ske_dnn_0_bird_00_bird-0491-sketch-37.png,bird-0491-sketch-37.png,0.0,-1.4003743,-0.9796115,-0.2975242
alexnet_w3_mlp_simclrhn_probe0,1,165,NaN,bird,bird,0,0165_ske_dnn_0_bird_00_bird-0578-sketch-23.png,bird-0578-sketch-23.png,1.0,-2.4868238,-3.1457882,0.4659582
alexnet_w3_mlp_simclrhn_probe0,1,166,NaN,bird,bird,0,0166_ske_dnn_0_bird_00_bird-0640-sketch-33.png,bird-0640-sketch-33.png,1.0,-2.5227761,-4.7276764,1.5590999
alexnet_w3_mlp_simclrhn_probe0,1,167,NaN,clock,bird,0,0167_ske_dnn_0_bird_00_bird-0646-sketch-39.png,bird-0646-sketch-39.png,0.0,-3.225627,-0.2754208,-2.0861108
alexnet_w3_mlp_simclrhn_probe0,1,168,NaN,cat,bird,0,0168_ske_dnn_0_bird_00_bird-0685-sketch-28.png,bird-0685-sketch-28.png,0.0,-6.582853,-6.4957395,-0.061598465
alexnet_w3_mlp_simclrhn_probe0,1,169,NaN,bottle,bird,0,0169_ske_dnn_0_bird_00_bird-0694-sketch-36.png,bird-0694-sketch-36.png,0.0,-3.3398132,-3.1136158,-0.15994577
alexnet_w3_mlp_simclrhn_probe0,1,170,NaN,bicycle,bird,0,0170_ske_dnn_0_bird_00_bird-0733-sketch-25.png,bird-0733-sketch-25.png,0.0,-4.6010866,-4.4449267,-0.11042171
alexnet_w3_mlp_simclrhn_probe0,1,171,NaN,bird,bird,0,0171_ske_dnn_0_bird_00_bird-0748-sketch-39.png,bird-0748-sketch-39.png,1.0,-1.343873,-6.6963725,3.7847888
alexnet_w3_mlp_simclrhn_probe0,1,172,NaN,bird,bird,0,0172_ske_dnn_0_bird_00_bird-0749-sketch-4.png,bird-0749-sketch-4.png,1.0,-4.005913,-6.421921,1.7083757
alexnet_w3_mlp_simclrhn_probe0,1,173,NaN,bird,bird,0,0173_ske_dnn_0_bird_00_bird-0809-sketch-48.png,bird-0809-sketch-48.png,1.0,-1.7407912,-4.536809,1.9770831
alexnet_w3_mlp_simclrhn_probe0,1,174,NaN,cat,bird,0,0174_ske_dnn_0_bird_00_bird-0834-sketch-24.png,bird-0834-sketch-24.png,0.0,-2.692019,-1.8884894,-0.5681813
alexnet_w3_mlp_simclrhn_probe0,1,175,NaN,elephant,bird,0,0175_ske_dnn_0_bird_00_bird-0880-sketch-2.png,bird-0880-sketch-2.png,0.0,-5.317662,-4.5413547,-0.548932
alexnet_w3_mlp_simclrhn_probe0,1,176,NaN,bird,bird,0,0176_ske_dnn_0_bird_00_bird-0939-sketch-27.png,bird-0939-sketch-27.png,1.0,-3.0040822,-3.1873178,0.12956718
alexnet_w3_mlp_simclrhn_probe0,1,177,NaN,bird,bird,0,0177_ske_dnn_0_bird_00_bird-0954-sketch-40.png,bird-0954-sketch-40.png,1.0,-1.6767936,-2.9078653,0.8704992
alexnet_w3_mlp_simclrhn_probe0,1,178,NaN,bicycle,bird,0,0178_ske_dnn_0_bird_00_bird-1033-sketch-20.png,bird-1033-sketch-20.png,0.0,-4.267881,-1.665334,-1.8402786
alexnet_w3_mlp_simclrhn_probe0,1,179,NaN,knife,bird,0,0179_ske_dnn_0_bird_00_bird-1081-sketch-18.png,bird-1081-sketch-18.png,0.0,-2.5848753,-1.2224627,-0.9633713
alexnet_w3_mlp_simclrhn_probe0,1,180,NaN,clock,bird,0,0180_ske_dnn_0_bird_00_bird-1096-sketch-31.png,bird-1096-sketch-31.png,0.0,-3.714069,-1.8048304,-1.3500354
alexnet_w3_mlp_simclrhn_probe0,1,181,NaN,cat,bird,0,0181_ske_dnn_0_bird_00_bird-1148-sketch-32.png,bird-1148-sketch-32.png,0.0,-6.7847724,-5.4044075,-0.9760654
alexnet_w3_mlp_simclrhn_probe0,1,182,NaN,bird,bird,0,0182_ske_dnn_0_bird_00_bird-1201-sketch-34.png,bird-1201-sketch-34.png,1.0,-1.2542756,-4.377674,2.2085764
alexnet_w3_mlp_simclrhn_probe0,1,183,NaN,bird,bird,0,0183_ske_dnn_0_bird_00_bird-1342-sketch-24.png,bird-1342-sketch-24.png,1.0,0.6704073,-3.1948283,2.7331343
alexnet_w3_mlp_simclrhn_probe0,1,184,NaN,bird,bird,0,0184_ske_dnn_0_bird_00_bird-1510-sketch-39.png,bird-1510-sketch-39.png,1.0,-2.4890018,-3.429906,0.6653197
alexnet_w3_mlp_simclrhn_probe0,1,185,NaN,clock,bird,0,0185_ske_dnn_0_bird_00_bird-1562-sketch-40.png,bird-1562-sketch-40.png,0.0,-8.972799,-1.5581719,-5.2429338
alexnet_w3_mlp_simclrhn_probe0,1,186,NaN,elephant,bird,0,0186_ske_dnn_0_bird_00_bird-1565-sketch-43.png,bird-1565-sketch-43.png,0.0,-5.7453313,-5.444641,-0.21262006
alexnet_w3_mlp_simclrhn_probe0,1,187,NaN,bicycle,bird,0,0187_ske_dnn_0_bird_00_bird-1702-sketch-29.png,bird-1702-sketch-29.png,0.0,-5.303975,-1.6322131,-2.5963278
alexnet_w3_mlp_simclrhn_probe0,1,188,NaN,bird,bird,0,0188_ske_dnn_0_bird_00_bird-1721-sketch-46.png,bird-1721-sketch-46.png,1.0,-1.9989405,-3.4136324,1.0003383
alexnet_w3_mlp_simclrhn_probe0,1,189,NaN,bird,bird,0,0189_ske_dnn_0_bird_00_bird-1740-sketch-17.png,bird-1740-sketch-17.png,1.0,-1.6866328,-1.8109328,0.087893374
alexnet_w3_mlp_simclrhn_probe0,1,190,NaN,bicycle,bird,0,0190_ske_dnn_0_bird_00_bird-1749-sketch-25.png,bird-1749-sketch-25.png,0.0,-3.3385363,-1.8223841,-1.0720814
alexnet_w3_mlp_simclrhn_probe0,1,191,NaN,clock,bird,0,0191_ske_dnn_0_bird_00_bird-1756-sketch-31.png,bird-1756-sketch-31.png,0.0,-3.0608559,-1.5513601,-1.0673747
alexnet_w3_mlp_simclrhn_probe0,1,192,NaN,bird,bird,0,0192_ske_dnn_0_bird_00_bird-1860-sketch-33.png,bird-1860-sketch-33.png,1.0,0.048906803,-2.373951,1.7132192
alexnet_w3_mlp_simclrhn_probe0,1,193,NaN,bird,bird,0,0193_ske_dnn_0_bird_00_bird-1937-sketch-10.png,bird-1937-sketch-10.png,1.0,-1.0587981,-2.9582357,1.3431053
alexnet_w3_mlp_simclrhn_probe0,1,194,NaN,cat,bird,0,0194_ske_dnn_0_bird_00_bird-1948-sketch-20.png,bird-1948-sketch-20.png,0.0,-4.920005,-3.8007996,-0.79139763
alexnet_w3_mlp_simclrhn_probe0,1,195,NaN,bird,bird,0,0195_ske_dnn_0_bird_00_bird-2010-sketch-30.png,bird-2010-sketch-30.png,1.0,-4.928045,-6.600075,1.1823038
alexnet_w3_mlp_simclrhn_probe0,1,196,NaN,bird,bird,0,0196_ske_dnn_0_bird_00_bird-2169-sketch-36.png,bird-2169-sketch-36.png,1.0,-2.0197995,-2.8359737,0.5771224
alexnet_w3_mlp_simclrhn_probe0,1,197,NaN,cat,bird,0,0197_ske_dnn_0_bird_00_bird-2262-sketch-28.png,bird-2262-sketch-28.png,0.0,-4.213126,-4.079244,-0.0946689
alexnet_w3_mlp_simclrhn_probe0,1,198,NaN,airplane,bird,0,0198_ske_dnn_0_bird_00_bird-2312-sketch-27.png,bird-2312-sketch-27.png,0.0,-3.5153978,1.7575331,-3.7285254
alexnet_w3_mlp_simclrhn_probe0,1,199,NaN,knife,bird,0,0199_ske_dnn_0_bird_00_bird-2313-sketch-28.png,bird-2313-sketch-28.png,0.0,-7.0540757,-4.711597,-1.6563827
alexnet_w3_mlp_simclrhn_probe0,1,200,NaN,bicycle,bird,0,0200_ske_dnn_0_bird_00_bird-2372-sketch-36.png,bird-2372-sketch-36.png,0.0,-2.2577975,-1.1949519,-0.7515453
alexnet_w3_mlp_simclrhn_probe0,1,201,NaN,knife,boat,0,0201_ske_dnn_0_boat_00_boat-0001-sketch-0.png,boat-0001-sketch-0.png,0.0,-3.974998,-3.4114904,-0.39846003
alexnet_w3_mlp_simclrhn_probe0,1,202,NaN,boat,boat,0,0202_ske_dnn_0_boat_00_boat-0002-sketch-1.png,boat-0002-sketch-1.png,1.0,2.2488678,-1.3065716,2.5140755
alexnet_w3_mlp_simclrhn_probe0,1,203,NaN,knife,boat,0,0203_ske_dnn_0_boat_00_boat-0010-sketch-17.png,boat-0010-sketch-17.png,0.0,-1.7939087,-0.0064120293,-1.2639511
alexnet_w3_mlp_simclrhn_probe0,1,204,NaN,airplane,boat,0,0204_ske_dnn_0_boat_00_boat-0016-sketch-22.png,boat-0016-sketch-22.png,0.0,-2.8242383,-0.98614293,-1.2997297
alexnet_w3_mlp_simclrhn_probe0,1,205,NaN,clock,boat,0,0205_ske_dnn_0_boat_00_boat-0029-sketch-34.png,boat-0029-sketch-34.png,0.0,-5.1676283,3.5367987,-6.154959
alexnet_w3_mlp_simclrhn_probe0,1,206,NaN,clock,boat,0,0206_ske_dnn_0_boat_00_boat-0034-sketch-39.png,boat-0034-sketch-39.png,0.0,-1.8907915,0.60404867,-1.7641184
alexnet_w3_mlp_simclrhn_probe0,1,207,NaN,knife,boat,0,0207_ske_dnn_0_boat_00_boat-0036-sketch-40.png,boat-0036-sketch-40.png,0.0,-4.3175745,1.0741932,-3.8125553
alexnet_w3_mlp_simclrhn_probe0,1,208,NaN,knife,boat,0,0208_ske_dnn_0_boat_00_boat-0051-sketch-9.png,boat-0051-sketch-9.png,0.0,-4.9035215,-0.3147776,-3.2447321
alexnet_w3_mlp_simclrhn_probe0,1,209,NaN,boat,boat,0,0209_ske_dnn_0_boat_00_boat-0052-sketch-0.png,boat-0052-sketch-0.png,1.0,2.2355711,-0.39509124,1.8601593
alexnet_w3_mlp_simclrhn_probe0,1,210,NaN,boat,boat,0,0210_ske_dnn_0_boat_00_boat-0059-sketch-15.png,boat-0059-sketch-15.png,1.0,-1.6069111,-4.778389,2.2425735
alexnet_w3_mlp_simclrhn_probe0,1,211,NaN,clock,boat,0,0211_ske_dnn_0_boat_00_boat-0064-sketch-2.png,boat-0064-sketch-2.png,0.0,-3.7160225,-1.4629425,-1.5931681
alexnet_w3_mlp_simclrhn_probe0,1,212,NaN,airplane,boat,0,0212_ske_dnn_0_boat_00_boat-0065-sketch-20.png,boat-0065-sketch-20.png,0.0,0.5590107,2.5471463,-1.4058242
alexnet_w3_mlp_simclrhn_probe0,1,213,NaN,airplane,boat,0,0213_ske_dnn_0_boat_00_boat-0067-sketch-22.png,boat-0067-sketch-22.png,0.0,-0.3819009,0.6254789,-0.7123251
alexnet_w3_mlp_simclrhn_probe0,1,214,NaN,clock,boat,0,0214_ske_dnn_0_boat_00_boat-0068-sketch-23.png,boat-0068-sketch-23.png,0.0,-4.335079,2.0868604,-4.5409975
alexnet_w3_mlp_simclrhn_probe0,1,215,NaN,chair,boat,0,0215_ske_dnn_0_boat_00_boat-0070-sketch-25.png,boat-0070-sketch-25.png,0.0,-4.451459,-2.1965148,-1.5944862
alexnet_w3_mlp_simclrhn_probe0,1,216,NaN,bicycle,boat,0,0216_ske_dnn_0_boat_00_boat-0074-sketch-29.png,boat-0074-sketch-29.png,0.0,-4.358487,-2.6965785,-1.1751469
alexnet_w3_mlp_simclrhn_probe0,1,217,NaN,clock,boat,0,0217_ske_dnn_0_boat_00_boat-0079-sketch-33.png,boat-0079-sketch-33.png,0.0,-3.9555907,-2.4583433,-1.0587138
alexnet_w3_mlp_simclrhn_probe0,1,218,NaN,clock,boat,0,0218_ske_dnn_0_boat_00_boat-0080-sketch-34.png,boat-0080-sketch-34.png,0.0,-2.708626,-1.0167493,-1.1963376
alexnet_w3_mlp_simclrhn_probe0,1,219,NaN,chair,boat,0,0219_ske_dnn_0_boat_00_boat-0085-sketch-39.png,boat-0085-sketch-39.png,0.0,-1.8631252,-1.104498,-0.5364304
alexnet_w3_mlp_simclrhn_probe0,1,220,NaN,boat,boat,0,0220_ske_dnn_0_boat_00_boat-0088-sketch-41.png,boat-0088-sketch-41.png,1.0,-1.4853356,-2.4762096,0.7006538
alexnet_w3_mlp_simclrhn_probe0,1,221,NaN,boat,boat,0,0221_ske_dnn_0_boat_00_boat-0094-sketch-47.png,boat-0094-sketch-47.png,1.0,3.7574654,1.2819887,1.7504264
alexnet_w3_mlp_simclrhn_probe0,1,222,NaN,clock,boat,0,0222_ske_dnn_0_boat_00_boat-0099-sketch-6.png,boat-0099-sketch-6.png,0.0,-2.481572,-1.57239,-0.6428887
alexnet_w3_mlp_simclrhn_probe0,1,223,NaN,airplane,boat,0,0223_ske_dnn_0_boat_00_boat-0107-sketch-12.png,boat-0107-sketch-12.png,0.0,-1.2743748,-0.7385006,-0.37892032
alexnet_w3_mlp_simclrhn_probe0,1,224,NaN,boat,boat,0,0224_ske_dnn_0_boat_00_boat-0108-sketch-13.png,boat-0108-sketch-13.png,1.0,-0.35513374,-1.8615122,1.0651704
alexnet_w3_mlp_simclrhn_probe0,1,225,NaN,clock,boat,0,0225_ske_dnn_0_boat_00_boat-0110-sketch-15.png,boat-0110-sketch-15.png,0.0,-4.857769,-1.0770608,-2.6733646
alexnet_w3_mlp_simclrhn_probe0,1,226,NaN,boat,boat,0,0226_ske_dnn_0_boat_00_boat-0113-sketch-18.png,boat-0113-sketch-18.png,1.0,-2.9208581,-3.229513,0.2182519
alexnet_w3_mlp_simclrhn_probe0,1,227,NaN,clock,boat,0,0227_ske_dnn_0_boat_00_boat-0115-sketch-2.png,boat-0115-sketch-2.png,0.0,-4.708993,-0.91126704,-2.6853979
alexnet_w3_mlp_simclrhn_probe0,1,228,NaN,bicycle,boat,0,0228_ske_dnn_0_boat_00_boat-0123-sketch-27.png,boat-0123-sketch-27.png,0.0,-4.6180406,-1.8296678,-1.9716773
alexnet_w3_mlp_simclrhn_probe0,1,229,NaN,clock,boat,0,0229_ske_dnn_0_boat_00_boat-0124-sketch-28.png,boat-0124-sketch-28.png,0.0,-6.919873,-0.6985328,-4.399152
alexnet_w3_mlp_simclrhn_probe0,1,230,NaN,clock,boat,0,0230_ske_dnn_0_boat_00_boat-0125-sketch-29.png,boat-0125-sketch-29.png,0.0,-8.13838,0.49888778,-6.107471
alexnet_w3_mlp_simclrhn_probe0,1,231,NaN,clock,boat,0,0231_ske_dnn_0_boat_00_boat-0126-sketch-3.png,boat-0126-sketch-3.png,0.0,-5.659522,0.040216327,-4.030324
alexnet_w3_mlp_simclrhn_probe0,1,232,NaN,clock,boat,0,0232_ske_dnn_0_boat_00_boat-0128-sketch-31.png,boat-0128-sketch-31.png,0.0,-6.8648973,-3.4331303,-2.4266257
alexnet_w3_mlp_simclrhn_probe0,1,233,NaN,clock,boat,0,0233_ske_dnn_0_boat_00_boat-0130-sketch-33.png,boat-0130-sketch-33.png,0.0,-7.838067,-2.4046376,-3.842015
alexnet_w3_mlp_simclrhn_probe0,1,234,NaN,bicycle,boat,0,0234_ske_dnn_0_boat_00_boat-0132-sketch-35.png,boat-0132-sketch-35.png,0.0,-7.2893844,-2.5819376,-3.3286679
alexnet_w3_mlp_simclrhn_probe0,1,235,NaN,bicycle,boat,0,0235_ske_dnn_0_boat_00_boat-0146-sketch-48.png,boat-0146-sketch-48.png,0.0,-6.750254,-2.2112408,-3.2095673
alexnet_w3_mlp_simclrhn_probe0,1,236,NaN,airplane,boat,0,0236_ske_dnn_0_boat_00_boat-0152-sketch-8.png,boat-0152-sketch-8.png,0.0,-0.52290446,1.9105235,-1.7206935
alexnet_w3_mlp_simclrhn_probe0,1,237,NaN,knife,boat,0,0237_ske_dnn_0_boat_00_boat-0165-sketch-19.png,boat-0165-sketch-19.png,0.0,-3.940351,-2.5411048,-0.9894165
alexnet_w3_mlp_simclrhn_probe0,1,238,NaN,boat,boat,0,0238_ske_dnn_0_boat_00_boat-0166-sketch-2.png,boat-0166-sketch-2.png,1.0,-4.359396,-6.071601,1.2107117
alexnet_w3_mlp_simclrhn_probe0,1,239,NaN,airplane,boat,0,0239_ske_dnn_0_boat_00_boat-0173-sketch-26.png,boat-0173-sketch-26.png,0.0,-1.300685,1.3371129,-1.8652048
alexnet_w3_mlp_simclrhn_probe0,1,240,NaN,car,boat,0,0240_ske_dnn_0_boat_00_boat-0178-sketch-30.png,boat-0178-sketch-30.png,0.0,-5.919165,0.6300977,-4.631028
alexnet_w3_mlp_simclrhn_probe0,1,241,NaN,clock,boat,0,0241_ske_dnn_0_boat_00_boat-0180-sketch-32.png,boat-0180-sketch-32.png,0.0,-3.257131,-0.9711067,-1.6164633
alexnet_w3_mlp_simclrhn_probe0,1,242,NaN,clock,boat,0,0242_ske_dnn_0_boat_00_boat-0194-sketch-45.png,boat-0194-sketch-45.png,0.0,-2.0612493,-0.42944613,-1.1538591
alexnet_w3_mlp_simclrhn_probe0,1,243,NaN,boat,boat,0,0243_ske_dnn_0_boat_00_boat-0197-sketch-48.png,boat-0197-sketch-48.png,1.0,-4.84988,-5.830695,0.69354093
alexnet_w3_mlp_simclrhn_probe0,1,244,NaN,boat,boat,0,0244_ske_dnn_0_boat_00_boat-0212-sketch-15.png,boat-0212-sketch-15.png,1.0,-1.7435415,-2.1029947,0.2541718
alexnet_w3_mlp_simclrhn_probe0,1,245,NaN,chair,boat,0,0245_ske_dnn_0_boat_00_boat-0228-sketch-3.png,boat-0228-sketch-3.png,0.0,-4.908989,0.48447418,-3.8137543
alexnet_w3_mlp_simclrhn_probe0,1,246,NaN,bicycle,boat,0,0246_ske_dnn_0_boat_00_boat-0233-sketch-34.png,boat-0233-sketch-34.png,0.0,-1.5793537,2.5541868,-2.9228547
alexnet_w3_mlp_simclrhn_probe0,1,247,NaN,bicycle,boat,0,0247_ske_dnn_0_boat_00_boat-0234-sketch-35.png,boat-0234-sketch-35.png,0.0,-1.4890645,-0.39622295,-0.7727557
alexnet_w3_mlp_simclrhn_probe0,1,248,NaN,clock,boat,0,0248_ske_dnn_0_boat_00_boat-0237-sketch-38.png,boat-0237-sketch-38.png,0.0,-3.7864718,-0.9468891,-2.0078883
alexnet_w3_mlp_simclrhn_probe0,1,249,NaN,bicycle,boat,0,0249_ske_dnn_0_boat_00_boat-0239-sketch-4.png,boat-0239-sketch-4.png,0.0,-1.1332887,0.22531784,-0.96067995
alexnet_w3_mlp_simclrhn_probe0,1,250,NaN,clock,boat,0,0250_ske_dnn_0_boat_00_boat-0253-sketch-7.png,boat-0253-sketch-7.png,0.0,-0.21780081,-0.11304795,-0.07407146
alexnet_w3_mlp_simclrhn_probe0,1,251,NaN,bottle,bottle,0,0251_ske_dnn_0_bottle_00_bottle-0002-sketch-1.png,bottle-0002-sketch-1.png,1.0,-0.31910846,-3.2782643,2.0924392
alexnet_w3_mlp_simclrhn_probe0,1,252,NaN,clock,bottle,0,0252_ske_dnn_0_bottle_00_bottle-0003-sketch-10.png,bottle-0003-sketch-10.png,0.0,0.026862485,3.664214,-2.571996
alexnet_w3_mlp_simclrhn_probe0,1,253,NaN,clock,bottle,0,0253_ske_dnn_0_bottle_00_bottle-0019-sketch-25.png,bottle-0019-sketch-25.png,0.0,-1.7218058,3.2565098,-3.5202005
alexnet_w3_mlp_simclrhn_probe0,1,254,NaN,bottle,bottle,0,0254_ske_dnn_0_bottle_00_bottle-0030-sketch-35.png,bottle-0030-sketch-35.png,1.0,4.6846952,4.434802,0.17670117
alexnet_w3_mlp_simclrhn_probe0,1,255,NaN,bottle,bottle,0,0255_ske_dnn_0_bottle_00_bottle-0031-sketch-36.png,bottle-0031-sketch-36.png,1.0,1.4277047,0.7275936,0.49505332
alexnet_w3_mlp_simclrhn_probe0,1,256,NaN,clock,bottle,0,0256_ske_dnn_0_bottle_00_bottle-0038-sketch-42.png,bottle-0038-sketch-42.png,0.0,-1.1520404,2.4858704,-2.5723915
alexnet_w3_mlp_simclrhn_probe0,1,257,NaN,bottle,bottle,0,0257_ske_dnn_0_bottle_00_bottle-0039-sketch-43.png,bottle-0039-sketch-43.png,1.0,4.6417494,-3.9881349,6.10225
alexnet_w3_mlp_simclrhn_probe0,1,258,NaN,clock,bottle,0,0258_ske_dnn_0_bottle_00_bottle-0041-sketch-45.png,bottle-0041-sketch-45.png,0.0,-0.21849932,3.8104649,-2.848908
alexnet_w3_mlp_simclrhn_probe0,1,259,NaN,clock,bottle,0,0259_ske_dnn_0_bottle_00_bottle-0045-sketch-49.png,bottle-0045-sketch-49.png,0.0,-0.9054574,-0.63909954,-0.18834344
alexnet_w3_mlp_simclrhn_probe0,1,260,NaN,bottle,bottle,0,0260_ske_dnn_0_bottle_00_bottle-0050-sketch-9.png,bottle-0050-sketch-9.png,1.0,0.4530864,-1.4438263,1.3413198
alexnet_w3_mlp_simclrhn_probe0,1,261,NaN,bottle,bottle,0,0261_ske_dnn_0_bottle_00_bottle-0054-sketch-11.png,bottle-0054-sketch-11.png,1.0,2.9804306,1.1711361,1.2793643
alexnet_w3_mlp_simclrhn_probe0,1,262,NaN,clock,bottle,0,0262_ske_dnn_0_bottle_00_bottle-0066-sketch-22.png,bottle-0066-sketch-22.png,0.0,3.4440856,3.967048,-0.36979023
alexnet_w3_mlp_simclrhn_probe0,1,263,NaN,clock,bottle,0,0263_ske_dnn_0_bottle_00_bottle-0071-sketch-27.png,bottle-0071-sketch-27.png,0.0,-2.1667106,0.6506404,-1.9921681
alexnet_w3_mlp_simclrhn_probe0,1,264,NaN,clock,bottle,0,0264_ske_dnn_0_bottle_00_bottle-0082-sketch-37.png,bottle-0082-sketch-37.png,0.0,0.55095154,2.1549854,-1.1342233
alexnet_w3_mlp_simclrhn_probe0,1,265,NaN,bottle,bottle,0,0265_ske_dnn_0_bottle_00_bottle-0086-sketch-40.png,bottle-0086-sketch-40.png,1.0,3.354192,1.5592941,1.2691845
alexnet_w3_mlp_simclrhn_probe0,1,266,NaN,bottle,bottle,0,0266_ske_dnn_0_bottle_00_bottle-0090-sketch-44.png,bottle-0090-sketch-44.png,1.0,2.865146,0.7651003,1.4849566
alexnet_w3_mlp_simclrhn_probe0,1,267,NaN,clock,bottle,0,0267_ske_dnn_0_bottle_00_bottle-0097-sketch-50.png,bottle-0097-sketch-50.png,0.0,-2.3990505,0.30886918,-1.9147884
alexnet_w3_mlp_simclrhn_probe0,1,268,NaN,bicycle,bottle,0,0268_ske_dnn_0_bottle_00_bottle-0107-sketch-13.png,bottle-0107-sketch-13.png,0.0,-7.9595065,3.0162983,-7.7610664
alexnet_w3_mlp_simclrhn_probe0,1,269,NaN,bicycle,bottle,0,0269_ske_dnn_0_bottle_00_bottle-0114-sketch-2.png,bottle-0114-sketch-2.png,0.0,-7.0037427,-2.3906045,-3.2619812
alexnet_w3_mlp_simclrhn_probe0,1,270,NaN,knife,bottle,0,0270_ske_dnn_0_bottle_00_bottle-0126-sketch-30.png,bottle-0126-sketch-30.png,0.0,-2.3950136,-0.98743314,-0.99530965
alexnet_w3_mlp_simclrhn_probe0,1,271,NaN,bottle,bottle,0,0271_ske_dnn_0_bottle_00_bottle-0130-sketch-34.png,bottle-0130-sketch-34.png,1.0,3.7189252,2.5915384,0.79718286
alexnet_w3_mlp_simclrhn_probe0,1,272,NaN,knife,bottle,0,0272_ske_dnn_0_bottle_00_bottle-0131-sketch-35.png,bottle-0131-sketch-35.png,0.0,-6.9693403,-4.423161,-1.8004206
alexnet_w3_mlp_simclrhn_probe0,1,273,NaN,clock,bottle,0,0273_ske_dnn_0_bottle_00_bottle-0133-sketch-37.png,bottle-0133-sketch-37.png,0.0,-5.7117047,0.6177812,-4.4756227
alexnet_w3_mlp_simclrhn_probe0,1,274,NaN,bottle,bottle,0,0274_ske_dnn_0_bottle_00_bottle-0135-sketch-39.png,bottle-0135-sketch-39.png,1.0,-1.3994968,-1.9542413,0.3922636
alexnet_w3_mlp_simclrhn_probe0,1,275,NaN,keyboard,bottle,0,0275_ske_dnn_0_bottle_00_bottle-0143-sketch-46.png,bottle-0143-sketch-46.png,0.0,-2.5734978,0.98392415,-2.5154772
alexnet_w3_mlp_simclrhn_probe0,1,276,NaN,bottle,bottle,0,0276_ske_dnn_0_bottle_00_bottle-0145-sketch-48.png,bottle-0145-sketch-48.png,1.0,-0.48807552,-0.80624247,0.224978
alexnet_w3_mlp_simclrhn_probe0,1,277,NaN,clock,bottle,0,0277_ske_dnn_0_bottle_00_bottle-0150-sketch-7.png,bottle-0150-sketch-7.png,0.0,3.155018,4.0644326,-0.6430532
alexnet_w3_mlp_simclrhn_probe0,1,278,NaN,clock,bottle,0,0278_ske_dnn_0_bottle_00_bottle-0162-sketch-17.png,bottle-0162-sketch-17.png,0.0,-0.3464939,0.07552741,-0.29841414
alexnet_w3_mlp_simclrhn_probe0,1,279,NaN,clock,bottle,0,0279_ske_dnn_0_bottle_00_bottle-0165-sketch-2.png,bottle-0165-sketch-2.png,0.0,-0.07123954,1.4442033,-1.0715799
alexnet_w3_mlp_simclrhn_probe0,1,280,NaN,clock,bottle,0,0280_ske_dnn_0_bottle_00_bottle-0184-sketch-37.png,bottle-0184-sketch-37.png,0.0,-0.6367087,0.17198503,-0.57183284
alexnet_w3_mlp_simclrhn_probe0,1,281,NaN,clock,bottle,0,0281_ske_dnn_0_bottle_00_bottle-0185-sketch-38.png,bottle-0185-sketch-38.png,0.0,1.417672,3.0073617,-1.1240803
alexnet_w3_mlp_simclrhn_probe0,1,282,NaN,bottle,bottle,0,0282_ske_dnn_0_bottle_00_bottle-0189-sketch-41.png,bottle-0189-sketch-41.png,1.0,-1.7252485,-3.9016635,1.5389578
alexnet_w3_mlp_simclrhn_probe0,1,283,NaN,bottle,bottle,0,0283_ske_dnn_0_bottle_00_bottle-0202-sketch-8.png,bottle-0202-sketch-8.png,1.0,0.059491925,-0.2625549,0.22772151
alexnet_w3_mlp_simclrhn_probe0,1,284,NaN,clock,bottle,0,0284_ske_dnn_0_bottle_00_bottle-0207-sketch-11.png,bottle-0207-sketch-11.png,0.0,3.6438336,4.434681,-0.5592135
alexnet_w3_mlp_simclrhn_probe0,1,285,NaN,clock,bottle,0,0285_ske_dnn_0_bottle_00_bottle-0215-sketch-19.png,bottle-0215-sketch-19.png,0.0,-2.5289643,2.6771858,-3.681304
alexnet_w3_mlp_simclrhn_probe0,1,286,NaN,clock,bottle,0,0286_ske_dnn_0_bottle_00_bottle-0217-sketch-20.png,bottle-0217-sketch-20.png,0.0,-1.3999474,5.4371057,-4.834527
alexnet_w3_mlp_simclrhn_probe0,1,287,NaN,knife,bottle,0,0287_ske_dnn_0_bottle_00_bottle-0237-sketch-39.png,bottle-0237-sketch-39.png,0.0,-0.8294171,2.2751553,-2.195264
alexnet_w3_mlp_simclrhn_probe0,1,288,NaN,clock,bottle,0,0288_ske_dnn_0_bottle_00_bottle-0243-sketch-44.png,bottle-0243-sketch-44.png,0.0,-1.7038237,-0.3833712,-0.9337009
alexnet_w3_mlp_simclrhn_probe0,1,289,NaN,bottle,bottle,0,0289_ske_dnn_0_bottle_00_bottle-0245-sketch-46.png,bottle-0245-sketch-46.png,1.0,0.28921387,-2.3497005,1.8659942
alexnet_w3_mlp_simclrhn_probe0,1,290,NaN,bottle,bottle,0,0290_ske_dnn_0_bottle_00_bottle-0268-sketch-20.png,bottle-0268-sketch-20.png,1.0,1.5921285,-1.0175648,1.8453319
alexnet_w3_mlp_simclrhn_probe0,1,291,NaN,clock,bottle,0,0291_ske_dnn_0_bottle_00_bottle-0280-sketch-31.png,bottle-0280-sketch-31.png,0.0,2.2995694,3.4092827,-0.78468585
alexnet_w3_mlp_simclrhn_probe0,1,292,NaN,bottle,bottle,0,0292_ske_dnn_0_bottle_00_bottle-0292-sketch-42.png,bottle-0292-sketch-42.png,1.0,3.1621468,1.3154525,1.3058101
alexnet_w3_mlp_simclrhn_probe0,1,293,NaN,bottle,bottle,0,0293_ske_dnn_0_bottle_00_bottle-0294-sketch-44.png,bottle-0294-sketch-44.png,1.0,-1.8692067,-3.315408,1.0226188
alexnet_w3_mlp_simclrhn_probe0,1,294,NaN,clock,bottle,0,0294_ske_dnn_0_bottle_00_bottle-0296-sketch-46.png,bottle-0296-sketch-46.png,0.0,-0.17902277,2.2906973,-1.7463559
alexnet_w3_mlp_simclrhn_probe0,1,295,NaN,bottle,bottle,0,0295_ske_dnn_0_bottle_00_bottle-0301-sketch-50.png,bottle-0301-sketch-50.png,1.0,0.5063531,-2.1904767,1.9069467
alexnet_w3_mlp_simclrhn_probe0,1,296,NaN,bottle,bottle,0,0296_ske_dnn_0_bottle_00_bottle-0305-sketch-9.png,bottle-0305-sketch-9.png,1.0,0.31565472,-1.7638196,1.4704103
alexnet_w3_mlp_simclrhn_probe0,1,297,NaN,bottle,bottle,0,0297_ske_dnn_0_bottle_00_bottle-0313-sketch-15.png,bottle-0313-sketch-15.png,1.0,1.1087196,-2.086993,2.25971
alexnet_w3_mlp_simclrhn_probe0,1,298,NaN,bottle,bottle,0,0298_ske_dnn_0_bottle_00_bottle-0321-sketch-22.png,bottle-0321-sketch-22.png,1.0,1.4463768,-3.9217167,3.7958155
alexnet_w3_mlp_simclrhn_probe0,1,299,NaN,bottle,bottle,0,0299_ske_dnn_0_bottle_00_bottle-0330-sketch-30.png,bottle-0330-sketch-30.png,1.0,1.4717642,-4.1458225,3.9722338
alexnet_w3_mlp_simclrhn_probe0,1,300,NaN,bottle,bottle,0,0300_ske_dnn_0_bottle_00_bottle-0338-sketch-38.png,bottle-0338-sketch-38.png,1.0,-1.4802634,-2.8591113,0.97499275
alexnet_w3_mlp_simclrhn_probe0,1,301,NaN,truck,car,0,0301_ske_dnn_0_car_00_car-0002-sketch-1.png,car-0002-sketch-1.png,0.0,-1.7986379,-0.7758609,-0.72321254
alexnet_w3_mlp_simclrhn_probe0,1,302,NaN,car,car,0,0302_ske_dnn_0_car_00_car-0004-sketch-11.png,car-0004-sketch-11.png,1.0,0.51962966,-0.03464929,0.39193442
alexnet_w3_mlp_simclrhn_probe0,1,303,NaN,truck,car,0,0303_ske_dnn_0_car_00_car-0005-sketch-12.png,car-0005-sketch-12.png,0.0,-2.6330245,-1.3977437,-0.87347543
alexnet_w3_mlp_simclrhn_probe0,1,304,NaN,car,car,0,0304_ske_dnn_0_car_00_car-0009-sketch-16.png,car-0009-sketch-16.png,1.0,3.0064628,1.2429998,1.2469567
alexnet_w3_mlp_simclrhn_probe0,1,305,NaN,car,car,0,0305_ske_dnn_0_car_00_car-0013-sketch-2.png,car-0013-sketch-2.png,1.0,1.5710019,0.18863866,0.9774784
alexnet_w3_mlp_simclrhn_probe0,1,306,NaN,car,car,0,0306_ske_dnn_0_car_00_car-0014-sketch-20.png,car-0014-sketch-20.png,1.0,-0.8861,-1.9398186,0.74509156
alexnet_w3_mlp_simclrhn_probe0,1,307,NaN,oven,car,0,0307_ske_dnn_0_car_00_car-0017-sketch-23.png,car-0017-sketch-23.png,0.0,-6.339319,-3.1573687,-2.2499788
alexnet_w3_mlp_simclrhn_probe0,1,308,NaN,car,car,0,0308_ske_dnn_0_car_00_car-0018-sketch-24.png,car-0018-sketch-24.png,1.0,0.8643851,-0.06154979,0.65473485
alexnet_w3_mlp_simclrhn_probe0,1,309,NaN,clock,car,0,0309_ske_dnn_0_car_00_car-0021-sketch-27.png,car-0021-sketch-27.png,0.0,-1.5257916,0.8574848,-1.685231
alexnet_w3_mlp_simclrhn_probe0,1,310,NaN,clock,car,0,0310_ske_dnn_0_car_00_car-0022-sketch-28.png,car-0022-sketch-28.png,0.0,-2.0422876,-0.8385086,-0.8512003
alexnet_w3_mlp_simclrhn_probe0,1,311,NaN,car,car,0,0311_ske_dnn_0_car_00_car-0024-sketch-3.png,car-0024-sketch-3.png,1.0,9.469632,5.251465,2.9826949
alexnet_w3_mlp_simclrhn_probe0,1,312,NaN,clock,car,0,0312_ske_dnn_0_car_00_car-0025-sketch-30.png,car-0025-sketch-30.png,0.0,-7.003456,1.7476538,-6.187969
alexnet_w3_mlp_simclrhn_probe0,1,313,NaN,oven,car,0,0313_ske_dnn_0_car_00_car-0029-sketch-34.png,car-0029-sketch-34.png,0.0,-6.7417703,-3.9161842,-1.9979911
alexnet_w3_mlp_simclrhn_probe0,1,314,NaN,car,car,0,0314_ske_dnn_0_car_00_car-0030-sketch-35.png,car-0030-sketch-35.png,1.0,1.4084878,-0.12981576,1.087745
alexnet_w3_mlp_simclrhn_probe0,1,315,NaN,chair,car,0,0315_ske_dnn_0_car_00_car-0032-sketch-37.png,car-0032-sketch-37.png,0.0,-2.098131,-1.1222513,-0.69005114
alexnet_w3_mlp_simclrhn_probe0,1,316,NaN,clock,car,0,0316_ske_dnn_0_car_00_car-0034-sketch-39.png,car-0034-sketch-39.png,0.0,-1.8908248,-0.8365419,-0.7454906
alexnet_w3_mlp_simclrhn_probe0,1,317,NaN,car,car,0,0317_ske_dnn_0_car_00_car-0040-sketch-44.png,car-0040-sketch-44.png,1.0,0.18186963,-0.64735305,0.586349
alexnet_w3_mlp_simclrhn_probe0,1,318,NaN,car,car,0,0318_ske_dnn_0_car_00_car-0043-sketch-47.png,car-0043-sketch-47.png,1.0,9.469632,5.251465,2.9826949
alexnet_w3_mlp_simclrhn_probe0,1,319,NaN,car,car,0,0319_ske_dnn_0_car_00_car-0044-sketch-48.png,car-0044-sketch-48.png,1.0,4.347046,0.07489061,3.02087
alexnet_w3_mlp_simclrhn_probe0,1,320,NaN,car,car,0,0320_ske_dnn_0_car_00_car-0045-sketch-49.png,car-0045-sketch-49.png,1.0,3.105238,2.0437884,0.7505582
alexnet_w3_mlp_simclrhn_probe0,1,321,NaN,car,car,0,0321_ske_dnn_0_car_00_car-0047-sketch-50.png,car-0047-sketch-50.png,1.0,0.20962419,-0.5855259,0.562256
alexnet_w3_mlp_simclrhn_probe0,1,322,NaN,clock,car,0,0322_ske_dnn_0_car_00_car-0050-sketch-8.png,car-0050-sketch-8.png,0.0,-4.690748,2.7121382,-5.234631
alexnet_w3_mlp_simclrhn_probe0,1,323,NaN,car,car,0,0323_ske_dnn_0_car_00_car-0052-sketch-0.png,car-0052-sketch-0.png,1.0,-0.21041621,-1.1488582,0.6635787
alexnet_w3_mlp_simclrhn_probe0,1,324,NaN,car,car,0,0324_ske_dnn_0_car_00_car-0055-sketch-11.png,car-0055-sketch-11.png,1.0,5.1408935,2.0448937,2.1892025
alexnet_w3_mlp_simclrhn_probe0,1,325,NaN,bicycle,car,0,0325_ske_dnn_0_car_00_car-0064-sketch-2.png,car-0064-sketch-2.png,0.0,1.012245,1.2460948,-0.16535676
alexnet_w3_mlp_simclrhn_probe0,1,326,NaN,car,car,0,0326_ske_dnn_0_car_00_car-0069-sketch-24.png,car-0069-sketch-24.png,1.0,1.276042,1.1285641,0.1042826
alexnet_w3_mlp_simclrhn_probe0,1,327,NaN,car,car,0,0327_ske_dnn_0_car_00_car-0076-sketch-30.png,car-0076-sketch-30.png,1.0,1.1271251,-1.3408633,1.7451314
alexnet_w3_mlp_simclrhn_probe0,1,328,NaN,keyboard,car,0,0328_ske_dnn_0_car_00_car-0079-sketch-33.png,car-0079-sketch-33.png,0.0,-3.7644196,-0.40287346,-2.376972
alexnet_w3_mlp_simclrhn_probe0,1,329,NaN,clock,car,0,0329_ske_dnn_0_car_00_car-0083-sketch-37.png,car-0083-sketch-37.png,0.0,-0.49032715,1.1415906,-1.1539401
alexnet_w3_mlp_simclrhn_probe0,1,330,NaN,bicycle,car,0,0330_ske_dnn_0_car_00_car-0092-sketch-45.png,car-0092-sketch-45.png,0.0,-3.582676,-0.15157822,-2.4261525
alexnet_w3_mlp_simclrhn_probe0,1,331,NaN,car,car,0,0331_ske_dnn_0_car_00_car-0096-sketch-49.png,car-0096-sketch-49.png,1.0,4.421653,-0.51652265,3.4918172
alexnet_w3_mlp_simclrhn_probe0,1,332,NaN,clock,car,0,0332_ske_dnn_0_car_00_car-0098-sketch-50.png,car-0098-sketch-50.png,0.0,0.76716024,1.387324,-0.43852198
alexnet_w3_mlp_simclrhn_probe0,1,333,NaN,car,car,0,0333_ske_dnn_0_car_00_car-0100-sketch-7.png,car-0100-sketch-7.png,1.0,3.9487057,1.7720222,1.5391476
alexnet_w3_mlp_simclrhn_probe0,1,334,NaN,car,car,0,0334_ske_dnn_0_car_00_car-0112-sketch-17.png,car-0112-sketch-17.png,1.0,5.146626,1.0102425,2.924865
alexnet_w3_mlp_simclrhn_probe0,1,335,NaN,car,car,0,0335_ske_dnn_0_car_00_car-0114-sketch-19.png,car-0114-sketch-19.png,1.0,-0.004479567,-1.1491686,0.8094174
alexnet_w3_mlp_simclrhn_probe0,1,336,NaN,car,car,0,0336_ske_dnn_0_car_00_car-0116-sketch-20.png,car-0116-sketch-20.png,1.0,5.215555,2.5528915,1.8827876
alexnet_w3_mlp_simclrhn_probe0,1,337,NaN,car,car,0,0337_ske_dnn_0_car_00_car-0117-sketch-21.png,car-0117-sketch-21.png,1.0,0.64343494,0.044219237,0.42370948
alexnet_w3_mlp_simclrhn_probe0,1,338,NaN,car,car,0,0338_ske_dnn_0_car_00_car-0120-sketch-24.png,car-0120-sketch-24.png,1.0,4.4944453,2.9985962,1.0577251
alexnet_w3_mlp_simclrhn_probe0,1,339,NaN,clock,car,0,0339_ske_dnn_0_car_00_car-0122-sketch-26.png,car-0122-sketch-26.png,0.0,3.9463594,6.6947875,-1.9434322
alexnet_w3_mlp_simclrhn_probe0,1,340,NaN,clock,car,0,0340_ske_dnn_0_car_00_car-0124-sketch-28.png,car-0124-sketch-28.png,0.0,-0.49756607,1.5772306,-1.4671028
alexnet_w3_mlp_simclrhn_probe0,1,341,NaN,car,car,0,0341_ske_dnn_0_car_00_car-0125-sketch-29.png,car-0125-sketch-29.png,1.0,1.1575731,-1.1412328,1.6255013
alexnet_w3_mlp_simclrhn_probe0,1,342,NaN,clock,car,0,0342_ske_dnn_0_car_00_car-0129-sketch-32.png,car-0129-sketch-32.png,0.0,-0.046347737,2.7013683,-1.9429287
alexnet_w3_mlp_simclrhn_probe0,1,343,NaN,car,car,0,0343_ske_dnn_0_car_00_car-0132-sketch-35.png,car-0132-sketch-35.png,1.0,5.4824295,1.5951755,2.7487037
alexnet_w3_mlp_simclrhn_probe0,1,344,NaN,clock,car,0,0344_ske_dnn_0_car_00_car-0136-sketch-39.png,car-0136-sketch-39.png,0.0,-2.110813,1.2578017,-2.3819704
alexnet_w3_mlp_simclrhn_probe0,1,345,NaN,car,car,0,0345_ske_dnn_0_car_00_car-0138-sketch-40.png,car-0138-sketch-40.png,1.0,4.7352557,0.93716145,2.6856582
alexnet_w3_mlp_simclrhn_probe0,1,346,NaN,car,car,0,0346_ske_dnn_0_car_00_car-0139-sketch-41.png,car-0139-sketch-41.png,1.0,4.3681364,0.19173336,2.953163
alexnet_w3_mlp_simclrhn_probe0,1,347,NaN,clock,car,0,0347_ske_dnn_0_car_00_car-0143-sketch-45.png,car-0143-sketch-45.png,0.0,0.6344717,0.82048845,-0.1315337
alexnet_w3_mlp_simclrhn_probe0,1,348,NaN,car,car,0,0348_ske_dnn_0_car_00_car-0145-sketch-47.png,car-0145-sketch-47.png,1.0,-1.5424837,-3.3668356,1.2900116
alexnet_w3_mlp_simclrhn_probe0,1,349,NaN,car,car,0,0349_ske_dnn_0_car_00_car-0151-sketch-7.png,car-0151-sketch-7.png,1.0,6.365808,2.8378801,2.4946218
alexnet_w3_mlp_simclrhn_probe0,1,350,NaN,clock,car,0,0350_ske_dnn_0_car_00_car-0153-sketch-9.png,car-0153-sketch-9.png,0.0,-2.3560934,-0.6980328,-1.1724259
alexnet_w3_mlp_simclrhn_probe0,1,351,NaN,cat,cat,0,0351_ske_dnn_0_cat_00_cat-0002-sketch-1.png,cat-0002-sketch-1.png,1.0,8.719264,-3.3906682,8.563015
alexnet_w3_mlp_simclrhn_probe0,1,352,NaN,cat,cat,0,0352_ske_dnn_0_cat_00_cat-0009-sketch-16.png,cat-0009-sketch-16.png,1.0,0.8374762,-3.674247,3.19027
alexnet_w3_mlp_simclrhn_probe0,1,353,NaN,clock,cat,0,0353_ske_dnn_0_cat_00_cat-0011-sketch-18.png,cat-0011-sketch-18.png,0.0,-3.299392,-2.9905803,-0.21836282
alexnet_w3_mlp_simclrhn_probe0,1,354,NaN,cat,cat,0,0354_ske_dnn_0_cat_00_cat-0015-sketch-21.png,cat-0015-sketch-21.png,1.0,2.8565018,-5.0679727,5.60345
alexnet_w3_mlp_simclrhn_probe0,1,355,NaN,cat,cat,0,0355_ske_dnn_0_cat_00_cat-0016-sketch-22.png,cat-0016-sketch-22.png,1.0,5.175961,-3.0879226,5.843448
alexnet_w3_mlp_simclrhn_probe0,1,356,NaN,cat,cat,0,0356_ske_dnn_0_cat_00_cat-0021-sketch-27.png,cat-0021-sketch-27.png,1.0,1.2443075,-5.3276505,4.647076
alexnet_w3_mlp_simclrhn_probe0,1,357,NaN,cat,cat,0,0357_ske_dnn_0_cat_00_cat-0027-sketch-32.png,cat-0027-sketch-32.png,1.0,0.61797655,-4.6529274,3.727092
alexnet_w3_mlp_simclrhn_probe0,1,358,NaN,cat,cat,0,0358_ske_dnn_0_cat_00_cat-0042-sketch-46.png,cat-0042-sketch-46.png,1.0,0.73920745,-6.021649,4.7806473
alexnet_w3_mlp_simclrhn_probe0,1,359,NaN,cat,cat,0,0359_ske_dnn_0_cat_00_cat-0043-sketch-47.png,cat-0043-sketch-47.png,1.0,1.0223634,-2.886709,2.7641315
alexnet_w3_mlp_simclrhn_probe0,1,360,NaN,cat,cat,0,0360_ske_dnn_0_cat_00_cat-0044-sketch-48.png,cat-0044-sketch-48.png,1.0,1.0470887,-3.8279526,3.447175
alexnet_w3_mlp_simclrhn_probe0,1,361,NaN,cat,cat,0,0361_ske_dnn_0_cat_00_cat-0048-sketch-7.png,cat-0048-sketch-7.png,1.0,0.7367101,-6.8971205,5.3979335
alexnet_w3_mlp_simclrhn_probe0,1,362,NaN,cat,cat,0,0362_ske_dnn_0_cat_00_cat-0052-sketch-1.png,cat-0052-sketch-1.png,1.0,3.3192616,-5.70822,6.3833933
alexnet_w3_mlp_simclrhn_probe0,1,363,NaN,clock,cat,0,0363_ske_dnn_0_cat_00_cat-0053-sketch-10.png,cat-0053-sketch-10.png,0.0,-5.8732495,-0.29830602,-3.9420805
alexnet_w3_mlp_simclrhn_probe0,1,364,NaN,bicycle,cat,0,0364_ske_dnn_0_cat_00_cat-0059-sketch-16.png,cat-0059-sketch-16.png,0.0,-2.4208696,-2.3800733,-0.028847327
alexnet_w3_mlp_simclrhn_probe0,1,365,NaN,cat,cat,0,0365_ske_dnn_0_cat_00_cat-0062-sketch-19.png,cat-0062-sketch-19.png,1.0,-5.089107,-6.4384737,0.9541463
alexnet_w3_mlp_simclrhn_probe0,1,366,NaN,cat,cat,0,0366_ske_dnn_0_cat_00_cat-0067-sketch-23.png,cat-0067-sketch-23.png,1.0,-1.2106957,-4.047903,2.0062087
alexnet_w3_mlp_simclrhn_probe0,1,367,NaN,keyboard,cat,0,0367_ske_dnn_0_cat_00_cat-0073-sketch-29.png,cat-0073-sketch-29.png,0.0,-4.7096577,-2.6791773,-1.4357665
alexnet_w3_mlp_simclrhn_probe0,1,368,NaN,clock,cat,0,0368_ske_dnn_0_cat_00_cat-0082-sketch-37.png,cat-0082-sketch-37.png,0.0,-4.500283,-2.6403902,-1.3151428
alexnet_w3_mlp_simclrhn_probe0,1,369,NaN,cat,cat,0,0369_ske_dnn_0_cat_00_cat-0085-sketch-4.png,cat-0085-sketch-4.png,1.0,-0.90279096,-3.5256283,1.854626
alexnet_w3_mlp_simclrhn_probe0,1,370,NaN,cat,cat,0,0370_ske_dnn_0_cat_00_cat-0090-sketch-44.png,cat-0090-sketch-44.png,1.0,-1.1897494,-4.302501,2.2010481
alexnet_w3_mlp_simclrhn_probe0,1,371,NaN,cat,cat,0,0371_ske_dnn_0_cat_00_cat-0104-sketch-10.png,cat-0104-sketch-10.png,1.0,-1.2420362,-1.9661199,0.5120045
alexnet_w3_mlp_simclrhn_probe0,1,372,NaN,cat,cat,0,0372_ske_dnn_0_cat_00_cat-0124-sketch-29.png,cat-0124-sketch-29.png,1.0,-4.1207585,-8.096352,2.811169
alexnet_w3_mlp_simclrhn_probe0,1,373,NaN,cat,cat,0,0373_ske_dnn_0_cat_00_cat-0128-sketch-32.png,cat-0128-sketch-32.png,1.0,2.0150652,-3.173656,3.66898
alexnet_w3_mlp_simclrhn_probe0,1,374,NaN,cat,cat,0,0374_ske_dnn_0_cat_00_cat-0134-sketch-38.png,cat-0134-sketch-38.png,1.0,-2.5409267,-3.8917716,0.95519155
alexnet_w3_mlp_simclrhn_probe0,1,375,NaN,cat,cat,0,0375_ske_dnn_0_cat_00_cat-0140-sketch-43.png,cat-0140-sketch-43.png,1.0,1.9512377,-4.2144713,4.3598146
alexnet_w3_mlp_simclrhn_probe0,1,376,NaN,cat,cat,0,0376_ske_dnn_0_cat_00_cat-0149-sketch-6.png,cat-0149-sketch-6.png,1.0,0.67474777,-3.8161407,3.1755378
alexnet_w3_mlp_simclrhn_probe0,1,377,NaN,cat,cat,0,0377_ske_dnn_0_cat_00_cat-0150-sketch-7.png,cat-0150-sketch-7.png,1.0,1.3977906,-7.1763844,6.062857
alexnet_w3_mlp_simclrhn_probe0,1,378,NaN,bicycle,cat,0,0378_ske_dnn_0_cat_00_cat-0152-sketch-9.png,cat-0152-sketch-9.png,0.0,-3.7701786,-1.3834143,-1.6876973
alexnet_w3_mlp_simclrhn_probe0,1,379,NaN,clock,cat,0,0379_ske_dnn_0_cat_00_cat-0158-sketch-13.png,cat-0158-sketch-13.png,0.0,-8.076838,-1.9547235,-4.3289886
alexnet_w3_mlp_simclrhn_probe0,1,380,NaN,cat,cat,0,0380_ske_dnn_0_cat_00_cat-0160-sketch-15.png,cat-0160-sketch-15.png,1.0,0.37844136,-2.1530235,1.7900159
alexnet_w3_mlp_simclrhn_probe0,1,381,NaN,cat,cat,0,0381_ske_dnn_0_cat_00_cat-0175-sketch-29.png,cat-0175-sketch-29.png,1.0,-1.642059,-5.027183,2.3936443
alexnet_w3_mlp_simclrhn_probe0,1,382,NaN,clock,cat,0,0382_ske_dnn_0_cat_00_cat-0207-sketch-11.png,cat-0207-sketch-11.png,0.0,-9.069243,1.7622095,-7.658994
alexnet_w3_mlp_simclrhn_probe0,1,383,NaN,clock,cat,0,0383_ske_dnn_0_cat_00_cat-0229-sketch-31.png,cat-0229-sketch-31.png,0.0,-6.059189,-0.18983267,-4.1502614
alexnet_w3_mlp_simclrhn_probe0,1,384,NaN,clock,cat,0,0384_ske_dnn_0_cat_00_cat-0233-sketch-35.png,cat-0233-sketch-35.png,0.0,-9.069243,1.7622095,-7.658994
alexnet_w3_mlp_simclrhn_probe0,1,385,NaN,clock,cat,0,0385_ske_dnn_0_cat_00_cat-0241-sketch-42.png,cat-0241-sketch-42.png,0.0,-12.0370865,-0.4779807,-8.173522
alexnet_w3_mlp_simclrhn_probe0,1,386,NaN,clock,cat,0,0386_ske_dnn_0_cat_00_cat-0245-sketch-46.png,cat-0245-sketch-46.png,0.0,-6.448363,-0.82760054,-3.9744792
alexnet_w3_mlp_simclrhn_probe0,1,387,NaN,clock,cat,0,0387_ske_dnn_0_cat_00_cat-0250-sketch-50.png,cat-0250-sketch-50.png,0.0,-9.217716,1.1242172,-7.3128514
alexnet_w3_mlp_simclrhn_probe0,1,388,NaN,clock,cat,0,0388_ske_dnn_0_cat_00_cat-0251-sketch-6.png,cat-0251-sketch-6.png,0.0,-12.0370865,-0.4779807,-8.173522
alexnet_w3_mlp_simclrhn_probe0,1,389,NaN,cat,cat,0,0389_ske_dnn_0_cat_00_cat-0258-sketch-11.png,cat-0258-sketch-11.png,1.0,3.155098,-4.2743816,5.2534356
alexnet_w3_mlp_simclrhn_probe0,1,390,NaN,bicycle,cat,0,0390_ske_dnn_0_cat_00_cat-0260-sketch-13.png,cat-0260-sketch-13.png,0.0,-13.6886215,-1.9038631,-8.333083
alexnet_w3_mlp_simclrhn_probe0,1,391,NaN,elephant,cat,0,0391_ske_dnn_0_cat_00_cat-0264-sketch-17.png,cat-0264-sketch-17.png,0.0,-5.480616,-3.7811043,-1.2017363
alexnet_w3_mlp_simclrhn_probe0,1,392,NaN,cat,cat,0,0392_ske_dnn_0_cat_00_cat-0265-sketch-18.png,cat-0265-sketch-18.png,1.0,-0.6481733,-2.75671,1.4909606
alexnet_w3_mlp_simclrhn_probe0,1,393,NaN,knife,cat,0,0393_ske_dnn_0_cat_00_cat-0269-sketch-21.png,cat-0269-sketch-21.png,0.0,-6.144607,-3.7599013,-1.6862416
alexnet_w3_mlp_simclrhn_probe0,1,394,NaN,cat,cat,0,0394_ske_dnn_0_cat_00_cat-0274-sketch-26.png,cat-0274-sketch-26.png,1.0,-1.7036084,-5.873111,2.9482834
alexnet_w3_mlp_simclrhn_probe0,1,395,NaN,cat,cat,0,0395_ske_dnn_0_cat_00_cat-0279-sketch-30.png,cat-0279-sketch-30.png,1.0,-2.6827307,-2.785064,0.072360575
alexnet_w3_mlp_simclrhn_probe0,1,396,NaN,bicycle,cat,0,0396_ske_dnn_0_cat_00_cat-0289-sketch-4.png,cat-0289-sketch-4.png,0.0,-2.900858,-2.6439548,-0.18165798
alexnet_w3_mlp_simclrhn_probe0,1,397,NaN,cat,cat,0,0397_ske_dnn_0_cat_00_cat-0293-sketch-43.png,cat-0293-sketch-43.png,1.0,1.2683413,-4.590569,4.1428757
alexnet_w3_mlp_simclrhn_probe0,1,398,NaN,cat,cat,0,0398_ske_dnn_0_cat_00_cat-0295-sketch-45.png,cat-0295-sketch-45.png,1.0,4.774262,-5.294468,7.119667
alexnet_w3_mlp_simclrhn_probe0,1,399,NaN,cat,cat,0,0399_ske_dnn_0_cat_00_cat-0302-sketch-6.png,cat-0302-sketch-6.png,1.0,-1.9149323,-4.9963408,2.178885
alexnet_w3_mlp_simclrhn_probe0,1,400,NaN,cat,cat,0,0400_ske_dnn_0_cat_00_cat-0304-sketch-8.png,cat-0304-sketch-8.png,1.0,3.3334846,-3.7909868,5.037762
alexnet_w3_mlp_simclrhn_probe0,1,401,NaN,clock,chair,0,0401_ske_dnn_0_chair_00_chair-0002-sketch-1.png,chair-0002-sketch-1.png,0.0,-2.7302651,0.34839582,-2.176942
alexnet_w3_mlp_simclrhn_probe0,1,402,NaN,chair,chair,0,0402_ske_dnn_0_chair_00_chair-0005-sketch-12.png,chair-0005-sketch-12.png,1.0,0.31588143,-2.5372596,2.0174754
alexnet_w3_mlp_simclrhn_probe0,1,403,NaN,chair,chair,0,0403_ske_dnn_0_chair_00_chair-0006-sketch-13.png,chair-0006-sketch-13.png,1.0,0.28047118,-0.8491085,0.7987335
alexnet_w3_mlp_simclrhn_probe0,1,404,NaN,chair,chair,0,0404_ske_dnn_0_chair_00_chair-0011-sketch-18.png,chair-0011-sketch-18.png,1.0,1.7308997,1.17673,0.39185712
alexnet_w3_mlp_simclrhn_probe0,1,405,NaN,clock,chair,0,0405_ske_dnn_0_chair_00_chair-0013-sketch-2.png,chair-0013-sketch-2.png,0.0,-4.187151,-1.1506008,-2.147165
alexnet_w3_mlp_simclrhn_probe0,1,406,NaN,chair,chair,0,0406_ske_dnn_0_chair_00_chair-0014-sketch-20.png,chair-0014-sketch-20.png,1.0,2.6005578,-0.5024706,2.1941724
alexnet_w3_mlp_simclrhn_probe0,1,407,NaN,clock,chair,0,0407_ske_dnn_0_chair_00_chair-0017-sketch-23.png,chair-0017-sketch-23.png,0.0,-0.88889265,1.2990646,-1.5471195
alexnet_w3_mlp_simclrhn_probe0,1,408,NaN,chair,chair,0,0408_ske_dnn_0_chair_00_chair-0029-sketch-34.png,chair-0029-sketch-34.png,1.0,-2.1267495,-2.2383068,0.07888289
alexnet_w3_mlp_simclrhn_probe0,1,409,NaN,clock,chair,0,0409_ske_dnn_0_chair_00_chair-0034-sketch-39.png,chair-0034-sketch-39.png,0.0,-4.603135,-1.3381876,-2.3086665
alexnet_w3_mlp_simclrhn_probe0,1,410,NaN,chair,chair,0,0410_ske_dnn_0_chair_00_chair-0040-sketch-44.png,chair-0040-sketch-44.png,1.0,4.297196,-2.2111502,4.6020956
alexnet_w3_mlp_simclrhn_probe0,1,411,NaN,chair,chair,0,0411_ske_dnn_0_chair_00_chair-0051-sketch-9.png,chair-0051-sketch-9.png,1.0,1.8543875,-3.0850523,3.4927113
alexnet_w3_mlp_simclrhn_probe0,1,412,NaN,oven,chair,0,0412_ske_dnn_0_chair_00_chair-0052-sketch-0.png,chair-0052-sketch-0.png,0.0,0.77815133,0.8197365,-0.02940514
alexnet_w3_mlp_simclrhn_probe0,1,413,NaN,clock,chair,0,0413_ske_dnn_0_chair_00_chair-0055-sketch-11.png,chair-0055-sketch-11.png,0.0,-0.16935182,3.3284786,-2.4733396
alexnet_w3_mlp_simclrhn_probe0,1,414,NaN,bicycle,chair,0,0414_ske_dnn_0_chair_00_chair-0060-sketch-16.png,chair-0060-sketch-16.png,0.0,-0.24726558,2.8333206,-2.1783035
alexnet_w3_mlp_simclrhn_probe0,1,415,NaN,chair,chair,0,0415_ske_dnn_0_chair_00_chair-0062-sketch-18.png,chair-0062-sketch-18.png,1.0,2.9376183,-0.4483073,2.394211
alexnet_w3_mlp_simclrhn_probe0,1,416,NaN,chair,chair,0,0416_ske_dnn_0_chair_00_chair-0063-sketch-19.png,chair-0063-sketch-19.png,1.0,1.6707909,0.13804543,1.0838147
alexnet_w3_mlp_simclrhn_probe0,1,417,NaN,chair,chair,0,0417_ske_dnn_0_chair_00_chair-0064-sketch-2.png,chair-0064-sketch-2.png,1.0,-0.83072704,-1.0122839,0.1283801
alexnet_w3_mlp_simclrhn_probe0,1,418,NaN,bicycle,chair,0,0418_ske_dnn_0_chair_00_chair-0066-sketch-21.png,chair-0066-sketch-21.png,0.0,-0.58960855,-0.42540425,-0.116109975
alexnet_w3_mlp_simclrhn_probe0,1,419,NaN,chair,chair,0,0419_ske_dnn_0_chair_00_chair-0067-sketch-22.png,chair-0067-sketch-22.png,1.0,1.2769428,-2.0886862,2.3798592
alexnet_w3_mlp_simclrhn_probe0,1,420,NaN,chair,chair,0,0420_ske_dnn_0_chair_00_chair-0071-sketch-26.png,chair-0071-sketch-26.png,1.0,1.7732763,0.16397749,1.1379461
alexnet_w3_mlp_simclrhn_probe0,1,421,NaN,chair,chair,0,0421_ske_dnn_0_chair_00_chair-0072-sketch-27.png,chair-0072-sketch-27.png,1.0,1.4909647,-2.1022098,2.5407581
alexnet_w3_mlp_simclrhn_probe0,1,422,NaN,chair,chair,0,0422_ske_dnn_0_chair_00_chair-0076-sketch-30.png,chair-0076-sketch-30.png,1.0,2.8709106,-1.178665,2.8634825
alexnet_w3_mlp_simclrhn_probe0,1,423,NaN,chair,chair,0,0423_ske_dnn_0_chair_00_chair-0079-sketch-33.png,chair-0079-sketch-33.png,1.0,3.0289483,1.0200872,1.4204793
alexnet_w3_mlp_simclrhn_probe0,1,424,NaN,clock,chair,0,0424_ske_dnn_0_chair_00_chair-0083-sketch-37.png,chair-0083-sketch-37.png,0.0,-2.6688404,1.5421362,-2.97761
alexnet_w3_mlp_simclrhn_probe0,1,425,NaN,bicycle,chair,0,0425_ske_dnn_0_chair_00_chair-0088-sketch-41.png,chair-0088-sketch-41.png,0.0,0.30444527,0.45060724,-0.10335212
alexnet_w3_mlp_simclrhn_probe0,1,426,NaN,chair,chair,0,0426_ske_dnn_0_chair_00_chair-0094-sketch-47.png,chair-0094-sketch-47.png,1.0,1.0330181,-0.9935817,1.4330225
alexnet_w3_mlp_simclrhn_probe0,1,427,NaN,clock,chair,0,0427_ske_dnn_0_chair_00_chair-0105-sketch-11.png,chair-0105-sketch-11.png,0.0,-1.0837784,-0.23799546,-0.5980589
alexnet_w3_mlp_simclrhn_probe0,1,428,NaN,chair,chair,0,0428_ske_dnn_0_chair_00_chair-0118-sketch-23.png,chair-0118-sketch-23.png,1.0,0.55701697,-2.0723298,1.859229
alexnet_w3_mlp_simclrhn_probe0,1,429,NaN,chair,chair,0,0429_ske_dnn_0_chair_00_chair-0122-sketch-27.png,chair-0122-sketch-27.png,1.0,5.2840676,-0.7067062,4.236117
alexnet_w3_mlp_simclrhn_probe0,1,430,NaN,chair,chair,0,0430_ske_dnn_0_chair_00_chair-0124-sketch-29.png,chair-0124-sketch-29.png,1.0,1.581368,0.20161271,0.97563434
alexnet_w3_mlp_simclrhn_probe0,1,431,NaN,chair,chair,0,0431_ske_dnn_0_chair_00_chair-0125-sketch-3.png,chair-0125-sketch-3.png,1.0,0.4190669,0.11800661,0.21288177
alexnet_w3_mlp_simclrhn_probe0,1,432,NaN,chair,chair,0,0432_ske_dnn_0_chair_00_chair-0127-sketch-31.png,chair-0127-sketch-31.png,1.0,1.9391057,-0.9673969,2.0552077
alexnet_w3_mlp_simclrhn_probe0,1,433,NaN,clock,chair,0,0433_ske_dnn_0_chair_00_chair-0129-sketch-33.png,chair-0129-sketch-33.png,0.0,0.9318466,2.0658512,-0.80186236
alexnet_w3_mlp_simclrhn_probe0,1,434,NaN,chair,chair,0,0434_ske_dnn_0_chair_00_chair-0130-sketch-34.png,chair-0130-sketch-34.png,1.0,1.9824182,-0.17437845,1.5250856
alexnet_w3_mlp_simclrhn_probe0,1,435,NaN,chair,chair,0,0435_ske_dnn_0_chair_00_chair-0131-sketch-35.png,chair-0131-sketch-35.png,1.0,0.52884793,-1.0309594,1.1029503
alexnet_w3_mlp_simclrhn_probe0,1,436,NaN,chair,chair,0,0436_ske_dnn_0_chair_00_chair-0135-sketch-39.png,chair-0135-sketch-39.png,1.0,2.2050173,0.32532677,1.329142
alexnet_w3_mlp_simclrhn_probe0,1,437,NaN,chair,chair,0,0437_ske_dnn_0_chair_00_chair-0144-sketch-47.png,chair-0144-sketch-47.png,1.0,-0.83338076,-1.1941996,0.2551374
alexnet_w3_mlp_simclrhn_probe0,1,438,NaN,chair,chair,0,0438_ske_dnn_0_chair_00_chair-0145-sketch-48.png,chair-0145-sketch-48.png,1.0,0.9099784,-0.4257332,0.94449073
alexnet_w3_mlp_simclrhn_probe0,1,439,NaN,bicycle,chair,0,0439_ske_dnn_0_chair_00_chair-0153-sketch-0.png,chair-0153-sketch-0.png,0.0,-4.733962,0.9654311,-4.03008
alexnet_w3_mlp_simclrhn_probe0,1,440,NaN,chair,chair,0,0440_ske_dnn_0_chair_00_chair-0155-sketch-10.png,chair-0155-sketch-10.png,1.0,2.6308563,-1.5295006,2.9418168
alexnet_w3_mlp_simclrhn_probe0,1,441,NaN,chair,chair,0,0441_ske_dnn_0_chair_00_chair-0163-sketch-18.png,chair-0163-sketch-18.png,1.0,0.6444374,-3.8218598,3.158149
alexnet_w3_mlp_simclrhn_probe0,1,442,NaN,chair,chair,0,0442_ske_dnn_0_chair_00_chair-0166-sketch-20.png,chair-0166-sketch-20.png,1.0,-0.37437448,-3.854902,2.4611046
alexnet_w3_mlp_simclrhn_probe0,1,443,NaN,chair,chair,0,0443_ske_dnn_0_chair_00_chair-0167-sketch-21.png,chair-0167-sketch-21.png,1.0,-2.4307365,-2.9237852,0.34863806
alexnet_w3_mlp_simclrhn_probe0,1,444,NaN,chair,chair,0,0444_ske_dnn_0_chair_00_chair-0168-sketch-22.png,chair-0168-sketch-22.png,1.0,-0.47841084,-1.7521185,0.90064734
alexnet_w3_mlp_simclrhn_probe0,1,445,NaN,chair,chair,0,0445_ske_dnn_0_chair_00_chair-0175-sketch-29.png,chair-0175-sketch-29.png,1.0,1.8287883,0.63928574,0.8411053
alexnet_w3_mlp_simclrhn_probe0,1,446,NaN,clock,chair,0,0446_ske_dnn_0_chair_00_chair-0176-sketch-3.png,chair-0176-sketch-3.png,0.0,-3.523676,0.84930676,-3.0921657
alexnet_w3_mlp_simclrhn_probe0,1,447,NaN,chair,chair,0,0447_ske_dnn_0_chair_00_chair-0178-sketch-31.png,chair-0178-sketch-31.png,1.0,1.3357393,-0.76804644,1.4876012
alexnet_w3_mlp_simclrhn_probe0,1,448,NaN,chair,chair,0,0448_ske_dnn_0_chair_00_chair-0180-sketch-33.png,chair-0180-sketch-33.png,1.0,-2.7465916,-4.199821,1.0275884
alexnet_w3_mlp_simclrhn_probe0,1,449,NaN,chair,chair,0,0449_ske_dnn_0_chair_00_chair-0197-sketch-49.png,chair-0197-sketch-49.png,1.0,-0.47725534,-1.7223829,0.88043815
alexnet_w3_mlp_simclrhn_probe0,1,450,NaN,chair,chair,0,0450_ske_dnn_0_chair_00_chair-0200-sketch-6.png,chair-0200-sketch-6.png,1.0,-2.8498094,-4.2663517,1.0016466
alexnet_w3_mlp_simclrhn_probe0,1,451,NaN,clock,clock,0,0451_ske_dnn_0_clock_00_clock-0005-sketch-12.png,clock-0005-sketch-12.png,1.0,14.194939,-1.7345455,11.263846
alexnet_w3_mlp_simclrhn_probe0,1,452,NaN,clock,clock,0,0452_ske_dnn_0_clock_00_clock-0007-sketch-14.png,clock-0007-sketch-14.png,1.0,9.532655,-1.3666128,7.706946
alexnet_w3_mlp_simclrhn_probe0,1,453,NaN,clock,clock,0,0453_ske_dnn_0_clock_00_clock-0015-sketch-21.png,clock-0015-sketch-21.png,1.0,3.3865178,-0.34628224,2.6394882
alexnet_w3_mlp_simclrhn_probe0,1,454,NaN,clock,clock,0,0454_ske_dnn_0_clock_00_clock-0017-sketch-23.png,clock-0017-sketch-23.png,1.0,1.9509445,-1.2910777,2.292456
alexnet_w3_mlp_simclrhn_probe0,1,455,NaN,clock,clock,0,0455_ske_dnn_0_clock_00_clock-0018-sketch-24.png,clock-0018-sketch-24.png,1.0,11.404419,3.1041434,5.8691816
alexnet_w3_mlp_simclrhn_probe0,1,456,NaN,clock,clock,0,0456_ske_dnn_0_clock_00_clock-0021-sketch-27.png,clock-0021-sketch-27.png,1.0,3.938205,2.5283687,0.9969048
alexnet_w3_mlp_simclrhn_probe0,1,457,NaN,clock,clock,0,0457_ske_dnn_0_clock_00_clock-0022-sketch-28.png,clock-0022-sketch-28.png,1.0,5.7953973,0.68641657,3.6125948
alexnet_w3_mlp_simclrhn_probe0,1,458,NaN,clock,clock,0,0458_ske_dnn_0_clock_00_clock-0027-sketch-32.png,clock-0027-sketch-32.png,1.0,4.66778,-0.5046647,3.657471
alexnet_w3_mlp_simclrhn_probe0,1,459,NaN,clock,clock,0,0459_ske_dnn_0_clock_00_clock-0028-sketch-33.png,clock-0028-sketch-33.png,1.0,12.586339,-1.3648082,9.864951
alexnet_w3_mlp_simclrhn_probe0,1,460,NaN,clock,clock,0,0460_ske_dnn_0_clock_00_clock-0030-sketch-35.png,clock-0030-sketch-35.png,1.0,14.029701,1.6174202,8.776808
alexnet_w3_mlp_simclrhn_probe0,1,461,NaN,clock,clock,0,0461_ske_dnn_0_clock_00_clock-0033-sketch-38.png,clock-0033-sketch-38.png,1.0,13.601041,2.0567572,8.163041
alexnet_w3_mlp_simclrhn_probe0,1,462,NaN,clock,clock,0,0462_ske_dnn_0_clock_00_clock-0035-sketch-4.png,clock-0035-sketch-4.png,1.0,9.727471,-2.2909248,8.49829
alexnet_w3_mlp_simclrhn_probe0,1,463,NaN,clock,clock,0,0463_ske_dnn_0_clock_00_clock-0044-sketch-48.png,clock-0044-sketch-48.png,1.0,3.8648145,-0.79789764,3.2970355
alexnet_w3_mlp_simclrhn_probe0,1,464,NaN,clock,clock,0,0464_ske_dnn_0_clock_00_clock-0046-sketch-5.png,clock-0046-sketch-5.png,1.0,5.732142,-1.2189115,4.9151373
alexnet_w3_mlp_simclrhn_probe0,1,465,NaN,clock,clock,0,0465_ske_dnn_0_clock_00_clock-0049-sketch-7.png,clock-0049-sketch-7.png,1.0,7.3318596,0.24922827,5.008177
alexnet_w3_mlp_simclrhn_probe0,1,466,NaN,clock,clock,0,0466_ske_dnn_0_clock_00_clock-0057-sketch-13.png,clock-0057-sketch-13.png,1.0,1.9868091,0.705558,0.9059814
alexnet_w3_mlp_simclrhn_probe0,1,467,NaN,clock,clock,0,0467_ske_dnn_0_clock_00_clock-0059-sketch-15.png,clock-0059-sketch-15.png,1.0,2.6853707,-3.476501,4.3571014
alexnet_w3_mlp_simclrhn_probe0,1,468,NaN,clock,clock,0,0468_ske_dnn_0_clock_00_clock-0060-sketch-16.png,clock-0060-sketch-16.png,1.0,3.4113133,0.62381166,1.9710613
alexnet_w3_mlp_simclrhn_probe0,1,469,NaN,clock,clock,0,0469_ske_dnn_0_clock_00_clock-0067-sketch-22.png,clock-0067-sketch-22.png,1.0,7.1548133,2.0854244,3.5845993
alexnet_w3_mlp_simclrhn_probe0,1,470,NaN,clock,clock,0,0470_ske_dnn_0_clock_00_clock-0069-sketch-24.png,clock-0069-sketch-24.png,1.0,2.1176608,0.9997442,0.7904864
alexnet_w3_mlp_simclrhn_probe0,1,471,NaN,clock,clock,0,0471_ske_dnn_0_clock_00_clock-0070-sketch-25.png,clock-0070-sketch-25.png,1.0,3.5015726,2.2122834,0.9116652
alexnet_w3_mlp_simclrhn_probe0,1,472,NaN,clock,clock,0,0472_ske_dnn_0_clock_00_clock-0071-sketch-26.png,clock-0071-sketch-26.png,1.0,8.951407,1.0757226,5.56895
alexnet_w3_mlp_simclrhn_probe0,1,473,NaN,chair,clock,0,0473_ske_dnn_0_clock_00_clock-0073-sketch-28.png,clock-0073-sketch-28.png,0.0,-3.0156956,-0.67949706,-1.6519419
alexnet_w3_mlp_simclrhn_probe0,1,474,NaN,clock,clock,0,0474_ske_dnn_0_clock_00_clock-0074-sketch-29.png,clock-0074-sketch-29.png,1.0,-0.12916474,-1.0848327,0.67575926
alexnet_w3_mlp_simclrhn_probe0,1,475,NaN,clock,clock,0,0475_ske_dnn_0_clock_00_clock-0076-sketch-30.png,clock-0076-sketch-30.png,1.0,7.3200936,1.4383194,4.1590424
alexnet_w3_mlp_simclrhn_probe0,1,476,NaN,clock,clock,0,0476_ske_dnn_0_clock_00_clock-0077-sketch-31.png,clock-0077-sketch-31.png,1.0,6.144774,1.8753831,3.0189154
alexnet_w3_mlp_simclrhn_probe0,1,477,NaN,clock,clock,0,0477_ske_dnn_0_clock_00_clock-0078-sketch-32.png,clock-0078-sketch-32.png,1.0,5.207256,1.1686625,2.8557167
alexnet_w3_mlp_simclrhn_probe0,1,478,NaN,clock,clock,0,0478_ske_dnn_0_clock_00_clock-0081-sketch-35.png,clock-0081-sketch-35.png,1.0,6.018824,0.9158078,3.6083775
alexnet_w3_mlp_simclrhn_probe0,1,479,NaN,clock,clock,0,0479_ske_dnn_0_clock_00_clock-0085-sketch-39.png,clock-0085-sketch-39.png,1.0,8.479599,3.3146696,3.6521566
alexnet_w3_mlp_simclrhn_probe0,1,480,NaN,clock,clock,0,0480_ske_dnn_0_clock_00_clock-0087-sketch-40.png,clock-0087-sketch-40.png,1.0,0.7891044,0.6217674,0.11832513
alexnet_w3_mlp_simclrhn_probe0,1,481,NaN,clock,clock,0,0481_ske_dnn_0_clock_00_clock-0092-sketch-45.png,clock-0092-sketch-45.png,1.0,3.007104,1.3478315,1.1732829
alexnet_w3_mlp_simclrhn_probe0,1,482,NaN,clock,clock,0,0482_ske_dnn_0_clock_00_clock-0093-sketch-46.png,clock-0093-sketch-46.png,1.0,2.62924,-3.287461,4.1837397
alexnet_w3_mlp_simclrhn_probe0,1,483,NaN,clock,clock,0,0483_ske_dnn_0_clock_00_clock-0095-sketch-48.png,clock-0095-sketch-48.png,1.0,8.365729,3.265308,3.6065426
alexnet_w3_mlp_simclrhn_probe0,1,484,NaN,keyboard,clock,0,0484_ske_dnn_0_clock_00_clock-0099-sketch-6.png,clock-0099-sketch-6.png,0.0,0.9375656,2.7238774,-1.2631133
alexnet_w3_mlp_simclrhn_probe0,1,485,NaN,clock,clock,0,0485_ske_dnn_0_clock_00_clock-0110-sketch-15.png,clock-0110-sketch-15.png,1.0,5.8820763,-1.8179594,5.4447474
alexnet_w3_mlp_simclrhn_probe0,1,486,NaN,clock,clock,0,0486_ske_dnn_0_clock_00_clock-0112-sketch-17.png,clock-0112-sketch-17.png,1.0,15.906817,-2.3034282,12.876588
alexnet_w3_mlp_simclrhn_probe0,1,487,NaN,clock,clock,0,0487_ske_dnn_0_clock_00_clock-0115-sketch-2.png,clock-0115-sketch-2.png,1.0,6.186669,-2.2246227,5.947681
alexnet_w3_mlp_simclrhn_probe0,1,488,NaN,clock,clock,0,0488_ske_dnn_0_clock_00_clock-0118-sketch-22.png,clock-0118-sketch-22.png,1.0,10.820254,-2.3318665,9.299953
alexnet_w3_mlp_simclrhn_probe0,1,489,NaN,clock,clock,0,0489_ske_dnn_0_clock_00_clock-0123-sketch-27.png,clock-0123-sketch-27.png,1.0,14.604291,-1.0631088,11.078525
alexnet_w3_mlp_simclrhn_probe0,1,490,NaN,clock,clock,0,0490_ske_dnn_0_clock_00_clock-0127-sketch-30.png,clock-0127-sketch-30.png,1.0,12.312467,2.8839717,6.666953
alexnet_w3_mlp_simclrhn_probe0,1,491,NaN,clock,clock,0,0491_ske_dnn_0_clock_00_clock-0131-sketch-34.png,clock-0131-sketch-34.png,1.0,10.993095,4.8243704,4.3619475
alexnet_w3_mlp_simclrhn_probe0,1,492,NaN,clock,clock,0,0492_ske_dnn_0_clock_00_clock-0132-sketch-35.png,clock-0132-sketch-35.png,1.0,5.99008,-0.44684035,4.55159
alexnet_w3_mlp_simclrhn_probe0,1,493,NaN,clock,clock,0,0493_ske_dnn_0_clock_00_clock-0133-sketch-36.png,clock-0133-sketch-36.png,1.0,4.995464,-0.4584008,3.8564646
alexnet_w3_mlp_simclrhn_probe0,1,494,NaN,clock,clock,0,0494_ske_dnn_0_clock_00_clock-0136-sketch-39.png,clock-0136-sketch-39.png,1.0,5.733086,0.14375417,3.9522548
alexnet_w3_mlp_simclrhn_probe0,1,495,NaN,clock,clock,0,0495_ske_dnn_0_clock_00_clock-0137-sketch-4.png,clock-0137-sketch-4.png,1.0,6.531447,-0.3913075,4.895127
alexnet_w3_mlp_simclrhn_probe0,1,496,NaN,clock,clock,0,0496_ske_dnn_0_clock_00_clock-0138-sketch-40.png,clock-0138-sketch-40.png,1.0,8.509868,-0.9085655,6.659838
alexnet_w3_mlp_simclrhn_probe0,1,497,NaN,clock,clock,0,0497_ske_dnn_0_clock_00_clock-0141-sketch-43.png,clock-0141-sketch-43.png,1.0,7.033104,-0.31410998,5.195265
alexnet_w3_mlp_simclrhn_probe0,1,498,NaN,clock,clock,0,0498_ske_dnn_0_clock_00_clock-0143-sketch-45.png,clock-0143-sketch-45.png,1.0,6.553263,-2.0846784,6.107947
alexnet_w3_mlp_simclrhn_probe0,1,499,NaN,clock,clock,0,0499_ske_dnn_0_clock_00_clock-0144-sketch-46.png,clock-0144-sketch-46.png,1.0,6.404743,-0.55144507,4.918768
alexnet_w3_mlp_simclrhn_probe0,1,500,NaN,clock,clock,0,0500_ske_dnn_0_clock_00_clock-0150-sketch-6.png,clock-0150-sketch-6.png,1.0,12.781269,1.901925,7.692858
alexnet_w3_mlp_simclrhn_probe0,1,501,NaN,dog,dog,0,0501_ske_dnn_0_dog_00_dog-0011-sketch-18.png,dog-0011-sketch-18.png,1.0,-1.3416288,-2.5723617,0.8702596
alexnet_w3_mlp_simclrhn_probe0,1,502,NaN,bottle,dog,0,0502_ske_dnn_0_dog_00_dog-0111-sketch-17.png,dog-0111-sketch-17.png,0.0,-7.77198,-5.420687,-1.662615
alexnet_w3_mlp_simclrhn_probe0,1,503,NaN,clock,dog,0,0503_ske_dnn_0_dog_00_dog-0215-sketch-19.png,dog-0215-sketch-19.png,0.0,-7.8417873,1.5524687,-6.642742
alexnet_w3_mlp_simclrhn_probe0,1,504,NaN,cat,dog,0,0504_ske_dnn_0_dog_00_dog-0243-sketch-44.png,dog-0243-sketch-44.png,0.0,-5.7451105,-3.47696,-1.6038246
alexnet_w3_mlp_simclrhn_probe0,1,505,NaN,cat,dog,0,0505_ske_dnn_0_dog_00_dog-0476-sketch-26.png,dog-0476-sketch-26.png,0.0,-4.2907734,-4.236598,-0.03830778
alexnet_w3_mlp_simclrhn_probe0,1,506,NaN,cat,dog,0,0506_ske_dnn_0_dog_00_dog-0607-sketch-8.png,dog-0607-sketch-8.png,0.0,-2.8128276,-1.8752394,-0.662975
alexnet_w3_mlp_simclrhn_probe0,1,507,NaN,dog,dog,0,0507_ske_dnn_0_dog_00_dog-0630-sketch-28.png,dog-0630-sketch-28.png,1.0,-1.9394585,-4.1937575,1.5940303
alexnet_w3_mlp_simclrhn_probe0,1,508,NaN,dog,dog,0,0508_ske_dnn_0_dog_00_dog-1035-sketch-27.png,dog-1035-sketch-27.png,1.0,-2.0275805,-3.6437187,1.1427823
alexnet_w3_mlp_simclrhn_probe0,1,509,NaN,cat,dog,0,0509_ske_dnn_0_dog_00_dog-1292-sketch-3.png,dog-1292-sketch-3.png,0.0,-3.5280118,-2.9227428,-0.42798978
alexnet_w3_mlp_simclrhn_probe0,1,510,NaN,cat,dog,0,0510_ske_dnn_0_dog_00_dog-1393-sketch-3.png,dog-1393-sketch-3.png,0.0,-3.7430632,-3.007558,-0.5200806
alexnet_w3_mlp_simclrhn_probe0,1,511,NaN,cat,dog,0,0511_ske_dnn_0_dog_00_dog-1460-sketch-44.png,dog-1460-sketch-44.png,0.0,-10.86275,-7.781006,-2.1791222
alexnet_w3_mlp_simclrhn_probe0,1,512,NaN,clock,dog,0,0512_ske_dnn_0_dog_00_dog-1617-sketch-48.png,dog-1617-sketch-48.png,0.0,-7.6089625,-0.76581335,-4.838837
alexnet_w3_mlp_simclrhn_probe0,1,513,NaN,dog,dog,0,0513_ske_dnn_0_dog_00_dog-1657-sketch-38.png,dog-1657-sketch-38.png,1.0,-0.4653557,-2.170977,1.2060566
alexnet_w3_mlp_simclrhn_probe0,1,514,NaN,cat,dog,0,0514_ske_dnn_0_dog_00_dog-1711-sketch-40.png,dog-1711-sketch-40.png,0.0,-4.2439723,-2.8905613,-0.9570061
alexnet_w3_mlp_simclrhn_probe0,1,515,NaN,dog,dog,0,0515_ske_dnn_0_dog_00_dog-1759-sketch-38.png,dog-1759-sketch-38.png,1.0,-0.032801796,-1.2528896,0.8627324
alexnet_w3_mlp_simclrhn_probe0,1,516,NaN,clock,dog,0,0516_ske_dnn_0_dog_00_dog-1797-sketch-26.png,dog-1797-sketch-26.png,0.0,-12.016529,-2.3358173,-6.845297
alexnet_w3_mlp_simclrhn_probe0,1,517,NaN,cat,dog,0,0517_ske_dnn_0_dog_00_dog-1973-sketch-47.png,dog-1973-sketch-47.png,0.0,-6.2978864,-5.7479725,-0.38884783
alexnet_w3_mlp_simclrhn_probe0,1,518,NaN,clock,dog,0,0518_ske_dnn_0_dog_00_dog-2150-sketch-22.png,dog-2150-sketch-22.png,0.0,-9.428864,-0.007174015,-6.662141
alexnet_w3_mlp_simclrhn_probe0,1,519,NaN,clock,dog,0,0519_ske_dnn_0_dog_00_dog-2198-sketch-20.png,dog-2198-sketch-20.png,0.0,-10.477791,0.3645064,-7.666662
alexnet_w3_mlp_simclrhn_probe0,1,520,NaN,dog,dog,0,0520_ske_dnn_0_dog_00_dog-2291-sketch-12.png,dog-2291-sketch-12.png,1.0,-3.7096272,-3.8121464,0.07249208
alexnet_w3_mlp_simclrhn_probe0,1,521,NaN,bird,dog,0,0521_ske_dnn_0_dog_00_dog-2323-sketch-41.png,dog-2323-sketch-41.png,0.0,-3.9630833,-2.7564495,-0.853219
alexnet_w3_mlp_simclrhn_probe0,1,522,NaN,dog,dog,0,0522_ske_dnn_0_dog_00_dog-2454-sketch-21.png,dog-2454-sketch-21.png,1.0,-1.5931741,-2.647193,0.74530387
alexnet_w3_mlp_simclrhn_probe0,1,523,NaN,dog,dog,0,0523_ske_dnn_0_dog_00_dog-2506-sketch-23.png,dog-2506-sketch-23.png,1.0,0.51178455,-2.3837404,2.0474453
alexnet_w3_mlp_simclrhn_probe0,1,524,NaN,dog,dog,0,0524_ske_dnn_0_dog_00_dog-2541-sketch-0.png,dog-2541-sketch-0.png,1.0,-3.6890206,-5.1422915,1.0276177
alexnet_w3_mlp_simclrhn_probe0,1,525,NaN,dog,dog,0,0525_ske_dnn_0_dog_00_dog-2615-sketch-3.png,dog-2615-sketch-3.png,1.0,-0.31915858,-3.4747765,2.231359
alexnet_w3_mlp_simclrhn_probe0,1,526,NaN,dog,dog,0,0526_ske_dnn_0_dog_00_dog-2948-sketch-10.png,dog-2948-sketch-10.png,1.0,-5.7450504,-7.4331393,1.1936591
alexnet_w3_mlp_simclrhn_probe0,1,527,NaN,dog,dog,0,0527_ske_dnn_0_dog_00_dog-3000-sketch-11.png,dog-3000-sketch-11.png,1.0,-0.7671755,-1.0025995,0.1664699
alexnet_w3_mlp_simclrhn_probe0,1,528,NaN,clock,dog,0,0528_ske_dnn_0_dog_00_dog-3153-sketch-11.png,dog-3153-sketch-11.png,0.0,-0.8336519,0.6678477,-1.0617206
alexnet_w3_mlp_simclrhn_probe0,1,529,NaN,cat,dog,0,0529_ske_dnn_0_dog_00_dog-3251-sketch-9.png,dog-3251-sketch-9.png,0.0,-3.5511374,-1.9208905,-1.1527587
alexnet_w3_mlp_simclrhn_probe0,1,530,NaN,dog,dog,0,0530_ske_dnn_0_dog_00_dog-3303-sketch-0.png,dog-3303-sketch-0.png,1.0,-3.3219233,-4.892941,1.1108773
alexnet_w3_mlp_simclrhn_probe0,1,531,NaN,dog,dog,0,0531_ske_dnn_0_dog_00_dog-3338-sketch-40.png,dog-3338-sketch-40.png,1.0,-1.0381495,-3.2105029,1.5360857
alexnet_w3_mlp_simclrhn_probe0,1,532,NaN,cat,dog,0,0532_ske_dnn_0_dog_00_dog-3417-sketch-2.png,dog-3417-sketch-2.png,0.0,-3.6869845,-3.53035,-0.110757366
alexnet_w3_mlp_simclrhn_probe0,1,533,NaN,dog,dog,0,0533_ske_dnn_0_dog_00_dog-3503-sketch-6.png,dog-3503-sketch-6.png,1.0,-2.3816545,-2.4537325,0.050966837
alexnet_w3_mlp_simclrhn_probe0,1,534,NaN,cat,dog,0,0534_ske_dnn_0_dog_00_dog-3573-sketch-22.png,dog-3573-sketch-22.png,0.0,-2.4128745,-1.0070301,-0.9940821
alexnet_w3_mlp_simclrhn_probe0,1,535,NaN,cat,dog,0,0535_ske_dnn_0_dog_00_dog-3646-sketch-42.png,dog-3646-sketch-42.png,0.0,-2.063498,0.73412824,-1.9782206
alexnet_w3_mlp_simclrhn_probe0,1,536,NaN,cat,dog,0,0536_ske_dnn_0_dog_00_dog-3695-sketch-40.png,dog-3695-sketch-40.png,0.0,-6.750643,-5.3131757,-1.0164428
alexnet_w3_mlp_simclrhn_probe0,1,537,NaN,chair,dog,0,0537_ske_dnn_0_dog_00_dog-3915-sketch-0.png,dog-3915-sketch-0.png,0.0,-5.4307194,-4.1856546,-0.88039374
alexnet_w3_mlp_simclrhn_probe0,1,538,NaN,cat,dog,0,0538_ske_dnn_0_dog_00_dog-4202-sketch-4.png,dog-4202-sketch-4.png,0.0,-1.6901385,0.16711979,-1.3132799
alexnet_w3_mlp_simclrhn_probe0,1,539,NaN,cat,dog,0,0539_ske_dnn_0_dog_00_dog-4208-sketch-45.png,dog-4208-sketch-45.png,0.0,-3.6035364,-2.9587698,-0.45591882
alexnet_w3_mlp_simclrhn_probe0,1,540,NaN,dog,dog,0,0540_ske_dnn_0_dog_00_dog-4325-sketch-13.png,dog-4325-sketch-13.png,1.0,-5.036126,-7.4487743,1.706
alexnet_w3_mlp_simclrhn_probe0,1,541,NaN,dog,dog,0,0541_ske_dnn_0_dog_00_dog-4475-sketch-11.png,dog-4475-sketch-11.png,1.0,-1.3147426,-1.9218831,0.4293132
alexnet_w3_mlp_simclrhn_probe0,1,542,NaN,bicycle,dog,0,0542_ske_dnn_0_dog_00_dog-4499-sketch-33.png,dog-4499-sketch-33.png,0.0,-5.9562116,-1.806397,-2.9343622
alexnet_w3_mlp_simclrhn_probe0,1,543,NaN,cat,dog,0,0543_ske_dnn_0_dog_00_dog-4581-sketch-16.png,dog-4581-sketch-16.png,0.0,-8.34923,-5.8981414,-1.7331812
alexnet_w3_mlp_simclrhn_probe0,1,544,NaN,clock,dog,0,0544_ske_dnn_0_dog_00_dog-4709-sketch-4.png,dog-4709-sketch-4.png,0.0,-10.370212,0.41588512,-7.626922
alexnet_w3_mlp_simclrhn_probe0,1,545,NaN,cat,dog,0,0545_ske_dnn_0_dog_00_dog-4909-sketch-37.png,dog-4909-sketch-37.png,0.0,-4.661826,-3.2456903,-1.0013592
alexnet_w3_mlp_simclrhn_probe0,1,546,NaN,cat,dog,0,0546_ske_dnn_0_dog_00_dog-5028-sketch-8.png,dog-5028-sketch-8.png,0.0,-2.5540833,-2.0555923,-0.3524864
alexnet_w3_mlp_simclrhn_probe0,1,547,NaN,dog,dog,0,0547_ske_dnn_0_dog_00_dog-5084-sketch-11.png,dog-5084-sketch-11.png,1.0,-3.4870467,-3.7735398,0.2025812
alexnet_w3_mlp_simclrhn_probe0,1,548,NaN,clock,dog,0,0548_ske_dnn_0_dog_00_dog-5223-sketch-45.png,dog-5223-sketch-45.png,0.0,-3.6181679,-1.1488727,-1.7460552
alexnet_w3_mlp_simclrhn_probe0,1,549,NaN,dog,dog,0,0549_ske_dnn_0_dog_00_dog-5325-sketch-45.png,dog-5325-sketch-45.png,1.0,-1.8074023,-2.7274616,0.6505802
alexnet_w3_mlp_simclrhn_probe0,1,550,NaN,dog,dog,0,0550_ske_dnn_0_dog_00_dog-5354-sketch-25.png,dog-5354-sketch-25.png,1.0,-3.6061447,-4.5844464,0.6917638
alexnet_w3_mlp_simclrhn_probe0,1,551,NaN,elephant,elephant,0,0551_ske_dnn_0_elephant_00_elephant-0001-sketch-0.png,elephant-0001-sketch-0.png,1.0,-2.8555338,-5.920222,2.1670616
alexnet_w3_mlp_simclrhn_probe0,1,552,NaN,elephant,elephant,0,0552_ske_dnn_0_elephant_00_elephant-0002-sketch-1.png,elephant-0002-sketch-1.png,1.0,-1.6101592,-2.0621364,0.31959617
alexnet_w3_mlp_simclrhn_probe0,1,553,NaN,bicycle,elephant,0,0553_ske_dnn_0_elephant_00_elephant-0006-sketch-13.png,elephant-0006-sketch-13.png,0.0,-6.2383637,-3.77956,-1.7386367
alexnet_w3_mlp_simclrhn_probe0,1,554,NaN,clock,elephant,0,0554_ske_dnn_0_elephant_00_elephant-0011-sketch-18.png,elephant-0011-sketch-18.png,0.0,-10.356878,-0.6549969,-6.860266
alexnet_w3_mlp_simclrhn_probe0,1,555,NaN,clock,elephant,0,0555_ske_dnn_0_elephant_00_elephant-0012-sketch-19.png,elephant-0012-sketch-19.png,0.0,-9.58052,-1.1714698,-5.9460964
alexnet_w3_mlp_simclrhn_probe0,1,556,NaN,clock,elephant,0,0556_ske_dnn_0_elephant_00_elephant-0013-sketch-2.png,elephant-0013-sketch-2.png,0.0,-4.7588997,-3.5000124,-0.8901678
alexnet_w3_mlp_simclrhn_probe0,1,557,NaN,bottle,elephant,0,0557_ske_dnn_0_elephant_00_elephant-0014-sketch-20.png,elephant-0014-sketch-20.png,0.0,-6.920486,-6.4344783,-0.34365934
alexnet_w3_mlp_simclrhn_probe0,1,558,NaN,elephant,elephant,0,0558_ske_dnn_0_elephant_00_elephant-0015-sketch-21.png,elephant-0015-sketch-21.png,1.0,-4.2375197,-4.8133726,0.4071895
alexnet_w3_mlp_simclrhn_probe0,1,559,NaN,clock,elephant,0,0559_ske_dnn_0_elephant_00_elephant-0016-sketch-22.png,elephant-0016-sketch-22.png,0.0,-6.1883473,0.54493064,-4.7611465
alexnet_w3_mlp_simclrhn_probe0,1,560,NaN,elephant,elephant,0,0560_ske_dnn_0_elephant_00_elephant-0019-sketch-25.png,elephant-0019-sketch-25.png,1.0,-1.331253,-5.132925,2.688188
alexnet_w3_mlp_simclrhn_probe0,1,561,NaN,clock,elephant,0,0561_ske_dnn_0_elephant_00_elephant-0020-sketch-26.png,elephant-0020-sketch-26.png,0.0,-6.498583,-2.2264397,-3.0208616
alexnet_w3_mlp_simclrhn_probe0,1,562,NaN,clock,elephant,0,0562_ske_dnn_0_elephant_00_elephant-0021-sketch-27.png,elephant-0021-sketch-27.png,0.0,-6.055233,-2.388021,-2.5931106
alexnet_w3_mlp_simclrhn_probe0,1,563,NaN,clock,elephant,0,0563_ske_dnn_0_elephant_00_elephant-0022-sketch-28.png,elephant-0022-sketch-28.png,0.0,-7.5886254,1.3269554,-6.304268
alexnet_w3_mlp_simclrhn_probe0,1,564,NaN,elephant,elephant,0,0564_ske_dnn_0_elephant_00_elephant-0025-sketch-30.png,elephant-0025-sketch-30.png,1.0,-3.0761573,-5.450625,1.6790022
alexnet_w3_mlp_simclrhn_probe0,1,565,NaN,elephant,elephant,0,0565_ske_dnn_0_elephant_00_elephant-0028-sketch-33.png,elephant-0028-sketch-33.png,1.0,-0.79567546,-2.1836717,0.9814615
alexnet_w3_mlp_simclrhn_probe0,1,566,NaN,knife,elephant,0,0566_ske_dnn_0_elephant_00_elephant-0029-sketch-34.png,elephant-0029-sketch-34.png,0.0,-4.054351,-3.9248154,-0.09159539
alexnet_w3_mlp_simclrhn_probe0,1,567,NaN,clock,elephant,0,0567_ske_dnn_0_elephant_00_elephant-0030-sketch-35.png,elephant-0030-sketch-35.png,0.0,-11.005529,-0.6272847,-7.338527
alexnet_w3_mlp_simclrhn_probe0,1,568,NaN,elephant,elephant,0,0568_ske_dnn_0_elephant_00_elephant-0032-sketch-37.png,elephant-0032-sketch-37.png,1.0,-2.1665092,-2.7281578,0.39714554
alexnet_w3_mlp_simclrhn_probe0,1,569,NaN,bicycle,elephant,0,0569_ske_dnn_0_elephant_00_elephant-0033-sketch-38.png,elephant-0033-sketch-38.png,0.0,-13.129768,-4.61603,-6.0201225
alexnet_w3_mlp_simclrhn_probe0,1,570,NaN,elephant,elephant,0,0570_ske_dnn_0_elephant_00_elephant-0037-sketch-41.png,elephant-0037-sketch-41.png,1.0,-0.09416118,-4.7076683,3.2622423
alexnet_w3_mlp_simclrhn_probe0,1,571,NaN,elephant,elephant,0,0571_ske_dnn_0_elephant_00_elephant-0039-sketch-43.png,elephant-0039-sketch-43.png,1.0,-1.3018786,-5.8411574,3.209755
alexnet_w3_mlp_simclrhn_probe0,1,572,NaN,cat,elephant,0,0572_ske_dnn_0_elephant_00_elephant-0040-sketch-44.png,elephant-0040-sketch-44.png,0.0,-4.5732455,-4.153012,-0.29715014
alexnet_w3_mlp_simclrhn_probe0,1,573,NaN,elephant,elephant,0,0573_ske_dnn_0_elephant_00_elephant-0043-sketch-47.png,elephant-0043-sketch-47.png,1.0,-4.2605057,-5.0591087,0.5646976
alexnet_w3_mlp_simclrhn_probe0,1,574,NaN,cat,elephant,0,0574_ske_dnn_0_elephant_00_elephant-0044-sketch-48.png,elephant-0044-sketch-48.png,0.0,-6.292244,-4.926121,-0.96599466
alexnet_w3_mlp_simclrhn_probe0,1,575,NaN,elephant,elephant,0,0575_ske_dnn_0_elephant_00_elephant-0046-sketch-5.png,elephant-0046-sketch-5.png,1.0,-2.7521694,-2.8403425,0.062347833
alexnet_w3_mlp_simclrhn_probe0,1,576,NaN,clock,elephant,0,0576_ske_dnn_0_elephant_00_elephant-0047-sketch-50.png,elephant-0047-sketch-50.png,0.0,-11.047443,-0.77448744,-7.2640767
alexnet_w3_mlp_simclrhn_probe0,1,577,NaN,bicycle,elephant,0,0577_ske_dnn_0_elephant_00_elephant-0048-sketch-6.png,elephant-0048-sketch-6.png,0.0,-13.558484,-4.736063,-6.238394
alexnet_w3_mlp_simclrhn_probe0,1,578,NaN,elephant,elephant,0,0578_ske_dnn_0_elephant_00_elephant-0050-sketch-8.png,elephant-0050-sketch-8.png,1.0,-3.0067182,-7.2506137,3.0008874
alexnet_w3_mlp_simclrhn_probe0,1,579,NaN,elephant,elephant,0,0579_ske_dnn_0_elephant_00_elephant-0052-sketch-0.png,elephant-0052-sketch-0.png,1.0,-2.6549222,-4.133488,1.045504
alexnet_w3_mlp_simclrhn_probe0,1,580,NaN,elephant,elephant,0,0580_ske_dnn_0_elephant_00_elephant-0054-sketch-10.png,elephant-0054-sketch-10.png,1.0,-3.677283,-4.6988173,0.7223338
alexnet_w3_mlp_simclrhn_probe0,1,581,NaN,cat,elephant,0,0581_ske_dnn_0_elephant_00_elephant-0055-sketch-11.png,elephant-0055-sketch-11.png,0.0,-2.7422063,-2.4365218,-0.21615164
alexnet_w3_mlp_simclrhn_probe0,1,582,NaN,bear,elephant,0,0582_ske_dnn_0_elephant_00_elephant-0057-sketch-13.png,elephant-0057-sketch-13.png,0.0,-2.2349663,-2.0978427,-0.09696102
alexnet_w3_mlp_simclrhn_probe0,1,583,NaN,elephant,elephant,0,0583_ske_dnn_0_elephant_00_elephant-0058-sketch-14.png,elephant-0058-sketch-14.png,1.0,1.2097102,-5.845997,4.989138
alexnet_w3_mlp_simclrhn_probe0,1,584,NaN,elephant,elephant,0,0584_ske_dnn_0_elephant_00_elephant-0061-sketch-17.png,elephant-0061-sketch-17.png,1.0,5.2800875,-3.6664762,6.326176
alexnet_w3_mlp_simclrhn_probe0,1,585,NaN,bottle,elephant,0,0585_ske_dnn_0_elephant_00_elephant-0062-sketch-18.png,elephant-0062-sketch-18.png,0.0,-6.929265,-4.2974367,-1.8609837
alexnet_w3_mlp_simclrhn_probe0,1,586,NaN,bicycle,elephant,0,0586_ske_dnn_0_elephant_00_elephant-0065-sketch-20.png,elephant-0065-sketch-20.png,0.0,-8.396601,-2.1284094,-4.4322805
alexnet_w3_mlp_simclrhn_probe0,1,587,NaN,elephant,elephant,0,0587_ske_dnn_0_elephant_00_elephant-0066-sketch-21.png,elephant-0066-sketch-21.png,1.0,3.8921444,-2.3071816,4.3835855
alexnet_w3_mlp_simclrhn_probe0,1,588,NaN,elephant,elephant,0,0588_ske_dnn_0_elephant_00_elephant-0071-sketch-26.png,elephant-0071-sketch-26.png,1.0,3.4509053,-5.064268,6.0211368
alexnet_w3_mlp_simclrhn_probe0,1,589,NaN,bicycle,elephant,0,0589_ske_dnn_0_elephant_00_elephant-0075-sketch-3.png,elephant-0075-sketch-3.png,0.0,-9.296058,-3.8452249,-3.854321
alexnet_w3_mlp_simclrhn_probe0,1,590,NaN,clock,elephant,0,0590_ske_dnn_0_elephant_00_elephant-0076-sketch-30.png,elephant-0076-sketch-30.png,0.0,-7.745075,0.13835828,-5.574429
alexnet_w3_mlp_simclrhn_probe0,1,591,NaN,elephant,elephant,0,0591_ske_dnn_0_elephant_00_elephant-0077-sketch-31.png,elephant-0077-sketch-31.png,1.0,-1.803642,-8.041989,4.4111776
alexnet_w3_mlp_simclrhn_probe0,1,592,NaN,elephant,elephant,0,0592_ske_dnn_0_elephant_00_elephant-0079-sketch-33.png,elephant-0079-sketch-33.png,1.0,-5.133484,-5.964814,0.5878393
alexnet_w3_mlp_simclrhn_probe0,1,593,NaN,bicycle,elephant,0,0593_ske_dnn_0_elephant_00_elephant-0080-sketch-34.png,elephant-0080-sketch-34.png,0.0,-6.536976,-5.3600993,-0.8321774
alexnet_w3_mlp_simclrhn_probe0,1,594,NaN,elephant,elephant,0,0594_ske_dnn_0_elephant_00_elephant-0082-sketch-36.png,elephant-0082-sketch-36.png,1.0,-2.6698823,-4.7114744,1.4436237
alexnet_w3_mlp_simclrhn_probe0,1,595,NaN,elephant,elephant,0,0595_ske_dnn_0_elephant_00_elephant-0086-sketch-4.png,elephant-0086-sketch-4.png,1.0,-1.747843,-2.9360304,0.84017533
alexnet_w3_mlp_simclrhn_probe0,1,596,NaN,elephant,elephant,0,0596_ske_dnn_0_elephant_00_elephant-0090-sketch-43.png,elephant-0090-sketch-43.png,1.0,2.3418999,-4.4750338,4.8203
alexnet_w3_mlp_simclrhn_probe0,1,597,NaN,elephant,elephant,0,0597_ske_dnn_0_elephant_00_elephant-0094-sketch-47.png,elephant-0094-sketch-47.png,1.0,-4.307664,-7.3117046,2.1241777
alexnet_w3_mlp_simclrhn_probe0,1,598,NaN,clock,elephant,0,0598_ske_dnn_0_elephant_00_elephant-0098-sketch-50.png,elephant-0098-sketch-50.png,0.0,-10.700969,3.5588884,-10.083241
alexnet_w3_mlp_simclrhn_probe0,1,599,NaN,elephant,elephant,0,0599_ske_dnn_0_elephant_00_elephant-0100-sketch-7.png,elephant-0100-sketch-7.png,1.0,-0.5483151,-6.5281863,4.2284074
alexnet_w3_mlp_simclrhn_probe0,1,600,NaN,clock,elephant,0,0600_ske_dnn_0_elephant_00_elephant-0101-sketch-8.png,elephant-0101-sketch-8.png,0.0,-11.657833,3.940717,-11.02984
alexnet_w3_mlp_simclrhn_probe0,1,601,NaN,keyboard,keyboard,0,0601_ske_dnn_0_keyboard_00_keyboard-0002-sketch-1.png,keyboard-0002-sketch-1.png,1.0,3.6202383,-0.42025262,2.8570588
alexnet_w3_mlp_simclrhn_probe0,1,602,NaN,keyboard,keyboard,0,0602_ske_dnn_0_keyboard_00_keyboard-0003-sketch-10.png,keyboard-0003-sketch-10.png,1.0,7.741825,6.1635437,1.1160135
alexnet_w3_mlp_simclrhn_probe0,1,603,NaN,keyboard,keyboard,0,0603_ske_dnn_0_keyboard_00_keyboard-0004-sketch-11.png,keyboard-0004-sketch-11.png,1.0,9.898037,-1.5650706,8.105641
alexnet_w3_mlp_simclrhn_probe0,1,604,NaN,keyboard,keyboard,0,0604_ske_dnn_0_keyboard_00_keyboard-0005-sketch-12.png,keyboard-0005-sketch-12.png,1.0,9.72504,-1.1027441,7.6564
