subj,session,trial,rt,object_response,category,condition,imagename,filename,is_correct,targ_act,max_nontarg_act,decision_margin
alexnet_w3_mlp_simclrhn_probe1,1,1,NaN,airplane,airplane,0,0001_ske_dnn_0_airplane_00_airplane-0001-sketch-0.png,airplane-0001-sketch-0.png,1.0,3.3989496,0.39055467,2.1272564
alexnet_w3_mlp_simclrhn_probe1,1,2,NaN,airplane,airplane,0,0002_ske_dnn_0_airplane_00_airplane-0002-sketch-1.png,airplane-0002-sketch-1.png,1.0,2.6443446,0.6381351,1.4186043
alexnet_w3_mlp_simclrhn_probe1,1,3,NaN,airplane,airplane,0,0003_ske_dnn_0_airplane_00_airplane-0003-sketch-10.png,airplane-0003-sketch-10.png,1.0,-0.031329527,-0.23981442,0.14742108
alexnet_w3_mlp_simclrhn_probe1,1,4,NaN,airplane,airplane,0,0004_ske_dnn_0_airplane_00_airplane-0004-sketch-11.png,airplane-0004-sketch-11.png,1.0,0.049485564,-0.86080587,0.64367324
alexnet_w3_mlp_simclrhn_probe1,1,5,NaN,airplane,airplane,0,0005_ske_dnn_0_airplane_00_airplane-0005-sketch-12.png,airplane-0005-sketch-12.png,1.0,2.8603172,-0.31373143,2.2443914
alexnet_w3_mlp_simclrhn_probe1,1,6,NaN,airplane,airplane,0,0006_ske_dnn_0_airplane_00_airplane-0006-sketch-13.png,airplane-0006-sketch-13.png,1.0,5.7218757,-2.5974789,5.8826723
alexnet_w3_mlp_simclrhn_probe1,1,7,NaN,airplane,airplane,0,0007_ske_dnn_0_airplane_00_airplane-0007-sketch-14.png,airplane-0007-sketch-14.png,1.0,0.014970906,-0.84845203,0.6105322
alexnet_w3_mlp_simclrhn_probe1,1,8,NaN,clock,airplane,0,0008_ske_dnn_0_airplane_00_airplane-0008-sketch-15.png,airplane-0008-sketch-15.png,0.0,-0.74789983,-0.08588877,-0.4681125
alexnet_w3_mlp_simclrhn_probe1,1,9,NaN,airplane,airplane,0,0009_ske_dnn_0_airplane_00_airplane-0009-sketch-16.png,airplane-0009-sketch-16.png,1.0,1.8310423,-1.3198997,2.2280524
alexnet_w3_mlp_simclrhn_probe1,1,10,NaN,airplane,airplane,0,0010_ske_dnn_0_airplane_00_airplane-0010-sketch-17.png,airplane-0010-sketch-17.png,1.0,0.5424238,-1.4825675,1.4318851
alexnet_w3_mlp_simclrhn_probe1,1,11,NaN,clock,airplane,0,0011_ske_dnn_0_airplane_00_airplane-0011-sketch-18.png,airplane-0011-sketch-18.png,0.0,-2.2375634,0.303403,-1.7967346
alexnet_w3_mlp_simclrhn_probe1,1,12,NaN,clock,airplane,0,0012_ske_dnn_0_airplane_00_airplane-0012-sketch-19.png,airplane-0012-sketch-19.png,0.0,-0.8436418,-0.38758,-0.3224844
alexnet_w3_mlp_simclrhn_probe1,1,13,NaN,airplane,airplane,0,0013_ske_dnn_0_airplane_00_airplane-0013-sketch-2.png,airplane-0013-sketch-2.png,1.0,4.594597,-0.8007553,3.8150904
alexnet_w3_mlp_simclrhn_probe1,1,14,NaN,airplane,airplane,0,0014_ske_dnn_0_airplane_00_airplane-0014-sketch-20.png,airplane-0014-sketch-20.png,1.0,1.9410359,0.485849,1.0289725
alexnet_w3_mlp_simclrhn_probe1,1,15,NaN,airplane,airplane,0,0015_ske_dnn_0_airplane_00_airplane-0015-sketch-21.png,airplane-0015-sketch-21.png,1.0,1.3343304,-0.20622592,1.0893378
alexnet_w3_mlp_simclrhn_probe1,1,16,NaN,airplane,airplane,0,0016_ske_dnn_0_airplane_00_airplane-0016-sketch-22.png,airplane-0016-sketch-22.png,1.0,4.788166,-1.6661458,4.5638876
alexnet_w3_mlp_simclrhn_probe1,1,17,NaN,airplane,airplane,0,0017_ske_dnn_0_airplane_00_airplane-0017-sketch-23.png,airplane-0017-sketch-23.png,1.0,0.39869487,-0.2598882,0.46568856
alexnet_w3_mlp_simclrhn_probe1,1,18,NaN,clock,airplane,0,0018_ske_dnn_0_airplane_00_airplane-0018-sketch-24.png,airplane-0018-sketch-24.png,0.0,-0.8622601,0.79845667,-1.1743041
alexnet_w3_mlp_simclrhn_probe1,1,19,NaN,clock,airplane,0,0019_ske_dnn_0_airplane_00_airplane-0019-sketch-25.png,airplane-0019-sketch-25.png,0.0,-3.273839,1.4295484,-3.325797
alexnet_w3_mlp_simclrhn_probe1,1,20,NaN,clock,airplane,0,0020_ske_dnn_0_airplane_00_airplane-0020-sketch-26.png,airplane-0020-sketch-26.png,0.0,-1.4459485,-0.4249474,-0.7219568
alexnet_w3_mlp_simclrhn_probe1,1,21,NaN,clock,airplane,0,0021_ske_dnn_0_airplane_00_airplane-0021-sketch-27.png,airplane-0021-sketch-27.png,0.0,-1.7244064,1.2828425,-2.126446
alexnet_w3_mlp_simclrhn_probe1,1,22,NaN,airplane,airplane,0,0022_ske_dnn_0_airplane_00_airplane-0022-sketch-28.png,airplane-0022-sketch-28.png,1.0,1.3227886,0.6978701,0.44188413
alexnet_w3_mlp_simclrhn_probe1,1,23,NaN,knife,airplane,0,0023_ske_dnn_0_airplane_00_airplane-0023-sketch-29.png,airplane-0023-sketch-29.png,0.0,-2.3242912,-0.8791561,-1.0218649
alexnet_w3_mlp_simclrhn_probe1,1,24,NaN,airplane,airplane,0,0024_ske_dnn_0_airplane_00_airplane-0024-sketch-3.png,airplane-0024-sketch-3.png,1.0,0.8468305,0.16846538,0.47967657
alexnet_w3_mlp_simclrhn_probe1,1,25,NaN,airplane,airplane,0,0025_ske_dnn_0_airplane_00_airplane-0025-sketch-30.png,airplane-0025-sketch-30.png,1.0,0.72020966,-0.387046,0.782948
alexnet_w3_mlp_simclrhn_probe1,1,26,NaN,clock,airplane,0,0026_ske_dnn_0_airplane_00_airplane-0027-sketch-32.png,airplane-0027-sketch-32.png,0.0,0.37793612,2.4587092,-1.4713289
alexnet_w3_mlp_simclrhn_probe1,1,27,NaN,clock,airplane,0,0027_ske_dnn_0_airplane_00_airplane-0028-sketch-33.png,airplane-0028-sketch-33.png,0.0,-1.1679485,1.0415939,-1.5623823
alexnet_w3_mlp_simclrhn_probe1,1,28,NaN,clock,airplane,0,0028_ske_dnn_0_airplane_00_airplane-0029-sketch-34.png,airplane-0029-sketch-34.png,0.0,-1.2755327,1.1255165,-1.6977981
alexnet_w3_mlp_simclrhn_probe1,1,29,NaN,clock,airplane,0,0029_ske_dnn_0_airplane_00_airplane-0030-sketch-35.png,airplane-0030-sketch-35.png,0.0,-0.15956014,-0.12434373,-0.024901764
alexnet_w3_mlp_simclrhn_probe1,1,30,NaN,knife,airplane,0,0030_ske_dnn_0_airplane_00_airplane-0031-sketch-36.png,airplane-0031-sketch-36.png,0.0,-0.8231268,-0.015258253,-0.5712493
alexnet_w3_mlp_simclrhn_probe1,1,31,NaN,airplane,airplane,0,0031_ske_dnn_0_airplane_00_airplane-0032-sketch-37.png,airplane-0032-sketch-37.png,1.0,1.2409462,-0.9265735,1.5326678
alexnet_w3_mlp_simclrhn_probe1,1,32,NaN,airplane,airplane,0,0032_ske_dnn_0_airplane_00_airplane-0033-sketch-38.png,airplane-0033-sketch-38.png,1.0,-1.2384418,-1.2423872,0.0027897842
alexnet_w3_mlp_simclrhn_probe1,1,33,NaN,clock,airplane,0,0033_ske_dnn_0_airplane_00_airplane-0034-sketch-39.png,airplane-0034-sketch-39.png,0.0,-1.9118342,1.3846307,-2.3309526
alexnet_w3_mlp_simclrhn_probe1,1,34,NaN,airplane,airplane,0,0034_ske_dnn_0_airplane_00_airplane-0035-sketch-4.png,airplane-0035-sketch-4.png,1.0,0.67251,0.4232741,0.17623642
alexnet_w3_mlp_simclrhn_probe1,1,35,NaN,airplane,airplane,0,0035_ske_dnn_0_airplane_00_airplane-0036-sketch-40.png,airplane-0036-sketch-40.png,1.0,2.7451138,-1.5729284,3.053317
alexnet_w3_mlp_simclrhn_probe1,1,36,NaN,airplane,airplane,0,0036_ske_dnn_0_airplane_00_airplane-0037-sketch-41.png,airplane-0037-sketch-41.png,1.0,1.3319135,-0.17774224,1.0674878
alexnet_w3_mlp_simclrhn_probe1,1,37,NaN,clock,airplane,0,0037_ske_dnn_0_airplane_00_airplane-0038-sketch-42.png,airplane-0038-sketch-42.png,0.0,-0.80742276,1.431667,-1.5832756
alexnet_w3_mlp_simclrhn_probe1,1,38,NaN,knife,airplane,0,0038_ske_dnn_0_airplane_00_airplane-0039-sketch-43.png,airplane-0039-sketch-43.png,0.0,-0.55435765,-0.04612814,-0.35937253
alexnet_w3_mlp_simclrhn_probe1,1,39,NaN,clock,airplane,0,0039_ske_dnn_0_airplane_00_airplane-0040-sketch-44.png,airplane-0040-sketch-44.png,0.0,-3.044174,1.7716689,-3.405315
alexnet_w3_mlp_simclrhn_probe1,1,40,NaN,airplane,airplane,0,0040_ske_dnn_0_airplane_00_airplane-0041-sketch-45.png,airplane-0041-sketch-45.png,1.0,0.82612336,-0.42702952,0.88611287
alexnet_w3_mlp_simclrhn_probe1,1,41,NaN,clock,airplane,0,0041_ske_dnn_0_airplane_00_airplane-0042-sketch-46.png,airplane-0042-sketch-46.png,0.0,-3.1408525,-0.52405196,-1.8503574
alexnet_w3_mlp_simclrhn_probe1,1,42,NaN,clock,airplane,0,0042_ske_dnn_0_airplane_00_airplane-0043-sketch-47.png,airplane-0043-sketch-47.png,0.0,0.18635717,1.8122543,-1.1496829
alexnet_w3_mlp_simclrhn_probe1,1,43,NaN,clock,airplane,0,0043_ske_dnn_0_airplane_00_airplane-0044-sketch-48.png,airplane-0044-sketch-48.png,0.0,-1.0484825,0.21712394,-0.894919
alexnet_w3_mlp_simclrhn_probe1,1,44,NaN,airplane,airplane,0,0044_ske_dnn_0_airplane_00_airplane-0045-sketch-49.png,airplane-0045-sketch-49.png,1.0,3.8130693,0.23225212,2.53202
alexnet_w3_mlp_simclrhn_probe1,1,45,NaN,airplane,airplane,0,0045_ske_dnn_0_airplane_00_airplane-0046-sketch-5.png,airplane-0046-sketch-5.png,1.0,-0.07010816,-0.44793597,0.26716462
alexnet_w3_mlp_simclrhn_probe1,1,46,NaN,airplane,airplane,0,0046_ske_dnn_0_airplane_00_airplane-0047-sketch-50.png,airplane-0047-sketch-50.png,1.0,2.2934237,0.60982865,1.1904814
alexnet_w3_mlp_simclrhn_probe1,1,47,NaN,airplane,airplane,0,0047_ske_dnn_0_airplane_00_airplane-0048-sketch-6.png,airplane-0048-sketch-6.png,1.0,0.43250126,-0.5205541,0.6739119
alexnet_w3_mlp_simclrhn_probe1,1,48,NaN,clock,airplane,0,0048_ske_dnn_0_airplane_00_airplane-0049-sketch-7.png,airplane-0049-sketch-7.png,0.0,0.7185528,0.9049141,-0.1317773
alexnet_w3_mlp_simclrhn_probe1,1,49,NaN,clock,airplane,0,0049_ske_dnn_0_airplane_00_airplane-0050-sketch-8.png,airplane-0050-sketch-8.png,0.0,-3.4261768,2.3585012,-4.090385
alexnet_w3_mlp_simclrhn_probe1,1,50,NaN,airplane,airplane,0,0050_ske_dnn_0_airplane_00_airplane-0051-sketch-9.png,airplane-0051-sketch-9.png,1.0,2.290066,0.9509663,0.9468865
alexnet_w3_mlp_simclrhn_probe1,1,51,NaN,bird,bear,0,0051_ske_dnn_0_bear_00_bear-0005-sketch-12.png,bear-0005-sketch-12.png,0.0,-9.50883,-2.9883785,-4.610656
alexnet_w3_mlp_simclrhn_probe1,1,52,NaN,clock,bear,0,0052_ske_dnn_0_bear_00_bear-0007-sketch-14.png,bear-0007-sketch-14.png,0.0,-12.602607,-3.5446978,-6.404909
alexnet_w3_mlp_simclrhn_probe1,1,53,NaN,cat,bear,0,0053_ske_dnn_0_bear_00_bear-0017-sketch-23.png,bear-0017-sketch-23.png,0.0,-6.0402102,3.8476512,-6.991774
alexnet_w3_mlp_simclrhn_probe1,1,54,NaN,elephant,bear,0,0054_ske_dnn_0_bear_00_bear-0022-sketch-28.png,bear-0022-sketch-28.png,0.0,-7.7424316,-0.3204257,-5.248151
alexnet_w3_mlp_simclrhn_probe1,1,55,NaN,cat,bear,0,0055_ske_dnn_0_bear_00_bear-0023-sketch-29.png,bear-0023-sketch-29.png,0.0,-9.413586,-2.2341864,-5.076602
alexnet_w3_mlp_simclrhn_probe1,1,56,NaN,elephant,bear,0,0056_ske_dnn_0_bear_00_bear-0026-sketch-31.png,bear-0026-sketch-31.png,0.0,-1.0692904,-1.0634358,-0.004139832
alexnet_w3_mlp_simclrhn_probe1,1,57,NaN,cat,bear,0,0057_ske_dnn_0_bear_00_bear-0027-sketch-32.png,bear-0027-sketch-32.png,0.0,-6.8742685,0.5068996,-5.2192745
alexnet_w3_mlp_simclrhn_probe1,1,58,NaN,dog,bear,0,0058_ske_dnn_0_bear_00_bear-0030-sketch-35.png,bear-0030-sketch-35.png,0.0,-2.7151027,-1.756614,-0.67775387
alexnet_w3_mlp_simclrhn_probe1,1,59,NaN,cat,bear,0,0059_ske_dnn_0_bear_00_bear-0033-sketch-38.png,bear-0033-sketch-38.png,0.0,-2.8194368,1.2369813,-2.8683207
alexnet_w3_mlp_simclrhn_probe1,1,60,NaN,cat,bear,0,0060_ske_dnn_0_bear_00_bear-0036-sketch-40.png,bear-0036-sketch-40.png,0.0,-11.775543,-2.4337368,-6.6056547
alexnet_w3_mlp_simclrhn_probe1,1,61,NaN,cat,bear,0,0061_ske_dnn_0_bear_00_bear-0037-sketch-41.png,bear-0037-sketch-41.png,0.0,0.7747801,1.1003386,-0.23020461
alexnet_w3_mlp_simclrhn_probe1,1,62,NaN,cat,bear,0,0062_ske_dnn_0_bear_00_bear-0038-sketch-42.png,bear-0038-sketch-42.png,0.0,-3.1571245,2.785134,-4.201812
alexnet_w3_mlp_simclrhn_probe1,1,63,NaN,elephant,bear,0,0063_ske_dnn_0_bear_00_bear-0039-sketch-43.png,bear-0039-sketch-43.png,0.0,-3.7030492,-1.5662001,-1.5109804
alexnet_w3_mlp_simclrhn_probe1,1,64,NaN,cat,bear,0,0064_ske_dnn_0_bear_00_bear-0041-sketch-45.png,bear-0041-sketch-45.png,0.0,-1.5942161,-1.288639,-0.21607569
alexnet_w3_mlp_simclrhn_probe1,1,65,NaN,elephant,bear,0,0065_ske_dnn_0_bear_00_bear-0045-sketch-49.png,bear-0045-sketch-49.png,0.0,3.1581023,3.6715517,-0.36306357
alexnet_w3_mlp_simclrhn_probe1,1,66,NaN,cat,bear,0,0066_ske_dnn_0_bear_00_bear-0048-sketch-7.png,bear-0048-sketch-7.png,0.0,-10.771577,-3.6560233,-5.0314565
alexnet_w3_mlp_simclrhn_probe1,1,67,NaN,cat,bear,0,0067_ske_dnn_0_bear_00_bear-0049-sketch-8.png,bear-0049-sketch-8.png,0.0,-11.44055,-0.6966172,-7.597108
alexnet_w3_mlp_simclrhn_probe1,1,68,NaN,cat,bear,0,0068_ske_dnn_0_bear_00_bear-0053-sketch-10.png,bear-0053-sketch-10.png,0.0,-2.9123378,2.0278358,-3.4932303
alexnet_w3_mlp_simclrhn_probe1,1,69,NaN,bear,bear,0,0069_ske_dnn_0_bear_00_bear-0059-sketch-16.png,bear-0059-sketch-16.png,1.0,0.9322532,-1.1137027,1.4467093
alexnet_w3_mlp_simclrhn_probe1,1,70,NaN,knife,bear,0,0070_ske_dnn_0_bear_00_bear-0068-sketch-24.png,bear-0068-sketch-24.png,0.0,-5.2891254,-2.8788428,-1.7043272
alexnet_w3_mlp_simclrhn_probe1,1,71,NaN,oven,bear,0,0071_ske_dnn_0_bear_00_bear-0070-sketch-26.png,bear-0070-sketch-26.png,0.0,-8.052843,-3.3086553,-3.3546474
alexnet_w3_mlp_simclrhn_probe1,1,72,NaN,cat,bear,0,0072_ske_dnn_0_bear_00_bear-0073-sketch-29.png,bear-0073-sketch-29.png,0.0,0.03341067,1.0658339,-0.7300335
alexnet_w3_mlp_simclrhn_probe1,1,73,NaN,bear,bear,0,0073_ske_dnn_0_bear_00_bear-0079-sketch-34.png,bear-0079-sketch-34.png,1.0,8.779876,0.04699814,6.175077
alexnet_w3_mlp_simclrhn_probe1,1,74,NaN,bear,bear,0,0074_ske_dnn_0_bear_00_bear-0081-sketch-36.png,bear-0081-sketch-36.png,1.0,1.8481696,-1.4714506,2.347326
alexnet_w3_mlp_simclrhn_probe1,1,75,NaN,cat,bear,0,0075_ske_dnn_0_bear_00_bear-0085-sketch-4.png,bear-0085-sketch-4.png,0.0,0.23532364,1.6179442,-0.9776604
alexnet_w3_mlp_simclrhn_probe1,1,76,NaN,dog,bear,0,0076_ske_dnn_0_bear_00_bear-0086-sketch-40.png,bear-0086-sketch-40.png,0.0,-4.269988,-2.6574736,-1.1402199
alexnet_w3_mlp_simclrhn_probe1,1,77,NaN,clock,bear,0,0077_ske_dnn_0_bear_00_bear-0087-sketch-41.png,bear-0087-sketch-41.png,0.0,-10.067106,0.25435376,-7.298374
alexnet_w3_mlp_simclrhn_probe1,1,78,NaN,clock,bear,0,0078_ske_dnn_0_bear_00_bear-0090-sketch-44.png,bear-0090-sketch-44.png,0.0,-19.285133,0.91693133,-14.285017
alexnet_w3_mlp_simclrhn_probe1,1,79,NaN,clock,bear,0,0079_ske_dnn_0_bear_00_bear-0103-sketch-1.png,bear-0103-sketch-1.png,0.0,-11.685835,-1.0912956,-7.491471
alexnet_w3_mlp_simclrhn_probe1,1,80,NaN,chair,bear,0,0080_ske_dnn_0_bear_00_bear-0107-sketch-13.png,bear-0107-sketch-13.png,0.0,-10.802419,-2.8263497,-5.6399326
alexnet_w3_mlp_simclrhn_probe1,1,81,NaN,cat,bear,0,0081_ske_dnn_0_bear_00_bear-0110-sketch-16.png,bear-0110-sketch-16.png,0.0,-10.110714,-1.5637382,-6.043625
alexnet_w3_mlp_simclrhn_probe1,1,82,NaN,elephant,bear,0,0082_ske_dnn_0_bear_00_bear-0112-sketch-18.png,bear-0112-sketch-18.png,0.0,-5.2388563,-2.5164623,-1.9250233
alexnet_w3_mlp_simclrhn_probe1,1,83,NaN,clock,bear,0,0083_ske_dnn_0_bear_00_bear-0117-sketch-22.png,bear-0117-sketch-22.png,0.0,-12.698045,1.1226953,-9.772739
alexnet_w3_mlp_simclrhn_probe1,1,84,NaN,elephant,bear,0,0084_ske_dnn_0_bear_00_bear-0123-sketch-28.png,bear-0123-sketch-28.png,0.0,-1.4963725,0.42600584,-1.3593267
alexnet_w3_mlp_simclrhn_probe1,1,85,NaN,clock,bear,0,0085_ske_dnn_0_bear_00_bear-0135-sketch-39.png,bear-0135-sketch-39.png,0.0,-8.955552,1.3319592,-7.2743697
alexnet_w3_mlp_simclrhn_probe1,1,86,NaN,clock,bear,0,0086_ske_dnn_0_bear_00_bear-0136-sketch-4.png,bear-0136-sketch-4.png,0.0,-7.1765585,-0.29459518,-4.866283
alexnet_w3_mlp_simclrhn_probe1,1,87,NaN,clock,bear,0,0087_ske_dnn_0_bear_00_bear-0137-sketch-40.png,bear-0137-sketch-40.png,0.0,-14.599894,-2.092923,-8.843763
alexnet_w3_mlp_simclrhn_probe1,1,88,NaN,dog,bear,0,0088_ske_dnn_0_bear_00_bear-0148-sketch-50.png,bear-0148-sketch-50.png,0.0,-0.7181537,-0.5408405,-0.12537937
alexnet_w3_mlp_simclrhn_probe1,1,89,NaN,bicycle,bear,0,0089_ske_dnn_0_bear_00_bear-0149-sketch-6.png,bear-0149-sketch-6.png,0.0,-11.176111,-2.0459461,-6.4560018
alexnet_w3_mlp_simclrhn_probe1,1,90,NaN,bear,bear,0,0090_ske_dnn_0_bear_00_bear-0161-sketch-16.png,bear-0161-sketch-16.png,1.0,2.141528,0.78280145,0.96076477
alexnet_w3_mlp_simclrhn_probe1,1,91,NaN,cat,bear,0,0091_ske_dnn_0_bear_00_bear-0166-sketch-20.png,bear-0166-sketch-20.png,0.0,-11.485878,-0.21903706,-7.96686
alexnet_w3_mlp_simclrhn_probe1,1,92,NaN,clock,bear,0,0092_ske_dnn_0_bear_00_bear-0170-sketch-24.png,bear-0170-sketch-24.png,0.0,-18.985596,0.083299555,-13.483746
alexnet_w3_mlp_simclrhn_probe1,1,93,NaN,bear,bear,0,0093_ske_dnn_0_bear_00_bear-0171-sketch-25.png,bear-0171-sketch-25.png,1.0,0.285748,-0.5939483,0.62203926
alexnet_w3_mlp_simclrhn_probe1,1,94,NaN,cat,bear,0,0094_ske_dnn_0_bear_00_bear-0179-sketch-32.png,bear-0179-sketch-32.png,0.0,-11.557611,-2.7985907,-6.193563
alexnet_w3_mlp_simclrhn_probe1,1,95,NaN,clock,bear,0,0095_ske_dnn_0_bear_00_bear-0187-sketch-4.png,bear-0187-sketch-4.png,0.0,-14.07095,1.4180835,-10.9524
alexnet_w3_mlp_simclrhn_probe1,1,96,NaN,bear,bear,0,0096_ske_dnn_0_bear_00_bear-0188-sketch-40.png,bear-0188-sketch-40.png,1.0,1.0438553,-0.55744225,1.1322885
alexnet_w3_mlp_simclrhn_probe1,1,97,NaN,cat,bear,0,0097_ske_dnn_0_bear_00_bear-0195-sketch-47.png,bear-0195-sketch-47.png,0.0,-11.464029,-4.1828933,-5.148541
alexnet_w3_mlp_simclrhn_probe1,1,98,NaN,cat,bear,0,0098_ske_dnn_0_bear_00_bear-0198-sketch-5.png,bear-0198-sketch-5.png,0.0,-1.4356322,-0.3550187,-0.76410913
alexnet_w3_mlp_simclrhn_probe1,1,99,NaN,cat,bear,0,0099_ske_dnn_0_bear_00_bear-0199-sketch-50.png,bear-0199-sketch-50.png,0.0,-12.616268,-3.2930634,-6.5925016
alexnet_w3_mlp_simclrhn_probe1,1,100,NaN,keyboard,bear,0,0100_ske_dnn_0_bear_00_bear-0201-sketch-7.png,bear-0201-sketch-7.png,0.0,-3.8009968,-0.13157064,-2.5946763
alexnet_w3_mlp_simclrhn_probe1,1,101,NaN,bicycle,bicycle,0,0101_ske_dnn_0_bicycle_00_bicycle-0002-sketch-1.png,bicycle-0002-sketch-1.png,1.0,13.952737,-1.1008471,10.644491
alexnet_w3_mlp_simclrhn_probe1,1,102,NaN,clock,bicycle,0,0102_ske_dnn_0_bicycle_00_bicycle-0003-sketch-10.png,bicycle-0003-sketch-10.png,0.0,-4.8221107,0.6797004,-3.890368
alexnet_w3_mlp_simclrhn_probe1,1,103,NaN,bicycle,bicycle,0,0103_ske_dnn_0_bicycle_00_bicycle-0004-sketch-11.png,bicycle-0004-sketch-11.png,1.0,9.669594,-0.53633404,7.216681
alexnet_w3_mlp_simclrhn_probe1,1,104,NaN,bicycle,bicycle,0,0104_ske_dnn_0_bicycle_00_bicycle-0008-sketch-15.png,bicycle-0008-sketch-15.png,1.0,3.3507876,-2.6686141,4.2563596
alexnet_w3_mlp_simclrhn_probe1,1,105,NaN,bicycle,bicycle,0,0105_ske_dnn_0_bicycle_00_bicycle-0011-sketch-18.png,bicycle-0011-sketch-18.png,1.0,3.7937307,-1.238535,3.5583491
alexnet_w3_mlp_simclrhn_probe1,1,106,NaN,bicycle,bicycle,0,0106_ske_dnn_0_bicycle_00_bicycle-0013-sketch-2.png,bicycle-0013-sketch-2.png,1.0,11.200604,-1.5361286,9.00623
alexnet_w3_mlp_simclrhn_probe1,1,107,NaN,clock,bicycle,0,0107_ske_dnn_0_bicycle_00_bicycle-0016-sketch-22.png,bicycle-0016-sketch-22.png,0.0,-4.720214,0.49016282,-3.6842928
alexnet_w3_mlp_simclrhn_probe1,1,108,NaN,bicycle,bicycle,0,0108_ske_dnn_0_bicycle_00_bicycle-0019-sketch-25.png,bicycle-0019-sketch-25.png,1.0,9.722515,0.1590724,6.762375
alexnet_w3_mlp_simclrhn_probe1,1,109,NaN,bicycle,bicycle,0,0109_ske_dnn_0_bicycle_00_bicycle-0020-sketch-26.png,bicycle-0020-sketch-26.png,1.0,2.1757555,-2.14984,3.0586581
alexnet_w3_mlp_simclrhn_probe1,1,110,NaN,bicycle,bicycle,0,0110_ske_dnn_0_bicycle_00_bicycle-0022-sketch-28.png,bicycle-0022-sketch-28.png,1.0,1.830211,-3.6359138,3.8651342
alexnet_w3_mlp_simclrhn_probe1,1,111,NaN,clock,bicycle,0,0111_ske_dnn_0_bicycle_00_bicycle-0023-sketch-29.png,bicycle-0023-sketch-29.png,0.0,1.4463036,1.584911,-0.09801022
alexnet_w3_mlp_simclrhn_probe1,1,112,NaN,bicycle,bicycle,0,0112_ske_dnn_0_bicycle_00_bicycle-0025-sketch-30.png,bicycle-0025-sketch-30.png,1.0,0.35427308,0.0008463065,0.24991047
alexnet_w3_mlp_simclrhn_probe1,1,113,NaN,bicycle,bicycle,0,0113_ske_dnn_0_bicycle_00_bicycle-0026-sketch-31.png,bicycle-0026-sketch-31.png,1.0,0.2950037,-1.5882013,1.331627
alexnet_w3_mlp_simclrhn_probe1,1,114,NaN,bicycle,bicycle,0,0114_ske_dnn_0_bicycle_00_bicycle-0031-sketch-36.png,bicycle-0031-sketch-36.png,1.0,-0.33193016,-2.3830297,1.4503465
alexnet_w3_mlp_simclrhn_probe1,1,115,NaN,bicycle,bicycle,0,0115_ske_dnn_0_bicycle_00_bicycle-0034-sketch-39.png,bicycle-0034-sketch-39.png,1.0,0.5952703,-1.3242258,1.3572887
alexnet_w3_mlp_simclrhn_probe1,1,116,NaN,bicycle,bicycle,0,0116_ske_dnn_0_bicycle_00_bicycle-0037-sketch-41.png,bicycle-0037-sketch-41.png,1.0,1.3419542,1.1006442,0.17063195
alexnet_w3_mlp_simclrhn_probe1,1,117,NaN,bicycle,bicycle,0,0117_ske_dnn_0_bicycle_00_bicycle-0038-sketch-42.png,bicycle-0038-sketch-42.png,1.0,0.366322,0.15872157,0.14679569
alexnet_w3_mlp_simclrhn_probe1,1,118,NaN,bicycle,bicycle,0,0118_ske_dnn_0_bicycle_00_bicycle-0039-sketch-43.png,bicycle-0039-sketch-43.png,1.0,0.26262766,-1.8790921,1.5144247
alexnet_w3_mlp_simclrhn_probe1,1,119,NaN,bicycle,bicycle,0,0119_ske_dnn_0_bicycle_00_bicycle-0040-sketch-44.png,bicycle-0040-sketch-44.png,1.0,0.39433834,-1.8415154,1.5809873
alexnet_w3_mlp_simclrhn_probe1,1,120,NaN,bicycle,bicycle,0,0120_ske_dnn_0_bicycle_00_bicycle-0044-sketch-48.png,bicycle-0044-sketch-48.png,1.0,5.1869135,-4.4948964,6.846074
alexnet_w3_mlp_simclrhn_probe1,1,121,NaN,bicycle,bicycle,0,0121_ske_dnn_0_bicycle_00_bicycle-0045-sketch-49.png,bicycle-0045-sketch-49.png,1.0,13.952737,-1.1008471,10.644491
alexnet_w3_mlp_simclrhn_probe1,1,122,NaN,clock,bicycle,0,0122_ske_dnn_0_bicycle_00_bicycle-0046-sketch-5.png,bicycle-0046-sketch-5.png,0.0,0.77226186,1.766435,-0.7029866
alexnet_w3_mlp_simclrhn_probe1,1,123,NaN,bicycle,bicycle,0,0123_ske_dnn_0_bicycle_00_bicycle-0047-sketch-50.png,bicycle-0047-sketch-50.png,1.0,11.200604,-1.5361286,9.00623
alexnet_w3_mlp_simclrhn_probe1,1,124,NaN,bicycle,bicycle,0,0124_ske_dnn_0_bicycle_00_bicycle-0048-sketch-6.png,bicycle-0048-sketch-6.png,1.0,2.8143451,-0.86247015,2.599901
alexnet_w3_mlp_simclrhn_probe1,1,125,NaN,bicycle,bicycle,0,0125_ske_dnn_0_bicycle_00_bicycle-0053-sketch-1.png,bicycle-0053-sketch-1.png,1.0,3.264372,-5.164303,5.9599733
alexnet_w3_mlp_simclrhn_probe1,1,126,NaN,bicycle,bicycle,0,0126_ske_dnn_0_bicycle_00_bicycle-0054-sketch-10.png,bicycle-0054-sketch-10.png,1.0,5.4883227,-4.293629,6.9168844
alexnet_w3_mlp_simclrhn_probe1,1,127,NaN,bicycle,bicycle,0,0127_ske_dnn_0_bicycle_00_bicycle-0056-sketch-12.png,bicycle-0056-sketch-12.png,1.0,3.263736,-5.236492,6.010569
alexnet_w3_mlp_simclrhn_probe1,1,128,NaN,clock,bicycle,0,0128_ske_dnn_0_bicycle_00_bicycle-0057-sketch-13.png,bicycle-0057-sketch-13.png,0.0,-2.8009188,-0.9523544,-1.3071325
alexnet_w3_mlp_simclrhn_probe1,1,129,NaN,bicycle,bicycle,0,0129_ske_dnn_0_bicycle_00_bicycle-0058-sketch-14.png,bicycle-0058-sketch-14.png,1.0,2.101295,-1.6178117,2.6298056
alexnet_w3_mlp_simclrhn_probe1,1,130,NaN,clock,bicycle,0,0130_ske_dnn_0_bicycle_00_bicycle-0059-sketch-15.png,bicycle-0059-sketch-15.png,0.0,-6.073119,3.0493057,-6.4505286
alexnet_w3_mlp_simclrhn_probe1,1,131,NaN,bicycle,bicycle,0,0131_ske_dnn_0_bicycle_00_bicycle-0060-sketch-16.png,bicycle-0060-sketch-16.png,1.0,3.224077,-0.12164831,2.3657851
alexnet_w3_mlp_simclrhn_probe1,1,132,NaN,bicycle,bicycle,0,0132_ske_dnn_0_bicycle_00_bicycle-0062-sketch-18.png,bicycle-0062-sketch-18.png,1.0,4.7782583,1.0009121,2.6709871
alexnet_w3_mlp_simclrhn_probe1,1,133,NaN,bicycle,bicycle,0,0133_ske_dnn_0_bicycle_00_bicycle-0066-sketch-21.png,bicycle-0066-sketch-21.png,1.0,6.1314955,0.33291054,4.100219
alexnet_w3_mlp_simclrhn_probe1,1,134,NaN,bicycle,bicycle,0,0134_ske_dnn_0_bicycle_00_bicycle-0068-sketch-23.png,bicycle-0068-sketch-23.png,1.0,19.944305,-2.183446,15.646683
alexnet_w3_mlp_simclrhn_probe1,1,135,NaN,clock,bicycle,0,0135_ske_dnn_0_bicycle_00_bicycle-0070-sketch-25.png,bicycle-0070-sketch-25.png,0.0,1.0069396,2.1306999,-0.7946185
alexnet_w3_mlp_simclrhn_probe1,1,136,NaN,clock,bicycle,0,0136_ske_dnn_0_bicycle_00_bicycle-0071-sketch-26.png,bicycle-0071-sketch-26.png,0.0,-0.114820376,1.0097132,-0.7951653
alexnet_w3_mlp_simclrhn_probe1,1,137,NaN,bicycle,bicycle,0,0137_ske_dnn_0_bicycle_00_bicycle-0075-sketch-3.png,bicycle-0075-sketch-3.png,1.0,7.2867737,0.6996129,4.657826
alexnet_w3_mlp_simclrhn_probe1,1,138,NaN,bicycle,bicycle,0,0138_ske_dnn_0_bicycle_00_bicycle-0078-sketch-32.png,bicycle-0078-sketch-32.png,1.0,15.003523,2.3752787,8.929518
alexnet_w3_mlp_simclrhn_probe1,1,139,NaN,bicycle,bicycle,0,0139_ske_dnn_0_bicycle_00_bicycle-0080-sketch-34.png,bicycle-0080-sketch-34.png,1.0,6.654622,1.3504826,3.7505932
alexnet_w3_mlp_simclrhn_probe1,1,140,NaN,bicycle,bicycle,0,0140_ske_dnn_0_bicycle_00_bicycle-0081-sketch-35.png,bicycle-0081-sketch-35.png,1.0,6.957347,0.3845056,4.647701
alexnet_w3_mlp_simclrhn_probe1,1,141,NaN,clock,bicycle,0,0141_ske_dnn_0_bicycle_00_bicycle-0083-sketch-37.png,bicycle-0083-sketch-37.png,0.0,0.49471372,0.7372742,-0.17151618
alexnet_w3_mlp_simclrhn_probe1,1,142,NaN,clock,bicycle,0,0142_ske_dnn_0_bicycle_00_bicycle-0084-sketch-38.png,bicycle-0084-sketch-38.png,0.0,-2.3995864,1.22146,-2.5604665
alexnet_w3_mlp_simclrhn_probe1,1,143,NaN,bicycle,bicycle,0,0143_ske_dnn_0_bicycle_00_bicycle-0087-sketch-40.png,bicycle-0087-sketch-40.png,1.0,16.47908,-3.2856705,13.97579
alexnet_w3_mlp_simclrhn_probe1,1,144,NaN,bicycle,bicycle,0,0144_ske_dnn_0_bicycle_00_bicycle-0090-sketch-43.png,bicycle-0090-sketch-43.png,1.0,8.498779,2.8446205,3.9980938
alexnet_w3_mlp_simclrhn_probe1,1,145,NaN,clock,bicycle,0,0145_ske_dnn_0_bicycle_00_bicycle-0094-sketch-47.png,bicycle-0094-sketch-47.png,0.0,-5.892216,2.7890987,-6.1386166
alexnet_w3_mlp_simclrhn_probe1,1,146,NaN,bicycle,bicycle,0,0146_ske_dnn_0_bicycle_00_bicycle-0095-sketch-48.png,bicycle-0095-sketch-48.png,1.0,4.199725,0.031812508,2.9471593
alexnet_w3_mlp_simclrhn_probe1,1,147,NaN,bicycle,bicycle,0,0147_ske_dnn_0_bicycle_00_bicycle-0098-sketch-50.png,bicycle-0098-sketch-50.png,1.0,5.0916433,1.1247926,2.8049872
alexnet_w3_mlp_simclrhn_probe1,1,148,NaN,clock,bicycle,0,0148_ske_dnn_0_bicycle_00_bicycle-0099-sketch-6.png,bicycle-0099-sketch-6.png,0.0,-1.5296861,0.856869,-1.6875494
alexnet_w3_mlp_simclrhn_probe1,1,149,NaN,bicycle,bicycle,0,0149_ske_dnn_0_bicycle_00_bicycle-0101-sketch-8.png,bicycle-0101-sketch-8.png,1.0,17.074009,-3.071149,14.244779
alexnet_w3_mlp_simclrhn_probe1,1,150,NaN,bicycle,bicycle,0,0150_ske_dnn_0_bicycle_00_bicycle-0102-sketch-9.png,bicycle-0102-sketch-9.png,1.0,1.7775633,-4.570539,4.488786
alexnet_w3_mlp_simclrhn_probe1,1,151,NaN,clock,bird,0,0151_ske_dnn_0_bird_00_bird-0030-sketch-35.png,bird-0030-sketch-35.png,0.0,-5.7864304,0.5313538,-4.467348
alexnet_w3_mlp_simclrhn_probe1,1,152,NaN,bird,bird,0,0152_ske_dnn_0_bird_00_bird-0047-sketch-50.png,bird-0047-sketch-50.png,1.0,-2.608904,-4.4793863,1.3226309
alexnet_w3_mlp_simclrhn_probe1,1,153,NaN,bird,bird,0,0153_ske_dnn_0_bird_00_bird-0072-sketch-27.png,bird-0072-sketch-27.png,1.0,-2.2697167,-3.4682903,0.8475195
alexnet_w3_mlp_simclrhn_probe1,1,154,NaN,bird,bird,0,0154_ske_dnn_0_bird_00_bird-0228-sketch-3.png,bird-0228-sketch-3.png,1.0,4.598891,-6.9120383,8.139456
alexnet_w3_mlp_simclrhn_probe1,1,155,NaN,bird,bird,0,0155_ske_dnn_0_bird_00_bird-0274-sketch-25.png,bird-0274-sketch-25.png,1.0,-2.1223807,-3.358002,0.8737162
alexnet_w3_mlp_simclrhn_probe1,1,156,NaN,clock,bird,0,0156_ske_dnn_0_bird_00_bird-0292-sketch-41.png,bird-0292-sketch-41.png,0.0,-2.5075033,-0.44184694,-1.4606397
alexnet_w3_mlp_simclrhn_probe1,1,157,NaN,clock,bird,0,0157_ske_dnn_0_bird_00_bird-0316-sketch-17.png,bird-0316-sketch-17.png,0.0,-3.7474704,-1.6750115,-1.4654497
alexnet_w3_mlp_simclrhn_probe1,1,158,NaN,bicycle,bird,0,0158_ske_dnn_0_bird_00_bird-0325-sketch-25.png,bird-0325-sketch-25.png,0.0,-3.0204527,-0.36509633,-1.8776206
alexnet_w3_mlp_simclrhn_probe1,1,159,NaN,clock,bird,0,0159_ske_dnn_0_bird_00_bird-0357-sketch-9.png,bird-0357-sketch-9.png,0.0,-2.0451953,-1.8531942,-0.13576528
alexnet_w3_mlp_simclrhn_probe1,1,160,NaN,bird,bird,0,0160_ske_dnn_0_bird_00_bird-0384-sketch-32.png,bird-0384-sketch-32.png,1.0,-0.054190204,-3.81923,2.6622853
alexnet_w3_mlp_simclrhn_probe1,1,161,NaN,bird,bird,0,0161_ske_dnn_0_bird_00_bird-0415-sketch-14.png,bird-0415-sketch-14.png,1.0,1.5375816,-3.1377234,3.30594
alexnet_w3_mlp_simclrhn_probe1,1,162,NaN,bird,bird,0,0162_ske_dnn_0_bird_00_bird-0474-sketch-21.png,bird-0474-sketch-21.png,1.0,-0.15562578,-3.687874,2.4976768
alexnet_w3_mlp_simclrhn_probe1,1,163,NaN,bird,bird,0,0163_ske_dnn_0_bird_00_bird-0479-sketch-26.png,bird-0479-sketch-26.png,1.0,-0.5531591,-1.8746927,0.93446535
alexnet_w3_mlp_simclrhn_probe1,1,164,NaN,bird,bird,0,0164_ske_dnn_0_bird_00_bird-0491-sketch-37.png,bird-0491-sketch-37.png,1.0,0.26440594,-3.0723433,2.3594382
alexnet_w3_mlp_simclrhn_probe1,1,165,NaN,bird,bird,0,0165_ske_dnn_0_bird_00_bird-0578-sketch-23.png,bird-0578-sketch-23.png,1.0,-1.2694362,-3.056675,1.2637687
alexnet_w3_mlp_simclrhn_probe1,1,166,NaN,bird,bird,0,0166_ske_dnn_0_bird_00_bird-0640-sketch-33.png,bird-0640-sketch-33.png,1.0,-2.4294782,-4.5529675,1.5015337
alexnet_w3_mlp_simclrhn_probe1,1,167,NaN,clock,bird,0,0167_ske_dnn_0_bird_00_bird-0646-sketch-39.png,bird-0646-sketch-39.png,0.0,-5.01342,-0.21656097,-3.3918917
alexnet_w3_mlp_simclrhn_probe1,1,168,NaN,bottle,bird,0,0168_ske_dnn_0_bird_00_bird-0685-sketch-28.png,bird-0685-sketch-28.png,0.0,-6.421438,-5.190864,-0.87014735
alexnet_w3_mlp_simclrhn_probe1,1,169,NaN,bird,bird,0,0169_ske_dnn_0_bird_00_bird-0694-sketch-36.png,bird-0694-sketch-36.png,1.0,-2.8125384,-3.4109063,0.42311004
alexnet_w3_mlp_simclrhn_probe1,1,170,NaN,bird,bird,0,0170_ske_dnn_0_bird_00_bird-0733-sketch-25.png,bird-0733-sketch-25.png,1.0,-0.67668504,-2.953133,1.6096919
alexnet_w3_mlp_simclrhn_probe1,1,171,NaN,bird,bird,0,0171_ske_dnn_0_bird_00_bird-0748-sketch-39.png,bird-0748-sketch-39.png,1.0,4.2724953,-6.896984,7.8980145
alexnet_w3_mlp_simclrhn_probe1,1,172,NaN,bird,bird,0,0172_ske_dnn_0_bird_00_bird-0749-sketch-4.png,bird-0749-sketch-4.png,1.0,-1.7263925,-5.690082,2.8027518
alexnet_w3_mlp_simclrhn_probe1,1,173,NaN,bird,bird,0,0173_ske_dnn_0_bird_00_bird-0809-sketch-48.png,bird-0809-sketch-48.png,1.0,-0.9939959,-6.4264803,3.8413467
alexnet_w3_mlp_simclrhn_probe1,1,174,NaN,cat,bird,0,0174_ske_dnn_0_bird_00_bird-0834-sketch-24.png,bird-0834-sketch-24.png,0.0,-1.9485042,-1.8448213,-0.07331487
alexnet_w3_mlp_simclrhn_probe1,1,175,NaN,elephant,bird,0,0175_ske_dnn_0_bird_00_bird-0880-sketch-2.png,bird-0880-sketch-2.png,0.0,-3.1700544,-3.014165,-0.110230535
alexnet_w3_mlp_simclrhn_probe1,1,176,NaN,bird,bird,0,0176_ske_dnn_0_bird_00_bird-0939-sketch-27.png,bird-0939-sketch-27.png,1.0,-1.080008,-1.7656031,0.4847889
alexnet_w3_mlp_simclrhn_probe1,1,177,NaN,bird,bird,0,0177_ske_dnn_0_bird_00_bird-0954-sketch-40.png,bird-0954-sketch-40.png,1.0,-0.43612096,-2.738421,1.627972
alexnet_w3_mlp_simclrhn_probe1,1,178,NaN,bicycle,bird,0,0178_ske_dnn_0_bird_00_bird-1033-sketch-20.png,bird-1033-sketch-20.png,0.0,-5.4314394,-3.1865993,-1.5873417
alexnet_w3_mlp_simclrhn_probe1,1,179,NaN,bird,bird,0,0179_ske_dnn_0_bird_00_bird-1081-sketch-18.png,bird-1081-sketch-18.png,1.0,-1.0209174,-2.024345,0.7095304
alexnet_w3_mlp_simclrhn_probe1,1,180,NaN,clock,bird,0,0180_ske_dnn_0_bird_00_bird-1096-sketch-31.png,bird-1096-sketch-31.png,0.0,-3.8007467,-1.9554534,-1.3048195
alexnet_w3_mlp_simclrhn_probe1,1,181,NaN,bottle,bird,0,0181_ske_dnn_0_bird_00_bird-1148-sketch-32.png,bird-1148-sketch-32.png,0.0,-6.829008,-4.55949,-1.6047915
alexnet_w3_mlp_simclrhn_probe1,1,182,NaN,bird,bird,0,0182_ske_dnn_0_bird_00_bird-1201-sketch-34.png,bird-1201-sketch-34.png,1.0,4.543192,-4.493817,6.39013
alexnet_w3_mlp_simclrhn_probe1,1,183,NaN,bird,bird,0,0183_ske_dnn_0_bird_00_bird-1342-sketch-24.png,bird-1342-sketch-24.png,1.0,3.616457,-4.2988186,5.5969453
alexnet_w3_mlp_simclrhn_probe1,1,184,NaN,bird,bird,0,0184_ske_dnn_0_bird_00_bird-1510-sketch-39.png,bird-1510-sketch-39.png,1.0,-1.7237173,-2.367375,0.45513463
alexnet_w3_mlp_simclrhn_probe1,1,185,NaN,clock,bird,0,0185_ske_dnn_0_bird_00_bird-1562-sketch-40.png,bird-1562-sketch-40.png,0.0,-11.233377,-1.2792766,-7.0386124
alexnet_w3_mlp_simclrhn_probe1,1,186,NaN,bird,bird,0,0186_ske_dnn_0_bird_00_bird-1565-sketch-43.png,bird-1565-sketch-43.png,1.0,-2.1137178,-2.9946146,0.6228881
alexnet_w3_mlp_simclrhn_probe1,1,187,NaN,bicycle,bird,0,0187_ske_dnn_0_bird_00_bird-1702-sketch-29.png,bird-1702-sketch-29.png,0.0,-2.8967052,-0.7042529,-1.5502979
alexnet_w3_mlp_simclrhn_probe1,1,188,NaN,bird,bird,0,0188_ske_dnn_0_bird_00_bird-1721-sketch-46.png,bird-1721-sketch-46.png,1.0,0.445061,-1.9863108,1.7192396
alexnet_w3_mlp_simclrhn_probe1,1,189,NaN,bird,bird,0,0189_ske_dnn_0_bird_00_bird-1740-sketch-17.png,bird-1740-sketch-17.png,1.0,-1.4847921,-1.8078719,0.22845194
alexnet_w3_mlp_simclrhn_probe1,1,190,NaN,bird,bird,0,0190_ske_dnn_0_bird_00_bird-1749-sketch-25.png,bird-1749-sketch-25.png,1.0,-1.3768783,-1.4403077,0.04485141
alexnet_w3_mlp_simclrhn_probe1,1,191,NaN,clock,bird,0,0191_ske_dnn_0_bird_00_bird-1756-sketch-31.png,bird-1756-sketch-31.png,0.0,-2.5888999,-1.4850329,-0.7805518
alexnet_w3_mlp_simclrhn_probe1,1,192,NaN,bird,bird,0,0192_ske_dnn_0_bird_00_bird-1860-sketch-33.png,bird-1860-sketch-33.png,1.0,1.39637,-4.7179766,4.323496
alexnet_w3_mlp_simclrhn_probe1,1,193,NaN,bird,bird,0,0193_ske_dnn_0_bird_00_bird-1937-sketch-10.png,bird-1937-sketch-10.png,1.0,3.9911308,-7.213585,7.9229307
alexnet_w3_mlp_simclrhn_probe1,1,194,NaN,bird,bird,0,0194_ske_dnn_0_bird_00_bird-1948-sketch-20.png,bird-1948-sketch-20.png,1.0,-2.7295246,-2.7613277,0.02248821
alexnet_w3_mlp_simclrhn_probe1,1,195,NaN,bird,bird,0,0195_ske_dnn_0_bird_00_bird-2010-sketch-30.png,bird-2010-sketch-30.png,1.0,-2.813623,-4.7265425,1.3526384
alexnet_w3_mlp_simclrhn_probe1,1,196,NaN,bird,bird,0,0196_ske_dnn_0_bird_00_bird-2169-sketch-36.png,bird-2169-sketch-36.png,1.0,0.019275628,-2.6011467,1.8529185
alexnet_w3_mlp_simclrhn_probe1,1,197,NaN,bird,bird,0,0197_ske_dnn_0_bird_00_bird-2262-sketch-28.png,bird-2262-sketch-28.png,1.0,-1.6136575,-2.8573685,0.8794365
alexnet_w3_mlp_simclrhn_probe1,1,198,NaN,airplane,bird,0,0198_ske_dnn_0_bird_00_bird-2312-sketch-27.png,bird-2312-sketch-27.png,0.0,-2.673749,0.27450246,-2.0847287
alexnet_w3_mlp_simclrhn_probe1,1,199,NaN,knife,bird,0,0199_ske_dnn_0_bird_00_bird-2313-sketch-28.png,bird-2313-sketch-28.png,0.0,-5.5302324,-2.6009448,-2.071319
alexnet_w3_mlp_simclrhn_probe1,1,200,NaN,bird,bird,0,0200_ske_dnn_0_bird_00_bird-2372-sketch-36.png,bird-2372-sketch-36.png,1.0,-1.1055119,-2.655599,1.0960772
alexnet_w3_mlp_simclrhn_probe1,1,201,NaN,knife,boat,0,0201_ske_dnn_0_boat_00_boat-0001-sketch-0.png,boat-0001-sketch-0.png,0.0,-3.7109482,-2.3686,-0.94918364
alexnet_w3_mlp_simclrhn_probe1,1,202,NaN,boat,boat,0,0202_ske_dnn_0_boat_00_boat-0002-sketch-1.png,boat-0002-sketch-1.png,1.0,3.8868775,-1.1338631,3.5501997
alexnet_w3_mlp_simclrhn_probe1,1,203,NaN,knife,boat,0,0203_ske_dnn_0_boat_00_boat-0010-sketch-17.png,boat-0010-sketch-17.png,0.0,-3.1116595,-0.34733626,-1.9546717
alexnet_w3_mlp_simclrhn_probe1,1,204,NaN,bicycle,boat,0,0204_ske_dnn_0_boat_00_boat-0016-sketch-22.png,boat-0016-sketch-22.png,0.0,-4.1701775,-1.2906705,-2.036119
alexnet_w3_mlp_simclrhn_probe1,1,205,NaN,clock,boat,0,0205_ske_dnn_0_boat_00_boat-0029-sketch-34.png,boat-0029-sketch-34.png,0.0,-8.661113,1.2090708,-6.9792743
alexnet_w3_mlp_simclrhn_probe1,1,206,NaN,airplane,boat,0,0206_ske_dnn_0_boat_00_boat-0034-sketch-39.png,boat-0034-sketch-39.png,0.0,-3.0939078,0.33982033,-2.4280126
alexnet_w3_mlp_simclrhn_probe1,1,207,NaN,knife,boat,0,0207_ske_dnn_0_boat_00_boat-0036-sketch-40.png,boat-0036-sketch-40.png,0.0,-7.770404,0.905068,-6.1344852
alexnet_w3_mlp_simclrhn_probe1,1,208,NaN,knife,boat,0,0208_ske_dnn_0_boat_00_boat-0051-sketch-9.png,boat-0051-sketch-9.png,0.0,-6.187343,-0.62810105,-3.930978
alexnet_w3_mlp_simclrhn_probe1,1,209,NaN,boat,boat,0,0209_ske_dnn_0_boat_00_boat-0052-sketch-0.png,boat-0052-sketch-0.png,1.0,3.6900032,1.6888261,1.4150459
alexnet_w3_mlp_simclrhn_probe1,1,210,NaN,boat,boat,0,0210_ske_dnn_0_boat_00_boat-0059-sketch-15.png,boat-0059-sketch-15.png,1.0,1.8478836,-0.6038555,1.7336414
alexnet_w3_mlp_simclrhn_probe1,1,211,NaN,clock,boat,0,0211_ske_dnn_0_boat_00_boat-0064-sketch-2.png,boat-0064-sketch-2.png,0.0,-6.3563166,-1.3336492,-3.5515623
alexnet_w3_mlp_simclrhn_probe1,1,212,NaN,airplane,boat,0,0212_ske_dnn_0_boat_00_boat-0065-sketch-20.png,boat-0065-sketch-20.png,0.0,-0.22370324,2.0657554,-1.6188917
alexnet_w3_mlp_simclrhn_probe1,1,213,NaN,airplane,boat,0,0213_ske_dnn_0_boat_00_boat-0067-sketch-22.png,boat-0067-sketch-22.png,0.0,0.55609083,1.0118487,-0.32226947
alexnet_w3_mlp_simclrhn_probe1,1,214,NaN,clock,boat,0,0214_ske_dnn_0_boat_00_boat-0068-sketch-23.png,boat-0068-sketch-23.png,0.0,-4.2967725,2.036733,-4.478465
alexnet_w3_mlp_simclrhn_probe1,1,215,NaN,chair,boat,0,0215_ske_dnn_0_boat_00_boat-0070-sketch-25.png,boat-0070-sketch-25.png,0.0,-2.992164,0.03183943,-2.1382933
alexnet_w3_mlp_simclrhn_probe1,1,216,NaN,bicycle,boat,0,0216_ske_dnn_0_boat_00_boat-0074-sketch-29.png,boat-0074-sketch-29.png,0.0,-2.2633736,-0.66865635,-1.1276354
alexnet_w3_mlp_simclrhn_probe1,1,217,NaN,clock,boat,0,0217_ske_dnn_0_boat_00_boat-0079-sketch-33.png,boat-0079-sketch-33.png,0.0,-2.8095098,-0.58936244,-1.5698813
alexnet_w3_mlp_simclrhn_probe1,1,218,NaN,chair,boat,0,0218_ske_dnn_0_boat_00_boat-0080-sketch-34.png,boat-0080-sketch-34.png,0.0,-2.3237758,-0.20655823,-1.4970989
alexnet_w3_mlp_simclrhn_probe1,1,219,NaN,chair,boat,0,0219_ske_dnn_0_boat_00_boat-0085-sketch-39.png,boat-0085-sketch-39.png,0.0,-1.5344069,-0.22035904,-0.92917216
alexnet_w3_mlp_simclrhn_probe1,1,220,NaN,knife,boat,0,0220_ske_dnn_0_boat_00_boat-0088-sketch-41.png,boat-0088-sketch-41.png,0.0,-1.4583099,-1.1483194,-0.21919641
alexnet_w3_mlp_simclrhn_probe1,1,221,NaN,boat,boat,0,0221_ske_dnn_0_boat_00_boat-0094-sketch-47.png,boat-0094-sketch-47.png,1.0,4.346734,0.9319322,2.4146295
alexnet_w3_mlp_simclrhn_probe1,1,222,NaN,bicycle,boat,0,0222_ske_dnn_0_boat_00_boat-0099-sketch-6.png,boat-0099-sketch-6.png,0.0,-1.5101503,-0.47755146,-0.7301577
alexnet_w3_mlp_simclrhn_probe1,1,223,NaN,airplane,boat,0,0223_ske_dnn_0_boat_00_boat-0107-sketch-12.png,boat-0107-sketch-12.png,0.0,-1.71866,-0.21306449,-1.0646168
alexnet_w3_mlp_simclrhn_probe1,1,224,NaN,boat,boat,0,0224_ske_dnn_0_boat_00_boat-0108-sketch-13.png,boat-0108-sketch-13.png,1.0,0.04103873,-1.0608928,0.7791833
alexnet_w3_mlp_simclrhn_probe1,1,225,NaN,clock,boat,0,0225_ske_dnn_0_boat_00_boat-0110-sketch-15.png,boat-0110-sketch-15.png,0.0,-6.1340284,-0.92859155,-3.6807997
alexnet_w3_mlp_simclrhn_probe1,1,226,NaN,knife,boat,0,0226_ske_dnn_0_boat_00_boat-0113-sketch-18.png,boat-0113-sketch-18.png,0.0,-4.9306345,-2.5554597,-1.6795022
alexnet_w3_mlp_simclrhn_probe1,1,227,NaN,clock,boat,0,0227_ske_dnn_0_boat_00_boat-0115-sketch-2.png,boat-0115-sketch-2.png,0.0,-6.130371,-1.0701483,-3.5781178
alexnet_w3_mlp_simclrhn_probe1,1,228,NaN,bicycle,boat,0,0228_ske_dnn_0_boat_00_boat-0123-sketch-27.png,boat-0123-sketch-27.png,0.0,-1.9254568,0.16957584,-1.4814118
alexnet_w3_mlp_simclrhn_probe1,1,229,NaN,clock,boat,0,0229_ske_dnn_0_boat_00_boat-0124-sketch-28.png,boat-0124-sketch-28.png,0.0,-7.8736024,-0.31506643,-5.344692
alexnet_w3_mlp_simclrhn_probe1,1,230,NaN,clock,boat,0,0230_ske_dnn_0_boat_00_boat-0125-sketch-29.png,boat-0125-sketch-29.png,0.0,-10.111931,1.2708718,-8.048858
alexnet_w3_mlp_simclrhn_probe1,1,231,NaN,clock,boat,0,0231_ske_dnn_0_boat_00_boat-0126-sketch-3.png,boat-0126-sketch-3.png,0.0,-9.394655,0.9879263,-7.341594
alexnet_w3_mlp_simclrhn_probe1,1,232,NaN,clock,boat,0,0232_ske_dnn_0_boat_00_boat-0128-sketch-31.png,boat-0128-sketch-31.png,0.0,-8.997149,-2.6801653,-4.4667826
alexnet_w3_mlp_simclrhn_probe1,1,233,NaN,clock,boat,0,0233_ske_dnn_0_boat_00_boat-0130-sketch-33.png,boat-0130-sketch-33.png,0.0,-8.193947,-2.60211,-3.954026
alexnet_w3_mlp_simclrhn_probe1,1,234,NaN,oven,boat,0,0234_ske_dnn_0_boat_00_boat-0132-sketch-35.png,boat-0132-sketch-35.png,0.0,-5.697503,-1.7923714,-2.7613451
alexnet_w3_mlp_simclrhn_probe1,1,235,NaN,bicycle,boat,0,0235_ske_dnn_0_boat_00_boat-0146-sketch-48.png,boat-0146-sketch-48.png,0.0,-5.116711,-1.0840391,-2.8515296
alexnet_w3_mlp_simclrhn_probe1,1,236,NaN,airplane,boat,0,0236_ske_dnn_0_boat_00_boat-0152-sketch-8.png,boat-0152-sketch-8.png,0.0,-2.064402,0.596008,-1.8811941
alexnet_w3_mlp_simclrhn_probe1,1,237,NaN,airplane,boat,0,0237_ske_dnn_0_boat_00_boat-0165-sketch-19.png,boat-0165-sketch-19.png,0.0,-2.8894794,-1.6806843,-0.85474724
alexnet_w3_mlp_simclrhn_probe1,1,238,NaN,boat,boat,0,0238_ske_dnn_0_boat_00_boat-0166-sketch-2.png,boat-0166-sketch-2.png,1.0,-3.1909761,-4.676509,1.0504303
alexnet_w3_mlp_simclrhn_probe1,1,239,NaN,airplane,boat,0,0239_ske_dnn_0_boat_00_boat-0173-sketch-26.png,boat-0173-sketch-26.png,0.0,-1.1081349,1.8257306,-2.0745564
alexnet_w3_mlp_simclrhn_probe1,1,240,NaN,car,boat,0,0240_ske_dnn_0_boat_00_boat-0178-sketch-30.png,boat-0178-sketch-30.png,0.0,-5.42299,0.30041716,-4.04706
alexnet_w3_mlp_simclrhn_probe1,1,241,NaN,clock,boat,0,0241_ske_dnn_0_boat_00_boat-0180-sketch-32.png,boat-0180-sketch-32.png,0.0,-5.238074,-2.1520379,-2.182157
alexnet_w3_mlp_simclrhn_probe1,1,242,NaN,clock,boat,0,0242_ske_dnn_0_boat_00_boat-0194-sketch-45.png,boat-0194-sketch-45.png,0.0,-2.4636054,-0.76152354,-1.2035537
alexnet_w3_mlp_simclrhn_probe1,1,243,NaN,boat,boat,0,0243_ske_dnn_0_boat_00_boat-0197-sketch-48.png,boat-0197-sketch-48.png,1.0,-4.352143,-4.3864665,0.024270516
alexnet_w3_mlp_simclrhn_probe1,1,244,NaN,boat,boat,0,0244_ske_dnn_0_boat_00_boat-0212-sketch-15.png,boat-0212-sketch-15.png,1.0,-2.5984664,-3.7874138,0.8407128
alexnet_w3_mlp_simclrhn_probe1,1,245,NaN,chair,boat,0,0245_ske_dnn_0_boat_00_boat-0228-sketch-3.png,boat-0228-sketch-3.png,0.0,-8.56745,-1.2342424,-5.1853604
alexnet_w3_mlp_simclrhn_probe1,1,246,NaN,bicycle,boat,0,0246_ske_dnn_0_boat_00_boat-0233-sketch-34.png,boat-0233-sketch-34.png,0.0,-4.6159086,1.0649858,-4.016999
alexnet_w3_mlp_simclrhn_probe1,1,247,NaN,bicycle,boat,0,0247_ske_dnn_0_boat_00_boat-0234-sketch-35.png,boat-0234-sketch-35.png,0.0,-2.3810685,-1.57356,-0.57099473
alexnet_w3_mlp_simclrhn_probe1,1,248,NaN,clock,boat,0,0248_ske_dnn_0_boat_00_boat-0237-sketch-38.png,boat-0237-sketch-38.png,0.0,-2.651018,0.2856734,-2.0765543
alexnet_w3_mlp_simclrhn_probe1,1,249,NaN,boat,boat,0,0249_ske_dnn_0_boat_00_boat-0239-sketch-4.png,boat-0239-sketch-4.png,1.0,0.9446906,0.82739836,0.08293813
alexnet_w3_mlp_simclrhn_probe1,1,250,NaN,boat,boat,0,0250_ske_dnn_0_boat_00_boat-0253-sketch-7.png,boat-0253-sketch-7.png,1.0,-0.54447556,-1.0400515,0.3504251
alexnet_w3_mlp_simclrhn_probe1,1,251,NaN,bottle,bottle,0,0251_ske_dnn_0_bottle_00_bottle-0002-sketch-1.png,bottle-0002-sketch-1.png,1.0,2.8532908,-1.0658283,2.7712357
alexnet_w3_mlp_simclrhn_probe1,1,252,NaN,clock,bottle,0,0252_ske_dnn_0_bottle_00_bottle-0003-sketch-10.png,bottle-0003-sketch-10.png,0.0,-2.3295312,1.4727832,-2.6886423
alexnet_w3_mlp_simclrhn_probe1,1,253,NaN,clock,bottle,0,0253_ske_dnn_0_bottle_00_bottle-0019-sketch-25.png,bottle-0019-sketch-25.png,0.0,-1.9799143,3.9437408,-4.188657
alexnet_w3_mlp_simclrhn_probe1,1,254,NaN,bottle,bottle,0,0254_ske_dnn_0_bottle_00_bottle-0030-sketch-35.png,bottle-0030-sketch-35.png,1.0,5.4169517,3.0368826,1.682963
alexnet_w3_mlp_simclrhn_probe1,1,255,NaN,bottle,bottle,0,0255_ske_dnn_0_bottle_00_bottle-0031-sketch-36.png,bottle-0031-sketch-36.png,1.0,1.6424872,0.5402958,0.7793671
alexnet_w3_mlp_simclrhn_probe1,1,256,NaN,clock,bottle,0,0256_ske_dnn_0_bottle_00_bottle-0038-sketch-42.png,bottle-0038-sketch-42.png,0.0,-1.9850544,0.992551,-2.105485
alexnet_w3_mlp_simclrhn_probe1,1,257,NaN,bottle,bottle,0,0257_ske_dnn_0_bottle_00_bottle-0039-sketch-43.png,bottle-0039-sketch-43.png,1.0,7.356808,-4.135838,8.126528
alexnet_w3_mlp_simclrhn_probe1,1,258,NaN,clock,bottle,0,0258_ske_dnn_0_bottle_00_bottle-0041-sketch-45.png,bottle-0041-sketch-45.png,0.0,-2.686529,2.302091,-3.527487
alexnet_w3_mlp_simclrhn_probe1,1,259,NaN,clock,bottle,0,0259_ske_dnn_0_bottle_00_bottle-0045-sketch-49.png,bottle-0045-sketch-49.png,0.0,-0.2883751,1.2824887,-1.1107684
alexnet_w3_mlp_simclrhn_probe1,1,260,NaN,bottle,bottle,0,0260_ske_dnn_0_bottle_00_bottle-0050-sketch-9.png,bottle-0050-sketch-9.png,1.0,1.0049621,-1.4995542,1.7709603
alexnet_w3_mlp_simclrhn_probe1,1,261,NaN,bottle,bottle,0,0261_ske_dnn_0_bottle_00_bottle-0054-sketch-11.png,bottle-0054-sketch-11.png,1.0,2.5292065,0.8319047,1.2001737
alexnet_w3_mlp_simclrhn_probe1,1,262,NaN,bottle,bottle,0,0262_ske_dnn_0_bottle_00_bottle-0066-sketch-22.png,bottle-0066-sketch-22.png,1.0,2.9769661,1.1490378,1.2925406
alexnet_w3_mlp_simclrhn_probe1,1,263,NaN,clock,bottle,0,0263_ske_dnn_0_bottle_00_bottle-0071-sketch-27.png,bottle-0071-sketch-27.png,0.0,-2.6817176,0.5840815,-2.3092687
alexnet_w3_mlp_simclrhn_probe1,1,264,NaN,clock,bottle,0,0264_ske_dnn_0_bottle_00_bottle-0082-sketch-37.png,bottle-0082-sketch-37.png,0.0,-0.3301789,2.0593786,-1.6896725
alexnet_w3_mlp_simclrhn_probe1,1,265,NaN,bottle,bottle,0,0265_ske_dnn_0_bottle_00_bottle-0086-sketch-40.png,bottle-0086-sketch-40.png,1.0,3.6582847,0.32010585,2.360449
alexnet_w3_mlp_simclrhn_probe1,1,266,NaN,bottle,bottle,0,0266_ske_dnn_0_bottle_00_bottle-0090-sketch-44.png,bottle-0090-sketch-44.png,1.0,2.47978,0.37763175,1.4864433
alexnet_w3_mlp_simclrhn_probe1,1,267,NaN,clock,bottle,0,0267_ske_dnn_0_bottle_00_bottle-0097-sketch-50.png,bottle-0097-sketch-50.png,0.0,-2.0315373,0.17577298,-1.560804
alexnet_w3_mlp_simclrhn_probe1,1,268,NaN,bicycle,bottle,0,0268_ske_dnn_0_bottle_00_bottle-0107-sketch-13.png,bottle-0107-sketch-13.png,0.0,-7.1686664,2.860666,-7.091809
alexnet_w3_mlp_simclrhn_probe1,1,269,NaN,bicycle,bottle,0,0269_ske_dnn_0_bottle_00_bottle-0114-sketch-2.png,bottle-0114-sketch-2.png,0.0,-4.0288644,-1.0653648,-2.0955107
alexnet_w3_mlp_simclrhn_probe1,1,270,NaN,knife,bottle,0,0270_ske_dnn_0_bottle_00_bottle-0126-sketch-30.png,bottle-0126-sketch-30.png,0.0,-1.9809932,-0.4520429,-1.0811311
alexnet_w3_mlp_simclrhn_probe1,1,271,NaN,bottle,bottle,0,0271_ske_dnn_0_bottle_00_bottle-0130-sketch-34.png,bottle-0130-sketch-34.png,1.0,3.6972618,1.8483902,1.3073497
alexnet_w3_mlp_simclrhn_probe1,1,272,NaN,knife,bottle,0,0272_ske_dnn_0_bottle_00_bottle-0131-sketch-35.png,bottle-0131-sketch-35.png,0.0,-4.2791686,-2.7892075,-1.0535617
alexnet_w3_mlp_simclrhn_probe1,1,273,NaN,clock,bottle,0,0273_ske_dnn_0_bottle_00_bottle-0133-sketch-37.png,bottle-0133-sketch-37.png,0.0,-5.292163,0.12469908,-3.8302999
alexnet_w3_mlp_simclrhn_probe1,1,274,NaN,bottle,bottle,0,0274_ske_dnn_0_bottle_00_bottle-0135-sketch-39.png,bottle-0135-sketch-39.png,1.0,-1.8777369,-2.2001073,0.2279503
alexnet_w3_mlp_simclrhn_probe1,1,275,NaN,keyboard,bottle,0,0275_ske_dnn_0_bottle_00_bottle-0143-sketch-46.png,bottle-0143-sketch-46.png,0.0,-2.1059194,1.6107025,-2.6280487
alexnet_w3_mlp_simclrhn_probe1,1,276,NaN,bottle,bottle,0,0276_ske_dnn_0_bottle_00_bottle-0145-sketch-48.png,bottle-0145-sketch-48.png,1.0,-0.09420799,-0.31546083,0.15644939
alexnet_w3_mlp_simclrhn_probe1,1,277,NaN,clock,bottle,0,0277_ske_dnn_0_bottle_00_bottle-0150-sketch-7.png,bottle-0150-sketch-7.png,0.0,1.6442959,1.8202139,-0.1243928
alexnet_w3_mlp_simclrhn_probe1,1,278,NaN,clock,bottle,0,0278_ske_dnn_0_bottle_00_bottle-0162-sketch-17.png,bottle-0162-sketch-17.png,0.0,-0.17310277,0.287318,-0.32556665
alexnet_w3_mlp_simclrhn_probe1,1,279,NaN,clock,bottle,0,0279_ske_dnn_0_bottle_00_bottle-0165-sketch-2.png,bottle-0165-sketch-2.png,0.0,-0.17859085,1.5456814,-1.2192446
alexnet_w3_mlp_simclrhn_probe1,1,280,NaN,clock,bottle,0,0280_ske_dnn_0_bottle_00_bottle-0184-sketch-37.png,bottle-0184-sketch-37.png,0.0,-0.03312719,0.34877083,-0.2700427
alexnet_w3_mlp_simclrhn_probe1,1,281,NaN,clock,bottle,0,0281_ske_dnn_0_bottle_00_bottle-0185-sketch-38.png,bottle-0185-sketch-38.png,0.0,0.2129051,1.6335095,-1.0045191
alexnet_w3_mlp_simclrhn_probe1,1,282,NaN,bottle,bottle,0,0282_ske_dnn_0_bottle_00_bottle-0189-sketch-41.png,bottle-0189-sketch-41.png,1.0,-1.3121122,-2.4337373,0.7931087
alexnet_w3_mlp_simclrhn_probe1,1,283,NaN,bottle,bottle,0,0283_ske_dnn_0_bottle_00_bottle-0202-sketch-8.png,bottle-0202-sketch-8.png,1.0,-0.21586347,-0.9749711,0.53677016
alexnet_w3_mlp_simclrhn_probe1,1,284,NaN,clock,bottle,0,0284_ske_dnn_0_bottle_00_bottle-0207-sketch-11.png,bottle-0207-sketch-11.png,0.0,2.595351,3.264431,-0.47311103
alexnet_w3_mlp_simclrhn_probe1,1,285,NaN,clock,bottle,0,0285_ske_dnn_0_bottle_00_bottle-0215-sketch-19.png,bottle-0215-sketch-19.png,0.0,-2.5030973,1.9975771,-3.1824574
alexnet_w3_mlp_simclrhn_probe1,1,286,NaN,clock,bottle,0,0286_ske_dnn_0_bottle_00_bottle-0217-sketch-20.png,bottle-0217-sketch-20.png,0.0,-3.6628706,2.877634,-4.624835
alexnet_w3_mlp_simclrhn_probe1,1,287,NaN,knife,bottle,0,0287_ske_dnn_0_bottle_00_bottle-0237-sketch-39.png,bottle-0237-sketch-39.png,0.0,-1.8414396,1.1360544,-2.1054063
alexnet_w3_mlp_simclrhn_probe1,1,288,NaN,clock,bottle,0,0288_ske_dnn_0_bottle_00_bottle-0243-sketch-44.png,bottle-0243-sketch-44.png,0.0,-1.1990545,-0.34576428,-0.60336727
alexnet_w3_mlp_simclrhn_probe1,1,289,NaN,bottle,bottle,0,0289_ske_dnn_0_bottle_00_bottle-0245-sketch-46.png,bottle-0245-sketch-46.png,1.0,1.0225825,-2.0475698,2.1709256
alexnet_w3_mlp_simclrhn_probe1,1,290,NaN,bottle,bottle,0,0290_ske_dnn_0_bottle_00_bottle-0268-sketch-20.png,bottle-0268-sketch-20.png,1.0,4.040874,-0.4832831,3.199062
alexnet_w3_mlp_simclrhn_probe1,1,291,NaN,clock,bottle,0,0291_ske_dnn_0_bottle_00_bottle-0280-sketch-31.png,bottle-0280-sketch-31.png,0.0,1.3351917,2.1720011,-0.5917136
alexnet_w3_mlp_simclrhn_probe1,1,292,NaN,bottle,bottle,0,0292_ske_dnn_0_bottle_00_bottle-0292-sketch-42.png,bottle-0292-sketch-42.png,1.0,4.4157896,0.9386999,2.4586737
alexnet_w3_mlp_simclrhn_probe1,1,293,NaN,bottle,bottle,0,0293_ske_dnn_0_bottle_00_bottle-0294-sketch-44.png,bottle-0294-sketch-44.png,1.0,-0.3764414,-2.4820654,1.488901
alexnet_w3_mlp_simclrhn_probe1,1,294,NaN,clock,bottle,0,0294_ske_dnn_0_bottle_00_bottle-0296-sketch-46.png,bottle-0296-sketch-46.png,0.0,-0.42262432,1.4884287,-1.3513186
alexnet_w3_mlp_simclrhn_probe1,1,295,NaN,bottle,bottle,0,0295_ske_dnn_0_bottle_00_bottle-0301-sketch-50.png,bottle-0301-sketch-50.png,1.0,1.3951833,-1.1133796,1.773822
alexnet_w3_mlp_simclrhn_probe1,1,296,NaN,bottle,bottle,0,0296_ske_dnn_0_bottle_00_bottle-0305-sketch-9.png,bottle-0305-sketch-9.png,1.0,1.154995,-1.935004,2.1849592
alexnet_w3_mlp_simclrhn_probe1,1,297,NaN,bottle,bottle,0,0297_ske_dnn_0_bottle_00_bottle-0313-sketch-15.png,bottle-0313-sketch-15.png,1.0,1.4513493,-1.4741356,2.0686302
alexnet_w3_mlp_simclrhn_probe1,1,298,NaN,bottle,bottle,0,0298_ske_dnn_0_bottle_00_bottle-0321-sketch-22.png,bottle-0321-sketch-22.png,1.0,3.7966464,-2.6553142,4.5622253
alexnet_w3_mlp_simclrhn_probe1,1,299,NaN,bottle,bottle,0,0299_ske_dnn_0_bottle_00_bottle-0330-sketch-30.png,bottle-0330-sketch-30.png,1.0,3.6351628,-3.1266396,4.7813168
alexnet_w3_mlp_simclrhn_probe1,1,300,NaN,bottle,bottle,0,0300_ske_dnn_0_bottle_00_bottle-0338-sketch-38.png,bottle-0338-sketch-38.png,1.0,0.57994527,-2.2817526,2.023526
alexnet_w3_mlp_simclrhn_probe1,1,301,NaN,truck,car,0,0301_ske_dnn_0_car_00_car-0002-sketch-1.png,car-0002-sketch-1.png,0.0,1.293467,2.5721617,-0.9041737
alexnet_w3_mlp_simclrhn_probe1,1,302,NaN,car,car,0,0302_ske_dnn_0_car_00_car-0004-sketch-11.png,car-0004-sketch-11.png,1.0,0.82440716,0.47596523,0.24638565
alexnet_w3_mlp_simclrhn_probe1,1,303,NaN,truck,car,0,0303_ske_dnn_0_car_00_car-0005-sketch-12.png,car-0005-sketch-12.png,0.0,0.49690315,1.6838331,-0.8392862
alexnet_w3_mlp_simclrhn_probe1,1,304,NaN,car,car,0,0304_ske_dnn_0_car_00_car-0009-sketch-16.png,car-0009-sketch-16.png,1.0,1.958371,0.5799923,0.974661
alexnet_w3_mlp_simclrhn_probe1,1,305,NaN,car,car,0,0305_ske_dnn_0_car_00_car-0013-sketch-2.png,car-0013-sketch-2.png,1.0,0.9581372,-0.46272916,1.0047042
alexnet_w3_mlp_simclrhn_probe1,1,306,NaN,car,car,0,0306_ske_dnn_0_car_00_car-0014-sketch-20.png,car-0014-sketch-20.png,1.0,0.10060159,-0.40810356,0.35970885
alexnet_w3_mlp_simclrhn_probe1,1,307,NaN,knife,car,0,0307_ske_dnn_0_car_00_car-0017-sketch-23.png,car-0017-sketch-23.png,0.0,-4.0116296,-2.0076637,-1.4170178
alexnet_w3_mlp_simclrhn_probe1,1,308,NaN,oven,car,0,0308_ske_dnn_0_car_00_car-0018-sketch-24.png,car-0018-sketch-24.png,0.0,0.20739295,0.5054919,-0.21078782
alexnet_w3_mlp_simclrhn_probe1,1,309,NaN,clock,car,0,0309_ske_dnn_0_car_00_car-0021-sketch-27.png,car-0021-sketch-27.png,0.0,-4.222712,0.32372043,-3.2148132
alexnet_w3_mlp_simclrhn_probe1,1,310,NaN,clock,car,0,0310_ske_dnn_0_car_00_car-0022-sketch-28.png,car-0022-sketch-28.png,0.0,-2.3228347,-0.14580828,-1.5393902
alexnet_w3_mlp_simclrhn_probe1,1,311,NaN,car,car,0,0311_ske_dnn_0_car_00_car-0024-sketch-3.png,car-0024-sketch-3.png,1.0,14.409741,8.323801,4.3034096
alexnet_w3_mlp_simclrhn_probe1,1,312,NaN,clock,car,0,0312_ske_dnn_0_car_00_car-0025-sketch-30.png,car-0025-sketch-30.png,0.0,-7.3455215,2.2011163,-6.750492
alexnet_w3_mlp_simclrhn_probe1,1,313,NaN,knife,car,0,0313_ske_dnn_0_car_00_car-0029-sketch-34.png,car-0029-sketch-34.png,0.0,-3.9057217,-1.9338459,-1.3943268
alexnet_w3_mlp_simclrhn_probe1,1,314,NaN,car,car,0,0314_ske_dnn_0_car_00_car-0030-sketch-35.png,car-0030-sketch-35.png,1.0,0.428695,0.25881678,0.12012204
alexnet_w3_mlp_simclrhn_probe1,1,315,NaN,knife,car,0,0315_ske_dnn_0_car_00_car-0032-sketch-37.png,car-0032-sketch-37.png,0.0,-3.9132397,-0.13987145,-2.6681745
alexnet_w3_mlp_simclrhn_probe1,1,316,NaN,clock,car,0,0316_ske_dnn_0_car_00_car-0034-sketch-39.png,car-0034-sketch-39.png,0.0,-1.6147532,-0.11488267,-1.0605687
alexnet_w3_mlp_simclrhn_probe1,1,317,NaN,car,car,0,0317_ske_dnn_0_car_00_car-0040-sketch-44.png,car-0040-sketch-44.png,1.0,0.48238608,-0.15957344,0.45393395
alexnet_w3_mlp_simclrhn_probe1,1,318,NaN,car,car,0,0318_ske_dnn_0_car_00_car-0043-sketch-47.png,car-0043-sketch-47.png,1.0,14.409741,8.323801,4.3034096
alexnet_w3_mlp_simclrhn_probe1,1,319,NaN,car,car,0,0319_ske_dnn_0_car_00_car-0044-sketch-48.png,car-0044-sketch-48.png,1.0,7.137113,2.407288,3.3444915
alexnet_w3_mlp_simclrhn_probe1,1,320,NaN,car,car,0,0320_ske_dnn_0_car_00_car-0045-sketch-49.png,car-0045-sketch-49.png,1.0,2.1886606,1.7184327,0.33250138
alexnet_w3_mlp_simclrhn_probe1,1,321,NaN,car,car,0,0321_ske_dnn_0_car_00_car-0047-sketch-50.png,car-0047-sketch-50.png,1.0,0.5413502,-0.039557576,0.41076383
alexnet_w3_mlp_simclrhn_probe1,1,322,NaN,clock,car,0,0322_ske_dnn_0_car_00_car-0050-sketch-8.png,car-0050-sketch-8.png,0.0,-4.9950976,3.3567474,-5.9056463
alexnet_w3_mlp_simclrhn_probe1,1,323,NaN,car,car,0,0323_ske_dnn_0_car_00_car-0052-sketch-0.png,car-0052-sketch-0.png,1.0,-0.27683958,-0.6173472,0.24077523
alexnet_w3_mlp_simclrhn_probe1,1,324,NaN,car,car,0,0324_ske_dnn_0_car_00_car-0055-sketch-11.png,car-0055-sketch-11.png,1.0,5.8991523,2.2477653,2.5819206
alexnet_w3_mlp_simclrhn_probe1,1,325,NaN,bicycle,car,0,0325_ske_dnn_0_car_00_car-0064-sketch-2.png,car-0064-sketch-2.png,0.0,-0.0013577044,1.7395107,-1.2309798
alexnet_w3_mlp_simclrhn_probe1,1,326,NaN,car,car,0,0326_ske_dnn_0_car_00_car-0069-sketch-24.png,car-0069-sketch-24.png,1.0,3.1253722,2.6827571,0.3129761
alexnet_w3_mlp_simclrhn_probe1,1,327,NaN,car,car,0,0327_ske_dnn_0_car_00_car-0076-sketch-30.png,car-0076-sketch-30.png,1.0,1.9778137,-0.79960966,1.9639349
alexnet_w3_mlp_simclrhn_probe1,1,328,NaN,airplane,car,0,0328_ske_dnn_0_car_00_car-0079-sketch-33.png,car-0079-sketch-33.png,0.0,-3.9336662,-0.9456588,-2.1128404
alexnet_w3_mlp_simclrhn_probe1,1,329,NaN,clock,car,0,0329_ske_dnn_0_car_00_car-0083-sketch-37.png,car-0083-sketch-37.png,0.0,-1.2138214,0.66254765,-1.3267933
alexnet_w3_mlp_simclrhn_probe1,1,330,NaN,bicycle,car,0,0330_ske_dnn_0_car_00_car-0092-sketch-45.png,car-0092-sketch-45.png,0.0,-3.3120632,1.0033681,-3.051471
alexnet_w3_mlp_simclrhn_probe1,1,331,NaN,car,car,0,0331_ske_dnn_0_car_00_car-0096-sketch-49.png,car-0096-sketch-49.png,1.0,8.367133,3.3520174,3.5462224
alexnet_w3_mlp_simclrhn_probe1,1,332,NaN,clock,car,0,0332_ske_dnn_0_car_00_car-0098-sketch-50.png,car-0098-sketch-50.png,0.0,-0.31493005,0.9059546,-0.86329585
alexnet_w3_mlp_simclrhn_probe1,1,333,NaN,car,car,0,0333_ske_dnn_0_car_00_car-0100-sketch-7.png,car-0100-sketch-7.png,1.0,5.308191,3.4354134,1.3242537
alexnet_w3_mlp_simclrhn_probe1,1,334,NaN,car,car,0,0334_ske_dnn_0_car_00_car-0112-sketch-17.png,car-0112-sketch-17.png,1.0,6.473251,1.6183481,3.4329348
alexnet_w3_mlp_simclrhn_probe1,1,335,NaN,car,car,0,0335_ske_dnn_0_car_00_car-0114-sketch-19.png,car-0114-sketch-19.png,1.0,0.7056835,0.4582294,0.1749765
alexnet_w3_mlp_simclrhn_probe1,1,336,NaN,car,car,0,0336_ske_dnn_0_car_00_car-0116-sketch-20.png,car-0116-sketch-20.png,1.0,5.1446652,0.8579962,3.0311327
alexnet_w3_mlp_simclrhn_probe1,1,337,NaN,car,car,0,0337_ske_dnn_0_car_00_car-0117-sketch-21.png,car-0117-sketch-21.png,1.0,0.9577654,0.9291443,0.02023816
alexnet_w3_mlp_simclrhn_probe1,1,338,NaN,car,car,0,0338_ske_dnn_0_car_00_car-0120-sketch-24.png,car-0120-sketch-24.png,1.0,4.6233687,1.1970695,2.4227593
alexnet_w3_mlp_simclrhn_probe1,1,339,NaN,clock,car,0,0339_ske_dnn_0_car_00_car-0122-sketch-26.png,car-0122-sketch-26.png,0.0,1.3288647,4.6868196,-2.3744328
alexnet_w3_mlp_simclrhn_probe1,1,340,NaN,clock,car,0,0340_ske_dnn_0_car_00_car-0124-sketch-28.png,car-0124-sketch-28.png,0.0,-2.090627,1.4173388,-2.4805064
alexnet_w3_mlp_simclrhn_probe1,1,341,NaN,car,car,0,0341_ske_dnn_0_car_00_car-0125-sketch-29.png,car-0125-sketch-29.png,1.0,1.6629604,-0.96245223,1.8564471
alexnet_w3_mlp_simclrhn_probe1,1,342,NaN,clock,car,0,0342_ske_dnn_0_car_00_car-0129-sketch-32.png,car-0129-sketch-32.png,0.0,-0.84576875,1.6595119,-1.7715011
alexnet_w3_mlp_simclrhn_probe1,1,343,NaN,car,car,0,0343_ske_dnn_0_car_00_car-0132-sketch-35.png,car-0132-sketch-35.png,1.0,7.7622733,2.497272,3.7229183
alexnet_w3_mlp_simclrhn_probe1,1,344,NaN,clock,car,0,0344_ske_dnn_0_car_00_car-0136-sketch-39.png,car-0136-sketch-39.png,0.0,-6.0707073,-0.048831284,-4.258109
alexnet_w3_mlp_simclrhn_probe1,1,345,NaN,car,car,0,0345_ske_dnn_0_car_00_car-0138-sketch-40.png,car-0138-sketch-40.png,1.0,4.7405944,0.46891508,3.0205336
alexnet_w3_mlp_simclrhn_probe1,1,346,NaN,car,car,0,0346_ske_dnn_0_car_00_car-0139-sketch-41.png,car-0139-sketch-41.png,1.0,5.4977875,1.5305943,2.8052292
alexnet_w3_mlp_simclrhn_probe1,1,347,NaN,clock,car,0,0347_ske_dnn_0_car_00_car-0143-sketch-45.png,car-0143-sketch-45.png,0.0,0.09279486,1.1148953,-0.72273415
alexnet_w3_mlp_simclrhn_probe1,1,348,NaN,car,car,0,0348_ske_dnn_0_car_00_car-0145-sketch-47.png,car-0145-sketch-47.png,1.0,-1.0577078,-1.6820902,0.441505
alexnet_w3_mlp_simclrhn_probe1,1,349,NaN,car,car,0,0349_ske_dnn_0_car_00_car-0151-sketch-7.png,car-0151-sketch-7.png,1.0,7.0444417,2.9577456,2.8897307
alexnet_w3_mlp_simclrhn_probe1,1,350,NaN,clock,car,0,0350_ske_dnn_0_car_00_car-0153-sketch-9.png,car-0153-sketch-9.png,0.0,-1.4195503,0.4685497,-1.3350884
alexnet_w3_mlp_simclrhn_probe1,1,351,NaN,cat,cat,0,0351_ske_dnn_0_cat_00_cat-0002-sketch-1.png,cat-0002-sketch-1.png,1.0,10.790245,-4.887542,11.08587
alexnet_w3_mlp_simclrhn_probe1,1,352,NaN,cat,cat,0,0352_ske_dnn_0_cat_00_cat-0009-sketch-16.png,cat-0009-sketch-16.png,1.0,4.079516,-2.8015983,4.8656826
alexnet_w3_mlp_simclrhn_probe1,1,353,NaN,clock,cat,0,0353_ske_dnn_0_cat_00_cat-0011-sketch-18.png,cat-0011-sketch-18.png,0.0,-2.625306,-2.2383962,-0.27358648
alexnet_w3_mlp_simclrhn_probe1,1,354,NaN,cat,cat,0,0354_ske_dnn_0_cat_00_cat-0015-sketch-21.png,cat-0015-sketch-21.png,1.0,6.403897,-4.0751796,7.4098263
alexnet_w3_mlp_simclrhn_probe1,1,355,NaN,cat,cat,0,0355_ske_dnn_0_cat_00_cat-0016-sketch-22.png,cat-0016-sketch-22.png,1.0,8.902027,-3.4581208,8.739944
alexnet_w3_mlp_simclrhn_probe1,1,356,NaN,cat,cat,0,0356_ske_dnn_0_cat_00_cat-0021-sketch-27.png,cat-0021-sketch-27.png,1.0,4.246265,-5.2540817,6.71776
alexnet_w3_mlp_simclrhn_probe1,1,357,NaN,cat,cat,0,0357_ske_dnn_0_cat_00_cat-0027-sketch-32.png,cat-0027-sketch-32.png,1.0,3.9913332,-3.6983113,5.4374
alexnet_w3_mlp_simclrhn_probe1,1,358,NaN,cat,cat,0,0358_ske_dnn_0_cat_00_cat-0042-sketch-46.png,cat-0042-sketch-46.png,1.0,4.047281,-5.763657,6.937381
alexnet_w3_mlp_simclrhn_probe1,1,359,NaN,cat,cat,0,0359_ske_dnn_0_cat_00_cat-0043-sketch-47.png,cat-0043-sketch-47.png,1.0,3.2018826,-1.5969083,3.3932576
alexnet_w3_mlp_simclrhn_probe1,1,360,NaN,cat,cat,0,0360_ske_dnn_0_cat_00_cat-0044-sketch-48.png,cat-0044-sketch-48.png,1.0,3.7924736,-1.7014607,3.884798
alexnet_w3_mlp_simclrhn_probe1,1,361,NaN,cat,cat,0,0361_ske_dnn_0_cat_00_cat-0048-sketch-7.png,cat-0048-sketch-7.png,1.0,5.169754,-4.5185475,6.8506637
alexnet_w3_mlp_simclrhn_probe1,1,362,NaN,cat,cat,0,0362_ske_dnn_0_cat_00_cat-0052-sketch-1.png,cat-0052-sketch-1.png,1.0,9.553734,-5.3045726,10.50641
alexnet_w3_mlp_simclrhn_probe1,1,363,NaN,clock,cat,0,0363_ske_dnn_0_cat_00_cat-0053-sketch-10.png,cat-0053-sketch-10.png,0.0,-5.160739,-0.34458828,-3.4055328
alexnet_w3_mlp_simclrhn_probe1,1,364,NaN,bottle,cat,0,0364_ske_dnn_0_cat_00_cat-0059-sketch-16.png,cat-0059-sketch-16.png,0.0,-2.2804089,-1.9664181,-0.22202496
alexnet_w3_mlp_simclrhn_probe1,1,365,NaN,cat,cat,0,0365_ske_dnn_0_cat_00_cat-0062-sketch-19.png,cat-0062-sketch-19.png,1.0,-4.338076,-4.476529,0.09790106
alexnet_w3_mlp_simclrhn_probe1,1,366,NaN,cat,cat,0,0366_ske_dnn_0_cat_00_cat-0067-sketch-23.png,cat-0067-sketch-23.png,1.0,0.9143192,-2.2647603,2.2479486
alexnet_w3_mlp_simclrhn_probe1,1,367,NaN,knife,cat,0,0367_ske_dnn_0_cat_00_cat-0073-sketch-29.png,cat-0073-sketch-29.png,0.0,-3.8562624,-3.065742,-0.5589824
alexnet_w3_mlp_simclrhn_probe1,1,368,NaN,cat,cat,0,0368_ske_dnn_0_cat_00_cat-0082-sketch-37.png,cat-0082-sketch-37.png,1.0,-1.8879213,-3.3412204,1.0276376
alexnet_w3_mlp_simclrhn_probe1,1,369,NaN,cat,cat,0,0369_ske_dnn_0_cat_00_cat-0085-sketch-4.png,cat-0085-sketch-4.png,1.0,2.1116745,-4.0605464,4.3644195
alexnet_w3_mlp_simclrhn_probe1,1,370,NaN,cat,cat,0,0370_ske_dnn_0_cat_00_cat-0090-sketch-44.png,cat-0090-sketch-44.png,1.0,1.6179079,-4.4482594,4.289428
alexnet_w3_mlp_simclrhn_probe1,1,371,NaN,cat,cat,0,0371_ske_dnn_0_cat_00_cat-0104-sketch-10.png,cat-0104-sketch-10.png,1.0,-1.771871,-2.5737433,0.5670094
alexnet_w3_mlp_simclrhn_probe1,1,372,NaN,cat,cat,0,0372_ske_dnn_0_cat_00_cat-0124-sketch-29.png,cat-0124-sketch-29.png,1.0,-4.73855,-7.2954936,1.808032
alexnet_w3_mlp_simclrhn_probe1,1,373,NaN,cat,cat,0,0373_ske_dnn_0_cat_00_cat-0128-sketch-32.png,cat-0128-sketch-32.png,1.0,5.1242185,-1.7000804,4.825508
alexnet_w3_mlp_simclrhn_probe1,1,374,NaN,cat,cat,0,0374_ske_dnn_0_cat_00_cat-0134-sketch-38.png,cat-0134-sketch-38.png,1.0,-0.22074284,-1.4028945,0.83590746
alexnet_w3_mlp_simclrhn_probe1,1,375,NaN,cat,cat,0,0375_ske_dnn_0_cat_00_cat-0140-sketch-43.png,cat-0140-sketch-43.png,1.0,3.8410776,-3.0781796,4.892654
alexnet_w3_mlp_simclrhn_probe1,1,376,NaN,cat,cat,0,0376_ske_dnn_0_cat_00_cat-0149-sketch-6.png,cat-0149-sketch-6.png,1.0,0.9320059,-3.7604914,3.3180966
alexnet_w3_mlp_simclrhn_probe1,1,377,NaN,cat,cat,0,0377_ske_dnn_0_cat_00_cat-0150-sketch-7.png,cat-0150-sketch-7.png,1.0,2.9944003,-6.791211,6.919472
alexnet_w3_mlp_simclrhn_probe1,1,378,NaN,clock,cat,0,0378_ske_dnn_0_cat_00_cat-0152-sketch-9.png,cat-0152-sketch-9.png,0.0,-3.291977,-2.368735,-0.6528306
alexnet_w3_mlp_simclrhn_probe1,1,379,NaN,chair,cat,0,0379_ske_dnn_0_cat_00_cat-0158-sketch-13.png,cat-0158-sketch-13.png,0.0,-8.226524,-1.6824886,-4.627332
alexnet_w3_mlp_simclrhn_probe1,1,380,NaN,cat,cat,0,0380_ske_dnn_0_cat_00_cat-0160-sketch-15.png,cat-0160-sketch-15.png,1.0,1.1107804,-1.3616616,1.7482805
alexnet_w3_mlp_simclrhn_probe1,1,381,NaN,cat,cat,0,0381_ske_dnn_0_cat_00_cat-0175-sketch-29.png,cat-0175-sketch-29.png,1.0,1.3559766,-2.7603085,2.9106534
alexnet_w3_mlp_simclrhn_probe1,1,382,NaN,clock,cat,0,0382_ske_dnn_0_cat_00_cat-0207-sketch-11.png,cat-0207-sketch-11.png,0.0,-11.673489,0.61013585,-8.685835
alexnet_w3_mlp_simclrhn_probe1,1,383,NaN,clock,cat,0,0383_ske_dnn_0_cat_00_cat-0229-sketch-31.png,cat-0229-sketch-31.png,0.0,-7.7102036,-0.7747206,-4.904127
alexnet_w3_mlp_simclrhn_probe1,1,384,NaN,clock,cat,0,0384_ske_dnn_0_cat_00_cat-0233-sketch-35.png,cat-0233-sketch-35.png,0.0,-11.673489,0.61013585,-8.685835
alexnet_w3_mlp_simclrhn_probe1,1,385,NaN,clock,cat,0,0385_ske_dnn_0_cat_00_cat-0241-sketch-42.png,cat-0241-sketch-42.png,0.0,-11.759,-0.033251762,-8.291356
alexnet_w3_mlp_simclrhn_probe1,1,386,NaN,clock,cat,0,0386_ske_dnn_0_cat_00_cat-0245-sketch-46.png,cat-0245-sketch-46.png,0.0,-7.1724305,-0.8456548,-4.473706
alexnet_w3_mlp_simclrhn_probe1,1,387,NaN,clock,cat,0,0387_ske_dnn_0_cat_00_cat-0250-sketch-50.png,cat-0250-sketch-50.png,0.0,-11.743321,0.19209449,-8.439614
alexnet_w3_mlp_simclrhn_probe1,1,388,NaN,clock,cat,0,0388_ske_dnn_0_cat_00_cat-0251-sketch-6.png,cat-0251-sketch-6.png,0.0,-11.759,-0.033251762,-8.291356
alexnet_w3_mlp_simclrhn_probe1,1,389,NaN,cat,cat,0,0389_ske_dnn_0_cat_00_cat-0258-sketch-11.png,cat-0258-sketch-11.png,1.0,10.349429,-2.6821983,9.214752
alexnet_w3_mlp_simclrhn_probe1,1,390,NaN,bicycle,cat,0,0390_ske_dnn_0_cat_00_cat-0260-sketch-13.png,cat-0260-sketch-13.png,0.0,-11.3713875,-0.19697137,-7.901506
alexnet_w3_mlp_simclrhn_probe1,1,391,NaN,elephant,cat,0,0391_ske_dnn_0_cat_00_cat-0264-sketch-17.png,cat-0264-sketch-17.png,0.0,-4.071665,-2.7049007,-0.9664481
alexnet_w3_mlp_simclrhn_probe1,1,392,NaN,cat,cat,0,0392_ske_dnn_0_cat_00_cat-0265-sketch-18.png,cat-0265-sketch-18.png,1.0,1.3763877,-1.2667291,1.868966
alexnet_w3_mlp_simclrhn_probe1,1,393,NaN,dog,cat,0,0393_ske_dnn_0_cat_00_cat-0269-sketch-21.png,cat-0269-sketch-21.png,0.0,-2.840966,-1.3318232,-1.0671251
alexnet_w3_mlp_simclrhn_probe1,1,394,NaN,cat,cat,0,0394_ske_dnn_0_cat_00_cat-0274-sketch-26.png,cat-0274-sketch-26.png,1.0,2.2338,-2.966159,3.6769261
alexnet_w3_mlp_simclrhn_probe1,1,395,NaN,cat,cat,0,0395_ske_dnn_0_cat_00_cat-0279-sketch-30.png,cat-0279-sketch-30.png,1.0,-0.8633148,-1.4583201,0.42073232
alexnet_w3_mlp_simclrhn_probe1,1,396,NaN,cat,cat,0,0396_ske_dnn_0_cat_00_cat-0289-sketch-4.png,cat-0289-sketch-4.png,1.0,-2.0912497,-2.7197747,0.44443431
alexnet_w3_mlp_simclrhn_probe1,1,397,NaN,cat,cat,0,0397_ske_dnn_0_cat_00_cat-0293-sketch-43.png,cat-0293-sketch-43.png,1.0,5.43945,-2.2860618,5.462762
alexnet_w3_mlp_simclrhn_probe1,1,398,NaN,cat,cat,0,0398_ske_dnn_0_cat_00_cat-0295-sketch-45.png,cat-0295-sketch-45.png,1.0,9.699323,-4.6513147,10.147433
alexnet_w3_mlp_simclrhn_probe1,1,399,NaN,cat,cat,0,0399_ske_dnn_0_cat_00_cat-0302-sketch-6.png,cat-0302-sketch-6.png,1.0,2.0785923,-3.1705356,3.711694
alexnet_w3_mlp_simclrhn_probe1,1,400,NaN,cat,cat,0,0400_ske_dnn_0_cat_00_cat-0304-sketch-8.png,cat-0304-sketch-8.png,1.0,7.4722915,-3.578725,7.814249
alexnet_w3_mlp_simclrhn_probe1,1,401,NaN,clock,chair,0,0401_ske_dnn_0_chair_00_chair-0002-sketch-1.png,chair-0002-sketch-1.png,0.0,-1.5965953,0.6873897,-1.6150212
alexnet_w3_mlp_simclrhn_probe1,1,402,NaN,chair,chair,0,0402_ske_dnn_0_chair_00_chair-0005-sketch-12.png,chair-0005-sketch-12.png,1.0,3.3910403,-0.6452131,2.8540623
alexnet_w3_mlp_simclrhn_probe1,1,403,NaN,chair,chair,0,0403_ske_dnn_0_chair_00_chair-0006-sketch-13.png,chair-0006-sketch-13.png,1.0,1.5457766,-0.26580608,1.2809824
alexnet_w3_mlp_simclrhn_probe1,1,404,NaN,chair,chair,0,0404_ske_dnn_0_chair_00_chair-0011-sketch-18.png,chair-0011-sketch-18.png,1.0,2.1388867,0.32495502,1.2826434
alexnet_w3_mlp_simclrhn_probe1,1,405,NaN,clock,chair,0,0405_ske_dnn_0_chair_00_chair-0013-sketch-2.png,chair-0013-sketch-2.png,0.0,-1.6037507,0.5836931,-1.5467563
alexnet_w3_mlp_simclrhn_probe1,1,406,NaN,chair,chair,0,0406_ske_dnn_0_chair_00_chair-0014-sketch-20.png,chair-0014-sketch-20.png,1.0,3.647357,-0.08251387,2.637417
alexnet_w3_mlp_simclrhn_probe1,1,407,NaN,clock,chair,0,0407_ske_dnn_0_chair_00_chair-0017-sketch-23.png,chair-0017-sketch-23.png,0.0,0.1114825,1.4089338,-0.9174366
alexnet_w3_mlp_simclrhn_probe1,1,408,NaN,chair,chair,0,0408_ske_dnn_0_chair_00_chair-0029-sketch-34.png,chair-0029-sketch-34.png,1.0,0.13923863,-0.35998052,0.35300127
alexnet_w3_mlp_simclrhn_probe1,1,409,NaN,clock,chair,0,0409_ske_dnn_0_chair_00_chair-0034-sketch-39.png,chair-0034-sketch-39.png,0.0,-1.8874148,0.64493227,-1.7906399
alexnet_w3_mlp_simclrhn_probe1,1,410,NaN,chair,chair,0,0410_ske_dnn_0_chair_00_chair-0040-sketch-44.png,chair-0040-sketch-44.png,1.0,5.7805886,-2.2126372,5.6520643
alexnet_w3_mlp_simclrhn_probe1,1,411,NaN,chair,chair,0,0411_ske_dnn_0_chair_00_chair-0051-sketch-9.png,chair-0051-sketch-9.png,1.0,4.096348,-1.7965287,4.166893
alexnet_w3_mlp_simclrhn_probe1,1,412,NaN,clock,chair,0,0412_ske_dnn_0_chair_00_chair-0052-sketch-0.png,chair-0052-sketch-0.png,0.0,-0.31838495,-0.2200833,-0.06950977
alexnet_w3_mlp_simclrhn_probe1,1,413,NaN,clock,chair,0,0413_ske_dnn_0_chair_00_chair-0055-sketch-11.png,chair-0055-sketch-11.png,0.0,-0.578722,1.4594278,-1.4411896
alexnet_w3_mlp_simclrhn_probe1,1,414,NaN,bicycle,chair,0,0414_ske_dnn_0_chair_00_chair-0060-sketch-16.png,chair-0060-sketch-16.png,0.0,0.79043174,1.9154756,-0.79552615
alexnet_w3_mlp_simclrhn_probe1,1,415,NaN,chair,chair,0,0415_ske_dnn_0_chair_00_chair-0062-sketch-18.png,chair-0062-sketch-18.png,1.0,3.6648307,-1.9921074,4.000059
alexnet_w3_mlp_simclrhn_probe1,1,416,NaN,chair,chair,0,0416_ske_dnn_0_chair_00_chair-0063-sketch-19.png,chair-0063-sketch-19.png,1.0,3.5148697,-0.7108177,2.9880123
alexnet_w3_mlp_simclrhn_probe1,1,417,NaN,chair,chair,0,0417_ske_dnn_0_chair_00_chair-0064-sketch-2.png,chair-0064-sketch-2.png,1.0,0.31896448,-0.19110054,0.36067045
alexnet_w3_mlp_simclrhn_probe1,1,418,NaN,chair,chair,0,0418_ske_dnn_0_chair_00_chair-0066-sketch-21.png,chair-0066-sketch-21.png,1.0,-0.61311847,-0.7105781,0.068914354
alexnet_w3_mlp_simclrhn_probe1,1,419,NaN,chair,chair,0,0419_ske_dnn_0_chair_00_chair-0067-sketch-22.png,chair-0067-sketch-22.png,1.0,2.007751,-1.9375176,2.7897263
alexnet_w3_mlp_simclrhn_probe1,1,420,NaN,chair,chair,0,0420_ske_dnn_0_chair_00_chair-0071-sketch-26.png,chair-0071-sketch-26.png,1.0,1.6891384,-1.0238365,1.9183631
alexnet_w3_mlp_simclrhn_probe1,1,421,NaN,chair,chair,0,0421_ske_dnn_0_chair_00_chair-0072-sketch-27.png,chair-0072-sketch-27.png,1.0,2.8756835,-2.0200846,3.4618309
alexnet_w3_mlp_simclrhn_probe1,1,422,NaN,chair,chair,0,0422_ske_dnn_0_chair_00_chair-0076-sketch-30.png,chair-0076-sketch-30.png,1.0,4.474403,-2.2111583,4.7274055
alexnet_w3_mlp_simclrhn_probe1,1,423,NaN,chair,chair,0,0423_ske_dnn_0_chair_00_chair-0079-sketch-33.png,chair-0079-sketch-33.png,1.0,4.458552,-2.2251961,4.726124
alexnet_w3_mlp_simclrhn_probe1,1,424,NaN,clock,chair,0,0424_ske_dnn_0_chair_00_chair-0083-sketch-37.png,chair-0083-sketch-37.png,0.0,-0.86964226,2.0392942,-2.0569289
alexnet_w3_mlp_simclrhn_probe1,1,425,NaN,chair,chair,0,0425_ske_dnn_0_chair_00_chair-0088-sketch-41.png,chair-0088-sketch-41.png,1.0,-0.13343608,-0.42369524,0.20524421
alexnet_w3_mlp_simclrhn_probe1,1,426,NaN,chair,chair,0,0426_ske_dnn_0_chair_00_chair-0094-sketch-47.png,chair-0094-sketch-47.png,1.0,3.6965208,-0.8414943,3.2088616
alexnet_w3_mlp_simclrhn_probe1,1,427,NaN,knife,chair,0,0427_ske_dnn_0_chair_00_chair-0105-sketch-11.png,chair-0105-sketch-11.png,0.0,-1.8481383,-0.68784314,-0.82045263
alexnet_w3_mlp_simclrhn_probe1,1,428,NaN,chair,chair,0,0428_ske_dnn_0_chair_00_chair-0118-sketch-23.png,chair-0118-sketch-23.png,1.0,3.032392,-1.1269732,2.9411154
alexnet_w3_mlp_simclrhn_probe1,1,429,NaN,chair,chair,0,0429_ske_dnn_0_chair_00_chair-0122-sketch-27.png,chair-0122-sketch-27.png,1.0,4.0467424,-2.2631714,4.461783
alexnet_w3_mlp_simclrhn_probe1,1,430,NaN,chair,chair,0,0430_ske_dnn_0_chair_00_chair-0124-sketch-29.png,chair-0124-sketch-29.png,1.0,1.2955425,-0.5278465,1.2893308
alexnet_w3_mlp_simclrhn_probe1,1,431,NaN,chair,chair,0,0431_ske_dnn_0_chair_00_chair-0125-sketch-3.png,chair-0125-sketch-3.png,1.0,0.9363792,0.040538687,0.6334549
alexnet_w3_mlp_simclrhn_probe1,1,432,NaN,chair,chair,0,0432_ske_dnn_0_chair_00_chair-0127-sketch-31.png,chair-0127-sketch-31.png,1.0,1.9739413,-1.5742208,2.5089295
alexnet_w3_mlp_simclrhn_probe1,1,433,NaN,bicycle,chair,0,0433_ske_dnn_0_chair_00_chair-0129-sketch-33.png,chair-0129-sketch-33.png,0.0,0.61120343,1.8637431,-0.8856793
alexnet_w3_mlp_simclrhn_probe1,1,434,NaN,chair,chair,0,0434_ske_dnn_0_chair_00_chair-0130-sketch-34.png,chair-0130-sketch-34.png,1.0,2.6762834,1.3365715,0.9473194
alexnet_w3_mlp_simclrhn_probe1,1,435,NaN,bicycle,chair,0,0435_ske_dnn_0_chair_00_chair-0131-sketch-35.png,chair-0131-sketch-35.png,0.0,2.0703402,2.513955,-0.31368315
alexnet_w3_mlp_simclrhn_probe1,1,436,NaN,chair,chair,0,0436_ske_dnn_0_chair_00_chair-0135-sketch-39.png,chair-0135-sketch-39.png,1.0,1.6999772,-0.84461933,1.7993014
alexnet_w3_mlp_simclrhn_probe1,1,437,NaN,chair,chair,0,0437_ske_dnn_0_chair_00_chair-0144-sketch-47.png,chair-0144-sketch-47.png,1.0,-0.016147137,-1.1568003,0.80656356
alexnet_w3_mlp_simclrhn_probe1,1,438,NaN,chair,chair,0,0438_ske_dnn_0_chair_00_chair-0145-sketch-48.png,chair-0145-sketch-48.png,1.0,1.1395403,0.04148662,0.7764412
alexnet_w3_mlp_simclrhn_probe1,1,439,NaN,bicycle,chair,0,0439_ske_dnn_0_chair_00_chair-0153-sketch-0.png,chair-0153-sketch-0.png,0.0,-3.8314385,-0.8714725,-2.093012
alexnet_w3_mlp_simclrhn_probe1,1,440,NaN,chair,chair,0,0440_ske_dnn_0_chair_00_chair-0155-sketch-10.png,chair-0155-sketch-10.png,1.0,2.6894946,-1.4948353,2.9587681
alexnet_w3_mlp_simclrhn_probe1,1,441,NaN,chair,chair,0,0441_ske_dnn_0_chair_00_chair-0163-sketch-18.png,chair-0163-sketch-18.png,1.0,1.3466492,-4.809392,4.3529787
alexnet_w3_mlp_simclrhn_probe1,1,442,NaN,chair,chair,0,0442_ske_dnn_0_chair_00_chair-0166-sketch-20.png,chair-0166-sketch-20.png,1.0,0.006000221,-1.4836098,1.0533134
alexnet_w3_mlp_simclrhn_probe1,1,443,NaN,chair,chair,0,0443_ske_dnn_0_chair_00_chair-0167-sketch-21.png,chair-0167-sketch-21.png,1.0,0.39846623,-0.6002182,0.7061765
alexnet_w3_mlp_simclrhn_probe1,1,444,NaN,chair,chair,0,0444_ske_dnn_0_chair_00_chair-0168-sketch-22.png,chair-0168-sketch-22.png,1.0,0.27810144,-0.09428469,0.26331675
alexnet_w3_mlp_simclrhn_probe1,1,445,NaN,chair,chair,0,0445_ske_dnn_0_chair_00_chair-0175-sketch-29.png,chair-0175-sketch-29.png,1.0,1.4378722,-0.21138036,1.1661977
alexnet_w3_mlp_simclrhn_probe1,1,446,NaN,clock,chair,0,0446_ske_dnn_0_chair_00_chair-0176-sketch-3.png,chair-0176-sketch-3.png,0.0,-2.5454705,2.0242555,-3.2312844
alexnet_w3_mlp_simclrhn_probe1,1,447,NaN,chair,chair,0,0447_ske_dnn_0_chair_00_chair-0178-sketch-31.png,chair-0178-sketch-31.png,1.0,0.58466667,0.2731121,0.22030236
alexnet_w3_mlp_simclrhn_probe1,1,448,NaN,chair,chair,0,0448_ske_dnn_0_chair_00_chair-0180-sketch-33.png,chair-0180-sketch-33.png,1.0,-4.3587575,-5.0568366,0.4936165
alexnet_w3_mlp_simclrhn_probe1,1,449,NaN,chair,chair,0,0449_ske_dnn_0_chair_00_chair-0197-sketch-49.png,chair-0197-sketch-49.png,1.0,0.26436353,0.0055963197,0.18297605
alexnet_w3_mlp_simclrhn_probe1,1,450,NaN,chair,chair,0,0450_ske_dnn_0_chair_00_chair-0200-sketch-6.png,chair-0200-sketch-6.png,1.0,-4.3774667,-5.0981636,0.5096097
alexnet_w3_mlp_simclrhn_probe1,1,451,NaN,clock,clock,0,0451_ske_dnn_0_clock_00_clock-0005-sketch-12.png,clock-0005-sketch-12.png,1.0,15.232404,-3.3160908,13.115767
alexnet_w3_mlp_simclrhn_probe1,1,452,NaN,clock,clock,0,0452_ske_dnn_0_clock_00_clock-0007-sketch-14.png,clock-0007-sketch-14.png,1.0,10.392604,-2.696838,9.255632
alexnet_w3_mlp_simclrhn_probe1,1,453,NaN,clock,clock,0,0453_ske_dnn_0_clock_00_clock-0015-sketch-21.png,clock-0015-sketch-21.png,1.0,3.8643322,-1.7511685,3.9707584
alexnet_w3_mlp_simclrhn_probe1,1,454,NaN,clock,clock,0,0454_ske_dnn_0_clock_00_clock-0017-sketch-23.png,clock-0017-sketch-23.png,1.0,3.908364,-0.67521733,3.2410815
alexnet_w3_mlp_simclrhn_probe1,1,455,NaN,clock,clock,0,0455_ske_dnn_0_clock_00_clock-0018-sketch-24.png,clock-0018-sketch-24.png,1.0,10.773719,0.24462593,7.445193
alexnet_w3_mlp_simclrhn_probe1,1,456,NaN,clock,clock,0,0456_ske_dnn_0_clock_00_clock-0021-sketch-27.png,clock-0021-sketch-27.png,1.0,3.1168091,2.025901,0.7713885
alexnet_w3_mlp_simclrhn_probe1,1,457,NaN,clock,clock,0,0457_ske_dnn_0_clock_00_clock-0022-sketch-28.png,clock-0022-sketch-28.png,1.0,4.5610604,-1.4135456,4.2246847
alexnet_w3_mlp_simclrhn_probe1,1,458,NaN,clock,clock,0,0458_ske_dnn_0_clock_00_clock-0027-sketch-32.png,clock-0027-sketch-32.png,1.0,4.754653,-1.8417274,4.6643453
alexnet_w3_mlp_simclrhn_probe1,1,459,NaN,clock,clock,0,0459_ske_dnn_0_clock_00_clock-0028-sketch-33.png,clock-0028-sketch-33.png,1.0,12.135692,-3.4450374,11.017239
alexnet_w3_mlp_simclrhn_probe1,1,460,NaN,clock,clock,0,0460_ske_dnn_0_clock_00_clock-0030-sketch-35.png,clock-0030-sketch-35.png,1.0,13.080418,-1.7296782,10.47232
alexnet_w3_mlp_simclrhn_probe1,1,461,NaN,clock,clock,0,0461_ske_dnn_0_clock_00_clock-0033-sketch-38.png,clock-0033-sketch-38.png,1.0,12.786373,-1.0271635,9.767646
alexnet_w3_mlp_simclrhn_probe1,1,462,NaN,clock,clock,0,0462_ske_dnn_0_clock_00_clock-0035-sketch-4.png,clock-0035-sketch-4.png,1.0,9.56997,-3.4160266,9.182487
alexnet_w3_mlp_simclrhn_probe1,1,463,NaN,clock,clock,0,0463_ske_dnn_0_clock_00_clock-0044-sketch-48.png,clock-0044-sketch-48.png,1.0,2.331988,-1.7716081,2.9016807
alexnet_w3_mlp_simclrhn_probe1,1,464,NaN,clock,clock,0,0464_ske_dnn_0_clock_00_clock-0046-sketch-5.png,clock-0046-sketch-5.png,1.0,5.4544005,-2.4768555,5.6082454
alexnet_w3_mlp_simclrhn_probe1,1,465,NaN,clock,clock,0,0465_ske_dnn_0_clock_00_clock-0049-sketch-7.png,clock-0049-sketch-7.png,1.0,7.2857127,-1.9550898,6.5342345
alexnet_w3_mlp_simclrhn_probe1,1,466,NaN,clock,clock,0,0466_ske_dnn_0_clock_00_clock-0057-sketch-13.png,clock-0057-sketch-13.png,1.0,0.41389394,-1.4469423,1.31581
alexnet_w3_mlp_simclrhn_probe1,1,467,NaN,clock,clock,0,0467_ske_dnn_0_clock_00_clock-0059-sketch-15.png,clock-0059-sketch-15.png,1.0,4.54398,-1.9165751,4.568302
alexnet_w3_mlp_simclrhn_probe1,1,468,NaN,clock,clock,0,0468_ske_dnn_0_clock_00_clock-0060-sketch-16.png,clock-0060-sketch-16.png,1.0,2.3494084,-1.4608212,2.6942391
alexnet_w3_mlp_simclrhn_probe1,1,469,NaN,clock,clock,0,0469_ske_dnn_0_clock_00_clock-0067-sketch-22.png,clock-0067-sketch-22.png,1.0,5.6559606,0.09087676,3.9351087
alexnet_w3_mlp_simclrhn_probe1,1,470,NaN,clock,clock,0,0470_ske_dnn_0_clock_00_clock-0069-sketch-24.png,clock-0069-sketch-24.png,1.0,1.8981172,0.7294085,0.8264018
alexnet_w3_mlp_simclrhn_probe1,1,471,NaN,clock,clock,0,0471_ske_dnn_0_clock_00_clock-0070-sketch-25.png,clock-0070-sketch-25.png,1.0,3.8683243,2.5496988,0.932409
alexnet_w3_mlp_simclrhn_probe1,1,472,NaN,clock,clock,0,0472_ske_dnn_0_clock_00_clock-0071-sketch-26.png,clock-0071-sketch-26.png,1.0,8.445628,0.058641315,5.9304953
alexnet_w3_mlp_simclrhn_probe1,1,473,NaN,chair,clock,0,0473_ske_dnn_0_clock_00_clock-0073-sketch-28.png,clock-0073-sketch-28.png,0.0,-2.908887,0.37213808,-2.320035
alexnet_w3_mlp_simclrhn_probe1,1,474,NaN,clock,clock,0,0474_ske_dnn_0_clock_00_clock-0074-sketch-29.png,clock-0074-sketch-29.png,1.0,0.09858803,-0.9172292,0.7182912
alexnet_w3_mlp_simclrhn_probe1,1,475,NaN,clock,clock,0,0475_ske_dnn_0_clock_00_clock-0076-sketch-30.png,clock-0076-sketch-30.png,1.0,6.2986445,-0.2589552,4.6369233
alexnet_w3_mlp_simclrhn_probe1,1,476,NaN,clock,clock,0,0476_ske_dnn_0_clock_00_clock-0077-sketch-31.png,clock-0077-sketch-31.png,1.0,4.940849,1.2389855,2.6176126
alexnet_w3_mlp_simclrhn_probe1,1,477,NaN,clock,clock,0,0477_ske_dnn_0_clock_00_clock-0078-sketch-32.png,clock-0078-sketch-32.png,1.0,4.0503807,-0.54032195,3.2461169
alexnet_w3_mlp_simclrhn_probe1,1,478,NaN,clock,clock,0,0478_ske_dnn_0_clock_00_clock-0081-sketch-35.png,clock-0081-sketch-35.png,1.0,5.3820686,-0.21595277,3.958399
alexnet_w3_mlp_simclrhn_probe1,1,479,NaN,clock,clock,0,0479_ske_dnn_0_clock_00_clock-0085-sketch-39.png,clock-0085-sketch-39.png,1.0,7.283779,1.5100303,4.082657
alexnet_w3_mlp_simclrhn_probe1,1,480,NaN,oven,clock,0,0480_ske_dnn_0_clock_00_clock-0087-sketch-40.png,clock-0087-sketch-40.png,0.0,1.0041713,1.4026434,-0.2817624
alexnet_w3_mlp_simclrhn_probe1,1,481,NaN,clock,clock,0,0481_ske_dnn_0_clock_00_clock-0092-sketch-45.png,clock-0092-sketch-45.png,1.0,2.6480167,0.5057157,1.5148356
alexnet_w3_mlp_simclrhn_probe1,1,482,NaN,clock,clock,0,0482_ske_dnn_0_clock_00_clock-0093-sketch-46.png,clock-0093-sketch-46.png,1.0,4.5971875,-1.92171,4.6095567
alexnet_w3_mlp_simclrhn_probe1,1,483,NaN,clock,clock,0,0483_ske_dnn_0_clock_00_clock-0095-sketch-48.png,clock-0095-sketch-48.png,1.0,7.1598973,1.154473,4.2464767
alexnet_w3_mlp_simclrhn_probe1,1,484,NaN,keyboard,clock,0,0484_ske_dnn_0_clock_00_clock-0099-sketch-6.png,clock-0099-sketch-6.png,0.0,0.7724304,0.88212883,-0.077568494
alexnet_w3_mlp_simclrhn_probe1,1,485,NaN,clock,clock,0,0485_ske_dnn_0_clock_00_clock-0110-sketch-15.png,clock-0110-sketch-15.png,1.0,5.6383605,-2.6213155,5.840473
alexnet_w3_mlp_simclrhn_probe1,1,486,NaN,clock,clock,0,0486_ske_dnn_0_clock_00_clock-0112-sketch-17.png,clock-0112-sketch-17.png,1.0,18.741304,-6.283021,17.694872
alexnet_w3_mlp_simclrhn_probe1,1,487,NaN,clock,clock,0,0487_ske_dnn_0_clock_00_clock-0115-sketch-2.png,clock-0115-sketch-2.png,1.0,4.7744293,-3.4751399,5.8333263
alexnet_w3_mlp_simclrhn_probe1,1,488,NaN,clock,clock,0,0488_ske_dnn_0_clock_00_clock-0118-sketch-22.png,clock-0118-sketch-22.png,1.0,9.9017,-3.8616087,9.732129
alexnet_w3_mlp_simclrhn_probe1,1,489,NaN,clock,clock,0,0489_ske_dnn_0_clock_00_clock-0123-sketch-27.png,clock-0123-sketch-27.png,1.0,13.61808,-4.6259995,12.900513
alexnet_w3_mlp_simclrhn_probe1,1,490,NaN,clock,clock,0,0490_ske_dnn_0_clock_00_clock-0127-sketch-30.png,clock-0127-sketch-30.png,1.0,11.790433,0.36123753,8.081662
alexnet_w3_mlp_simclrhn_probe1,1,491,NaN,clock,clock,0,0491_ske_dnn_0_clock_00_clock-0131-sketch-34.png,clock-0131-sketch-34.png,1.0,10.4446535,2.3343987,5.734816
alexnet_w3_mlp_simclrhn_probe1,1,492,NaN,clock,clock,0,0492_ske_dnn_0_clock_00_clock-0132-sketch-35.png,clock-0132-sketch-35.png,1.0,4.906183,-0.90015393,4.1057
alexnet_w3_mlp_simclrhn_probe1,1,493,NaN,clock,clock,0,0493_ske_dnn_0_clock_00_clock-0133-sketch-36.png,clock-0133-sketch-36.png,1.0,2.956494,-1.489477,3.1437764
alexnet_w3_mlp_simclrhn_probe1,1,494,NaN,clock,clock,0,0494_ske_dnn_0_clock_00_clock-0136-sketch-39.png,clock-0136-sketch-39.png,1.0,7.0826817,-0.5953593,5.429195
alexnet_w3_mlp_simclrhn_probe1,1,495,NaN,clock,clock,0,0495_ske_dnn_0_clock_00_clock-0137-sketch-4.png,clock-0137-sketch-4.png,1.0,8.011722,-1.7986792,6.937001
alexnet_w3_mlp_simclrhn_probe1,1,496,NaN,clock,clock,0,0496_ske_dnn_0_clock_00_clock-0138-sketch-40.png,clock-0138-sketch-40.png,1.0,8.653761,-3.0334818,8.264129
alexnet_w3_mlp_simclrhn_probe1,1,497,NaN,clock,clock,0,0497_ske_dnn_0_clock_00_clock-0141-sketch-43.png,clock-0141-sketch-43.png,1.0,5.8406587,-1.5444044,5.2220283
alexnet_w3_mlp_simclrhn_probe1,1,498,NaN,clock,clock,0,0498_ske_dnn_0_clock_00_clock-0143-sketch-45.png,clock-0143-sketch-45.png,1.0,5.2166505,-3.1779675,5.9358916
alexnet_w3_mlp_simclrhn_probe1,1,499,NaN,clock,clock,0,0499_ske_dnn_0_clock_00_clock-0144-sketch-46.png,clock-0144-sketch-46.png,1.0,7.7399063,-1.8510742,6.7818475
alexnet_w3_mlp_simclrhn_probe1,1,500,NaN,clock,clock,0,0500_ske_dnn_0_clock_00_clock-0150-sketch-6.png,clock-0150-sketch-6.png,1.0,12.155818,-1.1969298,9.441819
alexnet_w3_mlp_simclrhn_probe1,1,501,NaN,dog,dog,0,0501_ske_dnn_0_dog_00_dog-0011-sketch-18.png,dog-0011-sketch-18.png,1.0,-0.57034576,-2.3423166,1.2529726
alexnet_w3_mlp_simclrhn_probe1,1,502,NaN,bottle,dog,0,0502_ske_dnn_0_dog_00_dog-0111-sketch-17.png,dog-0111-sketch-17.png,0.0,-7.7663217,-5.2454414,-1.7825315
alexnet_w3_mlp_simclrhn_probe1,1,503,NaN,clock,dog,0,0503_ske_dnn_0_dog_00_dog-0215-sketch-19.png,dog-0215-sketch-19.png,0.0,-10.044728,1.3753592,-8.075222
alexnet_w3_mlp_simclrhn_probe1,1,504,NaN,cat,dog,0,0504_ske_dnn_0_dog_00_dog-0243-sketch-44.png,dog-0243-sketch-44.png,0.0,-4.5979605,-3.4789352,-0.7912703
alexnet_w3_mlp_simclrhn_probe1,1,505,NaN,cat,dog,0,0505_ske_dnn_0_dog_00_dog-0476-sketch-26.png,dog-0476-sketch-26.png,0.0,-3.2971976,-3.149992,-0.10409007
alexnet_w3_mlp_simclrhn_probe1,1,506,NaN,cat,dog,0,0506_ske_dnn_0_dog_00_dog-0607-sketch-8.png,dog-0607-sketch-8.png,0.0,-2.0038633,-0.69028807,-0.928838
alexnet_w3_mlp_simclrhn_probe1,1,507,NaN,dog,dog,0,0507_ske_dnn_0_dog_00_dog-0630-sketch-28.png,dog-0630-sketch-28.png,1.0,0.0737164,-3.8178349,2.7517424
alexnet_w3_mlp_simclrhn_probe1,1,508,NaN,dog,dog,0,0508_ske_dnn_0_dog_00_dog-1035-sketch-27.png,dog-1035-sketch-27.png,1.0,-1.2183919,-2.2911694,0.7585683
alexnet_w3_mlp_simclrhn_probe1,1,509,NaN,dog,dog,0,0509_ske_dnn_0_dog_00_dog-1292-sketch-3.png,dog-1292-sketch-3.png,1.0,-2.0941808,-2.691487,0.42235932
alexnet_w3_mlp_simclrhn_probe1,1,510,NaN,cat,dog,0,0510_ske_dnn_0_dog_00_dog-1393-sketch-3.png,dog-1393-sketch-3.png,0.0,-2.6802702,-1.8879719,-0.5602395
alexnet_w3_mlp_simclrhn_probe1,1,511,NaN,cat,dog,0,0511_ske_dnn_0_dog_00_dog-1460-sketch-44.png,dog-1460-sketch-44.png,0.0,-7.259059,-4.523501,-1.9343317
alexnet_w3_mlp_simclrhn_probe1,1,512,NaN,clock,dog,0,0512_ske_dnn_0_dog_00_dog-1617-sketch-48.png,dog-1617-sketch-48.png,0.0,-7.775494,0.42705217,-5.800076
alexnet_w3_mlp_simclrhn_probe1,1,513,NaN,dog,dog,0,0513_ske_dnn_0_dog_00_dog-1657-sketch-38.png,dog-1657-sketch-38.png,1.0,0.67744875,-4.8995714,3.943549
alexnet_w3_mlp_simclrhn_probe1,1,514,NaN,dog,dog,0,0514_ske_dnn_0_dog_00_dog-1711-sketch-40.png,dog-1711-sketch-40.png,1.0,-2.3638842,-2.61399,0.17685156
alexnet_w3_mlp_simclrhn_probe1,1,515,NaN,dog,dog,0,0515_ske_dnn_0_dog_00_dog-1759-sketch-38.png,dog-1759-sketch-38.png,1.0,0.56802803,-4.0870748,3.2916548
alexnet_w3_mlp_simclrhn_probe1,1,516,NaN,clock,dog,0,0516_ske_dnn_0_dog_00_dog-1797-sketch-26.png,dog-1797-sketch-26.png,0.0,-13.289587,-2.1832411,-7.8533726
alexnet_w3_mlp_simclrhn_probe1,1,517,NaN,cat,dog,0,0517_ske_dnn_0_dog_00_dog-1973-sketch-47.png,dog-1973-sketch-47.png,0.0,-3.6473806,-2.5418558,-0.7817241
alexnet_w3_mlp_simclrhn_probe1,1,518,NaN,clock,dog,0,0518_ske_dnn_0_dog_00_dog-2150-sketch-22.png,dog-2150-sketch-22.png,0.0,-9.644377,-1.1638438,-5.996642
alexnet_w3_mlp_simclrhn_probe1,1,519,NaN,clock,dog,0,0519_ske_dnn_0_dog_00_dog-2198-sketch-20.png,dog-2198-sketch-20.png,0.0,-11.55318,0.9852369,-8.866
alexnet_w3_mlp_simclrhn_probe1,1,520,NaN,dog,dog,0,0520_ske_dnn_0_dog_00_dog-2291-sketch-12.png,dog-2291-sketch-12.png,1.0,-1.6526492,-2.914912,0.89255464
alexnet_w3_mlp_simclrhn_probe1,1,521,NaN,bird,dog,0,0521_ske_dnn_0_dog_00_dog-2323-sketch-41.png,dog-2323-sketch-41.png,0.0,-2.8692968,-2.2219737,-0.4577266
alexnet_w3_mlp_simclrhn_probe1,1,522,NaN,dog,dog,0,0522_ske_dnn_0_dog_00_dog-2454-sketch-21.png,dog-2454-sketch-21.png,1.0,-1.5422081,-6.754831,3.685881
alexnet_w3_mlp_simclrhn_probe1,1,523,NaN,dog,dog,0,0523_ske_dnn_0_dog_00_dog-2506-sketch-23.png,dog-2506-sketch-23.png,1.0,3.2347846,-2.3026636,3.9155672
alexnet_w3_mlp_simclrhn_probe1,1,524,NaN,dog,dog,0,0524_ske_dnn_0_dog_00_dog-2541-sketch-0.png,dog-2541-sketch-0.png,1.0,-1.4861469,-6.903732,3.830811
alexnet_w3_mlp_simclrhn_probe1,1,525,NaN,dog,dog,0,0525_ske_dnn_0_dog_00_dog-2615-sketch-3.png,dog-2615-sketch-3.png,1.0,0.48400694,-6.3063426,4.801502
alexnet_w3_mlp_simclrhn_probe1,1,526,NaN,dog,dog,0,0526_ske_dnn_0_dog_00_dog-2948-sketch-10.png,dog-2948-sketch-10.png,1.0,-1.5328417,-3.6033614,1.4640785
alexnet_w3_mlp_simclrhn_probe1,1,527,NaN,dog,dog,0,0527_ske_dnn_0_dog_00_dog-3000-sketch-11.png,dog-3000-sketch-11.png,1.0,1.5311322,-0.5113402,1.444246
alexnet_w3_mlp_simclrhn_probe1,1,528,NaN,clock,dog,0,0528_ske_dnn_0_dog_00_dog-3153-sketch-11.png,dog-3153-sketch-11.png,0.0,-1.5878066,-0.09481543,-1.0557042
alexnet_w3_mlp_simclrhn_probe1,1,529,NaN,cat,dog,0,0529_ske_dnn_0_dog_00_dog-3251-sketch-9.png,dog-3251-sketch-9.png,0.0,-2.3257499,-0.97924805,-0.9521206
alexnet_w3_mlp_simclrhn_probe1,1,530,NaN,dog,dog,0,0530_ske_dnn_0_dog_00_dog-3303-sketch-0.png,dog-3303-sketch-0.png,1.0,-1.5305551,-4.0487638,1.7806424
alexnet_w3_mlp_simclrhn_probe1,1,531,NaN,dog,dog,0,0531_ske_dnn_0_dog_00_dog-3338-sketch-40.png,dog-3338-sketch-40.png,1.0,1.4149675,-3.1093187,3.1991537
alexnet_w3_mlp_simclrhn_probe1,1,532,NaN,cat,dog,0,0532_ske_dnn_0_dog_00_dog-3417-sketch-2.png,dog-3417-sketch-2.png,0.0,-2.440507,-2.4270542,-0.009512544
alexnet_w3_mlp_simclrhn_probe1,1,533,NaN,dog,dog,0,0533_ske_dnn_0_dog_00_dog-3503-sketch-6.png,dog-3503-sketch-6.png,1.0,-1.452692,-1.4961128,0.030703137
alexnet_w3_mlp_simclrhn_probe1,1,534,NaN,cat,dog,0,0534_ske_dnn_0_dog_00_dog-3573-sketch-22.png,dog-3573-sketch-22.png,0.0,-0.95087326,-0.7005797,-0.17698427
alexnet_w3_mlp_simclrhn_probe1,1,535,NaN,cat,dog,0,0535_ske_dnn_0_dog_00_dog-3646-sketch-42.png,dog-3646-sketch-42.png,0.0,0.39238685,1.8489395,-1.0299383
alexnet_w3_mlp_simclrhn_probe1,1,536,NaN,dog,dog,0,0536_ske_dnn_0_dog_00_dog-3695-sketch-40.png,dog-3695-sketch-40.png,1.0,-3.9649603,-4.131677,0.117886595
alexnet_w3_mlp_simclrhn_probe1,1,537,NaN,chair,dog,0,0537_ske_dnn_0_dog_00_dog-3915-sketch-0.png,dog-3915-sketch-0.png,0.0,-3.9566941,-2.5811505,-0.9726562
alexnet_w3_mlp_simclrhn_probe1,1,538,NaN,cat,dog,0,0538_ske_dnn_0_dog_00_dog-4202-sketch-4.png,dog-4202-sketch-4.png,0.0,-0.7986075,1.7277268,-1.7863882
alexnet_w3_mlp_simclrhn_probe1,1,539,NaN,cat,dog,0,0539_ske_dnn_0_dog_00_dog-4208-sketch-45.png,dog-4208-sketch-45.png,0.0,-2.1026654,-1.7586671,-0.24324355
alexnet_w3_mlp_simclrhn_probe1,1,540,NaN,dog,dog,0,0540_ske_dnn_0_dog_00_dog-4325-sketch-13.png,dog-4325-sketch-13.png,1.0,-1.7796246,-5.529336,2.6514466
alexnet_w3_mlp_simclrhn_probe1,1,541,NaN,dog,dog,0,0541_ske_dnn_0_dog_00_dog-4475-sketch-11.png,dog-4475-sketch-11.png,1.0,0.09027633,-0.818496,0.6425991
alexnet_w3_mlp_simclrhn_probe1,1,542,NaN,clock,dog,0,0542_ske_dnn_0_dog_00_dog-4499-sketch-33.png,dog-4499-sketch-33.png,0.0,-7.3644753,-1.1521391,-4.392785
alexnet_w3_mlp_simclrhn_probe1,1,543,NaN,cat,dog,0,0543_ske_dnn_0_dog_00_dog-4581-sketch-16.png,dog-4581-sketch-16.png,0.0,-5.0856395,-2.8419056,-1.5865594
alexnet_w3_mlp_simclrhn_probe1,1,544,NaN,clock,dog,0,0544_ske_dnn_0_dog_00_dog-4709-sketch-4.png,dog-4709-sketch-4.png,0.0,-9.414377,1.3725477,-7.627508
alexnet_w3_mlp_simclrhn_probe1,1,545,NaN,cat,dog,0,0545_ske_dnn_0_dog_00_dog-4909-sketch-37.png,dog-4909-sketch-37.png,0.0,-4.44508,-3.338576,-0.7824163
alexnet_w3_mlp_simclrhn_probe1,1,546,NaN,cat,dog,0,0546_ske_dnn_0_dog_00_dog-5028-sketch-8.png,dog-5028-sketch-8.png,0.0,-0.9560241,-0.072590195,-0.6246821
alexnet_w3_mlp_simclrhn_probe1,1,547,NaN,dog,dog,0,0547_ske_dnn_0_dog_00_dog-5084-sketch-11.png,dog-5084-sketch-11.png,1.0,-2.0804071,-3.2525368,0.8288208
alexnet_w3_mlp_simclrhn_probe1,1,548,NaN,clock,dog,0,0548_ske_dnn_0_dog_00_dog-5223-sketch-45.png,dog-5223-sketch-45.png,0.0,-3.1576107,-1.5132794,-1.1627178
alexnet_w3_mlp_simclrhn_probe1,1,549,NaN,dog,dog,0,0549_ske_dnn_0_dog_00_dog-5325-sketch-45.png,dog-5325-sketch-45.png,1.0,2.3140898,-1.6823875,2.825936
alexnet_w3_mlp_simclrhn_probe1,1,550,NaN,dog,dog,0,0550_ske_dnn_0_dog_00_dog-5354-sketch-25.png,dog-5354-sketch-25.png,1.0,-2.3015509,-4.0176435,1.2134607
alexnet_w3_mlp_simclrhn_probe1,1,551,NaN,elephant,elephant,0,0551_ske_dnn_0_elephant_00_elephant-0001-sketch-0.png,elephant-0001-sketch-0.png,1.0,-0.45948926,-4.2818146,2.7027922
alexnet_w3_mlp_simclrhn_probe1,1,552,NaN,elephant,elephant,0,0552_ske_dnn_0_elephant_00_elephant-0002-sketch-1.png,elephant-0002-sketch-1.png,1.0,1.4564928,-0.706906,1.5297539
alexnet_w3_mlp_simclrhn_probe1,1,553,NaN,clock,elephant,0,0553_ske_dnn_0_elephant_00_elephant-0006-sketch-13.png,elephant-0006-sketch-13.png,0.0,-7.155591,-2.0964072,-3.5773835
alexnet_w3_mlp_simclrhn_probe1,1,554,NaN,clock,elephant,0,0554_ske_dnn_0_elephant_00_elephant-0011-sketch-18.png,elephant-0011-sketch-18.png,0.0,-12.024393,0.37310448,-8.766355
alexnet_w3_mlp_simclrhn_probe1,1,555,NaN,clock,elephant,0,0555_ske_dnn_0_elephant_00_elephant-0012-sketch-19.png,elephant-0012-sketch-19.png,0.0,-9.895847,-0.785255,-6.4421616
alexnet_w3_mlp_simclrhn_probe1,1,556,NaN,knife,elephant,0,0556_ske_dnn_0_elephant_00_elephant-0013-sketch-2.png,elephant-0013-sketch-2.png,0.0,-5.393444,-2.583974,-1.9865954
alexnet_w3_mlp_simclrhn_probe1,1,557,NaN,knife,elephant,0,0557_ske_dnn_0_elephant_00_elephant-0014-sketch-20.png,elephant-0014-sketch-20.png,0.0,-9.089266,-5.7822065,-2.338444
alexnet_w3_mlp_simclrhn_probe1,1,558,NaN,elephant,elephant,0,0558_ske_dnn_0_elephant_00_elephant-0015-sketch-21.png,elephant-0015-sketch-21.png,1.0,-3.8795326,-4.454875,0.40682852
alexnet_w3_mlp_simclrhn_probe1,1,559,NaN,clock,elephant,0,0559_ske_dnn_0_elephant_00_elephant-0016-sketch-22.png,elephant-0016-sketch-22.png,0.0,-7.6080437,0.2626913,-5.56545
alexnet_w3_mlp_simclrhn_probe1,1,560,NaN,elephant,elephant,0,0560_ske_dnn_0_elephant_00_elephant-0019-sketch-25.png,elephant-0019-sketch-25.png,1.0,1.9839618,-2.285776,3.0191605
alexnet_w3_mlp_simclrhn_probe1,1,561,NaN,bicycle,elephant,0,0561_ske_dnn_0_elephant_00_elephant-0020-sketch-26.png,elephant-0020-sketch-26.png,0.0,-7.1392365,-0.5500515,-4.6592574
alexnet_w3_mlp_simclrhn_probe1,1,562,NaN,clock,elephant,0,0562_ske_dnn_0_elephant_00_elephant-0021-sketch-27.png,elephant-0021-sketch-27.png,0.0,-5.9131145,-1.5856394,-3.059987
alexnet_w3_mlp_simclrhn_probe1,1,563,NaN,clock,elephant,0,0563_ske_dnn_0_elephant_00_elephant-0022-sketch-28.png,elephant-0022-sketch-28.png,0.0,-10.521306,0.36833382,-7.700138
alexnet_w3_mlp_simclrhn_probe1,1,564,NaN,elephant,elephant,0,0564_ske_dnn_0_elephant_00_elephant-0025-sketch-30.png,elephant-0025-sketch-30.png,1.0,-1.2893596,-3.4055958,1.496405
alexnet_w3_mlp_simclrhn_probe1,1,565,NaN,elephant,elephant,0,0565_ske_dnn_0_elephant_00_elephant-0028-sketch-33.png,elephant-0028-sketch-33.png,1.0,2.5092578,-0.6820075,2.2565653
alexnet_w3_mlp_simclrhn_probe1,1,566,NaN,knife,elephant,0,0566_ske_dnn_0_elephant_00_elephant-0029-sketch-34.png,elephant-0029-sketch-34.png,0.0,-5.6789885,-2.4509716,-2.2825527
alexnet_w3_mlp_simclrhn_probe1,1,567,NaN,clock,elephant,0,0567_ske_dnn_0_elephant_00_elephant-0030-sketch-35.png,elephant-0030-sketch-35.png,0.0,-13.1946335,-1.4422956,-8.310159
alexnet_w3_mlp_simclrhn_probe1,1,568,NaN,knife,elephant,0,0568_ske_dnn_0_elephant_00_elephant-0032-sketch-37.png,elephant-0032-sketch-37.png,0.0,-1.3724062,-0.9498052,-0.29882407
alexnet_w3_mlp_simclrhn_probe1,1,569,NaN,bicycle,elephant,0,0569_ske_dnn_0_elephant_00_elephant-0033-sketch-38.png,elephant-0033-sketch-38.png,0.0,-12.135479,-2.5705292,-6.763441
alexnet_w3_mlp_simclrhn_probe1,1,570,NaN,elephant,elephant,0,0570_ske_dnn_0_elephant_00_elephant-0037-sketch-41.png,elephant-0037-sketch-41.png,1.0,-0.24225506,-2.5922663,1.661709
alexnet_w3_mlp_simclrhn_probe1,1,571,NaN,elephant,elephant,0,0571_ske_dnn_0_elephant_00_elephant-0039-sketch-43.png,elephant-0039-sketch-43.png,1.0,-0.7089046,-3.9693832,2.3055065
alexnet_w3_mlp_simclrhn_probe1,1,572,NaN,elephant,elephant,0,0572_ske_dnn_0_elephant_00_elephant-0040-sketch-44.png,elephant-0040-sketch-44.png,1.0,-2.019567,-2.5037706,0.34238365
alexnet_w3_mlp_simclrhn_probe1,1,573,NaN,elephant,elephant,0,0573_ske_dnn_0_elephant_00_elephant-0043-sketch-47.png,elephant-0043-sketch-47.png,1.0,-2.9252617,-3.9018135,0.69052637
alexnet_w3_mlp_simclrhn_probe1,1,574,NaN,cat,elephant,0,0574_ske_dnn_0_elephant_00_elephant-0044-sketch-48.png,elephant-0044-sketch-48.png,0.0,-4.324085,-3.1305227,-0.84397614
alexnet_w3_mlp_simclrhn_probe1,1,575,NaN,knife,elephant,0,0575_ske_dnn_0_elephant_00_elephant-0046-sketch-5.png,elephant-0046-sketch-5.png,0.0,-2.3020065,-1.1520172,-0.8131652
alexnet_w3_mlp_simclrhn_probe1,1,576,NaN,clock,elephant,0,0576_ske_dnn_0_elephant_00_elephant-0047-sketch-50.png,elephant-0047-sketch-50.png,0.0,-12.49827,0.018002471,-8.850342
alexnet_w3_mlp_simclrhn_probe1,1,577,NaN,clock,elephant,0,0577_ske_dnn_0_elephant_00_elephant-0048-sketch-6.png,elephant-0048-sketch-6.png,0.0,-12.943036,-2.5628026,-7.339934
alexnet_w3_mlp_simclrhn_probe1,1,578,NaN,elephant,elephant,0,0578_ske_dnn_0_elephant_00_elephant-0050-sketch-8.png,elephant-0050-sketch-8.png,1.0,-0.788746,-4.1300054,2.3626273
alexnet_w3_mlp_simclrhn_probe1,1,579,NaN,elephant,elephant,0,0579_ske_dnn_0_elephant_00_elephant-0052-sketch-0.png,elephant-0052-sketch-0.png,1.0,-1.3938522,-2.4918911,0.7764308
alexnet_w3_mlp_simclrhn_probe1,1,580,NaN,elephant,elephant,0,0580_ske_dnn_0_elephant_00_elephant-0054-sketch-10.png,elephant-0054-sketch-10.png,1.0,-2.4073462,-3.1248865,0.5073776
alexnet_w3_mlp_simclrhn_probe1,1,581,NaN,cat,elephant,0,0581_ske_dnn_0_elephant_00_elephant-0055-sketch-11.png,elephant-0055-sketch-11.png,0.0,-2.8245084,-1.2374337,-1.1222314
alexnet_w3_mlp_simclrhn_probe1,1,582,NaN,oven,elephant,0,0582_ske_dnn_0_elephant_00_elephant-0057-sketch-13.png,elephant-0057-sketch-13.png,0.0,-2.0716624,-1.8135118,-0.18254003
alexnet_w3_mlp_simclrhn_probe1,1,583,NaN,elephant,elephant,0,0583_ske_dnn_0_elephant_00_elephant-0058-sketch-14.png,elephant-0058-sketch-14.png,1.0,5.9291143,-4.6315403,7.4675107
alexnet_w3_mlp_simclrhn_probe1,1,584,NaN,elephant,elephant,0,0584_ske_dnn_0_elephant_00_elephant-0061-sketch-17.png,elephant-0061-sketch-17.png,1.0,11.492004,-3.3754547,10.512881
alexnet_w3_mlp_simclrhn_probe1,1,585,NaN,bottle,elephant,0,0585_ske_dnn_0_elephant_00_elephant-0062-sketch-18.png,elephant-0062-sketch-18.png,0.0,-5.1732497,-3.001632,-1.5355656
alexnet_w3_mlp_simclrhn_probe1,1,586,NaN,bicycle,elephant,0,0586_ske_dnn_0_elephant_00_elephant-0065-sketch-20.png,elephant-0065-sketch-20.png,0.0,-7.993639,-1.0333567,-4.921663
alexnet_w3_mlp_simclrhn_probe1,1,587,NaN,elephant,elephant,0,0587_ske_dnn_0_elephant_00_elephant-0066-sketch-21.png,elephant-0066-sketch-21.png,1.0,6.4334636,-1.0345877,5.2807097
alexnet_w3_mlp_simclrhn_probe1,1,588,NaN,elephant,elephant,0,0588_ske_dnn_0_elephant_00_elephant-0071-sketch-26.png,elephant-0071-sketch-26.png,1.0,6.763631,-4.4448977,7.9256268
alexnet_w3_mlp_simclrhn_probe1,1,589,NaN,bicycle,elephant,0,0589_ske_dnn_0_elephant_00_elephant-0075-sketch-3.png,elephant-0075-sketch-3.png,0.0,-8.913498,-2.0046232,-4.885312
alexnet_w3_mlp_simclrhn_probe1,1,590,NaN,clock,elephant,0,0590_ske_dnn_0_elephant_00_elephant-0076-sketch-30.png,elephant-0076-sketch-30.png,0.0,-9.219393,0.32976508,-6.7522745
alexnet_w3_mlp_simclrhn_probe1,1,591,NaN,elephant,elephant,0,0591_ske_dnn_0_elephant_00_elephant-0077-sketch-31.png,elephant-0077-sketch-31.png,1.0,-0.960877,-4.3068223,2.3659408
alexnet_w3_mlp_simclrhn_probe1,1,592,NaN,elephant,elephant,0,0592_ske_dnn_0_elephant_00_elephant-0079-sketch-33.png,elephant-0079-sketch-33.png,1.0,-2.4458938,-4.3501687,1.3465258
alexnet_w3_mlp_simclrhn_probe1,1,593,NaN,bicycle,elephant,0,0593_ske_dnn_0_elephant_00_elephant-0080-sketch-34.png,elephant-0080-sketch-34.png,0.0,-4.800234,-2.7472854,-1.4516538
alexnet_w3_mlp_simclrhn_probe1,1,594,NaN,elephant,elephant,0,0594_ske_dnn_0_elephant_00_elephant-0082-sketch-36.png,elephant-0082-sketch-36.png,1.0,0.053747922,-2.1616995,1.5665579
alexnet_w3_mlp_simclrhn_probe1,1,595,NaN,elephant,elephant,0,0595_ske_dnn_0_elephant_00_elephant-0086-sketch-4.png,elephant-0086-sketch-4.png,1.0,-0.20756477,-1.7597927,1.0975909
alexnet_w3_mlp_simclrhn_probe1,1,596,NaN,elephant,elephant,0,0596_ske_dnn_0_elephant_00_elephant-0090-sketch-43.png,elephant-0090-sketch-43.png,1.0,4.03921,-3.9221945,5.629563
alexnet_w3_mlp_simclrhn_probe1,1,597,NaN,elephant,elephant,0,0597_ske_dnn_0_elephant_00_elephant-0094-sketch-47.png,elephant-0094-sketch-47.png,1.0,-1.7618136,-4.685864,2.0676157
alexnet_w3_mlp_simclrhn_probe1,1,598,NaN,clock,elephant,0,0598_ske_dnn_0_elephant_00_elephant-0098-sketch-50.png,elephant-0098-sketch-50.png,0.0,-11.447298,2.3690357,-9.769624
alexnet_w3_mlp_simclrhn_probe1,1,599,NaN,elephant,elephant,0,0599_ske_dnn_0_elephant_00_elephant-0100-sketch-7.png,elephant-0100-sketch-7.png,1.0,1.7992675,-5.721576,5.3180394
alexnet_w3_mlp_simclrhn_probe1,1,600,NaN,clock,elephant,0,0600_ske_dnn_0_elephant_00_elephant-0101-sketch-8.png,elephant-0101-sketch-8.png,0.0,-12.49847,2.8353374,-10.84264
alexnet_w3_mlp_simclrhn_probe1,1,601,NaN,keyboard,keyboard,0,0601_ske_dnn_0_keyboard_00_keyboard-0002-sketch-1.png,keyboard-0002-sketch-1.png,1.0,2.6291883,-0.56244,2.256822
alexnet_w3_mlp_simclrhn_probe1,1,602,NaN,keyboard,keyboard,0,0602_ske_dnn_0_keyboard_00_keyboard-0003-sketch-10.png,keyboard-0003-sketch-10.png,1.0,3.9337392,2.9772346,0.6763509
alexnet_w3_mlp_simclrhn_probe1,1,603,NaN,keyboard,keyboard,0,0603_ske_dnn_0_keyboard_00_keyboard-0004-sketch-11.png,keyboard-0004-sketch-11.png,1.0,10.0962105,-2.2007463,8.695262
alexnet_w3_mlp_simclrhn_probe1,1,604,NaN,keyboard,keyboard,0,0604_ske_dnn_0_keyboard_00_keyboard-0005-sketch-12.png,keyboard-0005-sketch-12.png,1.0,8.169935,-2.712437,7.694999
