subj,session,trial,rt,object_response,category,condition,imagename,filename,is_correct,targ_act,max_nontarg_act,decision_margin
alexnet_w3_mlp_simclrhn_probe2,1,1,NaN,airplane,airplane,0,0001_ske_dnn_0_airplane_00_airplane-0001-sketch-0.png,airplane-0001-sketch-0.png,1.0,3.1058137,1.1701726,1.368705
alexnet_w3_mlp_simclrhn_probe2,1,2,NaN,airplane,airplane,0,0002_ske_dnn_0_airplane_00_airplane-0002-sketch-1.png,airplane-0002-sketch-1.png,1.0,1.3956666,1.3892604,0.004529859
alexnet_w3_mlp_simclrhn_probe2,1,3,NaN,airplane,airplane,0,0003_ske_dnn_0_airplane_00_airplane-0003-sketch-10.png,airplane-0003-sketch-10.png,1.0,0.9957849,0.25964192,0.5205317
alexnet_w3_mlp_simclrhn_probe2,1,4,NaN,airplane,airplane,0,0004_ske_dnn_0_airplane_00_airplane-0004-sketch-11.png,airplane-0004-sketch-11.png,1.0,0.72336155,-0.010018343,0.51857793
alexnet_w3_mlp_simclrhn_probe2,1,5,NaN,airplane,airplane,0,0005_ske_dnn_0_airplane_00_airplane-0005-sketch-12.png,airplane-0005-sketch-12.png,1.0,1.9994199,0.113576256,1.3334929
alexnet_w3_mlp_simclrhn_probe2,1,6,NaN,airplane,airplane,0,0006_ske_dnn_0_airplane_00_airplane-0006-sketch-13.png,airplane-0006-sketch-13.png,1.0,7.551751,-0.51693845,5.7054253
alexnet_w3_mlp_simclrhn_probe2,1,7,NaN,airplane,airplane,0,0007_ske_dnn_0_airplane_00_airplane-0007-sketch-14.png,airplane-0007-sketch-14.png,1.0,1.5422126,0.61638576,0.65465844
alexnet_w3_mlp_simclrhn_probe2,1,8,NaN,knife,airplane,0,0008_ske_dnn_0_airplane_00_airplane-0008-sketch-15.png,airplane-0008-sketch-15.png,0.0,0.35990468,1.215622,-0.6050835
alexnet_w3_mlp_simclrhn_probe2,1,9,NaN,airplane,airplane,0,0009_ske_dnn_0_airplane_00_airplane-0009-sketch-16.png,airplane-0009-sketch-16.png,1.0,1.3176876,0.6687623,0.4588595
alexnet_w3_mlp_simclrhn_probe2,1,10,NaN,airplane,airplane,0,0010_ske_dnn_0_airplane_00_airplane-0010-sketch-17.png,airplane-0010-sketch-17.png,1.0,0.17789558,0.08036766,0.06896265
alexnet_w3_mlp_simclrhn_probe2,1,11,NaN,clock,airplane,0,0011_ske_dnn_0_airplane_00_airplane-0011-sketch-18.png,airplane-0011-sketch-18.png,0.0,-0.22242266,1.9441811,-1.5320202
alexnet_w3_mlp_simclrhn_probe2,1,12,NaN,knife,airplane,0,0012_ske_dnn_0_airplane_00_airplane-0012-sketch-19.png,airplane-0012-sketch-19.png,0.0,0.5977447,1.1104373,-0.3625284
alexnet_w3_mlp_simclrhn_probe2,1,13,NaN,airplane,airplane,0,0013_ske_dnn_0_airplane_00_airplane-0013-sketch-2.png,airplane-0013-sketch-2.png,1.0,3.968685,0.00967964,2.7994397
alexnet_w3_mlp_simclrhn_probe2,1,14,NaN,airplane,airplane,0,0014_ske_dnn_0_airplane_00_airplane-0014-sketch-20.png,airplane-0014-sketch-20.png,1.0,2.1261306,0.7034051,1.0060189
alexnet_w3_mlp_simclrhn_probe2,1,15,NaN,airplane,airplane,0,0015_ske_dnn_0_airplane_00_airplane-0015-sketch-21.png,airplane-0015-sketch-21.png,1.0,1.6900598,0.26831642,1.0053244
alexnet_w3_mlp_simclrhn_probe2,1,16,NaN,airplane,airplane,0,0016_ske_dnn_0_airplane_00_airplane-0016-sketch-22.png,airplane-0016-sketch-22.png,1.0,4.9860125,-0.10481612,3.5997593
alexnet_w3_mlp_simclrhn_probe2,1,17,NaN,knife,airplane,0,0017_ske_dnn_0_airplane_00_airplane-0017-sketch-23.png,airplane-0017-sketch-23.png,0.0,0.93944514,1.1607442,-0.15648206
alexnet_w3_mlp_simclrhn_probe2,1,18,NaN,clock,airplane,0,0018_ske_dnn_0_airplane_00_airplane-0018-sketch-24.png,airplane-0018-sketch-24.png,0.0,-1.000936,0.95021695,-1.3796736
alexnet_w3_mlp_simclrhn_probe2,1,19,NaN,clock,airplane,0,0019_ske_dnn_0_airplane_00_airplane-0019-sketch-25.png,airplane-0019-sketch-25.png,0.0,0.1201005,1.9343557,-1.2828722
alexnet_w3_mlp_simclrhn_probe2,1,20,NaN,knife,airplane,0,0020_ske_dnn_0_airplane_00_airplane-0020-sketch-26.png,airplane-0020-sketch-26.png,0.0,-0.7097709,0.60649735,-0.9307422
alexnet_w3_mlp_simclrhn_probe2,1,21,NaN,clock,airplane,0,0021_ske_dnn_0_airplane_00_airplane-0021-sketch-27.png,airplane-0021-sketch-27.png,0.0,-0.55238354,2.0874946,-1.8666759
alexnet_w3_mlp_simclrhn_probe2,1,22,NaN,clock,airplane,0,0022_ske_dnn_0_airplane_00_airplane-0022-sketch-28.png,airplane-0022-sketch-28.png,0.0,1.1493154,1.3775119,-0.1613593
alexnet_w3_mlp_simclrhn_probe2,1,23,NaN,knife,airplane,0,0023_ske_dnn_0_airplane_00_airplane-0023-sketch-29.png,airplane-0023-sketch-29.png,0.0,0.020663649,0.39789075,-0.26673985
alexnet_w3_mlp_simclrhn_probe2,1,24,NaN,airplane,airplane,0,0024_ske_dnn_0_airplane_00_airplane-0024-sketch-3.png,airplane-0024-sketch-3.png,1.0,1.2724687,0.55046004,0.5105372
alexnet_w3_mlp_simclrhn_probe2,1,25,NaN,airplane,airplane,0,0025_ske_dnn_0_airplane_00_airplane-0025-sketch-30.png,airplane-0025-sketch-30.png,1.0,0.9726728,0.8920742,0.05699181
alexnet_w3_mlp_simclrhn_probe2,1,26,NaN,clock,airplane,0,0026_ske_dnn_0_airplane_00_airplane-0027-sketch-32.png,airplane-0027-sketch-32.png,0.0,0.3980247,2.2817583,-1.3320009
alexnet_w3_mlp_simclrhn_probe2,1,27,NaN,knife,airplane,0,0027_ske_dnn_0_airplane_00_airplane-0028-sketch-33.png,airplane-0028-sketch-33.png,0.0,0.42335773,1.9059457,-1.048348
alexnet_w3_mlp_simclrhn_probe2,1,28,NaN,clock,airplane,0,0028_ske_dnn_0_airplane_00_airplane-0029-sketch-34.png,airplane-0029-sketch-34.png,0.0,0.25098458,1.3712944,-0.7921787
alexnet_w3_mlp_simclrhn_probe2,1,29,NaN,clock,airplane,0,0029_ske_dnn_0_airplane_00_airplane-0030-sketch-35.png,airplane-0030-sketch-35.png,0.0,-0.06442267,0.38289025,-0.316298
alexnet_w3_mlp_simclrhn_probe2,1,30,NaN,knife,airplane,0,0030_ske_dnn_0_airplane_00_airplane-0031-sketch-36.png,airplane-0031-sketch-36.png,0.0,0.365767,1.2457598,-0.6222489
alexnet_w3_mlp_simclrhn_probe2,1,31,NaN,airplane,airplane,0,0031_ske_dnn_0_airplane_00_airplane-0032-sketch-37.png,airplane-0032-sketch-37.png,1.0,1.547233,0.18530962,0.9630253
alexnet_w3_mlp_simclrhn_probe2,1,32,NaN,knife,airplane,0,0032_ske_dnn_0_airplane_00_airplane-0033-sketch-38.png,airplane-0033-sketch-38.png,0.0,0.17106786,0.18232529,-0.007960201
alexnet_w3_mlp_simclrhn_probe2,1,33,NaN,clock,airplane,0,0033_ske_dnn_0_airplane_00_airplane-0034-sketch-39.png,airplane-0034-sketch-39.png,0.0,-0.1699347,1.5154891,-1.1917746
alexnet_w3_mlp_simclrhn_probe2,1,34,NaN,bicycle,airplane,0,0034_ske_dnn_0_airplane_00_airplane-0035-sketch-4.png,airplane-0035-sketch-4.png,0.0,1.2460262,1.4967024,-0.1772549
alexnet_w3_mlp_simclrhn_probe2,1,35,NaN,airplane,airplane,0,0035_ske_dnn_0_airplane_00_airplane-0036-sketch-40.png,airplane-0036-sketch-40.png,1.0,3.7320945,0.3605516,2.3840408
alexnet_w3_mlp_simclrhn_probe2,1,36,NaN,knife,airplane,0,0036_ske_dnn_0_airplane_00_airplane-0037-sketch-41.png,airplane-0037-sketch-41.png,0.0,0.99043477,1.2718414,-0.19898455
alexnet_w3_mlp_simclrhn_probe2,1,37,NaN,clock,airplane,0,0037_ske_dnn_0_airplane_00_airplane-0038-sketch-42.png,airplane-0038-sketch-42.png,0.0,-1.2891414,1.9405037,-2.283704
alexnet_w3_mlp_simclrhn_probe2,1,38,NaN,knife,airplane,0,0038_ske_dnn_0_airplane_00_airplane-0039-sketch-43.png,airplane-0039-sketch-43.png,0.0,0.8407624,1.2131102,-0.2632897
alexnet_w3_mlp_simclrhn_probe2,1,39,NaN,clock,airplane,0,0039_ske_dnn_0_airplane_00_airplane-0040-sketch-44.png,airplane-0040-sketch-44.png,0.0,-0.98553526,1.8662287,-2.0165017
alexnet_w3_mlp_simclrhn_probe2,1,40,NaN,clock,airplane,0,0040_ske_dnn_0_airplane_00_airplane-0041-sketch-45.png,airplane-0041-sketch-45.png,0.0,0.92108583,1.138678,-0.15386087
alexnet_w3_mlp_simclrhn_probe2,1,41,NaN,clock,airplane,0,0041_ske_dnn_0_airplane_00_airplane-0042-sketch-46.png,airplane-0042-sketch-46.png,0.0,-0.4548013,0.70232373,-0.81821096
alexnet_w3_mlp_simclrhn_probe2,1,42,NaN,clock,airplane,0,0042_ske_dnn_0_airplane_00_airplane-0043-sketch-47.png,airplane-0043-sketch-47.png,0.0,0.20586243,2.1502464,-1.3748871
alexnet_w3_mlp_simclrhn_probe2,1,43,NaN,clock,airplane,0,0043_ske_dnn_0_airplane_00_airplane-0044-sketch-48.png,airplane-0044-sketch-48.png,0.0,0.9148347,0.9471831,-0.022873769
alexnet_w3_mlp_simclrhn_probe2,1,44,NaN,airplane,airplane,0,0044_ske_dnn_0_airplane_00_airplane-0045-sketch-49.png,airplane-0045-sketch-49.png,1.0,3.197455,1.3703114,1.2919856
alexnet_w3_mlp_simclrhn_probe2,1,45,NaN,airplane,airplane,0,0045_ske_dnn_0_airplane_00_airplane-0046-sketch-5.png,airplane-0046-sketch-5.png,1.0,0.85736394,0.23597538,0.43938807
alexnet_w3_mlp_simclrhn_probe2,1,46,NaN,clock,airplane,0,0046_ske_dnn_0_airplane_00_airplane-0047-sketch-50.png,airplane-0047-sketch-50.png,0.0,1.117189,1.2988,-0.12841833
alexnet_w3_mlp_simclrhn_probe2,1,47,NaN,airplane,airplane,0,0047_ske_dnn_0_airplane_00_airplane-0048-sketch-6.png,airplane-0048-sketch-6.png,1.0,1.0469947,0.3636576,0.4831923
alexnet_w3_mlp_simclrhn_probe2,1,48,NaN,knife,airplane,0,0048_ske_dnn_0_airplane_00_airplane-0049-sketch-7.png,airplane-0049-sketch-7.png,0.0,0.44527978,1.545603,-0.778046
alexnet_w3_mlp_simclrhn_probe2,1,49,NaN,clock,airplane,0,0049_ske_dnn_0_airplane_00_airplane-0050-sketch-8.png,airplane-0050-sketch-8.png,0.0,-1.8220999,2.1641238,-2.8186858
alexnet_w3_mlp_simclrhn_probe2,1,50,NaN,airplane,airplane,0,0050_ske_dnn_0_airplane_00_airplane-0051-sketch-9.png,airplane-0051-sketch-9.png,1.0,1.3608953,1.203194,0.111511625
alexnet_w3_mlp_simclrhn_probe2,1,51,NaN,bird,bear,0,0051_ske_dnn_0_bear_00_bear-0005-sketch-12.png,bear-0005-sketch-12.png,0.0,-2.8377936,-0.70427126,-1.5086281
alexnet_w3_mlp_simclrhn_probe2,1,52,NaN,clock,bear,0,0052_ske_dnn_0_bear_00_bear-0007-sketch-14.png,bear-0007-sketch-14.png,0.0,-4.482731,-1.7220265,-1.9521129
alexnet_w3_mlp_simclrhn_probe2,1,53,NaN,cat,bear,0,0053_ske_dnn_0_bear_00_bear-0017-sketch-23.png,bear-0017-sketch-23.png,0.0,-0.43024114,2.3626258,-1.9748552
alexnet_w3_mlp_simclrhn_probe2,1,54,NaN,elephant,bear,0,0054_ske_dnn_0_bear_00_bear-0022-sketch-28.png,bear-0022-sketch-28.png,0.0,-2.9843836,-0.047939196,-2.0763798
alexnet_w3_mlp_simclrhn_probe2,1,55,NaN,cat,bear,0,0055_ske_dnn_0_bear_00_bear-0023-sketch-29.png,bear-0023-sketch-29.png,0.0,-3.249051,0.40063548,-2.5807183
alexnet_w3_mlp_simclrhn_probe2,1,56,NaN,cat,bear,0,0056_ske_dnn_0_bear_00_bear-0026-sketch-31.png,bear-0026-sketch-31.png,0.0,-0.13813841,0.20980392,-0.2460324
alexnet_w3_mlp_simclrhn_probe2,1,57,NaN,cat,bear,0,0057_ske_dnn_0_bear_00_bear-0027-sketch-32.png,bear-0027-sketch-32.png,0.0,-3.5724843,1.6928211,-3.7231333
alexnet_w3_mlp_simclrhn_probe2,1,58,NaN,dog,bear,0,0058_ske_dnn_0_bear_00_bear-0030-sketch-35.png,bear-0030-sketch-35.png,0.0,-1.6041261,-0.5986678,-0.7109664
alexnet_w3_mlp_simclrhn_probe2,1,59,NaN,cat,bear,0,0059_ske_dnn_0_bear_00_bear-0033-sketch-38.png,bear-0033-sketch-38.png,0.0,-0.96312827,1.9825702,-2.0829234
alexnet_w3_mlp_simclrhn_probe2,1,60,NaN,cat,bear,0,0060_ske_dnn_0_bear_00_bear-0036-sketch-40.png,bear-0036-sketch-40.png,0.0,-3.4995556,-0.29220888,-2.2679367
alexnet_w3_mlp_simclrhn_probe2,1,61,NaN,bear,bear,0,0061_ske_dnn_0_bear_00_bear-0037-sketch-41.png,bear-0037-sketch-41.png,1.0,1.4181166,0.5530513,0.61169356
alexnet_w3_mlp_simclrhn_probe2,1,62,NaN,cat,bear,0,0062_ske_dnn_0_bear_00_bear-0038-sketch-42.png,bear-0038-sketch-42.png,0.0,-0.4052825,2.3038068,-1.9156154
alexnet_w3_mlp_simclrhn_probe2,1,63,NaN,cat,bear,0,0063_ske_dnn_0_bear_00_bear-0039-sketch-43.png,bear-0039-sketch-43.png,0.0,-0.8121925,0.030266462,-0.59570843
alexnet_w3_mlp_simclrhn_probe2,1,64,NaN,bear,bear,0,0064_ske_dnn_0_bear_00_bear-0041-sketch-45.png,bear-0041-sketch-45.png,1.0,-0.43519455,-0.51602817,0.057157997
alexnet_w3_mlp_simclrhn_probe2,1,65,NaN,bear,bear,0,0065_ske_dnn_0_bear_00_bear-0045-sketch-49.png,bear-0045-sketch-49.png,1.0,3.3115253,3.0542517,0.18191996
alexnet_w3_mlp_simclrhn_probe2,1,66,NaN,cat,bear,0,0066_ske_dnn_0_bear_00_bear-0048-sketch-7.png,bear-0048-sketch-7.png,0.0,-4.3550496,-0.6431938,-2.6246786
alexnet_w3_mlp_simclrhn_probe2,1,67,NaN,cat,bear,0,0067_ske_dnn_0_bear_00_bear-0049-sketch-8.png,bear-0049-sketch-8.png,0.0,-3.6270812,1.1037196,-3.3451812
alexnet_w3_mlp_simclrhn_probe2,1,68,NaN,cat,bear,0,0068_ske_dnn_0_bear_00_bear-0053-sketch-10.png,bear-0053-sketch-10.png,0.0,-2.0088859,1.8160807,-2.7046597
alexnet_w3_mlp_simclrhn_probe2,1,69,NaN,bear,bear,0,0069_ske_dnn_0_bear_00_bear-0059-sketch-16.png,bear-0059-sketch-16.png,1.0,0.59645504,-0.7202241,0.9310328
alexnet_w3_mlp_simclrhn_probe2,1,70,NaN,dog,bear,0,0070_ske_dnn_0_bear_00_bear-0068-sketch-24.png,bear-0068-sketch-24.png,0.0,-1.6225731,-1.2080193,-0.29313385
alexnet_w3_mlp_simclrhn_probe2,1,71,NaN,oven,bear,0,0071_ske_dnn_0_bear_00_bear-0070-sketch-26.png,bear-0070-sketch-26.png,0.0,-4.5410895,-1.1759843,-2.3794887
alexnet_w3_mlp_simclrhn_probe2,1,72,NaN,bear,bear,0,0072_ske_dnn_0_bear_00_bear-0073-sketch-29.png,bear-0073-sketch-29.png,1.0,1.3802302,0.86040187,0.36757413
alexnet_w3_mlp_simclrhn_probe2,1,73,NaN,bear,bear,0,0073_ske_dnn_0_bear_00_bear-0079-sketch-34.png,bear-0079-sketch-34.png,1.0,6.640008,-0.7519315,5.2268906
alexnet_w3_mlp_simclrhn_probe2,1,74,NaN,bear,bear,0,0074_ske_dnn_0_bear_00_bear-0081-sketch-36.png,bear-0081-sketch-36.png,1.0,1.5702027,-0.25426933,1.2900966
alexnet_w3_mlp_simclrhn_probe2,1,75,NaN,cat,bear,0,0075_ske_dnn_0_bear_00_bear-0085-sketch-4.png,bear-0085-sketch-4.png,0.0,0.6955719,1.7493033,-0.7451007
alexnet_w3_mlp_simclrhn_probe2,1,76,NaN,dog,bear,0,0076_ske_dnn_0_bear_00_bear-0086-sketch-40.png,bear-0086-sketch-40.png,0.0,-0.44784755,-0.28105903,-0.1179373
alexnet_w3_mlp_simclrhn_probe2,1,77,NaN,clock,bear,0,0077_ske_dnn_0_bear_00_bear-0087-sketch-41.png,bear-0087-sketch-41.png,0.0,-4.7316656,1.1717483,-4.174344
alexnet_w3_mlp_simclrhn_probe2,1,78,NaN,clock,bear,0,0078_ske_dnn_0_bear_00_bear-0090-sketch-44.png,bear-0090-sketch-44.png,0.0,-9.220253,2.221401,-8.090471
alexnet_w3_mlp_simclrhn_probe2,1,79,NaN,clock,bear,0,0079_ske_dnn_0_bear_00_bear-0103-sketch-1.png,bear-0103-sketch-1.png,0.0,-5.5155354,1.0910192,-4.67154
alexnet_w3_mlp_simclrhn_probe2,1,80,NaN,clock,bear,0,0080_ske_dnn_0_bear_00_bear-0107-sketch-13.png,bear-0107-sketch-13.png,0.0,-5.9819775,-0.33123174,-3.9956808
alexnet_w3_mlp_simclrhn_probe2,1,81,NaN,cat,bear,0,0081_ske_dnn_0_bear_00_bear-0110-sketch-16.png,bear-0110-sketch-16.png,0.0,-4.320114,-0.15593965,-2.9445162
alexnet_w3_mlp_simclrhn_probe2,1,82,NaN,cat,bear,0,0082_ske_dnn_0_bear_00_bear-0112-sketch-18.png,bear-0112-sketch-18.png,0.0,-1.6109343,-0.913281,-0.49331534
alexnet_w3_mlp_simclrhn_probe2,1,83,NaN,clock,bear,0,0083_ske_dnn_0_bear_00_bear-0117-sketch-22.png,bear-0117-sketch-22.png,0.0,-5.19653,1.7612276,-4.9198775
alexnet_w3_mlp_simclrhn_probe2,1,84,NaN,elephant,bear,0,0084_ske_dnn_0_bear_00_bear-0123-sketch-28.png,bear-0123-sketch-28.png,0.0,-0.46441144,0.098158,-0.39779666
alexnet_w3_mlp_simclrhn_probe2,1,85,NaN,clock,bear,0,0085_ske_dnn_0_bear_00_bear-0135-sketch-39.png,bear-0135-sketch-39.png,0.0,-4.9023776,2.3467066,-5.125877
alexnet_w3_mlp_simclrhn_probe2,1,86,NaN,clock,bear,0,0086_ske_dnn_0_bear_00_bear-0136-sketch-4.png,bear-0136-sketch-4.png,0.0,-3.054938,0.7631729,-2.6998122
alexnet_w3_mlp_simclrhn_probe2,1,87,NaN,clock,bear,0,0087_ske_dnn_0_bear_00_bear-0137-sketch-40.png,bear-0137-sketch-40.png,0.0,-6.1464686,0.096891284,-4.4147224
alexnet_w3_mlp_simclrhn_probe2,1,88,NaN,cat,bear,0,0088_ske_dnn_0_bear_00_bear-0148-sketch-50.png,bear-0148-sketch-50.png,0.0,-0.08482194,0.4393293,-0.3706309
alexnet_w3_mlp_simclrhn_probe2,1,89,NaN,bicycle,bear,0,0089_ske_dnn_0_bear_00_bear-0149-sketch-6.png,bear-0149-sketch-6.png,0.0,-5.262189,-0.2726741,-3.5281198
alexnet_w3_mlp_simclrhn_probe2,1,90,NaN,bear,bear,0,0090_ske_dnn_0_bear_00_bear-0161-sketch-16.png,bear-0161-sketch-16.png,1.0,1.5994604,1.2452106,0.2504924
alexnet_w3_mlp_simclrhn_probe2,1,91,NaN,cat,bear,0,0091_ske_dnn_0_bear_00_bear-0166-sketch-20.png,bear-0166-sketch-20.png,0.0,-4.513759,1.0262154,-3.9173536
alexnet_w3_mlp_simclrhn_probe2,1,92,NaN,clock,bear,0,0092_ske_dnn_0_bear_00_bear-0170-sketch-24.png,bear-0170-sketch-24.png,0.0,-9.96937,1.065791,-7.803037
alexnet_w3_mlp_simclrhn_probe2,1,93,NaN,bear,bear,0,0093_ske_dnn_0_bear_00_bear-0171-sketch-25.png,bear-0171-sketch-25.png,1.0,0.5974569,-0.16460568,0.5388596
alexnet_w3_mlp_simclrhn_probe2,1,94,NaN,cat,bear,0,0094_ske_dnn_0_bear_00_bear-0179-sketch-32.png,bear-0179-sketch-32.png,0.0,-3.3992734,-0.19282599,-2.2673006
alexnet_w3_mlp_simclrhn_probe2,1,95,NaN,clock,bear,0,0095_ske_dnn_0_bear_00_bear-0187-sketch-4.png,bear-0187-sketch-4.png,0.0,-6.0211973,2.3704903,-5.9338193
alexnet_w3_mlp_simclrhn_probe2,1,96,NaN,bear,bear,0,0096_ske_dnn_0_bear_00_bear-0188-sketch-40.png,bear-0188-sketch-40.png,1.0,0.64555717,-0.9846054,1.152699
alexnet_w3_mlp_simclrhn_probe2,1,97,NaN,cat,bear,0,0097_ske_dnn_0_bear_00_bear-0195-sketch-47.png,bear-0195-sketch-47.png,0.0,-5.8296237,-2.0496995,-2.67281
alexnet_w3_mlp_simclrhn_probe2,1,98,NaN,bear,bear,0,0098_ske_dnn_0_bear_00_bear-0198-sketch-5.png,bear-0198-sketch-5.png,1.0,0.60010767,-0.64311427,0.8790907
alexnet_w3_mlp_simclrhn_probe2,1,99,NaN,cat,bear,0,0099_ske_dnn_0_bear_00_bear-0199-sketch-50.png,bear-0199-sketch-50.png,0.0,-5.151871,-0.73482484,-3.1233237
alexnet_w3_mlp_simclrhn_probe2,1,100,NaN,keyboard,bear,0,0100_ske_dnn_0_bear_00_bear-0201-sketch-7.png,bear-0201-sketch-7.png,0.0,-1.3821865,0.7770672,-1.5268229
alexnet_w3_mlp_simclrhn_probe2,1,101,NaN,bicycle,bicycle,0,0101_ske_dnn_0_bicycle_00_bicycle-0002-sketch-1.png,bicycle-0002-sketch-1.png,1.0,13.309244,2.3976824,7.7156396
alexnet_w3_mlp_simclrhn_probe2,1,102,NaN,clock,bicycle,0,0102_ske_dnn_0_bicycle_00_bicycle-0003-sketch-10.png,bicycle-0003-sketch-10.png,0.0,-2.040141,1.2183465,-2.3040988
alexnet_w3_mlp_simclrhn_probe2,1,103,NaN,bicycle,bicycle,0,0103_ske_dnn_0_bicycle_00_bicycle-0004-sketch-11.png,bicycle-0004-sketch-11.png,1.0,7.6568356,2.003572,3.997461
alexnet_w3_mlp_simclrhn_probe2,1,104,NaN,bicycle,bicycle,0,0104_ske_dnn_0_bicycle_00_bicycle-0008-sketch-15.png,bicycle-0008-sketch-15.png,1.0,2.828434,-0.5754179,2.4068868
alexnet_w3_mlp_simclrhn_probe2,1,105,NaN,bicycle,bicycle,0,0105_ske_dnn_0_bicycle_00_bicycle-0011-sketch-18.png,bicycle-0011-sketch-18.png,1.0,2.7009315,-0.3314762,2.144236
alexnet_w3_mlp_simclrhn_probe2,1,106,NaN,bicycle,bicycle,0,0106_ske_dnn_0_bicycle_00_bicycle-0013-sketch-2.png,bicycle-0013-sketch-2.png,1.0,10.26458,-1.6037273,8.39216
alexnet_w3_mlp_simclrhn_probe2,1,107,NaN,clock,bicycle,0,0107_ske_dnn_0_bicycle_00_bicycle-0016-sketch-22.png,bicycle-0016-sketch-22.png,0.0,-1.9230132,1.1714448,-2.1881123
alexnet_w3_mlp_simclrhn_probe2,1,108,NaN,bicycle,bicycle,0,0108_ske_dnn_0_bicycle_00_bicycle-0019-sketch-25.png,bicycle-0019-sketch-25.png,1.0,8.17556,1.8578633,4.467286
alexnet_w3_mlp_simclrhn_probe2,1,109,NaN,bicycle,bicycle,0,0109_ske_dnn_0_bicycle_00_bicycle-0020-sketch-26.png,bicycle-0020-sketch-26.png,1.0,2.4760375,-0.50615865,2.108731
alexnet_w3_mlp_simclrhn_probe2,1,110,NaN,bicycle,bicycle,0,0110_ske_dnn_0_bicycle_00_bicycle-0022-sketch-28.png,bicycle-0022-sketch-28.png,1.0,2.8791032,-1.1292832,2.8343575
alexnet_w3_mlp_simclrhn_probe2,1,111,NaN,clock,bicycle,0,0111_ske_dnn_0_bicycle_00_bicycle-0023-sketch-29.png,bicycle-0023-sketch-29.png,0.0,1.0733318,2.6442935,-1.1108377
alexnet_w3_mlp_simclrhn_probe2,1,112,NaN,clock,bicycle,0,0112_ske_dnn_0_bicycle_00_bicycle-0025-sketch-30.png,bicycle-0025-sketch-30.png,0.0,0.38088945,0.595953,-0.15207289
alexnet_w3_mlp_simclrhn_probe2,1,113,NaN,oven,bicycle,0,0113_ske_dnn_0_bicycle_00_bicycle-0026-sketch-31.png,bicycle-0026-sketch-31.png,0.0,0.42315522,0.56712717,-0.10180354
alexnet_w3_mlp_simclrhn_probe2,1,114,NaN,bicycle,bicycle,0,0114_ske_dnn_0_bicycle_00_bicycle-0031-sketch-36.png,bicycle-0031-sketch-36.png,1.0,0.5638947,-1.3277798,1.3376158
alexnet_w3_mlp_simclrhn_probe2,1,115,NaN,bicycle,bicycle,0,0115_ske_dnn_0_bicycle_00_bicycle-0034-sketch-39.png,bicycle-0034-sketch-39.png,1.0,0.3522678,-0.064017296,0.29435802
alexnet_w3_mlp_simclrhn_probe2,1,116,NaN,clock,bicycle,0,0116_ske_dnn_0_bicycle_00_bicycle-0037-sketch-41.png,bicycle-0037-sketch-41.png,0.0,1.131866,2.3899276,-0.88958395
alexnet_w3_mlp_simclrhn_probe2,1,117,NaN,clock,bicycle,0,0117_ske_dnn_0_bicycle_00_bicycle-0038-sketch-42.png,bicycle-0038-sketch-42.png,0.0,0.4587099,0.6433313,-0.13054705
alexnet_w3_mlp_simclrhn_probe2,1,118,NaN,bicycle,bicycle,0,0118_ske_dnn_0_bicycle_00_bicycle-0039-sketch-43.png,bicycle-0039-sketch-43.png,1.0,0.36403367,0.24808034,0.08199138
alexnet_w3_mlp_simclrhn_probe2,1,119,NaN,bicycle,bicycle,0,0119_ske_dnn_0_bicycle_00_bicycle-0040-sketch-44.png,bicycle-0040-sketch-44.png,1.0,0.6251023,-0.6764238,0.92031795
alexnet_w3_mlp_simclrhn_probe2,1,120,NaN,bicycle,bicycle,0,0120_ske_dnn_0_bicycle_00_bicycle-0044-sketch-48.png,bicycle-0044-sketch-48.png,1.0,5.6550627,-1.9736226,5.394295
alexnet_w3_mlp_simclrhn_probe2,1,121,NaN,bicycle,bicycle,0,0121_ske_dnn_0_bicycle_00_bicycle-0045-sketch-49.png,bicycle-0045-sketch-49.png,1.0,13.309244,2.3976824,7.7156396
alexnet_w3_mlp_simclrhn_probe2,1,122,NaN,clock,bicycle,0,0122_ske_dnn_0_bicycle_00_bicycle-0046-sketch-5.png,bicycle-0046-sketch-5.png,0.0,1.574267,2.441747,-0.61340094
alexnet_w3_mlp_simclrhn_probe2,1,123,NaN,bicycle,bicycle,0,0123_ske_dnn_0_bicycle_00_bicycle-0047-sketch-50.png,bicycle-0047-sketch-50.png,1.0,10.26458,-1.6037273,8.39216
alexnet_w3_mlp_simclrhn_probe2,1,124,NaN,bicycle,bicycle,0,0124_ske_dnn_0_bicycle_00_bicycle-0048-sketch-6.png,bicycle-0048-sketch-6.png,1.0,1.9324527,0.056687634,1.3263662
alexnet_w3_mlp_simclrhn_probe2,1,125,NaN,bicycle,bicycle,0,0125_ske_dnn_0_bicycle_00_bicycle-0053-sketch-1.png,bicycle-0053-sketch-1.png,1.0,3.4793906,-2.2531626,4.0535274
alexnet_w3_mlp_simclrhn_probe2,1,126,NaN,bicycle,bicycle,0,0126_ske_dnn_0_bicycle_00_bicycle-0054-sketch-10.png,bicycle-0054-sketch-10.png,1.0,2.8154974,-1.2096053,2.8461773
alexnet_w3_mlp_simclrhn_probe2,1,127,NaN,bicycle,bicycle,0,0127_ske_dnn_0_bicycle_00_bicycle-0056-sketch-12.png,bicycle-0056-sketch-12.png,1.0,2.978284,-0.95382804,2.7804232
alexnet_w3_mlp_simclrhn_probe2,1,128,NaN,clock,bicycle,0,0128_ske_dnn_0_bicycle_00_bicycle-0057-sketch-13.png,bicycle-0057-sketch-13.png,0.0,-1.5834043,0.37276062,-1.3832176
alexnet_w3_mlp_simclrhn_probe2,1,129,NaN,bicycle,bicycle,0,0129_ske_dnn_0_bicycle_00_bicycle-0058-sketch-14.png,bicycle-0058-sketch-14.png,1.0,1.442451,-0.56170887,1.4171551
alexnet_w3_mlp_simclrhn_probe2,1,130,NaN,clock,bicycle,0,0130_ske_dnn_0_bicycle_00_bicycle-0059-sketch-15.png,bicycle-0059-sketch-15.png,0.0,-3.0543833,2.9179296,-4.223063
alexnet_w3_mlp_simclrhn_probe2,1,131,NaN,bicycle,bicycle,0,0131_ske_dnn_0_bicycle_00_bicycle-0060-sketch-16.png,bicycle-0060-sketch-16.png,1.0,1.9308542,1.0256575,0.64007074
alexnet_w3_mlp_simclrhn_probe2,1,132,NaN,bicycle,bicycle,0,0132_ske_dnn_0_bicycle_00_bicycle-0062-sketch-18.png,bicycle-0062-sketch-18.png,1.0,3.1732452,1.714187,1.0317099
alexnet_w3_mlp_simclrhn_probe2,1,133,NaN,bicycle,bicycle,0,0133_ske_dnn_0_bicycle_00_bicycle-0066-sketch-21.png,bicycle-0066-sketch-21.png,1.0,4.9197636,1.1532364,2.663337
alexnet_w3_mlp_simclrhn_probe2,1,134,NaN,bicycle,bicycle,0,0134_ske_dnn_0_bicycle_00_bicycle-0068-sketch-23.png,bicycle-0068-sketch-23.png,1.0,14.220091,-0.1899674,10.18945
alexnet_w3_mlp_simclrhn_probe2,1,135,NaN,clock,bicycle,0,0135_ske_dnn_0_bicycle_00_bicycle-0070-sketch-25.png,bicycle-0070-sketch-25.png,0.0,0.9098353,2.798603,-1.3355604
alexnet_w3_mlp_simclrhn_probe2,1,136,NaN,clock,bicycle,0,0136_ske_dnn_0_bicycle_00_bicycle-0071-sketch-26.png,bicycle-0071-sketch-26.png,0.0,0.6845354,3.0742233,-1.6897646
alexnet_w3_mlp_simclrhn_probe2,1,137,NaN,bicycle,bicycle,0,0137_ske_dnn_0_bicycle_00_bicycle-0075-sketch-3.png,bicycle-0075-sketch-3.png,1.0,4.909092,1.3692083,2.5030758
alexnet_w3_mlp_simclrhn_probe2,1,138,NaN,bicycle,bicycle,0,0138_ske_dnn_0_bicycle_00_bicycle-0078-sketch-32.png,bicycle-0078-sketch-32.png,1.0,12.460478,3.2118518,6.5397663
alexnet_w3_mlp_simclrhn_probe2,1,139,NaN,bicycle,bicycle,0,0139_ske_dnn_0_bicycle_00_bicycle-0080-sketch-34.png,bicycle-0080-sketch-34.png,1.0,5.227351,2.3388238,2.0424974
alexnet_w3_mlp_simclrhn_probe2,1,140,NaN,bicycle,bicycle,0,0140_ske_dnn_0_bicycle_00_bicycle-0081-sketch-35.png,bicycle-0081-sketch-35.png,1.0,5.0893188,1.5001717,2.5379102
alexnet_w3_mlp_simclrhn_probe2,1,141,NaN,clock,bicycle,0,0141_ske_dnn_0_bicycle_00_bicycle-0083-sketch-37.png,bicycle-0083-sketch-37.png,0.0,-0.16589211,1.931645,-1.4831827
alexnet_w3_mlp_simclrhn_probe2,1,142,NaN,clock,bicycle,0,0142_ske_dnn_0_bicycle_00_bicycle-0084-sketch-38.png,bicycle-0084-sketch-38.png,0.0,-1.1808664,2.4802563,-2.5888047
alexnet_w3_mlp_simclrhn_probe2,1,143,NaN,bicycle,bicycle,0,0143_ske_dnn_0_bicycle_00_bicycle-0087-sketch-40.png,bicycle-0087-sketch-40.png,1.0,12.077225,-0.45392573,8.860862
alexnet_w3_mlp_simclrhn_probe2,1,144,NaN,bicycle,bicycle,0,0144_ske_dnn_0_bicycle_00_bicycle-0090-sketch-43.png,bicycle-0090-sketch-43.png,1.0,7.4086676,3.7384272,2.595252
alexnet_w3_mlp_simclrhn_probe2,1,145,NaN,clock,bicycle,0,0145_ske_dnn_0_bicycle_00_bicycle-0094-sketch-47.png,bicycle-0094-sketch-47.png,0.0,-2.6347106,3.1193044,-4.068703
alexnet_w3_mlp_simclrhn_probe2,1,146,NaN,bicycle,bicycle,0,0146_ske_dnn_0_bicycle_00_bicycle-0095-sketch-48.png,bicycle-0095-sketch-48.png,1.0,2.5768685,1.1774256,0.9895556
alexnet_w3_mlp_simclrhn_probe2,1,147,NaN,bicycle,bicycle,0,0147_ske_dnn_0_bicycle_00_bicycle-0098-sketch-50.png,bicycle-0098-sketch-50.png,1.0,3.4014254,1.8243756,1.1151426
alexnet_w3_mlp_simclrhn_probe2,1,148,NaN,clock,bicycle,0,0148_ske_dnn_0_bicycle_00_bicycle-0099-sketch-6.png,bicycle-0099-sketch-6.png,0.0,-1.1043733,2.5339708,-2.5726979
alexnet_w3_mlp_simclrhn_probe2,1,149,NaN,bicycle,bicycle,0,0149_ske_dnn_0_bicycle_00_bicycle-0101-sketch-8.png,bicycle-0101-sketch-8.png,1.0,12.458912,-0.05168718,8.84633
alexnet_w3_mlp_simclrhn_probe2,1,150,NaN,bicycle,bicycle,0,0150_ske_dnn_0_bicycle_00_bicycle-0102-sketch-9.png,bicycle-0102-sketch-9.png,1.0,2.072675,-0.2951302,1.6742911
alexnet_w3_mlp_simclrhn_probe2,1,151,NaN,clock,bird,0,0151_ske_dnn_0_bird_00_bird-0030-sketch-35.png,bird-0030-sketch-35.png,0.0,-4.324817,1.5979676,-4.188041
alexnet_w3_mlp_simclrhn_probe2,1,152,NaN,bird,bird,0,0152_ske_dnn_0_bird_00_bird-0047-sketch-50.png,bird-0047-sketch-50.png,1.0,-0.35667944,-1.3775088,0.7218354
alexnet_w3_mlp_simclrhn_probe2,1,153,NaN,bird,bird,0,0153_ske_dnn_0_bird_00_bird-0072-sketch-27.png,bird-0072-sketch-27.png,1.0,-0.57789946,-1.2745823,0.49262914
alexnet_w3_mlp_simclrhn_probe2,1,154,NaN,bird,bird,0,0154_ske_dnn_0_bird_00_bird-0228-sketch-3.png,bird-0228-sketch-3.png,1.0,4.7272468,-3.5941346,5.884105
alexnet_w3_mlp_simclrhn_probe2,1,155,NaN,bird,bird,0,0155_ske_dnn_0_bird_00_bird-0274-sketch-25.png,bird-0274-sketch-25.png,1.0,-1.09223,-1.7931863,0.495651
alexnet_w3_mlp_simclrhn_probe2,1,156,NaN,clock,bird,0,0156_ske_dnn_0_bird_00_bird-0292-sketch-41.png,bird-0292-sketch-41.png,0.0,-1.6646398,0.42032453,-1.4742924
alexnet_w3_mlp_simclrhn_probe2,1,157,NaN,clock,bird,0,0157_ske_dnn_0_bird_00_bird-0316-sketch-17.png,bird-0316-sketch-17.png,0.0,-2.5147004,-0.2980493,-1.5674092
alexnet_w3_mlp_simclrhn_probe2,1,158,NaN,bicycle,bird,0,0158_ske_dnn_0_bird_00_bird-0325-sketch-25.png,bird-0325-sketch-25.png,0.0,-1.8388985,-0.17602247,-1.175831
alexnet_w3_mlp_simclrhn_probe2,1,159,NaN,clock,bird,0,0159_ske_dnn_0_bird_00_bird-0357-sketch-9.png,bird-0357-sketch-9.png,0.0,-0.9230467,-0.5565627,-0.25914332
alexnet_w3_mlp_simclrhn_probe2,1,160,NaN,bird,bird,0,0160_ske_dnn_0_bird_00_bird-0384-sketch-32.png,bird-0384-sketch-32.png,1.0,1.3775028,-1.8672256,2.2943697
alexnet_w3_mlp_simclrhn_probe2,1,161,NaN,bird,bird,0,0161_ske_dnn_0_bird_00_bird-0415-sketch-14.png,bird-0415-sketch-14.png,1.0,2.6213624,-1.5567868,2.9543977
alexnet_w3_mlp_simclrhn_probe2,1,162,NaN,bird,bird,0,0162_ske_dnn_0_bird_00_bird-0474-sketch-21.png,bird-0474-sketch-21.png,1.0,0.7211986,-1.3385748,1.4564798
alexnet_w3_mlp_simclrhn_probe2,1,163,NaN,bird,bird,0,0163_ske_dnn_0_bird_00_bird-0479-sketch-26.png,bird-0479-sketch-26.png,1.0,0.7544337,-1.1185068,1.324369
alexnet_w3_mlp_simclrhn_probe2,1,164,NaN,bird,bird,0,0164_ske_dnn_0_bird_00_bird-0491-sketch-37.png,bird-0491-sketch-37.png,1.0,1.296182,-0.15203045,1.0240409
alexnet_w3_mlp_simclrhn_probe2,1,165,NaN,bird,bird,0,0165_ske_dnn_0_bird_00_bird-0578-sketch-23.png,bird-0578-sketch-23.png,1.0,0.08367676,-1.131514,0.8592696
alexnet_w3_mlp_simclrhn_probe2,1,166,NaN,bird,bird,0,0166_ske_dnn_0_bird_00_bird-0640-sketch-33.png,bird-0640-sketch-33.png,1.0,-0.67472196,-1.7835801,0.7840811
alexnet_w3_mlp_simclrhn_probe2,1,167,NaN,clock,bird,0,0167_ske_dnn_0_bird_00_bird-0646-sketch-39.png,bird-0646-sketch-39.png,0.0,-3.630776,1.060012,-3.3168879
alexnet_w3_mlp_simclrhn_probe2,1,168,NaN,bottle,bird,0,0168_ske_dnn_0_bird_00_bird-0685-sketch-28.png,bird-0685-sketch-28.png,0.0,-2.9240265,-1.1143858,-1.2796092
alexnet_w3_mlp_simclrhn_probe2,1,169,NaN,bird,bird,0,0169_ske_dnn_0_bird_00_bird-0694-sketch-36.png,bird-0694-sketch-36.png,1.0,-1.2092973,-1.3012029,0.06498707
alexnet_w3_mlp_simclrhn_probe2,1,170,NaN,bird,bird,0,0170_ske_dnn_0_bird_00_bird-0733-sketch-25.png,bird-0733-sketch-25.png,1.0,1.0012499,-1.8970438,2.0494032
alexnet_w3_mlp_simclrhn_probe2,1,171,NaN,bird,bird,0,0171_ske_dnn_0_bird_00_bird-0748-sketch-39.png,bird-0748-sketch-39.png,1.0,5.258427,-4.983026,7.2418013
alexnet_w3_mlp_simclrhn_probe2,1,172,NaN,bird,bird,0,0172_ske_dnn_0_bird_00_bird-0749-sketch-4.png,bird-0749-sketch-4.png,1.0,-0.7705482,-2.3962605,1.1495522
alexnet_w3_mlp_simclrhn_probe2,1,173,NaN,bird,bird,0,0173_ske_dnn_0_bird_00_bird-0809-sketch-48.png,bird-0809-sketch-48.png,1.0,0.8860711,-4.031757,3.4774296
alexnet_w3_mlp_simclrhn_probe2,1,174,NaN,cat,bird,0,0174_ske_dnn_0_bird_00_bird-0834-sketch-24.png,bird-0834-sketch-24.png,0.0,-1.1481544,-0.966033,-0.12877928
alexnet_w3_mlp_simclrhn_probe2,1,175,NaN,elephant,bird,0,0175_ske_dnn_0_bird_00_bird-0880-sketch-2.png,bird-0880-sketch-2.png,0.0,-2.027395,-1.5657341,-0.32644352
alexnet_w3_mlp_simclrhn_probe2,1,176,NaN,bird,bird,0,0176_ske_dnn_0_bird_00_bird-0939-sketch-27.png,bird-0939-sketch-27.png,1.0,-0.50882995,-1.5173035,0.71309847
alexnet_w3_mlp_simclrhn_probe2,1,177,NaN,bird,bird,0,0177_ske_dnn_0_bird_00_bird-0954-sketch-40.png,bird-0954-sketch-40.png,1.0,1.0071148,-1.0976009,1.4882588
alexnet_w3_mlp_simclrhn_probe2,1,178,NaN,bicycle,bird,0,0178_ske_dnn_0_bird_00_bird-1033-sketch-20.png,bird-1033-sketch-20.png,0.0,-2.416132,0.01989904,-1.7225342
alexnet_w3_mlp_simclrhn_probe2,1,179,NaN,bird,bird,0,0179_ske_dnn_0_bird_00_bird-1081-sketch-18.png,bird-1081-sketch-18.png,1.0,0.90213674,-1.5544732,1.7370856
alexnet_w3_mlp_simclrhn_probe2,1,180,NaN,chair,bird,0,0180_ske_dnn_0_bird_00_bird-1096-sketch-31.png,bird-1096-sketch-31.png,0.0,-1.8553807,-0.6419066,-0.8580557
alexnet_w3_mlp_simclrhn_probe2,1,181,NaN,bottle,bird,0,0181_ske_dnn_0_bird_00_bird-1148-sketch-32.png,bird-1148-sketch-32.png,0.0,-3.5796063,-1.6667644,-1.3525835
alexnet_w3_mlp_simclrhn_probe2,1,182,NaN,bird,bird,0,0182_ske_dnn_0_bird_00_bird-1201-sketch-34.png,bird-1201-sketch-34.png,1.0,5.2534213,-5.5162897,7.6153355
alexnet_w3_mlp_simclrhn_probe2,1,183,NaN,bird,bird,0,0183_ske_dnn_0_bird_00_bird-1342-sketch-24.png,bird-1342-sketch-24.png,1.0,4.2120914,-0.18600374,3.109923
alexnet_w3_mlp_simclrhn_probe2,1,184,NaN,bird,bird,0,0184_ske_dnn_0_bird_00_bird-1510-sketch-39.png,bird-1510-sketch-39.png,1.0,-0.22399469,-0.78783065,0.39869225
alexnet_w3_mlp_simclrhn_probe2,1,185,NaN,clock,bird,0,0185_ske_dnn_0_bird_00_bird-1562-sketch-40.png,bird-1562-sketch-40.png,0.0,-5.1370378,0.9270115,-4.2879305
alexnet_w3_mlp_simclrhn_probe2,1,186,NaN,bird,bird,0,0186_ske_dnn_0_bird_00_bird-1565-sketch-43.png,bird-1565-sketch-43.png,1.0,-1.3850641,-1.7505732,0.2584539
alexnet_w3_mlp_simclrhn_probe2,1,187,NaN,bicycle,bird,0,0187_ske_dnn_0_bird_00_bird-1702-sketch-29.png,bird-1702-sketch-29.png,0.0,-1.2757173,-0.5491328,-0.5137728
alexnet_w3_mlp_simclrhn_probe2,1,188,NaN,bird,bird,0,0188_ske_dnn_0_bird_00_bird-1721-sketch-46.png,bird-1721-sketch-46.png,1.0,1.4730462,0.20378555,0.89750284
alexnet_w3_mlp_simclrhn_probe2,1,189,NaN,bird,bird,0,0189_ske_dnn_0_bird_00_bird-1740-sketch-17.png,bird-1740-sketch-17.png,1.0,-0.37368175,-0.73437905,0.25505152
alexnet_w3_mlp_simclrhn_probe2,1,190,NaN,bird,bird,0,0190_ske_dnn_0_bird_00_bird-1749-sketch-25.png,bird-1749-sketch-25.png,1.0,1.0512534,-0.9551575,1.418747
alexnet_w3_mlp_simclrhn_probe2,1,191,NaN,clock,bird,0,0191_ske_dnn_0_bird_00_bird-1756-sketch-31.png,bird-1756-sketch-31.png,0.0,-1.2928054,-0.66686106,-0.44260952
alexnet_w3_mlp_simclrhn_probe2,1,192,NaN,bird,bird,0,0192_ske_dnn_0_bird_00_bird-1860-sketch-33.png,bird-1860-sketch-33.png,1.0,2.7079258,-2.7602024,3.8665507
alexnet_w3_mlp_simclrhn_probe2,1,193,NaN,bird,bird,0,0193_ske_dnn_0_bird_00_bird-1937-sketch-10.png,bird-1937-sketch-10.png,1.0,4.879761,-3.7644925,6.1124105
alexnet_w3_mlp_simclrhn_probe2,1,194,NaN,bird,bird,0,0194_ske_dnn_0_bird_00_bird-1948-sketch-20.png,bird-1948-sketch-20.png,1.0,-0.9765725,-1.35715,0.2691089
alexnet_w3_mlp_simclrhn_probe2,1,195,NaN,bird,bird,0,0195_ske_dnn_0_bird_00_bird-2010-sketch-30.png,bird-2010-sketch-30.png,1.0,-1.6591324,-2.2048032,0.38584757
alexnet_w3_mlp_simclrhn_probe2,1,196,NaN,bird,bird,0,0196_ske_dnn_0_bird_00_bird-2169-sketch-36.png,bird-2169-sketch-36.png,1.0,1.0956069,-1.676828,1.9604076
alexnet_w3_mlp_simclrhn_probe2,1,197,NaN,bird,bird,0,0197_ske_dnn_0_bird_00_bird-2262-sketch-28.png,bird-2262-sketch-28.png,1.0,0.20828624,-0.97253805,0.83496886
alexnet_w3_mlp_simclrhn_probe2,1,198,NaN,clock,bird,0,0198_ske_dnn_0_bird_00_bird-2312-sketch-27.png,bird-2312-sketch-27.png,0.0,-2.0425942,0.92902213,-2.10125
alexnet_w3_mlp_simclrhn_probe2,1,199,NaN,knife,bird,0,0199_ske_dnn_0_bird_00_bird-2313-sketch-28.png,bird-2313-sketch-28.png,0.0,-4.679282,-0.71561086,-2.802739
alexnet_w3_mlp_simclrhn_probe2,1,200,NaN,bird,bird,0,0200_ske_dnn_0_bird_00_bird-2372-sketch-36.png,bird-2372-sketch-36.png,1.0,0.5691814,-1.8522246,1.7121927
alexnet_w3_mlp_simclrhn_probe2,1,201,NaN,knife,boat,0,0201_ske_dnn_0_boat_00_boat-0001-sketch-0.png,boat-0001-sketch-0.png,0.0,-3.170569,-1.13036,-1.4426455
alexnet_w3_mlp_simclrhn_probe2,1,202,NaN,boat,boat,0,0202_ske_dnn_0_boat_00_boat-0002-sketch-1.png,boat-0002-sketch-1.png,1.0,4.7487817,0.9377858,2.694781
alexnet_w3_mlp_simclrhn_probe2,1,203,NaN,knife,boat,0,0203_ske_dnn_0_boat_00_boat-0010-sketch-17.png,boat-0010-sketch-17.png,0.0,-1.4806143,0.8439295,-1.6437008
alexnet_w3_mlp_simclrhn_probe2,1,204,NaN,chair,boat,0,0204_ske_dnn_0_boat_00_boat-0016-sketch-22.png,boat-0016-sketch-22.png,0.0,-2.3835282,0.068202674,-1.7336357
alexnet_w3_mlp_simclrhn_probe2,1,205,NaN,clock,boat,0,0205_ske_dnn_0_boat_00_boat-0029-sketch-34.png,boat-0029-sketch-34.png,0.0,-3.899302,1.9336001,-4.1244845
alexnet_w3_mlp_simclrhn_probe2,1,206,NaN,airplane,boat,0,0206_ske_dnn_0_boat_00_boat-0034-sketch-39.png,boat-0034-sketch-39.png,0.0,-1.0000199,1.6775377,-1.8933191
alexnet_w3_mlp_simclrhn_probe2,1,207,NaN,knife,boat,0,0207_ske_dnn_0_boat_00_boat-0036-sketch-40.png,boat-0036-sketch-40.png,0.0,-4.153624,2.4894423,-4.697357
alexnet_w3_mlp_simclrhn_probe2,1,208,NaN,knife,boat,0,0208_ske_dnn_0_boat_00_boat-0051-sketch-9.png,boat-0051-sketch-9.png,0.0,-2.7437065,0.7436075,-2.4659035
alexnet_w3_mlp_simclrhn_probe2,1,209,NaN,boat,boat,0,0209_ske_dnn_0_boat_00_boat-0052-sketch-0.png,boat-0052-sketch-0.png,1.0,3.0081623,2.8452003,0.11523151
alexnet_w3_mlp_simclrhn_probe2,1,210,NaN,boat,boat,0,0210_ske_dnn_0_boat_00_boat-0059-sketch-15.png,boat-0059-sketch-15.png,1.0,2.1120677,1.2248268,0.62737405
alexnet_w3_mlp_simclrhn_probe2,1,211,NaN,chair,boat,0,0211_ske_dnn_0_boat_00_boat-0064-sketch-2.png,boat-0064-sketch-2.png,0.0,-3.4029756,1.1494323,-3.2190385
alexnet_w3_mlp_simclrhn_probe2,1,212,NaN,airplane,boat,0,0212_ske_dnn_0_boat_00_boat-0065-sketch-20.png,boat-0065-sketch-20.png,0.0,0.5257406,2.3588414,-1.296198
alexnet_w3_mlp_simclrhn_probe2,1,213,NaN,airplane,boat,0,0213_ske_dnn_0_boat_00_boat-0067-sketch-22.png,boat-0067-sketch-22.png,0.0,1.1794608,2.0251935,-0.59802336
alexnet_w3_mlp_simclrhn_probe2,1,214,NaN,clock,boat,0,0214_ske_dnn_0_boat_00_boat-0068-sketch-23.png,boat-0068-sketch-23.png,0.0,-4.562393,2.5931635,-5.059743
alexnet_w3_mlp_simclrhn_probe2,1,215,NaN,chair,boat,0,0215_ske_dnn_0_boat_00_boat-0070-sketch-25.png,boat-0070-sketch-25.png,0.0,-2.002803,0.8648416,-2.0277312
alexnet_w3_mlp_simclrhn_probe2,1,216,NaN,bicycle,boat,0,0216_ske_dnn_0_boat_00_boat-0074-sketch-29.png,boat-0074-sketch-29.png,0.0,-1.1097939,0.042023614,-0.814458
alexnet_w3_mlp_simclrhn_probe2,1,217,NaN,airplane,boat,0,0217_ske_dnn_0_boat_00_boat-0079-sketch-33.png,boat-0079-sketch-33.png,0.0,-1.4918051,0.10995419,-1.1326149
alexnet_w3_mlp_simclrhn_probe2,1,218,NaN,chair,boat,0,0218_ske_dnn_0_boat_00_boat-0080-sketch-34.png,boat-0080-sketch-34.png,0.0,-1.6090002,1.9610114,-2.5243795
alexnet_w3_mlp_simclrhn_probe2,1,219,NaN,chair,boat,0,0219_ske_dnn_0_boat_00_boat-0085-sketch-39.png,boat-0085-sketch-39.png,0.0,-0.4497652,0.6189326,-0.7556835
alexnet_w3_mlp_simclrhn_probe2,1,220,NaN,knife,boat,0,0220_ske_dnn_0_boat_00_boat-0088-sketch-41.png,boat-0088-sketch-41.png,0.0,-1.0045391,-0.1456871,-0.6073001
alexnet_w3_mlp_simclrhn_probe2,1,221,NaN,boat,boat,0,0221_ske_dnn_0_boat_00_boat-0094-sketch-47.png,boat-0094-sketch-47.png,1.0,4.550952,2.4791121,1.465012
alexnet_w3_mlp_simclrhn_probe2,1,222,NaN,chair,boat,0,0222_ske_dnn_0_boat_00_boat-0099-sketch-6.png,boat-0099-sketch-6.png,0.0,-1.0388384,1.3689548,-1.7025669
alexnet_w3_mlp_simclrhn_probe2,1,223,NaN,airplane,boat,0,0223_ske_dnn_0_boat_00_boat-0107-sketch-12.png,boat-0107-sketch-12.png,0.0,-0.8326658,0.71752405,-1.0961498
alexnet_w3_mlp_simclrhn_probe2,1,224,NaN,airplane,boat,0,0224_ske_dnn_0_boat_00_boat-0108-sketch-13.png,boat-0108-sketch-13.png,0.0,0.5535276,1.05969,-0.35791087
alexnet_w3_mlp_simclrhn_probe2,1,225,NaN,knife,boat,0,0225_ske_dnn_0_boat_00_boat-0110-sketch-15.png,boat-0110-sketch-15.png,0.0,-3.8347542,0.056982286,-2.7518733
alexnet_w3_mlp_simclrhn_probe2,1,226,NaN,knife,boat,0,0226_ske_dnn_0_boat_00_boat-0113-sketch-18.png,boat-0113-sketch-18.png,0.0,-3.0682688,-0.6820848,-1.6872869
alexnet_w3_mlp_simclrhn_probe2,1,227,NaN,knife,boat,0,0227_ske_dnn_0_boat_00_boat-0115-sketch-2.png,boat-0115-sketch-2.png,0.0,-3.4715793,-0.0081706345,-2.449
alexnet_w3_mlp_simclrhn_probe2,1,228,NaN,bicycle,boat,0,0228_ske_dnn_0_boat_00_boat-0123-sketch-27.png,boat-0123-sketch-27.png,0.0,-1.4584464,0.16863397,-1.1505195
alexnet_w3_mlp_simclrhn_probe2,1,229,NaN,knife,boat,0,0229_ske_dnn_0_boat_00_boat-0124-sketch-28.png,boat-0124-sketch-28.png,0.0,-3.9873328,-0.17011294,-2.6991823
alexnet_w3_mlp_simclrhn_probe2,1,230,NaN,clock,boat,0,0230_ske_dnn_0_boat_00_boat-0125-sketch-29.png,boat-0125-sketch-29.png,0.0,-5.1121793,1.8852768,-4.947949
alexnet_w3_mlp_simclrhn_probe2,1,231,NaN,clock,boat,0,0231_ske_dnn_0_boat_00_boat-0126-sketch-3.png,boat-0126-sketch-3.png,0.0,-4.352707,1.5713106,-4.188913
alexnet_w3_mlp_simclrhn_probe2,1,232,NaN,knife,boat,0,0232_ske_dnn_0_boat_00_boat-0128-sketch-31.png,boat-0128-sketch-31.png,0.0,-3.9641995,-0.37831268,-2.535605
alexnet_w3_mlp_simclrhn_probe2,1,233,NaN,clock,boat,0,0233_ske_dnn_0_boat_00_boat-0130-sketch-33.png,boat-0130-sketch-33.png,0.0,-3.621032,-0.35087132,-2.312353
alexnet_w3_mlp_simclrhn_probe2,1,234,NaN,oven,boat,0,0234_ske_dnn_0_boat_00_boat-0132-sketch-35.png,boat-0132-sketch-35.png,0.0,-3.1360736,-0.6897857,-1.7297868
alexnet_w3_mlp_simclrhn_probe2,1,235,NaN,bicycle,boat,0,0235_ske_dnn_0_boat_00_boat-0146-sketch-48.png,boat-0146-sketch-48.png,0.0,-2.4040635,-0.46187204,-1.3733367
alexnet_w3_mlp_simclrhn_probe2,1,236,NaN,clock,boat,0,0236_ske_dnn_0_boat_00_boat-0152-sketch-8.png,boat-0152-sketch-8.png,0.0,-1.8432696,0.5798878,-1.7134311
alexnet_w3_mlp_simclrhn_probe2,1,237,NaN,clock,boat,0,0237_ske_dnn_0_boat_00_boat-0165-sketch-19.png,boat-0165-sketch-19.png,0.0,-2.1378326,-0.11958545,-1.4271163
alexnet_w3_mlp_simclrhn_probe2,1,238,NaN,bicycle,boat,0,0238_ske_dnn_0_boat_00_boat-0166-sketch-2.png,boat-0166-sketch-2.png,0.0,-2.4466567,-1.4593496,-0.69813156
alexnet_w3_mlp_simclrhn_probe2,1,239,NaN,airplane,boat,0,0239_ske_dnn_0_boat_00_boat-0173-sketch-26.png,boat-0173-sketch-26.png,0.0,-0.74852645,1.6043127,-1.6637084
alexnet_w3_mlp_simclrhn_probe2,1,240,NaN,car,boat,0,0240_ske_dnn_0_boat_00_boat-0178-sketch-30.png,boat-0178-sketch-30.png,0.0,-5.567641,0.5918116,-4.3553905
alexnet_w3_mlp_simclrhn_probe2,1,241,NaN,chair,boat,0,0241_ske_dnn_0_boat_00_boat-0180-sketch-32.png,boat-0180-sketch-32.png,0.0,-1.9858156,0.41388673,-1.6968458
alexnet_w3_mlp_simclrhn_probe2,1,242,NaN,knife,boat,0,0242_ske_dnn_0_boat_00_boat-0194-sketch-45.png,boat-0194-sketch-45.png,0.0,-1.415809,0.74791825,-1.5299863
alexnet_w3_mlp_simclrhn_probe2,1,243,NaN,bicycle,boat,0,0243_ske_dnn_0_boat_00_boat-0197-sketch-48.png,boat-0197-sketch-48.png,0.0,-3.5817711,-1.7709043,-1.2804762
alexnet_w3_mlp_simclrhn_probe2,1,244,NaN,boat,boat,0,0244_ske_dnn_0_boat_00_boat-0212-sketch-15.png,boat-0212-sketch-15.png,1.0,0.5655187,0.25889143,0.21681821
alexnet_w3_mlp_simclrhn_probe2,1,245,NaN,chair,boat,0,0245_ske_dnn_0_boat_00_boat-0228-sketch-3.png,boat-0228-sketch-3.png,0.0,-3.8669918,2.3359742,-4.3861594
alexnet_w3_mlp_simclrhn_probe2,1,246,NaN,bicycle,boat,0,0246_ske_dnn_0_boat_00_boat-0233-sketch-34.png,boat-0233-sketch-34.png,0.0,-1.6204951,3.1120632,-3.346424
alexnet_w3_mlp_simclrhn_probe2,1,247,NaN,bicycle,boat,0,0247_ske_dnn_0_boat_00_boat-0234-sketch-35.png,boat-0234-sketch-35.png,0.0,-0.58558834,0.6809891,-0.89560556
alexnet_w3_mlp_simclrhn_probe2,1,248,NaN,clock,boat,0,0248_ske_dnn_0_boat_00_boat-0237-sketch-38.png,boat-0237-sketch-38.png,0.0,-2.4919627,0.86139375,-2.371181
alexnet_w3_mlp_simclrhn_probe2,1,249,NaN,boat,boat,0,0249_ske_dnn_0_boat_00_boat-0239-sketch-4.png,boat-0239-sketch-4.png,1.0,2.2873898,1.0326508,0.8872344
alexnet_w3_mlp_simclrhn_probe2,1,250,NaN,boat,boat,0,0250_ske_dnn_0_boat_00_boat-0253-sketch-7.png,boat-0253-sketch-7.png,1.0,0.50507075,0.36900893,0.096210234
alexnet_w3_mlp_simclrhn_probe2,1,251,NaN,bottle,bottle,0,0251_ske_dnn_0_bottle_00_bottle-0002-sketch-1.png,bottle-0002-sketch-1.png,1.0,4.1611814,1.0674344,2.1876097
alexnet_w3_mlp_simclrhn_probe2,1,252,NaN,clock,bottle,0,0252_ske_dnn_0_bottle_00_bottle-0003-sketch-10.png,bottle-0003-sketch-10.png,0.0,0.070830174,4.227219,-2.9390106
alexnet_w3_mlp_simclrhn_probe2,1,253,NaN,clock,bottle,0,0253_ske_dnn_0_bottle_00_bottle-0019-sketch-25.png,bottle-0019-sketch-25.png,0.0,-0.22572896,3.020085,-2.2951372
alexnet_w3_mlp_simclrhn_probe2,1,254,NaN,clock,bottle,0,0254_ske_dnn_0_bottle_00_bottle-0030-sketch-35.png,bottle-0030-sketch-35.png,0.0,5.2614875,5.932217,-0.4742775
alexnet_w3_mlp_simclrhn_probe2,1,255,NaN,bottle,bottle,0,0255_ske_dnn_0_bottle_00_bottle-0031-sketch-36.png,bottle-0031-sketch-36.png,1.0,2.242119,1.9572945,0.20140141
alexnet_w3_mlp_simclrhn_probe2,1,256,NaN,clock,bottle,0,0256_ske_dnn_0_bottle_00_bottle-0038-sketch-42.png,bottle-0038-sketch-42.png,0.0,-0.096389495,3.949301,-2.8607352
alexnet_w3_mlp_simclrhn_probe2,1,257,NaN,bottle,bottle,0,0257_ske_dnn_0_bottle_00_bottle-0039-sketch-43.png,bottle-0039-sketch-43.png,1.0,8.134153,-1.6550651,6.9220233
alexnet_w3_mlp_simclrhn_probe2,1,258,NaN,clock,bottle,0,0258_ske_dnn_0_bottle_00_bottle-0041-sketch-45.png,bottle-0041-sketch-45.png,0.0,-0.033273797,4.037091,-2.8781824
alexnet_w3_mlp_simclrhn_probe2,1,259,NaN,clock,bottle,0,0259_ske_dnn_0_bottle_00_bottle-0045-sketch-49.png,bottle-0045-sketch-49.png,0.0,1.2209928,2.6624572,-1.0192692
alexnet_w3_mlp_simclrhn_probe2,1,260,NaN,bottle,bottle,0,0260_ske_dnn_0_bottle_00_bottle-0050-sketch-9.png,bottle-0050-sketch-9.png,1.0,2.1891131,0.69042844,1.05973
alexnet_w3_mlp_simclrhn_probe2,1,261,NaN,bottle,bottle,0,0261_ske_dnn_0_bottle_00_bottle-0054-sketch-11.png,bottle-0054-sketch-11.png,1.0,3.7272356,2.9981167,0.51556486
alexnet_w3_mlp_simclrhn_probe2,1,262,NaN,bottle,bottle,0,0262_ske_dnn_0_bottle_00_bottle-0066-sketch-22.png,bottle-0066-sketch-22.png,1.0,5.6963015,2.0193675,2.5999851
alexnet_w3_mlp_simclrhn_probe2,1,263,NaN,clock,bottle,0,0263_ske_dnn_0_bottle_00_bottle-0071-sketch-27.png,bottle-0071-sketch-27.png,0.0,-0.9453866,1.5019931,-1.7305588
alexnet_w3_mlp_simclrhn_probe2,1,264,NaN,clock,bottle,0,0264_ske_dnn_0_bottle_00_bottle-0082-sketch-37.png,bottle-0082-sketch-37.png,0.0,0.3339138,2.2213137,-1.3345933
alexnet_w3_mlp_simclrhn_probe2,1,265,NaN,bottle,bottle,0,0265_ske_dnn_0_bottle_00_bottle-0086-sketch-40.png,bottle-0086-sketch-40.png,1.0,4.264919,1.9328169,1.649045
alexnet_w3_mlp_simclrhn_probe2,1,266,NaN,bottle,bottle,0,0266_ske_dnn_0_bottle_00_bottle-0090-sketch-44.png,bottle-0090-sketch-44.png,1.0,3.6627758,2.6479535,0.7175877
alexnet_w3_mlp_simclrhn_probe2,1,267,NaN,clock,bottle,0,0267_ske_dnn_0_bottle_00_bottle-0097-sketch-50.png,bottle-0097-sketch-50.png,0.0,-0.8608527,0.9945356,-1.3119577
alexnet_w3_mlp_simclrhn_probe2,1,268,NaN,bicycle,bottle,0,0268_ske_dnn_0_bottle_00_bottle-0107-sketch-13.png,bottle-0107-sketch-13.png,0.0,-2.4790955,0.8758971,-2.372338
alexnet_w3_mlp_simclrhn_probe2,1,269,NaN,bicycle,bottle,0,0269_ske_dnn_0_bottle_00_bottle-0114-sketch-2.png,bottle-0114-sketch-2.png,0.0,-2.0004444,-0.81199396,-0.8403614
alexnet_w3_mlp_simclrhn_probe2,1,270,NaN,knife,bottle,0,0270_ske_dnn_0_bottle_00_bottle-0126-sketch-30.png,bottle-0126-sketch-30.png,0.0,-0.9228996,0.77853906,-1.2030989
alexnet_w3_mlp_simclrhn_probe2,1,271,NaN,bottle,bottle,0,0271_ske_dnn_0_bottle_00_bottle-0130-sketch-34.png,bottle-0130-sketch-34.png,1.0,4.0918517,3.1744318,0.6487138
alexnet_w3_mlp_simclrhn_probe2,1,272,NaN,clock,bottle,0,0272_ske_dnn_0_bottle_00_bottle-0131-sketch-35.png,bottle-0131-sketch-35.png,0.0,-1.7099931,-1.0588181,-0.4604503
alexnet_w3_mlp_simclrhn_probe2,1,273,NaN,clock,bottle,0,0273_ske_dnn_0_bottle_00_bottle-0133-sketch-37.png,bottle-0133-sketch-37.png,0.0,-1.7466727,1.5429281,-2.3260992
alexnet_w3_mlp_simclrhn_probe2,1,274,NaN,bottle,bottle,0,0274_ske_dnn_0_bottle_00_bottle-0135-sketch-39.png,bottle-0135-sketch-39.png,1.0,-0.013543708,-0.17627163,0.11506602
alexnet_w3_mlp_simclrhn_probe2,1,275,NaN,keyboard,bottle,0,0275_ske_dnn_0_bottle_00_bottle-0143-sketch-46.png,bottle-0143-sketch-46.png,0.0,-0.24087545,3.3001218,-2.5038633
alexnet_w3_mlp_simclrhn_probe2,1,276,NaN,bottle,bottle,0,0276_ske_dnn_0_bottle_00_bottle-0145-sketch-48.png,bottle-0145-sketch-48.png,1.0,0.679788,0.24761252,0.3055942
alexnet_w3_mlp_simclrhn_probe2,1,277,NaN,clock,bottle,0,0277_ske_dnn_0_bottle_00_bottle-0150-sketch-7.png,bottle-0150-sketch-7.png,0.0,3.9005988,5.193238,-0.91403383
alexnet_w3_mlp_simclrhn_probe2,1,278,NaN,clock,bottle,0,0278_ske_dnn_0_bottle_00_bottle-0162-sketch-17.png,bottle-0162-sketch-17.png,0.0,0.51671106,1.7499623,-0.8720404
alexnet_w3_mlp_simclrhn_probe2,1,279,NaN,clock,bottle,0,0279_ske_dnn_0_bottle_00_bottle-0165-sketch-2.png,bottle-0165-sketch-2.png,0.0,0.84628856,2.1497567,-0.9216912
alexnet_w3_mlp_simclrhn_probe2,1,280,NaN,clock,bottle,0,0280_ske_dnn_0_bottle_00_bottle-0184-sketch-37.png,bottle-0184-sketch-37.png,0.0,0.6607198,1.0132518,-0.24927776
alexnet_w3_mlp_simclrhn_probe2,1,281,NaN,clock,bottle,0,0281_ske_dnn_0_bottle_00_bottle-0185-sketch-38.png,bottle-0185-sketch-38.png,0.0,1.1144367,3.1085281,-1.4100356
alexnet_w3_mlp_simclrhn_probe2,1,282,NaN,knife,bottle,0,0282_ske_dnn_0_bottle_00_bottle-0189-sketch-41.png,bottle-0189-sketch-41.png,0.0,-0.3763083,-0.17880434,-0.1396564
alexnet_w3_mlp_simclrhn_probe2,1,283,NaN,bottle,bottle,0,0283_ske_dnn_0_bottle_00_bottle-0202-sketch-8.png,bottle-0202-sketch-8.png,1.0,0.68815035,0.43966815,0.17570345
alexnet_w3_mlp_simclrhn_probe2,1,284,NaN,clock,bottle,0,0284_ske_dnn_0_bottle_00_bottle-0207-sketch-11.png,bottle-0207-sketch-11.png,0.0,2.71061,4.255678,-1.0925282
alexnet_w3_mlp_simclrhn_probe2,1,285,NaN,clock,bottle,0,0285_ske_dnn_0_bottle_00_bottle-0215-sketch-19.png,bottle-0215-sketch-19.png,0.0,-1.3067542,3.1762278,-3.1699471
alexnet_w3_mlp_simclrhn_probe2,1,286,NaN,clock,bottle,0,0286_ske_dnn_0_bottle_00_bottle-0217-sketch-20.png,bottle-0217-sketch-20.png,0.0,-0.91611147,4.2355094,-3.6427462
alexnet_w3_mlp_simclrhn_probe2,1,287,NaN,knife,bottle,0,0287_ske_dnn_0_bottle_00_bottle-0237-sketch-39.png,bottle-0237-sketch-39.png,0.0,-0.69900113,2.147512,-2.0127888
alexnet_w3_mlp_simclrhn_probe2,1,288,NaN,clock,bottle,0,0288_ske_dnn_0_bottle_00_bottle-0243-sketch-44.png,bottle-0243-sketch-44.png,0.0,-0.49586567,0.6635785,-0.81985086
alexnet_w3_mlp_simclrhn_probe2,1,289,NaN,bottle,bottle,0,0289_ske_dnn_0_bottle_00_bottle-0245-sketch-46.png,bottle-0245-sketch-46.png,1.0,1.3716828,-0.12929326,1.0613503
alexnet_w3_mlp_simclrhn_probe2,1,290,NaN,bottle,bottle,0,0290_ske_dnn_0_bottle_00_bottle-0268-sketch-20.png,bottle-0268-sketch-20.png,1.0,3.7668228,1.3391249,1.7166417
alexnet_w3_mlp_simclrhn_probe2,1,291,NaN,clock,bottle,0,0291_ske_dnn_0_bottle_00_bottle-0280-sketch-31.png,bottle-0280-sketch-31.png,0.0,2.2458785,2.8871334,-0.4534357
alexnet_w3_mlp_simclrhn_probe2,1,292,NaN,bottle,bottle,0,0292_ske_dnn_0_bottle_00_bottle-0292-sketch-42.png,bottle-0292-sketch-42.png,1.0,5.195844,3.06833,1.5043797
alexnet_w3_mlp_simclrhn_probe2,1,293,NaN,bottle,bottle,0,0293_ske_dnn_0_bottle_00_bottle-0294-sketch-44.png,bottle-0294-sketch-44.png,1.0,1.0041984,-1.4878298,1.7621301
alexnet_w3_mlp_simclrhn_probe2,1,294,NaN,clock,bottle,0,0294_ske_dnn_0_bottle_00_bottle-0296-sketch-46.png,bottle-0296-sketch-46.png,0.0,0.36527675,2.4626877,-1.4830935
alexnet_w3_mlp_simclrhn_probe2,1,295,NaN,bottle,bottle,0,0295_ske_dnn_0_bottle_00_bottle-0301-sketch-50.png,bottle-0301-sketch-50.png,1.0,1.8115083,1.5577904,0.17940564
alexnet_w3_mlp_simclrhn_probe2,1,296,NaN,bottle,bottle,0,0296_ske_dnn_0_bottle_00_bottle-0305-sketch-9.png,bottle-0305-sketch-9.png,1.0,2.0369337,0.09108409,1.3759234
alexnet_w3_mlp_simclrhn_probe2,1,297,NaN,bottle,bottle,0,0297_ske_dnn_0_bottle_00_bottle-0313-sketch-15.png,bottle-0313-sketch-15.png,1.0,1.4998564,-0.11175617,1.1395822
alexnet_w3_mlp_simclrhn_probe2,1,298,NaN,bottle,bottle,0,0298_ske_dnn_0_bottle_00_bottle-0321-sketch-22.png,bottle-0321-sketch-22.png,1.0,4.9014816,-0.3426131,3.7081351
alexnet_w3_mlp_simclrhn_probe2,1,299,NaN,bottle,bottle,0,0299_ske_dnn_0_bottle_00_bottle-0330-sketch-30.png,bottle-0330-sketch-30.png,1.0,5.0138474,-0.5914023,3.96351
alexnet_w3_mlp_simclrhn_probe2,1,300,NaN,bottle,bottle,0,0300_ske_dnn_0_bottle_00_bottle-0338-sketch-38.png,bottle-0338-sketch-38.png,1.0,1.8508078,0.0025641322,1.3069056
alexnet_w3_mlp_simclrhn_probe2,1,301,NaN,truck,car,0,0301_ske_dnn_0_car_00_car-0002-sketch-1.png,car-0002-sketch-1.png,0.0,1.4976584,2.6674585,-0.82717365
alexnet_w3_mlp_simclrhn_probe2,1,302,NaN,truck,car,0,0302_ske_dnn_0_car_00_car-0004-sketch-11.png,car-0004-sketch-11.png,0.0,0.4463637,0.5440949,-0.069106415
alexnet_w3_mlp_simclrhn_probe2,1,303,NaN,truck,car,0,0303_ske_dnn_0_car_00_car-0005-sketch-12.png,car-0005-sketch-12.png,0.0,0.8703646,2.0507746,-0.83467585
alexnet_w3_mlp_simclrhn_probe2,1,304,NaN,chair,car,0,0304_ske_dnn_0_car_00_car-0009-sketch-16.png,car-0009-sketch-16.png,0.0,0.6784286,0.72003704,-0.02942162
alexnet_w3_mlp_simclrhn_probe2,1,305,NaN,oven,car,0,0305_ske_dnn_0_car_00_car-0013-sketch-2.png,car-0013-sketch-2.png,0.0,0.83397406,1.0792167,-0.17341274
alexnet_w3_mlp_simclrhn_probe2,1,306,NaN,bicycle,car,0,0306_ske_dnn_0_car_00_car-0014-sketch-20.png,car-0014-sketch-20.png,0.0,-0.24528338,0.35407183,-0.42380816
alexnet_w3_mlp_simclrhn_probe2,1,307,NaN,oven,car,0,0307_ske_dnn_0_car_00_car-0017-sketch-23.png,car-0017-sketch-23.png,0.0,-3.2722502,0.15836398,-2.4258106
alexnet_w3_mlp_simclrhn_probe2,1,308,NaN,oven,car,0,0308_ske_dnn_0_car_00_car-0018-sketch-24.png,car-0018-sketch-24.png,0.0,0.42180493,1.2138478,-0.5600589
alexnet_w3_mlp_simclrhn_probe2,1,309,NaN,clock,car,0,0309_ske_dnn_0_car_00_car-0021-sketch-27.png,car-0021-sketch-27.png,0.0,-2.5905623,1.0567919,-2.579069
alexnet_w3_mlp_simclrhn_probe2,1,310,NaN,clock,car,0,0310_ske_dnn_0_car_00_car-0022-sketch-28.png,car-0022-sketch-28.png,0.0,-0.95885223,0.4002992,-0.9610652
alexnet_w3_mlp_simclrhn_probe2,1,311,NaN,car,car,0,0311_ske_dnn_0_car_00_car-0024-sketch-3.png,car-0024-sketch-3.png,1.0,11.484408,6.539923,3.496279
alexnet_w3_mlp_simclrhn_probe2,1,312,NaN,clock,car,0,0312_ske_dnn_0_car_00_car-0025-sketch-30.png,car-0025-sketch-30.png,0.0,-4.948544,2.091523,-4.978079
alexnet_w3_mlp_simclrhn_probe2,1,313,NaN,oven,car,0,0313_ske_dnn_0_car_00_car-0029-sketch-34.png,car-0029-sketch-34.png,0.0,-3.0987957,-0.08237477,-2.1329317
alexnet_w3_mlp_simclrhn_probe2,1,314,NaN,oven,car,0,0314_ske_dnn_0_car_00_car-0030-sketch-35.png,car-0030-sketch-35.png,0.0,0.50525135,1.3019246,-0.56333303
alexnet_w3_mlp_simclrhn_probe2,1,315,NaN,knife,car,0,0315_ske_dnn_0_car_00_car-0032-sketch-37.png,car-0032-sketch-37.png,0.0,-2.6227975,1.2361044,-2.7286558
alexnet_w3_mlp_simclrhn_probe2,1,316,NaN,clock,car,0,0316_ske_dnn_0_car_00_car-0034-sketch-39.png,car-0034-sketch-39.png,0.0,-0.774697,0.51331025,-0.9107587
alexnet_w3_mlp_simclrhn_probe2,1,317,NaN,clock,car,0,0317_ske_dnn_0_car_00_car-0040-sketch-44.png,car-0040-sketch-44.png,0.0,0.08176184,0.21666737,-0.095392615
alexnet_w3_mlp_simclrhn_probe2,1,318,NaN,car,car,0,0318_ske_dnn_0_car_00_car-0043-sketch-47.png,car-0043-sketch-47.png,1.0,11.484408,6.539923,3.496279
alexnet_w3_mlp_simclrhn_probe2,1,319,NaN,car,car,0,0319_ske_dnn_0_car_00_car-0044-sketch-48.png,car-0044-sketch-48.png,1.0,6.1487517,2.6497607,2.4741604
alexnet_w3_mlp_simclrhn_probe2,1,320,NaN,bicycle,car,0,0320_ske_dnn_0_car_00_car-0045-sketch-49.png,car-0045-sketch-49.png,0.0,0.3604575,1.0385479,-0.4794823
alexnet_w3_mlp_simclrhn_probe2,1,321,NaN,truck,car,0,0321_ske_dnn_0_car_00_car-0047-sketch-50.png,car-0047-sketch-50.png,0.0,0.21688159,0.2661751,-0.03485577
alexnet_w3_mlp_simclrhn_probe2,1,322,NaN,clock,car,0,0322_ske_dnn_0_car_00_car-0050-sketch-8.png,car-0050-sketch-8.png,0.0,-4.2442856,2.6644366,-4.8852043
alexnet_w3_mlp_simclrhn_probe2,1,323,NaN,chair,car,0,0323_ske_dnn_0_car_00_car-0052-sketch-0.png,car-0052-sketch-0.png,0.0,-0.13253094,0.26622394,-0.2819623
alexnet_w3_mlp_simclrhn_probe2,1,324,NaN,car,car,0,0324_ske_dnn_0_car_00_car-0055-sketch-11.png,car-0055-sketch-11.png,1.0,3.817541,1.9537646,1.3178889
alexnet_w3_mlp_simclrhn_probe2,1,325,NaN,bicycle,car,0,0325_ske_dnn_0_car_00_car-0064-sketch-2.png,car-0064-sketch-2.png,0.0,-0.35766944,1.5065897,-1.3182303
alexnet_w3_mlp_simclrhn_probe2,1,326,NaN,truck,car,0,0326_ske_dnn_0_car_00_car-0069-sketch-24.png,car-0069-sketch-24.png,0.0,2.2817967,2.4733222,-0.13542895
alexnet_w3_mlp_simclrhn_probe2,1,327,NaN,car,car,0,0327_ske_dnn_0_car_00_car-0076-sketch-30.png,car-0076-sketch-30.png,1.0,0.6141891,0.33575666,0.19688146
alexnet_w3_mlp_simclrhn_probe2,1,328,NaN,airplane,car,0,0328_ske_dnn_0_car_00_car-0079-sketch-33.png,car-0079-sketch-33.png,0.0,-1.7084184,0.94870484,-1.8788698
alexnet_w3_mlp_simclrhn_probe2,1,329,NaN,clock,car,0,0329_ske_dnn_0_car_00_car-0083-sketch-37.png,car-0083-sketch-37.png,0.0,-1.0263075,1.3547224,-1.6836424
alexnet_w3_mlp_simclrhn_probe2,1,330,NaN,bicycle,car,0,0330_ske_dnn_0_car_00_car-0092-sketch-45.png,car-0092-sketch-45.png,0.0,-3.3251588,1.7391241,-3.580989
alexnet_w3_mlp_simclrhn_probe2,1,331,NaN,car,car,0,0331_ske_dnn_0_car_00_car-0096-sketch-49.png,car-0096-sketch-49.png,1.0,7.6762547,3.3686461,3.0459392
alexnet_w3_mlp_simclrhn_probe2,1,332,NaN,clock,car,0,0332_ske_dnn_0_car_00_car-0098-sketch-50.png,car-0098-sketch-50.png,0.0,-0.65766126,1.3049732,-1.3877922
alexnet_w3_mlp_simclrhn_probe2,1,333,NaN,car,car,0,0333_ske_dnn_0_car_00_car-0100-sketch-7.png,car-0100-sketch-7.png,1.0,3.1019924,2.2022548,0.63621056
alexnet_w3_mlp_simclrhn_probe2,1,334,NaN,car,car,0,0334_ske_dnn_0_car_00_car-0112-sketch-17.png,car-0112-sketch-17.png,1.0,5.055624,1.5774281,2.459456
alexnet_w3_mlp_simclrhn_probe2,1,335,NaN,clock,car,0,0335_ske_dnn_0_car_00_car-0114-sketch-19.png,car-0114-sketch-19.png,0.0,0.39923382,1.393901,-0.70333594
alexnet_w3_mlp_simclrhn_probe2,1,336,NaN,car,car,0,0336_ske_dnn_0_car_00_car-0116-sketch-20.png,car-0116-sketch-20.png,1.0,3.3994617,1.2448443,1.5235445
alexnet_w3_mlp_simclrhn_probe2,1,337,NaN,clock,car,0,0337_ske_dnn_0_car_00_car-0117-sketch-21.png,car-0117-sketch-21.png,0.0,0.1636644,1.414004,-0.88412356
alexnet_w3_mlp_simclrhn_probe2,1,338,NaN,car,car,0,0338_ske_dnn_0_car_00_car-0120-sketch-24.png,car-0120-sketch-24.png,1.0,3.913824,1.3913618,1.7836503
alexnet_w3_mlp_simclrhn_probe2,1,339,NaN,clock,car,0,0339_ske_dnn_0_car_00_car-0122-sketch-26.png,car-0122-sketch-26.png,0.0,-0.34502307,5.1825533,-3.9085867
alexnet_w3_mlp_simclrhn_probe2,1,340,NaN,clock,car,0,0340_ske_dnn_0_car_00_car-0124-sketch-28.png,car-0124-sketch-28.png,0.0,-1.3771359,1.7210454,-2.190745
alexnet_w3_mlp_simclrhn_probe2,1,341,NaN,car,car,0,0341_ske_dnn_0_car_00_car-0125-sketch-29.png,car-0125-sketch-29.png,1.0,1.2467551,0.2681878,0.69195163
alexnet_w3_mlp_simclrhn_probe2,1,342,NaN,clock,car,0,0342_ske_dnn_0_car_00_car-0129-sketch-32.png,car-0129-sketch-32.png,0.0,-1.2429723,2.2359605,-2.4599771
alexnet_w3_mlp_simclrhn_probe2,1,343,NaN,car,car,0,0343_ske_dnn_0_car_00_car-0132-sketch-35.png,car-0132-sketch-35.png,1.0,5.746947,1.9859619,2.6594179
alexnet_w3_mlp_simclrhn_probe2,1,344,NaN,clock,car,0,0344_ske_dnn_0_car_00_car-0136-sketch-39.png,car-0136-sketch-39.png,0.0,-2.3267233,0.9132425,-2.2910018
alexnet_w3_mlp_simclrhn_probe2,1,345,NaN,car,car,0,0345_ske_dnn_0_car_00_car-0138-sketch-40.png,car-0138-sketch-40.png,1.0,4.7925496,1.2798065,2.4838843
alexnet_w3_mlp_simclrhn_probe2,1,346,NaN,car,car,0,0346_ske_dnn_0_car_00_car-0139-sketch-41.png,car-0139-sketch-41.png,1.0,3.7445,1.0449778,1.9088503
alexnet_w3_mlp_simclrhn_probe2,1,347,NaN,clock,car,0,0347_ske_dnn_0_car_00_car-0143-sketch-45.png,car-0143-sketch-45.png,0.0,-0.3864213,1.8471159,-1.5793493
alexnet_w3_mlp_simclrhn_probe2,1,348,NaN,bicycle,car,0,0348_ske_dnn_0_car_00_car-0145-sketch-47.png,car-0145-sketch-47.png,0.0,-1.0026563,-0.3939227,-0.4304397
alexnet_w3_mlp_simclrhn_probe2,1,349,NaN,car,car,0,0349_ske_dnn_0_car_00_car-0151-sketch-7.png,car-0151-sketch-7.png,1.0,5.577847,2.8507214,1.928369
alexnet_w3_mlp_simclrhn_probe2,1,350,NaN,clock,car,0,0350_ske_dnn_0_car_00_car-0153-sketch-9.png,car-0153-sketch-9.png,0.0,-1.3813157,0.82608086,-1.560865
alexnet_w3_mlp_simclrhn_probe2,1,351,NaN,cat,cat,0,0351_ske_dnn_0_cat_00_cat-0002-sketch-1.png,cat-0002-sketch-1.png,1.0,7.1557,-1.585052,6.1806455
alexnet_w3_mlp_simclrhn_probe2,1,352,NaN,cat,cat,0,0352_ske_dnn_0_cat_00_cat-0009-sketch-16.png,cat-0009-sketch-16.png,1.0,3.938175,-1.3236895,3.7207003
alexnet_w3_mlp_simclrhn_probe2,1,353,NaN,bicycle,cat,0,0353_ske_dnn_0_cat_00_cat-0011-sketch-18.png,cat-0011-sketch-18.png,0.0,-1.6594368,-1.1414104,-0.36630005
alexnet_w3_mlp_simclrhn_probe2,1,354,NaN,cat,cat,0,0354_ske_dnn_0_cat_00_cat-0015-sketch-21.png,cat-0015-sketch-21.png,1.0,5.6470675,-2.4335282,5.7138443
alexnet_w3_mlp_simclrhn_probe2,1,355,NaN,cat,cat,0,0355_ske_dnn_0_cat_00_cat-0016-sketch-22.png,cat-0016-sketch-22.png,1.0,5.874643,-1.9130256,5.506713
alexnet_w3_mlp_simclrhn_probe2,1,356,NaN,cat,cat,0,0356_ske_dnn_0_cat_00_cat-0021-sketch-27.png,cat-0021-sketch-27.png,1.0,3.4553149,-3.4021218,4.84894
alexnet_w3_mlp_simclrhn_probe2,1,357,NaN,cat,cat,0,0357_ske_dnn_0_cat_00_cat-0027-sketch-32.png,cat-0027-sketch-32.png,1.0,3.9459636,-2.0243497,4.2216487
alexnet_w3_mlp_simclrhn_probe2,1,358,NaN,cat,cat,0,0358_ske_dnn_0_cat_00_cat-0042-sketch-46.png,cat-0042-sketch-46.png,1.0,3.5118682,-2.7392647,4.4202185
alexnet_w3_mlp_simclrhn_probe2,1,359,NaN,cat,cat,0,0359_ske_dnn_0_cat_00_cat-0043-sketch-47.png,cat-0043-sketch-47.png,1.0,2.6488166,-0.47531503,2.2090948
alexnet_w3_mlp_simclrhn_probe2,1,360,NaN,cat,cat,0,0360_ske_dnn_0_cat_00_cat-0044-sketch-48.png,cat-0044-sketch-48.png,1.0,3.733453,-0.39476863,2.9190934
alexnet_w3_mlp_simclrhn_probe2,1,361,NaN,cat,cat,0,0361_ske_dnn_0_cat_00_cat-0048-sketch-7.png,cat-0048-sketch-7.png,1.0,4.478502,-1.7830142,4.4275603
alexnet_w3_mlp_simclrhn_probe2,1,362,NaN,cat,cat,0,0362_ske_dnn_0_cat_00_cat-0052-sketch-1.png,cat-0052-sketch-1.png,1.0,7.8956203,-2.4302514,7.3014936
alexnet_w3_mlp_simclrhn_probe2,1,363,NaN,clock,cat,0,0363_ske_dnn_0_cat_00_cat-0053-sketch-10.png,cat-0053-sketch-10.png,0.0,-2.9417927,0.13806735,-2.17779
alexnet_w3_mlp_simclrhn_probe2,1,364,NaN,bottle,cat,0,0364_ske_dnn_0_cat_00_cat-0059-sketch-16.png,cat-0059-sketch-16.png,0.0,-1.6541371,-0.8198592,-0.58992356
alexnet_w3_mlp_simclrhn_probe2,1,365,NaN,cat,cat,0,0365_ske_dnn_0_cat_00_cat-0062-sketch-19.png,cat-0062-sketch-19.png,1.0,-1.7235527,-1.809531,0.060795818
alexnet_w3_mlp_simclrhn_probe2,1,366,NaN,cat,cat,0,0366_ske_dnn_0_cat_00_cat-0067-sketch-23.png,cat-0067-sketch-23.png,1.0,0.9747463,-1.5124205,1.7586926
alexnet_w3_mlp_simclrhn_probe2,1,367,NaN,clock,cat,0,0367_ske_dnn_0_cat_00_cat-0073-sketch-29.png,cat-0073-sketch-29.png,0.0,-1.7593745,-0.5283719,-0.87045026
alexnet_w3_mlp_simclrhn_probe2,1,368,NaN,cat,cat,0,0368_ske_dnn_0_cat_00_cat-0082-sketch-37.png,cat-0082-sketch-37.png,1.0,-0.5226877,-2.1381423,1.1422989
alexnet_w3_mlp_simclrhn_probe2,1,369,NaN,cat,cat,0,0369_ske_dnn_0_cat_00_cat-0085-sketch-4.png,cat-0085-sketch-4.png,1.0,2.2204254,-2.4334297,3.2907727
alexnet_w3_mlp_simclrhn_probe2,1,370,NaN,cat,cat,0,0370_ske_dnn_0_cat_00_cat-0090-sketch-44.png,cat-0090-sketch-44.png,1.0,1.813818,-2.58551,3.1107948
alexnet_w3_mlp_simclrhn_probe2,1,371,NaN,cat,cat,0,0371_ske_dnn_0_cat_00_cat-0104-sketch-10.png,cat-0104-sketch-10.png,1.0,-0.6180298,-1.1830775,0.39954907
alexnet_w3_mlp_simclrhn_probe2,1,372,NaN,cat,cat,0,0372_ske_dnn_0_cat_00_cat-0124-sketch-29.png,cat-0124-sketch-29.png,1.0,-1.0898651,-3.372297,1.6139232
alexnet_w3_mlp_simclrhn_probe2,1,373,NaN,cat,cat,0,0373_ske_dnn_0_cat_00_cat-0128-sketch-32.png,cat-0128-sketch-32.png,1.0,3.9556725,-0.8676434,3.4105995
alexnet_w3_mlp_simclrhn_probe2,1,374,NaN,cat,cat,0,0374_ske_dnn_0_cat_00_cat-0134-sketch-38.png,cat-0134-sketch-38.png,1.0,0.10688158,-0.84545404,0.67340297
alexnet_w3_mlp_simclrhn_probe2,1,375,NaN,cat,cat,0,0375_ske_dnn_0_cat_00_cat-0140-sketch-43.png,cat-0140-sketch-43.png,1.0,4.209741,-1.3353345,3.9209604
alexnet_w3_mlp_simclrhn_probe2,1,376,NaN,cat,cat,0,0376_ske_dnn_0_cat_00_cat-0149-sketch-6.png,cat-0149-sketch-6.png,1.0,1.6134905,-1.2359791,2.0148795
alexnet_w3_mlp_simclrhn_probe2,1,377,NaN,cat,cat,0,0377_ske_dnn_0_cat_00_cat-0150-sketch-7.png,cat-0150-sketch-7.png,1.0,2.5878742,-1.8966032,3.1710045
alexnet_w3_mlp_simclrhn_probe2,1,378,NaN,clock,cat,0,0378_ske_dnn_0_cat_00_cat-0152-sketch-9.png,cat-0152-sketch-9.png,0.0,-1.9542962,-0.40603003,-1.0947895
alexnet_w3_mlp_simclrhn_probe2,1,379,NaN,chair,cat,0,0379_ske_dnn_0_cat_00_cat-0158-sketch-13.png,cat-0158-sketch-13.png,0.0,-4.386393,0.5979934,-3.5244935
alexnet_w3_mlp_simclrhn_probe2,1,380,NaN,cat,cat,0,0380_ske_dnn_0_cat_00_cat-0160-sketch-15.png,cat-0160-sketch-15.png,1.0,1.0100306,-0.8621355,1.3238214
alexnet_w3_mlp_simclrhn_probe2,1,381,NaN,cat,cat,0,0381_ske_dnn_0_cat_00_cat-0175-sketch-29.png,cat-0175-sketch-29.png,1.0,2.5786264,-1.4060829,2.817615
alexnet_w3_mlp_simclrhn_probe2,1,382,NaN,clock,cat,0,0382_ske_dnn_0_cat_00_cat-0207-sketch-11.png,cat-0207-sketch-11.png,0.0,-5.6498523,2.0529385,-5.446696
alexnet_w3_mlp_simclrhn_probe2,1,383,NaN,clock,cat,0,0383_ske_dnn_0_cat_00_cat-0229-sketch-31.png,cat-0229-sketch-31.png,0.0,-3.5211818,1.0855368,-3.257442
alexnet_w3_mlp_simclrhn_probe2,1,384,NaN,clock,cat,0,0384_ske_dnn_0_cat_00_cat-0233-sketch-35.png,cat-0233-sketch-35.png,0.0,-5.6498523,2.0529385,-5.446696
alexnet_w3_mlp_simclrhn_probe2,1,385,NaN,clock,cat,0,0385_ske_dnn_0_cat_00_cat-0241-sketch-42.png,cat-0241-sketch-42.png,0.0,-6.272513,1.1724705,-5.2643986
alexnet_w3_mlp_simclrhn_probe2,1,386,NaN,clock,cat,0,0386_ske_dnn_0_cat_00_cat-0245-sketch-46.png,cat-0245-sketch-46.png,0.0,-3.7178352,0.90799856,-3.2709582
alexnet_w3_mlp_simclrhn_probe2,1,387,NaN,clock,cat,0,0387_ske_dnn_0_cat_00_cat-0250-sketch-50.png,cat-0250-sketch-50.png,0.0,-5.689442,2.0595171,-5.479342
alexnet_w3_mlp_simclrhn_probe2,1,388,NaN,clock,cat,0,0388_ske_dnn_0_cat_00_cat-0251-sketch-6.png,cat-0251-sketch-6.png,0.0,-6.272513,1.1724705,-5.2643986
alexnet_w3_mlp_simclrhn_probe2,1,389,NaN,cat,cat,0,0389_ske_dnn_0_cat_00_cat-0258-sketch-11.png,cat-0258-sketch-11.png,1.0,8.942851,-1.2371868,7.198374
alexnet_w3_mlp_simclrhn_probe2,1,390,NaN,bicycle,cat,0,0390_ske_dnn_0_cat_00_cat-0260-sketch-13.png,cat-0260-sketch-13.png,0.0,-6.5554757,1.6021888,-5.7683396
alexnet_w3_mlp_simclrhn_probe2,1,391,NaN,cat,cat,0,0391_ske_dnn_0_cat_00_cat-0264-sketch-17.png,cat-0264-sketch-17.png,1.0,-1.0702792,-1.6004808,0.37490913
alexnet_w3_mlp_simclrhn_probe2,1,392,NaN,cat,cat,0,0392_ske_dnn_0_cat_00_cat-0265-sketch-18.png,cat-0265-sketch-18.png,1.0,1.6378198,-0.15610197,1.2684942
alexnet_w3_mlp_simclrhn_probe2,1,393,NaN,dog,cat,0,0393_ske_dnn_0_cat_00_cat-0269-sketch-21.png,cat-0269-sketch-21.png,0.0,-1.5265328,-0.02000168,-1.0652784
alexnet_w3_mlp_simclrhn_probe2,1,394,NaN,cat,cat,0,0394_ske_dnn_0_cat_00_cat-0274-sketch-26.png,cat-0274-sketch-26.png,1.0,2.506261,-1.3508102,2.7273614
alexnet_w3_mlp_simclrhn_probe2,1,395,NaN,knife,cat,0,0395_ske_dnn_0_cat_00_cat-0279-sketch-30.png,cat-0279-sketch-30.png,0.0,-0.62025136,-0.5837894,-0.025782492
alexnet_w3_mlp_simclrhn_probe2,1,396,NaN,bicycle,cat,0,0396_ske_dnn_0_cat_00_cat-0289-sketch-4.png,cat-0289-sketch-4.png,0.0,-0.7654536,-0.40154374,-0.25732312
alexnet_w3_mlp_simclrhn_probe2,1,397,NaN,cat,cat,0,0397_ske_dnn_0_cat_00_cat-0293-sketch-43.png,cat-0293-sketch-43.png,1.0,4.2249885,-1.0252913,3.7125087
alexnet_w3_mlp_simclrhn_probe2,1,398,NaN,cat,cat,0,0398_ske_dnn_0_cat_00_cat-0295-sketch-45.png,cat-0295-sketch-45.png,1.0,7.621334,-1.9300994,6.7538834
alexnet_w3_mlp_simclrhn_probe2,1,399,NaN,cat,cat,0,0399_ske_dnn_0_cat_00_cat-0302-sketch-6.png,cat-0302-sketch-6.png,1.0,2.4334624,-1.181587,2.556226
alexnet_w3_mlp_simclrhn_probe2,1,400,NaN,cat,cat,0,0400_ske_dnn_0_cat_00_cat-0304-sketch-8.png,cat-0304-sketch-8.png,1.0,5.5757155,-1.1799387,4.776969
alexnet_w3_mlp_simclrhn_probe2,1,401,NaN,clock,chair,0,0401_ske_dnn_0_chair_00_chair-0002-sketch-1.png,chair-0002-sketch-1.png,0.0,-0.33736056,1.102376,-1.0180476
alexnet_w3_mlp_simclrhn_probe2,1,402,NaN,chair,chair,0,0402_ske_dnn_0_chair_00_chair-0005-sketch-12.png,chair-0005-sketch-12.png,1.0,5.1161623,1.0935394,2.844424
alexnet_w3_mlp_simclrhn_probe2,1,403,NaN,chair,chair,0,0403_ske_dnn_0_chair_00_chair-0006-sketch-13.png,chair-0006-sketch-13.png,1.0,1.5004685,-0.14109255,1.160759
alexnet_w3_mlp_simclrhn_probe2,1,404,NaN,chair,chair,0,0404_ske_dnn_0_chair_00_chair-0011-sketch-18.png,chair-0011-sketch-18.png,1.0,3.0777643,1.0432187,1.4386408
alexnet_w3_mlp_simclrhn_probe2,1,405,NaN,clock,chair,0,0405_ske_dnn_0_chair_00_chair-0013-sketch-2.png,chair-0013-sketch-2.png,0.0,-1.0423555,1.8978368,-2.0790298
alexnet_w3_mlp_simclrhn_probe2,1,406,NaN,chair,chair,0,0406_ske_dnn_0_chair_00_chair-0014-sketch-20.png,chair-0014-sketch-20.png,1.0,4.003592,0.99167055,2.12975
alexnet_w3_mlp_simclrhn_probe2,1,407,NaN,clock,chair,0,0407_ske_dnn_0_chair_00_chair-0017-sketch-23.png,chair-0017-sketch-23.png,0.0,0.8760723,1.6190675,-0.525377
alexnet_w3_mlp_simclrhn_probe2,1,408,NaN,chair,chair,0,0408_ske_dnn_0_chair_00_chair-0029-sketch-34.png,chair-0029-sketch-34.png,1.0,1.4096124,0.62074584,0.5578129
alexnet_w3_mlp_simclrhn_probe2,1,409,NaN,clock,chair,0,0409_ske_dnn_0_chair_00_chair-0034-sketch-39.png,chair-0034-sketch-39.png,0.0,-1.0825579,2.033066,-2.2030787
alexnet_w3_mlp_simclrhn_probe2,1,410,NaN,chair,chair,0,0410_ske_dnn_0_chair_00_chair-0040-sketch-44.png,chair-0040-sketch-44.png,1.0,6.8147416,-0.46025833,5.1442018
alexnet_w3_mlp_simclrhn_probe2,1,411,NaN,chair,chair,0,0411_ske_dnn_0_chair_00_chair-0051-sketch-9.png,chair-0051-sketch-9.png,1.0,3.5993142,-0.27853045,2.7420502
alexnet_w3_mlp_simclrhn_probe2,1,412,NaN,clock,chair,0,0412_ske_dnn_0_chair_00_chair-0052-sketch-0.png,chair-0052-sketch-0.png,0.0,0.36497042,1.1298485,-0.54085046
alexnet_w3_mlp_simclrhn_probe2,1,413,NaN,clock,chair,0,0413_ske_dnn_0_chair_00_chair-0055-sketch-11.png,chair-0055-sketch-11.png,0.0,1.3083034,2.1317794,-0.5822855
alexnet_w3_mlp_simclrhn_probe2,1,414,NaN,chair,chair,0,0414_ske_dnn_0_chair_00_chair-0060-sketch-16.png,chair-0060-sketch-16.png,1.0,4.698137,4.312843,0.27244398
alexnet_w3_mlp_simclrhn_probe2,1,415,NaN,chair,chair,0,0415_ske_dnn_0_chair_00_chair-0062-sketch-18.png,chair-0062-sketch-18.png,1.0,5.5016017,1.9618001,2.5030177
alexnet_w3_mlp_simclrhn_probe2,1,416,NaN,chair,chair,0,0416_ske_dnn_0_chair_00_chair-0063-sketch-19.png,chair-0063-sketch-19.png,1.0,5.2475667,2.425079,1.9958001
alexnet_w3_mlp_simclrhn_probe2,1,417,NaN,chair,chair,0,0417_ske_dnn_0_chair_00_chair-0064-sketch-2.png,chair-0064-sketch-2.png,1.0,1.6120341,0.55597556,0.7467462
alexnet_w3_mlp_simclrhn_probe2,1,418,NaN,chair,chair,0,0418_ske_dnn_0_chair_00_chair-0066-sketch-21.png,chair-0066-sketch-21.png,1.0,1.3480203,1.2206169,0.090087794
alexnet_w3_mlp_simclrhn_probe2,1,419,NaN,chair,chair,0,0419_ske_dnn_0_chair_00_chair-0067-sketch-22.png,chair-0067-sketch-22.png,1.0,2.9326673,-0.25200337,2.2519023
alexnet_w3_mlp_simclrhn_probe2,1,420,NaN,chair,chair,0,0420_ske_dnn_0_chair_00_chair-0071-sketch-26.png,chair-0071-sketch-26.png,1.0,2.0905242,0.5518795,1.0879861
alexnet_w3_mlp_simclrhn_probe2,1,421,NaN,chair,chair,0,0421_ske_dnn_0_chair_00_chair-0072-sketch-27.png,chair-0072-sketch-27.png,1.0,3.237763,0.54309964,1.9054147
alexnet_w3_mlp_simclrhn_probe2,1,422,NaN,chair,chair,0,0422_ske_dnn_0_chair_00_chair-0076-sketch-30.png,chair-0076-sketch-30.png,1.0,5.7493873,0.7525316,3.5333107
alexnet_w3_mlp_simclrhn_probe2,1,423,NaN,chair,chair,0,0423_ske_dnn_0_chair_00_chair-0079-sketch-33.png,chair-0079-sketch-33.png,1.0,6.3535085,1.5813954,3.3743935
alexnet_w3_mlp_simclrhn_probe2,1,424,NaN,clock,chair,0,0424_ske_dnn_0_chair_00_chair-0083-sketch-37.png,chair-0083-sketch-37.png,0.0,0.7910116,2.456976,-1.1780148
alexnet_w3_mlp_simclrhn_probe2,1,425,NaN,chair,chair,0,0425_ske_dnn_0_chair_00_chair-0088-sketch-41.png,chair-0088-sketch-41.png,1.0,2.1216693,1.0881977,0.73077476
alexnet_w3_mlp_simclrhn_probe2,1,426,NaN,chair,chair,0,0426_ske_dnn_0_chair_00_chair-0094-sketch-47.png,chair-0094-sketch-47.png,1.0,4.708916,1.1040236,2.5490441
alexnet_w3_mlp_simclrhn_probe2,1,427,NaN,knife,chair,0,0427_ske_dnn_0_chair_00_chair-0105-sketch-11.png,chair-0105-sketch-11.png,0.0,-0.078145534,0.094616726,-0.122161366
alexnet_w3_mlp_simclrhn_probe2,1,428,NaN,chair,chair,0,0428_ske_dnn_0_chair_00_chair-0118-sketch-23.png,chair-0118-sketch-23.png,1.0,2.4766665,0.1566704,1.640485
alexnet_w3_mlp_simclrhn_probe2,1,429,NaN,chair,chair,0,0429_ske_dnn_0_chair_00_chair-0122-sketch-27.png,chair-0122-sketch-27.png,1.0,5.420506,-0.4404391,4.1443143
alexnet_w3_mlp_simclrhn_probe2,1,430,NaN,chair,chair,0,0430_ske_dnn_0_chair_00_chair-0124-sketch-29.png,chair-0124-sketch-29.png,1.0,2.3035667,0.49068624,1.2819002
alexnet_w3_mlp_simclrhn_probe2,1,431,NaN,chair,chair,0,0431_ske_dnn_0_chair_00_chair-0125-sketch-3.png,chair-0125-sketch-3.png,1.0,2.8652983,0.7997979,1.4605292
alexnet_w3_mlp_simclrhn_probe2,1,432,NaN,chair,chair,0,0432_ske_dnn_0_chair_00_chair-0127-sketch-31.png,chair-0127-sketch-31.png,1.0,2.6050704,0.1346491,1.7468517
alexnet_w3_mlp_simclrhn_probe2,1,433,NaN,chair,chair,0,0433_ske_dnn_0_chair_00_chair-0129-sketch-33.png,chair-0129-sketch-33.png,1.0,3.2924333,3.1731422,0.084351525
alexnet_w3_mlp_simclrhn_probe2,1,434,NaN,chair,chair,0,0434_ske_dnn_0_chair_00_chair-0130-sketch-34.png,chair-0130-sketch-34.png,1.0,3.6775572,2.1617682,1.0718247
alexnet_w3_mlp_simclrhn_probe2,1,435,NaN,bicycle,chair,0,0435_ske_dnn_0_chair_00_chair-0131-sketch-35.png,chair-0131-sketch-35.png,0.0,2.1991186,2.400003,-0.14204669
alexnet_w3_mlp_simclrhn_probe2,1,436,NaN,chair,chair,0,0436_ske_dnn_0_chair_00_chair-0135-sketch-39.png,chair-0135-sketch-39.png,1.0,4.0530243,1.3891045,1.8836759
alexnet_w3_mlp_simclrhn_probe2,1,437,NaN,chair,chair,0,0437_ske_dnn_0_chair_00_chair-0144-sketch-47.png,chair-0144-sketch-47.png,1.0,1.1648479,-0.47973275,1.1628941
alexnet_w3_mlp_simclrhn_probe2,1,438,NaN,chair,chair,0,0438_ske_dnn_0_chair_00_chair-0145-sketch-48.png,chair-0145-sketch-48.png,1.0,2.1333742,0.87807864,0.88762796
alexnet_w3_mlp_simclrhn_probe2,1,439,NaN,bicycle,chair,0,0439_ske_dnn_0_chair_00_chair-0153-sketch-0.png,chair-0153-sketch-0.png,0.0,-0.2758335,1.3152518,-1.1250672
alexnet_w3_mlp_simclrhn_probe2,1,440,NaN,clock,chair,0,0440_ske_dnn_0_chair_00_chair-0155-sketch-10.png,chair-0155-sketch-10.png,0.0,1.6373558,1.6421705,-0.0034045381
alexnet_w3_mlp_simclrhn_probe2,1,441,NaN,chair,chair,0,0441_ske_dnn_0_chair_00_chair-0163-sketch-18.png,chair-0163-sketch-18.png,1.0,0.77840394,-1.1127254,1.3372303
alexnet_w3_mlp_simclrhn_probe2,1,442,NaN,clock,chair,0,0442_ske_dnn_0_chair_00_chair-0166-sketch-20.png,chair-0166-sketch-20.png,0.0,-0.5163045,0.3095963,-0.58400005
alexnet_w3_mlp_simclrhn_probe2,1,443,NaN,chair,chair,0,0443_ske_dnn_0_chair_00_chair-0167-sketch-21.png,chair-0167-sketch-21.png,1.0,1.8183632,0.51601833,0.9208968
alexnet_w3_mlp_simclrhn_probe2,1,444,NaN,clock,chair,0,0444_ske_dnn_0_chair_00_chair-0168-sketch-22.png,chair-0168-sketch-22.png,0.0,0.3905022,1.2551117,-0.6113712
alexnet_w3_mlp_simclrhn_probe2,1,445,NaN,chair,chair,0,0445_ske_dnn_0_chair_00_chair-0175-sketch-29.png,chair-0175-sketch-29.png,1.0,1.8812864,0.87376136,0.71242774
alexnet_w3_mlp_simclrhn_probe2,1,446,NaN,clock,chair,0,0446_ske_dnn_0_chair_00_chair-0176-sketch-3.png,chair-0176-sketch-3.png,0.0,-1.3153204,3.3509843,-3.2995756
alexnet_w3_mlp_simclrhn_probe2,1,447,NaN,clock,chair,0,0447_ske_dnn_0_chair_00_chair-0178-sketch-31.png,chair-0178-sketch-31.png,0.0,0.6585741,1.2350092,-0.40760118
alexnet_w3_mlp_simclrhn_probe2,1,448,NaN,chair,chair,0,0448_ske_dnn_0_chair_00_chair-0180-sketch-33.png,chair-0180-sketch-33.png,1.0,-1.0041018,-1.3092614,0.21578048
alexnet_w3_mlp_simclrhn_probe2,1,449,NaN,clock,chair,0,0449_ske_dnn_0_chair_00_chair-0197-sketch-49.png,chair-0197-sketch-49.png,0.0,0.43328786,1.3455782,-0.6450867
alexnet_w3_mlp_simclrhn_probe2,1,450,NaN,chair,chair,0,0450_ske_dnn_0_chair_00_chair-0200-sketch-6.png,chair-0200-sketch-6.png,1.0,-1.0456123,-1.2546921,0.1478417
alexnet_w3_mlp_simclrhn_probe2,1,451,NaN,clock,clock,0,0451_ske_dnn_0_clock_00_clock-0005-sketch-12.png,clock-0005-sketch-12.png,1.0,11.946601,-2.1907902,9.996645
alexnet_w3_mlp_simclrhn_probe2,1,452,NaN,clock,clock,0,0452_ske_dnn_0_clock_00_clock-0007-sketch-14.png,clock-0007-sketch-14.png,1.0,8.559387,-1.6589326,7.2254434
alexnet_w3_mlp_simclrhn_probe2,1,453,NaN,clock,clock,0,0453_ske_dnn_0_clock_00_clock-0015-sketch-21.png,clock-0015-sketch-21.png,1.0,4.7142625,-1.7662115,4.582387
alexnet_w3_mlp_simclrhn_probe2,1,454,NaN,clock,clock,0,0454_ske_dnn_0_clock_00_clock-0017-sketch-23.png,clock-0017-sketch-23.png,1.0,3.924719,-0.6309184,3.221322
alexnet_w3_mlp_simclrhn_probe2,1,455,NaN,clock,clock,0,0455_ske_dnn_0_clock_00_clock-0018-sketch-24.png,clock-0018-sketch-24.png,1.0,8.870273,0.61125934,5.8400044
alexnet_w3_mlp_simclrhn_probe2,1,456,NaN,clock,clock,0,0456_ske_dnn_0_clock_00_clock-0021-sketch-27.png,clock-0021-sketch-27.png,1.0,3.4245694,2.353826,0.75712985
alexnet_w3_mlp_simclrhn_probe2,1,457,NaN,clock,clock,0,0457_ske_dnn_0_clock_00_clock-0022-sketch-28.png,clock-0022-sketch-28.png,1.0,3.9032402,2.320536,1.119141
alexnet_w3_mlp_simclrhn_probe2,1,458,NaN,clock,clock,0,0458_ske_dnn_0_clock_00_clock-0027-sketch-32.png,clock-0027-sketch-32.png,1.0,3.1437185,-0.5226774,2.5925333
alexnet_w3_mlp_simclrhn_probe2,1,459,NaN,clock,clock,0,0459_ske_dnn_0_clock_00_clock-0028-sketch-33.png,clock-0028-sketch-33.png,1.0,10.710368,-1.3562411,8.532381
alexnet_w3_mlp_simclrhn_probe2,1,460,NaN,clock,clock,0,0460_ske_dnn_0_clock_00_clock-0030-sketch-35.png,clock-0030-sketch-35.png,1.0,11.208186,0.10793897,7.8490605
alexnet_w3_mlp_simclrhn_probe2,1,461,NaN,clock,clock,0,0461_ske_dnn_0_clock_00_clock-0033-sketch-38.png,clock-0033-sketch-38.png,1.0,11.42706,0.3415511,7.838639
alexnet_w3_mlp_simclrhn_probe2,1,462,NaN,clock,clock,0,0462_ske_dnn_0_clock_00_clock-0035-sketch-4.png,clock-0035-sketch-4.png,1.0,9.096333,-1.8110951,7.712716
alexnet_w3_mlp_simclrhn_probe2,1,463,NaN,clock,clock,0,0463_ske_dnn_0_clock_00_clock-0044-sketch-48.png,clock-0044-sketch-48.png,1.0,2.444115,-0.43851453,2.0383267
alexnet_w3_mlp_simclrhn_probe2,1,464,NaN,clock,clock,0,0464_ske_dnn_0_clock_00_clock-0046-sketch-5.png,clock-0046-sketch-5.png,1.0,5.358893,-1.0435236,4.527192
alexnet_w3_mlp_simclrhn_probe2,1,465,NaN,clock,clock,0,0465_ske_dnn_0_clock_00_clock-0049-sketch-7.png,clock-0049-sketch-7.png,1.0,5.5131683,-0.93296623,4.5581055
alexnet_w3_mlp_simclrhn_probe2,1,466,NaN,keyboard,clock,0,0466_ske_dnn_0_clock_00_clock-0057-sketch-13.png,clock-0057-sketch-13.png,0.0,2.032994,2.0761883,-0.030542979
alexnet_w3_mlp_simclrhn_probe2,1,467,NaN,clock,clock,0,0467_ske_dnn_0_clock_00_clock-0059-sketch-15.png,clock-0059-sketch-15.png,1.0,3.8697674,0.19064023,2.6015358
alexnet_w3_mlp_simclrhn_probe2,1,468,NaN,clock,clock,0,0468_ske_dnn_0_clock_00_clock-0060-sketch-16.png,clock-0060-sketch-16.png,1.0,2.1193094,0.6552217,1.0352664
alexnet_w3_mlp_simclrhn_probe2,1,469,NaN,clock,clock,0,0469_ske_dnn_0_clock_00_clock-0067-sketch-22.png,clock-0067-sketch-22.png,1.0,5.2620935,2.927272,1.6509681
alexnet_w3_mlp_simclrhn_probe2,1,470,NaN,clock,clock,0,0470_ske_dnn_0_clock_00_clock-0069-sketch-24.png,clock-0069-sketch-24.png,1.0,2.8045328,2.398902,0.28682432
alexnet_w3_mlp_simclrhn_probe2,1,471,NaN,clock,clock,0,0471_ske_dnn_0_clock_00_clock-0070-sketch-25.png,clock-0070-sketch-25.png,1.0,3.6299906,2.51502,0.78840333
alexnet_w3_mlp_simclrhn_probe2,1,472,NaN,clock,clock,0,0472_ske_dnn_0_clock_00_clock-0071-sketch-26.png,clock-0071-sketch-26.png,1.0,8.542558,1.3587093,5.079748
alexnet_w3_mlp_simclrhn_probe2,1,473,NaN,chair,clock,0,0473_ske_dnn_0_clock_00_clock-0073-sketch-28.png,clock-0073-sketch-28.png,0.0,-0.17535599,1.5742753,-1.2371762
alexnet_w3_mlp_simclrhn_probe2,1,474,NaN,oven,clock,0,0474_ske_dnn_0_clock_00_clock-0074-sketch-29.png,clock-0074-sketch-29.png,0.0,0.608499,1.2459779,-0.45076564
alexnet_w3_mlp_simclrhn_probe2,1,475,NaN,clock,clock,0,0475_ske_dnn_0_clock_00_clock-0076-sketch-30.png,clock-0076-sketch-30.png,1.0,5.689032,2.6597607,2.1420183
alexnet_w3_mlp_simclrhn_probe2,1,476,NaN,clock,clock,0,0476_ske_dnn_0_clock_00_clock-0077-sketch-31.png,clock-0077-sketch-31.png,1.0,4.022181,3.0555882,0.6834843
alexnet_w3_mlp_simclrhn_probe2,1,477,NaN,clock,clock,0,0477_ske_dnn_0_clock_00_clock-0078-sketch-32.png,clock-0078-sketch-32.png,1.0,4.2416234,2.36465,1.3272207
alexnet_w3_mlp_simclrhn_probe2,1,478,NaN,clock,clock,0,0478_ske_dnn_0_clock_00_clock-0081-sketch-35.png,clock-0081-sketch-35.png,1.0,4.6612372,1.2739227,2.395193
alexnet_w3_mlp_simclrhn_probe2,1,479,NaN,clock,clock,0,0479_ske_dnn_0_clock_00_clock-0085-sketch-39.png,clock-0085-sketch-39.png,1.0,6.6326413,3.8538167,1.9649258
alexnet_w3_mlp_simclrhn_probe2,1,480,NaN,oven,clock,0,0480_ske_dnn_0_clock_00_clock-0087-sketch-40.png,clock-0087-sketch-40.png,0.0,1.561628,2.5093842,-0.6701648
alexnet_w3_mlp_simclrhn_probe2,1,481,NaN,clock,clock,0,0481_ske_dnn_0_clock_00_clock-0092-sketch-45.png,clock-0092-sketch-45.png,1.0,3.6459215,1.1795008,1.7440228
alexnet_w3_mlp_simclrhn_probe2,1,482,NaN,clock,clock,0,0482_ske_dnn_0_clock_00_clock-0093-sketch-46.png,clock-0093-sketch-46.png,1.0,3.872586,0.060406238,2.6956182
alexnet_w3_mlp_simclrhn_probe2,1,483,NaN,clock,clock,0,0483_ske_dnn_0_clock_00_clock-0095-sketch-48.png,clock-0095-sketch-48.png,1.0,6.576014,3.6522684,2.0674005
alexnet_w3_mlp_simclrhn_probe2,1,484,NaN,keyboard,clock,0,0484_ske_dnn_0_clock_00_clock-0099-sketch-6.png,clock-0099-sketch-6.png,0.0,1.5054259,2.9532676,-1.0237787
alexnet_w3_mlp_simclrhn_probe2,1,485,NaN,clock,clock,0,0485_ske_dnn_0_clock_00_clock-0110-sketch-15.png,clock-0110-sketch-15.png,1.0,5.0448956,-0.5109345,3.928565
alexnet_w3_mlp_simclrhn_probe2,1,486,NaN,clock,clock,0,0486_ske_dnn_0_clock_00_clock-0112-sketch-17.png,clock-0112-sketch-17.png,1.0,19.604252,-3.714335,16.488731
alexnet_w3_mlp_simclrhn_probe2,1,487,NaN,clock,clock,0,0487_ske_dnn_0_clock_00_clock-0115-sketch-2.png,clock-0115-sketch-2.png,1.0,4.412392,-0.078853846,3.1757908
alexnet_w3_mlp_simclrhn_probe2,1,488,NaN,clock,clock,0,0488_ske_dnn_0_clock_00_clock-0118-sketch-22.png,clock-0118-sketch-22.png,1.0,8.880104,-0.7801028,6.8307977
alexnet_w3_mlp_simclrhn_probe2,1,489,NaN,clock,clock,0,0489_ske_dnn_0_clock_00_clock-0123-sketch-27.png,clock-0123-sketch-27.png,1.0,11.408683,-2.0202172,9.4956665
alexnet_w3_mlp_simclrhn_probe2,1,490,NaN,clock,clock,0,0490_ske_dnn_0_clock_00_clock-0127-sketch-30.png,clock-0127-sketch-30.png,1.0,9.737271,0.8512753,6.283348
alexnet_w3_mlp_simclrhn_probe2,1,491,NaN,clock,clock,0,0491_ske_dnn_0_clock_00_clock-0131-sketch-34.png,clock-0131-sketch-34.png,1.0,8.272558,1.7182164,4.6346197
alexnet_w3_mlp_simclrhn_probe2,1,492,NaN,clock,clock,0,0492_ske_dnn_0_clock_00_clock-0132-sketch-35.png,clock-0132-sketch-35.png,1.0,4.3341737,-0.058359355,3.1059897
alexnet_w3_mlp_simclrhn_probe2,1,493,NaN,clock,clock,0,0493_ske_dnn_0_clock_00_clock-0133-sketch-36.png,clock-0133-sketch-36.png,1.0,2.511305,-0.4143962,2.0687833
alexnet_w3_mlp_simclrhn_probe2,1,494,NaN,clock,clock,0,0494_ske_dnn_0_clock_00_clock-0136-sketch-39.png,clock-0136-sketch-39.png,1.0,7.716768,-0.7220451,5.967142
alexnet_w3_mlp_simclrhn_probe2,1,495,NaN,clock,clock,0,0495_ske_dnn_0_clock_00_clock-0137-sketch-4.png,clock-0137-sketch-4.png,1.0,6.806484,-1.4145935,5.81318
alexnet_w3_mlp_simclrhn_probe2,1,496,NaN,clock,clock,0,0496_ske_dnn_0_clock_00_clock-0138-sketch-40.png,clock-0138-sketch-40.png,1.0,8.188561,1.5827305,4.671028
alexnet_w3_mlp_simclrhn_probe2,1,497,NaN,clock,clock,0,0497_ske_dnn_0_clock_00_clock-0141-sketch-43.png,clock-0141-sketch-43.png,1.0,5.218541,-0.32983524,3.9232948
alexnet_w3_mlp_simclrhn_probe2,1,498,NaN,clock,clock,0,0498_ske_dnn_0_clock_00_clock-0143-sketch-45.png,clock-0143-sketch-45.png,1.0,4.317201,-1.0236826,3.776575
alexnet_w3_mlp_simclrhn_probe2,1,499,NaN,clock,clock,0,0499_ske_dnn_0_clock_00_clock-0144-sketch-46.png,clock-0144-sketch-46.png,1.0,6.730623,-1.2525365,5.644946
alexnet_w3_mlp_simclrhn_probe2,1,500,NaN,clock,clock,0,0500_ske_dnn_0_clock_00_clock-0150-sketch-6.png,clock-0150-sketch-6.png,1.0,11.126819,0.28061637,7.669423
alexnet_w3_mlp_simclrhn_probe2,1,501,NaN,dog,dog,0,0501_ske_dnn_0_dog_00_dog-0011-sketch-18.png,dog-0011-sketch-18.png,1.0,0.2573531,-0.60637474,0.6107478
alexnet_w3_mlp_simclrhn_probe2,1,502,NaN,bottle,dog,0,0502_ske_dnn_0_dog_00_dog-0111-sketch-17.png,dog-0111-sketch-17.png,0.0,-3.7106051,-0.9982729,-1.9179085
alexnet_w3_mlp_simclrhn_probe2,1,503,NaN,clock,dog,0,0503_ske_dnn_0_dog_00_dog-0215-sketch-19.png,dog-0215-sketch-19.png,0.0,-5.933636,2.8867128,-6.2369285
alexnet_w3_mlp_simclrhn_probe2,1,504,NaN,cat,dog,0,0504_ske_dnn_0_dog_00_dog-0243-sketch-44.png,dog-0243-sketch-44.png,0.0,-2.0514278,-0.72754645,-0.9361255
alexnet_w3_mlp_simclrhn_probe2,1,505,NaN,cat,dog,0,0505_ske_dnn_0_dog_00_dog-0476-sketch-26.png,dog-0476-sketch-26.png,0.0,-1.8642805,-1.3141502,-0.38900083
alexnet_w3_mlp_simclrhn_probe2,1,506,NaN,cat,dog,0,0506_ske_dnn_0_dog_00_dog-0607-sketch-8.png,dog-0607-sketch-8.png,0.0,-0.44668213,0.21589796,-0.46851486
alexnet_w3_mlp_simclrhn_probe2,1,507,NaN,dog,dog,0,0507_ske_dnn_0_dog_00_dog-0630-sketch-28.png,dog-0630-sketch-28.png,1.0,1.4959363,-1.0518961,1.8015896
alexnet_w3_mlp_simclrhn_probe2,1,508,NaN,dog,dog,0,0508_ske_dnn_0_dog_00_dog-1035-sketch-27.png,dog-1035-sketch-27.png,1.0,-0.13255613,-0.34459293,0.14993267
alexnet_w3_mlp_simclrhn_probe2,1,509,NaN,dog,dog,0,0509_ske_dnn_0_dog_00_dog-1292-sketch-3.png,dog-1292-sketch-3.png,1.0,-0.18132198,-0.19180231,0.007410712
alexnet_w3_mlp_simclrhn_probe2,1,510,NaN,cat,dog,0,0510_ske_dnn_0_dog_00_dog-1393-sketch-3.png,dog-1393-sketch-3.png,0.0,-1.0037104,-0.43211064,-0.40418205
alexnet_w3_mlp_simclrhn_probe2,1,511,NaN,cat,dog,0,0511_ske_dnn_0_dog_00_dog-1460-sketch-44.png,dog-1460-sketch-44.png,0.0,-2.2702103,-0.8552683,-1.0005151
alexnet_w3_mlp_simclrhn_probe2,1,512,NaN,clock,dog,0,0512_ske_dnn_0_dog_00_dog-1617-sketch-48.png,dog-1617-sketch-48.png,0.0,-5.2074823,1.441954,-4.701862
alexnet_w3_mlp_simclrhn_probe2,1,513,NaN,dog,dog,0,0513_ske_dnn_0_dog_00_dog-1657-sketch-38.png,dog-1657-sketch-38.png,1.0,1.2043612,-2.6121159,2.6986568
alexnet_w3_mlp_simclrhn_probe2,1,514,NaN,dog,dog,0,0514_ske_dnn_0_dog_00_dog-1711-sketch-40.png,dog-1711-sketch-40.png,1.0,-0.5115449,-0.97031754,0.32440126
alexnet_w3_mlp_simclrhn_probe2,1,515,NaN,dog,dog,0,0515_ske_dnn_0_dog_00_dog-1759-sketch-38.png,dog-1759-sketch-38.png,1.0,0.89013636,-2.1446931,2.1459486
alexnet_w3_mlp_simclrhn_probe2,1,516,NaN,clock,dog,0,0516_ske_dnn_0_dog_00_dog-1797-sketch-26.png,dog-1797-sketch-26.png,0.0,-6.8420916,0.17800443,-4.9639573
alexnet_w3_mlp_simclrhn_probe2,1,517,NaN,bottle,dog,0,0517_ske_dnn_0_dog_00_dog-1973-sketch-47.png,dog-1973-sketch-47.png,0.0,-2.6325603,-1.5347204,-0.77629
alexnet_w3_mlp_simclrhn_probe2,1,518,NaN,clock,dog,0,0518_ske_dnn_0_dog_00_dog-2150-sketch-22.png,dog-2150-sketch-22.png,0.0,-4.821134,1.6825995,-4.598834
alexnet_w3_mlp_simclrhn_probe2,1,519,NaN,clock,dog,0,0519_ske_dnn_0_dog_00_dog-2198-sketch-20.png,dog-2198-sketch-20.png,0.0,-6.7118926,1.8195449,-6.0326376
alexnet_w3_mlp_simclrhn_probe2,1,520,NaN,dog,dog,0,0520_ske_dnn_0_dog_00_dog-2291-sketch-12.png,dog-2291-sketch-12.png,1.0,0.117823735,-0.72809714,0.5981564
alexnet_w3_mlp_simclrhn_probe2,1,521,NaN,bird,dog,0,0521_ske_dnn_0_dog_00_dog-2323-sketch-41.png,dog-2323-sketch-41.png,0.0,-1.56949,-0.3532177,-0.86003435
alexnet_w3_mlp_simclrhn_probe2,1,522,NaN,dog,dog,0,0522_ske_dnn_0_dog_00_dog-2454-sketch-21.png,dog-2454-sketch-21.png,1.0,0.413101,-3.5975711,2.8359735
alexnet_w3_mlp_simclrhn_probe2,1,523,NaN,dog,dog,0,0523_ske_dnn_0_dog_00_dog-2506-sketch-23.png,dog-2506-sketch-23.png,1.0,3.0206592,-2.7183619,4.058101
alexnet_w3_mlp_simclrhn_probe2,1,524,NaN,dog,dog,0,0524_ske_dnn_0_dog_00_dog-2541-sketch-0.png,dog-2541-sketch-0.png,1.0,0.95328283,-4.3232923,3.731102
alexnet_w3_mlp_simclrhn_probe2,1,525,NaN,dog,dog,0,0525_ske_dnn_0_dog_00_dog-2615-sketch-3.png,dog-2615-sketch-3.png,1.0,2.407886,-2.2761533,3.312116
alexnet_w3_mlp_simclrhn_probe2,1,526,NaN,dog,dog,0,0526_ske_dnn_0_dog_00_dog-2948-sketch-10.png,dog-2948-sketch-10.png,1.0,-0.5320153,-2.6529033,1.4996943
alexnet_w3_mlp_simclrhn_probe2,1,527,NaN,dog,dog,0,0527_ske_dnn_0_dog_00_dog-3000-sketch-11.png,dog-3000-sketch-11.png,1.0,2.4702692,-1.1342661,2.5487914
alexnet_w3_mlp_simclrhn_probe2,1,528,NaN,clock,dog,0,0528_ske_dnn_0_dog_00_dog-3153-sketch-11.png,dog-3153-sketch-11.png,0.0,-0.7045422,0.2870851,-0.7011864
alexnet_w3_mlp_simclrhn_probe2,1,529,NaN,cat,dog,0,0529_ske_dnn_0_dog_00_dog-3251-sketch-9.png,dog-3251-sketch-9.png,0.0,-1.2131733,-0.3279828,-0.6259242
alexnet_w3_mlp_simclrhn_probe2,1,530,NaN,dog,dog,0,0530_ske_dnn_0_dog_00_dog-3303-sketch-0.png,dog-3303-sketch-0.png,1.0,-0.051329087,-1.3586775,0.9244349
alexnet_w3_mlp_simclrhn_probe2,1,531,NaN,dog,dog,0,0531_ske_dnn_0_dog_00_dog-3338-sketch-40.png,dog-3338-sketch-40.png,1.0,1.8976905,-0.98286694,2.036862
alexnet_w3_mlp_simclrhn_probe2,1,532,NaN,cat,dog,0,0532_ske_dnn_0_dog_00_dog-3417-sketch-2.png,dog-3417-sketch-2.png,0.0,-1.2741128,-0.75648093,-0.36602104
alexnet_w3_mlp_simclrhn_probe2,1,533,NaN,dog,dog,0,0533_ske_dnn_0_dog_00_dog-3503-sketch-6.png,dog-3503-sketch-6.png,1.0,-0.12349316,-0.33144793,0.14704622
alexnet_w3_mlp_simclrhn_probe2,1,534,NaN,dog,dog,0,0534_ske_dnn_0_dog_00_dog-3573-sketch-22.png,dog-3573-sketch-22.png,1.0,0.41814822,0.34358633,0.05272322
alexnet_w3_mlp_simclrhn_probe2,1,535,NaN,cat,dog,0,0535_ske_dnn_0_dog_00_dog-3646-sketch-42.png,dog-3646-sketch-42.png,0.0,1.6836213,2.3397138,-0.46392748
alexnet_w3_mlp_simclrhn_probe2,1,536,NaN,cat,dog,0,0536_ske_dnn_0_dog_00_dog-3695-sketch-40.png,dog-3695-sketch-40.png,0.0,-1.4294319,-1.0559424,-0.26409698
alexnet_w3_mlp_simclrhn_probe2,1,537,NaN,chair,dog,0,0537_ske_dnn_0_dog_00_dog-3915-sketch-0.png,dog-3915-sketch-0.png,0.0,-2.7844307,-1.3852493,-0.9893707
alexnet_w3_mlp_simclrhn_probe2,1,538,NaN,cat,dog,0,0538_ske_dnn_0_dog_00_dog-4202-sketch-4.png,dog-4202-sketch-4.png,0.0,0.49729535,2.9992874,-1.7691755
alexnet_w3_mlp_simclrhn_probe2,1,539,NaN,cat,dog,0,0539_ske_dnn_0_dog_00_dog-4208-sketch-45.png,dog-4208-sketch-45.png,0.0,-0.23424472,0.03922503,-0.19337231
alexnet_w3_mlp_simclrhn_probe2,1,540,NaN,dog,dog,0,0540_ske_dnn_0_dog_00_dog-4325-sketch-13.png,dog-4325-sketch-13.png,1.0,0.45631176,-2.3706536,1.9989663
alexnet_w3_mlp_simclrhn_probe2,1,541,NaN,dog,dog,0,0541_ske_dnn_0_dog_00_dog-4475-sketch-11.png,dog-4475-sketch-11.png,1.0,0.4645489,0.2395138,0.15912384
alexnet_w3_mlp_simclrhn_probe2,1,542,NaN,clock,dog,0,0542_ske_dnn_0_dog_00_dog-4499-sketch-33.png,dog-4499-sketch-33.png,0.0,-3.9263592,-0.111154,-2.6977575
alexnet_w3_mlp_simclrhn_probe2,1,543,NaN,cat,dog,0,0543_ske_dnn_0_dog_00_dog-4581-sketch-16.png,dog-4581-sketch-16.png,0.0,-1.9811928,-0.35047197,-1.1530938
alexnet_w3_mlp_simclrhn_probe2,1,544,NaN,clock,dog,0,0544_ske_dnn_0_dog_00_dog-4709-sketch-4.png,dog-4709-sketch-4.png,0.0,-5.21867,1.4114684,-4.6882157
alexnet_w3_mlp_simclrhn_probe2,1,545,NaN,cat,dog,0,0545_ske_dnn_0_dog_00_dog-4909-sketch-37.png,dog-4909-sketch-37.png,0.0,-1.4248791,-0.37197736,-0.744514
alexnet_w3_mlp_simclrhn_probe2,1,546,NaN,cat,dog,0,0546_ske_dnn_0_dog_00_dog-5028-sketch-8.png,dog-5028-sketch-8.png,0.0,-0.24275923,0.049667135,-0.20677666
alexnet_w3_mlp_simclrhn_probe2,1,547,NaN,dog,dog,0,0547_ske_dnn_0_dog_00_dog-5084-sketch-11.png,dog-5084-sketch-11.png,1.0,-0.46792415,-1.6871315,0.86210984
alexnet_w3_mlp_simclrhn_probe2,1,548,NaN,cat,dog,0,0548_ske_dnn_0_dog_00_dog-5223-sketch-45.png,dog-5223-sketch-45.png,0.0,-1.6186138,-0.9124071,-0.49936357
alexnet_w3_mlp_simclrhn_probe2,1,549,NaN,dog,dog,0,0549_ske_dnn_0_dog_00_dog-5325-sketch-45.png,dog-5325-sketch-45.png,1.0,1.9837047,-0.99339074,2.1051245
alexnet_w3_mlp_simclrhn_probe2,1,550,NaN,dog,dog,0,0550_ske_dnn_0_dog_00_dog-5354-sketch-25.png,dog-5354-sketch-25.png,1.0,-1.056529,-1.4775175,0.29768378
alexnet_w3_mlp_simclrhn_probe2,1,551,NaN,elephant,elephant,0,0551_ske_dnn_0_elephant_00_elephant-0001-sketch-0.png,elephant-0001-sketch-0.png,1.0,-0.35692072,-0.63183135,0.19439118
alexnet_w3_mlp_simclrhn_probe2,1,552,NaN,elephant,elephant,0,0552_ske_dnn_0_elephant_00_elephant-0002-sketch-1.png,elephant-0002-sketch-1.png,1.0,2.1633706,0.725182,1.0169529
alexnet_w3_mlp_simclrhn_probe2,1,553,NaN,chair,elephant,0,0553_ske_dnn_0_elephant_00_elephant-0006-sketch-13.png,elephant-0006-sketch-13.png,0.0,-4.4740067,-0.1737155,-3.040765
alexnet_w3_mlp_simclrhn_probe2,1,554,NaN,clock,elephant,0,0554_ske_dnn_0_elephant_00_elephant-0011-sketch-18.png,elephant-0011-sketch-18.png,0.0,-7.130514,1.0148603,-5.7596493
alexnet_w3_mlp_simclrhn_probe2,1,555,NaN,clock,elephant,0,0555_ske_dnn_0_elephant_00_elephant-0012-sketch-19.png,elephant-0012-sketch-19.png,0.0,-5.803626,0.2708089,-4.2952743
alexnet_w3_mlp_simclrhn_probe2,1,556,NaN,chair,elephant,0,0556_ske_dnn_0_elephant_00_elephant-0013-sketch-2.png,elephant-0013-sketch-2.png,0.0,-3.953201,0.19422817,-2.9326756
alexnet_w3_mlp_simclrhn_probe2,1,557,NaN,bottle,elephant,0,0557_ske_dnn_0_elephant_00_elephant-0014-sketch-20.png,elephant-0014-sketch-20.png,0.0,-3.123466,-2.1428363,-0.6934099
alexnet_w3_mlp_simclrhn_probe2,1,558,NaN,cat,elephant,0,0558_ske_dnn_0_elephant_00_elephant-0015-sketch-21.png,elephant-0015-sketch-21.png,0.0,-2.0623446,-1.2421706,-0.5799506
alexnet_w3_mlp_simclrhn_probe2,1,559,NaN,clock,elephant,0,0559_ske_dnn_0_elephant_00_elephant-0016-sketch-22.png,elephant-0016-sketch-22.png,0.0,-4.518446,1.3026122,-4.11611
alexnet_w3_mlp_simclrhn_probe2,1,560,NaN,elephant,elephant,0,0560_ske_dnn_0_elephant_00_elephant-0019-sketch-25.png,elephant-0019-sketch-25.png,1.0,1.2799971,-1.3664991,1.8713555
alexnet_w3_mlp_simclrhn_probe2,1,561,NaN,bicycle,elephant,0,0561_ske_dnn_0_elephant_00_elephant-0020-sketch-26.png,elephant-0020-sketch-26.png,0.0,-4.2765326,0.4142936,-3.3169153
alexnet_w3_mlp_simclrhn_probe2,1,562,NaN,clock,elephant,0,0562_ske_dnn_0_elephant_00_elephant-0021-sketch-27.png,elephant-0021-sketch-27.png,0.0,-3.0682323,-0.78373814,-1.6153814
alexnet_w3_mlp_simclrhn_probe2,1,563,NaN,clock,elephant,0,0563_ske_dnn_0_elephant_00_elephant-0022-sketch-28.png,elephant-0022-sketch-28.png,0.0,-6.049053,2.026426,-5.7102265
alexnet_w3_mlp_simclrhn_probe2,1,564,NaN,elephant,elephant,0,0564_ske_dnn_0_elephant_00_elephant-0025-sketch-30.png,elephant-0025-sketch-30.png,1.0,-0.71544623,-0.8574435,0.10040724
alexnet_w3_mlp_simclrhn_probe2,1,565,NaN,elephant,elephant,0,0565_ske_dnn_0_elephant_00_elephant-0028-sketch-33.png,elephant-0028-sketch-33.png,1.0,2.678687,0.6737241,1.417723
alexnet_w3_mlp_simclrhn_probe2,1,566,NaN,chair,elephant,0,0566_ske_dnn_0_elephant_00_elephant-0029-sketch-34.png,elephant-0029-sketch-34.png,0.0,-3.725194,0.056757927,-2.674244
alexnet_w3_mlp_simclrhn_probe2,1,567,NaN,clock,elephant,0,0567_ske_dnn_0_elephant_00_elephant-0030-sketch-35.png,elephant-0030-sketch-35.png,0.0,-6.208624,1.2402807,-5.267171
alexnet_w3_mlp_simclrhn_probe2,1,568,NaN,knife,elephant,0,0568_ske_dnn_0_elephant_00_elephant-0032-sketch-37.png,elephant-0032-sketch-37.png,0.0,-1.1871392,-0.24690956,-0.6648427
alexnet_w3_mlp_simclrhn_probe2,1,569,NaN,bicycle,elephant,0,0569_ske_dnn_0_elephant_00_elephant-0033-sketch-38.png,elephant-0033-sketch-38.png,0.0,-6.608696,-0.042124733,-4.643267
alexnet_w3_mlp_simclrhn_probe2,1,570,NaN,elephant,elephant,0,0570_ske_dnn_0_elephant_00_elephant-0037-sketch-41.png,elephant-0037-sketch-41.png,1.0,-0.35621756,-0.9736075,0.4365606
alexnet_w3_mlp_simclrhn_probe2,1,571,NaN,elephant,elephant,0,0571_ske_dnn_0_elephant_00_elephant-0039-sketch-43.png,elephant-0039-sketch-43.png,1.0,0.60879064,-0.6285574,0.87493724
alexnet_w3_mlp_simclrhn_probe2,1,572,NaN,cat,elephant,0,0572_ske_dnn_0_elephant_00_elephant-0040-sketch-44.png,elephant-0040-sketch-44.png,0.0,-1.1036806,-0.5182922,-0.41393214
alexnet_w3_mlp_simclrhn_probe2,1,573,NaN,cat,elephant,0,0573_ske_dnn_0_elephant_00_elephant-0043-sketch-47.png,elephant-0043-sketch-47.png,0.0,-1.3078295,-1.0111059,-0.20981528
alexnet_w3_mlp_simclrhn_probe2,1,574,NaN,cat,elephant,0,0574_ske_dnn_0_elephant_00_elephant-0044-sketch-48.png,elephant-0044-sketch-48.png,0.0,-2.1314256,-0.62882555,-1.0624987
alexnet_w3_mlp_simclrhn_probe2,1,575,NaN,knife,elephant,0,0575_ske_dnn_0_elephant_00_elephant-0046-sketch-5.png,elephant-0046-sketch-5.png,0.0,-1.8128178,-0.36607575,-1.0230012
alexnet_w3_mlp_simclrhn_probe2,1,576,NaN,clock,elephant,0,0576_ske_dnn_0_elephant_00_elephant-0047-sketch-50.png,elephant-0047-sketch-50.png,0.0,-7.3877,0.967067,-5.9077125
alexnet_w3_mlp_simclrhn_probe2,1,577,NaN,bicycle,elephant,0,0577_ske_dnn_0_elephant_00_elephant-0048-sketch-6.png,elephant-0048-sketch-6.png,0.0,-6.8857584,-0.077268764,-4.8143296
alexnet_w3_mlp_simclrhn_probe2,1,578,NaN,cat,elephant,0,0578_ske_dnn_0_elephant_00_elephant-0050-sketch-8.png,elephant-0050-sketch-8.png,0.0,-1.2440093,-0.99873084,-0.17343804
alexnet_w3_mlp_simclrhn_probe2,1,579,NaN,elephant,elephant,0,0579_ske_dnn_0_elephant_00_elephant-0052-sketch-0.png,elephant-0052-sketch-0.png,1.0,0.947867,-0.5869401,1.0852726
alexnet_w3_mlp_simclrhn_probe2,1,580,NaN,dog,elephant,0,0580_ske_dnn_0_elephant_00_elephant-0054-sketch-10.png,elephant-0054-sketch-10.png,0.0,-1.8236778,-1.4444766,-0.26813573
alexnet_w3_mlp_simclrhn_probe2,1,581,NaN,knife,elephant,0,0581_ske_dnn_0_elephant_00_elephant-0055-sketch-11.png,elephant-0055-sketch-11.png,0.0,-1.5458227,-0.75432014,-0.5596769
alexnet_w3_mlp_simclrhn_probe2,1,582,NaN,oven,elephant,0,0582_ske_dnn_0_elephant_00_elephant-0057-sketch-13.png,elephant-0057-sketch-13.png,0.0,-0.98173374,-0.35167724,-0.44551724
alexnet_w3_mlp_simclrhn_probe2,1,583,NaN,elephant,elephant,0,0583_ske_dnn_0_elephant_00_elephant-0058-sketch-14.png,elephant-0058-sketch-14.png,1.0,6.7740564,-1.1629769,5.61233
alexnet_w3_mlp_simclrhn_probe2,1,584,NaN,elephant,elephant,0,0584_ske_dnn_0_elephant_00_elephant-0061-sketch-17.png,elephant-0061-sketch-17.png,1.0,12.252083,-0.6380155,9.114676
alexnet_w3_mlp_simclrhn_probe2,1,585,NaN,chair,elephant,0,0585_ske_dnn_0_elephant_00_elephant-0062-sketch-18.png,elephant-0062-sketch-18.png,0.0,-2.686141,-0.5644485,-1.5002633
alexnet_w3_mlp_simclrhn_probe2,1,586,NaN,bicycle,elephant,0,0586_ske_dnn_0_elephant_00_elephant-0065-sketch-20.png,elephant-0065-sketch-20.png,0.0,-3.8022203,0.23821343,-2.8570182
alexnet_w3_mlp_simclrhn_probe2,1,587,NaN,elephant,elephant,0,0587_ske_dnn_0_elephant_00_elephant-0066-sketch-21.png,elephant-0066-sketch-21.png,1.0,7.3430634,0.25821993,5.009741
alexnet_w3_mlp_simclrhn_probe2,1,588,NaN,elephant,elephant,0,0588_ske_dnn_0_elephant_00_elephant-0071-sketch-26.png,elephant-0071-sketch-26.png,1.0,7.4715104,-0.8541374,5.8871217
alexnet_w3_mlp_simclrhn_probe2,1,589,NaN,bicycle,elephant,0,0589_ske_dnn_0_elephant_00_elephant-0075-sketch-3.png,elephant-0075-sketch-3.png,0.0,-4.829545,-0.21460125,-3.2632582
alexnet_w3_mlp_simclrhn_probe2,1,590,NaN,clock,elephant,0,0590_ske_dnn_0_elephant_00_elephant-0076-sketch-30.png,elephant-0076-sketch-30.png,0.0,-5.190645,1.2206398,-4.533463
alexnet_w3_mlp_simclrhn_probe2,1,591,NaN,elephant,elephant,0,0591_ske_dnn_0_elephant_00_elephant-0077-sketch-31.png,elephant-0077-sketch-31.png,1.0,-0.6281917,-0.7164032,0.062374935
alexnet_w3_mlp_simclrhn_probe2,1,592,NaN,elephant,elephant,0,0592_ske_dnn_0_elephant_00_elephant-0079-sketch-33.png,elephant-0079-sketch-33.png,1.0,-0.60629183,-1.746791,0.80645466
alexnet_w3_mlp_simclrhn_probe2,1,593,NaN,bicycle,elephant,0,0593_ske_dnn_0_elephant_00_elephant-0080-sketch-34.png,elephant-0080-sketch-34.png,0.0,-2.5679245,-0.30743963,-1.5984043
alexnet_w3_mlp_simclrhn_probe2,1,594,NaN,elephant,elephant,0,0594_ske_dnn_0_elephant_00_elephant-0082-sketch-36.png,elephant-0082-sketch-36.png,1.0,0.050420724,-0.40693772,0.32340127
alexnet_w3_mlp_simclrhn_probe2,1,595,NaN,elephant,elephant,0,0595_ske_dnn_0_elephant_00_elephant-0086-sketch-4.png,elephant-0086-sketch-4.png,1.0,0.65738,-0.1807962,0.5926801
alexnet_w3_mlp_simclrhn_probe2,1,596,NaN,elephant,elephant,0,0596_ske_dnn_0_elephant_00_elephant-0090-sketch-43.png,elephant-0090-sketch-43.png,1.0,5.5896544,-0.038475156,3.9796886
alexnet_w3_mlp_simclrhn_probe2,1,597,NaN,cat,elephant,0,0597_ske_dnn_0_elephant_00_elephant-0094-sketch-47.png,elephant-0094-sketch-47.png,0.0,-2.2071152,-1.2119077,-0.70371795
alexnet_w3_mlp_simclrhn_probe2,1,598,NaN,clock,elephant,0,0598_ske_dnn_0_elephant_00_elephant-0098-sketch-50.png,elephant-0098-sketch-50.png,0.0,-6.173254,2.9610798,-6.4589496
alexnet_w3_mlp_simclrhn_probe2,1,599,NaN,elephant,elephant,0,0599_ske_dnn_0_elephant_00_elephant-0100-sketch-7.png,elephant-0100-sketch-7.png,1.0,2.8659859,-1.3652214,2.9919155
alexnet_w3_mlp_simclrhn_probe2,1,600,NaN,clock,elephant,0,0600_ske_dnn_0_elephant_00_elephant-0101-sketch-8.png,elephant-0101-sketch-8.png,0.0,-6.1178226,3.050205,-6.4827747
alexnet_w3_mlp_simclrhn_probe2,1,601,NaN,keyboard,keyboard,0,0601_ske_dnn_0_keyboard_00_keyboard-0002-sketch-1.png,keyboard-0002-sketch-1.png,1.0,3.1414475,0.8159377,1.6443838
alexnet_w3_mlp_simclrhn_probe2,1,602,NaN,keyboard,keyboard,0,0602_ske_dnn_0_keyboard_00_keyboard-0003-sketch-10.png,keyboard-0003-sketch-10.png,1.0,6.585746,3.9598465,1.8567913
alexnet_w3_mlp_simclrhn_probe2,1,603,NaN,keyboard,keyboard,0,0603_ske_dnn_0_keyboard_00_keyboard-0004-sketch-11.png,keyboard-0004-sketch-11.png,1.0,10.543422,0.43924817,7.1447296
alexnet_w3_mlp_simclrhn_probe2,1,604,NaN,keyboard,keyboard,0,0604_ske_dnn_0_keyboard_00_keyboard-0005-sketch-12.png,keyboard-0005-sketch-12.png,1.0,8.06702,0.36539826,5.4458694
