subj,session,trial,rt,object_response,category,condition,imagename,filename,is_correct,targ_act,max_nontarg_act,decision_margin
alexnet_w1_mlp_simclrhn_probe1,1,1,NaN,airplane,airplane,0,0001_ske_dnn_0_airplane_00_airplane-0001-sketch-0.png,airplane-0001-sketch-0.png,1.0,5.0224614,-1.2406561,4.4286933
alexnet_w1_mlp_simclrhn_probe1,1,2,NaN,airplane,airplane,0,0002_ske_dnn_0_airplane_00_airplane-0002-sketch-1.png,airplane-0002-sketch-1.png,1.0,3.0516877,0.44016933,1.8466223
alexnet_w1_mlp_simclrhn_probe1,1,3,NaN,airplane,airplane,0,0003_ske_dnn_0_airplane_00_airplane-0003-sketch-10.png,airplane-0003-sketch-10.png,1.0,0.38815027,-0.18479042,0.40513027
alexnet_w1_mlp_simclrhn_probe1,1,4,NaN,airplane,airplane,0,0004_ske_dnn_0_airplane_00_airplane-0004-sketch-11.png,airplane-0004-sketch-11.png,1.0,0.6735951,-0.84583175,1.0743971
alexnet_w1_mlp_simclrhn_probe1,1,5,NaN,airplane,airplane,0,0005_ske_dnn_0_airplane_00_airplane-0005-sketch-12.png,airplane-0005-sketch-12.png,1.0,3.280838,-0.43958086,2.6307335
alexnet_w1_mlp_simclrhn_probe1,1,6,NaN,airplane,airplane,0,0006_ske_dnn_0_airplane_00_airplane-0006-sketch-13.png,airplane-0006-sketch-13.png,1.0,6.124184,-0.7480486,4.8594027
alexnet_w1_mlp_simclrhn_probe1,1,7,NaN,airplane,airplane,0,0007_ske_dnn_0_airplane_00_airplane-0007-sketch-14.png,airplane-0007-sketch-14.png,1.0,1.3971057,-0.8120706,1.5621235
alexnet_w1_mlp_simclrhn_probe1,1,8,NaN,airplane,airplane,0,0008_ske_dnn_0_airplane_00_airplane-0008-sketch-15.png,airplane-0008-sketch-15.png,1.0,1.4021106,-0.35752591,1.2442509
alexnet_w1_mlp_simclrhn_probe1,1,9,NaN,airplane,airplane,0,0009_ske_dnn_0_airplane_00_airplane-0009-sketch-16.png,airplane-0009-sketch-16.png,1.0,4.078609,-1.3265812,3.822047
alexnet_w1_mlp_simclrhn_probe1,1,10,NaN,airplane,airplane,0,0010_ske_dnn_0_airplane_00_airplane-0010-sketch-17.png,airplane-0010-sketch-17.png,1.0,2.2677217,-1.6894946,2.7981746
alexnet_w1_mlp_simclrhn_probe1,1,11,NaN,clock,airplane,0,0011_ske_dnn_0_airplane_00_airplane-0011-sketch-18.png,airplane-0011-sketch-18.png,0.0,0.60623723,1.5090173,-0.63836193
alexnet_w1_mlp_simclrhn_probe1,1,12,NaN,airplane,airplane,0,0012_ske_dnn_0_airplane_00_airplane-0012-sketch-19.png,airplane-0012-sketch-19.png,1.0,0.67269146,0.2383341,0.30713704
alexnet_w1_mlp_simclrhn_probe1,1,13,NaN,airplane,airplane,0,0013_ske_dnn_0_airplane_00_airplane-0013-sketch-2.png,airplane-0013-sketch-2.png,1.0,3.7357826,-0.39828792,2.9232292
alexnet_w1_mlp_simclrhn_probe1,1,14,NaN,airplane,airplane,0,0014_ske_dnn_0_airplane_00_airplane-0014-sketch-20.png,airplane-0014-sketch-20.png,1.0,3.679282,-0.7333992,3.1202369
alexnet_w1_mlp_simclrhn_probe1,1,15,NaN,airplane,airplane,0,0015_ske_dnn_0_airplane_00_airplane-0015-sketch-21.png,airplane-0015-sketch-21.png,1.0,3.331229,-0.13323814,2.4497483
alexnet_w1_mlp_simclrhn_probe1,1,16,NaN,airplane,airplane,0,0016_ske_dnn_0_airplane_00_airplane-0016-sketch-22.png,airplane-0016-sketch-22.png,1.0,3.9511702,-1.4786615,3.8394706
alexnet_w1_mlp_simclrhn_probe1,1,17,NaN,airplane,airplane,0,0017_ske_dnn_0_airplane_00_airplane-0017-sketch-23.png,airplane-0017-sketch-23.png,1.0,1.9769604,-0.07746247,1.4526963
alexnet_w1_mlp_simclrhn_probe1,1,18,NaN,clock,airplane,0,0018_ske_dnn_0_airplane_00_airplane-0018-sketch-24.png,airplane-0018-sketch-24.png,0.0,0.15090737,0.8814101,-0.51654345
alexnet_w1_mlp_simclrhn_probe1,1,19,NaN,clock,airplane,0,0019_ske_dnn_0_airplane_00_airplane-0019-sketch-25.png,airplane-0019-sketch-25.png,0.0,0.2939641,2.2880208,-1.410011
alexnet_w1_mlp_simclrhn_probe1,1,20,NaN,airplane,airplane,0,0020_ske_dnn_0_airplane_00_airplane-0020-sketch-26.png,airplane-0020-sketch-26.png,1.0,0.15679237,-0.35364327,0.3609325
alexnet_w1_mlp_simclrhn_probe1,1,21,NaN,clock,airplane,0,0021_ske_dnn_0_airplane_00_airplane-0021-sketch-27.png,airplane-0021-sketch-27.png,0.0,0.12883772,1.8979789,-1.2509718
alexnet_w1_mlp_simclrhn_probe1,1,22,NaN,airplane,airplane,0,0022_ske_dnn_0_airplane_00_airplane-0022-sketch-28.png,airplane-0022-sketch-28.png,1.0,2.0434585,0.71763897,0.93749595
alexnet_w1_mlp_simclrhn_probe1,1,23,NaN,airplane,airplane,0,0023_ske_dnn_0_airplane_00_airplane-0023-sketch-29.png,airplane-0023-sketch-29.png,1.0,0.094413504,-1.1549089,0.8834044
alexnet_w1_mlp_simclrhn_probe1,1,24,NaN,airplane,airplane,0,0024_ske_dnn_0_airplane_00_airplane-0024-sketch-3.png,airplane-0024-sketch-3.png,1.0,2.8254445,-0.11571296,2.0797124
alexnet_w1_mlp_simclrhn_probe1,1,25,NaN,airplane,airplane,0,0025_ske_dnn_0_airplane_00_airplane-0025-sketch-30.png,airplane-0025-sketch-30.png,1.0,1.9590313,0.08911845,1.3222281
alexnet_w1_mlp_simclrhn_probe1,1,26,NaN,clock,airplane,0,0026_ske_dnn_0_airplane_00_airplane-0027-sketch-32.png,airplane-0027-sketch-32.png,0.0,1.9049284,2.013388,-0.07669243
alexnet_w1_mlp_simclrhn_probe1,1,27,NaN,clock,airplane,0,0027_ske_dnn_0_airplane_00_airplane-0028-sketch-33.png,airplane-0028-sketch-33.png,0.0,-0.1958715,1.495966,-1.1963097
alexnet_w1_mlp_simclrhn_probe1,1,28,NaN,clock,airplane,0,0028_ske_dnn_0_airplane_00_airplane-0029-sketch-34.png,airplane-0029-sketch-34.png,0.0,0.0504735,1.0787408,-0.7270948
alexnet_w1_mlp_simclrhn_probe1,1,29,NaN,airplane,airplane,0,0029_ske_dnn_0_airplane_00_airplane-0030-sketch-35.png,airplane-0030-sketch-35.png,1.0,1.1988201,0.29812828,0.63688534
alexnet_w1_mlp_simclrhn_probe1,1,30,NaN,airplane,airplane,0,0030_ske_dnn_0_airplane_00_airplane-0031-sketch-36.png,airplane-0031-sketch-36.png,1.0,0.76632667,0.49540776,0.1915686
alexnet_w1_mlp_simclrhn_probe1,1,31,NaN,airplane,airplane,0,0031_ske_dnn_0_airplane_00_airplane-0032-sketch-37.png,airplane-0032-sketch-37.png,1.0,2.0037313,-1.053543,2.1618195
alexnet_w1_mlp_simclrhn_probe1,1,32,NaN,airplane,airplane,0,0032_ske_dnn_0_airplane_00_airplane-0033-sketch-38.png,airplane-0033-sketch-38.png,1.0,0.766444,-0.57376885,0.9476736
alexnet_w1_mlp_simclrhn_probe1,1,33,NaN,clock,airplane,0,0033_ske_dnn_0_airplane_00_airplane-0034-sketch-39.png,airplane-0034-sketch-39.png,0.0,-1.4514861,1.0745273,-1.7861612
alexnet_w1_mlp_simclrhn_probe1,1,34,NaN,airplane,airplane,0,0034_ske_dnn_0_airplane_00_airplane-0035-sketch-4.png,airplane-0035-sketch-4.png,1.0,1.4492016,0.69177336,0.53558266
alexnet_w1_mlp_simclrhn_probe1,1,35,NaN,airplane,airplane,0,0035_ske_dnn_0_airplane_00_airplane-0036-sketch-40.png,airplane-0036-sketch-40.png,1.0,3.882102,-0.9241121,3.3985069
alexnet_w1_mlp_simclrhn_probe1,1,36,NaN,airplane,airplane,0,0036_ske_dnn_0_airplane_00_airplane-0037-sketch-41.png,airplane-0037-sketch-41.png,1.0,2.5114956,0.25901943,1.5927413
alexnet_w1_mlp_simclrhn_probe1,1,37,NaN,clock,airplane,0,0037_ske_dnn_0_airplane_00_airplane-0038-sketch-42.png,airplane-0038-sketch-42.png,0.0,1.6561769,2.1016948,-0.31502873
alexnet_w1_mlp_simclrhn_probe1,1,38,NaN,airplane,airplane,0,0038_ske_dnn_0_airplane_00_airplane-0039-sketch-43.png,airplane-0039-sketch-43.png,1.0,0.71068597,0.43083698,0.19788313
alexnet_w1_mlp_simclrhn_probe1,1,39,NaN,clock,airplane,0,0039_ske_dnn_0_airplane_00_airplane-0040-sketch-44.png,airplane-0040-sketch-44.png,0.0,-2.1744215,2.0232852,-2.968227
alexnet_w1_mlp_simclrhn_probe1,1,40,NaN,airplane,airplane,0,0040_ske_dnn_0_airplane_00_airplane-0041-sketch-45.png,airplane-0041-sketch-45.png,1.0,2.5809298,0.03188331,1.8024482
alexnet_w1_mlp_simclrhn_probe1,1,41,NaN,clock,airplane,0,0041_ske_dnn_0_airplane_00_airplane-0042-sketch-46.png,airplane-0042-sketch-46.png,0.0,-1.0612195,0.019675931,-0.7643085
alexnet_w1_mlp_simclrhn_probe1,1,42,NaN,airplane,airplane,0,0042_ske_dnn_0_airplane_00_airplane-0043-sketch-47.png,airplane-0043-sketch-47.png,1.0,2.5612502,1.7437806,0.57803833
alexnet_w1_mlp_simclrhn_probe1,1,43,NaN,airplane,airplane,0,0043_ske_dnn_0_airplane_00_airplane-0044-sketch-48.png,airplane-0044-sketch-48.png,1.0,1.95572,0.25373974,1.2034818
alexnet_w1_mlp_simclrhn_probe1,1,44,NaN,airplane,airplane,0,0044_ske_dnn_0_airplane_00_airplane-0045-sketch-49.png,airplane-0045-sketch-49.png,1.0,4.471701,0.5142791,2.79832
alexnet_w1_mlp_simclrhn_probe1,1,45,NaN,airplane,airplane,0,0045_ske_dnn_0_airplane_00_airplane-0046-sketch-5.png,airplane-0046-sketch-5.png,1.0,0.17102045,-0.38342342,0.392051
alexnet_w1_mlp_simclrhn_probe1,1,46,NaN,airplane,airplane,0,0046_ske_dnn_0_airplane_00_airplane-0047-sketch-50.png,airplane-0047-sketch-50.png,1.0,2.9925158,0.04388837,2.0849946
alexnet_w1_mlp_simclrhn_probe1,1,47,NaN,airplane,airplane,0,0047_ske_dnn_0_airplane_00_airplane-0048-sketch-6.png,airplane-0048-sketch-6.png,1.0,2.051574,-0.59301865,1.8700095
alexnet_w1_mlp_simclrhn_probe1,1,48,NaN,airplane,airplane,0,0048_ske_dnn_0_airplane_00_airplane-0049-sketch-7.png,airplane-0049-sketch-7.png,1.0,2.4857605,1.1641661,0.9345083
alexnet_w1_mlp_simclrhn_probe1,1,49,NaN,clock,airplane,0,0049_ske_dnn_0_airplane_00_airplane-0050-sketch-8.png,airplane-0050-sketch-8.png,0.0,-1.4687719,2.908909,-3.0954878
alexnet_w1_mlp_simclrhn_probe1,1,50,NaN,airplane,airplane,0,0050_ske_dnn_0_airplane_00_airplane-0051-sketch-9.png,airplane-0051-sketch-9.png,1.0,4.4087915,0.97650594,2.4269924
alexnet_w1_mlp_simclrhn_probe1,1,51,NaN,bird,bear,0,0051_ske_dnn_0_bear_00_bear-0005-sketch-12.png,bear-0005-sketch-12.png,0.0,-10.833722,-2.3439405,-6.003182
alexnet_w1_mlp_simclrhn_probe1,1,52,NaN,clock,bear,0,0052_ske_dnn_0_bear_00_bear-0007-sketch-14.png,bear-0007-sketch-14.png,0.0,-14.330498,-1.9441547,-8.758468
alexnet_w1_mlp_simclrhn_probe1,1,53,NaN,cat,bear,0,0053_ske_dnn_0_bear_00_bear-0017-sketch-23.png,bear-0017-sketch-23.png,0.0,-3.8674428,5.325215,-6.5001907
alexnet_w1_mlp_simclrhn_probe1,1,54,NaN,elephant,bear,0,0054_ske_dnn_0_bear_00_bear-0022-sketch-28.png,bear-0022-sketch-28.png,0.0,-8.518921,-1.56057,-4.920297
alexnet_w1_mlp_simclrhn_probe1,1,55,NaN,cat,bear,0,0055_ske_dnn_0_bear_00_bear-0023-sketch-29.png,bear-0023-sketch-29.png,0.0,-8.009043,-2.4059994,-3.96195
alexnet_w1_mlp_simclrhn_probe1,1,56,NaN,elephant,bear,0,0056_ske_dnn_0_bear_00_bear-0026-sketch-31.png,bear-0026-sketch-31.png,0.0,-1.0332793,-0.8072839,-0.1598029
alexnet_w1_mlp_simclrhn_probe1,1,57,NaN,cat,bear,0,0057_ske_dnn_0_bear_00_bear-0027-sketch-32.png,bear-0027-sketch-32.png,0.0,-8.927013,-0.31333914,-6.0907874
alexnet_w1_mlp_simclrhn_probe1,1,58,NaN,cat,bear,0,0058_ske_dnn_0_bear_00_bear-0030-sketch-35.png,bear-0030-sketch-35.png,0.0,-2.6021128,-1.4826612,-0.7915718
alexnet_w1_mlp_simclrhn_probe1,1,59,NaN,cat,bear,0,0059_ske_dnn_0_bear_00_bear-0033-sketch-38.png,bear-0033-sketch-38.png,0.0,-2.6863565,1.3486751,-2.8531983
alexnet_w1_mlp_simclrhn_probe1,1,60,NaN,cat,bear,0,0060_ske_dnn_0_bear_00_bear-0036-sketch-40.png,bear-0036-sketch-40.png,0.0,-11.383175,-1.6996459,-6.847289
alexnet_w1_mlp_simclrhn_probe1,1,61,NaN,bear,bear,0,0061_ske_dnn_0_bear_00_bear-0037-sketch-41.png,bear-0037-sketch-41.png,1.0,2.254406,1.7184509,0.37897748
alexnet_w1_mlp_simclrhn_probe1,1,62,NaN,cat,bear,0,0062_ske_dnn_0_bear_00_bear-0038-sketch-42.png,bear-0038-sketch-42.png,0.0,-3.1246295,0.9038059,-2.8485339
alexnet_w1_mlp_simclrhn_probe1,1,63,NaN,elephant,bear,0,0063_ske_dnn_0_bear_00_bear-0039-sketch-43.png,bear-0039-sketch-43.png,0.0,-3.5712438,-0.72239465,-2.0144405
alexnet_w1_mlp_simclrhn_probe1,1,64,NaN,bear,bear,0,0064_ske_dnn_0_bear_00_bear-0041-sketch-45.png,bear-0041-sketch-45.png,1.0,-0.53494775,-0.7109949,0.12448414
alexnet_w1_mlp_simclrhn_probe1,1,65,NaN,elephant,bear,0,0065_ske_dnn_0_bear_00_bear-0045-sketch-49.png,bear-0045-sketch-49.png,0.0,2.98554,4.6827345,-1.2000978
alexnet_w1_mlp_simclrhn_probe1,1,66,NaN,cat,bear,0,0066_ske_dnn_0_bear_00_bear-0048-sketch-7.png,bear-0048-sketch-7.png,0.0,-11.164438,-2.7256577,-5.967119
alexnet_w1_mlp_simclrhn_probe1,1,67,NaN,cat,bear,0,0067_ske_dnn_0_bear_00_bear-0049-sketch-8.png,bear-0049-sketch-8.png,0.0,-11.333202,0.68502253,-8.498168
alexnet_w1_mlp_simclrhn_probe1,1,68,NaN,cat,bear,0,0068_ske_dnn_0_bear_00_bear-0053-sketch-10.png,bear-0053-sketch-10.png,0.0,-5.252122,2.497778,-5.4800067
alexnet_w1_mlp_simclrhn_probe1,1,69,NaN,bear,bear,0,0069_ske_dnn_0_bear_00_bear-0059-sketch-16.png,bear-0059-sketch-16.png,1.0,0.79506445,-0.7215426,1.0724032
alexnet_w1_mlp_simclrhn_probe1,1,70,NaN,knife,bear,0,0070_ske_dnn_0_bear_00_bear-0068-sketch-24.png,bear-0068-sketch-24.png,0.0,-5.199889,-1.7372668,-2.448444
alexnet_w1_mlp_simclrhn_probe1,1,71,NaN,oven,bear,0,0071_ske_dnn_0_bear_00_bear-0070-sketch-26.png,bear-0070-sketch-26.png,0.0,-10.049652,-3.1501672,-4.8786726
alexnet_w1_mlp_simclrhn_probe1,1,72,NaN,cat,bear,0,0072_ske_dnn_0_bear_00_bear-0073-sketch-29.png,bear-0073-sketch-29.png,0.0,-0.54471177,1.8751682,-1.7111136
alexnet_w1_mlp_simclrhn_probe1,1,73,NaN,bear,bear,0,0073_ske_dnn_0_bear_00_bear-0079-sketch-34.png,bear-0079-sketch-34.png,1.0,5.2707553,1.6507143,2.5597556
alexnet_w1_mlp_simclrhn_probe1,1,74,NaN,bear,bear,0,0074_ske_dnn_0_bear_00_bear-0081-sketch-36.png,bear-0081-sketch-36.png,1.0,0.6599479,-0.9200463,1.1172246
alexnet_w1_mlp_simclrhn_probe1,1,75,NaN,cat,bear,0,0075_ske_dnn_0_bear_00_bear-0085-sketch-4.png,bear-0085-sketch-4.png,0.0,-1.3073318,1.9076262,-2.2733185
alexnet_w1_mlp_simclrhn_probe1,1,76,NaN,knife,bear,0,0076_ske_dnn_0_bear_00_bear-0086-sketch-40.png,bear-0086-sketch-40.png,0.0,-4.914718,-2.2716496,-1.8689318
alexnet_w1_mlp_simclrhn_probe1,1,77,NaN,clock,bear,0,0077_ske_dnn_0_bear_00_bear-0087-sketch-41.png,bear-0087-sketch-41.png,0.0,-9.186944,0.27963278,-6.6938806
alexnet_w1_mlp_simclrhn_probe1,1,78,NaN,clock,bear,0,0078_ske_dnn_0_bear_00_bear-0090-sketch-44.png,bear-0090-sketch-44.png,0.0,-21.427788,0.98641634,-15.849236
alexnet_w1_mlp_simclrhn_probe1,1,79,NaN,clock,bear,0,0079_ske_dnn_0_bear_00_bear-0103-sketch-1.png,bear-0103-sketch-1.png,0.0,-11.893788,-0.47122905,-8.076969
alexnet_w1_mlp_simclrhn_probe1,1,80,NaN,chair,bear,0,0080_ske_dnn_0_bear_00_bear-0107-sketch-13.png,bear-0107-sketch-13.png,0.0,-10.198656,-1.7386873,-5.9821014
alexnet_w1_mlp_simclrhn_probe1,1,81,NaN,cat,bear,0,0081_ske_dnn_0_bear_00_bear-0110-sketch-16.png,bear-0110-sketch-16.png,0.0,-9.241022,-1.3773047,-5.560488
alexnet_w1_mlp_simclrhn_probe1,1,82,NaN,knife,bear,0,0082_ske_dnn_0_bear_00_bear-0112-sketch-18.png,bear-0112-sketch-18.png,0.0,-5.9369984,-2.4894657,-2.4377737
alexnet_w1_mlp_simclrhn_probe1,1,83,NaN,clock,bear,0,0083_ske_dnn_0_bear_00_bear-0117-sketch-22.png,bear-0117-sketch-22.png,0.0,-12.83729,1.8166566,-10.361905
alexnet_w1_mlp_simclrhn_probe1,1,84,NaN,elephant,bear,0,0084_ske_dnn_0_bear_00_bear-0123-sketch-28.png,bear-0123-sketch-28.png,0.0,-2.633782,-0.22105497,-1.7060555
alexnet_w1_mlp_simclrhn_probe1,1,85,NaN,clock,bear,0,0085_ske_dnn_0_bear_00_bear-0135-sketch-39.png,bear-0135-sketch-39.png,0.0,-9.13044,2.2258062,-8.030079
alexnet_w1_mlp_simclrhn_probe1,1,86,NaN,clock,bear,0,0086_ske_dnn_0_bear_00_bear-0136-sketch-4.png,bear-0136-sketch-4.png,0.0,-8.254753,-0.04936409,-5.8020864
alexnet_w1_mlp_simclrhn_probe1,1,87,NaN,clock,bear,0,0087_ske_dnn_0_bear_00_bear-0137-sketch-40.png,bear-0137-sketch-40.png,0.0,-12.648886,-1.8903131,-7.6074595
alexnet_w1_mlp_simclrhn_probe1,1,88,NaN,bear,bear,0,0088_ske_dnn_0_bear_00_bear-0148-sketch-50.png,bear-0148-sketch-50.png,1.0,0.47609162,-0.08800475,0.3988764
alexnet_w1_mlp_simclrhn_probe1,1,89,NaN,bicycle,bear,0,0089_ske_dnn_0_bear_00_bear-0149-sketch-6.png,bear-0149-sketch-6.png,0.0,-10.162928,-1.6690704,-6.0060644
alexnet_w1_mlp_simclrhn_probe1,1,90,NaN,bear,bear,0,0090_ske_dnn_0_bear_00_bear-0161-sketch-16.png,bear-0161-sketch-16.png,1.0,1.6430329,1.3507442,0.2066793
alexnet_w1_mlp_simclrhn_probe1,1,91,NaN,cat,bear,0,0091_ske_dnn_0_bear_00_bear-0166-sketch-20.png,bear-0166-sketch-20.png,0.0,-12.350077,-1.4751083,-7.689764
alexnet_w1_mlp_simclrhn_probe1,1,92,NaN,clock,bear,0,0092_ske_dnn_0_bear_00_bear-0170-sketch-24.png,bear-0170-sketch-24.png,0.0,-25.535854,-0.21800263,-17.902426
alexnet_w1_mlp_simclrhn_probe1,1,93,NaN,cat,bear,0,0093_ske_dnn_0_bear_00_bear-0171-sketch-25.png,bear-0171-sketch-25.png,0.0,0.40872175,0.7333372,-0.22953781
alexnet_w1_mlp_simclrhn_probe1,1,94,NaN,cat,bear,0,0094_ske_dnn_0_bear_00_bear-0179-sketch-32.png,bear-0179-sketch-32.png,0.0,-11.831199,-3.166536,-6.1268415
alexnet_w1_mlp_simclrhn_probe1,1,95,NaN,clock,bear,0,0095_ske_dnn_0_bear_00_bear-0187-sketch-4.png,bear-0187-sketch-4.png,0.0,-15.264538,1.5183882,-11.867321
alexnet_w1_mlp_simclrhn_probe1,1,96,NaN,bear,bear,0,0096_ske_dnn_0_bear_00_bear-0188-sketch-40.png,bear-0188-sketch-40.png,1.0,0.9156145,0.16894744,0.52797335
alexnet_w1_mlp_simclrhn_probe1,1,97,NaN,cat,bear,0,0097_ske_dnn_0_bear_00_bear-0195-sketch-47.png,bear-0195-sketch-47.png,0.0,-10.123003,-3.7139595,-4.531878
alexnet_w1_mlp_simclrhn_probe1,1,98,NaN,cat,bear,0,0098_ske_dnn_0_bear_00_bear-0198-sketch-5.png,bear-0198-sketch-5.png,0.0,-2.6300404,2.0832396,-3.332792
alexnet_w1_mlp_simclrhn_probe1,1,99,NaN,cat,bear,0,0099_ske_dnn_0_bear_00_bear-0199-sketch-50.png,bear-0199-sketch-50.png,0.0,-11.109239,-1.042482,-7.118272
alexnet_w1_mlp_simclrhn_probe1,1,100,NaN,clock,bear,0,0100_ske_dnn_0_bear_00_bear-0201-sketch-7.png,bear-0201-sketch-7.png,0.0,-5.174127,0.5338842,-4.0361733
alexnet_w1_mlp_simclrhn_probe1,1,101,NaN,bicycle,bicycle,0,0101_ske_dnn_0_bicycle_00_bicycle-0002-sketch-1.png,bicycle-0002-sketch-1.png,1.0,15.344388,-0.21076553,10.999155
alexnet_w1_mlp_simclrhn_probe1,1,102,NaN,clock,bicycle,0,0102_ske_dnn_0_bicycle_00_bicycle-0003-sketch-10.png,bicycle-0003-sketch-10.png,0.0,-6.8096333,1.5871048,-5.9373903
alexnet_w1_mlp_simclrhn_probe1,1,103,NaN,bicycle,bicycle,0,0103_ske_dnn_0_bicycle_00_bicycle-0004-sketch-11.png,bicycle-0004-sketch-11.png,1.0,7.4368944,0.6864669,4.7732735
alexnet_w1_mlp_simclrhn_probe1,1,104,NaN,bicycle,bicycle,0,0104_ske_dnn_0_bicycle_00_bicycle-0008-sketch-15.png,bicycle-0008-sketch-15.png,1.0,3.4963226,-1.9732143,3.8675466
alexnet_w1_mlp_simclrhn_probe1,1,105,NaN,bicycle,bicycle,0,0105_ske_dnn_0_bicycle_00_bicycle-0011-sketch-18.png,bicycle-0011-sketch-18.png,1.0,3.6560972,-1.3193845,3.5181968
alexnet_w1_mlp_simclrhn_probe1,1,106,NaN,bicycle,bicycle,0,0106_ske_dnn_0_bicycle_00_bicycle-0013-sketch-2.png,bicycle-0013-sketch-2.png,1.0,11.16683,-0.7196258,8.404993
alexnet_w1_mlp_simclrhn_probe1,1,107,NaN,clock,bicycle,0,0107_ske_dnn_0_bicycle_00_bicycle-0016-sketch-22.png,bicycle-0016-sketch-22.png,0.0,-6.941036,1.4588321,-5.939604
alexnet_w1_mlp_simclrhn_probe1,1,108,NaN,bicycle,bicycle,0,0108_ske_dnn_0_bicycle_00_bicycle-0019-sketch-25.png,bicycle-0019-sketch-25.png,1.0,11.6786,0.5341522,7.8803153
alexnet_w1_mlp_simclrhn_probe1,1,109,NaN,bicycle,bicycle,0,0109_ske_dnn_0_bicycle_00_bicycle-0020-sketch-26.png,bicycle-0020-sketch-26.png,1.0,1.8311712,-1.2868406,2.2047672
alexnet_w1_mlp_simclrhn_probe1,1,110,NaN,bicycle,bicycle,0,0110_ske_dnn_0_bicycle_00_bicycle-0022-sketch-28.png,bicycle-0022-sketch-28.png,1.0,2.4290774,-3.6430874,4.2936687
alexnet_w1_mlp_simclrhn_probe1,1,111,NaN,clock,bicycle,0,0111_ske_dnn_0_bicycle_00_bicycle-0023-sketch-29.png,bicycle-0023-sketch-29.png,0.0,0.07716906,2.068686,-1.4082152
alexnet_w1_mlp_simclrhn_probe1,1,112,NaN,clock,bicycle,0,0112_ske_dnn_0_bicycle_00_bicycle-0025-sketch-30.png,bicycle-0025-sketch-30.png,0.0,0.13354385,0.55658454,-0.29913494
alexnet_w1_mlp_simclrhn_probe1,1,113,NaN,bicycle,bicycle,0,0113_ske_dnn_0_bicycle_00_bicycle-0026-sketch-31.png,bicycle-0026-sketch-31.png,1.0,0.7359886,-1.7102485,1.7297509
alexnet_w1_mlp_simclrhn_probe1,1,114,NaN,bicycle,bicycle,0,0114_ske_dnn_0_bicycle_00_bicycle-0031-sketch-36.png,bicycle-0031-sketch-36.png,1.0,-0.8001885,-2.08882,0.91120005
alexnet_w1_mlp_simclrhn_probe1,1,115,NaN,bicycle,bicycle,0,0115_ske_dnn_0_bicycle_00_bicycle-0034-sketch-39.png,bicycle-0034-sketch-39.png,1.0,1.7888001,-1.2474462,2.1469505
alexnet_w1_mlp_simclrhn_probe1,1,116,NaN,clock,bicycle,0,0116_ske_dnn_0_bicycle_00_bicycle-0037-sketch-41.png,bicycle-0037-sketch-41.png,0.0,0.32258493,2.4524877,-1.5060688
alexnet_w1_mlp_simclrhn_probe1,1,117,NaN,clock,bicycle,0,0117_ske_dnn_0_bicycle_00_bicycle-0038-sketch-42.png,bicycle-0038-sketch-42.png,0.0,0.42096025,0.48589078,-0.045912817
alexnet_w1_mlp_simclrhn_probe1,1,118,NaN,bicycle,bicycle,0,0118_ske_dnn_0_bicycle_00_bicycle-0039-sketch-43.png,bicycle-0039-sketch-43.png,1.0,0.75082225,-2.1038136,2.0185325
alexnet_w1_mlp_simclrhn_probe1,1,119,NaN,bicycle,bicycle,0,0119_ske_dnn_0_bicycle_00_bicycle-0040-sketch-44.png,bicycle-0040-sketch-44.png,1.0,0.7247195,-1.5900615,1.6367975
alexnet_w1_mlp_simclrhn_probe1,1,120,NaN,bicycle,bicycle,0,0120_ske_dnn_0_bicycle_00_bicycle-0044-sketch-48.png,bicycle-0044-sketch-48.png,1.0,3.7108855,-3.9564445,5.421621
alexnet_w1_mlp_simclrhn_probe1,1,121,NaN,bicycle,bicycle,0,0121_ske_dnn_0_bicycle_00_bicycle-0045-sketch-49.png,bicycle-0045-sketch-49.png,1.0,15.344388,-0.21076553,10.999155
alexnet_w1_mlp_simclrhn_probe1,1,122,NaN,clock,bicycle,0,0122_ske_dnn_0_bicycle_00_bicycle-0046-sketch-5.png,bicycle-0046-sketch-5.png,0.0,-0.08009505,2.8543313,-2.0749528
alexnet_w1_mlp_simclrhn_probe1,1,123,NaN,bicycle,bicycle,0,0123_ske_dnn_0_bicycle_00_bicycle-0047-sketch-50.png,bicycle-0047-sketch-50.png,1.0,11.16683,-0.7196258,8.404993
alexnet_w1_mlp_simclrhn_probe1,1,124,NaN,bicycle,bicycle,0,0124_ske_dnn_0_bicycle_00_bicycle-0048-sketch-6.png,bicycle-0048-sketch-6.png,1.0,4.091099,-1.1496656,3.7057803
alexnet_w1_mlp_simclrhn_probe1,1,125,NaN,bicycle,bicycle,0,0125_ske_dnn_0_bicycle_00_bicycle-0053-sketch-1.png,bicycle-0053-sketch-1.png,1.0,2.7507734,-4.121095,4.859145
alexnet_w1_mlp_simclrhn_probe1,1,126,NaN,bicycle,bicycle,0,0126_ske_dnn_0_bicycle_00_bicycle-0054-sketch-10.png,bicycle-0054-sketch-10.png,1.0,8.4652405,-5.3187547,9.746757
alexnet_w1_mlp_simclrhn_probe1,1,127,NaN,bicycle,bicycle,0,0127_ske_dnn_0_bicycle_00_bicycle-0056-sketch-12.png,bicycle-0056-sketch-12.png,1.0,4.1801686,-5.149084,6.5967774
alexnet_w1_mlp_simclrhn_probe1,1,128,NaN,clock,bicycle,0,0128_ske_dnn_0_bicycle_00_bicycle-0057-sketch-13.png,bicycle-0057-sketch-13.png,0.0,-2.2863503,-0.42672262,-1.3149554
alexnet_w1_mlp_simclrhn_probe1,1,129,NaN,bicycle,bicycle,0,0129_ske_dnn_0_bicycle_00_bicycle-0058-sketch-14.png,bicycle-0058-sketch-14.png,1.0,1.2989421,-1.4285542,1.9286311
alexnet_w1_mlp_simclrhn_probe1,1,130,NaN,clock,bicycle,0,0130_ske_dnn_0_bicycle_00_bicycle-0059-sketch-15.png,bicycle-0059-sketch-15.png,0.0,-4.3116226,2.4946969,-4.8127947
alexnet_w1_mlp_simclrhn_probe1,1,131,NaN,bicycle,bicycle,0,0131_ske_dnn_0_bicycle_00_bicycle-0060-sketch-16.png,bicycle-0060-sketch-16.png,1.0,2.809947,1.9792484,0.5873926
alexnet_w1_mlp_simclrhn_probe1,1,132,NaN,bicycle,bicycle,0,0132_ske_dnn_0_bicycle_00_bicycle-0062-sketch-18.png,bicycle-0062-sketch-18.png,1.0,3.150241,2.3898296,0.53769195
alexnet_w1_mlp_simclrhn_probe1,1,133,NaN,bicycle,bicycle,0,0133_ske_dnn_0_bicycle_00_bicycle-0066-sketch-21.png,bicycle-0066-sketch-21.png,1.0,5.446331,0.03779928,3.8244095
alexnet_w1_mlp_simclrhn_probe1,1,134,NaN,bicycle,bicycle,0,0134_ske_dnn_0_bicycle_00_bicycle-0068-sketch-23.png,bicycle-0068-sketch-23.png,1.0,16.632853,-0.9223502,12.413403
alexnet_w1_mlp_simclrhn_probe1,1,135,NaN,clock,bicycle,0,0135_ske_dnn_0_bicycle_00_bicycle-0070-sketch-25.png,bicycle-0070-sketch-25.png,0.0,1.6156998,2.7852204,-0.826976
alexnet_w1_mlp_simclrhn_probe1,1,136,NaN,clock,bicycle,0,0136_ske_dnn_0_bicycle_00_bicycle-0071-sketch-26.png,bicycle-0071-sketch-26.png,0.0,2.80655,2.9616158,-0.109648064
alexnet_w1_mlp_simclrhn_probe1,1,137,NaN,bicycle,bicycle,0,0137_ske_dnn_0_bicycle_00_bicycle-0075-sketch-3.png,bicycle-0075-sketch-3.png,1.0,5.3258543,0.7934956,3.2048616
alexnet_w1_mlp_simclrhn_probe1,1,138,NaN,bicycle,bicycle,0,0138_ske_dnn_0_bicycle_00_bicycle-0078-sketch-32.png,bicycle-0078-sketch-32.png,1.0,16.241337,4.2291784,8.493878
alexnet_w1_mlp_simclrhn_probe1,1,139,NaN,bicycle,bicycle,0,0139_ske_dnn_0_bicycle_00_bicycle-0080-sketch-34.png,bicycle-0080-sketch-34.png,1.0,9.273064,4.0628457,3.6841805
alexnet_w1_mlp_simclrhn_probe1,1,140,NaN,bicycle,bicycle,0,0140_ske_dnn_0_bicycle_00_bicycle-0081-sketch-35.png,bicycle-0081-sketch-35.png,1.0,4.6856866,-0.15220873,3.4209087
alexnet_w1_mlp_simclrhn_probe1,1,141,NaN,clock,bicycle,0,0141_ske_dnn_0_bicycle_00_bicycle-0083-sketch-37.png,bicycle-0083-sketch-37.png,0.0,-2.0354924,1.6367012,-2.596633
alexnet_w1_mlp_simclrhn_probe1,1,142,NaN,clock,bicycle,0,0142_ske_dnn_0_bicycle_00_bicycle-0084-sketch-38.png,bicycle-0084-sketch-38.png,0.0,-2.9310763,2.4460394,-3.802195
alexnet_w1_mlp_simclrhn_probe1,1,143,NaN,bicycle,bicycle,0,0143_ske_dnn_0_bicycle_00_bicycle-0087-sketch-40.png,bicycle-0087-sketch-40.png,1.0,14.101548,-1.2880892,10.882117
alexnet_w1_mlp_simclrhn_probe1,1,144,NaN,bicycle,bicycle,0,0144_ske_dnn_0_bicycle_00_bicycle-0090-sketch-43.png,bicycle-0090-sketch-43.png,1.0,9.3463745,5.444054,2.7593572
alexnet_w1_mlp_simclrhn_probe1,1,145,NaN,clock,bicycle,0,0145_ske_dnn_0_bicycle_00_bicycle-0094-sketch-47.png,bicycle-0094-sketch-47.png,0.0,-5.3852053,2.652188,-5.6832957
alexnet_w1_mlp_simclrhn_probe1,1,146,NaN,bicycle,bicycle,0,0146_ske_dnn_0_bicycle_00_bicycle-0095-sketch-48.png,bicycle-0095-sketch-48.png,1.0,3.6699708,1.7353655,1.3679725
alexnet_w1_mlp_simclrhn_probe1,1,147,NaN,bicycle,bicycle,0,0147_ske_dnn_0_bicycle_00_bicycle-0098-sketch-50.png,bicycle-0098-sketch-50.png,1.0,4.3595543,2.2681634,1.4788367
alexnet_w1_mlp_simclrhn_probe1,1,148,NaN,clock,bicycle,0,0148_ske_dnn_0_bicycle_00_bicycle-0099-sketch-6.png,bicycle-0099-sketch-6.png,0.0,-2.7316766,2.7647674,-3.8865726
alexnet_w1_mlp_simclrhn_probe1,1,149,NaN,bicycle,bicycle,0,0149_ske_dnn_0_bicycle_00_bicycle-0101-sketch-8.png,bicycle-0101-sketch-8.png,1.0,11.920706,-1.9844717,9.832445
alexnet_w1_mlp_simclrhn_probe1,1,150,NaN,bicycle,bicycle,0,0150_ske_dnn_0_bicycle_00_bicycle-0102-sketch-9.png,bicycle-0102-sketch-9.png,1.0,1.434334,-3.5182343,3.5019946
alexnet_w1_mlp_simclrhn_probe1,1,151,NaN,clock,bird,0,0151_ske_dnn_0_bird_00_bird-0030-sketch-35.png,bird-0030-sketch-35.png,0.0,-5.82539,0.22157161,-4.2758474
alexnet_w1_mlp_simclrhn_probe1,1,152,NaN,bird,bird,0,0152_ske_dnn_0_bird_00_bird-0047-sketch-50.png,bird-0047-sketch-50.png,1.0,-2.1339746,-2.91228,0.5503451
alexnet_w1_mlp_simclrhn_probe1,1,153,NaN,bicycle,bird,0,0153_ske_dnn_0_bird_00_bird-0072-sketch-27.png,bird-0072-sketch-27.png,0.0,-4.0707865,-2.0526295,-1.4270525
alexnet_w1_mlp_simclrhn_probe1,1,154,NaN,bird,bird,0,0154_ske_dnn_0_bird_00_bird-0228-sketch-3.png,bird-0228-sketch-3.png,1.0,1.1701887,-2.5806088,2.6522143
alexnet_w1_mlp_simclrhn_probe1,1,155,NaN,bird,bird,0,0155_ske_dnn_0_bird_00_bird-0274-sketch-25.png,bird-0274-sketch-25.png,1.0,-1.7321157,-4.403385,1.8888727
alexnet_w1_mlp_simclrhn_probe1,1,156,NaN,clock,bird,0,0156_ske_dnn_0_bird_00_bird-0292-sketch-41.png,bird-0292-sketch-41.png,0.0,-1.5099967,-0.6847678,-0.58352494
alexnet_w1_mlp_simclrhn_probe1,1,157,NaN,clock,bird,0,0157_ske_dnn_0_bird_00_bird-0316-sketch-17.png,bird-0316-sketch-17.png,0.0,-5.866185,-1.2555455,-3.2602146
alexnet_w1_mlp_simclrhn_probe1,1,158,NaN,bicycle,bird,0,0158_ske_dnn_0_bird_00_bird-0325-sketch-25.png,bird-0325-sketch-25.png,0.0,-2.9137378,-0.27382818,-1.8666979
alexnet_w1_mlp_simclrhn_probe1,1,159,NaN,clock,bird,0,0159_ske_dnn_0_bird_00_bird-0357-sketch-9.png,bird-0357-sketch-9.png,0.0,-2.4491382,0.08251786,-1.7901511
alexnet_w1_mlp_simclrhn_probe1,1,160,NaN,bird,bird,0,0160_ske_dnn_0_bird_00_bird-0384-sketch-32.png,bird-0384-sketch-32.png,1.0,-1.5417134,-2.0037112,0.32668182
alexnet_w1_mlp_simclrhn_probe1,1,161,NaN,bird,bird,0,0161_ske_dnn_0_bird_00_bird-0415-sketch-14.png,bird-0415-sketch-14.png,1.0,0.6389493,-1.1045924,1.2328702
alexnet_w1_mlp_simclrhn_probe1,1,162,NaN,bicycle,bird,0,0162_ske_dnn_0_bird_00_bird-0474-sketch-21.png,bird-0474-sketch-21.png,0.0,-1.6545904,-1.2654828,-0.2751406
alexnet_w1_mlp_simclrhn_probe1,1,163,NaN,bird,bird,0,0163_ske_dnn_0_bird_00_bird-0479-sketch-26.png,bird-0479-sketch-26.png,1.0,-0.7627647,-1.0500953,0.20317344
alexnet_w1_mlp_simclrhn_probe1,1,164,NaN,bicycle,bird,0,0164_ske_dnn_0_bird_00_bird-0491-sketch-37.png,bird-0491-sketch-37.png,0.0,-1.2332007,-0.8868078,-0.24493675
alexnet_w1_mlp_simclrhn_probe1,1,165,NaN,bird,bird,0,0165_ske_dnn_0_bird_00_bird-0578-sketch-23.png,bird-0578-sketch-23.png,1.0,-0.7350284,-2.7685711,1.4379318
alexnet_w1_mlp_simclrhn_probe1,1,166,NaN,bird,bird,0,0166_ske_dnn_0_bird_00_bird-0640-sketch-33.png,bird-0640-sketch-33.png,1.0,-1.5444617,-4.6880684,2.2228656
alexnet_w1_mlp_simclrhn_probe1,1,167,NaN,clock,bird,0,0167_ske_dnn_0_bird_00_bird-0646-sketch-39.png,bird-0646-sketch-39.png,0.0,-4.409258,-0.13813758,-3.020138
alexnet_w1_mlp_simclrhn_probe1,1,168,NaN,bottle,bird,0,0168_ske_dnn_0_bird_00_bird-0685-sketch-28.png,bird-0685-sketch-28.png,0.0,-5.6095076,-2.7595484,-2.0152254
alexnet_w1_mlp_simclrhn_probe1,1,169,NaN,knife,bird,0,0169_ske_dnn_0_bird_00_bird-0694-sketch-36.png,bird-0694-sketch-36.png,0.0,-2.7920167,-1.3882544,-0.99260986
alexnet_w1_mlp_simclrhn_probe1,1,170,NaN,bicycle,bird,0,0170_ske_dnn_0_bird_00_bird-0733-sketch-25.png,bird-0733-sketch-25.png,0.0,-2.9992025,-1.4160453,-1.1194612
alexnet_w1_mlp_simclrhn_probe1,1,171,NaN,bird,bird,0,0171_ske_dnn_0_bird_00_bird-0748-sketch-39.png,bird-0748-sketch-39.png,1.0,0.7237857,-3.6033647,3.0597575
alexnet_w1_mlp_simclrhn_probe1,1,172,NaN,bird,bird,0,0172_ske_dnn_0_bird_00_bird-0749-sketch-4.png,bird-0749-sketch-4.png,1.0,-1.2118804,-3.7474053,1.7928869
alexnet_w1_mlp_simclrhn_probe1,1,173,NaN,bird,bird,0,0173_ske_dnn_0_bird_00_bird-0809-sketch-48.png,bird-0809-sketch-48.png,1.0,-0.9538533,-5.656603,3.3253462
alexnet_w1_mlp_simclrhn_probe1,1,174,NaN,bird,bird,0,0174_ske_dnn_0_bird_00_bird-0834-sketch-24.png,bird-0834-sketch-24.png,1.0,-0.6935935,-1.1559817,0.32695782
alexnet_w1_mlp_simclrhn_probe1,1,175,NaN,elephant,bird,0,0175_ske_dnn_0_bird_00_bird-0880-sketch-2.png,bird-0880-sketch-2.png,0.0,-3.4072633,-3.0928779,-0.22230406
alexnet_w1_mlp_simclrhn_probe1,1,176,NaN,bird,bird,0,0176_ske_dnn_0_bird_00_bird-0939-sketch-27.png,bird-0939-sketch-27.png,1.0,-0.9570839,-2.066444,0.784436
alexnet_w1_mlp_simclrhn_probe1,1,177,NaN,bird,bird,0,0177_ske_dnn_0_bird_00_bird-0954-sketch-40.png,bird-0954-sketch-40.png,1.0,-0.43592986,-1.910249,1.0425011
alexnet_w1_mlp_simclrhn_probe1,1,178,NaN,bicycle,bird,0,0178_ske_dnn_0_bird_00_bird-1033-sketch-20.png,bird-1033-sketch-20.png,0.0,-3.6101584,-0.26275048,-2.366975
alexnet_w1_mlp_simclrhn_probe1,1,179,NaN,knife,bird,0,0179_ske_dnn_0_bird_00_bird-1081-sketch-18.png,bird-1081-sketch-18.png,0.0,-1.461184,-0.15500113,-0.92361075
alexnet_w1_mlp_simclrhn_probe1,1,180,NaN,bird,bird,0,0180_ske_dnn_0_bird_00_bird-1096-sketch-31.png,bird-1096-sketch-31.png,1.0,-2.0504692,-2.5490665,0.3525616
alexnet_w1_mlp_simclrhn_probe1,1,181,NaN,cat,bird,0,0181_ske_dnn_0_bird_00_bird-1148-sketch-32.png,bird-1148-sketch-32.png,0.0,-5.1923733,-3.3704317,-1.2883073
alexnet_w1_mlp_simclrhn_probe1,1,182,NaN,bird,bird,0,0182_ske_dnn_0_bird_00_bird-1201-sketch-34.png,bird-1201-sketch-34.png,1.0,1.2088498,-1.2260884,1.7217613
alexnet_w1_mlp_simclrhn_probe1,1,183,NaN,bird,bird,0,0183_ske_dnn_0_bird_00_bird-1342-sketch-24.png,bird-1342-sketch-24.png,1.0,0.89858556,-1.9412959,2.0080996
alexnet_w1_mlp_simclrhn_probe1,1,184,NaN,knife,bird,0,0184_ske_dnn_0_bird_00_bird-1510-sketch-39.png,bird-1510-sketch-39.png,0.0,-1.8644873,-1.385752,-0.338517
alexnet_w1_mlp_simclrhn_probe1,1,185,NaN,clock,bird,0,0185_ske_dnn_0_bird_00_bird-1562-sketch-40.png,bird-1562-sketch-40.png,0.0,-9.530876,-1.4485687,-5.715055
alexnet_w1_mlp_simclrhn_probe1,1,186,NaN,bird,bird,0,0186_ske_dnn_0_bird_00_bird-1565-sketch-43.png,bird-1565-sketch-43.png,1.0,-2.1793454,-2.6904304,0.3613917
alexnet_w1_mlp_simclrhn_probe1,1,187,NaN,bicycle,bird,0,0187_ske_dnn_0_bird_00_bird-1702-sketch-29.png,bird-1702-sketch-29.png,0.0,-2.3069446,0.7995595,-2.19663
alexnet_w1_mlp_simclrhn_probe1,1,188,NaN,bird,bird,0,0188_ske_dnn_0_bird_00_bird-1721-sketch-46.png,bird-1721-sketch-46.png,1.0,0.47345874,-1.7740897,1.5892566
alexnet_w1_mlp_simclrhn_probe1,1,189,NaN,bird,bird,0,0189_ske_dnn_0_bird_00_bird-1740-sketch-17.png,bird-1740-sketch-17.png,1.0,-1.499346,-1.6714051,0.12166413
alexnet_w1_mlp_simclrhn_probe1,1,190,NaN,bicycle,bird,0,0190_ske_dnn_0_bird_00_bird-1749-sketch-25.png,bird-1749-sketch-25.png,0.0,-1.6661762,-0.29689652,-0.9682269
alexnet_w1_mlp_simclrhn_probe1,1,191,NaN,clock,bird,0,0191_ske_dnn_0_bird_00_bird-1756-sketch-31.png,bird-1756-sketch-31.png,0.0,-2.84749,-1.0640217,-1.2611026
alexnet_w1_mlp_simclrhn_probe1,1,192,NaN,bird,bird,0,0192_ske_dnn_0_bird_00_bird-1860-sketch-33.png,bird-1860-sketch-33.png,1.0,1.5557766,-2.7127495,3.0183039
alexnet_w1_mlp_simclrhn_probe1,1,193,NaN,bird,bird,0,0193_ske_dnn_0_bird_00_bird-1937-sketch-10.png,bird-1937-sketch-10.png,1.0,2.499663,-3.8091807,4.461026
alexnet_w1_mlp_simclrhn_probe1,1,194,NaN,cat,bird,0,0194_ske_dnn_0_bird_00_bird-1948-sketch-20.png,bird-1948-sketch-20.png,0.0,-2.9317055,-2.3548572,-0.40789333
alexnet_w1_mlp_simclrhn_probe1,1,195,NaN,bird,bird,0,0195_ske_dnn_0_bird_00_bird-2010-sketch-30.png,bird-2010-sketch-30.png,1.0,-2.748225,-4.71399,1.390006
alexnet_w1_mlp_simclrhn_probe1,1,196,NaN,bird,bird,0,0196_ske_dnn_0_bird_00_bird-2169-sketch-36.png,bird-2169-sketch-36.png,1.0,-0.8553291,-1.6079859,0.5322087
alexnet_w1_mlp_simclrhn_probe1,1,197,NaN,cat,bird,0,0197_ske_dnn_0_bird_00_bird-2262-sketch-28.png,bird-2262-sketch-28.png,0.0,-3.680727,-1.8873175,-1.268132
alexnet_w1_mlp_simclrhn_probe1,1,198,NaN,airplane,bird,0,0198_ske_dnn_0_bird_00_bird-2312-sketch-27.png,bird-2312-sketch-27.png,0.0,-1.9724286,1.5614698,-2.4988434
alexnet_w1_mlp_simclrhn_probe1,1,199,NaN,knife,bird,0,0199_ske_dnn_0_bird_00_bird-2313-sketch-28.png,bird-2313-sketch-28.png,0.0,-5.5425944,-2.3288922,-2.2724307
alexnet_w1_mlp_simclrhn_probe1,1,200,NaN,bicycle,bird,0,0200_ske_dnn_0_bird_00_bird-2372-sketch-36.png,bird-2372-sketch-36.png,0.0,-1.7643914,-0.21406716,-1.0962448
alexnet_w1_mlp_simclrhn_probe1,1,201,NaN,knife,boat,0,0201_ske_dnn_0_boat_00_boat-0001-sketch-0.png,boat-0001-sketch-0.png,0.0,-3.293578,-2.924923,-0.26067844
alexnet_w1_mlp_simclrhn_probe1,1,202,NaN,boat,boat,0,0202_ske_dnn_0_boat_00_boat-0002-sketch-1.png,boat-0002-sketch-1.png,1.0,2.8891826,-1.0742364,2.8025606
alexnet_w1_mlp_simclrhn_probe1,1,203,NaN,knife,boat,0,0203_ske_dnn_0_boat_00_boat-0010-sketch-17.png,boat-0010-sketch-17.png,0.0,-3.3012004,-0.2060487,-2.1886027
alexnet_w1_mlp_simclrhn_probe1,1,204,NaN,airplane,boat,0,0204_ske_dnn_0_boat_00_boat-0016-sketch-22.png,boat-0016-sketch-22.png,0.0,-4.840313,-0.47085163,-3.089676
alexnet_w1_mlp_simclrhn_probe1,1,205,NaN,clock,boat,0,0205_ske_dnn_0_boat_00_boat-0029-sketch-34.png,boat-0029-sketch-34.png,0.0,-9.255793,0.8409674,-7.1394873
alexnet_w1_mlp_simclrhn_probe1,1,206,NaN,knife,boat,0,0206_ske_dnn_0_boat_00_boat-0034-sketch-39.png,boat-0034-sketch-39.png,0.0,-3.5461338,0.1772098,-2.6328015
alexnet_w1_mlp_simclrhn_probe1,1,207,NaN,knife,boat,0,0207_ske_dnn_0_boat_00_boat-0036-sketch-40.png,boat-0036-sketch-40.png,0.0,-6.7358994,1.183505,-5.599865
alexnet_w1_mlp_simclrhn_probe1,1,208,NaN,knife,boat,0,0208_ske_dnn_0_boat_00_boat-0051-sketch-9.png,boat-0051-sketch-9.png,0.0,-6.355544,0.3556661,-4.7455425
alexnet_w1_mlp_simclrhn_probe1,1,209,NaN,airplane,boat,0,0209_ske_dnn_0_boat_00_boat-0052-sketch-0.png,boat-0052-sketch-0.png,0.0,2.2029128,2.8494163,-0.45714697
alexnet_w1_mlp_simclrhn_probe1,1,210,NaN,boat,boat,0,0210_ske_dnn_0_boat_00_boat-0059-sketch-15.png,boat-0059-sketch-15.png,1.0,0.56135434,-1.7572603,1.6395082
alexnet_w1_mlp_simclrhn_probe1,1,211,NaN,clock,boat,0,0211_ske_dnn_0_boat_00_boat-0064-sketch-2.png,boat-0064-sketch-2.png,0.0,-4.4646273,-0.59079057,-2.7392163
alexnet_w1_mlp_simclrhn_probe1,1,212,NaN,airplane,boat,0,0212_ske_dnn_0_boat_00_boat-0065-sketch-20.png,boat-0065-sketch-20.png,0.0,-0.06294727,2.578986,-1.8681289
alexnet_w1_mlp_simclrhn_probe1,1,213,NaN,airplane,boat,0,0213_ske_dnn_0_boat_00_boat-0067-sketch-22.png,boat-0067-sketch-22.png,0.0,0.9374813,1.7180189,-0.55192345
alexnet_w1_mlp_simclrhn_probe1,1,214,NaN,clock,boat,0,0214_ske_dnn_0_boat_00_boat-0068-sketch-23.png,boat-0068-sketch-23.png,0.0,-4.448552,3.6872113,-5.7528534
alexnet_w1_mlp_simclrhn_probe1,1,215,NaN,chair,boat,0,0215_ske_dnn_0_boat_00_boat-0070-sketch-25.png,boat-0070-sketch-25.png,0.0,-3.5922914,-0.3376528,-2.301377
alexnet_w1_mlp_simclrhn_probe1,1,216,NaN,bicycle,boat,0,0216_ske_dnn_0_boat_00_boat-0074-sketch-29.png,boat-0074-sketch-29.png,0.0,-2.481874,-0.20461908,-1.6102624
alexnet_w1_mlp_simclrhn_probe1,1,217,NaN,clock,boat,0,0217_ske_dnn_0_boat_00_boat-0079-sketch-33.png,boat-0079-sketch-33.png,0.0,-3.0022283,-0.78353554,-1.5688528
alexnet_w1_mlp_simclrhn_probe1,1,218,NaN,clock,boat,0,0218_ske_dnn_0_boat_00_boat-0080-sketch-34.png,boat-0080-sketch-34.png,0.0,-0.6514071,0.41192853,-0.75189185
alexnet_w1_mlp_simclrhn_probe1,1,219,NaN,chair,boat,0,0219_ske_dnn_0_boat_00_boat-0085-sketch-39.png,boat-0085-sketch-39.png,0.0,-1.4435928,-0.104340166,-0.9469946
alexnet_w1_mlp_simclrhn_probe1,1,220,NaN,boat,boat,0,0220_ske_dnn_0_boat_00_boat-0088-sketch-41.png,boat-0088-sketch-41.png,1.0,-0.8328398,-1.059921,0.16057068
alexnet_w1_mlp_simclrhn_probe1,1,221,NaN,boat,boat,0,0221_ske_dnn_0_boat_00_boat-0094-sketch-47.png,boat-0094-sketch-47.png,1.0,4.2591105,1.6729429,1.8286966
alexnet_w1_mlp_simclrhn_probe1,1,222,NaN,clock,boat,0,0222_ske_dnn_0_boat_00_boat-0099-sketch-6.png,boat-0099-sketch-6.png,0.0,-1.4932563,0.36159334,-1.3115768
alexnet_w1_mlp_simclrhn_probe1,1,223,NaN,airplane,boat,0,0223_ske_dnn_0_boat_00_boat-0107-sketch-12.png,boat-0107-sketch-12.png,0.0,-1.5961355,0.86869013,-1.7428949
alexnet_w1_mlp_simclrhn_probe1,1,224,NaN,airplane,boat,0,0224_ske_dnn_0_boat_00_boat-0108-sketch-13.png,boat-0108-sketch-13.png,0.0,-0.16054471,0.16592339,-0.23084782
alexnet_w1_mlp_simclrhn_probe1,1,225,NaN,knife,boat,0,0225_ske_dnn_0_boat_00_boat-0110-sketch-15.png,boat-0110-sketch-15.png,0.0,-5.4686127,-1.4578868,-2.8360116
alexnet_w1_mlp_simclrhn_probe1,1,226,NaN,knife,boat,0,0226_ske_dnn_0_boat_00_boat-0113-sketch-18.png,boat-0113-sketch-18.png,0.0,-4.4235067,-2.6712024,-1.2390662
alexnet_w1_mlp_simclrhn_probe1,1,227,NaN,clock,boat,0,0227_ske_dnn_0_boat_00_boat-0115-sketch-2.png,boat-0115-sketch-2.png,0.0,-4.703923,-1.228536,-2.45747
alexnet_w1_mlp_simclrhn_probe1,1,228,NaN,bicycle,boat,0,0228_ske_dnn_0_boat_00_boat-0123-sketch-27.png,boat-0123-sketch-27.png,0.0,-2.2847476,1.0952029,-2.389986
alexnet_w1_mlp_simclrhn_probe1,1,229,NaN,knife,boat,0,0229_ske_dnn_0_boat_00_boat-0124-sketch-28.png,boat-0124-sketch-28.png,0.0,-9.047249,-1.886509,-5.063408
alexnet_w1_mlp_simclrhn_probe1,1,230,NaN,clock,boat,0,0230_ske_dnn_0_boat_00_boat-0125-sketch-29.png,boat-0125-sketch-29.png,0.0,-8.852316,-0.2043265,-6.1150517
alexnet_w1_mlp_simclrhn_probe1,1,231,NaN,clock,boat,0,0231_ske_dnn_0_boat_00_boat-0126-sketch-3.png,boat-0126-sketch-3.png,0.0,-7.027794,0.20099325,-5.1115246
alexnet_w1_mlp_simclrhn_probe1,1,232,NaN,clock,boat,0,0232_ske_dnn_0_boat_00_boat-0128-sketch-31.png,boat-0128-sketch-31.png,0.0,-9.42845,-2.3606892,-4.9976616
alexnet_w1_mlp_simclrhn_probe1,1,233,NaN,clock,boat,0,0233_ske_dnn_0_boat_00_boat-0130-sketch-33.png,boat-0130-sketch-33.png,0.0,-8.345036,-2.5969112,-4.0645375
alexnet_w1_mlp_simclrhn_probe1,1,234,NaN,bicycle,boat,0,0234_ske_dnn_0_boat_00_boat-0132-sketch-35.png,boat-0132-sketch-35.png,0.0,-5.6067367,-0.6927815,-3.4746912
alexnet_w1_mlp_simclrhn_probe1,1,235,NaN,bicycle,boat,0,0235_ske_dnn_0_boat_00_boat-0146-sketch-48.png,boat-0146-sketch-48.png,0.0,-5.339616,-0.77418005,-3.2282507
alexnet_w1_mlp_simclrhn_probe1,1,236,NaN,airplane,boat,0,0236_ske_dnn_0_boat_00_boat-0152-sketch-8.png,boat-0152-sketch-8.png,0.0,-2.4839356,2.1554196,-3.2805195
alexnet_w1_mlp_simclrhn_probe1,1,237,NaN,clock,boat,0,0237_ske_dnn_0_boat_00_boat-0165-sketch-19.png,boat-0165-sketch-19.png,0.0,-4.743151,-1.6499208,-2.1872442
alexnet_w1_mlp_simclrhn_probe1,1,238,NaN,boat,boat,0,0238_ske_dnn_0_boat_00_boat-0166-sketch-2.png,boat-0166-sketch-2.png,1.0,-4.3068104,-4.9053907,0.42326024
alexnet_w1_mlp_simclrhn_probe1,1,239,NaN,airplane,boat,0,0239_ske_dnn_0_boat_00_boat-0173-sketch-26.png,boat-0173-sketch-26.png,0.0,-1.731612,2.6163435,-3.074469
alexnet_w1_mlp_simclrhn_probe1,1,240,NaN,car,boat,0,0240_ske_dnn_0_boat_00_boat-0178-sketch-30.png,boat-0178-sketch-30.png,0.0,-8.001707,-1.6828085,-4.4681363
alexnet_w1_mlp_simclrhn_probe1,1,241,NaN,oven,boat,0,0241_ske_dnn_0_boat_00_boat-0180-sketch-32.png,boat-0180-sketch-32.png,0.0,-5.5739646,-2.974423,-1.8381536
alexnet_w1_mlp_simclrhn_probe1,1,242,NaN,airplane,boat,0,0242_ske_dnn_0_boat_00_boat-0194-sketch-45.png,boat-0194-sketch-45.png,0.0,-2.5587049,-0.59362876,-1.3895186
alexnet_w1_mlp_simclrhn_probe1,1,243,NaN,oven,boat,0,0243_ske_dnn_0_boat_00_boat-0197-sketch-48.png,boat-0197-sketch-48.png,0.0,-5.076436,-4.90948,-0.11805569
alexnet_w1_mlp_simclrhn_probe1,1,244,NaN,boat,boat,0,0244_ske_dnn_0_boat_00_boat-0212-sketch-15.png,boat-0212-sketch-15.png,1.0,-0.5204878,-3.3708458,2.0155075
alexnet_w1_mlp_simclrhn_probe1,1,245,NaN,bicycle,boat,0,0245_ske_dnn_0_boat_00_boat-0228-sketch-3.png,boat-0228-sketch-3.png,0.0,-6.811775,0.90642613,-5.4575925
alexnet_w1_mlp_simclrhn_probe1,1,246,NaN,bicycle,boat,0,0246_ske_dnn_0_boat_00_boat-0233-sketch-34.png,boat-0233-sketch-34.png,0.0,-2.3499036,2.2695432,-3.2664423
alexnet_w1_mlp_simclrhn_probe1,1,247,NaN,bicycle,boat,0,0247_ske_dnn_0_boat_00_boat-0234-sketch-35.png,boat-0234-sketch-35.png,0.0,-1.0458921,0.30298477,-0.9538001
alexnet_w1_mlp_simclrhn_probe1,1,248,NaN,clock,boat,0,0248_ske_dnn_0_boat_00_boat-0237-sketch-38.png,boat-0237-sketch-38.png,0.0,-2.6387029,0.07546878,-1.9192092
alexnet_w1_mlp_simclrhn_probe1,1,249,NaN,boat,boat,0,0249_ske_dnn_0_boat_00_boat-0239-sketch-4.png,boat-0239-sketch-4.png,1.0,1.9313471,0.84291255,0.7696395
alexnet_w1_mlp_simclrhn_probe1,1,250,NaN,boat,boat,0,0250_ske_dnn_0_boat_00_boat-0253-sketch-7.png,boat-0253-sketch-7.png,1.0,1.3994802,-1.470551,2.0294187
alexnet_w1_mlp_simclrhn_probe1,1,251,NaN,bottle,bottle,0,0251_ske_dnn_0_bottle_00_bottle-0002-sketch-1.png,bottle-0002-sketch-1.png,1.0,2.538432,2.2448242,0.20761201
alexnet_w1_mlp_simclrhn_probe1,1,252,NaN,clock,bottle,0,0252_ske_dnn_0_bottle_00_bottle-0003-sketch-10.png,bottle-0003-sketch-10.png,0.0,-0.7763128,3.5374725,-3.050307
alexnet_w1_mlp_simclrhn_probe1,1,253,NaN,clock,bottle,0,0253_ske_dnn_0_bottle_00_bottle-0019-sketch-25.png,bottle-0019-sketch-25.png,0.0,-2.4105878,2.580572,-3.5292828
alexnet_w1_mlp_simclrhn_probe1,1,254,NaN,bottle,bottle,0,0254_ske_dnn_0_bottle_00_bottle-0030-sketch-35.png,bottle-0030-sketch-35.png,1.0,5.616093,5.4029174,0.15073803
alexnet_w1_mlp_simclrhn_probe1,1,255,NaN,bottle,bottle,0,0255_ske_dnn_0_bottle_00_bottle-0031-sketch-36.png,bottle-0031-sketch-36.png,1.0,2.0976095,1.4490956,0.4585686
alexnet_w1_mlp_simclrhn_probe1,1,256,NaN,clock,bottle,0,0256_ske_dnn_0_bottle_00_bottle-0038-sketch-42.png,bottle-0038-sketch-42.png,0.0,-1.2066622,2.0105026,-2.274879
alexnet_w1_mlp_simclrhn_probe1,1,257,NaN,bottle,bottle,0,0257_ske_dnn_0_bottle_00_bottle-0039-sketch-43.png,bottle-0039-sketch-43.png,1.0,7.1144943,-1.2589417,5.9209137
alexnet_w1_mlp_simclrhn_probe1,1,258,NaN,clock,bottle,0,0258_ske_dnn_0_bottle_00_bottle-0041-sketch-45.png,bottle-0041-sketch-45.png,0.0,-1.3291789,3.742466,-3.5861945
alexnet_w1_mlp_simclrhn_probe1,1,259,NaN,clock,bottle,0,0259_ske_dnn_0_bottle_00_bottle-0045-sketch-49.png,bottle-0045-sketch-49.png,0.0,0.31147775,1.5570226,-0.8807332
alexnet_w1_mlp_simclrhn_probe1,1,260,NaN,bottle,bottle,0,0260_ske_dnn_0_bottle_00_bottle-0050-sketch-9.png,bottle-0050-sketch-9.png,1.0,1.0496092,0.77770805,0.19226314
alexnet_w1_mlp_simclrhn_probe1,1,261,NaN,clock,bottle,0,0261_ske_dnn_0_bottle_00_bottle-0054-sketch-11.png,bottle-0054-sketch-11.png,0.0,1.9713541,2.5826786,-0.43227166
alexnet_w1_mlp_simclrhn_probe1,1,262,NaN,bottle,bottle,0,0262_ske_dnn_0_bottle_00_bottle-0066-sketch-22.png,bottle-0066-sketch-22.png,1.0,8.311404,3.6026723,3.3295763
alexnet_w1_mlp_simclrhn_probe1,1,263,NaN,bicycle,bottle,0,0263_ske_dnn_0_bottle_00_bottle-0071-sketch-27.png,bottle-0071-sketch-27.png,0.0,-2.0549467,0.88190776,-2.0766697
alexnet_w1_mlp_simclrhn_probe1,1,264,NaN,clock,bottle,0,0264_ske_dnn_0_bottle_00_bottle-0082-sketch-37.png,bottle-0082-sketch-37.png,0.0,1.4799635,2.714414,-0.8728882
alexnet_w1_mlp_simclrhn_probe1,1,265,NaN,bottle,bottle,0,0265_ske_dnn_0_bottle_00_bottle-0086-sketch-40.png,bottle-0086-sketch-40.png,1.0,4.0933537,2.5343313,1.1023953
alexnet_w1_mlp_simclrhn_probe1,1,266,NaN,bottle,bottle,0,0266_ske_dnn_0_bottle_00_bottle-0090-sketch-44.png,bottle-0090-sketch-44.png,1.0,2.3712997,2.0601852,0.2199912
alexnet_w1_mlp_simclrhn_probe1,1,267,NaN,clock,bottle,0,0267_ske_dnn_0_bottle_00_bottle-0097-sketch-50.png,bottle-0097-sketch-50.png,0.0,-3.2551847,0.30892158,-2.5202038
alexnet_w1_mlp_simclrhn_probe1,1,268,NaN,bicycle,bottle,0,0268_ske_dnn_0_bottle_00_bottle-0107-sketch-13.png,bottle-0107-sketch-13.png,0.0,-7.5606723,2.4661846,-7.090059
alexnet_w1_mlp_simclrhn_probe1,1,269,NaN,bicycle,bottle,0,0269_ske_dnn_0_bottle_00_bottle-0114-sketch-2.png,bottle-0114-sketch-2.png,0.0,-6.065793,-0.29704764,-4.079119
alexnet_w1_mlp_simclrhn_probe1,1,270,NaN,knife,bottle,0,0270_ske_dnn_0_bottle_00_bottle-0126-sketch-30.png,bottle-0126-sketch-30.png,0.0,-2.5860078,-0.099448115,-1.7582632
alexnet_w1_mlp_simclrhn_probe1,1,271,NaN,bottle,bottle,0,0271_ske_dnn_0_bottle_00_bottle-0130-sketch-34.png,bottle-0130-sketch-34.png,1.0,4.392475,3.6191823,0.54680055
alexnet_w1_mlp_simclrhn_probe1,1,272,NaN,knife,bottle,0,0272_ske_dnn_0_bottle_00_bottle-0131-sketch-35.png,bottle-0131-sketch-35.png,0.0,-5.3703394,-2.626686,-1.9400558
alexnet_w1_mlp_simclrhn_probe1,1,273,NaN,clock,bottle,0,0273_ske_dnn_0_bottle_00_bottle-0133-sketch-37.png,bottle-0133-sketch-37.png,0.0,-6.2145286,-0.17677951,-4.2693334
alexnet_w1_mlp_simclrhn_probe1,1,274,NaN,bottle,bottle,0,0274_ske_dnn_0_bottle_00_bottle-0135-sketch-39.png,bottle-0135-sketch-39.png,1.0,-0.5364307,-1.9848624,1.0241959
alexnet_w1_mlp_simclrhn_probe1,1,275,NaN,keyboard,bottle,0,0275_ske_dnn_0_bottle_00_bottle-0143-sketch-46.png,bottle-0143-sketch-46.png,0.0,-1.9904679,2.6138628,-3.2557535
alexnet_w1_mlp_simclrhn_probe1,1,276,NaN,bottle,bottle,0,0276_ske_dnn_0_bottle_00_bottle-0145-sketch-48.png,bottle-0145-sketch-48.png,1.0,-0.01803119,-0.021379054,0.0023672977
alexnet_w1_mlp_simclrhn_probe1,1,277,NaN,clock,bottle,0,0277_ske_dnn_0_bottle_00_bottle-0150-sketch-7.png,bottle-0150-sketch-7.png,0.0,1.9604026,3.6778214,-1.2143985
alexnet_w1_mlp_simclrhn_probe1,1,278,NaN,bottle,bottle,0,0278_ske_dnn_0_bottle_00_bottle-0162-sketch-17.png,bottle-0162-sketch-17.png,1.0,1.4247618,0.008033951,1.0017779
alexnet_w1_mlp_simclrhn_probe1,1,279,NaN,clock,bottle,0,0279_ske_dnn_0_bottle_00_bottle-0165-sketch-2.png,bottle-0165-sketch-2.png,0.0,0.9986876,2.533601,-1.0853477
alexnet_w1_mlp_simclrhn_probe1,1,280,NaN,bottle,bottle,0,0280_ske_dnn_0_bottle_00_bottle-0184-sketch-37.png,bottle-0184-sketch-37.png,1.0,1.2889396,0.9783926,0.21958989
alexnet_w1_mlp_simclrhn_probe1,1,281,NaN,clock,bottle,0,0281_ske_dnn_0_bottle_00_bottle-0185-sketch-38.png,bottle-0185-sketch-38.png,0.0,1.6110224,3.2505372,-1.159312
alexnet_w1_mlp_simclrhn_probe1,1,282,NaN,bottle,bottle,0,0282_ske_dnn_0_bottle_00_bottle-0189-sketch-41.png,bottle-0189-sketch-41.png,1.0,-1.8129786,-2.7933908,0.6932561
alexnet_w1_mlp_simclrhn_probe1,1,283,NaN,bottle,bottle,0,0283_ske_dnn_0_bottle_00_bottle-0202-sketch-8.png,bottle-0202-sketch-8.png,1.0,0.0072623515,-0.33807567,0.24419086
alexnet_w1_mlp_simclrhn_probe1,1,284,NaN,clock,bottle,0,0284_ske_dnn_0_bottle_00_bottle-0207-sketch-11.png,bottle-0207-sketch-11.png,0.0,5.204548,7.7652626,-1.8106987
alexnet_w1_mlp_simclrhn_probe1,1,285,NaN,clock,bottle,0,0285_ske_dnn_0_bottle_00_bottle-0215-sketch-19.png,bottle-0215-sketch-19.png,0.0,-1.9130838,2.364764,-3.0248952
alexnet_w1_mlp_simclrhn_probe1,1,286,NaN,clock,bottle,0,0286_ske_dnn_0_bottle_00_bottle-0217-sketch-20.png,bottle-0217-sketch-20.png,0.0,-0.9599756,5.0316715,-4.2367344
alexnet_w1_mlp_simclrhn_probe1,1,287,NaN,knife,bottle,0,0287_ske_dnn_0_bottle_00_bottle-0237-sketch-39.png,bottle-0237-sketch-39.png,0.0,-0.86820453,1.669372,-1.7943375
alexnet_w1_mlp_simclrhn_probe1,1,288,NaN,clock,bottle,0,0288_ske_dnn_0_bottle_00_bottle-0243-sketch-44.png,bottle-0243-sketch-44.png,0.0,-1.2523936,-0.23278211,-0.7209742
alexnet_w1_mlp_simclrhn_probe1,1,289,NaN,bottle,bottle,0,0289_ske_dnn_0_bottle_00_bottle-0245-sketch-46.png,bottle-0245-sketch-46.png,1.0,0.34992442,-1.4689044,1.2861062
alexnet_w1_mlp_simclrhn_probe1,1,290,NaN,bottle,bottle,0,0290_ske_dnn_0_bottle_00_bottle-0268-sketch-20.png,bottle-0268-sketch-20.png,1.0,3.0241373,1.3298459,1.1980449
alexnet_w1_mlp_simclrhn_probe1,1,291,NaN,clock,bottle,0,0291_ske_dnn_0_bottle_00_bottle-0280-sketch-31.png,bottle-0280-sketch-31.png,0.0,2.0780022,5.0478487,-2.0999987
alexnet_w1_mlp_simclrhn_probe1,1,292,NaN,bottle,bottle,0,0292_ske_dnn_0_bottle_00_bottle-0292-sketch-42.png,bottle-0292-sketch-42.png,1.0,4.3292623,3.513738,0.5766628
alexnet_w1_mlp_simclrhn_probe1,1,293,NaN,bottle,bottle,0,0293_ske_dnn_0_bottle_00_bottle-0294-sketch-44.png,bottle-0294-sketch-44.png,1.0,-0.59394264,-1.9250628,0.94124407
alexnet_w1_mlp_simclrhn_probe1,1,294,NaN,clock,bottle,0,0294_ske_dnn_0_bottle_00_bottle-0296-sketch-46.png,bottle-0296-sketch-46.png,0.0,-0.38677186,2.2258422,-1.8473972
alexnet_w1_mlp_simclrhn_probe1,1,295,NaN,bottle,bottle,0,0295_ske_dnn_0_bottle_00_bottle-0301-sketch-50.png,bottle-0301-sketch-50.png,1.0,1.5651375,-1.0917618,1.8787117
alexnet_w1_mlp_simclrhn_probe1,1,296,NaN,bottle,bottle,0,0296_ske_dnn_0_bottle_00_bottle-0305-sketch-9.png,bottle-0305-sketch-9.png,1.0,0.30348223,-0.30215934,0.4282533
alexnet_w1_mlp_simclrhn_probe1,1,297,NaN,bottle,bottle,0,0297_ske_dnn_0_bottle_00_bottle-0313-sketch-15.png,bottle-0313-sketch-15.png,1.0,1.325772,-1.0155923,1.6555947
alexnet_w1_mlp_simclrhn_probe1,1,298,NaN,bottle,bottle,0,0298_ske_dnn_0_bottle_00_bottle-0321-sketch-22.png,bottle-0321-sketch-22.png,1.0,2.4372349,-0.77731526,2.27303
alexnet_w1_mlp_simclrhn_probe1,1,299,NaN,bottle,bottle,0,0299_ske_dnn_0_bottle_00_bottle-0330-sketch-30.png,bottle-0330-sketch-30.png,1.0,3.3566024,-1.3389653,3.3202677
alexnet_w1_mlp_simclrhn_probe1,1,300,NaN,bottle,bottle,0,0300_ske_dnn_0_bottle_00_bottle-0338-sketch-38.png,bottle-0338-sketch-38.png,1.0,1.2526342,-1.5880449,2.0086637
alexnet_w1_mlp_simclrhn_probe1,1,301,NaN,truck,car,0,0301_ske_dnn_0_car_00_car-0002-sketch-1.png,car-0002-sketch-1.png,0.0,1.4228026,2.313888,-0.6300926
alexnet_w1_mlp_simclrhn_probe1,1,302,NaN,car,car,0,0302_ske_dnn_0_car_00_car-0004-sketch-11.png,car-0004-sketch-11.png,1.0,0.7341253,0.49950764,0.16589975
alexnet_w1_mlp_simclrhn_probe1,1,303,NaN,truck,car,0,0303_ske_dnn_0_car_00_car-0005-sketch-12.png,car-0005-sketch-12.png,0.0,1.6012689,2.4700923,-0.6143509
alexnet_w1_mlp_simclrhn_probe1,1,304,NaN,bicycle,car,0,0304_ske_dnn_0_car_00_car-0009-sketch-16.png,car-0009-sketch-16.png,0.0,2.000324,2.4476686,-0.31632036
alexnet_w1_mlp_simclrhn_probe1,1,305,NaN,car,car,0,0305_ske_dnn_0_car_00_car-0013-sketch-2.png,car-0013-sketch-2.png,1.0,0.9964802,-0.39185083,0.98169833
alexnet_w1_mlp_simclrhn_probe1,1,306,NaN,car,car,0,0306_ske_dnn_0_car_00_car-0014-sketch-20.png,car-0014-sketch-20.png,1.0,0.28182313,-0.019778155,0.21326432
alexnet_w1_mlp_simclrhn_probe1,1,307,NaN,oven,car,0,0307_ske_dnn_0_car_00_car-0017-sketch-23.png,car-0017-sketch-23.png,0.0,-4.10282,-1.7299681,-1.6778597
alexnet_w1_mlp_simclrhn_probe1,1,308,NaN,oven,car,0,0308_ske_dnn_0_car_00_car-0018-sketch-24.png,car-0018-sketch-24.png,0.0,0.13213265,0.56832993,-0.30843806
alexnet_w1_mlp_simclrhn_probe1,1,309,NaN,clock,car,0,0309_ske_dnn_0_car_00_car-0021-sketch-27.png,car-0021-sketch-27.png,0.0,-3.7272255,1.4580284,-3.6665285
alexnet_w1_mlp_simclrhn_probe1,1,310,NaN,clock,car,0,0310_ske_dnn_0_car_00_car-0022-sketch-28.png,car-0022-sketch-28.png,0.0,-1.0290656,0.30630276,-0.9442481
alexnet_w1_mlp_simclrhn_probe1,1,311,NaN,car,car,0,0311_ske_dnn_0_car_00_car-0024-sketch-3.png,car-0024-sketch-3.png,1.0,12.395214,7.7502375,3.2844946
alexnet_w1_mlp_simclrhn_probe1,1,312,NaN,clock,car,0,0312_ske_dnn_0_car_00_car-0025-sketch-30.png,car-0025-sketch-30.png,0.0,-6.480224,2.7913837,-6.5560174
alexnet_w1_mlp_simclrhn_probe1,1,313,NaN,clock,car,0,0313_ske_dnn_0_car_00_car-0029-sketch-34.png,car-0029-sketch-34.png,0.0,-3.6655414,-2.1817482,-1.0492003
alexnet_w1_mlp_simclrhn_probe1,1,314,NaN,car,car,0,0314_ske_dnn_0_car_00_car-0030-sketch-35.png,car-0030-sketch-35.png,1.0,0.70225316,0.34319073,0.2538955
alexnet_w1_mlp_simclrhn_probe1,1,315,NaN,knife,car,0,0315_ske_dnn_0_car_00_car-0032-sketch-37.png,car-0032-sketch-37.png,0.0,-2.0507872,-0.7084663,-0.9491642
alexnet_w1_mlp_simclrhn_probe1,1,316,NaN,clock,car,0,0316_ske_dnn_0_car_00_car-0034-sketch-39.png,car-0034-sketch-39.png,0.0,-1.3321456,0.47673595,-1.2790724
alexnet_w1_mlp_simclrhn_probe1,1,317,NaN,car,car,0,0317_ske_dnn_0_car_00_car-0040-sketch-44.png,car-0040-sketch-44.png,1.0,0.8577773,0.7679969,0.063484326
alexnet_w1_mlp_simclrhn_probe1,1,318,NaN,car,car,0,0318_ske_dnn_0_car_00_car-0043-sketch-47.png,car-0043-sketch-47.png,1.0,12.395214,7.7502375,3.2844946
alexnet_w1_mlp_simclrhn_probe1,1,319,NaN,car,car,0,0319_ske_dnn_0_car_00_car-0044-sketch-48.png,car-0044-sketch-48.png,1.0,7.6941147,3.1612356,3.2052295
alexnet_w1_mlp_simclrhn_probe1,1,320,NaN,bicycle,car,0,0320_ske_dnn_0_car_00_car-0045-sketch-49.png,car-0045-sketch-49.png,0.0,2.0231192,2.0665483,-0.030709038
alexnet_w1_mlp_simclrhn_probe1,1,321,NaN,car,car,0,0321_ske_dnn_0_car_00_car-0047-sketch-50.png,car-0047-sketch-50.png,1.0,0.9222472,0.8239554,0.06950277
alexnet_w1_mlp_simclrhn_probe1,1,322,NaN,clock,car,0,0322_ske_dnn_0_car_00_car-0050-sketch-8.png,car-0050-sketch-8.png,0.0,-4.7276597,2.6492493,-5.216263
alexnet_w1_mlp_simclrhn_probe1,1,323,NaN,clock,car,0,0323_ske_dnn_0_car_00_car-0052-sketch-0.png,car-0052-sketch-0.png,0.0,-0.7745736,0.24024415,-0.7175845
alexnet_w1_mlp_simclrhn_probe1,1,324,NaN,car,car,0,0324_ske_dnn_0_car_00_car-0055-sketch-11.png,car-0055-sketch-11.png,1.0,4.680042,1.7851412,2.0470037
alexnet_w1_mlp_simclrhn_probe1,1,325,NaN,bicycle,car,0,0325_ske_dnn_0_car_00_car-0064-sketch-2.png,car-0064-sketch-2.png,0.0,0.88856405,2.0417216,-0.8154055
alexnet_w1_mlp_simclrhn_probe1,1,326,NaN,car,car,0,0326_ske_dnn_0_car_00_car-0069-sketch-24.png,car-0069-sketch-24.png,1.0,2.548511,2.3948708,0.10864008
alexnet_w1_mlp_simclrhn_probe1,1,327,NaN,car,car,0,0327_ske_dnn_0_car_00_car-0076-sketch-30.png,car-0076-sketch-30.png,1.0,3.1402743,0.87759894,1.599953
alexnet_w1_mlp_simclrhn_probe1,1,328,NaN,airplane,car,0,0328_ske_dnn_0_car_00_car-0079-sketch-33.png,car-0079-sketch-33.png,0.0,-3.8791237,-0.49133095,-2.3955314
alexnet_w1_mlp_simclrhn_probe1,1,329,NaN,clock,car,0,0329_ske_dnn_0_car_00_car-0083-sketch-37.png,car-0083-sketch-37.png,0.0,0.3304697,1.3302717,-0.70696676
alexnet_w1_mlp_simclrhn_probe1,1,330,NaN,bicycle,car,0,0330_ske_dnn_0_car_00_car-0092-sketch-45.png,car-0092-sketch-45.png,0.0,-2.8407755,2.9907727,-4.1235275
alexnet_w1_mlp_simclrhn_probe1,1,331,NaN,car,car,0,0331_ske_dnn_0_car_00_car-0096-sketch-49.png,car-0096-sketch-49.png,1.0,5.618693,0.5945702,3.5525913
alexnet_w1_mlp_simclrhn_probe1,1,332,NaN,bicycle,car,0,0332_ske_dnn_0_car_00_car-0098-sketch-50.png,car-0098-sketch-50.png,0.0,0.7602365,2.15452,-0.9859074
alexnet_w1_mlp_simclrhn_probe1,1,333,NaN,car,car,0,0333_ske_dnn_0_car_00_car-0100-sketch-7.png,car-0100-sketch-7.png,1.0,3.963169,2.2646852,1.2010095
alexnet_w1_mlp_simclrhn_probe1,1,334,NaN,car,car,0,0334_ske_dnn_0_car_00_car-0112-sketch-17.png,car-0112-sketch-17.png,1.0,6.9675384,2.3537402,3.262448
alexnet_w1_mlp_simclrhn_probe1,1,335,NaN,car,car,0,0335_ske_dnn_0_car_00_car-0114-sketch-19.png,car-0114-sketch-19.png,1.0,2.774503,1.3329616,1.0193237
alexnet_w1_mlp_simclrhn_probe1,1,336,NaN,car,car,0,0336_ske_dnn_0_car_00_car-0116-sketch-20.png,car-0116-sketch-20.png,1.0,5.6760497,3.267657,1.7029908
alexnet_w1_mlp_simclrhn_probe1,1,337,NaN,clock,car,0,0337_ske_dnn_0_car_00_car-0117-sketch-21.png,car-0117-sketch-21.png,0.0,0.36539814,1.7461933,-0.9763696
alexnet_w1_mlp_simclrhn_probe1,1,338,NaN,car,car,0,0338_ske_dnn_0_car_00_car-0120-sketch-24.png,car-0120-sketch-24.png,1.0,4.095371,2.1086795,1.4048029
alexnet_w1_mlp_simclrhn_probe1,1,339,NaN,clock,car,0,0339_ske_dnn_0_car_00_car-0122-sketch-26.png,car-0122-sketch-26.png,0.0,3.7999656,5.82223,-1.4299568
alexnet_w1_mlp_simclrhn_probe1,1,340,NaN,clock,car,0,0340_ske_dnn_0_car_00_car-0124-sketch-28.png,car-0124-sketch-28.png,0.0,-1.2851167,2.1286318,-2.4138846
alexnet_w1_mlp_simclrhn_probe1,1,341,NaN,car,car,0,0341_ske_dnn_0_car_00_car-0125-sketch-29.png,car-0125-sketch-29.png,1.0,2.0998762,-0.4361829,1.7932646
alexnet_w1_mlp_simclrhn_probe1,1,342,NaN,clock,car,0,0342_ske_dnn_0_car_00_car-0129-sketch-32.png,car-0129-sketch-32.png,0.0,-0.024864634,2.516342,-1.7969044
alexnet_w1_mlp_simclrhn_probe1,1,343,NaN,car,car,0,0343_ske_dnn_0_car_00_car-0132-sketch-35.png,car-0132-sketch-35.png,1.0,7.028291,2.1832147,3.4259865
alexnet_w1_mlp_simclrhn_probe1,1,344,NaN,bicycle,car,0,0344_ske_dnn_0_car_00_car-0136-sketch-39.png,car-0136-sketch-39.png,0.0,-5.15349,-0.9583486,-2.966413
alexnet_w1_mlp_simclrhn_probe1,1,345,NaN,car,car,0,0345_ske_dnn_0_car_00_car-0138-sketch-40.png,car-0138-sketch-40.png,1.0,7.7059293,1.7955207,4.17929
alexnet_w1_mlp_simclrhn_probe1,1,346,NaN,car,car,0,0346_ske_dnn_0_car_00_car-0139-sketch-41.png,car-0139-sketch-41.png,1.0,4.213469,1.6616136,1.8044344
alexnet_w1_mlp_simclrhn_probe1,1,347,NaN,clock,car,0,0347_ske_dnn_0_car_00_car-0143-sketch-45.png,car-0143-sketch-45.png,0.0,0.3830775,2.6262715,-1.5861778
alexnet_w1_mlp_simclrhn_probe1,1,348,NaN,bicycle,car,0,0348_ske_dnn_0_car_00_car-0145-sketch-47.png,car-0145-sketch-47.png,0.0,-0.841609,-0.6127327,-0.16183998
alexnet_w1_mlp_simclrhn_probe1,1,349,NaN,car,car,0,0349_ske_dnn_0_car_00_car-0151-sketch-7.png,car-0151-sketch-7.png,1.0,8.470483,4.5303545,2.7860916
alexnet_w1_mlp_simclrhn_probe1,1,350,NaN,clock,car,0,0350_ske_dnn_0_car_00_car-0153-sketch-9.png,car-0153-sketch-9.png,0.0,-2.894912,0.3757659,-2.3127184
alexnet_w1_mlp_simclrhn_probe1,1,351,NaN,cat,cat,0,0351_ske_dnn_0_cat_00_cat-0002-sketch-1.png,cat-0002-sketch-1.png,1.0,10.128163,-2.5097883,8.936381
alexnet_w1_mlp_simclrhn_probe1,1,352,NaN,cat,cat,0,0352_ske_dnn_0_cat_00_cat-0009-sketch-16.png,cat-0009-sketch-16.png,1.0,1.8533913,-1.7616531,2.5562224
alexnet_w1_mlp_simclrhn_probe1,1,353,NaN,bicycle,cat,0,0353_ske_dnn_0_cat_00_cat-0011-sketch-18.png,cat-0011-sketch-18.png,0.0,-2.4656875,-1.2753388,-0.8417037
alexnet_w1_mlp_simclrhn_probe1,1,354,NaN,cat,cat,0,0354_ske_dnn_0_cat_00_cat-0015-sketch-21.png,cat-0015-sketch-21.png,1.0,4.482426,-1.89446,4.5091395
alexnet_w1_mlp_simclrhn_probe1,1,355,NaN,cat,cat,0,0355_ske_dnn_0_cat_00_cat-0016-sketch-22.png,cat-0016-sketch-22.png,1.0,6.629185,-1.7104791,5.897033
alexnet_w1_mlp_simclrhn_probe1,1,356,NaN,cat,cat,0,0356_ske_dnn_0_cat_00_cat-0021-sketch-27.png,cat-0021-sketch-27.png,1.0,3.276563,-3.856338,5.043723
alexnet_w1_mlp_simclrhn_probe1,1,357,NaN,cat,cat,0,0357_ske_dnn_0_cat_00_cat-0027-sketch-32.png,cat-0027-sketch-32.png,1.0,1.7033917,-3.9025764,3.964018
alexnet_w1_mlp_simclrhn_probe1,1,358,NaN,cat,cat,0,0358_ske_dnn_0_cat_00_cat-0042-sketch-46.png,cat-0042-sketch-46.png,1.0,1.2732948,-3.7069883,3.5215921
alexnet_w1_mlp_simclrhn_probe1,1,359,NaN,cat,cat,0,0359_ske_dnn_0_cat_00_cat-0043-sketch-47.png,cat-0043-sketch-47.png,1.0,2.7590945,-0.030423703,1.9724872
alexnet_w1_mlp_simclrhn_probe1,1,360,NaN,cat,cat,0,0360_ske_dnn_0_cat_00_cat-0044-sketch-48.png,cat-0044-sketch-48.png,1.0,3.740904,-1.4177576,3.6477249
alexnet_w1_mlp_simclrhn_probe1,1,361,NaN,cat,cat,0,0361_ske_dnn_0_cat_00_cat-0048-sketch-7.png,cat-0048-sketch-7.png,1.0,3.1117535,-4.091904,5.0937552
alexnet_w1_mlp_simclrhn_probe1,1,362,NaN,cat,cat,0,0362_ske_dnn_0_cat_00_cat-0052-sketch-1.png,cat-0052-sketch-1.png,1.0,3.1120758,-3.8160756,4.898943
alexnet_w1_mlp_simclrhn_probe1,1,363,NaN,clock,cat,0,0363_ske_dnn_0_cat_00_cat-0053-sketch-10.png,cat-0053-sketch-10.png,0.0,-5.7627716,0.0032566786,-4.077198
alexnet_w1_mlp_simclrhn_probe1,1,364,NaN,bicycle,cat,0,0364_ske_dnn_0_cat_00_cat-0059-sketch-16.png,cat-0059-sketch-16.png,0.0,-2.6507533,-2.0394168,-0.43228018
alexnet_w1_mlp_simclrhn_probe1,1,365,NaN,knife,cat,0,0365_ske_dnn_0_cat_00_cat-0062-sketch-19.png,cat-0062-sketch-19.png,0.0,-5.883229,-3.0631862,-1.9940712
alexnet_w1_mlp_simclrhn_probe1,1,366,NaN,cat,cat,0,0366_ske_dnn_0_cat_00_cat-0067-sketch-23.png,cat-0067-sketch-23.png,1.0,1.710334,-2.0266268,2.6424305
alexnet_w1_mlp_simclrhn_probe1,1,367,NaN,keyboard,cat,0,0367_ske_dnn_0_cat_00_cat-0073-sketch-29.png,cat-0073-sketch-29.png,0.0,-6.143766,-1.6417326,-3.1834183
alexnet_w1_mlp_simclrhn_probe1,1,368,NaN,knife,cat,0,0368_ske_dnn_0_cat_00_cat-0082-sketch-37.png,cat-0082-sketch-37.png,0.0,-5.6480565,-2.2035558,-2.4356298
alexnet_w1_mlp_simclrhn_probe1,1,369,NaN,cat,cat,0,0369_ske_dnn_0_cat_00_cat-0085-sketch-4.png,cat-0085-sketch-4.png,1.0,-1.3981184,-1.6743273,0.19530918
alexnet_w1_mlp_simclrhn_probe1,1,370,NaN,cat,cat,0,0370_ske_dnn_0_cat_00_cat-0090-sketch-44.png,cat-0090-sketch-44.png,1.0,-0.4296163,-1.7076522,0.90370786
alexnet_w1_mlp_simclrhn_probe1,1,371,NaN,cat,cat,0,0371_ske_dnn_0_cat_00_cat-0104-sketch-10.png,cat-0104-sketch-10.png,1.0,-1.1713343,-2.0260303,0.60436136
alexnet_w1_mlp_simclrhn_probe1,1,372,NaN,cat,cat,0,0372_ske_dnn_0_cat_00_cat-0124-sketch-29.png,cat-0124-sketch-29.png,1.0,-3.489267,-6.7517285,2.3069086
alexnet_w1_mlp_simclrhn_probe1,1,373,NaN,cat,cat,0,0373_ske_dnn_0_cat_00_cat-0128-sketch-32.png,cat-0128-sketch-32.png,1.0,4.6469073,-0.5458353,3.6718237
alexnet_w1_mlp_simclrhn_probe1,1,374,NaN,cat,cat,0,0374_ske_dnn_0_cat_00_cat-0134-sketch-38.png,cat-0134-sketch-38.png,1.0,0.67867476,-0.8266781,1.0644453
alexnet_w1_mlp_simclrhn_probe1,1,375,NaN,cat,cat,0,0375_ske_dnn_0_cat_00_cat-0140-sketch-43.png,cat-0140-sketch-43.png,1.0,3.5926282,-1.9389983,3.9114509
alexnet_w1_mlp_simclrhn_probe1,1,376,NaN,cat,cat,0,0376_ske_dnn_0_cat_00_cat-0149-sketch-6.png,cat-0149-sketch-6.png,1.0,1.0714957,-3.038838,2.9064448
alexnet_w1_mlp_simclrhn_probe1,1,377,NaN,cat,cat,0,0377_ske_dnn_0_cat_00_cat-0150-sketch-7.png,cat-0150-sketch-7.png,1.0,3.8446786,-5.078593,6.3097057
alexnet_w1_mlp_simclrhn_probe1,1,378,NaN,clock,cat,0,0378_ske_dnn_0_cat_00_cat-0152-sketch-9.png,cat-0152-sketch-9.png,0.0,-3.0143845,-2.4134567,-0.42492014
alexnet_w1_mlp_simclrhn_probe1,1,379,NaN,chair,cat,0,0379_ske_dnn_0_cat_00_cat-0158-sketch-13.png,cat-0158-sketch-13.png,0.0,-9.079088,-0.96413326,-5.7381396
alexnet_w1_mlp_simclrhn_probe1,1,380,NaN,cat,cat,0,0380_ske_dnn_0_cat_00_cat-0160-sketch-15.png,cat-0160-sketch-15.png,1.0,1.679674,-0.8007617,1.7539331
alexnet_w1_mlp_simclrhn_probe1,1,381,NaN,cat,cat,0,0381_ske_dnn_0_cat_00_cat-0175-sketch-29.png,cat-0175-sketch-29.png,1.0,0.9463032,-3.287491,2.9937446
alexnet_w1_mlp_simclrhn_probe1,1,382,NaN,clock,cat,0,0382_ske_dnn_0_cat_00_cat-0207-sketch-11.png,cat-0207-sketch-11.png,0.0,-12.403451,1.5498167,-9.86645
alexnet_w1_mlp_simclrhn_probe1,1,383,NaN,clock,cat,0,0383_ske_dnn_0_cat_00_cat-0229-sketch-31.png,cat-0229-sketch-31.png,0.0,-8.135677,0.011333506,-5.7608066
alexnet_w1_mlp_simclrhn_probe1,1,384,NaN,clock,cat,0,0384_ske_dnn_0_cat_00_cat-0233-sketch-35.png,cat-0233-sketch-35.png,0.0,-12.403451,1.5498167,-9.86645
alexnet_w1_mlp_simclrhn_probe1,1,385,NaN,clock,cat,0,0385_ske_dnn_0_cat_00_cat-0241-sketch-42.png,cat-0241-sketch-42.png,0.0,-11.812988,1.6940774,-9.550938
alexnet_w1_mlp_simclrhn_probe1,1,386,NaN,clock,cat,0,0386_ske_dnn_0_cat_00_cat-0245-sketch-46.png,cat-0245-sketch-46.png,0.0,-7.407291,-0.32452178,-5.0082746
alexnet_w1_mlp_simclrhn_probe1,1,387,NaN,clock,cat,0,0387_ske_dnn_0_cat_00_cat-0250-sketch-50.png,cat-0250-sketch-50.png,0.0,-11.790825,0.97126096,-9.024158
alexnet_w1_mlp_simclrhn_probe1,1,388,NaN,clock,cat,0,0388_ske_dnn_0_cat_00_cat-0251-sketch-6.png,cat-0251-sketch-6.png,0.0,-11.812988,1.6940774,-9.550938
alexnet_w1_mlp_simclrhn_probe1,1,389,NaN,cat,cat,0,0389_ske_dnn_0_cat_00_cat-0258-sketch-11.png,cat-0258-sketch-11.png,1.0,5.633419,-0.6636087,4.452671
alexnet_w1_mlp_simclrhn_probe1,1,390,NaN,bicycle,cat,0,0390_ske_dnn_0_cat_00_cat-0260-sketch-13.png,cat-0260-sketch-13.png,0.0,-11.512671,0.43555206,-8.448669
alexnet_w1_mlp_simclrhn_probe1,1,391,NaN,chair,cat,0,0391_ske_dnn_0_cat_00_cat-0264-sketch-17.png,cat-0264-sketch-17.png,0.0,-3.1649325,-1.7688637,-0.98716974
alexnet_w1_mlp_simclrhn_probe1,1,392,NaN,cat,cat,0,0392_ske_dnn_0_cat_00_cat-0265-sketch-18.png,cat-0265-sketch-18.png,1.0,2.881915,-0.62189376,2.4775672
alexnet_w1_mlp_simclrhn_probe1,1,393,NaN,knife,cat,0,0393_ske_dnn_0_cat_00_cat-0269-sketch-21.png,cat-0269-sketch-21.png,0.0,-4.843658,-1.6299403,-2.2724416
alexnet_w1_mlp_simclrhn_probe1,1,394,NaN,cat,cat,0,0394_ske_dnn_0_cat_00_cat-0274-sketch-26.png,cat-0274-sketch-26.png,1.0,-0.38912764,-3.3467972,2.0913882
alexnet_w1_mlp_simclrhn_probe1,1,395,NaN,cat,cat,0,0395_ske_dnn_0_cat_00_cat-0279-sketch-30.png,cat-0279-sketch-30.png,1.0,-1.3099151,-1.5257217,0.15259832
alexnet_w1_mlp_simclrhn_probe1,1,396,NaN,cat,cat,0,0396_ske_dnn_0_cat_00_cat-0289-sketch-4.png,cat-0289-sketch-4.png,1.0,-1.4861698,-2.1776764,0.48896903
alexnet_w1_mlp_simclrhn_probe1,1,397,NaN,cat,cat,0,0397_ske_dnn_0_cat_00_cat-0293-sketch-43.png,cat-0293-sketch-43.png,1.0,4.395844,-1.7156452,4.3214755
alexnet_w1_mlp_simclrhn_probe1,1,398,NaN,cat,cat,0,0398_ske_dnn_0_cat_00_cat-0295-sketch-45.png,cat-0295-sketch-45.png,1.0,7.483408,-1.4731014,6.3332086
alexnet_w1_mlp_simclrhn_probe1,1,399,NaN,cat,cat,0,0399_ske_dnn_0_cat_00_cat-0302-sketch-6.png,cat-0302-sketch-6.png,1.0,1.1885322,-2.2537968,2.4340942
alexnet_w1_mlp_simclrhn_probe1,1,400,NaN,cat,cat,0,0400_ske_dnn_0_cat_00_cat-0304-sketch-8.png,cat-0304-sketch-8.png,1.0,4.43952,-0.87906134,3.760805
alexnet_w1_mlp_simclrhn_probe1,1,401,NaN,clock,chair,0,0401_ske_dnn_0_chair_00_chair-0002-sketch-1.png,chair-0002-sketch-1.png,0.0,-1.6608138,-0.148835,-1.0691305
alexnet_w1_mlp_simclrhn_probe1,1,402,NaN,chair,chair,0,0402_ske_dnn_0_chair_00_chair-0005-sketch-12.png,chair-0005-sketch-12.png,1.0,2.3131304,0.8438684,1.0389252
alexnet_w1_mlp_simclrhn_probe1,1,403,NaN,chair,chair,0,0403_ske_dnn_0_chair_00_chair-0006-sketch-13.png,chair-0006-sketch-13.png,1.0,1.3632588,0.6822591,0.48153955
alexnet_w1_mlp_simclrhn_probe1,1,404,NaN,chair,chair,0,0404_ske_dnn_0_chair_00_chair-0011-sketch-18.png,chair-0011-sketch-18.png,1.0,2.6665578,1.6669992,0.7067947
alexnet_w1_mlp_simclrhn_probe1,1,405,NaN,clock,chair,0,0405_ske_dnn_0_chair_00_chair-0013-sketch-2.png,chair-0013-sketch-2.png,0.0,-1.2096381,0.3852571,-1.1277612
alexnet_w1_mlp_simclrhn_probe1,1,406,NaN,chair,chair,0,0406_ske_dnn_0_chair_00_chair-0014-sketch-20.png,chair-0014-sketch-20.png,1.0,3.609021,-0.59866226,2.9752812
alexnet_w1_mlp_simclrhn_probe1,1,407,NaN,clock,chair,0,0407_ske_dnn_0_chair_00_chair-0017-sketch-23.png,chair-0017-sketch-23.png,0.0,-0.16677862,1.2903179,-1.0303229
alexnet_w1_mlp_simclrhn_probe1,1,408,NaN,chair,chair,0,0408_ske_dnn_0_chair_00_chair-0029-sketch-34.png,chair-0029-sketch-34.png,1.0,0.24687847,-0.43531758,0.48238543
alexnet_w1_mlp_simclrhn_probe1,1,409,NaN,clock,chair,0,0409_ske_dnn_0_chair_00_chair-0034-sketch-39.png,chair-0034-sketch-39.png,0.0,-1.3173716,0.67813975,-1.4110396
alexnet_w1_mlp_simclrhn_probe1,1,410,NaN,chair,chair,0,0410_ske_dnn_0_chair_00_chair-0040-sketch-44.png,chair-0040-sketch-44.png,1.0,4.9406805,1.0167392,2.7746453
alexnet_w1_mlp_simclrhn_probe1,1,411,NaN,chair,chair,0,0411_ske_dnn_0_chair_00_chair-0051-sketch-9.png,chair-0051-sketch-9.png,1.0,3.6771512,-0.71247905,3.1039374
alexnet_w1_mlp_simclrhn_probe1,1,412,NaN,oven,chair,0,0412_ske_dnn_0_chair_00_chair-0052-sketch-0.png,chair-0052-sketch-0.png,0.0,0.73263043,1.1704803,-0.30960658
alexnet_w1_mlp_simclrhn_probe1,1,413,NaN,clock,chair,0,0413_ske_dnn_0_chair_00_chair-0055-sketch-11.png,chair-0055-sketch-11.png,0.0,0.0789032,1.7629598,-1.1908079
alexnet_w1_mlp_simclrhn_probe1,1,414,NaN,bicycle,chair,0,0414_ske_dnn_0_chair_00_chair-0060-sketch-16.png,chair-0060-sketch-16.png,0.0,0.13440585,3.9130778,-2.6719246
alexnet_w1_mlp_simclrhn_probe1,1,415,NaN,chair,chair,0,0415_ske_dnn_0_chair_00_chair-0062-sketch-18.png,chair-0062-sketch-18.png,1.0,3.3236172,-0.75722563,2.8855917
alexnet_w1_mlp_simclrhn_probe1,1,416,NaN,chair,chair,0,0416_ske_dnn_0_chair_00_chair-0063-sketch-19.png,chair-0063-sketch-19.png,1.0,2.7728114,0.9084897,1.3182745
alexnet_w1_mlp_simclrhn_probe1,1,417,NaN,bicycle,chair,0,0417_ske_dnn_0_chair_00_chair-0064-sketch-2.png,chair-0064-sketch-2.png,0.0,0.1946696,0.36233968,-0.11856065
alexnet_w1_mlp_simclrhn_probe1,1,418,NaN,bicycle,chair,0,0418_ske_dnn_0_chair_00_chair-0066-sketch-21.png,chair-0066-sketch-21.png,0.0,-0.1296165,0.91654855,-0.7397504
alexnet_w1_mlp_simclrhn_probe1,1,419,NaN,chair,chair,0,0419_ske_dnn_0_chair_00_chair-0067-sketch-22.png,chair-0067-sketch-22.png,1.0,1.7178402,-1.4087969,2.2108662
alexnet_w1_mlp_simclrhn_probe1,1,420,NaN,chair,chair,0,0420_ske_dnn_0_chair_00_chair-0071-sketch-26.png,chair-0071-sketch-26.png,1.0,2.44659,-0.4439561,2.0439248
alexnet_w1_mlp_simclrhn_probe1,1,421,NaN,chair,chair,0,0421_ske_dnn_0_chair_00_chair-0072-sketch-27.png,chair-0072-sketch-27.png,1.0,3.1015196,-1.1503222,3.006506
alexnet_w1_mlp_simclrhn_probe1,1,422,NaN,chair,chair,0,0422_ske_dnn_0_chair_00_chair-0076-sketch-30.png,chair-0076-sketch-30.png,1.0,4.9469056,-1.4382924,4.515017
alexnet_w1_mlp_simclrhn_probe1,1,423,NaN,chair,chair,0,0423_ske_dnn_0_chair_00_chair-0079-sketch-33.png,chair-0079-sketch-33.png,1.0,5.0746613,1.7982992,2.316738
alexnet_w1_mlp_simclrhn_probe1,1,424,NaN,clock,chair,0,0424_ske_dnn_0_chair_00_chair-0083-sketch-37.png,chair-0083-sketch-37.png,0.0,-0.9004922,2.9623108,-2.7314143
alexnet_w1_mlp_simclrhn_probe1,1,425,NaN,chair,chair,0,0425_ske_dnn_0_chair_00_chair-0088-sketch-41.png,chair-0088-sketch-41.png,1.0,0.67409396,0.111481726,0.39782694
alexnet_w1_mlp_simclrhn_probe1,1,426,NaN,chair,chair,0,0426_ske_dnn_0_chair_00_chair-0094-sketch-47.png,chair-0094-sketch-47.png,1.0,3.113952,-0.6032461,2.6284559
alexnet_w1_mlp_simclrhn_probe1,1,427,NaN,knife,chair,0,0427_ske_dnn_0_chair_00_chair-0105-sketch-11.png,chair-0105-sketch-11.png,0.0,-1.2403193,-0.24946216,-0.7006418
alexnet_w1_mlp_simclrhn_probe1,1,428,NaN,chair,chair,0,0428_ske_dnn_0_chair_00_chair-0118-sketch-23.png,chair-0118-sketch-23.png,1.0,4.724538,2.324607,1.6970075
alexnet_w1_mlp_simclrhn_probe1,1,429,NaN,chair,chair,0,0429_ske_dnn_0_chair_00_chair-0122-sketch-27.png,chair-0122-sketch-27.png,1.0,4.7160764,-1.8108841,4.615258
alexnet_w1_mlp_simclrhn_probe1,1,430,NaN,chair,chair,0,0430_ske_dnn_0_chair_00_chair-0124-sketch-29.png,chair-0124-sketch-29.png,1.0,1.9560351,0.25190878,1.2049993
alexnet_w1_mlp_simclrhn_probe1,1,431,NaN,chair,chair,0,0431_ske_dnn_0_chair_00_chair-0125-sketch-3.png,chair-0125-sketch-3.png,1.0,1.8423154,0.13667558,1.2060695
alexnet_w1_mlp_simclrhn_probe1,1,432,NaN,chair,chair,0,0432_ske_dnn_0_chair_00_chair-0127-sketch-31.png,chair-0127-sketch-31.png,1.0,1.9679482,-0.6774693,1.8705926
alexnet_w1_mlp_simclrhn_probe1,1,433,NaN,bicycle,chair,0,0433_ske_dnn_0_chair_00_chair-0129-sketch-33.png,chair-0129-sketch-33.png,0.0,1.3711696,4.3026824,-2.0728927
alexnet_w1_mlp_simclrhn_probe1,1,434,NaN,chair,chair,0,0434_ske_dnn_0_chair_00_chair-0130-sketch-34.png,chair-0130-sketch-34.png,1.0,2.744171,1.5127907,0.87071735
alexnet_w1_mlp_simclrhn_probe1,1,435,NaN,chair,chair,0,0435_ske_dnn_0_chair_00_chair-0131-sketch-35.png,chair-0131-sketch-35.png,1.0,2.2003808,1.3277447,0.6170469
alexnet_w1_mlp_simclrhn_probe1,1,436,NaN,chair,chair,0,0436_ske_dnn_0_chair_00_chair-0135-sketch-39.png,chair-0135-sketch-39.png,1.0,2.1431012,-0.47533926,1.851517
alexnet_w1_mlp_simclrhn_probe1,1,437,NaN,chair,chair,0,0437_ske_dnn_0_chair_00_chair-0144-sketch-47.png,chair-0144-sketch-47.png,1.0,0.27882588,-1.9261321,1.5591408
alexnet_w1_mlp_simclrhn_probe1,1,438,NaN,chair,chair,0,0438_ske_dnn_0_chair_00_chair-0145-sketch-48.png,chair-0145-sketch-48.png,1.0,2.534101,0.8515498,1.1897434
alexnet_w1_mlp_simclrhn_probe1,1,439,NaN,bicycle,chair,0,0439_ske_dnn_0_chair_00_chair-0153-sketch-0.png,chair-0153-sketch-0.png,0.0,-2.5398867,3.859843,-4.5252924
alexnet_w1_mlp_simclrhn_probe1,1,440,NaN,chair,chair,0,0440_ske_dnn_0_chair_00_chair-0155-sketch-10.png,chair-0155-sketch-10.png,1.0,3.3084955,-1.2006978,3.1884813
alexnet_w1_mlp_simclrhn_probe1,1,441,NaN,chair,chair,0,0441_ske_dnn_0_chair_00_chair-0163-sketch-18.png,chair-0163-sketch-18.png,1.0,0.46043527,-4.641357,3.607512
alexnet_w1_mlp_simclrhn_probe1,1,442,NaN,chair,chair,0,0442_ske_dnn_0_chair_00_chair-0166-sketch-20.png,chair-0166-sketch-20.png,1.0,1.1114849,-1.7529979,2.0254953
alexnet_w1_mlp_simclrhn_probe1,1,443,NaN,chair,chair,0,0443_ske_dnn_0_chair_00_chair-0167-sketch-21.png,chair-0167-sketch-21.png,1.0,0.36911005,-1.2892118,1.1726106
alexnet_w1_mlp_simclrhn_probe1,1,444,NaN,chair,chair,0,0444_ske_dnn_0_chair_00_chair-0168-sketch-22.png,chair-0168-sketch-22.png,1.0,1.0395353,-0.31092453,0.95491934
alexnet_w1_mlp_simclrhn_probe1,1,445,NaN,chair,chair,0,0445_ske_dnn_0_chair_00_chair-0175-sketch-29.png,chair-0175-sketch-29.png,1.0,1.9742161,-0.31427726,1.6182092
alexnet_w1_mlp_simclrhn_probe1,1,446,NaN,clock,chair,0,0446_ske_dnn_0_chair_00_chair-0176-sketch-3.png,chair-0176-sketch-3.png,0.0,-3.8845444,2.5083408,-4.5204525
alexnet_w1_mlp_simclrhn_probe1,1,447,NaN,chair,chair,0,0447_ske_dnn_0_chair_00_chair-0178-sketch-31.png,chair-0178-sketch-31.png,1.0,1.8095672,0.18648781,1.1476905
alexnet_w1_mlp_simclrhn_probe1,1,448,NaN,chair,chair,0,0448_ske_dnn_0_chair_00_chair-0180-sketch-33.png,chair-0180-sketch-33.png,1.0,-2.6392689,-3.837243,0.8470957
alexnet_w1_mlp_simclrhn_probe1,1,449,NaN,chair,chair,0,0449_ske_dnn_0_chair_00_chair-0197-sketch-49.png,chair-0197-sketch-49.png,1.0,1.0233715,-0.13483985,0.8189791
alexnet_w1_mlp_simclrhn_probe1,1,450,NaN,chair,chair,0,0450_ske_dnn_0_chair_00_chair-0200-sketch-6.png,chair-0200-sketch-6.png,1.0,-3.6243746,-4.437149,0.5747183
alexnet_w1_mlp_simclrhn_probe1,1,451,NaN,clock,clock,0,0451_ske_dnn_0_clock_00_clock-0005-sketch-12.png,clock-0005-sketch-12.png,1.0,13.707805,-2.2658353,11.29507
alexnet_w1_mlp_simclrhn_probe1,1,452,NaN,clock,clock,0,0452_ske_dnn_0_clock_00_clock-0007-sketch-14.png,clock-0007-sketch-14.png,1.0,8.911916,-1.0997533,7.0793195
alexnet_w1_mlp_simclrhn_probe1,1,453,NaN,clock,clock,0,0453_ske_dnn_0_clock_00_clock-0015-sketch-21.png,clock-0015-sketch-21.png,1.0,3.2208042,-3.5663147,4.7992177
alexnet_w1_mlp_simclrhn_probe1,1,454,NaN,clock,clock,0,0454_ske_dnn_0_clock_00_clock-0017-sketch-23.png,clock-0017-sketch-23.png,1.0,3.0876648,-0.3891172,2.4584563
alexnet_w1_mlp_simclrhn_probe1,1,455,NaN,clock,clock,0,0455_ske_dnn_0_clock_00_clock-0018-sketch-24.png,clock-0018-sketch-24.png,1.0,10.954577,-1.2556528,8.633937
alexnet_w1_mlp_simclrhn_probe1,1,456,NaN,clock,clock,0,0456_ske_dnn_0_clock_00_clock-0021-sketch-27.png,clock-0021-sketch-27.png,1.0,3.1412761,1.8936889,0.8821774
alexnet_w1_mlp_simclrhn_probe1,1,457,NaN,clock,clock,0,0457_ske_dnn_0_clock_00_clock-0022-sketch-28.png,clock-0022-sketch-28.png,1.0,5.424011,-0.80650604,4.405641
alexnet_w1_mlp_simclrhn_probe1,1,458,NaN,clock,clock,0,0458_ske_dnn_0_clock_00_clock-0027-sketch-32.png,clock-0027-sketch-32.png,1.0,5.2820854,-0.37947133,4.003325
alexnet_w1_mlp_simclrhn_probe1,1,459,NaN,clock,clock,0,0459_ske_dnn_0_clock_00_clock-0028-sketch-33.png,clock-0028-sketch-33.png,1.0,11.321804,-3.3044276,10.342308
alexnet_w1_mlp_simclrhn_probe1,1,460,NaN,clock,clock,0,0460_ske_dnn_0_clock_00_clock-0030-sketch-35.png,clock-0030-sketch-35.png,1.0,14.538952,1.7185249,9.065411
alexnet_w1_mlp_simclrhn_probe1,1,461,NaN,clock,clock,0,0461_ske_dnn_0_clock_00_clock-0033-sketch-38.png,clock-0033-sketch-38.png,1.0,14.388179,2.0366201,8.733871
alexnet_w1_mlp_simclrhn_probe1,1,462,NaN,clock,clock,0,0462_ske_dnn_0_clock_00_clock-0035-sketch-4.png,clock-0035-sketch-4.png,1.0,10.705818,-0.9574481,8.247175
alexnet_w1_mlp_simclrhn_probe1,1,463,NaN,clock,clock,0,0463_ske_dnn_0_clock_00_clock-0044-sketch-48.png,clock-0044-sketch-48.png,1.0,5.5799046,-1.4407332,4.9643407
alexnet_w1_mlp_simclrhn_probe1,1,464,NaN,clock,clock,0,0464_ske_dnn_0_clock_00_clock-0046-sketch-5.png,clock-0046-sketch-5.png,1.0,7.6732697,-1.4946499,6.482698
alexnet_w1_mlp_simclrhn_probe1,1,465,NaN,clock,clock,0,0465_ske_dnn_0_clock_00_clock-0049-sketch-7.png,clock-0049-sketch-7.png,1.0,8.460823,0.22352922,5.8246465
alexnet_w1_mlp_simclrhn_probe1,1,466,NaN,clock,clock,0,0466_ske_dnn_0_clock_00_clock-0057-sketch-13.png,clock-0057-sketch-13.png,1.0,1.1933066,-0.2892493,1.0483253
alexnet_w1_mlp_simclrhn_probe1,1,467,NaN,clock,clock,0,0467_ske_dnn_0_clock_00_clock-0059-sketch-15.png,clock-0059-sketch-15.png,1.0,4.9868126,-0.55556345,3.9190516
alexnet_w1_mlp_simclrhn_probe1,1,468,NaN,clock,clock,0,0468_ske_dnn_0_clock_00_clock-0060-sketch-16.png,clock-0060-sketch-16.png,1.0,2.8086355,-0.55492693,2.3783977
alexnet_w1_mlp_simclrhn_probe1,1,469,NaN,clock,clock,0,0469_ske_dnn_0_clock_00_clock-0067-sketch-22.png,clock-0067-sketch-22.png,1.0,6.907349,2.6661756,2.9989629
alexnet_w1_mlp_simclrhn_probe1,1,470,NaN,oven,clock,0,0470_ske_dnn_0_clock_00_clock-0069-sketch-24.png,clock-0069-sketch-24.png,0.0,1.6140817,2.2328575,-0.43754053
alexnet_w1_mlp_simclrhn_probe1,1,471,NaN,clock,clock,0,0471_ske_dnn_0_clock_00_clock-0070-sketch-25.png,clock-0070-sketch-25.png,1.0,4.943029,4.138768,0.5686982
alexnet_w1_mlp_simclrhn_probe1,1,472,NaN,clock,clock,0,0472_ske_dnn_0_clock_00_clock-0071-sketch-26.png,clock-0071-sketch-26.png,1.0,11.203148,1.2609961,7.0301633
alexnet_w1_mlp_simclrhn_probe1,1,473,NaN,chair,clock,0,0473_ske_dnn_0_clock_00_clock-0073-sketch-28.png,clock-0073-sketch-28.png,0.0,-2.2574527,0.41079396,-1.8867354
alexnet_w1_mlp_simclrhn_probe1,1,474,NaN,clock,clock,0,0474_ske_dnn_0_clock_00_clock-0074-sketch-29.png,clock-0074-sketch-29.png,1.0,-0.6216814,-1.1831986,0.39705262
alexnet_w1_mlp_simclrhn_probe1,1,475,NaN,clock,clock,0,0475_ske_dnn_0_clock_00_clock-0076-sketch-30.png,clock-0076-sketch-30.png,1.0,7.3384247,1.0454769,4.449786
alexnet_w1_mlp_simclrhn_probe1,1,476,NaN,clock,clock,0,0476_ske_dnn_0_clock_00_clock-0077-sketch-31.png,clock-0077-sketch-31.png,1.0,6.2983575,2.1789587,2.9128551
alexnet_w1_mlp_simclrhn_probe1,1,477,NaN,clock,clock,0,0477_ske_dnn_0_clock_00_clock-0078-sketch-32.png,clock-0078-sketch-32.png,1.0,5.1526265,1.7266006,2.4225662
alexnet_w1_mlp_simclrhn_probe1,1,478,NaN,clock,clock,0,0478_ske_dnn_0_clock_00_clock-0081-sketch-35.png,clock-0081-sketch-35.png,1.0,6.7648835,1.1101338,3.998512
alexnet_w1_mlp_simclrhn_probe1,1,479,NaN,clock,clock,0,0479_ske_dnn_0_clock_00_clock-0085-sketch-39.png,clock-0085-sketch-39.png,1.0,8.646106,3.717025,3.4853866
alexnet_w1_mlp_simclrhn_probe1,1,480,NaN,clock,clock,0,0480_ske_dnn_0_clock_00_clock-0087-sketch-40.png,clock-0087-sketch-40.png,1.0,2.29485,1.047123,0.88227636
alexnet_w1_mlp_simclrhn_probe1,1,481,NaN,clock,clock,0,0481_ske_dnn_0_clock_00_clock-0092-sketch-45.png,clock-0092-sketch-45.png,1.0,3.2254877,2.9715817,0.17953867
alexnet_w1_mlp_simclrhn_probe1,1,482,NaN,clock,clock,0,0482_ske_dnn_0_clock_00_clock-0093-sketch-46.png,clock-0093-sketch-46.png,1.0,5.107878,-0.785646,4.167351
alexnet_w1_mlp_simclrhn_probe1,1,483,NaN,clock,clock,0,0483_ske_dnn_0_clock_00_clock-0095-sketch-48.png,clock-0095-sketch-48.png,1.0,8.694049,3.784659,3.471463
alexnet_w1_mlp_simclrhn_probe1,1,484,NaN,keyboard,clock,0,0484_ske_dnn_0_clock_00_clock-0099-sketch-6.png,clock-0099-sketch-6.png,0.0,1.0012468,1.8825665,-0.6231871
alexnet_w1_mlp_simclrhn_probe1,1,485,NaN,clock,clock,0,0485_ske_dnn_0_clock_00_clock-0110-sketch-15.png,clock-0110-sketch-15.png,1.0,7.441298,0.14340636,5.160389
alexnet_w1_mlp_simclrhn_probe1,1,486,NaN,clock,clock,0,0486_ske_dnn_0_clock_00_clock-0112-sketch-17.png,clock-0112-sketch-17.png,1.0,17.553392,-3.4708266,14.866368
alexnet_w1_mlp_simclrhn_probe1,1,487,NaN,clock,clock,0,0487_ske_dnn_0_clock_00_clock-0115-sketch-2.png,clock-0115-sketch-2.png,1.0,8.264553,-1.3085442,6.769202
alexnet_w1_mlp_simclrhn_probe1,1,488,NaN,clock,clock,0,0488_ske_dnn_0_clock_00_clock-0118-sketch-22.png,clock-0118-sketch-22.png,1.0,15.591861,-2.5480957,12.826887
alexnet_w1_mlp_simclrhn_probe1,1,489,NaN,clock,clock,0,0489_ske_dnn_0_clock_00_clock-0123-sketch-27.png,clock-0123-sketch-27.png,1.0,16.417025,-2.6051009,13.450674
alexnet_w1_mlp_simclrhn_probe1,1,490,NaN,clock,clock,0,0490_ske_dnn_0_clock_00_clock-0127-sketch-30.png,clock-0127-sketch-30.png,1.0,12.801354,-1.316668,9.98295
alexnet_w1_mlp_simclrhn_probe1,1,491,NaN,clock,clock,0,0491_ske_dnn_0_clock_00_clock-0131-sketch-34.png,clock-0131-sketch-34.png,1.0,11.24647,2.5889626,6.121783
alexnet_w1_mlp_simclrhn_probe1,1,492,NaN,clock,clock,0,0492_ske_dnn_0_clock_00_clock-0132-sketch-35.png,clock-0132-sketch-35.png,1.0,5.846464,-0.9730531,4.822127
alexnet_w1_mlp_simclrhn_probe1,1,493,NaN,clock,clock,0,0493_ske_dnn_0_clock_00_clock-0133-sketch-36.png,clock-0133-sketch-36.png,1.0,4.8952847,-0.79956436,4.0268664
alexnet_w1_mlp_simclrhn_probe1,1,494,NaN,clock,clock,0,0494_ske_dnn_0_clock_00_clock-0136-sketch-39.png,clock-0136-sketch-39.png,1.0,6.6963706,1.1546102,3.9186165
alexnet_w1_mlp_simclrhn_probe1,1,495,NaN,clock,clock,0,0495_ske_dnn_0_clock_00_clock-0137-sketch-4.png,clock-0137-sketch-4.png,1.0,7.846064,-0.2055424,5.6933455
alexnet_w1_mlp_simclrhn_probe1,1,496,NaN,clock,clock,0,0496_ske_dnn_0_clock_00_clock-0138-sketch-40.png,clock-0138-sketch-40.png,1.0,8.544679,-1.0364852,6.7749057
alexnet_w1_mlp_simclrhn_probe1,1,497,NaN,clock,clock,0,0497_ske_dnn_0_clock_00_clock-0141-sketch-43.png,clock-0141-sketch-43.png,1.0,6.91268,-1.2041149,5.7394404
alexnet_w1_mlp_simclrhn_probe1,1,498,NaN,clock,clock,0,0498_ske_dnn_0_clock_00_clock-0143-sketch-45.png,clock-0143-sketch-45.png,1.0,7.3664093,-2.2623088,6.808532
alexnet_w1_mlp_simclrhn_probe1,1,499,NaN,clock,clock,0,0499_ske_dnn_0_clock_00_clock-0144-sketch-46.png,clock-0144-sketch-46.png,1.0,8.21643,0.0038791895,5.80715
alexnet_w1_mlp_simclrhn_probe1,1,500,NaN,clock,clock,0,0500_ske_dnn_0_clock_00_clock-0150-sketch-6.png,clock-0150-sketch-6.png,1.0,15.229938,1.8799328,9.439879
alexnet_w1_mlp_simclrhn_probe1,1,501,NaN,dog,dog,0,0501_ske_dnn_0_dog_00_dog-0011-sketch-18.png,dog-0011-sketch-18.png,1.0,-0.5202645,-2.5217662,1.4152753
alexnet_w1_mlp_simclrhn_probe1,1,502,NaN,clock,dog,0,0502_ske_dnn_0_dog_00_dog-0111-sketch-17.png,dog-0111-sketch-17.png,0.0,-6.665157,-3.1058655,-2.5167992
alexnet_w1_mlp_simclrhn_probe1,1,503,NaN,clock,dog,0,0503_ske_dnn_0_dog_00_dog-0215-sketch-19.png,dog-0215-sketch-19.png,0.0,-9.048236,0.6141302,-6.8323245
alexnet_w1_mlp_simclrhn_probe1,1,504,NaN,cat,dog,0,0504_ske_dnn_0_dog_00_dog-0243-sketch-44.png,dog-0243-sketch-44.png,0.0,-3.972072,-2.245698,-1.2207307
alexnet_w1_mlp_simclrhn_probe1,1,505,NaN,cat,dog,0,0505_ske_dnn_0_dog_00_dog-0476-sketch-26.png,dog-0476-sketch-26.png,0.0,-3.4967206,-2.8652067,-0.44654772
alexnet_w1_mlp_simclrhn_probe1,1,506,NaN,cat,dog,0,0506_ske_dnn_0_dog_00_dog-0607-sketch-8.png,dog-0607-sketch-8.png,0.0,-2.3008604,-1.0842098,-0.8603019
alexnet_w1_mlp_simclrhn_probe1,1,507,NaN,dog,dog,0,0507_ske_dnn_0_dog_00_dog-0630-sketch-28.png,dog-0630-sketch-28.png,1.0,0.48758635,-0.8986328,0.980205
alexnet_w1_mlp_simclrhn_probe1,1,508,NaN,dog,dog,0,0508_ske_dnn_0_dog_00_dog-1035-sketch-27.png,dog-1035-sketch-27.png,1.0,-1.8577487,-2.4766474,0.43762743
alexnet_w1_mlp_simclrhn_probe1,1,509,NaN,dog,dog,0,0509_ske_dnn_0_dog_00_dog-1292-sketch-3.png,dog-1292-sketch-3.png,1.0,-1.4248134,-1.854298,0.30369148
alexnet_w1_mlp_simclrhn_probe1,1,510,NaN,cat,dog,0,0510_ske_dnn_0_dog_00_dog-1393-sketch-3.png,dog-1393-sketch-3.png,0.0,-3.4297225,-2.470608,-0.67819643
alexnet_w1_mlp_simclrhn_probe1,1,511,NaN,cat,dog,0,0511_ske_dnn_0_dog_00_dog-1460-sketch-44.png,dog-1460-sketch-44.png,0.0,-7.734877,-1.763126,-4.222666
alexnet_w1_mlp_simclrhn_probe1,1,512,NaN,clock,dog,0,0512_ske_dnn_0_dog_00_dog-1617-sketch-48.png,dog-1617-sketch-48.png,0.0,-6.488529,-0.3852885,-4.315643
alexnet_w1_mlp_simclrhn_probe1,1,513,NaN,dog,dog,0,0513_ske_dnn_0_dog_00_dog-1657-sketch-38.png,dog-1657-sketch-38.png,1.0,2.1005173,-1.3204346,2.4189782
alexnet_w1_mlp_simclrhn_probe1,1,514,NaN,knife,dog,0,0514_ske_dnn_0_dog_00_dog-1711-sketch-40.png,dog-1711-sketch-40.png,0.0,-5.943156,-3.1083784,-2.0044904
alexnet_w1_mlp_simclrhn_probe1,1,515,NaN,dog,dog,0,0515_ske_dnn_0_dog_00_dog-1759-sketch-38.png,dog-1759-sketch-38.png,1.0,1.6502393,1.1544671,0.3505639
alexnet_w1_mlp_simclrhn_probe1,1,516,NaN,clock,dog,0,0516_ske_dnn_0_dog_00_dog-1797-sketch-26.png,dog-1797-sketch-26.png,0.0,-13.404117,-2.7955282,-7.501405
alexnet_w1_mlp_simclrhn_probe1,1,517,NaN,clock,dog,0,0517_ske_dnn_0_dog_00_dog-1973-sketch-47.png,dog-1973-sketch-47.png,0.0,-3.6754377,-2.8473213,-0.58556676
alexnet_w1_mlp_simclrhn_probe1,1,518,NaN,clock,dog,0,0518_ske_dnn_0_dog_00_dog-2150-sketch-22.png,dog-2150-sketch-22.png,0.0,-8.842856,-1.166899,-5.427722
alexnet_w1_mlp_simclrhn_probe1,1,519,NaN,bicycle,dog,0,0519_ske_dnn_0_dog_00_dog-2198-sketch-20.png,dog-2198-sketch-20.png,0.0,-8.421723,-0.7472204,-5.426693
alexnet_w1_mlp_simclrhn_probe1,1,520,NaN,dog,dog,0,0520_ske_dnn_0_dog_00_dog-2291-sketch-12.png,dog-2291-sketch-12.png,1.0,-1.3891258,-2.0457036,0.46427065
alexnet_w1_mlp_simclrhn_probe1,1,521,NaN,bird,dog,0,0521_ske_dnn_0_dog_00_dog-2323-sketch-41.png,dog-2323-sketch-41.png,0.0,-3.0842705,-0.6986727,-1.6868724
alexnet_w1_mlp_simclrhn_probe1,1,522,NaN,dog,dog,0,0522_ske_dnn_0_dog_00_dog-2454-sketch-21.png,dog-2454-sketch-21.png,1.0,-0.08487265,-0.40814528,0.22858828
alexnet_w1_mlp_simclrhn_probe1,1,523,NaN,dog,dog,0,0523_ske_dnn_0_dog_00_dog-2506-sketch-23.png,dog-2506-sketch-23.png,1.0,3.5356355,0.6389532,2.0482638
alexnet_w1_mlp_simclrhn_probe1,1,524,NaN,dog,dog,0,0524_ske_dnn_0_dog_00_dog-2541-sketch-0.png,dog-2541-sketch-0.png,1.0,-0.403822,-1.35522,0.67274
alexnet_w1_mlp_simclrhn_probe1,1,525,NaN,dog,dog,0,0525_ske_dnn_0_dog_00_dog-2615-sketch-3.png,dog-2615-sketch-3.png,1.0,1.6872833,-0.6459437,1.6498406
alexnet_w1_mlp_simclrhn_probe1,1,526,NaN,dog,dog,0,0526_ske_dnn_0_dog_00_dog-2948-sketch-10.png,dog-2948-sketch-10.png,1.0,-3.1741514,-4.290272,0.78921664
alexnet_w1_mlp_simclrhn_probe1,1,527,NaN,dog,dog,0,0527_ske_dnn_0_dog_00_dog-3000-sketch-11.png,dog-3000-sketch-11.png,1.0,1.7953057,0.29949588,1.0576973
alexnet_w1_mlp_simclrhn_probe1,1,528,NaN,clock,dog,0,0528_ske_dnn_0_dog_00_dog-3153-sketch-11.png,dog-3153-sketch-11.png,0.0,-1.7537735,0.029200902,-1.2607533
alexnet_w1_mlp_simclrhn_probe1,1,529,NaN,cat,dog,0,0529_ske_dnn_0_dog_00_dog-3251-sketch-9.png,dog-3251-sketch-9.png,0.0,-2.1078622,-0.39961135,-1.2079158
alexnet_w1_mlp_simclrhn_probe1,1,530,NaN,cat,dog,0,0530_ske_dnn_0_dog_00_dog-3303-sketch-0.png,dog-3303-sketch-0.png,0.0,-2.0256312,-1.6359072,-0.2755765
alexnet_w1_mlp_simclrhn_probe1,1,531,NaN,dog,dog,0,0531_ske_dnn_0_dog_00_dog-3338-sketch-40.png,dog-3338-sketch-40.png,1.0,2.26672,0.15861054,1.4906585
alexnet_w1_mlp_simclrhn_probe1,1,532,NaN,cat,dog,0,0532_ske_dnn_0_dog_00_dog-3417-sketch-2.png,dog-3417-sketch-2.png,0.0,-3.1020093,-2.5489023,-0.39110574
alexnet_w1_mlp_simclrhn_probe1,1,533,NaN,bird,dog,0,0533_ske_dnn_0_dog_00_dog-3503-sketch-6.png,dog-3503-sketch-6.png,0.0,-2.224125,-2.1605604,-0.044946916
alexnet_w1_mlp_simclrhn_probe1,1,534,NaN,cat,dog,0,0534_ske_dnn_0_dog_00_dog-3573-sketch-22.png,dog-3573-sketch-22.png,0.0,-0.13797887,0.23521583,-0.2638885
alexnet_w1_mlp_simclrhn_probe1,1,535,NaN,cat,dog,0,0535_ske_dnn_0_dog_00_dog-3646-sketch-42.png,dog-3646-sketch-42.png,0.0,0.120424256,2.4710052,-1.6621118
alexnet_w1_mlp_simclrhn_probe1,1,536,NaN,cat,dog,0,0536_ske_dnn_0_dog_00_dog-3695-sketch-40.png,dog-3695-sketch-40.png,0.0,-4.7457714,-1.1148145,-2.5674744
alexnet_w1_mlp_simclrhn_probe1,1,537,NaN,chair,dog,0,0537_ske_dnn_0_dog_00_dog-3915-sketch-0.png,dog-3915-sketch-0.png,0.0,-4.5091925,-2.329894,-1.5409967
alexnet_w1_mlp_simclrhn_probe1,1,538,NaN,cat,dog,0,0538_ske_dnn_0_dog_00_dog-4202-sketch-4.png,dog-4202-sketch-4.png,0.0,0.6969488,3.0753376,-1.681775
alexnet_w1_mlp_simclrhn_probe1,1,539,NaN,cat,dog,0,0539_ske_dnn_0_dog_00_dog-4208-sketch-45.png,dog-4208-sketch-45.png,0.0,-1.9835705,-0.7781923,-0.8523311
alexnet_w1_mlp_simclrhn_probe1,1,540,NaN,dog,dog,0,0540_ske_dnn_0_dog_00_dog-4325-sketch-13.png,dog-4325-sketch-13.png,1.0,-2.3109343,-6.0521526,2.6454408
alexnet_w1_mlp_simclrhn_probe1,1,541,NaN,cat,dog,0,0541_ske_dnn_0_dog_00_dog-4475-sketch-11.png,dog-4475-sketch-11.png,0.0,-0.6020572,-0.55104417,-0.036071677
alexnet_w1_mlp_simclrhn_probe1,1,542,NaN,clock,dog,0,0542_ske_dnn_0_dog_00_dog-4499-sketch-33.png,dog-4499-sketch-33.png,0.0,-6.3915205,-1.0135349,-3.80281
alexnet_w1_mlp_simclrhn_probe1,1,543,NaN,cat,dog,0,0543_ske_dnn_0_dog_00_dog-4581-sketch-16.png,dog-4581-sketch-16.png,0.0,-4.419073,-1.8074903,-1.8466679
alexnet_w1_mlp_simclrhn_probe1,1,544,NaN,clock,dog,0,0544_ske_dnn_0_dog_00_dog-4709-sketch-4.png,dog-4709-sketch-4.png,0.0,-10.288176,0.712702,-7.7787952
alexnet_w1_mlp_simclrhn_probe1,1,545,NaN,bird,dog,0,0545_ske_dnn_0_dog_00_dog-4909-sketch-37.png,dog-4909-sketch-37.png,0.0,-5.81692,-2.8696644,-2.0840242
alexnet_w1_mlp_simclrhn_probe1,1,546,NaN,cat,dog,0,0546_ske_dnn_0_dog_00_dog-5028-sketch-8.png,dog-5028-sketch-8.png,0.0,-0.99348265,-0.098528124,-0.6328284
alexnet_w1_mlp_simclrhn_probe1,1,547,NaN,dog,dog,0,0547_ske_dnn_0_dog_00_dog-5084-sketch-11.png,dog-5084-sketch-11.png,1.0,-1.5425706,-1.5529408,0.0073328773
alexnet_w1_mlp_simclrhn_probe1,1,548,NaN,clock,dog,0,0548_ske_dnn_0_dog_00_dog-5223-sketch-45.png,dog-5223-sketch-45.png,0.0,-3.284258,-0.985387,-1.6255472
alexnet_w1_mlp_simclrhn_probe1,1,549,NaN,dog,dog,0,0549_ske_dnn_0_dog_00_dog-5325-sketch-45.png,dog-5325-sketch-45.png,1.0,4.237858,2.762942,1.042923
alexnet_w1_mlp_simclrhn_probe1,1,550,NaN,dog,dog,0,0550_ske_dnn_0_dog_00_dog-5354-sketch-25.png,dog-5354-sketch-25.png,1.0,-0.62993264,-1.7428265,0.7869348
alexnet_w1_mlp_simclrhn_probe1,1,551,NaN,elephant,elephant,0,0551_ske_dnn_0_elephant_00_elephant-0001-sketch-0.png,elephant-0001-sketch-0.png,1.0,-2.9415233,-4.842536,1.344219
alexnet_w1_mlp_simclrhn_probe1,1,552,NaN,cat,elephant,0,0552_ske_dnn_0_elephant_00_elephant-0002-sketch-1.png,elephant-0002-sketch-1.png,0.0,0.15036787,0.41374025,-0.18623239
alexnet_w1_mlp_simclrhn_probe1,1,553,NaN,clock,elephant,0,0553_ske_dnn_0_elephant_00_elephant-0006-sketch-13.png,elephant-0006-sketch-13.png,0.0,-5.590297,-2.8540392,-1.9348266
alexnet_w1_mlp_simclrhn_probe1,1,554,NaN,clock,elephant,0,0554_ske_dnn_0_elephant_00_elephant-0011-sketch-18.png,elephant-0011-sketch-18.png,0.0,-10.407841,-0.26289454,-7.17356
alexnet_w1_mlp_simclrhn_probe1,1,555,NaN,clock,elephant,0,0555_ske_dnn_0_elephant_00_elephant-0012-sketch-19.png,elephant-0012-sketch-19.png,0.0,-10.357174,-0.43427452,-7.0165496
alexnet_w1_mlp_simclrhn_probe1,1,556,NaN,knife,elephant,0,0556_ske_dnn_0_elephant_00_elephant-0013-sketch-2.png,elephant-0013-sketch-2.png,0.0,-3.5393767,-2.252318,-0.91008806
alexnet_w1_mlp_simclrhn_probe1,1,557,NaN,bottle,elephant,0,0557_ske_dnn_0_elephant_00_elephant-0014-sketch-20.png,elephant-0014-sketch-20.png,0.0,-9.5060425,-4.5227556,-3.523716
alexnet_w1_mlp_simclrhn_probe1,1,558,NaN,bird,elephant,0,0558_ske_dnn_0_elephant_00_elephant-0015-sketch-21.png,elephant-0015-sketch-21.png,0.0,-4.9820137,-3.7053955,-0.90270543
alexnet_w1_mlp_simclrhn_probe1,1,559,NaN,clock,elephant,0,0559_ske_dnn_0_elephant_00_elephant-0016-sketch-22.png,elephant-0016-sketch-22.png,0.0,-6.5746994,0.14159064,-4.749134
alexnet_w1_mlp_simclrhn_probe1,1,560,NaN,elephant,elephant,0,0560_ske_dnn_0_elephant_00_elephant-0019-sketch-25.png,elephant-0019-sketch-25.png,1.0,0.91939545,-2.3114898,2.284581
alexnet_w1_mlp_simclrhn_probe1,1,561,NaN,bicycle,elephant,0,0561_ske_dnn_0_elephant_00_elephant-0020-sketch-26.png,elephant-0020-sketch-26.png,0.0,-6.081995,-0.18357116,-4.1708155
alexnet_w1_mlp_simclrhn_probe1,1,562,NaN,clock,elephant,0,0562_ske_dnn_0_elephant_00_elephant-0021-sketch-27.png,elephant-0021-sketch-27.png,0.0,-6.531631,-1.6094966,-3.4804747
alexnet_w1_mlp_simclrhn_probe1,1,563,NaN,clock,elephant,0,0563_ske_dnn_0_elephant_00_elephant-0022-sketch-28.png,elephant-0022-sketch-28.png,0.0,-8.823885,0.57974595,-6.6493716
alexnet_w1_mlp_simclrhn_probe1,1,564,NaN,elephant,elephant,0,0564_ske_dnn_0_elephant_00_elephant-0025-sketch-30.png,elephant-0025-sketch-30.png,1.0,-2.5388968,-2.7088022,0.12014128
alexnet_w1_mlp_simclrhn_probe1,1,565,NaN,elephant,elephant,0,0565_ske_dnn_0_elephant_00_elephant-0028-sketch-33.png,elephant-0028-sketch-33.png,1.0,0.6742083,0.3436443,0.23374404
alexnet_w1_mlp_simclrhn_probe1,1,566,NaN,knife,elephant,0,0566_ske_dnn_0_elephant_00_elephant-0029-sketch-34.png,elephant-0029-sketch-34.png,0.0,-3.6055722,-2.2931328,-0.92803484
alexnet_w1_mlp_simclrhn_probe1,1,567,NaN,bicycle,elephant,0,0567_ske_dnn_0_elephant_00_elephant-0030-sketch-35.png,elephant-0030-sketch-35.png,0.0,-14.0418,-0.10477905,-9.854961
alexnet_w1_mlp_simclrhn_probe1,1,568,NaN,knife,elephant,0,0568_ske_dnn_0_elephant_00_elephant-0032-sketch-37.png,elephant-0032-sketch-37.png,0.0,-1.8420591,-0.8396985,-0.708776
alexnet_w1_mlp_simclrhn_probe1,1,569,NaN,clock,elephant,0,0569_ske_dnn_0_elephant_00_elephant-0033-sketch-38.png,elephant-0033-sketch-38.png,0.0,-12.511175,-2.4787998,-7.093961
alexnet_w1_mlp_simclrhn_probe1,1,570,NaN,elephant,elephant,0,0570_ske_dnn_0_elephant_00_elephant-0037-sketch-41.png,elephant-0037-sketch-41.png,1.0,0.7695337,-1.8022698,1.8185397
alexnet_w1_mlp_simclrhn_probe1,1,571,NaN,elephant,elephant,0,0571_ske_dnn_0_elephant_00_elephant-0039-sketch-43.png,elephant-0039-sketch-43.png,1.0,-2.2218814,-4.3011947,1.4702965
alexnet_w1_mlp_simclrhn_probe1,1,572,NaN,cat,elephant,0,0572_ske_dnn_0_elephant_00_elephant-0040-sketch-44.png,elephant-0040-sketch-44.png,0.0,-2.0633712,-1.7287506,-0.2366125
alexnet_w1_mlp_simclrhn_probe1,1,573,NaN,bird,elephant,0,0573_ske_dnn_0_elephant_00_elephant-0043-sketch-47.png,elephant-0043-sketch-47.png,0.0,-4.104699,-2.3261788,-1.2576038
alexnet_w1_mlp_simclrhn_probe1,1,574,NaN,cat,elephant,0,0574_ske_dnn_0_elephant_00_elephant-0044-sketch-48.png,elephant-0044-sketch-48.png,0.0,-4.013341,-2.2537506,-1.2442183
alexnet_w1_mlp_simclrhn_probe1,1,575,NaN,knife,elephant,0,0575_ske_dnn_0_elephant_00_elephant-0046-sketch-5.png,elephant-0046-sketch-5.png,0.0,-2.0466623,-0.90794724,-0.8051931
alexnet_w1_mlp_simclrhn_probe1,1,576,NaN,clock,elephant,0,0576_ske_dnn_0_elephant_00_elephant-0047-sketch-50.png,elephant-0047-sketch-50.png,0.0,-10.176479,-0.5825321,-6.7839456
alexnet_w1_mlp_simclrhn_probe1,1,577,NaN,clock,elephant,0,0577_ske_dnn_0_elephant_00_elephant-0048-sketch-6.png,elephant-0048-sketch-6.png,0.0,-12.803769,-2.926582,-6.9842257
alexnet_w1_mlp_simclrhn_probe1,1,578,NaN,elephant,elephant,0,0578_ske_dnn_0_elephant_00_elephant-0050-sketch-8.png,elephant-0050-sketch-8.png,1.0,-3.4600072,-3.4676118,0.0053772638
alexnet_w1_mlp_simclrhn_probe1,1,579,NaN,oven,elephant,0,0579_ske_dnn_0_elephant_00_elephant-0052-sketch-0.png,elephant-0052-sketch-0.png,0.0,-3.8662248,-2.00081,-1.3190476
alexnet_w1_mlp_simclrhn_probe1,1,580,NaN,knife,elephant,0,0580_ske_dnn_0_elephant_00_elephant-0054-sketch-10.png,elephant-0054-sketch-10.png,0.0,-2.4015017,-2.317452,-0.059432115
alexnet_w1_mlp_simclrhn_probe1,1,581,NaN,cat,elephant,0,0581_ske_dnn_0_elephant_00_elephant-0055-sketch-11.png,elephant-0055-sketch-11.png,0.0,-3.48942,-1.0018467,-1.7589799
alexnet_w1_mlp_simclrhn_probe1,1,582,NaN,oven,elephant,0,0582_ske_dnn_0_elephant_00_elephant-0057-sketch-13.png,elephant-0057-sketch-13.png,0.0,-2.9409318,-1.8700881,-0.75720084
alexnet_w1_mlp_simclrhn_probe1,1,583,NaN,elephant,elephant,0,0583_ske_dnn_0_elephant_00_elephant-0058-sketch-14.png,elephant-0058-sketch-14.png,1.0,-0.6289599,-4.244711,2.5567222
alexnet_w1_mlp_simclrhn_probe1,1,584,NaN,elephant,elephant,0,0584_ske_dnn_0_elephant_00_elephant-0061-sketch-17.png,elephant-0061-sketch-17.png,1.0,7.033206,-0.8143222,5.5490403
alexnet_w1_mlp_simclrhn_probe1,1,585,NaN,bicycle,elephant,0,0585_ske_dnn_0_elephant_00_elephant-0062-sketch-18.png,elephant-0062-sketch-18.png,0.0,-7.321069,-2.4649415,-3.4338005
alexnet_w1_mlp_simclrhn_probe1,1,586,NaN,bicycle,elephant,0,0586_ske_dnn_0_elephant_00_elephant-0065-sketch-20.png,elephant-0065-sketch-20.png,0.0,-6.4200096,0.051113963,-4.5757756
alexnet_w1_mlp_simclrhn_probe1,1,587,NaN,elephant,elephant,0,0587_ske_dnn_0_elephant_00_elephant-0066-sketch-21.png,elephant-0066-sketch-21.png,1.0,3.8687706,-0.32795143,2.9675307
alexnet_w1_mlp_simclrhn_probe1,1,588,NaN,elephant,elephant,0,0588_ske_dnn_0_elephant_00_elephant-0071-sketch-26.png,elephant-0071-sketch-26.png,1.0,2.8741426,-4.531304,5.2364416
alexnet_w1_mlp_simclrhn_probe1,1,589,NaN,bicycle,elephant,0,0589_ske_dnn_0_elephant_00_elephant-0075-sketch-3.png,elephant-0075-sketch-3.png,0.0,-7.519537,-1.2730211,-4.4169536
alexnet_w1_mlp_simclrhn_probe1,1,590,NaN,clock,elephant,0,0590_ske_dnn_0_elephant_00_elephant-0076-sketch-30.png,elephant-0076-sketch-30.png,0.0,-8.060529,0.33300814,-5.935127
alexnet_w1_mlp_simclrhn_probe1,1,591,NaN,elephant,elephant,0,0591_ske_dnn_0_elephant_00_elephant-0077-sketch-31.png,elephant-0077-sketch-31.png,1.0,-1.080703,-3.604992,1.7849418
alexnet_w1_mlp_simclrhn_probe1,1,592,NaN,bottle,elephant,0,0592_ske_dnn_0_elephant_00_elephant-0079-sketch-33.png,elephant-0079-sketch-33.png,0.0,-5.6245823,-4.335322,-0.91164476
alexnet_w1_mlp_simclrhn_probe1,1,593,NaN,bicycle,elephant,0,0593_ske_dnn_0_elephant_00_elephant-0080-sketch-34.png,elephant-0080-sketch-34.png,0.0,-7.6184072,-2.3685622,-3.712201
alexnet_w1_mlp_simclrhn_probe1,1,594,NaN,elephant,elephant,0,0594_ske_dnn_0_elephant_00_elephant-0082-sketch-36.png,elephant-0082-sketch-36.png,1.0,-0.87006164,-2.2174592,0.95275396
alexnet_w1_mlp_simclrhn_probe1,1,595,NaN,cat,elephant,0,0595_ske_dnn_0_elephant_00_elephant-0086-sketch-4.png,elephant-0086-sketch-4.png,0.0,-2.1631722,-1.1415095,-0.7224246
alexnet_w1_mlp_simclrhn_probe1,1,596,NaN,elephant,elephant,0,0596_ske_dnn_0_elephant_00_elephant-0090-sketch-43.png,elephant-0090-sketch-43.png,1.0,-0.60880315,-3.3410091,1.9319613
alexnet_w1_mlp_simclrhn_probe1,1,597,NaN,elephant,elephant,0,0597_ske_dnn_0_elephant_00_elephant-0094-sketch-47.png,elephant-0094-sketch-47.png,1.0,-1.8514662,-4.835115,2.1097584
alexnet_w1_mlp_simclrhn_probe1,1,598,NaN,clock,elephant,0,0598_ske_dnn_0_elephant_00_elephant-0098-sketch-50.png,elephant-0098-sketch-50.png,0.0,-12.304291,3.865633,-11.433863
alexnet_w1_mlp_simclrhn_probe1,1,599,NaN,elephant,elephant,0,0599_ske_dnn_0_elephant_00_elephant-0100-sketch-7.png,elephant-0100-sketch-7.png,1.0,-1.5584455,-3.7944324,1.5810815
alexnet_w1_mlp_simclrhn_probe1,1,600,NaN,clock,elephant,0,0600_ske_dnn_0_elephant_00_elephant-0101-sketch-8.png,elephant-0101-sketch-8.png,0.0,-12.517969,3.3090227,-11.191374
alexnet_w1_mlp_simclrhn_probe1,1,601,NaN,keyboard,keyboard,0,0601_ske_dnn_0_keyboard_00_keyboard-0002-sketch-1.png,keyboard-0002-sketch-1.png,1.0,3.3156962,0.92427707,1.6909888
alexnet_w1_mlp_simclrhn_probe1,1,602,NaN,clock,keyboard,0,0602_ske_dnn_0_keyboard_00_keyboard-0003-sketch-10.png,keyboard-0003-sketch-10.png,0.0,1.8154554,4.29344,-1.7521996
alexnet_w1_mlp_simclrhn_probe1,1,603,NaN,keyboard,keyboard,0,0603_ske_dnn_0_keyboard_00_keyboard-0004-sketch-11.png,keyboard-0004-sketch-11.png,1.0,9.10545,-2.2863865,8.055244
alexnet_w1_mlp_simclrhn_probe1,1,604,NaN,keyboard,keyboard,0,0604_ske_dnn_0_keyboard_00_keyboard-0005-sketch-12.png,keyboard-0005-sketch-12.png,1.0,8.554646,-0.17964342,6.176075
