subj,session,trial,rt,object_response,category,condition,imagename,filename,is_correct,targ_act,max_nontarg_act,decision_margin
alexnet,1,1,NaN,clock,airplane,0,0001_ske_dnn_0_airplane_00_airplane-0001-sketch-0.png,airplane-0001-sketch-0.png,0.0,2.9945478,5.5946755,-1.838568
alexnet,1,2,NaN,clock,airplane,0,0002_ske_dnn_0_airplane_00_airplane-0002-sketch-1.png,airplane-0002-sketch-1.png,0.0,0.45161235,4.440906,-2.8208566
alexnet,1,3,NaN,knife,airplane,0,0003_ske_dnn_0_airplane_00_airplane-0003-sketch-10.png,airplane-0003-sketch-10.png,0.0,1.3267406,4.7228956,-2.4014442
alexnet,1,4,NaN,clock,airplane,0,0004_ske_dnn_0_airplane_00_airplane-0004-sketch-11.png,airplane-0004-sketch-11.png,0.0,2.8024173,3.4575856,-0.46327394
alexnet,1,5,NaN,airplane,airplane,0,0005_ske_dnn_0_airplane_00_airplane-0005-sketch-12.png,airplane-0005-sketch-12.png,1.0,6.2927103,3.529002,1.954237
alexnet,1,6,NaN,airplane,airplane,0,0006_ske_dnn_0_airplane_00_airplane-0006-sketch-13.png,airplane-0006-sketch-13.png,1.0,14.068408,5.8014345,5.845633
alexnet,1,7,NaN,knife,airplane,0,0007_ske_dnn_0_airplane_00_airplane-0007-sketch-14.png,airplane-0007-sketch-14.png,0.0,3.060637,3.85926,-0.5647118
alexnet,1,8,NaN,clock,airplane,0,0008_ske_dnn_0_airplane_00_airplane-0008-sketch-15.png,airplane-0008-sketch-15.png,0.0,1.6194142,3.7973602,-1.5400405
alexnet,1,9,NaN,oven,airplane,0,0009_ske_dnn_0_airplane_00_airplane-0009-sketch-16.png,airplane-0009-sketch-16.png,0.0,4.0574427,5.4515395,-0.98577535
alexnet,1,10,NaN,bicycle,airplane,0,0010_ske_dnn_0_airplane_00_airplane-0010-sketch-17.png,airplane-0010-sketch-17.png,0.0,0.3218013,5.514679,-3.671919
alexnet,1,11,NaN,knife,airplane,0,0011_ske_dnn_0_airplane_00_airplane-0011-sketch-18.png,airplane-0011-sketch-18.png,0.0,0.21409929,4.4182663,-2.972795
alexnet,1,12,NaN,clock,airplane,0,0012_ske_dnn_0_airplane_00_airplane-0012-sketch-19.png,airplane-0012-sketch-19.png,0.0,0.98814213,6.6553226,-4.007302
alexnet,1,13,NaN,airplane,airplane,0,0013_ske_dnn_0_airplane_00_airplane-0013-sketch-2.png,airplane-0013-sketch-2.png,1.0,11.1220455,6.9680243,2.9373367
alexnet,1,14,NaN,knife,airplane,0,0014_ske_dnn_0_airplane_00_airplane-0014-sketch-20.png,airplane-0014-sketch-20.png,0.0,4.8172884,7.670511,-2.0175328
alexnet,1,15,NaN,clock,airplane,0,0015_ske_dnn_0_airplane_00_airplane-0015-sketch-21.png,airplane-0015-sketch-21.png,0.0,2.2680743,5.637179,-2.3823168
alexnet,1,16,NaN,airplane,airplane,0,0016_ske_dnn_0_airplane_00_airplane-0016-sketch-22.png,airplane-0016-sketch-22.png,1.0,9.839729,5.157728,3.310675
alexnet,1,17,NaN,oven,airplane,0,0017_ske_dnn_0_airplane_00_airplane-0017-sketch-23.png,airplane-0017-sketch-23.png,0.0,2.5341063,5.4465547,-2.059412
alexnet,1,18,NaN,oven,airplane,0,0018_ske_dnn_0_airplane_00_airplane-0018-sketch-24.png,airplane-0018-sketch-24.png,0.0,1.3103429,5.68935,-3.0964258
alexnet,1,19,NaN,knife,airplane,0,0019_ske_dnn_0_airplane_00_airplane-0019-sketch-25.png,airplane-0019-sketch-25.png,0.0,0.3622045,6.6391935,-4.4385014
alexnet,1,20,NaN,knife,airplane,0,0020_ske_dnn_0_airplane_00_airplane-0020-sketch-26.png,airplane-0020-sketch-26.png,0.0,1.9171823,6.5356092,-3.265721
alexnet,1,21,NaN,clock,airplane,0,0021_ske_dnn_0_airplane_00_airplane-0021-sketch-27.png,airplane-0021-sketch-27.png,0.0,-0.6515548,6.8859386,-5.329813
alexnet,1,22,NaN,clock,airplane,0,0022_ske_dnn_0_airplane_00_airplane-0022-sketch-28.png,airplane-0022-sketch-28.png,0.0,3.8352807,7.7344794,-2.75715
alexnet,1,23,NaN,knife,airplane,0,0023_ske_dnn_0_airplane_00_airplane-0023-sketch-29.png,airplane-0023-sketch-29.png,0.0,3.933517,4.663039,-0.5158501
alexnet,1,24,NaN,clock,airplane,0,0024_ske_dnn_0_airplane_00_airplane-0024-sketch-3.png,airplane-0024-sketch-3.png,0.0,4.2853413,4.5676007,-0.19958758
alexnet,1,25,NaN,clock,airplane,0,0025_ske_dnn_0_airplane_00_airplane-0025-sketch-30.png,airplane-0025-sketch-30.png,0.0,3.3576806,5.3743453,-1.4259974
alexnet,1,26,NaN,clock,airplane,0,0026_ske_dnn_0_airplane_00_airplane-0027-sketch-32.png,airplane-0027-sketch-32.png,0.0,0.52679914,6.0610948,-3.913338
alexnet,1,27,NaN,clock,airplane,0,0027_ske_dnn_0_airplane_00_airplane-0028-sketch-33.png,airplane-0028-sketch-33.png,0.0,3.949737,7.450884,-2.4756846
alexnet,1,28,NaN,knife,airplane,0,0028_ske_dnn_0_airplane_00_airplane-0029-sketch-34.png,airplane-0029-sketch-34.png,0.0,0.036652803,6.0980787,-4.2860756
alexnet,1,29,NaN,clock,airplane,0,0029_ske_dnn_0_airplane_00_airplane-0030-sketch-35.png,airplane-0030-sketch-35.png,0.0,2.7012959,4.588383,-1.3343723
alexnet,1,30,NaN,knife,airplane,0,0030_ske_dnn_0_airplane_00_airplane-0031-sketch-36.png,airplane-0031-sketch-36.png,0.0,6.4566374,7.039294,-0.4120003
alexnet,1,31,NaN,airplane,airplane,0,0031_ske_dnn_0_airplane_00_airplane-0032-sketch-37.png,airplane-0032-sketch-37.png,1.0,4.0584383,3.8863306,0.12169852
alexnet,1,32,NaN,knife,airplane,0,0032_ske_dnn_0_airplane_00_airplane-0033-sketch-38.png,airplane-0033-sketch-38.png,0.0,4.2235,4.7284794,-0.3570745
alexnet,1,33,NaN,clock,airplane,0,0033_ske_dnn_0_airplane_00_airplane-0034-sketch-39.png,airplane-0034-sketch-39.png,0.0,0.5966959,5.5523643,-3.5041869
alexnet,1,34,NaN,bicycle,airplane,0,0034_ske_dnn_0_airplane_00_airplane-0035-sketch-4.png,airplane-0035-sketch-4.png,0.0,4.2739954,6.7974434,-1.7843472
alexnet,1,35,NaN,airplane,airplane,0,0035_ske_dnn_0_airplane_00_airplane-0036-sketch-40.png,airplane-0036-sketch-40.png,1.0,8.346255,5.1786814,2.239813
alexnet,1,36,NaN,clock,airplane,0,0036_ske_dnn_0_airplane_00_airplane-0037-sketch-41.png,airplane-0037-sketch-41.png,0.0,2.6938365,7.089578,-3.1082587
alexnet,1,37,NaN,clock,airplane,0,0037_ske_dnn_0_airplane_00_airplane-0038-sketch-42.png,airplane-0038-sketch-42.png,0.0,0.32084537,6.9203606,-4.666562
alexnet,1,38,NaN,airplane,airplane,0,0038_ske_dnn_0_airplane_00_airplane-0039-sketch-43.png,airplane-0039-sketch-43.png,1.0,6.532073,4.3905835,1.5142617
alexnet,1,39,NaN,clock,airplane,0,0039_ske_dnn_0_airplane_00_airplane-0040-sketch-44.png,airplane-0040-sketch-44.png,0.0,1.2029942,6.403414,-3.6772518
alexnet,1,40,NaN,knife,airplane,0,0040_ske_dnn_0_airplane_00_airplane-0041-sketch-45.png,airplane-0041-sketch-45.png,0.0,-0.16366613,5.347558,-3.8970242
alexnet,1,41,NaN,clock,airplane,0,0041_ske_dnn_0_airplane_00_airplane-0042-sketch-46.png,airplane-0042-sketch-46.png,0.0,0.8625017,4.4373584,-2.5278056
alexnet,1,42,NaN,clock,airplane,0,0042_ske_dnn_0_airplane_00_airplane-0043-sketch-47.png,airplane-0043-sketch-47.png,0.0,-0.82075715,6.7651734,-5.3640633
alexnet,1,43,NaN,oven,airplane,0,0043_ske_dnn_0_airplane_00_airplane-0044-sketch-48.png,airplane-0044-sketch-48.png,0.0,2.0624726,4.9211335,-2.0213785
alexnet,1,44,NaN,knife,airplane,0,0044_ske_dnn_0_airplane_00_airplane-0045-sketch-49.png,airplane-0045-sketch-49.png,0.0,3.3409717,5.78862,-1.7307488
alexnet,1,45,NaN,keyboard,airplane,0,0045_ske_dnn_0_airplane_00_airplane-0046-sketch-5.png,airplane-0046-sketch-5.png,0.0,1.5967026,5.0282145,-2.4264452
alexnet,1,46,NaN,oven,airplane,0,0046_ske_dnn_0_airplane_00_airplane-0047-sketch-50.png,airplane-0047-sketch-50.png,0.0,1.0151306,4.4752054,-2.4466424
alexnet,1,47,NaN,clock,airplane,0,0047_ske_dnn_0_airplane_00_airplane-0048-sketch-6.png,airplane-0048-sketch-6.png,0.0,3.514839,4.1779385,-0.46888217
alexnet,1,48,NaN,oven,airplane,0,0048_ske_dnn_0_airplane_00_airplane-0049-sketch-7.png,airplane-0049-sketch-7.png,0.0,3.6079674,7.435899,-2.7067564
alexnet,1,49,NaN,clock,airplane,0,0049_ske_dnn_0_airplane_00_airplane-0050-sketch-8.png,airplane-0050-sketch-8.png,0.0,-2.390698,9.911199,-8.698755
alexnet,1,50,NaN,clock,airplane,0,0050_ske_dnn_0_airplane_00_airplane-0051-sketch-9.png,airplane-0051-sketch-9.png,0.0,-0.5363152,6.355206,-4.8730416
alexnet,1,51,NaN,chair,bear,0,0051_ske_dnn_0_bear_00_bear-0005-sketch-12.png,bear-0005-sketch-12.png,0.0,-2.3035045,2.452601,-3.3630745
alexnet,1,52,NaN,clock,bear,0,0052_ske_dnn_0_bear_00_bear-0007-sketch-14.png,bear-0007-sketch-14.png,0.0,0.1993916,3.7082202,-2.4811165
alexnet,1,53,NaN,cat,bear,0,0053_ske_dnn_0_bear_00_bear-0017-sketch-23.png,bear-0017-sketch-23.png,0.0,3.8932145,9.914872,-4.257955
alexnet,1,54,NaN,elephant,bear,0,0054_ske_dnn_0_bear_00_bear-0022-sketch-28.png,bear-0022-sketch-28.png,0.0,1.7302495,6.7608814,-3.557194
alexnet,1,55,NaN,clock,bear,0,0055_ske_dnn_0_bear_00_bear-0023-sketch-29.png,bear-0023-sketch-29.png,0.0,4.4986863,4.6015625,-0.07274445
alexnet,1,56,NaN,bear,bear,0,0056_ske_dnn_0_bear_00_bear-0026-sketch-31.png,bear-0026-sketch-31.png,1.0,7.4440975,7.0058055,0.30991927
alexnet,1,57,NaN,cat,bear,0,0057_ske_dnn_0_bear_00_bear-0027-sketch-32.png,bear-0027-sketch-32.png,0.0,-0.3496738,2.6866772,-2.1470244
alexnet,1,58,NaN,bear,bear,0,0058_ske_dnn_0_bear_00_bear-0030-sketch-35.png,bear-0030-sketch-35.png,1.0,6.6173787,6.5627866,0.038602468
alexnet,1,59,NaN,bear,bear,0,0059_ske_dnn_0_bear_00_bear-0033-sketch-38.png,bear-0033-sketch-38.png,1.0,6.550394,6.2403297,0.21924858
alexnet,1,60,NaN,knife,bear,0,0060_ske_dnn_0_bear_00_bear-0036-sketch-40.png,bear-0036-sketch-40.png,0.0,-2.578898,4.0053644,-4.6557765
alexnet,1,61,NaN,bear,bear,0,0061_ske_dnn_0_bear_00_bear-0037-sketch-41.png,bear-0037-sketch-41.png,1.0,7.231129,5.012997,1.5684562
alexnet,1,62,NaN,dog,bear,0,0062_ske_dnn_0_bear_00_bear-0038-sketch-42.png,bear-0038-sketch-42.png,0.0,4.444089,4.6616316,-0.15382588
alexnet,1,63,NaN,bear,bear,0,0063_ske_dnn_0_bear_00_bear-0039-sketch-43.png,bear-0039-sketch-43.png,1.0,5.421774,5.299518,0.08644791
alexnet,1,64,NaN,bear,bear,0,0064_ske_dnn_0_bear_00_bear-0041-sketch-45.png,bear-0041-sketch-45.png,1.0,6.4893217,4.5342083,1.382474
alexnet,1,65,NaN,bear,bear,0,0065_ske_dnn_0_bear_00_bear-0045-sketch-49.png,bear-0045-sketch-49.png,1.0,6.3570166,5.3830905,0.68866974
alexnet,1,66,NaN,knife,bear,0,0066_ske_dnn_0_bear_00_bear-0048-sketch-7.png,bear-0048-sketch-7.png,0.0,-2.3527477,5.5069695,-5.5576596
alexnet,1,67,NaN,bird,bear,0,0067_ske_dnn_0_bear_00_bear-0049-sketch-8.png,bear-0049-sketch-8.png,0.0,-1.9156305,3.2806654,-3.674336
alexnet,1,68,NaN,bear,bear,0,0068_ske_dnn_0_bear_00_bear-0053-sketch-10.png,bear-0053-sketch-10.png,1.0,5.267383,4.7160153,0.3898759
alexnet,1,69,NaN,bear,bear,0,0069_ske_dnn_0_bear_00_bear-0059-sketch-16.png,bear-0059-sketch-16.png,1.0,6.4845357,5.52882,0.67579305
alexnet,1,70,NaN,bear,bear,0,0070_ske_dnn_0_bear_00_bear-0068-sketch-24.png,bear-0068-sketch-24.png,1.0,7.8429737,5.9176054,1.361441
alexnet,1,71,NaN,knife,bear,0,0071_ske_dnn_0_bear_00_bear-0070-sketch-26.png,bear-0070-sketch-26.png,0.0,1.8410914,2.3721938,-0.37554613
alexnet,1,72,NaN,bear,bear,0,0072_ske_dnn_0_bear_00_bear-0073-sketch-29.png,bear-0073-sketch-29.png,1.0,5.943219,4.7521305,0.8422269
alexnet,1,73,NaN,bear,bear,0,0073_ske_dnn_0_bear_00_bear-0079-sketch-34.png,bear-0079-sketch-34.png,1.0,13.659702,5.4339256,5.8165026
alexnet,1,74,NaN,bear,bear,0,0074_ske_dnn_0_bear_00_bear-0081-sketch-36.png,bear-0081-sketch-36.png,1.0,8.60176,5.4281693,2.2440674
alexnet,1,75,NaN,cat,bear,0,0075_ske_dnn_0_bear_00_bear-0085-sketch-4.png,bear-0085-sketch-4.png,0.0,7.1746273,7.8601594,-0.4847444
alexnet,1,76,NaN,bear,bear,0,0076_ske_dnn_0_bear_00_bear-0086-sketch-40.png,bear-0086-sketch-40.png,1.0,5.641178,5.3150253,0.23062485
alexnet,1,77,NaN,knife,bear,0,0077_ske_dnn_0_bear_00_bear-0087-sketch-41.png,bear-0087-sketch-41.png,0.0,-1.6297693,3.390801,-3.5500793
alexnet,1,78,NaN,knife,bear,0,0078_ske_dnn_0_bear_00_bear-0090-sketch-44.png,bear-0090-sketch-44.png,0.0,-3.1465437,4.979521,-5.745995
alexnet,1,79,NaN,knife,bear,0,0079_ske_dnn_0_bear_00_bear-0103-sketch-1.png,bear-0103-sketch-1.png,0.0,-2.663537,5.073421,-5.4708557
alexnet,1,80,NaN,knife,bear,0,0080_ske_dnn_0_bear_00_bear-0107-sketch-13.png,bear-0107-sketch-13.png,0.0,-1.6405183,3.9787843,-3.973447
alexnet,1,81,NaN,knife,bear,0,0081_ske_dnn_0_bear_00_bear-0110-sketch-16.png,bear-0110-sketch-16.png,0.0,-1.2840981,5.602679,-4.8696866
alexnet,1,82,NaN,knife,bear,0,0082_ske_dnn_0_bear_00_bear-0112-sketch-18.png,bear-0112-sketch-18.png,0.0,0.23062003,4.511261,-3.0268705
alexnet,1,83,NaN,clock,bear,0,0083_ske_dnn_0_bear_00_bear-0117-sketch-22.png,bear-0117-sketch-22.png,0.0,-4.8123145,7.545365,-8.738199
alexnet,1,84,NaN,knife,bear,0,0084_ske_dnn_0_bear_00_bear-0123-sketch-28.png,bear-0123-sketch-28.png,0.0,0.96399534,2.7268038,-1.2464938
alexnet,1,85,NaN,clock,bear,0,0085_ske_dnn_0_bear_00_bear-0135-sketch-39.png,bear-0135-sketch-39.png,0.0,-2.9791226,8.56857,-8.165452
alexnet,1,86,NaN,knife,bear,0,0086_ske_dnn_0_bear_00_bear-0136-sketch-4.png,bear-0136-sketch-4.png,0.0,-2.335174,6.215727,-6.0464005
alexnet,1,87,NaN,knife,bear,0,0087_ske_dnn_0_bear_00_bear-0137-sketch-40.png,bear-0137-sketch-40.png,0.0,-2.1204185,4.757969,-4.8637543
alexnet,1,88,NaN,bear,bear,0,0088_ske_dnn_0_bear_00_bear-0148-sketch-50.png,bear-0148-sketch-50.png,1.0,6.7354045,4.299688,1.7223117
alexnet,1,89,NaN,oven,bear,0,0089_ske_dnn_0_bear_00_bear-0149-sketch-6.png,bear-0149-sketch-6.png,0.0,-3.1178205,2.9869812,-4.3167467
alexnet,1,90,NaN,bear,bear,0,0090_ske_dnn_0_bear_00_bear-0161-sketch-16.png,bear-0161-sketch-16.png,1.0,7.2931013,4.952678,1.654929
alexnet,1,91,NaN,knife,bear,0,0091_ske_dnn_0_bear_00_bear-0166-sketch-20.png,bear-0166-sketch-20.png,0.0,-3.4498577,4.2452183,-5.4412403
alexnet,1,92,NaN,clock,bear,0,0092_ske_dnn_0_bear_00_bear-0170-sketch-24.png,bear-0170-sketch-24.png,0.0,-4.037447,7.7140203,-8.309542
alexnet,1,93,NaN,bear,bear,0,0093_ske_dnn_0_bear_00_bear-0171-sketch-25.png,bear-0171-sketch-25.png,1.0,9.709421,6.403383,2.3377223
alexnet,1,94,NaN,bicycle,bear,0,0094_ske_dnn_0_bear_00_bear-0179-sketch-32.png,bear-0179-sketch-32.png,0.0,-2.0154476,4.325389,-4.483649
alexnet,1,95,NaN,knife,bear,0,0095_ske_dnn_0_bear_00_bear-0187-sketch-4.png,bear-0187-sketch-4.png,0.0,-3.457988,5.5274525,-6.353666
alexnet,1,96,NaN,bear,bear,0,0096_ske_dnn_0_bear_00_bear-0188-sketch-40.png,bear-0188-sketch-40.png,1.0,7.6747017,6.4417987,0.8717941
alexnet,1,97,NaN,clock,bear,0,0097_ske_dnn_0_bear_00_bear-0195-sketch-47.png,bear-0195-sketch-47.png,0.0,3.4455295,3.7035797,-0.18246906
alexnet,1,98,NaN,dog,bear,0,0098_ske_dnn_0_bear_00_bear-0198-sketch-5.png,bear-0198-sketch-5.png,0.0,2.8092804,3.090061,-0.19854183
alexnet,1,99,NaN,bird,bear,0,0099_ske_dnn_0_bear_00_bear-0199-sketch-50.png,bear-0199-sketch-50.png,0.0,-1.318651,2.3399045,-2.5869894
alexnet,1,100,NaN,knife,bear,0,0100_ske_dnn_0_bear_00_bear-0201-sketch-7.png,bear-0201-sketch-7.png,0.0,1.2903742,1.8194354,-0.37410277
alexnet,1,101,NaN,bicycle,bicycle,0,0101_ske_dnn_0_bicycle_00_bicycle-0002-sketch-1.png,bicycle-0002-sketch-1.png,1.0,20.598057,6.8599625,9.7143
alexnet,1,102,NaN,clock,bicycle,0,0102_ske_dnn_0_bicycle_00_bicycle-0003-sketch-10.png,bicycle-0003-sketch-10.png,0.0,-0.9296613,7.497336,-5.958787
alexnet,1,103,NaN,bicycle,bicycle,0,0103_ske_dnn_0_bicycle_00_bicycle-0004-sketch-11.png,bicycle-0004-sketch-11.png,1.0,13.751422,6.4937425,5.1319547
alexnet,1,104,NaN,bicycle,bicycle,0,0104_ske_dnn_0_bicycle_00_bicycle-0008-sketch-15.png,bicycle-0008-sketch-15.png,1.0,8.317974,4.6821866,2.57089
alexnet,1,105,NaN,bicycle,bicycle,0,0105_ske_dnn_0_bicycle_00_bicycle-0011-sketch-18.png,bicycle-0011-sketch-18.png,1.0,7.806821,4.147176,2.58776
alexnet,1,106,NaN,bicycle,bicycle,0,0106_ske_dnn_0_bicycle_00_bicycle-0013-sketch-2.png,bicycle-0013-sketch-2.png,1.0,13.356958,3.5457592,6.937566
alexnet,1,107,NaN,bottle,bicycle,0,0107_ske_dnn_0_bicycle_00_bicycle-0016-sketch-22.png,bicycle-0016-sketch-22.png,0.0,-1.5241082,7.867058,-6.6405573
alexnet,1,108,NaN,bicycle,bicycle,0,0108_ske_dnn_0_bicycle_00_bicycle-0019-sketch-25.png,bicycle-0019-sketch-25.png,1.0,17.469566,8.836769,6.1043096
alexnet,1,109,NaN,bicycle,bicycle,0,0109_ske_dnn_0_bicycle_00_bicycle-0020-sketch-26.png,bicycle-0020-sketch-26.png,1.0,6.817858,4.663031,1.5236928
alexnet,1,110,NaN,bicycle,bicycle,0,0110_ske_dnn_0_bicycle_00_bicycle-0022-sketch-28.png,bicycle-0022-sketch-28.png,1.0,3.6980386,2.1495922,1.0949169
alexnet,1,111,NaN,bicycle,bicycle,0,0111_ske_dnn_0_bicycle_00_bicycle-0023-sketch-29.png,bicycle-0023-sketch-29.png,1.0,7.5161343,5.360561,1.5242206
alexnet,1,112,NaN,clock,bicycle,0,0112_ske_dnn_0_bicycle_00_bicycle-0025-sketch-30.png,bicycle-0025-sketch-30.png,0.0,5.7351494,6.5521913,-0.57773584
alexnet,1,113,NaN,bicycle,bicycle,0,0113_ske_dnn_0_bicycle_00_bicycle-0026-sketch-31.png,bicycle-0026-sketch-31.png,1.0,2.7655787,2.607129,0.112040825
alexnet,1,114,NaN,bicycle,bicycle,0,0114_ske_dnn_0_bicycle_00_bicycle-0031-sketch-36.png,bicycle-0031-sketch-36.png,1.0,3.2016501,2.7602332,0.31212893
alexnet,1,115,NaN,clock,bicycle,0,0115_ske_dnn_0_bicycle_00_bicycle-0034-sketch-39.png,bicycle-0034-sketch-39.png,0.0,4.5114403,4.7540536,-0.17155352
alexnet,1,116,NaN,bicycle,bicycle,0,0116_ske_dnn_0_bicycle_00_bicycle-0037-sketch-41.png,bicycle-0037-sketch-41.png,1.0,7.2220106,5.005818,1.5670849
alexnet,1,117,NaN,clock,bicycle,0,0117_ske_dnn_0_bicycle_00_bicycle-0038-sketch-42.png,bicycle-0038-sketch-42.png,0.0,4.5526533,5.851811,-0.9186432
alexnet,1,118,NaN,bicycle,bicycle,0,0118_ske_dnn_0_bicycle_00_bicycle-0039-sketch-43.png,bicycle-0039-sketch-43.png,1.0,5.4944105,2.298096,2.2601357
alexnet,1,119,NaN,bicycle,bicycle,0,0119_ske_dnn_0_bicycle_00_bicycle-0040-sketch-44.png,bicycle-0040-sketch-44.png,1.0,3.737784,3.0207906,0.50699085
alexnet,1,120,NaN,bicycle,bicycle,0,0120_ske_dnn_0_bicycle_00_bicycle-0044-sketch-48.png,bicycle-0044-sketch-48.png,1.0,9.030758,3.1713376,4.1432357
alexnet,1,121,NaN,bicycle,bicycle,0,0121_ske_dnn_0_bicycle_00_bicycle-0045-sketch-49.png,bicycle-0045-sketch-49.png,1.0,20.598057,6.8599625,9.7143
alexnet,1,122,NaN,bicycle,bicycle,0,0122_ske_dnn_0_bicycle_00_bicycle-0046-sketch-5.png,bicycle-0046-sketch-5.png,1.0,5.921589,5.016383,0.6400771
alexnet,1,123,NaN,bicycle,bicycle,0,0123_ske_dnn_0_bicycle_00_bicycle-0047-sketch-50.png,bicycle-0047-sketch-50.png,1.0,13.356958,3.5457592,6.937566
alexnet,1,124,NaN,bicycle,bicycle,0,0124_ske_dnn_0_bicycle_00_bicycle-0048-sketch-6.png,bicycle-0048-sketch-6.png,1.0,9.541972,4.551529,3.5287764
alexnet,1,125,NaN,bicycle,bicycle,0,0125_ske_dnn_0_bicycle_00_bicycle-0053-sketch-1.png,bicycle-0053-sketch-1.png,1.0,9.829275,2.2888224,5.3319054
alexnet,1,126,NaN,bicycle,bicycle,0,0126_ske_dnn_0_bicycle_00_bicycle-0054-sketch-10.png,bicycle-0054-sketch-10.png,1.0,7.265853,4.771072,1.7640766
alexnet,1,127,NaN,bicycle,bicycle,0,0127_ske_dnn_0_bicycle_00_bicycle-0056-sketch-12.png,bicycle-0056-sketch-12.png,1.0,8.117676,6.1902566,1.3628912
alexnet,1,128,NaN,clock,bicycle,0,0128_ske_dnn_0_bicycle_00_bicycle-0057-sketch-13.png,bicycle-0057-sketch-13.png,0.0,1.2135394,4.4180617,-2.2659395
alexnet,1,129,NaN,clock,bicycle,0,0129_ske_dnn_0_bicycle_00_bicycle-0058-sketch-14.png,bicycle-0058-sketch-14.png,0.0,4.667154,5.7193623,-0.74402374
alexnet,1,130,NaN,clock,bicycle,0,0130_ske_dnn_0_bicycle_00_bicycle-0059-sketch-15.png,bicycle-0059-sketch-15.png,0.0,0.47647697,9.581168,-6.437989
alexnet,1,131,NaN,bicycle,bicycle,0,0131_ske_dnn_0_bicycle_00_bicycle-0060-sketch-16.png,bicycle-0060-sketch-16.png,1.0,6.1541004,6.016558,0.097257055
alexnet,1,132,NaN,bicycle,bicycle,0,0132_ske_dnn_0_bicycle_00_bicycle-0062-sketch-18.png,bicycle-0062-sketch-18.png,1.0,7.6763415,6.786986,0.6288694
alexnet,1,133,NaN,bicycle,bicycle,0,0133_ske_dnn_0_bicycle_00_bicycle-0066-sketch-21.png,bicycle-0066-sketch-21.png,1.0,6.4849825,5.8411617,0.45525002
alexnet,1,134,NaN,bicycle,bicycle,0,0134_ske_dnn_0_bicycle_00_bicycle-0068-sketch-23.png,bicycle-0068-sketch-23.png,1.0,12.63996,10.117818,1.783424
alexnet,1,135,NaN,clock,bicycle,0,0135_ske_dnn_0_bicycle_00_bicycle-0070-sketch-25.png,bicycle-0070-sketch-25.png,0.0,3.6316605,5.495402,-1.3178642
alexnet,1,136,NaN,bicycle,bicycle,0,0136_ske_dnn_0_bicycle_00_bicycle-0071-sketch-26.png,bicycle-0071-sketch-26.png,1.0,8.896741,6.777949,1.4982122
alexnet,1,137,NaN,bicycle,bicycle,0,0137_ske_dnn_0_bicycle_00_bicycle-0075-sketch-3.png,bicycle-0075-sketch-3.png,1.0,15.349737,8.669281,4.723796
alexnet,1,138,NaN,bicycle,bicycle,0,0138_ske_dnn_0_bicycle_00_bicycle-0078-sketch-32.png,bicycle-0078-sketch-32.png,1.0,15.856557,8.301612,5.342153
alexnet,1,139,NaN,bicycle,bicycle,0,0139_ske_dnn_0_bicycle_00_bicycle-0080-sketch-34.png,bicycle-0080-sketch-34.png,1.0,11.163302,5.667401,3.8861895
alexnet,1,140,NaN,bicycle,bicycle,0,0140_ske_dnn_0_bicycle_00_bicycle-0081-sketch-35.png,bicycle-0081-sketch-35.png,1.0,13.882507,7.6783867,4.386976
alexnet,1,141,NaN,clock,bicycle,0,0141_ske_dnn_0_bicycle_00_bicycle-0083-sketch-37.png,bicycle-0083-sketch-37.png,0.0,7.79732,9.100509,-0.92149365
alexnet,1,142,NaN,clock,bicycle,0,0142_ske_dnn_0_bicycle_00_bicycle-0084-sketch-38.png,bicycle-0084-sketch-38.png,0.0,6.6985855,7.5813327,-0.6241965
alexnet,1,143,NaN,bicycle,bicycle,0,0143_ske_dnn_0_bicycle_00_bicycle-0087-sketch-40.png,bicycle-0087-sketch-40.png,1.0,14.756187,6.4036126,5.9061627
alexnet,1,144,NaN,bicycle,bicycle,0,0144_ske_dnn_0_bicycle_00_bicycle-0090-sketch-43.png,bicycle-0090-sketch-43.png,1.0,14.374205,8.743195,3.9817255
alexnet,1,145,NaN,clock,bicycle,0,0145_ske_dnn_0_bicycle_00_bicycle-0094-sketch-47.png,bicycle-0094-sketch-47.png,0.0,0.41011646,9.090325,-6.137835
alexnet,1,146,NaN,bicycle,bicycle,0,0146_ske_dnn_0_bicycle_00_bicycle-0095-sketch-48.png,bicycle-0095-sketch-48.png,1.0,7.0435677,6.402532,0.4532806
alexnet,1,147,NaN,bicycle,bicycle,0,0147_ske_dnn_0_bicycle_00_bicycle-0098-sketch-50.png,bicycle-0098-sketch-50.png,1.0,7.699749,6.306547,0.98514247
alexnet,1,148,NaN,clock,bicycle,0,0148_ske_dnn_0_bicycle_00_bicycle-0099-sketch-6.png,bicycle-0099-sketch-6.png,0.0,6.4946337,8.03444,-1.0888076
alexnet,1,149,NaN,bicycle,bicycle,0,0149_ske_dnn_0_bicycle_00_bicycle-0101-sketch-8.png,bicycle-0101-sketch-8.png,1.0,15.369036,6.921133,5.9735694
alexnet,1,150,NaN,knife,bicycle,0,0150_ske_dnn_0_bicycle_00_bicycle-0102-sketch-9.png,bicycle-0102-sketch-9.png,0.0,4.8832707,7.1047783,-1.5708431
alexnet,1,151,NaN,knife,bird,0,0151_ske_dnn_0_bird_00_bird-0030-sketch-35.png,bird-0030-sketch-35.png,0.0,-2.1976132,6.154361,-5.905738
alexnet,1,152,NaN,bottle,bird,0,0152_ske_dnn_0_bird_00_bird-0047-sketch-50.png,bird-0047-sketch-50.png,0.0,1.2106614,5.1217713,-2.7655723
alexnet,1,153,NaN,bottle,bird,0,0153_ske_dnn_0_bird_00_bird-0072-sketch-27.png,bird-0072-sketch-27.png,0.0,0.58366144,3.0119567,-1.717064
alexnet,1,154,NaN,bird,bird,0,0154_ske_dnn_0_bird_00_bird-0228-sketch-3.png,bird-0228-sketch-3.png,1.0,6.5362167,4.549462,1.4048479
alexnet,1,155,NaN,oven,bird,0,0155_ske_dnn_0_bird_00_bird-0274-sketch-25.png,bird-0274-sketch-25.png,0.0,0.5191064,2.7023175,-1.5437634
alexnet,1,156,NaN,knife,bird,0,0156_ske_dnn_0_bird_00_bird-0292-sketch-41.png,bird-0292-sketch-41.png,0.0,0.70520145,6.753855,-4.277044
alexnet,1,157,NaN,clock,bird,0,0157_ske_dnn_0_bird_00_bird-0316-sketch-17.png,bird-0316-sketch-17.png,0.0,-1.7941552,7.156339,-6.3289557
alexnet,1,158,NaN,clock,bird,0,0158_ske_dnn_0_bird_00_bird-0325-sketch-25.png,bird-0325-sketch-25.png,0.0,-1.2157543,3.6779232,-3.4603527
alexnet,1,159,NaN,clock,bird,0,0159_ske_dnn_0_bird_00_bird-0357-sketch-9.png,bird-0357-sketch-9.png,0.0,1.9859077,4.698505,-1.9180961
alexnet,1,160,NaN,knife,bird,0,0160_ske_dnn_0_bird_00_bird-0384-sketch-32.png,bird-0384-sketch-32.png,0.0,2.2895334,5.4019322,-2.2007983
alexnet,1,161,NaN,knife,bird,0,0161_ske_dnn_0_bird_00_bird-0415-sketch-14.png,bird-0415-sketch-14.png,0.0,3.6072426,6.4923334,-2.0400674
alexnet,1,162,NaN,bird,bird,0,0162_ske_dnn_0_bird_00_bird-0474-sketch-21.png,bird-0474-sketch-21.png,1.0,4.344394,2.0899985,1.5940986
alexnet,1,163,NaN,knife,bird,0,0163_ske_dnn_0_bird_00_bird-0479-sketch-26.png,bird-0479-sketch-26.png,0.0,1.4855424,4.8313227,-2.365824
alexnet,1,164,NaN,bicycle,bird,0,0164_ske_dnn_0_bird_00_bird-0491-sketch-37.png,bird-0491-sketch-37.png,0.0,4.0355186,4.9344106,-0.6356126
alexnet,1,165,NaN,bird,bird,0,0165_ske_dnn_0_bird_00_bird-0578-sketch-23.png,bird-0578-sketch-23.png,1.0,3.8261013,2.4696982,0.9591219
alexnet,1,166,NaN,knife,bird,0,0166_ske_dnn_0_bird_00_bird-0640-sketch-33.png,bird-0640-sketch-33.png,0.0,2.321582,3.3545413,-0.7304125
alexnet,1,167,NaN,clock,bird,0,0167_ske_dnn_0_bird_00_bird-0646-sketch-39.png,bird-0646-sketch-39.png,0.0,0.6192697,4.0212445,-2.4055593
alexnet,1,168,NaN,chair,bird,0,0168_ske_dnn_0_bird_00_bird-0685-sketch-28.png,bird-0685-sketch-28.png,0.0,-0.8307795,4.523079,-3.7857497
alexnet,1,169,NaN,bottle,bird,0,0169_ske_dnn_0_bird_00_bird-0694-sketch-36.png,bird-0694-sketch-36.png,0.0,3.013676,4.4193573,-0.9939668
alexnet,1,170,NaN,knife,bird,0,0170_ske_dnn_0_bird_00_bird-0733-sketch-25.png,bird-0733-sketch-25.png,0.0,0.31487596,4.6649246,-3.075949
alexnet,1,171,NaN,bird,bird,0,0171_ske_dnn_0_bird_00_bird-0748-sketch-39.png,bird-0748-sketch-39.png,1.0,4.05387,3.6453733,0.2888509
alexnet,1,172,NaN,knife,bird,0,0172_ske_dnn_0_bird_00_bird-0749-sketch-4.png,bird-0749-sketch-4.png,0.0,2.5057707,3.0446594,-0.38105187
alexnet,1,173,NaN,bird,bird,0,0173_ske_dnn_0_bird_00_bird-0809-sketch-48.png,bird-0809-sketch-48.png,1.0,4.6121006,4.4645195,0.104355596
alexnet,1,174,NaN,bird,bird,0,0174_ske_dnn_0_bird_00_bird-0834-sketch-24.png,bird-0834-sketch-24.png,1.0,4.761566,2.433564,1.6461462
alexnet,1,175,NaN,elephant,bird,0,0175_ske_dnn_0_bird_00_bird-0880-sketch-2.png,bird-0880-sketch-2.png,0.0,2.4475737,2.6800385,-0.16437744
alexnet,1,176,NaN,chair,bird,0,0176_ske_dnn_0_bird_00_bird-0939-sketch-27.png,bird-0939-sketch-27.png,0.0,-0.48206085,3.0903008,-2.5260413
alexnet,1,177,NaN,bottle,bird,0,0177_ske_dnn_0_bird_00_bird-0954-sketch-40.png,bird-0954-sketch-40.png,0.0,2.260786,2.9974592,-0.52090657
alexnet,1,178,NaN,knife,bird,0,0178_ske_dnn_0_bird_00_bird-1033-sketch-20.png,bird-1033-sketch-20.png,0.0,0.31694052,5.3626404,-3.5678487
alexnet,1,179,NaN,knife,bird,0,0179_ske_dnn_0_bird_00_bird-1081-sketch-18.png,bird-1081-sketch-18.png,0.0,0.8693478,11.581934,-7.5749426
alexnet,1,180,NaN,knife,bird,0,0180_ske_dnn_0_bird_00_bird-1096-sketch-31.png,bird-1096-sketch-31.png,0.0,1.8708327,6.6133156,-3.353442
alexnet,1,181,NaN,knife,bird,0,0181_ske_dnn_0_bird_00_bird-1148-sketch-32.png,bird-1148-sketch-32.png,0.0,1.5631069,4.3424516,-1.9652934
alexnet,1,182,NaN,bicycle,bird,0,0182_ske_dnn_0_bird_00_bird-1201-sketch-34.png,bird-1201-sketch-34.png,0.0,4.3843784,7.3131266,-2.0709376
alexnet,1,183,NaN,bird,bird,0,0183_ske_dnn_0_bird_00_bird-1342-sketch-24.png,bird-1342-sketch-24.png,1.0,4.7693996,4.1961737,0.40533197
alexnet,1,184,NaN,chair,bird,0,0184_ske_dnn_0_bird_00_bird-1510-sketch-39.png,bird-1510-sketch-39.png,0.0,1.32771,4.534787,-2.267746
alexnet,1,185,NaN,knife,bird,0,0185_ske_dnn_0_bird_00_bird-1562-sketch-40.png,bird-1562-sketch-40.png,0.0,-0.024792753,3.9767778,-2.8295379
alexnet,1,186,NaN,elephant,bird,0,0186_ske_dnn_0_bird_00_bird-1565-sketch-43.png,bird-1565-sketch-43.png,0.0,1.139298,3.6792953,-1.7960494
alexnet,1,187,NaN,bicycle,bird,0,0187_ske_dnn_0_bird_00_bird-1702-sketch-29.png,bird-1702-sketch-29.png,0.0,-1.4754744,3.7195945,-3.6734684
alexnet,1,188,NaN,bird,bird,0,0188_ske_dnn_0_bird_00_bird-1721-sketch-46.png,bird-1721-sketch-46.png,1.0,4.336031,3.5470457,0.55789685
alexnet,1,189,NaN,knife,bird,0,0189_ske_dnn_0_bird_00_bird-1740-sketch-17.png,bird-1740-sketch-17.png,0.0,-0.23415281,4.5593967,-3.3895514
alexnet,1,190,NaN,bottle,bird,0,0190_ske_dnn_0_bird_00_bird-1749-sketch-25.png,bird-1749-sketch-25.png,0.0,-0.7317004,3.9208446,-3.2898462
alexnet,1,191,NaN,chair,bird,0,0191_ske_dnn_0_bird_00_bird-1756-sketch-31.png,bird-1756-sketch-31.png,0.0,0.22103195,4.635885,-3.1217723
alexnet,1,192,NaN,bird,bird,0,0192_ske_dnn_0_bird_00_bird-1860-sketch-33.png,bird-1860-sketch-33.png,1.0,5.095336,4.1184936,0.6907319
alexnet,1,193,NaN,bird,bird,0,0193_ske_dnn_0_bird_00_bird-1937-sketch-10.png,bird-1937-sketch-10.png,1.0,5.1252007,1.8300124,2.3300502
alexnet,1,194,NaN,knife,bird,0,0194_ske_dnn_0_bird_00_bird-1948-sketch-20.png,bird-1948-sketch-20.png,0.0,2.177699,4.004075,-1.2914429
alexnet,1,195,NaN,knife,bird,0,0195_ske_dnn_0_bird_00_bird-2010-sketch-30.png,bird-2010-sketch-30.png,0.0,0.6898679,2.1090724,-1.0035291
alexnet,1,196,NaN,cat,bird,0,0196_ske_dnn_0_bird_00_bird-2169-sketch-36.png,bird-2169-sketch-36.png,0.0,2.4946237,4.996374,-1.7690047
alexnet,1,197,NaN,clock,bird,0,0197_ske_dnn_0_bird_00_bird-2262-sketch-28.png,bird-2262-sketch-28.png,0.0,1.6753943,2.85939,-0.83721143
alexnet,1,198,NaN,clock,bird,0,0198_ske_dnn_0_bird_00_bird-2312-sketch-27.png,bird-2312-sketch-27.png,0.0,3.0149534,5.662214,-1.8718958
alexnet,1,199,NaN,chair,bird,0,0199_ske_dnn_0_bird_00_bird-2313-sketch-28.png,bird-2313-sketch-28.png,0.0,0.46893618,6.2800746,-4.1090956
alexnet,1,200,NaN,bicycle,bird,0,0200_ske_dnn_0_bird_00_bird-2372-sketch-36.png,bird-2372-sketch-36.png,0.0,4.066023,6.9703455,-2.0536664
alexnet,1,201,NaN,bicycle,boat,0,0201_ske_dnn_0_boat_00_boat-0001-sketch-0.png,boat-0001-sketch-0.png,0.0,1.1963012,1.9184624,-0.5106451
alexnet,1,202,NaN,boat,boat,0,0202_ske_dnn_0_boat_00_boat-0002-sketch-1.png,boat-0002-sketch-1.png,1.0,7.7185607,2.1329224,3.9496427
alexnet,1,203,NaN,knife,boat,0,0203_ske_dnn_0_boat_00_boat-0010-sketch-17.png,boat-0010-sketch-17.png,0.0,1.6624155,4.179865,-1.7801056
alexnet,1,204,NaN,oven,boat,0,0204_ske_dnn_0_boat_00_boat-0016-sketch-22.png,boat-0016-sketch-22.png,0.0,0.476379,3.1876173,-1.9171351
alexnet,1,205,NaN,clock,boat,0,0205_ske_dnn_0_boat_00_boat-0029-sketch-34.png,boat-0029-sketch-34.png,0.0,0.0774834,7.51025,-5.25576
alexnet,1,206,NaN,oven,boat,0,0206_ske_dnn_0_boat_00_boat-0034-sketch-39.png,boat-0034-sketch-39.png,0.0,1.0515811,5.188397,-2.9251707
alexnet,1,207,NaN,oven,boat,0,0207_ske_dnn_0_boat_00_boat-0036-sketch-40.png,boat-0036-sketch-40.png,0.0,1.8086584,9.070538,-5.134924
alexnet,1,208,NaN,oven,boat,0,0208_ske_dnn_0_boat_00_boat-0051-sketch-9.png,boat-0051-sketch-9.png,0.0,1.583607,5.251644,-2.593694
alexnet,1,209,NaN,oven,boat,0,0209_ske_dnn_0_boat_00_boat-0052-sketch-0.png,boat-0052-sketch-0.png,0.0,4.111152,8.147664,-2.854245
alexnet,1,210,NaN,boat,boat,0,0210_ske_dnn_0_boat_00_boat-0059-sketch-15.png,boat-0059-sketch-15.png,1.0,5.5946264,4.873783,0.50971323
alexnet,1,211,NaN,keyboard,boat,0,0211_ske_dnn_0_boat_00_boat-0064-sketch-2.png,boat-0064-sketch-2.png,0.0,2.6814547,8.28364,-3.9613433
alexnet,1,212,NaN,airplane,boat,0,0212_ske_dnn_0_boat_00_boat-0065-sketch-20.png,boat-0065-sketch-20.png,0.0,4.652114,9.677208,-3.5532782
alexnet,1,213,NaN,keyboard,boat,0,0213_ske_dnn_0_boat_00_boat-0067-sketch-22.png,boat-0067-sketch-22.png,0.0,1.6369798,5.7043858,-2.8760903
alexnet,1,214,NaN,clock,boat,0,0214_ske_dnn_0_boat_00_boat-0068-sketch-23.png,boat-0068-sketch-23.png,0.0,0.7224167,5.5931067,-3.444098
alexnet,1,215,NaN,bicycle,boat,0,0215_ske_dnn_0_boat_00_boat-0070-sketch-25.png,boat-0070-sketch-25.png,0.0,1.5581799,5.4162474,-2.7280657
alexnet,1,216,NaN,truck,boat,0,0216_ske_dnn_0_boat_00_boat-0074-sketch-29.png,boat-0074-sketch-29.png,0.0,1.3407975,4.012438,-1.8891351
alexnet,1,217,NaN,clock,boat,0,0217_ske_dnn_0_boat_00_boat-0079-sketch-33.png,boat-0079-sketch-33.png,0.0,-0.38504285,4.4912314,-3.4480464
alexnet,1,218,NaN,bicycle,boat,0,0218_ske_dnn_0_boat_00_boat-0080-sketch-34.png,boat-0080-sketch-34.png,0.0,3.5361874,5.9054914,-1.6753509
alexnet,1,219,NaN,chair,boat,0,0219_ske_dnn_0_boat_00_boat-0085-sketch-39.png,boat-0085-sketch-39.png,0.0,2.3914154,4.0108366,-1.1451038
alexnet,1,220,NaN,boat,boat,0,0220_ske_dnn_0_boat_00_boat-0088-sketch-41.png,boat-0088-sketch-41.png,1.0,3.958697,3.1013267,0.60625243
alexnet,1,221,NaN,boat,boat,0,0221_ske_dnn_0_boat_00_boat-0094-sketch-47.png,boat-0094-sketch-47.png,1.0,8.012315,5.169637,2.0100765
alexnet,1,222,NaN,bicycle,boat,0,0222_ske_dnn_0_boat_00_boat-0099-sketch-6.png,boat-0099-sketch-6.png,0.0,3.9973075,6.5867233,-1.8309935
alexnet,1,223,NaN,car,boat,0,0223_ske_dnn_0_boat_00_boat-0107-sketch-12.png,boat-0107-sketch-12.png,0.0,1.9239244,4.1436615,-1.5695912
alexnet,1,224,NaN,keyboard,boat,0,0224_ske_dnn_0_boat_00_boat-0108-sketch-13.png,boat-0108-sketch-13.png,0.0,2.8395352,5.6349115,-1.9766296
alexnet,1,225,NaN,clock,boat,0,0225_ske_dnn_0_boat_00_boat-0110-sketch-15.png,boat-0110-sketch-15.png,0.0,2.048802,3.5434597,-1.0568826
alexnet,1,226,NaN,clock,boat,0,0226_ske_dnn_0_boat_00_boat-0113-sketch-18.png,boat-0113-sketch-18.png,0.0,1.9692316,4.6874003,-1.9220356
alexnet,1,227,NaN,keyboard,boat,0,0227_ske_dnn_0_boat_00_boat-0115-sketch-2.png,boat-0115-sketch-2.png,0.0,2.6461406,3.309472,-0.4690462
alexnet,1,228,NaN,bicycle,boat,0,0228_ske_dnn_0_boat_00_boat-0123-sketch-27.png,boat-0123-sketch-27.png,0.0,3.2130668,4.8325825,-1.1451706
alexnet,1,229,NaN,clock,boat,0,0229_ske_dnn_0_boat_00_boat-0124-sketch-28.png,boat-0124-sketch-28.png,0.0,1.0480675,5.260654,-2.9787486
alexnet,1,230,NaN,clock,boat,0,0230_ske_dnn_0_boat_00_boat-0125-sketch-29.png,boat-0125-sketch-29.png,0.0,-0.77714777,4.4993496,-3.7310472
alexnet,1,231,NaN,keyboard,boat,0,0231_ske_dnn_0_boat_00_boat-0126-sketch-3.png,boat-0126-sketch-3.png,0.0,0.9167932,5.5906773,-3.304935
alexnet,1,232,NaN,oven,boat,0,0232_ske_dnn_0_boat_00_boat-0128-sketch-31.png,boat-0128-sketch-31.png,0.0,-1.5394568,4.5501213,-4.305982
alexnet,1,233,NaN,keyboard,boat,0,0233_ske_dnn_0_boat_00_boat-0130-sketch-33.png,boat-0130-sketch-33.png,0.0,1.1997575,8.935772,-5.470188
alexnet,1,234,NaN,oven,boat,0,0234_ske_dnn_0_boat_00_boat-0132-sketch-35.png,boat-0132-sketch-35.png,0.0,-2.1939092,3.6202927,-4.111262
alexnet,1,235,NaN,oven,boat,0,0235_ske_dnn_0_boat_00_boat-0146-sketch-48.png,boat-0146-sketch-48.png,0.0,-1.2302622,4.6473455,-4.1560965
alexnet,1,236,NaN,keyboard,boat,0,0236_ske_dnn_0_boat_00_boat-0152-sketch-8.png,boat-0152-sketch-8.png,0.0,2.065219,6.8044477,-3.3511407
alexnet,1,237,NaN,knife,boat,0,0237_ske_dnn_0_boat_00_boat-0165-sketch-19.png,boat-0165-sketch-19.png,0.0,-1.2868068,5.625031,-4.8874073
alexnet,1,238,NaN,boat,boat,0,0238_ske_dnn_0_boat_00_boat-0166-sketch-2.png,boat-0166-sketch-2.png,1.0,6.2034783,5.881291,0.22782092
alexnet,1,239,NaN,airplane,boat,0,0239_ske_dnn_0_boat_00_boat-0173-sketch-26.png,boat-0173-sketch-26.png,0.0,6.325198,6.9931493,-0.47231278
alexnet,1,240,NaN,car,boat,0,0240_ske_dnn_0_boat_00_boat-0178-sketch-30.png,boat-0178-sketch-30.png,0.0,-1.4487684,5.1753907,-4.6839876
alexnet,1,241,NaN,bicycle,boat,0,0241_ske_dnn_0_boat_00_boat-0180-sketch-32.png,boat-0180-sketch-32.png,0.0,-0.21448436,4.0069084,-2.9849753
alexnet,1,242,NaN,knife,boat,0,0242_ske_dnn_0_boat_00_boat-0194-sketch-45.png,boat-0194-sketch-45.png,0.0,-0.062210627,3.7911227,-2.724718
alexnet,1,243,NaN,boat,boat,0,0243_ske_dnn_0_boat_00_boat-0197-sketch-48.png,boat-0197-sketch-48.png,1.0,6.0654054,4.745311,0.93344784
alexnet,1,244,NaN,boat,boat,0,0244_ske_dnn_0_boat_00_boat-0212-sketch-15.png,boat-0212-sketch-15.png,1.0,7.438488,4.8560934,1.8260288
alexnet,1,245,NaN,chair,boat,0,0245_ske_dnn_0_boat_00_boat-0228-sketch-3.png,boat-0228-sketch-3.png,0.0,-0.06265752,7.0705495,-5.043939
alexnet,1,246,NaN,clock,boat,0,0246_ske_dnn_0_boat_00_boat-0233-sketch-34.png,boat-0233-sketch-34.png,0.0,1.1019998,5.360128,-3.0109513
alexnet,1,247,NaN,knife,boat,0,0247_ske_dnn_0_boat_00_boat-0234-sketch-35.png,boat-0234-sketch-35.png,0.0,2.0905797,3.040773,-0.67188805
alexnet,1,248,NaN,clock,boat,0,0248_ske_dnn_0_boat_00_boat-0237-sketch-38.png,boat-0237-sketch-38.png,0.0,1.736582,6.1583023,-3.1266286
alexnet,1,249,NaN,bicycle,boat,0,0249_ske_dnn_0_boat_00_boat-0239-sketch-4.png,boat-0239-sketch-4.png,0.0,2.437784,2.782703,-0.24389455
alexnet,1,250,NaN,clock,boat,0,0250_ske_dnn_0_boat_00_boat-0253-sketch-7.png,boat-0253-sketch-7.png,0.0,2.067161,3.7819633,-1.2125484
alexnet,1,251,NaN,bottle,bottle,0,0251_ske_dnn_0_bottle_00_bottle-0002-sketch-1.png,bottle-0002-sketch-1.png,1.0,8.480108,4.788483,2.6103733
alexnet,1,252,NaN,keyboard,bottle,0,0252_ske_dnn_0_bottle_00_bottle-0003-sketch-10.png,bottle-0003-sketch-10.png,0.0,7.1762085,13.894014,-4.750206
alexnet,1,253,NaN,clock,bottle,0,0253_ske_dnn_0_bottle_00_bottle-0019-sketch-25.png,bottle-0019-sketch-25.png,0.0,3.2788737,7.146113,-2.7345512
alexnet,1,254,NaN,clock,bottle,0,0254_ske_dnn_0_bottle_00_bottle-0030-sketch-35.png,bottle-0030-sketch-35.png,0.0,5.648768,8.989642,-2.3623548
alexnet,1,255,NaN,bottle,bottle,0,0255_ske_dnn_0_bottle_00_bottle-0031-sketch-36.png,bottle-0031-sketch-36.png,1.0,10.282152,9.416186,0.6123303
alexnet,1,256,NaN,keyboard,bottle,0,0256_ske_dnn_0_bottle_00_bottle-0038-sketch-42.png,bottle-0038-sketch-42.png,0.0,6.429425,7.249386,-0.57980007
alexnet,1,257,NaN,bottle,bottle,0,0257_ske_dnn_0_bottle_00_bottle-0039-sketch-43.png,bottle-0039-sketch-43.png,1.0,16.80425,4.1521606,8.946379
alexnet,1,258,NaN,keyboard,bottle,0,0258_ske_dnn_0_bottle_00_bottle-0041-sketch-45.png,bottle-0041-sketch-45.png,0.0,4.539172,10.927618,-4.5173135
alexnet,1,259,NaN,bottle,bottle,0,0259_ske_dnn_0_bottle_00_bottle-0045-sketch-49.png,bottle-0045-sketch-49.png,1.0,4.7598863,4.651441,0.076682314
alexnet,1,260,NaN,bottle,bottle,0,0260_ske_dnn_0_bottle_00_bottle-0050-sketch-9.png,bottle-0050-sketch-9.png,1.0,10.966733,9.464413,1.0623009
alexnet,1,261,NaN,bottle,bottle,0,0261_ske_dnn_0_bottle_00_bottle-0054-sketch-11.png,bottle-0054-sketch-11.png,1.0,7.0486,5.143102,1.3473907
alexnet,1,262,NaN,keyboard,bottle,0,0262_ske_dnn_0_bottle_00_bottle-0066-sketch-22.png,bottle-0066-sketch-22.png,0.0,7.027843,7.4214354,-0.27831182
alexnet,1,263,NaN,knife,bottle,0,0263_ske_dnn_0_bottle_00_bottle-0071-sketch-27.png,bottle-0071-sketch-27.png,0.0,1.906112,4.732785,-1.9987599
alexnet,1,264,NaN,clock,bottle,0,0264_ske_dnn_0_bottle_00_bottle-0082-sketch-37.png,bottle-0082-sketch-37.png,0.0,3.188432,5.493612,-1.6300083
alexnet,1,265,NaN,bottle,bottle,0,0265_ske_dnn_0_bottle_00_bottle-0086-sketch-40.png,bottle-0086-sketch-40.png,1.0,8.590929,7.769147,0.5810877
alexnet,1,266,NaN,clock,bottle,0,0266_ske_dnn_0_bottle_00_bottle-0090-sketch-44.png,bottle-0090-sketch-44.png,0.0,4.5103707,4.7473207,-0.1675489
alexnet,1,267,NaN,clock,bottle,0,0267_ske_dnn_0_bottle_00_bottle-0097-sketch-50.png,bottle-0097-sketch-50.png,0.0,1.2100841,4.1463647,-2.0762641
alexnet,1,268,NaN,bicycle,bottle,0,0268_ske_dnn_0_bottle_00_bottle-0107-sketch-13.png,bottle-0107-sketch-13.png,0.0,1.6430563,8.034193,-4.519216
alexnet,1,269,NaN,bicycle,bottle,0,0269_ske_dnn_0_bottle_00_bottle-0114-sketch-2.png,bottle-0114-sketch-2.png,0.0,1.2185581,4.243947,-2.1392732
alexnet,1,270,NaN,knife,bottle,0,0270_ske_dnn_0_bottle_00_bottle-0126-sketch-30.png,bottle-0126-sketch-30.png,0.0,2.8633897,4.503443,-1.1596926
alexnet,1,271,NaN,bottle,bottle,0,0271_ske_dnn_0_bottle_00_bottle-0130-sketch-34.png,bottle-0130-sketch-34.png,1.0,7.9609184,7.0452576,0.64747
alexnet,1,272,NaN,clock,bottle,0,0272_ske_dnn_0_bottle_00_bottle-0131-sketch-35.png,bottle-0131-sketch-35.png,0.0,0.58778393,5.059257,-3.1618092
alexnet,1,273,NaN,bicycle,bottle,0,0273_ske_dnn_0_bottle_00_bottle-0133-sketch-37.png,bottle-0133-sketch-37.png,0.0,2.4935982,5.320011,-1.9985758
alexnet,1,274,NaN,knife,bottle,0,0274_ske_dnn_0_bottle_00_bottle-0135-sketch-39.png,bottle-0135-sketch-39.png,0.0,0.74534786,3.664565,-2.0641983
alexnet,1,275,NaN,keyboard,bottle,0,0275_ske_dnn_0_bottle_00_bottle-0143-sketch-46.png,bottle-0143-sketch-46.png,0.0,4.394668,7.35595,-2.0939424
alexnet,1,276,NaN,bottle,bottle,0,0276_ske_dnn_0_bottle_00_bottle-0145-sketch-48.png,bottle-0145-sketch-48.png,1.0,5.9019313,3.6521924,1.5908056
alexnet,1,277,NaN,bottle,bottle,0,0277_ske_dnn_0_bottle_00_bottle-0150-sketch-7.png,bottle-0150-sketch-7.png,1.0,6.0984416,4.9223547,0.831619
alexnet,1,278,NaN,knife,bottle,0,0278_ske_dnn_0_bottle_00_bottle-0162-sketch-17.png,bottle-0162-sketch-17.png,0.0,3.2033331,5.034136,-1.2945731
alexnet,1,279,NaN,clock,bottle,0,0279_ske_dnn_0_bottle_00_bottle-0165-sketch-2.png,bottle-0165-sketch-2.png,0.0,4.05555,8.781848,-3.3419974
alexnet,1,280,NaN,knife,bottle,0,0280_ske_dnn_0_bottle_00_bottle-0184-sketch-37.png,bottle-0184-sketch-37.png,0.0,5.730294,9.213534,-2.4630227
alexnet,1,281,NaN,clock,bottle,0,0281_ske_dnn_0_bottle_00_bottle-0185-sketch-38.png,bottle-0185-sketch-38.png,0.0,6.36768,8.8616705,-1.7635176
alexnet,1,282,NaN,clock,bottle,0,0282_ske_dnn_0_bottle_00_bottle-0189-sketch-41.png,bottle-0189-sketch-41.png,0.0,2.8543515,3.670656,-0.5772144
alexnet,1,283,NaN,bottle,bottle,0,0283_ske_dnn_0_bottle_00_bottle-0202-sketch-8.png,bottle-0202-sketch-8.png,1.0,5.31387,4.399587,0.6464956
alexnet,1,284,NaN,clock,bottle,0,0284_ske_dnn_0_bottle_00_bottle-0207-sketch-11.png,bottle-0207-sketch-11.png,0.0,3.744114,4.336004,-0.41852933
alexnet,1,285,NaN,clock,bottle,0,0285_ske_dnn_0_bottle_00_bottle-0215-sketch-19.png,bottle-0215-sketch-19.png,0.0,2.9213357,4.5342493,-1.1405022
alexnet,1,286,NaN,knife,bottle,0,0286_ske_dnn_0_bottle_00_bottle-0217-sketch-20.png,bottle-0217-sketch-20.png,0.0,2.9152982,5.2873564,-1.6772984
alexnet,1,287,NaN,knife,bottle,0,0287_ske_dnn_0_bottle_00_bottle-0237-sketch-39.png,bottle-0237-sketch-39.png,0.0,4.9117317,8.93475,-2.8447032
alexnet,1,288,NaN,clock,bottle,0,0288_ske_dnn_0_bottle_00_bottle-0243-sketch-44.png,bottle-0243-sketch-44.png,0.0,2.1770132,4.257238,-1.4709411
alexnet,1,289,NaN,bottle,bottle,0,0289_ske_dnn_0_bottle_00_bottle-0245-sketch-46.png,bottle-0245-sketch-46.png,1.0,8.437354,5.1999445,2.2891943
alexnet,1,290,NaN,bottle,bottle,0,0290_ske_dnn_0_bottle_00_bottle-0268-sketch-20.png,bottle-0268-sketch-20.png,1.0,13.097617,6.394304,4.7399583
alexnet,1,291,NaN,bottle,bottle,0,0291_ske_dnn_0_bottle_00_bottle-0280-sketch-31.png,bottle-0280-sketch-31.png,1.0,11.152761,4.6431355,4.6030006
alexnet,1,292,NaN,clock,bottle,0,0292_ske_dnn_0_bottle_00_bottle-0292-sketch-42.png,bottle-0292-sketch-42.png,0.0,8.452533,9.168111,-0.50599015
alexnet,1,293,NaN,bottle,bottle,0,0293_ske_dnn_0_bottle_00_bottle-0294-sketch-44.png,bottle-0294-sketch-44.png,1.0,5.0541754,3.7448003,0.925868
alexnet,1,294,NaN,clock,bottle,0,0294_ske_dnn_0_bottle_00_bottle-0296-sketch-46.png,bottle-0296-sketch-46.png,0.0,6.0043945,6.040592,-0.025595613
alexnet,1,295,NaN,clock,bottle,0,0295_ske_dnn_0_bottle_00_bottle-0301-sketch-50.png,bottle-0301-sketch-50.png,0.0,4.467192,5.530247,-0.7516934
alexnet,1,296,NaN,keyboard,bottle,0,0296_ske_dnn_0_bottle_00_bottle-0305-sketch-9.png,bottle-0305-sketch-9.png,0.0,4.444168,7.643774,-2.262463
alexnet,1,297,NaN,bottle,bottle,0,0297_ske_dnn_0_bottle_00_bottle-0313-sketch-15.png,bottle-0313-sketch-15.png,1.0,9.370021,6.027514,2.3635094
alexnet,1,298,NaN,bottle,bottle,0,0298_ske_dnn_0_bottle_00_bottle-0321-sketch-22.png,bottle-0321-sketch-22.png,1.0,7.7152023,6.2801533,1.014733
alexnet,1,299,NaN,bottle,bottle,0,0299_ske_dnn_0_bottle_00_bottle-0330-sketch-30.png,bottle-0330-sketch-30.png,1.0,8.802378,7.616366,0.838637
alexnet,1,300,NaN,bottle,bottle,0,0300_ske_dnn_0_bottle_00_bottle-0338-sketch-38.png,bottle-0338-sketch-38.png,1.0,7.488736,3.7678053,2.6310954
alexnet,1,301,NaN,truck,car,0,0301_ske_dnn_0_car_00_car-0002-sketch-1.png,car-0002-sketch-1.png,0.0,4.720353,8.494823,-2.6689537
alexnet,1,302,NaN,chair,car,0,0302_ske_dnn_0_car_00_car-0004-sketch-11.png,car-0004-sketch-11.png,0.0,4.03,5.002897,-0.6879418
alexnet,1,303,NaN,truck,car,0,0303_ske_dnn_0_car_00_car-0005-sketch-12.png,car-0005-sketch-12.png,0.0,6.4915633,9.777147,-2.3232586
alexnet,1,304,NaN,bicycle,car,0,0304_ske_dnn_0_car_00_car-0009-sketch-16.png,car-0009-sketch-16.png,0.0,2.8528337,6.2764363,-2.4208527
alexnet,1,305,NaN,oven,car,0,0305_ske_dnn_0_car_00_car-0013-sketch-2.png,car-0013-sketch-2.png,0.0,7.1116924,8.679152,-1.108361
alexnet,1,306,NaN,clock,car,0,0306_ske_dnn_0_car_00_car-0014-sketch-20.png,car-0014-sketch-20.png,0.0,2.4968565,5.5997987,-2.1941116
alexnet,1,307,NaN,bicycle,car,0,0307_ske_dnn_0_car_00_car-0017-sketch-23.png,car-0017-sketch-23.png,0.0,0.967846,6.0259895,-3.5766478
alexnet,1,308,NaN,oven,car,0,0308_ske_dnn_0_car_00_car-0018-sketch-24.png,car-0018-sketch-24.png,0.0,6.9787135,10.871469,-2.7525935
alexnet,1,309,NaN,bicycle,car,0,0309_ske_dnn_0_car_00_car-0021-sketch-27.png,car-0021-sketch-27.png,0.0,0.6922235,4.949271,-3.0101874
alexnet,1,310,NaN,clock,car,0,0310_ske_dnn_0_car_00_car-0022-sketch-28.png,car-0022-sketch-28.png,0.0,1.757034,6.441576,-3.3124716
alexnet,1,311,NaN,car,car,0,0311_ske_dnn_0_car_00_car-0024-sketch-3.png,car-0024-sketch-3.png,1.0,14.89194,6.079685,6.2312055
alexnet,1,312,NaN,clock,car,0,0312_ske_dnn_0_car_00_car-0025-sketch-30.png,car-0025-sketch-30.png,0.0,-0.93629855,6.2430305,-5.0765524
alexnet,1,313,NaN,bicycle,car,0,0313_ske_dnn_0_car_00_car-0029-sketch-34.png,car-0029-sketch-34.png,0.0,0.3796946,4.390292,-2.8359208
alexnet,1,314,NaN,oven,car,0,0314_ske_dnn_0_car_00_car-0030-sketch-35.png,car-0030-sketch-35.png,0.0,7.419111,8.582007,-0.8222921
alexnet,1,315,NaN,oven,car,0,0315_ske_dnn_0_car_00_car-0032-sketch-37.png,car-0032-sketch-37.png,0.0,4.794266,6.5573406,-1.2466819
alexnet,1,316,NaN,oven,car,0,0316_ske_dnn_0_car_00_car-0034-sketch-39.png,car-0034-sketch-39.png,0.0,2.4393299,5.918652,-2.4602523
alexnet,1,317,NaN,clock,car,0,0317_ske_dnn_0_car_00_car-0040-sketch-44.png,car-0040-sketch-44.png,0.0,3.6695168,5.169839,-1.0608879
alexnet,1,318,NaN,car,car,0,0318_ske_dnn_0_car_00_car-0043-sketch-47.png,car-0043-sketch-47.png,1.0,14.89194,6.079685,6.2312055
alexnet,1,319,NaN,car,car,0,0319_ske_dnn_0_car_00_car-0044-sketch-48.png,car-0044-sketch-48.png,1.0,15.124141,6.5033517,6.095818
alexnet,1,320,NaN,bicycle,car,0,0320_ske_dnn_0_car_00_car-0045-sketch-49.png,car-0045-sketch-49.png,0.0,3.471906,6.92268,-2.4400656
alexnet,1,321,NaN,clock,car,0,0321_ske_dnn_0_car_00_car-0047-sketch-50.png,car-0047-sketch-50.png,0.0,4.2080617,5.2249026,-0.7190151
alexnet,1,322,NaN,clock,car,0,0322_ske_dnn_0_car_00_car-0050-sketch-8.png,car-0050-sketch-8.png,0.0,-0.36248896,6.142847,-4.599967
alexnet,1,323,NaN,clock,car,0,0323_ske_dnn_0_car_00_car-0052-sketch-0.png,car-0052-sketch-0.png,0.0,1.6435227,3.853384,-1.5626079
alexnet,1,324,NaN,car,car,0,0324_ske_dnn_0_car_00_car-0055-sketch-11.png,car-0055-sketch-11.png,1.0,7.1646123,5.0963674,1.46247
alexnet,1,325,NaN,knife,car,0,0325_ske_dnn_0_car_00_car-0064-sketch-2.png,car-0064-sketch-2.png,0.0,1.7178111,6.046136,-3.060588
alexnet,1,326,NaN,car,car,0,0326_ske_dnn_0_car_00_car-0069-sketch-24.png,car-0069-sketch-24.png,1.0,8.177512,7.5691385,0.43018514
alexnet,1,327,NaN,car,car,0,0327_ske_dnn_0_car_00_car-0076-sketch-30.png,car-0076-sketch-30.png,1.0,7.737746,4.335219,2.4059498
alexnet,1,328,NaN,oven,car,0,0328_ske_dnn_0_car_00_car-0079-sketch-33.png,car-0079-sketch-33.png,0.0,0.8394856,8.205126,-5.2082944
alexnet,1,329,NaN,clock,car,0,0329_ske_dnn_0_car_00_car-0083-sketch-37.png,car-0083-sketch-37.png,0.0,4.6119957,7.716142,-2.194963
alexnet,1,330,NaN,bicycle,car,0,0330_ske_dnn_0_car_00_car-0092-sketch-45.png,car-0092-sketch-45.png,0.0,0.11995951,7.269394,-5.0554137
alexnet,1,331,NaN,car,car,0,0331_ske_dnn_0_car_00_car-0096-sketch-49.png,car-0096-sketch-49.png,1.0,11.2547035,7.6350303,2.5594954
alexnet,1,332,NaN,knife,car,0,0332_ske_dnn_0_car_00_car-0098-sketch-50.png,car-0098-sketch-50.png,0.0,2.631191,5.528534,-2.0487309
alexnet,1,333,NaN,car,car,0,0333_ske_dnn_0_car_00_car-0100-sketch-7.png,car-0100-sketch-7.png,1.0,9.507295,6.907975,1.8379965
alexnet,1,334,NaN,car,car,0,0334_ske_dnn_0_car_00_car-0112-sketch-17.png,car-0112-sketch-17.png,1.0,12.183121,6.9045873,3.732487
alexnet,1,335,NaN,bicycle,car,0,0335_ske_dnn_0_car_00_car-0114-sketch-19.png,car-0114-sketch-19.png,0.0,5.4776654,5.9077806,-0.3041374
alexnet,1,336,NaN,car,car,0,0336_ske_dnn_0_car_00_car-0116-sketch-20.png,car-0116-sketch-20.png,1.0,8.091622,5.6030045,1.7597187
alexnet,1,337,NaN,bicycle,car,0,0337_ske_dnn_0_car_00_car-0117-sketch-21.png,car-0117-sketch-21.png,0.0,5.137509,5.6100416,-0.33413112
alexnet,1,338,NaN,car,car,0,0338_ske_dnn_0_car_00_car-0120-sketch-24.png,car-0120-sketch-24.png,1.0,5.730206,5.6882267,0.029683858
alexnet,1,339,NaN,car,car,0,0339_ske_dnn_0_car_00_car-0122-sketch-26.png,car-0122-sketch-26.png,1.0,5.5368094,5.199435,0.23855959
alexnet,1,340,NaN,clock,car,0,0340_ske_dnn_0_car_00_car-0124-sketch-28.png,car-0124-sketch-28.png,0.0,3.76326,4.858906,-0.77473867
alexnet,1,341,NaN,car,car,0,0341_ske_dnn_0_car_00_car-0125-sketch-29.png,car-0125-sketch-29.png,1.0,10.866265,5.7917466,3.5882266
alexnet,1,342,NaN,clock,car,0,0342_ske_dnn_0_car_00_car-0129-sketch-32.png,car-0129-sketch-32.png,0.0,1.8607731,5.553646,-2.6112556
alexnet,1,343,NaN,car,car,0,0343_ske_dnn_0_car_00_car-0132-sketch-35.png,car-0132-sketch-35.png,1.0,9.886535,4.9897356,3.46256
alexnet,1,344,NaN,oven,car,0,0344_ske_dnn_0_car_00_car-0136-sketch-39.png,car-0136-sketch-39.png,0.0,3.4222517,4.1231565,-0.4956146
alexnet,1,345,NaN,car,car,0,0345_ske_dnn_0_car_00_car-0138-sketch-40.png,car-0138-sketch-40.png,1.0,9.008176,7.714016,0.9151093
alexnet,1,346,NaN,car,car,0,0346_ske_dnn_0_car_00_car-0139-sketch-41.png,car-0139-sketch-41.png,1.0,7.518482,4.4863844,2.144017
alexnet,1,347,NaN,clock,car,0,0347_ske_dnn_0_car_00_car-0143-sketch-45.png,car-0143-sketch-45.png,0.0,4.5572643,4.732145,-0.12365919
alexnet,1,348,NaN,car,car,0,0348_ske_dnn_0_car_00_car-0145-sketch-47.png,car-0145-sketch-47.png,1.0,5.0636654,3.3932323,1.1811745
alexnet,1,349,NaN,car,car,0,0349_ske_dnn_0_car_00_car-0151-sketch-7.png,car-0151-sketch-7.png,1.0,11.630437,6.475651,3.6449842
alexnet,1,350,NaN,clock,car,0,0350_ske_dnn_0_car_00_car-0153-sketch-9.png,car-0153-sketch-9.png,0.0,6.28908,6.6455817,-0.2520847
alexnet,1,351,NaN,cat,cat,0,0351_ske_dnn_0_cat_00_cat-0002-sketch-1.png,cat-0002-sketch-1.png,1.0,10.17357,5.511724,3.2964227
alexnet,1,352,NaN,cat,cat,0,0352_ske_dnn_0_cat_00_cat-0009-sketch-16.png,cat-0009-sketch-16.png,1.0,9.786518,3.9218197,4.146968
alexnet,1,353,NaN,knife,cat,0,0353_ske_dnn_0_cat_00_cat-0011-sketch-18.png,cat-0011-sketch-18.png,0.0,2.7304919,4.1979523,-1.0376512
alexnet,1,354,NaN,cat,cat,0,0354_ske_dnn_0_cat_00_cat-0015-sketch-21.png,cat-0015-sketch-21.png,1.0,9.958112,1.8550004,5.729765
alexnet,1,355,NaN,cat,cat,0,0355_ske_dnn_0_cat_00_cat-0016-sketch-22.png,cat-0016-sketch-22.png,1.0,9.778728,3.4628737,4.4659834
alexnet,1,356,NaN,cat,cat,0,0356_ske_dnn_0_cat_00_cat-0021-sketch-27.png,cat-0021-sketch-27.png,1.0,6.467918,2.6075463,2.729695
alexnet,1,357,NaN,cat,cat,0,0357_ske_dnn_0_cat_00_cat-0027-sketch-32.png,cat-0027-sketch-32.png,1.0,4.5181813,4.316108,0.14288726
alexnet,1,358,NaN,clock,cat,0,0358_ske_dnn_0_cat_00_cat-0042-sketch-46.png,cat-0042-sketch-46.png,0.0,6.9905925,8.534332,-1.0915889
alexnet,1,359,NaN,cat,cat,0,0359_ske_dnn_0_cat_00_cat-0043-sketch-47.png,cat-0043-sketch-47.png,1.0,7.4726415,4.81929,1.8762027
alexnet,1,360,NaN,cat,cat,0,0360_ske_dnn_0_cat_00_cat-0044-sketch-48.png,cat-0044-sketch-48.png,1.0,7.0243416,2.63769,3.1018312
alexnet,1,361,NaN,cat,cat,0,0361_ske_dnn_0_cat_00_cat-0048-sketch-7.png,cat-0048-sketch-7.png,1.0,9.228561,1.6241262,5.3771477
alexnet,1,362,NaN,cat,cat,0,0362_ske_dnn_0_cat_00_cat-0052-sketch-1.png,cat-0052-sketch-1.png,1.0,11.971379,6.1966133,4.0833764
alexnet,1,363,NaN,clock,cat,0,0363_ske_dnn_0_cat_00_cat-0053-sketch-10.png,cat-0053-sketch-10.png,0.0,1.9986643,2.3667574,-0.26028115
alexnet,1,364,NaN,bottle,cat,0,0364_ske_dnn_0_cat_00_cat-0059-sketch-16.png,cat-0059-sketch-16.png,0.0,-0.98101425,3.8708358,-3.4307761
alexnet,1,365,NaN,knife,cat,0,0365_ske_dnn_0_cat_00_cat-0062-sketch-19.png,cat-0062-sketch-19.png,0.0,1.8876485,6.687255,-3.3938344
alexnet,1,366,NaN,cat,cat,0,0366_ske_dnn_0_cat_00_cat-0067-sketch-23.png,cat-0067-sketch-23.png,1.0,4.4637694,2.5069642,1.3836703
alexnet,1,367,NaN,chair,cat,0,0367_ske_dnn_0_cat_00_cat-0073-sketch-29.png,cat-0073-sketch-29.png,0.0,0.38471207,5.5233393,-3.633558
alexnet,1,368,NaN,chair,cat,0,0368_ske_dnn_0_cat_00_cat-0082-sketch-37.png,cat-0082-sketch-37.png,0.0,1.246181,5.264556,-2.8414202
alexnet,1,369,NaN,chair,cat,0,0369_ske_dnn_0_cat_00_cat-0085-sketch-4.png,cat-0085-sketch-4.png,0.0,4.190948,6.396064,-1.5592524
alexnet,1,370,NaN,chair,cat,0,0370_ske_dnn_0_cat_00_cat-0090-sketch-44.png,cat-0090-sketch-44.png,0.0,3.8420038,6.9759765,-2.2160532
alexnet,1,371,NaN,bear,cat,0,0371_ske_dnn_0_cat_00_cat-0104-sketch-10.png,cat-0104-sketch-10.png,0.0,2.0550394,3.955779,-1.344026
alexnet,1,372,NaN,clock,cat,0,0372_ske_dnn_0_cat_00_cat-0124-sketch-29.png,cat-0124-sketch-29.png,0.0,1.8031192,5.609852,-2.6917665
alexnet,1,373,NaN,cat,cat,0,0373_ske_dnn_0_cat_00_cat-0128-sketch-32.png,cat-0128-sketch-32.png,1.0,11.158881,4.7027926,4.565144
alexnet,1,374,NaN,knife,cat,0,0374_ske_dnn_0_cat_00_cat-0134-sketch-38.png,cat-0134-sketch-38.png,0.0,2.1902683,4.4354105,-1.5875553
alexnet,1,375,NaN,cat,cat,0,0375_ske_dnn_0_cat_00_cat-0140-sketch-43.png,cat-0140-sketch-43.png,1.0,10.40143,7.972791,1.7173071
alexnet,1,376,NaN,cat,cat,0,0376_ske_dnn_0_cat_00_cat-0149-sketch-6.png,cat-0149-sketch-6.png,1.0,6.1859374,4.438524,1.2356081
alexnet,1,377,NaN,cat,cat,0,0377_ske_dnn_0_cat_00_cat-0150-sketch-7.png,cat-0150-sketch-7.png,1.0,6.074169,5.7852283,0.20431207
alexnet,1,378,NaN,clock,cat,0,0378_ske_dnn_0_cat_00_cat-0152-sketch-9.png,cat-0152-sketch-9.png,0.0,-0.67590666,3.7943115,-3.1609216
alexnet,1,379,NaN,chair,cat,0,0379_ske_dnn_0_cat_00_cat-0158-sketch-13.png,cat-0158-sketch-13.png,0.0,-1.1132745,5.016197,-4.3341913
alexnet,1,380,NaN,cat,cat,0,0380_ske_dnn_0_cat_00_cat-0160-sketch-15.png,cat-0160-sketch-15.png,1.0,7.629891,3.6601713,2.8070157
alexnet,1,381,NaN,cat,cat,0,0381_ske_dnn_0_cat_00_cat-0175-sketch-29.png,cat-0175-sketch-29.png,1.0,7.918904,4.2554617,2.5904448
alexnet,1,382,NaN,clock,cat,0,0382_ske_dnn_0_cat_00_cat-0207-sketch-11.png,cat-0207-sketch-11.png,0.0,-1.0131567,4.8191104,-4.1240354
alexnet,1,383,NaN,clock,cat,0,0383_ske_dnn_0_cat_00_cat-0229-sketch-31.png,cat-0229-sketch-31.png,0.0,-1.456767,4.5952716,-4.2794375
alexnet,1,384,NaN,clock,cat,0,0384_ske_dnn_0_cat_00_cat-0233-sketch-35.png,cat-0233-sketch-35.png,0.0,-1.0131567,4.8191104,-4.1240354
alexnet,1,385,NaN,clock,cat,0,0385_ske_dnn_0_cat_00_cat-0241-sketch-42.png,cat-0241-sketch-42.png,0.0,-1.8063718,3.8847458,-4.024228
alexnet,1,386,NaN,clock,cat,0,0386_ske_dnn_0_cat_00_cat-0245-sketch-46.png,cat-0245-sketch-46.png,0.0,-1.0571028,4.9969234,-4.280843
alexnet,1,387,NaN,clock,cat,0,0387_ske_dnn_0_cat_00_cat-0250-sketch-50.png,cat-0250-sketch-50.png,0.0,-0.4200301,4.881222,-3.7485511
alexnet,1,388,NaN,clock,cat,0,0388_ske_dnn_0_cat_00_cat-0251-sketch-6.png,cat-0251-sketch-6.png,0.0,-1.8063718,3.8847458,-4.024228
alexnet,1,389,NaN,cat,cat,0,0389_ske_dnn_0_cat_00_cat-0258-sketch-11.png,cat-0258-sketch-11.png,1.0,10.6030655,2.8235116,5.5009756
alexnet,1,390,NaN,knife,cat,0,0390_ske_dnn_0_cat_00_cat-0260-sketch-13.png,cat-0260-sketch-13.png,0.0,-2.2397187,6.064451,-5.871935
alexnet,1,391,NaN,oven,cat,0,0391_ske_dnn_0_cat_00_cat-0264-sketch-17.png,cat-0264-sketch-17.png,0.0,0.7108105,6.8450537,-4.337565
alexnet,1,392,NaN,cat,cat,0,0392_ske_dnn_0_cat_00_cat-0265-sketch-18.png,cat-0265-sketch-18.png,1.0,5.0776515,3.1176293,1.385945
alexnet,1,393,NaN,knife,cat,0,0393_ske_dnn_0_cat_00_cat-0269-sketch-21.png,cat-0269-sketch-21.png,0.0,4.2563725,5.602864,-0.95211315
alexnet,1,394,NaN,cat,cat,0,0394_ske_dnn_0_cat_00_cat-0274-sketch-26.png,cat-0274-sketch-26.png,1.0,3.8861363,3.3572218,0.373999
alexnet,1,395,NaN,bottle,cat,0,0395_ske_dnn_0_cat_00_cat-0279-sketch-30.png,cat-0279-sketch-30.png,0.0,0.42617643,3.0839467,-1.8793273
alexnet,1,396,NaN,knife,cat,0,0396_ske_dnn_0_cat_00_cat-0289-sketch-4.png,cat-0289-sketch-4.png,0.0,-0.180588,4.2289953,-3.118046
alexnet,1,397,NaN,cat,cat,0,0397_ske_dnn_0_cat_00_cat-0293-sketch-43.png,cat-0293-sketch-43.png,1.0,6.469963,1.7911333,3.3084323
alexnet,1,398,NaN,cat,cat,0,0398_ske_dnn_0_cat_00_cat-0295-sketch-45.png,cat-0295-sketch-45.png,1.0,8.485774,2.7694142,4.042077
alexnet,1,399,NaN,cat,cat,0,0399_ske_dnn_0_cat_00_cat-0302-sketch-6.png,cat-0302-sketch-6.png,1.0,10.070027,2.4959712,5.3556666
alexnet,1,400,NaN,cat,cat,0,0400_ske_dnn_0_cat_00_cat-0304-sketch-8.png,cat-0304-sketch-8.png,1.0,11.349934,1.9011244,6.6813173
alexnet,1,401,NaN,clock,chair,0,0401_ske_dnn_0_chair_00_chair-0002-sketch-1.png,chair-0002-sketch-1.png,0.0,4.5358872,5.672567,-0.8037539
alexnet,1,402,NaN,chair,chair,0,0402_ske_dnn_0_chair_00_chair-0005-sketch-12.png,chair-0005-sketch-12.png,1.0,10.160846,5.5457363,3.2633753
alexnet,1,403,NaN,chair,chair,0,0403_ske_dnn_0_chair_00_chair-0006-sketch-13.png,chair-0006-sketch-13.png,1.0,7.6720505,6.0156693,1.1712383
alexnet,1,404,NaN,chair,chair,0,0404_ske_dnn_0_chair_00_chair-0011-sketch-18.png,chair-0011-sketch-18.png,1.0,7.2475204,6.9154015,0.2348436
alexnet,1,405,NaN,clock,chair,0,0405_ske_dnn_0_chair_00_chair-0013-sketch-2.png,chair-0013-sketch-2.png,0.0,4.4983015,7.3313212,-2.0032475
alexnet,1,406,NaN,chair,chair,0,0406_ske_dnn_0_chair_00_chair-0014-sketch-20.png,chair-0014-sketch-20.png,1.0,10.275776,7.5350537,1.9379833
alexnet,1,407,NaN,chair,chair,0,0407_ske_dnn_0_chair_00_chair-0017-sketch-23.png,chair-0017-sketch-23.png,1.0,4.76219,4.747743,0.010215385
alexnet,1,408,NaN,chair,chair,0,0408_ske_dnn_0_chair_00_chair-0029-sketch-34.png,chair-0029-sketch-34.png,1.0,7.2753363,6.2194166,0.74664795
alexnet,1,409,NaN,clock,chair,0,0409_ske_dnn_0_chair_00_chair-0034-sketch-39.png,chair-0034-sketch-39.png,0.0,4.6595078,6.925365,-1.602203
alexnet,1,410,NaN,chair,chair,0,0410_ske_dnn_0_chair_00_chair-0040-sketch-44.png,chair-0040-sketch-44.png,1.0,11.971312,5.7062297,4.430082
alexnet,1,411,NaN,chair,chair,0,0411_ske_dnn_0_chair_00_chair-0051-sketch-9.png,chair-0051-sketch-9.png,1.0,9.961201,7.885938,1.4674323
alexnet,1,412,NaN,oven,chair,0,0412_ske_dnn_0_chair_00_chair-0052-sketch-0.png,chair-0052-sketch-0.png,0.0,5.458107,9.817463,-3.0825303
alexnet,1,413,NaN,chair,chair,0,0413_ske_dnn_0_chair_00_chair-0055-sketch-11.png,chair-0055-sketch-11.png,1.0,5.5018077,4.9681406,0.37735963
alexnet,1,414,NaN,chair,chair,0,0414_ske_dnn_0_chair_00_chair-0060-sketch-16.png,chair-0060-sketch-16.png,1.0,7.654903,5.171024,1.7563678
alexnet,1,415,NaN,chair,chair,0,0415_ske_dnn_0_chair_00_chair-0062-sketch-18.png,chair-0062-sketch-18.png,1.0,13.645541,9.080766,3.2277837
alexnet,1,416,NaN,chair,chair,0,0416_ske_dnn_0_chair_00_chair-0063-sketch-19.png,chair-0063-sketch-19.png,1.0,7.222466,6.8275075,0.27927783
alexnet,1,417,NaN,clock,chair,0,0417_ske_dnn_0_chair_00_chair-0064-sketch-2.png,chair-0064-sketch-2.png,0.0,4.567014,4.8290224,-0.18526778
alexnet,1,418,NaN,clock,chair,0,0418_ske_dnn_0_chair_00_chair-0066-sketch-21.png,chair-0066-sketch-21.png,0.0,2.847503,3.3983061,-0.3894767
alexnet,1,419,NaN,chair,chair,0,0419_ske_dnn_0_chair_00_chair-0067-sketch-22.png,chair-0067-sketch-22.png,1.0,7.070895,5.8904214,0.834721
alexnet,1,420,NaN,oven,chair,0,0420_ske_dnn_0_chair_00_chair-0071-sketch-26.png,chair-0071-sketch-26.png,0.0,9.869825,11.071892,-0.84998935
alexnet,1,421,NaN,chair,chair,0,0421_ske_dnn_0_chair_00_chair-0072-sketch-27.png,chair-0072-sketch-27.png,1.0,13.542656,12.522643,0.72125804
alexnet,1,422,NaN,chair,chair,0,0422_ske_dnn_0_chair_00_chair-0076-sketch-30.png,chair-0076-sketch-30.png,1.0,13.515949,7.7753763,4.059198
alexnet,1,423,NaN,chair,chair,0,0423_ske_dnn_0_chair_00_chair-0079-sketch-33.png,chair-0079-sketch-33.png,1.0,14.928316,11.448168,2.4608364
alexnet,1,424,NaN,clock,chair,0,0424_ske_dnn_0_chair_00_chair-0083-sketch-37.png,chair-0083-sketch-37.png,0.0,4.3741493,4.7956333,-0.2980342
alexnet,1,425,NaN,chair,chair,0,0425_ske_dnn_0_chair_00_chair-0088-sketch-41.png,chair-0088-sketch-41.png,1.0,6.640632,6.5501885,0.063953295
alexnet,1,426,NaN,oven,chair,0,0426_ske_dnn_0_chair_00_chair-0094-sketch-47.png,chair-0094-sketch-47.png,0.0,11.057003,12.103175,-0.73975545
alexnet,1,427,NaN,knife,chair,0,0427_ske_dnn_0_chair_00_chair-0105-sketch-11.png,chair-0105-sketch-11.png,0.0,1.1785097,3.441267,-1.6000111
alexnet,1,428,NaN,chair,chair,0,0428_ske_dnn_0_chair_00_chair-0118-sketch-23.png,chair-0118-sketch-23.png,1.0,10.423473,6.9301043,2.470185
alexnet,1,429,NaN,chair,chair,0,0429_ske_dnn_0_chair_00_chair-0122-sketch-27.png,chair-0122-sketch-27.png,1.0,11.162942,6.5551887,3.2581737
alexnet,1,430,NaN,clock,chair,0,0430_ske_dnn_0_chair_00_chair-0124-sketch-29.png,chair-0124-sketch-29.png,0.0,4.685051,4.8302684,-0.10268422
alexnet,1,431,NaN,chair,chair,0,0431_ske_dnn_0_chair_00_chair-0125-sketch-3.png,chair-0125-sketch-3.png,1.0,8.218497,7.112045,0.78238004
alexnet,1,432,NaN,chair,chair,0,0432_ske_dnn_0_chair_00_chair-0127-sketch-31.png,chair-0127-sketch-31.png,1.0,9.351055,4.776735,3.234533
alexnet,1,433,NaN,chair,chair,0,0433_ske_dnn_0_chair_00_chair-0129-sketch-33.png,chair-0129-sketch-33.png,1.0,6.293145,6.0460653,0.17471184
alexnet,1,434,NaN,chair,chair,0,0434_ske_dnn_0_chair_00_chair-0130-sketch-34.png,chair-0130-sketch-34.png,1.0,9.760846,6.9226236,2.0069263
alexnet,1,435,NaN,chair,chair,0,0435_ske_dnn_0_chair_00_chair-0131-sketch-35.png,chair-0131-sketch-35.png,1.0,8.745289,7.8592024,0.62655777
alexnet,1,436,NaN,chair,chair,0,0436_ske_dnn_0_chair_00_chair-0135-sketch-39.png,chair-0135-sketch-39.png,1.0,9.813328,6.641204,2.2430303
alexnet,1,437,NaN,chair,chair,0,0437_ske_dnn_0_chair_00_chair-0144-sketch-47.png,chair-0144-sketch-47.png,1.0,8.023245,3.5546799,3.1597526
alexnet,1,438,NaN,chair,chair,0,0438_ske_dnn_0_chair_00_chair-0145-sketch-48.png,chair-0145-sketch-48.png,1.0,7.207751,6.7449837,0.32722577
alexnet,1,439,NaN,clock,chair,0,0439_ske_dnn_0_chair_00_chair-0153-sketch-0.png,chair-0153-sketch-0.png,0.0,3.3409142,5.164671,-1.2895907
alexnet,1,440,NaN,chair,chair,0,0440_ske_dnn_0_chair_00_chair-0155-sketch-10.png,chair-0155-sketch-10.png,1.0,6.532733,6.0870132,0.31517145
alexnet,1,441,NaN,chair,chair,0,0441_ske_dnn_0_chair_00_chair-0163-sketch-18.png,chair-0163-sketch-18.png,1.0,8.369356,4.5540442,2.697833
alexnet,1,442,NaN,chair,chair,0,0442_ske_dnn_0_chair_00_chair-0166-sketch-20.png,chair-0166-sketch-20.png,1.0,8.791569,6.0677905,1.9260021
alexnet,1,443,NaN,clock,chair,0,0443_ske_dnn_0_chair_00_chair-0167-sketch-21.png,chair-0167-sketch-21.png,0.0,4.7150784,5.297686,-0.4119659
alexnet,1,444,NaN,chair,chair,0,0444_ske_dnn_0_chair_00_chair-0168-sketch-22.png,chair-0168-sketch-22.png,1.0,5.9172435,5.371189,0.38611874
alexnet,1,445,NaN,clock,chair,0,0445_ske_dnn_0_chair_00_chair-0175-sketch-29.png,chair-0175-sketch-29.png,0.0,5.281065,7.022169,-1.2311466
alexnet,1,446,NaN,chair,chair,0,0446_ske_dnn_0_chair_00_chair-0176-sketch-3.png,chair-0176-sketch-3.png,1.0,6.5858903,6.502439,0.05900896
alexnet,1,447,NaN,chair,chair,0,0447_ske_dnn_0_chair_00_chair-0178-sketch-31.png,chair-0178-sketch-31.png,1.0,9.158355,5.641454,2.4868243
alexnet,1,448,NaN,knife,chair,0,0448_ske_dnn_0_chair_00_chair-0180-sketch-33.png,chair-0180-sketch-33.png,0.0,3.4549387,5.4029636,-1.3774617
alexnet,1,449,NaN,chair,chair,0,0449_ske_dnn_0_chair_00_chair-0197-sketch-49.png,chair-0197-sketch-49.png,1.0,6.854953,5.8128905,0.7368493
alexnet,1,450,NaN,knife,chair,0,0450_ske_dnn_0_chair_00_chair-0200-sketch-6.png,chair-0200-sketch-6.png,0.0,3.1424775,5.148845,-1.4187162
alexnet,1,451,NaN,clock,clock,0,0451_ske_dnn_0_clock_00_clock-0005-sketch-12.png,clock-0005-sketch-12.png,1.0,23.826477,6.9546785,11.930164
alexnet,1,452,NaN,clock,clock,0,0452_ske_dnn_0_clock_00_clock-0007-sketch-14.png,clock-0007-sketch-14.png,1.0,12.98846,4.5095873,5.995468
alexnet,1,453,NaN,clock,clock,0,0453_ske_dnn_0_clock_00_clock-0015-sketch-21.png,clock-0015-sketch-21.png,1.0,10.847343,5.4580736,3.8107893
alexnet,1,454,NaN,clock,clock,0,0454_ske_dnn_0_clock_00_clock-0017-sketch-23.png,clock-0017-sketch-23.png,1.0,8.434073,5.6711545,1.9536787
alexnet,1,455,NaN,clock,clock,0,0455_ske_dnn_0_clock_00_clock-0018-sketch-24.png,clock-0018-sketch-24.png,1.0,13.511584,9.437761,2.8806279
alexnet,1,456,NaN,clock,clock,0,0456_ske_dnn_0_clock_00_clock-0021-sketch-27.png,clock-0021-sketch-27.png,1.0,7.6685066,3.8489046,2.7008665
alexnet,1,457,NaN,clock,clock,0,0457_ske_dnn_0_clock_00_clock-0022-sketch-28.png,clock-0022-sketch-28.png,1.0,15.997192,10.521152,3.8721457
alexnet,1,458,NaN,clock,clock,0,0458_ske_dnn_0_clock_00_clock-0027-sketch-32.png,clock-0027-sketch-32.png,1.0,11.156199,5.5488544,3.9649918
alexnet,1,459,NaN,clock,clock,0,0459_ske_dnn_0_clock_00_clock-0028-sketch-33.png,clock-0028-sketch-33.png,1.0,11.231223,7.364641,2.7340863
alexnet,1,460,NaN,clock,clock,0,0460_ske_dnn_0_clock_00_clock-0030-sketch-35.png,clock-0030-sketch-35.png,1.0,12.225288,7.3977127,3.4136117
alexnet,1,461,NaN,clock,clock,0,0461_ske_dnn_0_clock_00_clock-0033-sketch-38.png,clock-0033-sketch-38.png,1.0,12.094684,6.2763853,4.114158
alexnet,1,462,NaN,clock,clock,0,0462_ske_dnn_0_clock_00_clock-0035-sketch-4.png,clock-0035-sketch-4.png,1.0,21.545227,6.6142664,10.557784
alexnet,1,463,NaN,clock,clock,0,0463_ske_dnn_0_clock_00_clock-0044-sketch-48.png,clock-0044-sketch-48.png,1.0,4.9402466,3.773615,0.8249332
alexnet,1,464,NaN,clock,clock,0,0464_ske_dnn_0_clock_00_clock-0046-sketch-5.png,clock-0046-sketch-5.png,1.0,9.164492,5.5357614,2.5658998
alexnet,1,465,NaN,clock,clock,0,0465_ske_dnn_0_clock_00_clock-0049-sketch-7.png,clock-0049-sketch-7.png,1.0,11.149711,4.0934644,4.9895196
alexnet,1,466,NaN,knife,clock,0,0466_ske_dnn_0_clock_00_clock-0057-sketch-13.png,clock-0057-sketch-13.png,0.0,3.6478329,4.9945555,-0.9522767
alexnet,1,467,NaN,clock,clock,0,0467_ske_dnn_0_clock_00_clock-0059-sketch-15.png,clock-0059-sketch-15.png,1.0,10.490504,2.64203,5.54971
alexnet,1,468,NaN,clock,clock,0,0468_ske_dnn_0_clock_00_clock-0060-sketch-16.png,clock-0060-sketch-16.png,1.0,7.372481,4.65219,1.9235361
alexnet,1,469,NaN,clock,clock,0,0469_ske_dnn_0_clock_00_clock-0067-sketch-22.png,clock-0067-sketch-22.png,1.0,8.97759,6.329397,1.8725549
alexnet,1,470,NaN,clock,clock,0,0470_ske_dnn_0_clock_00_clock-0069-sketch-24.png,clock-0069-sketch-24.png,1.0,8.029463,6.945057,0.7667908
alexnet,1,471,NaN,clock,clock,0,0471_ske_dnn_0_clock_00_clock-0070-sketch-25.png,clock-0070-sketch-25.png,1.0,8.885527,7.954722,0.6581783
alexnet,1,472,NaN,clock,clock,0,0472_ske_dnn_0_clock_00_clock-0071-sketch-26.png,clock-0071-sketch-26.png,1.0,9.419182,5.387145,2.8510807
alexnet,1,473,NaN,knife,clock,0,0473_ske_dnn_0_clock_00_clock-0073-sketch-28.png,clock-0073-sketch-28.png,0.0,3.342188,5.5384607,-1.5529995
alexnet,1,474,NaN,clock,clock,0,0474_ske_dnn_0_clock_00_clock-0074-sketch-29.png,clock-0074-sketch-29.png,1.0,4.999717,3.3285217,1.1817137
alexnet,1,475,NaN,clock,clock,0,0475_ske_dnn_0_clock_00_clock-0076-sketch-30.png,clock-0076-sketch-30.png,1.0,10.788259,5.954852,3.4177346
alexnet,1,476,NaN,clock,clock,0,0476_ske_dnn_0_clock_00_clock-0077-sketch-31.png,clock-0077-sketch-31.png,1.0,15.399024,8.995062,4.528285
alexnet,1,477,NaN,clock,clock,0,0477_ske_dnn_0_clock_00_clock-0078-sketch-32.png,clock-0078-sketch-32.png,1.0,8.437464,5.6301956,1.9850384
alexnet,1,478,NaN,clock,clock,0,0478_ske_dnn_0_clock_00_clock-0081-sketch-35.png,clock-0081-sketch-35.png,1.0,11.187007,6.077464,3.6129925
alexnet,1,479,NaN,clock,clock,0,0479_ske_dnn_0_clock_00_clock-0085-sketch-39.png,clock-0085-sketch-39.png,1.0,11.355347,7.336631,2.8416612
alexnet,1,480,NaN,oven,clock,0,0480_ske_dnn_0_clock_00_clock-0087-sketch-40.png,clock-0087-sketch-40.png,0.0,4.853282,6.5916905,-1.2292405
alexnet,1,481,NaN,clock,clock,0,0481_ske_dnn_0_clock_00_clock-0092-sketch-45.png,clock-0092-sketch-45.png,1.0,9.842195,6.594528,2.296447
alexnet,1,482,NaN,clock,clock,0,0482_ske_dnn_0_clock_00_clock-0093-sketch-46.png,clock-0093-sketch-46.png,1.0,11.41143,3.0362608,5.9221396
alexnet,1,483,NaN,clock,clock,0,0483_ske_dnn_0_clock_00_clock-0095-sketch-48.png,clock-0095-sketch-48.png,1.0,10.617545,7.123151,2.4709098
alexnet,1,484,NaN,clock,clock,0,0484_ske_dnn_0_clock_00_clock-0099-sketch-6.png,clock-0099-sketch-6.png,1.0,7.8194237,5.4689994,1.662001
alexnet,1,485,NaN,clock,clock,0,0485_ske_dnn_0_clock_00_clock-0110-sketch-15.png,clock-0110-sketch-15.png,1.0,10.3363495,3.2132962,5.0367594
alexnet,1,486,NaN,clock,clock,0,0486_ske_dnn_0_clock_00_clock-0112-sketch-17.png,clock-0112-sketch-17.png,1.0,22.449438,5.8711367,11.722629
alexnet,1,487,NaN,clock,clock,0,0487_ske_dnn_0_clock_00_clock-0115-sketch-2.png,clock-0115-sketch-2.png,1.0,7.29172,5.4311676,1.3156092
alexnet,1,488,NaN,clock,clock,0,0488_ske_dnn_0_clock_00_clock-0118-sketch-22.png,clock-0118-sketch-22.png,1.0,9.259965,3.6394422,3.9743097
alexnet,1,489,NaN,clock,clock,0,0489_ske_dnn_0_clock_00_clock-0123-sketch-27.png,clock-0123-sketch-27.png,1.0,17.380264,5.21365,8.603096
alexnet,1,490,NaN,clock,clock,0,0490_ske_dnn_0_clock_00_clock-0127-sketch-30.png,clock-0127-sketch-30.png,1.0,13.771348,10.456637,2.3438544
alexnet,1,491,NaN,clock,clock,0,0491_ske_dnn_0_clock_00_clock-0131-sketch-34.png,clock-0131-sketch-34.png,1.0,11.210284,8.781622,1.7173237
alexnet,1,492,NaN,clock,clock,0,0492_ske_dnn_0_clock_00_clock-0132-sketch-35.png,clock-0132-sketch-35.png,1.0,12.947548,7.0497036,4.170406
alexnet,1,493,NaN,clock,clock,0,0493_ske_dnn_0_clock_00_clock-0133-sketch-36.png,clock-0133-sketch-36.png,1.0,9.02461,4.7082267,3.0521436
alexnet,1,494,NaN,clock,clock,0,0494_ske_dnn_0_clock_00_clock-0136-sketch-39.png,clock-0136-sketch-39.png,1.0,14.279681,5.9599905,5.88291
alexnet,1,495,NaN,clock,clock,0,0495_ske_dnn_0_clock_00_clock-0137-sketch-4.png,clock-0137-sketch-4.png,1.0,10.868965,3.6961813,5.071924
alexnet,1,496,NaN,clock,clock,0,0496_ske_dnn_0_clock_00_clock-0138-sketch-40.png,clock-0138-sketch-40.png,1.0,11.718219,7.545778,2.9503615
alexnet,1,497,NaN,clock,clock,0,0497_ske_dnn_0_clock_00_clock-0141-sketch-43.png,clock-0141-sketch-43.png,1.0,9.32144,6.303197,2.1342201
alexnet,1,498,NaN,clock,clock,0,0498_ske_dnn_0_clock_00_clock-0143-sketch-45.png,clock-0143-sketch-45.png,1.0,7.2039046,3.2598839,2.7888439
alexnet,1,499,NaN,clock,clock,0,0499_ske_dnn_0_clock_00_clock-0144-sketch-46.png,clock-0144-sketch-46.png,1.0,11.496547,4.3460073,5.056195
alexnet,1,500,NaN,clock,clock,0,0500_ske_dnn_0_clock_00_clock-0150-sketch-6.png,clock-0150-sketch-6.png,1.0,11.200398,3.1325703,5.7048163
alexnet,1,501,NaN,dog,dog,0,0501_ske_dnn_0_dog_00_dog-0011-sketch-18.png,dog-0011-sketch-18.png,1.0,3.7159,3.255953,0.32523155
alexnet,1,502,NaN,bottle,dog,0,0502_ske_dnn_0_dog_00_dog-0111-sketch-17.png,dog-0111-sketch-17.png,0.0,-0.4776084,5.0512724,-3.909509
alexnet,1,503,NaN,clock,dog,0,0503_ske_dnn_0_dog_00_dog-0215-sketch-19.png,dog-0215-sketch-19.png,0.0,-1.6634858,6.867115,-6.0320454
alexnet,1,504,NaN,knife,dog,0,0504_ske_dnn_0_dog_00_dog-0243-sketch-44.png,dog-0243-sketch-44.png,0.0,0.7970885,3.9383788,-2.2212276
alexnet,1,505,NaN,dog,dog,0,0505_ske_dnn_0_dog_00_dog-0476-sketch-26.png,dog-0476-sketch-26.png,1.0,2.537232,1.7383294,0.5649094
alexnet,1,506,NaN,chair,dog,0,0506_ske_dnn_0_dog_00_dog-0607-sketch-8.png,dog-0607-sketch-8.png,0.0,0.26387146,5.476461,-3.6858573
alexnet,1,507,NaN,dog,dog,0,0507_ske_dnn_0_dog_00_dog-0630-sketch-28.png,dog-0630-sketch-28.png,1.0,4.7477875,3.0951355,1.1686015
alexnet,1,508,NaN,dog,dog,0,0508_ske_dnn_0_dog_00_dog-1035-sketch-27.png,dog-1035-sketch-27.png,1.0,3.1453238,2.2716784,0.61776054
alexnet,1,509,NaN,dog,dog,0,0509_ske_dnn_0_dog_00_dog-1292-sketch-3.png,dog-1292-sketch-3.png,1.0,4.244924,2.6787357,1.1074624
alexnet,1,510,NaN,knife,dog,0,0510_ske_dnn_0_dog_00_dog-1393-sketch-3.png,dog-1393-sketch-3.png,0.0,1.6646544,4.3072433,-1.8685927
alexnet,1,511,NaN,clock,dog,0,0511_ske_dnn_0_dog_00_dog-1460-sketch-44.png,dog-1460-sketch-44.png,0.0,-0.37309304,5.810985,-4.3728037
alexnet,1,512,NaN,clock,dog,0,0512_ske_dnn_0_dog_00_dog-1617-sketch-48.png,dog-1617-sketch-48.png,0.0,-0.7615615,3.7444403,-3.1862247
alexnet,1,513,NaN,dog,dog,0,0513_ske_dnn_0_dog_00_dog-1657-sketch-38.png,dog-1657-sketch-38.png,1.0,6.1717525,4.1692557,1.415979
alexnet,1,514,NaN,dog,dog,0,0514_ske_dnn_0_dog_00_dog-1711-sketch-40.png,dog-1711-sketch-40.png,1.0,2.2293253,2.1026745,0.08955565
alexnet,1,515,NaN,dog,dog,0,0515_ske_dnn_0_dog_00_dog-1759-sketch-38.png,dog-1759-sketch-38.png,1.0,3.348626,2.4471216,0.6374598
alexnet,1,516,NaN,knife,dog,0,0516_ske_dnn_0_dog_00_dog-1797-sketch-26.png,dog-1797-sketch-26.png,0.0,-1.7624004,5.2623,-4.967213
alexnet,1,517,NaN,knife,dog,0,0517_ske_dnn_0_dog_00_dog-1973-sketch-47.png,dog-1973-sketch-47.png,0.0,0.8886784,4.735429,-2.7200634
alexnet,1,518,NaN,clock,dog,0,0518_ske_dnn_0_dog_00_dog-2150-sketch-22.png,dog-2150-sketch-22.png,0.0,-2.342707,6.0645695,-5.944842
alexnet,1,519,NaN,bicycle,dog,0,0519_ske_dnn_0_dog_00_dog-2198-sketch-20.png,dog-2198-sketch-20.png,0.0,-1.4112632,3.6668205,-3.5907476
alexnet,1,520,NaN,bottle,dog,0,0520_ske_dnn_0_dog_00_dog-2291-sketch-12.png,dog-2291-sketch-12.png,0.0,1.2080201,1.6161348,-0.28858066
alexnet,1,521,NaN,dog,dog,0,0521_ske_dnn_0_dog_00_dog-2323-sketch-41.png,dog-2323-sketch-41.png,1.0,5.451275,4.6603208,0.55928904
alexnet,1,522,NaN,clock,dog,0,0522_ske_dnn_0_dog_00_dog-2454-sketch-21.png,dog-2454-sketch-21.png,0.0,3.6521401,4.8889985,-0.87459093
alexnet,1,523,NaN,dog,dog,0,0523_ske_dnn_0_dog_00_dog-2506-sketch-23.png,dog-2506-sketch-23.png,1.0,6.6332655,3.0075696,2.5637543
alexnet,1,524,NaN,dog,dog,0,0524_ske_dnn_0_dog_00_dog-2541-sketch-0.png,dog-2541-sketch-0.png,1.0,4.5230436,1.9853272,1.7944365
alexnet,1,525,NaN,dog,dog,0,0525_ske_dnn_0_dog_00_dog-2615-sketch-3.png,dog-2615-sketch-3.png,1.0,7.537331,3.2181742,3.054105
alexnet,1,526,NaN,dog,dog,0,0526_ske_dnn_0_dog_00_dog-2948-sketch-10.png,dog-2948-sketch-10.png,1.0,4.584767,4.501635,0.058783054
alexnet,1,527,NaN,bear,dog,0,0527_ske_dnn_0_dog_00_dog-3000-sketch-11.png,dog-3000-sketch-11.png,0.0,7.375121,7.8694973,-0.34957677
alexnet,1,528,NaN,clock,dog,0,0528_ske_dnn_0_dog_00_dog-3153-sketch-11.png,dog-3153-sketch-11.png,0.0,-0.87573195,2.7971237,-2.5971012
alexnet,1,529,NaN,dog,dog,0,0529_ske_dnn_0_dog_00_dog-3251-sketch-9.png,dog-3251-sketch-9.png,1.0,3.3745246,1.8172207,1.1011802
alexnet,1,530,NaN,clock,dog,0,0530_ske_dnn_0_dog_00_dog-3303-sketch-0.png,dog-3303-sketch-0.png,0.0,3.0634396,3.1199665,-0.039970554
alexnet,1,531,NaN,dog,dog,0,0531_ske_dnn_0_dog_00_dog-3338-sketch-40.png,dog-3338-sketch-40.png,1.0,6.3207145,1.9464769,3.093053
alexnet,1,532,NaN,knife,dog,0,0532_ske_dnn_0_dog_00_dog-3417-sketch-2.png,dog-3417-sketch-2.png,0.0,1.061875,4.731038,-2.5944903
alexnet,1,533,NaN,knife,dog,0,0533_ske_dnn_0_dog_00_dog-3503-sketch-6.png,dog-3503-sketch-6.png,0.0,0.9335244,4.5407467,-2.5506914
alexnet,1,534,NaN,cat,dog,0,0534_ske_dnn_0_dog_00_dog-3573-sketch-22.png,dog-3573-sketch-22.png,0.0,3.3430707,6.052873,-1.9161197
alexnet,1,535,NaN,dog,dog,0,0535_ske_dnn_0_dog_00_dog-3646-sketch-42.png,dog-3646-sketch-42.png,1.0,6.2085285,4.340921,1.320598
alexnet,1,536,NaN,knife,dog,0,0536_ske_dnn_0_dog_00_dog-3695-sketch-40.png,dog-3695-sketch-40.png,0.0,3.333718,3.5175653,-0.1299996
alexnet,1,537,NaN,chair,dog,0,0537_ske_dnn_0_dog_00_dog-3915-sketch-0.png,dog-3915-sketch-0.png,0.0,-0.8085593,4.444431,-3.714425
alexnet,1,538,NaN,cat,dog,0,0538_ske_dnn_0_dog_00_dog-4202-sketch-4.png,dog-4202-sketch-4.png,0.0,2.6971512,9.97256,-5.1444907
alexnet,1,539,NaN,dog,dog,0,0539_ske_dnn_0_dog_00_dog-4208-sketch-45.png,dog-4208-sketch-45.png,1.0,4.1078897,4.092478,0.010897826
alexnet,1,540,NaN,chair,dog,0,0540_ske_dnn_0_dog_00_dog-4325-sketch-13.png,dog-4325-sketch-13.png,0.0,2.8914552,3.908577,-0.7192137
alexnet,1,541,NaN,dog,dog,0,0541_ske_dnn_0_dog_00_dog-4475-sketch-11.png,dog-4475-sketch-11.png,1.0,4.3464813,1.6891848,1.8789926
alexnet,1,542,NaN,clock,dog,0,0542_ske_dnn_0_dog_00_dog-4499-sketch-33.png,dog-4499-sketch-33.png,0.0,-0.3543793,3.5620186,-2.7693117
alexnet,1,543,NaN,knife,dog,0,0543_ske_dnn_0_dog_00_dog-4581-sketch-16.png,dog-4581-sketch-16.png,0.0,-0.1627514,3.9054618,-2.876661
alexnet,1,544,NaN,clock,dog,0,0544_ske_dnn_0_dog_00_dog-4709-sketch-4.png,dog-4709-sketch-4.png,0.0,-2.0776331,4.735466,-4.8175883
alexnet,1,545,NaN,knife,dog,0,0545_ske_dnn_0_dog_00_dog-4909-sketch-37.png,dog-4909-sketch-37.png,0.0,1.8515512,2.3780205,-0.37227005
alexnet,1,546,NaN,cat,dog,0,0546_ske_dnn_0_dog_00_dog-5028-sketch-8.png,dog-5028-sketch-8.png,0.0,4.5570955,7.3161793,-1.9509668
alexnet,1,547,NaN,dog,dog,0,0547_ske_dnn_0_dog_00_dog-5084-sketch-11.png,dog-5084-sketch-11.png,1.0,4.2145457,3.4721947,0.5249215
alexnet,1,548,NaN,clock,dog,0,0548_ske_dnn_0_dog_00_dog-5223-sketch-45.png,dog-5223-sketch-45.png,0.0,2.3084016,5.903894,-2.542397
alexnet,1,549,NaN,dog,dog,0,0549_ske_dnn_0_dog_00_dog-5325-sketch-45.png,dog-5325-sketch-45.png,1.0,5.1507106,2.576639,1.8201436
alexnet,1,550,NaN,dog,dog,0,0550_ske_dnn_0_dog_00_dog-5354-sketch-25.png,dog-5354-sketch-25.png,1.0,4.440598,2.3808293,1.4564764
alexnet,1,551,NaN,knife,elephant,0,0551_ske_dnn_0_elephant_00_elephant-0001-sketch-0.png,elephant-0001-sketch-0.png,0.0,0.8649748,4.313389,-2.438397
alexnet,1,552,NaN,elephant,elephant,0,0552_ske_dnn_0_elephant_00_elephant-0002-sketch-1.png,elephant-0002-sketch-1.png,1.0,11.056654,3.515162,5.33264
alexnet,1,553,NaN,bottle,elephant,0,0553_ske_dnn_0_elephant_00_elephant-0006-sketch-13.png,elephant-0006-sketch-13.png,0.0,-3.9892282,4.201292,-5.7915726
alexnet,1,554,NaN,clock,elephant,0,0554_ske_dnn_0_elephant_00_elephant-0011-sketch-18.png,elephant-0011-sketch-18.png,0.0,-4.9706345,6.214722,-7.909241
alexnet,1,555,NaN,clock,elephant,0,0555_ske_dnn_0_elephant_00_elephant-0012-sketch-19.png,elephant-0012-sketch-19.png,0.0,-2.0994496,4.387343,-4.586855
alexnet,1,556,NaN,knife,elephant,0,0556_ske_dnn_0_elephant_00_elephant-0013-sketch-2.png,elephant-0013-sketch-2.png,0.0,2.2298813,4.9192915,-1.9017003
alexnet,1,557,NaN,elephant,elephant,0,0557_ske_dnn_0_elephant_00_elephant-0014-sketch-20.png,elephant-0014-sketch-20.png,1.0,3.111199,2.9683886,0.10098217
alexnet,1,558,NaN,bicycle,elephant,0,0558_ske_dnn_0_elephant_00_elephant-0015-sketch-21.png,elephant-0015-sketch-21.png,0.0,0.04693249,2.708876,-1.8822783
alexnet,1,559,NaN,clock,elephant,0,0559_ske_dnn_0_elephant_00_elephant-0016-sketch-22.png,elephant-0016-sketch-22.png,0.0,-1.807409,3.7398417,-3.9224987
alexnet,1,560,NaN,elephant,elephant,0,0560_ske_dnn_0_elephant_00_elephant-0019-sketch-25.png,elephant-0019-sketch-25.png,1.0,8.550911,2.8736434,4.0144343
alexnet,1,561,NaN,clock,elephant,0,0561_ske_dnn_0_elephant_00_elephant-0020-sketch-26.png,elephant-0020-sketch-26.png,0.0,-1.5638283,3.9714081,-3.9140031
alexnet,1,562,NaN,clock,elephant,0,0562_ske_dnn_0_elephant_00_elephant-0021-sketch-27.png,elephant-0021-sketch-27.png,0.0,-2.622611,3.8946497,-4.6083994
alexnet,1,563,NaN,knife,elephant,0,0563_ske_dnn_0_elephant_00_elephant-0022-sketch-28.png,elephant-0022-sketch-28.png,0.0,-2.5540612,5.160234,-5.4548306
alexnet,1,564,NaN,oven,elephant,0,0564_ske_dnn_0_elephant_00_elephant-0025-sketch-30.png,elephant-0025-sketch-30.png,0.0,1.9347074,5.2846527,-2.3687692
alexnet,1,565,NaN,elephant,elephant,0,0565_ske_dnn_0_elephant_00_elephant-0028-sketch-33.png,elephant-0028-sketch-33.png,1.0,12.666507,4.0348926,6.103473
alexnet,1,566,NaN,knife,elephant,0,0566_ske_dnn_0_elephant_00_elephant-0029-sketch-34.png,elephant-0029-sketch-34.png,0.0,2.6181552,4.8745055,-1.5954806
alexnet,1,567,NaN,clock,elephant,0,0567_ske_dnn_0_elephant_00_elephant-0030-sketch-35.png,elephant-0030-sketch-35.png,0.0,-2.6134675,5.852043,-5.98602
alexnet,1,568,NaN,elephant,elephant,0,0568_ske_dnn_0_elephant_00_elephant-0032-sketch-37.png,elephant-0032-sketch-37.png,1.0,6.053644,4.505239,1.0948879
alexnet,1,569,NaN,bicycle,elephant,0,0569_ske_dnn_0_elephant_00_elephant-0033-sketch-38.png,elephant-0033-sketch-38.png,0.0,-2.3242147,4.898932,-5.107536
alexnet,1,570,NaN,elephant,elephant,0,0570_ske_dnn_0_elephant_00_elephant-0037-sketch-41.png,elephant-0037-sketch-41.png,1.0,5.3212194,2.2581546,2.1659138
alexnet,1,571,NaN,elephant,elephant,0,0571_ske_dnn_0_elephant_00_elephant-0039-sketch-43.png,elephant-0039-sketch-43.png,1.0,5.8195696,3.2567544,1.812184
alexnet,1,572,NaN,elephant,elephant,0,0572_ske_dnn_0_elephant_00_elephant-0040-sketch-44.png,elephant-0040-sketch-44.png,1.0,7.2122293,3.3810892,2.7090251
alexnet,1,573,NaN,clock,elephant,0,0573_ske_dnn_0_elephant_00_elephant-0043-sketch-47.png,elephant-0043-sketch-47.png,0.0,-0.25111794,3.3629513,-2.555533
alexnet,1,574,NaN,elephant,elephant,0,0574_ske_dnn_0_elephant_00_elephant-0044-sketch-48.png,elephant-0044-sketch-48.png,1.0,10.676173,5.282182,3.8141277
alexnet,1,575,NaN,knife,elephant,0,0575_ske_dnn_0_elephant_00_elephant-0046-sketch-5.png,elephant-0046-sketch-5.png,0.0,4.6288905,5.3592224,-0.5164226
alexnet,1,576,NaN,clock,elephant,0,0576_ske_dnn_0_elephant_00_elephant-0047-sketch-50.png,elephant-0047-sketch-50.png,0.0,-4.498611,6.1137886,-7.5041003
alexnet,1,577,NaN,bicycle,elephant,0,0577_ske_dnn_0_elephant_00_elephant-0048-sketch-6.png,elephant-0048-sketch-6.png,0.0,-1.8237592,4.714549,-4.623282
alexnet,1,578,NaN,elephant,elephant,0,0578_ske_dnn_0_elephant_00_elephant-0050-sketch-8.png,elephant-0050-sketch-8.png,1.0,2.006596,1.8819797,0.08811709
alexnet,1,579,NaN,knife,elephant,0,0579_ske_dnn_0_elephant_00_elephant-0052-sketch-0.png,elephant-0052-sketch-0.png,0.0,-1.1231424,4.91838,-4.2720013
alexnet,1,580,NaN,elephant,elephant,0,0580_ske_dnn_0_elephant_00_elephant-0054-sketch-10.png,elephant-0054-sketch-10.png,1.0,5.42243,3.5525763,1.3221862
alexnet,1,581,NaN,knife,elephant,0,0581_ske_dnn_0_elephant_00_elephant-0055-sketch-11.png,elephant-0055-sketch-11.png,0.0,-0.6124166,4.129058,-3.3527288
alexnet,1,582,NaN,oven,elephant,0,0582_ske_dnn_0_elephant_00_elephant-0057-sketch-13.png,elephant-0057-sketch-13.png,0.0,-0.6853624,3.5214012,-2.9746313
alexnet,1,583,NaN,elephant,elephant,0,0583_ske_dnn_0_elephant_00_elephant-0058-sketch-14.png,elephant-0058-sketch-14.png,1.0,4.984521,2.9213905,1.4588535
alexnet,1,584,NaN,elephant,elephant,0,0584_ske_dnn_0_elephant_00_elephant-0061-sketch-17.png,elephant-0061-sketch-17.png,1.0,12.851509,3.2799728,6.7680984
alexnet,1,585,NaN,bottle,elephant,0,0585_ske_dnn_0_elephant_00_elephant-0062-sketch-18.png,elephant-0062-sketch-18.png,0.0,-1.3774856,3.8516457,-3.697554
alexnet,1,586,NaN,clock,elephant,0,0586_ske_dnn_0_elephant_00_elephant-0065-sketch-20.png,elephant-0065-sketch-20.png,0.0,-2.8666067,4.546434,-5.2418113
alexnet,1,587,NaN,elephant,elephant,0,0587_ske_dnn_0_elephant_00_elephant-0066-sketch-21.png,elephant-0066-sketch-21.png,1.0,10.641741,3.2853947,5.201722
alexnet,1,588,NaN,elephant,elephant,0,0588_ske_dnn_0_elephant_00_elephant-0071-sketch-26.png,elephant-0071-sketch-26.png,1.0,6.1505957,5.3524227,0.5643935
alexnet,1,589,NaN,knife,elephant,0,0589_ske_dnn_0_elephant_00_elephant-0075-sketch-3.png,elephant-0075-sketch-3.png,0.0,-0.902787,3.6624036,-3.2280774
alexnet,1,590,NaN,clock,elephant,0,0590_ske_dnn_0_elephant_00_elephant-0076-sketch-30.png,elephant-0076-sketch-30.png,0.0,-3.9235544,4.5457015,-5.988668
alexnet,1,591,NaN,knife,elephant,0,0591_ske_dnn_0_elephant_00_elephant-0077-sketch-31.png,elephant-0077-sketch-31.png,0.0,1.4451413,5.5388665,-2.894701
alexnet,1,592,NaN,oven,elephant,0,0592_ske_dnn_0_elephant_00_elephant-0079-sketch-33.png,elephant-0079-sketch-33.png,0.0,1.1486251,6.070402,-3.4802217
alexnet,1,593,NaN,clock,elephant,0,0593_ske_dnn_0_elephant_00_elephant-0080-sketch-34.png,elephant-0080-sketch-34.png,0.0,-2.9027324,3.2032402,-4.3175745
alexnet,1,594,NaN,elephant,elephant,0,0594_ske_dnn_0_elephant_00_elephant-0082-sketch-36.png,elephant-0082-sketch-36.png,1.0,8.290203,4.0583096,2.9924006
alexnet,1,595,NaN,clock,elephant,0,0595_ske_dnn_0_elephant_00_elephant-0086-sketch-4.png,elephant-0086-sketch-4.png,0.0,1.8981895,4.049044,-1.5208839
alexnet,1,596,NaN,oven,elephant,0,0596_ske_dnn_0_elephant_00_elephant-0090-sketch-43.png,elephant-0090-sketch-43.png,0.0,3.652646,4.5860815,-0.66003853
alexnet,1,597,NaN,knife,elephant,0,0597_ske_dnn_0_elephant_00_elephant-0094-sketch-47.png,elephant-0094-sketch-47.png,0.0,1.0332415,4.1505947,-2.2043016
alexnet,1,598,NaN,clock,elephant,0,0598_ske_dnn_0_elephant_00_elephant-0098-sketch-50.png,elephant-0098-sketch-50.png,0.0,-0.46151635,4.5919776,-3.57336
alexnet,1,599,NaN,elephant,elephant,0,0599_ske_dnn_0_elephant_00_elephant-0100-sketch-7.png,elephant-0100-sketch-7.png,1.0,12.183535,4.692523,5.296945
alexnet,1,600,NaN,clock,elephant,0,0600_ske_dnn_0_elephant_00_elephant-0101-sketch-8.png,elephant-0101-sketch-8.png,0.0,-0.8180764,4.0827765,-3.4654264
alexnet,1,601,NaN,keyboard,keyboard,0,0601_ske_dnn_0_keyboard_00_keyboard-0002-sketch-1.png,keyboard-0002-sketch-1.png,1.0,10.134443,4.7377844,3.816014
alexnet,1,602,NaN,keyboard,keyboard,0,0602_ske_dnn_0_keyboard_00_keyboard-0003-sketch-10.png,keyboard-0003-sketch-10.png,1.0,12.089881,9.663675,1.7155865
alexnet,1,603,NaN,keyboard,keyboard,0,0603_ske_dnn_0_keyboard_00_keyboard-0004-sketch-11.png,keyboard-0004-sketch-11.png,1.0,11.814643,5.359173,4.564707
alexnet,1,604,NaN,keyboard,keyboard,0,0604_ske_dnn_0_keyboard_00_keyboard-0005-sketch-12.png,keyboard-0005-sketch-12.png,1.0,13.468338,6.592754,4.861772
alexnet,1,605,NaN,keyboard,keyboard,0,0605_ske_dnn_0_keyboard_00_keyboard-0006-sketch-13.png,keyboard-0006-sketch-13.png,1.0,10.849851,3.9067922,4.909484
alexnet,1,606,NaN,keyboard,keyboard,0,0606_ske_dnn_0_keyboard_00_keyboard-0007-sketch-14.png,keyboard-0007-sketch-14.png,1.0,16.17493,6.9640045,6.5131083
alexnet,1,607,NaN,keyboard,keyboard,0,0607_ske_dnn_0_keyboard_00_keyboard-0008-sketch-15.png,keyboard-0008-sketch-15.png,1.0,22.17007,7.5192413,10.359701
alexnet,1,608,NaN,keyboard,keyboard,0,0608_ske_dnn_0_keyboard_00_keyboard-0009-sketch-16.png,keyboard-0009-sketch-16.png,1.0,13.531802,7.624171,4.177326
alexnet,1,609,NaN,knife,keyboard,0,0609_ske_dnn_0_keyboard_00_keyboard-0010-sketch-17.png,keyboard-0010-sketch-17.png,0.0,4.296318,4.4771504,-0.1278678
alexnet,1,610,NaN,keyboard,keyboard,0,0610_ske_dnn_0_keyboard_00_keyboard-0014-sketch-20.png,keyboard-0014-sketch-20.png,1.0,17.12006,8.07988,6.3923726
alexnet,1,611,NaN,keyboard,keyboard,0,0611_ske_dnn_0_keyboard_00_keyboard-0016-sketch-22.png,keyboard-0016-sketch-22.png,1.0,27.119205,10.376942,11.838569
alexnet,1,612,NaN,keyboard,keyboard,0,0612_ske_dnn_0_keyboard_00_keyboard-0017-sketch-23.png,keyboard-0017-sketch-23.png,1.0,10.636566,6.8378654,2.6860871
alexnet,1,613,NaN,keyboard,keyboard,0,0613_ske_dnn_0_keyboard_00_keyboard-0019-sketch-25.png,keyboard-0019-sketch-25.png,1.0,15.121927,7.095794,5.675333
alexnet,1,614,NaN,keyboard,keyboard,0,0614_ske_dnn_0_keyboard_00_keyboard-0022-sketch-28.png,keyboard-0022-sketch-28.png,1.0,12.813799,7.119506,4.026473
alexnet,1,615,NaN,keyboard,keyboard,0,0615_ske_dnn_0_keyboard_00_keyboard-0023-sketch-29.png,keyboard-0023-sketch-29.png,1.0,8.864129,6.506027,1.6674298
alexnet,1,616,NaN,keyboard,keyboard,0,0616_ske_dnn_0_keyboard_00_keyboard-0026-sketch-31.png,keyboard-0026-sketch-31.png,1.0,11.059641,5.633763,3.8366752
alexnet,1,617,NaN,clock,keyboard,0,0617_ske_dnn_0_keyboard_00_keyboard-0028-sketch-33.png,keyboard-0028-sketch-33.png,0.0,1.2252047,2.7971237,-1.1115146
alexnet,1,618,NaN,keyboard,keyboard,0,0618_ske_dnn_0_keyboard_00_keyboard-0029-sketch-34.png,keyboard-0029-sketch-34.png,1.0,7.7884107,5.3357253,1.7343105
alexnet,1,619,NaN,keyboard,keyboard,0,0619_ske_dnn_0_keyboard_00_keyboard-0031-sketch-36.png,keyboard-0031-sketch-36.png,1.0,9.27965,6.1446705,2.2167652
alexnet,1,620,NaN,keyboard,keyboard,0,0620_ske_dnn_0_keyboard_00_keyboard-0033-sketch-38.png,keyboard-0033-sketch-38.png,1.0,14.935578,6.3467364,6.073229
alexnet,1,621,NaN,keyboard,keyboard,0,0621_ske_dnn_0_keyboard_00_keyboard-0034-sketch-39.png,keyboard-0034-sketch-39.png,1.0,6.7240343,4.6293488,1.4811664
alexnet,1,622,NaN,keyboard,keyboard,0,0622_ske_dnn_0_keyboard_00_keyboard-0035-sketch-4.png,keyboard-0035-sketch-4.png,1.0,7.1917295,5.746649,1.0218264
alexnet,1,623,NaN,keyboard,keyboard,0,0623_ske_dnn_0_keyboard_00_keyboard-0037-sketch-41.png,keyboard-0037-sketch-41.png,1.0,13.829575,5.416057,5.949255
alexnet,1,624,NaN,keyboard,keyboard,0,0624_ske_dnn_0_keyboard_00_keyboard-0038-sketch-42.png,keyboard-0038-sketch-42.png,1.0,12.751001,6.2529736,4.5947995
alexnet,1,625,NaN,keyboard,keyboard,0,0625_ske_dnn_0_keyboard_00_keyboard-0039-sketch-43.png,keyboard-0039-sketch-43.png,1.0,11.26823,3.5733376,5.441111
alexnet,1,626,NaN,keyboard,keyboard,0,0626_ske_dnn_0_keyboard_00_keyboard-0041-sketch-45.png,keyboard-0041-sketch-45.png,1.0,20.534973,7.068314,9.522367
alexnet,1,627,NaN,keyboard,keyboard,0,0627_ske_dnn_0_keyboard_00_keyboard-0042-sketch-46.png,keyboard-0042-sketch-46.png,1.0,13.585896,7.8561807,4.0515203
alexnet,1,628,NaN,keyboard,keyboard,0,0628_ske_dnn_0_keyboard_00_keyboard-0043-sketch-47.png,keyboard-0043-sketch-47.png,1.0,7.401466,6.157097,0.87990177
alexnet,1,629,NaN,keyboard,keyboard,0,0629_ske_dnn_0_keyboard_00_keyboard-0044-sketch-48.png,keyboard-0044-sketch-48.png,1.0,16.977592,6.1379557,7.6647806
alexnet,1,630,NaN,keyboard,keyboard,0,0630_ske_dnn_0_keyboard_00_keyboard-0045-sketch-49.png,keyboard-0045-sketch-49.png,1.0,15.857148,5.9924936,6.975364
alexnet,1,631,NaN,keyboard,keyboard,0,0631_ske_dnn_0_keyboard_00_keyboard-0047-sketch-50.png,keyboard-0047-sketch-50.png,1.0,16.928062,8.357756,6.060122
alexnet,1,632,NaN,keyboard,keyboard,0,0632_ske_dnn_0_keyboard_00_keyboard-0049-sketch-7.png,keyboard-0049-sketch-7.png,1.0,19.585564,7.611642,8.466842
alexnet,1,633,NaN,keyboard,keyboard,0,0633_ske_dnn_0_keyboard_00_keyboard-0052-sketch-0.png,keyboard-0052-sketch-0.png,1.0,14.373046,6.2514567,5.742831
alexnet,1,634,NaN,keyboard,keyboard,0,0634_ske_dnn_0_keyboard_00_keyboard-0053-sketch-1.png,keyboard-0053-sketch-1.png,1.0,9.411249,6.940692,1.7469478
alexnet,1,635,NaN,keyboard,keyboard,0,0635_ske_dnn_0_keyboard_00_keyboard-0059-sketch-15.png,keyboard-0059-sketch-15.png,1.0,7.9184327,6.310791,1.1367744
alexnet,1,636,NaN,keyboard,keyboard,0,0636_ske_dnn_0_keyboard_00_keyboard-0061-sketch-17.png,keyboard-0061-sketch-17.png,1.0,10.448242,5.273826,3.6588647
alexnet,1,637,NaN,keyboard,keyboard,0,0637_ske_dnn_0_keyboard_00_keyboard-0062-sketch-18.png,keyboard-0062-sketch-18.png,1.0,8.82933,7.115145,1.2121121
alexnet,1,638,NaN,keyboard,keyboard,0,0638_ske_dnn_0_keyboard_00_keyboard-0063-sketch-19.png,keyboard-0063-sketch-19.png,1.0,14.238386,4.07953,7.1833963
alexnet,1,639,NaN,keyboard,keyboard,0,0639_ske_dnn_0_keyboard_00_keyboard-0064-sketch-2.png,keyboard-0064-sketch-2.png,1.0,13.786907,3.4212768,7.3296075
alexnet,1,640,NaN,keyboard,keyboard,0,0640_ske_dnn_0_keyboard_00_keyboard-0068-sketch-23.png,keyboard-0068-sketch-23.png,1.0,9.544074,3.6730168,4.1514645
alexnet,1,641,NaN,bicycle,keyboard,0,0641_ske_dnn_0_keyboard_00_keyboard-0071-sketch-26.png,keyboard-0071-sketch-26.png,0.0,0.9435854,5.3109617,-3.0882015
alexnet,1,642,NaN,keyboard,keyboard,0,0642_ske_dnn_0_keyboard_00_keyboard-0074-sketch-29.png,keyboard-0074-sketch-29.png,1.0,11.144084,6.966494,2.9540021
alexnet,1,643,NaN,keyboard,keyboard,0,0643_ske_dnn_0_keyboard_00_keyboard-0076-sketch-30.png,keyboard-0076-sketch-30.png,1.0,13.622645,7.587124,4.2677584
alexnet,1,644,NaN,keyboard,keyboard,0,0644_ske_dnn_0_keyboard_00_keyboard-0084-sketch-38.png,keyboard-0084-sketch-38.png,1.0,14.248628,5.0672774,6.4921956
alexnet,1,645,NaN,keyboard,keyboard,0,0645_ske_dnn_0_keyboard_00_keyboard-0085-sketch-39.png,keyboard-0085-sketch-39.png,1.0,9.580765,3.6289723,4.208553
alexnet,1,646,NaN,keyboard,keyboard,0,0646_ske_dnn_0_keyboard_00_keyboard-0086-sketch-4.png,keyboard-0086-sketch-4.png,1.0,4.4080296,3.8159099,0.41869184
alexnet,1,647,NaN,keyboard,keyboard,0,0647_ske_dnn_0_keyboard_00_keyboard-0087-sketch-40.png,keyboard-0087-sketch-40.png,1.0,9.772256,6.3899055,2.3916829
alexnet,1,648,NaN,clock,keyboard,0,0648_ske_dnn_0_keyboard_00_keyboard-0088-sketch-41.png,keyboard-0088-sketch-41.png,0.0,4.318597,5.2110686,-0.6310729
alexnet,1,649,NaN,keyboard,keyboard,0,0649_ske_dnn_0_keyboard_00_keyboard-0091-sketch-44.png,keyboard-0091-sketch-44.png,1.0,11.135998,7.5928097,2.5054123
alexnet,1,650,NaN,keyboard,keyboard,0,0650_ske_dnn_0_keyboard_00_keyboard-0098-sketch-50.png,keyboard-0098-sketch-50.png,1.0,14.110707,4.218989,6.994501
alexnet,1,651,NaN,knife,knife,0,0651_ske_dnn_0_knife_00_knife-0001-sketch-0.png,knife-0001-sketch-0.png,1.0,3.7651968,3.022801,0.5249532
alexnet,1,652,NaN,knife,knife,0,0652_ske_dnn_0_knife_00_knife-0002-sketch-1.png,knife-0002-sketch-1.png,1.0,7.3288765,5.9533587,0.972638
alexnet,1,653,NaN,clock,knife,0,0653_ske_dnn_0_knife_00_knife-0004-sketch-11.png,knife-0004-sketch-11.png,0.0,5.8950295,6.2048097,-0.21904762
alexnet,1,654,NaN,knife,knife,0,0654_ske_dnn_0_knife_00_knife-0005-sketch-12.png,knife-0005-sketch-12.png,1.0,13.039925,8.753334,3.0310774
alexnet,1,655,NaN,knife,knife,0,0655_ske_dnn_0_knife_00_knife-0006-sketch-13.png,knife-0006-sketch-13.png,1.0,9.806601,3.9259098,4.158276
alexnet,1,656,NaN,clock,knife,0,0656_ske_dnn_0_knife_00_knife-0007-sketch-14.png,knife-0007-sketch-14.png,0.0,5.8601923,7.601614,-1.2313712
alexnet,1,657,NaN,knife,knife,0,0657_ske_dnn_0_knife_00_knife-0008-sketch-15.png,knife-0008-sketch-15.png,1.0,7.660663,6.085893,1.1135305
alexnet,1,658,NaN,knife,knife,0,0658_ske_dnn_0_knife_00_knife-0009-sketch-16.png,knife-0009-sketch-16.png,1.0,6.8632603,4.6563725,1.5605053
alexnet,1,659,NaN,knife,knife,0,0659_ske_dnn_0_knife_00_knife-0010-sketch-17.png,knife-0010-sketch-17.png,1.0,16.339241,7.235616,6.4372344
alexnet,1,660,NaN,knife,knife,0,0660_ske_dnn_0_knife_00_knife-0011-sketch-18.png,knife-0011-sketch-18.png,1.0,6.940222,3.6275997,2.3423777
alexnet,1,661,NaN,oven,knife,0,0661_ske_dnn_0_knife_00_knife-0012-sketch-19.png,knife-0012-sketch-19.png,0.0,4.932305,5.9384336,-0.7114405
alexnet,1,662,NaN,knife,knife,0,0662_ske_dnn_0_knife_00_knife-0013-sketch-2.png,knife-0013-sketch-2.png,1.0,14.863952,6.554541,5.8756404
alexnet,1,663,NaN,knife,knife,0,0663_ske_dnn_0_knife_00_knife-0014-sketch-20.png,knife-0014-sketch-20.png,1.0,6.7035484,3.862672,2.008803
alexnet,1,664,NaN,knife,knife,0,0664_ske_dnn_0_knife_00_knife-0015-sketch-21.png,knife-0015-sketch-21.png,1.0,8.703498,8.661931,0.029392201
alexnet,1,665,NaN,clock,knife,0,0665_ske_dnn_0_knife_00_knife-0016-sketch-22.png,knife-0016-sketch-22.png,0.0,4.3077893,6.1132755,-1.2766715
alexnet,1,666,NaN,clock,knife,0,0666_ske_dnn_0_knife_00_knife-0017-sketch-23.png,knife-0017-sketch-23.png,0.0,3.791192,4.6072516,-0.57704127
alexnet,1,667,NaN,knife,knife,0,0667_ske_dnn_0_knife_00_knife-0018-sketch-24.png,knife-0018-sketch-24.png,1.0,6.628415,4.367834,1.5984722
alexnet,1,668,NaN,knife,knife,0,0668_ske_dnn_0_knife_00_knife-0019-sketch-25.png,knife-0019-sketch-25.png,1.0,6.4976244,6.015371,0.34100476
alexnet,1,669,NaN,knife,knife,0,0669_ske_dnn_0_knife_00_knife-0020-sketch-26.png,knife-0020-sketch-26.png,1.0,7.1968784,4.044584,2.229009
alexnet,1,670,NaN,knife,knife,0,0670_ske_dnn_0_knife_00_knife-0021-sketch-27.png,knife-0021-sketch-27.png,1.0,6.0682206,4.8252997,0.8788778
alexnet,1,671,NaN,knife,knife,0,0671_ske_dnn_0_knife_00_knife-0022-sketch-28.png,knife-0022-sketch-28.png,1.0,15.540646,10.257092,3.7360363
alexnet,1,672,NaN,knife,knife,0,0672_ske_dnn_0_knife_00_knife-0023-sketch-29.png,knife-0023-sketch-29.png,1.0,11.444496,9.872402,1.1116383
alexnet,1,673,NaN,knife,knife,0,0673_ske_dnn_0_knife_00_knife-0024-sketch-3.png,knife-0024-sketch-3.png,1.0,6.4746,5.384607,0.77074146
alexnet,1,674,NaN,clock,knife,0,0674_ske_dnn_0_knife_00_knife-0025-sketch-30.png,knife-0025-sketch-30.png,0.0,5.9329205,8.003123,-1.4638544
alexnet,1,675,NaN,knife,knife,0,0675_ske_dnn_0_knife_00_knife-0026-sketch-31.png,knife-0026-sketch-31.png,1.0,3.3263416,2.771092,0.39262083
alexnet,1,676,NaN,knife,knife,0,0676_ske_dnn_0_knife_00_knife-0027-sketch-32.png,knife-0027-sketch-32.png,1.0,7.7997017,6.1538343,1.1638039
alexnet,1,677,NaN,knife,knife,0,0677_ske_dnn_0_knife_00_knife-0028-sketch-33.png,knife-0028-sketch-33.png,1.0,13.448118,6.0438876,5.235582
alexnet,1,678,NaN,knife,knife,0,0678_ske_dnn_0_knife_00_knife-0029-sketch-34.png,knife-0029-sketch-34.png,1.0,7.024194,5.890967,0.80131245
alexnet,1,679,NaN,clock,knife,0,0679_ske_dnn_0_knife_00_knife-0030-sketch-35.png,knife-0030-sketch-35.png,0.0,2.2463264,5.6088824,-2.3776863
alexnet,1,680,NaN,knife,knife,0,0680_ske_dnn_0_knife_00_knife-0031-sketch-36.png,knife-0031-sketch-36.png,1.0,10.815658,5.4275823,3.8099446
alexnet,1,681,NaN,knife,knife,0,0681_ske_dnn_0_knife_00_knife-0032-sketch-37.png,knife-0032-sketch-37.png,1.0,8.851772,8.305965,0.38594377
alexnet,1,682,NaN,knife,knife,0,0682_ske_dnn_0_knife_00_knife-0033-sketch-38.png,knife-0033-sketch-38.png,1.0,3.637116,3.099446,0.38019004
alexnet,1,683,NaN,knife,knife,0,0683_ske_dnn_0_knife_00_knife-0034-sketch-39.png,knife-0034-sketch-39.png,1.0,8.1464,7.336521,0.5726712
alexnet,1,684,NaN,clock,knife,0,0684_ske_dnn_0_knife_00_knife-0035-sketch-4.png,knife-0035-sketch-4.png,0.0,3.7062154,5.657602,-1.3798386
alexnet,1,685,NaN,knife,knife,0,0685_ske_dnn_0_knife_00_knife-0036-sketch-40.png,knife-0036-sketch-40.png,1.0,9.890053,4.115733,4.0830607
alexnet,1,686,NaN,knife,knife,0,0686_ske_dnn_0_knife_00_knife-0037-sketch-41.png,knife-0037-sketch-41.png,1.0,7.9200225,7.6939874,0.15983097
alexnet,1,687,NaN,knife,knife,0,0687_ske_dnn_0_knife_00_knife-0038-sketch-42.png,knife-0038-sketch-42.png,1.0,6.6565104,6.1492257,0.35870442
alexnet,1,688,NaN,knife,knife,0,0688_ske_dnn_0_knife_00_knife-0039-sketch-43.png,knife-0039-sketch-43.png,1.0,11.615883,8.048076,2.5228207
alexnet,1,689,NaN,knife,knife,0,0689_ske_dnn_0_knife_00_knife-0040-sketch-44.png,knife-0040-sketch-44.png,1.0,10.414944,4.3723598,4.2727523
alexnet,1,690,NaN,clock,knife,0,0690_ske_dnn_0_knife_00_knife-0041-sketch-45.png,knife-0041-sketch-45.png,0.0,4.327512,7.060276,-1.9323561
alexnet,1,691,NaN,knife,knife,0,0691_ske_dnn_0_knife_00_knife-0042-sketch-46.png,knife-0042-sketch-46.png,1.0,8.32882,5.848984,1.7535092
alexnet,1,692,NaN,knife,knife,0,0692_ske_dnn_0_knife_00_knife-0043-sketch-47.png,knife-0043-sketch-47.png,1.0,7.639116,5.7159057,1.3599149
alexnet,1,693,NaN,knife,knife,0,0693_ske_dnn_0_knife_00_knife-0044-sketch-48.png,knife-0044-sketch-48.png,1.0,15.635927,8.201304,5.2570724
alexnet,1,694,NaN,knife,knife,0,0694_ske_dnn_0_knife_00_knife-0045-sketch-49.png,knife-0045-sketch-49.png,1.0,7.1145225,4.305544,1.9862478
alexnet,1,695,NaN,knife,knife,0,0695_ske_dnn_0_knife_00_knife-0046-sketch-5.png,knife-0046-sketch-5.png,1.0,9.606379,5.167193,3.1389782
alexnet,1,696,NaN,oven,knife,0,0696_ske_dnn_0_knife_00_knife-0047-sketch-50.png,knife-0047-sketch-50.png,0.0,6.114681,6.833727,-0.5084424
alexnet,1,697,NaN,knife,knife,0,0697_ske_dnn_0_knife_00_knife-0048-sketch-6.png,knife-0048-sketch-6.png,1.0,8.31132,5.7719483,1.7956072
alexnet,1,698,NaN,knife,knife,0,0698_ske_dnn_0_knife_00_knife-0049-sketch-7.png,knife-0049-sketch-7.png,1.0,3.502262,3.16302,0.23988047
alexnet,1,699,NaN,knife,knife,0,0699_ske_dnn_0_knife_00_knife-0050-sketch-8.png,knife-0050-sketch-8.png,1.0,8.323369,6.48835,1.2975545
alexnet,1,700,NaN,knife,knife,0,0700_ske_dnn_0_knife_00_knife-0051-sketch-9.png,knife-0051-sketch-9.png,1.0,7.738678,3.5481143,2.963176
alexnet,1,701,NaN,bicycle,oven,0,0701_ske_dnn_0_oven_00_oven-0001-sketch-0.png,oven-0001-sketch-0.png,0.0,-3.506565,4.0160303,-5.3192782
alexnet,1,702,NaN,knife,oven,0,0702_ske_dnn_0_oven_00_oven-0002-sketch-1.png,oven-0002-sketch-1.png,0.0,4.3969426,5.808398,-0.99804956
alexnet,1,703,NaN,bicycle,oven,0,0703_ske_dnn_0_oven_00_oven-0003-sketch-10.png,oven-0003-sketch-10.png,0.0,-1.6395223,4.2070937,-4.134182
alexnet,1,704,NaN,clock,oven,0,0704_ske_dnn_0_oven_00_oven-0004-sketch-11.png,oven-0004-sketch-11.png,0.0,0.20115241,4.5288587,-3.0601506
alexnet,1,705,NaN,knife,oven,0,0705_ske_dnn_0_oven_00_oven-0005-sketch-12.png,oven-0005-sketch-12.png,0.0,3.3568227,6.1202345,-1.9540272
alexnet,1,706,NaN,clock,oven,0,0706_ske_dnn_0_oven_00_oven-0006-sketch-13.png,oven-0006-sketch-13.png,0.0,-1.9718938,10.65063,-8.925472
