subj,session,trial,rt,object_response,category,condition,imagename,filename,is_correct,targ_act,max_nontarg_act,decision_margin
alexnet_w1_mlp_simclrhn_probe0,1,1,NaN,airplane,airplane,0,0001_ske_dnn_0_airplane_00_airplane-0001-sketch-0.png,airplane-0001-sketch-0.png,1.0,6.0982227,-2.9014866,6.363755
alexnet_w1_mlp_simclrhn_probe0,1,2,NaN,airplane,airplane,0,0002_ske_dnn_0_airplane_00_airplane-0002-sketch-1.png,airplane-0002-sketch-1.png,1.0,2.9672434,-1.5781971,3.214112
alexnet_w1_mlp_simclrhn_probe0,1,3,NaN,airplane,airplane,0,0003_ske_dnn_0_airplane_00_airplane-0003-sketch-10.png,airplane-0003-sketch-10.png,1.0,-0.82569575,-1.9729999,0.8112666
alexnet_w1_mlp_simclrhn_probe0,1,4,NaN,airplane,airplane,0,0004_ske_dnn_0_airplane_00_airplane-0004-sketch-11.png,airplane-0004-sketch-11.png,1.0,-0.877889,-1.903722,0.72537357
alexnet_w1_mlp_simclrhn_probe0,1,5,NaN,airplane,airplane,0,0005_ske_dnn_0_airplane_00_airplane-0005-sketch-12.png,airplane-0005-sketch-12.png,1.0,4.4006767,-0.9949894,3.8153121
alexnet_w1_mlp_simclrhn_probe0,1,6,NaN,airplane,airplane,0,0006_ske_dnn_0_airplane_00_airplane-0006-sketch-13.png,airplane-0006-sketch-13.png,1.0,4.5268044,-2.532562,4.991726
alexnet_w1_mlp_simclrhn_probe0,1,7,NaN,airplane,airplane,0,0007_ske_dnn_0_airplane_00_airplane-0007-sketch-14.png,airplane-0007-sketch-14.png,1.0,1.1860635,-1.2467709,1.7202737
alexnet_w1_mlp_simclrhn_probe0,1,8,NaN,airplane,airplane,0,0008_ske_dnn_0_airplane_00_airplane-0008-sketch-15.png,airplane-0008-sketch-15.png,1.0,0.5991144,-1.1194348,1.2151978
alexnet_w1_mlp_simclrhn_probe0,1,9,NaN,airplane,airplane,0,0009_ske_dnn_0_airplane_00_airplane-0009-sketch-16.png,airplane-0009-sketch-16.png,1.0,3.6197398,-3.2070935,4.8273
alexnet_w1_mlp_simclrhn_probe0,1,10,NaN,airplane,airplane,0,0010_ske_dnn_0_airplane_00_airplane-0010-sketch-17.png,airplane-0010-sketch-17.png,1.0,-0.50695014,-4.4399157,2.7810266
alexnet_w1_mlp_simclrhn_probe0,1,11,NaN,clock,airplane,0,0011_ske_dnn_0_airplane_00_airplane-0011-sketch-18.png,airplane-0011-sketch-18.png,0.0,0.22495021,0.3710555,-0.10331205
alexnet_w1_mlp_simclrhn_probe0,1,12,NaN,airplane,airplane,0,0012_ske_dnn_0_airplane_00_airplane-0012-sketch-19.png,airplane-0012-sketch-19.png,1.0,0.2269006,-2.5860014,1.9890221
alexnet_w1_mlp_simclrhn_probe0,1,13,NaN,airplane,airplane,0,0013_ske_dnn_0_airplane_00_airplane-0013-sketch-2.png,airplane-0013-sketch-2.png,1.0,3.6521146,-2.0322118,4.019426
alexnet_w1_mlp_simclrhn_probe0,1,14,NaN,airplane,airplane,0,0014_ske_dnn_0_airplane_00_airplane-0014-sketch-20.png,airplane-0014-sketch-20.png,1.0,2.7675912,-2.4514608,3.6904273
alexnet_w1_mlp_simclrhn_probe0,1,15,NaN,airplane,airplane,0,0015_ske_dnn_0_airplane_00_airplane-0015-sketch-21.png,airplane-0015-sketch-21.png,1.0,1.3768325,-1.917324,2.3293204
alexnet_w1_mlp_simclrhn_probe0,1,16,NaN,airplane,airplane,0,0016_ske_dnn_0_airplane_00_airplane-0016-sketch-22.png,airplane-0016-sketch-22.png,1.0,2.900303,-3.3749478,4.437272
alexnet_w1_mlp_simclrhn_probe0,1,17,NaN,airplane,airplane,0,0017_ske_dnn_0_airplane_00_airplane-0017-sketch-23.png,airplane-0017-sketch-23.png,1.0,1.1158551,-2.0073502,2.2084396
alexnet_w1_mlp_simclrhn_probe0,1,18,NaN,airplane,airplane,0,0018_ske_dnn_0_airplane_00_airplane-0018-sketch-24.png,airplane-0018-sketch-24.png,1.0,-0.7657392,-1.6237283,0.60668993
alexnet_w1_mlp_simclrhn_probe0,1,19,NaN,clock,airplane,0,0019_ske_dnn_0_airplane_00_airplane-0019-sketch-25.png,airplane-0019-sketch-25.png,0.0,-0.32736698,-0.19550721,-0.093238935
alexnet_w1_mlp_simclrhn_probe0,1,20,NaN,airplane,airplane,0,0020_ske_dnn_0_airplane_00_airplane-0020-sketch-26.png,airplane-0020-sketch-26.png,1.0,0.040657073,-1.5305518,1.1110125
alexnet_w1_mlp_simclrhn_probe0,1,21,NaN,clock,airplane,0,0021_ske_dnn_0_airplane_00_airplane-0021-sketch-27.png,airplane-0021-sketch-27.png,0.0,1.205133,1.5282545,-0.22848144
alexnet_w1_mlp_simclrhn_probe0,1,22,NaN,airplane,airplane,0,0022_ske_dnn_0_airplane_00_airplane-0022-sketch-28.png,airplane-0022-sketch-28.png,1.0,0.14313182,-0.48221353,0.44218594
alexnet_w1_mlp_simclrhn_probe0,1,23,NaN,airplane,airplane,0,0023_ske_dnn_0_airplane_00_airplane-0023-sketch-29.png,airplane-0023-sketch-29.png,1.0,-0.8831957,-3.5631118,1.8949869
alexnet_w1_mlp_simclrhn_probe0,1,24,NaN,airplane,airplane,0,0024_ske_dnn_0_airplane_00_airplane-0024-sketch-3.png,airplane-0024-sketch-3.png,1.0,1.7216927,-0.4410844,1.5293144
alexnet_w1_mlp_simclrhn_probe0,1,25,NaN,airplane,airplane,0,0025_ske_dnn_0_airplane_00_airplane-0025-sketch-30.png,airplane-0025-sketch-30.png,1.0,1.2596437,-1.2772727,1.7938707
alexnet_w1_mlp_simclrhn_probe0,1,26,NaN,airplane,airplane,0,0026_ske_dnn_0_airplane_00_airplane-0027-sketch-32.png,airplane-0027-sketch-32.png,1.0,2.7415295,0.6699145,1.464853
alexnet_w1_mlp_simclrhn_probe0,1,27,NaN,clock,airplane,0,0027_ske_dnn_0_airplane_00_airplane-0028-sketch-33.png,airplane-0028-sketch-33.png,0.0,0.03203723,0.532978,-0.35421863
alexnet_w1_mlp_simclrhn_probe0,1,28,NaN,airplane,airplane,0,0028_ske_dnn_0_airplane_00_airplane-0029-sketch-34.png,airplane-0029-sketch-34.png,1.0,-0.0655058,-1.2349871,0.82694817
alexnet_w1_mlp_simclrhn_probe0,1,29,NaN,airplane,airplane,0,0029_ske_dnn_0_airplane_00_airplane-0030-sketch-35.png,airplane-0030-sketch-35.png,1.0,-0.95641464,-1.7953395,0.59320945
alexnet_w1_mlp_simclrhn_probe0,1,30,NaN,airplane,airplane,0,0030_ske_dnn_0_airplane_00_airplane-0031-sketch-36.png,airplane-0031-sketch-36.png,1.0,-0.5106012,-2.0889816,1.1160835
alexnet_w1_mlp_simclrhn_probe0,1,31,NaN,airplane,airplane,0,0031_ske_dnn_0_airplane_00_airplane-0032-sketch-37.png,airplane-0032-sketch-37.png,1.0,0.6114466,-3.5362365,2.932855
alexnet_w1_mlp_simclrhn_probe0,1,32,NaN,airplane,airplane,0,0032_ske_dnn_0_airplane_00_airplane-0033-sketch-38.png,airplane-0033-sketch-38.png,1.0,0.15611467,-2.281855,1.723905
alexnet_w1_mlp_simclrhn_probe0,1,33,NaN,clock,airplane,0,0033_ske_dnn_0_airplane_00_airplane-0034-sketch-39.png,airplane-0034-sketch-39.png,0.0,-2.8657293,-1.4731001,-0.98473763
alexnet_w1_mlp_simclrhn_probe0,1,34,NaN,airplane,airplane,0,0034_ske_dnn_0_airplane_00_airplane-0035-sketch-4.png,airplane-0035-sketch-4.png,1.0,1.8688136,-1.169106,2.1481335
alexnet_w1_mlp_simclrhn_probe0,1,35,NaN,airplane,airplane,0,0035_ske_dnn_0_airplane_00_airplane-0036-sketch-40.png,airplane-0036-sketch-40.png,1.0,3.3667104,-2.2268867,3.9552708
alexnet_w1_mlp_simclrhn_probe0,1,36,NaN,airplane,airplane,0,0036_ske_dnn_0_airplane_00_airplane-0037-sketch-41.png,airplane-0037-sketch-41.png,1.0,1.3265512,-0.4938891,1.2872458
alexnet_w1_mlp_simclrhn_probe0,1,37,NaN,car,airplane,0,0037_ske_dnn_0_airplane_00_airplane-0038-sketch-42.png,airplane-0038-sketch-42.png,0.0,0.2895009,0.7101035,-0.29741096
alexnet_w1_mlp_simclrhn_probe0,1,38,NaN,airplane,airplane,0,0038_ske_dnn_0_airplane_00_airplane-0039-sketch-43.png,airplane-0039-sketch-43.png,1.0,0.8616032,-1.5918714,1.7348685
alexnet_w1_mlp_simclrhn_probe0,1,39,NaN,clock,airplane,0,0039_ske_dnn_0_airplane_00_airplane-0040-sketch-44.png,airplane-0040-sketch-44.png,0.0,-2.809867,0.857297,-2.5930765
alexnet_w1_mlp_simclrhn_probe0,1,40,NaN,airplane,airplane,0,0040_ske_dnn_0_airplane_00_airplane-0041-sketch-45.png,airplane-0041-sketch-45.png,1.0,1.1174188,-1.101688,1.5691454
alexnet_w1_mlp_simclrhn_probe0,1,41,NaN,airplane,airplane,0,0041_ske_dnn_0_airplane_00_airplane-0042-sketch-46.png,airplane-0042-sketch-46.png,1.0,-0.30313253,-1.6192642,0.93064564
alexnet_w1_mlp_simclrhn_probe0,1,42,NaN,airplane,airplane,0,0042_ske_dnn_0_airplane_00_airplane-0043-sketch-47.png,airplane-0043-sketch-47.png,1.0,4.1938796,0.6192098,2.5276732
alexnet_w1_mlp_simclrhn_probe0,1,43,NaN,airplane,airplane,0,0043_ske_dnn_0_airplane_00_airplane-0044-sketch-48.png,airplane-0044-sketch-48.png,1.0,2.1552677,0.88948727,0.89504194
alexnet_w1_mlp_simclrhn_probe0,1,44,NaN,airplane,airplane,0,0044_ske_dnn_0_airplane_00_airplane-0045-sketch-49.png,airplane-0045-sketch-49.png,1.0,5.6615286,-1.5026344,5.0658283
alexnet_w1_mlp_simclrhn_probe0,1,45,NaN,airplane,airplane,0,0045_ske_dnn_0_airplane_00_airplane-0046-sketch-5.png,airplane-0046-sketch-5.png,1.0,-1.5681667,-2.192278,0.44131327
alexnet_w1_mlp_simclrhn_probe0,1,46,NaN,airplane,airplane,0,0046_ske_dnn_0_airplane_00_airplane-0047-sketch-50.png,airplane-0047-sketch-50.png,1.0,2.9544904,-1.5711845,3.2001355
alexnet_w1_mlp_simclrhn_probe0,1,47,NaN,airplane,airplane,0,0047_ske_dnn_0_airplane_00_airplane-0048-sketch-6.png,airplane-0048-sketch-6.png,1.0,1.1089333,-2.5380163,2.578783
alexnet_w1_mlp_simclrhn_probe0,1,48,NaN,airplane,airplane,0,0048_ske_dnn_0_airplane_00_airplane-0049-sketch-7.png,airplane-0049-sketch-7.png,1.0,1.1342553,0.09159148,0.73727465
alexnet_w1_mlp_simclrhn_probe0,1,49,NaN,clock,airplane,0,0049_ske_dnn_0_airplane_00_airplane-0050-sketch-8.png,airplane-0050-sketch-8.png,0.0,0.0834181,3.2415383,-2.2331283
alexnet_w1_mlp_simclrhn_probe0,1,50,NaN,airplane,airplane,0,0050_ske_dnn_0_airplane_00_airplane-0051-sketch-9.png,airplane-0051-sketch-9.png,1.0,4.9458838,-0.5580659,3.8918803
alexnet_w1_mlp_simclrhn_probe0,1,51,NaN,bird,bear,0,0051_ske_dnn_0_bear_00_bear-0005-sketch-12.png,bear-0005-sketch-12.png,0.0,-15.3214,-5.827732,-6.713037
alexnet_w1_mlp_simclrhn_probe0,1,52,NaN,clock,bear,0,0052_ske_dnn_0_bear_00_bear-0007-sketch-14.png,bear-0007-sketch-14.png,0.0,-15.626279,-5.2457137,-7.3401685
alexnet_w1_mlp_simclrhn_probe0,1,53,NaN,cat,bear,0,0053_ske_dnn_0_bear_00_bear-0017-sketch-23.png,bear-0017-sketch-23.png,0.0,-4.850812,1.6240983,-4.578453
alexnet_w1_mlp_simclrhn_probe0,1,54,NaN,elephant,bear,0,0054_ske_dnn_0_bear_00_bear-0022-sketch-28.png,bear-0022-sketch-28.png,0.0,-10.335332,-3.5772913,-4.7786565
alexnet_w1_mlp_simclrhn_probe0,1,55,NaN,cat,bear,0,0055_ske_dnn_0_bear_00_bear-0023-sketch-29.png,bear-0023-sketch-29.png,0.0,-9.94939,-4.984392,-3.510784
alexnet_w1_mlp_simclrhn_probe0,1,56,NaN,bear,bear,0,0056_ske_dnn_0_bear_00_bear-0026-sketch-31.png,bear-0026-sketch-31.png,1.0,-3.3509264,-3.9966455,0.45659232
alexnet_w1_mlp_simclrhn_probe0,1,57,NaN,cat,bear,0,0057_ske_dnn_0_bear_00_bear-0027-sketch-32.png,bear-0027-sketch-32.png,0.0,-12.606511,-5.4751344,-5.042645
alexnet_w1_mlp_simclrhn_probe0,1,58,NaN,cat,bear,0,0058_ske_dnn_0_bear_00_bear-0030-sketch-35.png,bear-0030-sketch-35.png,0.0,-4.450719,-3.0097742,-1.0189018
alexnet_w1_mlp_simclrhn_probe0,1,59,NaN,cat,bear,0,0059_ske_dnn_0_bear_00_bear-0033-sketch-38.png,bear-0033-sketch-38.png,0.0,-5.7232065,-2.041344,-2.60347
alexnet_w1_mlp_simclrhn_probe0,1,60,NaN,bottle,bear,0,0060_ske_dnn_0_bear_00_bear-0036-sketch-40.png,bear-0036-sketch-40.png,0.0,-14.196841,-5.1683526,-6.384105
alexnet_w1_mlp_simclrhn_probe0,1,61,NaN,bear,bear,0,0061_ske_dnn_0_bear_00_bear-0037-sketch-41.png,bear-0037-sketch-41.png,1.0,0.04048282,-0.6769328,0.50728947
alexnet_w1_mlp_simclrhn_probe0,1,62,NaN,cat,bear,0,0062_ske_dnn_0_bear_00_bear-0038-sketch-42.png,bear-0038-sketch-42.png,0.0,-3.791129,-2.7493668,-0.73663723
alexnet_w1_mlp_simclrhn_probe0,1,63,NaN,elephant,bear,0,0063_ske_dnn_0_bear_00_bear-0039-sketch-43.png,bear-0039-sketch-43.png,0.0,-7.6069603,-3.6266994,-2.8144696
alexnet_w1_mlp_simclrhn_probe0,1,64,NaN,bear,bear,0,0064_ske_dnn_0_bear_00_bear-0041-sketch-45.png,bear-0041-sketch-45.png,1.0,-1.9805601,-3.4487865,1.0381929
alexnet_w1_mlp_simclrhn_probe0,1,65,NaN,elephant,bear,0,0065_ske_dnn_0_bear_00_bear-0045-sketch-49.png,bear-0045-sketch-49.png,0.0,-0.7673155,1.1754982,-1.3737768
alexnet_w1_mlp_simclrhn_probe0,1,66,NaN,chair,bear,0,0066_ske_dnn_0_bear_00_bear-0048-sketch-7.png,bear-0048-sketch-7.png,0.0,-12.97962,-5.3891687,-5.3672595
alexnet_w1_mlp_simclrhn_probe0,1,67,NaN,cat,bear,0,0067_ske_dnn_0_bear_00_bear-0049-sketch-8.png,bear-0049-sketch-8.png,0.0,-14.110234,-3.2573597,-7.6741414
alexnet_w1_mlp_simclrhn_probe0,1,68,NaN,cat,bear,0,0068_ske_dnn_0_bear_00_bear-0053-sketch-10.png,bear-0053-sketch-10.png,0.0,-11.818224,-3.8247175,-5.6522627
alexnet_w1_mlp_simclrhn_probe0,1,69,NaN,bear,bear,0,0069_ske_dnn_0_bear_00_bear-0059-sketch-16.png,bear-0059-sketch-16.png,1.0,-0.8360485,-2.8345137,1.4131283
alexnet_w1_mlp_simclrhn_probe0,1,70,NaN,knife,bear,0,0070_ske_dnn_0_bear_00_bear-0068-sketch-24.png,bear-0068-sketch-24.png,0.0,-6.12908,-4.329484,-1.2725065
alexnet_w1_mlp_simclrhn_probe0,1,71,NaN,knife,bear,0,0071_ske_dnn_0_bear_00_bear-0070-sketch-26.png,bear-0070-sketch-26.png,0.0,-13.947627,-6.8912745,-4.989595
alexnet_w1_mlp_simclrhn_probe0,1,72,NaN,cat,bear,0,0072_ske_dnn_0_bear_00_bear-0073-sketch-29.png,bear-0073-sketch-29.png,0.0,-1.0908911,-0.6902527,-0.28329414
alexnet_w1_mlp_simclrhn_probe0,1,73,NaN,bear,bear,0,0073_ske_dnn_0_bear_00_bear-0079-sketch-34.png,bear-0079-sketch-34.png,1.0,1.3346398,-2.3742003,2.622546
alexnet_w1_mlp_simclrhn_probe0,1,74,NaN,bear,bear,0,0074_ske_dnn_0_bear_00_bear-0081-sketch-36.png,bear-0081-sketch-36.png,1.0,-1.3717442,-3.0824041,1.2096193
alexnet_w1_mlp_simclrhn_probe0,1,75,NaN,cat,bear,0,0075_ske_dnn_0_bear_00_bear-0085-sketch-4.png,bear-0085-sketch-4.png,0.0,-2.5011768,-0.15212303,-1.661032
alexnet_w1_mlp_simclrhn_probe0,1,76,NaN,dog,bear,0,0076_ske_dnn_0_bear_00_bear-0086-sketch-40.png,bear-0086-sketch-40.png,0.0,-5.1803045,-3.7996504,-0.9762699
alexnet_w1_mlp_simclrhn_probe0,1,77,NaN,clock,bear,0,0077_ske_dnn_0_bear_00_bear-0087-sketch-41.png,bear-0087-sketch-41.png,0.0,-12.683305,-1.0146561,-8.25098
alexnet_w1_mlp_simclrhn_probe0,1,78,NaN,clock,bear,0,0078_ske_dnn_0_bear_00_bear-0090-sketch-44.png,bear-0090-sketch-44.png,0.0,-28.61992,-0.9932998,-19.534971
alexnet_w1_mlp_simclrhn_probe0,1,79,NaN,clock,bear,0,0079_ske_dnn_0_bear_00_bear-0103-sketch-1.png,bear-0103-sketch-1.png,0.0,-13.732298,-1.9879214,-8.304528
alexnet_w1_mlp_simclrhn_probe0,1,80,NaN,bicycle,bear,0,0080_ske_dnn_0_bear_00_bear-0107-sketch-13.png,bear-0107-sketch-13.png,0.0,-16.27927,-6.4604,-6.94299
alexnet_w1_mlp_simclrhn_probe0,1,81,NaN,clock,bear,0,0081_ske_dnn_0_bear_00_bear-0110-sketch-16.png,bear-0110-sketch-16.png,0.0,-12.233362,-4.4573436,-5.4984756
alexnet_w1_mlp_simclrhn_probe0,1,82,NaN,elephant,bear,0,0082_ske_dnn_0_bear_00_bear-0112-sketch-18.png,bear-0112-sketch-18.png,0.0,-8.436099,-3.7088854,-3.342645
alexnet_w1_mlp_simclrhn_probe0,1,83,NaN,clock,bear,0,0083_ske_dnn_0_bear_00_bear-0117-sketch-22.png,bear-0117-sketch-22.png,0.0,-15.619835,1.6181046,-12.189064
alexnet_w1_mlp_simclrhn_probe0,1,84,NaN,elephant,bear,0,0084_ske_dnn_0_bear_00_bear-0123-sketch-28.png,bear-0123-sketch-28.png,0.0,-5.3956923,-2.8026385,-1.833566
alexnet_w1_mlp_simclrhn_probe0,1,85,NaN,clock,bear,0,0085_ske_dnn_0_bear_00_bear-0135-sketch-39.png,bear-0135-sketch-39.png,0.0,-8.638165,1.2946547,-7.023565
alexnet_w1_mlp_simclrhn_probe0,1,86,NaN,clock,bear,0,0086_ske_dnn_0_bear_00_bear-0136-sketch-4.png,bear-0136-sketch-4.png,0.0,-11.0355215,-1.6294227,-6.651117
alexnet_w1_mlp_simclrhn_probe0,1,87,NaN,bicycle,bear,0,0087_ske_dnn_0_bear_00_bear-0137-sketch-40.png,bear-0137-sketch-40.png,0.0,-13.870583,-3.3696828,-7.4252577
alexnet_w1_mlp_simclrhn_probe0,1,88,NaN,bear,bear,0,0088_ske_dnn_0_bear_00_bear-0148-sketch-50.png,bear-0148-sketch-50.png,1.0,-1.5512791,-2.3355525,0.554565
alexnet_w1_mlp_simclrhn_probe0,1,89,NaN,bicycle,bear,0,0089_ske_dnn_0_bear_00_bear-0149-sketch-6.png,bear-0149-sketch-6.png,0.0,-13.728914,-5.603505,-5.745532
alexnet_w1_mlp_simclrhn_probe0,1,90,NaN,bear,bear,0,0090_ske_dnn_0_bear_00_bear-0161-sketch-16.png,bear-0161-sketch-16.png,1.0,-0.12414718,-0.4444128,0.22646199
alexnet_w1_mlp_simclrhn_probe0,1,91,NaN,cat,bear,0,0091_ske_dnn_0_bear_00_bear-0166-sketch-20.png,bear-0166-sketch-20.png,0.0,-15.816286,-5.4015765,-7.3643117
alexnet_w1_mlp_simclrhn_probe0,1,92,NaN,clock,bear,0,0092_ske_dnn_0_bear_00_bear-0170-sketch-24.png,bear-0170-sketch-24.png,0.0,-32.065517,-5.6024194,-18.712236
alexnet_w1_mlp_simclrhn_probe0,1,93,NaN,bear,bear,0,0093_ske_dnn_0_bear_00_bear-0171-sketch-25.png,bear-0171-sketch-25.png,1.0,-1.3697603,-1.6833006,0.22170651
alexnet_w1_mlp_simclrhn_probe0,1,94,NaN,cat,bear,0,0094_ske_dnn_0_bear_00_bear-0179-sketch-32.png,bear-0179-sketch-32.png,0.0,-14.939751,-6.635531,-5.8719707
alexnet_w1_mlp_simclrhn_probe0,1,95,NaN,clock,bear,0,0095_ske_dnn_0_bear_00_bear-0187-sketch-4.png,bear-0187-sketch-4.png,0.0,-18.022373,-0.053240936,-12.706095
alexnet_w1_mlp_simclrhn_probe0,1,96,NaN,bear,bear,0,0096_ske_dnn_0_bear_00_bear-0188-sketch-40.png,bear-0188-sketch-40.png,1.0,-0.55374587,-3.0590546,1.7715207
alexnet_w1_mlp_simclrhn_probe0,1,97,NaN,cat,bear,0,0097_ske_dnn_0_bear_00_bear-0195-sketch-47.png,bear-0195-sketch-47.png,0.0,-12.976814,-7.0128284,-4.217175
alexnet_w1_mlp_simclrhn_probe0,1,98,NaN,cat,bear,0,0098_ske_dnn_0_bear_00_bear-0198-sketch-5.png,bear-0198-sketch-5.png,0.0,-6.012137,-4.103501,-1.3496095
alexnet_w1_mlp_simclrhn_probe0,1,99,NaN,cat,bear,0,0099_ske_dnn_0_bear_00_bear-0199-sketch-50.png,bear-0199-sketch-50.png,0.0,-14.002312,-5.055157,-6.326594
alexnet_w1_mlp_simclrhn_probe0,1,100,NaN,clock,bear,0,0100_ske_dnn_0_bear_00_bear-0201-sketch-7.png,bear-0201-sketch-7.png,0.0,-4.7382064,0.1897068,-3.484561
alexnet_w1_mlp_simclrhn_probe0,1,101,NaN,bicycle,bicycle,0,0101_ske_dnn_0_bicycle_00_bicycle-0002-sketch-1.png,bicycle-0002-sketch-1.png,1.0,12.128389,-5.9105964,12.755489
alexnet_w1_mlp_simclrhn_probe0,1,102,NaN,clock,bicycle,0,0102_ske_dnn_0_bicycle_00_bicycle-0003-sketch-10.png,bicycle-0003-sketch-10.png,0.0,-6.8848896,0.77126056,-5.413716
alexnet_w1_mlp_simclrhn_probe0,1,103,NaN,bicycle,bicycle,0,0103_ske_dnn_0_bicycle_00_bicycle-0004-sketch-11.png,bicycle-0004-sketch-11.png,1.0,8.122126,-0.2198503,5.898668
alexnet_w1_mlp_simclrhn_probe0,1,104,NaN,bicycle,bicycle,0,0104_ske_dnn_0_bicycle_00_bicycle-0008-sketch-15.png,bicycle-0008-sketch-15.png,1.0,0.67403984,-6.720993,5.229078
alexnet_w1_mlp_simclrhn_probe0,1,105,NaN,bicycle,bicycle,0,0105_ske_dnn_0_bicycle_00_bicycle-0011-sketch-18.png,bicycle-0011-sketch-18.png,1.0,1.2373161,-3.7521827,3.5281086
alexnet_w1_mlp_simclrhn_probe0,1,106,NaN,bicycle,bicycle,0,0106_ske_dnn_0_bicycle_00_bicycle-0013-sketch-2.png,bicycle-0013-sketch-2.png,1.0,6.1434965,-5.609074,8.310323
alexnet_w1_mlp_simclrhn_probe0,1,107,NaN,clock,bicycle,0,0107_ske_dnn_0_bicycle_00_bicycle-0016-sketch-22.png,bicycle-0016-sketch-22.png,0.0,-7.1452823,0.67917556,-5.5327272
alexnet_w1_mlp_simclrhn_probe0,1,108,NaN,bicycle,bicycle,0,0108_ske_dnn_0_bicycle_00_bicycle-0019-sketch-25.png,bicycle-0019-sketch-25.png,1.0,8.253548,-4.6570582,9.129177
alexnet_w1_mlp_simclrhn_probe0,1,109,NaN,bicycle,bicycle,0,0109_ske_dnn_0_bicycle_00_bicycle-0020-sketch-26.png,bicycle-0020-sketch-26.png,1.0,-5.869795,-9.287701,2.4168243
alexnet_w1_mlp_simclrhn_probe0,1,110,NaN,bicycle,bicycle,0,0110_ske_dnn_0_bicycle_00_bicycle-0022-sketch-28.png,bicycle-0022-sketch-28.png,1.0,-3.8668761,-10.189544,4.4708014
alexnet_w1_mlp_simclrhn_probe0,1,111,NaN,clock,bicycle,0,0111_ske_dnn_0_bicycle_00_bicycle-0023-sketch-29.png,bicycle-0023-sketch-29.png,0.0,-0.40520215,0.40539587,-0.57317936
alexnet_w1_mlp_simclrhn_probe0,1,112,NaN,clock,bicycle,0,0112_ske_dnn_0_bicycle_00_bicycle-0025-sketch-30.png,bicycle-0025-sketch-30.png,0.0,-3.5839005,-1.9528861,-1.1533014
alexnet_w1_mlp_simclrhn_probe0,1,113,NaN,bicycle,bicycle,0,0113_ske_dnn_0_bicycle_00_bicycle-0026-sketch-31.png,bicycle-0026-sketch-31.png,1.0,-3.799361,-6.9790244,2.2483616
alexnet_w1_mlp_simclrhn_probe0,1,114,NaN,cat,bicycle,0,0114_ske_dnn_0_bicycle_00_bicycle-0031-sketch-36.png,bicycle-0031-sketch-36.png,0.0,-7.0498686,-6.441698,-0.4300415
alexnet_w1_mlp_simclrhn_probe0,1,115,NaN,bicycle,bicycle,0,0115_ske_dnn_0_bicycle_00_bicycle-0034-sketch-39.png,bicycle-0034-sketch-39.png,1.0,-0.6201514,-4.470821,2.7228346
alexnet_w1_mlp_simclrhn_probe0,1,116,NaN,clock,bicycle,0,0116_ske_dnn_0_bicycle_00_bicycle-0037-sketch-41.png,bicycle-0037-sketch-41.png,0.0,-0.08220172,1.0829102,-0.82385856
alexnet_w1_mlp_simclrhn_probe0,1,117,NaN,clock,bicycle,0,0117_ske_dnn_0_bicycle_00_bicycle-0038-sketch-42.png,bicycle-0038-sketch-42.png,0.0,-3.9208508,-2.2126763,-1.2078618
alexnet_w1_mlp_simclrhn_probe0,1,118,NaN,bicycle,bicycle,0,0118_ske_dnn_0_bicycle_00_bicycle-0039-sketch-43.png,bicycle-0039-sketch-43.png,1.0,-4.121917,-7.737937,2.5569124
alexnet_w1_mlp_simclrhn_probe0,1,119,NaN,bicycle,bicycle,0,0119_ske_dnn_0_bicycle_00_bicycle-0040-sketch-44.png,bicycle-0040-sketch-44.png,1.0,-4.0836644,-6.5037603,1.7112663
alexnet_w1_mlp_simclrhn_probe0,1,120,NaN,bicycle,bicycle,0,0120_ske_dnn_0_bicycle_00_bicycle-0044-sketch-48.png,bicycle-0044-sketch-48.png,1.0,-0.11000085,-7.5369434,5.2516418
alexnet_w1_mlp_simclrhn_probe0,1,121,NaN,bicycle,bicycle,0,0121_ske_dnn_0_bicycle_00_bicycle-0045-sketch-49.png,bicycle-0045-sketch-49.png,1.0,12.128389,-5.9105964,12.755489
alexnet_w1_mlp_simclrhn_probe0,1,122,NaN,clock,bicycle,0,0122_ske_dnn_0_bicycle_00_bicycle-0046-sketch-5.png,bicycle-0046-sketch-5.png,0.0,-0.92587066,2.4451082,-2.383642
alexnet_w1_mlp_simclrhn_probe0,1,123,NaN,bicycle,bicycle,0,0123_ske_dnn_0_bicycle_00_bicycle-0047-sketch-50.png,bicycle-0047-sketch-50.png,1.0,6.1434965,-5.609074,8.310323
alexnet_w1_mlp_simclrhn_probe0,1,124,NaN,bicycle,bicycle,0,0124_ske_dnn_0_bicycle_00_bicycle-0048-sketch-6.png,bicycle-0048-sketch-6.png,1.0,2.1936755,-3.2675428,3.8616645
alexnet_w1_mlp_simclrhn_probe0,1,125,NaN,bicycle,bicycle,0,0125_ske_dnn_0_bicycle_00_bicycle-0053-sketch-1.png,bicycle-0053-sketch-1.png,1.0,-1.1113839,-10.986801,6.982975
alexnet_w1_mlp_simclrhn_probe0,1,126,NaN,bicycle,bicycle,0,0126_ske_dnn_0_bicycle_00_bicycle-0054-sketch-10.png,bicycle-0054-sketch-10.png,1.0,4.573826,-10.468207,10.636324
alexnet_w1_mlp_simclrhn_probe0,1,127,NaN,bicycle,bicycle,0,0127_ske_dnn_0_bicycle_00_bicycle-0056-sketch-12.png,bicycle-0056-sketch-12.png,1.0,4.3410144,-6.716178,7.8186154
alexnet_w1_mlp_simclrhn_probe0,1,128,NaN,clock,bicycle,0,0128_ske_dnn_0_bicycle_00_bicycle-0057-sketch-13.png,bicycle-0057-sketch-13.png,0.0,-4.304124,-2.6938162,-1.1386595
alexnet_w1_mlp_simclrhn_probe0,1,129,NaN,bicycle,bicycle,0,0129_ske_dnn_0_bicycle_00_bicycle-0058-sketch-14.png,bicycle-0058-sketch-14.png,1.0,-0.25786555,-5.871767,3.9696279
alexnet_w1_mlp_simclrhn_probe0,1,130,NaN,clock,bicycle,0,0130_ske_dnn_0_bicycle_00_bicycle-0059-sketch-15.png,bicycle-0059-sketch-15.png,0.0,-3.553806,0.59907085,-2.9365275
alexnet_w1_mlp_simclrhn_probe0,1,131,NaN,bicycle,bicycle,0,0131_ske_dnn_0_bicycle_00_bicycle-0060-sketch-16.png,bicycle-0060-sketch-16.png,1.0,4.362095,1.3326064,2.1421719
alexnet_w1_mlp_simclrhn_probe0,1,132,NaN,bicycle,bicycle,0,0132_ske_dnn_0_bicycle_00_bicycle-0062-sketch-18.png,bicycle-0062-sketch-18.png,1.0,4.6516995,2.122225,1.7886086
alexnet_w1_mlp_simclrhn_probe0,1,133,NaN,bicycle,bicycle,0,0133_ske_dnn_0_bicycle_00_bicycle-0066-sketch-21.png,bicycle-0066-sketch-21.png,1.0,2.0636783,-4.1200957,4.3725886
alexnet_w1_mlp_simclrhn_probe0,1,134,NaN,bicycle,bicycle,0,0134_ske_dnn_0_bicycle_00_bicycle-0068-sketch-23.png,bicycle-0068-sketch-23.png,1.0,12.30825,-5.3264446,12.469613
alexnet_w1_mlp_simclrhn_probe0,1,135,NaN,clock,bicycle,0,0135_ske_dnn_0_bicycle_00_bicycle-0070-sketch-25.png,bicycle-0070-sketch-25.png,0.0,2.5770698,2.9994638,-0.29867768
alexnet_w1_mlp_simclrhn_probe0,1,136,NaN,bicycle,bicycle,0,0136_ske_dnn_0_bicycle_00_bicycle-0071-sketch-26.png,bicycle-0071-sketch-26.png,1.0,4.6322126,3.369711,0.89272356
alexnet_w1_mlp_simclrhn_probe0,1,137,NaN,bicycle,bicycle,0,0137_ske_dnn_0_bicycle_00_bicycle-0075-sketch-3.png,bicycle-0075-sketch-3.png,1.0,3.755124,-2.640804,4.5226045
alexnet_w1_mlp_simclrhn_probe0,1,138,NaN,bicycle,bicycle,0,0138_ske_dnn_0_bicycle_00_bicycle-0078-sketch-32.png,bicycle-0078-sketch-32.png,1.0,14.246515,0.8558271,9.468646
alexnet_w1_mlp_simclrhn_probe0,1,139,NaN,bicycle,bicycle,0,0139_ske_dnn_0_bicycle_00_bicycle-0080-sketch-34.png,bicycle-0080-sketch-34.png,1.0,11.034848,4.466519,4.6445103
alexnet_w1_mlp_simclrhn_probe0,1,140,NaN,bicycle,bicycle,0,0140_ske_dnn_0_bicycle_00_bicycle-0081-sketch-35.png,bicycle-0081-sketch-35.png,1.0,3.0571547,-3.6339998,4.731361
alexnet_w1_mlp_simclrhn_probe0,1,141,NaN,clock,bicycle,0,0141_ske_dnn_0_bicycle_00_bicycle-0083-sketch-37.png,bicycle-0083-sketch-37.png,0.0,0.49536926,1.2250893,-0.51599
alexnet_w1_mlp_simclrhn_probe0,1,142,NaN,clock,bicycle,0,0142_ske_dnn_0_bicycle_00_bicycle-0084-sketch-38.png,bicycle-0084-sketch-38.png,0.0,0.8958465,2.6858168,-1.2657001
alexnet_w1_mlp_simclrhn_probe0,1,143,NaN,bicycle,bicycle,0,0143_ske_dnn_0_bicycle_00_bicycle-0087-sketch-40.png,bicycle-0087-sketch-40.png,1.0,12.139078,-5.219602,12.274441
alexnet_w1_mlp_simclrhn_probe0,1,144,NaN,bicycle,bicycle,0,0144_ske_dnn_0_bicycle_00_bicycle-0090-sketch-43.png,bicycle-0090-sketch-43.png,1.0,8.916796,4.103561,3.403471
alexnet_w1_mlp_simclrhn_probe0,1,145,NaN,clock,bicycle,0,0145_ske_dnn_0_bicycle_00_bicycle-0094-sketch-47.png,bicycle-0094-sketch-47.png,0.0,-4.071515,1.1836194,-3.7159414
alexnet_w1_mlp_simclrhn_probe0,1,146,NaN,bicycle,bicycle,0,0146_ske_dnn_0_bicycle_00_bicycle-0095-sketch-48.png,bicycle-0095-sketch-48.png,1.0,4.8400965,1.1354696,2.619567
alexnet_w1_mlp_simclrhn_probe0,1,147,NaN,bicycle,bicycle,0,0147_ske_dnn_0_bicycle_00_bicycle-0098-sketch-50.png,bicycle-0098-sketch-50.png,1.0,5.396287,2.2502725,2.2245681
alexnet_w1_mlp_simclrhn_probe0,1,148,NaN,clock,bicycle,0,0148_ske_dnn_0_bicycle_00_bicycle-0099-sketch-6.png,bicycle-0099-sketch-6.png,0.0,1.2572664,2.985802,-1.2222592
alexnet_w1_mlp_simclrhn_probe0,1,149,NaN,bicycle,bicycle,0,0149_ske_dnn_0_bicycle_00_bicycle-0101-sketch-8.png,bicycle-0101-sketch-8.png,1.0,10.44495,-6.3226166,11.856461
alexnet_w1_mlp_simclrhn_probe0,1,150,NaN,bicycle,bicycle,0,0150_ske_dnn_0_bicycle_00_bicycle-0102-sketch-9.png,bicycle-0102-sketch-9.png,1.0,-1.3613795,-6.90781,3.9219186
alexnet_w1_mlp_simclrhn_probe0,1,151,NaN,clock,bird,0,0151_ske_dnn_0_bird_00_bird-0030-sketch-35.png,bird-0030-sketch-35.png,0.0,-8.187639,-1.02703,-5.0633154
alexnet_w1_mlp_simclrhn_probe0,1,152,NaN,bird,bird,0,0152_ske_dnn_0_bird_00_bird-0047-sketch-50.png,bird-0047-sketch-50.png,1.0,-5.0630536,-5.485162,0.29847556
alexnet_w1_mlp_simclrhn_probe0,1,153,NaN,bicycle,bird,0,0153_ske_dnn_0_bird_00_bird-0072-sketch-27.png,bird-0072-sketch-27.png,0.0,-7.342396,-5.058941,-1.6146464
alexnet_w1_mlp_simclrhn_probe0,1,154,NaN,bird,bird,0,0154_ske_dnn_0_bird_00_bird-0228-sketch-3.png,bird-0228-sketch-3.png,1.0,-2.4675937,-4.3056254,1.2996848
alexnet_w1_mlp_simclrhn_probe0,1,155,NaN,bird,bird,0,0155_ske_dnn_0_bird_00_bird-0274-sketch-25.png,bird-0274-sketch-25.png,1.0,-3.2092845,-4.620477,0.9978639
alexnet_w1_mlp_simclrhn_probe0,1,156,NaN,clock,bird,0,0156_ske_dnn_0_bird_00_bird-0292-sketch-41.png,bird-0292-sketch-41.png,0.0,-4.6822042,-2.0629458,-1.8520954
alexnet_w1_mlp_simclrhn_probe0,1,157,NaN,bicycle,bird,0,0157_ske_dnn_0_bird_00_bird-0316-sketch-17.png,bird-0316-sketch-17.png,0.0,-8.505681,-3.7833142,-3.3392177
alexnet_w1_mlp_simclrhn_probe0,1,158,NaN,bicycle,bird,0,0158_ske_dnn_0_bird_00_bird-0325-sketch-25.png,bird-0325-sketch-25.png,0.0,-4.616041,-0.5056566,-2.9064808
alexnet_w1_mlp_simclrhn_probe0,1,159,NaN,clock,bird,0,0159_ske_dnn_0_bird_00_bird-0357-sketch-9.png,bird-0357-sketch-9.png,0.0,-5.3788066,-2.074969,-2.336166
alexnet_w1_mlp_simclrhn_probe0,1,160,NaN,bicycle,bird,0,0160_ske_dnn_0_bird_00_bird-0384-sketch-32.png,bird-0384-sketch-32.png,0.0,-4.9934015,-4.545392,-0.31679055
alexnet_w1_mlp_simclrhn_probe0,1,161,NaN,bird,bird,0,0161_ske_dnn_0_bird_00_bird-0415-sketch-14.png,bird-0415-sketch-14.png,1.0,-1.8712668,-2.7218077,0.6014232
alexnet_w1_mlp_simclrhn_probe0,1,162,NaN,bicycle,bird,0,0162_ske_dnn_0_bird_00_bird-0474-sketch-21.png,bird-0474-sketch-21.png,0.0,-4.3581963,-3.9762876,-0.2700502
alexnet_w1_mlp_simclrhn_probe0,1,163,NaN,bird,bird,0,0163_ske_dnn_0_bird_00_bird-0479-sketch-26.png,bird-0479-sketch-26.png,1.0,-3.4902499,-3.680115,0.13425492
alexnet_w1_mlp_simclrhn_probe0,1,164,NaN,bicycle,bird,0,0164_ske_dnn_0_bird_00_bird-0491-sketch-37.png,bird-0491-sketch-37.png,0.0,-2.9527886,-0.8712546,-1.4718667
alexnet_w1_mlp_simclrhn_probe0,1,165,NaN,bird,bird,0,0165_ske_dnn_0_bird_00_bird-0578-sketch-23.png,bird-0578-sketch-23.png,1.0,-3.4331439,-4.626736,0.84399724
alexnet_w1_mlp_simclrhn_probe0,1,166,NaN,bird,bird,0,0166_ske_dnn_0_bird_00_bird-0640-sketch-33.png,bird-0640-sketch-33.png,1.0,-4.7564206,-6.857315,1.4855567
alexnet_w1_mlp_simclrhn_probe0,1,167,NaN,clock,bird,0,0167_ske_dnn_0_bird_00_bird-0646-sketch-39.png,bird-0646-sketch-39.png,0.0,-7.201469,-1.48986,-4.0387173
alexnet_w1_mlp_simclrhn_probe0,1,168,NaN,bottle,bird,0,0168_ske_dnn_0_bird_00_bird-0685-sketch-28.png,bird-0685-sketch-28.png,0.0,-10.6981125,-8.302613,-1.6938738
alexnet_w1_mlp_simclrhn_probe0,1,169,NaN,chair,bird,0,0169_ske_dnn_0_bird_00_bird-0694-sketch-36.png,bird-0694-sketch-36.png,0.0,-3.9807005,-2.3968859,-1.1199261
alexnet_w1_mlp_simclrhn_probe0,1,170,NaN,bicycle,bird,0,0170_ske_dnn_0_bird_00_bird-0733-sketch-25.png,bird-0733-sketch-25.png,0.0,-8.561543,-5.671962,-2.043243
alexnet_w1_mlp_simclrhn_probe0,1,171,NaN,bird,bird,0,0171_ske_dnn_0_bird_00_bird-0748-sketch-39.png,bird-0748-sketch-39.png,1.0,-5.2446737,-5.692945,0.31697565
alexnet_w1_mlp_simclrhn_probe0,1,172,NaN,bird,bird,0,0172_ske_dnn_0_bird_00_bird-0749-sketch-4.png,bird-0749-sketch-4.png,1.0,-6.6186924,-8.785119,1.531895
alexnet_w1_mlp_simclrhn_probe0,1,173,NaN,bird,bird,0,0173_ske_dnn_0_bird_00_bird-0809-sketch-48.png,bird-0809-sketch-48.png,1.0,-5.1362267,-6.481164,0.95101434
alexnet_w1_mlp_simclrhn_probe0,1,174,NaN,bird,bird,0,0174_ske_dnn_0_bird_00_bird-0834-sketch-24.png,bird-0834-sketch-24.png,1.0,-2.7902224,-2.8511448,0.04307863
alexnet_w1_mlp_simclrhn_probe0,1,175,NaN,elephant,bird,0,0175_ske_dnn_0_bird_00_bird-0880-sketch-2.png,bird-0880-sketch-2.png,0.0,-8.506743,-5.8715706,-1.8633486
alexnet_w1_mlp_simclrhn_probe0,1,176,NaN,bird,bird,0,0176_ske_dnn_0_bird_00_bird-0939-sketch-27.png,bird-0939-sketch-27.png,1.0,-5.1015005,-5.2506948,0.10549626
alexnet_w1_mlp_simclrhn_probe0,1,177,NaN,bird,bird,0,0177_ske_dnn_0_bird_00_bird-0954-sketch-40.png,bird-0954-sketch-40.png,1.0,-3.0177245,-4.1159964,0.7765955
alexnet_w1_mlp_simclrhn_probe0,1,178,NaN,bicycle,bird,0,0178_ske_dnn_0_bird_00_bird-1033-sketch-20.png,bird-1033-sketch-20.png,0.0,-7.647271,-2.1752462,-3.869306
alexnet_w1_mlp_simclrhn_probe0,1,179,NaN,knife,bird,0,0179_ske_dnn_0_bird_00_bird-1081-sketch-18.png,bird-1081-sketch-18.png,0.0,-4.146384,-1.3846185,-1.952863
alexnet_w1_mlp_simclrhn_probe0,1,180,NaN,knife,bird,0,0180_ske_dnn_0_bird_00_bird-1096-sketch-31.png,bird-1096-sketch-31.png,0.0,-4.1139865,-3.3857896,-0.51491296
alexnet_w1_mlp_simclrhn_probe0,1,181,NaN,bicycle,bird,0,0181_ske_dnn_0_bird_00_bird-1148-sketch-32.png,bird-1148-sketch-32.png,0.0,-7.1395245,-6.2846584,-0.6044816
alexnet_w1_mlp_simclrhn_probe0,1,182,NaN,bird,bird,0,0182_ske_dnn_0_bird_00_bird-1201-sketch-34.png,bird-1201-sketch-34.png,1.0,-4.7084126,-6.3234787,1.1420242
alexnet_w1_mlp_simclrhn_probe0,1,183,NaN,bird,bird,0,0183_ske_dnn_0_bird_00_bird-1342-sketch-24.png,bird-1342-sketch-24.png,1.0,-1.3249147,-4.769186,2.4354677
alexnet_w1_mlp_simclrhn_probe0,1,184,NaN,bird,bird,0,0184_ske_dnn_0_bird_00_bird-1510-sketch-39.png,bird-1510-sketch-39.png,1.0,-4.249897,-4.270764,0.0147551065
alexnet_w1_mlp_simclrhn_probe0,1,185,NaN,bicycle,bird,0,0185_ske_dnn_0_bird_00_bird-1562-sketch-40.png,bird-1562-sketch-40.png,0.0,-14.449031,-5.1380367,-6.583867
alexnet_w1_mlp_simclrhn_probe0,1,186,NaN,elephant,bird,0,0186_ske_dnn_0_bird_00_bird-1565-sketch-43.png,bird-1565-sketch-43.png,0.0,-7.152582,-6.5430202,-0.4310254
alexnet_w1_mlp_simclrhn_probe0,1,187,NaN,bicycle,bird,0,0187_ske_dnn_0_bird_00_bird-1702-sketch-29.png,bird-1702-sketch-29.png,0.0,-5.953461,-1.8817925,-2.8791046
alexnet_w1_mlp_simclrhn_probe0,1,188,NaN,bird,bird,0,0188_ske_dnn_0_bird_00_bird-1721-sketch-46.png,bird-1721-sketch-46.png,1.0,-1.9826576,-4.8719854,2.0430634
alexnet_w1_mlp_simclrhn_probe0,1,189,NaN,bird,bird,0,0189_ske_dnn_0_bird_00_bird-1740-sketch-17.png,bird-1740-sketch-17.png,1.0,-2.5397215,-2.8066006,0.18871202
alexnet_w1_mlp_simclrhn_probe0,1,190,NaN,bicycle,bird,0,0190_ske_dnn_0_bird_00_bird-1749-sketch-25.png,bird-1749-sketch-25.png,0.0,-5.858212,-2.4919572,-2.3803017
alexnet_w1_mlp_simclrhn_probe0,1,191,NaN,bicycle,bird,0,0191_ske_dnn_0_bird_00_bird-1756-sketch-31.png,bird-1756-sketch-31.png,0.0,-4.7275405,-3.35524,-0.9703629
alexnet_w1_mlp_simclrhn_probe0,1,192,NaN,bird,bird,0,0192_ske_dnn_0_bird_00_bird-1860-sketch-33.png,bird-1860-sketch-33.png,1.0,-0.09976995,-2.5548248,1.7359859
alexnet_w1_mlp_simclrhn_probe0,1,193,NaN,bird,bird,0,0193_ske_dnn_0_bird_00_bird-1937-sketch-10.png,bird-1937-sketch-10.png,1.0,-3.5354226,-7.2543464,2.6296763
alexnet_w1_mlp_simclrhn_probe0,1,194,NaN,cat,bird,0,0194_ske_dnn_0_bird_00_bird-1948-sketch-20.png,bird-1948-sketch-20.png,0.0,-7.211416,-5.531098,-1.1881642
alexnet_w1_mlp_simclrhn_probe0,1,195,NaN,bird,bird,0,0195_ske_dnn_0_bird_00_bird-2010-sketch-30.png,bird-2010-sketch-30.png,1.0,-8.799324,-9.339636,0.38205814
alexnet_w1_mlp_simclrhn_probe0,1,196,NaN,bird,bird,0,0196_ske_dnn_0_bird_00_bird-2169-sketch-36.png,bird-2169-sketch-36.png,1.0,-3.5790496,-4.0557237,0.33705947
alexnet_w1_mlp_simclrhn_probe0,1,197,NaN,cat,bird,0,0197_ske_dnn_0_bird_00_bird-2262-sketch-28.png,bird-2262-sketch-28.png,0.0,-7.9814816,-6.082647,-1.3426789
alexnet_w1_mlp_simclrhn_probe0,1,198,NaN,airplane,bird,0,0198_ske_dnn_0_bird_00_bird-2312-sketch-27.png,bird-2312-sketch-27.png,0.0,-4.2197766,1.4617741,-4.017463
alexnet_w1_mlp_simclrhn_probe0,1,199,NaN,knife,bird,0,0199_ske_dnn_0_bird_00_bird-2313-sketch-28.png,bird-2313-sketch-28.png,0.0,-9.092104,-5.874115,-2.275462
alexnet_w1_mlp_simclrhn_probe0,1,200,NaN,bicycle,bird,0,0200_ske_dnn_0_bird_00_bird-2372-sketch-36.png,bird-2372-sketch-36.png,0.0,-4.366723,-2.2376044,-1.5055143
alexnet_w1_mlp_simclrhn_probe0,1,201,NaN,boat,boat,0,0201_ske_dnn_0_boat_00_boat-0001-sketch-0.png,boat-0001-sketch-0.png,1.0,-4.9213705,-6.09449,0.8295208
alexnet_w1_mlp_simclrhn_probe0,1,202,NaN,boat,boat,0,0202_ske_dnn_0_boat_00_boat-0002-sketch-1.png,boat-0002-sketch-1.png,1.0,0.05578103,-2.269033,1.6438918
alexnet_w1_mlp_simclrhn_probe0,1,203,NaN,knife,boat,0,0203_ske_dnn_0_boat_00_boat-0010-sketch-17.png,boat-0010-sketch-17.png,0.0,-3.098135,-1.0564672,-1.4436773
alexnet_w1_mlp_simclrhn_probe0,1,204,NaN,airplane,boat,0,0204_ske_dnn_0_boat_00_boat-0016-sketch-22.png,boat-0016-sketch-22.png,0.0,-4.2219677,1.642336,-4.146689
alexnet_w1_mlp_simclrhn_probe0,1,205,NaN,clock,boat,0,0205_ske_dnn_0_boat_00_boat-0029-sketch-34.png,boat-0029-sketch-34.png,0.0,-7.081401,2.9005916,-7.058335
alexnet_w1_mlp_simclrhn_probe0,1,206,NaN,airplane,boat,0,0206_ske_dnn_0_boat_00_boat-0034-sketch-39.png,boat-0034-sketch-39.png,0.0,-3.1339717,0.93111527,-2.8744504
alexnet_w1_mlp_simclrhn_probe0,1,207,NaN,knife,boat,0,0207_ske_dnn_0_boat_00_boat-0036-sketch-40.png,boat-0036-sketch-40.png,0.0,-6.34504,-0.4433323,-4.1731377
alexnet_w1_mlp_simclrhn_probe0,1,208,NaN,knife,boat,0,0208_ske_dnn_0_boat_00_boat-0051-sketch-9.png,boat-0051-sketch-9.png,0.0,-7.237329,-3.232856,-2.83159
alexnet_w1_mlp_simclrhn_probe0,1,209,NaN,boat,boat,0,0209_ske_dnn_0_boat_00_boat-0052-sketch-0.png,boat-0052-sketch-0.png,1.0,0.83911484,-3.0170002,2.7266853
alexnet_w1_mlp_simclrhn_probe0,1,210,NaN,boat,boat,0,0210_ske_dnn_0_boat_00_boat-0059-sketch-15.png,boat-0059-sketch-15.png,1.0,-3.1001801,-5.612566,1.7765251
alexnet_w1_mlp_simclrhn_probe0,1,211,NaN,clock,boat,0,0211_ske_dnn_0_boat_00_boat-0064-sketch-2.png,boat-0064-sketch-2.png,0.0,-4.1927195,-1.9340731,-1.5971043
alexnet_w1_mlp_simclrhn_probe0,1,212,NaN,airplane,boat,0,0212_ske_dnn_0_boat_00_boat-0065-sketch-20.png,boat-0065-sketch-20.png,0.0,0.007158816,1.2982612,-0.9129473
alexnet_w1_mlp_simclrhn_probe0,1,213,NaN,truck,boat,0,0213_ske_dnn_0_boat_00_boat-0067-sketch-22.png,boat-0067-sketch-22.png,0.0,-1.9217217,-1.4240212,-0.35192737
alexnet_w1_mlp_simclrhn_probe0,1,214,NaN,clock,boat,0,0214_ske_dnn_0_boat_00_boat-0068-sketch-23.png,boat-0068-sketch-23.png,0.0,-7.241964,1.8032637,-6.3959413
alexnet_w1_mlp_simclrhn_probe0,1,215,NaN,clock,boat,0,0215_ske_dnn_0_boat_00_boat-0070-sketch-25.png,boat-0070-sketch-25.png,0.0,-7.867259,-3.9122946,-2.7965822
alexnet_w1_mlp_simclrhn_probe0,1,216,NaN,bicycle,boat,0,0216_ske_dnn_0_boat_00_boat-0074-sketch-29.png,boat-0074-sketch-29.png,0.0,-6.4599733,-4.217103,-1.5859488
alexnet_w1_mlp_simclrhn_probe0,1,217,NaN,airplane,boat,0,0217_ske_dnn_0_boat_00_boat-0079-sketch-33.png,boat-0079-sketch-33.png,0.0,-5.116162,-3.987515,-0.7980738
alexnet_w1_mlp_simclrhn_probe0,1,218,NaN,clock,boat,0,0218_ske_dnn_0_boat_00_boat-0080-sketch-34.png,boat-0080-sketch-34.png,0.0,-3.4981549,-1.5846332,-1.3530642
alexnet_w1_mlp_simclrhn_probe0,1,219,NaN,chair,boat,0,0219_ske_dnn_0_boat_00_boat-0085-sketch-39.png,boat-0085-sketch-39.png,0.0,-2.6958146,-1.9996219,-0.49228263
alexnet_w1_mlp_simclrhn_probe0,1,220,NaN,boat,boat,0,0220_ske_dnn_0_boat_00_boat-0088-sketch-41.png,boat-0088-sketch-41.png,1.0,-2.26552,-3.0793526,0.5754665
alexnet_w1_mlp_simclrhn_probe0,1,221,NaN,boat,boat,0,0221_ske_dnn_0_boat_00_boat-0094-sketch-47.png,boat-0094-sketch-47.png,1.0,3.1306727,-1.5015385,3.275468
alexnet_w1_mlp_simclrhn_probe0,1,222,NaN,clock,boat,0,0222_ske_dnn_0_boat_00_boat-0099-sketch-6.png,boat-0099-sketch-6.png,0.0,-4.3432455,-1.0111574,-2.356142
alexnet_w1_mlp_simclrhn_probe0,1,223,NaN,airplane,boat,0,0223_ske_dnn_0_boat_00_boat-0107-sketch-12.png,boat-0107-sketch-12.png,0.0,-2.39683,-0.7790463,-1.1439459
alexnet_w1_mlp_simclrhn_probe0,1,224,NaN,boat,boat,0,0224_ske_dnn_0_boat_00_boat-0108-sketch-13.png,boat-0108-sketch-13.png,1.0,-1.8358094,-3.214317,0.9747522
alexnet_w1_mlp_simclrhn_probe0,1,225,NaN,clock,boat,0,0225_ske_dnn_0_boat_00_boat-0110-sketch-15.png,boat-0110-sketch-15.png,0.0,-5.898098,-3.923622,-1.3961655
alexnet_w1_mlp_simclrhn_probe0,1,226,NaN,bottle,boat,0,0226_ske_dnn_0_boat_00_boat-0113-sketch-18.png,boat-0113-sketch-18.png,0.0,-5.645087,-4.691068,-0.67459303
alexnet_w1_mlp_simclrhn_probe0,1,227,NaN,clock,boat,0,0227_ske_dnn_0_boat_00_boat-0115-sketch-2.png,boat-0115-sketch-2.png,0.0,-5.717183,-3.570018,-1.518275
alexnet_w1_mlp_simclrhn_probe0,1,228,NaN,bicycle,boat,0,0228_ske_dnn_0_boat_00_boat-0123-sketch-27.png,boat-0123-sketch-27.png,0.0,-6.9536476,-2.2644362,-3.3157732
alexnet_w1_mlp_simclrhn_probe0,1,229,NaN,knife,boat,0,0229_ske_dnn_0_boat_00_boat-0124-sketch-28.png,boat-0124-sketch-28.png,0.0,-9.610377,-4.026584,-3.948338
alexnet_w1_mlp_simclrhn_probe0,1,230,NaN,clock,boat,0,0230_ske_dnn_0_boat_00_boat-0125-sketch-29.png,boat-0125-sketch-29.png,0.0,-11.816981,-1.784608,-7.0939593
alexnet_w1_mlp_simclrhn_probe0,1,231,NaN,clock,boat,0,0231_ske_dnn_0_boat_00_boat-0126-sketch-3.png,boat-0126-sketch-3.png,0.0,-7.7654295,-1.7721363,-4.2378983
alexnet_w1_mlp_simclrhn_probe0,1,232,NaN,airplane,boat,0,0232_ske_dnn_0_boat_00_boat-0128-sketch-31.png,boat-0128-sketch-31.png,0.0,-10.252878,-4.668428,-3.9488027
alexnet_w1_mlp_simclrhn_probe0,1,233,NaN,clock,boat,0,0233_ske_dnn_0_boat_00_boat-0130-sketch-33.png,boat-0130-sketch-33.png,0.0,-12.719759,-5.9542594,-4.783931
alexnet_w1_mlp_simclrhn_probe0,1,234,NaN,bicycle,boat,0,0234_ske_dnn_0_boat_00_boat-0132-sketch-35.png,boat-0132-sketch-35.png,0.0,-8.579369,-3.912216,-3.3001752
alexnet_w1_mlp_simclrhn_probe0,1,235,NaN,bicycle,boat,0,0235_ske_dnn_0_boat_00_boat-0146-sketch-48.png,boat-0146-sketch-48.png,0.0,-8.950331,-4.264533,-3.3133593
alexnet_w1_mlp_simclrhn_probe0,1,236,NaN,airplane,boat,0,0236_ske_dnn_0_boat_00_boat-0152-sketch-8.png,boat-0152-sketch-8.png,0.0,-2.0483584,1.3834133,-2.426629
alexnet_w1_mlp_simclrhn_probe0,1,237,NaN,knife,boat,0,0237_ske_dnn_0_boat_00_boat-0165-sketch-19.png,boat-0165-sketch-19.png,0.0,-6.269972,-3.8349192,-1.7218423
alexnet_w1_mlp_simclrhn_probe0,1,238,NaN,boat,boat,0,0238_ske_dnn_0_boat_00_boat-0166-sketch-2.png,boat-0166-sketch-2.png,1.0,-5.713272,-8.266563,1.8054496
alexnet_w1_mlp_simclrhn_probe0,1,239,NaN,airplane,boat,0,0239_ske_dnn_0_boat_00_boat-0173-sketch-26.png,boat-0173-sketch-26.png,0.0,-1.7218635,2.6617906,-3.0997117
alexnet_w1_mlp_simclrhn_probe0,1,240,NaN,car,boat,0,0240_ske_dnn_0_boat_00_boat-0178-sketch-30.png,boat-0178-sketch-30.png,0.0,-10.437334,-1.8114104,-6.0994487
alexnet_w1_mlp_simclrhn_probe0,1,241,NaN,airplane,boat,0,0241_ske_dnn_0_boat_00_boat-0180-sketch-32.png,boat-0180-sketch-32.png,0.0,-5.1689425,-2.230519,-2.077779
alexnet_w1_mlp_simclrhn_probe0,1,242,NaN,clock,boat,0,0242_ske_dnn_0_boat_00_boat-0194-sketch-45.png,boat-0194-sketch-45.png,0.0,-2.8850348,-1.181594,-1.2045145
alexnet_w1_mlp_simclrhn_probe0,1,243,NaN,boat,boat,0,0243_ske_dnn_0_boat_00_boat-0197-sketch-48.png,boat-0197-sketch-48.png,1.0,-6.1992235,-8.166934,1.3913815
alexnet_w1_mlp_simclrhn_probe0,1,244,NaN,boat,boat,0,0244_ske_dnn_0_boat_00_boat-0212-sketch-15.png,boat-0212-sketch-15.png,1.0,-2.56626,-4.524102,1.3844035
alexnet_w1_mlp_simclrhn_probe0,1,245,NaN,chair,boat,0,0245_ske_dnn_0_boat_00_boat-0228-sketch-3.png,boat-0228-sketch-3.png,0.0,-8.322948,-1.58451,-4.764796
alexnet_w1_mlp_simclrhn_probe0,1,246,NaN,bicycle,boat,0,0246_ske_dnn_0_boat_00_boat-0233-sketch-34.png,boat-0233-sketch-34.png,0.0,-3.1598182,1.3260651,-3.1719985
alexnet_w1_mlp_simclrhn_probe0,1,247,NaN,bicycle,boat,0,0247_ske_dnn_0_boat_00_boat-0234-sketch-35.png,boat-0234-sketch-35.png,0.0,-2.4594853,-0.48400253,-1.3968773
alexnet_w1_mlp_simclrhn_probe0,1,248,NaN,keyboard,boat,0,0248_ske_dnn_0_boat_00_boat-0237-sketch-38.png,boat-0237-sketch-38.png,0.0,-5.942767,-2.9270067,-2.1324646
alexnet_w1_mlp_simclrhn_probe0,1,249,NaN,bicycle,boat,0,0249_ske_dnn_0_boat_00_boat-0239-sketch-4.png,boat-0239-sketch-4.png,0.0,-2.3899865,-0.59067154,-1.2723079
alexnet_w1_mlp_simclrhn_probe0,1,250,NaN,boat,boat,0,0250_ske_dnn_0_boat_00_boat-0253-sketch-7.png,boat-0253-sketch-7.png,1.0,0.6880771,-2.0195062,1.9145507
alexnet_w1_mlp_simclrhn_probe0,1,251,NaN,bottle,bottle,0,0251_ske_dnn_0_bottle_00_bottle-0002-sketch-1.png,bottle-0002-sketch-1.png,1.0,-0.5886049,-2.910652,1.6419352
alexnet_w1_mlp_simclrhn_probe0,1,252,NaN,clock,bottle,0,0252_ske_dnn_0_bottle_00_bottle-0003-sketch-10.png,bottle-0003-sketch-10.png,0.0,0.019604206,3.3450963,-2.351478
alexnet_w1_mlp_simclrhn_probe0,1,253,NaN,clock,bottle,0,0253_ske_dnn_0_bottle_00_bottle-0019-sketch-25.png,bottle-0019-sketch-25.png,0.0,-4.408808,-2.2309756,-1.5399603
alexnet_w1_mlp_simclrhn_probe0,1,254,NaN,clock,bottle,0,0254_ske_dnn_0_bottle_00_bottle-0030-sketch-35.png,bottle-0030-sketch-35.png,0.0,3.3970044,4.5548325,-0.8187081
alexnet_w1_mlp_simclrhn_probe0,1,255,NaN,bottle,bottle,0,0255_ske_dnn_0_bottle_00_bottle-0031-sketch-36.png,bottle-0031-sketch-36.png,1.0,1.1787136,0.3058189,0.61722976
alexnet_w1_mlp_simclrhn_probe0,1,256,NaN,clock,bottle,0,0256_ske_dnn_0_bottle_00_bottle-0038-sketch-42.png,bottle-0038-sketch-42.png,0.0,-1.9503528,0.5879547,-1.7948544
alexnet_w1_mlp_simclrhn_probe0,1,257,NaN,bottle,bottle,0,0257_ske_dnn_0_bottle_00_bottle-0039-sketch-43.png,bottle-0039-sketch-43.png,1.0,4.9190264,-3.6955895,6.0914536
alexnet_w1_mlp_simclrhn_probe0,1,258,NaN,clock,bottle,0,0258_ske_dnn_0_bottle_00_bottle-0041-sketch-45.png,bottle-0041-sketch-45.png,0.0,-0.24083956,3.4751446,-2.6275976
alexnet_w1_mlp_simclrhn_probe0,1,259,NaN,clock,bottle,0,0259_ske_dnn_0_bottle_00_bottle-0045-sketch-49.png,bottle-0045-sketch-49.png,0.0,-2.842806,-1.5593864,-0.9075148
alexnet_w1_mlp_simclrhn_probe0,1,260,NaN,bottle,bottle,0,0260_ske_dnn_0_bottle_00_bottle-0050-sketch-9.png,bottle-0050-sketch-9.png,1.0,0.24060573,-1.9489285,1.5482345
alexnet_w1_mlp_simclrhn_probe0,1,261,NaN,bottle,bottle,0,0261_ske_dnn_0_bottle_00_bottle-0054-sketch-11.png,bottle-0054-sketch-11.png,1.0,-0.28887945,-2.6192865,1.6478467
alexnet_w1_mlp_simclrhn_probe0,1,262,NaN,bottle,bottle,0,0262_ske_dnn_0_bottle_00_bottle-0066-sketch-22.png,bottle-0066-sketch-22.png,1.0,8.00852,5.848837,1.5271267
alexnet_w1_mlp_simclrhn_probe0,1,263,NaN,bicycle,bottle,0,0263_ske_dnn_0_bottle_00_bottle-0071-sketch-27.png,bottle-0071-sketch-27.png,0.0,-3.094275,-0.48937517,-1.8419424
alexnet_w1_mlp_simclrhn_probe0,1,264,NaN,clock,bottle,0,0264_ske_dnn_0_bottle_00_bottle-0082-sketch-37.png,bottle-0082-sketch-37.png,0.0,0.74502933,1.2297328,-0.34273708
alexnet_w1_mlp_simclrhn_probe0,1,265,NaN,bottle,bottle,0,0265_ske_dnn_0_bottle_00_bottle-0086-sketch-40.png,bottle-0086-sketch-40.png,1.0,3.234387,1.8214808,0.99907553
alexnet_w1_mlp_simclrhn_probe0,1,266,NaN,bottle,bottle,0,0266_ske_dnn_0_bottle_00_bottle-0090-sketch-44.png,bottle-0090-sketch-44.png,1.0,0.6219765,-2.308488,2.0721512
alexnet_w1_mlp_simclrhn_probe0,1,267,NaN,clock,bottle,0,0267_ske_dnn_0_bottle_00_bottle-0097-sketch-50.png,bottle-0097-sketch-50.png,0.0,-4.4780316,-1.0394497,-2.4314446
alexnet_w1_mlp_simclrhn_probe0,1,268,NaN,bicycle,bottle,0,0268_ske_dnn_0_bottle_00_bottle-0107-sketch-13.png,bottle-0107-sketch-13.png,0.0,-10.12544,1.8661966,-8.479367
alexnet_w1_mlp_simclrhn_probe0,1,269,NaN,bicycle,bottle,0,0269_ske_dnn_0_bottle_00_bottle-0114-sketch-2.png,bottle-0114-sketch-2.png,0.0,-10.728319,-4.4559255,-4.435252
alexnet_w1_mlp_simclrhn_probe0,1,270,NaN,clock,bottle,0,0270_ske_dnn_0_bottle_00_bottle-0126-sketch-30.png,bottle-0126-sketch-30.png,0.0,-3.5501401,-1.5515875,-1.4131901
alexnet_w1_mlp_simclrhn_probe0,1,271,NaN,bottle,bottle,0,0271_ske_dnn_0_bottle_00_bottle-0130-sketch-34.png,bottle-0130-sketch-34.png,1.0,3.0574403,2.5644825,0.34857383
alexnet_w1_mlp_simclrhn_probe0,1,272,NaN,knife,bottle,0,0272_ske_dnn_0_bottle_00_bottle-0131-sketch-35.png,bottle-0131-sketch-35.png,0.0,-10.526629,-6.6817036,-2.7187731
alexnet_w1_mlp_simclrhn_probe0,1,273,NaN,clock,bottle,0,0273_ske_dnn_0_bottle_00_bottle-0133-sketch-37.png,bottle-0133-sketch-37.png,0.0,-8.837728,-3.1442096,-4.025925
alexnet_w1_mlp_simclrhn_probe0,1,274,NaN,bottle,bottle,0,0274_ske_dnn_0_bottle_00_bottle-0135-sketch-39.png,bottle-0135-sketch-39.png,1.0,-1.8950253,-2.966328,0.7575254
alexnet_w1_mlp_simclrhn_probe0,1,275,NaN,keyboard,bottle,0,0275_ske_dnn_0_bottle_00_bottle-0143-sketch-46.png,bottle-0143-sketch-46.png,0.0,-3.4495385,1.5522459,-3.5367956
alexnet_w1_mlp_simclrhn_probe0,1,276,NaN,bottle,bottle,0,0276_ske_dnn_0_bottle_00_bottle-0145-sketch-48.png,bottle-0145-sketch-48.png,1.0,-0.93437874,-1.0120839,0.054945834
alexnet_w1_mlp_simclrhn_probe0,1,277,NaN,bottle,bottle,0,0277_ske_dnn_0_bottle_00_bottle-0150-sketch-7.png,bottle-0150-sketch-7.png,1.0,2.298713,1.4349421,0.6107782
alexnet_w1_mlp_simclrhn_probe0,1,278,NaN,bottle,bottle,0,0278_ske_dnn_0_bottle_00_bottle-0162-sketch-17.png,bottle-0162-sketch-17.png,1.0,-0.41556185,-1.6770129,0.8919806
alexnet_w1_mlp_simclrhn_probe0,1,279,NaN,clock,bottle,0,0279_ske_dnn_0_bottle_00_bottle-0165-sketch-2.png,bottle-0165-sketch-2.png,0.0,-0.39582607,1.1364924,-1.0835128
alexnet_w1_mlp_simclrhn_probe0,1,280,NaN,clock,bottle,0,0280_ske_dnn_0_bottle_00_bottle-0184-sketch-37.png,bottle-0184-sketch-37.png,0.0,-0.45282444,-0.31941232,-0.09433662
alexnet_w1_mlp_simclrhn_probe0,1,281,NaN,clock,bottle,0,0281_ske_dnn_0_bottle_00_bottle-0185-sketch-38.png,bottle-0185-sketch-38.png,0.0,1.208188,3.2050045,-1.4119624
alexnet_w1_mlp_simclrhn_probe0,1,282,NaN,bottle,bottle,0,0282_ske_dnn_0_bottle_00_bottle-0189-sketch-41.png,bottle-0189-sketch-41.png,1.0,-2.9080815,-5.3590775,1.7331159
alexnet_w1_mlp_simclrhn_probe0,1,283,NaN,clock,bottle,0,0283_ske_dnn_0_bottle_00_bottle-0202-sketch-8.png,bottle-0202-sketch-8.png,0.0,-0.63570565,-0.28755575,-0.24617916
alexnet_w1_mlp_simclrhn_probe0,1,284,NaN,clock,bottle,0,0284_ske_dnn_0_bottle_00_bottle-0207-sketch-11.png,bottle-0207-sketch-11.png,0.0,2.9697063,6.048815,-2.1772585
alexnet_w1_mlp_simclrhn_probe0,1,285,NaN,clock,bottle,0,0285_ske_dnn_0_bottle_00_bottle-0215-sketch-19.png,bottle-0215-sketch-19.png,0.0,-2.1761787,0.1607608,-1.6524658
alexnet_w1_mlp_simclrhn_probe0,1,286,NaN,clock,bottle,0,0286_ske_dnn_0_bottle_00_bottle-0217-sketch-20.png,bottle-0217-sketch-20.png,0.0,-1.2921778,4.002212,-3.7436988
alexnet_w1_mlp_simclrhn_probe0,1,287,NaN,knife,bottle,0,0287_ske_dnn_0_bottle_00_bottle-0237-sketch-39.png,bottle-0237-sketch-39.png,0.0,-0.6235124,2.1194084,-1.939538
alexnet_w1_mlp_simclrhn_probe0,1,288,NaN,clock,bottle,0,0288_ske_dnn_0_bottle_00_bottle-0243-sketch-44.png,bottle-0243-sketch-44.png,0.0,-2.0271838,-1.00518,-0.7226658
alexnet_w1_mlp_simclrhn_probe0,1,289,NaN,bottle,bottle,0,0289_ske_dnn_0_bottle_00_bottle-0245-sketch-46.png,bottle-0245-sketch-46.png,1.0,-0.94844204,-3.1395385,1.5493393
alexnet_w1_mlp_simclrhn_probe0,1,290,NaN,bottle,bottle,0,0290_ske_dnn_0_bottle_00_bottle-0268-sketch-20.png,bottle-0268-sketch-20.png,1.0,0.6536113,-2.145163,1.9790323
alexnet_w1_mlp_simclrhn_probe0,1,291,NaN,clock,bottle,0,0291_ske_dnn_0_bottle_00_bottle-0280-sketch-31.png,bottle-0280-sketch-31.png,0.0,2.755346,4.1337295,-0.9746643
alexnet_w1_mlp_simclrhn_probe0,1,292,NaN,bottle,bottle,0,0292_ske_dnn_0_bottle_00_bottle-0292-sketch-42.png,bottle-0292-sketch-42.png,1.0,2.6832843,2.0470278,0.44990125
alexnet_w1_mlp_simclrhn_probe0,1,293,NaN,bottle,bottle,0,0293_ske_dnn_0_bottle_00_bottle-0294-sketch-44.png,bottle-0294-sketch-44.png,1.0,-2.9203556,-3.3035126,0.27093294
alexnet_w1_mlp_simclrhn_probe0,1,294,NaN,clock,bottle,0,0294_ske_dnn_0_bottle_00_bottle-0296-sketch-46.png,bottle-0296-sketch-46.png,0.0,-0.52900565,1.9910034,-1.7819155
alexnet_w1_mlp_simclrhn_probe0,1,295,NaN,bottle,bottle,0,0295_ske_dnn_0_bottle_00_bottle-0301-sketch-50.png,bottle-0301-sketch-50.png,1.0,-0.91715664,-3.0144212,1.48299
alexnet_w1_mlp_simclrhn_probe0,1,296,NaN,bottle,bottle,0,0296_ske_dnn_0_bottle_00_bottle-0305-sketch-9.png,bottle-0305-sketch-9.png,1.0,-0.7932091,-2.2484305,1.028997
alexnet_w1_mlp_simclrhn_probe0,1,297,NaN,bottle,bottle,0,0297_ske_dnn_0_bottle_00_bottle-0313-sketch-15.png,bottle-0313-sketch-15.png,1.0,0.18982956,-2.2243342,1.7070717
alexnet_w1_mlp_simclrhn_probe0,1,298,NaN,bottle,bottle,0,0298_ske_dnn_0_bottle_00_bottle-0321-sketch-22.png,bottle-0321-sketch-22.png,1.0,-0.24957286,-4.004221,2.6549373
alexnet_w1_mlp_simclrhn_probe0,1,299,NaN,bottle,bottle,0,0299_ske_dnn_0_bottle_00_bottle-0330-sketch-30.png,bottle-0330-sketch-30.png,1.0,0.18225853,-4.8151245,3.5336835
alexnet_w1_mlp_simclrhn_probe0,1,300,NaN,bottle,bottle,0,0300_ske_dnn_0_bottle_00_bottle-0338-sketch-38.png,bottle-0338-sketch-38.png,1.0,-2.4944599,-4.609579,1.4956151
alexnet_w1_mlp_simclrhn_probe0,1,301,NaN,truck,car,0,0301_ske_dnn_0_car_00_car-0002-sketch-1.png,car-0002-sketch-1.png,0.0,-4.03634,-2.7706013,-0.8950126
alexnet_w1_mlp_simclrhn_probe0,1,302,NaN,car,car,0,0302_ske_dnn_0_car_00_car-0004-sketch-11.png,car-0004-sketch-11.png,1.0,0.15390961,-0.62925935,0.5537841
alexnet_w1_mlp_simclrhn_probe0,1,303,NaN,truck,car,0,0303_ske_dnn_0_car_00_car-0005-sketch-12.png,car-0005-sketch-12.png,0.0,-3.09009,-2.2531362,-0.59181577
alexnet_w1_mlp_simclrhn_probe0,1,304,NaN,car,car,0,0304_ske_dnn_0_car_00_car-0009-sketch-16.png,car-0009-sketch-16.png,1.0,2.910766,2.645125,0.18783654
alexnet_w1_mlp_simclrhn_probe0,1,305,NaN,car,car,0,0305_ske_dnn_0_car_00_car-0013-sketch-2.png,car-0013-sketch-2.png,1.0,0.45331576,-1.1051865,1.1020275
alexnet_w1_mlp_simclrhn_probe0,1,306,NaN,car,car,0,0306_ske_dnn_0_car_00_car-0014-sketch-20.png,car-0014-sketch-20.png,1.0,-1.7785197,-3.3739357,1.1281295
alexnet_w1_mlp_simclrhn_probe0,1,307,NaN,oven,car,0,0307_ske_dnn_0_car_00_car-0017-sketch-23.png,car-0017-sketch-23.png,0.0,-8.505038,-5.0310035,-2.4565136
alexnet_w1_mlp_simclrhn_probe0,1,308,NaN,oven,car,0,0308_ske_dnn_0_car_00_car-0018-sketch-24.png,car-0018-sketch-24.png,0.0,-0.5849521,-0.57956946,-0.0038061133
alexnet_w1_mlp_simclrhn_probe0,1,309,NaN,clock,car,0,0309_ske_dnn_0_car_00_car-0021-sketch-27.png,car-0021-sketch-27.png,0.0,-2.7600238,0.38162124,-2.2214785
alexnet_w1_mlp_simclrhn_probe0,1,310,NaN,clock,car,0,0310_ske_dnn_0_car_00_car-0022-sketch-28.png,car-0022-sketch-28.png,0.0,-2.436597,-0.5060119,-1.3651298
alexnet_w1_mlp_simclrhn_probe0,1,311,NaN,car,car,0,0311_ske_dnn_0_car_00_car-0024-sketch-3.png,car-0024-sketch-3.png,1.0,7.7939663,3.962835,2.709019
alexnet_w1_mlp_simclrhn_probe0,1,312,NaN,clock,car,0,0312_ske_dnn_0_car_00_car-0025-sketch-30.png,car-0025-sketch-30.png,0.0,-9.185569,1.5717012,-7.606539
alexnet_w1_mlp_simclrhn_probe0,1,313,NaN,oven,car,0,0313_ske_dnn_0_car_00_car-0029-sketch-34.png,car-0029-sketch-34.png,0.0,-8.381804,-5.5196056,-2.0238802
alexnet_w1_mlp_simclrhn_probe0,1,314,NaN,car,car,0,0314_ske_dnn_0_car_00_car-0030-sketch-35.png,car-0030-sketch-35.png,1.0,0.4720606,-1.0221788,1.0565867
alexnet_w1_mlp_simclrhn_probe0,1,315,NaN,knife,car,0,0315_ske_dnn_0_car_00_car-0032-sketch-37.png,car-0032-sketch-37.png,0.0,-3.5041158,-3.071887,-0.30563194
alexnet_w1_mlp_simclrhn_probe0,1,316,NaN,clock,car,0,0316_ske_dnn_0_car_00_car-0034-sketch-39.png,car-0034-sketch-39.png,0.0,-2.6566422,-0.40044093,-1.5953753
alexnet_w1_mlp_simclrhn_probe0,1,317,NaN,car,car,0,0317_ske_dnn_0_car_00_car-0040-sketch-44.png,car-0040-sketch-44.png,1.0,-0.47073635,-1.0653677,0.42046785
alexnet_w1_mlp_simclrhn_probe0,1,318,NaN,car,car,0,0318_ske_dnn_0_car_00_car-0043-sketch-47.png,car-0043-sketch-47.png,1.0,7.7939663,3.962835,2.709019
alexnet_w1_mlp_simclrhn_probe0,1,319,NaN,car,car,0,0319_ske_dnn_0_car_00_car-0044-sketch-48.png,car-0044-sketch-48.png,1.0,3.9557676,0.10520661,2.722758
alexnet_w1_mlp_simclrhn_probe0,1,320,NaN,car,car,0,0320_ske_dnn_0_car_00_car-0045-sketch-49.png,car-0045-sketch-49.png,1.0,2.3866928,2.207377,0.12679543
alexnet_w1_mlp_simclrhn_probe0,1,321,NaN,car,car,0,0321_ske_dnn_0_car_00_car-0047-sketch-50.png,car-0047-sketch-50.png,1.0,-0.33983764,-1.0255061,0.48484084
alexnet_w1_mlp_simclrhn_probe0,1,322,NaN,clock,car,0,0322_ske_dnn_0_car_00_car-0050-sketch-8.png,car-0050-sketch-8.png,0.0,-7.492151,0.75155145,-5.829178
alexnet_w1_mlp_simclrhn_probe0,1,323,NaN,clock,car,0,0323_ske_dnn_0_car_00_car-0052-sketch-0.png,car-0052-sketch-0.png,0.0,-1.6128254,-1.1385761,-0.33534485
alexnet_w1_mlp_simclrhn_probe0,1,324,NaN,car,car,0,0324_ske_dnn_0_car_00_car-0055-sketch-11.png,car-0055-sketch-11.png,1.0,3.532901,1.3362328,1.5532789
alexnet_w1_mlp_simclrhn_probe0,1,325,NaN,clock,car,0,0325_ske_dnn_0_car_00_car-0064-sketch-2.png,car-0064-sketch-2.png,0.0,-0.027495911,0.26586697,-0.20743889
alexnet_w1_mlp_simclrhn_probe0,1,326,NaN,car,car,0,0326_ske_dnn_0_car_00_car-0069-sketch-24.png,car-0069-sketch-24.png,1.0,0.24143876,-0.36377913,0.42795366
alexnet_w1_mlp_simclrhn_probe0,1,327,NaN,car,car,0,0327_ske_dnn_0_car_00_car-0076-sketch-30.png,car-0076-sketch-30.png,1.0,-1.232275,-3.3617086,1.505737
alexnet_w1_mlp_simclrhn_probe0,1,328,NaN,airplane,car,0,0328_ske_dnn_0_car_00_car-0079-sketch-33.png,car-0079-sketch-33.png,0.0,-4.9553065,-3.0531378,-1.3450364
alexnet_w1_mlp_simclrhn_probe0,1,329,NaN,clock,car,0,0329_ske_dnn_0_car_00_car-0083-sketch-37.png,car-0083-sketch-37.png,0.0,-0.11733643,0.9597942,-0.7616464
alexnet_w1_mlp_simclrhn_probe0,1,330,NaN,bicycle,car,0,0330_ske_dnn_0_car_00_car-0092-sketch-45.png,car-0092-sketch-45.png,0.0,-5.8054695,-1.3694782,-3.1367195
alexnet_w1_mlp_simclrhn_probe0,1,331,NaN,car,car,0,0331_ske_dnn_0_car_00_car-0096-sketch-49.png,car-0096-sketch-49.png,1.0,2.430148,-1.1964082,2.5643623
alexnet_w1_mlp_simclrhn_probe0,1,332,NaN,car,car,0,0332_ske_dnn_0_car_00_car-0098-sketch-50.png,car-0098-sketch-50.png,1.0,0.39672402,0.086138114,0.21961741
alexnet_w1_mlp_simclrhn_probe0,1,333,NaN,car,car,0,0333_ske_dnn_0_car_00_car-0100-sketch-7.png,car-0100-sketch-7.png,1.0,2.3362138,0.31008434,1.4326899
alexnet_w1_mlp_simclrhn_probe0,1,334,NaN,car,car,0,0334_ske_dnn_0_car_00_car-0112-sketch-17.png,car-0112-sketch-17.png,1.0,5.7145576,1.5182403,2.9672444
alexnet_w1_mlp_simclrhn_probe0,1,335,NaN,car,car,0,0335_ske_dnn_0_car_00_car-0114-sketch-19.png,car-0114-sketch-19.png,1.0,-0.9277081,-2.1226103,0.84492344
alexnet_w1_mlp_simclrhn_probe0,1,336,NaN,car,car,0,0336_ske_dnn_0_car_00_car-0116-sketch-20.png,car-0116-sketch-20.png,1.0,3.9544213,2.209072,1.2341483
alexnet_w1_mlp_simclrhn_probe0,1,337,NaN,car,car,0,0337_ske_dnn_0_car_00_car-0117-sketch-21.png,car-0117-sketch-21.png,1.0,-1.1924235,-1.4532527,0.1844341
alexnet_w1_mlp_simclrhn_probe0,1,338,NaN,car,car,0,0338_ske_dnn_0_car_00_car-0120-sketch-24.png,car-0120-sketch-24.png,1.0,3.690998,1.5989581,1.4792957
alexnet_w1_mlp_simclrhn_probe0,1,339,NaN,clock,car,0,0339_ske_dnn_0_car_00_car-0122-sketch-26.png,car-0122-sketch-26.png,0.0,4.5835037,5.1040754,-0.36809978
alexnet_w1_mlp_simclrhn_probe0,1,340,NaN,clock,car,0,0340_ske_dnn_0_car_00_car-0124-sketch-28.png,car-0124-sketch-28.png,0.0,-2.1730022,0.19768612,-1.6763299
alexnet_w1_mlp_simclrhn_probe0,1,341,NaN,car,car,0,0341_ske_dnn_0_car_00_car-0125-sketch-29.png,car-0125-sketch-29.png,1.0,0.7232726,-1.9434476,1.8856559
alexnet_w1_mlp_simclrhn_probe0,1,342,NaN,clock,car,0,0342_ske_dnn_0_car_00_car-0129-sketch-32.png,car-0129-sketch-32.png,0.0,-1.1495633,2.1777465,-2.3527634
alexnet_w1_mlp_simclrhn_probe0,1,343,NaN,car,car,0,0343_ske_dnn_0_car_00_car-0132-sketch-35.png,car-0132-sketch-35.png,1.0,4.1690435,0.5011214,2.5936127
alexnet_w1_mlp_simclrhn_probe0,1,344,NaN,clock,car,0,0344_ske_dnn_0_car_00_car-0136-sketch-39.png,car-0136-sketch-39.png,0.0,-3.6687336,-0.48883224,-2.24853
alexnet_w1_mlp_simclrhn_probe0,1,345,NaN,car,car,0,0345_ske_dnn_0_car_00_car-0138-sketch-40.png,car-0138-sketch-40.png,1.0,5.2568793,-1.0018718,4.4256053
alexnet_w1_mlp_simclrhn_probe0,1,346,NaN,car,car,0,0346_ske_dnn_0_car_00_car-0139-sketch-41.png,car-0139-sketch-41.png,1.0,2.407653,-2.3890996,3.3918166
alexnet_w1_mlp_simclrhn_probe0,1,347,NaN,clock,car,0,0347_ske_dnn_0_car_00_car-0143-sketch-45.png,car-0143-sketch-45.png,0.0,-0.51821274,-0.38142034,-0.09672683
alexnet_w1_mlp_simclrhn_probe0,1,348,NaN,car,car,0,0348_ske_dnn_0_car_00_car-0145-sketch-47.png,car-0145-sketch-47.png,1.0,-5.3989506,-6.0917873,0.4899096
alexnet_w1_mlp_simclrhn_probe0,1,349,NaN,car,car,0,0349_ske_dnn_0_car_00_car-0151-sketch-7.png,car-0151-sketch-7.png,1.0,6.637209,3.3835933,2.3006537
alexnet_w1_mlp_simclrhn_probe0,1,350,NaN,clock,car,0,0350_ske_dnn_0_car_00_car-0153-sketch-9.png,car-0153-sketch-9.png,0.0,-5.201615,-2.3616302,-2.0081725
alexnet_w1_mlp_simclrhn_probe0,1,351,NaN,cat,cat,0,0351_ske_dnn_0_cat_00_cat-0002-sketch-1.png,cat-0002-sketch-1.png,1.0,8.8837,-3.6658554,8.873877
alexnet_w1_mlp_simclrhn_probe0,1,352,NaN,cat,cat,0,0352_ske_dnn_0_cat_00_cat-0009-sketch-16.png,cat-0009-sketch-16.png,1.0,-1.468595,-4.782358,2.3431845
alexnet_w1_mlp_simclrhn_probe0,1,353,NaN,bicycle,cat,0,0353_ske_dnn_0_cat_00_cat-0011-sketch-18.png,cat-0011-sketch-18.png,0.0,-3.9033134,-3.637891,-0.18768194
alexnet_w1_mlp_simclrhn_probe0,1,354,NaN,cat,cat,0,0354_ske_dnn_0_cat_00_cat-0015-sketch-21.png,cat-0015-sketch-21.png,1.0,0.30148235,-4.9195724,3.691843
alexnet_w1_mlp_simclrhn_probe0,1,355,NaN,cat,cat,0,0355_ske_dnn_0_cat_00_cat-0016-sketch-22.png,cat-0016-sketch-22.png,1.0,4.9782605,-2.4097333,5.2241006
alexnet_w1_mlp_simclrhn_probe0,1,356,NaN,cat,cat,0,0356_ske_dnn_0_cat_00_cat-0021-sketch-27.png,cat-0021-sketch-27.png,1.0,0.27585903,-6.9944196,5.1408634
alexnet_w1_mlp_simclrhn_probe0,1,357,NaN,cat,cat,0,0357_ske_dnn_0_cat_00_cat-0027-sketch-32.png,cat-0027-sketch-32.png,1.0,-1.2861956,-6.500166,3.6868336
alexnet_w1_mlp_simclrhn_probe0,1,358,NaN,cat,cat,0,0358_ske_dnn_0_cat_00_cat-0042-sketch-46.png,cat-0042-sketch-46.png,1.0,-2.1260824,-7.8292537,4.032751
alexnet_w1_mlp_simclrhn_probe0,1,359,NaN,cat,cat,0,0359_ske_dnn_0_cat_00_cat-0043-sketch-47.png,cat-0043-sketch-47.png,1.0,-1.2385088,-3.1367152,1.3422346
alexnet_w1_mlp_simclrhn_probe0,1,360,NaN,cat,cat,0,0360_ske_dnn_0_cat_00_cat-0044-sketch-48.png,cat-0044-sketch-48.png,1.0,-0.2530125,-5.0344934,3.3810174
alexnet_w1_mlp_simclrhn_probe0,1,361,NaN,cat,cat,0,0361_ske_dnn_0_cat_00_cat-0048-sketch-7.png,cat-0048-sketch-7.png,1.0,-2.754963,-9.430601,4.720389
alexnet_w1_mlp_simclrhn_probe0,1,362,NaN,cat,cat,0,0362_ske_dnn_0_cat_00_cat-0052-sketch-1.png,cat-0052-sketch-1.png,1.0,0.33824277,-6.4612665,4.807979
alexnet_w1_mlp_simclrhn_probe0,1,363,NaN,clock,cat,0,0363_ske_dnn_0_cat_00_cat-0053-sketch-10.png,cat-0053-sketch-10.png,0.0,-8.37692,-1.491168,-4.868962
alexnet_w1_mlp_simclrhn_probe0,1,364,NaN,bicycle,cat,0,0364_ske_dnn_0_cat_00_cat-0059-sketch-16.png,cat-0059-sketch-16.png,0.0,-3.7284,-3.4066617,-0.2275033
alexnet_w1_mlp_simclrhn_probe0,1,365,NaN,bicycle,cat,0,0365_ske_dnn_0_cat_00_cat-0062-sketch-19.png,cat-0062-sketch-19.png,0.0,-7.0127845,-4.8564334,-1.5247705
alexnet_w1_mlp_simclrhn_probe0,1,366,NaN,cat,cat,0,0366_ske_dnn_0_cat_00_cat-0067-sketch-23.png,cat-0067-sketch-23.png,1.0,-2.0231006,-4.91111,2.042131
alexnet_w1_mlp_simclrhn_probe0,1,367,NaN,bottle,cat,0,0367_ske_dnn_0_cat_00_cat-0073-sketch-29.png,cat-0073-sketch-29.png,0.0,-8.53274,-2.9064167,-3.978411
alexnet_w1_mlp_simclrhn_probe0,1,368,NaN,keyboard,cat,0,0368_ske_dnn_0_cat_00_cat-0082-sketch-37.png,cat-0082-sketch-37.png,0.0,-8.438046,-3.6501875,-3.3855276
alexnet_w1_mlp_simclrhn_probe0,1,369,NaN,chair,cat,0,0369_ske_dnn_0_cat_00_cat-0085-sketch-4.png,cat-0085-sketch-4.png,0.0,-3.946359,-3.667205,-0.19739157
alexnet_w1_mlp_simclrhn_probe0,1,370,NaN,cat,cat,0,0370_ske_dnn_0_cat_00_cat-0090-sketch-44.png,cat-0090-sketch-44.png,1.0,-2.6948473,-4.500696,1.276928
alexnet_w1_mlp_simclrhn_probe0,1,371,NaN,cat,cat,0,0371_ske_dnn_0_cat_00_cat-0104-sketch-10.png,cat-0104-sketch-10.png,1.0,-1.5251093,-2.254025,0.5154212
alexnet_w1_mlp_simclrhn_probe0,1,372,NaN,cat,cat,0,0372_ske_dnn_0_cat_00_cat-0124-sketch-29.png,cat-0124-sketch-29.png,1.0,-7.215605,-10.338616,2.2083027
alexnet_w1_mlp_simclrhn_probe0,1,373,NaN,cat,cat,0,0373_ske_dnn_0_cat_00_cat-0128-sketch-32.png,cat-0128-sketch-32.png,1.0,1.7160858,-3.564207,3.733731
alexnet_w1_mlp_simclrhn_probe0,1,374,NaN,cat,cat,0,0374_ske_dnn_0_cat_00_cat-0134-sketch-38.png,cat-0134-sketch-38.png,1.0,-3.2765474,-4.9250846,1.1656919
alexnet_w1_mlp_simclrhn_probe0,1,375,NaN,cat,cat,0,0375_ske_dnn_0_cat_00_cat-0140-sketch-43.png,cat-0140-sketch-43.png,1.0,1.4594618,-3.6994748,3.647919
alexnet_w1_mlp_simclrhn_probe0,1,376,NaN,cat,cat,0,0376_ske_dnn_0_cat_00_cat-0149-sketch-6.png,cat-0149-sketch-6.png,1.0,-0.704463,-4.6907077,2.8187008
alexnet_w1_mlp_simclrhn_probe0,1,377,NaN,cat,cat,0,0377_ske_dnn_0_cat_00_cat-0150-sketch-7.png,cat-0150-sketch-7.png,1.0,0.31182614,-7.567383,5.571442
alexnet_w1_mlp_simclrhn_probe0,1,378,NaN,bicycle,cat,0,0378_ske_dnn_0_cat_00_cat-0152-sketch-9.png,cat-0152-sketch-9.png,0.0,-5.243168,-2.345337,-2.0490758
alexnet_w1_mlp_simclrhn_probe0,1,379,NaN,clock,cat,0,0379_ske_dnn_0_cat_00_cat-0158-sketch-13.png,cat-0158-sketch-13.png,0.0,-11.316821,-4.214314,-5.022231
alexnet_w1_mlp_simclrhn_probe0,1,380,NaN,cat,cat,0,0380_ske_dnn_0_cat_00_cat-0160-sketch-15.png,cat-0160-sketch-15.png,1.0,-0.33510578,-2.4921086,1.5252315
alexnet_w1_mlp_simclrhn_probe0,1,381,NaN,cat,cat,0,0381_ske_dnn_0_cat_00_cat-0175-sketch-29.png,cat-0175-sketch-29.png,1.0,-3.430419,-6.463505,2.1447155
alexnet_w1_mlp_simclrhn_probe0,1,382,NaN,clock,cat,0,0382_ske_dnn_0_cat_00_cat-0207-sketch-11.png,cat-0207-sketch-11.png,0.0,-12.493117,0.9049031,-9.473831
alexnet_w1_mlp_simclrhn_probe0,1,383,NaN,bicycle,cat,0,0383_ske_dnn_0_cat_00_cat-0229-sketch-31.png,cat-0229-sketch-31.png,0.0,-8.577656,-1.259022,-5.175056
alexnet_w1_mlp_simclrhn_probe0,1,384,NaN,clock,cat,0,0384_ske_dnn_0_cat_00_cat-0233-sketch-35.png,cat-0233-sketch-35.png,0.0,-12.493117,0.9049031,-9.473831
alexnet_w1_mlp_simclrhn_probe0,1,385,NaN,clock,cat,0,0385_ske_dnn_0_cat_00_cat-0241-sketch-42.png,cat-0241-sketch-42.png,0.0,-13.482896,-1.4192624,-8.530277
alexnet_w1_mlp_simclrhn_probe0,1,386,NaN,clock,cat,0,0386_ske_dnn_0_cat_00_cat-0245-sketch-46.png,cat-0245-sketch-46.png,0.0,-8.222526,-1.315011,-4.8843503
alexnet_w1_mlp_simclrhn_probe0,1,387,NaN,clock,cat,0,0387_ske_dnn_0_cat_00_cat-0250-sketch-50.png,cat-0250-sketch-50.png,0.0,-12.361579,-0.3164656,-8.517181
alexnet_w1_mlp_simclrhn_probe0,1,388,NaN,clock,cat,0,0388_ske_dnn_0_cat_00_cat-0251-sketch-6.png,cat-0251-sketch-6.png,0.0,-13.482896,-1.4192624,-8.530277
alexnet_w1_mlp_simclrhn_probe0,1,389,NaN,cat,cat,0,0389_ske_dnn_0_cat_00_cat-0258-sketch-11.png,cat-0258-sketch-11.png,1.0,0.22369306,-5.32602,3.9242396
alexnet_w1_mlp_simclrhn_probe0,1,390,NaN,bicycle,cat,0,0390_ske_dnn_0_cat_00_cat-0260-sketch-13.png,cat-0260-sketch-13.png,0.0,-20.050669,-4.176732,-11.224568
alexnet_w1_mlp_simclrhn_probe0,1,391,NaN,elephant,cat,0,0391_ske_dnn_0_cat_00_cat-0264-sketch-17.png,cat-0264-sketch-17.png,0.0,-6.8871517,-5.541841,-0.9512783
alexnet_w1_mlp_simclrhn_probe0,1,392,NaN,cat,cat,0,0392_ske_dnn_0_cat_00_cat-0265-sketch-18.png,cat-0265-sketch-18.png,1.0,-0.53608584,-3.461666,2.0686977
alexnet_w1_mlp_simclrhn_probe0,1,393,NaN,knife,cat,0,0393_ske_dnn_0_cat_00_cat-0269-sketch-21.png,cat-0269-sketch-21.png,0.0,-9.607417,-3.8137662,-4.0967298
alexnet_w1_mlp_simclrhn_probe0,1,394,NaN,cat,cat,0,0394_ske_dnn_0_cat_00_cat-0274-sketch-26.png,cat-0274-sketch-26.png,1.0,-4.8975244,-7.819047,2.0658286
alexnet_w1_mlp_simclrhn_probe0,1,395,NaN,knife,cat,0,0395_ske_dnn_0_cat_00_cat-0279-sketch-30.png,cat-0279-sketch-30.png,0.0,-4.327699,-3.8305056,-0.35156897
alexnet_w1_mlp_simclrhn_probe0,1,396,NaN,elephant,cat,0,0396_ske_dnn_0_cat_00_cat-0289-sketch-4.png,cat-0289-sketch-4.png,0.0,-4.304009,-2.7718883,-1.083373
alexnet_w1_mlp_simclrhn_probe0,1,397,NaN,cat,cat,0,0397_ske_dnn_0_cat_00_cat-0293-sketch-43.png,cat-0293-sketch-43.png,1.0,0.24575503,-5.8148637,4.285505
alexnet_w1_mlp_simclrhn_probe0,1,398,NaN,cat,cat,0,0398_ske_dnn_0_cat_00_cat-0295-sketch-45.png,cat-0295-sketch-45.png,1.0,4.027895,-4.9434204,6.343678
alexnet_w1_mlp_simclrhn_probe0,1,399,NaN,cat,cat,0,0399_ske_dnn_0_cat_00_cat-0302-sketch-6.png,cat-0302-sketch-6.png,1.0,-1.9528962,-5.399585,2.437177
alexnet_w1_mlp_simclrhn_probe0,1,400,NaN,cat,cat,0,0400_ske_dnn_0_cat_00_cat-0304-sketch-8.png,cat-0304-sketch-8.png,1.0,1.9139274,-3.4715362,3.808098
alexnet_w1_mlp_simclrhn_probe0,1,401,NaN,clock,chair,0,0401_ske_dnn_0_chair_00_chair-0002-sketch-1.png,chair-0002-sketch-1.png,0.0,-4.0342813,-1.5161449,-1.7805914
alexnet_w1_mlp_simclrhn_probe0,1,402,NaN,chair,chair,0,0402_ske_dnn_0_chair_00_chair-0005-sketch-12.png,chair-0005-sketch-12.png,1.0,-2.9724991,-4.1348214,0.821886
alexnet_w1_mlp_simclrhn_probe0,1,403,NaN,chair,chair,0,0403_ske_dnn_0_chair_00_chair-0006-sketch-13.png,chair-0006-sketch-13.png,1.0,-0.7716838,-1.6053158,0.58946687
alexnet_w1_mlp_simclrhn_probe0,1,404,NaN,chair,chair,0,0404_ske_dnn_0_chair_00_chair-0011-sketch-18.png,chair-0011-sketch-18.png,1.0,0.99735725,0.5769407,0.2972794
alexnet_w1_mlp_simclrhn_probe0,1,405,NaN,clock,chair,0,0405_ske_dnn_0_chair_00_chair-0013-sketch-2.png,chair-0013-sketch-2.png,0.0,-7.450165,-4.192087,-2.303809
alexnet_w1_mlp_simclrhn_probe0,1,406,NaN,chair,chair,0,0406_ske_dnn_0_chair_00_chair-0014-sketch-20.png,chair-0014-sketch-20.png,1.0,1.479248,-1.5598569,2.1489718
alexnet_w1_mlp_simclrhn_probe0,1,407,NaN,clock,chair,0,0407_ske_dnn_0_chair_00_chair-0017-sketch-23.png,chair-0017-sketch-23.png,0.0,-3.0281656,-0.81925654,-1.5619346
alexnet_w1_mlp_simclrhn_probe0,1,408,NaN,bicycle,chair,0,0408_ske_dnn_0_chair_00_chair-0029-sketch-34.png,chair-0029-sketch-34.png,0.0,-3.8855224,-3.6916122,-0.13711517
alexnet_w1_mlp_simclrhn_probe0,1,409,NaN,clock,chair,0,0409_ske_dnn_0_chair_00_chair-0034-sketch-39.png,chair-0034-sketch-39.png,0.0,-7.1331434,-3.9107163,-2.2786002
alexnet_w1_mlp_simclrhn_probe0,1,410,NaN,chair,chair,0,0410_ske_dnn_0_chair_00_chair-0040-sketch-44.png,chair-0040-sketch-44.png,1.0,1.1099758,-2.5070758,2.5576417
alexnet_w1_mlp_simclrhn_probe0,1,411,NaN,chair,chair,0,0411_ske_dnn_0_chair_00_chair-0051-sketch-9.png,chair-0051-sketch-9.png,1.0,1.3556751,-3.9049306,3.71981
alexnet_w1_mlp_simclrhn_probe0,1,412,NaN,oven,chair,0,0412_ske_dnn_0_chair_00_chair-0052-sketch-0.png,chair-0052-sketch-0.png,0.0,1.60753,1.7901008,-0.12909706
alexnet_w1_mlp_simclrhn_probe0,1,413,NaN,clock,chair,0,0413_ske_dnn_0_chair_00_chair-0055-sketch-11.png,chair-0055-sketch-11.png,0.0,-2.0961275,2.0975742,-2.965395
alexnet_w1_mlp_simclrhn_probe0,1,414,NaN,bicycle,chair,0,0414_ske_dnn_0_chair_00_chair-0060-sketch-16.png,chair-0060-sketch-16.png,0.0,-2.7375066,-0.38066834,-1.6665363
alexnet_w1_mlp_simclrhn_probe0,1,415,NaN,chair,chair,0,0415_ske_dnn_0_chair_00_chair-0062-sketch-18.png,chair-0062-sketch-18.png,1.0,0.6207726,-2.7086418,2.3542516
alexnet_w1_mlp_simclrhn_probe0,1,416,NaN,chair,chair,0,0416_ske_dnn_0_chair_00_chair-0063-sketch-19.png,chair-0063-sketch-19.png,1.0,-0.8062668,-2.9509184,1.5164977
alexnet_w1_mlp_simclrhn_probe0,1,417,NaN,chair,chair,0,0417_ske_dnn_0_chair_00_chair-0064-sketch-2.png,chair-0064-sketch-2.png,1.0,-1.4547334,-1.7007196,0.17393853
alexnet_w1_mlp_simclrhn_probe0,1,418,NaN,bicycle,chair,0,0418_ske_dnn_0_chair_00_chair-0066-sketch-21.png,chair-0066-sketch-21.png,0.0,-0.91995764,-0.62803864,-0.2064179
alexnet_w1_mlp_simclrhn_probe0,1,419,NaN,chair,chair,0,0419_ske_dnn_0_chair_00_chair-0067-sketch-22.png,chair-0067-sketch-22.png,1.0,0.44550776,-3.5878363,2.8520052
alexnet_w1_mlp_simclrhn_probe0,1,420,NaN,chair,chair,0,0420_ske_dnn_0_chair_00_chair-0071-sketch-26.png,chair-0071-sketch-26.png,1.0,1.6633663,-0.62528735,1.6183225
alexnet_w1_mlp_simclrhn_probe0,1,421,NaN,chair,chair,0,0421_ske_dnn_0_chair_00_chair-0072-sketch-27.png,chair-0072-sketch-27.png,1.0,1.6134328,-1.9531053,2.5219233
alexnet_w1_mlp_simclrhn_probe0,1,422,NaN,chair,chair,0,0422_ske_dnn_0_chair_00_chair-0076-sketch-30.png,chair-0076-sketch-30.png,1.0,1.828993,-3.7847133,3.9694898
alexnet_w1_mlp_simclrhn_probe0,1,423,NaN,chair,chair,0,0423_ske_dnn_0_chair_00_chair-0079-sketch-33.png,chair-0079-sketch-33.png,1.0,1.581506,-1.1771786,1.9506847
alexnet_w1_mlp_simclrhn_probe0,1,424,NaN,clock,chair,0,0424_ske_dnn_0_chair_00_chair-0083-sketch-37.png,chair-0083-sketch-37.png,0.0,-4.4787436,0.58254206,-3.5788693
alexnet_w1_mlp_simclrhn_probe0,1,425,NaN,chair,chair,0,0425_ske_dnn_0_chair_00_chair-0088-sketch-41.png,chair-0088-sketch-41.png,1.0,0.6202384,-0.7378885,0.96034074
alexnet_w1_mlp_simclrhn_probe0,1,426,NaN,chair,chair,0,0426_ske_dnn_0_chair_00_chair-0094-sketch-47.png,chair-0094-sketch-47.png,1.0,-0.3517084,-2.8442283,1.7624778
alexnet_w1_mlp_simclrhn_probe0,1,427,NaN,knife,chair,0,0427_ske_dnn_0_chair_00_chair-0105-sketch-11.png,chair-0105-sketch-11.png,0.0,-1.7537744,-0.38852024,-0.9653805
alexnet_w1_mlp_simclrhn_probe0,1,428,NaN,chair,chair,0,0428_ske_dnn_0_chair_00_chair-0118-sketch-23.png,chair-0118-sketch-23.png,1.0,0.19702953,-0.14897436,0.2446617
alexnet_w1_mlp_simclrhn_probe0,1,429,NaN,chair,chair,0,0429_ske_dnn_0_chair_00_chair-0122-sketch-27.png,chair-0122-sketch-27.png,1.0,5.821197,-2.863365,6.1409125
alexnet_w1_mlp_simclrhn_probe0,1,430,NaN,chair,chair,0,0430_ske_dnn_0_chair_00_chair-0124-sketch-29.png,chair-0124-sketch-29.png,1.0,0.7894671,-1.082197,1.3234664
alexnet_w1_mlp_simclrhn_probe0,1,431,NaN,chair,chair,0,0431_ske_dnn_0_chair_00_chair-0125-sketch-3.png,chair-0125-sketch-3.png,1.0,-0.40013897,-1.2646462,0.6112989
alexnet_w1_mlp_simclrhn_probe0,1,432,NaN,chair,chair,0,0432_ske_dnn_0_chair_00_chair-0127-sketch-31.png,chair-0127-sketch-31.png,1.0,1.3426359,-1.0702212,1.7061477
alexnet_w1_mlp_simclrhn_probe0,1,433,NaN,bicycle,chair,0,0433_ske_dnn_0_chair_00_chair-0129-sketch-33.png,chair-0129-sketch-33.png,0.0,0.6513202,2.2941434,-1.1616515
alexnet_w1_mlp_simclrhn_probe0,1,434,NaN,chair,chair,0,0434_ske_dnn_0_chair_00_chair-0130-sketch-34.png,chair-0130-sketch-34.png,1.0,1.1284657,-2.5373669,2.5921352
alexnet_w1_mlp_simclrhn_probe0,1,435,NaN,chair,chair,0,0435_ske_dnn_0_chair_00_chair-0131-sketch-35.png,chair-0131-sketch-35.png,1.0,-0.6131799,-2.7401714,1.5040102
alexnet_w1_mlp_simclrhn_probe0,1,436,NaN,chair,chair,0,0436_ske_dnn_0_chair_00_chair-0135-sketch-39.png,chair-0135-sketch-39.png,1.0,0.13292956,-1.9879712,1.4997033
alexnet_w1_mlp_simclrhn_probe0,1,437,NaN,chair,chair,0,0437_ske_dnn_0_chair_00_chair-0144-sketch-47.png,chair-0144-sketch-47.png,1.0,-3.2927666,-4.308748,0.7184072
alexnet_w1_mlp_simclrhn_probe0,1,438,NaN,chair,chair,0,0438_ske_dnn_0_chair_00_chair-0145-sketch-48.png,chair-0145-sketch-48.png,1.0,0.9089577,-0.7263159,1.1563132
alexnet_w1_mlp_simclrhn_probe0,1,439,NaN,bicycle,chair,0,0439_ske_dnn_0_chair_00_chair-0153-sketch-0.png,chair-0153-sketch-0.png,0.0,-7.7810373,0.9687047,-6.187002
alexnet_w1_mlp_simclrhn_probe0,1,440,NaN,chair,chair,0,0440_ske_dnn_0_chair_00_chair-0155-sketch-10.png,chair-0155-sketch-10.png,1.0,0.79210204,-2.6347206,2.4231296
alexnet_w1_mlp_simclrhn_probe0,1,441,NaN,chair,chair,0,0441_ske_dnn_0_chair_00_chair-0163-sketch-18.png,chair-0163-sketch-18.png,1.0,-1.1345887,-4.9520125,2.6993263
alexnet_w1_mlp_simclrhn_probe0,1,442,NaN,chair,chair,0,0442_ske_dnn_0_chair_00_chair-0166-sketch-20.png,chair-0166-sketch-20.png,1.0,-1.062203,-4.16702,2.1954372
alexnet_w1_mlp_simclrhn_probe0,1,443,NaN,bicycle,chair,0,0443_ske_dnn_0_chair_00_chair-0167-sketch-21.png,chair-0167-sketch-21.png,0.0,-4.578179,-4.500441,-0.05496893
alexnet_w1_mlp_simclrhn_probe0,1,444,NaN,chair,chair,0,0444_ske_dnn_0_chair_00_chair-0168-sketch-22.png,chair-0168-sketch-22.png,1.0,-1.5993516,-4.0632567,1.742244
alexnet_w1_mlp_simclrhn_probe0,1,445,NaN,chair,chair,0,0445_ske_dnn_0_chair_00_chair-0175-sketch-29.png,chair-0175-sketch-29.png,1.0,1.1581008,-1.0407284,1.5548071
alexnet_w1_mlp_simclrhn_probe0,1,446,NaN,clock,chair,0,0446_ske_dnn_0_chair_00_chair-0176-sketch-3.png,chair-0176-sketch-3.png,0.0,-5.49302,-0.6683955,-3.4115248
alexnet_w1_mlp_simclrhn_probe0,1,447,NaN,chair,chair,0,0447_ske_dnn_0_chair_00_chair-0178-sketch-31.png,chair-0178-sketch-31.png,1.0,0.876629,-2.0077882,2.0395908
alexnet_w1_mlp_simclrhn_probe0,1,448,NaN,chair,chair,0,0448_ske_dnn_0_chair_00_chair-0180-sketch-33.png,chair-0180-sketch-33.png,1.0,-3.8513603,-5.2772956,1.0082885
alexnet_w1_mlp_simclrhn_probe0,1,449,NaN,chair,chair,0,0449_ske_dnn_0_chair_00_chair-0197-sketch-49.png,chair-0197-sketch-49.png,1.0,-1.65206,-4.246515,1.8345566
alexnet_w1_mlp_simclrhn_probe0,1,450,NaN,chair,chair,0,0450_ske_dnn_0_chair_00_chair-0200-sketch-6.png,chair-0200-sketch-6.png,1.0,-3.9034913,-5.2301517,0.93809056
alexnet_w1_mlp_simclrhn_probe0,1,451,NaN,clock,clock,0,0451_ske_dnn_0_clock_00_clock-0005-sketch-12.png,clock-0005-sketch-12.png,1.0,14.994624,-2.4350784,12.324661
alexnet_w1_mlp_simclrhn_probe0,1,452,NaN,clock,clock,0,0452_ske_dnn_0_clock_00_clock-0007-sketch-14.png,clock-0007-sketch-14.png,1.0,8.170341,-2.4918807,7.539329
alexnet_w1_mlp_simclrhn_probe0,1,453,NaN,clock,clock,0,0453_ske_dnn_0_clock_00_clock-0015-sketch-21.png,clock-0015-sketch-21.png,1.0,3.7892916,-2.7251303,4.606392
alexnet_w1_mlp_simclrhn_probe0,1,454,NaN,clock,clock,0,0454_ske_dnn_0_clock_00_clock-0017-sketch-23.png,clock-0017-sketch-23.png,1.0,1.4496894,-2.184179,2.569533
alexnet_w1_mlp_simclrhn_probe0,1,455,NaN,clock,clock,0,0455_ske_dnn_0_clock_00_clock-0018-sketch-24.png,clock-0018-sketch-24.png,1.0,12.08847,-0.81044155,9.120909
alexnet_w1_mlp_simclrhn_probe0,1,456,NaN,clock,clock,0,0456_ske_dnn_0_clock_00_clock-0021-sketch-27.png,clock-0021-sketch-27.png,1.0,3.0260994,2.2416036,0.5547223
alexnet_w1_mlp_simclrhn_probe0,1,457,NaN,clock,clock,0,0457_ske_dnn_0_clock_00_clock-0022-sketch-28.png,clock-0022-sketch-28.png,1.0,5.4491363,0.1960741,3.714476
alexnet_w1_mlp_simclrhn_probe0,1,458,NaN,clock,clock,0,0458_ske_dnn_0_clock_00_clock-0027-sketch-32.png,clock-0027-sketch-32.png,1.0,4.8729925,-0.08916682,3.5087764
alexnet_w1_mlp_simclrhn_probe0,1,459,NaN,clock,clock,0,0459_ske_dnn_0_clock_00_clock-0028-sketch-33.png,clock-0028-sketch-33.png,1.0,11.854576,-3.810541,11.076911
alexnet_w1_mlp_simclrhn_probe0,1,460,NaN,clock,clock,0,0460_ske_dnn_0_clock_00_clock-0030-sketch-35.png,clock-0030-sketch-35.png,1.0,13.622952,1.9287034,8.269083
alexnet_w1_mlp_simclrhn_probe0,1,461,NaN,clock,clock,0,0461_ske_dnn_0_clock_00_clock-0033-sketch-38.png,clock-0033-sketch-38.png,1.0,13.145183,2.2476003,7.7057543
alexnet_w1_mlp_simclrhn_probe0,1,462,NaN,clock,clock,0,0462_ske_dnn_0_clock_00_clock-0035-sketch-4.png,clock-0035-sketch-4.png,1.0,9.613769,-2.8075252,8.783181
alexnet_w1_mlp_simclrhn_probe0,1,463,NaN,clock,clock,0,0463_ske_dnn_0_clock_00_clock-0044-sketch-48.png,clock-0044-sketch-48.png,1.0,5.25308,-1.6819907,4.9038353
alexnet_w1_mlp_simclrhn_probe0,1,464,NaN,clock,clock,0,0464_ske_dnn_0_clock_00_clock-0046-sketch-5.png,clock-0046-sketch-5.png,1.0,6.605311,-1.2424582,5.549211
alexnet_w1_mlp_simclrhn_probe0,1,465,NaN,clock,clock,0,0465_ske_dnn_0_clock_00_clock-0049-sketch-7.png,clock-0049-sketch-7.png,1.0,8.117742,1.3313814,4.7986813
alexnet_w1_mlp_simclrhn_probe0,1,466,NaN,clock,clock,0,0466_ske_dnn_0_clock_00_clock-0057-sketch-13.png,clock-0057-sketch-13.png,1.0,0.33407274,-1.6206508,1.3821982
alexnet_w1_mlp_simclrhn_probe0,1,467,NaN,clock,clock,0,0467_ske_dnn_0_clock_00_clock-0059-sketch-15.png,clock-0059-sketch-15.png,1.0,1.353314,-3.841091,3.6729991
alexnet_w1_mlp_simclrhn_probe0,1,468,NaN,clock,clock,0,0468_ske_dnn_0_clock_00_clock-0060-sketch-16.png,clock-0060-sketch-16.png,1.0,2.9491594,1.552166,0.98782355
alexnet_w1_mlp_simclrhn_probe0,1,469,NaN,clock,clock,0,0469_ske_dnn_0_clock_00_clock-0067-sketch-22.png,clock-0067-sketch-22.png,1.0,8.061362,3.323145,3.3504257
alexnet_w1_mlp_simclrhn_probe0,1,470,NaN,clock,clock,0,0470_ske_dnn_0_clock_00_clock-0069-sketch-24.png,clock-0069-sketch-24.png,1.0,0.6448347,0.53881514,0.074967146
alexnet_w1_mlp_simclrhn_probe0,1,471,NaN,clock,clock,0,0471_ske_dnn_0_clock_00_clock-0070-sketch-25.png,clock-0070-sketch-25.png,1.0,5.1515017,3.7611628,0.98311806
alexnet_w1_mlp_simclrhn_probe0,1,472,NaN,clock,clock,0,0472_ske_dnn_0_clock_00_clock-0071-sketch-26.png,clock-0071-sketch-26.png,1.0,9.239579,0.23817046,6.3649573
alexnet_w1_mlp_simclrhn_probe0,1,473,NaN,chair,clock,0,0473_ske_dnn_0_clock_00_clock-0073-sketch-28.png,clock-0073-sketch-28.png,0.0,-4.7117696,-3.7592492,-0.6735336
alexnet_w1_mlp_simclrhn_probe0,1,474,NaN,clock,clock,0,0474_ske_dnn_0_clock_00_clock-0074-sketch-29.png,clock-0074-sketch-29.png,1.0,-3.0513804,-4.78714,1.2273673
alexnet_w1_mlp_simclrhn_probe0,1,475,NaN,clock,clock,0,0475_ske_dnn_0_clock_00_clock-0076-sketch-30.png,clock-0076-sketch-30.png,1.0,7.74848,0.4283979,5.1760793
alexnet_w1_mlp_simclrhn_probe0,1,476,NaN,clock,clock,0,0476_ske_dnn_0_clock_00_clock-0077-sketch-31.png,clock-0077-sketch-31.png,1.0,7.693911,1.5377486,4.353064
alexnet_w1_mlp_simclrhn_probe0,1,477,NaN,clock,clock,0,0477_ske_dnn_0_clock_00_clock-0078-sketch-32.png,clock-0078-sketch-32.png,1.0,4.5405536,0.6561729,2.7466722
alexnet_w1_mlp_simclrhn_probe0,1,478,NaN,clock,clock,0,0478_ske_dnn_0_clock_00_clock-0081-sketch-35.png,clock-0081-sketch-35.png,1.0,7.167916,1.0893056,4.298227
alexnet_w1_mlp_simclrhn_probe0,1,479,NaN,clock,clock,0,0479_ske_dnn_0_clock_00_clock-0085-sketch-39.png,clock-0085-sketch-39.png,1.0,9.929791,4.1923113,4.057011
alexnet_w1_mlp_simclrhn_probe0,1,480,NaN,clock,clock,0,0480_ske_dnn_0_clock_00_clock-0087-sketch-40.png,clock-0087-sketch-40.png,1.0,2.1769383,-0.051431417,1.5756954
alexnet_w1_mlp_simclrhn_probe0,1,481,NaN,bottle,clock,0,0481_ske_dnn_0_clock_00_clock-0092-sketch-45.png,clock-0092-sketch-45.png,0.0,0.8798596,1.0923718,-0.15026882
alexnet_w1_mlp_simclrhn_probe0,1,482,NaN,clock,clock,0,0482_ske_dnn_0_clock_00_clock-0093-sketch-46.png,clock-0093-sketch-46.png,1.0,1.2904345,-3.9847329,3.7301068
alexnet_w1_mlp_simclrhn_probe0,1,483,NaN,clock,clock,0,0483_ske_dnn_0_clock_00_clock-0095-sketch-48.png,clock-0095-sketch-48.png,1.0,9.905053,4.491123,3.8282266
alexnet_w1_mlp_simclrhn_probe0,1,484,NaN,keyboard,clock,0,0484_ske_dnn_0_clock_00_clock-0099-sketch-6.png,clock-0099-sketch-6.png,0.0,-0.6387923,0.72981477,-0.9677513
alexnet_w1_mlp_simclrhn_probe0,1,485,NaN,clock,clock,0,0485_ske_dnn_0_clock_00_clock-0110-sketch-15.png,clock-0110-sketch-15.png,1.0,3.9899127,-2.256148,4.416632
alexnet_w1_mlp_simclrhn_probe0,1,486,NaN,clock,clock,0,0486_ske_dnn_0_clock_00_clock-0112-sketch-17.png,clock-0112-sketch-17.png,1.0,17.248756,-2.3806167,13.880063
alexnet_w1_mlp_simclrhn_probe0,1,487,NaN,clock,clock,0,0487_ske_dnn_0_clock_00_clock-0115-sketch-2.png,clock-0115-sketch-2.png,1.0,8.063757,-1.714904,6.9145575
alexnet_w1_mlp_simclrhn_probe0,1,488,NaN,clock,clock,0,0488_ske_dnn_0_clock_00_clock-0118-sketch-22.png,clock-0118-sketch-22.png,1.0,15.591297,-1.6420237,12.185798
alexnet_w1_mlp_simclrhn_probe0,1,489,NaN,clock,clock,0,0489_ske_dnn_0_clock_00_clock-0123-sketch-27.png,clock-0123-sketch-27.png,1.0,16.612808,-0.31486002,11.969668
alexnet_w1_mlp_simclrhn_probe0,1,490,NaN,clock,clock,0,0490_ske_dnn_0_clock_00_clock-0127-sketch-30.png,clock-0127-sketch-30.png,1.0,13.152368,-0.70885247,9.801363
alexnet_w1_mlp_simclrhn_probe0,1,491,NaN,clock,clock,0,0491_ske_dnn_0_clock_00_clock-0131-sketch-34.png,clock-0131-sketch-34.png,1.0,10.648205,-0.015668511,7.5404973
alexnet_w1_mlp_simclrhn_probe0,1,492,NaN,clock,clock,0,0492_ske_dnn_0_clock_00_clock-0132-sketch-35.png,clock-0132-sketch-35.png,1.0,5.0375524,-1.7979043,4.833398
alexnet_w1_mlp_simclrhn_probe0,1,493,NaN,clock,clock,0,0493_ske_dnn_0_clock_00_clock-0133-sketch-36.png,clock-0133-sketch-36.png,1.0,4.444859,-1.1336516,3.944603
alexnet_w1_mlp_simclrhn_probe0,1,494,NaN,clock,clock,0,0494_ske_dnn_0_clock_00_clock-0136-sketch-39.png,clock-0136-sketch-39.png,1.0,5.67425,-0.88242054,4.636266
alexnet_w1_mlp_simclrhn_probe0,1,495,NaN,clock,clock,0,0495_ske_dnn_0_clock_00_clock-0137-sketch-4.png,clock-0137-sketch-4.png,1.0,4.728796,-1.3722122,4.3140645
alexnet_w1_mlp_simclrhn_probe0,1,496,NaN,clock,clock,0,0496_ske_dnn_0_clock_00_clock-0138-sketch-40.png,clock-0138-sketch-40.png,1.0,8.861863,-2.9882123,8.379269
alexnet_w1_mlp_simclrhn_probe0,1,497,NaN,clock,clock,0,0497_ske_dnn_0_clock_00_clock-0141-sketch-43.png,clock-0141-sketch-43.png,1.0,5.8528256,-1.1644152,4.961939
alexnet_w1_mlp_simclrhn_probe0,1,498,NaN,clock,clock,0,0498_ske_dnn_0_clock_00_clock-0143-sketch-45.png,clock-0143-sketch-45.png,1.0,7.6380296,-2.0998545,6.885724
alexnet_w1_mlp_simclrhn_probe0,1,499,NaN,clock,clock,0,0499_ske_dnn_0_clock_00_clock-0144-sketch-46.png,clock-0144-sketch-46.png,1.0,5.5480447,-1.304033,4.8451505
alexnet_w1_mlp_simclrhn_probe0,1,500,NaN,clock,clock,0,0500_ske_dnn_0_clock_00_clock-0150-sketch-6.png,clock-0150-sketch-6.png,1.0,15.456334,2.570933,9.111355
alexnet_w1_mlp_simclrhn_probe0,1,501,NaN,dog,dog,0,0501_ske_dnn_0_dog_00_dog-0011-sketch-18.png,dog-0011-sketch-18.png,1.0,-2.3601825,-4.26502,1.3469235
alexnet_w1_mlp_simclrhn_probe0,1,502,NaN,clock,dog,0,0502_ske_dnn_0_dog_00_dog-0111-sketch-17.png,dog-0111-sketch-17.png,0.0,-10.334372,-5.4006786,-3.4886477
alexnet_w1_mlp_simclrhn_probe0,1,503,NaN,clock,dog,0,0503_ske_dnn_0_dog_00_dog-0215-sketch-19.png,dog-0215-sketch-19.png,0.0,-11.963627,-0.5503316,-8.070419
alexnet_w1_mlp_simclrhn_probe0,1,504,NaN,cat,dog,0,0504_ske_dnn_0_dog_00_dog-0243-sketch-44.png,dog-0243-sketch-44.png,0.0,-6.7902613,-5.0148005,-1.2554404
alexnet_w1_mlp_simclrhn_probe0,1,505,NaN,cat,dog,0,0505_ske_dnn_0_dog_00_dog-0476-sketch-26.png,dog-0476-sketch-26.png,0.0,-5.789927,-5.251744,-0.380553
alexnet_w1_mlp_simclrhn_probe0,1,506,NaN,cat,dog,0,0506_ske_dnn_0_dog_00_dog-0607-sketch-8.png,dog-0607-sketch-8.png,0.0,-3.9274297,-3.2988303,-0.44448692
alexnet_w1_mlp_simclrhn_probe0,1,507,NaN,dog,dog,0,0507_ske_dnn_0_dog_00_dog-0630-sketch-28.png,dog-0630-sketch-28.png,1.0,-2.418171,-3.7877586,0.96844476
alexnet_w1_mlp_simclrhn_probe0,1,508,NaN,dog,dog,0,0508_ske_dnn_0_dog_00_dog-1035-sketch-27.png,dog-1035-sketch-27.png,1.0,-3.5857348,-5.1218467,1.0861951
alexnet_w1_mlp_simclrhn_probe0,1,509,NaN,dog,dog,0,0509_ske_dnn_0_dog_00_dog-1292-sketch-3.png,dog-1292-sketch-3.png,1.0,-4.154172,-4.337456,0.12960157
alexnet_w1_mlp_simclrhn_probe0,1,510,NaN,cat,dog,0,0510_ske_dnn_0_dog_00_dog-1393-sketch-3.png,dog-1393-sketch-3.png,0.0,-5.46882,-4.009425,-1.0319481
alexnet_w1_mlp_simclrhn_probe0,1,511,NaN,cat,dog,0,0511_ske_dnn_0_dog_00_dog-1460-sketch-44.png,dog-1460-sketch-44.png,0.0,-14.782368,-8.992494,-4.0940595
alexnet_w1_mlp_simclrhn_probe0,1,512,NaN,bicycle,dog,0,0512_ske_dnn_0_dog_00_dog-1617-sketch-48.png,dog-1617-sketch-48.png,0.0,-10.04852,-3.3687568,-4.723306
alexnet_w1_mlp_simclrhn_probe0,1,513,NaN,dog,dog,0,0513_ske_dnn_0_dog_00_dog-1657-sketch-38.png,dog-1657-sketch-38.png,1.0,0.54887456,-1.2790139,1.2925124
alexnet_w1_mlp_simclrhn_probe0,1,514,NaN,oven,dog,0,0514_ske_dnn_0_dog_00_dog-1711-sketch-40.png,dog-1711-sketch-40.png,0.0,-7.863113,-4.1241717,-2.6438308
alexnet_w1_mlp_simclrhn_probe0,1,515,NaN,cat,dog,0,0515_ske_dnn_0_dog_00_dog-1759-sketch-38.png,dog-1759-sketch-38.png,0.0,1.0552299,1.5820602,-0.3725253
alexnet_w1_mlp_simclrhn_probe0,1,516,NaN,bottle,dog,0,0516_ske_dnn_0_dog_00_dog-1797-sketch-26.png,dog-1797-sketch-26.png,0.0,-17.572205,-7.0225167,-7.4597564
alexnet_w1_mlp_simclrhn_probe0,1,517,NaN,knife,dog,0,0517_ske_dnn_0_dog_00_dog-1973-sketch-47.png,dog-1973-sketch-47.png,0.0,-8.085425,-7.5176096,-0.4015064
alexnet_w1_mlp_simclrhn_probe0,1,518,NaN,clock,dog,0,0518_ske_dnn_0_dog_00_dog-2150-sketch-22.png,dog-2150-sketch-22.png,0.0,-12.16968,-5.4501133,-4.751451
alexnet_w1_mlp_simclrhn_probe0,1,519,NaN,bicycle,dog,0,0519_ske_dnn_0_dog_00_dog-2198-sketch-20.png,dog-2198-sketch-20.png,0.0,-13.0293665,-2.9932919,-7.0965767
alexnet_w1_mlp_simclrhn_probe0,1,520,NaN,cat,dog,0,0520_ske_dnn_0_dog_00_dog-2291-sketch-12.png,dog-2291-sketch-12.png,0.0,-5.3475823,-5.039133,-0.21810657
alexnet_w1_mlp_simclrhn_probe0,1,521,NaN,bird,dog,0,0521_ske_dnn_0_dog_00_dog-2323-sketch-41.png,dog-2323-sketch-41.png,0.0,-5.3636155,-3.6596723,-1.2048699
alexnet_w1_mlp_simclrhn_probe0,1,522,NaN,cat,dog,0,0522_ske_dnn_0_dog_00_dog-2454-sketch-21.png,dog-2454-sketch-21.png,0.0,-1.5046252,-0.18565054,-0.93265593
alexnet_w1_mlp_simclrhn_probe0,1,523,NaN,dog,dog,0,0523_ske_dnn_0_dog_00_dog-2506-sketch-23.png,dog-2506-sketch-23.png,1.0,0.09416274,-2.572325,1.8854916
alexnet_w1_mlp_simclrhn_probe0,1,524,NaN,cat,dog,0,0524_ske_dnn_0_dog_00_dog-2541-sketch-0.png,dog-2541-sketch-0.png,0.0,-6.0349503,-5.652716,-0.27028033
alexnet_w1_mlp_simclrhn_probe0,1,525,NaN,dog,dog,0,0525_ske_dnn_0_dog_00_dog-2615-sketch-3.png,dog-2615-sketch-3.png,1.0,-0.5721594,-2.586775,1.4245484
alexnet_w1_mlp_simclrhn_probe0,1,526,NaN,dog,dog,0,0526_ske_dnn_0_dog_00_dog-2948-sketch-10.png,dog-2948-sketch-10.png,1.0,-8.079782,-9.607861,1.080515
alexnet_w1_mlp_simclrhn_probe0,1,527,NaN,dog,dog,0,0527_ske_dnn_0_dog_00_dog-3000-sketch-11.png,dog-3000-sketch-11.png,1.0,-1.35485,-1.754466,0.2825712
alexnet_w1_mlp_simclrhn_probe0,1,528,NaN,clock,dog,0,0528_ske_dnn_0_dog_00_dog-3153-sketch-11.png,dog-3153-sketch-11.png,0.0,-1.2022591,0.9122395,-1.4951763
alexnet_w1_mlp_simclrhn_probe0,1,529,NaN,cat,dog,0,0529_ske_dnn_0_dog_00_dog-3251-sketch-9.png,dog-3251-sketch-9.png,0.0,-4.394405,-2.964615,-1.0110141
alexnet_w1_mlp_simclrhn_probe0,1,530,NaN,dog,dog,0,0530_ske_dnn_0_dog_00_dog-3303-sketch-0.png,dog-3303-sketch-0.png,1.0,-4.7184224,-5.383262,0.4701127
alexnet_w1_mlp_simclrhn_probe0,1,531,NaN,dog,dog,0,0531_ske_dnn_0_dog_00_dog-3338-sketch-40.png,dog-3338-sketch-40.png,1.0,-0.94389075,-2.5794437,1.1565106
alexnet_w1_mlp_simclrhn_probe0,1,532,NaN,cat,dog,0,0532_ske_dnn_0_dog_00_dog-3417-sketch-2.png,dog-3417-sketch-2.png,0.0,-6.271148,-5.1721983,-0.77707493
alexnet_w1_mlp_simclrhn_probe0,1,533,NaN,cat,dog,0,0533_ske_dnn_0_dog_00_dog-3503-sketch-6.png,dog-3503-sketch-6.png,0.0,-3.9302454,-3.5568936,-0.2639996
alexnet_w1_mlp_simclrhn_probe0,1,534,NaN,cat,dog,0,0534_ske_dnn_0_dog_00_dog-3573-sketch-22.png,dog-3573-sketch-22.png,0.0,-2.462529,-0.495811,-1.3906796
alexnet_w1_mlp_simclrhn_probe0,1,535,NaN,cat,dog,0,0535_ske_dnn_0_dog_00_dog-3646-sketch-42.png,dog-3646-sketch-42.png,0.0,-2.6332667,-0.13298626,-1.7679652
alexnet_w1_mlp_simclrhn_probe0,1,536,NaN,cat,dog,0,0536_ske_dnn_0_dog_00_dog-3695-sketch-40.png,dog-3695-sketch-40.png,0.0,-9.946024,-4.984393,-3.5084028
alexnet_w1_mlp_simclrhn_probe0,1,537,NaN,chair,dog,0,0537_ske_dnn_0_dog_00_dog-3915-sketch-0.png,dog-3915-sketch-0.png,0.0,-6.6387844,-4.799917,-1.3002754
alexnet_w1_mlp_simclrhn_probe0,1,538,NaN,cat,dog,0,0538_ske_dnn_0_dog_00_dog-4202-sketch-4.png,dog-4202-sketch-4.png,0.0,-2.6686916,0.24858534,-2.0628264
alexnet_w1_mlp_simclrhn_probe0,1,539,NaN,cat,dog,0,0539_ske_dnn_0_dog_00_dog-4208-sketch-45.png,dog-4208-sketch-45.png,0.0,-4.247473,-3.573569,-0.47652188
alexnet_w1_mlp_simclrhn_probe0,1,540,NaN,dog,dog,0,0540_ske_dnn_0_dog_00_dog-4325-sketch-13.png,dog-4325-sketch-13.png,1.0,-7.6215982,-11.179274,2.5156565
alexnet_w1_mlp_simclrhn_probe0,1,541,NaN,cat,dog,0,0541_ske_dnn_0_dog_00_dog-4475-sketch-11.png,dog-4475-sketch-11.png,0.0,-2.8899057,-2.670492,-0.15514895
alexnet_w1_mlp_simclrhn_probe0,1,542,NaN,bicycle,dog,0,0542_ske_dnn_0_dog_00_dog-4499-sketch-33.png,dog-4499-sketch-33.png,0.0,-7.4495306,-2.3711028,-3.5909908
alexnet_w1_mlp_simclrhn_probe0,1,543,NaN,cat,dog,0,0543_ske_dnn_0_dog_00_dog-4581-sketch-16.png,dog-4581-sketch-16.png,0.0,-8.8544,-6.9823794,-1.3237182
alexnet_w1_mlp_simclrhn_probe0,1,544,NaN,clock,dog,0,0544_ske_dnn_0_dog_00_dog-4709-sketch-4.png,dog-4709-sketch-4.png,0.0,-13.598023,-2.4910216,-7.8538365
alexnet_w1_mlp_simclrhn_probe0,1,545,NaN,bicycle,dog,0,0545_ske_dnn_0_dog_00_dog-4909-sketch-37.png,dog-4909-sketch-37.png,0.0,-7.246769,-3.6078448,-2.573108
alexnet_w1_mlp_simclrhn_probe0,1,546,NaN,cat,dog,0,0546_ske_dnn_0_dog_00_dog-5028-sketch-8.png,dog-5028-sketch-8.png,0.0,-3.4113338,-2.411977,-0.7066519
alexnet_w1_mlp_simclrhn_probe0,1,547,NaN,dog,dog,0,0547_ske_dnn_0_dog_00_dog-5084-sketch-11.png,dog-5084-sketch-11.png,1.0,-3.2749732,-3.9565804,0.48196912
alexnet_w1_mlp_simclrhn_probe0,1,548,NaN,clock,dog,0,0548_ske_dnn_0_dog_00_dog-5223-sketch-45.png,dog-5223-sketch-45.png,0.0,-4.3009553,-2.8147926,-1.0508757
alexnet_w1_mlp_simclrhn_probe0,1,549,NaN,dog,dog,0,0549_ske_dnn_0_dog_00_dog-5325-sketch-45.png,dog-5325-sketch-45.png,1.0,-0.9624506,-1.1076785,0.10269164
alexnet_w1_mlp_simclrhn_probe0,1,550,NaN,dog,dog,0,0550_ske_dnn_0_dog_00_dog-5354-sketch-25.png,dog-5354-sketch-25.png,1.0,-2.7958884,-4.112099,0.93070155
alexnet_w1_mlp_simclrhn_probe0,1,551,NaN,elephant,elephant,0,0551_ske_dnn_0_elephant_00_elephant-0001-sketch-0.png,elephant-0001-sketch-0.png,1.0,-8.530273,-10.673967,1.5158205
alexnet_w1_mlp_simclrhn_probe0,1,552,NaN,cat,elephant,0,0552_ske_dnn_0_elephant_00_elephant-0002-sketch-1.png,elephant-0002-sketch-1.png,0.0,-5.027306,-2.9262702,-1.4856567
alexnet_w1_mlp_simclrhn_probe0,1,553,NaN,bicycle,elephant,0,0553_ske_dnn_0_elephant_00_elephant-0006-sketch-13.png,elephant-0006-sketch-13.png,0.0,-7.7341003,-5.3758826,-1.6675118
alexnet_w1_mlp_simclrhn_probe0,1,554,NaN,clock,elephant,0,0554_ske_dnn_0_elephant_00_elephant-0011-sketch-18.png,elephant-0011-sketch-18.png,0.0,-11.665539,-3.6922638,-5.637957
alexnet_w1_mlp_simclrhn_probe0,1,555,NaN,clock,elephant,0,0555_ske_dnn_0_elephant_00_elephant-0012-sketch-19.png,elephant-0012-sketch-19.png,0.0,-14.35354,-3.455926,-7.705777
alexnet_w1_mlp_simclrhn_probe0,1,556,NaN,elephant,elephant,0,0556_ske_dnn_0_elephant_00_elephant-0013-sketch-2.png,elephant-0013-sketch-2.png,1.0,-4.864008,-5.910356,0.73987985
alexnet_w1_mlp_simclrhn_probe0,1,557,NaN,bicycle,elephant,0,0557_ske_dnn_0_elephant_00_elephant-0014-sketch-20.png,elephant-0014-sketch-20.png,0.0,-8.3580475,-6.661537,-1.1996139
alexnet_w1_mlp_simclrhn_probe0,1,558,NaN,elephant,elephant,0,0558_ske_dnn_0_elephant_00_elephant-0015-sketch-21.png,elephant-0015-sketch-21.png,1.0,-6.717289,-6.9294114,0.14999323
alexnet_w1_mlp_simclrhn_probe0,1,559,NaN,clock,elephant,0,0559_ske_dnn_0_elephant_00_elephant-0016-sketch-22.png,elephant-0016-sketch-22.png,0.0,-6.615857,-3.0280488,-2.5369637
alexnet_w1_mlp_simclrhn_probe0,1,560,NaN,elephant,elephant,0,0560_ske_dnn_0_elephant_00_elephant-0019-sketch-25.png,elephant-0019-sketch-25.png,1.0,-3.6784403,-6.9282002,2.2979274
alexnet_w1_mlp_simclrhn_probe0,1,561,NaN,clock,elephant,0,0561_ske_dnn_0_elephant_00_elephant-0020-sketch-26.png,elephant-0020-sketch-26.png,0.0,-5.483317,-3.993536,-1.0534343
alexnet_w1_mlp_simclrhn_probe0,1,562,NaN,clock,elephant,0,0562_ske_dnn_0_elephant_00_elephant-0021-sketch-27.png,elephant-0021-sketch-27.png,0.0,-6.6701975,-4.170156,-1.7677963
alexnet_w1_mlp_simclrhn_probe0,1,563,NaN,clock,elephant,0,0563_ske_dnn_0_elephant_00_elephant-0022-sketch-28.png,elephant-0022-sketch-28.png,0.0,-6.9799013,-1.6198567,-3.790124
alexnet_w1_mlp_simclrhn_probe0,1,564,NaN,elephant,elephant,0,0564_ske_dnn_0_elephant_00_elephant-0025-sketch-30.png,elephant-0025-sketch-30.png,1.0,-5.167548,-6.6402607,1.041365
alexnet_w1_mlp_simclrhn_probe0,1,565,NaN,cat,elephant,0,0565_ske_dnn_0_elephant_00_elephant-0028-sketch-33.png,elephant-0028-sketch-33.png,0.0,-4.460086,-3.1050045,-0.9581872
alexnet_w1_mlp_simclrhn_probe0,1,566,NaN,elephant,elephant,0,0566_ske_dnn_0_elephant_00_elephant-0029-sketch-34.png,elephant-0029-sketch-34.png,1.0,-5.277644,-6.1377864,0.6082124
alexnet_w1_mlp_simclrhn_probe0,1,567,NaN,clock,elephant,0,0567_ske_dnn_0_elephant_00_elephant-0030-sketch-35.png,elephant-0030-sketch-35.png,0.0,-14.006397,-4.851185,-6.473713
alexnet_w1_mlp_simclrhn_probe0,1,568,NaN,knife,elephant,0,0568_ske_dnn_0_elephant_00_elephant-0032-sketch-37.png,elephant-0032-sketch-37.png,0.0,-3.6149693,-3.274824,-0.24051909
alexnet_w1_mlp_simclrhn_probe0,1,569,NaN,bicycle,elephant,0,0569_ske_dnn_0_elephant_00_elephant-0033-sketch-38.png,elephant-0033-sketch-38.png,0.0,-14.332758,-6.6234436,-5.4513087
alexnet_w1_mlp_simclrhn_probe0,1,570,NaN,elephant,elephant,0,0570_ske_dnn_0_elephant_00_elephant-0037-sketch-41.png,elephant-0037-sketch-41.png,1.0,-0.3897589,-4.3041787,2.7679129
alexnet_w1_mlp_simclrhn_probe0,1,571,NaN,elephant,elephant,0,0571_ske_dnn_0_elephant_00_elephant-0039-sketch-43.png,elephant-0039-sketch-43.png,1.0,-2.4133449,-7.434559,3.5505345
alexnet_w1_mlp_simclrhn_probe0,1,572,NaN,elephant,elephant,0,0572_ske_dnn_0_elephant_00_elephant-0040-sketch-44.png,elephant-0040-sketch-44.png,1.0,-6.274767,-6.417361,0.10082909
alexnet_w1_mlp_simclrhn_probe0,1,573,NaN,cat,elephant,0,0573_ske_dnn_0_elephant_00_elephant-0043-sketch-47.png,elephant-0043-sketch-47.png,0.0,-6.7889404,-5.1073766,-1.1890452
alexnet_w1_mlp_simclrhn_probe0,1,574,NaN,cat,elephant,0,0574_ske_dnn_0_elephant_00_elephant-0044-sketch-48.png,elephant-0044-sketch-48.png,0.0,-9.260178,-6.493092,-1.956625
alexnet_w1_mlp_simclrhn_probe0,1,575,NaN,knife,elephant,0,0575_ske_dnn_0_elephant_00_elephant-0046-sketch-5.png,elephant-0046-sketch-5.png,0.0,-3.8301423,-3.6720843,-0.111763835
alexnet_w1_mlp_simclrhn_probe0,1,576,NaN,clock,elephant,0,0576_ske_dnn_0_elephant_00_elephant-0047-sketch-50.png,elephant-0047-sketch-50.png,0.0,-11.279635,-4.202116,-5.004562
alexnet_w1_mlp_simclrhn_probe0,1,577,NaN,bicycle,elephant,0,0577_ske_dnn_0_elephant_00_elephant-0048-sketch-6.png,elephant-0048-sketch-6.png,0.0,-14.816825,-6.5016913,-5.879688
alexnet_w1_mlp_simclrhn_probe0,1,578,NaN,elephant,elephant,0,0578_ske_dnn_0_elephant_00_elephant-0050-sketch-8.png,elephant-0050-sketch-8.png,1.0,-7.068837,-8.826264,1.2426888
alexnet_w1_mlp_simclrhn_probe0,1,579,NaN,cat,elephant,0,0579_ske_dnn_0_elephant_00_elephant-0052-sketch-0.png,elephant-0052-sketch-0.png,0.0,-6.343321,-5.1247964,-0.8616269
alexnet_w1_mlp_simclrhn_probe0,1,580,NaN,elephant,elephant,0,0580_ske_dnn_0_elephant_00_elephant-0054-sketch-10.png,elephant-0054-sketch-10.png,1.0,-4.466032,-6.4648104,1.4133497
alexnet_w1_mlp_simclrhn_probe0,1,581,NaN,cat,elephant,0,0581_ske_dnn_0_elephant_00_elephant-0055-sketch-11.png,elephant-0055-sketch-11.png,0.0,-3.81319,-3.0185032,-0.56192845
alexnet_w1_mlp_simclrhn_probe0,1,582,NaN,bear,elephant,0,0582_ske_dnn_0_elephant_00_elephant-0057-sketch-13.png,elephant-0057-sketch-13.png,0.0,-3.535842,-3.2260675,-0.21904358
alexnet_w1_mlp_simclrhn_probe0,1,583,NaN,elephant,elephant,0,0583_ske_dnn_0_elephant_00_elephant-0058-sketch-14.png,elephant-0058-sketch-14.png,1.0,-1.8926774,-6.7696834,3.448564
alexnet_w1_mlp_simclrhn_probe0,1,584,NaN,elephant,elephant,0,0584_ske_dnn_0_elephant_00_elephant-0061-sketch-17.png,elephant-0061-sketch-17.png,1.0,2.319417,-5.7852426,5.73086
alexnet_w1_mlp_simclrhn_probe0,1,585,NaN,bicycle,elephant,0,0585_ske_dnn_0_elephant_00_elephant-0062-sketch-18.png,elephant-0062-sketch-18.png,0.0,-8.338525,-6.384386,-1.3817848
alexnet_w1_mlp_simclrhn_probe0,1,586,NaN,bicycle,elephant,0,0586_ske_dnn_0_elephant_00_elephant-0065-sketch-20.png,elephant-0065-sketch-20.png,0.0,-9.971306,-4.4105644,-3.932038
alexnet_w1_mlp_simclrhn_probe0,1,587,NaN,elephant,elephant,0,0587_ske_dnn_0_elephant_00_elephant-0066-sketch-21.png,elephant-0066-sketch-21.png,1.0,0.7961658,-4.279367,3.5889437
alexnet_w1_mlp_simclrhn_probe0,1,588,NaN,elephant,elephant,0,0588_ske_dnn_0_elephant_00_elephant-0071-sketch-26.png,elephant-0071-sketch-26.png,1.0,0.5218867,-7.2918415,5.5251403
alexnet_w1_mlp_simclrhn_probe0,1,589,NaN,bicycle,elephant,0,0589_ske_dnn_0_elephant_00_elephant-0075-sketch-3.png,elephant-0075-sketch-3.png,0.0,-10.896494,-5.0466647,-4.136454
alexnet_w1_mlp_simclrhn_probe0,1,590,NaN,clock,elephant,0,0590_ske_dnn_0_elephant_00_elephant-0076-sketch-30.png,elephant-0076-sketch-30.png,0.0,-6.9781227,-1.4185023,-3.9312453
alexnet_w1_mlp_simclrhn_probe0,1,591,NaN,elephant,elephant,0,0591_ske_dnn_0_elephant_00_elephant-0077-sketch-31.png,elephant-0077-sketch-31.png,1.0,-4.049041,-6.360202,1.6342376
alexnet_w1_mlp_simclrhn_probe0,1,592,NaN,bottle,elephant,0,0592_ske_dnn_0_elephant_00_elephant-0079-sketch-33.png,elephant-0079-sketch-33.png,0.0,-7.80468,-7.7045093,-0.07083132
alexnet_w1_mlp_simclrhn_probe0,1,593,NaN,bicycle,elephant,0,0593_ske_dnn_0_elephant_00_elephant-0080-sketch-34.png,elephant-0080-sketch-34.png,0.0,-9.847047,-5.1793957,-3.3005278
alexnet_w1_mlp_simclrhn_probe0,1,594,NaN,elephant,elephant,0,0594_ske_dnn_0_elephant_00_elephant-0082-sketch-36.png,elephant-0082-sketch-36.png,1.0,-4.961814,-5.842099,0.6224557
alexnet_w1_mlp_simclrhn_probe0,1,595,NaN,oven,elephant,0,0595_ske_dnn_0_elephant_00_elephant-0086-sketch-4.png,elephant-0086-sketch-4.png,0.0,-4.2894936,-3.6791239,-0.43159655
alexnet_w1_mlp_simclrhn_probe0,1,596,NaN,elephant,elephant,0,0596_ske_dnn_0_elephant_00_elephant-0090-sketch-43.png,elephant-0090-sketch-43.png,1.0,-1.8805153,-4.9799423,2.1916258
alexnet_w1_mlp_simclrhn_probe0,1,597,NaN,elephant,elephant,0,0597_ske_dnn_0_elephant_00_elephant-0094-sketch-47.png,elephant-0094-sketch-47.png,1.0,-5.343796,-8.557229,2.2722404
alexnet_w1_mlp_simclrhn_probe0,1,598,NaN,clock,elephant,0,0598_ske_dnn_0_elephant_00_elephant-0098-sketch-50.png,elephant-0098-sketch-50.png,0.0,-12.677692,3.6172981,-11.522299
alexnet_w1_mlp_simclrhn_probe0,1,599,NaN,elephant,elephant,0,0599_ske_dnn_0_elephant_00_elephant-0100-sketch-7.png,elephant-0100-sketch-7.png,1.0,-4.098481,-8.646205,3.2157264
alexnet_w1_mlp_simclrhn_probe0,1,600,NaN,clock,elephant,0,0600_ske_dnn_0_elephant_00_elephant-0101-sketch-8.png,elephant-0101-sketch-8.png,0.0,-11.497253,2.596705,-9.965934
alexnet_w1_mlp_simclrhn_probe0,1,601,NaN,keyboard,keyboard,0,0601_ske_dnn_0_keyboard_00_keyboard-0002-sketch-1.png,keyboard-0002-sketch-1.png,1.0,3.6405349,-0.039557517,2.6022184
alexnet_w1_mlp_simclrhn_probe0,1,602,NaN,clock,keyboard,0,0602_ske_dnn_0_keyboard_00_keyboard-0003-sketch-10.png,keyboard-0003-sketch-10.png,0.0,4.636715,7.212269,-1.8211917
alexnet_w1_mlp_simclrhn_probe0,1,603,NaN,keyboard,keyboard,0,0603_ske_dnn_0_keyboard_00_keyboard-0004-sketch-11.png,keyboard-0004-sketch-11.png,1.0,10.326046,-3.499263,9.7759695
alexnet_w1_mlp_simclrhn_probe0,1,604,NaN,keyboard,keyboard,0,0604_ske_dnn_0_keyboard_00_keyboard-0005-sketch-12.png,keyboard-0005-sketch-12.png,1.0,10.962608,0.26329762,7.565555
