subj,session,trial,rt,object_response,category,condition,imagename,filename,is_correct,targ_act,max_nontarg_act,decision_margin
alexnet_w1_mlp_simclrhn_probe2,1,1,NaN,airplane,airplane,0,0001_ske_dnn_0_airplane_00_airplane-0001-sketch-0.png,airplane-0001-sketch-0.png,1.0,2.811974,1.1268145,1.1915878
alexnet_w1_mlp_simclrhn_probe2,1,2,NaN,airplane,airplane,0,0002_ske_dnn_0_airplane_00_airplane-0002-sketch-1.png,airplane-0002-sketch-1.png,1.0,2.3088114,0.7480781,1.1036052
alexnet_w1_mlp_simclrhn_probe2,1,3,NaN,airplane,airplane,0,0003_ske_dnn_0_airplane_00_airplane-0003-sketch-10.png,airplane-0003-sketch-10.png,1.0,1.1644996,0.17612195,0.6988886
alexnet_w1_mlp_simclrhn_probe2,1,4,NaN,airplane,airplane,0,0004_ske_dnn_0_airplane_00_airplane-0004-sketch-11.png,airplane-0004-sketch-11.png,1.0,1.1330221,-0.085504845,0.8616287
alexnet_w1_mlp_simclrhn_probe2,1,5,NaN,airplane,airplane,0,0005_ske_dnn_0_airplane_00_airplane-0005-sketch-12.png,airplane-0005-sketch-12.png,1.0,2.715939,-0.041109562,1.9495277
alexnet_w1_mlp_simclrhn_probe2,1,6,NaN,airplane,airplane,0,0006_ske_dnn_0_airplane_00_airplane-0006-sketch-13.png,airplane-0006-sketch-13.png,1.0,7.2934685,-0.06802927,5.205365
alexnet_w1_mlp_simclrhn_probe2,1,7,NaN,airplane,airplane,0,0007_ske_dnn_0_airplane_00_airplane-0007-sketch-14.png,airplane-0007-sketch-14.png,1.0,2.428677,0.34907305,1.4705023
alexnet_w1_mlp_simclrhn_probe2,1,8,NaN,airplane,airplane,0,0008_ske_dnn_0_airplane_00_airplane-0008-sketch-15.png,airplane-0008-sketch-15.png,1.0,2.1903448,1.4675318,0.511106
alexnet_w1_mlp_simclrhn_probe2,1,9,NaN,airplane,airplane,0,0009_ske_dnn_0_airplane_00_airplane-0009-sketch-16.png,airplane-0009-sketch-16.png,1.0,3.9628448,0.83984756,2.2082925
alexnet_w1_mlp_simclrhn_probe2,1,10,NaN,airplane,airplane,0,0010_ske_dnn_0_airplane_00_airplane-0010-sketch-17.png,airplane-0010-sketch-17.png,1.0,2.8395052,-0.30321193,2.2222366
alexnet_w1_mlp_simclrhn_probe2,1,11,NaN,knife,airplane,0,0011_ske_dnn_0_airplane_00_airplane-0011-sketch-18.png,airplane-0011-sketch-18.png,0.0,0.49056488,1.470648,-0.69302344
alexnet_w1_mlp_simclrhn_probe2,1,12,NaN,airplane,airplane,0,0012_ske_dnn_0_airplane_00_airplane-0012-sketch-19.png,airplane-0012-sketch-19.png,1.0,1.5345557,1.0609006,0.33492473
alexnet_w1_mlp_simclrhn_probe2,1,13,NaN,airplane,airplane,0,0013_ske_dnn_0_airplane_00_airplane-0013-sketch-2.png,airplane-0013-sketch-2.png,1.0,2.7757611,0.35474473,1.7119172
alexnet_w1_mlp_simclrhn_probe2,1,14,NaN,airplane,airplane,0,0014_ske_dnn_0_airplane_00_airplane-0014-sketch-20.png,airplane-0014-sketch-20.png,1.0,3.3731449,0.66578513,1.9143925
alexnet_w1_mlp_simclrhn_probe2,1,15,NaN,airplane,airplane,0,0015_ske_dnn_0_airplane_00_airplane-0015-sketch-21.png,airplane-0015-sketch-21.png,1.0,3.4885433,-0.2071073,2.6132197
alexnet_w1_mlp_simclrhn_probe2,1,16,NaN,airplane,airplane,0,0016_ske_dnn_0_airplane_00_airplane-0016-sketch-22.png,airplane-0016-sketch-22.png,1.0,3.4130356,-0.1041106,2.4869978
alexnet_w1_mlp_simclrhn_probe2,1,17,NaN,airplane,airplane,0,0017_ske_dnn_0_airplane_00_airplane-0017-sketch-23.png,airplane-0017-sketch-23.png,1.0,2.5236535,0.92074496,1.1334276
alexnet_w1_mlp_simclrhn_probe2,1,18,NaN,airplane,airplane,0,0018_ske_dnn_0_airplane_00_airplane-0018-sketch-24.png,airplane-0018-sketch-24.png,1.0,0.30138272,0.23876733,0.04427577
alexnet_w1_mlp_simclrhn_probe2,1,19,NaN,clock,airplane,0,0019_ske_dnn_0_airplane_00_airplane-0019-sketch-25.png,airplane-0019-sketch-25.png,0.0,0.47839442,2.4480553,-1.3927606
alexnet_w1_mlp_simclrhn_probe2,1,20,NaN,clock,airplane,0,0020_ske_dnn_0_airplane_00_airplane-0020-sketch-26.png,airplane-0020-sketch-26.png,0.0,-0.5795063,0.60415393,-0.8369742
alexnet_w1_mlp_simclrhn_probe2,1,21,NaN,knife,airplane,0,0021_ske_dnn_0_airplane_00_airplane-0021-sketch-27.png,airplane-0021-sketch-27.png,0.0,0.27740777,1.8854103,-1.1370295
alexnet_w1_mlp_simclrhn_probe2,1,22,NaN,airplane,airplane,0,0022_ske_dnn_0_airplane_00_airplane-0022-sketch-28.png,airplane-0022-sketch-28.png,1.0,2.7367356,1.1629969,1.1128013
alexnet_w1_mlp_simclrhn_probe2,1,23,NaN,airplane,airplane,0,0023_ske_dnn_0_airplane_00_airplane-0023-sketch-29.png,airplane-0023-sketch-29.png,1.0,0.6910218,0.15432714,0.37950042
alexnet_w1_mlp_simclrhn_probe2,1,24,NaN,airplane,airplane,0,0024_ske_dnn_0_airplane_00_airplane-0024-sketch-3.png,airplane-0024-sketch-3.png,1.0,2.74256,-0.00807596,1.9449933
alexnet_w1_mlp_simclrhn_probe2,1,25,NaN,airplane,airplane,0,0025_ske_dnn_0_airplane_00_airplane-0025-sketch-30.png,airplane-0025-sketch-30.png,1.0,1.8029268,0.9582418,0.59728247
alexnet_w1_mlp_simclrhn_probe2,1,26,NaN,clock,airplane,0,0026_ske_dnn_0_airplane_00_airplane-0027-sketch-32.png,airplane-0027-sketch-32.png,0.0,1.0205853,1.7973155,-0.5492312
alexnet_w1_mlp_simclrhn_probe2,1,27,NaN,knife,airplane,0,0027_ske_dnn_0_airplane_00_airplane-0028-sketch-33.png,airplane-0028-sketch-33.png,0.0,0.7152088,1.9721103,-0.8887636
alexnet_w1_mlp_simclrhn_probe2,1,28,NaN,clock,airplane,0,0028_ske_dnn_0_airplane_00_airplane-0029-sketch-34.png,airplane-0029-sketch-34.png,0.0,0.8916851,1.5209786,-0.44497767
alexnet_w1_mlp_simclrhn_probe2,1,29,NaN,clock,airplane,0,0029_ske_dnn_0_airplane_00_airplane-0030-sketch-35.png,airplane-0030-sketch-35.png,0.0,0.31213886,0.56149477,-0.17632125
alexnet_w1_mlp_simclrhn_probe2,1,30,NaN,airplane,airplane,0,0030_ske_dnn_0_airplane_00_airplane-0031-sketch-36.png,airplane-0031-sketch-36.png,1.0,1.2342551,1.121214,0.079932086
alexnet_w1_mlp_simclrhn_probe2,1,31,NaN,airplane,airplane,0,0031_ske_dnn_0_airplane_00_airplane-0032-sketch-37.png,airplane-0032-sketch-37.png,1.0,2.2583175,0.48803747,1.251777
alexnet_w1_mlp_simclrhn_probe2,1,32,NaN,airplane,airplane,0,0032_ske_dnn_0_airplane_00_airplane-0033-sketch-38.png,airplane-0033-sketch-38.png,1.0,1.6566315,0.6290751,0.7265921
alexnet_w1_mlp_simclrhn_probe2,1,33,NaN,clock,airplane,0,0033_ske_dnn_0_airplane_00_airplane-0034-sketch-39.png,airplane-0034-sketch-39.png,0.0,0.121792465,1.1944867,-0.75850946
alexnet_w1_mlp_simclrhn_probe2,1,34,NaN,airplane,airplane,0,0034_ske_dnn_0_airplane_00_airplane-0035-sketch-4.png,airplane-0035-sketch-4.png,1.0,1.9254069,1.1724248,0.5324388
alexnet_w1_mlp_simclrhn_probe2,1,35,NaN,airplane,airplane,0,0035_ske_dnn_0_airplane_00_airplane-0036-sketch-40.png,airplane-0036-sketch-40.png,1.0,4.7882805,0.25350475,3.2065706
alexnet_w1_mlp_simclrhn_probe2,1,36,NaN,airplane,airplane,0,0036_ske_dnn_0_airplane_00_airplane-0037-sketch-41.png,airplane-0037-sketch-41.png,1.0,1.4254792,1.2048752,0.15599054
alexnet_w1_mlp_simclrhn_probe2,1,37,NaN,clock,airplane,0,0037_ske_dnn_0_airplane_00_airplane-0038-sketch-42.png,airplane-0038-sketch-42.png,0.0,-0.15115815,1.7265943,-1.3277715
alexnet_w1_mlp_simclrhn_probe2,1,38,NaN,knife,airplane,0,0038_ske_dnn_0_airplane_00_airplane-0039-sketch-43.png,airplane-0039-sketch-43.png,0.0,1.240762,1.4580781,-0.15366572
alexnet_w1_mlp_simclrhn_probe2,1,39,NaN,clock,airplane,0,0039_ske_dnn_0_airplane_00_airplane-0040-sketch-44.png,airplane-0040-sketch-44.png,0.0,-1.3045582,1.6459879,-2.0863512
alexnet_w1_mlp_simclrhn_probe2,1,40,NaN,airplane,airplane,0,0040_ske_dnn_0_airplane_00_airplane-0041-sketch-45.png,airplane-0041-sketch-45.png,1.0,2.268545,0.7904167,1.0451945
alexnet_w1_mlp_simclrhn_probe2,1,41,NaN,clock,airplane,0,0041_ske_dnn_0_airplane_00_airplane-0042-sketch-46.png,airplane-0042-sketch-46.png,0.0,-0.10696815,0.4120716,-0.36701652
alexnet_w1_mlp_simclrhn_probe2,1,42,NaN,clock,airplane,0,0042_ske_dnn_0_airplane_00_airplane-0043-sketch-47.png,airplane-0043-sketch-47.png,0.0,1.0064223,1.8739176,-0.61341184
alexnet_w1_mlp_simclrhn_probe2,1,43,NaN,airplane,airplane,0,0043_ske_dnn_0_airplane_00_airplane-0044-sketch-48.png,airplane-0044-sketch-48.png,1.0,1.8344632,0.8497511,0.69629663
alexnet_w1_mlp_simclrhn_probe2,1,44,NaN,airplane,airplane,0,0044_ske_dnn_0_airplane_00_airplane-0045-sketch-49.png,airplane-0045-sketch-49.png,1.0,2.1311185,1.6387869,0.34813103
alexnet_w1_mlp_simclrhn_probe2,1,45,NaN,airplane,airplane,0,0045_ske_dnn_0_airplane_00_airplane-0046-sketch-5.png,airplane-0046-sketch-5.png,1.0,0.91614616,0.19759361,0.50809336
alexnet_w1_mlp_simclrhn_probe2,1,46,NaN,airplane,airplane,0,0046_ske_dnn_0_airplane_00_airplane-0047-sketch-50.png,airplane-0047-sketch-50.png,1.0,1.6846957,0.7759977,0.64254653
alexnet_w1_mlp_simclrhn_probe2,1,47,NaN,airplane,airplane,0,0047_ske_dnn_0_airplane_00_airplane-0048-sketch-6.png,airplane-0048-sketch-6.png,1.0,2.2422922,0.25971165,1.4018961
alexnet_w1_mlp_simclrhn_probe2,1,48,NaN,airplane,airplane,0,0048_ske_dnn_0_airplane_00_airplane-0049-sketch-7.png,airplane-0049-sketch-7.png,1.0,2.394298,1.2294008,0.8237068
alexnet_w1_mlp_simclrhn_probe2,1,49,NaN,clock,airplane,0,0049_ske_dnn_0_airplane_00_airplane-0050-sketch-8.png,airplane-0050-sketch-8.png,0.0,-0.9061628,2.4448798,-2.369545
alexnet_w1_mlp_simclrhn_probe2,1,50,NaN,airplane,airplane,0,0050_ske_dnn_0_airplane_00_airplane-0051-sketch-9.png,airplane-0051-sketch-9.png,1.0,3.6482806,1.047949,1.8387122
alexnet_w1_mlp_simclrhn_probe2,1,51,NaN,bird,bear,0,0051_ske_dnn_0_bear_00_bear-0005-sketch-12.png,bear-0005-sketch-12.png,0.0,-5.527498,-1.0390013,-3.1738462
alexnet_w1_mlp_simclrhn_probe2,1,52,NaN,clock,bear,0,0052_ske_dnn_0_bear_00_bear-0007-sketch-14.png,bear-0007-sketch-14.png,0.0,-8.090689,-0.79047704,-5.1620293
alexnet_w1_mlp_simclrhn_probe2,1,53,NaN,cat,bear,0,0053_ske_dnn_0_bear_00_bear-0017-sketch-23.png,bear-0017-sketch-23.png,0.0,-1.1128819,3.5276449,-3.281348
alexnet_w1_mlp_simclrhn_probe2,1,54,NaN,elephant,bear,0,0054_ske_dnn_0_bear_00_bear-0022-sketch-28.png,bear-0022-sketch-28.png,0.0,-3.3825512,-0.022422895,-2.3759696
alexnet_w1_mlp_simclrhn_probe2,1,55,NaN,cat,bear,0,0055_ske_dnn_0_bear_00_bear-0023-sketch-29.png,bear-0023-sketch-29.png,0.0,-4.936899,-0.1419184,-3.3905637
alexnet_w1_mlp_simclrhn_probe2,1,56,NaN,cat,bear,0,0056_ske_dnn_0_bear_00_bear-0026-sketch-31.png,bear-0026-sketch-31.png,0.0,-0.12025249,0.48226523,-0.42604437
alexnet_w1_mlp_simclrhn_probe2,1,57,NaN,cat,bear,0,0057_ske_dnn_0_bear_00_bear-0027-sketch-32.png,bear-0027-sketch-32.png,0.0,-5.936427,1.8023838,-5.472166
alexnet_w1_mlp_simclrhn_probe2,1,58,NaN,cat,bear,0,0058_ske_dnn_0_bear_00_bear-0030-sketch-35.png,bear-0030-sketch-35.png,0.0,-1.5123724,-0.38805184,-0.7950147
alexnet_w1_mlp_simclrhn_probe2,1,59,NaN,cat,bear,0,0059_ske_dnn_0_bear_00_bear-0033-sketch-38.png,bear-0033-sketch-38.png,0.0,-0.8630785,2.3829756,-2.295307
alexnet_w1_mlp_simclrhn_probe2,1,60,NaN,cat,bear,0,0060_ske_dnn_0_bear_00_bear-0036-sketch-40.png,bear-0036-sketch-40.png,0.0,-6.0279245,-0.599291,-3.8386238
alexnet_w1_mlp_simclrhn_probe2,1,61,NaN,bear,bear,0,0061_ske_dnn_0_bear_00_bear-0037-sketch-41.png,bear-0037-sketch-41.png,1.0,2.0376089,1.2680044,0.54419255
alexnet_w1_mlp_simclrhn_probe2,1,62,NaN,cat,bear,0,0062_ske_dnn_0_bear_00_bear-0038-sketch-42.png,bear-0038-sketch-42.png,0.0,-1.0647871,2.1549864,-2.2767236
alexnet_w1_mlp_simclrhn_probe2,1,63,NaN,cat,bear,0,0063_ske_dnn_0_bear_00_bear-0039-sketch-43.png,bear-0039-sketch-43.png,0.0,-1.4223788,-0.12549247,-0.9170371
alexnet_w1_mlp_simclrhn_probe2,1,64,NaN,cat,bear,0,0064_ske_dnn_0_bear_00_bear-0041-sketch-45.png,bear-0041-sketch-45.png,0.0,-0.5071298,-0.11710247,-0.27579096
alexnet_w1_mlp_simclrhn_probe2,1,65,NaN,elephant,bear,0,0065_ske_dnn_0_bear_00_bear-0045-sketch-49.png,bear-0045-sketch-49.png,0.0,3.0456676,3.5747356,-0.37410757
alexnet_w1_mlp_simclrhn_probe2,1,66,NaN,cat,bear,0,0066_ske_dnn_0_bear_00_bear-0048-sketch-7.png,bear-0048-sketch-7.png,0.0,-6.760537,-1.041547,-4.0439367
alexnet_w1_mlp_simclrhn_probe2,1,67,NaN,cat,bear,0,0067_ske_dnn_0_bear_00_bear-0049-sketch-8.png,bear-0049-sketch-8.png,0.0,-4.1716146,1.7630053,-4.19641
alexnet_w1_mlp_simclrhn_probe2,1,68,NaN,cat,bear,0,0068_ske_dnn_0_bear_00_bear-0053-sketch-10.png,bear-0053-sketch-10.png,0.0,-3.9276714,2.9466689,-4.860893
alexnet_w1_mlp_simclrhn_probe2,1,69,NaN,bear,bear,0,0069_ske_dnn_0_bear_00_bear-0059-sketch-16.png,bear-0059-sketch-16.png,1.0,0.43681425,-1.2012979,1.1583202
alexnet_w1_mlp_simclrhn_probe2,1,70,NaN,dog,bear,0,0070_ske_dnn_0_bear_00_bear-0068-sketch-24.png,bear-0068-sketch-24.png,0.0,-2.2371514,-1.3568467,-0.6224694
alexnet_w1_mlp_simclrhn_probe2,1,71,NaN,oven,bear,0,0071_ske_dnn_0_bear_00_bear-0070-sketch-26.png,bear-0070-sketch-26.png,0.0,-6.507326,-1.9652302,-3.211747
alexnet_w1_mlp_simclrhn_probe2,1,72,NaN,cat,bear,0,0072_ske_dnn_0_bear_00_bear-0073-sketch-29.png,bear-0073-sketch-29.png,0.0,0.07691458,1.9951291,-1.3563825
alexnet_w1_mlp_simclrhn_probe2,1,73,NaN,bear,bear,0,0073_ske_dnn_0_bear_00_bear-0079-sketch-34.png,bear-0079-sketch-34.png,1.0,4.435904,1.013285,2.420157
alexnet_w1_mlp_simclrhn_probe2,1,74,NaN,bear,bear,0,0074_ske_dnn_0_bear_00_bear-0081-sketch-36.png,bear-0081-sketch-36.png,1.0,0.87253875,0.117406525,0.5339591
alexnet_w1_mlp_simclrhn_probe2,1,75,NaN,cat,bear,0,0075_ske_dnn_0_bear_00_bear-0085-sketch-4.png,bear-0085-sketch-4.png,0.0,0.46549958,1.9670168,-1.0617331
alexnet_w1_mlp_simclrhn_probe2,1,76,NaN,dog,bear,0,0076_ske_dnn_0_bear_00_bear-0086-sketch-40.png,bear-0086-sketch-40.png,0.0,-1.1306341,-0.59865236,-0.3761679
alexnet_w1_mlp_simclrhn_probe2,1,77,NaN,clock,bear,0,0077_ske_dnn_0_bear_00_bear-0087-sketch-41.png,bear-0087-sketch-41.png,0.0,-6.3202124,0.9080002,-5.111118
alexnet_w1_mlp_simclrhn_probe2,1,78,NaN,clock,bear,0,0078_ske_dnn_0_bear_00_bear-0090-sketch-44.png,bear-0090-sketch-44.png,0.0,-15.571597,2.2026591,-12.568297
alexnet_w1_mlp_simclrhn_probe2,1,79,NaN,clock,bear,0,0079_ske_dnn_0_bear_00_bear-0103-sketch-1.png,bear-0103-sketch-1.png,0.0,-8.041399,0.48769987,-6.0309834
alexnet_w1_mlp_simclrhn_probe2,1,80,NaN,chair,bear,0,0080_ske_dnn_0_bear_00_bear-0107-sketch-13.png,bear-0107-sketch-13.png,0.0,-5.9053626,-0.6261814,-3.7329447
alexnet_w1_mlp_simclrhn_probe2,1,81,NaN,cat,bear,0,0081_ske_dnn_0_bear_00_bear-0110-sketch-16.png,bear-0110-sketch-16.png,0.0,-4.816667,0.28107247,-3.6046464
alexnet_w1_mlp_simclrhn_probe2,1,82,NaN,elephant,bear,0,0082_ske_dnn_0_bear_00_bear-0112-sketch-18.png,bear-0112-sketch-18.png,0.0,-2.096221,-0.886942,-0.85508937
alexnet_w1_mlp_simclrhn_probe2,1,83,NaN,clock,bear,0,0083_ske_dnn_0_bear_00_bear-0117-sketch-22.png,bear-0117-sketch-22.png,0.0,-8.750088,1.6107769,-7.3262377
alexnet_w1_mlp_simclrhn_probe2,1,84,NaN,elephant,bear,0,0084_ske_dnn_0_bear_00_bear-0123-sketch-28.png,bear-0123-sketch-28.png,0.0,-0.830058,0.2464833,-0.7612297
alexnet_w1_mlp_simclrhn_probe2,1,85,NaN,clock,bear,0,0085_ske_dnn_0_bear_00_bear-0135-sketch-39.png,bear-0135-sketch-39.png,0.0,-7.268152,2.5619864,-6.9509583
alexnet_w1_mlp_simclrhn_probe2,1,86,NaN,clock,bear,0,0086_ske_dnn_0_bear_00_bear-0136-sketch-4.png,bear-0136-sketch-4.png,0.0,-5.041041,0.39336982,-3.8427086
alexnet_w1_mlp_simclrhn_probe2,1,87,NaN,clock,bear,0,0087_ske_dnn_0_bear_00_bear-0137-sketch-40.png,bear-0137-sketch-40.png,0.0,-9.205471,-0.2900484,-6.304156
alexnet_w1_mlp_simclrhn_probe2,1,88,NaN,cat,bear,0,0088_ske_dnn_0_bear_00_bear-0148-sketch-50.png,bear-0148-sketch-50.png,0.0,0.69388795,0.736845,-0.030375235
alexnet_w1_mlp_simclrhn_probe2,1,89,NaN,bicycle,bear,0,0089_ske_dnn_0_bear_00_bear-0149-sketch-6.png,bear-0149-sketch-6.png,0.0,-7.0055013,-0.19365522,-4.816703
alexnet_w1_mlp_simclrhn_probe2,1,90,NaN,bear,bear,0,0090_ske_dnn_0_bear_00_bear-0161-sketch-16.png,bear-0161-sketch-16.png,1.0,1.6255338,1.5177212,0.076235056
alexnet_w1_mlp_simclrhn_probe2,1,91,NaN,cat,bear,0,0091_ske_dnn_0_bear_00_bear-0166-sketch-20.png,bear-0166-sketch-20.png,0.0,-7.0348163,0.18259573,-5.103481
alexnet_w1_mlp_simclrhn_probe2,1,92,NaN,clock,bear,0,0092_ske_dnn_0_bear_00_bear-0170-sketch-24.png,bear-0170-sketch-24.png,0.0,-17.038105,2.0865028,-13.52314
alexnet_w1_mlp_simclrhn_probe2,1,93,NaN,bear,bear,0,0093_ske_dnn_0_bear_00_bear-0171-sketch-25.png,bear-0171-sketch-25.png,1.0,0.74695146,0.6582909,0.06269247
alexnet_w1_mlp_simclrhn_probe2,1,94,NaN,cat,bear,0,0094_ske_dnn_0_bear_00_bear-0179-sketch-32.png,bear-0179-sketch-32.png,0.0,-6.1559653,-1.1097058,-3.5682442
alexnet_w1_mlp_simclrhn_probe2,1,95,NaN,clock,bear,0,0095_ske_dnn_0_bear_00_bear-0187-sketch-4.png,bear-0187-sketch-4.png,0.0,-10.250886,1.3700134,-8.2172165
alexnet_w1_mlp_simclrhn_probe2,1,96,NaN,bear,bear,0,0096_ske_dnn_0_bear_00_bear-0188-sketch-40.png,bear-0188-sketch-40.png,1.0,1.5450248,-0.13788517,1.1899971
alexnet_w1_mlp_simclrhn_probe2,1,97,NaN,cat,bear,0,0097_ske_dnn_0_bear_00_bear-0195-sketch-47.png,bear-0195-sketch-47.png,0.0,-6.568967,-1.7697369,-3.3935683
alexnet_w1_mlp_simclrhn_probe2,1,98,NaN,cat,bear,0,0098_ske_dnn_0_bear_00_bear-0198-sketch-5.png,bear-0198-sketch-5.png,0.0,-1.2861573,2.1398244,-2.4225347
alexnet_w1_mlp_simclrhn_probe2,1,99,NaN,cat,bear,0,0099_ske_dnn_0_bear_00_bear-0199-sketch-50.png,bear-0199-sketch-50.png,0.0,-5.926026,0.06745418,-4.2380304
alexnet_w1_mlp_simclrhn_probe2,1,100,NaN,keyboard,bear,0,0100_ske_dnn_0_bear_00_bear-0201-sketch-7.png,bear-0201-sketch-7.png,0.0,-2.2384377,0.3891096,-1.8579565
alexnet_w1_mlp_simclrhn_probe2,1,101,NaN,bicycle,bicycle,0,0101_ske_dnn_0_bicycle_00_bicycle-0002-sketch-1.png,bicycle-0002-sketch-1.png,1.0,14.238797,1.1485107,9.25623
alexnet_w1_mlp_simclrhn_probe2,1,102,NaN,clock,bicycle,0,0102_ske_dnn_0_bicycle_00_bicycle-0003-sketch-10.png,bicycle-0003-sketch-10.png,0.0,-4.5283155,1.6999078,-4.404019
alexnet_w1_mlp_simclrhn_probe2,1,103,NaN,bicycle,bicycle,0,0103_ske_dnn_0_bicycle_00_bicycle-0004-sketch-11.png,bicycle-0004-sketch-11.png,1.0,6.7391863,0.83543986,4.174579
alexnet_w1_mlp_simclrhn_probe2,1,104,NaN,bicycle,bicycle,0,0104_ske_dnn_0_bicycle_00_bicycle-0008-sketch-15.png,bicycle-0008-sketch-15.png,1.0,3.1552744,-0.73845947,2.7532856
alexnet_w1_mlp_simclrhn_probe2,1,105,NaN,bicycle,bicycle,0,0105_ske_dnn_0_bicycle_00_bicycle-0011-sketch-18.png,bicycle-0011-sketch-18.png,1.0,3.1476321,-1.3790263,3.200831
alexnet_w1_mlp_simclrhn_probe2,1,106,NaN,bicycle,bicycle,0,0106_ske_dnn_0_bicycle_00_bicycle-0013-sketch-2.png,bicycle-0013-sketch-2.png,1.0,11.483574,-0.7677875,8.663021
alexnet_w1_mlp_simclrhn_probe2,1,107,NaN,clock,bicycle,0,0107_ske_dnn_0_bicycle_00_bicycle-0016-sketch-22.png,bicycle-0016-sketch-22.png,0.0,-4.650422,1.5363032,-4.3746753
alexnet_w1_mlp_simclrhn_probe2,1,108,NaN,bicycle,bicycle,0,0108_ske_dnn_0_bicycle_00_bicycle-0019-sketch-25.png,bicycle-0019-sketch-25.png,1.0,9.736007,1.4026241,5.8925915
alexnet_w1_mlp_simclrhn_probe2,1,109,NaN,bicycle,bicycle,0,0109_ske_dnn_0_bicycle_00_bicycle-0020-sketch-26.png,bicycle-0020-sketch-26.png,1.0,2.5033946,-1.2977864,2.6878407
alexnet_w1_mlp_simclrhn_probe2,1,110,NaN,bicycle,bicycle,0,0110_ske_dnn_0_bicycle_00_bicycle-0022-sketch-28.png,bicycle-0022-sketch-28.png,1.0,3.501645,-1.671695,3.6581037
alexnet_w1_mlp_simclrhn_probe2,1,111,NaN,clock,bicycle,0,0111_ske_dnn_0_bicycle_00_bicycle-0023-sketch-29.png,bicycle-0023-sketch-29.png,0.0,0.4186093,2.1570578,-1.2292688
alexnet_w1_mlp_simclrhn_probe2,1,112,NaN,bicycle,bicycle,0,0112_ske_dnn_0_bicycle_00_bicycle-0025-sketch-30.png,bicycle-0025-sketch-30.png,1.0,0.41868168,0.31690136,0.07196956
alexnet_w1_mlp_simclrhn_probe2,1,113,NaN,bicycle,bicycle,0,0113_ske_dnn_0_bicycle_00_bicycle-0026-sketch-31.png,bicycle-0026-sketch-31.png,1.0,0.5162443,-0.14755353,0.46937597
alexnet_w1_mlp_simclrhn_probe2,1,114,NaN,bicycle,bicycle,0,0114_ske_dnn_0_bicycle_00_bicycle-0031-sketch-36.png,bicycle-0031-sketch-36.png,1.0,0.058247894,-1.4189299,1.0445225
alexnet_w1_mlp_simclrhn_probe2,1,115,NaN,bicycle,bicycle,0,0115_ske_dnn_0_bicycle_00_bicycle-0034-sketch-39.png,bicycle-0034-sketch-39.png,1.0,1.1290433,-0.3664055,1.0574421
alexnet_w1_mlp_simclrhn_probe2,1,116,NaN,clock,bicycle,0,0116_ske_dnn_0_bicycle_00_bicycle-0037-sketch-41.png,bicycle-0037-sketch-41.png,0.0,0.24838409,2.6657152,-1.7093114
alexnet_w1_mlp_simclrhn_probe2,1,117,NaN,bicycle,bicycle,0,0117_ske_dnn_0_bicycle_00_bicycle-0038-sketch-42.png,bicycle-0038-sketch-42.png,1.0,0.4132588,0.12418976,0.20440267
alexnet_w1_mlp_simclrhn_probe2,1,118,NaN,bicycle,bicycle,0,0118_ske_dnn_0_bicycle_00_bicycle-0039-sketch-43.png,bicycle-0039-sketch-43.png,1.0,0.92671335,-0.5389432,1.0363756
alexnet_w1_mlp_simclrhn_probe2,1,119,NaN,bicycle,bicycle,0,0119_ske_dnn_0_bicycle_00_bicycle-0040-sketch-44.png,bicycle-0040-sketch-44.png,1.0,1.3278747,-0.79888904,1.5038491
alexnet_w1_mlp_simclrhn_probe2,1,120,NaN,bicycle,bicycle,0,0120_ske_dnn_0_bicycle_00_bicycle-0044-sketch-48.png,bicycle-0044-sketch-48.png,1.0,4.472331,-2.4433122,4.890098
alexnet_w1_mlp_simclrhn_probe2,1,121,NaN,bicycle,bicycle,0,0121_ske_dnn_0_bicycle_00_bicycle-0045-sketch-49.png,bicycle-0045-sketch-49.png,1.0,14.238797,1.1485107,9.25623
alexnet_w1_mlp_simclrhn_probe2,1,122,NaN,clock,bicycle,0,0122_ske_dnn_0_bicycle_00_bicycle-0046-sketch-5.png,bicycle-0046-sketch-5.png,0.0,1.1405592,2.558055,-1.0023209
alexnet_w1_mlp_simclrhn_probe2,1,123,NaN,bicycle,bicycle,0,0123_ske_dnn_0_bicycle_00_bicycle-0047-sketch-50.png,bicycle-0047-sketch-50.png,1.0,11.483574,-0.7677875,8.663021
alexnet_w1_mlp_simclrhn_probe2,1,124,NaN,bicycle,bicycle,0,0124_ske_dnn_0_bicycle_00_bicycle-0048-sketch-6.png,bicycle-0048-sketch-6.png,1.0,3.3761108,-1.406289,3.3816674
alexnet_w1_mlp_simclrhn_probe2,1,125,NaN,bicycle,bicycle,0,0125_ske_dnn_0_bicycle_00_bicycle-0053-sketch-1.png,bicycle-0053-sketch-1.png,1.0,2.6467662,-2.934499,3.9465506
alexnet_w1_mlp_simclrhn_probe2,1,126,NaN,bicycle,bicycle,0,0126_ske_dnn_0_bicycle_00_bicycle-0054-sketch-10.png,bicycle-0054-sketch-10.png,1.0,6.6492825,-2.5567188,6.509626
alexnet_w1_mlp_simclrhn_probe2,1,127,NaN,bicycle,bicycle,0,0127_ske_dnn_0_bicycle_00_bicycle-0056-sketch-12.png,bicycle-0056-sketch-12.png,1.0,4.0397167,-2.05738,4.3112984
alexnet_w1_mlp_simclrhn_probe2,1,128,NaN,clock,bicycle,0,0128_ske_dnn_0_bicycle_00_bicycle-0057-sketch-13.png,bicycle-0057-sketch-13.png,0.0,-1.9832985,-0.073263444,-1.3505988
alexnet_w1_mlp_simclrhn_probe2,1,129,NaN,bicycle,bicycle,0,0129_ske_dnn_0_bicycle_00_bicycle-0058-sketch-14.png,bicycle-0058-sketch-14.png,1.0,0.51364565,-0.8547734,0.9676184
alexnet_w1_mlp_simclrhn_probe2,1,130,NaN,clock,bicycle,0,0130_ske_dnn_0_bicycle_00_bicycle-0059-sketch-15.png,bicycle-0059-sketch-15.png,0.0,-3.9255376,2.7551882,-4.7239866
alexnet_w1_mlp_simclrhn_probe2,1,131,NaN,clock,bicycle,0,0131_ske_dnn_0_bicycle_00_bicycle-0060-sketch-16.png,bicycle-0060-sketch-16.png,0.0,1.473168,1.9691824,-0.35073513
alexnet_w1_mlp_simclrhn_probe2,1,132,NaN,clock,bicycle,0,0132_ske_dnn_0_bicycle_00_bicycle-0062-sketch-18.png,bicycle-0062-sketch-18.png,0.0,1.4859298,2.5332117,-0.74054015
alexnet_w1_mlp_simclrhn_probe2,1,133,NaN,bicycle,bicycle,0,0133_ske_dnn_0_bicycle_00_bicycle-0066-sketch-21.png,bicycle-0066-sketch-21.png,1.0,5.5014586,0.5242179,3.5194407
alexnet_w1_mlp_simclrhn_probe2,1,134,NaN,bicycle,bicycle,0,0134_ske_dnn_0_bicycle_00_bicycle-0068-sketch-23.png,bicycle-0068-sketch-23.png,1.0,13.633392,-1.3349608,10.584225
alexnet_w1_mlp_simclrhn_probe2,1,135,NaN,clock,bicycle,0,0135_ske_dnn_0_bicycle_00_bicycle-0070-sketch-25.png,bicycle-0070-sketch-25.png,0.0,1.0524422,2.9800422,-1.3630191
alexnet_w1_mlp_simclrhn_probe2,1,136,NaN,clock,bicycle,0,0136_ske_dnn_0_bicycle_00_bicycle-0071-sketch-26.png,bicycle-0071-sketch-26.png,0.0,0.54653627,2.9472702,-1.6975753
alexnet_w1_mlp_simclrhn_probe2,1,137,NaN,bicycle,bicycle,0,0137_ske_dnn_0_bicycle_00_bicycle-0075-sketch-3.png,bicycle-0075-sketch-3.png,1.0,4.347148,1.0162959,2.355268
alexnet_w1_mlp_simclrhn_probe2,1,138,NaN,bicycle,bicycle,0,0138_ske_dnn_0_bicycle_00_bicycle-0078-sketch-32.png,bicycle-0078-sketch-32.png,1.0,11.928755,3.73787,5.79183
alexnet_w1_mlp_simclrhn_probe2,1,139,NaN,bicycle,bicycle,0,0139_ske_dnn_0_bicycle_00_bicycle-0080-sketch-34.png,bicycle-0080-sketch-34.png,1.0,5.9083905,2.9012096,2.126398
alexnet_w1_mlp_simclrhn_probe2,1,140,NaN,bicycle,bicycle,0,0140_ske_dnn_0_bicycle_00_bicycle-0081-sketch-35.png,bicycle-0081-sketch-35.png,1.0,3.285156,0.79973906,1.7574551
alexnet_w1_mlp_simclrhn_probe2,1,141,NaN,clock,bicycle,0,0141_ske_dnn_0_bicycle_00_bicycle-0083-sketch-37.png,bicycle-0083-sketch-37.png,0.0,-1.5804552,2.4944532,-2.8813953
alexnet_w1_mlp_simclrhn_probe2,1,142,NaN,clock,bicycle,0,0142_ske_dnn_0_bicycle_00_bicycle-0084-sketch-38.png,bicycle-0084-sketch-38.png,0.0,-1.9056983,3.1521614,-3.5764468
alexnet_w1_mlp_simclrhn_probe2,1,143,NaN,bicycle,bicycle,0,0143_ske_dnn_0_bicycle_00_bicycle-0087-sketch-40.png,bicycle-0087-sketch-40.png,1.0,11.303624,-1.1176113,8.78314
alexnet_w1_mlp_simclrhn_probe2,1,144,NaN,bicycle,bicycle,0,0144_ske_dnn_0_bicycle_00_bicycle-0090-sketch-43.png,bicycle-0090-sketch-43.png,1.0,6.044919,4.4622593,1.1191094
alexnet_w1_mlp_simclrhn_probe2,1,145,NaN,clock,bicycle,0,0145_ske_dnn_0_bicycle_00_bicycle-0094-sketch-47.png,bicycle-0094-sketch-47.png,0.0,-4.028631,2.6640325,-4.732428
alexnet_w1_mlp_simclrhn_probe2,1,146,NaN,clock,bicycle,0,0146_ske_dnn_0_bicycle_00_bicycle-0095-sketch-48.png,bicycle-0095-sketch-48.png,0.0,1.8334528,2.0586243,-0.15922026
alexnet_w1_mlp_simclrhn_probe2,1,147,NaN,clock,bicycle,0,0147_ske_dnn_0_bicycle_00_bicycle-0098-sketch-50.png,bicycle-0098-sketch-50.png,0.0,1.854577,2.4763832,-0.43968344
alexnet_w1_mlp_simclrhn_probe2,1,148,NaN,clock,bicycle,0,0148_ske_dnn_0_bicycle_00_bicycle-0099-sketch-6.png,bicycle-0099-sketch-6.png,0.0,-1.9699997,3.300749,-3.726982
alexnet_w1_mlp_simclrhn_probe2,1,149,NaN,bicycle,bicycle,0,0149_ske_dnn_0_bicycle_00_bicycle-0101-sketch-8.png,bicycle-0101-sketch-8.png,1.0,9.70878,-0.9394594,7.529443
alexnet_w1_mlp_simclrhn_probe2,1,150,NaN,bicycle,bicycle,0,0150_ske_dnn_0_bicycle_00_bicycle-0102-sketch-9.png,bicycle-0102-sketch-9.png,1.0,1.7850525,-1.025268,1.9871967
alexnet_w1_mlp_simclrhn_probe2,1,151,NaN,clock,bird,0,0151_ske_dnn_0_bird_00_bird-0030-sketch-35.png,bird-0030-sketch-35.png,0.0,-5.312473,1.2250649,-4.6227374
alexnet_w1_mlp_simclrhn_probe2,1,152,NaN,knife,bird,0,0152_ske_dnn_0_bird_00_bird-0047-sketch-50.png,bird-0047-sketch-50.png,0.0,-1.9773707,-1.414887,-0.3977361
alexnet_w1_mlp_simclrhn_probe2,1,153,NaN,bicycle,bird,0,0153_ske_dnn_0_bird_00_bird-0072-sketch-27.png,bird-0072-sketch-27.png,0.0,-2.9744294,-0.52775395,-1.7300607
alexnet_w1_mlp_simclrhn_probe2,1,154,NaN,bird,bird,0,0154_ske_dnn_0_bird_00_bird-0228-sketch-3.png,bird-0228-sketch-3.png,1.0,2.2887414,-2.8335845,3.6220315
alexnet_w1_mlp_simclrhn_probe2,1,155,NaN,bird,bird,0,0155_ske_dnn_0_bird_00_bird-0274-sketch-25.png,bird-0274-sketch-25.png,1.0,-0.67741156,-2.4858646,1.2787695
alexnet_w1_mlp_simclrhn_probe2,1,156,NaN,airplane,bird,0,0156_ske_dnn_0_bird_00_bird-0292-sketch-41.png,bird-0292-sketch-41.png,0.0,-1.2393365,-0.0047729015,-0.8729683
alexnet_w1_mlp_simclrhn_probe2,1,157,NaN,clock,bird,0,0157_ske_dnn_0_bird_00_bird-0316-sketch-17.png,bird-0316-sketch-17.png,0.0,-5.066387,0.45755878,-3.9060197
alexnet_w1_mlp_simclrhn_probe2,1,158,NaN,bicycle,bird,0,0158_ske_dnn_0_bird_00_bird-0325-sketch-25.png,bird-0325-sketch-25.png,0.0,-1.6482716,0.16946486,-1.2853338
alexnet_w1_mlp_simclrhn_probe2,1,159,NaN,clock,bird,0,0159_ske_dnn_0_bird_00_bird-0357-sketch-9.png,bird-0357-sketch-9.png,0.0,-3.283145,0.3875059,-2.5955422
alexnet_w1_mlp_simclrhn_probe2,1,160,NaN,bird,bird,0,0160_ske_dnn_0_bird_00_bird-0384-sketch-32.png,bird-0384-sketch-32.png,1.0,0.09979972,-0.989162,0.77001226
alexnet_w1_mlp_simclrhn_probe2,1,161,NaN,bird,bird,0,0161_ske_dnn_0_bird_00_bird-0415-sketch-14.png,bird-0415-sketch-14.png,1.0,1.7502784,-1.3006938,2.157363
alexnet_w1_mlp_simclrhn_probe2,1,162,NaN,bicycle,bird,0,0162_ske_dnn_0_bird_00_bird-0474-sketch-21.png,bird-0474-sketch-21.png,0.0,-1.1812849,-0.6972588,-0.34225816
alexnet_w1_mlp_simclrhn_probe2,1,163,NaN,bird,bird,0,0163_ske_dnn_0_bird_00_bird-0479-sketch-26.png,bird-0479-sketch-26.png,1.0,0.16251378,-0.92370063,0.7680696
alexnet_w1_mlp_simclrhn_probe2,1,164,NaN,airplane,bird,0,0164_ske_dnn_0_bird_00_bird-0491-sketch-37.png,bird-0491-sketch-37.png,0.0,-0.22293207,1.2535421,-1.044025
alexnet_w1_mlp_simclrhn_probe2,1,165,NaN,bird,bird,0,0165_ske_dnn_0_bird_00_bird-0578-sketch-23.png,bird-0578-sketch-23.png,1.0,0.1891398,-2.021895,1.5634377
alexnet_w1_mlp_simclrhn_probe2,1,166,NaN,bird,bird,0,0166_ske_dnn_0_bird_00_bird-0640-sketch-33.png,bird-0640-sketch-33.png,1.0,-0.104772635,-2.57995,1.7502148
alexnet_w1_mlp_simclrhn_probe2,1,167,NaN,clock,bird,0,0167_ske_dnn_0_bird_00_bird-0646-sketch-39.png,bird-0646-sketch-39.png,0.0,-4.220211,1.0741373,-3.7436695
alexnet_w1_mlp_simclrhn_probe2,1,168,NaN,bottle,bird,0,0168_ske_dnn_0_bird_00_bird-0685-sketch-28.png,bird-0685-sketch-28.png,0.0,-4.318722,-0.8930403,-2.4223228
alexnet_w1_mlp_simclrhn_probe2,1,169,NaN,knife,bird,0,0169_ske_dnn_0_bird_00_bird-0694-sketch-36.png,bird-0694-sketch-36.png,0.0,-1.8922262,-1.3390257,-0.3911718
alexnet_w1_mlp_simclrhn_probe2,1,170,NaN,bicycle,bird,0,0170_ske_dnn_0_bird_00_bird-0733-sketch-25.png,bird-0733-sketch-25.png,0.0,-2.0641985,-0.4718538,-1.1259578
alexnet_w1_mlp_simclrhn_probe2,1,171,NaN,bird,bird,0,0171_ske_dnn_0_bird_00_bird-0748-sketch-39.png,bird-0748-sketch-39.png,1.0,2.8714917,-4.1280947,4.949455
alexnet_w1_mlp_simclrhn_probe2,1,172,NaN,bird,bird,0,0172_ske_dnn_0_bird_00_bird-0749-sketch-4.png,bird-0749-sketch-4.png,1.0,-0.29281938,-1.5790863,0.9095281
alexnet_w1_mlp_simclrhn_probe2,1,173,NaN,bird,bird,0,0173_ske_dnn_0_bird_00_bird-0809-sketch-48.png,bird-0809-sketch-48.png,1.0,1.6646209,-5.292936,4.9197354
alexnet_w1_mlp_simclrhn_probe2,1,174,NaN,bird,bird,0,0174_ske_dnn_0_bird_00_bird-0834-sketch-24.png,bird-0834-sketch-24.png,1.0,-0.22362143,-0.74450654,0.3683214
alexnet_w1_mlp_simclrhn_probe2,1,175,NaN,elephant,bird,0,0175_ske_dnn_0_bird_00_bird-0880-sketch-2.png,bird-0880-sketch-2.png,0.0,-3.2162955,-1.9535567,-0.8928912
alexnet_w1_mlp_simclrhn_probe2,1,176,NaN,bird,bird,0,0176_ske_dnn_0_bird_00_bird-0939-sketch-27.png,bird-0939-sketch-27.png,1.0,-0.27513856,-1.3579006,0.7656284
alexnet_w1_mlp_simclrhn_probe2,1,177,NaN,bird,bird,0,0177_ske_dnn_0_bird_00_bird-0954-sketch-40.png,bird-0954-sketch-40.png,1.0,0.74039924,-1.182047,1.3593748
alexnet_w1_mlp_simclrhn_probe2,1,178,NaN,bicycle,bird,0,0178_ske_dnn_0_bird_00_bird-1033-sketch-20.png,bird-1033-sketch-20.png,0.0,-3.099536,0.91702986,-2.840141
alexnet_w1_mlp_simclrhn_probe2,1,179,NaN,bird,bird,0,0179_ske_dnn_0_bird_00_bird-1081-sketch-18.png,bird-1081-sketch-18.png,1.0,0.16104783,-0.6164857,0.54979926
alexnet_w1_mlp_simclrhn_probe2,1,180,NaN,bird,bird,0,0180_ske_dnn_0_bird_00_bird-1096-sketch-31.png,bird-1096-sketch-31.png,1.0,-1.1512574,-1.5123446,0.25532722
alexnet_w1_mlp_simclrhn_probe2,1,181,NaN,cat,bird,0,0181_ske_dnn_0_bird_00_bird-1148-sketch-32.png,bird-1148-sketch-32.png,0.0,-3.6254,-2.680908,-0.66785675
alexnet_w1_mlp_simclrhn_probe2,1,182,NaN,bird,bird,0,0182_ske_dnn_0_bird_00_bird-1201-sketch-34.png,bird-1201-sketch-34.png,1.0,2.2863204,-3.3178585,3.962753
alexnet_w1_mlp_simclrhn_probe2,1,183,NaN,bird,bird,0,0183_ske_dnn_0_bird_00_bird-1342-sketch-24.png,bird-1342-sketch-24.png,1.0,2.2832367,1.0179522,0.8946913
alexnet_w1_mlp_simclrhn_probe2,1,184,NaN,knife,bird,0,0184_ske_dnn_0_bird_00_bird-1510-sketch-39.png,bird-1510-sketch-39.png,0.0,-0.85057014,-0.8005434,-0.03537423
alexnet_w1_mlp_simclrhn_probe2,1,185,NaN,clock,bird,0,0185_ske_dnn_0_bird_00_bird-1562-sketch-40.png,bird-1562-sketch-40.png,0.0,-7.3422704,0.720596,-5.7013073
alexnet_w1_mlp_simclrhn_probe2,1,186,NaN,cat,bird,0,0186_ske_dnn_0_bird_00_bird-1565-sketch-43.png,bird-1565-sketch-43.png,0.0,-2.1611838,-2.1077871,-0.03775717
alexnet_w1_mlp_simclrhn_probe2,1,187,NaN,bicycle,bird,0,0187_ske_dnn_0_bird_00_bird-1702-sketch-29.png,bird-1702-sketch-29.png,0.0,-0.7867492,1.2248012,-1.4223809
alexnet_w1_mlp_simclrhn_probe2,1,188,NaN,bird,bird,0,0188_ske_dnn_0_bird_00_bird-1721-sketch-46.png,bird-1721-sketch-46.png,1.0,1.2297668,0.86222565,0.25989088
alexnet_w1_mlp_simclrhn_probe2,1,189,NaN,bird,bird,0,0189_ske_dnn_0_bird_00_bird-1740-sketch-17.png,bird-1740-sketch-17.png,1.0,-0.5445443,-0.641763,0.068744
alexnet_w1_mlp_simclrhn_probe2,1,190,NaN,bicycle,bird,0,0190_ske_dnn_0_bird_00_bird-1749-sketch-25.png,bird-1749-sketch-25.png,0.0,-0.26683658,0.43692386,-0.49763379
alexnet_w1_mlp_simclrhn_probe2,1,191,NaN,clock,bird,0,0191_ske_dnn_0_bird_00_bird-1756-sketch-31.png,bird-1756-sketch-31.png,0.0,-2.3435142,-0.13955235,-1.5584364
alexnet_w1_mlp_simclrhn_probe2,1,192,NaN,bird,bird,0,0192_ske_dnn_0_bird_00_bird-1860-sketch-33.png,bird-1860-sketch-33.png,1.0,2.0389535,-1.1324008,2.2424862
alexnet_w1_mlp_simclrhn_probe2,1,193,NaN,bird,bird,0,0193_ske_dnn_0_bird_00_bird-1937-sketch-10.png,bird-1937-sketch-10.png,1.0,3.908326,-3.6619213,5.352973
alexnet_w1_mlp_simclrhn_probe2,1,194,NaN,cat,bird,0,0194_ske_dnn_0_bird_00_bird-1948-sketch-20.png,bird-1948-sketch-20.png,0.0,-1.2088594,-0.9482654,-0.18426783
alexnet_w1_mlp_simclrhn_probe2,1,195,NaN,bird,bird,0,0195_ske_dnn_0_bird_00_bird-2010-sketch-30.png,bird-2010-sketch-30.png,1.0,-2.259097,-2.9150276,0.46381292
alexnet_w1_mlp_simclrhn_probe2,1,196,NaN,bird,bird,0,0196_ske_dnn_0_bird_00_bird-2169-sketch-36.png,bird-2169-sketch-36.png,1.0,0.0032181034,-1.2300676,0.87206465
alexnet_w1_mlp_simclrhn_probe2,1,197,NaN,cat,bird,0,0197_ske_dnn_0_bird_00_bird-2262-sketch-28.png,bird-2262-sketch-28.png,0.0,-1.2384111,0.26457164,-1.0627693
alexnet_w1_mlp_simclrhn_probe2,1,198,NaN,airplane,bird,0,0198_ske_dnn_0_bird_00_bird-2312-sketch-27.png,bird-2312-sketch-27.png,0.0,-1.6770412,2.0957396,-2.667759
alexnet_w1_mlp_simclrhn_probe2,1,199,NaN,knife,bird,0,0199_ske_dnn_0_bird_00_bird-2313-sketch-28.png,bird-2313-sketch-28.png,0.0,-3.3579872,-1.1895949,-1.5332848
alexnet_w1_mlp_simclrhn_probe2,1,200,NaN,airplane,bird,0,0200_ske_dnn_0_bird_00_bird-2372-sketch-36.png,bird-2372-sketch-36.png,0.0,-1.0062176,0.14179532,-0.8117677
alexnet_w1_mlp_simclrhn_probe2,1,201,NaN,knife,boat,0,0201_ske_dnn_0_boat_00_boat-0001-sketch-0.png,boat-0001-sketch-0.png,0.0,-2.485413,-1.4055053,-0.7636101
alexnet_w1_mlp_simclrhn_probe2,1,202,NaN,boat,boat,0,0202_ske_dnn_0_boat_00_boat-0002-sketch-1.png,boat-0002-sketch-1.png,1.0,3.3006413,-0.2882576,2.5377347
alexnet_w1_mlp_simclrhn_probe2,1,203,NaN,knife,boat,0,0203_ske_dnn_0_boat_00_boat-0010-sketch-17.png,boat-0010-sketch-17.png,0.0,-1.8845885,0.688771,-1.8196399
alexnet_w1_mlp_simclrhn_probe2,1,204,NaN,airplane,boat,0,0204_ske_dnn_0_boat_00_boat-0016-sketch-22.png,boat-0016-sketch-22.png,0.0,-1.2927845,1.8274381,-2.2063305
alexnet_w1_mlp_simclrhn_probe2,1,205,NaN,clock,boat,0,0205_ske_dnn_0_boat_00_boat-0029-sketch-34.png,boat-0029-sketch-34.png,0.0,-5.9520154,1.7436713,-5.4416723
alexnet_w1_mlp_simclrhn_probe2,1,206,NaN,knife,boat,0,0206_ske_dnn_0_boat_00_boat-0034-sketch-39.png,boat-0034-sketch-39.png,0.0,-1.7613655,1.9732323,-2.6407595
alexnet_w1_mlp_simclrhn_probe2,1,207,NaN,knife,boat,0,0207_ske_dnn_0_boat_00_boat-0036-sketch-40.png,boat-0036-sketch-40.png,0.0,-5.6177278,2.3298314,-5.6197734
alexnet_w1_mlp_simclrhn_probe2,1,208,NaN,knife,boat,0,0208_ske_dnn_0_boat_00_boat-0051-sketch-9.png,boat-0051-sketch-9.png,0.0,-3.7068763,1.2704285,-3.5194862
alexnet_w1_mlp_simclrhn_probe2,1,209,NaN,airplane,boat,0,0209_ske_dnn_0_boat_00_boat-0052-sketch-0.png,boat-0052-sketch-0.png,0.0,1.1256258,3.3367248,-1.5634831
alexnet_w1_mlp_simclrhn_probe2,1,210,NaN,boat,boat,0,0210_ske_dnn_0_boat_00_boat-0059-sketch-15.png,boat-0059-sketch-15.png,1.0,1.1237996,0.44198275,0.4821173
alexnet_w1_mlp_simclrhn_probe2,1,211,NaN,oven,boat,0,0211_ske_dnn_0_boat_00_boat-0064-sketch-2.png,boat-0064-sketch-2.png,0.0,-3.2808404,-0.2728008,-2.127005
alexnet_w1_mlp_simclrhn_probe2,1,212,NaN,airplane,boat,0,0212_ske_dnn_0_boat_00_boat-0065-sketch-20.png,boat-0065-sketch-20.png,0.0,0.22530556,2.7137442,-1.7595918
alexnet_w1_mlp_simclrhn_probe2,1,213,NaN,airplane,boat,0,0213_ske_dnn_0_boat_00_boat-0067-sketch-22.png,boat-0067-sketch-22.png,0.0,1.427538,2.7204556,-0.9142308
alexnet_w1_mlp_simclrhn_probe2,1,214,NaN,clock,boat,0,0214_ske_dnn_0_boat_00_boat-0068-sketch-23.png,boat-0068-sketch-23.png,0.0,-4.791329,3.1295166,-5.6008835
alexnet_w1_mlp_simclrhn_probe2,1,215,NaN,chair,boat,0,0215_ske_dnn_0_boat_00_boat-0070-sketch-25.png,boat-0070-sketch-25.png,0.0,-1.6512058,0.35089847,-1.4157015
alexnet_w1_mlp_simclrhn_probe2,1,216,NaN,bicycle,boat,0,0216_ske_dnn_0_boat_00_boat-0074-sketch-29.png,boat-0074-sketch-29.png,0.0,-1.5413988,0.35716367,-1.3424864
alexnet_w1_mlp_simclrhn_probe2,1,217,NaN,airplane,boat,0,0217_ske_dnn_0_boat_00_boat-0079-sketch-33.png,boat-0079-sketch-33.png,0.0,-1.8832452,0.053367645,-1.3693922
alexnet_w1_mlp_simclrhn_probe2,1,218,NaN,boat,boat,0,0218_ske_dnn_0_boat_00_boat-0080-sketch-34.png,boat-0080-sketch-34.png,1.0,0.31776202,-0.2626625,0.41042215
alexnet_w1_mlp_simclrhn_probe2,1,219,NaN,chair,boat,0,0219_ske_dnn_0_boat_00_boat-0085-sketch-39.png,boat-0085-sketch-39.png,0.0,-0.60671663,0.2392022,-0.59815496
alexnet_w1_mlp_simclrhn_probe2,1,220,NaN,knife,boat,0,0220_ske_dnn_0_boat_00_boat-0088-sketch-41.png,boat-0088-sketch-41.png,0.0,-0.7669343,-0.39061093,-0.2661008
alexnet_w1_mlp_simclrhn_probe2,1,221,NaN,boat,boat,0,0221_ske_dnn_0_boat_00_boat-0094-sketch-47.png,boat-0094-sketch-47.png,1.0,4.4467688,2.2674432,1.5410159
alexnet_w1_mlp_simclrhn_probe2,1,222,NaN,chair,boat,0,0222_ske_dnn_0_boat_00_boat-0099-sketch-6.png,boat-0099-sketch-6.png,0.0,-0.71897876,-0.0691331,-0.45951027
alexnet_w1_mlp_simclrhn_probe2,1,223,NaN,airplane,boat,0,0223_ske_dnn_0_boat_00_boat-0107-sketch-12.png,boat-0107-sketch-12.png,0.0,-0.7707573,1.7883832,-1.8095858
alexnet_w1_mlp_simclrhn_probe2,1,224,NaN,airplane,boat,0,0224_ske_dnn_0_boat_00_boat-0108-sketch-13.png,boat-0108-sketch-13.png,0.0,0.9266902,2.0765095,-0.813045
alexnet_w1_mlp_simclrhn_probe2,1,225,NaN,knife,boat,0,0225_ske_dnn_0_boat_00_boat-0110-sketch-15.png,boat-0110-sketch-15.png,0.0,-4.0966516,-0.5191047,-2.5297077
alexnet_w1_mlp_simclrhn_probe2,1,226,NaN,knife,boat,0,0226_ske_dnn_0_boat_00_boat-0113-sketch-18.png,boat-0113-sketch-18.png,0.0,-2.5980263,-1.4192066,-0.8335514
alexnet_w1_mlp_simclrhn_probe2,1,227,NaN,knife,boat,0,0227_ske_dnn_0_boat_00_boat-0115-sketch-2.png,boat-0115-sketch-2.png,0.0,-3.1276631,-0.45349014,-1.8909258
alexnet_w1_mlp_simclrhn_probe2,1,228,NaN,bicycle,boat,0,0228_ske_dnn_0_boat_00_boat-0123-sketch-27.png,boat-0123-sketch-27.png,0.0,-1.0190042,1.0262294,-1.4461987
alexnet_w1_mlp_simclrhn_probe2,1,229,NaN,knife,boat,0,0229_ske_dnn_0_boat_00_boat-0124-sketch-28.png,boat-0124-sketch-28.png,0.0,-5.144492,-0.5822467,-3.2259946
alexnet_w1_mlp_simclrhn_probe2,1,230,NaN,clock,boat,0,0230_ske_dnn_0_boat_00_boat-0125-sketch-29.png,boat-0125-sketch-29.png,0.0,-5.7459188,1.3914841,-5.046906
alexnet_w1_mlp_simclrhn_probe2,1,231,NaN,clock,boat,0,0231_ske_dnn_0_boat_00_boat-0126-sketch-3.png,boat-0126-sketch-3.png,0.0,-5.7221346,1.3478975,-4.9992676
alexnet_w1_mlp_simclrhn_probe2,1,232,NaN,knife,boat,0,0232_ske_dnn_0_boat_00_boat-0128-sketch-31.png,boat-0128-sketch-31.png,0.0,-4.757743,-0.23231179,-3.199963
alexnet_w1_mlp_simclrhn_probe2,1,233,NaN,airplane,boat,0,0233_ske_dnn_0_boat_00_boat-0130-sketch-33.png,boat-0130-sketch-33.png,0.0,-3.6578965,-0.9725736,-1.8988101
alexnet_w1_mlp_simclrhn_probe2,1,234,NaN,bicycle,boat,0,0234_ske_dnn_0_boat_00_boat-0132-sketch-35.png,boat-0132-sketch-35.png,0.0,-3.1117337,-0.3090492,-1.9817973
alexnet_w1_mlp_simclrhn_probe2,1,235,NaN,bicycle,boat,0,0235_ske_dnn_0_boat_00_boat-0146-sketch-48.png,boat-0146-sketch-48.png,0.0,-2.7543159,-0.16284218,-1.8324486
alexnet_w1_mlp_simclrhn_probe2,1,236,NaN,airplane,boat,0,0236_ske_dnn_0_boat_00_boat-0152-sketch-8.png,boat-0152-sketch-8.png,0.0,-1.6886753,1.9781955,-2.5928693
alexnet_w1_mlp_simclrhn_probe2,1,237,NaN,clock,boat,0,0237_ske_dnn_0_boat_00_boat-0165-sketch-19.png,boat-0165-sketch-19.png,0.0,-4.0134478,-0.3533649,-2.5880694
alexnet_w1_mlp_simclrhn_probe2,1,238,NaN,oven,boat,0,0238_ske_dnn_0_boat_00_boat-0166-sketch-2.png,boat-0166-sketch-2.png,0.0,-1.9440981,-1.6688008,-0.19466458
alexnet_w1_mlp_simclrhn_probe2,1,239,NaN,airplane,boat,0,0239_ske_dnn_0_boat_00_boat-0173-sketch-26.png,boat-0173-sketch-26.png,0.0,-1.137603,2.8110857,-2.7921445
alexnet_w1_mlp_simclrhn_probe2,1,240,NaN,car,boat,0,0240_ske_dnn_0_boat_00_boat-0178-sketch-30.png,boat-0178-sketch-30.png,0.0,-7.085757,-0.12550074,-4.921644
alexnet_w1_mlp_simclrhn_probe2,1,241,NaN,keyboard,boat,0,0241_ske_dnn_0_boat_00_boat-0180-sketch-32.png,boat-0180-sketch-32.png,0.0,-2.640916,0.1567017,-1.9782146
alexnet_w1_mlp_simclrhn_probe2,1,242,NaN,knife,boat,0,0242_ske_dnn_0_boat_00_boat-0194-sketch-45.png,boat-0194-sketch-45.png,0.0,-1.7322266,0.34503877,-1.4688483
alexnet_w1_mlp_simclrhn_probe2,1,243,NaN,oven,boat,0,0243_ske_dnn_0_boat_00_boat-0197-sketch-48.png,boat-0197-sketch-48.png,0.0,-3.1891294,-2.4456844,-0.52569497
alexnet_w1_mlp_simclrhn_probe2,1,244,NaN,boat,boat,0,0244_ske_dnn_0_boat_00_boat-0212-sketch-15.png,boat-0212-sketch-15.png,1.0,1.1687629,-1.7016487,2.0296876
alexnet_w1_mlp_simclrhn_probe2,1,245,NaN,chair,boat,0,0245_ske_dnn_0_boat_00_boat-0228-sketch-3.png,boat-0228-sketch-3.png,0.0,-3.9002376,2.0419436,-4.2017565
alexnet_w1_mlp_simclrhn_probe2,1,246,NaN,bicycle,boat,0,0246_ske_dnn_0_boat_00_boat-0233-sketch-34.png,boat-0233-sketch-34.png,0.0,-1.4166274,3.3658729,-3.3817384
alexnet_w1_mlp_simclrhn_probe2,1,247,NaN,chair,boat,0,0247_ske_dnn_0_boat_00_boat-0234-sketch-35.png,boat-0234-sketch-35.png,0.0,-0.20467904,0.68351007,-0.62804455
alexnet_w1_mlp_simclrhn_probe2,1,248,NaN,clock,boat,0,0248_ske_dnn_0_boat_00_boat-0237-sketch-38.png,boat-0237-sketch-38.png,0.0,-2.812841,0.70775336,-2.4894361
alexnet_w1_mlp_simclrhn_probe2,1,249,NaN,boat,boat,0,0249_ske_dnn_0_boat_00_boat-0239-sketch-4.png,boat-0239-sketch-4.png,1.0,3.4304345,-0.016062975,2.4370418
alexnet_w1_mlp_simclrhn_probe2,1,250,NaN,boat,boat,0,0250_ske_dnn_0_boat_00_boat-0253-sketch-7.png,boat-0253-sketch-7.png,1.0,1.3764201,-0.151649,1.0805081
alexnet_w1_mlp_simclrhn_probe2,1,251,NaN,bottle,bottle,0,0251_ske_dnn_0_bottle_00_bottle-0002-sketch-1.png,bottle-0002-sketch-1.png,1.0,2.1399477,1.8953997,0.17292152
alexnet_w1_mlp_simclrhn_probe2,1,252,NaN,clock,bottle,0,0252_ske_dnn_0_bottle_00_bottle-0003-sketch-10.png,bottle-0003-sketch-10.png,0.0,-0.22487314,3.989048,-2.9796922
alexnet_w1_mlp_simclrhn_probe2,1,253,NaN,clock,bottle,0,0253_ske_dnn_0_bottle_00_bottle-0019-sketch-25.png,bottle-0019-sketch-25.png,0.0,-1.1759348,2.4353116,-2.553537
alexnet_w1_mlp_simclrhn_probe2,1,254,NaN,keyboard,bottle,0,0254_ske_dnn_0_bottle_00_bottle-0030-sketch-35.png,bottle-0030-sketch-35.png,0.0,5.093196,6.3506603,-0.88916165
alexnet_w1_mlp_simclrhn_probe2,1,255,NaN,bottle,bottle,0,0255_ske_dnn_0_bottle_00_bottle-0031-sketch-36.png,bottle-0031-sketch-36.png,1.0,2.07737,1.9190784,0.11192905
alexnet_w1_mlp_simclrhn_probe2,1,256,NaN,clock,bottle,0,0256_ske_dnn_0_bottle_00_bottle-0038-sketch-42.png,bottle-0038-sketch-42.png,0.0,-0.5939394,3.315734,-2.7645564
alexnet_w1_mlp_simclrhn_probe2,1,257,NaN,bottle,bottle,0,0257_ske_dnn_0_bottle_00_bottle-0039-sketch-43.png,bottle-0039-sketch-43.png,1.0,6.0761337,-1.4271616,5.305631
alexnet_w1_mlp_simclrhn_probe2,1,258,NaN,clock,bottle,0,0258_ske_dnn_0_bottle_00_bottle-0041-sketch-45.png,bottle-0041-sketch-45.png,0.0,-0.5832345,3.3551643,-2.7848685
alexnet_w1_mlp_simclrhn_probe2,1,259,NaN,clock,bottle,0,0259_ske_dnn_0_bottle_00_bottle-0045-sketch-49.png,bottle-0045-sketch-49.png,0.0,0.7755998,2.5603917,-1.2620385
alexnet_w1_mlp_simclrhn_probe2,1,260,NaN,bottle,bottle,0,0260_ske_dnn_0_bottle_00_bottle-0050-sketch-9.png,bottle-0050-sketch-9.png,1.0,1.0768718,0.115759075,0.6796093
alexnet_w1_mlp_simclrhn_probe2,1,261,NaN,clock,bottle,0,0261_ske_dnn_0_bottle_00_bottle-0054-sketch-11.png,bottle-0054-sketch-11.png,0.0,1.8425025,2.8035364,-0.6795536
alexnet_w1_mlp_simclrhn_probe2,1,262,NaN,bottle,bottle,0,0262_ske_dnn_0_bottle_00_bottle-0066-sketch-22.png,bottle-0066-sketch-22.png,1.0,9.029318,2.8259315,4.3864565
alexnet_w1_mlp_simclrhn_probe2,1,263,NaN,clock,bottle,0,0263_ske_dnn_0_bottle_00_bottle-0071-sketch-27.png,bottle-0071-sketch-27.png,0.0,-1.0792134,1.3881168,-1.744666
alexnet_w1_mlp_simclrhn_probe2,1,264,NaN,clock,bottle,0,0264_ske_dnn_0_bottle_00_bottle-0082-sketch-37.png,bottle-0082-sketch-37.png,0.0,1.4427283,2.407556,-0.68223625
alexnet_w1_mlp_simclrhn_probe2,1,265,NaN,bottle,bottle,0,0265_ske_dnn_0_bottle_00_bottle-0086-sketch-40.png,bottle-0086-sketch-40.png,1.0,3.5663006,2.1565988,0.9968097
alexnet_w1_mlp_simclrhn_probe2,1,266,NaN,clock,bottle,0,0266_ske_dnn_0_bottle_00_bottle-0090-sketch-44.png,bottle-0090-sketch-44.png,0.0,2.4826055,2.8143113,-0.23455143
alexnet_w1_mlp_simclrhn_probe2,1,267,NaN,clock,bottle,0,0267_ske_dnn_0_bottle_00_bottle-0097-sketch-50.png,bottle-0097-sketch-50.png,0.0,-1.7408534,0.7551258,-1.7649239
alexnet_w1_mlp_simclrhn_probe2,1,268,NaN,bicycle,bottle,0,0268_ske_dnn_0_bottle_00_bottle-0107-sketch-13.png,bottle-0107-sketch-13.png,0.0,-3.101356,1.1144369,-2.9810157
alexnet_w1_mlp_simclrhn_probe2,1,269,NaN,bicycle,bottle,0,0269_ske_dnn_0_bottle_00_bottle-0114-sketch-2.png,bottle-0114-sketch-2.png,0.0,-3.5570068,0.3136518,-2.736969
alexnet_w1_mlp_simclrhn_probe2,1,270,NaN,knife,bottle,0,0270_ske_dnn_0_bottle_00_bottle-0126-sketch-30.png,bottle-0126-sketch-30.png,0.0,-1.1710945,0.66384107,-1.2974955
alexnet_w1_mlp_simclrhn_probe2,1,271,NaN,bottle,bottle,0,0271_ske_dnn_0_bottle_00_bottle-0130-sketch-34.png,bottle-0130-sketch-34.png,1.0,4.1763854,3.215759,0.67926544
alexnet_w1_mlp_simclrhn_probe2,1,272,NaN,bird,bottle,0,0272_ske_dnn_0_bottle_00_bottle-0131-sketch-35.png,bottle-0131-sketch-35.png,0.0,-2.7537932,-1.5350449,-0.86178523
alexnet_w1_mlp_simclrhn_probe2,1,273,NaN,clock,bottle,0,0273_ske_dnn_0_bottle_00_bottle-0133-sketch-37.png,bottle-0133-sketch-37.png,0.0,-2.5398762,1.6623636,-2.9714324
alexnet_w1_mlp_simclrhn_probe2,1,274,NaN,bottle,bottle,0,0274_ske_dnn_0_bottle_00_bottle-0135-sketch-39.png,bottle-0135-sketch-39.png,1.0,0.6881279,-0.74279004,1.0118119
alexnet_w1_mlp_simclrhn_probe2,1,275,NaN,keyboard,bottle,0,0275_ske_dnn_0_bottle_00_bottle-0143-sketch-46.png,bottle-0143-sketch-46.png,0.0,-0.39274907,4.229369,-3.268331
alexnet_w1_mlp_simclrhn_probe2,1,276,NaN,bottle,bottle,0,0276_ske_dnn_0_bottle_00_bottle-0145-sketch-48.png,bottle-0145-sketch-48.png,1.0,0.34975383,-0.24344611,0.41945574
alexnet_w1_mlp_simclrhn_probe2,1,277,NaN,clock,bottle,0,0277_ske_dnn_0_bottle_00_bottle-0150-sketch-7.png,bottle-0150-sketch-7.png,0.0,2.22553,4.539767,-1.6364126
alexnet_w1_mlp_simclrhn_probe2,1,278,NaN,bottle,bottle,0,0278_ske_dnn_0_bottle_00_bottle-0162-sketch-17.png,bottle-0162-sketch-17.png,1.0,1.7180105,0.13657439,1.1182443
alexnet_w1_mlp_simclrhn_probe2,1,279,NaN,clock,bottle,0,0279_ske_dnn_0_bottle_00_bottle-0165-sketch-2.png,bottle-0165-sketch-2.png,0.0,1.4851567,1.679646,-0.13752475
alexnet_w1_mlp_simclrhn_probe2,1,280,NaN,bottle,bottle,0,0280_ske_dnn_0_bottle_00_bottle-0184-sketch-37.png,bottle-0184-sketch-37.png,1.0,1.4099134,0.45724916,0.67363536
alexnet_w1_mlp_simclrhn_probe2,1,281,NaN,clock,bottle,0,0281_ske_dnn_0_bottle_00_bottle-0185-sketch-38.png,bottle-0185-sketch-38.png,0.0,1.8395109,2.6867507,-0.59908897
alexnet_w1_mlp_simclrhn_probe2,1,282,NaN,knife,bottle,0,0282_ske_dnn_0_bottle_00_bottle-0189-sketch-41.png,bottle-0189-sketch-41.png,0.0,-0.71036273,-0.55959195,-0.10661104
alexnet_w1_mlp_simclrhn_probe2,1,283,NaN,bottle,bottle,0,0283_ske_dnn_0_bottle_00_bottle-0202-sketch-8.png,bottle-0202-sketch-8.png,1.0,0.23843125,-0.021182338,0.18357453
alexnet_w1_mlp_simclrhn_probe2,1,284,NaN,clock,bottle,0,0284_ske_dnn_0_bottle_00_bottle-0207-sketch-11.png,bottle-0207-sketch-11.png,0.0,3.7212498,5.4048743,-1.1905023
alexnet_w1_mlp_simclrhn_probe2,1,285,NaN,clock,bottle,0,0285_ske_dnn_0_bottle_00_bottle-0215-sketch-19.png,bottle-0215-sketch-19.png,0.0,-1.9257791,2.412729,-3.0677886
alexnet_w1_mlp_simclrhn_probe2,1,286,NaN,clock,bottle,0,0286_ske_dnn_0_bottle_00_bottle-0217-sketch-20.png,bottle-0217-sketch-20.png,0.0,-0.56826174,4.623182,-3.6709049
alexnet_w1_mlp_simclrhn_probe2,1,287,NaN,knife,bottle,0,0287_ske_dnn_0_bottle_00_bottle-0237-sketch-39.png,bottle-0237-sketch-39.png,0.0,-0.85522014,1.8991414,-1.9476278
alexnet_w1_mlp_simclrhn_probe2,1,288,NaN,clock,bottle,0,0288_ske_dnn_0_bottle_00_bottle-0243-sketch-44.png,bottle-0243-sketch-44.png,0.0,-0.8074311,0.49411544,-0.92033243
alexnet_w1_mlp_simclrhn_probe2,1,289,NaN,bottle,bottle,0,0289_ske_dnn_0_bottle_00_bottle-0245-sketch-46.png,bottle-0245-sketch-46.png,1.0,0.4253502,-0.115930244,0.3827431
alexnet_w1_mlp_simclrhn_probe2,1,290,NaN,bottle,bottle,0,0290_ske_dnn_0_bottle_00_bottle-0268-sketch-20.png,bottle-0268-sketch-20.png,1.0,1.9785683,1.6080527,0.2619941
alexnet_w1_mlp_simclrhn_probe2,1,291,NaN,clock,bottle,0,0291_ske_dnn_0_bottle_00_bottle-0280-sketch-31.png,bottle-0280-sketch-31.png,0.0,2.341448,4.120382,-1.2578962
alexnet_w1_mlp_simclrhn_probe2,1,292,NaN,bottle,bottle,0,0292_ske_dnn_0_bottle_00_bottle-0292-sketch-42.png,bottle-0292-sketch-42.png,1.0,3.5518742,3.4896567,0.043994397
alexnet_w1_mlp_simclrhn_probe2,1,293,NaN,bottle,bottle,0,0293_ske_dnn_0_bottle_00_bottle-0294-sketch-44.png,bottle-0294-sketch-44.png,1.0,0.65154076,-1.3617978,1.4236454
alexnet_w1_mlp_simclrhn_probe2,1,294,NaN,clock,bottle,0,0294_ske_dnn_0_bottle_00_bottle-0296-sketch-46.png,bottle-0296-sketch-46.png,0.0,0.44278726,2.6357558,-1.550663
alexnet_w1_mlp_simclrhn_probe2,1,295,NaN,bottle,bottle,0,0295_ske_dnn_0_bottle_00_bottle-0301-sketch-50.png,bottle-0301-sketch-50.png,1.0,1.9217352,0.81014615,0.7860121
alexnet_w1_mlp_simclrhn_probe2,1,296,NaN,bottle,bottle,0,0296_ske_dnn_0_bottle_00_bottle-0305-sketch-9.png,bottle-0305-sketch-9.png,1.0,0.8476156,-0.21394938,0.7506398
alexnet_w1_mlp_simclrhn_probe2,1,297,NaN,bottle,bottle,0,0297_ske_dnn_0_bottle_00_bottle-0313-sketch-15.png,bottle-0313-sketch-15.png,1.0,1.18064,-0.48657015,1.1788956
alexnet_w1_mlp_simclrhn_probe2,1,298,NaN,bottle,bottle,0,0298_ske_dnn_0_bottle_00_bottle-0321-sketch-22.png,bottle-0321-sketch-22.png,1.0,1.9939911,-0.13205492,1.5033417
alexnet_w1_mlp_simclrhn_probe2,1,299,NaN,bottle,bottle,0,0299_ske_dnn_0_bottle_00_bottle-0330-sketch-30.png,bottle-0330-sketch-30.png,1.0,2.9562185,-0.8282855,2.6760485
alexnet_w1_mlp_simclrhn_probe2,1,300,NaN,bottle,bottle,0,0300_ske_dnn_0_bottle_00_bottle-0338-sketch-38.png,bottle-0338-sketch-38.png,1.0,1.7151874,-0.8748629,1.8314421
alexnet_w1_mlp_simclrhn_probe2,1,301,NaN,truck,car,0,0301_ske_dnn_0_car_00_car-0002-sketch-1.png,car-0002-sketch-1.png,0.0,1.6855704,3.0372639,-0.95579165
alexnet_w1_mlp_simclrhn_probe2,1,302,NaN,truck,car,0,0302_ske_dnn_0_car_00_car-0004-sketch-11.png,car-0004-sketch-11.png,0.0,0.34686676,0.54059374,-0.13698567
alexnet_w1_mlp_simclrhn_probe2,1,303,NaN,truck,car,0,0303_ske_dnn_0_car_00_car-0005-sketch-12.png,car-0005-sketch-12.png,0.0,1.7496386,3.1512485,-0.99108785
alexnet_w1_mlp_simclrhn_probe2,1,304,NaN,bicycle,car,0,0304_ske_dnn_0_car_00_car-0009-sketch-16.png,car-0009-sketch-16.png,0.0,1.1515561,1.5308183,-0.26817888
alexnet_w1_mlp_simclrhn_probe2,1,305,NaN,car,car,0,0305_ske_dnn_0_car_00_car-0013-sketch-2.png,car-0013-sketch-2.png,1.0,1.0742971,0.7283846,0.24459705
alexnet_w1_mlp_simclrhn_probe2,1,306,NaN,bicycle,car,0,0306_ske_dnn_0_car_00_car-0014-sketch-20.png,car-0014-sketch-20.png,0.0,-0.22327942,0.6002157,-0.582299
alexnet_w1_mlp_simclrhn_probe2,1,307,NaN,oven,car,0,0307_ske_dnn_0_car_00_car-0017-sketch-23.png,car-0017-sketch-23.png,0.0,-3.1830587,-0.4460219,-1.9353772
alexnet_w1_mlp_simclrhn_probe2,1,308,NaN,oven,car,0,0308_ske_dnn_0_car_00_car-0018-sketch-24.png,car-0018-sketch-24.png,0.0,0.9784501,1.3043327,-0.2304338
alexnet_w1_mlp_simclrhn_probe2,1,309,NaN,clock,car,0,0309_ske_dnn_0_car_00_car-0021-sketch-27.png,car-0021-sketch-27.png,0.0,-2.0304039,1.205142,-2.2878764
alexnet_w1_mlp_simclrhn_probe2,1,310,NaN,clock,car,0,0310_ske_dnn_0_car_00_car-0022-sketch-28.png,car-0022-sketch-28.png,0.0,-0.6546125,0.59336704,-0.8824548
alexnet_w1_mlp_simclrhn_probe2,1,311,NaN,car,car,0,0311_ske_dnn_0_car_00_car-0024-sketch-3.png,car-0024-sketch-3.png,1.0,11.076431,6.4057155,3.3026948
alexnet_w1_mlp_simclrhn_probe2,1,312,NaN,clock,car,0,0312_ske_dnn_0_car_00_car-0025-sketch-30.png,car-0025-sketch-30.png,0.0,-5.75345,2.10566,-5.55723
alexnet_w1_mlp_simclrhn_probe2,1,313,NaN,oven,car,0,0313_ske_dnn_0_car_00_car-0029-sketch-34.png,car-0029-sketch-34.png,0.0,-2.725684,-0.2675816,-1.7381408
alexnet_w1_mlp_simclrhn_probe2,1,314,NaN,car,car,0,0314_ske_dnn_0_car_00_car-0030-sketch-35.png,car-0030-sketch-35.png,1.0,0.9520924,0.91908777,0.023337806
alexnet_w1_mlp_simclrhn_probe2,1,315,NaN,knife,car,0,0315_ske_dnn_0_car_00_car-0032-sketch-37.png,car-0032-sketch-37.png,0.0,-1.1737223,0.81344885,-1.4051422
alexnet_w1_mlp_simclrhn_probe2,1,316,NaN,clock,car,0,0316_ske_dnn_0_car_00_car-0034-sketch-39.png,car-0034-sketch-39.png,0.0,-0.8349444,0.6701643,-1.0642726
alexnet_w1_mlp_simclrhn_probe2,1,317,NaN,truck,car,0,0317_ske_dnn_0_car_00_car-0040-sketch-44.png,car-0040-sketch-44.png,0.0,0.51863045,0.69426465,-0.12419214
alexnet_w1_mlp_simclrhn_probe2,1,318,NaN,car,car,0,0318_ske_dnn_0_car_00_car-0043-sketch-47.png,car-0043-sketch-47.png,1.0,11.076431,6.4057155,3.3026948
alexnet_w1_mlp_simclrhn_probe2,1,319,NaN,car,car,0,0319_ske_dnn_0_car_00_car-0044-sketch-48.png,car-0044-sketch-48.png,1.0,6.919599,2.941852,2.812692
alexnet_w1_mlp_simclrhn_probe2,1,320,NaN,bicycle,car,0,0320_ske_dnn_0_car_00_car-0045-sketch-49.png,car-0045-sketch-49.png,0.0,0.9952044,1.3098311,-0.22247471
alexnet_w1_mlp_simclrhn_probe2,1,321,NaN,truck,car,0,0321_ske_dnn_0_car_00_car-0047-sketch-50.png,car-0047-sketch-50.png,0.0,0.57276654,0.714353,-0.10011677
alexnet_w1_mlp_simclrhn_probe2,1,322,NaN,clock,car,0,0322_ske_dnn_0_car_00_car-0050-sketch-8.png,car-0050-sketch-8.png,0.0,-4.9154487,1.8157648,-4.759687
alexnet_w1_mlp_simclrhn_probe2,1,323,NaN,clock,car,0,0323_ske_dnn_0_car_00_car-0052-sketch-0.png,car-0052-sketch-0.png,0.0,-0.40624025,0.5012798,-0.6417136
alexnet_w1_mlp_simclrhn_probe2,1,324,NaN,car,car,0,0324_ske_dnn_0_car_00_car-0055-sketch-11.png,car-0055-sketch-11.png,1.0,3.5662715,1.6893346,1.3271948
alexnet_w1_mlp_simclrhn_probe2,1,325,NaN,clock,car,0,0325_ske_dnn_0_car_00_car-0064-sketch-2.png,car-0064-sketch-2.png,0.0,0.27080962,1.517991,-0.88189036
alexnet_w1_mlp_simclrhn_probe2,1,326,NaN,truck,car,0,0326_ske_dnn_0_car_00_car-0069-sketch-24.png,car-0069-sketch-24.png,0.0,2.3026445,2.459037,-0.11058625
alexnet_w1_mlp_simclrhn_probe2,1,327,NaN,car,car,0,0327_ske_dnn_0_car_00_car-0076-sketch-30.png,car-0076-sketch-30.png,1.0,2.1495802,1.35203,0.56395316
alexnet_w1_mlp_simclrhn_probe2,1,328,NaN,airplane,car,0,0328_ske_dnn_0_car_00_car-0079-sketch-33.png,car-0079-sketch-33.png,0.0,-1.9771627,1.6533685,-2.5671732
alexnet_w1_mlp_simclrhn_probe2,1,329,NaN,clock,car,0,0329_ske_dnn_0_car_00_car-0083-sketch-37.png,car-0083-sketch-37.png,0.0,0.15992582,1.41471,-0.88726646
alexnet_w1_mlp_simclrhn_probe2,1,330,NaN,bicycle,car,0,0330_ske_dnn_0_car_00_car-0092-sketch-45.png,car-0092-sketch-45.png,0.0,-1.736249,3.2530003,-3.527932
alexnet_w1_mlp_simclrhn_probe2,1,331,NaN,car,car,0,0331_ske_dnn_0_car_00_car-0096-sketch-49.png,car-0096-sketch-49.png,1.0,4.5946927,0.6729,2.7731264
alexnet_w1_mlp_simclrhn_probe2,1,332,NaN,clock,car,0,0332_ske_dnn_0_car_00_car-0098-sketch-50.png,car-0098-sketch-50.png,0.0,0.16891265,1.4066688,-0.8752258
alexnet_w1_mlp_simclrhn_probe2,1,333,NaN,airplane,car,0,0333_ske_dnn_0_car_00_car-0100-sketch-7.png,car-0100-sketch-7.png,0.0,1.8186125,2.180884,-0.25616458
alexnet_w1_mlp_simclrhn_probe2,1,334,NaN,car,car,0,0334_ske_dnn_0_car_00_car-0112-sketch-17.png,car-0112-sketch-17.png,1.0,6.683823,2.6697395,2.838386
alexnet_w1_mlp_simclrhn_probe2,1,335,NaN,car,car,0,0335_ske_dnn_0_car_00_car-0114-sketch-19.png,car-0114-sketch-19.png,1.0,1.921382,1.1805803,0.5238259
alexnet_w1_mlp_simclrhn_probe2,1,336,NaN,car,car,0,0336_ske_dnn_0_car_00_car-0116-sketch-20.png,car-0116-sketch-20.png,1.0,4.526298,1.6448935,2.0374606
alexnet_w1_mlp_simclrhn_probe2,1,337,NaN,clock,car,0,0337_ske_dnn_0_car_00_car-0117-sketch-21.png,car-0117-sketch-21.png,0.0,0.98450905,1.6576673,-0.47599477
alexnet_w1_mlp_simclrhn_probe2,1,338,NaN,car,car,0,0338_ske_dnn_0_car_00_car-0120-sketch-24.png,car-0120-sketch-24.png,1.0,3.5289257,1.8396288,1.1945133
alexnet_w1_mlp_simclrhn_probe2,1,339,NaN,clock,car,0,0339_ske_dnn_0_car_00_car-0122-sketch-26.png,car-0122-sketch-26.png,0.0,2.693962,4.8024178,-1.4909034
alexnet_w1_mlp_simclrhn_probe2,1,340,NaN,clock,car,0,0340_ske_dnn_0_car_00_car-0124-sketch-28.png,car-0124-sketch-28.png,0.0,-0.6851794,1.7903751,-1.7504814
alexnet_w1_mlp_simclrhn_probe2,1,341,NaN,car,car,0,0341_ske_dnn_0_car_00_car-0125-sketch-29.png,car-0125-sketch-29.png,1.0,1.7485069,0.10674961,1.1608977
alexnet_w1_mlp_simclrhn_probe2,1,342,NaN,clock,car,0,0342_ske_dnn_0_car_00_car-0129-sketch-32.png,car-0129-sketch-32.png,0.0,-0.24363656,2.4580119,-1.910354
alexnet_w1_mlp_simclrhn_probe2,1,343,NaN,car,car,0,0343_ske_dnn_0_car_00_car-0132-sketch-35.png,car-0132-sketch-35.png,1.0,5.3729167,1.1937722,2.9551015
alexnet_w1_mlp_simclrhn_probe2,1,344,NaN,airplane,car,0,0344_ske_dnn_0_car_00_car-0136-sketch-39.png,car-0136-sketch-39.png,0.0,-2.5262148,1.0825645,-2.5517924
alexnet_w1_mlp_simclrhn_probe2,1,345,NaN,car,car,0,0345_ske_dnn_0_car_00_car-0138-sketch-40.png,car-0138-sketch-40.png,1.0,5.19033,0.9208775,3.0189588
alexnet_w1_mlp_simclrhn_probe2,1,346,NaN,car,car,0,0346_ske_dnn_0_car_00_car-0139-sketch-41.png,car-0139-sketch-41.png,1.0,3.2337904,1.6087065,1.1491079
alexnet_w1_mlp_simclrhn_probe2,1,347,NaN,clock,car,0,0347_ske_dnn_0_car_00_car-0143-sketch-45.png,car-0143-sketch-45.png,0.0,0.773741,2.4511054,-1.1860757
alexnet_w1_mlp_simclrhn_probe2,1,348,NaN,bicycle,car,0,0348_ske_dnn_0_car_00_car-0145-sketch-47.png,car-0145-sketch-47.png,0.0,-1.2637662,-0.8134928,-0.31839138
alexnet_w1_mlp_simclrhn_probe2,1,349,NaN,car,car,0,0349_ske_dnn_0_car_00_car-0151-sketch-7.png,car-0151-sketch-7.png,1.0,6.29405,3.542923,1.9453408
alexnet_w1_mlp_simclrhn_probe2,1,350,NaN,clock,car,0,0350_ske_dnn_0_car_00_car-0153-sketch-9.png,car-0153-sketch-9.png,0.0,-2.586035,0.8364261,-2.4200454
alexnet_w1_mlp_simclrhn_probe2,1,351,NaN,cat,cat,0,0351_ske_dnn_0_cat_00_cat-0002-sketch-1.png,cat-0002-sketch-1.png,1.0,6.7540326,-1.075063,5.536007
alexnet_w1_mlp_simclrhn_probe2,1,352,NaN,cat,cat,0,0352_ske_dnn_0_cat_00_cat-0009-sketch-16.png,cat-0009-sketch-16.png,1.0,2.3563576,-0.7832514,2.2200387
alexnet_w1_mlp_simclrhn_probe2,1,353,NaN,bicycle,cat,0,0353_ske_dnn_0_cat_00_cat-0011-sketch-18.png,cat-0011-sketch-18.png,0.0,-1.2465972,-0.2466318,-0.70708233
alexnet_w1_mlp_simclrhn_probe2,1,354,NaN,cat,cat,0,0354_ske_dnn_0_cat_00_cat-0015-sketch-21.png,cat-0015-sketch-21.png,1.0,4.7034993,-1.721339,4.5430465
alexnet_w1_mlp_simclrhn_probe2,1,355,NaN,cat,cat,0,0355_ske_dnn_0_cat_00_cat-0016-sketch-22.png,cat-0016-sketch-22.png,1.0,4.9497495,-1.2714547,4.399056
alexnet_w1_mlp_simclrhn_probe2,1,356,NaN,cat,cat,0,0356_ske_dnn_0_cat_00_cat-0021-sketch-27.png,cat-0021-sketch-27.png,1.0,2.7526903,-3.1909428,4.202783
alexnet_w1_mlp_simclrhn_probe2,1,357,NaN,cat,cat,0,0357_ske_dnn_0_cat_00_cat-0027-sketch-32.png,cat-0027-sketch-32.png,1.0,2.5513813,-2.6190677,3.6560597
alexnet_w1_mlp_simclrhn_probe2,1,358,NaN,cat,cat,0,0358_ske_dnn_0_cat_00_cat-0042-sketch-46.png,cat-0042-sketch-46.png,1.0,2.0966496,-3.4248059,3.904259
alexnet_w1_mlp_simclrhn_probe2,1,359,NaN,cat,cat,0,0359_ske_dnn_0_cat_00_cat-0043-sketch-47.png,cat-0043-sketch-47.png,1.0,2.0092418,0.5541076,1.0289352
alexnet_w1_mlp_simclrhn_probe2,1,360,NaN,cat,cat,0,0360_ske_dnn_0_cat_00_cat-0044-sketch-48.png,cat-0044-sketch-48.png,1.0,3.822116,0.14548293,2.599772
alexnet_w1_mlp_simclrhn_probe2,1,361,NaN,cat,cat,0,0361_ske_dnn_0_cat_00_cat-0048-sketch-7.png,cat-0048-sketch-7.png,1.0,4.0861473,-2.3009644,4.51637
alexnet_w1_mlp_simclrhn_probe2,1,362,NaN,cat,cat,0,0362_ske_dnn_0_cat_00_cat-0052-sketch-1.png,cat-0052-sketch-1.png,1.0,4.32095,-2.4722786,4.8035383
alexnet_w1_mlp_simclrhn_probe2,1,363,NaN,clock,cat,0,0363_ske_dnn_0_cat_00_cat-0053-sketch-10.png,cat-0053-sketch-10.png,0.0,-4.2512794,0.26111916,-3.1907477
alexnet_w1_mlp_simclrhn_probe2,1,364,NaN,bicycle,cat,0,0364_ske_dnn_0_cat_00_cat-0059-sketch-16.png,cat-0059-sketch-16.png,0.0,-1.9687243,-0.76719356,-0.8496105
alexnet_w1_mlp_simclrhn_probe2,1,365,NaN,bottle,cat,0,0365_ske_dnn_0_cat_00_cat-0062-sketch-19.png,cat-0062-sketch-19.png,0.0,-2.663804,-1.9403962,-0.51152664
alexnet_w1_mlp_simclrhn_probe2,1,366,NaN,cat,cat,0,0366_ske_dnn_0_cat_00_cat-0067-sketch-23.png,cat-0067-sketch-23.png,1.0,1.8108426,-1.4040697,2.2732863
alexnet_w1_mlp_simclrhn_probe2,1,367,NaN,clock,cat,0,0367_ske_dnn_0_cat_00_cat-0073-sketch-29.png,cat-0073-sketch-29.png,0.0,-3.6425927,-0.23799038,-2.4074173
alexnet_w1_mlp_simclrhn_probe2,1,368,NaN,clock,cat,0,0368_ske_dnn_0_cat_00_cat-0082-sketch-37.png,cat-0082-sketch-37.png,0.0,-3.468816,-0.38798776,-2.1784744
alexnet_w1_mlp_simclrhn_probe2,1,369,NaN,cat,cat,0,0369_ske_dnn_0_cat_00_cat-0085-sketch-4.png,cat-0085-sketch-4.png,1.0,-0.7484401,-2.7387922,1.4073915
alexnet_w1_mlp_simclrhn_probe2,1,370,NaN,cat,cat,0,0370_ske_dnn_0_cat_00_cat-0090-sketch-44.png,cat-0090-sketch-44.png,1.0,-0.24925573,-2.8178139,1.816245
alexnet_w1_mlp_simclrhn_probe2,1,371,NaN,cat,cat,0,0371_ske_dnn_0_cat_00_cat-0104-sketch-10.png,cat-0104-sketch-10.png,1.0,-0.39788878,-1.185742,0.55709636
alexnet_w1_mlp_simclrhn_probe2,1,372,NaN,cat,cat,0,0372_ske_dnn_0_cat_00_cat-0124-sketch-29.png,cat-0124-sketch-29.png,1.0,-1.8712906,-4.8281307,2.0908017
alexnet_w1_mlp_simclrhn_probe2,1,373,NaN,cat,cat,0,0373_ske_dnn_0_cat_00_cat-0128-sketch-32.png,cat-0128-sketch-32.png,1.0,4.3249555,0.12481161,2.9699502
alexnet_w1_mlp_simclrhn_probe2,1,374,NaN,cat,cat,0,0374_ske_dnn_0_cat_00_cat-0134-sketch-38.png,cat-0134-sketch-38.png,1.0,0.61611974,-0.32927167,0.6684927
alexnet_w1_mlp_simclrhn_probe2,1,375,NaN,cat,cat,0,0375_ske_dnn_0_cat_00_cat-0140-sketch-43.png,cat-0140-sketch-43.png,1.0,3.9914558,-0.29523882,3.0311508
alexnet_w1_mlp_simclrhn_probe2,1,376,NaN,cat,cat,0,0376_ske_dnn_0_cat_00_cat-0149-sketch-6.png,cat-0149-sketch-6.png,1.0,1.0359087,-1.3122946,1.6604304
alexnet_w1_mlp_simclrhn_probe2,1,377,NaN,cat,cat,0,0377_ske_dnn_0_cat_00_cat-0150-sketch-7.png,cat-0150-sketch-7.png,1.0,2.5792081,-2.4824598,3.5791397
alexnet_w1_mlp_simclrhn_probe2,1,378,NaN,bicycle,cat,0,0378_ske_dnn_0_cat_00_cat-0152-sketch-9.png,cat-0152-sketch-9.png,0.0,-1.751556,-0.57070136,-0.8349904
alexnet_w1_mlp_simclrhn_probe2,1,379,NaN,chair,cat,0,0379_ske_dnn_0_cat_00_cat-0158-sketch-13.png,cat-0158-sketch-13.png,0.0,-6.755314,0.6916777,-5.265818
alexnet_w1_mlp_simclrhn_probe2,1,380,NaN,cat,cat,0,0380_ske_dnn_0_cat_00_cat-0160-sketch-15.png,cat-0160-sketch-15.png,1.0,1.619709,-0.42270184,1.4442025
alexnet_w1_mlp_simclrhn_probe2,1,381,NaN,cat,cat,0,0381_ske_dnn_0_cat_00_cat-0175-sketch-29.png,cat-0175-sketch-29.png,1.0,2.096547,-1.8282869,2.7752767
alexnet_w1_mlp_simclrhn_probe2,1,382,NaN,clock,cat,0,0382_ske_dnn_0_cat_00_cat-0207-sketch-11.png,cat-0207-sketch-11.png,0.0,-9.419665,2.2278678,-8.23605
alexnet_w1_mlp_simclrhn_probe2,1,383,NaN,clock,cat,0,0383_ske_dnn_0_cat_00_cat-0229-sketch-31.png,cat-0229-sketch-31.png,0.0,-5.726898,1.0121158,-4.7652025
alexnet_w1_mlp_simclrhn_probe2,1,384,NaN,clock,cat,0,0384_ske_dnn_0_cat_00_cat-0233-sketch-35.png,cat-0233-sketch-35.png,0.0,-9.419665,2.2278678,-8.23605
alexnet_w1_mlp_simclrhn_probe2,1,385,NaN,clock,cat,0,0385_ske_dnn_0_cat_00_cat-0241-sketch-42.png,cat-0241-sketch-42.png,0.0,-7.3663387,1.7582568,-6.4520636
alexnet_w1_mlp_simclrhn_probe2,1,386,NaN,chair,cat,0,0386_ske_dnn_0_cat_00_cat-0245-sketch-46.png,cat-0245-sketch-46.png,0.0,-5.1520667,0.73528606,-4.162987
alexnet_w1_mlp_simclrhn_probe2,1,387,NaN,clock,cat,0,0387_ske_dnn_0_cat_00_cat-0250-sketch-50.png,cat-0250-sketch-50.png,0.0,-8.915682,2.0489817,-7.753188
alexnet_w1_mlp_simclrhn_probe2,1,388,NaN,clock,cat,0,0388_ske_dnn_0_cat_00_cat-0251-sketch-6.png,cat-0251-sketch-6.png,0.0,-7.3663387,1.7582568,-6.4520636
alexnet_w1_mlp_simclrhn_probe2,1,389,NaN,cat,cat,0,0389_ske_dnn_0_cat_00_cat-0258-sketch-11.png,cat-0258-sketch-11.png,1.0,6.377252,0.63614845,4.059573
alexnet_w1_mlp_simclrhn_probe2,1,390,NaN,bicycle,cat,0,0390_ske_dnn_0_cat_00_cat-0260-sketch-13.png,cat-0260-sketch-13.png,0.0,-7.848679,1.6138507,-6.6910195
alexnet_w1_mlp_simclrhn_probe2,1,391,NaN,knife,cat,0,0391_ske_dnn_0_cat_00_cat-0264-sketch-17.png,cat-0264-sketch-17.png,0.0,-1.8565565,-1.1644506,-0.4893928
alexnet_w1_mlp_simclrhn_probe2,1,392,NaN,cat,cat,0,0392_ske_dnn_0_cat_00_cat-0265-sketch-18.png,cat-0265-sketch-18.png,1.0,2.8883896,0.12850015,1.9515365
alexnet_w1_mlp_simclrhn_probe2,1,393,NaN,dog,cat,0,0393_ske_dnn_0_cat_00_cat-0269-sketch-21.png,cat-0269-sketch-21.png,0.0,-1.6846124,-0.15154998,-1.0840389
alexnet_w1_mlp_simclrhn_probe2,1,394,NaN,cat,cat,0,0394_ske_dnn_0_cat_00_cat-0274-sketch-26.png,cat-0274-sketch-26.png,1.0,-0.088539295,-1.8599606,1.2525841
alexnet_w1_mlp_simclrhn_probe2,1,395,NaN,cat,cat,0,0395_ske_dnn_0_cat_00_cat-0279-sketch-30.png,cat-0279-sketch-30.png,1.0,-0.7417278,-0.9949371,0.179046
alexnet_w1_mlp_simclrhn_probe2,1,396,NaN,cat,cat,0,0396_ske_dnn_0_cat_00_cat-0289-sketch-4.png,cat-0289-sketch-4.png,1.0,-0.9257443,-0.97408354,0.03418101
alexnet_w1_mlp_simclrhn_probe2,1,397,NaN,cat,cat,0,0397_ske_dnn_0_cat_00_cat-0293-sketch-43.png,cat-0293-sketch-43.png,1.0,4.939266,-0.5180262,3.8588886
alexnet_w1_mlp_simclrhn_probe2,1,398,NaN,cat,cat,0,0398_ske_dnn_0_cat_00_cat-0295-sketch-45.png,cat-0295-sketch-45.png,1.0,7.505568,-0.41819274,5.6029453
alexnet_w1_mlp_simclrhn_probe2,1,399,NaN,cat,cat,0,0399_ske_dnn_0_cat_00_cat-0302-sketch-6.png,cat-0302-sketch-6.png,1.0,1.6269659,-0.044933643,1.1822115
alexnet_w1_mlp_simclrhn_probe2,1,400,NaN,cat,cat,0,0400_ske_dnn_0_cat_00_cat-0304-sketch-8.png,cat-0304-sketch-8.png,1.0,3.6104305,-0.32515794,2.7828813
alexnet_w1_mlp_simclrhn_probe2,1,401,NaN,clock,chair,0,0401_ske_dnn_0_chair_00_chair-0002-sketch-1.png,chair-0002-sketch-1.png,0.0,-0.57911754,0.8394191,-1.0030569
alexnet_w1_mlp_simclrhn_probe2,1,402,NaN,chair,chair,0,0402_ske_dnn_0_chair_00_chair-0005-sketch-12.png,chair-0005-sketch-12.png,1.0,3.3847342,1.2037271,1.5422049
alexnet_w1_mlp_simclrhn_probe2,1,403,NaN,chair,chair,0,0403_ske_dnn_0_chair_00_chair-0006-sketch-13.png,chair-0006-sketch-13.png,1.0,1.2739662,0.15546925,0.7908968
alexnet_w1_mlp_simclrhn_probe2,1,404,NaN,chair,chair,0,0404_ske_dnn_0_chair_00_chair-0011-sketch-18.png,chair-0011-sketch-18.png,1.0,2.8735194,1.1195273,1.2402598
alexnet_w1_mlp_simclrhn_probe2,1,405,NaN,clock,chair,0,0405_ske_dnn_0_chair_00_chair-0013-sketch-2.png,chair-0013-sketch-2.png,0.0,-0.91748416,0.7360377,-1.1692165
alexnet_w1_mlp_simclrhn_probe2,1,406,NaN,chair,chair,0,0406_ske_dnn_0_chair_00_chair-0014-sketch-20.png,chair-0014-sketch-20.png,1.0,3.380206,-0.09369457,2.4564188
alexnet_w1_mlp_simclrhn_probe2,1,407,NaN,clock,chair,0,0407_ske_dnn_0_chair_00_chair-0017-sketch-23.png,chair-0017-sketch-23.png,0.0,0.3693538,1.1746984,-0.5694646
alexnet_w1_mlp_simclrhn_probe2,1,408,NaN,chair,chair,0,0408_ske_dnn_0_chair_00_chair-0029-sketch-34.png,chair-0029-sketch-34.png,1.0,0.91972196,0.36446485,0.39262605
alexnet_w1_mlp_simclrhn_probe2,1,409,NaN,clock,chair,0,0409_ske_dnn_0_chair_00_chair-0034-sketch-39.png,chair-0034-sketch-39.png,0.0,-0.9521309,1.0144457,-1.3905797
alexnet_w1_mlp_simclrhn_probe2,1,410,NaN,chair,chair,0,0410_ske_dnn_0_chair_00_chair-0040-sketch-44.png,chair-0040-sketch-44.png,1.0,4.970614,0.3344089,3.2782922
alexnet_w1_mlp_simclrhn_probe2,1,411,NaN,chair,chair,0,0411_ske_dnn_0_chair_00_chair-0051-sketch-9.png,chair-0051-sketch-9.png,1.0,3.064009,-0.29845148,2.3776186
alexnet_w1_mlp_simclrhn_probe2,1,412,NaN,clock,chair,0,0412_ske_dnn_0_chair_00_chair-0052-sketch-0.png,chair-0052-sketch-0.png,0.0,0.33441228,0.9636044,-0.44490603
alexnet_w1_mlp_simclrhn_probe2,1,413,NaN,clock,chair,0,0413_ske_dnn_0_chair_00_chair-0055-sketch-11.png,chair-0055-sketch-11.png,0.0,0.64183605,1.5241003,-0.62385505
alexnet_w1_mlp_simclrhn_probe2,1,414,NaN,bicycle,chair,0,0414_ske_dnn_0_chair_00_chair-0060-sketch-16.png,chair-0060-sketch-16.png,0.0,3.1210074,4.520355,-0.9894883
alexnet_w1_mlp_simclrhn_probe2,1,415,NaN,chair,chair,0,0415_ske_dnn_0_chair_00_chair-0062-sketch-18.png,chair-0062-sketch-18.png,1.0,3.6462584,1.4006039,1.5879176
alexnet_w1_mlp_simclrhn_probe2,1,416,NaN,chair,chair,0,0416_ske_dnn_0_chair_00_chair-0063-sketch-19.png,chair-0063-sketch-19.png,1.0,4.0562854,2.7138548,0.9492418
alexnet_w1_mlp_simclrhn_probe2,1,417,NaN,chair,chair,0,0417_ske_dnn_0_chair_00_chair-0064-sketch-2.png,chair-0064-sketch-2.png,1.0,0.9354559,0.9126901,0.016097862
alexnet_w1_mlp_simclrhn_probe2,1,418,NaN,bicycle,chair,0,0418_ske_dnn_0_chair_00_chair-0066-sketch-21.png,chair-0066-sketch-21.png,0.0,1.1085804,1.866632,-0.53602344
alexnet_w1_mlp_simclrhn_probe2,1,419,NaN,chair,chair,0,0419_ske_dnn_0_chair_00_chair-0067-sketch-22.png,chair-0067-sketch-22.png,1.0,2.1582484,-0.2586056,1.7089738
alexnet_w1_mlp_simclrhn_probe2,1,420,NaN,chair,chair,0,0420_ske_dnn_0_chair_00_chair-0071-sketch-26.png,chair-0071-sketch-26.png,1.0,1.9730029,0.8126985,0.8204591
alexnet_w1_mlp_simclrhn_probe2,1,421,NaN,chair,chair,0,0421_ske_dnn_0_chair_00_chair-0072-sketch-27.png,chair-0072-sketch-27.png,1.0,2.277741,0.61884964,1.1730133
alexnet_w1_mlp_simclrhn_probe2,1,422,NaN,chair,chair,0,0422_ske_dnn_0_chair_00_chair-0076-sketch-30.png,chair-0076-sketch-30.png,1.0,4.0593805,0.6962583,2.3780866
alexnet_w1_mlp_simclrhn_probe2,1,423,NaN,chair,chair,0,0423_ske_dnn_0_chair_00_chair-0079-sketch-33.png,chair-0079-sketch-33.png,1.0,4.893622,1.1314502,2.660257
alexnet_w1_mlp_simclrhn_probe2,1,424,NaN,clock,chair,0,0424_ske_dnn_0_chair_00_chair-0083-sketch-37.png,chair-0083-sketch-37.png,0.0,0.42306155,2.6425056,-1.569384
alexnet_w1_mlp_simclrhn_probe2,1,425,NaN,chair,chair,0,0425_ske_dnn_0_chair_00_chair-0088-sketch-41.png,chair-0088-sketch-41.png,1.0,1.2790124,0.8517502,0.30212003
alexnet_w1_mlp_simclrhn_probe2,1,426,NaN,chair,chair,0,0426_ske_dnn_0_chair_00_chair-0094-sketch-47.png,chair-0094-sketch-47.png,1.0,3.5205884,0.40221676,2.2050219
alexnet_w1_mlp_simclrhn_probe2,1,427,NaN,knife,chair,0,0427_ske_dnn_0_chair_00_chair-0105-sketch-11.png,chair-0105-sketch-11.png,0.0,-0.26027358,0.21182263,-0.33382243
alexnet_w1_mlp_simclrhn_probe2,1,428,NaN,chair,chair,0,0428_ske_dnn_0_chair_00_chair-0118-sketch-23.png,chair-0118-sketch-23.png,1.0,2.7150877,0.6019829,1.4941908
alexnet_w1_mlp_simclrhn_probe2,1,429,NaN,chair,chair,0,0429_ske_dnn_0_chair_00_chair-0122-sketch-27.png,chair-0122-sketch-27.png,1.0,4.227848,-1.0527964,3.7339795
alexnet_w1_mlp_simclrhn_probe2,1,430,NaN,chair,chair,0,0430_ske_dnn_0_chair_00_chair-0124-sketch-29.png,chair-0124-sketch-29.png,1.0,1.718745,0.20120706,1.0730613
alexnet_w1_mlp_simclrhn_probe2,1,431,NaN,chair,chair,0,0431_ske_dnn_0_chair_00_chair-0125-sketch-3.png,chair-0125-sketch-3.png,1.0,2.5607066,-0.051557656,1.8471497
alexnet_w1_mlp_simclrhn_probe2,1,432,NaN,chair,chair,0,0432_ske_dnn_0_chair_00_chair-0127-sketch-31.png,chair-0127-sketch-31.png,1.0,2.251215,-0.38202643,1.861983
alexnet_w1_mlp_simclrhn_probe2,1,433,NaN,bicycle,chair,0,0433_ske_dnn_0_chair_00_chair-0129-sketch-33.png,chair-0129-sketch-33.png,0.0,2.7266798,4.4305854,-1.2048432
alexnet_w1_mlp_simclrhn_probe2,1,434,NaN,bicycle,chair,0,0434_ske_dnn_0_chair_00_chair-0130-sketch-34.png,chair-0130-sketch-34.png,0.0,1.4764801,1.631103,-0.10933491
alexnet_w1_mlp_simclrhn_probe2,1,435,NaN,chair,chair,0,0435_ske_dnn_0_chair_00_chair-0131-sketch-35.png,chair-0131-sketch-35.png,1.0,1.8941994,1.3288348,0.39977315
alexnet_w1_mlp_simclrhn_probe2,1,436,NaN,chair,chair,0,0436_ske_dnn_0_chair_00_chair-0135-sketch-39.png,chair-0135-sketch-39.png,1.0,1.9598303,1.3804957,0.40965143
alexnet_w1_mlp_simclrhn_probe2,1,437,NaN,chair,chair,0,0437_ske_dnn_0_chair_00_chair-0144-sketch-47.png,chair-0144-sketch-47.png,1.0,0.6848972,-0.7791529,1.0352397
alexnet_w1_mlp_simclrhn_probe2,1,438,NaN,chair,chair,0,0438_ske_dnn_0_chair_00_chair-0145-sketch-48.png,chair-0145-sketch-48.png,1.0,2.7712836,0.62252855,1.5193993
alexnet_w1_mlp_simclrhn_probe2,1,439,NaN,bicycle,chair,0,0439_ske_dnn_0_chair_00_chair-0153-sketch-0.png,chair-0153-sketch-0.png,0.0,-0.70847833,2.9987028,-2.621373
alexnet_w1_mlp_simclrhn_probe2,1,440,NaN,chair,chair,0,0440_ske_dnn_0_chair_00_chair-0155-sketch-10.png,chair-0155-sketch-10.png,1.0,1.7000077,0.9788232,0.50995445
alexnet_w1_mlp_simclrhn_probe2,1,441,NaN,chair,chair,0,0441_ske_dnn_0_chair_00_chair-0163-sketch-18.png,chair-0163-sketch-18.png,1.0,-0.024971604,-1.8862964,1.3161554
alexnet_w1_mlp_simclrhn_probe2,1,442,NaN,clock,chair,0,0442_ske_dnn_0_chair_00_chair-0166-sketch-20.png,chair-0166-sketch-20.png,0.0,-0.64503884,0.47489986,-0.7919163
alexnet_w1_mlp_simclrhn_probe2,1,443,NaN,chair,chair,0,0443_ske_dnn_0_chair_00_chair-0167-sketch-21.png,chair-0167-sketch-21.png,1.0,1.1437887,-0.2079857,0.9558489
alexnet_w1_mlp_simclrhn_probe2,1,444,NaN,bottle,chair,0,0444_ske_dnn_0_chair_00_chair-0168-sketch-22.png,chair-0168-sketch-22.png,0.0,-0.8712671,0.594044,-1.0361314
alexnet_w1_mlp_simclrhn_probe2,1,445,NaN,chair,chair,0,0445_ske_dnn_0_chair_00_chair-0175-sketch-29.png,chair-0175-sketch-29.png,1.0,1.8319705,-0.026063308,1.3138283
alexnet_w1_mlp_simclrhn_probe2,1,446,NaN,clock,chair,0,0446_ske_dnn_0_chair_00_chair-0176-sketch-3.png,chair-0176-sketch-3.png,0.0,-2.8111284,3.62035,-4.5477424
alexnet_w1_mlp_simclrhn_probe2,1,447,NaN,clock,chair,0,0447_ske_dnn_0_chair_00_chair-0178-sketch-31.png,chair-0178-sketch-31.png,0.0,0.06763971,1.3316468,-0.893788
alexnet_w1_mlp_simclrhn_probe2,1,448,NaN,clock,chair,0,0448_ske_dnn_0_chair_00_chair-0180-sketch-33.png,chair-0180-sketch-33.png,0.0,-2.1535327,-1.9394468,-0.15138163
alexnet_w1_mlp_simclrhn_probe2,1,449,NaN,bottle,chair,0,0449_ske_dnn_0_chair_00_chair-0197-sketch-49.png,chair-0197-sketch-49.png,0.0,-0.81859076,0.3807662,-0.8480735
alexnet_w1_mlp_simclrhn_probe2,1,450,NaN,clock,chair,0,0450_ske_dnn_0_chair_00_chair-0200-sketch-6.png,chair-0200-sketch-6.png,0.0,-2.5017953,-2.1043322,-0.28104883
alexnet_w1_mlp_simclrhn_probe2,1,451,NaN,clock,clock,0,0451_ske_dnn_0_clock_00_clock-0005-sketch-12.png,clock-0005-sketch-12.png,1.0,11.628707,-2.6871097,10.122811
alexnet_w1_mlp_simclrhn_probe2,1,452,NaN,clock,clock,0,0452_ske_dnn_0_clock_00_clock-0007-sketch-14.png,clock-0007-sketch-14.png,1.0,7.4514213,-1.5069246,6.334507
alexnet_w1_mlp_simclrhn_probe2,1,453,NaN,clock,clock,0,0453_ske_dnn_0_clock_00_clock-0015-sketch-21.png,clock-0015-sketch-21.png,1.0,4.3046374,-2.5941768,4.8781986
alexnet_w1_mlp_simclrhn_probe2,1,454,NaN,clock,clock,0,0454_ske_dnn_0_clock_00_clock-0017-sketch-23.png,clock-0017-sketch-23.png,1.0,2.5178905,-0.7839322,2.3347414
alexnet_w1_mlp_simclrhn_probe2,1,455,NaN,clock,clock,0,0455_ske_dnn_0_clock_00_clock-0018-sketch-24.png,clock-0018-sketch-24.png,1.0,9.744536,-1.0221795,7.613218
alexnet_w1_mlp_simclrhn_probe2,1,456,NaN,clock,clock,0,0456_ske_dnn_0_clock_00_clock-0021-sketch-27.png,clock-0021-sketch-27.png,1.0,2.9168282,1.4237111,1.0557933
alexnet_w1_mlp_simclrhn_probe2,1,457,NaN,clock,clock,0,0457_ske_dnn_0_clock_00_clock-0022-sketch-28.png,clock-0022-sketch-28.png,1.0,4.2691655,1.348881,2.064953
alexnet_w1_mlp_simclrhn_probe2,1,458,NaN,clock,clock,0,0458_ske_dnn_0_clock_00_clock-0027-sketch-32.png,clock-0027-sketch-32.png,1.0,3.5315645,-0.706425,2.996711
alexnet_w1_mlp_simclrhn_probe2,1,459,NaN,clock,clock,0,0459_ske_dnn_0_clock_00_clock-0028-sketch-33.png,clock-0028-sketch-33.png,1.0,8.277148,-2.1442494,7.3690414
alexnet_w1_mlp_simclrhn_probe2,1,460,NaN,clock,clock,0,0460_ske_dnn_0_clock_00_clock-0030-sketch-35.png,clock-0030-sketch-35.png,1.0,12.437718,0.1545781,8.685492
alexnet_w1_mlp_simclrhn_probe2,1,461,NaN,clock,clock,0,0461_ske_dnn_0_clock_00_clock-0033-sketch-38.png,clock-0033-sketch-38.png,1.0,13.010205,0.2876918,8.996176
alexnet_w1_mlp_simclrhn_probe2,1,462,NaN,clock,clock,0,0462_ske_dnn_0_clock_00_clock-0035-sketch-4.png,clock-0035-sketch-4.png,1.0,8.390494,-2.3098228,7.566267
alexnet_w1_mlp_simclrhn_probe2,1,463,NaN,clock,clock,0,0463_ske_dnn_0_clock_00_clock-0044-sketch-48.png,clock-0044-sketch-48.png,1.0,4.798618,-1.1057189,4.174997
alexnet_w1_mlp_simclrhn_probe2,1,464,NaN,clock,clock,0,0464_ske_dnn_0_clock_00_clock-0046-sketch-5.png,clock-0046-sketch-5.png,1.0,6.906643,-1.9591844,6.269087
alexnet_w1_mlp_simclrhn_probe2,1,465,NaN,clock,clock,0,0465_ske_dnn_0_clock_00_clock-0049-sketch-7.png,clock-0049-sketch-7.png,1.0,6.3511105,-1.238414,5.3666043
alexnet_w1_mlp_simclrhn_probe2,1,466,NaN,keyboard,clock,0,0466_ske_dnn_0_clock_00_clock-0057-sketch-13.png,clock-0057-sketch-13.png,0.0,1.9375887,2.3207572,-0.27094102
alexnet_w1_mlp_simclrhn_probe2,1,467,NaN,clock,clock,0,0467_ske_dnn_0_clock_00_clock-0059-sketch-15.png,clock-0059-sketch-15.png,1.0,4.3711185,-0.07043021,3.1406493
alexnet_w1_mlp_simclrhn_probe2,1,468,NaN,clock,clock,0,0468_ske_dnn_0_clock_00_clock-0060-sketch-16.png,clock-0060-sketch-16.png,1.0,2.4775097,0.4216901,1.453684
alexnet_w1_mlp_simclrhn_probe2,1,469,NaN,clock,clock,0,0469_ske_dnn_0_clock_00_clock-0067-sketch-22.png,clock-0067-sketch-22.png,1.0,4.9433637,2.7293975,1.5655105
alexnet_w1_mlp_simclrhn_probe2,1,470,NaN,oven,clock,0,0470_ske_dnn_0_clock_00_clock-0069-sketch-24.png,clock-0069-sketch-24.png,0.0,1.4721292,2.6357844,-0.8228285
alexnet_w1_mlp_simclrhn_probe2,1,471,NaN,clock,clock,0,0471_ske_dnn_0_clock_00_clock-0070-sketch-25.png,clock-0070-sketch-25.png,1.0,4.440979,3.2294369,0.8566897
alexnet_w1_mlp_simclrhn_probe2,1,472,NaN,clock,clock,0,0472_ske_dnn_0_clock_00_clock-0071-sketch-26.png,clock-0071-sketch-26.png,1.0,10.633555,0.8379708,6.9265246
alexnet_w1_mlp_simclrhn_probe2,1,473,NaN,chair,clock,0,0473_ske_dnn_0_clock_00_clock-0073-sketch-28.png,clock-0073-sketch-28.png,0.0,-0.6509132,1.5233877,-1.537463
alexnet_w1_mlp_simclrhn_probe2,1,474,NaN,oven,clock,0,0474_ske_dnn_0_clock_00_clock-0074-sketch-29.png,clock-0074-sketch-29.png,0.0,-0.31453547,0.6920003,-0.7117283
alexnet_w1_mlp_simclrhn_probe2,1,475,NaN,clock,clock,0,0475_ske_dnn_0_clock_00_clock-0076-sketch-30.png,clock-0076-sketch-30.png,1.0,5.309584,2.4570098,2.0170746
alexnet_w1_mlp_simclrhn_probe2,1,476,NaN,clock,clock,0,0476_ske_dnn_0_clock_00_clock-0077-sketch-31.png,clock-0077-sketch-31.png,1.0,4.539223,3.2501545,0.9115092
alexnet_w1_mlp_simclrhn_probe2,1,477,NaN,clock,clock,0,0477_ske_dnn_0_clock_00_clock-0078-sketch-32.png,clock-0078-sketch-32.png,1.0,3.8072345,2.4531493,0.9574829
alexnet_w1_mlp_simclrhn_probe2,1,478,NaN,clock,clock,0,0478_ske_dnn_0_clock_00_clock-0081-sketch-35.png,clock-0081-sketch-35.png,1.0,5.0520196,1.1364583,2.76872
alexnet_w1_mlp_simclrhn_probe2,1,479,NaN,clock,clock,0,0479_ske_dnn_0_clock_00_clock-0085-sketch-39.png,clock-0085-sketch-39.png,1.0,6.2960973,3.586475,1.9159924
alexnet_w1_mlp_simclrhn_probe2,1,480,NaN,clock,clock,0,0480_ske_dnn_0_clock_00_clock-0087-sketch-40.png,clock-0087-sketch-40.png,1.0,2.5327022,2.461969,0.050016005
alexnet_w1_mlp_simclrhn_probe2,1,481,NaN,clock,clock,0,0481_ske_dnn_0_clock_00_clock-0092-sketch-45.png,clock-0092-sketch-45.png,1.0,3.1971397,2.5142925,0.48284593
alexnet_w1_mlp_simclrhn_probe2,1,482,NaN,clock,clock,0,0482_ske_dnn_0_clock_00_clock-0093-sketch-46.png,clock-0093-sketch-46.png,1.0,4.4064617,-0.12061054,3.2011237
alexnet_w1_mlp_simclrhn_probe2,1,483,NaN,clock,clock,0,0483_ske_dnn_0_clock_00_clock-0095-sketch-48.png,clock-0095-sketch-48.png,1.0,6.330732,3.6529074,1.8935078
alexnet_w1_mlp_simclrhn_probe2,1,484,NaN,keyboard,clock,0,0484_ske_dnn_0_clock_00_clock-0099-sketch-6.png,clock-0099-sketch-6.png,0.0,1.5528144,3.2675214,-1.212481
alexnet_w1_mlp_simclrhn_probe2,1,485,NaN,clock,clock,0,0485_ske_dnn_0_clock_00_clock-0110-sketch-15.png,clock-0110-sketch-15.png,1.0,4.5926013,-0.44883877,3.5648365
alexnet_w1_mlp_simclrhn_probe2,1,486,NaN,clock,clock,0,0486_ske_dnn_0_clock_00_clock-0112-sketch-17.png,clock-0112-sketch-17.png,1.0,16.060175,-4.9547315,14.859783
alexnet_w1_mlp_simclrhn_probe2,1,487,NaN,clock,clock,0,0487_ske_dnn_0_clock_00_clock-0115-sketch-2.png,clock-0115-sketch-2.png,1.0,6.183886,-0.7838468,4.9269314
alexnet_w1_mlp_simclrhn_probe2,1,488,NaN,clock,clock,0,0488_ske_dnn_0_clock_00_clock-0118-sketch-22.png,clock-0118-sketch-22.png,1.0,11.240753,-1.8716741,9.271886
alexnet_w1_mlp_simclrhn_probe2,1,489,NaN,clock,clock,0,0489_ske_dnn_0_clock_00_clock-0123-sketch-27.png,clock-0123-sketch-27.png,1.0,11.818344,-3.0344067,10.5024805
alexnet_w1_mlp_simclrhn_probe2,1,490,NaN,clock,clock,0,0490_ske_dnn_0_clock_00_clock-0127-sketch-30.png,clock-0127-sketch-30.png,1.0,10.933621,-0.84325135,8.327507
alexnet_w1_mlp_simclrhn_probe2,1,491,NaN,clock,clock,0,0491_ske_dnn_0_clock_00_clock-0131-sketch-34.png,clock-0131-sketch-34.png,1.0,9.0081625,1.0193176,5.6489663
alexnet_w1_mlp_simclrhn_probe2,1,492,NaN,clock,clock,0,0492_ske_dnn_0_clock_00_clock-0132-sketch-35.png,clock-0132-sketch-35.png,1.0,5.0070295,-0.42834014,3.8433867
alexnet_w1_mlp_simclrhn_probe2,1,493,NaN,clock,clock,0,0493_ske_dnn_0_clock_00_clock-0133-sketch-36.png,clock-0133-sketch-36.png,1.0,4.138614,-0.55142725,3.3163602
alexnet_w1_mlp_simclrhn_probe2,1,494,NaN,clock,clock,0,0494_ske_dnn_0_clock_00_clock-0136-sketch-39.png,clock-0136-sketch-39.png,1.0,7.1068497,-0.9629112,5.706183
alexnet_w1_mlp_simclrhn_probe2,1,495,NaN,clock,clock,0,0495_ske_dnn_0_clock_00_clock-0137-sketch-4.png,clock-0137-sketch-4.png,1.0,7.3219986,-1.1250205,5.9729447
alexnet_w1_mlp_simclrhn_probe2,1,496,NaN,clock,clock,0,0496_ske_dnn_0_clock_00_clock-0138-sketch-40.png,clock-0138-sketch-40.png,1.0,6.663664,1.5962249,3.5832205
alexnet_w1_mlp_simclrhn_probe2,1,497,NaN,clock,clock,0,0497_ske_dnn_0_clock_00_clock-0141-sketch-43.png,clock-0141-sketch-43.png,1.0,6.030165,-0.653019,4.7257247
alexnet_w1_mlp_simclrhn_probe2,1,498,NaN,clock,clock,0,0498_ske_dnn_0_clock_00_clock-0143-sketch-45.png,clock-0143-sketch-45.png,1.0,6.2331176,-1.9947855,5.8180065
alexnet_w1_mlp_simclrhn_probe2,1,499,NaN,clock,clock,0,0499_ske_dnn_0_clock_00_clock-0144-sketch-46.png,clock-0144-sketch-46.png,1.0,7.463341,-0.93660843,5.9396615
alexnet_w1_mlp_simclrhn_probe2,1,500,NaN,clock,clock,0,0500_ske_dnn_0_clock_00_clock-0150-sketch-6.png,clock-0150-sketch-6.png,1.0,10.98733,-0.21640551,7.922238
alexnet_w1_mlp_simclrhn_probe2,1,501,NaN,dog,dog,0,0501_ske_dnn_0_dog_00_dog-0011-sketch-18.png,dog-0011-sketch-18.png,1.0,-0.1435686,-1.1220104,0.69186276
alexnet_w1_mlp_simclrhn_probe2,1,502,NaN,bottle,dog,0,0502_ske_dnn_0_dog_00_dog-0111-sketch-17.png,dog-0111-sketch-17.png,0.0,-3.8211942,-1.1641704,-1.8787997
alexnet_w1_mlp_simclrhn_probe2,1,503,NaN,clock,dog,0,0503_ske_dnn_0_dog_00_dog-0215-sketch-19.png,dog-0215-sketch-19.png,0.0,-8.328262,2.5269656,-7.6758056
alexnet_w1_mlp_simclrhn_probe2,1,504,NaN,cat,dog,0,0504_ske_dnn_0_dog_00_dog-0243-sketch-44.png,dog-0243-sketch-44.png,0.0,-2.7606254,-1.2237371,-1.0867441
alexnet_w1_mlp_simclrhn_probe2,1,505,NaN,cat,dog,0,0505_ske_dnn_0_dog_00_dog-0476-sketch-26.png,dog-0476-sketch-26.png,0.0,-2.1954918,-1.6123495,-0.41234386
alexnet_w1_mlp_simclrhn_probe2,1,506,NaN,cat,dog,0,0506_ske_dnn_0_dog_00_dog-0607-sketch-8.png,dog-0607-sketch-8.png,0.0,-0.41441607,0.03735466,-0.31945014
alexnet_w1_mlp_simclrhn_probe2,1,507,NaN,dog,dog,0,0507_ske_dnn_0_dog_00_dog-0630-sketch-28.png,dog-0630-sketch-28.png,1.0,1.5760986,0.075426735,1.0611353
alexnet_w1_mlp_simclrhn_probe2,1,508,NaN,dog,dog,0,0508_ske_dnn_0_dog_00_dog-1035-sketch-27.png,dog-1035-sketch-27.png,1.0,-0.5651049,-0.763175,0.14005671
alexnet_w1_mlp_simclrhn_probe2,1,509,NaN,cat,dog,0,0509_ske_dnn_0_dog_00_dog-1292-sketch-3.png,dog-1292-sketch-3.png,0.0,-0.25796893,-0.10270715,-0.10978666
alexnet_w1_mlp_simclrhn_probe2,1,510,NaN,cat,dog,0,0510_ske_dnn_0_dog_00_dog-1393-sketch-3.png,dog-1393-sketch-3.png,0.0,-1.4366448,-0.66241044,-0.5474664
alexnet_w1_mlp_simclrhn_probe2,1,511,NaN,cat,dog,0,0511_ske_dnn_0_dog_00_dog-1460-sketch-44.png,dog-1460-sketch-44.png,0.0,-4.3802724,0.8666747,-3.7101521
alexnet_w1_mlp_simclrhn_probe2,1,512,NaN,clock,dog,0,0512_ske_dnn_0_dog_00_dog-1617-sketch-48.png,dog-1617-sketch-48.png,0.0,-6.2577395,1.0187936,-5.145286
alexnet_w1_mlp_simclrhn_probe2,1,513,NaN,dog,dog,0,0513_ske_dnn_0_dog_00_dog-1657-sketch-38.png,dog-1657-sketch-38.png,1.0,1.8838795,-1.6527725,2.5007908
alexnet_w1_mlp_simclrhn_probe2,1,514,NaN,cat,dog,0,0514_ske_dnn_0_dog_00_dog-1711-sketch-40.png,dog-1711-sketch-40.png,0.0,-3.1277606,-1.4038061,-1.21902
alexnet_w1_mlp_simclrhn_probe2,1,515,NaN,dog,dog,0,0515_ske_dnn_0_dog_00_dog-1759-sketch-38.png,dog-1759-sketch-38.png,1.0,1.2240707,-0.5764936,1.2731912
alexnet_w1_mlp_simclrhn_probe2,1,516,NaN,bicycle,dog,0,0516_ske_dnn_0_dog_00_dog-1797-sketch-26.png,dog-1797-sketch-26.png,0.0,-9.780009,-0.017356843,-6.903238
alexnet_w1_mlp_simclrhn_probe2,1,517,NaN,clock,dog,0,0517_ske_dnn_0_dog_00_dog-1973-sketch-47.png,dog-1973-sketch-47.png,0.0,-1.7478857,-1.6657501,-0.05807861
alexnet_w1_mlp_simclrhn_probe2,1,518,NaN,clock,dog,0,0518_ske_dnn_0_dog_00_dog-2150-sketch-22.png,dog-2150-sketch-22.png,0.0,-5.730859,0.6869223,-4.5380564
alexnet_w1_mlp_simclrhn_probe2,1,519,NaN,clock,dog,0,0519_ske_dnn_0_dog_00_dog-2198-sketch-20.png,dog-2198-sketch-20.png,0.0,-6.226237,0.5242248,-4.7732973
alexnet_w1_mlp_simclrhn_probe2,1,520,NaN,cat,dog,0,0520_ske_dnn_0_dog_00_dog-2291-sketch-12.png,dog-2291-sketch-12.png,0.0,-1.0634056,-0.6167829,-0.31580997
alexnet_w1_mlp_simclrhn_probe2,1,521,NaN,bird,dog,0,0521_ske_dnn_0_dog_00_dog-2323-sketch-41.png,dog-2323-sketch-41.png,0.0,-2.0015535,0.5719172,-1.8197185
alexnet_w1_mlp_simclrhn_probe2,1,522,NaN,dog,dog,0,0522_ske_dnn_0_dog_00_dog-2454-sketch-21.png,dog-2454-sketch-21.png,1.0,0.4889557,-1.3174874,1.2773482
alexnet_w1_mlp_simclrhn_probe2,1,523,NaN,dog,dog,0,0523_ske_dnn_0_dog_00_dog-2506-sketch-23.png,dog-2506-sketch-23.png,1.0,3.1700935,-1.5371714,3.328539
alexnet_w1_mlp_simclrhn_probe2,1,524,NaN,dog,dog,0,0524_ske_dnn_0_dog_00_dog-2541-sketch-0.png,dog-2541-sketch-0.png,1.0,0.720288,-2.7632914,2.4632626
alexnet_w1_mlp_simclrhn_probe2,1,525,NaN,dog,dog,0,0525_ske_dnn_0_dog_00_dog-2615-sketch-3.png,dog-2615-sketch-3.png,1.0,1.8591222,0.4527217,0.9944753
alexnet_w1_mlp_simclrhn_probe2,1,526,NaN,dog,dog,0,0526_ske_dnn_0_dog_00_dog-2948-sketch-10.png,dog-2948-sketch-10.png,1.0,-0.8309102,-1.9337457,0.7798225
alexnet_w1_mlp_simclrhn_probe2,1,527,NaN,dog,dog,0,0527_ske_dnn_0_dog_00_dog-3000-sketch-11.png,dog-3000-sketch-11.png,1.0,2.7704217,-1.6344886,3.1147418
alexnet_w1_mlp_simclrhn_probe2,1,528,NaN,clock,dog,0,0528_ske_dnn_0_dog_00_dog-3153-sketch-11.png,dog-3153-sketch-11.png,0.0,-0.757099,0.263337,-0.7215572
alexnet_w1_mlp_simclrhn_probe2,1,529,NaN,cat,dog,0,0529_ske_dnn_0_dog_00_dog-3251-sketch-9.png,dog-3251-sketch-9.png,0.0,-1.5619878,-0.15530749,-0.99467313
alexnet_w1_mlp_simclrhn_probe2,1,530,NaN,cat,dog,0,0530_ske_dnn_0_dog_00_dog-3303-sketch-0.png,dog-3303-sketch-0.png,0.0,-0.6425328,-0.16539001,-0.33739093
alexnet_w1_mlp_simclrhn_probe2,1,531,NaN,dog,dog,0,0531_ske_dnn_0_dog_00_dog-3338-sketch-40.png,dog-3338-sketch-40.png,1.0,2.1466157,1.8391625,0.2174023
alexnet_w1_mlp_simclrhn_probe2,1,532,NaN,cat,dog,0,0532_ske_dnn_0_dog_00_dog-3417-sketch-2.png,dog-3417-sketch-2.png,0.0,-1.937933,-1.1298991,-0.5713662
alexnet_w1_mlp_simclrhn_probe2,1,533,NaN,dog,dog,0,0533_ske_dnn_0_dog_00_dog-3503-sketch-6.png,dog-3503-sketch-6.png,1.0,-0.37299934,-1.0163764,0.4549363
alexnet_w1_mlp_simclrhn_probe2,1,534,NaN,dog,dog,0,0534_ske_dnn_0_dog_00_dog-3573-sketch-22.png,dog-3573-sketch-22.png,1.0,0.579343,0.25522065,0.22918913
alexnet_w1_mlp_simclrhn_probe2,1,535,NaN,cat,dog,0,0535_ske_dnn_0_dog_00_dog-3646-sketch-42.png,dog-3646-sketch-42.png,0.0,1.2203715,3.1320486,-1.3517599
alexnet_w1_mlp_simclrhn_probe2,1,536,NaN,cat,dog,0,0536_ske_dnn_0_dog_00_dog-3695-sketch-40.png,dog-3695-sketch-40.png,0.0,-1.6878266,-0.33247876,-0.9583757
alexnet_w1_mlp_simclrhn_probe2,1,537,NaN,cat,dog,0,0537_ske_dnn_0_dog_00_dog-3915-sketch-0.png,dog-3915-sketch-0.png,0.0,-3.685576,-2.102668,-1.119285
alexnet_w1_mlp_simclrhn_probe2,1,538,NaN,cat,dog,0,0538_ske_dnn_0_dog_00_dog-4202-sketch-4.png,dog-4202-sketch-4.png,0.0,1.2533962,3.3453548,-1.479238
alexnet_w1_mlp_simclrhn_probe2,1,539,NaN,cat,dog,0,0539_ske_dnn_0_dog_00_dog-4208-sketch-45.png,dog-4208-sketch-45.png,0.0,-0.27819857,0.77525073,-0.7449011
alexnet_w1_mlp_simclrhn_probe2,1,540,NaN,dog,dog,0,0540_ske_dnn_0_dog_00_dog-4325-sketch-13.png,dog-4325-sketch-13.png,1.0,-0.11674713,-1.7385931,1.1468183
alexnet_w1_mlp_simclrhn_probe2,1,541,NaN,cat,dog,0,0541_ske_dnn_0_dog_00_dog-4475-sketch-11.png,dog-4475-sketch-11.png,0.0,0.06559012,0.6074707,-0.38316742
alexnet_w1_mlp_simclrhn_probe2,1,542,NaN,clock,dog,0,0542_ske_dnn_0_dog_00_dog-4499-sketch-33.png,dog-4499-sketch-33.png,0.0,-3.9318016,0.2343986,-2.9459484
alexnet_w1_mlp_simclrhn_probe2,1,543,NaN,cat,dog,0,0543_ske_dnn_0_dog_00_dog-4581-sketch-16.png,dog-4581-sketch-16.png,0.0,-2.316846,-0.12965882,-1.546575
alexnet_w1_mlp_simclrhn_probe2,1,544,NaN,clock,dog,0,0544_ske_dnn_0_dog_00_dog-4709-sketch-4.png,dog-4709-sketch-4.png,0.0,-6.068147,0.8404214,-4.8850956
alexnet_w1_mlp_simclrhn_probe2,1,545,NaN,bird,dog,0,0545_ske_dnn_0_dog_00_dog-4909-sketch-37.png,dog-4909-sketch-37.png,0.0,-3.3704834,-1.122603,-1.5894915
alexnet_w1_mlp_simclrhn_probe2,1,546,NaN,cat,dog,0,0546_ske_dnn_0_dog_00_dog-5028-sketch-8.png,dog-5028-sketch-8.png,0.0,-0.36499885,-0.15678847,-0.14722697
alexnet_w1_mlp_simclrhn_probe2,1,547,NaN,cat,dog,0,0547_ske_dnn_0_dog_00_dog-5084-sketch-11.png,dog-5084-sketch-11.png,0.0,-0.5536714,-0.17385294,-0.26857224
alexnet_w1_mlp_simclrhn_probe2,1,548,NaN,clock,dog,0,0548_ske_dnn_0_dog_00_dog-5223-sketch-45.png,dog-5223-sketch-45.png,0.0,-1.7722853,-0.95458645,-0.57820046
alexnet_w1_mlp_simclrhn_probe2,1,549,NaN,dog,dog,0,0549_ske_dnn_0_dog_00_dog-5325-sketch-45.png,dog-5325-sketch-45.png,1.0,3.453452,1.7462171,1.2071974
alexnet_w1_mlp_simclrhn_probe2,1,550,NaN,cat,dog,0,0550_ske_dnn_0_dog_00_dog-5354-sketch-25.png,dog-5354-sketch-25.png,0.0,-0.5241652,-0.19620843,-0.23190048
alexnet_w1_mlp_simclrhn_probe2,1,551,NaN,elephant,elephant,0,0551_ske_dnn_0_elephant_00_elephant-0001-sketch-0.png,elephant-0001-sketch-0.png,1.0,-2.199245,-2.4448252,0.17365143
alexnet_w1_mlp_simclrhn_probe2,1,552,NaN,elephant,elephant,0,0552_ske_dnn_0_elephant_00_elephant-0002-sketch-1.png,elephant-0002-sketch-1.png,1.0,1.6561929,0.72450465,0.6588031
alexnet_w1_mlp_simclrhn_probe2,1,553,NaN,chair,elephant,0,0553_ske_dnn_0_elephant_00_elephant-0006-sketch-13.png,elephant-0006-sketch-13.png,0.0,-4.3290277,-0.9196292,-2.4108088
alexnet_w1_mlp_simclrhn_probe2,1,554,NaN,clock,elephant,0,0554_ske_dnn_0_elephant_00_elephant-0011-sketch-18.png,elephant-0011-sketch-18.png,0.0,-8.934721,0.6055061,-6.7459593
alexnet_w1_mlp_simclrhn_probe2,1,555,NaN,bicycle,elephant,0,0555_ske_dnn_0_elephant_00_elephant-0012-sketch-19.png,elephant-0012-sketch-19.png,0.0,-8.592457,0.45196933,-6.3953753
alexnet_w1_mlp_simclrhn_probe2,1,556,NaN,chair,elephant,0,0556_ske_dnn_0_elephant_00_elephant-0013-sketch-2.png,elephant-0013-sketch-2.png,0.0,-4.82563,-1.0556614,-2.6657705
alexnet_w1_mlp_simclrhn_probe2,1,557,NaN,bicycle,elephant,0,0557_ske_dnn_0_elephant_00_elephant-0014-sketch-20.png,elephant-0014-sketch-20.png,0.0,-4.9796634,-2.97633,-1.4165707
alexnet_w1_mlp_simclrhn_probe2,1,558,NaN,bird,elephant,0,0558_ske_dnn_0_elephant_00_elephant-0015-sketch-21.png,elephant-0015-sketch-21.png,0.0,-3.092012,-1.3450487,-1.2352896
alexnet_w1_mlp_simclrhn_probe2,1,559,NaN,clock,elephant,0,0559_ske_dnn_0_elephant_00_elephant-0016-sketch-22.png,elephant-0016-sketch-22.png,0.0,-7.0334053,0.6879408,-5.459816
alexnet_w1_mlp_simclrhn_probe2,1,560,NaN,elephant,elephant,0,0560_ske_dnn_0_elephant_00_elephant-0019-sketch-25.png,elephant-0019-sketch-25.png,1.0,1.4170573,-1.1551105,1.8187973
alexnet_w1_mlp_simclrhn_probe2,1,561,NaN,bicycle,elephant,0,0561_ske_dnn_0_elephant_00_elephant-0020-sketch-26.png,elephant-0020-sketch-26.png,0.0,-5.3851814,0.8739889,-4.425902
alexnet_w1_mlp_simclrhn_probe2,1,562,NaN,clock,elephant,0,0562_ske_dnn_0_elephant_00_elephant-0021-sketch-27.png,elephant-0021-sketch-27.png,0.0,-4.007455,-1.0136324,-2.1169522
alexnet_w1_mlp_simclrhn_probe2,1,563,NaN,clock,elephant,0,0563_ske_dnn_0_elephant_00_elephant-0022-sketch-28.png,elephant-0022-sketch-28.png,0.0,-9.759997,1.6592637,-8.074637
alexnet_w1_mlp_simclrhn_probe2,1,564,NaN,cat,elephant,0,0564_ske_dnn_0_elephant_00_elephant-0025-sketch-30.png,elephant-0025-sketch-30.png,0.0,-1.857559,-0.4276881,-1.0110714
alexnet_w1_mlp_simclrhn_probe2,1,565,NaN,elephant,elephant,0,0565_ske_dnn_0_elephant_00_elephant-0028-sketch-33.png,elephant-0028-sketch-33.png,1.0,1.8148501,0.7633421,0.7435284
alexnet_w1_mlp_simclrhn_probe2,1,566,NaN,knife,elephant,0,0566_ske_dnn_0_elephant_00_elephant-0029-sketch-34.png,elephant-0029-sketch-34.png,0.0,-5.169687,-1.1082962,-2.8718371
alexnet_w1_mlp_simclrhn_probe2,1,567,NaN,bicycle,elephant,0,0567_ske_dnn_0_elephant_00_elephant-0030-sketch-35.png,elephant-0030-sketch-35.png,0.0,-12.060025,1.1456351,-9.337811
alexnet_w1_mlp_simclrhn_probe2,1,568,NaN,knife,elephant,0,0568_ske_dnn_0_elephant_00_elephant-0032-sketch-37.png,elephant-0032-sketch-37.png,0.0,-1.8989072,-0.77039146,-0.79798114
alexnet_w1_mlp_simclrhn_probe2,1,569,NaN,bicycle,elephant,0,0569_ske_dnn_0_elephant_00_elephant-0033-sketch-38.png,elephant-0033-sketch-38.png,0.0,-8.796682,-0.290152,-6.0150256
alexnet_w1_mlp_simclrhn_probe2,1,570,NaN,elephant,elephant,0,0570_ske_dnn_0_elephant_00_elephant-0037-sketch-41.png,elephant-0037-sketch-41.png,1.0,0.56523705,-0.6331348,0.8473769
alexnet_w1_mlp_simclrhn_probe2,1,571,NaN,elephant,elephant,0,0571_ske_dnn_0_elephant_00_elephant-0039-sketch-43.png,elephant-0039-sketch-43.png,1.0,0.17614272,-1.0734473,0.8835936
alexnet_w1_mlp_simclrhn_probe2,1,572,NaN,cat,elephant,0,0572_ske_dnn_0_elephant_00_elephant-0040-sketch-44.png,elephant-0040-sketch-44.png,0.0,-1.9744259,-0.98232126,-0.70152396
alexnet_w1_mlp_simclrhn_probe2,1,573,NaN,bird,elephant,0,0573_ske_dnn_0_elephant_00_elephant-0043-sketch-47.png,elephant-0043-sketch-47.png,0.0,-2.4954627,-0.9026166,-1.1263123
alexnet_w1_mlp_simclrhn_probe2,1,574,NaN,cat,elephant,0,0574_ske_dnn_0_elephant_00_elephant-0044-sketch-48.png,elephant-0044-sketch-48.png,0.0,-1.5631884,-1.330849,-0.16428876
alexnet_w1_mlp_simclrhn_probe2,1,575,NaN,knife,elephant,0,0575_ske_dnn_0_elephant_00_elephant-0046-sketch-5.png,elephant-0046-sketch-5.png,0.0,-1.7171252,-0.8959296,-0.580673
alexnet_w1_mlp_simclrhn_probe2,1,576,NaN,clock,elephant,0,0576_ske_dnn_0_elephant_00_elephant-0047-sketch-50.png,elephant-0047-sketch-50.png,0.0,-8.911036,0.17620285,-6.4256477
alexnet_w1_mlp_simclrhn_probe2,1,577,NaN,bicycle,elephant,0,0577_ske_dnn_0_elephant_00_elephant-0048-sketch-6.png,elephant-0048-sketch-6.png,0.0,-8.636247,-0.13605985,-6.01054
alexnet_w1_mlp_simclrhn_probe2,1,578,NaN,cat,elephant,0,0578_ske_dnn_0_elephant_00_elephant-0050-sketch-8.png,elephant-0050-sketch-8.png,0.0,-3.231963,-1.1089236,-1.5012155
alexnet_w1_mlp_simclrhn_probe2,1,579,NaN,cat,elephant,0,0579_ske_dnn_0_elephant_00_elephant-0052-sketch-0.png,elephant-0052-sketch-0.png,0.0,-1.5926766,-1.1858438,-0.28767425
alexnet_w1_mlp_simclrhn_probe2,1,580,NaN,dog,elephant,0,0580_ske_dnn_0_elephant_00_elephant-0054-sketch-10.png,elephant-0054-sketch-10.png,0.0,-1.5097756,-1.237789,-0.19232358
alexnet_w1_mlp_simclrhn_probe2,1,581,NaN,cat,elephant,0,0581_ske_dnn_0_elephant_00_elephant-0055-sketch-11.png,elephant-0055-sketch-11.png,0.0,-2.54297,-0.8979109,-1.1632324
alexnet_w1_mlp_simclrhn_probe2,1,582,NaN,oven,elephant,0,0582_ske_dnn_0_elephant_00_elephant-0057-sketch-13.png,elephant-0057-sketch-13.png,0.0,-1.8189411,-0.8277626,-0.7008691
alexnet_w1_mlp_simclrhn_probe2,1,583,NaN,elephant,elephant,0,0583_ske_dnn_0_elephant_00_elephant-0058-sketch-14.png,elephant-0058-sketch-14.png,1.0,1.4624686,-1.9222162,2.3933337
alexnet_w1_mlp_simclrhn_probe2,1,584,NaN,elephant,elephant,0,0584_ske_dnn_0_elephant_00_elephant-0061-sketch-17.png,elephant-0061-sketch-17.png,1.0,8.389946,-0.6809118,6.4140654
alexnet_w1_mlp_simclrhn_probe2,1,585,NaN,bicycle,elephant,0,0585_ske_dnn_0_elephant_00_elephant-0062-sketch-18.png,elephant-0062-sketch-18.png,0.0,-5.191981,-0.73719704,-3.150008
alexnet_w1_mlp_simclrhn_probe2,1,586,NaN,bicycle,elephant,0,0586_ske_dnn_0_elephant_00_elephant-0065-sketch-20.png,elephant-0065-sketch-20.png,0.0,-4.0669384,1.3614048,-3.8384185
alexnet_w1_mlp_simclrhn_probe2,1,587,NaN,elephant,elephant,0,0587_ske_dnn_0_elephant_00_elephant-0066-sketch-21.png,elephant-0066-sketch-21.png,1.0,5.550133,0.08571323,3.8639283
alexnet_w1_mlp_simclrhn_probe2,1,588,NaN,elephant,elephant,0,0588_ske_dnn_0_elephant_00_elephant-0071-sketch-26.png,elephant-0071-sketch-26.png,1.0,4.030384,-1.6633819,4.0261006
alexnet_w1_mlp_simclrhn_probe2,1,589,NaN,bicycle,elephant,0,0589_ske_dnn_0_elephant_00_elephant-0075-sketch-3.png,elephant-0075-sketch-3.png,0.0,-5.047758,0.74649286,-4.097154
alexnet_w1_mlp_simclrhn_probe2,1,590,NaN,clock,elephant,0,0590_ske_dnn_0_elephant_00_elephant-0076-sketch-30.png,elephant-0076-sketch-30.png,0.0,-7.0447526,1.0058314,-5.6926227
alexnet_w1_mlp_simclrhn_probe2,1,591,NaN,elephant,elephant,0,0591_ske_dnn_0_elephant_00_elephant-0077-sketch-31.png,elephant-0077-sketch-31.png,1.0,-0.27090305,-0.61048144,0.24011819
alexnet_w1_mlp_simclrhn_probe2,1,592,NaN,clock,elephant,0,0592_ske_dnn_0_elephant_00_elephant-0079-sketch-33.png,elephant-0079-sketch-33.png,0.0,-3.823666,-1.8259255,-1.412616
alexnet_w1_mlp_simclrhn_probe2,1,593,NaN,bicycle,elephant,0,0593_ske_dnn_0_elephant_00_elephant-0080-sketch-34.png,elephant-0080-sketch-34.png,0.0,-5.076684,-0.25001615,-3.4129696
alexnet_w1_mlp_simclrhn_probe2,1,594,NaN,elephant,elephant,0,0594_ske_dnn_0_elephant_00_elephant-0082-sketch-36.png,elephant-0082-sketch-36.png,1.0,-0.2762589,-0.79055434,0.36366183
alexnet_w1_mlp_simclrhn_probe2,1,595,NaN,cat,elephant,0,0595_ske_dnn_0_elephant_00_elephant-0086-sketch-4.png,elephant-0086-sketch-4.png,0.0,-0.670918,-0.39883193,-0.1923939
alexnet_w1_mlp_simclrhn_probe2,1,596,NaN,elephant,elephant,0,0596_ske_dnn_0_elephant_00_elephant-0090-sketch-43.png,elephant-0090-sketch-43.png,1.0,0.10591188,-1.0442255,0.8132699
alexnet_w1_mlp_simclrhn_probe2,1,597,NaN,cat,elephant,0,0597_ske_dnn_0_elephant_00_elephant-0094-sketch-47.png,elephant-0094-sketch-47.png,0.0,-1.9191332,-1.4102556,-0.35983083
alexnet_w1_mlp_simclrhn_probe2,1,598,NaN,clock,elephant,0,0598_ske_dnn_0_elephant_00_elephant-0098-sketch-50.png,elephant-0098-sketch-50.png,0.0,-10.038387,3.6844614,-9.70352
alexnet_w1_mlp_simclrhn_probe2,1,599,NaN,elephant,elephant,0,0599_ske_dnn_0_elephant_00_elephant-0100-sketch-7.png,elephant-0100-sketch-7.png,1.0,0.42110494,-2.192548,1.8481318
alexnet_w1_mlp_simclrhn_probe2,1,600,NaN,clock,elephant,0,0600_ske_dnn_0_elephant_00_elephant-0101-sketch-8.png,elephant-0101-sketch-8.png,0.0,-9.672347,3.3988316,-9.242719
alexnet_w1_mlp_simclrhn_probe2,1,601,NaN,keyboard,keyboard,0,0601_ske_dnn_0_keyboard_00_keyboard-0002-sketch-1.png,keyboard-0002-sketch-1.png,1.0,3.413548,0.66399086,1.9442304
alexnet_w1_mlp_simclrhn_probe2,1,602,NaN,keyboard,keyboard,0,0602_ske_dnn_0_keyboard_00_keyboard-0003-sketch-10.png,keyboard-0003-sketch-10.png,1.0,4.185743,3.1336887,0.74391466
alexnet_w1_mlp_simclrhn_probe2,1,603,NaN,keyboard,keyboard,0,0603_ske_dnn_0_keyboard_00_keyboard-0004-sketch-11.png,keyboard-0004-sketch-11.png,1.0,11.439504,0.120904766,8.003458
alexnet_w1_mlp_simclrhn_probe2,1,604,NaN,keyboard,keyboard,0,0604_ske_dnn_0_keyboard_00_keyboard-0005-sketch-12.png,keyboard-0005-sketch-12.png,1.0,7.658705,0.40397194,5.129871
