subj,session,trial,rt,object_response,category,condition,imagename,filename,is_correct,targ_act,max_nontarg_act,decision_margin
alexnet_w1_mlp_simclrhn_probe3,1,1,NaN,airplane,airplane,0,0001_ske_dnn_0_airplane_00_airplane-0001-sketch-0.png,airplane-0001-sketch-0.png,1.0,4.613023,2.1139219,1.7671312
alexnet_w1_mlp_simclrhn_probe3,1,2,NaN,airplane,airplane,0,0002_ske_dnn_0_airplane_00_airplane-0002-sketch-1.png,airplane-0002-sketch-1.png,1.0,4.285796,2.5408728,1.2338471
alexnet_w1_mlp_simclrhn_probe3,1,3,NaN,airplane,airplane,0,0003_ske_dnn_0_airplane_00_airplane-0003-sketch-10.png,airplane-0003-sketch-10.png,1.0,1.3277454,0.792365,0.37857112
alexnet_w1_mlp_simclrhn_probe3,1,4,NaN,airplane,airplane,0,0004_ske_dnn_0_airplane_00_airplane-0004-sketch-11.png,airplane-0004-sketch-11.png,1.0,1.6337094,0.745685,0.62792814
alexnet_w1_mlp_simclrhn_probe3,1,5,NaN,airplane,airplane,0,0005_ske_dnn_0_airplane_00_airplane-0005-sketch-12.png,airplane-0005-sketch-12.png,1.0,3.5196838,1.0649803,1.7357376
alexnet_w1_mlp_simclrhn_probe3,1,6,NaN,airplane,airplane,0,0006_ske_dnn_0_airplane_00_airplane-0006-sketch-13.png,airplane-0006-sketch-13.png,1.0,8.846319,2.549665,4.452407
alexnet_w1_mlp_simclrhn_probe3,1,7,NaN,airplane,airplane,0,0007_ske_dnn_0_airplane_00_airplane-0007-sketch-14.png,airplane-0007-sketch-14.png,1.0,2.8322215,1.2506758,1.1183217
alexnet_w1_mlp_simclrhn_probe3,1,8,NaN,airplane,airplane,0,0008_ske_dnn_0_airplane_00_airplane-0008-sketch-15.png,airplane-0008-sketch-15.png,1.0,3.7348855,2.8398604,0.63287824
alexnet_w1_mlp_simclrhn_probe3,1,9,NaN,airplane,airplane,0,0009_ske_dnn_0_airplane_00_airplane-0009-sketch-16.png,airplane-0009-sketch-16.png,1.0,5.8180285,2.8572922,2.0935566
alexnet_w1_mlp_simclrhn_probe3,1,10,NaN,airplane,airplane,0,0010_ske_dnn_0_airplane_00_airplane-0010-sketch-17.png,airplane-0010-sketch-17.png,1.0,4.699286,1.2809565,2.417124
alexnet_w1_mlp_simclrhn_probe3,1,11,NaN,airplane,airplane,0,0011_ske_dnn_0_airplane_00_airplane-0011-sketch-18.png,airplane-0011-sketch-18.png,1.0,3.2622113,3.252842,0.0066251475
alexnet_w1_mlp_simclrhn_probe3,1,12,NaN,airplane,airplane,0,0012_ske_dnn_0_airplane_00_airplane-0012-sketch-19.png,airplane-0012-sketch-19.png,1.0,4.0317473,2.9830236,0.7415596
alexnet_w1_mlp_simclrhn_probe3,1,13,NaN,airplane,airplane,0,0013_ske_dnn_0_airplane_00_airplane-0013-sketch-2.png,airplane-0013-sketch-2.png,1.0,3.528078,1.4947163,1.437804
alexnet_w1_mlp_simclrhn_probe3,1,14,NaN,airplane,airplane,0,0014_ske_dnn_0_airplane_00_airplane-0014-sketch-20.png,airplane-0014-sketch-20.png,1.0,5.0300903,1.9881508,2.1509762
alexnet_w1_mlp_simclrhn_probe3,1,15,NaN,airplane,airplane,0,0015_ske_dnn_0_airplane_00_airplane-0015-sketch-21.png,airplane-0015-sketch-21.png,1.0,5.12162,1.3107122,2.6947188
alexnet_w1_mlp_simclrhn_probe3,1,16,NaN,airplane,airplane,0,0016_ske_dnn_0_airplane_00_airplane-0016-sketch-22.png,airplane-0016-sketch-22.png,1.0,4.3872867,1.1619091,2.2806864
alexnet_w1_mlp_simclrhn_probe3,1,17,NaN,airplane,airplane,0,0017_ske_dnn_0_airplane_00_airplane-0017-sketch-23.png,airplane-0017-sketch-23.png,1.0,4.845962,2.867477,1.3990003
alexnet_w1_mlp_simclrhn_probe3,1,18,NaN,airplane,airplane,0,0018_ske_dnn_0_airplane_00_airplane-0018-sketch-24.png,airplane-0018-sketch-24.png,1.0,1.6025954,1.4134935,0.13371526
alexnet_w1_mlp_simclrhn_probe3,1,19,NaN,clock,airplane,0,0019_ske_dnn_0_airplane_00_airplane-0019-sketch-25.png,airplane-0019-sketch-25.png,0.0,3.302348,3.886652,-0.4131654
alexnet_w1_mlp_simclrhn_probe3,1,20,NaN,knife,airplane,0,0020_ske_dnn_0_airplane_00_airplane-0020-sketch-26.png,airplane-0020-sketch-26.png,0.0,1.5660639,1.953824,-0.27418783
alexnet_w1_mlp_simclrhn_probe3,1,21,NaN,knife,airplane,0,0021_ske_dnn_0_airplane_00_airplane-0021-sketch-27.png,airplane-0021-sketch-27.png,0.0,2.2362816,3.9145112,-1.1866876
alexnet_w1_mlp_simclrhn_probe3,1,22,NaN,airplane,airplane,0,0022_ske_dnn_0_airplane_00_airplane-0022-sketch-28.png,airplane-0022-sketch-28.png,1.0,4.5175643,2.3029945,1.5659374
alexnet_w1_mlp_simclrhn_probe3,1,23,NaN,airplane,airplane,0,0023_ske_dnn_0_airplane_00_airplane-0023-sketch-29.png,airplane-0023-sketch-29.png,1.0,1.5250044,1.1607733,0.2575503
alexnet_w1_mlp_simclrhn_probe3,1,24,NaN,airplane,airplane,0,0024_ske_dnn_0_airplane_00_airplane-0024-sketch-3.png,airplane-0024-sketch-3.png,1.0,3.3040712,1.2915738,1.4230506
alexnet_w1_mlp_simclrhn_probe3,1,25,NaN,airplane,airplane,0,0025_ske_dnn_0_airplane_00_airplane-0025-sketch-30.png,airplane-0025-sketch-30.png,1.0,3.8330321,2.804315,0.7274128
alexnet_w1_mlp_simclrhn_probe3,1,26,NaN,clock,airplane,0,0026_ske_dnn_0_airplane_00_airplane-0027-sketch-32.png,airplane-0027-sketch-32.png,0.0,2.1445367,2.8826277,-0.5219092
alexnet_w1_mlp_simclrhn_probe3,1,27,NaN,knife,airplane,0,0027_ske_dnn_0_airplane_00_airplane-0028-sketch-33.png,airplane-0028-sketch-33.png,0.0,1.8666607,3.1599352,-0.9144832
alexnet_w1_mlp_simclrhn_probe3,1,28,NaN,airplane,airplane,0,0028_ske_dnn_0_airplane_00_airplane-0029-sketch-34.png,airplane-0029-sketch-34.png,1.0,3.1914213,2.8771422,0.22222887
alexnet_w1_mlp_simclrhn_probe3,1,29,NaN,airplane,airplane,0,0029_ske_dnn_0_airplane_00_airplane-0030-sketch-35.png,airplane-0030-sketch-35.png,1.0,3.0356774,1.8170565,0.8616951
alexnet_w1_mlp_simclrhn_probe3,1,30,NaN,airplane,airplane,0,0030_ske_dnn_0_airplane_00_airplane-0031-sketch-36.png,airplane-0031-sketch-36.png,1.0,2.3866477,2.2304628,0.11043941
alexnet_w1_mlp_simclrhn_probe3,1,31,NaN,airplane,airplane,0,0031_ske_dnn_0_airplane_00_airplane-0032-sketch-37.png,airplane-0032-sketch-37.png,1.0,3.576999,1.931219,1.1637422
alexnet_w1_mlp_simclrhn_probe3,1,32,NaN,airplane,airplane,0,0032_ske_dnn_0_airplane_00_airplane-0033-sketch-38.png,airplane-0033-sketch-38.png,1.0,2.6106758,1.7511244,0.60779464
alexnet_w1_mlp_simclrhn_probe3,1,33,NaN,clock,airplane,0,0033_ske_dnn_0_airplane_00_airplane-0034-sketch-39.png,airplane-0034-sketch-39.png,0.0,1.3498679,1.8137794,-0.3280349
alexnet_w1_mlp_simclrhn_probe3,1,34,NaN,airplane,airplane,0,0034_ske_dnn_0_airplane_00_airplane-0035-sketch-4.png,airplane-0035-sketch-4.png,1.0,4.59549,3.1667693,1.0102581
alexnet_w1_mlp_simclrhn_probe3,1,35,NaN,airplane,airplane,0,0035_ske_dnn_0_airplane_00_airplane-0036-sketch-40.png,airplane-0036-sketch-40.png,1.0,5.971854,1.8565869,2.9099333
alexnet_w1_mlp_simclrhn_probe3,1,36,NaN,airplane,airplane,0,0036_ske_dnn_0_airplane_00_airplane-0037-sketch-41.png,airplane-0037-sketch-41.png,1.0,3.0582814,2.8311574,0.1606009
alexnet_w1_mlp_simclrhn_probe3,1,37,NaN,clock,airplane,0,0037_ske_dnn_0_airplane_00_airplane-0038-sketch-42.png,airplane-0038-sketch-42.png,0.0,1.9576293,2.9327285,-0.68949926
alexnet_w1_mlp_simclrhn_probe3,1,38,NaN,knife,airplane,0,0038_ske_dnn_0_airplane_00_airplane-0039-sketch-43.png,airplane-0039-sketch-43.png,0.0,1.1980526,1.9021428,-0.4978669
alexnet_w1_mlp_simclrhn_probe3,1,39,NaN,knife,airplane,0,0039_ske_dnn_0_airplane_00_airplane-0040-sketch-44.png,airplane-0040-sketch-44.png,0.0,0.9977722,2.766645,-1.2507819
alexnet_w1_mlp_simclrhn_probe3,1,40,NaN,airplane,airplane,0,0040_ske_dnn_0_airplane_00_airplane-0041-sketch-45.png,airplane-0041-sketch-45.png,1.0,4.1180735,1.886579,1.5779048
alexnet_w1_mlp_simclrhn_probe3,1,41,NaN,knife,airplane,0,0041_ske_dnn_0_airplane_00_airplane-0042-sketch-46.png,airplane-0042-sketch-46.png,0.0,1.2476301,1.9459884,-0.4938139
alexnet_w1_mlp_simclrhn_probe3,1,42,NaN,airplane,airplane,0,0042_ske_dnn_0_airplane_00_airplane-0043-sketch-47.png,airplane-0043-sketch-47.png,1.0,4.3160267,3.705008,0.43205544
alexnet_w1_mlp_simclrhn_probe3,1,43,NaN,airplane,airplane,0,0043_ske_dnn_0_airplane_00_airplane-0044-sketch-48.png,airplane-0044-sketch-48.png,1.0,4.047429,2.229506,1.2854657
alexnet_w1_mlp_simclrhn_probe3,1,44,NaN,airplane,airplane,0,0044_ske_dnn_0_airplane_00_airplane-0045-sketch-49.png,airplane-0045-sketch-49.png,1.0,3.4460442,2.4896047,0.6763049
alexnet_w1_mlp_simclrhn_probe3,1,45,NaN,airplane,airplane,0,0045_ske_dnn_0_airplane_00_airplane-0046-sketch-5.png,airplane-0046-sketch-5.png,1.0,1.514607,0.93091756,0.41273072
alexnet_w1_mlp_simclrhn_probe3,1,46,NaN,airplane,airplane,0,0046_ske_dnn_0_airplane_00_airplane-0047-sketch-50.png,airplane-0047-sketch-50.png,1.0,3.7485256,2.5323427,0.8599712
alexnet_w1_mlp_simclrhn_probe3,1,47,NaN,airplane,airplane,0,0047_ske_dnn_0_airplane_00_airplane-0048-sketch-6.png,airplane-0048-sketch-6.png,1.0,3.5635571,1.5838606,1.3998568
alexnet_w1_mlp_simclrhn_probe3,1,48,NaN,airplane,airplane,0,0048_ske_dnn_0_airplane_00_airplane-0049-sketch-7.png,airplane-0049-sketch-7.png,1.0,4.1055336,2.5605896,1.0924405
alexnet_w1_mlp_simclrhn_probe3,1,49,NaN,clock,airplane,0,0049_ske_dnn_0_airplane_00_airplane-0050-sketch-8.png,airplane-0050-sketch-8.png,0.0,1.3020449,3.3115196,-1.4209132
alexnet_w1_mlp_simclrhn_probe3,1,50,NaN,airplane,airplane,0,0050_ske_dnn_0_airplane_00_airplane-0051-sketch-9.png,airplane-0051-sketch-9.png,1.0,4.922348,2.32854,1.8340992
alexnet_w1_mlp_simclrhn_probe3,1,51,NaN,bird,bear,0,0051_ske_dnn_0_bear_00_bear-0005-sketch-12.png,bear-0005-sketch-12.png,0.0,-0.8085362,1.1914479,-1.4142023
alexnet_w1_mlp_simclrhn_probe3,1,52,NaN,clock,bear,0,0052_ske_dnn_0_bear_00_bear-0007-sketch-14.png,bear-0007-sketch-14.png,0.0,-0.18190733,1.9533497,-1.5098548
alexnet_w1_mlp_simclrhn_probe3,1,53,NaN,cat,bear,0,0053_ske_dnn_0_bear_00_bear-0017-sketch-23.png,bear-0017-sketch-23.png,0.0,0.7129736,3.73227,-2.134965
alexnet_w1_mlp_simclrhn_probe3,1,54,NaN,elephant,bear,0,0054_ske_dnn_0_bear_00_bear-0022-sketch-28.png,bear-0022-sketch-28.png,0.0,0.12196559,2.4783697,-1.6662294
alexnet_w1_mlp_simclrhn_probe3,1,55,NaN,cat,bear,0,0055_ske_dnn_0_bear_00_bear-0023-sketch-29.png,bear-0023-sketch-29.png,0.0,0.24913841,2.2922335,-1.4446864
alexnet_w1_mlp_simclrhn_probe3,1,56,NaN,cat,bear,0,0056_ske_dnn_0_bear_00_bear-0026-sketch-31.png,bear-0026-sketch-31.png,0.0,1.3256787,2.3588524,-0.7305641
alexnet_w1_mlp_simclrhn_probe3,1,57,NaN,cat,bear,0,0057_ske_dnn_0_bear_00_bear-0027-sketch-32.png,bear-0027-sketch-32.png,0.0,-0.9818867,4.189121,-3.6564546
alexnet_w1_mlp_simclrhn_probe3,1,58,NaN,cat,bear,0,0058_ske_dnn_0_bear_00_bear-0030-sketch-35.png,bear-0030-sketch-35.png,0.0,0.9376643,1.1003593,-0.115042776
alexnet_w1_mlp_simclrhn_probe3,1,59,NaN,cat,bear,0,0059_ske_dnn_0_bear_00_bear-0033-sketch-38.png,bear-0033-sketch-38.png,0.0,1.7188839,4.8232827,-2.1951413
alexnet_w1_mlp_simclrhn_probe3,1,60,NaN,cat,bear,0,0060_ske_dnn_0_bear_00_bear-0036-sketch-40.png,bear-0036-sketch-40.png,0.0,-1.2793046,1.1902102,-1.7462107
alexnet_w1_mlp_simclrhn_probe3,1,61,NaN,bear,bear,0,0061_ske_dnn_0_bear_00_bear-0037-sketch-41.png,bear-0037-sketch-41.png,1.0,2.7796848,2.2580757,0.3688333
alexnet_w1_mlp_simclrhn_probe3,1,62,NaN,cat,bear,0,0062_ske_dnn_0_bear_00_bear-0038-sketch-42.png,bear-0038-sketch-42.png,0.0,1.0814867,2.6204617,-1.0882196
alexnet_w1_mlp_simclrhn_probe3,1,63,NaN,elephant,bear,0,0063_ske_dnn_0_bear_00_bear-0039-sketch-43.png,bear-0039-sketch-43.png,0.0,2.224798,2.5449913,-0.22641085
alexnet_w1_mlp_simclrhn_probe3,1,64,NaN,bear,bear,0,0064_ske_dnn_0_bear_00_bear-0041-sketch-45.png,bear-0041-sketch-45.png,1.0,1.3280954,0.9582267,0.26153672
alexnet_w1_mlp_simclrhn_probe3,1,65,NaN,elephant,bear,0,0065_ske_dnn_0_bear_00_bear-0045-sketch-49.png,bear-0045-sketch-49.png,0.0,4.508046,4.7338533,-0.1596698
alexnet_w1_mlp_simclrhn_probe3,1,66,NaN,cat,bear,0,0066_ske_dnn_0_bear_00_bear-0048-sketch-7.png,bear-0048-sketch-7.png,0.0,-0.87267375,1.938448,-1.9877633
alexnet_w1_mlp_simclrhn_probe3,1,67,NaN,cat,bear,0,0067_ske_dnn_0_bear_00_bear-0049-sketch-8.png,bear-0049-sketch-8.png,0.0,-0.8725556,3.9527466,-3.412004
alexnet_w1_mlp_simclrhn_probe3,1,68,NaN,cat,bear,0,0068_ske_dnn_0_bear_00_bear-0053-sketch-10.png,bear-0053-sketch-10.png,0.0,0.18231083,5.2190423,-3.561507
alexnet_w1_mlp_simclrhn_probe3,1,69,NaN,bear,bear,0,0069_ske_dnn_0_bear_00_bear-0059-sketch-16.png,bear-0059-sketch-16.png,1.0,2.6285102,0.40502918,1.5722387
alexnet_w1_mlp_simclrhn_probe3,1,70,NaN,airplane,bear,0,0070_ske_dnn_0_bear_00_bear-0068-sketch-24.png,bear-0068-sketch-24.png,0.0,0.6177406,1.5499539,-0.6591744
alexnet_w1_mlp_simclrhn_probe3,1,71,NaN,oven,bear,0,0071_ske_dnn_0_bear_00_bear-0070-sketch-26.png,bear-0070-sketch-26.png,0.0,-1.0220485,0.5570441,-1.116587
alexnet_w1_mlp_simclrhn_probe3,1,72,NaN,cat,bear,0,0072_ske_dnn_0_bear_00_bear-0073-sketch-29.png,bear-0073-sketch-29.png,0.0,2.6363363,2.981302,-0.24392758
alexnet_w1_mlp_simclrhn_probe3,1,73,NaN,bear,bear,0,0073_ske_dnn_0_bear_00_bear-0079-sketch-34.png,bear-0079-sketch-34.png,1.0,6.435977,2.2741983,2.9428217
alexnet_w1_mlp_simclrhn_probe3,1,74,NaN,bear,bear,0,0074_ske_dnn_0_bear_00_bear-0081-sketch-36.png,bear-0081-sketch-36.png,1.0,2.4194849,1.3957297,0.72390425
alexnet_w1_mlp_simclrhn_probe3,1,75,NaN,cat,bear,0,0075_ske_dnn_0_bear_00_bear-0085-sketch-4.png,bear-0085-sketch-4.png,0.0,2.0488186,3.197569,-0.8122891
alexnet_w1_mlp_simclrhn_probe3,1,76,NaN,airplane,bear,0,0076_ske_dnn_0_bear_00_bear-0086-sketch-40.png,bear-0086-sketch-40.png,0.0,0.65082204,1.3322477,-0.48184073
alexnet_w1_mlp_simclrhn_probe3,1,77,NaN,clock,bear,0,0077_ske_dnn_0_bear_00_bear-0087-sketch-41.png,bear-0087-sketch-41.png,0.0,-0.15121338,2.3144476,-1.7434857
alexnet_w1_mlp_simclrhn_probe3,1,78,NaN,clock,bear,0,0078_ske_dnn_0_bear_00_bear-0090-sketch-44.png,bear-0090-sketch-44.png,0.0,0.025307864,4.0949264,-2.877655
alexnet_w1_mlp_simclrhn_probe3,1,79,NaN,clock,bear,0,0079_ske_dnn_0_bear_00_bear-0103-sketch-1.png,bear-0103-sketch-1.png,0.0,-0.36419135,2.39843,-1.9534683
alexnet_w1_mlp_simclrhn_probe3,1,80,NaN,clock,bear,0,0080_ske_dnn_0_bear_00_bear-0107-sketch-13.png,bear-0107-sketch-13.png,0.0,-0.38334265,1.3954636,-1.257806
alexnet_w1_mlp_simclrhn_probe3,1,81,NaN,cat,bear,0,0081_ske_dnn_0_bear_00_bear-0110-sketch-16.png,bear-0110-sketch-16.png,0.0,-0.37090728,1.255631,-1.1501362
alexnet_w1_mlp_simclrhn_probe3,1,82,NaN,elephant,bear,0,0082_ske_dnn_0_bear_00_bear-0112-sketch-18.png,bear-0112-sketch-18.png,0.0,0.08184996,0.7343471,-0.4613852
alexnet_w1_mlp_simclrhn_probe3,1,83,NaN,clock,bear,0,0083_ske_dnn_0_bear_00_bear-0117-sketch-22.png,bear-0117-sketch-22.png,0.0,-0.7649204,3.1203372,-2.747292
alexnet_w1_mlp_simclrhn_probe3,1,84,NaN,elephant,bear,0,0084_ske_dnn_0_bear_00_bear-0123-sketch-28.png,bear-0123-sketch-28.png,0.0,0.39936072,1.198771,-0.56526846
alexnet_w1_mlp_simclrhn_probe3,1,85,NaN,clock,bear,0,0085_ske_dnn_0_bear_00_bear-0135-sketch-39.png,bear-0135-sketch-39.png,0.0,-0.309498,3.6741364,-2.816855
alexnet_w1_mlp_simclrhn_probe3,1,86,NaN,clock,bear,0,0086_ske_dnn_0_bear_00_bear-0136-sketch-4.png,bear-0136-sketch-4.png,0.0,-0.19219434,1.7360626,-1.3634837
alexnet_w1_mlp_simclrhn_probe3,1,87,NaN,clock,bear,0,0087_ske_dnn_0_bear_00_bear-0137-sketch-40.png,bear-0137-sketch-40.png,0.0,-0.113382444,1.3147821,-1.0098649
alexnet_w1_mlp_simclrhn_probe3,1,88,NaN,cat,bear,0,0088_ske_dnn_0_bear_00_bear-0148-sketch-50.png,bear-0148-sketch-50.png,0.0,1.6240194,2.0656993,-0.3123149
alexnet_w1_mlp_simclrhn_probe3,1,89,NaN,bicycle,bear,0,0089_ske_dnn_0_bear_00_bear-0149-sketch-6.png,bear-0149-sketch-6.png,0.0,-0.63018525,1.078755,-1.2084032
alexnet_w1_mlp_simclrhn_probe3,1,90,NaN,bear,bear,0,0090_ske_dnn_0_bear_00_bear-0161-sketch-16.png,bear-0161-sketch-16.png,1.0,2.8340263,2.007076,0.5847422
alexnet_w1_mlp_simclrhn_probe3,1,91,NaN,cat,bear,0,0091_ske_dnn_0_bear_00_bear-0166-sketch-20.png,bear-0166-sketch-20.png,0.0,-1.3056374,2.7244158,-2.849678
alexnet_w1_mlp_simclrhn_probe3,1,92,NaN,clock,bear,0,0092_ske_dnn_0_bear_00_bear-0170-sketch-24.png,bear-0170-sketch-24.png,0.0,0.3655589,3.9135644,-2.5088189
alexnet_w1_mlp_simclrhn_probe3,1,93,NaN,bear,bear,0,0093_ske_dnn_0_bear_00_bear-0171-sketch-25.png,bear-0171-sketch-25.png,1.0,3.2030654,1.1606294,1.4442204
alexnet_w1_mlp_simclrhn_probe3,1,94,NaN,cat,bear,0,0094_ske_dnn_0_bear_00_bear-0179-sketch-32.png,bear-0179-sketch-32.png,0.0,-0.9196951,2.1751647,-2.1883965
alexnet_w1_mlp_simclrhn_probe3,1,95,NaN,clock,bear,0,0095_ske_dnn_0_bear_00_bear-0187-sketch-4.png,bear-0187-sketch-4.png,0.0,-0.33308962,3.5599964,-2.7528276
alexnet_w1_mlp_simclrhn_probe3,1,96,NaN,bear,bear,0,0096_ske_dnn_0_bear_00_bear-0188-sketch-40.png,bear-0188-sketch-40.png,1.0,3.2315907,1.3203281,1.3514668
alexnet_w1_mlp_simclrhn_probe3,1,97,NaN,cat,bear,0,0097_ske_dnn_0_bear_00_bear-0195-sketch-47.png,bear-0195-sketch-47.png,0.0,-0.40401998,0.96719027,-0.96959203
alexnet_w1_mlp_simclrhn_probe3,1,98,NaN,cat,bear,0,0098_ske_dnn_0_bear_00_bear-0198-sketch-5.png,bear-0198-sketch-5.png,0.0,1.2216324,3.752023,-1.7892565
alexnet_w1_mlp_simclrhn_probe3,1,99,NaN,cat,bear,0,0099_ske_dnn_0_bear_00_bear-0199-sketch-50.png,bear-0199-sketch-50.png,0.0,-0.7425411,3.099621,-2.716819
alexnet_w1_mlp_simclrhn_probe3,1,100,NaN,keyboard,bear,0,0100_ske_dnn_0_bear_00_bear-0201-sketch-7.png,bear-0201-sketch-7.png,0.0,-0.23183656,1.0412846,-0.9002326
alexnet_w1_mlp_simclrhn_probe3,1,101,NaN,bicycle,bicycle,0,0101_ske_dnn_0_bicycle_00_bicycle-0002-sketch-1.png,bicycle-0002-sketch-1.png,1.0,18.376816,7.344015,7.801368
alexnet_w1_mlp_simclrhn_probe3,1,102,NaN,clock,bicycle,0,0102_ske_dnn_0_bicycle_00_bicycle-0003-sketch-10.png,bicycle-0003-sketch-10.png,0.0,-0.2853175,2.7381432,-2.1379097
alexnet_w1_mlp_simclrhn_probe3,1,103,NaN,bicycle,bicycle,0,0103_ske_dnn_0_bicycle_00_bicycle-0004-sketch-11.png,bicycle-0004-sketch-11.png,1.0,7.859559,3.8096132,2.8637443
alexnet_w1_mlp_simclrhn_probe3,1,104,NaN,bicycle,bicycle,0,0104_ske_dnn_0_bicycle_00_bicycle-0008-sketch-15.png,bicycle-0008-sketch-15.png,1.0,3.9825263,1.0534587,2.0711637
alexnet_w1_mlp_simclrhn_probe3,1,105,NaN,bicycle,bicycle,0,0105_ske_dnn_0_bicycle_00_bicycle-0011-sketch-18.png,bicycle-0011-sketch-18.png,1.0,5.558851,1.3371259,2.9852104
alexnet_w1_mlp_simclrhn_probe3,1,106,NaN,bicycle,bicycle,0,0106_ske_dnn_0_bicycle_00_bicycle-0013-sketch-2.png,bicycle-0013-sketch-2.png,1.0,14.913624,1.8729264,9.221166
alexnet_w1_mlp_simclrhn_probe3,1,107,NaN,clock,bicycle,0,0107_ske_dnn_0_bicycle_00_bicycle-0016-sketch-22.png,bicycle-0016-sketch-22.png,0.0,-0.295076,2.6743422,-2.0996957
alexnet_w1_mlp_simclrhn_probe3,1,108,NaN,bicycle,bicycle,0,0108_ske_dnn_0_bicycle_00_bicycle-0019-sketch-25.png,bicycle-0019-sketch-25.png,1.0,12.563684,5.637042,4.897876
alexnet_w1_mlp_simclrhn_probe3,1,109,NaN,bicycle,bicycle,0,0109_ske_dnn_0_bicycle_00_bicycle-0020-sketch-26.png,bicycle-0020-sketch-26.png,1.0,4.442481,1.3421698,2.1922512
alexnet_w1_mlp_simclrhn_probe3,1,110,NaN,bicycle,bicycle,0,0110_ske_dnn_0_bicycle_00_bicycle-0022-sketch-28.png,bicycle-0022-sketch-28.png,1.0,6.039854,1.2609402,3.3792026
alexnet_w1_mlp_simclrhn_probe3,1,111,NaN,clock,bicycle,0,0111_ske_dnn_0_bicycle_00_bicycle-0023-sketch-29.png,bicycle-0023-sketch-29.png,0.0,2.8147943,4.030567,-0.85968125
alexnet_w1_mlp_simclrhn_probe3,1,112,NaN,clock,bicycle,0,0112_ske_dnn_0_bicycle_00_bicycle-0025-sketch-30.png,bicycle-0025-sketch-30.png,0.0,2.1290567,2.1423101,-0.009371605
alexnet_w1_mlp_simclrhn_probe3,1,113,NaN,bicycle,bicycle,0,0113_ske_dnn_0_bicycle_00_bicycle-0026-sketch-31.png,bicycle-0026-sketch-31.png,1.0,2.7655046,2.1613421,0.42720738
alexnet_w1_mlp_simclrhn_probe3,1,114,NaN,bicycle,bicycle,0,0114_ske_dnn_0_bicycle_00_bicycle-0031-sketch-36.png,bicycle-0031-sketch-36.png,1.0,2.2836387,0.96530175,0.932205
alexnet_w1_mlp_simclrhn_probe3,1,115,NaN,bicycle,bicycle,0,0115_ske_dnn_0_bicycle_00_bicycle-0034-sketch-39.png,bicycle-0034-sketch-39.png,1.0,2.4559836,1.5582172,0.63481677
alexnet_w1_mlp_simclrhn_probe3,1,116,NaN,clock,bicycle,0,0116_ske_dnn_0_bicycle_00_bicycle-0037-sketch-41.png,bicycle-0037-sketch-41.png,0.0,2.8272042,4.599687,-1.2533346
alexnet_w1_mlp_simclrhn_probe3,1,117,NaN,bicycle,bicycle,0,0117_ske_dnn_0_bicycle_00_bicycle-0038-sketch-42.png,bicycle-0038-sketch-42.png,1.0,2.3552082,2.1847312,0.12054539
alexnet_w1_mlp_simclrhn_probe3,1,118,NaN,bicycle,bicycle,0,0118_ske_dnn_0_bicycle_00_bicycle-0039-sketch-43.png,bicycle-0039-sketch-43.png,1.0,3.3254895,1.8471022,1.0453777
alexnet_w1_mlp_simclrhn_probe3,1,119,NaN,bicycle,bicycle,0,0119_ske_dnn_0_bicycle_00_bicycle-0040-sketch-44.png,bicycle-0040-sketch-44.png,1.0,3.4631925,1.0494446,1.7067775
alexnet_w1_mlp_simclrhn_probe3,1,120,NaN,bicycle,bicycle,0,0120_ske_dnn_0_bicycle_00_bicycle-0044-sketch-48.png,bicycle-0044-sketch-48.png,1.0,6.360517,0.7979736,3.9333122
alexnet_w1_mlp_simclrhn_probe3,1,121,NaN,bicycle,bicycle,0,0121_ske_dnn_0_bicycle_00_bicycle-0045-sketch-49.png,bicycle-0045-sketch-49.png,1.0,18.376816,7.344015,7.801368
alexnet_w1_mlp_simclrhn_probe3,1,122,NaN,clock,bicycle,0,0122_ske_dnn_0_bicycle_00_bicycle-0046-sketch-5.png,bicycle-0046-sketch-5.png,0.0,3.6494646,4.6588626,-0.71375215
alexnet_w1_mlp_simclrhn_probe3,1,123,NaN,bicycle,bicycle,0,0123_ske_dnn_0_bicycle_00_bicycle-0047-sketch-50.png,bicycle-0047-sketch-50.png,1.0,14.913624,1.8729264,9.221166
alexnet_w1_mlp_simclrhn_probe3,1,124,NaN,bicycle,bicycle,0,0124_ske_dnn_0_bicycle_00_bicycle-0048-sketch-6.png,bicycle-0048-sketch-6.png,1.0,5.4593315,1.5601772,2.7571185
alexnet_w1_mlp_simclrhn_probe3,1,125,NaN,bicycle,bicycle,0,0125_ske_dnn_0_bicycle_00_bicycle-0053-sketch-1.png,bicycle-0053-sketch-1.png,1.0,4.200129,1.109041,2.1857293
alexnet_w1_mlp_simclrhn_probe3,1,126,NaN,bicycle,bicycle,0,0126_ske_dnn_0_bicycle_00_bicycle-0054-sketch-10.png,bicycle-0054-sketch-10.png,1.0,8.161701,0.91161144,5.126588
alexnet_w1_mlp_simclrhn_probe3,1,127,NaN,bicycle,bicycle,0,0127_ske_dnn_0_bicycle_00_bicycle-0056-sketch-12.png,bicycle-0056-sketch-12.png,1.0,3.2243495,0.5510399,1.8903153
alexnet_w1_mlp_simclrhn_probe3,1,128,NaN,clock,bicycle,0,0128_ske_dnn_0_bicycle_00_bicycle-0057-sketch-13.png,bicycle-0057-sketch-13.png,0.0,0.3471208,1.6888108,-0.94871813
alexnet_w1_mlp_simclrhn_probe3,1,129,NaN,bicycle,bicycle,0,0129_ske_dnn_0_bicycle_00_bicycle-0058-sketch-14.png,bicycle-0058-sketch-14.png,1.0,2.8920853,1.2399662,1.1682247
alexnet_w1_mlp_simclrhn_probe3,1,130,NaN,clock,bicycle,0,0130_ske_dnn_0_bicycle_00_bicycle-0059-sketch-15.png,bicycle-0059-sketch-15.png,0.0,0.0057106763,4.0828886,-2.8830004
alexnet_w1_mlp_simclrhn_probe3,1,131,NaN,clock,bicycle,0,0131_ske_dnn_0_bicycle_00_bicycle-0060-sketch-16.png,bicycle-0060-sketch-16.png,0.0,1.2741814,2.8462868,-1.1116464
alexnet_w1_mlp_simclrhn_probe3,1,132,NaN,clock,bicycle,0,0132_ske_dnn_0_bicycle_00_bicycle-0062-sketch-18.png,bicycle-0062-sketch-18.png,0.0,1.407965,3.5379918,-1.5061564
alexnet_w1_mlp_simclrhn_probe3,1,133,NaN,bicycle,bicycle,0,0133_ske_dnn_0_bicycle_00_bicycle-0066-sketch-21.png,bicycle-0066-sketch-21.png,1.0,6.515543,2.6457655,2.736346
alexnet_w1_mlp_simclrhn_probe3,1,134,NaN,bicycle,bicycle,0,0134_ske_dnn_0_bicycle_00_bicycle-0068-sketch-23.png,bicycle-0068-sketch-23.png,1.0,16.47496,3.8544369,8.924058
alexnet_w1_mlp_simclrhn_probe3,1,135,NaN,clock,bicycle,0,0135_ske_dnn_0_bicycle_00_bicycle-0070-sketch-25.png,bicycle-0070-sketch-25.png,0.0,1.2665782,4.0096793,-1.9396654
alexnet_w1_mlp_simclrhn_probe3,1,136,NaN,clock,bicycle,0,0136_ske_dnn_0_bicycle_00_bicycle-0071-sketch-26.png,bicycle-0071-sketch-26.png,0.0,2.0304651,4.5720983,-1.797206
alexnet_w1_mlp_simclrhn_probe3,1,137,NaN,bicycle,bicycle,0,0137_ske_dnn_0_bicycle_00_bicycle-0075-sketch-3.png,bicycle-0075-sketch-3.png,1.0,5.2512956,3.1593606,1.4792213
alexnet_w1_mlp_simclrhn_probe3,1,138,NaN,bicycle,bicycle,0,0138_ske_dnn_0_bicycle_00_bicycle-0078-sketch-32.png,bicycle-0078-sketch-32.png,1.0,12.98624,7.4406104,3.9213526
alexnet_w1_mlp_simclrhn_probe3,1,139,NaN,bicycle,bicycle,0,0139_ske_dnn_0_bicycle_00_bicycle-0080-sketch-34.png,bicycle-0080-sketch-34.png,1.0,6.5548587,5.4485993,0.7822435
alexnet_w1_mlp_simclrhn_probe3,1,140,NaN,bicycle,bicycle,0,0140_ske_dnn_0_bicycle_00_bicycle-0081-sketch-35.png,bicycle-0081-sketch-35.png,1.0,3.8713906,2.7059517,0.82408977
alexnet_w1_mlp_simclrhn_probe3,1,141,NaN,clock,bicycle,0,0141_ske_dnn_0_bicycle_00_bicycle-0083-sketch-37.png,bicycle-0083-sketch-37.png,0.0,0.25338402,3.5114772,-2.30382
alexnet_w1_mlp_simclrhn_probe3,1,142,NaN,clock,bicycle,0,0142_ske_dnn_0_bicycle_00_bicycle-0084-sketch-38.png,bicycle-0084-sketch-38.png,0.0,-0.049942177,3.9074497,-2.7982988
alexnet_w1_mlp_simclrhn_probe3,1,143,NaN,bicycle,bicycle,0,0143_ske_dnn_0_bicycle_00_bicycle-0087-sketch-40.png,bicycle-0087-sketch-40.png,1.0,12.782845,3.3049443,6.7018876
alexnet_w1_mlp_simclrhn_probe3,1,144,NaN,bicycle,bicycle,0,0144_ske_dnn_0_bicycle_00_bicycle-0090-sketch-43.png,bicycle-0090-sketch-43.png,1.0,7.562379,7.092413,0.3323161
alexnet_w1_mlp_simclrhn_probe3,1,145,NaN,clock,bicycle,0,0145_ske_dnn_0_bicycle_00_bicycle-0094-sketch-47.png,bicycle-0094-sketch-47.png,0.0,-0.06818054,3.8567781,-2.7753649
alexnet_w1_mlp_simclrhn_probe3,1,146,NaN,clock,bicycle,0,0146_ske_dnn_0_bicycle_00_bicycle-0095-sketch-48.png,bicycle-0095-sketch-48.png,0.0,1.4455327,3.0302515,-1.1205654
alexnet_w1_mlp_simclrhn_probe3,1,147,NaN,clock,bicycle,0,0147_ske_dnn_0_bicycle_00_bicycle-0098-sketch-50.png,bicycle-0098-sketch-50.png,0.0,1.5035384,3.6667824,-1.5296445
alexnet_w1_mlp_simclrhn_probe3,1,148,NaN,clock,bicycle,0,0148_ske_dnn_0_bicycle_00_bicycle-0099-sketch-6.png,bicycle-0099-sketch-6.png,0.0,-0.0055196136,4.1069126,-2.9079287
alexnet_w1_mlp_simclrhn_probe3,1,149,NaN,bicycle,bicycle,0,0149_ske_dnn_0_bicycle_00_bicycle-0101-sketch-8.png,bicycle-0101-sketch-8.png,1.0,10.765819,2.9977806,5.492832
alexnet_w1_mlp_simclrhn_probe3,1,150,NaN,bicycle,bicycle,0,0150_ske_dnn_0_bicycle_00_bicycle-0102-sketch-9.png,bicycle-0102-sketch-9.png,1.0,2.6356258,1.9370137,0.49399337
alexnet_w1_mlp_simclrhn_probe3,1,151,NaN,clock,bird,0,0151_ske_dnn_0_bird_00_bird-0030-sketch-35.png,bird-0030-sketch-35.png,0.0,-0.5293326,3.2185314,-2.65014
alexnet_w1_mlp_simclrhn_probe3,1,152,NaN,cat,bird,0,0152_ske_dnn_0_bird_00_bird-0047-sketch-50.png,bird-0047-sketch-50.png,0.0,0.26822495,0.42368022,-0.109923474
alexnet_w1_mlp_simclrhn_probe3,1,153,NaN,bicycle,bird,0,0153_ske_dnn_0_bird_00_bird-0072-sketch-27.png,bird-0072-sketch-27.png,0.0,-0.029035458,1.0229566,-0.74387074
alexnet_w1_mlp_simclrhn_probe3,1,154,NaN,bird,bird,0,0154_ske_dnn_0_bird_00_bird-0228-sketch-3.png,bird-0228-sketch-3.png,1.0,3.7828043,0.6963825,2.1824298
alexnet_w1_mlp_simclrhn_probe3,1,155,NaN,bird,bird,0,0155_ske_dnn_0_bird_00_bird-0274-sketch-25.png,bird-0274-sketch-25.png,1.0,1.6578,0.54724824,0.7852787
alexnet_w1_mlp_simclrhn_probe3,1,156,NaN,airplane,bird,0,0156_ske_dnn_0_bird_00_bird-0292-sketch-41.png,bird-0292-sketch-41.png,0.0,1.4454461,2.1926742,-0.52837
alexnet_w1_mlp_simclrhn_probe3,1,157,NaN,clock,bird,0,0157_ske_dnn_0_bird_00_bird-0316-sketch-17.png,bird-0316-sketch-17.png,0.0,-0.22161227,1.8044281,-1.4326268
alexnet_w1_mlp_simclrhn_probe3,1,158,NaN,clock,bird,0,0158_ske_dnn_0_bird_00_bird-0325-sketch-25.png,bird-0325-sketch-25.png,0.0,0.14472175,0.7548957,-0.43145815
alexnet_w1_mlp_simclrhn_probe3,1,159,NaN,clock,bird,0,0159_ske_dnn_0_bird_00_bird-0357-sketch-9.png,bird-0357-sketch-9.png,0.0,0.48252198,2.4018047,-1.3571378
alexnet_w1_mlp_simclrhn_probe3,1,160,NaN,bird,bird,0,0160_ske_dnn_0_bird_00_bird-0384-sketch-32.png,bird-0384-sketch-32.png,1.0,1.482371,0.8508512,0.44655195
alexnet_w1_mlp_simclrhn_probe3,1,161,NaN,bird,bird,0,0161_ske_dnn_0_bird_00_bird-0415-sketch-14.png,bird-0415-sketch-14.png,1.0,2.5382216,0.93091667,1.1365362
alexnet_w1_mlp_simclrhn_probe3,1,162,NaN,bicycle,bird,0,0162_ske_dnn_0_bird_00_bird-0474-sketch-21.png,bird-0474-sketch-21.png,0.0,0.43457493,0.91437405,-0.33926922
alexnet_w1_mlp_simclrhn_probe3,1,163,NaN,bird,bird,0,0163_ske_dnn_0_bird_00_bird-0479-sketch-26.png,bird-0479-sketch-26.png,1.0,1.3338007,0.3554733,0.69178194
alexnet_w1_mlp_simclrhn_probe3,1,164,NaN,airplane,bird,0,0164_ske_dnn_0_bird_00_bird-0491-sketch-37.png,bird-0491-sketch-37.png,0.0,1.1698846,2.8893075,-1.2158157
alexnet_w1_mlp_simclrhn_probe3,1,165,NaN,bird,bird,0,0165_ske_dnn_0_bird_00_bird-0578-sketch-23.png,bird-0578-sketch-23.png,1.0,2.0494356,0.6327419,1.0017537
alexnet_w1_mlp_simclrhn_probe3,1,166,NaN,bird,bird,0,0166_ske_dnn_0_bird_00_bird-0640-sketch-33.png,bird-0640-sketch-33.png,1.0,2.169444,0.45843086,1.209869
alexnet_w1_mlp_simclrhn_probe3,1,167,NaN,clock,bird,0,0167_ske_dnn_0_bird_00_bird-0646-sketch-39.png,bird-0646-sketch-39.png,0.0,0.028440284,2.4505298,-1.712676
alexnet_w1_mlp_simclrhn_probe3,1,168,NaN,bottle,bird,0,0168_ske_dnn_0_bird_00_bird-0685-sketch-28.png,bird-0685-sketch-28.png,0.0,-0.25081623,0.9487832,-0.84824497
alexnet_w1_mlp_simclrhn_probe3,1,169,NaN,bird,bird,0,0169_ske_dnn_0_bird_00_bird-0694-sketch-36.png,bird-0694-sketch-36.png,1.0,0.48784474,0.40697908,0.05718065
alexnet_w1_mlp_simclrhn_probe3,1,170,NaN,bicycle,bird,0,0170_ske_dnn_0_bird_00_bird-0733-sketch-25.png,bird-0733-sketch-25.png,0.0,0.64595515,1.3995879,-0.53289884
alexnet_w1_mlp_simclrhn_probe3,1,171,NaN,bird,bird,0,0171_ske_dnn_0_bird_00_bird-0748-sketch-39.png,bird-0748-sketch-39.png,1.0,6.015422,0.92214245,3.6014924
alexnet_w1_mlp_simclrhn_probe3,1,172,NaN,bird,bird,0,0172_ske_dnn_0_bird_00_bird-0749-sketch-4.png,bird-0749-sketch-4.png,1.0,3.079068,2.4301813,0.45883217
alexnet_w1_mlp_simclrhn_probe3,1,173,NaN,bird,bird,0,0173_ske_dnn_0_bird_00_bird-0809-sketch-48.png,bird-0809-sketch-48.png,1.0,3.9104428,0.85007226,2.1640086
alexnet_w1_mlp_simclrhn_probe3,1,174,NaN,cat,bird,0,0174_ske_dnn_0_bird_00_bird-0834-sketch-24.png,bird-0834-sketch-24.png,0.0,1.5674194,1.638652,-0.050369024
alexnet_w1_mlp_simclrhn_probe3,1,175,NaN,elephant,bird,0,0175_ske_dnn_0_bird_00_bird-0880-sketch-2.png,bird-0880-sketch-2.png,0.0,1.2139068,1.8305229,-0.43601346
alexnet_w1_mlp_simclrhn_probe3,1,176,NaN,bird,bird,0,0176_ske_dnn_0_bird_00_bird-0939-sketch-27.png,bird-0939-sketch-27.png,1.0,1.1247212,0.4578669,0.47153717
alexnet_w1_mlp_simclrhn_probe3,1,177,NaN,bird,bird,0,0177_ske_dnn_0_bird_00_bird-0954-sketch-40.png,bird-0954-sketch-40.png,1.0,1.9901743,0.8832929,0.7826834
alexnet_w1_mlp_simclrhn_probe3,1,178,NaN,bicycle,bird,0,0178_ske_dnn_0_bird_00_bird-1033-sketch-20.png,bird-1033-sketch-20.png,0.0,0.6022411,2.1844602,-1.1187979
alexnet_w1_mlp_simclrhn_probe3,1,179,NaN,bird,bird,0,0179_ske_dnn_0_bird_00_bird-1081-sketch-18.png,bird-1081-sketch-18.png,1.0,1.5781047,1.2805474,0.21040483
alexnet_w1_mlp_simclrhn_probe3,1,180,NaN,bird,bird,0,0180_ske_dnn_0_bird_00_bird-1096-sketch-31.png,bird-1096-sketch-31.png,1.0,0.6704953,0.64532167,0.017800426
alexnet_w1_mlp_simclrhn_probe3,1,181,NaN,cat,bird,0,0181_ske_dnn_0_bird_00_bird-1148-sketch-32.png,bird-1148-sketch-32.png,0.0,-0.06530667,0.6993858,-0.5407193
alexnet_w1_mlp_simclrhn_probe3,1,182,NaN,bird,bird,0,0182_ske_dnn_0_bird_00_bird-1201-sketch-34.png,bird-1201-sketch-34.png,1.0,4.837475,0.75800306,2.884622
alexnet_w1_mlp_simclrhn_probe3,1,183,NaN,airplane,bird,0,0183_ske_dnn_0_bird_00_bird-1342-sketch-24.png,bird-1342-sketch-24.png,0.0,3.2513125,3.7917953,-0.38217902
alexnet_w1_mlp_simclrhn_probe3,1,184,NaN,bird,bird,0,0184_ske_dnn_0_bird_00_bird-1510-sketch-39.png,bird-1510-sketch-39.png,1.0,1.0707563,0.61968,0.31895915
alexnet_w1_mlp_simclrhn_probe3,1,185,NaN,clock,bird,0,0185_ske_dnn_0_bird_00_bird-1562-sketch-40.png,bird-1562-sketch-40.png,0.0,-0.30741516,2.5923855,-2.050469
alexnet_w1_mlp_simclrhn_probe3,1,186,NaN,bicycle,bird,0,0186_ske_dnn_0_bird_00_bird-1565-sketch-43.png,bird-1565-sketch-43.png,0.0,0.8699659,1.0848316,-0.15193298
alexnet_w1_mlp_simclrhn_probe3,1,187,NaN,bicycle,bird,0,0187_ske_dnn_0_bird_00_bird-1702-sketch-29.png,bird-1702-sketch-29.png,0.0,1.0537163,2.9643393,-1.3510145
alexnet_w1_mlp_simclrhn_probe3,1,188,NaN,airplane,bird,0,0188_ske_dnn_0_bird_00_bird-1721-sketch-46.png,bird-1721-sketch-46.png,0.0,2.4061444,2.448472,-0.029930163
alexnet_w1_mlp_simclrhn_probe3,1,189,NaN,clock,bird,0,0189_ske_dnn_0_bird_00_bird-1740-sketch-17.png,bird-1740-sketch-17.png,0.0,0.8013581,0.8830604,-0.057772245
alexnet_w1_mlp_simclrhn_probe3,1,190,NaN,bird,bird,0,0190_ske_dnn_0_bird_00_bird-1749-sketch-25.png,bird-1749-sketch-25.png,1.0,1.3640764,1.2607452,0.0730662
alexnet_w1_mlp_simclrhn_probe3,1,191,NaN,clock,bird,0,0191_ske_dnn_0_bird_00_bird-1756-sketch-31.png,bird-1756-sketch-31.png,0.0,0.23842008,1.383109,-0.80941725
alexnet_w1_mlp_simclrhn_probe3,1,192,NaN,bird,bird,0,0192_ske_dnn_0_bird_00_bird-1860-sketch-33.png,bird-1860-sketch-33.png,1.0,3.0344565,1.7579262,0.9026432
alexnet_w1_mlp_simclrhn_probe3,1,193,NaN,bird,bird,0,0193_ske_dnn_0_bird_00_bird-1937-sketch-10.png,bird-1937-sketch-10.png,1.0,6.4513516,0.40372288,4.2763195
alexnet_w1_mlp_simclrhn_probe3,1,194,NaN,bird,bird,0,0194_ske_dnn_0_bird_00_bird-1948-sketch-20.png,bird-1948-sketch-20.png,1.0,1.7169693,1.4226117,0.20814222
alexnet_w1_mlp_simclrhn_probe3,1,195,NaN,bird,bird,0,0195_ske_dnn_0_bird_00_bird-2010-sketch-30.png,bird-2010-sketch-30.png,1.0,1.962827,1.3206764,0.454069
alexnet_w1_mlp_simclrhn_probe3,1,196,NaN,bird,bird,0,0196_ske_dnn_0_bird_00_bird-2169-sketch-36.png,bird-2169-sketch-36.png,1.0,1.2799507,0.8682041,0.29114884
alexnet_w1_mlp_simclrhn_probe3,1,197,NaN,cat,bird,0,0197_ske_dnn_0_bird_00_bird-2262-sketch-28.png,bird-2262-sketch-28.png,0.0,1.1617349,2.2343307,-0.7584397
alexnet_w1_mlp_simclrhn_probe3,1,198,NaN,airplane,bird,0,0198_ske_dnn_0_bird_00_bird-2312-sketch-27.png,bird-2312-sketch-27.png,0.0,0.72330445,2.8454576,-1.5005888
alexnet_w1_mlp_simclrhn_probe3,1,199,NaN,knife,bird,0,0199_ske_dnn_0_bird_00_bird-2313-sketch-28.png,bird-2313-sketch-28.png,0.0,0.7837537,1.1759877,-0.27735135
alexnet_w1_mlp_simclrhn_probe3,1,200,NaN,airplane,bird,0,0200_ske_dnn_0_bird_00_bird-2372-sketch-36.png,bird-2372-sketch-36.png,0.0,0.95040214,1.7612424,-0.57335067
alexnet_w1_mlp_simclrhn_probe3,1,201,NaN,boat,boat,0,0201_ske_dnn_0_boat_00_boat-0001-sketch-0.png,boat-0001-sketch-0.png,1.0,0.5555665,0.45729834,0.069486074
alexnet_w1_mlp_simclrhn_probe3,1,202,NaN,boat,boat,0,0202_ske_dnn_0_boat_00_boat-0002-sketch-1.png,boat-0002-sketch-1.png,1.0,5.628611,1.5387306,2.8919823
alexnet_w1_mlp_simclrhn_probe3,1,203,NaN,airplane,boat,0,0203_ske_dnn_0_boat_00_boat-0010-sketch-17.png,boat-0010-sketch-17.png,0.0,-0.47692052,1.3772314,-1.3110833
alexnet_w1_mlp_simclrhn_probe3,1,204,NaN,airplane,boat,0,0204_ske_dnn_0_boat_00_boat-0016-sketch-22.png,boat-0016-sketch-22.png,0.0,0.22256668,3.7924314,-2.5242755
alexnet_w1_mlp_simclrhn_probe3,1,205,NaN,knife,boat,0,0205_ske_dnn_0_boat_00_boat-0029-sketch-34.png,boat-0029-sketch-34.png,0.0,-0.7883412,2.3788853,-2.2395675
alexnet_w1_mlp_simclrhn_probe3,1,206,NaN,knife,boat,0,0206_ske_dnn_0_boat_00_boat-0034-sketch-39.png,boat-0034-sketch-39.png,0.0,-0.0042147934,2.2424073,-1.5886017
alexnet_w1_mlp_simclrhn_probe3,1,207,NaN,knife,boat,0,0207_ske_dnn_0_boat_00_boat-0036-sketch-40.png,boat-0036-sketch-40.png,0.0,-0.44859648,2.697505,-2.2246296
alexnet_w1_mlp_simclrhn_probe3,1,208,NaN,knife,boat,0,0208_ske_dnn_0_boat_00_boat-0051-sketch-9.png,boat-0051-sketch-9.png,0.0,-0.7124591,1.8764728,-1.8306514
alexnet_w1_mlp_simclrhn_probe3,1,209,NaN,airplane,boat,0,0209_ske_dnn_0_boat_00_boat-0052-sketch-0.png,boat-0052-sketch-0.png,0.0,3.035361,6.4777646,-2.434147
alexnet_w1_mlp_simclrhn_probe3,1,210,NaN,boat,boat,0,0210_ske_dnn_0_boat_00_boat-0059-sketch-15.png,boat-0059-sketch-15.png,1.0,2.0729306,1.5934434,0.33904865
alexnet_w1_mlp_simclrhn_probe3,1,211,NaN,airplane,boat,0,0211_ske_dnn_0_boat_00_boat-0064-sketch-2.png,boat-0064-sketch-2.png,0.0,0.20271096,1.8761842,-1.1833243
alexnet_w1_mlp_simclrhn_probe3,1,212,NaN,airplane,boat,0,0212_ske_dnn_0_boat_00_boat-0065-sketch-20.png,boat-0065-sketch-20.png,0.0,0.8793427,3.3916967,-1.7765025
alexnet_w1_mlp_simclrhn_probe3,1,213,NaN,airplane,boat,0,0213_ske_dnn_0_boat_00_boat-0067-sketch-22.png,boat-0067-sketch-22.png,0.0,2.9147034,4.308192,-0.9853451
alexnet_w1_mlp_simclrhn_probe3,1,214,NaN,clock,boat,0,0214_ske_dnn_0_boat_00_boat-0068-sketch-23.png,boat-0068-sketch-23.png,0.0,-0.6236208,5.0186653,-3.989699
alexnet_w1_mlp_simclrhn_probe3,1,215,NaN,chair,boat,0,0215_ske_dnn_0_boat_00_boat-0070-sketch-25.png,boat-0070-sketch-25.png,0.0,0.6693353,2.1558008,-1.0510898
alexnet_w1_mlp_simclrhn_probe3,1,216,NaN,bicycle,boat,0,0216_ske_dnn_0_boat_00_boat-0074-sketch-29.png,boat-0074-sketch-29.png,0.0,0.2857678,1.8623801,-1.1148334
alexnet_w1_mlp_simclrhn_probe3,1,217,NaN,airplane,boat,0,0217_ske_dnn_0_boat_00_boat-0079-sketch-33.png,boat-0079-sketch-33.png,0.0,0.1571,2.1517668,-1.4104425
alexnet_w1_mlp_simclrhn_probe3,1,218,NaN,boat,boat,0,0218_ske_dnn_0_boat_00_boat-0080-sketch-34.png,boat-0080-sketch-34.png,1.0,3.7141755,2.0756004,1.1586475
alexnet_w1_mlp_simclrhn_probe3,1,219,NaN,chair,boat,0,0219_ske_dnn_0_boat_00_boat-0085-sketch-39.png,boat-0085-sketch-39.png,0.0,0.50042653,1.2849991,-0.5547766
alexnet_w1_mlp_simclrhn_probe3,1,220,NaN,knife,boat,0,0220_ske_dnn_0_boat_00_boat-0088-sketch-41.png,boat-0088-sketch-41.png,0.0,0.45502463,0.65900624,-0.14423679
alexnet_w1_mlp_simclrhn_probe3,1,221,NaN,boat,boat,0,0221_ske_dnn_0_boat_00_boat-0094-sketch-47.png,boat-0094-sketch-47.png,1.0,5.818934,4.2415752,1.1153611
alexnet_w1_mlp_simclrhn_probe3,1,222,NaN,boat,boat,0,0222_ske_dnn_0_boat_00_boat-0099-sketch-6.png,boat-0099-sketch-6.png,1.0,2.106764,1.9763657,0.09220559
alexnet_w1_mlp_simclrhn_probe3,1,223,NaN,airplane,boat,0,0223_ske_dnn_0_boat_00_boat-0107-sketch-12.png,boat-0107-sketch-12.png,0.0,0.67323995,3.1022143,-1.7175443
alexnet_w1_mlp_simclrhn_probe3,1,224,NaN,airplane,boat,0,0224_ske_dnn_0_boat_00_boat-0108-sketch-13.png,boat-0108-sketch-13.png,0.0,2.3712232,3.3047304,-0.6600893
alexnet_w1_mlp_simclrhn_probe3,1,225,NaN,oven,boat,0,0225_ske_dnn_0_boat_00_boat-0110-sketch-15.png,boat-0110-sketch-15.png,0.0,-0.5346779,1.136322,-1.1815754
alexnet_w1_mlp_simclrhn_probe3,1,226,NaN,airplane,boat,0,0226_ske_dnn_0_boat_00_boat-0113-sketch-18.png,boat-0113-sketch-18.png,0.0,0.022469629,1.5421747,-1.0745938
alexnet_w1_mlp_simclrhn_probe3,1,227,NaN,oven,boat,0,0227_ske_dnn_0_boat_00_boat-0115-sketch-2.png,boat-0115-sketch-2.png,0.0,-0.41764227,0.86716056,-0.9084928
alexnet_w1_mlp_simclrhn_probe3,1,228,NaN,bicycle,boat,0,0228_ske_dnn_0_boat_00_boat-0123-sketch-27.png,boat-0123-sketch-27.png,0.0,1.2787726,2.674738,-0.98709655
alexnet_w1_mlp_simclrhn_probe3,1,229,NaN,oven,boat,0,0229_ske_dnn_0_boat_00_boat-0124-sketch-28.png,boat-0124-sketch-28.png,0.0,-0.914664,1.2946721,-1.5622365
alexnet_w1_mlp_simclrhn_probe3,1,230,NaN,airplane,boat,0,0230_ske_dnn_0_boat_00_boat-0125-sketch-29.png,boat-0125-sketch-29.png,0.0,-1.54262,3.632964,-3.6596904
alexnet_w1_mlp_simclrhn_probe3,1,231,NaN,airplane,boat,0,0231_ske_dnn_0_boat_00_boat-0126-sketch-3.png,boat-0126-sketch-3.png,0.0,-1.3411648,3.0441582,-3.1008918
alexnet_w1_mlp_simclrhn_probe3,1,232,NaN,airplane,boat,0,0232_ske_dnn_0_boat_00_boat-0128-sketch-31.png,boat-0128-sketch-31.png,0.0,-1.0615152,2.283566,-2.3653297
alexnet_w1_mlp_simclrhn_probe3,1,233,NaN,airplane,boat,0,0233_ske_dnn_0_boat_00_boat-0130-sketch-33.png,boat-0130-sketch-33.png,0.0,0.047222234,5.3048444,-3.7177005
alexnet_w1_mlp_simclrhn_probe3,1,234,NaN,bicycle,boat,0,0234_ske_dnn_0_boat_00_boat-0132-sketch-35.png,boat-0132-sketch-35.png,0.0,-0.5667991,1.0327126,-1.1310256
alexnet_w1_mlp_simclrhn_probe3,1,235,NaN,bicycle,boat,0,0235_ske_dnn_0_boat_00_boat-0146-sketch-48.png,boat-0146-sketch-48.png,0.0,-0.442674,1.0904467,-1.0840801
alexnet_w1_mlp_simclrhn_probe3,1,236,NaN,airplane,boat,0,0236_ske_dnn_0_boat_00_boat-0152-sketch-8.png,boat-0152-sketch-8.png,0.0,0.0693325,3.7431135,-2.5977554
alexnet_w1_mlp_simclrhn_probe3,1,237,NaN,clock,boat,0,0237_ske_dnn_0_boat_00_boat-0165-sketch-19.png,boat-0165-sketch-19.png,0.0,-1.0303206,0.7727561,-1.2749678
alexnet_w1_mlp_simclrhn_probe3,1,238,NaN,oven,boat,0,0238_ske_dnn_0_boat_00_boat-0166-sketch-2.png,boat-0166-sketch-2.png,0.0,0.72280043,1.4997396,-0.549379
alexnet_w1_mlp_simclrhn_probe3,1,239,NaN,airplane,boat,0,0239_ske_dnn_0_boat_00_boat-0173-sketch-26.png,boat-0173-sketch-26.png,0.0,0.040350437,4.314253,-3.0221055
alexnet_w1_mlp_simclrhn_probe3,1,240,NaN,car,boat,0,0240_ske_dnn_0_boat_00_boat-0178-sketch-30.png,boat-0178-sketch-30.png,0.0,-1.4473163,3.8819911,-3.7683895
alexnet_w1_mlp_simclrhn_probe3,1,241,NaN,oven,boat,0,0241_ske_dnn_0_boat_00_boat-0180-sketch-32.png,boat-0180-sketch-32.png,0.0,-0.98520356,1.2590709,-1.5869416
alexnet_w1_mlp_simclrhn_probe3,1,242,NaN,knife,boat,0,0242_ske_dnn_0_boat_00_boat-0194-sketch-45.png,boat-0194-sketch-45.png,0.0,-0.51152337,1.679125,-1.5490223
alexnet_w1_mlp_simclrhn_probe3,1,243,NaN,oven,boat,0,0243_ske_dnn_0_boat_00_boat-0197-sketch-48.png,boat-0197-sketch-48.png,0.0,0.52358377,1.2736115,-0.53034973
alexnet_w1_mlp_simclrhn_probe3,1,244,NaN,boat,boat,0,0244_ske_dnn_0_boat_00_boat-0212-sketch-15.png,boat-0212-sketch-15.png,1.0,4.390334,2.3679256,1.4300588
alexnet_w1_mlp_simclrhn_probe3,1,245,NaN,chair,boat,0,0245_ske_dnn_0_boat_00_boat-0228-sketch-3.png,boat-0228-sketch-3.png,0.0,-0.65304595,4.678525,-3.7699902
alexnet_w1_mlp_simclrhn_probe3,1,246,NaN,bicycle,boat,0,0246_ske_dnn_0_boat_00_boat-0233-sketch-34.png,boat-0233-sketch-34.png,0.0,0.8639347,3.7203026,-2.019757
alexnet_w1_mlp_simclrhn_probe3,1,247,NaN,chair,boat,0,0247_ske_dnn_0_boat_00_boat-0234-sketch-35.png,boat-0234-sketch-35.png,0.0,1.7110859,2.4603276,-0.5297939
alexnet_w1_mlp_simclrhn_probe3,1,248,NaN,keyboard,boat,0,0248_ske_dnn_0_boat_00_boat-0237-sketch-38.png,boat-0237-sketch-38.png,0.0,-0.17339396,2.4271626,-1.8388712
alexnet_w1_mlp_simclrhn_probe3,1,249,NaN,boat,boat,0,0249_ske_dnn_0_boat_00_boat-0239-sketch-4.png,boat-0239-sketch-4.png,1.0,6.9065323,2.3146605,3.2469437
alexnet_w1_mlp_simclrhn_probe3,1,250,NaN,boat,boat,0,0250_ske_dnn_0_boat_00_boat-0253-sketch-7.png,boat-0253-sketch-7.png,1.0,3.0272021,1.8663054,0.82087797
alexnet_w1_mlp_simclrhn_probe3,1,251,NaN,clock,bottle,0,0251_ske_dnn_0_bottle_00_bottle-0002-sketch-1.png,bottle-0002-sketch-1.png,0.0,5.1081476,5.3110704,-0.14348811
alexnet_w1_mlp_simclrhn_probe3,1,252,NaN,clock,bottle,0,0252_ske_dnn_0_bottle_00_bottle-0003-sketch-10.png,bottle-0003-sketch-10.png,0.0,1.3630693,6.415973,-3.5729427
alexnet_w1_mlp_simclrhn_probe3,1,253,NaN,clock,bottle,0,0253_ske_dnn_0_bottle_00_bottle-0019-sketch-25.png,bottle-0019-sketch-25.png,0.0,1.1821582,4.1186023,-2.0763795
alexnet_w1_mlp_simclrhn_probe3,1,254,NaN,keyboard,bottle,0,0254_ske_dnn_0_bottle_00_bottle-0030-sketch-35.png,bottle-0030-sketch-35.png,0.0,6.654655,9.038984,-1.6859754
alexnet_w1_mlp_simclrhn_probe3,1,255,NaN,clock,bottle,0,0255_ske_dnn_0_bottle_00_bottle-0031-sketch-36.png,bottle-0031-sketch-36.png,0.0,3.9870281,4.409857,-0.29898503
alexnet_w1_mlp_simclrhn_probe3,1,256,NaN,clock,bottle,0,0256_ske_dnn_0_bottle_00_bottle-0038-sketch-42.png,bottle-0038-sketch-42.png,0.0,0.8260532,5.5218678,-3.3204424
alexnet_w1_mlp_simclrhn_probe3,1,257,NaN,bottle,bottle,0,0257_ske_dnn_0_bottle_00_bottle-0039-sketch-43.png,bottle-0039-sketch-43.png,1.0,8.530106,2.5298421,4.242827
alexnet_w1_mlp_simclrhn_probe3,1,258,NaN,clock,bottle,0,0258_ske_dnn_0_bottle_00_bottle-0041-sketch-45.png,bottle-0041-sketch-45.png,0.0,1.1434649,5.3343124,-2.9633768
alexnet_w1_mlp_simclrhn_probe3,1,259,NaN,clock,bottle,0,0259_ske_dnn_0_bottle_00_bottle-0045-sketch-49.png,bottle-0045-sketch-49.png,0.0,2.7173674,4.9166026,-1.5550941
alexnet_w1_mlp_simclrhn_probe3,1,260,NaN,bottle,bottle,0,0260_ske_dnn_0_bottle_00_bottle-0050-sketch-9.png,bottle-0050-sketch-9.png,1.0,3.7025628,3.2816849,0.29760563
alexnet_w1_mlp_simclrhn_probe3,1,261,NaN,clock,bottle,0,0261_ske_dnn_0_bottle_00_bottle-0054-sketch-11.png,bottle-0054-sketch-11.png,0.0,3.6001468,5.0595345,-1.031943
alexnet_w1_mlp_simclrhn_probe3,1,262,NaN,bottle,bottle,0,0262_ske_dnn_0_bottle_00_bottle-0066-sketch-22.png,bottle-0066-sketch-22.png,1.0,9.123297,4.4107027,3.3323073
alexnet_w1_mlp_simclrhn_probe3,1,263,NaN,clock,bottle,0,0263_ske_dnn_0_bottle_00_bottle-0071-sketch-27.png,bottle-0071-sketch-27.png,0.0,0.18829452,2.6379864,-1.7321938
alexnet_w1_mlp_simclrhn_probe3,1,264,NaN,clock,bottle,0,0264_ske_dnn_0_bottle_00_bottle-0082-sketch-37.png,bottle-0082-sketch-37.png,0.0,2.2036479,3.1300619,-0.65507364
alexnet_w1_mlp_simclrhn_probe3,1,265,NaN,bottle,bottle,0,0265_ske_dnn_0_bottle_00_bottle-0086-sketch-40.png,bottle-0086-sketch-40.png,1.0,4.9922824,3.642559,0.9543985
alexnet_w1_mlp_simclrhn_probe3,1,266,NaN,clock,bottle,0,0266_ske_dnn_0_bottle_00_bottle-0090-sketch-44.png,bottle-0090-sketch-44.png,0.0,4.0441885,4.6955256,-0.4605649
alexnet_w1_mlp_simclrhn_probe3,1,267,NaN,airplane,bottle,0,0267_ske_dnn_0_bottle_00_bottle-0097-sketch-50.png,bottle-0097-sketch-50.png,0.0,0.113698296,2.2939692,-1.5416844
alexnet_w1_mlp_simclrhn_probe3,1,268,NaN,clock,bottle,0,0268_ske_dnn_0_bottle_00_bottle-0107-sketch-13.png,bottle-0107-sketch-13.png,0.0,-0.61467713,1.8763113,-1.7613949
alexnet_w1_mlp_simclrhn_probe3,1,269,NaN,bicycle,bottle,0,0269_ske_dnn_0_bottle_00_bottle-0114-sketch-2.png,bottle-0114-sketch-2.png,0.0,-0.56611556,2.1157584,-1.8963714
alexnet_w1_mlp_simclrhn_probe3,1,270,NaN,knife,bottle,0,0270_ske_dnn_0_bottle_00_bottle-0126-sketch-30.png,bottle-0126-sketch-30.png,0.0,-0.10318615,1.3054285,-0.996041
alexnet_w1_mlp_simclrhn_probe3,1,271,NaN,bottle,bottle,0,0271_ske_dnn_0_bottle_00_bottle-0130-sketch-34.png,bottle-0130-sketch-34.png,1.0,5.2625175,5.2610307,0.001051311
alexnet_w1_mlp_simclrhn_probe3,1,272,NaN,bird,bottle,0,0272_ske_dnn_0_bottle_00_bottle-0131-sketch-35.png,bottle-0131-sketch-35.png,0.0,-0.33333412,0.7037372,-0.7333202
alexnet_w1_mlp_simclrhn_probe3,1,273,NaN,clock,bottle,0,0273_ske_dnn_0_bottle_00_bottle-0133-sketch-37.png,bottle-0133-sketch-37.png,0.0,-0.5063688,3.9245574,-3.1331382
alexnet_w1_mlp_simclrhn_probe3,1,274,NaN,bottle,bottle,0,0274_ske_dnn_0_bottle_00_bottle-0135-sketch-39.png,bottle-0135-sketch-39.png,1.0,1.9928521,1.2153045,0.5498092
alexnet_w1_mlp_simclrhn_probe3,1,275,NaN,keyboard,bottle,0,0275_ske_dnn_0_bottle_00_bottle-0143-sketch-46.png,bottle-0143-sketch-46.png,0.0,1.6795496,5.8120813,-2.9221413
alexnet_w1_mlp_simclrhn_probe3,1,276,NaN,bottle,bottle,0,0276_ske_dnn_0_bottle_00_bottle-0145-sketch-48.png,bottle-0145-sketch-48.png,1.0,1.6547797,1.347723,0.21712185
alexnet_w1_mlp_simclrhn_probe3,1,277,NaN,clock,bottle,0,0277_ske_dnn_0_bottle_00_bottle-0150-sketch-7.png,bottle-0150-sketch-7.png,0.0,4.658651,7.6547236,-2.1185434
alexnet_w1_mlp_simclrhn_probe3,1,278,NaN,bottle,bottle,0,0278_ske_dnn_0_bottle_00_bottle-0162-sketch-17.png,bottle-0162-sketch-17.png,1.0,3.0686748,2.0974321,0.6867723
alexnet_w1_mlp_simclrhn_probe3,1,279,NaN,bottle,bottle,0,0279_ske_dnn_0_bottle_00_bottle-0165-sketch-2.png,bottle-0165-sketch-2.png,1.0,3.299738,3.028238,0.19197941
alexnet_w1_mlp_simclrhn_probe3,1,280,NaN,bottle,bottle,0,0280_ske_dnn_0_bottle_00_bottle-0184-sketch-37.png,bottle-0184-sketch-37.png,1.0,2.7855823,1.553478,0.87122935
alexnet_w1_mlp_simclrhn_probe3,1,281,NaN,clock,bottle,0,0281_ske_dnn_0_bottle_00_bottle-0185-sketch-38.png,bottle-0185-sketch-38.png,0.0,2.8970869,4.2065644,-0.92594045
alexnet_w1_mlp_simclrhn_probe3,1,282,NaN,clock,bottle,0,0282_ske_dnn_0_bottle_00_bottle-0189-sketch-41.png,bottle-0189-sketch-41.png,0.0,0.5516359,1.0547595,-0.3557621
alexnet_w1_mlp_simclrhn_probe3,1,283,NaN,bottle,bottle,0,0283_ske_dnn_0_bottle_00_bottle-0202-sketch-8.png,bottle-0202-sketch-8.png,1.0,1.5721177,1.4595919,0.079567775
alexnet_w1_mlp_simclrhn_probe3,1,284,NaN,clock,bottle,0,0284_ske_dnn_0_bottle_00_bottle-0207-sketch-11.png,bottle-0207-sketch-11.png,0.0,4.874321,6.87204,-1.4126005
alexnet_w1_mlp_simclrhn_probe3,1,285,NaN,clock,bottle,0,0285_ske_dnn_0_bottle_00_bottle-0215-sketch-19.png,bottle-0215-sketch-19.png,0.0,-0.27782866,4.55705,-3.4187758
alexnet_w1_mlp_simclrhn_probe3,1,286,NaN,clock,bottle,0,0286_ske_dnn_0_bottle_00_bottle-0217-sketch-20.png,bottle-0217-sketch-20.png,0.0,1.0255666,6.5140624,-3.8809526
alexnet_w1_mlp_simclrhn_probe3,1,287,NaN,knife,bottle,0,0287_ske_dnn_0_bottle_00_bottle-0237-sketch-39.png,bottle-0237-sketch-39.png,0.0,-0.084135406,2.7167962,-1.9805577
alexnet_w1_mlp_simclrhn_probe3,1,288,NaN,clock,bottle,0,0288_ske_dnn_0_bottle_00_bottle-0243-sketch-44.png,bottle-0243-sketch-44.png,0.0,0.22200134,1.8361839,-1.1413995
alexnet_w1_mlp_simclrhn_probe3,1,289,NaN,bottle,bottle,0,0289_ske_dnn_0_bottle_00_bottle-0245-sketch-46.png,bottle-0245-sketch-46.png,1.0,1.9336016,1.4169905,0.36529922
alexnet_w1_mlp_simclrhn_probe3,1,290,NaN,chair,bottle,0,0290_ske_dnn_0_bottle_00_bottle-0268-sketch-20.png,bottle-0268-sketch-20.png,0.0,4.342379,4.4171333,-0.052859228
alexnet_w1_mlp_simclrhn_probe3,1,291,NaN,clock,bottle,0,0291_ske_dnn_0_bottle_00_bottle-0280-sketch-31.png,bottle-0280-sketch-31.png,0.0,2.9788728,6.3561273,-2.3880796
alexnet_w1_mlp_simclrhn_probe3,1,292,NaN,clock,bottle,0,0292_ske_dnn_0_bottle_00_bottle-0292-sketch-42.png,bottle-0292-sketch-42.png,0.0,4.650768,5.375719,-0.51261795
alexnet_w1_mlp_simclrhn_probe3,1,293,NaN,bottle,bottle,0,0293_ske_dnn_0_bottle_00_bottle-0294-sketch-44.png,bottle-0294-sketch-44.png,1.0,1.8641826,0.5088484,0.958366
alexnet_w1_mlp_simclrhn_probe3,1,294,NaN,clock,bottle,0,0294_ske_dnn_0_bottle_00_bottle-0296-sketch-46.png,bottle-0296-sketch-46.png,0.0,1.425005,3.771637,-1.6593194
alexnet_w1_mlp_simclrhn_probe3,1,295,NaN,bottle,bottle,0,0295_ske_dnn_0_bottle_00_bottle-0301-sketch-50.png,bottle-0301-sketch-50.png,1.0,3.7616527,3.0155404,0.5275811
alexnet_w1_mlp_simclrhn_probe3,1,296,NaN,bottle,bottle,0,0296_ske_dnn_0_bottle_00_bottle-0305-sketch-9.png,bottle-0305-sketch-9.png,1.0,2.1766126,1.1586281,0.7198238
alexnet_w1_mlp_simclrhn_probe3,1,297,NaN,bottle,bottle,0,0297_ske_dnn_0_bottle_00_bottle-0313-sketch-15.png,bottle-0313-sketch-15.png,1.0,2.176852,0.89808834,0.9042225
alexnet_w1_mlp_simclrhn_probe3,1,298,NaN,bottle,bottle,0,0298_ske_dnn_0_bottle_00_bottle-0321-sketch-22.png,bottle-0321-sketch-22.png,1.0,3.8443522,2.2513347,1.1264336
alexnet_w1_mlp_simclrhn_probe3,1,299,NaN,bottle,bottle,0,0299_ske_dnn_0_bottle_00_bottle-0330-sketch-30.png,bottle-0330-sketch-30.png,1.0,5.1397376,2.039514,2.1921892
alexnet_w1_mlp_simclrhn_probe3,1,300,NaN,bottle,bottle,0,0300_ske_dnn_0_bottle_00_bottle-0338-sketch-38.png,bottle-0338-sketch-38.png,1.0,3.4987254,1.6717422,1.2918723
alexnet_w1_mlp_simclrhn_probe3,1,301,NaN,truck,car,0,0301_ske_dnn_0_car_00_car-0002-sketch-1.png,car-0002-sketch-1.png,0.0,2.2619605,4.9875526,-1.9272847
alexnet_w1_mlp_simclrhn_probe3,1,302,NaN,truck,car,0,0302_ske_dnn_0_car_00_car-0004-sketch-11.png,car-0004-sketch-11.png,0.0,1.2565473,1.9801865,-0.51169014
alexnet_w1_mlp_simclrhn_probe3,1,303,NaN,truck,car,0,0303_ske_dnn_0_car_00_car-0005-sketch-12.png,car-0005-sketch-12.png,0.0,2.1858127,4.851442,-1.8848845
alexnet_w1_mlp_simclrhn_probe3,1,304,NaN,bicycle,car,0,0304_ske_dnn_0_car_00_car-0009-sketch-16.png,car-0009-sketch-16.png,0.0,0.9376404,2.3494282,-0.9982847
alexnet_w1_mlp_simclrhn_probe3,1,305,NaN,airplane,car,0,0305_ske_dnn_0_car_00_car-0013-sketch-2.png,car-0013-sketch-2.png,0.0,2.7626407,2.8866017,-0.087653644
alexnet_w1_mlp_simclrhn_probe3,1,306,NaN,airplane,car,0,0306_ske_dnn_0_car_00_car-0014-sketch-20.png,car-0014-sketch-20.png,0.0,0.55978227,2.2400339,-1.1881173
alexnet_w1_mlp_simclrhn_probe3,1,307,NaN,oven,car,0,0307_ske_dnn_0_car_00_car-0017-sketch-23.png,car-0017-sketch-23.png,0.0,-0.56285566,2.084684,-1.8720932
alexnet_w1_mlp_simclrhn_probe3,1,308,NaN,car,car,0,0308_ske_dnn_0_car_00_car-0018-sketch-24.png,car-0018-sketch-24.png,1.0,2.6773655,2.672722,0.0032834082
alexnet_w1_mlp_simclrhn_probe3,1,309,NaN,clock,car,0,0309_ske_dnn_0_car_00_car-0021-sketch-27.png,car-0021-sketch-27.png,0.0,-0.3704616,2.5676906,-2.0775874
alexnet_w1_mlp_simclrhn_probe3,1,310,NaN,keyboard,car,0,0310_ske_dnn_0_car_00_car-0022-sketch-28.png,car-0022-sketch-28.png,0.0,0.52863747,1.6974653,-0.82648605
alexnet_w1_mlp_simclrhn_probe3,1,311,NaN,car,car,0,0311_ske_dnn_0_car_00_car-0024-sketch-3.png,car-0024-sketch-3.png,1.0,14.992011,7.2831674,5.450976
alexnet_w1_mlp_simclrhn_probe3,1,312,NaN,clock,car,0,0312_ske_dnn_0_car_00_car-0025-sketch-30.png,car-0025-sketch-30.png,0.0,-1.0680884,3.7661998,-3.418358
alexnet_w1_mlp_simclrhn_probe3,1,313,NaN,oven,car,0,0313_ske_dnn_0_car_00_car-0029-sketch-34.png,car-0029-sketch-34.png,0.0,-0.55459803,2.001909,-1.8077235
alexnet_w1_mlp_simclrhn_probe3,1,314,NaN,car,car,0,0314_ske_dnn_0_car_00_car-0030-sketch-35.png,car-0030-sketch-35.png,1.0,2.5953481,2.373044,0.15719274
alexnet_w1_mlp_simclrhn_probe3,1,315,NaN,knife,car,0,0315_ske_dnn_0_car_00_car-0032-sketch-37.png,car-0032-sketch-37.png,0.0,1.1463422,2.7163393,-1.1101557
alexnet_w1_mlp_simclrhn_probe3,1,316,NaN,keyboard,car,0,0316_ske_dnn_0_car_00_car-0034-sketch-39.png,car-0034-sketch-39.png,0.0,0.41611028,1.7894282,-0.97108245
alexnet_w1_mlp_simclrhn_probe3,1,317,NaN,truck,car,0,0317_ske_dnn_0_car_00_car-0040-sketch-44.png,car-0040-sketch-44.png,0.0,1.2553483,2.0199556,-0.540659
alexnet_w1_mlp_simclrhn_probe3,1,318,NaN,car,car,0,0318_ske_dnn_0_car_00_car-0043-sketch-47.png,car-0043-sketch-47.png,1.0,14.992011,7.2831674,5.450976
alexnet_w1_mlp_simclrhn_probe3,1,319,NaN,car,car,0,0319_ske_dnn_0_car_00_car-0044-sketch-48.png,car-0044-sketch-48.png,1.0,10.332989,4.164821,4.361553
alexnet_w1_mlp_simclrhn_probe3,1,320,NaN,bicycle,car,0,0320_ske_dnn_0_car_00_car-0045-sketch-49.png,car-0045-sketch-49.png,0.0,0.8788304,2.298472,-1.0038382
alexnet_w1_mlp_simclrhn_probe3,1,321,NaN,truck,car,0,0321_ske_dnn_0_car_00_car-0047-sketch-50.png,car-0047-sketch-50.png,0.0,1.2093488,1.9186383,-0.50154346
alexnet_w1_mlp_simclrhn_probe3,1,322,NaN,clock,car,0,0322_ske_dnn_0_car_00_car-0050-sketch-8.png,car-0050-sketch-8.png,0.0,-0.9840433,3.4601676,-3.1425319
alexnet_w1_mlp_simclrhn_probe3,1,323,NaN,clock,car,0,0323_ske_dnn_0_car_00_car-0052-sketch-0.png,car-0052-sketch-0.png,0.0,0.7328859,1.372342,-0.45216376
alexnet_w1_mlp_simclrhn_probe3,1,324,NaN,car,car,0,0324_ske_dnn_0_car_00_car-0055-sketch-11.png,car-0055-sketch-11.png,1.0,5.047973,4.869041,0.12652417
alexnet_w1_mlp_simclrhn_probe3,1,325,NaN,clock,car,0,0325_ske_dnn_0_car_00_car-0064-sketch-2.png,car-0064-sketch-2.png,0.0,0.8366092,2.361401,-1.0781908
alexnet_w1_mlp_simclrhn_probe3,1,326,NaN,truck,car,0,0326_ske_dnn_0_car_00_car-0069-sketch-24.png,car-0069-sketch-24.png,0.0,2.8598197,3.734878,-0.61875975
alexnet_w1_mlp_simclrhn_probe3,1,327,NaN,car,car,0,0327_ske_dnn_0_car_00_car-0076-sketch-30.png,car-0076-sketch-30.png,1.0,4.594504,2.3145792,1.6121502
alexnet_w1_mlp_simclrhn_probe3,1,328,NaN,airplane,car,0,0328_ske_dnn_0_car_00_car-0079-sketch-33.png,car-0079-sketch-33.png,0.0,1.0478705,4.412927,-2.3794544
alexnet_w1_mlp_simclrhn_probe3,1,329,NaN,clock,car,0,0329_ske_dnn_0_car_00_car-0083-sketch-37.png,car-0083-sketch-37.png,0.0,0.85703725,2.6491456,-1.2672119
alexnet_w1_mlp_simclrhn_probe3,1,330,NaN,bicycle,car,0,0330_ske_dnn_0_car_00_car-0092-sketch-45.png,car-0092-sketch-45.png,0.0,0.87507564,3.8795133,-2.1244583
alexnet_w1_mlp_simclrhn_probe3,1,331,NaN,car,car,0,0331_ske_dnn_0_car_00_car-0096-sketch-49.png,car-0096-sketch-49.png,1.0,6.4716277,2.348468,2.915514
alexnet_w1_mlp_simclrhn_probe3,1,332,NaN,clock,car,0,0332_ske_dnn_0_car_00_car-0098-sketch-50.png,car-0098-sketch-50.png,0.0,0.66586906,2.066641,-0.99049544
alexnet_w1_mlp_simclrhn_probe3,1,333,NaN,airplane,car,0,0333_ske_dnn_0_car_00_car-0100-sketch-7.png,car-0100-sketch-7.png,0.0,2.3948243,3.2191496,-0.58288604
alexnet_w1_mlp_simclrhn_probe3,1,334,NaN,car,car,0,0334_ske_dnn_0_car_00_car-0112-sketch-17.png,car-0112-sketch-17.png,1.0,7.838114,5.7646523,1.4661587
alexnet_w1_mlp_simclrhn_probe3,1,335,NaN,car,car,0,0335_ske_dnn_0_car_00_car-0114-sketch-19.png,car-0114-sketch-19.png,1.0,3.2349422,2.8904903,0.24356428
alexnet_w1_mlp_simclrhn_probe3,1,336,NaN,car,car,0,0336_ske_dnn_0_car_00_car-0116-sketch-20.png,car-0116-sketch-20.png,1.0,6.435665,3.7472026,1.9010301
alexnet_w1_mlp_simclrhn_probe3,1,337,NaN,clock,car,0,0337_ske_dnn_0_car_00_car-0117-sketch-21.png,car-0117-sketch-21.png,0.0,2.951046,3.2609565,-0.21913984
alexnet_w1_mlp_simclrhn_probe3,1,338,NaN,car,car,0,0338_ske_dnn_0_car_00_car-0120-sketch-24.png,car-0120-sketch-24.png,1.0,6.352239,4.125812,1.5743217
alexnet_w1_mlp_simclrhn_probe3,1,339,NaN,clock,car,0,0339_ske_dnn_0_car_00_car-0122-sketch-26.png,car-0122-sketch-26.png,0.0,4.5133805,7.0383782,-1.7854431
alexnet_w1_mlp_simclrhn_probe3,1,340,NaN,clock,car,0,0340_ske_dnn_0_car_00_car-0124-sketch-28.png,car-0124-sketch-28.png,0.0,0.6269768,3.0803735,-1.7348136
alexnet_w1_mlp_simclrhn_probe3,1,341,NaN,car,car,0,0341_ske_dnn_0_car_00_car-0125-sketch-29.png,car-0125-sketch-29.png,1.0,2.9357262,2.7067785,0.16189043
alexnet_w1_mlp_simclrhn_probe3,1,342,NaN,clock,car,0,0342_ske_dnn_0_car_00_car-0129-sketch-32.png,car-0129-sketch-32.png,0.0,1.0866419,3.4039161,-1.6385603
alexnet_w1_mlp_simclrhn_probe3,1,343,NaN,car,car,0,0343_ske_dnn_0_car_00_car-0132-sketch-35.png,car-0132-sketch-35.png,1.0,7.4166565,2.5866036,3.415363
alexnet_w1_mlp_simclrhn_probe3,1,344,NaN,airplane,car,0,0344_ske_dnn_0_car_00_car-0136-sketch-39.png,car-0136-sketch-39.png,0.0,-0.88281184,2.8265123,-2.6228883
alexnet_w1_mlp_simclrhn_probe3,1,345,NaN,car,car,0,0345_ske_dnn_0_car_00_car-0138-sketch-40.png,car-0138-sketch-40.png,1.0,5.875731,3.205087,1.8884306
alexnet_w1_mlp_simclrhn_probe3,1,346,NaN,car,car,0,0346_ske_dnn_0_car_00_car-0139-sketch-41.png,car-0139-sketch-41.png,1.0,5.3824153,3.1293583,1.5931519
alexnet_w1_mlp_simclrhn_probe3,1,347,NaN,clock,car,0,0347_ske_dnn_0_car_00_car-0143-sketch-45.png,car-0143-sketch-45.png,0.0,2.7069256,4.36375,-1.1715517
alexnet_w1_mlp_simclrhn_probe3,1,348,NaN,bicycle,car,0,0348_ske_dnn_0_car_00_car-0145-sketch-47.png,car-0145-sketch-47.png,0.0,0.90663594,1.226624,-0.22626574
alexnet_w1_mlp_simclrhn_probe3,1,349,NaN,car,car,0,0349_ske_dnn_0_car_00_car-0151-sketch-7.png,car-0151-sketch-7.png,1.0,9.153058,5.398479,2.6548884
alexnet_w1_mlp_simclrhn_probe3,1,350,NaN,clock,car,0,0350_ske_dnn_0_car_00_car-0153-sketch-9.png,car-0153-sketch-9.png,0.0,-0.1158459,2.4155145,-1.7899421
alexnet_w1_mlp_simclrhn_probe3,1,351,NaN,cat,cat,0,0351_ske_dnn_0_cat_00_cat-0002-sketch-1.png,cat-0002-sketch-1.png,1.0,8.140014,0.42635578,5.45438
alexnet_w1_mlp_simclrhn_probe3,1,352,NaN,cat,cat,0,0352_ske_dnn_0_cat_00_cat-0009-sketch-16.png,cat-0009-sketch-16.png,1.0,4.520831,1.3232574,2.2610261
alexnet_w1_mlp_simclrhn_probe3,1,353,NaN,cat,cat,0,0353_ske_dnn_0_cat_00_cat-0011-sketch-18.png,cat-0011-sketch-18.png,1.0,1.0045854,0.88256824,0.086279154
alexnet_w1_mlp_simclrhn_probe3,1,354,NaN,cat,cat,0,0354_ske_dnn_0_cat_00_cat-0015-sketch-21.png,cat-0015-sketch-21.png,1.0,6.8499475,0.42091063,4.5460153
alexnet_w1_mlp_simclrhn_probe3,1,355,NaN,cat,cat,0,0355_ske_dnn_0_cat_00_cat-0016-sketch-22.png,cat-0016-sketch-22.png,1.0,7.1317306,0.24429405,4.870153
alexnet_w1_mlp_simclrhn_probe3,1,356,NaN,cat,cat,0,0356_ske_dnn_0_cat_00_cat-0021-sketch-27.png,cat-0021-sketch-27.png,1.0,5.6365724,1.2549561,3.0982704
alexnet_w1_mlp_simclrhn_probe3,1,357,NaN,cat,cat,0,0357_ske_dnn_0_cat_00_cat-0027-sketch-32.png,cat-0027-sketch-32.png,1.0,5.879497,0.8747192,3.5389125
alexnet_w1_mlp_simclrhn_probe3,1,358,NaN,cat,cat,0,0358_ske_dnn_0_cat_00_cat-0042-sketch-46.png,cat-0042-sketch-46.png,1.0,6.609963,0.5336068,4.296633
alexnet_w1_mlp_simclrhn_probe3,1,359,NaN,cat,cat,0,0359_ske_dnn_0_cat_00_cat-0043-sketch-47.png,cat-0043-sketch-47.png,1.0,3.2200785,1.3186563,1.3445085
alexnet_w1_mlp_simclrhn_probe3,1,360,NaN,cat,cat,0,0360_ske_dnn_0_cat_00_cat-0044-sketch-48.png,cat-0044-sketch-48.png,1.0,5.017092,2.0039766,2.1305945
alexnet_w1_mlp_simclrhn_probe3,1,361,NaN,cat,cat,0,0361_ske_dnn_0_cat_00_cat-0048-sketch-7.png,cat-0048-sketch-7.png,1.0,7.9263744,0.9188022,4.955102
alexnet_w1_mlp_simclrhn_probe3,1,362,NaN,cat,cat,0,0362_ske_dnn_0_cat_00_cat-0052-sketch-1.png,cat-0052-sketch-1.png,1.0,8.530002,0.96036625,5.3525405
alexnet_w1_mlp_simclrhn_probe3,1,363,NaN,clock,cat,0,0363_ske_dnn_0_cat_00_cat-0053-sketch-10.png,cat-0053-sketch-10.png,0.0,0.21589728,1.8290781,-1.140691
alexnet_w1_mlp_simclrhn_probe3,1,364,NaN,cat,cat,0,0364_ske_dnn_0_cat_00_cat-0059-sketch-16.png,cat-0059-sketch-16.png,1.0,0.7795468,0.5595068,0.1555918
alexnet_w1_mlp_simclrhn_probe3,1,365,NaN,cat,cat,0,0365_ske_dnn_0_cat_00_cat-0062-sketch-19.png,cat-0062-sketch-19.png,1.0,1.4736034,0.40686387,0.7542988
alexnet_w1_mlp_simclrhn_probe3,1,366,NaN,cat,cat,0,0366_ske_dnn_0_cat_00_cat-0067-sketch-23.png,cat-0067-sketch-23.png,1.0,2.8504333,0.51317626,1.6526904
alexnet_w1_mlp_simclrhn_probe3,1,367,NaN,clock,cat,0,0367_ske_dnn_0_cat_00_cat-0073-sketch-29.png,cat-0073-sketch-29.png,0.0,0.19422211,1.6114521,-1.002133
alexnet_w1_mlp_simclrhn_probe3,1,368,NaN,clock,cat,0,0368_ske_dnn_0_cat_00_cat-0082-sketch-37.png,cat-0082-sketch-37.png,0.0,0.2871976,1.8266183,-1.0885348
alexnet_w1_mlp_simclrhn_probe3,1,369,NaN,cat,cat,0,0369_ske_dnn_0_cat_00_cat-0085-sketch-4.png,cat-0085-sketch-4.png,1.0,2.1469474,0.4322222,1.2124939
alexnet_w1_mlp_simclrhn_probe3,1,370,NaN,cat,cat,0,0370_ske_dnn_0_cat_00_cat-0090-sketch-44.png,cat-0090-sketch-44.png,1.0,2.6735327,0.38792145,1.6161711
alexnet_w1_mlp_simclrhn_probe3,1,371,NaN,cat,cat,0,0371_ske_dnn_0_cat_00_cat-0104-sketch-10.png,cat-0104-sketch-10.png,1.0,0.627931,0.09636296,0.37587538
alexnet_w1_mlp_simclrhn_probe3,1,372,NaN,cat,cat,0,0372_ske_dnn_0_cat_00_cat-0124-sketch-29.png,cat-0124-sketch-29.png,1.0,3.4503381,0.8230181,1.8577958
alexnet_w1_mlp_simclrhn_probe3,1,373,NaN,cat,cat,0,0373_ske_dnn_0_cat_00_cat-0128-sketch-32.png,cat-0128-sketch-32.png,1.0,5.3793716,0.89670235,3.169726
alexnet_w1_mlp_simclrhn_probe3,1,374,NaN,cat,cat,0,0374_ske_dnn_0_cat_00_cat-0134-sketch-38.png,cat-0134-sketch-38.png,1.0,1.7075629,0.86992854,0.59229696
alexnet_w1_mlp_simclrhn_probe3,1,375,NaN,cat,cat,0,0375_ske_dnn_0_cat_00_cat-0140-sketch-43.png,cat-0140-sketch-43.png,1.0,5.4992175,0.75297993,3.356097
alexnet_w1_mlp_simclrhn_probe3,1,376,NaN,cat,cat,0,0376_ske_dnn_0_cat_00_cat-0149-sketch-6.png,cat-0149-sketch-6.png,1.0,1.9432282,0.40152615,1.090148
alexnet_w1_mlp_simclrhn_probe3,1,377,NaN,cat,cat,0,0377_ske_dnn_0_cat_00_cat-0150-sketch-7.png,cat-0150-sketch-7.png,1.0,3.6965778,0.87148094,1.9976451
alexnet_w1_mlp_simclrhn_probe3,1,378,NaN,cat,cat,0,0378_ske_dnn_0_cat_00_cat-0152-sketch-9.png,cat-0152-sketch-9.png,1.0,1.1511335,0.9130367,0.16835989
alexnet_w1_mlp_simclrhn_probe3,1,379,NaN,clock,cat,0,0379_ske_dnn_0_cat_00_cat-0158-sketch-13.png,cat-0158-sketch-13.png,0.0,-0.87234807,2.2717948,-2.2232447
alexnet_w1_mlp_simclrhn_probe3,1,380,NaN,cat,cat,0,0380_ske_dnn_0_cat_00_cat-0160-sketch-15.png,cat-0160-sketch-15.png,1.0,2.3885558,0.5887187,1.2726771
alexnet_w1_mlp_simclrhn_probe3,1,381,NaN,cat,cat,0,0381_ske_dnn_0_cat_00_cat-0175-sketch-29.png,cat-0175-sketch-29.png,1.0,4.1373577,0.75832796,2.389335
alexnet_w1_mlp_simclrhn_probe3,1,382,NaN,clock,cat,0,0382_ske_dnn_0_cat_00_cat-0207-sketch-11.png,cat-0207-sketch-11.png,0.0,-1.1160364,4.218079,-3.7717893
alexnet_w1_mlp_simclrhn_probe3,1,383,NaN,clock,cat,0,0383_ske_dnn_0_cat_00_cat-0229-sketch-31.png,cat-0229-sketch-31.png,0.0,-0.7335668,2.1150877,-2.014303
alexnet_w1_mlp_simclrhn_probe3,1,384,NaN,clock,cat,0,0384_ske_dnn_0_cat_00_cat-0233-sketch-35.png,cat-0233-sketch-35.png,0.0,-1.1160364,4.218079,-3.7717893
alexnet_w1_mlp_simclrhn_probe3,1,385,NaN,clock,cat,0,0385_ske_dnn_0_cat_00_cat-0241-sketch-42.png,cat-0241-sketch-42.png,0.0,-0.085558005,3.6304104,-2.6275864
alexnet_w1_mlp_simclrhn_probe3,1,386,NaN,chair,cat,0,0386_ske_dnn_0_cat_00_cat-0245-sketch-46.png,cat-0245-sketch-46.png,0.0,-0.66945034,1.8838699,-1.80547
alexnet_w1_mlp_simclrhn_probe3,1,387,NaN,clock,cat,0,0387_ske_dnn_0_cat_00_cat-0250-sketch-50.png,cat-0250-sketch-50.png,0.0,-1.1245924,3.9986,-3.6226442
alexnet_w1_mlp_simclrhn_probe3,1,388,NaN,clock,cat,0,0388_ske_dnn_0_cat_00_cat-0251-sketch-6.png,cat-0251-sketch-6.png,0.0,-0.085558005,3.6304104,-2.6275864
alexnet_w1_mlp_simclrhn_probe3,1,389,NaN,cat,cat,0,0389_ske_dnn_0_cat_00_cat-0258-sketch-11.png,cat-0258-sketch-11.png,1.0,8.031568,1.3718168,4.709155
alexnet_w1_mlp_simclrhn_probe3,1,390,NaN,bicycle,cat,0,0390_ske_dnn_0_cat_00_cat-0260-sketch-13.png,cat-0260-sketch-13.png,0.0,-0.68283635,3.6426294,-3.058566
alexnet_w1_mlp_simclrhn_probe3,1,391,NaN,knife,cat,0,0391_ske_dnn_0_cat_00_cat-0264-sketch-17.png,cat-0264-sketch-17.png,0.0,0.4851854,1.1465652,-0.46766615
alexnet_w1_mlp_simclrhn_probe3,1,392,NaN,cat,cat,0,0392_ske_dnn_0_cat_00_cat-0265-sketch-18.png,cat-0265-sketch-18.png,1.0,4.3571134,0.9331556,2.421104
alexnet_w1_mlp_simclrhn_probe3,1,393,NaN,clock,cat,0,0393_ske_dnn_0_cat_00_cat-0269-sketch-21.png,cat-0269-sketch-21.png,0.0,1.1242925,1.2163708,-0.06510921
alexnet_w1_mlp_simclrhn_probe3,1,394,NaN,cat,cat,0,0394_ske_dnn_0_cat_00_cat-0274-sketch-26.png,cat-0274-sketch-26.png,1.0,2.5916674,1.4470581,0.80936104
alexnet_w1_mlp_simclrhn_probe3,1,395,NaN,cat,cat,0,0395_ske_dnn_0_cat_00_cat-0279-sketch-30.png,cat-0279-sketch-30.png,1.0,0.7920833,0.44076696,0.24841818
alexnet_w1_mlp_simclrhn_probe3,1,396,NaN,cat,cat,0,0396_ske_dnn_0_cat_00_cat-0289-sketch-4.png,cat-0289-sketch-4.png,1.0,0.4716071,0.30907136,0.114930116
alexnet_w1_mlp_simclrhn_probe3,1,397,NaN,cat,cat,0,0397_ske_dnn_0_cat_00_cat-0293-sketch-43.png,cat-0293-sketch-43.png,1.0,6.9485564,1.029365,4.1855006
alexnet_w1_mlp_simclrhn_probe3,1,398,NaN,cat,cat,0,0398_ske_dnn_0_cat_00_cat-0295-sketch-45.png,cat-0295-sketch-45.png,1.0,9.076867,1.7996955,5.1457376
alexnet_w1_mlp_simclrhn_probe3,1,399,NaN,cat,cat,0,0399_ske_dnn_0_cat_00_cat-0302-sketch-6.png,cat-0302-sketch-6.png,1.0,2.914115,1.6698399,0.87983537
alexnet_w1_mlp_simclrhn_probe3,1,400,NaN,cat,cat,0,0400_ske_dnn_0_cat_00_cat-0304-sketch-8.png,cat-0304-sketch-8.png,1.0,5.3921356,1.0339853,3.081678
alexnet_w1_mlp_simclrhn_probe3,1,401,NaN,clock,chair,0,0401_ske_dnn_0_chair_00_chair-0002-sketch-1.png,chair-0002-sketch-1.png,0.0,0.5837552,1.9579912,-0.97173166
alexnet_w1_mlp_simclrhn_probe3,1,402,NaN,chair,chair,0,0402_ske_dnn_0_chair_00_chair-0005-sketch-12.png,chair-0005-sketch-12.png,1.0,5.9152217,3.4328377,1.7553105
alexnet_w1_mlp_simclrhn_probe3,1,403,NaN,chair,chair,0,0403_ske_dnn_0_chair_00_chair-0006-sketch-13.png,chair-0006-sketch-13.png,1.0,2.2602382,1.437071,0.58206713
alexnet_w1_mlp_simclrhn_probe3,1,404,NaN,chair,chair,0,0404_ske_dnn_0_chair_00_chair-0011-sketch-18.png,chair-0011-sketch-18.png,1.0,3.9524171,2.4086628,1.0915992
alexnet_w1_mlp_simclrhn_probe3,1,405,NaN,bicycle,chair,0,0405_ske_dnn_0_chair_00_chair-0013-sketch-2.png,chair-0013-sketch-2.png,0.0,2.118208,3.5449696,-1.0088729
alexnet_w1_mlp_simclrhn_probe3,1,406,NaN,chair,chair,0,0406_ske_dnn_0_chair_00_chair-0014-sketch-20.png,chair-0014-sketch-20.png,1.0,4.005315,1.6933578,1.6348004
alexnet_w1_mlp_simclrhn_probe3,1,407,NaN,clock,chair,0,0407_ske_dnn_0_chair_00_chair-0017-sketch-23.png,chair-0017-sketch-23.png,0.0,1.401134,2.4593706,-0.7482863
alexnet_w1_mlp_simclrhn_probe3,1,408,NaN,chair,chair,0,0408_ske_dnn_0_chair_00_chair-0029-sketch-34.png,chair-0029-sketch-34.png,1.0,2.778157,2.199823,0.40894395
alexnet_w1_mlp_simclrhn_probe3,1,409,NaN,bicycle,chair,0,0409_ske_dnn_0_chair_00_chair-0034-sketch-39.png,chair-0034-sketch-39.png,0.0,2.1418643,3.5518775,-0.9970299
alexnet_w1_mlp_simclrhn_probe3,1,410,NaN,chair,chair,0,0410_ske_dnn_0_chair_00_chair-0040-sketch-44.png,chair-0040-sketch-44.png,1.0,6.6966715,2.6511705,2.860601
alexnet_w1_mlp_simclrhn_probe3,1,411,NaN,chair,chair,0,0411_ske_dnn_0_chair_00_chair-0051-sketch-9.png,chair-0051-sketch-9.png,1.0,3.6529007,1.3475952,1.6300972
alexnet_w1_mlp_simclrhn_probe3,1,412,NaN,knife,chair,0,0412_ske_dnn_0_chair_00_chair-0052-sketch-0.png,chair-0052-sketch-0.png,0.0,0.9250986,2.0128713,-0.7691714
alexnet_w1_mlp_simclrhn_probe3,1,413,NaN,clock,chair,0,0413_ske_dnn_0_chair_00_chair-0055-sketch-11.png,chair-0055-sketch-11.png,0.0,2.250209,2.8833954,-0.44773036
alexnet_w1_mlp_simclrhn_probe3,1,414,NaN,chair,chair,0,0414_ske_dnn_0_chair_00_chair-0060-sketch-16.png,chair-0060-sketch-16.png,1.0,4.8817496,4.6003513,0.19897865
alexnet_w1_mlp_simclrhn_probe3,1,415,NaN,chair,chair,0,0415_ske_dnn_0_chair_00_chair-0062-sketch-18.png,chair-0062-sketch-18.png,1.0,5.231491,3.652876,1.1162496
alexnet_w1_mlp_simclrhn_probe3,1,416,NaN,chair,chair,0,0416_ske_dnn_0_chair_00_chair-0063-sketch-19.png,chair-0063-sketch-19.png,1.0,5.6692076,3.7505744,1.3566786
alexnet_w1_mlp_simclrhn_probe3,1,417,NaN,chair,chair,0,0417_ske_dnn_0_chair_00_chair-0064-sketch-2.png,chair-0064-sketch-2.png,1.0,1.6895556,1.2362187,0.32055765
alexnet_w1_mlp_simclrhn_probe3,1,418,NaN,chair,chair,0,0418_ske_dnn_0_chair_00_chair-0066-sketch-21.png,chair-0066-sketch-21.png,1.0,2.0650692,1.9160142,0.105397806
alexnet_w1_mlp_simclrhn_probe3,1,419,NaN,chair,chair,0,0419_ske_dnn_0_chair_00_chair-0067-sketch-22.png,chair-0067-sketch-22.png,1.0,3.6969595,1.7618034,1.3683621
alexnet_w1_mlp_simclrhn_probe3,1,420,NaN,chair,chair,0,0420_ske_dnn_0_chair_00_chair-0071-sketch-26.png,chair-0071-sketch-26.png,1.0,2.6840072,1.920437,0.5399257
alexnet_w1_mlp_simclrhn_probe3,1,421,NaN,chair,chair,0,0421_ske_dnn_0_chair_00_chair-0072-sketch-27.png,chair-0072-sketch-27.png,1.0,3.1180205,2.691305,0.3017335
alexnet_w1_mlp_simclrhn_probe3,1,422,NaN,chair,chair,0,0422_ske_dnn_0_chair_00_chair-0076-sketch-30.png,chair-0076-sketch-30.png,1.0,5.2424035,3.3720639,1.3225299
alexnet_w1_mlp_simclrhn_probe3,1,423,NaN,chair,chair,0,0423_ske_dnn_0_chair_00_chair-0079-sketch-33.png,chair-0079-sketch-33.png,1.0,6.347478,3.9279366,1.7108741
alexnet_w1_mlp_simclrhn_probe3,1,424,NaN,clock,chair,0,0424_ske_dnn_0_chair_00_chair-0083-sketch-37.png,chair-0083-sketch-37.png,0.0,2.1431632,3.4271595,-0.90792257
alexnet_w1_mlp_simclrhn_probe3,1,425,NaN,chair,chair,0,0425_ske_dnn_0_chair_00_chair-0088-sketch-41.png,chair-0088-sketch-41.png,1.0,2.3505702,1.6674873,0.4830126
alexnet_w1_mlp_simclrhn_probe3,1,426,NaN,chair,chair,0,0426_ske_dnn_0_chair_00_chair-0094-sketch-47.png,chair-0094-sketch-47.png,1.0,4.7661824,2.469077,1.6242988
alexnet_w1_mlp_simclrhn_probe3,1,427,NaN,knife,chair,0,0427_ske_dnn_0_chair_00_chair-0105-sketch-11.png,chair-0105-sketch-11.png,0.0,0.7667412,1.0764012,-0.2189627
alexnet_w1_mlp_simclrhn_probe3,1,428,NaN,chair,chair,0,0428_ske_dnn_0_chair_00_chair-0118-sketch-23.png,chair-0118-sketch-23.png,1.0,5.253509,3.4685757,1.2621385
alexnet_w1_mlp_simclrhn_probe3,1,429,NaN,chair,chair,0,0429_ske_dnn_0_chair_00_chair-0122-sketch-27.png,chair-0122-sketch-27.png,1.0,6.113267,2.8484578,2.3085687
alexnet_w1_mlp_simclrhn_probe3,1,430,NaN,chair,chair,0,0430_ske_dnn_0_chair_00_chair-0124-sketch-29.png,chair-0124-sketch-29.png,1.0,2.7257123,1.356205,0.9683879
alexnet_w1_mlp_simclrhn_probe3,1,431,NaN,chair,chair,0,0431_ske_dnn_0_chair_00_chair-0125-sketch-3.png,chair-0125-sketch-3.png,1.0,3.7072282,1.5878316,1.4986398
alexnet_w1_mlp_simclrhn_probe3,1,432,NaN,chair,chair,0,0432_ske_dnn_0_chair_00_chair-0127-sketch-31.png,chair-0127-sketch-31.png,1.0,2.9930785,1.034491,1.3849305
alexnet_w1_mlp_simclrhn_probe3,1,433,NaN,bicycle,chair,0,0433_ske_dnn_0_chair_00_chair-0129-sketch-33.png,chair-0129-sketch-33.png,0.0,4.4248734,5.099371,-0.47694182
alexnet_w1_mlp_simclrhn_probe3,1,434,NaN,chair,chair,0,0434_ske_dnn_0_chair_00_chair-0130-sketch-34.png,chair-0130-sketch-34.png,1.0,3.4780812,3.0153756,0.3271823
alexnet_w1_mlp_simclrhn_probe3,1,435,NaN,chair,chair,0,0435_ske_dnn_0_chair_00_chair-0131-sketch-35.png,chair-0131-sketch-35.png,1.0,3.0232024,2.052635,0.68629485
alexnet_w1_mlp_simclrhn_probe3,1,436,NaN,chair,chair,0,0436_ske_dnn_0_chair_00_chair-0135-sketch-39.png,chair-0135-sketch-39.png,1.0,4.9927444,3.7005196,0.913741
alexnet_w1_mlp_simclrhn_probe3,1,437,NaN,airplane,chair,0,0437_ske_dnn_0_chair_00_chair-0144-sketch-47.png,chair-0144-sketch-47.png,0.0,2.0404859,2.6497324,-0.43080235
alexnet_w1_mlp_simclrhn_probe3,1,438,NaN,chair,chair,0,0438_ske_dnn_0_chair_00_chair-0145-sketch-48.png,chair-0145-sketch-48.png,1.0,3.601529,1.809518,1.2671431
alexnet_w1_mlp_simclrhn_probe3,1,439,NaN,bicycle,chair,0,0439_ske_dnn_0_chair_00_chair-0153-sketch-0.png,chair-0153-sketch-0.png,0.0,3.2762117,6.3650393,-2.184131
alexnet_w1_mlp_simclrhn_probe3,1,440,NaN,chair,chair,0,0440_ske_dnn_0_chair_00_chair-0155-sketch-10.png,chair-0155-sketch-10.png,1.0,3.8164082,3.554364,0.18529323
alexnet_w1_mlp_simclrhn_probe3,1,441,NaN,chair,chair,0,0441_ske_dnn_0_chair_00_chair-0163-sketch-18.png,chair-0163-sketch-18.png,1.0,2.713936,1.252838,1.0331523
alexnet_w1_mlp_simclrhn_probe3,1,442,NaN,clock,chair,0,0442_ske_dnn_0_chair_00_chair-0166-sketch-20.png,chair-0166-sketch-20.png,0.0,1.4336094,2.8907022,-1.0303203
alexnet_w1_mlp_simclrhn_probe3,1,443,NaN,chair,chair,0,0443_ske_dnn_0_chair_00_chair-0167-sketch-21.png,chair-0167-sketch-21.png,1.0,3.3846023,1.915719,1.0386573
alexnet_w1_mlp_simclrhn_probe3,1,444,NaN,oven,chair,0,0444_ske_dnn_0_chair_00_chair-0168-sketch-22.png,chair-0168-sketch-22.png,0.0,1.7206275,2.7374444,-0.71899813
alexnet_w1_mlp_simclrhn_probe3,1,445,NaN,chair,chair,0,0445_ske_dnn_0_chair_00_chair-0175-sketch-29.png,chair-0175-sketch-29.png,1.0,2.4814632,1.7494268,0.5176279
alexnet_w1_mlp_simclrhn_probe3,1,446,NaN,clock,chair,0,0446_ske_dnn_0_chair_00_chair-0176-sketch-3.png,chair-0176-sketch-3.png,0.0,-0.061605483,5.4472833,-3.8953726
alexnet_w1_mlp_simclrhn_probe3,1,447,NaN,clock,chair,0,0447_ske_dnn_0_chair_00_chair-0178-sketch-31.png,chair-0178-sketch-31.png,0.0,1.753433,3.0291834,-0.9020918
alexnet_w1_mlp_simclrhn_probe3,1,448,NaN,chair,chair,0,0448_ske_dnn_0_chair_00_chair-0180-sketch-33.png,chair-0180-sketch-33.png,1.0,0.92141443,0.66930395,0.17826903
alexnet_w1_mlp_simclrhn_probe3,1,449,NaN,oven,chair,0,0449_ske_dnn_0_chair_00_chair-0197-sketch-49.png,chair-0197-sketch-49.png,0.0,1.7512779,2.910728,-0.81985503
alexnet_w1_mlp_simclrhn_probe3,1,450,NaN,cat,chair,0,0450_ske_dnn_0_chair_00_chair-0200-sketch-6.png,chair-0200-sketch-6.png,0.0,0.5774001,0.7369526,-0.11282067
alexnet_w1_mlp_simclrhn_probe3,1,451,NaN,clock,clock,0,0451_ske_dnn_0_clock_00_clock-0005-sketch-12.png,clock-0005-sketch-12.png,1.0,15.29314,1.6879427,9.620328
alexnet_w1_mlp_simclrhn_probe3,1,452,NaN,clock,clock,0,0452_ske_dnn_0_clock_00_clock-0007-sketch-14.png,clock-0007-sketch-14.png,1.0,9.135591,0.7200083,5.9507155
alexnet_w1_mlp_simclrhn_probe3,1,453,NaN,clock,clock,0,0453_ske_dnn_0_clock_00_clock-0015-sketch-21.png,clock-0015-sketch-21.png,1.0,6.735077,1.0631175,4.010681
alexnet_w1_mlp_simclrhn_probe3,1,454,NaN,clock,clock,0,0454_ske_dnn_0_clock_00_clock-0017-sketch-23.png,clock-0017-sketch-23.png,1.0,4.0548463,0.89867765,2.2317483
alexnet_w1_mlp_simclrhn_probe3,1,455,NaN,clock,clock,0,0455_ske_dnn_0_clock_00_clock-0018-sketch-24.png,clock-0018-sketch-24.png,1.0,10.845962,2.7936127,5.6938705
alexnet_w1_mlp_simclrhn_probe3,1,456,NaN,clock,clock,0,0456_ske_dnn_0_clock_00_clock-0021-sketch-27.png,clock-0021-sketch-27.png,1.0,2.91447,2.5793548,0.23696223
alexnet_w1_mlp_simclrhn_probe3,1,457,NaN,clock,clock,0,0457_ske_dnn_0_clock_00_clock-0022-sketch-28.png,clock-0022-sketch-28.png,1.0,5.521849,2.8114781,1.9165218
alexnet_w1_mlp_simclrhn_probe3,1,458,NaN,clock,clock,0,0458_ske_dnn_0_clock_00_clock-0027-sketch-32.png,clock-0027-sketch-32.png,1.0,3.7644217,0.8061359,2.091824
alexnet_w1_mlp_simclrhn_probe3,1,459,NaN,clock,clock,0,0459_ske_dnn_0_clock_00_clock-0028-sketch-33.png,clock-0028-sketch-33.png,1.0,10.86467,1.739795,6.452261
alexnet_w1_mlp_simclrhn_probe3,1,460,NaN,clock,clock,0,0460_ske_dnn_0_clock_00_clock-0030-sketch-35.png,clock-0030-sketch-35.png,1.0,13.636937,2.6759176,7.7506113
alexnet_w1_mlp_simclrhn_probe3,1,461,NaN,clock,clock,0,0461_ske_dnn_0_clock_00_clock-0033-sketch-38.png,clock-0033-sketch-38.png,1.0,14.2532625,2.9493136,7.993099
alexnet_w1_mlp_simclrhn_probe3,1,462,NaN,clock,clock,0,0462_ske_dnn_0_clock_00_clock-0035-sketch-4.png,clock-0035-sketch-4.png,1.0,11.815499,1.0686718,7.5991545
alexnet_w1_mlp_simclrhn_probe3,1,463,NaN,clock,clock,0,0463_ske_dnn_0_clock_00_clock-0044-sketch-48.png,clock-0044-sketch-48.png,1.0,5.102562,0.16340968,3.4925082
alexnet_w1_mlp_simclrhn_probe3,1,464,NaN,clock,clock,0,0464_ske_dnn_0_clock_00_clock-0046-sketch-5.png,clock-0046-sketch-5.png,1.0,7.6361504,0.8120512,4.825367
alexnet_w1_mlp_simclrhn_probe3,1,465,NaN,clock,clock,0,0465_ske_dnn_0_clock_00_clock-0049-sketch-7.png,clock-0049-sketch-7.png,1.0,6.9804993,1.177068,4.103646
alexnet_w1_mlp_simclrhn_probe3,1,466,NaN,keyboard,clock,0,0466_ske_dnn_0_clock_00_clock-0057-sketch-13.png,clock-0057-sketch-13.png,0.0,3.6500158,4.851781,-0.8497762
alexnet_w1_mlp_simclrhn_probe3,1,467,NaN,clock,clock,0,0467_ske_dnn_0_clock_00_clock-0059-sketch-15.png,clock-0059-sketch-15.png,1.0,5.9962215,0.75317866,3.7073913
alexnet_w1_mlp_simclrhn_probe3,1,468,NaN,clock,clock,0,0468_ske_dnn_0_clock_00_clock-0060-sketch-16.png,clock-0060-sketch-16.png,1.0,3.641656,1.8851188,1.2420594
alexnet_w1_mlp_simclrhn_probe3,1,469,NaN,clock,clock,0,0469_ske_dnn_0_clock_00_clock-0067-sketch-22.png,clock-0067-sketch-22.png,1.0,6.2821097,4.045293,1.5816684
alexnet_w1_mlp_simclrhn_probe3,1,470,NaN,keyboard,clock,0,0470_ske_dnn_0_clock_00_clock-0069-sketch-24.png,clock-0069-sketch-24.png,0.0,2.8646162,4.068665,-0.85139114
alexnet_w1_mlp_simclrhn_probe3,1,471,NaN,clock,clock,0,0471_ske_dnn_0_clock_00_clock-0070-sketch-25.png,clock-0070-sketch-25.png,1.0,5.648906,4.8045387,0.597058
alexnet_w1_mlp_simclrhn_probe3,1,472,NaN,clock,clock,0,0472_ske_dnn_0_clock_00_clock-0071-sketch-26.png,clock-0071-sketch-26.png,1.0,12.022117,1.3253242,7.5637746
alexnet_w1_mlp_simclrhn_probe3,1,473,NaN,chair,clock,0,0473_ske_dnn_0_clock_00_clock-0073-sketch-28.png,clock-0073-sketch-28.png,0.0,1.0048164,2.7447453,-1.2303154
alexnet_w1_mlp_simclrhn_probe3,1,474,NaN,keyboard,clock,0,0474_ske_dnn_0_clock_00_clock-0074-sketch-29.png,clock-0074-sketch-29.png,0.0,0.99296147,2.3639002,-0.9694001
alexnet_w1_mlp_simclrhn_probe3,1,475,NaN,clock,clock,0,0475_ske_dnn_0_clock_00_clock-0076-sketch-30.png,clock-0076-sketch-30.png,1.0,7.2331944,4.0996346,2.2157614
alexnet_w1_mlp_simclrhn_probe3,1,476,NaN,clock,clock,0,0476_ske_dnn_0_clock_00_clock-0077-sketch-31.png,clock-0077-sketch-31.png,1.0,5.907292,4.6988444,0.8545014
alexnet_w1_mlp_simclrhn_probe3,1,477,NaN,clock,clock,0,0477_ske_dnn_0_clock_00_clock-0078-sketch-32.png,clock-0078-sketch-32.png,1.0,5.0247183,3.4231472,1.1324818
alexnet_w1_mlp_simclrhn_probe3,1,478,NaN,clock,clock,0,0478_ske_dnn_0_clock_00_clock-0081-sketch-35.png,clock-0081-sketch-35.png,1.0,6.3120217,2.151388,2.9420125
alexnet_w1_mlp_simclrhn_probe3,1,479,NaN,clock,clock,0,0479_ske_dnn_0_clock_00_clock-0085-sketch-39.png,clock-0085-sketch-39.png,1.0,7.7733936,5.002968,1.9589869
alexnet_w1_mlp_simclrhn_probe3,1,480,NaN,oven,clock,0,0480_ske_dnn_0_clock_00_clock-0087-sketch-40.png,clock-0087-sketch-40.png,0.0,3.494651,3.9896426,-0.3500119
alexnet_w1_mlp_simclrhn_probe3,1,481,NaN,clock,clock,0,0481_ske_dnn_0_clock_00_clock-0092-sketch-45.png,clock-0092-sketch-45.png,1.0,4.8014293,3.5916336,0.85545474
alexnet_w1_mlp_simclrhn_probe3,1,482,NaN,clock,clock,0,0482_ske_dnn_0_clock_00_clock-0093-sketch-46.png,clock-0093-sketch-46.png,1.0,6.051495,0.8776399,3.6584682
alexnet_w1_mlp_simclrhn_probe3,1,483,NaN,clock,clock,0,0483_ske_dnn_0_clock_00_clock-0095-sketch-48.png,clock-0095-sketch-48.png,1.0,7.837364,5.1361437,1.9100513
alexnet_w1_mlp_simclrhn_probe3,1,484,NaN,keyboard,clock,0,0484_ske_dnn_0_clock_00_clock-0099-sketch-6.png,clock-0099-sketch-6.png,0.0,2.5605695,4.675377,-1.4953947
alexnet_w1_mlp_simclrhn_probe3,1,485,NaN,clock,clock,0,0485_ske_dnn_0_clock_00_clock-0110-sketch-15.png,clock-0110-sketch-15.png,1.0,6.118034,1.7113489,3.1159968
alexnet_w1_mlp_simclrhn_probe3,1,486,NaN,clock,clock,0,0486_ske_dnn_0_clock_00_clock-0112-sketch-17.png,clock-0112-sketch-17.png,1.0,20.17411,2.0629663,12.806514
alexnet_w1_mlp_simclrhn_probe3,1,487,NaN,clock,clock,0,0487_ske_dnn_0_clock_00_clock-0115-sketch-2.png,clock-0115-sketch-2.png,1.0,7.5932336,2.4554093,3.6329904
alexnet_w1_mlp_simclrhn_probe3,1,488,NaN,clock,clock,0,0488_ske_dnn_0_clock_00_clock-0118-sketch-22.png,clock-0118-sketch-22.png,1.0,12.403716,2.9172478,6.7079463
alexnet_w1_mlp_simclrhn_probe3,1,489,NaN,clock,clock,0,0489_ske_dnn_0_clock_00_clock-0123-sketch-27.png,clock-0123-sketch-27.png,1.0,13.972328,1.3282459,8.940717
alexnet_w1_mlp_simclrhn_probe3,1,490,NaN,clock,clock,0,0490_ske_dnn_0_clock_00_clock-0127-sketch-30.png,clock-0127-sketch-30.png,1.0,12.214236,3.090771,6.4512644
alexnet_w1_mlp_simclrhn_probe3,1,491,NaN,clock,clock,0,0491_ske_dnn_0_clock_00_clock-0131-sketch-34.png,clock-0131-sketch-34.png,1.0,10.018659,3.119683,4.8783126
alexnet_w1_mlp_simclrhn_probe3,1,492,NaN,clock,clock,0,0492_ske_dnn_0_clock_00_clock-0132-sketch-35.png,clock-0132-sketch-35.png,1.0,6.2217584,1.2125976,3.5420117
alexnet_w1_mlp_simclrhn_probe3,1,493,NaN,clock,clock,0,0493_ske_dnn_0_clock_00_clock-0133-sketch-36.png,clock-0133-sketch-36.png,1.0,4.6367764,0.4774118,2.9411151
alexnet_w1_mlp_simclrhn_probe3,1,494,NaN,clock,clock,0,0494_ske_dnn_0_clock_00_clock-0136-sketch-39.png,clock-0136-sketch-39.png,1.0,10.76994,2.1124063,6.121801
alexnet_w1_mlp_simclrhn_probe3,1,495,NaN,clock,clock,0,0495_ske_dnn_0_clock_00_clock-0137-sketch-4.png,clock-0137-sketch-4.png,1.0,8.965928,0.84948325,5.739193
alexnet_w1_mlp_simclrhn_probe3,1,496,NaN,clock,clock,0,0496_ske_dnn_0_clock_00_clock-0138-sketch-40.png,clock-0138-sketch-40.png,1.0,8.33882,3.871899,3.1585908
alexnet_w1_mlp_simclrhn_probe3,1,497,NaN,clock,clock,0,0497_ske_dnn_0_clock_00_clock-0141-sketch-43.png,clock-0141-sketch-43.png,1.0,6.8806176,0.8488546,4.2651005
alexnet_w1_mlp_simclrhn_probe3,1,498,NaN,clock,clock,0,0498_ske_dnn_0_clock_00_clock-0143-sketch-45.png,clock-0143-sketch-45.png,1.0,7.3579335,0.9410516,4.5374207
alexnet_w1_mlp_simclrhn_probe3,1,499,NaN,clock,clock,0,0499_ske_dnn_0_clock_00_clock-0144-sketch-46.png,clock-0144-sketch-46.png,1.0,8.939916,0.98509204,5.62491
alexnet_w1_mlp_simclrhn_probe3,1,500,NaN,clock,clock,0,0500_ske_dnn_0_clock_00_clock-0150-sketch-6.png,clock-0150-sketch-6.png,1.0,11.626822,2.8727999,6.1900287
alexnet_w1_mlp_simclrhn_probe3,1,501,NaN,dog,dog,0,0501_ske_dnn_0_dog_00_dog-0011-sketch-18.png,dog-0011-sketch-18.png,1.0,1.8206307,0.7513469,0.7560978
alexnet_w1_mlp_simclrhn_probe3,1,502,NaN,cat,dog,0,0502_ske_dnn_0_dog_00_dog-0111-sketch-17.png,dog-0111-sketch-17.png,0.0,0.44603646,1.0160538,-0.40306312
alexnet_w1_mlp_simclrhn_probe3,1,503,NaN,clock,dog,0,0503_ske_dnn_0_dog_00_dog-0215-sketch-19.png,dog-0215-sketch-19.png,0.0,-0.6710166,4.70657,-3.8025281
alexnet_w1_mlp_simclrhn_probe3,1,504,NaN,cat,dog,0,0504_ske_dnn_0_dog_00_dog-0243-sketch-44.png,dog-0243-sketch-44.png,0.0,0.6010456,1.0584558,-0.32343787
alexnet_w1_mlp_simclrhn_probe3,1,505,NaN,cat,dog,0,0505_ske_dnn_0_dog_00_dog-0476-sketch-26.png,dog-0476-sketch-26.png,0.0,0.6921998,1.1808399,-0.3455207
alexnet_w1_mlp_simclrhn_probe3,1,506,NaN,cat,dog,0,0506_ske_dnn_0_dog_00_dog-0607-sketch-8.png,dog-0607-sketch-8.png,0.0,0.60655826,1.3057323,-0.49439067
alexnet_w1_mlp_simclrhn_probe3,1,507,NaN,dog,dog,0,0507_ske_dnn_0_dog_00_dog-0630-sketch-28.png,dog-0630-sketch-28.png,1.0,3.3263497,1.3061186,1.4285192
alexnet_w1_mlp_simclrhn_probe3,1,508,NaN,cat,dog,0,0508_ske_dnn_0_dog_00_dog-1035-sketch-27.png,dog-1035-sketch-27.png,0.0,1.4114752,1.4291086,-0.012468724
alexnet_w1_mlp_simclrhn_probe3,1,509,NaN,dog,dog,0,0509_ske_dnn_0_dog_00_dog-1292-sketch-3.png,dog-1292-sketch-3.png,1.0,1.8096844,1.5514773,0.18257998
alexnet_w1_mlp_simclrhn_probe3,1,510,NaN,cat,dog,0,0510_ske_dnn_0_dog_00_dog-1393-sketch-3.png,dog-1393-sketch-3.png,0.0,0.35278797,1.043893,-0.48868504
alexnet_w1_mlp_simclrhn_probe3,1,511,NaN,cat,dog,0,0511_ske_dnn_0_dog_00_dog-1460-sketch-44.png,dog-1460-sketch-44.png,0.0,0.87708163,4.288441,-2.4121954
alexnet_w1_mlp_simclrhn_probe3,1,512,NaN,clock,dog,0,0512_ske_dnn_0_dog_00_dog-1617-sketch-48.png,dog-1617-sketch-48.png,0.0,-0.5324869,3.1404495,-2.5971582
alexnet_w1_mlp_simclrhn_probe3,1,513,NaN,dog,dog,0,0513_ske_dnn_0_dog_00_dog-1657-sketch-38.png,dog-1657-sketch-38.png,1.0,2.3798842,0.35331777,1.4329989
alexnet_w1_mlp_simclrhn_probe3,1,514,NaN,cat,dog,0,0514_ske_dnn_0_dog_00_dog-1711-sketch-40.png,dog-1711-sketch-40.png,0.0,0.2673575,1.2737007,-0.71159214
alexnet_w1_mlp_simclrhn_probe3,1,515,NaN,keyboard,dog,0,0515_ske_dnn_0_dog_00_dog-1759-sketch-38.png,dog-1759-sketch-38.png,0.0,0.7807926,1.2300645,-0.31768322
alexnet_w1_mlp_simclrhn_probe3,1,516,NaN,clock,dog,0,0516_ske_dnn_0_dog_00_dog-1797-sketch-26.png,dog-1797-sketch-26.png,0.0,-0.39610928,2.343151,-1.9369496
alexnet_w1_mlp_simclrhn_probe3,1,517,NaN,clock,dog,0,0517_ske_dnn_0_dog_00_dog-1973-sketch-47.png,dog-1973-sketch-47.png,0.0,0.25844508,0.6886541,-0.30420375
alexnet_w1_mlp_simclrhn_probe3,1,518,NaN,clock,dog,0,0518_ske_dnn_0_dog_00_dog-2150-sketch-22.png,dog-2150-sketch-22.png,0.0,0.42270094,3.4463787,-2.1380632
alexnet_w1_mlp_simclrhn_probe3,1,519,NaN,clock,dog,0,0519_ske_dnn_0_dog_00_dog-2198-sketch-20.png,dog-2198-sketch-20.png,0.0,-0.47485352,3.0018513,-2.4584017
alexnet_w1_mlp_simclrhn_probe3,1,520,NaN,dog,dog,0,0520_ske_dnn_0_dog_00_dog-2291-sketch-12.png,dog-2291-sketch-12.png,1.0,2.0270102,0.68425447,0.9494718
alexnet_w1_mlp_simclrhn_probe3,1,521,NaN,bird,dog,0,0521_ske_dnn_0_dog_00_dog-2323-sketch-41.png,dog-2323-sketch-41.png,0.0,0.6640288,2.1385775,-1.0426633
alexnet_w1_mlp_simclrhn_probe3,1,522,NaN,keyboard,dog,0,0522_ske_dnn_0_dog_00_dog-2454-sketch-21.png,dog-2454-sketch-21.png,0.0,0.5189882,1.1780357,-0.466017
alexnet_w1_mlp_simclrhn_probe3,1,523,NaN,dog,dog,0,0523_ske_dnn_0_dog_00_dog-2506-sketch-23.png,dog-2506-sketch-23.png,1.0,3.3825157,0.9656434,1.7089868
alexnet_w1_mlp_simclrhn_probe3,1,524,NaN,dog,dog,0,0524_ske_dnn_0_dog_00_dog-2541-sketch-0.png,dog-2541-sketch-0.png,1.0,1.3161483,0.8277127,0.3453761
alexnet_w1_mlp_simclrhn_probe3,1,525,NaN,elephant,dog,0,0525_ske_dnn_0_dog_00_dog-2615-sketch-3.png,dog-2615-sketch-3.png,0.0,1.4356738,1.4937127,-0.041039653
alexnet_w1_mlp_simclrhn_probe3,1,526,NaN,dog,dog,0,0526_ske_dnn_0_dog_00_dog-2948-sketch-10.png,dog-2948-sketch-10.png,1.0,1.9607244,1.7077793,0.17885917
alexnet_w1_mlp_simclrhn_probe3,1,527,NaN,dog,dog,0,0527_ske_dnn_0_dog_00_dog-3000-sketch-11.png,dog-3000-sketch-11.png,1.0,3.487631,0.65338945,2.0041115
alexnet_w1_mlp_simclrhn_probe3,1,528,NaN,knife,dog,0,0528_ske_dnn_0_dog_00_dog-3153-sketch-11.png,dog-3153-sketch-11.png,0.0,-0.11767192,0.40059817,-0.3664723
alexnet_w1_mlp_simclrhn_probe3,1,529,NaN,cat,dog,0,0529_ske_dnn_0_dog_00_dog-3251-sketch-9.png,dog-3251-sketch-9.png,0.0,0.054300845,1.1342968,-0.7636724
alexnet_w1_mlp_simclrhn_probe3,1,530,NaN,cat,dog,0,0530_ske_dnn_0_dog_00_dog-3303-sketch-0.png,dog-3303-sketch-0.png,0.0,0.8208598,1.1395371,-0.22533889
alexnet_w1_mlp_simclrhn_probe3,1,531,NaN,dog,dog,0,0531_ske_dnn_0_dog_00_dog-3338-sketch-40.png,dog-3338-sketch-40.png,1.0,2.506089,2.2559464,0.17687751
alexnet_w1_mlp_simclrhn_probe3,1,532,NaN,cat,dog,0,0532_ske_dnn_0_dog_00_dog-3417-sketch-2.png,dog-3417-sketch-2.png,0.0,0.38342002,1.0197281,-0.44993776
alexnet_w1_mlp_simclrhn_probe3,1,533,NaN,dog,dog,0,0533_ske_dnn_0_dog_00_dog-3503-sketch-6.png,dog-3503-sketch-6.png,1.0,0.6764775,0.67205876,0.0031245146
alexnet_w1_mlp_simclrhn_probe3,1,534,NaN,dog,dog,0,0534_ske_dnn_0_dog_00_dog-3573-sketch-22.png,dog-3573-sketch-22.png,1.0,2.4906487,1.5821052,0.64243734
alexnet_w1_mlp_simclrhn_probe3,1,535,NaN,cat,dog,0,0535_ske_dnn_0_dog_00_dog-3646-sketch-42.png,dog-3646-sketch-42.png,0.0,2.285234,4.662813,-1.6812024
alexnet_w1_mlp_simclrhn_probe3,1,536,NaN,cat,dog,0,0536_ske_dnn_0_dog_00_dog-3695-sketch-40.png,dog-3695-sketch-40.png,0.0,0.82113075,1.6573414,-0.5912902
alexnet_w1_mlp_simclrhn_probe3,1,537,NaN,keyboard,dog,0,0537_ske_dnn_0_dog_00_dog-3915-sketch-0.png,dog-3915-sketch-0.png,0.0,-0.47889987,0.33087137,-0.57259476
alexnet_w1_mlp_simclrhn_probe3,1,538,NaN,cat,dog,0,0538_ske_dnn_0_dog_00_dog-4202-sketch-4.png,dog-4202-sketch-4.png,0.0,1.4566424,4.3271003,-2.0297203
alexnet_w1_mlp_simclrhn_probe3,1,539,NaN,cat,dog,0,0539_ske_dnn_0_dog_00_dog-4208-sketch-45.png,dog-4208-sketch-45.png,0.0,0.80939126,2.200671,-0.9837833
alexnet_w1_mlp_simclrhn_probe3,1,540,NaN,elephant,dog,0,0540_ske_dnn_0_dog_00_dog-4325-sketch-13.png,dog-4325-sketch-13.png,0.0,1.514584,1.6060159,-0.06465217
alexnet_w1_mlp_simclrhn_probe3,1,541,NaN,dog,dog,0,0541_ske_dnn_0_dog_00_dog-4475-sketch-11.png,dog-4475-sketch-11.png,1.0,2.0506694,0.66553825,0.9794356
alexnet_w1_mlp_simclrhn_probe3,1,542,NaN,clock,dog,0,0542_ske_dnn_0_dog_00_dog-4499-sketch-33.png,dog-4499-sketch-33.png,0.0,-0.38524306,1.3054025,-1.195467
alexnet_w1_mlp_simclrhn_probe3,1,543,NaN,cat,dog,0,0543_ske_dnn_0_dog_00_dog-4581-sketch-16.png,dog-4581-sketch-16.png,0.0,0.30750558,1.6536478,-0.95186627
alexnet_w1_mlp_simclrhn_probe3,1,544,NaN,clock,dog,0,0544_ske_dnn_0_dog_00_dog-4709-sketch-4.png,dog-4709-sketch-4.png,0.0,-0.32832533,2.1375883,-1.7436643
alexnet_w1_mlp_simclrhn_probe3,1,545,NaN,cat,dog,0,0545_ske_dnn_0_dog_00_dog-4909-sketch-37.png,dog-4909-sketch-37.png,0.0,0.17220123,0.76921487,-0.4221524
alexnet_w1_mlp_simclrhn_probe3,1,546,NaN,cat,dog,0,0546_ske_dnn_0_dog_00_dog-5028-sketch-8.png,dog-5028-sketch-8.png,0.0,1.2643446,2.09192,-0.58518416
alexnet_w1_mlp_simclrhn_probe3,1,547,NaN,oven,dog,0,0547_ske_dnn_0_dog_00_dog-5084-sketch-11.png,dog-5084-sketch-11.png,0.0,0.06447949,0.6489738,-0.41329992
alexnet_w1_mlp_simclrhn_probe3,1,548,NaN,clock,dog,0,0548_ske_dnn_0_dog_00_dog-5223-sketch-45.png,dog-5223-sketch-45.png,0.0,0.49150553,1.3982588,-0.6411714
alexnet_w1_mlp_simclrhn_probe3,1,549,NaN,dog,dog,0,0549_ske_dnn_0_dog_00_dog-5325-sketch-45.png,dog-5325-sketch-45.png,1.0,1.9320188,1.3973948,0.37803626
alexnet_w1_mlp_simclrhn_probe3,1,550,NaN,cat,dog,0,0550_ske_dnn_0_dog_00_dog-5354-sketch-25.png,dog-5354-sketch-25.png,0.0,1.0252873,1.135389,-0.07785366
alexnet_w1_mlp_simclrhn_probe3,1,551,NaN,elephant,elephant,0,0551_ske_dnn_0_elephant_00_elephant-0001-sketch-0.png,elephant-0001-sketch-0.png,1.0,1.8639836,1.191408,0.47558278
alexnet_w1_mlp_simclrhn_probe3,1,552,NaN,elephant,elephant,0,0552_ske_dnn_0_elephant_00_elephant-0002-sketch-1.png,elephant-0002-sketch-1.png,1.0,2.953319,2.6833284,0.19091225
alexnet_w1_mlp_simclrhn_probe3,1,553,NaN,bicycle,elephant,0,0553_ske_dnn_0_elephant_00_elephant-0006-sketch-13.png,elephant-0006-sketch-13.png,0.0,0.19355454,1.2767576,-0.76594025
alexnet_w1_mlp_simclrhn_probe3,1,554,NaN,clock,elephant,0,0554_ske_dnn_0_elephant_00_elephant-0011-sketch-18.png,elephant-0011-sketch-18.png,0.0,-0.8931624,2.0263097,-2.0643787
alexnet_w1_mlp_simclrhn_probe3,1,555,NaN,bicycle,elephant,0,0555_ske_dnn_0_elephant_00_elephant-0012-sketch-19.png,elephant-0012-sketch-19.png,0.0,-1.1290755,2.118731,-2.296546
alexnet_w1_mlp_simclrhn_probe3,1,556,NaN,knife,elephant,0,0556_ske_dnn_0_elephant_00_elephant-0013-sketch-2.png,elephant-0013-sketch-2.png,0.0,1.0217341,1.1378038,-0.08207366
alexnet_w1_mlp_simclrhn_probe3,1,557,NaN,elephant,elephant,0,0557_ske_dnn_0_elephant_00_elephant-0014-sketch-20.png,elephant-0014-sketch-20.png,1.0,1.4642279,1.0504879,0.2925584
alexnet_w1_mlp_simclrhn_probe3,1,558,NaN,cat,elephant,0,0558_ske_dnn_0_elephant_00_elephant-0015-sketch-21.png,elephant-0015-sketch-21.png,0.0,0.9943111,1.6393703,-0.45612577
alexnet_w1_mlp_simclrhn_probe3,1,559,NaN,clock,elephant,0,0559_ske_dnn_0_elephant_00_elephant-0016-sketch-22.png,elephant-0016-sketch-22.png,0.0,-0.987654,2.609918,-2.5438676
alexnet_w1_mlp_simclrhn_probe3,1,560,NaN,elephant,elephant,0,0560_ske_dnn_0_elephant_00_elephant-0019-sketch-25.png,elephant-0019-sketch-25.png,1.0,3.9019685,1.3575419,1.7991812
alexnet_w1_mlp_simclrhn_probe3,1,561,NaN,clock,elephant,0,0561_ske_dnn_0_elephant_00_elephant-0020-sketch-26.png,elephant-0020-sketch-26.png,0.0,-0.70208174,1.8054858,-1.7731181
alexnet_w1_mlp_simclrhn_probe3,1,562,NaN,clock,elephant,0,0562_ske_dnn_0_elephant_00_elephant-0021-sketch-27.png,elephant-0021-sketch-27.png,0.0,-0.4201181,1.1800786,-1.13151
alexnet_w1_mlp_simclrhn_probe3,1,563,NaN,clock,elephant,0,0563_ske_dnn_0_elephant_00_elephant-0022-sketch-28.png,elephant-0022-sketch-28.png,0.0,-1.2555337,3.6839302,-3.4927282
alexnet_w1_mlp_simclrhn_probe3,1,564,NaN,cat,elephant,0,0564_ske_dnn_0_elephant_00_elephant-0025-sketch-30.png,elephant-0025-sketch-30.png,0.0,2.2103014,2.6123536,-0.28429383
alexnet_w1_mlp_simclrhn_probe3,1,565,NaN,elephant,elephant,0,0565_ske_dnn_0_elephant_00_elephant-0028-sketch-33.png,elephant-0028-sketch-33.png,1.0,3.0946884,2.820411,0.19394344
alexnet_w1_mlp_simclrhn_probe3,1,566,NaN,chair,elephant,0,0566_ske_dnn_0_elephant_00_elephant-0029-sketch-34.png,elephant-0029-sketch-34.png,0.0,0.78912044,1.1492155,-0.25462565
alexnet_w1_mlp_simclrhn_probe3,1,567,NaN,clock,elephant,0,0567_ske_dnn_0_elephant_00_elephant-0030-sketch-35.png,elephant-0030-sketch-35.png,0.0,-1.6327548,3.8014202,-3.8425422
alexnet_w1_mlp_simclrhn_probe3,1,568,NaN,knife,elephant,0,0568_ske_dnn_0_elephant_00_elephant-0032-sketch-37.png,elephant-0032-sketch-37.png,0.0,0.18765125,0.8409889,-0.46197945
alexnet_w1_mlp_simclrhn_probe3,1,569,NaN,bicycle,elephant,0,0569_ske_dnn_0_elephant_00_elephant-0033-sketch-38.png,elephant-0033-sketch-38.png,0.0,-0.17218621,2.274539,-1.730096
alexnet_w1_mlp_simclrhn_probe3,1,570,NaN,elephant,elephant,0,0570_ske_dnn_0_elephant_00_elephant-0037-sketch-41.png,elephant-0037-sketch-41.png,1.0,1.868322,0.6449161,0.86507857
alexnet_w1_mlp_simclrhn_probe3,1,571,NaN,elephant,elephant,0,0571_ske_dnn_0_elephant_00_elephant-0039-sketch-43.png,elephant-0039-sketch-43.png,1.0,2.5821724,1.1028773,1.0460197
alexnet_w1_mlp_simclrhn_probe3,1,572,NaN,cat,elephant,0,0572_ske_dnn_0_elephant_00_elephant-0040-sketch-44.png,elephant-0040-sketch-44.png,0.0,0.8985969,2.0254595,-0.79681224
alexnet_w1_mlp_simclrhn_probe3,1,573,NaN,cat,elephant,0,0573_ske_dnn_0_elephant_00_elephant-0043-sketch-47.png,elephant-0043-sketch-47.png,0.0,0.91068536,1.5648203,-0.46254325
alexnet_w1_mlp_simclrhn_probe3,1,574,NaN,cat,elephant,0,0574_ske_dnn_0_elephant_00_elephant-0044-sketch-48.png,elephant-0044-sketch-48.png,0.0,1.695791,2.1520507,-0.32262436
alexnet_w1_mlp_simclrhn_probe3,1,575,NaN,knife,elephant,0,0575_ske_dnn_0_elephant_00_elephant-0046-sketch-5.png,elephant-0046-sketch-5.png,0.0,0.12048984,0.8074135,-0.4857284
alexnet_w1_mlp_simclrhn_probe3,1,576,NaN,clock,elephant,0,0576_ske_dnn_0_elephant_00_elephant-0047-sketch-50.png,elephant-0047-sketch-50.png,0.0,-0.9429638,1.7710322,-1.9190849
alexnet_w1_mlp_simclrhn_probe3,1,577,NaN,bicycle,elephant,0,0577_ske_dnn_0_elephant_00_elephant-0048-sketch-6.png,elephant-0048-sketch-6.png,0.0,-0.3636696,2.3302245,-1.9048709
alexnet_w1_mlp_simclrhn_probe3,1,578,NaN,cat,elephant,0,0578_ske_dnn_0_elephant_00_elephant-0050-sketch-8.png,elephant-0050-sketch-8.png,0.0,1.4112178,2.358153,-0.6695844
alexnet_w1_mlp_simclrhn_probe3,1,579,NaN,cat,elephant,0,0579_ske_dnn_0_elephant_00_elephant-0052-sketch-0.png,elephant-0052-sketch-0.png,0.0,1.2175697,1.6479136,-0.30429906
alexnet_w1_mlp_simclrhn_probe3,1,580,NaN,elephant,elephant,0,0580_ske_dnn_0_elephant_00_elephant-0054-sketch-10.png,elephant-0054-sketch-10.png,1.0,0.88939154,0.45589805,0.30652618
alexnet_w1_mlp_simclrhn_probe3,1,581,NaN,cat,elephant,0,0581_ske_dnn_0_elephant_00_elephant-0055-sketch-11.png,elephant-0055-sketch-11.png,0.0,-0.4659713,0.89007497,-0.95886946
alexnet_w1_mlp_simclrhn_probe3,1,582,NaN,oven,elephant,0,0582_ske_dnn_0_elephant_00_elephant-0057-sketch-13.png,elephant-0057-sketch-13.png,0.0,0.10081361,0.8411014,-0.52346253
alexnet_w1_mlp_simclrhn_probe3,1,583,NaN,elephant,elephant,0,0583_ske_dnn_0_elephant_00_elephant-0058-sketch-14.png,elephant-0058-sketch-14.png,1.0,4.241745,1.1971145,2.152879
alexnet_w1_mlp_simclrhn_probe3,1,584,NaN,elephant,elephant,0,0584_ske_dnn_0_elephant_00_elephant-0061-sketch-17.png,elephant-0061-sketch-17.png,1.0,11.051435,2.6890965,5.913067
alexnet_w1_mlp_simclrhn_probe3,1,585,NaN,chair,elephant,0,0585_ske_dnn_0_elephant_00_elephant-0062-sketch-18.png,elephant-0062-sketch-18.png,0.0,-0.15966639,1.2248644,-0.9790111
alexnet_w1_mlp_simclrhn_probe3,1,586,NaN,bicycle,elephant,0,0586_ske_dnn_0_elephant_00_elephant-0065-sketch-20.png,elephant-0065-sketch-20.png,0.0,-0.3708666,2.583344,-2.0889423
alexnet_w1_mlp_simclrhn_probe3,1,587,NaN,elephant,elephant,0,0587_ske_dnn_0_elephant_00_elephant-0066-sketch-21.png,elephant-0066-sketch-21.png,1.0,7.6411514,2.3108866,3.7690666
alexnet_w1_mlp_simclrhn_probe3,1,588,NaN,elephant,elephant,0,0588_ske_dnn_0_elephant_00_elephant-0071-sketch-26.png,elephant-0071-sketch-26.png,1.0,6.765206,1.5503503,3.68746
alexnet_w1_mlp_simclrhn_probe3,1,589,NaN,bicycle,elephant,0,0589_ske_dnn_0_elephant_00_elephant-0075-sketch-3.png,elephant-0075-sketch-3.png,0.0,-0.48289302,1.9869215,-1.7464226
alexnet_w1_mlp_simclrhn_probe3,1,590,NaN,clock,elephant,0,0590_ske_dnn_0_elephant_00_elephant-0076-sketch-30.png,elephant-0076-sketch-30.png,0.0,-0.8328438,2.1365302,-2.0996644
alexnet_w1_mlp_simclrhn_probe3,1,591,NaN,elephant,elephant,0,0591_ske_dnn_0_elephant_00_elephant-0077-sketch-31.png,elephant-0077-sketch-31.png,1.0,2.3470166,2.0139139,0.23553918
alexnet_w1_mlp_simclrhn_probe3,1,592,NaN,clock,elephant,0,0592_ske_dnn_0_elephant_00_elephant-0079-sketch-33.png,elephant-0079-sketch-33.png,0.0,0.98895365,1.361116,-0.26315856
alexnet_w1_mlp_simclrhn_probe3,1,593,NaN,bicycle,elephant,0,0593_ske_dnn_0_elephant_00_elephant-0080-sketch-34.png,elephant-0080-sketch-34.png,0.0,-0.45729244,1.1277509,-1.1207949
alexnet_w1_mlp_simclrhn_probe3,1,594,NaN,elephant,elephant,0,0594_ske_dnn_0_elephant_00_elephant-0082-sketch-36.png,elephant-0082-sketch-36.png,1.0,2.0830371,1.038844,0.73835605
alexnet_w1_mlp_simclrhn_probe3,1,595,NaN,cat,elephant,0,0595_ske_dnn_0_elephant_00_elephant-0086-sketch-4.png,elephant-0086-sketch-4.png,0.0,0.6088329,1.2556599,-0.4573758
alexnet_w1_mlp_simclrhn_probe3,1,596,NaN,elephant,elephant,0,0596_ske_dnn_0_elephant_00_elephant-0090-sketch-43.png,elephant-0090-sketch-43.png,1.0,2.6865005,1.1482124,1.087734
alexnet_w1_mlp_simclrhn_probe3,1,597,NaN,elephant,elephant,0,0597_ske_dnn_0_elephant_00_elephant-0094-sketch-47.png,elephant-0094-sketch-47.png,1.0,1.809497,1.7217584,0.062040582
alexnet_w1_mlp_simclrhn_probe3,1,598,NaN,clock,elephant,0,0598_ske_dnn_0_elephant_00_elephant-0098-sketch-50.png,elephant-0098-sketch-50.png,0.0,-1.2288923,5.6339974,-4.852796
alexnet_w1_mlp_simclrhn_probe3,1,599,NaN,elephant,elephant,0,0599_ske_dnn_0_elephant_00_elephant-0100-sketch-7.png,elephant-0100-sketch-7.png,1.0,4.0548277,1.2457708,1.9863031
alexnet_w1_mlp_simclrhn_probe3,1,600,NaN,clock,elephant,0,0600_ske_dnn_0_elephant_00_elephant-0101-sketch-8.png,elephant-0101-sketch-8.png,0.0,-1.0777292,5.2654014,-4.4852705
alexnet_w1_mlp_simclrhn_probe3,1,601,NaN,keyboard,keyboard,0,0601_ske_dnn_0_keyboard_00_keyboard-0002-sketch-1.png,keyboard-0002-sketch-1.png,1.0,4.5093546,1.9554399,1.8058903
alexnet_w1_mlp_simclrhn_probe3,1,602,NaN,keyboard,keyboard,0,0602_ske_dnn_0_keyboard_00_keyboard-0003-sketch-10.png,keyboard-0003-sketch-10.png,1.0,4.76798,3.3751383,0.9848879
alexnet_w1_mlp_simclrhn_probe3,1,603,NaN,keyboard,keyboard,0,0603_ske_dnn_0_keyboard_00_keyboard-0004-sketch-11.png,keyboard-0004-sketch-11.png,1.0,13.296494,1.9143696,8.048377
alexnet_w1_mlp_simclrhn_probe3,1,604,NaN,keyboard,keyboard,0,0604_ske_dnn_0_keyboard_00_keyboard-0005-sketch-12.png,keyboard-0005-sketch-12.png,1.0,8.321264,1.4469415,4.8608804
alexnet_w1_mlp_simclrhn_probe3,1,605,NaN,keyboard,keyboard,0,0605_ske_dnn_0_keyboard_00_keyboard-0006-sketch-13.png,keyboard-0006-sketch-13.png,1.0,3.4139009,1.210754,1.5578601
alexnet_w1_mlp_simclrhn_probe3,1,606,NaN,keyboard,keyboard,0,0606_ske_dnn_0_keyboard_00_keyboard-0007-sketch-14.png,keyboard-0007-sketch-14.png,1.0,7.500268,1.452854,4.2761674
