subj,session,trial,rt,object_response,category,condition,imagename,filename,is_correct,targ_act,max_nontarg_act,decision_margin
convnext_large,1,1,NaN,airplane,airplane,0,0001_ske_dnn_0_airplane_00_airplane-0001-sketch-0.png,airplane-0001-sketch-0.png,1.0,6.033167,0.60975826,3.834929
convnext_large,1,2,NaN,airplane,airplane,0,0002_ske_dnn_0_airplane_00_airplane-0002-sketch-1.png,airplane-0002-sketch-1.png,1.0,1.6478337,0.47550732,0.8289599
convnext_large,1,3,NaN,knife,airplane,0,0003_ske_dnn_0_airplane_00_airplane-0003-sketch-10.png,airplane-0003-sketch-10.png,0.0,0.8967161,1.7010493,-0.5687495
convnext_large,1,4,NaN,airplane,airplane,0,0004_ske_dnn_0_airplane_00_airplane-0004-sketch-11.png,airplane-0004-sketch-11.png,1.0,2.624896,1.204473,1.0043907
convnext_large,1,5,NaN,airplane,airplane,0,0005_ske_dnn_0_airplane_00_airplane-0005-sketch-12.png,airplane-0005-sketch-12.png,1.0,7.9787607,0.4802997,5.3022127
convnext_large,1,6,NaN,airplane,airplane,0,0006_ske_dnn_0_airplane_00_airplane-0006-sketch-13.png,airplane-0006-sketch-13.png,1.0,7.381946,0.62710947,4.776391
convnext_large,1,7,NaN,airplane,airplane,0,0007_ske_dnn_0_airplane_00_airplane-0007-sketch-14.png,airplane-0007-sketch-14.png,1.0,3.372706,1.3254039,1.4476612
convnext_large,1,8,NaN,knife,airplane,0,0008_ske_dnn_0_airplane_00_airplane-0008-sketch-15.png,airplane-0008-sketch-15.png,0.0,0.010028422,1.5041773,-1.0565228
convnext_large,1,9,NaN,airplane,airplane,0,0009_ske_dnn_0_airplane_00_airplane-0009-sketch-16.png,airplane-0009-sketch-16.png,1.0,1.6159778,1.1057317,0.36079845
convnext_large,1,10,NaN,airplane,airplane,0,0010_ske_dnn_0_airplane_00_airplane-0010-sketch-17.png,airplane-0010-sketch-17.png,1.0,1.1146624,0.9621637,0.10783288
convnext_large,1,11,NaN,knife,airplane,0,0011_ske_dnn_0_airplane_00_airplane-0011-sketch-18.png,airplane-0011-sketch-18.png,0.0,1.684429,1.9186854,-0.16564429
convnext_large,1,12,NaN,airplane,airplane,0,0012_ske_dnn_0_airplane_00_airplane-0012-sketch-19.png,airplane-0012-sketch-19.png,1.0,4.76983,0.9027556,2.7344346
convnext_large,1,13,NaN,airplane,airplane,0,0013_ske_dnn_0_airplane_00_airplane-0013-sketch-2.png,airplane-0013-sketch-2.png,1.0,8.27381,0.3252642,5.620471
convnext_large,1,14,NaN,airplane,airplane,0,0014_ske_dnn_0_airplane_00_airplane-0014-sketch-20.png,airplane-0014-sketch-20.png,1.0,5.8588276,1.549427,3.0472064
convnext_large,1,15,NaN,airplane,airplane,0,0015_ske_dnn_0_airplane_00_airplane-0015-sketch-21.png,airplane-0015-sketch-21.png,1.0,4.552984,1.8787867,1.8909433
convnext_large,1,16,NaN,airplane,airplane,0,0016_ske_dnn_0_airplane_00_airplane-0016-sketch-22.png,airplane-0016-sketch-22.png,1.0,8.181343,0.42720556,5.483003
convnext_large,1,17,NaN,oven,airplane,0,0017_ske_dnn_0_airplane_00_airplane-0017-sketch-23.png,airplane-0017-sketch-23.png,0.0,0.9660268,2.2393215,-0.90035534
convnext_large,1,18,NaN,airplane,airplane,0,0018_ske_dnn_0_airplane_00_airplane-0018-sketch-24.png,airplane-0018-sketch-24.png,1.0,7.249134,0.47240895,4.7918687
convnext_large,1,19,NaN,chair,airplane,0,0019_ske_dnn_0_airplane_00_airplane-0019-sketch-25.png,airplane-0019-sketch-25.png,0.0,0.50151056,1.1478393,-0.45702344
convnext_large,1,20,NaN,airplane,airplane,0,0020_ske_dnn_0_airplane_00_airplane-0020-sketch-26.png,airplane-0020-sketch-26.png,1.0,4.0641437,1.4235277,1.8671975
convnext_large,1,21,NaN,airplane,airplane,0,0021_ske_dnn_0_airplane_00_airplane-0021-sketch-27.png,airplane-0021-sketch-27.png,1.0,2.5069137,2.0987413,0.28862146
convnext_large,1,22,NaN,airplane,airplane,0,0022_ske_dnn_0_airplane_00_airplane-0022-sketch-28.png,airplane-0022-sketch-28.png,1.0,4.8314614,2.5599737,1.6061844
convnext_large,1,23,NaN,knife,airplane,0,0023_ske_dnn_0_airplane_00_airplane-0023-sketch-29.png,airplane-0023-sketch-29.png,0.0,1.064043,5.23419,-2.9487393
convnext_large,1,24,NaN,airplane,airplane,0,0024_ske_dnn_0_airplane_00_airplane-0024-sketch-3.png,airplane-0024-sketch-3.png,1.0,1.4981818,1.4095285,0.06268737
convnext_large,1,25,NaN,airplane,airplane,0,0025_ske_dnn_0_airplane_00_airplane-0025-sketch-30.png,airplane-0025-sketch-30.png,1.0,2.4636378,0.9461109,1.0730536
convnext_large,1,26,NaN,chair,airplane,0,0026_ske_dnn_0_airplane_00_airplane-0027-sketch-32.png,airplane-0027-sketch-32.png,0.0,0.7220384,1.2476437,-0.3716591
convnext_large,1,27,NaN,airplane,airplane,0,0027_ske_dnn_0_airplane_00_airplane-0028-sketch-33.png,airplane-0028-sketch-33.png,1.0,3.8797295,0.85633796,2.1378608
convnext_large,1,28,NaN,airplane,airplane,0,0028_ske_dnn_0_airplane_00_airplane-0029-sketch-34.png,airplane-0029-sketch-34.png,1.0,2.9261296,1.8261788,0.7777827
convnext_large,1,29,NaN,airplane,airplane,0,0029_ske_dnn_0_airplane_00_airplane-0030-sketch-35.png,airplane-0030-sketch-35.png,1.0,3.4963262,1.1503867,1.6588298
convnext_large,1,30,NaN,airplane,airplane,0,0030_ske_dnn_0_airplane_00_airplane-0031-sketch-36.png,airplane-0031-sketch-36.png,1.0,7.8325076,1.5784668,4.4222746
convnext_large,1,31,NaN,chair,airplane,0,0031_ske_dnn_0_airplane_00_airplane-0032-sketch-37.png,airplane-0032-sketch-37.png,0.0,1.536196,1.6258374,-0.06338608
convnext_large,1,32,NaN,knife,airplane,0,0032_ske_dnn_0_airplane_00_airplane-0033-sketch-38.png,airplane-0033-sketch-38.png,0.0,1.2182004,3.6425056,-1.7142427
convnext_large,1,33,NaN,airplane,airplane,0,0033_ske_dnn_0_airplane_00_airplane-0034-sketch-39.png,airplane-0034-sketch-39.png,1.0,0.9732159,0.5826699,0.2761577
convnext_large,1,34,NaN,airplane,airplane,0,0034_ske_dnn_0_airplane_00_airplane-0035-sketch-4.png,airplane-0035-sketch-4.png,1.0,5.090752,1.8381209,2.2999575
convnext_large,1,35,NaN,airplane,airplane,0,0035_ske_dnn_0_airplane_00_airplane-0036-sketch-40.png,airplane-0036-sketch-40.png,1.0,7.314555,0.33825025,4.9329925
convnext_large,1,36,NaN,airplane,airplane,0,0036_ske_dnn_0_airplane_00_airplane-0037-sketch-41.png,airplane-0037-sketch-41.png,1.0,4.3602033,1.0299633,2.3548353
convnext_large,1,37,NaN,knife,airplane,0,0037_ske_dnn_0_airplane_00_airplane-0038-sketch-42.png,airplane-0038-sketch-42.png,0.0,1.4728746,3.5350142,-1.4581529
convnext_large,1,38,NaN,clock,airplane,0,0038_ske_dnn_0_airplane_00_airplane-0039-sketch-43.png,airplane-0039-sketch-43.png,0.0,1.456792,3.365484,-1.3496491
convnext_large,1,39,NaN,airplane,airplane,0,0039_ske_dnn_0_airplane_00_airplane-0040-sketch-44.png,airplane-0040-sketch-44.png,1.0,2.9282925,0.98669994,1.3729132
convnext_large,1,40,NaN,knife,airplane,0,0040_ske_dnn_0_airplane_00_airplane-0041-sketch-45.png,airplane-0041-sketch-45.png,0.0,0.65685,2.1259925,-1.0388407
convnext_large,1,41,NaN,clock,airplane,0,0041_ske_dnn_0_airplane_00_airplane-0042-sketch-46.png,airplane-0042-sketch-46.png,0.0,0.7780364,2.7260914,-1.3774829
convnext_large,1,42,NaN,airplane,airplane,0,0042_ske_dnn_0_airplane_00_airplane-0043-sketch-47.png,airplane-0043-sketch-47.png,1.0,2.247513,1.0440876,0.8509503
convnext_large,1,43,NaN,airplane,airplane,0,0043_ske_dnn_0_airplane_00_airplane-0044-sketch-48.png,airplane-0044-sketch-48.png,1.0,2.7905512,1.6122386,0.8331928
convnext_large,1,44,NaN,airplane,airplane,0,0044_ske_dnn_0_airplane_00_airplane-0045-sketch-49.png,airplane-0045-sketch-49.png,1.0,4.7931147,0.8151087,2.812875
convnext_large,1,45,NaN,knife,airplane,0,0045_ske_dnn_0_airplane_00_airplane-0046-sketch-5.png,airplane-0046-sketch-5.png,0.0,0.8317369,1.6056354,-0.5472289
convnext_large,1,46,NaN,airplane,airplane,0,0046_ske_dnn_0_airplane_00_airplane-0047-sketch-50.png,airplane-0047-sketch-50.png,1.0,1.7360721,0.66169596,0.7596986
convnext_large,1,47,NaN,airplane,airplane,0,0047_ske_dnn_0_airplane_00_airplane-0048-sketch-6.png,airplane-0048-sketch-6.png,1.0,6.1025696,0.85695124,3.7092123
convnext_large,1,48,NaN,airplane,airplane,0,0048_ske_dnn_0_airplane_00_airplane-0049-sketch-7.png,airplane-0049-sketch-7.png,1.0,8.460701,1.369843,5.0139937
convnext_large,1,49,NaN,chair,airplane,0,0049_ske_dnn_0_airplane_00_airplane-0050-sketch-8.png,airplane-0050-sketch-8.png,0.0,1.0727391,2.1550233,-0.7652905
convnext_large,1,50,NaN,airplane,airplane,0,0050_ske_dnn_0_airplane_00_airplane-0051-sketch-9.png,airplane-0051-sketch-9.png,1.0,3.216967,0.79099226,1.7154233
convnext_large,1,51,NaN,bear,bear,0,0051_ske_dnn_0_bear_00_bear-0005-sketch-12.png,bear-0005-sketch-12.png,1.0,3.9065094,2.4295466,1.0443704
convnext_large,1,52,NaN,bear,bear,0,0052_ske_dnn_0_bear_00_bear-0007-sketch-14.png,bear-0007-sketch-14.png,1.0,3.4519887,0.39286384,2.1631281
convnext_large,1,53,NaN,bear,bear,0,0053_ske_dnn_0_bear_00_bear-0017-sketch-23.png,bear-0017-sketch-23.png,1.0,4.821207,1.6835052,2.2186904
convnext_large,1,54,NaN,bear,bear,0,0054_ske_dnn_0_bear_00_bear-0022-sketch-28.png,bear-0022-sketch-28.png,1.0,2.945473,1.0072803,1.3705091
convnext_large,1,55,NaN,bear,bear,0,0055_ske_dnn_0_bear_00_bear-0023-sketch-29.png,bear-0023-sketch-29.png,1.0,4.085734,0.56832415,2.4871843
convnext_large,1,56,NaN,bear,bear,0,0056_ske_dnn_0_bear_00_bear-0026-sketch-31.png,bear-0026-sketch-31.png,1.0,5.5732446,0.5799161,3.5308166
convnext_large,1,57,NaN,bear,bear,0,0057_ske_dnn_0_bear_00_bear-0027-sketch-32.png,bear-0027-sketch-32.png,1.0,3.7404127,1.5534368,1.5464256
convnext_large,1,58,NaN,bear,bear,0,0058_ske_dnn_0_bear_00_bear-0030-sketch-35.png,bear-0030-sketch-35.png,1.0,4.1052637,0.6896252,2.4152212
convnext_large,1,59,NaN,bear,bear,0,0059_ske_dnn_0_bear_00_bear-0033-sketch-38.png,bear-0033-sketch-38.png,1.0,4.8202276,2.0044885,1.9910283
convnext_large,1,60,NaN,cat,bear,0,0060_ske_dnn_0_bear_00_bear-0036-sketch-40.png,bear-0036-sketch-40.png,0.0,0.68527496,1.1247069,-0.31072527
convnext_large,1,61,NaN,bear,bear,0,0061_ske_dnn_0_bear_00_bear-0037-sketch-41.png,bear-0037-sketch-41.png,1.0,3.2194698,1.1006688,1.4982187
convnext_large,1,62,NaN,bear,bear,0,0062_ske_dnn_0_bear_00_bear-0038-sketch-42.png,bear-0038-sketch-42.png,1.0,4.7201767,0.5393054,2.9563227
convnext_large,1,63,NaN,bear,bear,0,0063_ske_dnn_0_bear_00_bear-0039-sketch-43.png,bear-0039-sketch-43.png,1.0,5.71232,0.4284945,3.736229
convnext_large,1,64,NaN,bear,bear,0,0064_ske_dnn_0_bear_00_bear-0041-sketch-45.png,bear-0041-sketch-45.png,1.0,4.1867085,0.36506605,2.7023094
convnext_large,1,65,NaN,bear,bear,0,0065_ske_dnn_0_bear_00_bear-0045-sketch-49.png,bear-0045-sketch-49.png,1.0,3.8993006,0.6929317,2.2672453
convnext_large,1,66,NaN,bear,bear,0,0066_ske_dnn_0_bear_00_bear-0048-sketch-7.png,bear-0048-sketch-7.png,1.0,5.2717113,1.3799791,2.7518704
convnext_large,1,67,NaN,bear,bear,0,0067_ske_dnn_0_bear_00_bear-0049-sketch-8.png,bear-0049-sketch-8.png,1.0,4.431423,0.9597723,2.4548278
convnext_large,1,68,NaN,bear,bear,0,0068_ske_dnn_0_bear_00_bear-0053-sketch-10.png,bear-0053-sketch-10.png,1.0,5.6303215,0.67813563,3.501724
convnext_large,1,69,NaN,bear,bear,0,0069_ske_dnn_0_bear_00_bear-0059-sketch-16.png,bear-0059-sketch-16.png,1.0,5.357627,0.33315647,3.5528371
convnext_large,1,70,NaN,bear,bear,0,0070_ske_dnn_0_bear_00_bear-0068-sketch-24.png,bear-0068-sketch-24.png,1.0,3.5844278,0.44985357,2.2164786
convnext_large,1,71,NaN,bear,bear,0,0071_ske_dnn_0_bear_00_bear-0070-sketch-26.png,bear-0070-sketch-26.png,1.0,3.9972386,0.7080823,2.325785
convnext_large,1,72,NaN,bear,bear,0,0072_ske_dnn_0_bear_00_bear-0073-sketch-29.png,bear-0073-sketch-29.png,1.0,4.897596,0.44229868,3.1503708
convnext_large,1,73,NaN,bear,bear,0,0073_ske_dnn_0_bear_00_bear-0079-sketch-34.png,bear-0079-sketch-34.png,1.0,5.537529,0.44639993,3.599972
convnext_large,1,74,NaN,bear,bear,0,0074_ske_dnn_0_bear_00_bear-0081-sketch-36.png,bear-0081-sketch-36.png,1.0,4.5543075,0.39016163,2.944496
convnext_large,1,75,NaN,bear,bear,0,0075_ske_dnn_0_bear_00_bear-0085-sketch-4.png,bear-0085-sketch-4.png,1.0,5.3974504,0.427721,3.5141294
convnext_large,1,76,NaN,bear,bear,0,0076_ske_dnn_0_bear_00_bear-0086-sketch-40.png,bear-0086-sketch-40.png,1.0,4.0120797,0.37165132,2.5741715
convnext_large,1,77,NaN,knife,bear,0,0077_ske_dnn_0_bear_00_bear-0087-sketch-41.png,bear-0087-sketch-41.png,0.0,-0.65881896,0.7959691,-1.0286906
convnext_large,1,78,NaN,clock,bear,0,0078_ske_dnn_0_bear_00_bear-0090-sketch-44.png,bear-0090-sketch-44.png,0.0,-0.21720505,0.92446756,-0.8072845
convnext_large,1,79,NaN,knife,bear,0,0079_ske_dnn_0_bear_00_bear-0103-sketch-1.png,bear-0103-sketch-1.png,0.0,-0.48735818,1.6133667,-1.4854369
convnext_large,1,80,NaN,knife,bear,0,0080_ske_dnn_0_bear_00_bear-0107-sketch-13.png,bear-0107-sketch-13.png,0.0,-0.12764671,1.156122,-0.9077615
convnext_large,1,81,NaN,bear,bear,0,0081_ske_dnn_0_bear_00_bear-0110-sketch-16.png,bear-0110-sketch-16.png,1.0,3.5481796,1.7686213,1.2583377
convnext_large,1,82,NaN,bear,bear,0,0082_ske_dnn_0_bear_00_bear-0112-sketch-18.png,bear-0112-sketch-18.png,1.0,3.4240685,0.9142864,1.774684
convnext_large,1,83,NaN,clock,bear,0,0083_ske_dnn_0_bear_00_bear-0117-sketch-22.png,bear-0117-sketch-22.png,0.0,-0.94779134,2.2452471,-2.2578192
convnext_large,1,84,NaN,bear,bear,0,0084_ske_dnn_0_bear_00_bear-0123-sketch-28.png,bear-0123-sketch-28.png,1.0,3.281911,0.75914633,1.783864
convnext_large,1,85,NaN,knife,bear,0,0085_ske_dnn_0_bear_00_bear-0135-sketch-39.png,bear-0135-sketch-39.png,0.0,-0.85745955,1.2058209,-1.4589597
convnext_large,1,86,NaN,knife,bear,0,0086_ske_dnn_0_bear_00_bear-0136-sketch-4.png,bear-0136-sketch-4.png,0.0,0.087881655,1.6850092,-1.1293397
convnext_large,1,87,NaN,dog,bear,0,0087_ske_dnn_0_bear_00_bear-0137-sketch-40.png,bear-0137-sketch-40.png,0.0,0.18989235,0.5083053,-0.22515197
convnext_large,1,88,NaN,bear,bear,0,0088_ske_dnn_0_bear_00_bear-0148-sketch-50.png,bear-0148-sketch-50.png,1.0,2.6963975,0.5573598,1.5125281
convnext_large,1,89,NaN,dog,bear,0,0089_ske_dnn_0_bear_00_bear-0149-sketch-6.png,bear-0149-sketch-6.png,0.0,0.56536597,0.79862547,-0.16493937
convnext_large,1,90,NaN,bear,bear,0,0090_ske_dnn_0_bear_00_bear-0161-sketch-16.png,bear-0161-sketch-16.png,1.0,2.867777,0.27847365,1.8309141
convnext_large,1,91,NaN,knife,bear,0,0091_ske_dnn_0_bear_00_bear-0166-sketch-20.png,bear-0166-sketch-20.png,0.0,0.21927753,0.63184714,-0.29173076
convnext_large,1,92,NaN,knife,bear,0,0092_ske_dnn_0_bear_00_bear-0170-sketch-24.png,bear-0170-sketch-24.png,0.0,0.26614586,0.866903,-0.42479944
convnext_large,1,93,NaN,bear,bear,0,0093_ske_dnn_0_bear_00_bear-0171-sketch-25.png,bear-0171-sketch-25.png,1.0,5.187993,0.3790744,3.400419
convnext_large,1,94,NaN,bear,bear,0,0094_ske_dnn_0_bear_00_bear-0179-sketch-32.png,bear-0179-sketch-32.png,1.0,2.0868187,1.795246,0.20617303
convnext_large,1,95,NaN,knife,bear,0,0095_ske_dnn_0_bear_00_bear-0187-sketch-4.png,bear-0187-sketch-4.png,0.0,-0.12942895,1.180351,-0.9261543
convnext_large,1,96,NaN,bear,bear,0,0096_ske_dnn_0_bear_00_bear-0188-sketch-40.png,bear-0188-sketch-40.png,1.0,3.7082832,0.70614797,2.1228302
convnext_large,1,97,NaN,clock,bear,0,0097_ske_dnn_0_bear_00_bear-0195-sketch-47.png,bear-0195-sketch-47.png,0.0,0.2671018,0.33567086,-0.04848565
convnext_large,1,98,NaN,bear,bear,0,0098_ske_dnn_0_bear_00_bear-0198-sketch-5.png,bear-0198-sketch-5.png,1.0,3.4528902,0.37130105,2.1790128
convnext_large,1,99,NaN,bear,bear,0,0099_ske_dnn_0_bear_00_bear-0199-sketch-50.png,bear-0199-sketch-50.png,1.0,5.776572,0.66462296,3.614694
convnext_large,1,100,NaN,clock,bear,0,0100_ske_dnn_0_bear_00_bear-0201-sketch-7.png,bear-0201-sketch-7.png,0.0,-0.6945803,1.3614174,-1.4538101
convnext_large,1,101,NaN,bicycle,bicycle,0,0101_ske_dnn_0_bicycle_00_bicycle-0002-sketch-1.png,bicycle-0002-sketch-1.png,1.0,4.562234,0.73189884,2.708456
convnext_large,1,102,NaN,oven,bicycle,0,0102_ske_dnn_0_bicycle_00_bicycle-0003-sketch-10.png,bicycle-0003-sketch-10.png,0.0,1.4147773,2.288034,-0.61748576
convnext_large,1,103,NaN,bicycle,bicycle,0,0103_ske_dnn_0_bicycle_00_bicycle-0004-sketch-11.png,bicycle-0004-sketch-11.png,1.0,4.6168737,0.55439174,2.8726084
convnext_large,1,104,NaN,bicycle,bicycle,0,0104_ske_dnn_0_bicycle_00_bicycle-0008-sketch-15.png,bicycle-0008-sketch-15.png,1.0,4.0185304,0.83896774,2.2482903
convnext_large,1,105,NaN,bicycle,bicycle,0,0105_ske_dnn_0_bicycle_00_bicycle-0011-sketch-18.png,bicycle-0011-sketch-18.png,1.0,3.5468729,1.7785827,1.25037
convnext_large,1,106,NaN,bicycle,bicycle,0,0106_ske_dnn_0_bicycle_00_bicycle-0013-sketch-2.png,bicycle-0013-sketch-2.png,1.0,2.9068933,0.38445216,1.7836353
convnext_large,1,107,NaN,oven,bicycle,0,0107_ske_dnn_0_bicycle_00_bicycle-0016-sketch-22.png,bicycle-0016-sketch-22.png,0.0,1.3031228,2.3424532,-0.73491764
convnext_large,1,108,NaN,bicycle,bicycle,0,0108_ske_dnn_0_bicycle_00_bicycle-0019-sketch-25.png,bicycle-0019-sketch-25.png,1.0,4.372562,0.9266443,2.4366317
convnext_large,1,109,NaN,bicycle,bicycle,0,0109_ske_dnn_0_bicycle_00_bicycle-0020-sketch-26.png,bicycle-0020-sketch-26.png,1.0,3.5646129,0.7365663,1.999731
convnext_large,1,110,NaN,bicycle,bicycle,0,0110_ske_dnn_0_bicycle_00_bicycle-0022-sketch-28.png,bicycle-0022-sketch-28.png,1.0,5.4070396,0.9702099,3.1373124
convnext_large,1,111,NaN,bicycle,bicycle,0,0111_ske_dnn_0_bicycle_00_bicycle-0023-sketch-29.png,bicycle-0023-sketch-29.png,1.0,2.5107129,0.8795486,1.1534073
convnext_large,1,112,NaN,knife,bicycle,0,0112_ske_dnn_0_bicycle_00_bicycle-0025-sketch-30.png,bicycle-0025-sketch-30.png,0.0,0.12206301,2.4966989,-1.6791213
convnext_large,1,113,NaN,bicycle,bicycle,0,0113_ske_dnn_0_bicycle_00_bicycle-0026-sketch-31.png,bicycle-0026-sketch-31.png,1.0,5.888347,0.37561494,3.8980904
convnext_large,1,114,NaN,bicycle,bicycle,0,0114_ske_dnn_0_bicycle_00_bicycle-0031-sketch-36.png,bicycle-0031-sketch-36.png,1.0,6.6943874,0.7206756,4.2240524
convnext_large,1,115,NaN,knife,bicycle,0,0115_ske_dnn_0_bicycle_00_bicycle-0034-sketch-39.png,bicycle-0034-sketch-39.png,0.0,0.40251014,1.1406853,-0.52196866
convnext_large,1,116,NaN,bicycle,bicycle,0,0116_ske_dnn_0_bicycle_00_bicycle-0037-sketch-41.png,bicycle-0037-sketch-41.png,1.0,2.386238,0.9448943,1.019184
convnext_large,1,117,NaN,knife,bicycle,0,0117_ske_dnn_0_bicycle_00_bicycle-0038-sketch-42.png,bicycle-0038-sketch-42.png,0.0,0.41002512,2.4915226,-1.471841
convnext_large,1,118,NaN,bicycle,bicycle,0,0118_ske_dnn_0_bicycle_00_bicycle-0039-sketch-43.png,bicycle-0039-sketch-43.png,1.0,6.1487,0.40894043,4.0586233
convnext_large,1,119,NaN,bicycle,bicycle,0,0119_ske_dnn_0_bicycle_00_bicycle-0040-sketch-44.png,bicycle-0040-sketch-44.png,1.0,6.511576,1.4120476,3.605911
convnext_large,1,120,NaN,bicycle,bicycle,0,0120_ske_dnn_0_bicycle_00_bicycle-0044-sketch-48.png,bicycle-0044-sketch-48.png,1.0,5.7996097,0.9851606,3.4043298
convnext_large,1,121,NaN,bicycle,bicycle,0,0121_ske_dnn_0_bicycle_00_bicycle-0045-sketch-49.png,bicycle-0045-sketch-49.png,1.0,4.562234,0.73189884,2.708456
convnext_large,1,122,NaN,bicycle,bicycle,0,0122_ske_dnn_0_bicycle_00_bicycle-0046-sketch-5.png,bicycle-0046-sketch-5.png,1.0,4.196094,0.9646246,2.284994
convnext_large,1,123,NaN,bicycle,bicycle,0,0123_ske_dnn_0_bicycle_00_bicycle-0047-sketch-50.png,bicycle-0047-sketch-50.png,1.0,2.9068933,0.38445216,1.7836353
convnext_large,1,124,NaN,bicycle,bicycle,0,0124_ske_dnn_0_bicycle_00_bicycle-0048-sketch-6.png,bicycle-0048-sketch-6.png,1.0,3.8142242,1.7266932,1.4761074
convnext_large,1,125,NaN,bicycle,bicycle,0,0125_ske_dnn_0_bicycle_00_bicycle-0053-sketch-1.png,bicycle-0053-sketch-1.png,1.0,5.2404385,0.360122,3.4509048
convnext_large,1,126,NaN,bicycle,bicycle,0,0126_ske_dnn_0_bicycle_00_bicycle-0054-sketch-10.png,bicycle-0054-sketch-10.png,1.0,7.449561,1.0898312,4.4970083
convnext_large,1,127,NaN,bicycle,bicycle,0,0127_ske_dnn_0_bicycle_00_bicycle-0056-sketch-12.png,bicycle-0056-sketch-12.png,1.0,4.9337425,1.3097615,2.5625415
convnext_large,1,128,NaN,bicycle,bicycle,0,0128_ske_dnn_0_bicycle_00_bicycle-0057-sketch-13.png,bicycle-0057-sketch-13.png,1.0,4.963872,1.886102,2.176312
convnext_large,1,129,NaN,bicycle,bicycle,0,0129_ske_dnn_0_bicycle_00_bicycle-0058-sketch-14.png,bicycle-0058-sketch-14.png,1.0,6.065318,3.3324683,1.9324167
convnext_large,1,130,NaN,clock,bicycle,0,0130_ske_dnn_0_bicycle_00_bicycle-0059-sketch-15.png,bicycle-0059-sketch-15.png,0.0,0.19513376,3.9923503,-2.6850376
convnext_large,1,131,NaN,bicycle,bicycle,0,0131_ske_dnn_0_bicycle_00_bicycle-0060-sketch-16.png,bicycle-0060-sketch-16.png,1.0,4.4416566,2.3212466,1.4993563
convnext_large,1,132,NaN,bicycle,bicycle,0,0132_ske_dnn_0_bicycle_00_bicycle-0062-sketch-18.png,bicycle-0062-sketch-18.png,1.0,4.5154057,1.2226818,2.3283074
convnext_large,1,133,NaN,bicycle,bicycle,0,0133_ske_dnn_0_bicycle_00_bicycle-0066-sketch-21.png,bicycle-0066-sketch-21.png,1.0,6.7987556,0.86406916,4.1964574
convnext_large,1,134,NaN,bicycle,bicycle,0,0134_ske_dnn_0_bicycle_00_bicycle-0068-sketch-23.png,bicycle-0068-sketch-23.png,1.0,4.8764324,1.578709,2.3318427
convnext_large,1,135,NaN,bicycle,bicycle,0,0135_ske_dnn_0_bicycle_00_bicycle-0070-sketch-25.png,bicycle-0070-sketch-25.png,1.0,3.474042,2.2637873,0.8557793
convnext_large,1,136,NaN,clock,bicycle,0,0136_ske_dnn_0_bicycle_00_bicycle-0071-sketch-26.png,bicycle-0071-sketch-26.png,0.0,2.8301294,3.2823265,-0.31975162
convnext_large,1,137,NaN,bicycle,bicycle,0,0137_ske_dnn_0_bicycle_00_bicycle-0075-sketch-3.png,bicycle-0075-sketch-3.png,1.0,6.5673723,0.46650577,4.313964
convnext_large,1,138,NaN,bicycle,bicycle,0,0138_ske_dnn_0_bicycle_00_bicycle-0078-sketch-32.png,bicycle-0078-sketch-32.png,1.0,7.0834293,1.6677455,3.8294668
convnext_large,1,139,NaN,bicycle,bicycle,0,0139_ske_dnn_0_bicycle_00_bicycle-0080-sketch-34.png,bicycle-0080-sketch-34.png,1.0,6.044589,1.4201145,3.2699974
convnext_large,1,140,NaN,bicycle,bicycle,0,0140_ske_dnn_0_bicycle_00_bicycle-0081-sketch-35.png,bicycle-0081-sketch-35.png,1.0,6.5075436,0.6437459,4.1463313
convnext_large,1,141,NaN,bicycle,bicycle,0,0141_ske_dnn_0_bicycle_00_bicycle-0083-sketch-37.png,bicycle-0083-sketch-37.png,1.0,4.903529,1.4114643,2.4692628
convnext_large,1,142,NaN,bicycle,bicycle,0,0142_ske_dnn_0_bicycle_00_bicycle-0084-sketch-38.png,bicycle-0084-sketch-38.png,1.0,4.2638006,1.5900182,1.8906497
convnext_large,1,143,NaN,bicycle,bicycle,0,0143_ske_dnn_0_bicycle_00_bicycle-0087-sketch-40.png,bicycle-0087-sketch-40.png,1.0,7.3139505,1.0210749,4.449735
convnext_large,1,144,NaN,bicycle,bicycle,0,0144_ske_dnn_0_bicycle_00_bicycle-0090-sketch-43.png,bicycle-0090-sketch-43.png,1.0,5.7880516,1.0962344,3.317616
convnext_large,1,145,NaN,clock,bicycle,0,0145_ske_dnn_0_bicycle_00_bicycle-0094-sketch-47.png,bicycle-0094-sketch-47.png,0.0,0.104433894,4.101697,-2.8264918
convnext_large,1,146,NaN,bicycle,bicycle,0,0146_ske_dnn_0_bicycle_00_bicycle-0095-sketch-48.png,bicycle-0095-sketch-48.png,1.0,4.8488116,2.9934895,1.3119109
convnext_large,1,147,NaN,bicycle,bicycle,0,0147_ske_dnn_0_bicycle_00_bicycle-0098-sketch-50.png,bicycle-0098-sketch-50.png,1.0,4.9047265,1.2320039,2.597007
convnext_large,1,148,NaN,bicycle,bicycle,0,0148_ske_dnn_0_bicycle_00_bicycle-0099-sketch-6.png,bicycle-0099-sketch-6.png,1.0,3.9364014,1.3774207,1.8094727
convnext_large,1,149,NaN,bicycle,bicycle,0,0149_ske_dnn_0_bicycle_00_bicycle-0101-sketch-8.png,bicycle-0101-sketch-8.png,1.0,7.085562,0.9848551,4.3138514
convnext_large,1,150,NaN,bicycle,bicycle,0,0150_ske_dnn_0_bicycle_00_bicycle-0102-sketch-9.png,bicycle-0102-sketch-9.png,1.0,3.6877513,1.8509164,1.2988385
convnext_large,1,151,NaN,knife,bird,0,0151_ske_dnn_0_bird_00_bird-0030-sketch-35.png,bird-0030-sketch-35.png,0.0,0.16766065,1.8183316,-1.1672007
convnext_large,1,152,NaN,bicycle,bird,0,0152_ske_dnn_0_bird_00_bird-0047-sketch-50.png,bird-0047-sketch-50.png,0.0,0.27883807,0.39267758,-0.08049669
convnext_large,1,153,NaN,bird,bird,0,0153_ske_dnn_0_bird_00_bird-0072-sketch-27.png,bird-0072-sketch-27.png,1.0,1.0820799,0.41224334,0.47364596
convnext_large,1,154,NaN,bird,bird,0,0154_ske_dnn_0_bird_00_bird-0228-sketch-3.png,bird-0228-sketch-3.png,1.0,0.7818393,0.43428254,0.24575976
convnext_large,1,155,NaN,knife,bird,0,0155_ske_dnn_0_bird_00_bird-0274-sketch-25.png,bird-0274-sketch-25.png,0.0,0.79413956,1.5015405,-0.500208
convnext_large,1,156,NaN,knife,bird,0,0156_ske_dnn_0_bird_00_bird-0292-sketch-41.png,bird-0292-sketch-41.png,0.0,1.1140163,1.385365,-0.19187252
convnext_large,1,157,NaN,knife,bird,0,0157_ske_dnn_0_bird_00_bird-0316-sketch-17.png,bird-0316-sketch-17.png,0.0,0.50564045,1.1508961,-0.45626464
convnext_large,1,158,NaN,knife,bird,0,0158_ske_dnn_0_bird_00_bird-0325-sketch-25.png,bird-0325-sketch-25.png,0.0,0.092539504,2.1179092,-1.4321526
convnext_large,1,159,NaN,bird,bird,0,0159_ske_dnn_0_bird_00_bird-0357-sketch-9.png,bird-0357-sketch-9.png,1.0,1.5140482,1.348038,0.11738698
convnext_large,1,160,NaN,bird,bird,0,0160_ske_dnn_0_bird_00_bird-0384-sketch-32.png,bird-0384-sketch-32.png,1.0,2.0130546,0.45633104,1.1007699
convnext_large,1,161,NaN,bird,bird,0,0161_ske_dnn_0_bird_00_bird-0415-sketch-14.png,bird-0415-sketch-14.png,1.0,1.4040216,1.0673277,0.23807853
convnext_large,1,162,NaN,knife,bird,0,0162_ske_dnn_0_bird_00_bird-0474-sketch-21.png,bird-0474-sketch-21.png,0.0,-0.022597808,0.9345701,-0.6768199
convnext_large,1,163,NaN,car,bird,0,0163_ske_dnn_0_bird_00_bird-0479-sketch-26.png,bird-0479-sketch-26.png,0.0,0.30001447,0.41552663,-0.08167943
convnext_large,1,164,NaN,knife,bird,0,0164_ske_dnn_0_bird_00_bird-0491-sketch-37.png,bird-0491-sketch-37.png,0.0,0.4154087,0.5447183,-0.091435716
convnext_large,1,165,NaN,bird,bird,0,0165_ske_dnn_0_bird_00_bird-0578-sketch-23.png,bird-0578-sketch-23.png,1.0,1.2856562,0.52043426,0.54109365
convnext_large,1,166,NaN,knife,bird,0,0166_ske_dnn_0_bird_00_bird-0640-sketch-33.png,bird-0640-sketch-33.png,0.0,0.6723165,1.180023,-0.35900268
convnext_large,1,167,NaN,bird,bird,0,0167_ske_dnn_0_bird_00_bird-0646-sketch-39.png,bird-0646-sketch-39.png,1.0,1.5255411,1.1732974,0.2490739
convnext_large,1,168,NaN,airplane,bird,0,0168_ske_dnn_0_bird_00_bird-0685-sketch-28.png,bird-0685-sketch-28.png,0.0,0.12209959,0.7471665,-0.44198906
convnext_large,1,169,NaN,cat,bird,0,0169_ske_dnn_0_bird_00_bird-0694-sketch-36.png,bird-0694-sketch-36.png,0.0,0.18822142,1.2824056,-0.77370507
convnext_large,1,170,NaN,car,bird,0,0170_ske_dnn_0_bird_00_bird-0733-sketch-25.png,bird-0733-sketch-25.png,0.0,0.35910445,0.56814533,-0.14781423
convnext_large,1,171,NaN,bird,bird,0,0171_ske_dnn_0_bird_00_bird-0748-sketch-39.png,bird-0748-sketch-39.png,1.0,0.7121575,0.44597927,0.18821643
convnext_large,1,172,NaN,knife,bird,0,0172_ske_dnn_0_bird_00_bird-0749-sketch-4.png,bird-0749-sketch-4.png,0.0,-0.07490108,1.472568,-1.0942259
convnext_large,1,173,NaN,bird,bird,0,0173_ske_dnn_0_bird_00_bird-0809-sketch-48.png,bird-0809-sketch-48.png,1.0,0.71034646,0.5943228,0.082041115
convnext_large,1,174,NaN,bear,bird,0,0174_ske_dnn_0_bird_00_bird-0834-sketch-24.png,bird-0834-sketch-24.png,0.0,0.65356374,1.2495909,-0.42145485
convnext_large,1,175,NaN,bird,bird,0,0175_ske_dnn_0_bird_00_bird-0880-sketch-2.png,bird-0880-sketch-2.png,1.0,0.50414205,0.292695,0.14951566
convnext_large,1,176,NaN,bottle,bird,0,0176_ske_dnn_0_bird_00_bird-0939-sketch-27.png,bird-0939-sketch-27.png,0.0,0.41198614,1.136522,-0.5123243
convnext_large,1,177,NaN,bird,bird,0,0177_ske_dnn_0_bird_00_bird-0954-sketch-40.png,bird-0954-sketch-40.png,1.0,0.40917218,0.36658916,0.030110741
convnext_large,1,178,NaN,knife,bird,0,0178_ske_dnn_0_bird_00_bird-1033-sketch-20.png,bird-1033-sketch-20.png,0.0,0.24555528,1.1691401,-0.6530731
convnext_large,1,179,NaN,clock,bird,0,0179_ske_dnn_0_bird_00_bird-1081-sketch-18.png,bird-1081-sketch-18.png,0.0,1.0560853,2.9621232,-1.3477722
convnext_large,1,180,NaN,knife,bird,0,0180_ske_dnn_0_bird_00_bird-1096-sketch-31.png,bird-1096-sketch-31.png,0.0,-0.4122679,2.131952,-1.7990352
convnext_large,1,181,NaN,clock,bird,0,0181_ske_dnn_0_bird_00_bird-1148-sketch-32.png,bird-1148-sketch-32.png,0.0,0.4187111,1.2386504,-0.5797847
convnext_large,1,182,NaN,bird,bird,0,0182_ske_dnn_0_bird_00_bird-1201-sketch-34.png,bird-1201-sketch-34.png,1.0,1.2597985,0.7595254,0.3537465
convnext_large,1,183,NaN,bird,bird,0,0183_ske_dnn_0_bird_00_bird-1342-sketch-24.png,bird-1342-sketch-24.png,1.0,1.0156893,0.7804165,0.16636297
convnext_large,1,184,NaN,bird,bird,0,0184_ske_dnn_0_bird_00_bird-1510-sketch-39.png,bird-1510-sketch-39.png,1.0,1.3873478,0.5236643,0.61071646
convnext_large,1,185,NaN,knife,bird,0,0185_ske_dnn_0_bird_00_bird-1562-sketch-40.png,bird-1562-sketch-40.png,0.0,-0.32154736,4.0031037,-3.0579903
convnext_large,1,186,NaN,elephant,bird,0,0186_ske_dnn_0_bird_00_bird-1565-sketch-43.png,bird-1565-sketch-43.png,0.0,0.31487322,0.5163449,-0.142462
convnext_large,1,187,NaN,bear,bird,0,0187_ske_dnn_0_bird_00_bird-1702-sketch-29.png,bird-1702-sketch-29.png,0.0,0.39824507,1.260395,-0.6096321
convnext_large,1,188,NaN,bird,bird,0,0188_ske_dnn_0_bird_00_bird-1721-sketch-46.png,bird-1721-sketch-46.png,1.0,0.42358473,0.18695354,0.16732351
convnext_large,1,189,NaN,bird,bird,0,0189_ske_dnn_0_bird_00_bird-1740-sketch-17.png,bird-1740-sketch-17.png,1.0,0.59685504,0.40967107,0.13235906
convnext_large,1,190,NaN,car,bird,0,0190_ske_dnn_0_bird_00_bird-1749-sketch-25.png,bird-1749-sketch-25.png,0.0,0.63829845,0.75504035,-0.08254899
convnext_large,1,191,NaN,keyboard,bird,0,0191_ske_dnn_0_bird_00_bird-1756-sketch-31.png,bird-1756-sketch-31.png,0.0,0.16181076,0.76586604,-0.4271316
convnext_large,1,192,NaN,bird,bird,0,0192_ske_dnn_0_bird_00_bird-1860-sketch-33.png,bird-1860-sketch-33.png,1.0,0.56794035,0.26810393,0.21201637
convnext_large,1,193,NaN,bird,bird,0,0193_ske_dnn_0_bird_00_bird-1937-sketch-10.png,bird-1937-sketch-10.png,1.0,1.1940303,0.39008677,0.56847394
convnext_large,1,194,NaN,bird,bird,0,0194_ske_dnn_0_bird_00_bird-1948-sketch-20.png,bird-1948-sketch-20.png,1.0,1.0598166,0.43873918,0.43916807
convnext_large,1,195,NaN,chair,bird,0,0195_ske_dnn_0_bird_00_bird-2010-sketch-30.png,bird-2010-sketch-30.png,0.0,1.0844629,1.1682967,-0.05927946
convnext_large,1,196,NaN,bird,bird,0,0196_ske_dnn_0_bird_00_bird-2169-sketch-36.png,bird-2169-sketch-36.png,1.0,0.5216816,0.21618152,0.2160212
convnext_large,1,197,NaN,bird,bird,0,0197_ske_dnn_0_bird_00_bird-2262-sketch-28.png,bird-2262-sketch-28.png,1.0,0.6177452,0.5458085,0.050866947
convnext_large,1,198,NaN,airplane,bird,0,0198_ske_dnn_0_bird_00_bird-2312-sketch-27.png,bird-2312-sketch-27.png,0.0,0.5149317,0.8825307,-0.25993174
convnext_large,1,199,NaN,chair,bird,0,0199_ske_dnn_0_bird_00_bird-2313-sketch-28.png,bird-2313-sketch-28.png,0.0,-0.071042225,1.5112016,-1.1188153
convnext_large,1,200,NaN,bird,bird,0,0200_ske_dnn_0_bird_00_bird-2372-sketch-36.png,bird-2372-sketch-36.png,1.0,0.5728747,0.5299705,0.03033785
convnext_large,1,201,NaN,boat,boat,0,0201_ske_dnn_0_boat_00_boat-0001-sketch-0.png,boat-0001-sketch-0.png,1.0,2.0402694,0.76627415,0.90085065
convnext_large,1,202,NaN,boat,boat,0,0202_ske_dnn_0_boat_00_boat-0002-sketch-1.png,boat-0002-sketch-1.png,1.0,2.8149447,1.1981751,1.1432288
convnext_large,1,203,NaN,boat,boat,0,0203_ske_dnn_0_boat_00_boat-0010-sketch-17.png,boat-0010-sketch-17.png,1.0,2.1423843,1.5609453,0.4111395
convnext_large,1,204,NaN,knife,boat,0,0204_ske_dnn_0_boat_00_boat-0016-sketch-22.png,boat-0016-sketch-22.png,0.0,-0.45277554,1.0141945,-1.0373044
convnext_large,1,205,NaN,knife,boat,0,0205_ske_dnn_0_boat_00_boat-0029-sketch-34.png,boat-0029-sketch-34.png,0.0,-0.86665297,2.2589657,-2.2101462
convnext_large,1,206,NaN,knife,boat,0,0206_ske_dnn_0_boat_00_boat-0034-sketch-39.png,boat-0034-sketch-39.png,0.0,-0.24175575,3.375938,-2.5580957
convnext_large,1,207,NaN,boat,boat,0,0207_ske_dnn_0_boat_00_boat-0036-sketch-40.png,boat-0036-sketch-40.png,1.0,1.7901871,1.0888438,0.49592462
convnext_large,1,208,NaN,knife,boat,0,0208_ske_dnn_0_boat_00_boat-0051-sketch-9.png,boat-0051-sketch-9.png,0.0,1.8369448,2.295723,-0.32440513
convnext_large,1,209,NaN,boat,boat,0,0209_ske_dnn_0_boat_00_boat-0052-sketch-0.png,boat-0052-sketch-0.png,1.0,3.427607,0.5202677,2.0557995
convnext_large,1,210,NaN,boat,boat,0,0210_ske_dnn_0_boat_00_boat-0059-sketch-15.png,boat-0059-sketch-15.png,1.0,2.2266517,0.6835739,1.0911207
convnext_large,1,211,NaN,oven,boat,0,0211_ske_dnn_0_boat_00_boat-0064-sketch-2.png,boat-0064-sketch-2.png,0.0,0.1465237,1.7763782,-1.1524812
convnext_large,1,212,NaN,boat,boat,0,0212_ske_dnn_0_boat_00_boat-0065-sketch-20.png,boat-0065-sketch-20.png,1.0,1.9944862,1.6334975,0.25525758
convnext_large,1,213,NaN,chair,boat,0,0213_ske_dnn_0_boat_00_boat-0067-sketch-22.png,boat-0067-sketch-22.png,0.0,0.57653177,1.3712739,-0.56196755
convnext_large,1,214,NaN,knife,boat,0,0214_ske_dnn_0_boat_00_boat-0068-sketch-23.png,boat-0068-sketch-23.png,0.0,0.07199,3.3415422,-2.3119226
convnext_large,1,215,NaN,knife,boat,0,0215_ske_dnn_0_boat_00_boat-0070-sketch-25.png,boat-0070-sketch-25.png,0.0,1.4337113,2.171308,-0.52155966
convnext_large,1,216,NaN,boat,boat,0,0216_ske_dnn_0_boat_00_boat-0074-sketch-29.png,boat-0074-sketch-29.png,1.0,1.148028,1.0440068,0.07355409
convnext_large,1,217,NaN,keyboard,boat,0,0217_ske_dnn_0_boat_00_boat-0079-sketch-33.png,boat-0079-sketch-33.png,0.0,0.38634714,2.3710392,-1.4033892
convnext_large,1,218,NaN,boat,boat,0,0218_ske_dnn_0_boat_00_boat-0080-sketch-34.png,boat-0080-sketch-34.png,1.0,1.4005334,1.1555328,0.17324159
convnext_large,1,219,NaN,keyboard,boat,0,0219_ske_dnn_0_boat_00_boat-0085-sketch-39.png,boat-0085-sketch-39.png,0.0,0.63270926,1.7888157,-0.81749076
convnext_large,1,220,NaN,boat,boat,0,0220_ske_dnn_0_boat_00_boat-0088-sketch-41.png,boat-0088-sketch-41.png,1.0,1.3564844,0.76170075,0.42057556
convnext_large,1,221,NaN,boat,boat,0,0221_ske_dnn_0_boat_00_boat-0094-sketch-47.png,boat-0094-sketch-47.png,1.0,2.160833,0.850304,0.92668384
convnext_large,1,222,NaN,boat,boat,0,0222_ske_dnn_0_boat_00_boat-0099-sketch-6.png,boat-0099-sketch-6.png,1.0,1.4690497,1.2053568,0.186459
convnext_large,1,223,NaN,car,boat,0,0223_ske_dnn_0_boat_00_boat-0107-sketch-12.png,boat-0107-sketch-12.png,0.0,-0.003783071,1.438283,-1.0196947
convnext_large,1,224,NaN,boat,boat,0,0224_ske_dnn_0_boat_00_boat-0108-sketch-13.png,boat-0108-sketch-13.png,1.0,3.435985,1.0426134,1.6923693
convnext_large,1,225,NaN,airplane,boat,0,0225_ske_dnn_0_boat_00_boat-0110-sketch-15.png,boat-0110-sketch-15.png,0.0,0.6450256,0.83792377,-0.1363996
convnext_large,1,226,NaN,keyboard,boat,0,0226_ske_dnn_0_boat_00_boat-0113-sketch-18.png,boat-0113-sketch-18.png,0.0,0.9152461,1.0340657,-0.08401814
convnext_large,1,227,NaN,airplane,boat,0,0227_ske_dnn_0_boat_00_boat-0115-sketch-2.png,boat-0115-sketch-2.png,0.0,0.66919816,0.8736159,-0.1445452
convnext_large,1,228,NaN,boat,boat,0,0228_ske_dnn_0_boat_00_boat-0123-sketch-27.png,boat-0123-sketch-27.png,1.0,2.2863042,1.4033852,0.62431806
convnext_large,1,229,NaN,airplane,boat,0,0229_ske_dnn_0_boat_00_boat-0124-sketch-28.png,boat-0124-sketch-28.png,0.0,0.42199555,1.184646,-0.53927535
convnext_large,1,230,NaN,knife,boat,0,0230_ske_dnn_0_boat_00_boat-0125-sketch-29.png,boat-0125-sketch-29.png,0.0,0.54188144,1.1508911,-0.43063486
convnext_large,1,231,NaN,knife,boat,0,0231_ske_dnn_0_boat_00_boat-0126-sketch-3.png,boat-0126-sketch-3.png,0.0,0.7401556,1.5050151,-0.5408374
convnext_large,1,232,NaN,airplane,boat,0,0232_ske_dnn_0_boat_00_boat-0128-sketch-31.png,boat-0128-sketch-31.png,0.0,0.1569143,2.2707133,-1.4946817
convnext_large,1,233,NaN,oven,boat,0,0233_ske_dnn_0_boat_00_boat-0130-sketch-33.png,boat-0130-sketch-33.png,0.0,0.62656087,2.3065095,-1.187903
convnext_large,1,234,NaN,airplane,boat,0,0234_ske_dnn_0_boat_00_boat-0132-sketch-35.png,boat-0132-sketch-35.png,0.0,1.0588695,3.6359203,-1.82225
convnext_large,1,235,NaN,airplane,boat,0,0235_ske_dnn_0_boat_00_boat-0146-sketch-48.png,boat-0146-sketch-48.png,0.0,1.3129485,3.643243,-1.6477672
convnext_large,1,236,NaN,knife,boat,0,0236_ske_dnn_0_boat_00_boat-0152-sketch-8.png,boat-0152-sketch-8.png,0.0,0.43449935,2.010533,-1.1144241
convnext_large,1,237,NaN,boat,boat,0,0237_ske_dnn_0_boat_00_boat-0165-sketch-19.png,boat-0165-sketch-19.png,1.0,1.5983627,0.8998696,0.49390918
convnext_large,1,238,NaN,boat,boat,0,0238_ske_dnn_0_boat_00_boat-0166-sketch-2.png,boat-0166-sketch-2.png,1.0,2.4565094,1.9071573,0.38845056
convnext_large,1,239,NaN,oven,boat,0,0239_ske_dnn_0_boat_00_boat-0173-sketch-26.png,boat-0173-sketch-26.png,0.0,0.6686765,2.7292545,-1.4570487
convnext_large,1,240,NaN,car,boat,0,0240_ske_dnn_0_boat_00_boat-0178-sketch-30.png,boat-0178-sketch-30.png,0.0,2.6442454,5.918078,-2.3149493
convnext_large,1,241,NaN,oven,boat,0,0241_ske_dnn_0_boat_00_boat-0180-sketch-32.png,boat-0180-sketch-32.png,0.0,-0.80778456,2.5371766,-2.3652449
convnext_large,1,242,NaN,knife,boat,0,0242_ske_dnn_0_boat_00_boat-0194-sketch-45.png,boat-0194-sketch-45.png,0.0,-0.14653453,1.5077727,-1.1697719
convnext_large,1,243,NaN,boat,boat,0,0243_ske_dnn_0_boat_00_boat-0197-sketch-48.png,boat-0197-sketch-48.png,1.0,2.1529593,1.7669044,0.27298212
convnext_large,1,244,NaN,boat,boat,0,0244_ske_dnn_0_boat_00_boat-0212-sketch-15.png,boat-0212-sketch-15.png,1.0,1.2877098,1.0290536,0.1828976
convnext_large,1,245,NaN,chair,boat,0,0245_ske_dnn_0_boat_00_boat-0228-sketch-3.png,boat-0228-sketch-3.png,0.0,-0.32146025,2.3034163,-1.856068
convnext_large,1,246,NaN,boat,boat,0,0246_ske_dnn_0_boat_00_boat-0233-sketch-34.png,boat-0233-sketch-34.png,1.0,0.82024497,0.7384077,0.05786771
convnext_large,1,247,NaN,chair,boat,0,0247_ske_dnn_0_boat_00_boat-0234-sketch-35.png,boat-0234-sketch-35.png,0.0,0.87310857,1.8076127,-0.6607942
convnext_large,1,248,NaN,oven,boat,0,0248_ske_dnn_0_boat_00_boat-0237-sketch-38.png,boat-0237-sketch-38.png,0.0,0.5825896,1.427659,-0.5975543
convnext_large,1,249,NaN,boat,boat,0,0249_ske_dnn_0_boat_00_boat-0239-sketch-4.png,boat-0239-sketch-4.png,1.0,2.4454293,1.172552,0.90006024
convnext_large,1,250,NaN,chair,boat,0,0250_ske_dnn_0_boat_00_boat-0253-sketch-7.png,boat-0253-sketch-7.png,0.0,0.5070039,3.417364,-2.0579352
convnext_large,1,251,NaN,bottle,bottle,0,0251_ske_dnn_0_bottle_00_bottle-0002-sketch-1.png,bottle-0002-sketch-1.png,1.0,4.324639,0.8851769,2.432067
convnext_large,1,252,NaN,bottle,bottle,0,0252_ske_dnn_0_bottle_00_bottle-0003-sketch-10.png,bottle-0003-sketch-10.png,1.0,3.5380676,1.3970731,1.5139118
convnext_large,1,253,NaN,bottle,bottle,0,0253_ske_dnn_0_bottle_00_bottle-0019-sketch-25.png,bottle-0019-sketch-25.png,1.0,2.3707962,1.2705368,0.7780009
convnext_large,1,254,NaN,bottle,bottle,0,0254_ske_dnn_0_bottle_00_bottle-0030-sketch-35.png,bottle-0030-sketch-35.png,1.0,4.25969,0.3117579,2.7916095
convnext_large,1,255,NaN,bottle,bottle,0,0255_ske_dnn_0_bottle_00_bottle-0031-sketch-36.png,bottle-0031-sketch-36.png,1.0,3.8620915,0.12748043,2.6407688
convnext_large,1,256,NaN,knife,bottle,0,0256_ske_dnn_0_bottle_00_bottle-0038-sketch-42.png,bottle-0038-sketch-42.png,0.0,2.3520808,2.3605704,-0.00600306
convnext_large,1,257,NaN,bottle,bottle,0,0257_ske_dnn_0_bottle_00_bottle-0039-sketch-43.png,bottle-0039-sketch-43.png,1.0,3.45264,0.33428982,2.2050066
convnext_large,1,258,NaN,bottle,bottle,0,0258_ske_dnn_0_bottle_00_bottle-0041-sketch-45.png,bottle-0041-sketch-45.png,1.0,3.5688176,0.9544735,1.8486205
convnext_large,1,259,NaN,bottle,bottle,0,0259_ske_dnn_0_bottle_00_bottle-0045-sketch-49.png,bottle-0045-sketch-49.png,1.0,4.4222794,0.52404296,2.7564692
convnext_large,1,260,NaN,bottle,bottle,0,0260_ske_dnn_0_bottle_00_bottle-0050-sketch-9.png,bottle-0050-sketch-9.png,1.0,3.8076155,0.61537266,2.2572565
convnext_large,1,261,NaN,bottle,bottle,0,0261_ske_dnn_0_bottle_00_bottle-0054-sketch-11.png,bottle-0054-sketch-11.png,1.0,3.4750543,1.9590138,1.0720025
convnext_large,1,262,NaN,keyboard,bottle,0,0262_ske_dnn_0_bottle_00_bottle-0066-sketch-22.png,bottle-0066-sketch-22.png,0.0,1.7968494,2.7365906,-0.66449744
convnext_large,1,263,NaN,knife,bottle,0,0263_ske_dnn_0_bottle_00_bottle-0071-sketch-27.png,bottle-0071-sketch-27.png,0.0,0.67950696,2.5000925,-1.2873484
convnext_large,1,264,NaN,bottle,bottle,0,0264_ske_dnn_0_bottle_00_bottle-0082-sketch-37.png,bottle-0082-sketch-37.png,1.0,1.2525694,0.8293065,0.29929212
convnext_large,1,265,NaN,bottle,bottle,0,0265_ske_dnn_0_bottle_00_bottle-0086-sketch-40.png,bottle-0086-sketch-40.png,1.0,2.3518288,0.3973786,1.3820051
convnext_large,1,266,NaN,bottle,bottle,0,0266_ske_dnn_0_bottle_00_bottle-0090-sketch-44.png,bottle-0090-sketch-44.png,1.0,3.542432,1.9769611,1.1069552
convnext_large,1,267,NaN,bottle,bottle,0,0267_ske_dnn_0_bottle_00_bottle-0097-sketch-50.png,bottle-0097-sketch-50.png,1.0,2.575763,1.6421831,0.6601407
convnext_large,1,268,NaN,bottle,bottle,0,0268_ske_dnn_0_bottle_00_bottle-0107-sketch-13.png,bottle-0107-sketch-13.png,1.0,3.2937033,0.5912214,1.9109434
convnext_large,1,269,NaN,bottle,bottle,0,0269_ske_dnn_0_bottle_00_bottle-0114-sketch-2.png,bottle-0114-sketch-2.png,1.0,2.813858,2.600808,0.15064919
convnext_large,1,270,NaN,bottle,bottle,0,0270_ske_dnn_0_bottle_00_bottle-0126-sketch-30.png,bottle-0126-sketch-30.png,1.0,3.104967,1.559023,1.0931475
convnext_large,1,271,NaN,bottle,bottle,0,0271_ske_dnn_0_bottle_00_bottle-0130-sketch-34.png,bottle-0130-sketch-34.png,1.0,3.9540365,1.3492398,1.8418694
convnext_large,1,272,NaN,knife,bottle,0,0272_ske_dnn_0_bottle_00_bottle-0131-sketch-35.png,bottle-0131-sketch-35.png,0.0,1.2799824,1.3772427,-0.068773374
convnext_large,1,273,NaN,bottle,bottle,0,0273_ske_dnn_0_bottle_00_bottle-0133-sketch-37.png,bottle-0133-sketch-37.png,1.0,0.73758984,0.7110567,0.018761754
convnext_large,1,274,NaN,bottle,bottle,0,0274_ske_dnn_0_bottle_00_bottle-0135-sketch-39.png,bottle-0135-sketch-39.png,1.0,1.9995985,1.1264616,0.617401
convnext_large,1,275,NaN,bottle,bottle,0,0275_ske_dnn_0_bottle_00_bottle-0143-sketch-46.png,bottle-0143-sketch-46.png,1.0,3.4750798,0.20114696,2.3150203
convnext_large,1,276,NaN,bottle,bottle,0,0276_ske_dnn_0_bottle_00_bottle-0145-sketch-48.png,bottle-0145-sketch-48.png,1.0,2.570594,1.3247963,0.88091207
convnext_large,1,277,NaN,bottle,bottle,0,0277_ske_dnn_0_bottle_00_bottle-0150-sketch-7.png,bottle-0150-sketch-7.png,1.0,2.6965137,0.8356431,1.3158343
convnext_large,1,278,NaN,knife,bottle,0,0278_ske_dnn_0_bottle_00_bottle-0162-sketch-17.png,bottle-0162-sketch-17.png,0.0,2.8073878,3.251997,-0.31438616
convnext_large,1,279,NaN,bottle,bottle,0,0279_ske_dnn_0_bottle_00_bottle-0165-sketch-2.png,bottle-0165-sketch-2.png,1.0,2.5833066,0.4012962,1.5429144
convnext_large,1,280,NaN,knife,bottle,0,0280_ske_dnn_0_bottle_00_bottle-0184-sketch-37.png,bottle-0184-sketch-37.png,0.0,2.8830698,3.2928777,-0.28977796
convnext_large,1,281,NaN,bottle,bottle,0,0281_ske_dnn_0_bottle_00_bottle-0185-sketch-38.png,bottle-0185-sketch-38.png,1.0,2.0280173,0.956155,0.75792104
convnext_large,1,282,NaN,bottle,bottle,0,0282_ske_dnn_0_bottle_00_bottle-0189-sketch-41.png,bottle-0189-sketch-41.png,1.0,3.6141493,1.9445089,1.1806141
convnext_large,1,283,NaN,bottle,bottle,0,0283_ske_dnn_0_bottle_00_bottle-0202-sketch-8.png,bottle-0202-sketch-8.png,1.0,2.9833434,0.85773295,1.5030335
convnext_large,1,284,NaN,keyboard,bottle,0,0284_ske_dnn_0_bottle_00_bottle-0207-sketch-11.png,bottle-0207-sketch-11.png,0.0,0.26447886,1.3261349,-0.75070417
convnext_large,1,285,NaN,clock,bottle,0,0285_ske_dnn_0_bottle_00_bottle-0215-sketch-19.png,bottle-0215-sketch-19.png,0.0,0.018220918,0.97406846,-0.67588633
convnext_large,1,286,NaN,chair,bottle,0,0286_ske_dnn_0_bottle_00_bottle-0217-sketch-20.png,bottle-0217-sketch-20.png,0.0,-0.22032917,1.528823,-1.2368374
convnext_large,1,287,NaN,knife,bottle,0,0287_ske_dnn_0_bottle_00_bottle-0237-sketch-39.png,bottle-0237-sketch-39.png,0.0,0.9059252,2.2637405,-0.9601204
convnext_large,1,288,NaN,knife,bottle,0,0288_ske_dnn_0_bottle_00_bottle-0243-sketch-44.png,bottle-0243-sketch-44.png,0.0,0.08294647,2.0053978,-1.3593785
convnext_large,1,289,NaN,bottle,bottle,0,0289_ske_dnn_0_bottle_00_bottle-0245-sketch-46.png,bottle-0245-sketch-46.png,1.0,1.8938951,1.0210757,0.61717653
convnext_large,1,290,NaN,bottle,bottle,0,0290_ske_dnn_0_bottle_00_bottle-0268-sketch-20.png,bottle-0268-sketch-20.png,1.0,2.3258498,0.1990869,1.5038484
convnext_large,1,291,NaN,bottle,bottle,0,0291_ske_dnn_0_bottle_00_bottle-0280-sketch-31.png,bottle-0280-sketch-31.png,1.0,3.0197597,1.3384948,1.1888338
convnext_large,1,292,NaN,bottle,bottle,0,0292_ske_dnn_0_bottle_00_bottle-0292-sketch-42.png,bottle-0292-sketch-42.png,1.0,2.5121045,1.9191449,0.4192858
convnext_large,1,293,NaN,bottle,bottle,0,0293_ske_dnn_0_bottle_00_bottle-0294-sketch-44.png,bottle-0294-sketch-44.png,1.0,1.9270995,0.1949524,1.224813
convnext_large,1,294,NaN,knife,bottle,0,0294_ske_dnn_0_bottle_00_bottle-0296-sketch-46.png,bottle-0296-sketch-46.png,0.0,1.0782087,1.7013743,-0.44064462
convnext_large,1,295,NaN,bottle,bottle,0,0295_ske_dnn_0_bottle_00_bottle-0301-sketch-50.png,bottle-0301-sketch-50.png,1.0,1.0938863,0.11853745,0.6896758
convnext_large,1,296,NaN,bottle,bottle,0,0296_ske_dnn_0_bottle_00_bottle-0305-sketch-9.png,bottle-0305-sketch-9.png,1.0,1.7859324,0.8047972,0.6937674
convnext_large,1,297,NaN,bottle,bottle,0,0297_ske_dnn_0_bottle_00_bottle-0313-sketch-15.png,bottle-0313-sketch-15.png,1.0,3.959869,0.49691188,2.4486804
convnext_large,1,298,NaN,bottle,bottle,0,0298_ske_dnn_0_bottle_00_bottle-0321-sketch-22.png,bottle-0321-sketch-22.png,1.0,4.0222206,1.327352,1.9055599
convnext_large,1,299,NaN,bottle,bottle,0,0299_ske_dnn_0_bottle_00_bottle-0330-sketch-30.png,bottle-0330-sketch-30.png,1.0,3.79779,0.7578285,2.1495774
convnext_large,1,300,NaN,bottle,bottle,0,0300_ske_dnn_0_bottle_00_bottle-0338-sketch-38.png,bottle-0338-sketch-38.png,1.0,3.744108,1.3816838,1.6704862
convnext_large,1,301,NaN,truck,car,0,0301_ske_dnn_0_car_00_car-0002-sketch-1.png,car-0002-sketch-1.png,0.0,0.78665286,1.0375001,-0.17737581
convnext_large,1,302,NaN,car,car,0,0302_ske_dnn_0_car_00_car-0004-sketch-11.png,car-0004-sketch-11.png,1.0,3.1866615,1.6092546,1.1153951
convnext_large,1,303,NaN,truck,car,0,0303_ske_dnn_0_car_00_car-0005-sketch-12.png,car-0005-sketch-12.png,0.0,0.8022148,1.0344119,-0.16418815
convnext_large,1,304,NaN,car,car,0,0304_ske_dnn_0_car_00_car-0009-sketch-16.png,car-0009-sketch-16.png,1.0,1.0037894,0.5920731,0.2911274
convnext_large,1,305,NaN,car,car,0,0305_ske_dnn_0_car_00_car-0013-sketch-2.png,car-0013-sketch-2.png,1.0,4.63903,0.9346535,2.6193898
convnext_large,1,306,NaN,car,car,0,0306_ske_dnn_0_car_00_car-0014-sketch-20.png,car-0014-sketch-20.png,1.0,3.3617477,1.8209953,1.0894765
convnext_large,1,307,NaN,car,car,0,0307_ske_dnn_0_car_00_car-0017-sketch-23.png,car-0017-sketch-23.png,1.0,2.9912422,1.3784537,1.1404136
convnext_large,1,308,NaN,car,car,0,0308_ske_dnn_0_car_00_car-0018-sketch-24.png,car-0018-sketch-24.png,1.0,4.3009295,4.033967,0.18877102
convnext_large,1,309,NaN,chair,car,0,0309_ske_dnn_0_car_00_car-0021-sketch-27.png,car-0021-sketch-27.png,0.0,0.38524243,0.9523746,-0.40102297
convnext_large,1,310,NaN,knife,car,0,0310_ske_dnn_0_car_00_car-0022-sketch-28.png,car-0022-sketch-28.png,0.0,0.59936196,1.7319021,-0.8008269
convnext_large,1,311,NaN,car,car,0,0311_ske_dnn_0_car_00_car-0024-sketch-3.png,car-0024-sketch-3.png,1.0,4.665241,0.4169322,3.0040078
convnext_large,1,312,NaN,chair,car,0,0312_ske_dnn_0_car_00_car-0025-sketch-30.png,car-0025-sketch-30.png,0.0,-0.105737805,1.3213164,-1.0090797
convnext_large,1,313,NaN,car,car,0,0313_ske_dnn_0_car_00_car-0029-sketch-34.png,car-0029-sketch-34.png,1.0,2.9690475,1.509603,1.0319831
convnext_large,1,314,NaN,oven,car,0,0314_ske_dnn_0_car_00_car-0030-sketch-35.png,car-0030-sketch-35.png,0.0,4.4871354,4.528141,-0.028995346
convnext_large,1,315,NaN,car,car,0,0315_ske_dnn_0_car_00_car-0032-sketch-37.png,car-0032-sketch-37.png,1.0,4.3589225,3.8879986,0.33299348
convnext_large,1,316,NaN,knife,car,0,0316_ske_dnn_0_car_00_car-0034-sketch-39.png,car-0034-sketch-39.png,0.0,0.5743935,2.0521383,-1.0449234
convnext_large,1,317,NaN,car,car,0,0317_ske_dnn_0_car_00_car-0040-sketch-44.png,car-0040-sketch-44.png,1.0,3.1434937,1.6161389,1.0800029
convnext_large,1,318,NaN,car,car,0,0318_ske_dnn_0_car_00_car-0043-sketch-47.png,car-0043-sketch-47.png,1.0,4.665241,0.4169322,3.0040078
convnext_large,1,319,NaN,car,car,0,0319_ske_dnn_0_car_00_car-0044-sketch-48.png,car-0044-sketch-48.png,1.0,4.3962235,0.97367823,2.4201052
convnext_large,1,320,NaN,car,car,0,0320_ske_dnn_0_car_00_car-0045-sketch-49.png,car-0045-sketch-49.png,1.0,1.0140704,0.4931044,0.36837858
convnext_large,1,321,NaN,car,car,0,0321_ske_dnn_0_car_00_car-0047-sketch-50.png,car-0047-sketch-50.png,1.0,3.1138012,1.412571,1.2029516
convnext_large,1,322,NaN,truck,car,0,0322_ske_dnn_0_car_00_car-0050-sketch-8.png,car-0050-sketch-8.png,0.0,0.5875612,1.9583377,-0.9692853
convnext_large,1,323,NaN,car,car,0,0323_ske_dnn_0_car_00_car-0052-sketch-0.png,car-0052-sketch-0.png,1.0,2.191867,2.1004472,0.06464366
convnext_large,1,324,NaN,car,car,0,0324_ske_dnn_0_car_00_car-0055-sketch-11.png,car-0055-sketch-11.png,1.0,6.325348,0.52835125,4.099096
convnext_large,1,325,NaN,car,car,0,0325_ske_dnn_0_car_00_car-0064-sketch-2.png,car-0064-sketch-2.png,1.0,3.3755906,1.4904542,1.3329927
convnext_large,1,326,NaN,car,car,0,0326_ske_dnn_0_car_00_car-0069-sketch-24.png,car-0069-sketch-24.png,1.0,2.9140074,1.8883109,0.72527695
convnext_large,1,327,NaN,car,car,0,0327_ske_dnn_0_car_00_car-0076-sketch-30.png,car-0076-sketch-30.png,1.0,5.804859,1.1159494,3.3155599
convnext_large,1,328,NaN,bicycle,car,0,0328_ske_dnn_0_car_00_car-0079-sketch-33.png,car-0079-sketch-33.png,0.0,0.5525957,3.8079844,-2.3019075
convnext_large,1,329,NaN,car,car,0,0329_ske_dnn_0_car_00_car-0083-sketch-37.png,car-0083-sketch-37.png,1.0,6.8691387,2.062757,3.3986251
convnext_large,1,330,NaN,car,car,0,0330_ske_dnn_0_car_00_car-0092-sketch-45.png,car-0092-sketch-45.png,1.0,2.7503262,1.578888,0.8283318
convnext_large,1,331,NaN,car,car,0,0331_ske_dnn_0_car_00_car-0096-sketch-49.png,car-0096-sketch-49.png,1.0,5.455178,0.3537412,3.6072605
convnext_large,1,332,NaN,car,car,0,0332_ske_dnn_0_car_00_car-0098-sketch-50.png,car-0098-sketch-50.png,1.0,4.4578032,1.1184818,2.361257
convnext_large,1,333,NaN,car,car,0,0333_ske_dnn_0_car_00_car-0100-sketch-7.png,car-0100-sketch-7.png,1.0,5.2949924,0.1645411,3.6277769
convnext_large,1,334,NaN,car,car,0,0334_ske_dnn_0_car_00_car-0112-sketch-17.png,car-0112-sketch-17.png,1.0,6.311743,0.5956632,4.0418787
convnext_large,1,335,NaN,car,car,0,0335_ske_dnn_0_car_00_car-0114-sketch-19.png,car-0114-sketch-19.png,1.0,3.4466822,1.0105137,1.7226315
convnext_large,1,336,NaN,car,car,0,0336_ske_dnn_0_car_00_car-0116-sketch-20.png,car-0116-sketch-20.png,1.0,5.5033793,0.6392408,3.4394655
convnext_large,1,337,NaN,knife,car,0,0337_ske_dnn_0_car_00_car-0117-sketch-21.png,car-0117-sketch-21.png,0.0,1.8767406,2.2400522,-0.25690013
convnext_large,1,338,NaN,car,car,0,0338_ske_dnn_0_car_00_car-0120-sketch-24.png,car-0120-sketch-24.png,1.0,3.9954233,2.4812136,1.070708
convnext_large,1,339,NaN,car,car,0,0339_ske_dnn_0_car_00_car-0122-sketch-26.png,car-0122-sketch-26.png,1.0,3.8674538,1.5435458,1.6432511
convnext_large,1,340,NaN,car,car,0,0340_ske_dnn_0_car_00_car-0124-sketch-28.png,car-0124-sketch-28.png,1.0,4.1570535,1.050853,2.1964154
convnext_large,1,341,NaN,car,car,0,0341_ske_dnn_0_car_00_car-0125-sketch-29.png,car-0125-sketch-29.png,1.0,5.1774907,0.71601975,3.1547365
convnext_large,1,342,NaN,knife,car,0,0342_ske_dnn_0_car_00_car-0129-sketch-32.png,car-0129-sketch-32.png,0.0,-0.12187025,2.2145863,-1.6521243
convnext_large,1,343,NaN,car,car,0,0343_ske_dnn_0_car_00_car-0132-sketch-35.png,car-0132-sketch-35.png,1.0,5.0085306,0.36731714,3.2818336
convnext_large,1,344,NaN,knife,car,0,0344_ske_dnn_0_car_00_car-0136-sketch-39.png,car-0136-sketch-39.png,0.0,0.48764923,1.7768346,-0.91159177
convnext_large,1,345,NaN,car,car,0,0345_ske_dnn_0_car_00_car-0138-sketch-40.png,car-0138-sketch-40.png,1.0,6.8568788,0.63459957,4.399816
convnext_large,1,346,NaN,car,car,0,0346_ske_dnn_0_car_00_car-0139-sketch-41.png,car-0139-sketch-41.png,1.0,7.0763645,2.388164,3.3150585
convnext_large,1,347,NaN,car,car,0,0347_ske_dnn_0_car_00_car-0143-sketch-45.png,car-0143-sketch-45.png,1.0,3.8921604,1.364822,1.7870982
convnext_large,1,348,NaN,car,car,0,0348_ske_dnn_0_car_00_car-0145-sketch-47.png,car-0145-sketch-47.png,1.0,4.195598,0.7577241,2.4309442
convnext_large,1,349,NaN,car,car,0,0349_ske_dnn_0_car_00_car-0151-sketch-7.png,car-0151-sketch-7.png,1.0,5.017662,0.39151755,3.2711782
convnext_large,1,350,NaN,car,car,0,0350_ske_dnn_0_car_00_car-0153-sketch-9.png,car-0153-sketch-9.png,1.0,6.2860694,1.4045017,3.4517899
convnext_large,1,351,NaN,cat,cat,0,0351_ske_dnn_0_cat_00_cat-0002-sketch-1.png,cat-0002-sketch-1.png,1.0,4.3810215,0.69072556,2.6094334
convnext_large,1,352,NaN,cat,cat,0,0352_ske_dnn_0_cat_00_cat-0009-sketch-16.png,cat-0009-sketch-16.png,1.0,4.4660892,0.33906233,2.918249
convnext_large,1,353,NaN,cat,cat,0,0353_ske_dnn_0_cat_00_cat-0011-sketch-18.png,cat-0011-sketch-18.png,1.0,3.8487837,0.6586061,2.2557962
convnext_large,1,354,NaN,cat,cat,0,0354_ske_dnn_0_cat_00_cat-0015-sketch-21.png,cat-0015-sketch-21.png,1.0,4.617372,0.72108674,2.7550898
convnext_large,1,355,NaN,cat,cat,0,0355_ske_dnn_0_cat_00_cat-0016-sketch-22.png,cat-0016-sketch-22.png,1.0,3.9597683,0.5546211,2.4078026
convnext_large,1,356,NaN,cat,cat,0,0356_ske_dnn_0_cat_00_cat-0021-sketch-27.png,cat-0021-sketch-27.png,1.0,4.2060595,0.47204307,2.6403484
convnext_large,1,357,NaN,cat,cat,0,0357_ske_dnn_0_cat_00_cat-0027-sketch-32.png,cat-0027-sketch-32.png,1.0,3.2405748,0.30119917,2.0784526
convnext_large,1,358,NaN,cat,cat,0,0358_ske_dnn_0_cat_00_cat-0042-sketch-46.png,cat-0042-sketch-46.png,1.0,4.005444,0.24240658,2.6608694
convnext_large,1,359,NaN,cat,cat,0,0359_ske_dnn_0_cat_00_cat-0043-sketch-47.png,cat-0043-sketch-47.png,1.0,4.697116,0.74828637,2.7922442
convnext_large,1,360,NaN,cat,cat,0,0360_ske_dnn_0_cat_00_cat-0044-sketch-48.png,cat-0044-sketch-48.png,1.0,3.857385,0.8767876,2.1076005
convnext_large,1,361,NaN,cat,cat,0,0361_ske_dnn_0_cat_00_cat-0048-sketch-7.png,cat-0048-sketch-7.png,1.0,5.1169453,0.3977133,3.337001
convnext_large,1,362,NaN,cat,cat,0,0362_ske_dnn_0_cat_00_cat-0052-sketch-1.png,cat-0052-sketch-1.png,1.0,3.3277957,0.54672194,1.9665161
convnext_large,1,363,NaN,cat,cat,0,0363_ske_dnn_0_cat_00_cat-0053-sketch-10.png,cat-0053-sketch-10.png,1.0,1.4088925,1.2523227,0.1107116
convnext_large,1,364,NaN,knife,cat,0,0364_ske_dnn_0_cat_00_cat-0059-sketch-16.png,cat-0059-sketch-16.png,0.0,0.06821813,0.84862536,-0.55183125
convnext_large,1,365,NaN,cat,cat,0,0365_ske_dnn_0_cat_00_cat-0062-sketch-19.png,cat-0062-sketch-19.png,1.0,3.1731493,1.1068512,1.4610933
convnext_large,1,366,NaN,cat,cat,0,0366_ske_dnn_0_cat_00_cat-0067-sketch-23.png,cat-0067-sketch-23.png,1.0,4.706072,0.40365857,3.042266
convnext_large,1,367,NaN,cat,cat,0,0367_ske_dnn_0_cat_00_cat-0073-sketch-29.png,cat-0073-sketch-29.png,1.0,3.327377,1.6719483,1.1705649
convnext_large,1,368,NaN,cat,cat,0,0368_ske_dnn_0_cat_00_cat-0082-sketch-37.png,cat-0082-sketch-37.png,1.0,3.7075636,0.7992163,2.056512
convnext_large,1,369,NaN,cat,cat,0,0369_ske_dnn_0_cat_00_cat-0085-sketch-4.png,cat-0085-sketch-4.png,1.0,4.2206345,0.54230744,2.60097
convnext_large,1,370,NaN,cat,cat,0,0370_ske_dnn_0_cat_00_cat-0090-sketch-44.png,cat-0090-sketch-44.png,1.0,4.2351995,0.6189124,2.557101
convnext_large,1,371,NaN,cat,cat,0,0371_ske_dnn_0_cat_00_cat-0104-sketch-10.png,cat-0104-sketch-10.png,1.0,1.3885585,0.33544636,0.74466276
convnext_large,1,372,NaN,cat,cat,0,0372_ske_dnn_0_cat_00_cat-0124-sketch-29.png,cat-0124-sketch-29.png,1.0,1.9155402,0.31972393,1.1284125
convnext_large,1,373,NaN,cat,cat,0,0373_ske_dnn_0_cat_00_cat-0128-sketch-32.png,cat-0128-sketch-32.png,1.0,3.8340414,1.4044275,1.7179965
convnext_large,1,374,NaN,cat,cat,0,0374_ske_dnn_0_cat_00_cat-0134-sketch-38.png,cat-0134-sketch-38.png,1.0,2.7637293,0.7095217,1.4525441
convnext_large,1,375,NaN,cat,cat,0,0375_ske_dnn_0_cat_00_cat-0140-sketch-43.png,cat-0140-sketch-43.png,1.0,1.817141,0.48806003,0.9398022
convnext_large,1,376,NaN,cat,cat,0,0376_ske_dnn_0_cat_00_cat-0149-sketch-6.png,cat-0149-sketch-6.png,1.0,1.8097172,0.41162905,0.9885976
convnext_large,1,377,NaN,cat,cat,0,0377_ske_dnn_0_cat_00_cat-0150-sketch-7.png,cat-0150-sketch-7.png,1.0,1.9807745,0.4836486,1.0586278
convnext_large,1,378,NaN,cat,cat,0,0378_ske_dnn_0_cat_00_cat-0152-sketch-9.png,cat-0152-sketch-9.png,1.0,2.1368084,0.89605707,0.87734365
convnext_large,1,379,NaN,clock,cat,0,0379_ske_dnn_0_cat_00_cat-0158-sketch-13.png,cat-0158-sketch-13.png,0.0,0.349134,1.2771063,-0.65617555
convnext_large,1,380,NaN,cat,cat,0,0380_ske_dnn_0_cat_00_cat-0160-sketch-15.png,cat-0160-sketch-15.png,1.0,3.1506298,0.476546,1.8908627
convnext_large,1,381,NaN,cat,cat,0,0381_ske_dnn_0_cat_00_cat-0175-sketch-29.png,cat-0175-sketch-29.png,1.0,2.9516723,0.33135232,1.8528461
convnext_large,1,382,NaN,knife,cat,0,0382_ske_dnn_0_cat_00_cat-0207-sketch-11.png,cat-0207-sketch-11.png,0.0,-0.16666673,1.6290469,-1.2697613
convnext_large,1,383,NaN,knife,cat,0,0383_ske_dnn_0_cat_00_cat-0229-sketch-31.png,cat-0229-sketch-31.png,0.0,0.10076711,0.72338,-0.4402538
convnext_large,1,384,NaN,knife,cat,0,0384_ske_dnn_0_cat_00_cat-0233-sketch-35.png,cat-0233-sketch-35.png,0.0,-0.16666673,1.6290469,-1.2697613
convnext_large,1,385,NaN,knife,cat,0,0385_ske_dnn_0_cat_00_cat-0241-sketch-42.png,cat-0241-sketch-42.png,0.0,-1.0156544,1.3838425,-1.6967007
convnext_large,1,386,NaN,knife,cat,0,0386_ske_dnn_0_cat_00_cat-0245-sketch-46.png,cat-0245-sketch-46.png,0.0,0.1338349,0.9175978,-0.55420405
convnext_large,1,387,NaN,knife,cat,0,0387_ske_dnn_0_cat_00_cat-0250-sketch-50.png,cat-0250-sketch-50.png,0.0,0.28617728,1.1445351,-0.60695064
convnext_large,1,388,NaN,knife,cat,0,0388_ske_dnn_0_cat_00_cat-0251-sketch-6.png,cat-0251-sketch-6.png,0.0,-1.0156544,1.3838425,-1.6967007
convnext_large,1,389,NaN,cat,cat,0,0389_ske_dnn_0_cat_00_cat-0258-sketch-11.png,cat-0258-sketch-11.png,1.0,2.2567704,0.25310266,1.4168072
convnext_large,1,390,NaN,clock,cat,0,0390_ske_dnn_0_cat_00_cat-0260-sketch-13.png,cat-0260-sketch-13.png,0.0,0.5940944,0.9501586,-0.2517754
convnext_large,1,391,NaN,cat,cat,0,0391_ske_dnn_0_cat_00_cat-0264-sketch-17.png,cat-0264-sketch-17.png,1.0,1.9583513,0.9500022,0.7130105
convnext_large,1,392,NaN,cat,cat,0,0392_ske_dnn_0_cat_00_cat-0265-sketch-18.png,cat-0265-sketch-18.png,1.0,3.5069306,0.36930478,2.2186365
convnext_large,1,393,NaN,cat,cat,0,0393_ske_dnn_0_cat_00_cat-0269-sketch-21.png,cat-0269-sketch-21.png,1.0,3.007562,0.5526147,1.7359098
convnext_large,1,394,NaN,cat,cat,0,0394_ske_dnn_0_cat_00_cat-0274-sketch-26.png,cat-0274-sketch-26.png,1.0,2.102275,0.43556607,1.1785412
convnext_large,1,395,NaN,cat,cat,0,0395_ske_dnn_0_cat_00_cat-0279-sketch-30.png,cat-0279-sketch-30.png,1.0,2.0125763,1.6400363,0.26342556
convnext_large,1,396,NaN,cat,cat,0,0396_ske_dnn_0_cat_00_cat-0289-sketch-4.png,cat-0289-sketch-4.png,1.0,2.3868148,0.31711403,1.4634994
convnext_large,1,397,NaN,cat,cat,0,0397_ske_dnn_0_cat_00_cat-0293-sketch-43.png,cat-0293-sketch-43.png,1.0,1.6476946,0.2803111,0.96688616
convnext_large,1,398,NaN,cat,cat,0,0398_ske_dnn_0_cat_00_cat-0295-sketch-45.png,cat-0295-sketch-45.png,1.0,2.41574,0.3543539,1.4576201
convnext_large,1,399,NaN,cat,cat,0,0399_ske_dnn_0_cat_00_cat-0302-sketch-6.png,cat-0302-sketch-6.png,1.0,1.9028335,0.48377335,1.003427
convnext_large,1,400,NaN,cat,cat,0,0400_ske_dnn_0_cat_00_cat-0304-sketch-8.png,cat-0304-sketch-8.png,1.0,2.6805534,0.5401956,1.5134617
convnext_large,1,401,NaN,chair,chair,0,0401_ske_dnn_0_chair_00_chair-0002-sketch-1.png,chair-0002-sketch-1.png,1.0,2.6985838,1.2686161,1.0111399
convnext_large,1,402,NaN,chair,chair,0,0402_ske_dnn_0_chair_00_chair-0005-sketch-12.png,chair-0005-sketch-12.png,1.0,3.1223202,0.20275064,2.0644474
convnext_large,1,403,NaN,chair,chair,0,0403_ske_dnn_0_chair_00_chair-0006-sketch-13.png,chair-0006-sketch-13.png,1.0,4.130384,0.27671543,2.724955
convnext_large,1,404,NaN,chair,chair,0,0404_ske_dnn_0_chair_00_chair-0011-sketch-18.png,chair-0011-sketch-18.png,1.0,4.243769,0.74802434,2.471865
convnext_large,1,405,NaN,chair,chair,0,0405_ske_dnn_0_chair_00_chair-0013-sketch-2.png,chair-0013-sketch-2.png,1.0,3.348124,0.76972264,1.8232051
convnext_large,1,406,NaN,chair,chair,0,0406_ske_dnn_0_chair_00_chair-0014-sketch-20.png,chair-0014-sketch-20.png,1.0,4.363604,0.33462605,2.8489177
convnext_large,1,407,NaN,chair,chair,0,0407_ske_dnn_0_chair_00_chair-0017-sketch-23.png,chair-0017-sketch-23.png,1.0,4.0492325,0.542969,2.4793026
convnext_large,1,408,NaN,chair,chair,0,0408_ske_dnn_0_chair_00_chair-0029-sketch-34.png,chair-0029-sketch-34.png,1.0,2.1692135,1.7193108,0.3181293
convnext_large,1,409,NaN,chair,chair,0,0409_ske_dnn_0_chair_00_chair-0034-sketch-39.png,chair-0034-sketch-39.png,1.0,3.3620815,1.1682987,1.5512388
convnext_large,1,410,NaN,chair,chair,0,0410_ske_dnn_0_chair_00_chair-0040-sketch-44.png,chair-0040-sketch-44.png,1.0,2.9131916,0.17487666,1.9362811
convnext_large,1,411,NaN,chair,chair,0,0411_ske_dnn_0_chair_00_chair-0051-sketch-9.png,chair-0051-sketch-9.png,1.0,3.1865807,0.26706305,2.0644107
convnext_large,1,412,NaN,chair,chair,0,0412_ske_dnn_0_chair_00_chair-0052-sketch-0.png,chair-0052-sketch-0.png,1.0,2.6385987,0.52265286,1.4961996
convnext_large,1,413,NaN,knife,chair,0,0413_ske_dnn_0_chair_00_chair-0055-sketch-11.png,chair-0055-sketch-11.png,0.0,1.9164022,2.3946855,-0.33819735
convnext_large,1,414,NaN,chair,chair,0,0414_ske_dnn_0_chair_00_chair-0060-sketch-16.png,chair-0060-sketch-16.png,1.0,2.5196247,0.39275163,1.5039264
convnext_large,1,415,NaN,chair,chair,0,0415_ske_dnn_0_chair_00_chair-0062-sketch-18.png,chair-0062-sketch-18.png,1.0,3.1448562,0.21061823,2.0748196
convnext_large,1,416,NaN,chair,chair,0,0416_ske_dnn_0_chair_00_chair-0063-sketch-19.png,chair-0063-sketch-19.png,1.0,2.3828764,0.12468986,1.5967791
convnext_large,1,417,NaN,chair,chair,0,0417_ske_dnn_0_chair_00_chair-0064-sketch-2.png,chair-0064-sketch-2.png,1.0,2.1788578,1.1630107,0.7183124
convnext_large,1,418,NaN,chair,chair,0,0418_ske_dnn_0_chair_00_chair-0066-sketch-21.png,chair-0066-sketch-21.png,1.0,2.6992145,0.3523891,1.6594561
convnext_large,1,419,NaN,chair,chair,0,0419_ske_dnn_0_chair_00_chair-0067-sketch-22.png,chair-0067-sketch-22.png,1.0,2.9704332,0.22475974,1.9414843
convnext_large,1,420,NaN,chair,chair,0,0420_ske_dnn_0_chair_00_chair-0071-sketch-26.png,chair-0071-sketch-26.png,1.0,2.6021624,0.5463737,1.453662
convnext_large,1,421,NaN,chair,chair,0,0421_ske_dnn_0_chair_00_chair-0072-sketch-27.png,chair-0072-sketch-27.png,1.0,3.0074875,0.3123676,1.9057375
convnext_large,1,422,NaN,chair,chair,0,0422_ske_dnn_0_chair_00_chair-0076-sketch-30.png,chair-0076-sketch-30.png,1.0,2.3781784,0.25266778,1.5029631
convnext_large,1,423,NaN,chair,chair,0,0423_ske_dnn_0_chair_00_chair-0079-sketch-33.png,chair-0079-sketch-33.png,1.0,2.4341831,0.25967163,1.5376118
convnext_large,1,424,NaN,chair,chair,0,0424_ske_dnn_0_chair_00_chair-0083-sketch-37.png,chair-0083-sketch-37.png,1.0,2.5857685,0.760417,1.2907184
convnext_large,1,425,NaN,chair,chair,0,0425_ske_dnn_0_chair_00_chair-0088-sketch-41.png,chair-0088-sketch-41.png,1.0,2.3303213,0.43596712,1.3395108
convnext_large,1,426,NaN,chair,chair,0,0426_ske_dnn_0_chair_00_chair-0094-sketch-47.png,chair-0094-sketch-47.png,1.0,2.9874861,0.6001972,1.6880683
convnext_large,1,427,NaN,chair,chair,0,0427_ske_dnn_0_chair_00_chair-0105-sketch-11.png,chair-0105-sketch-11.png,1.0,2.916541,0.7307436,1.5455922
convnext_large,1,428,NaN,chair,chair,0,0428_ske_dnn_0_chair_00_chair-0118-sketch-23.png,chair-0118-sketch-23.png,1.0,3.689469,0.3399226,2.3684871
convnext_large,1,429,NaN,chair,chair,0,0429_ske_dnn_0_chair_00_chair-0122-sketch-27.png,chair-0122-sketch-27.png,1.0,3.9402266,0.5818205,2.3747518
convnext_large,1,430,NaN,chair,chair,0,0430_ske_dnn_0_chair_00_chair-0124-sketch-29.png,chair-0124-sketch-29.png,1.0,2.8016214,0.64819777,1.5227005
convnext_large,1,431,NaN,chair,chair,0,0431_ske_dnn_0_chair_00_chair-0125-sketch-3.png,chair-0125-sketch-3.png,1.0,2.9110177,0.80730003,1.487553
convnext_large,1,432,NaN,chair,chair,0,0432_ske_dnn_0_chair_00_chair-0127-sketch-31.png,chair-0127-sketch-31.png,1.0,2.8624542,0.3464237,1.7791023
convnext_large,1,433,NaN,chair,chair,0,0433_ske_dnn_0_chair_00_chair-0129-sketch-33.png,chair-0129-sketch-33.png,1.0,3.610839,0.5997603,2.1291542
convnext_large,1,434,NaN,chair,chair,0,0434_ske_dnn_0_chair_00_chair-0130-sketch-34.png,chair-0130-sketch-34.png,1.0,3.2342348,0.40503764,2.0005445
convnext_large,1,435,NaN,chair,chair,0,0435_ske_dnn_0_chair_00_chair-0131-sketch-35.png,chair-0131-sketch-35.png,1.0,3.1345267,1.0933093,1.4433587
convnext_large,1,436,NaN,chair,chair,0,0436_ske_dnn_0_chair_00_chair-0135-sketch-39.png,chair-0135-sketch-39.png,1.0,2.5707214,0.36266345,1.5613327
convnext_large,1,437,NaN,chair,chair,0,0437_ske_dnn_0_chair_00_chair-0144-sketch-47.png,chair-0144-sketch-47.png,1.0,2.6708336,0.35452926,1.6378745
convnext_large,1,438,NaN,chair,chair,0,0438_ske_dnn_0_chair_00_chair-0145-sketch-48.png,chair-0145-sketch-48.png,1.0,2.6340845,1.7269499,0.641441
convnext_large,1,439,NaN,chair,chair,0,0439_ske_dnn_0_chair_00_chair-0153-sketch-0.png,chair-0153-sketch-0.png,1.0,1.1035552,0.824516,0.19731052
convnext_large,1,440,NaN,chair,chair,0,0440_ske_dnn_0_chair_00_chair-0155-sketch-10.png,chair-0155-sketch-10.png,1.0,3.3056598,1.0567043,1.5902517
convnext_large,1,441,NaN,chair,chair,0,0441_ske_dnn_0_chair_00_chair-0163-sketch-18.png,chair-0163-sketch-18.png,1.0,4.0361953,1.8725741,1.5299113
convnext_large,1,442,NaN,chair,chair,0,0442_ske_dnn_0_chair_00_chair-0166-sketch-20.png,chair-0166-sketch-20.png,1.0,3.2495842,2.3133714,0.66200244
convnext_large,1,443,NaN,chair,chair,0,0443_ske_dnn_0_chair_00_chair-0167-sketch-21.png,chair-0167-sketch-21.png,1.0,5.036532,1.4272282,2.5521631
convnext_large,1,444,NaN,chair,chair,0,0444_ske_dnn_0_chair_00_chair-0168-sketch-22.png,chair-0168-sketch-22.png,1.0,2.640136,1.0446315,1.1281921
convnext_large,1,445,NaN,chair,chair,0,0445_ske_dnn_0_chair_00_chair-0175-sketch-29.png,chair-0175-sketch-29.png,1.0,1.759148,0.96482176,0.56167346
convnext_large,1,446,NaN,chair,chair,0,0446_ske_dnn_0_chair_00_chair-0176-sketch-3.png,chair-0176-sketch-3.png,1.0,2.7645957,1.3397382,1.0075264
convnext_large,1,447,NaN,chair,chair,0,0447_ske_dnn_0_chair_00_chair-0178-sketch-31.png,chair-0178-sketch-31.png,1.0,3.1082928,1.8074182,0.91985726
convnext_large,1,448,NaN,chair,chair,0,0448_ske_dnn_0_chair_00_chair-0180-sketch-33.png,chair-0180-sketch-33.png,1.0,1.7268727,0.31397265,0.9990712
convnext_large,1,449,NaN,chair,chair,0,0449_ske_dnn_0_chair_00_chair-0197-sketch-49.png,chair-0197-sketch-49.png,1.0,2.629332,1.0708137,1.102039
convnext_large,1,450,NaN,chair,chair,0,0450_ske_dnn_0_chair_00_chair-0200-sketch-6.png,chair-0200-sketch-6.png,1.0,1.1114514,0.19084582,0.6509664
convnext_large,1,451,NaN,clock,clock,0,0451_ske_dnn_0_clock_00_clock-0005-sketch-12.png,clock-0005-sketch-12.png,1.0,5.8608456,0.45644945,3.8214853
convnext_large,1,452,NaN,clock,clock,0,0452_ske_dnn_0_clock_00_clock-0007-sketch-14.png,clock-0007-sketch-14.png,1.0,4.9092298,0.090400964,3.4074264
convnext_large,1,453,NaN,clock,clock,0,0453_ske_dnn_0_clock_00_clock-0015-sketch-21.png,clock-0015-sketch-21.png,1.0,5.6735115,0.6721381,3.536505
convnext_large,1,454,NaN,clock,clock,0,0454_ske_dnn_0_clock_00_clock-0017-sketch-23.png,clock-0017-sketch-23.png,1.0,5.3119082,0.19472621,3.6183944
convnext_large,1,455,NaN,clock,clock,0,0455_ske_dnn_0_clock_00_clock-0018-sketch-24.png,clock-0018-sketch-24.png,1.0,5.4323597,0.79871494,3.2764816
convnext_large,1,456,NaN,clock,clock,0,0456_ske_dnn_0_clock_00_clock-0021-sketch-27.png,clock-0021-sketch-27.png,1.0,5.174642,0.42958874,3.3552594
convnext_large,1,457,NaN,clock,clock,0,0457_ske_dnn_0_clock_00_clock-0022-sketch-28.png,clock-0022-sketch-28.png,1.0,4.094914,0.31015098,2.6762316
convnext_large,1,458,NaN,clock,clock,0,0458_ske_dnn_0_clock_00_clock-0027-sketch-32.png,clock-0027-sketch-32.png,1.0,5.2198367,0.39367592,3.4126112
convnext_large,1,459,NaN,clock,clock,0,0459_ske_dnn_0_clock_00_clock-0028-sketch-33.png,clock-0028-sketch-33.png,1.0,5.2506676,0.12609076,3.623623
convnext_large,1,460,NaN,clock,clock,0,0460_ske_dnn_0_clock_00_clock-0030-sketch-35.png,clock-0030-sketch-35.png,1.0,5.375257,0.6187529,3.3633564
convnext_large,1,461,NaN,clock,clock,0,0461_ske_dnn_0_clock_00_clock-0033-sketch-38.png,clock-0033-sketch-38.png,1.0,5.3095584,0.33388856,3.5183299
convnext_large,1,462,NaN,clock,clock,0,0462_ske_dnn_0_clock_00_clock-0035-sketch-4.png,clock-0035-sketch-4.png,1.0,5.602278,0.21623552,3.8085072
convnext_large,1,463,NaN,clock,clock,0,0463_ske_dnn_0_clock_00_clock-0044-sketch-48.png,clock-0044-sketch-48.png,1.0,2.3497932,1.9656265,0.2716469
convnext_large,1,464,NaN,clock,clock,0,0464_ske_dnn_0_clock_00_clock-0046-sketch-5.png,clock-0046-sketch-5.png,1.0,3.8780158,1.3454655,1.7907835
convnext_large,1,465,NaN,clock,clock,0,0465_ske_dnn_0_clock_00_clock-0049-sketch-7.png,clock-0049-sketch-7.png,1.0,5.4031615,0.6234968,3.3797336
convnext_large,1,466,NaN,clock,clock,0,0466_ske_dnn_0_clock_00_clock-0057-sketch-13.png,clock-0057-sketch-13.png,1.0,3.862323,0.57909095,2.321596
convnext_large,1,467,NaN,clock,clock,0,0467_ske_dnn_0_clock_00_clock-0059-sketch-15.png,clock-0059-sketch-15.png,1.0,3.9997509,0.5104283,2.4673238
convnext_large,1,468,NaN,clock,clock,0,0468_ske_dnn_0_clock_00_clock-0060-sketch-16.png,clock-0060-sketch-16.png,1.0,2.843174,0.75521225,1.4764119
convnext_large,1,469,NaN,clock,clock,0,0469_ske_dnn_0_clock_00_clock-0067-sketch-22.png,clock-0067-sketch-22.png,1.0,4.3206162,0.37971896,2.7866352
convnext_large,1,470,NaN,clock,clock,0,0470_ske_dnn_0_clock_00_clock-0069-sketch-24.png,clock-0069-sketch-24.png,1.0,3.694492,3.6317198,0.0443867
convnext_large,1,471,NaN,knife,clock,0,0471_ske_dnn_0_clock_00_clock-0070-sketch-25.png,clock-0070-sketch-25.png,0.0,1.2724563,2.7282052,-1.02937
convnext_large,1,472,NaN,clock,clock,0,0472_ske_dnn_0_clock_00_clock-0071-sketch-26.png,clock-0071-sketch-26.png,1.0,1.5891005,0.5020641,0.7686508
convnext_large,1,473,NaN,clock,clock,0,0473_ske_dnn_0_clock_00_clock-0073-sketch-28.png,clock-0073-sketch-28.png,1.0,3.1321535,0.7712883,1.6693838
convnext_large,1,474,NaN,clock,clock,0,0474_ske_dnn_0_clock_00_clock-0074-sketch-29.png,clock-0074-sketch-29.png,1.0,4.4802566,0.38516068,2.89567
convnext_large,1,475,NaN,clock,clock,0,0475_ske_dnn_0_clock_00_clock-0076-sketch-30.png,clock-0076-sketch-30.png,1.0,4.140572,0.8118917,2.3537326
convnext_large,1,476,NaN,clock,clock,0,0476_ske_dnn_0_clock_00_clock-0077-sketch-31.png,clock-0077-sketch-31.png,1.0,4.173698,0.47645068,2.6143486
convnext_large,1,477,NaN,clock,clock,0,0477_ske_dnn_0_clock_00_clock-0078-sketch-32.png,clock-0078-sketch-32.png,1.0,3.8957417,1.141334,1.9476603
convnext_large,1,478,NaN,clock,clock,0,0478_ske_dnn_0_clock_00_clock-0081-sketch-35.png,clock-0081-sketch-35.png,1.0,4.5798206,1.8450576,1.9337696
convnext_large,1,479,NaN,clock,clock,0,0479_ske_dnn_0_clock_00_clock-0085-sketch-39.png,clock-0085-sketch-39.png,1.0,4.3523,0.2615651,2.8925865
convnext_large,1,480,NaN,oven,clock,0,0480_ske_dnn_0_clock_00_clock-0087-sketch-40.png,clock-0087-sketch-40.png,0.0,0.47539902,0.55372334,-0.055383656
convnext_large,1,481,NaN,clock,clock,0,0481_ske_dnn_0_clock_00_clock-0092-sketch-45.png,clock-0092-sketch-45.png,1.0,2.512451,0.6634291,1.3074559
convnext_large,1,482,NaN,clock,clock,0,0482_ske_dnn_0_clock_00_clock-0093-sketch-46.png,clock-0093-sketch-46.png,1.0,3.940848,0.4976533,2.4347064
convnext_large,1,483,NaN,clock,clock,0,0483_ske_dnn_0_clock_00_clock-0095-sketch-48.png,clock-0095-sketch-48.png,1.0,4.372971,0.2778772,2.8956685
convnext_large,1,484,NaN,oven,clock,0,0484_ske_dnn_0_clock_00_clock-0099-sketch-6.png,clock-0099-sketch-6.png,0.0,2.1869373,3.7791893,-1.1258922
convnext_large,1,485,NaN,clock,clock,0,0485_ske_dnn_0_clock_00_clock-0110-sketch-15.png,clock-0110-sketch-15.png,1.0,5.1789174,0.5088841,3.3022125
convnext_large,1,486,NaN,clock,clock,0,0486_ske_dnn_0_clock_00_clock-0112-sketch-17.png,clock-0112-sketch-17.png,1.0,5.6036897,0.20927657,3.8144262
convnext_large,1,487,NaN,clock,clock,0,0487_ske_dnn_0_clock_00_clock-0115-sketch-2.png,clock-0115-sketch-2.png,1.0,4.4725795,0.84852386,2.5625944
convnext_large,1,488,NaN,clock,clock,0,0488_ske_dnn_0_clock_00_clock-0118-sketch-22.png,clock-0118-sketch-22.png,1.0,2.768253,1.7580547,0.7143181
convnext_large,1,489,NaN,clock,clock,0,0489_ske_dnn_0_clock_00_clock-0123-sketch-27.png,clock-0123-sketch-27.png,1.0,3.1014166,0.6900935,1.7050629
convnext_large,1,490,NaN,clock,clock,0,0490_ske_dnn_0_clock_00_clock-0127-sketch-30.png,clock-0127-sketch-30.png,1.0,5.552582,0.5887445,3.509963
convnext_large,1,491,NaN,clock,clock,0,0491_ske_dnn_0_clock_00_clock-0131-sketch-34.png,clock-0131-sketch-34.png,1.0,5.7966437,0.7200128,3.5897202
convnext_large,1,492,NaN,clock,clock,0,0492_ske_dnn_0_clock_00_clock-0132-sketch-35.png,clock-0132-sketch-35.png,1.0,5.2165895,0.40704435,3.400862
convnext_large,1,493,NaN,clock,clock,0,0493_ske_dnn_0_clock_00_clock-0133-sketch-36.png,clock-0133-sketch-36.png,1.0,5.006691,0.4101783,3.2502253
convnext_large,1,494,NaN,clock,clock,0,0494_ske_dnn_0_clock_00_clock-0136-sketch-39.png,clock-0136-sketch-39.png,1.0,6.228232,0.11765633,4.3208294
convnext_large,1,495,NaN,clock,clock,0,0495_ske_dnn_0_clock_00_clock-0137-sketch-4.png,clock-0137-sketch-4.png,1.0,3.5839567,0.595903,2.112873
convnext_large,1,496,NaN,clock,clock,0,0496_ske_dnn_0_clock_00_clock-0138-sketch-40.png,clock-0138-sketch-40.png,1.0,5.3214345,0.1906614,3.6280046
convnext_large,1,497,NaN,clock,clock,0,0497_ske_dnn_0_clock_00_clock-0141-sketch-43.png,clock-0141-sketch-43.png,1.0,4.916229,0.87857413,2.8550532
convnext_large,1,498,NaN,clock,clock,0,0498_ske_dnn_0_clock_00_clock-0143-sketch-45.png,clock-0143-sketch-45.png,1.0,4.805433,1.0652628,2.6446996
convnext_large,1,499,NaN,clock,clock,0,0499_ske_dnn_0_clock_00_clock-0144-sketch-46.png,clock-0144-sketch-46.png,1.0,3.4976952,0.6778864,1.9939059
convnext_large,1,500,NaN,clock,clock,0,0500_ske_dnn_0_clock_00_clock-0150-sketch-6.png,clock-0150-sketch-6.png,1.0,5.925158,0.43882182,3.8794255
convnext_large,1,501,NaN,chair,dog,0,0501_ske_dnn_0_dog_00_dog-0011-sketch-18.png,dog-0011-sketch-18.png,0.0,0.25487593,0.39338428,-0.09794019
convnext_large,1,502,NaN,dog,dog,0,0502_ske_dnn_0_dog_00_dog-0111-sketch-17.png,dog-0111-sketch-17.png,1.0,1.3179127,1.0986266,0.15505868
convnext_large,1,503,NaN,clock,dog,0,0503_ske_dnn_0_dog_00_dog-0215-sketch-19.png,dog-0215-sketch-19.png,0.0,0.14103831,1.425413,-0.9081901
convnext_large,1,504,NaN,knife,dog,0,0504_ske_dnn_0_dog_00_dog-0243-sketch-44.png,dog-0243-sketch-44.png,0.0,0.780275,2.8241508,-1.4452384
convnext_large,1,505,NaN,knife,dog,0,0505_ske_dnn_0_dog_00_dog-0476-sketch-26.png,dog-0476-sketch-26.png,0.0,0.07936446,0.7684857,-0.4872823
convnext_large,1,506,NaN,knife,dog,0,0506_ske_dnn_0_dog_00_dog-0607-sketch-8.png,dog-0607-sketch-8.png,0.0,0.24737127,1.0533723,-0.56992877
convnext_large,1,507,NaN,clock,dog,0,0507_ske_dnn_0_dog_00_dog-0630-sketch-28.png,dog-0630-sketch-28.png,0.0,0.16369432,0.3671337,-0.14385337
convnext_large,1,508,NaN,dog,dog,0,0508_ske_dnn_0_dog_00_dog-1035-sketch-27.png,dog-1035-sketch-27.png,1.0,0.5190179,0.46793208,0.036123116
convnext_large,1,509,NaN,dog,dog,0,0509_ske_dnn_0_dog_00_dog-1292-sketch-3.png,dog-1292-sketch-3.png,1.0,0.6065011,0.4635467,0.10108403
convnext_large,1,510,NaN,dog,dog,0,0510_ske_dnn_0_dog_00_dog-1393-sketch-3.png,dog-1393-sketch-3.png,1.0,0.9526182,0.24822335,0.49808237
convnext_large,1,511,NaN,cat,dog,0,0511_ske_dnn_0_dog_00_dog-1460-sketch-44.png,dog-1460-sketch-44.png,0.0,0.6707128,0.7121008,-0.029265719
convnext_large,1,512,NaN,knife,dog,0,0512_ske_dnn_0_dog_00_dog-1617-sketch-48.png,dog-1617-sketch-48.png,0.0,-0.07983409,2.5763617,-1.878214
convnext_large,1,513,NaN,dog,dog,0,0513_ske_dnn_0_dog_00_dog-1657-sketch-38.png,dog-1657-sketch-38.png,1.0,0.2874027,0.25277898,0.024482662
convnext_large,1,514,NaN,knife,dog,0,0514_ske_dnn_0_dog_00_dog-1711-sketch-40.png,dog-1711-sketch-40.png,0.0,0.53390914,0.59876394,-0.04585927
convnext_large,1,515,NaN,clock,dog,0,0515_ske_dnn_0_dog_00_dog-1759-sketch-38.png,dog-1759-sketch-38.png,0.0,0.019984953,2.040351,-1.4286145
convnext_large,1,516,NaN,knife,dog,0,0516_ske_dnn_0_dog_00_dog-1797-sketch-26.png,dog-1797-sketch-26.png,0.0,0.32793072,1.2562516,-0.656422
convnext_large,1,517,NaN,oven,dog,0,0517_ske_dnn_0_dog_00_dog-1973-sketch-47.png,dog-1973-sketch-47.png,0.0,0.6893035,1.1065965,-0.29507068
convnext_large,1,518,NaN,clock,dog,0,0518_ske_dnn_0_dog_00_dog-2150-sketch-22.png,dog-2150-sketch-22.png,0.0,-0.0606012,1.2048713,-0.8948242
convnext_large,1,519,NaN,knife,dog,0,0519_ske_dnn_0_dog_00_dog-2198-sketch-20.png,dog-2198-sketch-20.png,0.0,0.36316177,3.0560372,-1.9041505
convnext_large,1,520,NaN,oven,dog,0,0520_ske_dnn_0_dog_00_dog-2291-sketch-12.png,dog-2291-sketch-12.png,0.0,0.1277387,0.5630741,-0.3078286
convnext_large,1,521,NaN,dog,dog,0,0521_ske_dnn_0_dog_00_dog-2323-sketch-41.png,dog-2323-sketch-41.png,1.0,1.3248836,0.8898613,0.30760723
convnext_large,1,522,NaN,clock,dog,0,0522_ske_dnn_0_dog_00_dog-2454-sketch-21.png,dog-2454-sketch-21.png,0.0,0.1501489,2.6308525,-1.7541224
convnext_large,1,523,NaN,dog,dog,0,0523_ske_dnn_0_dog_00_dog-2506-sketch-23.png,dog-2506-sketch-23.png,1.0,0.7582748,0.28966564,0.3313567
convnext_large,1,524,NaN,knife,dog,0,0524_ske_dnn_0_dog_00_dog-2541-sketch-0.png,dog-2541-sketch-0.png,0.0,0.54809326,0.70004714,-0.10744762
convnext_large,1,525,NaN,airplane,dog,0,0525_ske_dnn_0_dog_00_dog-2615-sketch-3.png,dog-2615-sketch-3.png,0.0,0.6080161,0.68843776,-0.05686672
convnext_large,1,526,NaN,knife,dog,0,0526_ske_dnn_0_dog_00_dog-2948-sketch-10.png,dog-2948-sketch-10.png,0.0,0.15074322,0.37419987,-0.15800771
convnext_large,1,527,NaN,dog,dog,0,0527_ske_dnn_0_dog_00_dog-3000-sketch-11.png,dog-3000-sketch-11.png,1.0,0.7091091,0.42519087,0.20076053
convnext_large,1,528,NaN,clock,dog,0,0528_ske_dnn_0_dog_00_dog-3153-sketch-11.png,dog-3153-sketch-11.png,0.0,-0.83390313,1.9725672,-1.9844743
convnext_large,1,529,NaN,clock,dog,0,0529_ske_dnn_0_dog_00_dog-3251-sketch-9.png,dog-3251-sketch-9.png,0.0,0.24160716,1.1157607,-0.6181199
convnext_large,1,530,NaN,bicycle,dog,0,0530_ske_dnn_0_dog_00_dog-3303-sketch-0.png,dog-3303-sketch-0.png,0.0,0.12778133,0.2214789,-0.06625418
convnext_large,1,531,NaN,dog,dog,0,0531_ske_dnn_0_dog_00_dog-3338-sketch-40.png,dog-3338-sketch-40.png,1.0,0.58830494,0.31327266,0.1944772
convnext_large,1,532,NaN,knife,dog,0,0532_ske_dnn_0_dog_00_dog-3417-sketch-2.png,dog-3417-sketch-2.png,0.0,0.23398553,0.5553402,-0.22723204
convnext_large,1,533,NaN,knife,dog,0,0533_ske_dnn_0_dog_00_dog-3503-sketch-6.png,dog-3503-sketch-6.png,0.0,0.4824899,0.8006263,-0.22495638
convnext_large,1,534,NaN,clock,dog,0,0534_ske_dnn_0_dog_00_dog-3573-sketch-22.png,dog-3573-sketch-22.png,0.0,-0.07830042,0.9522746,-0.7287266
convnext_large,1,535,NaN,clock,dog,0,0535_ske_dnn_0_dog_00_dog-3646-sketch-42.png,dog-3646-sketch-42.png,0.0,0.24069966,0.26937562,-0.020276966
convnext_large,1,536,NaN,knife,dog,0,0536_ske_dnn_0_dog_00_dog-3695-sketch-40.png,dog-3695-sketch-40.png,0.0,0.89855623,2.2662349,-0.96709484
convnext_large,1,537,NaN,dog,dog,0,0537_ske_dnn_0_dog_00_dog-3915-sketch-0.png,dog-3915-sketch-0.png,1.0,1.0708339,1.0613321,0.0067187976
convnext_large,1,538,NaN,oven,dog,0,0538_ske_dnn_0_dog_00_dog-4202-sketch-4.png,dog-4202-sketch-4.png,0.0,-0.13235311,0.36426488,-0.35116196
convnext_large,1,539,NaN,oven,dog,0,0539_ske_dnn_0_dog_00_dog-4208-sketch-45.png,dog-4208-sketch-45.png,0.0,-0.122290015,0.5180652,-0.45279953
convnext_large,1,540,NaN,keyboard,dog,0,0540_ske_dnn_0_dog_00_dog-4325-sketch-13.png,dog-4325-sketch-13.png,0.0,0.7860935,0.9455954,-0.112784885
convnext_large,1,541,NaN,dog,dog,0,0541_ske_dnn_0_dog_00_dog-4475-sketch-11.png,dog-4475-sketch-11.png,1.0,0.70115775,0.5348233,0.11761622
convnext_large,1,542,NaN,knife,dog,0,0542_ske_dnn_0_dog_00_dog-4499-sketch-33.png,dog-4499-sketch-33.png,0.0,-0.44882908,1.8850324,-1.6502894
convnext_large,1,543,NaN,dog,dog,0,0543_ske_dnn_0_dog_00_dog-4581-sketch-16.png,dog-4581-sketch-16.png,1.0,0.8539019,0.82584625,0.019838354
convnext_large,1,544,NaN,knife,dog,0,0544_ske_dnn_0_dog_00_dog-4709-sketch-4.png,dog-4709-sketch-4.png,0.0,0.080551155,2.1737378,-1.4801065
convnext_large,1,545,NaN,clock,dog,0,0545_ske_dnn_0_dog_00_dog-4909-sketch-37.png,dog-4909-sketch-37.png,0.0,0.3798624,0.7135889,-0.23598027
convnext_large,1,546,NaN,airplane,dog,0,0546_ske_dnn_0_dog_00_dog-5028-sketch-8.png,dog-5028-sketch-8.png,0.0,0.10004562,0.5143504,-0.29295772
convnext_large,1,547,NaN,dog,dog,0,0547_ske_dnn_0_dog_00_dog-5084-sketch-11.png,dog-5084-sketch-11.png,1.0,0.2477445,0.2268999,0.014739354
convnext_large,1,548,NaN,knife,dog,0,0548_ske_dnn_0_dog_00_dog-5223-sketch-45.png,dog-5223-sketch-45.png,0.0,-0.19193107,0.90681374,-0.77693
convnext_large,1,549,NaN,dog,dog,0,0549_ske_dnn_0_dog_00_dog-5325-sketch-45.png,dog-5325-sketch-45.png,1.0,0.2870273,0.075027935,0.14990619
convnext_large,1,550,NaN,bicycle,dog,0,0550_ske_dnn_0_dog_00_dog-5354-sketch-25.png,dog-5354-sketch-25.png,0.0,0.20762618,0.2825706,-0.05299371
convnext_large,1,551,NaN,elephant,elephant,0,0551_ske_dnn_0_elephant_00_elephant-0001-sketch-0.png,elephant-0001-sketch-0.png,1.0,3.973057,0.6029355,2.383036
convnext_large,1,552,NaN,elephant,elephant,0,0552_ske_dnn_0_elephant_00_elephant-0002-sketch-1.png,elephant-0002-sketch-1.png,1.0,7.5953655,0.62353444,4.929829
convnext_large,1,553,NaN,elephant,elephant,0,0553_ske_dnn_0_elephant_00_elephant-0006-sketch-13.png,elephant-0006-sketch-13.png,1.0,6.3432894,0.38272107,4.2147584
convnext_large,1,554,NaN,chair,elephant,0,0554_ske_dnn_0_elephant_00_elephant-0011-sketch-18.png,elephant-0011-sketch-18.png,0.0,0.20960721,1.7577379,-1.0946937
convnext_large,1,555,NaN,knife,elephant,0,0555_ske_dnn_0_elephant_00_elephant-0012-sketch-19.png,elephant-0012-sketch-19.png,0.0,0.09440306,1.2939975,-0.8482414
convnext_large,1,556,NaN,elephant,elephant,0,0556_ske_dnn_0_elephant_00_elephant-0013-sketch-2.png,elephant-0013-sketch-2.png,1.0,6.150035,0.54517365,3.9632354
convnext_large,1,557,NaN,elephant,elephant,0,0557_ske_dnn_0_elephant_00_elephant-0014-sketch-20.png,elephant-0014-sketch-20.png,1.0,4.8949823,0.4887265,3.1156933
convnext_large,1,558,NaN,elephant,elephant,0,0558_ske_dnn_0_elephant_00_elephant-0015-sketch-21.png,elephant-0015-sketch-21.png,1.0,2.0597649,0.93185246,0.7975545
convnext_large,1,559,NaN,knife,elephant,0,0559_ske_dnn_0_elephant_00_elephant-0016-sketch-22.png,elephant-0016-sketch-22.png,0.0,-0.4955535,3.0958335,-2.5394943
convnext_large,1,560,NaN,elephant,elephant,0,0560_ske_dnn_0_elephant_00_elephant-0019-sketch-25.png,elephant-0019-sketch-25.png,1.0,7.0881796,0.53157604,4.636219
convnext_large,1,561,NaN,elephant,elephant,0,0561_ske_dnn_0_elephant_00_elephant-0020-sketch-26.png,elephant-0020-sketch-26.png,1.0,5.248414,1.6113167,2.5718162
convnext_large,1,562,NaN,elephant,elephant,0,0562_ske_dnn_0_elephant_00_elephant-0021-sketch-27.png,elephant-0021-sketch-27.png,1.0,2.876738,1.5832056,0.91466564
convnext_large,1,563,NaN,knife,elephant,0,0563_ske_dnn_0_elephant_00_elephant-0022-sketch-28.png,elephant-0022-sketch-28.png,0.0,1.1481463,1.5365229,-0.27462372
convnext_large,1,564,NaN,elephant,elephant,0,0564_ske_dnn_0_elephant_00_elephant-0025-sketch-30.png,elephant-0025-sketch-30.png,1.0,3.177547,0.81963825,1.6672933
convnext_large,1,565,NaN,elephant,elephant,0,0565_ske_dnn_0_elephant_00_elephant-0028-sketch-33.png,elephant-0028-sketch-33.png,1.0,7.311387,0.46269137,4.842759
convnext_large,1,566,NaN,elephant,elephant,0,0566_ske_dnn_0_elephant_00_elephant-0029-sketch-34.png,elephant-0029-sketch-34.png,1.0,6.0822053,0.55778295,3.9063563
convnext_large,1,567,NaN,knife,elephant,0,0567_ske_dnn_0_elephant_00_elephant-0030-sketch-35.png,elephant-0030-sketch-35.png,0.0,0.10128088,0.9750248,-0.6178303
convnext_large,1,568,NaN,elephant,elephant,0,0568_ske_dnn_0_elephant_00_elephant-0032-sketch-37.png,elephant-0032-sketch-37.png,1.0,6.9602084,0.4121074,4.6302066
convnext_large,1,569,NaN,elephant,elephant,0,0569_ske_dnn_0_elephant_00_elephant-0033-sketch-38.png,elephant-0033-sketch-38.png,1.0,2.0226595,1.5376925,0.34292346
convnext_large,1,570,NaN,elephant,elephant,0,0570_ske_dnn_0_elephant_00_elephant-0037-sketch-41.png,elephant-0037-sketch-41.png,1.0,3.2513187,0.49800518,1.9468867
convnext_large,1,571,NaN,elephant,elephant,0,0571_ske_dnn_0_elephant_00_elephant-0039-sketch-43.png,elephant-0039-sketch-43.png,1.0,6.4845304,0.6150031,4.1503825
convnext_large,1,572,NaN,elephant,elephant,0,0572_ske_dnn_0_elephant_00_elephant-0040-sketch-44.png,elephant-0040-sketch-44.png,1.0,7.4080186,0.6132891,4.8045993
convnext_large,1,573,NaN,elephant,elephant,0,0573_ske_dnn_0_elephant_00_elephant-0043-sketch-47.png,elephant-0043-sketch-47.png,1.0,2.6214852,1.1569172,1.035606
convnext_large,1,574,NaN,elephant,elephant,0,0574_ske_dnn_0_elephant_00_elephant-0044-sketch-48.png,elephant-0044-sketch-48.png,1.0,6.1276274,0.6881154,3.8463156
convnext_large,1,575,NaN,elephant,elephant,0,0575_ske_dnn_0_elephant_00_elephant-0046-sketch-5.png,elephant-0046-sketch-5.png,1.0,7.075762,0.38190636,4.7332706
convnext_large,1,576,NaN,chair,elephant,0,0576_ske_dnn_0_elephant_00_elephant-0047-sketch-50.png,elephant-0047-sketch-50.png,0.0,-0.08038103,1.4921147,-1.1119224
convnext_large,1,577,NaN,elephant,elephant,0,0577_ske_dnn_0_elephant_00_elephant-0048-sketch-6.png,elephant-0048-sketch-6.png,1.0,1.8755122,1.6761926,0.14094025
convnext_large,1,578,NaN,elephant,elephant,0,0578_ske_dnn_0_elephant_00_elephant-0050-sketch-8.png,elephant-0050-sketch-8.png,1.0,4.407981,1.5882218,1.9938709
convnext_large,1,579,NaN,elephant,elephant,0,0579_ske_dnn_0_elephant_00_elephant-0052-sketch-0.png,elephant-0052-sketch-0.png,1.0,6.788677,0.6560839,4.336398
convnext_large,1,580,NaN,elephant,elephant,0,0580_ske_dnn_0_elephant_00_elephant-0054-sketch-10.png,elephant-0054-sketch-10.png,1.0,4.32961,1.1267239,2.2647824
convnext_large,1,581,NaN,elephant,elephant,0,0581_ske_dnn_0_elephant_00_elephant-0055-sketch-11.png,elephant-0055-sketch-11.png,1.0,5.740072,1.4563439,3.029053
convnext_large,1,582,NaN,elephant,elephant,0,0582_ske_dnn_0_elephant_00_elephant-0057-sketch-13.png,elephant-0057-sketch-13.png,1.0,5.6436305,0.54895514,3.6024797
convnext_large,1,583,NaN,elephant,elephant,0,0583_ske_dnn_0_elephant_00_elephant-0058-sketch-14.png,elephant-0058-sketch-14.png,1.0,5.869975,0.33843705,3.9113882
convnext_large,1,584,NaN,elephant,elephant,0,0584_ske_dnn_0_elephant_00_elephant-0061-sketch-17.png,elephant-0061-sketch-17.png,1.0,6.599286,0.38630986,4.393238
convnext_large,1,585,NaN,elephant,elephant,0,0585_ske_dnn_0_elephant_00_elephant-0062-sketch-18.png,elephant-0062-sketch-18.png,1.0,6.4387045,0.87745655,3.9323962
convnext_large,1,586,NaN,knife,elephant,0,0586_ske_dnn_0_elephant_00_elephant-0065-sketch-20.png,elephant-0065-sketch-20.png,0.0,1.298876,1.8524597,-0.39144275
convnext_large,1,587,NaN,elephant,elephant,0,0587_ske_dnn_0_elephant_00_elephant-0066-sketch-21.png,elephant-0066-sketch-21.png,1.0,6.4149857,0.6965874,4.043518
convnext_large,1,588,NaN,elephant,elephant,0,0588_ske_dnn_0_elephant_00_elephant-0071-sketch-26.png,elephant-0071-sketch-26.png,1.0,6.1053295,0.42802203,4.014463
convnext_large,1,589,NaN,elephant,elephant,0,0589_ske_dnn_0_elephant_00_elephant-0075-sketch-3.png,elephant-0075-sketch-3.png,1.0,2.091524,1.7645508,0.23120488
convnext_large,1,590,NaN,elephant,elephant,0,0590_ske_dnn_0_elephant_00_elephant-0076-sketch-30.png,elephant-0076-sketch-30.png,1.0,1.093801,0.8358523,0.18239728
convnext_large,1,591,NaN,elephant,elephant,0,0591_ske_dnn_0_elephant_00_elephant-0077-sketch-31.png,elephant-0077-sketch-31.png,1.0,5.9280972,0.7208411,3.6820862
convnext_large,1,592,NaN,elephant,elephant,0,0592_ske_dnn_0_elephant_00_elephant-0079-sketch-33.png,elephant-0079-sketch-33.png,1.0,5.869004,0.7801579,3.5983574
convnext_large,1,593,NaN,elephant,elephant,0,0593_ske_dnn_0_elephant_00_elephant-0080-sketch-34.png,elephant-0080-sketch-34.png,1.0,6.080695,1.0665352,3.5455468
convnext_large,1,594,NaN,elephant,elephant,0,0594_ske_dnn_0_elephant_00_elephant-0082-sketch-36.png,elephant-0082-sketch-36.png,1.0,6.3414845,0.9366158,3.8218193
convnext_large,1,595,NaN,elephant,elephant,0,0595_ske_dnn_0_elephant_00_elephant-0086-sketch-4.png,elephant-0086-sketch-4.png,1.0,5.7329016,0.62589586,3.6111984
convnext_large,1,596,NaN,elephant,elephant,0,0596_ske_dnn_0_elephant_00_elephant-0090-sketch-43.png,elephant-0090-sketch-43.png,1.0,7.256076,0.5144873,4.767023
convnext_large,1,597,NaN,elephant,elephant,0,0597_ske_dnn_0_elephant_00_elephant-0094-sketch-47.png,elephant-0094-sketch-47.png,1.0,5.325743,0.8315297,3.1778889
convnext_large,1,598,NaN,knife,elephant,0,0598_ske_dnn_0_elephant_00_elephant-0098-sketch-50.png,elephant-0098-sketch-50.png,0.0,0.24554503,1.6343699,-0.98204744
convnext_large,1,599,NaN,elephant,elephant,0,0599_ske_dnn_0_elephant_00_elephant-0100-sketch-7.png,elephant-0100-sketch-7.png,1.0,5.9078674,0.4818356,3.8367841
convnext_large,1,600,NaN,knife,elephant,0,0600_ske_dnn_0_elephant_00_elephant-0101-sketch-8.png,elephant-0101-sketch-8.png,0.0,0.48924434,1.482375,-0.70224947
convnext_large,1,601,NaN,keyboard,keyboard,0,0601_ske_dnn_0_keyboard_00_keyboard-0002-sketch-1.png,keyboard-0002-sketch-1.png,1.0,6.784481,0.8190579,4.218191
convnext_large,1,602,NaN,keyboard,keyboard,0,0602_ske_dnn_0_keyboard_00_keyboard-0003-sketch-10.png,keyboard-0003-sketch-10.png,1.0,2.343329,1.2908355,0.74422526
convnext_large,1,603,NaN,keyboard,keyboard,0,0603_ske_dnn_0_keyboard_00_keyboard-0004-sketch-11.png,keyboard-0004-sketch-11.png,1.0,6.4390516,1.6690991,3.372866
convnext_large,1,604,NaN,keyboard,keyboard,0,0604_ske_dnn_0_keyboard_00_keyboard-0005-sketch-12.png,keyboard-0005-sketch-12.png,1.0,6.820349,1.2929713,3.9084466
convnext_large,1,605,NaN,keyboard,keyboard,0,0605_ske_dnn_0_keyboard_00_keyboard-0006-sketch-13.png,keyboard-0006-sketch-13.png,1.0,6.0674744,0.5018741,3.935474
convnext_large,1,606,NaN,keyboard,keyboard,0,0606_ske_dnn_0_keyboard_00_keyboard-0007-sketch-14.png,keyboard-0007-sketch-14.png,1.0,7.0086627,0.7794372,4.404728
convnext_large,1,607,NaN,keyboard,keyboard,0,0607_ske_dnn_0_keyboard_00_keyboard-0008-sketch-15.png,keyboard-0008-sketch-15.png,1.0,7.4635983,0.81872714,4.6986337
convnext_large,1,608,NaN,keyboard,keyboard,0,0608_ske_dnn_0_keyboard_00_keyboard-0009-sketch-16.png,keyboard-0009-sketch-16.png,1.0,6.515277,1.0595517,3.8577805
convnext_large,1,609,NaN,keyboard,keyboard,0,0609_ske_dnn_0_keyboard_00_keyboard-0010-sketch-17.png,keyboard-0010-sketch-17.png,1.0,2.7462597,2.1102874,0.4497003
convnext_large,1,610,NaN,keyboard,keyboard,0,0610_ske_dnn_0_keyboard_00_keyboard-0014-sketch-20.png,keyboard-0014-sketch-20.png,1.0,7.559289,0.80620813,4.7751493
convnext_large,1,611,NaN,keyboard,keyboard,0,0611_ske_dnn_0_keyboard_00_keyboard-0016-sketch-22.png,keyboard-0016-sketch-22.png,1.0,7.1075225,0.9307596,4.367631
convnext_large,1,612,NaN,keyboard,keyboard,0,0612_ske_dnn_0_keyboard_00_keyboard-0017-sketch-23.png,keyboard-0017-sketch-23.png,1.0,6.533986,0.7891865,4.0621867
convnext_large,1,613,NaN,keyboard,keyboard,0,0613_ske_dnn_0_keyboard_00_keyboard-0019-sketch-25.png,keyboard-0019-sketch-25.png,1.0,6.77864,0.58728224,4.377951
convnext_large,1,614,NaN,keyboard,keyboard,0,0614_ske_dnn_0_keyboard_00_keyboard-0022-sketch-28.png,keyboard-0022-sketch-28.png,1.0,6.6002655,0.6985878,4.173116
convnext_large,1,615,NaN,keyboard,keyboard,0,0615_ske_dnn_0_keyboard_00_keyboard-0023-sketch-29.png,keyboard-0023-sketch-29.png,1.0,7.0978136,0.992678,4.3169827
convnext_large,1,616,NaN,keyboard,keyboard,0,0616_ske_dnn_0_keyboard_00_keyboard-0026-sketch-31.png,keyboard-0026-sketch-31.png,1.0,6.8633513,0.8355389,4.262307
convnext_large,1,617,NaN,clock,keyboard,0,0617_ske_dnn_0_keyboard_00_keyboard-0028-sketch-33.png,keyboard-0028-sketch-33.png,0.0,0.06233783,1.9725672,-1.3507361
convnext_large,1,618,NaN,keyboard,keyboard,0,0618_ske_dnn_0_keyboard_00_keyboard-0029-sketch-34.png,keyboard-0029-sketch-34.png,1.0,6.2338552,0.5207724,4.0397596
convnext_large,1,619,NaN,keyboard,keyboard,0,0619_ske_dnn_0_keyboard_00_keyboard-0031-sketch-36.png,keyboard-0031-sketch-36.png,1.0,6.4730263,1.4661101,3.5404243
convnext_large,1,620,NaN,keyboard,keyboard,0,0620_ske_dnn_0_keyboard_00_keyboard-0033-sketch-38.png,keyboard-0033-sketch-38.png,1.0,5.697345,1.1987352,3.1809974
convnext_large,1,621,NaN,keyboard,keyboard,0,0621_ske_dnn_0_keyboard_00_keyboard-0034-sketch-39.png,keyboard-0034-sketch-39.png,1.0,3.3338957,1.4694023,1.318396
convnext_large,1,622,NaN,keyboard,keyboard,0,0622_ske_dnn_0_keyboard_00_keyboard-0035-sketch-4.png,keyboard-0035-sketch-4.png,1.0,6.2331514,0.5084228,4.0479946
convnext_large,1,623,NaN,keyboard,keyboard,0,0623_ske_dnn_0_keyboard_00_keyboard-0037-sketch-41.png,keyboard-0037-sketch-41.png,1.0,6.5470037,1.364203,3.6647937
convnext_large,1,624,NaN,keyboard,keyboard,0,0624_ske_dnn_0_keyboard_00_keyboard-0038-sketch-42.png,keyboard-0038-sketch-42.png,1.0,6.835333,1.2728456,3.9332724
convnext_large,1,625,NaN,keyboard,keyboard,0,0625_ske_dnn_0_keyboard_00_keyboard-0039-sketch-43.png,keyboard-0039-sketch-43.png,1.0,6.063721,0.4879853,3.9426408
convnext_large,1,626,NaN,keyboard,keyboard,0,0626_ske_dnn_0_keyboard_00_keyboard-0041-sketch-45.png,keyboard-0041-sketch-45.png,1.0,7.347753,0.7263569,4.682034
convnext_large,1,627,NaN,keyboard,keyboard,0,0627_ske_dnn_0_keyboard_00_keyboard-0042-sketch-46.png,keyboard-0042-sketch-46.png,1.0,6.4519014,1.0406079,3.8263624
convnext_large,1,628,NaN,keyboard,keyboard,0,0628_ske_dnn_0_keyboard_00_keyboard-0043-sketch-47.png,keyboard-0043-sketch-47.png,1.0,3.1714501,2.3234792,0.59960604
convnext_large,1,629,NaN,keyboard,keyboard,0,0629_ske_dnn_0_keyboard_00_keyboard-0044-sketch-48.png,keyboard-0044-sketch-48.png,1.0,7.044528,0.5127619,4.618656
convnext_large,1,630,NaN,keyboard,keyboard,0,0630_ske_dnn_0_keyboard_00_keyboard-0045-sketch-49.png,keyboard-0045-sketch-49.png,1.0,6.7466516,1.1797248,3.9364119
convnext_large,1,631,NaN,keyboard,keyboard,0,0631_ske_dnn_0_keyboard_00_keyboard-0047-sketch-50.png,keyboard-0047-sketch-50.png,1.0,7.566814,0.7556429,4.8162255
convnext_large,1,632,NaN,keyboard,keyboard,0,0632_ske_dnn_0_keyboard_00_keyboard-0049-sketch-7.png,keyboard-0049-sketch-7.png,1.0,7.6747737,0.834844,4.8365607
convnext_large,1,633,NaN,keyboard,keyboard,0,0633_ske_dnn_0_keyboard_00_keyboard-0052-sketch-0.png,keyboard-0052-sketch-0.png,1.0,5.1191134,0.7309948,3.1028686
convnext_large,1,634,NaN,keyboard,keyboard,0,0634_ske_dnn_0_keyboard_00_keyboard-0053-sketch-1.png,keyboard-0053-sketch-1.png,1.0,6.514449,0.9517472,3.9334245
convnext_large,1,635,NaN,keyboard,keyboard,0,0635_ske_dnn_0_keyboard_00_keyboard-0059-sketch-15.png,keyboard-0059-sketch-15.png,1.0,5.2137294,0.38539913,3.414145
convnext_large,1,636,NaN,keyboard,keyboard,0,0636_ske_dnn_0_keyboard_00_keyboard-0061-sketch-17.png,keyboard-0061-sketch-17.png,1.0,5.4972067,0.28441405,3.6860008
convnext_large,1,637,NaN,keyboard,keyboard,0,0637_ske_dnn_0_keyboard_00_keyboard-0062-sketch-18.png,keyboard-0062-sketch-18.png,1.0,5.2596006,1.7880967,2.454724
convnext_large,1,638,NaN,keyboard,keyboard,0,0638_ske_dnn_0_keyboard_00_keyboard-0063-sketch-19.png,keyboard-0063-sketch-19.png,1.0,6.212859,0.8409202,3.7985344
convnext_large,1,639,NaN,keyboard,keyboard,0,0639_ske_dnn_0_keyboard_00_keyboard-0064-sketch-2.png,keyboard-0064-sketch-2.png,1.0,5.756057,0.4342013,3.7631202
convnext_large,1,640,NaN,keyboard,keyboard,0,0640_ske_dnn_0_keyboard_00_keyboard-0068-sketch-23.png,keyboard-0068-sketch-23.png,1.0,5.8338904,1.264602,3.2309747
convnext_large,1,641,NaN,keyboard,keyboard,0,0641_ske_dnn_0_keyboard_00_keyboard-0071-sketch-26.png,keyboard-0071-sketch-26.png,1.0,3.5646677,1.3989624,1.5313848
convnext_large,1,642,NaN,keyboard,keyboard,0,0642_ske_dnn_0_keyboard_00_keyboard-0074-sketch-29.png,keyboard-0074-sketch-29.png,1.0,5.6138744,2.3727298,2.2918353
convnext_large,1,643,NaN,keyboard,keyboard,0,0643_ske_dnn_0_keyboard_00_keyboard-0076-sketch-30.png,keyboard-0076-sketch-30.png,1.0,5.4856033,0.6330582,3.4312677
convnext_large,1,644,NaN,keyboard,keyboard,0,0644_ske_dnn_0_keyboard_00_keyboard-0084-sketch-38.png,keyboard-0084-sketch-38.png,1.0,5.646062,0.787282,3.4356763
convnext_large,1,645,NaN,keyboard,keyboard,0,0645_ske_dnn_0_keyboard_00_keyboard-0085-sketch-39.png,keyboard-0085-sketch-39.png,1.0,5.1405206,2.1411943,2.120844
convnext_large,1,646,NaN,keyboard,keyboard,0,0646_ske_dnn_0_keyboard_00_keyboard-0086-sketch-4.png,keyboard-0086-sketch-4.png,1.0,3.1328409,1.6078669,1.0783194
convnext_large,1,647,NaN,keyboard,keyboard,0,0647_ske_dnn_0_keyboard_00_keyboard-0087-sketch-40.png,keyboard-0087-sketch-40.png,1.0,5.523032,1.6190801,2.7605112
convnext_large,1,648,NaN,keyboard,keyboard,0,0648_ske_dnn_0_keyboard_00_keyboard-0088-sketch-41.png,keyboard-0088-sketch-41.png,1.0,4.667142,3.0981712,1.1094298
convnext_large,1,649,NaN,keyboard,keyboard,0,0649_ske_dnn_0_keyboard_00_keyboard-0091-sketch-44.png,keyboard-0091-sketch-44.png,1.0,5.706083,1.1052173,3.253303
convnext_large,1,650,NaN,keyboard,keyboard,0,0650_ske_dnn_0_keyboard_00_keyboard-0098-sketch-50.png,keyboard-0098-sketch-50.png,1.0,6.244458,0.8181468,3.8369818
convnext_large,1,651,NaN,knife,knife,0,0651_ske_dnn_0_knife_00_knife-0001-sketch-0.png,knife-0001-sketch-0.png,1.0,4.1318955,1.6497921,1.7551122
convnext_large,1,652,NaN,knife,knife,0,0652_ske_dnn_0_knife_00_knife-0002-sketch-1.png,knife-0002-sketch-1.png,1.0,9.340926,1.8228997,5.3160477
convnext_large,1,653,NaN,knife,knife,0,0653_ske_dnn_0_knife_00_knife-0004-sketch-11.png,knife-0004-sketch-11.png,1.0,6.1605844,2.1861942,2.8103185
convnext_large,1,654,NaN,knife,knife,0,0654_ske_dnn_0_knife_00_knife-0005-sketch-12.png,knife-0005-sketch-12.png,1.0,8.881786,0.25898018,6.097245
convnext_large,1,655,NaN,knife,knife,0,0655_ske_dnn_0_knife_00_knife-0006-sketch-13.png,knife-0006-sketch-13.png,1.0,8.06658,0.5110189,5.3425884
convnext_large,1,656,NaN,knife,knife,0,0656_ske_dnn_0_knife_00_knife-0007-sketch-14.png,knife-0007-sketch-14.png,1.0,7.690656,0.5168441,5.072651
convnext_large,1,657,NaN,knife,knife,0,0657_ske_dnn_0_knife_00_knife-0008-sketch-15.png,knife-0008-sketch-15.png,1.0,7.9047256,0.6752326,5.112024
convnext_large,1,658,NaN,knife,knife,0,0658_ske_dnn_0_knife_00_knife-0009-sketch-16.png,knife-0009-sketch-16.png,1.0,7.682925,0.24945946,5.256254
convnext_large,1,659,NaN,knife,knife,0,0659_ske_dnn_0_knife_00_knife-0010-sketch-17.png,knife-0010-sketch-17.png,1.0,8.02348,0.2529636,5.494585
convnext_large,1,660,NaN,knife,knife,0,0660_ske_dnn_0_knife_00_knife-0011-sketch-18.png,knife-0011-sketch-18.png,1.0,8.65285,0.44473085,5.804017
convnext_large,1,661,NaN,chair,knife,0,0661_ske_dnn_0_knife_00_knife-0012-sketch-19.png,knife-0012-sketch-19.png,0.0,1.7793703,2.331236,-0.3902279
convnext_large,1,662,NaN,knife,knife,0,0662_ske_dnn_0_knife_00_knife-0013-sketch-2.png,knife-0013-sketch-2.png,1.0,7.3342376,0.37388423,4.9217134
convnext_large,1,663,NaN,knife,knife,0,0663_ske_dnn_0_knife_00_knife-0014-sketch-20.png,knife-0014-sketch-20.png,1.0,4.106148,0.53353935,2.5262158
convnext_large,1,664,NaN,knife,knife,0,0664_ske_dnn_0_knife_00_knife-0015-sketch-21.png,knife-0015-sketch-21.png,1.0,7.9905457,0.38858664,5.375397
convnext_large,1,665,NaN,knife,knife,0,0665_ske_dnn_0_knife_00_knife-0016-sketch-22.png,knife-0016-sketch-22.png,1.0,2.1150696,0.7535699,0.96272576
convnext_large,1,666,NaN,knife,knife,0,0666_ske_dnn_0_knife_00_knife-0017-sketch-23.png,knife-0017-sketch-23.png,1.0,1.9283652,1.1386501,0.55841297
convnext_large,1,667,NaN,knife,knife,0,0667_ske_dnn_0_knife_00_knife-0018-sketch-24.png,knife-0018-sketch-24.png,1.0,7.9685316,0.1566368,5.523844
convnext_large,1,668,NaN,knife,knife,0,0668_ske_dnn_0_knife_00_knife-0019-sketch-25.png,knife-0019-sketch-25.png,1.0,7.9040365,0.59849876,5.1657953
convnext_large,1,669,NaN,knife,knife,0,0669_ske_dnn_0_knife_00_knife-0020-sketch-26.png,knife-0020-sketch-26.png,1.0,7.4368887,1.518829,4.1847005
