subj,session,trial,rt,object_response,category,condition,imagename,filename,is_correct,targ_act,max_nontarg_act,decision_margin
bagnet33,1,1,NaN,airplane,airplane,0,0001_ske_dnn_0_airplane_00_airplane-0001-sketch-0.png,00_airplane-0001-sketch-0.png,1.0,8.219593,4.2401943,2.81386
bagnet33,1,2,NaN,clock,airplane,0,0002_ske_dnn_0_airplane_00_airplane-0002-sketch-1.png,00_airplane-0002-sketch-1.png,0.0,-1.3300952,2.8519886,-2.9571798
bagnet33,1,3,NaN,clock,airplane,0,0003_ske_dnn_0_airplane_00_airplane-0003-sketch-10.png,00_airplane-0003-sketch-10.png,0.0,0.40903652,2.3920274,-1.4021863
bagnet33,1,4,NaN,clock,airplane,0,0004_ske_dnn_0_airplane_00_airplane-0004-sketch-11.png,00_airplane-0004-sketch-11.png,0.0,-0.8584064,1.2680174,-1.5036087
bagnet33,1,5,NaN,clock,airplane,0,0005_ske_dnn_0_airplane_00_airplane-0005-sketch-12.png,00_airplane-0005-sketch-12.png,0.0,1.2117324,3.2326992,-1.4290394
bagnet33,1,6,NaN,bicycle,airplane,0,0006_ske_dnn_0_airplane_00_airplane-0006-sketch-13.png,00_airplane-0006-sketch-13.png,0.0,5.480904,6.341387,-0.60845315
bagnet33,1,7,NaN,clock,airplane,0,0007_ske_dnn_0_airplane_00_airplane-0007-sketch-14.png,00_airplane-0007-sketch-14.png,0.0,0.88918686,2.3226185,-1.0135893
bagnet33,1,8,NaN,clock,airplane,0,0008_ske_dnn_0_airplane_00_airplane-0008-sketch-15.png,00_airplane-0008-sketch-15.png,0.0,-1.3399241,1.9895955,-2.354326
bagnet33,1,9,NaN,clock,airplane,0,0009_ske_dnn_0_airplane_00_airplane-0009-sketch-16.png,00_airplane-0009-sketch-16.png,0.0,-1.0010355,2.4677413,-2.4527955
bagnet33,1,10,NaN,clock,airplane,0,0010_ske_dnn_0_airplane_00_airplane-0010-sketch-17.png,00_airplane-0010-sketch-17.png,0.0,-0.83345485,3.777971,-3.2607706
bagnet33,1,11,NaN,bottle,airplane,0,0011_ske_dnn_0_airplane_00_airplane-0011-sketch-18.png,00_airplane-0011-sketch-18.png,0.0,0.7307129,3.1620996,-1.7192501
bagnet33,1,12,NaN,clock,airplane,0,0012_ske_dnn_0_airplane_00_airplane-0012-sketch-19.png,00_airplane-0012-sketch-19.png,0.0,0.06590514,4.370236,-3.0436215
bagnet33,1,13,NaN,airplane,airplane,0,0013_ske_dnn_0_airplane_00_airplane-0013-sketch-2.png,00_airplane-0013-sketch-2.png,1.0,11.2344,5.733677,3.8895986
bagnet33,1,14,NaN,clock,airplane,0,0014_ske_dnn_0_airplane_00_airplane-0014-sketch-20.png,00_airplane-0014-sketch-20.png,0.0,-0.96598095,3.6404736,-3.257255
bagnet33,1,15,NaN,oven,airplane,0,0015_ske_dnn_0_airplane_00_airplane-0015-sketch-21.png,00_airplane-0015-sketch-21.png,0.0,3.117671,3.87644,-0.53653073
bagnet33,1,16,NaN,airplane,airplane,0,0016_ske_dnn_0_airplane_00_airplane-0016-sketch-22.png,00_airplane-0016-sketch-22.png,1.0,9.346509,3.6121814,4.054782
bagnet33,1,17,NaN,clock,airplane,0,0017_ske_dnn_0_airplane_00_airplane-0017-sketch-23.png,00_airplane-0017-sketch-23.png,0.0,-0.9671496,2.499898,-2.451573
bagnet33,1,18,NaN,clock,airplane,0,0018_ske_dnn_0_airplane_00_airplane-0018-sketch-24.png,00_airplane-0018-sketch-24.png,0.0,-0.10797803,4.3826156,-3.1753292
bagnet33,1,19,NaN,clock,airplane,0,0019_ske_dnn_0_airplane_00_airplane-0019-sketch-25.png,00_airplane-0019-sketch-25.png,0.0,-2.305019,7.182568,-6.7087374
bagnet33,1,20,NaN,clock,airplane,0,0020_ske_dnn_0_airplane_00_airplane-0020-sketch-26.png,00_airplane-0020-sketch-26.png,0.0,-2.0500622,2.5896256,-3.2807546
bagnet33,1,21,NaN,clock,airplane,0,0021_ske_dnn_0_airplane_00_airplane-0021-sketch-27.png,00_airplane-0021-sketch-27.png,0.0,-2.9230056,4.4197254,-5.192095
bagnet33,1,22,NaN,clock,airplane,0,0022_ske_dnn_0_airplane_00_airplane-0022-sketch-28.png,00_airplane-0022-sketch-28.png,0.0,-1.5937791,2.1032047,-2.6141624
bagnet33,1,23,NaN,clock,airplane,0,0023_ske_dnn_0_airplane_00_airplane-0023-sketch-29.png,00_airplane-0023-sketch-29.png,0.0,-0.69197845,2.406688,-2.1910882
bagnet33,1,24,NaN,clock,airplane,0,0024_ske_dnn_0_airplane_00_airplane-0024-sketch-3.png,00_airplane-0024-sketch-3.png,0.0,-1.3930873,2.8816311,-3.0226824
bagnet33,1,25,NaN,clock,airplane,0,0025_ske_dnn_0_airplane_00_airplane-0025-sketch-30.png,00_airplane-0025-sketch-30.png,0.0,0.17661735,2.240815,-1.4596081
bagnet33,1,26,NaN,clock,airplane,0,0026_ske_dnn_0_airplane_00_airplane-0027-sketch-32.png,00_airplane-0027-sketch-32.png,0.0,-2.2692013,8.025689,-7.279587
bagnet33,1,27,NaN,clock,airplane,0,0027_ske_dnn_0_airplane_00_airplane-0028-sketch-33.png,00_airplane-0028-sketch-33.png,0.0,-0.9488622,4.4821315,-3.8402925
bagnet33,1,28,NaN,clock,airplane,0,0028_ske_dnn_0_airplane_00_airplane-0029-sketch-34.png,00_airplane-0029-sketch-34.png,0.0,-1.6425846,4.30074,-4.2025647
bagnet33,1,29,NaN,clock,airplane,0,0029_ske_dnn_0_airplane_00_airplane-0030-sketch-35.png,00_airplane-0030-sketch-35.png,0.0,-1.3165526,2.8107026,-2.9184103
bagnet33,1,30,NaN,clock,airplane,0,0030_ske_dnn_0_airplane_00_airplane-0031-sketch-36.png,00_airplane-0031-sketch-36.png,0.0,2.2657406,3.9528077,-1.1929365
bagnet33,1,31,NaN,clock,airplane,0,0031_ske_dnn_0_airplane_00_airplane-0032-sketch-37.png,00_airplane-0032-sketch-37.png,0.0,-0.77261853,2.3054883,-2.1765504
bagnet33,1,32,NaN,clock,airplane,0,0032_ske_dnn_0_airplane_00_airplane-0033-sketch-38.png,00_airplane-0033-sketch-38.png,0.0,-1.5984952,2.2276266,-2.7054768
bagnet33,1,33,NaN,clock,airplane,0,0033_ske_dnn_0_airplane_00_airplane-0034-sketch-39.png,00_airplane-0034-sketch-39.png,0.0,-1.9191993,3.2890522,-3.68279
bagnet33,1,34,NaN,clock,airplane,0,0034_ske_dnn_0_airplane_00_airplane-0035-sketch-4.png,00_airplane-0035-sketch-4.png,0.0,1.4172645,5.2382445,-2.7018409
bagnet33,1,35,NaN,airplane,airplane,0,0035_ske_dnn_0_airplane_00_airplane-0036-sketch-40.png,00_airplane-0036-sketch-40.png,1.0,8.910286,3.5272388,3.806389
bagnet33,1,36,NaN,clock,airplane,0,0036_ske_dnn_0_airplane_00_airplane-0037-sketch-41.png,00_airplane-0037-sketch-41.png,0.0,0.314454,3.2366638,-2.0663145
bagnet33,1,37,NaN,clock,airplane,0,0037_ske_dnn_0_airplane_00_airplane-0038-sketch-42.png,00_airplane-0038-sketch-42.png,0.0,-1.3399537,3.6869059,-3.5545263
bagnet33,1,38,NaN,clock,airplane,0,0038_ske_dnn_0_airplane_00_airplane-0039-sketch-43.png,00_airplane-0039-sketch-43.png,0.0,-0.20685002,4.5993185,-3.3984745
bagnet33,1,39,NaN,clock,airplane,0,0039_ske_dnn_0_airplane_00_airplane-0040-sketch-44.png,00_airplane-0040-sketch-44.png,0.0,-2.572597,3.786559,-4.4966025
bagnet33,1,40,NaN,clock,airplane,0,0040_ske_dnn_0_airplane_00_airplane-0041-sketch-45.png,00_airplane-0041-sketch-45.png,0.0,-2.7271168,1.8255552,-3.2192252
bagnet33,1,41,NaN,clock,airplane,0,0041_ske_dnn_0_airplane_00_airplane-0042-sketch-46.png,00_airplane-0042-sketch-46.png,0.0,-2.5507054,2.5836217,-3.6305175
bagnet33,1,42,NaN,clock,airplane,0,0042_ske_dnn_0_airplane_00_airplane-0043-sketch-47.png,00_airplane-0043-sketch-47.png,0.0,-3.3912296,6.527143,-7.013349
bagnet33,1,43,NaN,clock,airplane,0,0043_ske_dnn_0_airplane_00_airplane-0044-sketch-48.png,00_airplane-0044-sketch-48.png,0.0,-2.1363564,3.5094147,-3.992163
bagnet33,1,44,NaN,airplane,airplane,0,0044_ske_dnn_0_airplane_00_airplane-0045-sketch-49.png,00_airplane-0045-sketch-49.png,1.0,7.434629,4.145738,2.325597
bagnet33,1,45,NaN,clock,airplane,0,0045_ske_dnn_0_airplane_00_airplane-0046-sketch-5.png,00_airplane-0046-sketch-5.png,0.0,-0.5171623,1.5145985,-1.4366717
bagnet33,1,46,NaN,clock,airplane,0,0046_ske_dnn_0_airplane_00_airplane-0047-sketch-50.png,00_airplane-0047-sketch-50.png,0.0,-1.8875799,2.61818,-3.1860538
bagnet33,1,47,NaN,clock,airplane,0,0047_ske_dnn_0_airplane_00_airplane-0048-sketch-6.png,00_airplane-0048-sketch-6.png,0.0,0.2225048,3.0412052,-1.9931221
bagnet33,1,48,NaN,clock,airplane,0,0048_ske_dnn_0_airplane_00_airplane-0049-sketch-7.png,00_airplane-0049-sketch-7.png,0.0,1.5181639,3.4163055,-1.3421888
bagnet33,1,49,NaN,clock,airplane,0,0049_ske_dnn_0_airplane_00_airplane-0050-sketch-8.png,00_airplane-0050-sketch-8.png,0.0,-3.6241972,10.160777,-9.747449
bagnet33,1,50,NaN,clock,airplane,0,0050_ske_dnn_0_airplane_00_airplane-0051-sketch-9.png,00_airplane-0051-sketch-9.png,0.0,-1.9365993,3.1806157,-3.6184175
bagnet33,1,51,NaN,bird,bear,0,0051_ske_dnn_0_bear_00_bear-0005-sketch-12.png,00_bear-0005-sketch-12.png,0.0,-0.0842979,1.838741,-1.3597938
bagnet33,1,52,NaN,elephant,bear,0,0052_ske_dnn_0_bear_00_bear-0007-sketch-14.png,00_bear-0007-sketch-14.png,0.0,-1.6337621,2.7703023,-3.1141436
bagnet33,1,53,NaN,cat,bear,0,0053_ske_dnn_0_bear_00_bear-0017-sketch-23.png,00_bear-0017-sketch-23.png,0.0,-0.5405468,6.4567504,-4.9478364
bagnet33,1,54,NaN,cat,bear,0,0054_ske_dnn_0_bear_00_bear-0022-sketch-28.png,00_bear-0022-sketch-28.png,0.0,0.17324656,3.3117225,-2.2192376
bagnet33,1,55,NaN,dog,bear,0,0055_ske_dnn_0_bear_00_bear-0023-sketch-29.png,00_bear-0023-sketch-29.png,0.0,3.3402,4.2745233,-0.66066635
bagnet33,1,56,NaN,cat,bear,0,0056_ske_dnn_0_bear_00_bear-0026-sketch-31.png,00_bear-0026-sketch-31.png,0.0,4.3011045,6.432108,-1.506847
bagnet33,1,57,NaN,cat,bear,0,0057_ske_dnn_0_bear_00_bear-0027-sketch-32.png,00_bear-0027-sketch-32.png,0.0,3.684194,6.0365105,-1.6633389
bagnet33,1,58,NaN,bird,bear,0,0058_ske_dnn_0_bear_00_bear-0030-sketch-35.png,00_bear-0030-sketch-35.png,0.0,1.2250259,1.9110734,-0.48510888
bagnet33,1,59,NaN,cat,bear,0,0059_ske_dnn_0_bear_00_bear-0033-sketch-38.png,00_bear-0033-sketch-38.png,0.0,1.5398893,5.5115356,-2.808378
bagnet33,1,60,NaN,knife,bear,0,0060_ske_dnn_0_bear_00_bear-0036-sketch-40.png,00_bear-0036-sketch-40.png,0.0,-5.8655334,2.3003187,-5.774129
bagnet33,1,61,NaN,bear,bear,0,0061_ske_dnn_0_bear_00_bear-0037-sketch-41.png,00_bear-0037-sketch-41.png,1.0,7.033318,6.5928445,0.31146184
bagnet33,1,62,NaN,bear,bear,0,0062_ske_dnn_0_bear_00_bear-0038-sketch-42.png,00_bear-0038-sketch-42.png,1.0,7.1029253,4.79861,1.6293968
bagnet33,1,63,NaN,cat,bear,0,0063_ske_dnn_0_bear_00_bear-0039-sketch-43.png,00_bear-0039-sketch-43.png,0.0,0.8790853,2.9623845,-1.473115
bagnet33,1,64,NaN,elephant,bear,0,0064_ske_dnn_0_bear_00_bear-0041-sketch-45.png,00_bear-0041-sketch-45.png,0.0,2.5614524,5.6560526,-2.1882129
bagnet33,1,65,NaN,dog,bear,0,0065_ske_dnn_0_bear_00_bear-0045-sketch-49.png,00_bear-0045-sketch-49.png,0.0,1.4074318,1.9931408,-0.4141588
bagnet33,1,66,NaN,knife,bear,0,0066_ske_dnn_0_bear_00_bear-0048-sketch-7.png,00_bear-0048-sketch-7.png,0.0,-4.4841485,3.8222477,-5.8735094
bagnet33,1,67,NaN,bicycle,bear,0,0067_ske_dnn_0_bear_00_bear-0049-sketch-8.png,00_bear-0049-sketch-8.png,0.0,-3.472519,2.741166,-4.3937387
bagnet33,1,68,NaN,bear,bear,0,0068_ske_dnn_0_bear_00_bear-0053-sketch-10.png,00_bear-0053-sketch-10.png,1.0,9.843458,6.315274,2.4948032
bagnet33,1,69,NaN,bear,bear,0,0069_ske_dnn_0_bear_00_bear-0059-sketch-16.png,00_bear-0059-sketch-16.png,1.0,4.589773,1.9520708,1.8651373
bagnet33,1,70,NaN,elephant,bear,0,0070_ske_dnn_0_bear_00_bear-0068-sketch-24.png,00_bear-0068-sketch-24.png,0.0,-1.9692789,3.2568617,-3.6954393
bagnet33,1,71,NaN,oven,bear,0,0071_ske_dnn_0_bear_00_bear-0070-sketch-26.png,00_bear-0070-sketch-26.png,0.0,-0.13847488,1.6103132,-1.23658
bagnet33,1,72,NaN,bear,bear,0,0072_ske_dnn_0_bear_00_bear-0073-sketch-29.png,00_bear-0073-sketch-29.png,1.0,7.303883,5.5504737,1.2398477
bagnet33,1,73,NaN,bear,bear,0,0073_ske_dnn_0_bear_00_bear-0079-sketch-34.png,00_bear-0079-sketch-34.png,1.0,17.982456,6.899403,7.8369026
bagnet33,1,74,NaN,dog,bear,0,0074_ske_dnn_0_bear_00_bear-0081-sketch-36.png,00_bear-0081-sketch-36.png,0.0,3.0930622,4.3676043,-0.90123737
bagnet33,1,75,NaN,bear,bear,0,0075_ske_dnn_0_bear_00_bear-0085-sketch-4.png,00_bear-0085-sketch-4.png,1.0,7.430847,6.6264405,0.5688014
bagnet33,1,76,NaN,elephant,bear,0,0076_ske_dnn_0_bear_00_bear-0086-sketch-40.png,00_bear-0086-sketch-40.png,0.0,-1.4461554,3.3265307,-3.3747988
bagnet33,1,77,NaN,clock,bear,0,0077_ske_dnn_0_bear_00_bear-0087-sketch-41.png,00_bear-0087-sketch-41.png,0.0,0.12295076,3.2495797,-2.2108605
bagnet33,1,78,NaN,clock,bear,0,0078_ske_dnn_0_bear_00_bear-0090-sketch-44.png,00_bear-0090-sketch-44.png,0.0,-5.286595,5.3733144,-7.5376945
bagnet33,1,79,NaN,clock,bear,0,0079_ske_dnn_0_bear_00_bear-0103-sketch-1.png,00_bear-0103-sketch-1.png,0.0,-0.7292045,3.442722,-2.9499977
bagnet33,1,80,NaN,clock,bear,0,0080_ske_dnn_0_bear_00_bear-0107-sketch-13.png,00_bear-0107-sketch-13.png,0.0,-0.56472147,2.4979286,-2.1656208
bagnet33,1,81,NaN,clock,bear,0,0081_ske_dnn_0_bear_00_bear-0110-sketch-16.png,00_bear-0110-sketch-16.png,0.0,1.5001385,3.3385131,-1.2999272
bagnet33,1,82,NaN,clock,bear,0,0082_ske_dnn_0_bear_00_bear-0112-sketch-18.png,00_bear-0112-sketch-18.png,0.0,-0.84083855,2.871507,-2.6250248
bagnet33,1,83,NaN,clock,bear,0,0083_ske_dnn_0_bear_00_bear-0117-sketch-22.png,00_bear-0117-sketch-22.png,0.0,-2.5369058,5.692164,-5.818831
bagnet33,1,84,NaN,clock,bear,0,0084_ske_dnn_0_bear_00_bear-0123-sketch-28.png,00_bear-0123-sketch-28.png,0.0,-0.47949958,1.47215,-1.3800247
bagnet33,1,85,NaN,clock,bear,0,0085_ske_dnn_0_bear_00_bear-0135-sketch-39.png,00_bear-0135-sketch-39.png,0.0,-1.7049688,3.2271068,-3.487504
bagnet33,1,86,NaN,clock,bear,0,0086_ske_dnn_0_bear_00_bear-0136-sketch-4.png,00_bear-0136-sketch-4.png,0.0,0.6356805,2.7362988,-1.4853615
bagnet33,1,87,NaN,bicycle,bear,0,0087_ske_dnn_0_bear_00_bear-0137-sketch-40.png,00_bear-0137-sketch-40.png,0.0,-3.095963,1.6413348,-3.3497756
bagnet33,1,88,NaN,bear,bear,0,0088_ske_dnn_0_bear_00_bear-0148-sketch-50.png,00_bear-0148-sketch-50.png,1.0,11.255709,4.5519753,4.7402554
bagnet33,1,89,NaN,bicycle,bear,0,0089_ske_dnn_0_bear_00_bear-0149-sketch-6.png,00_bear-0149-sketch-6.png,0.0,-2.3497822,1.2595937,-2.5522141
bagnet33,1,90,NaN,bear,bear,0,0090_ske_dnn_0_bear_00_bear-0161-sketch-16.png,00_bear-0161-sketch-16.png,1.0,3.4419668,2.4247665,0.7192692
bagnet33,1,91,NaN,cat,bear,0,0091_ske_dnn_0_bear_00_bear-0166-sketch-20.png,00_bear-0166-sketch-20.png,0.0,-0.24154624,2.6039784,-2.0120897
bagnet33,1,92,NaN,bottle,bear,0,0092_ske_dnn_0_bear_00_bear-0170-sketch-24.png,00_bear-0170-sketch-24.png,0.0,-2.1132007,3.0776653,-3.6704967
bagnet33,1,93,NaN,bear,bear,0,0093_ske_dnn_0_bear_00_bear-0171-sketch-25.png,00_bear-0171-sketch-25.png,1.0,10.361548,4.7791886,3.9473245
bagnet33,1,94,NaN,clock,bear,0,0094_ske_dnn_0_bear_00_bear-0179-sketch-32.png,00_bear-0179-sketch-32.png,0.0,-1.6580031,2.4489672,-2.9040666
bagnet33,1,95,NaN,clock,bear,0,0095_ske_dnn_0_bear_00_bear-0187-sketch-4.png,00_bear-0187-sketch-4.png,0.0,-1.7063518,2.9786975,-3.31283
bagnet33,1,96,NaN,bear,bear,0,0096_ske_dnn_0_bear_00_bear-0188-sketch-40.png,00_bear-0188-sketch-40.png,1.0,5.1311235,4.481366,0.45944786
bagnet33,1,97,NaN,clock,bear,0,0097_ske_dnn_0_bear_00_bear-0195-sketch-47.png,00_bear-0195-sketch-47.png,0.0,-0.89643306,3.655289,-3.2185535
bagnet33,1,98,NaN,cat,bear,0,0098_ske_dnn_0_bear_00_bear-0198-sketch-5.png,00_bear-0198-sketch-5.png,0.0,1.8436365,4.588557,-1.9409517
bagnet33,1,99,NaN,cat,bear,0,0099_ske_dnn_0_bear_00_bear-0199-sketch-50.png,00_bear-0199-sketch-50.png,0.0,2.8473678,4.1119475,-0.89419293
bagnet33,1,100,NaN,chair,bear,0,0100_ske_dnn_0_bear_00_bear-0201-sketch-7.png,00_bear-0201-sketch-7.png,0.0,-0.75061214,1.0418752,-1.26748
bagnet33,1,101,NaN,bicycle,bicycle,0,0101_ske_dnn_0_bicycle_00_bicycle-0002-sketch-1.png,00_bicycle-0002-sketch-1.png,1.0,9.484583,7.1746087,1.6333984
bagnet33,1,102,NaN,clock,bicycle,0,0102_ske_dnn_0_bicycle_00_bicycle-0003-sketch-10.png,00_bicycle-0003-sketch-10.png,0.0,1.7369897,5.047829,-2.3411171
bagnet33,1,103,NaN,bicycle,bicycle,0,0103_ske_dnn_0_bicycle_00_bicycle-0004-sketch-11.png,00_bicycle-0004-sketch-11.png,1.0,14.11927,5.958181,5.7707615
bagnet33,1,104,NaN,bicycle,bicycle,0,0104_ske_dnn_0_bicycle_00_bicycle-0008-sketch-15.png,00_bicycle-0008-sketch-15.png,1.0,3.6417582,3.387287,0.17993839
bagnet33,1,105,NaN,bicycle,bicycle,0,0105_ske_dnn_0_bicycle_00_bicycle-0011-sketch-18.png,00_bicycle-0011-sketch-18.png,1.0,6.4215937,5.6010704,0.5801976
bagnet33,1,106,NaN,bicycle,bicycle,0,0106_ske_dnn_0_bicycle_00_bicycle-0013-sketch-2.png,00_bicycle-0013-sketch-2.png,1.0,28.910404,5.7678733,16.36424
bagnet33,1,107,NaN,clock,bicycle,0,0107_ske_dnn_0_bicycle_00_bicycle-0016-sketch-22.png,00_bicycle-0016-sketch-22.png,0.0,1.9707873,4.9509854,-2.1073184
bagnet33,1,108,NaN,bicycle,bicycle,0,0108_ske_dnn_0_bicycle_00_bicycle-0019-sketch-25.png,00_bicycle-0019-sketch-25.png,1.0,7.4079804,5.4799275,1.3633393
bagnet33,1,109,NaN,bicycle,bicycle,0,0109_ske_dnn_0_bicycle_00_bicycle-0020-sketch-26.png,00_bicycle-0020-sketch-26.png,1.0,26.080381,8.432156,12.47918
bagnet33,1,110,NaN,bicycle,bicycle,0,0110_ske_dnn_0_bicycle_00_bicycle-0022-sketch-28.png,00_bicycle-0022-sketch-28.png,1.0,9.031056,5.374078,2.5858743
bagnet33,1,111,NaN,clock,bicycle,0,0111_ske_dnn_0_bicycle_00_bicycle-0023-sketch-29.png,00_bicycle-0023-sketch-29.png,0.0,3.8317578,10.763778,-4.9016786
bagnet33,1,112,NaN,clock,bicycle,0,0112_ske_dnn_0_bicycle_00_bicycle-0025-sketch-30.png,00_bicycle-0025-sketch-30.png,0.0,4.808496,5.732492,-0.6533638
bagnet33,1,113,NaN,bicycle,bicycle,0,0113_ske_dnn_0_bicycle_00_bicycle-0026-sketch-31.png,00_bicycle-0026-sketch-31.png,1.0,10.398406,3.743574,4.705677
bagnet33,1,114,NaN,bicycle,bicycle,0,0114_ske_dnn_0_bicycle_00_bicycle-0031-sketch-36.png,00_bicycle-0031-sketch-36.png,1.0,9.807272,4.4964433,3.755323
bagnet33,1,115,NaN,knife,bicycle,0,0115_ske_dnn_0_bicycle_00_bicycle-0034-sketch-39.png,00_bicycle-0034-sketch-39.png,0.0,2.4158754,3.778531,-0.96354306
bagnet33,1,116,NaN,clock,bicycle,0,0116_ske_dnn_0_bicycle_00_bicycle-0037-sketch-41.png,00_bicycle-0037-sketch-41.png,0.0,3.8903427,11.696902,-5.5200715
bagnet33,1,117,NaN,clock,bicycle,0,0117_ske_dnn_0_bicycle_00_bicycle-0038-sketch-42.png,00_bicycle-0038-sketch-42.png,0.0,4.3341107,5.3039203,-0.6857589
bagnet33,1,118,NaN,bicycle,bicycle,0,0118_ske_dnn_0_bicycle_00_bicycle-0039-sketch-43.png,00_bicycle-0039-sketch-43.png,1.0,9.870263,3.4591386,4.5333495
bagnet33,1,119,NaN,bicycle,bicycle,0,0119_ske_dnn_0_bicycle_00_bicycle-0040-sketch-44.png,00_bicycle-0040-sketch-44.png,1.0,10.583042,3.7250166,4.8493567
bagnet33,1,120,NaN,bicycle,bicycle,0,0120_ske_dnn_0_bicycle_00_bicycle-0044-sketch-48.png,00_bicycle-0044-sketch-48.png,1.0,14.262731,4.113951,7.1762705
bagnet33,1,121,NaN,bicycle,bicycle,0,0121_ske_dnn_0_bicycle_00_bicycle-0045-sketch-49.png,00_bicycle-0045-sketch-49.png,1.0,9.484583,7.1746087,1.6333984
bagnet33,1,122,NaN,clock,bicycle,0,0122_ske_dnn_0_bicycle_00_bicycle-0046-sketch-5.png,00_bicycle-0046-sketch-5.png,0.0,2.6944962,10.692329,-5.655322
bagnet33,1,123,NaN,bicycle,bicycle,0,0123_ske_dnn_0_bicycle_00_bicycle-0047-sketch-50.png,00_bicycle-0047-sketch-50.png,1.0,28.910404,5.7678733,16.36424
bagnet33,1,124,NaN,bicycle,bicycle,0,0124_ske_dnn_0_bicycle_00_bicycle-0048-sketch-6.png,00_bicycle-0048-sketch-6.png,1.0,8.233598,5.67475,1.8093787
bagnet33,1,125,NaN,bicycle,bicycle,0,0125_ske_dnn_0_bicycle_00_bicycle-0053-sketch-1.png,00_bicycle-0053-sketch-1.png,1.0,13.344023,3.6515465,6.8536158
bagnet33,1,126,NaN,bicycle,bicycle,0,0126_ske_dnn_0_bicycle_00_bicycle-0054-sketch-10.png,00_bicycle-0054-sketch-10.png,1.0,9.215279,6.835978,1.6824197
bagnet33,1,127,NaN,bicycle,bicycle,0,0127_ske_dnn_0_bicycle_00_bicycle-0056-sketch-12.png,00_bicycle-0056-sketch-12.png,1.0,6.763239,3.3362548,2.4232438
bagnet33,1,128,NaN,bicycle,bicycle,0,0128_ske_dnn_0_bicycle_00_bicycle-0057-sketch-13.png,00_bicycle-0057-sketch-13.png,1.0,3.7271073,2.9012291,0.583984
bagnet33,1,129,NaN,clock,bicycle,0,0129_ske_dnn_0_bicycle_00_bicycle-0058-sketch-14.png,00_bicycle-0058-sketch-14.png,0.0,2.651473,3.4458742,-0.56172645
bagnet33,1,130,NaN,clock,bicycle,0,0130_ske_dnn_0_bicycle_00_bicycle-0059-sketch-15.png,00_bicycle-0059-sketch-15.png,0.0,1.2596469,9.135686,-5.5692005
bagnet33,1,131,NaN,clock,bicycle,0,0131_ske_dnn_0_bicycle_00_bicycle-0060-sketch-16.png,00_bicycle-0060-sketch-16.png,0.0,3.1063569,4.134627,-0.72709674
bagnet33,1,132,NaN,bicycle,bicycle,0,0132_ske_dnn_0_bicycle_00_bicycle-0062-sketch-18.png,00_bicycle-0062-sketch-18.png,1.0,4.692898,3.3406029,0.95621693
bagnet33,1,133,NaN,bottle,bicycle,0,0133_ske_dnn_0_bicycle_00_bicycle-0066-sketch-21.png,00_bicycle-0066-sketch-21.png,0.0,1.3548163,3.1432133,-1.2645876
bagnet33,1,134,NaN,clock,bicycle,0,0134_ske_dnn_0_bicycle_00_bicycle-0068-sketch-23.png,00_bicycle-0068-sketch-23.png,0.0,8.286042,17.606504,-6.5905623
bagnet33,1,135,NaN,clock,bicycle,0,0135_ske_dnn_0_bicycle_00_bicycle-0070-sketch-25.png,00_bicycle-0070-sketch-25.png,0.0,3.055761,3.2805958,-0.15898213
bagnet33,1,136,NaN,clock,bicycle,0,0136_ske_dnn_0_bicycle_00_bicycle-0071-sketch-26.png,00_bicycle-0071-sketch-26.png,0.0,3.4390922,13.838128,-7.3532295
bagnet33,1,137,NaN,bicycle,bicycle,0,0137_ske_dnn_0_bicycle_00_bicycle-0075-sketch-3.png,00_bicycle-0075-sketch-3.png,1.0,10.086542,3.786744,4.45463
bagnet33,1,138,NaN,clock,bicycle,0,0138_ske_dnn_0_bicycle_00_bicycle-0078-sketch-32.png,00_bicycle-0078-sketch-32.png,0.0,6.1848063,10.046681,-2.7307582
bagnet33,1,139,NaN,clock,bicycle,0,0139_ske_dnn_0_bicycle_00_bicycle-0080-sketch-34.png,00_bicycle-0080-sketch-34.png,0.0,1.4992396,7.258,-4.0720587
bagnet33,1,140,NaN,bicycle,bicycle,0,0140_ske_dnn_0_bicycle_00_bicycle-0081-sketch-35.png,00_bicycle-0081-sketch-35.png,1.0,11.727331,4.2485175,5.28832
bagnet33,1,141,NaN,bicycle,bicycle,0,0141_ske_dnn_0_bicycle_00_bicycle-0083-sketch-37.png,00_bicycle-0083-sketch-37.png,1.0,9.079282,5.6286316,2.4399781
bagnet33,1,142,NaN,clock,bicycle,0,0142_ske_dnn_0_bicycle_00_bicycle-0084-sketch-38.png,00_bicycle-0084-sketch-38.png,0.0,2.3865557,2.8269072,-0.31137553
bagnet33,1,143,NaN,bicycle,bicycle,0,0143_ske_dnn_0_bicycle_00_bicycle-0087-sketch-40.png,00_bicycle-0087-sketch-40.png,1.0,22.132025,6.682672,10.924342
bagnet33,1,144,NaN,bicycle,bicycle,0,0144_ske_dnn_0_bicycle_00_bicycle-0090-sketch-43.png,00_bicycle-0090-sketch-43.png,1.0,12.513479,10.170222,1.656933
bagnet33,1,145,NaN,clock,bicycle,0,0145_ske_dnn_0_bicycle_00_bicycle-0094-sketch-47.png,00_bicycle-0094-sketch-47.png,0.0,1.6855743,9.3723755,-5.435389
bagnet33,1,146,NaN,clock,bicycle,0,0146_ske_dnn_0_bicycle_00_bicycle-0095-sketch-48.png,00_bicycle-0095-sketch-48.png,0.0,2.5076284,4.121948,-1.1414962
bagnet33,1,147,NaN,bicycle,bicycle,0,0147_ske_dnn_0_bicycle_00_bicycle-0098-sketch-50.png,00_bicycle-0098-sketch-50.png,1.0,3.522067,2.8522224,0.47365168
bagnet33,1,148,NaN,clock,bicycle,0,0148_ske_dnn_0_bicycle_00_bicycle-0099-sketch-6.png,00_bicycle-0099-sketch-6.png,0.0,2.6653044,3.1627452,-0.3517438
bagnet33,1,149,NaN,bicycle,bicycle,0,0149_ske_dnn_0_bicycle_00_bicycle-0101-sketch-8.png,00_bicycle-0101-sketch-8.png,1.0,22.145042,7.8990273,10.073454
bagnet33,1,150,NaN,clock,bicycle,0,0150_ske_dnn_0_bicycle_00_bicycle-0102-sketch-9.png,00_bicycle-0102-sketch-9.png,0.0,2.493823,4.124893,-1.1533408
bagnet33,1,151,NaN,knife,bird,0,0151_ske_dnn_0_bird_00_bird-0030-sketch-35.png,00_bird-0030-sketch-35.png,0.0,-1.5696783,4.6063924,-4.3671417
bagnet33,1,152,NaN,bottle,bird,0,0152_ske_dnn_0_bird_00_bird-0047-sketch-50.png,00_bird-0047-sketch-50.png,0.0,1.3152589,2.6066546,-0.9131547
bagnet33,1,153,NaN,bottle,bird,0,0153_ske_dnn_0_bird_00_bird-0072-sketch-27.png,00_bird-0072-sketch-27.png,0.0,0.18452471,1.6262381,-1.0194453
bagnet33,1,154,NaN,elephant,bird,0,0154_ske_dnn_0_bird_00_bird-0228-sketch-3.png,00_bird-0228-sketch-3.png,0.0,1.3951033,2.2788548,-0.6249067
bagnet33,1,155,NaN,bicycle,bird,0,0155_ske_dnn_0_bird_00_bird-0274-sketch-25.png,00_bird-0274-sketch-25.png,0.0,-0.12703376,2.3878655,-1.7783023
bagnet33,1,156,NaN,clock,bird,0,0156_ske_dnn_0_bird_00_bird-0292-sketch-41.png,00_bird-0292-sketch-41.png,0.0,0.88607734,2.1012497,-0.85925657
bagnet33,1,157,NaN,clock,bird,0,0157_ske_dnn_0_bird_00_bird-0316-sketch-17.png,00_bird-0316-sketch-17.png,0.0,-0.33054745,2.8861148,-2.2745237
bagnet33,1,158,NaN,clock,bird,0,0158_ske_dnn_0_bird_00_bird-0325-sketch-25.png,00_bird-0325-sketch-25.png,0.0,-0.34440812,1.428131,-1.2533745
bagnet33,1,159,NaN,clock,bird,0,0159_ske_dnn_0_bird_00_bird-0357-sketch-9.png,00_bird-0357-sketch-9.png,0.0,0.813722,1.7821888,-0.68480945
bagnet33,1,160,NaN,bird,bird,0,0160_ske_dnn_0_bird_00_bird-0384-sketch-32.png,00_bird-0384-sketch-32.png,1.0,2.077195,0.90508795,0.8288048
bagnet33,1,161,NaN,knife,bird,0,0161_ske_dnn_0_bird_00_bird-0415-sketch-14.png,00_bird-0415-sketch-14.png,0.0,2.2965066,4.995676,-1.908601
bagnet33,1,162,NaN,bird,bird,0,0162_ske_dnn_0_bird_00_bird-0474-sketch-21.png,00_bird-0474-sketch-21.png,1.0,1.9828339,1.4636017,0.36715257
bagnet33,1,163,NaN,knife,bird,0,0163_ske_dnn_0_bird_00_bird-0479-sketch-26.png,00_bird-0479-sketch-26.png,0.0,-1.6045885,4.250426,-4.1401205
bagnet33,1,164,NaN,bicycle,bird,0,0164_ske_dnn_0_bird_00_bird-0491-sketch-37.png,00_bird-0491-sketch-37.png,0.0,0.93020123,1.4612281,-0.37549272
bagnet33,1,165,NaN,knife,bird,0,0165_ske_dnn_0_bird_00_bird-0578-sketch-23.png,00_bird-0578-sketch-23.png,0.0,1.1369444,2.2979832,-0.8209784
bagnet33,1,166,NaN,knife,bird,0,0166_ske_dnn_0_bird_00_bird-0640-sketch-33.png,00_bird-0640-sketch-33.png,0.0,-0.32487652,2.795209,-2.2062337
bagnet33,1,167,NaN,knife,bird,0,0167_ske_dnn_0_bird_00_bird-0646-sketch-39.png,00_bird-0646-sketch-39.png,0.0,0.18880521,1.3164517,-0.79736644
bagnet33,1,168,NaN,elephant,bird,0,0168_ske_dnn_0_bird_00_bird-0685-sketch-28.png,00_bird-0685-sketch-28.png,0.0,-0.1177905,4.530184,-3.2866144
bagnet33,1,169,NaN,bottle,bird,0,0169_ske_dnn_0_bird_00_bird-0694-sketch-36.png,00_bird-0694-sketch-36.png,0.0,0.21378843,2.8347087,-1.8532704
bagnet33,1,170,NaN,bird,bird,0,0170_ske_dnn_0_bird_00_bird-0733-sketch-25.png,00_bird-0733-sketch-25.png,1.0,4.5730433,1.5167422,2.1611314
bagnet33,1,171,NaN,bird,bird,0,0171_ske_dnn_0_bird_00_bird-0748-sketch-39.png,00_bird-0748-sketch-39.png,1.0,1.8789746,1.7853462,0.066205285
bagnet33,1,172,NaN,bottle,bird,0,0172_ske_dnn_0_bird_00_bird-0749-sketch-4.png,00_bird-0749-sketch-4.png,0.0,-0.46696675,1.9198296,-1.6877201
bagnet33,1,173,NaN,bottle,bird,0,0173_ske_dnn_0_bird_00_bird-0809-sketch-48.png,00_bird-0809-sketch-48.png,0.0,1.3307515,2.777467,-1.0229824
bagnet33,1,174,NaN,cat,bird,0,0174_ske_dnn_0_bird_00_bird-0834-sketch-24.png,00_bird-0834-sketch-24.png,0.0,-0.19961637,4.6085353,-3.3998768
bagnet33,1,175,NaN,bird,bird,0,0175_ske_dnn_0_bird_00_bird-0880-sketch-2.png,00_bird-0880-sketch-2.png,1.0,3.9191122,3.5140424,0.28642762
bagnet33,1,176,NaN,knife,bird,0,0176_ske_dnn_0_bird_00_bird-0939-sketch-27.png,00_bird-0939-sketch-27.png,0.0,-1.3786113,4.5475874,-4.1904554
bagnet33,1,177,NaN,knife,bird,0,0177_ske_dnn_0_bird_00_bird-0954-sketch-40.png,00_bird-0954-sketch-40.png,0.0,0.8037826,3.493425,-1.9018644
bagnet33,1,178,NaN,cat,bird,0,0178_ske_dnn_0_bird_00_bird-1033-sketch-20.png,00_bird-1033-sketch-20.png,0.0,0.23093395,2.6232324,-1.6916105
bagnet33,1,179,NaN,oven,bird,0,0179_ske_dnn_0_bird_00_bird-1081-sketch-18.png,00_bird-1081-sketch-18.png,0.0,0.72041273,4.0732975,-2.3708477
bagnet33,1,180,NaN,knife,bird,0,0180_ske_dnn_0_bird_00_bird-1096-sketch-31.png,00_bird-1096-sketch-31.png,0.0,-0.31473544,5.072938,-3.8096604
bagnet33,1,181,NaN,bicycle,bird,0,0181_ske_dnn_0_bird_00_bird-1148-sketch-32.png,00_bird-1148-sketch-32.png,0.0,-1.3812857,2.2865858,-2.593577
bagnet33,1,182,NaN,bird,bird,0,0182_ske_dnn_0_bird_00_bird-1201-sketch-34.png,00_bird-1201-sketch-34.png,1.0,5.658068,2.609116,2.1559348
bagnet33,1,183,NaN,bird,bird,0,0183_ske_dnn_0_bird_00_bird-1342-sketch-24.png,00_bird-1342-sketch-24.png,1.0,3.5284731,1.509253,1.4278042
bagnet33,1,184,NaN,bottle,bird,0,0184_ske_dnn_0_bird_00_bird-1510-sketch-39.png,00_bird-1510-sketch-39.png,0.0,0.36644894,3.8156781,-2.4389734
bagnet33,1,185,NaN,bottle,bird,0,0185_ske_dnn_0_bird_00_bird-1562-sketch-40.png,00_bird-1562-sketch-40.png,0.0,-0.9565559,3.5041146,-3.1541703
bagnet33,1,186,NaN,elephant,bird,0,0186_ske_dnn_0_bird_00_bird-1565-sketch-43.png,00_bird-1565-sketch-43.png,0.0,0.7046303,2.6230147,-1.3565025
bagnet33,1,187,NaN,chair,bird,0,0187_ske_dnn_0_bird_00_bird-1702-sketch-29.png,00_bird-1702-sketch-29.png,0.0,-2.0891945,3.1414719,-3.6986396
bagnet33,1,188,NaN,bird,bird,0,0188_ske_dnn_0_bird_00_bird-1721-sketch-46.png,00_bird-1721-sketch-46.png,1.0,2.3798459,1.7199596,0.46661004
bagnet33,1,189,NaN,knife,bird,0,0189_ske_dnn_0_bird_00_bird-1740-sketch-17.png,00_bird-1740-sketch-17.png,0.0,0.00702223,2.7418146,-1.9337903
bagnet33,1,190,NaN,bicycle,bird,0,0190_ske_dnn_0_bird_00_bird-1749-sketch-25.png,00_bird-1749-sketch-25.png,0.0,-1.5265422,2.5758073,-2.900799
bagnet33,1,191,NaN,knife,bird,0,0191_ske_dnn_0_bird_00_bird-1756-sketch-31.png,00_bird-1756-sketch-31.png,0.0,-1.0099686,3.0551481,-2.8744717
bagnet33,1,192,NaN,bird,bird,0,0192_ske_dnn_0_bird_00_bird-1860-sketch-33.png,00_bird-1860-sketch-33.png,1.0,2.7951477,1.5247326,0.8983191
bagnet33,1,193,NaN,elephant,bird,0,0193_ske_dnn_0_bird_00_bird-1937-sketch-10.png,00_bird-1937-sketch-10.png,0.0,2.2401202,4.6325483,-1.6917022
bagnet33,1,194,NaN,bicycle,bird,0,0194_ske_dnn_0_bird_00_bird-1948-sketch-20.png,00_bird-1948-sketch-20.png,0.0,-0.55828947,3.6443639,-2.9717247
bagnet33,1,195,NaN,chair,bird,0,0195_ske_dnn_0_bird_00_bird-2010-sketch-30.png,00_bird-2010-sketch-30.png,0.0,0.15603653,2.4966707,-1.6550783
bagnet33,1,196,NaN,cat,bird,0,0196_ske_dnn_0_bird_00_bird-2169-sketch-36.png,00_bird-2169-sketch-36.png,0.0,1.1412001,1.8550736,-0.5047848
bagnet33,1,197,NaN,bird,bird,0,0197_ske_dnn_0_bird_00_bird-2262-sketch-28.png,00_bird-2262-sketch-28.png,1.0,3.6306293,2.2066915,1.0068761
bagnet33,1,198,NaN,bird,bird,0,0198_ske_dnn_0_bird_00_bird-2312-sketch-27.png,00_bird-2312-sketch-27.png,1.0,2.289551,2.1284957,0.11388332
bagnet33,1,199,NaN,clock,bird,0,0199_ske_dnn_0_bird_00_bird-2313-sketch-28.png,00_bird-2313-sketch-28.png,0.0,-0.3091346,1.9174722,-1.5744488
bagnet33,1,200,NaN,clock,bird,0,0200_ske_dnn_0_bird_00_bird-2372-sketch-36.png,00_bird-2372-sketch-36.png,0.0,2.38021,3.525038,-0.8095157
bagnet33,1,201,NaN,knife,boat,0,0201_ske_dnn_0_boat_00_boat-0001-sketch-0.png,00_boat-0001-sketch-0.png,0.0,-3.0302017,3.5406055,-4.6462626
bagnet33,1,202,NaN,boat,boat,0,0202_ske_dnn_0_boat_00_boat-0002-sketch-1.png,00_boat-0002-sketch-1.png,1.0,6.0666723,2.7613971,2.3371825
bagnet33,1,203,NaN,cat,boat,0,0203_ske_dnn_0_boat_00_boat-0010-sketch-17.png,00_boat-0010-sketch-17.png,0.0,1.3218818,1.8824133,-0.39635563
bagnet33,1,204,NaN,bicycle,boat,0,0204_ske_dnn_0_boat_00_boat-0016-sketch-22.png,00_boat-0016-sketch-22.png,0.0,-1.4134734,1.3659984,-1.9653834
bagnet33,1,205,NaN,clock,boat,0,0205_ske_dnn_0_boat_00_boat-0029-sketch-34.png,00_boat-0029-sketch-34.png,0.0,1.3601795,6.234869,-3.446926
bagnet33,1,206,NaN,clock,boat,0,0206_ske_dnn_0_boat_00_boat-0034-sketch-39.png,00_boat-0034-sketch-39.png,0.0,-0.65030813,2.579932,-2.2841246
bagnet33,1,207,NaN,knife,boat,0,0207_ske_dnn_0_boat_00_boat-0036-sketch-40.png,00_boat-0036-sketch-40.png,0.0,0.10710925,5.0907946,-3.5239978
bagnet33,1,208,NaN,keyboard,boat,0,0208_ske_dnn_0_boat_00_boat-0051-sketch-9.png,00_boat-0051-sketch-9.png,0.0,-0.084429644,4.8998623,-3.5244267
bagnet33,1,209,NaN,clock,boat,0,0209_ske_dnn_0_boat_00_boat-0052-sketch-0.png,00_boat-0052-sketch-0.png,0.0,1.3306273,3.119673,-1.2650464
bagnet33,1,210,NaN,boat,boat,0,0210_ske_dnn_0_boat_00_boat-0059-sketch-15.png,00_boat-0059-sketch-15.png,1.0,5.9402304,3.9445648,1.4111487
bagnet33,1,211,NaN,oven,boat,0,0211_ske_dnn_0_boat_00_boat-0064-sketch-2.png,00_boat-0064-sketch-2.png,0.0,2.2220085,8.852909,-4.6887546
bagnet33,1,212,NaN,clock,boat,0,0212_ske_dnn_0_boat_00_boat-0065-sketch-20.png,00_boat-0065-sketch-20.png,0.0,1.3893228,3.085041,-1.1990539
bagnet33,1,213,NaN,keyboard,boat,0,0213_ske_dnn_0_boat_00_boat-0067-sketch-22.png,00_boat-0067-sketch-22.png,0.0,2.0851827,3.9622865,-1.3273128
bagnet33,1,214,NaN,clock,boat,0,0214_ske_dnn_0_boat_00_boat-0068-sketch-23.png,00_boat-0068-sketch-23.png,0.0,0.596024,3.8614323,-2.3089924
bagnet33,1,215,NaN,chair,boat,0,0215_ske_dnn_0_boat_00_boat-0070-sketch-25.png,00_boat-0070-sketch-25.png,0.0,-0.49256104,3.3495479,-2.7167814
bagnet33,1,216,NaN,truck,boat,0,0216_ske_dnn_0_boat_00_boat-0074-sketch-29.png,00_boat-0074-sketch-29.png,0.0,-0.19661681,3.9246714,-2.914191
bagnet33,1,217,NaN,bottle,boat,0,0217_ske_dnn_0_boat_00_boat-0079-sketch-33.png,00_boat-0079-sketch-33.png,0.0,0.3963112,2.452327,-1.4538227
bagnet33,1,218,NaN,boat,boat,0,0218_ske_dnn_0_boat_00_boat-0080-sketch-34.png,00_boat-0080-sketch-34.png,1.0,4.722831,4.3700447,0.24945742
bagnet33,1,219,NaN,oven,boat,0,0219_ske_dnn_0_boat_00_boat-0085-sketch-39.png,00_boat-0085-sketch-39.png,0.0,2.9677687,6.0723543,-2.1952736
bagnet33,1,220,NaN,airplane,boat,0,0220_ske_dnn_0_boat_00_boat-0088-sketch-41.png,00_boat-0088-sketch-41.png,0.0,0.6497131,1.4669383,-0.5778655
bagnet33,1,221,NaN,boat,boat,0,0221_ske_dnn_0_boat_00_boat-0094-sketch-47.png,00_boat-0094-sketch-47.png,1.0,7.107086,3.1178482,2.8208172
bagnet33,1,222,NaN,boat,boat,0,0222_ske_dnn_0_boat_00_boat-0099-sketch-6.png,00_boat-0099-sketch-6.png,1.0,4.3350105,4.0540295,0.19868362
bagnet33,1,223,NaN,truck,boat,0,0223_ske_dnn_0_boat_00_boat-0107-sketch-12.png,00_boat-0107-sketch-12.png,0.0,0.76431465,2.4663353,-1.2035104
bagnet33,1,224,NaN,bottle,boat,0,0224_ske_dnn_0_boat_00_boat-0108-sketch-13.png,00_boat-0108-sketch-13.png,0.0,1.7475121,2.0969064,-0.24705909
bagnet33,1,225,NaN,clock,boat,0,0225_ske_dnn_0_boat_00_boat-0110-sketch-15.png,00_boat-0110-sketch-15.png,0.0,-2.0951245,2.8189316,-3.4747622
bagnet33,1,226,NaN,airplane,boat,0,0226_ske_dnn_0_boat_00_boat-0113-sketch-18.png,00_boat-0113-sketch-18.png,0.0,2.5761476,3.9912395,-1.0006212
bagnet33,1,227,NaN,oven,boat,0,0227_ske_dnn_0_boat_00_boat-0115-sketch-2.png,00_boat-0115-sketch-2.png,0.0,-1.8577387,3.6062024,-3.8635898
bagnet33,1,228,NaN,chair,boat,0,0228_ske_dnn_0_boat_00_boat-0123-sketch-27.png,00_boat-0123-sketch-27.png,0.0,0.67560875,2.2603874,-1.1206077
bagnet33,1,229,NaN,clock,boat,0,0229_ske_dnn_0_boat_00_boat-0124-sketch-28.png,00_boat-0124-sketch-28.png,0.0,-1.854475,4.5610175,-4.5364385
bagnet33,1,230,NaN,chair,boat,0,0230_ske_dnn_0_boat_00_boat-0125-sketch-29.png,00_boat-0125-sketch-29.png,0.0,-0.66832066,3.6728556,-3.069675
bagnet33,1,231,NaN,chair,boat,0,0231_ske_dnn_0_boat_00_boat-0126-sketch-3.png,00_boat-0126-sketch-3.png,0.0,-0.4736824,4.7044654,-3.6615036
bagnet33,1,232,NaN,airplane,boat,0,0232_ske_dnn_0_boat_00_boat-0128-sketch-31.png,00_boat-0128-sketch-31.png,0.0,0.8595716,6.9460526,-4.303792
bagnet33,1,233,NaN,clock,boat,0,0233_ske_dnn_0_boat_00_boat-0130-sketch-33.png,00_boat-0130-sketch-33.png,0.0,2.9581912,4.4071794,-1.0245894
bagnet33,1,234,NaN,oven,boat,0,0234_ske_dnn_0_boat_00_boat-0132-sketch-35.png,00_boat-0132-sketch-35.png,0.0,-0.39608216,3.8640404,-3.0123615
bagnet33,1,235,NaN,oven,boat,0,0235_ske_dnn_0_boat_00_boat-0146-sketch-48.png,00_boat-0146-sketch-48.png,0.0,-0.8304413,2.9486606,-2.6722286
bagnet33,1,236,NaN,elephant,boat,0,0236_ske_dnn_0_boat_00_boat-0152-sketch-8.png,00_boat-0152-sketch-8.png,0.0,0.88609123,2.9975584,-1.4930327
bagnet33,1,237,NaN,clock,boat,0,0237_ske_dnn_0_boat_00_boat-0165-sketch-19.png,00_boat-0165-sketch-19.png,0.0,-0.11405416,1.511742,-1.1496116
bagnet33,1,238,NaN,chair,boat,0,0238_ske_dnn_0_boat_00_boat-0166-sketch-2.png,00_boat-0166-sketch-2.png,0.0,-0.70904154,3.1204815,-2.7078817
bagnet33,1,239,NaN,clock,boat,0,0239_ske_dnn_0_boat_00_boat-0173-sketch-26.png,00_boat-0173-sketch-26.png,0.0,1.6232113,3.3867848,-1.2470348
bagnet33,1,240,NaN,car,boat,0,0240_ske_dnn_0_boat_00_boat-0178-sketch-30.png,00_boat-0178-sketch-30.png,0.0,1.8361778,7.776764,-4.2006288
bagnet33,1,241,NaN,oven,boat,0,0241_ske_dnn_0_boat_00_boat-0180-sketch-32.png,00_boat-0180-sketch-32.png,0.0,1.6199043,6.7447,-3.623778
bagnet33,1,242,NaN,clock,boat,0,0242_ske_dnn_0_boat_00_boat-0194-sketch-45.png,00_boat-0194-sketch-45.png,0.0,-0.22263353,1.441145,-1.176469
bagnet33,1,243,NaN,chair,boat,0,0243_ske_dnn_0_boat_00_boat-0197-sketch-48.png,00_boat-0197-sketch-48.png,0.0,-0.58747244,3.999421,-3.2434232
bagnet33,1,244,NaN,cat,boat,0,0244_ske_dnn_0_boat_00_boat-0212-sketch-15.png,00_boat-0212-sketch-15.png,0.0,2.962281,4.5072236,-1.0924394
bagnet33,1,245,NaN,chair,boat,0,0245_ske_dnn_0_boat_00_boat-0228-sketch-3.png,00_boat-0228-sketch-3.png,0.0,-1.7159523,5.779087,-5.2997932
bagnet33,1,246,NaN,clock,boat,0,0246_ske_dnn_0_boat_00_boat-0233-sketch-34.png,00_boat-0233-sketch-34.png,0.0,0.45163327,3.7620175,-2.3407953
bagnet33,1,247,NaN,clock,boat,0,0247_ske_dnn_0_boat_00_boat-0234-sketch-35.png,00_boat-0234-sketch-35.png,0.0,2.7351093,4.414432,-1.1874605
bagnet33,1,248,NaN,clock,boat,0,0248_ske_dnn_0_boat_00_boat-0237-sketch-38.png,00_boat-0237-sketch-38.png,0.0,1.2732546,3.9679334,-1.9054257
bagnet33,1,249,NaN,boat,boat,0,0249_ske_dnn_0_boat_00_boat-0239-sketch-4.png,00_boat-0239-sketch-4.png,1.0,1.9169006,1.833366,0.059067883
bagnet33,1,250,NaN,boat,boat,0,0250_ske_dnn_0_boat_00_boat-0253-sketch-7.png,00_boat-0253-sketch-7.png,1.0,2.7813103,2.528181,0.17898941
bagnet33,1,251,NaN,bottle,bottle,0,0251_ske_dnn_0_bottle_00_bottle-0002-sketch-1.png,00_bottle-0002-sketch-1.png,1.0,4.113617,3.7905076,0.22847284
bagnet33,1,252,NaN,keyboard,bottle,0,0252_ske_dnn_0_bottle_00_bottle-0003-sketch-10.png,00_bottle-0003-sketch-10.png,0.0,4.6450324,6.1941056,-1.0953602
bagnet33,1,253,NaN,clock,bottle,0,0253_ske_dnn_0_bottle_00_bottle-0019-sketch-25.png,00_bottle-0019-sketch-25.png,0.0,6.083659,14.45757,-5.9212494
bagnet33,1,254,NaN,bottle,bottle,0,0254_ske_dnn_0_bottle_00_bottle-0030-sketch-35.png,00_bottle-0030-sketch-35.png,1.0,13.108283,5.3929996,5.455529
bagnet33,1,255,NaN,bottle,bottle,0,0255_ske_dnn_0_bottle_00_bottle-0031-sketch-36.png,00_bottle-0031-sketch-36.png,1.0,7.4750757,3.4459815,2.849
bagnet33,1,256,NaN,clock,bottle,0,0256_ske_dnn_0_bottle_00_bottle-0038-sketch-42.png,00_bottle-0038-sketch-42.png,0.0,3.0570571,4.318361,-0.8918764
bagnet33,1,257,NaN,bottle,bottle,0,0257_ske_dnn_0_bottle_00_bottle-0039-sketch-43.png,00_bottle-0039-sketch-43.png,1.0,18.351274,5.3987403,9.158825
bagnet33,1,258,NaN,bottle,bottle,0,0258_ske_dnn_0_bottle_00_bottle-0041-sketch-45.png,00_bottle-0041-sketch-45.png,1.0,7.578124,6.9067907,0.47470436
bagnet33,1,259,NaN,bottle,bottle,0,0259_ske_dnn_0_bottle_00_bottle-0045-sketch-49.png,00_bottle-0045-sketch-49.png,1.0,8.34978,4.1995916,2.9346263
bagnet33,1,260,NaN,bottle,bottle,0,0260_ske_dnn_0_bottle_00_bottle-0050-sketch-9.png,00_bottle-0050-sketch-9.png,1.0,4.0166926,3.5606368,0.3224802
bagnet33,1,261,NaN,bottle,bottle,0,0261_ske_dnn_0_bottle_00_bottle-0054-sketch-11.png,00_bottle-0054-sketch-11.png,1.0,3.6722596,2.9025211,0.54428726
bagnet33,1,262,NaN,clock,bottle,0,0262_ske_dnn_0_bottle_00_bottle-0066-sketch-22.png,00_bottle-0066-sketch-22.png,0.0,6.60856,7.5156975,-0.641443
bagnet33,1,263,NaN,clock,bottle,0,0263_ske_dnn_0_bottle_00_bottle-0071-sketch-27.png,00_bottle-0071-sketch-27.png,0.0,0.106085606,1.4419523,-0.9446004
bagnet33,1,264,NaN,oven,bottle,0,0264_ske_dnn_0_bottle_00_bottle-0082-sketch-37.png,00_bottle-0082-sketch-37.png,0.0,3.1890914,5.3258133,-1.5108905
bagnet33,1,265,NaN,bottle,bottle,0,0265_ske_dnn_0_bottle_00_bottle-0086-sketch-40.png,00_bottle-0086-sketch-40.png,1.0,10.780026,2.8496118,5.6076503
bagnet33,1,266,NaN,bottle,bottle,0,0266_ske_dnn_0_bottle_00_bottle-0090-sketch-44.png,00_bottle-0090-sketch-44.png,1.0,3.1728265,3.1362977,0.02582978
bagnet33,1,267,NaN,clock,bottle,0,0267_ske_dnn_0_bottle_00_bottle-0097-sketch-50.png,00_bottle-0097-sketch-50.png,0.0,3.6223218,4.3996415,-0.54964805
bagnet33,1,268,NaN,bottle,bottle,0,0268_ske_dnn_0_bottle_00_bottle-0107-sketch-13.png,00_bottle-0107-sketch-13.png,1.0,6.1647296,4.6278024,1.0867717
bagnet33,1,269,NaN,clock,bottle,0,0269_ske_dnn_0_bottle_00_bottle-0114-sketch-2.png,00_bottle-0114-sketch-2.png,0.0,3.7934544,3.8363714,-0.030346911
bagnet33,1,270,NaN,bottle,bottle,0,0270_ske_dnn_0_bottle_00_bottle-0126-sketch-30.png,00_bottle-0126-sketch-30.png,1.0,2.28158,1.7045376,0.40803057
bagnet33,1,271,NaN,clock,bottle,0,0271_ske_dnn_0_bottle_00_bottle-0130-sketch-34.png,00_bottle-0130-sketch-34.png,0.0,1.8641777,3.1979935,-0.9431502
bagnet33,1,272,NaN,clock,bottle,0,0272_ske_dnn_0_bottle_00_bottle-0131-sketch-35.png,00_bottle-0131-sketch-35.png,0.0,4.139144,7.7677293,-2.5657973
bagnet33,1,273,NaN,clock,bottle,0,0273_ske_dnn_0_bottle_00_bottle-0133-sketch-37.png,00_bottle-0133-sketch-37.png,0.0,2.0579927,3.6170003,-1.1023849
bagnet33,1,274,NaN,chair,bottle,0,0274_ske_dnn_0_bottle_00_bottle-0135-sketch-39.png,00_bottle-0135-sketch-39.png,0.0,-0.9191307,0.9724734,-1.3375661
bagnet33,1,275,NaN,bottle,bottle,0,0275_ske_dnn_0_bottle_00_bottle-0143-sketch-46.png,00_bottle-0143-sketch-46.png,1.0,9.959145,8.50523,1.028073
bagnet33,1,276,NaN,knife,bottle,0,0276_ske_dnn_0_bottle_00_bottle-0145-sketch-48.png,00_bottle-0145-sketch-48.png,0.0,1.8519878,3.0388436,-0.8392338
bagnet33,1,277,NaN,clock,bottle,0,0277_ske_dnn_0_bottle_00_bottle-0150-sketch-7.png,00_bottle-0150-sketch-7.png,0.0,4.530099,5.3835883,-0.6035082
bagnet33,1,278,NaN,clock,bottle,0,0278_ske_dnn_0_bottle_00_bottle-0162-sketch-17.png,00_bottle-0162-sketch-17.png,0.0,0.9348844,2.093054,-0.81894964
bagnet33,1,279,NaN,bottle,bottle,0,0279_ske_dnn_0_bottle_00_bottle-0165-sketch-2.png,00_bottle-0165-sketch-2.png,1.0,6.0438666,3.4733968,1.8175967
bagnet33,1,280,NaN,keyboard,bottle,0,0280_ske_dnn_0_bottle_00_bottle-0184-sketch-37.png,00_bottle-0184-sketch-37.png,0.0,1.7726129,3.086483,-0.92904645
bagnet33,1,281,NaN,keyboard,bottle,0,0281_ske_dnn_0_bottle_00_bottle-0185-sketch-38.png,00_bottle-0185-sketch-38.png,0.0,3.0403683,3.4130726,-0.26354173
bagnet33,1,282,NaN,bottle,bottle,0,0282_ske_dnn_0_bottle_00_bottle-0189-sketch-41.png,00_bottle-0189-sketch-41.png,1.0,4.5901833,3.699962,0.62948155
bagnet33,1,283,NaN,bottle,bottle,0,0283_ske_dnn_0_bottle_00_bottle-0202-sketch-8.png,00_bottle-0202-sketch-8.png,1.0,3.6674554,1.3112899,1.6660606
bagnet33,1,284,NaN,bottle,bottle,0,0284_ske_dnn_0_bottle_00_bottle-0207-sketch-11.png,00_bottle-0207-sketch-11.png,1.0,7.53638,5.435519,1.4855328
bagnet33,1,285,NaN,keyboard,bottle,0,0285_ske_dnn_0_bottle_00_bottle-0215-sketch-19.png,00_bottle-0215-sketch-19.png,0.0,1.4563494,3.8691082,-1.7060782
bagnet33,1,286,NaN,clock,bottle,0,0286_ske_dnn_0_bottle_00_bottle-0217-sketch-20.png,00_bottle-0217-sketch-20.png,0.0,4.7699385,9.241625,-3.16196
bagnet33,1,287,NaN,clock,bottle,0,0287_ske_dnn_0_bottle_00_bottle-0237-sketch-39.png,00_bottle-0237-sketch-39.png,0.0,2.4895003,3.9245298,-1.0147191
bagnet33,1,288,NaN,bottle,bottle,0,0288_ske_dnn_0_bottle_00_bottle-0243-sketch-44.png,00_bottle-0243-sketch-44.png,1.0,1.7664621,0.96912384,0.5638033
bagnet33,1,289,NaN,bottle,bottle,0,0289_ske_dnn_0_bottle_00_bottle-0245-sketch-46.png,00_bottle-0245-sketch-46.png,1.0,6.8697386,1.7729367,3.6039832
bagnet33,1,290,NaN,bottle,bottle,0,0290_ske_dnn_0_bottle_00_bottle-0268-sketch-20.png,00_bottle-0268-sketch-20.png,1.0,10.071006,3.9055488,4.3596363
bagnet33,1,291,NaN,clock,bottle,0,0291_ske_dnn_0_bottle_00_bottle-0280-sketch-31.png,00_bottle-0280-sketch-31.png,0.0,7.0193,12.518159,-3.8882804
bagnet33,1,292,NaN,bottle,bottle,0,0292_ske_dnn_0_bottle_00_bottle-0292-sketch-42.png,00_bottle-0292-sketch-42.png,1.0,4.4299593,3.5043142,0.6545299
bagnet33,1,293,NaN,bottle,bottle,0,0293_ske_dnn_0_bottle_00_bottle-0294-sketch-44.png,00_bottle-0294-sketch-44.png,1.0,8.043123,2.2819967,4.073732
bagnet33,1,294,NaN,keyboard,bottle,0,0294_ske_dnn_0_bottle_00_bottle-0296-sketch-46.png,00_bottle-0296-sketch-46.png,0.0,-0.4829609,5.302497,-4.090936
bagnet33,1,295,NaN,bottle,bottle,0,0295_ske_dnn_0_bottle_00_bottle-0301-sketch-50.png,00_bottle-0301-sketch-50.png,1.0,11.707283,3.6888008,5.6699233
bagnet33,1,296,NaN,bottle,bottle,0,0296_ske_dnn_0_bottle_00_bottle-0305-sketch-9.png,00_bottle-0305-sketch-9.png,1.0,11.584297,4.0003624,5.362652
bagnet33,1,297,NaN,bottle,bottle,0,0297_ske_dnn_0_bottle_00_bottle-0313-sketch-15.png,00_bottle-0313-sketch-15.png,1.0,4.9932666,2.357536,1.863743
bagnet33,1,298,NaN,bottle,bottle,0,0298_ske_dnn_0_bottle_00_bottle-0321-sketch-22.png,00_bottle-0321-sketch-22.png,1.0,7.6716766,5.100172,1.8183284
bagnet33,1,299,NaN,bottle,bottle,0,0299_ske_dnn_0_bottle_00_bottle-0330-sketch-30.png,00_bottle-0330-sketch-30.png,1.0,8.264502,5.4268484,2.0065238
bagnet33,1,300,NaN,bottle,bottle,0,0300_ske_dnn_0_bottle_00_bottle-0338-sketch-38.png,00_bottle-0338-sketch-38.png,1.0,4.7640977,2.195221,1.8164701
bagnet33,1,301,NaN,truck,car,0,0301_ske_dnn_0_car_00_car-0002-sketch-1.png,00_car-0002-sketch-1.png,0.0,9.801067,11.134272,-0.9427178
bagnet33,1,302,NaN,car,car,0,0302_ske_dnn_0_car_00_car-0004-sketch-11.png,00_car-0004-sketch-11.png,1.0,6.5143104,6.001514,0.36260182
bagnet33,1,303,NaN,truck,car,0,0303_ske_dnn_0_car_00_car-0005-sketch-12.png,00_car-0005-sketch-12.png,0.0,8.826945,10.168652,-0.94872963
bagnet33,1,304,NaN,bicycle,car,0,0304_ske_dnn_0_car_00_car-0009-sketch-16.png,00_car-0009-sketch-16.png,0.0,2.2924345,3.117089,-0.58311886
bagnet33,1,305,NaN,car,car,0,0305_ske_dnn_0_car_00_car-0013-sketch-2.png,00_car-0013-sketch-2.png,1.0,11.33286,6.3357553,3.5334866
bagnet33,1,306,NaN,clock,car,0,0306_ske_dnn_0_car_00_car-0014-sketch-20.png,00_car-0014-sketch-20.png,0.0,-0.1683845,2.3206542,-1.7600162
bagnet33,1,307,NaN,truck,car,0,0307_ske_dnn_0_car_00_car-0017-sketch-23.png,00_car-0017-sketch-23.png,0.0,6.018059,7.0130253,-0.7035476
bagnet33,1,308,NaN,car,car,0,0308_ske_dnn_0_car_00_car-0018-sketch-24.png,00_car-0018-sketch-24.png,1.0,6.9874597,5.098036,1.3360244
bagnet33,1,309,NaN,chair,car,0,0309_ske_dnn_0_car_00_car-0021-sketch-27.png,00_car-0021-sketch-27.png,0.0,1.9863948,3.4167764,-1.0114325
bagnet33,1,310,NaN,car,car,0,0310_ske_dnn_0_car_00_car-0022-sketch-28.png,00_car-0022-sketch-28.png,1.0,6.318437,4.216414,1.4863548
bagnet33,1,311,NaN,car,car,0,0311_ske_dnn_0_car_00_car-0024-sketch-3.png,00_car-0024-sketch-3.png,1.0,12.827779,7.7321186,3.6031759
bagnet33,1,312,NaN,clock,car,0,0312_ske_dnn_0_car_00_car-0025-sketch-30.png,00_car-0025-sketch-30.png,0.0,-0.70603704,3.49903,-2.9734316
bagnet33,1,313,NaN,truck,car,0,0313_ske_dnn_0_car_00_car-0029-sketch-34.png,00_car-0029-sketch-34.png,0.0,6.252178,7.507025,-0.88731056
bagnet33,1,314,NaN,car,car,0,0314_ske_dnn_0_car_00_car-0030-sketch-35.png,00_car-0030-sketch-35.png,1.0,7.6037025,5.8083563,1.2695016
bagnet33,1,315,NaN,car,car,0,0315_ske_dnn_0_car_00_car-0032-sketch-37.png,00_car-0032-sketch-37.png,1.0,6.546032,6.5460033,2.0230487e-05
bagnet33,1,316,NaN,car,car,0,0316_ske_dnn_0_car_00_car-0034-sketch-39.png,00_car-0034-sketch-39.png,1.0,6.241163,4.257266,1.4028269
bagnet33,1,317,NaN,car,car,0,0317_ske_dnn_0_car_00_car-0040-sketch-44.png,00_car-0040-sketch-44.png,1.0,6.0177555,5.035495,0.6945632
bagnet33,1,318,NaN,car,car,0,0318_ske_dnn_0_car_00_car-0043-sketch-47.png,00_car-0043-sketch-47.png,1.0,12.827779,7.7321186,3.6031759
bagnet33,1,319,NaN,car,car,0,0319_ske_dnn_0_car_00_car-0044-sketch-48.png,00_car-0044-sketch-48.png,1.0,12.9352045,7.3833795,3.925733
bagnet33,1,320,NaN,bicycle,car,0,0320_ske_dnn_0_car_00_car-0045-sketch-49.png,00_car-0045-sketch-49.png,0.0,2.2623978,3.0007825,-0.52211684
bagnet33,1,321,NaN,car,car,0,0321_ske_dnn_0_car_00_car-0047-sketch-50.png,00_car-0047-sketch-50.png,1.0,6.8111305,5.2049313,1.1357545
bagnet33,1,322,NaN,clock,car,0,0322_ske_dnn_0_car_00_car-0050-sketch-8.png,00_car-0050-sketch-8.png,0.0,0.87088233,3.8090706,-2.0776129
bagnet33,1,323,NaN,clock,car,0,0323_ske_dnn_0_car_00_car-0052-sketch-0.png,00_car-0052-sketch-0.png,0.0,2.2166035,2.3663461,-0.105884016
bagnet33,1,324,NaN,car,car,0,0324_ske_dnn_0_car_00_car-0055-sketch-11.png,00_car-0055-sketch-11.png,1.0,6.0927634,3.1546798,2.077539
bagnet33,1,325,NaN,clock,car,0,0325_ske_dnn_0_car_00_car-0064-sketch-2.png,00_car-0064-sketch-2.png,0.0,1.9378675,2.4525445,-0.36393157
bagnet33,1,326,NaN,airplane,car,0,0326_ske_dnn_0_car_00_car-0069-sketch-24.png,00_car-0069-sketch-24.png,0.0,2.4321775,2.4860327,-0.038081363
bagnet33,1,327,NaN,car,car,0,0327_ske_dnn_0_car_00_car-0076-sketch-30.png,00_car-0076-sketch-30.png,1.0,5.0324035,3.68455,0.9530763
bagnet33,1,328,NaN,airplane,car,0,0328_ske_dnn_0_car_00_car-0079-sketch-33.png,00_car-0079-sketch-33.png,0.0,-0.5876536,5.3710256,-4.213423
bagnet33,1,329,NaN,clock,car,0,0329_ske_dnn_0_car_00_car-0083-sketch-37.png,00_car-0083-sketch-37.png,0.0,0.14586511,2.497905,-1.6631433
bagnet33,1,330,NaN,clock,car,0,0330_ske_dnn_0_car_00_car-0092-sketch-45.png,00_car-0092-sketch-45.png,0.0,3.1394215,6.4526887,-2.3428338
bagnet33,1,331,NaN,car,car,0,0331_ske_dnn_0_car_00_car-0096-sketch-49.png,00_car-0096-sketch-49.png,1.0,11.285201,7.75395,2.4969716
bagnet33,1,332,NaN,clock,car,0,0332_ske_dnn_0_car_00_car-0098-sketch-50.png,00_car-0098-sketch-50.png,0.0,2.3450546,2.4748735,-0.09179584
bagnet33,1,333,NaN,car,car,0,0333_ske_dnn_0_car_00_car-0100-sketch-7.png,00_car-0100-sketch-7.png,1.0,7.6162553,6.4492807,0.82517564
bagnet33,1,334,NaN,car,car,0,0334_ske_dnn_0_car_00_car-0112-sketch-17.png,00_car-0112-sketch-17.png,1.0,7.8719172,5.3471513,1.7852792
bagnet33,1,335,NaN,car,car,0,0335_ske_dnn_0_car_00_car-0114-sketch-19.png,00_car-0114-sketch-19.png,1.0,5.6950974,4.3214803,0.97129405
bagnet33,1,336,NaN,clock,car,0,0336_ske_dnn_0_car_00_car-0116-sketch-20.png,00_car-0116-sketch-20.png,0.0,1.4596983,2.1904318,-0.51670665
bagnet33,1,337,NaN,car,car,0,0337_ske_dnn_0_car_00_car-0117-sketch-21.png,00_car-0117-sketch-21.png,1.0,3.0490253,2.998226,0.03592058
bagnet33,1,338,NaN,clock,car,0,0338_ske_dnn_0_car_00_car-0120-sketch-24.png,00_car-0120-sketch-24.png,0.0,0.3459898,3.501271,-2.2311208
bagnet33,1,339,NaN,clock,car,0,0339_ske_dnn_0_car_00_car-0122-sketch-26.png,00_car-0122-sketch-26.png,0.0,0.9529007,5.53206,-3.2379546
bagnet33,1,340,NaN,car,car,0,0340_ske_dnn_0_car_00_car-0124-sketch-28.png,00_car-0124-sketch-28.png,1.0,3.4814537,2.6925728,0.557823
bagnet33,1,341,NaN,bicycle,car,0,0341_ske_dnn_0_car_00_car-0125-sketch-29.png,00_car-0125-sketch-29.png,0.0,4.331905,4.36779,-0.025374763
bagnet33,1,342,NaN,clock,car,0,0342_ske_dnn_0_car_00_car-0129-sketch-32.png,00_car-0129-sketch-32.png,0.0,-0.88760203,4.663058,-3.924909
bagnet33,1,343,NaN,car,car,0,0343_ske_dnn_0_car_00_car-0132-sketch-35.png,00_car-0132-sketch-35.png,1.0,5.212147,4.5736866,0.45145985
bagnet33,1,344,NaN,clock,car,0,0344_ske_dnn_0_car_00_car-0136-sketch-39.png,00_car-0136-sketch-39.png,0.0,1.1650426,4.1558146,-2.1147952
bagnet33,1,345,NaN,clock,car,0,0345_ske_dnn_0_car_00_car-0138-sketch-40.png,00_car-0138-sketch-40.png,0.0,2.589617,3.6708953,-0.76457924
bagnet33,1,346,NaN,car,car,0,0346_ske_dnn_0_car_00_car-0139-sketch-41.png,00_car-0139-sketch-41.png,1.0,10.023633,5.630718,3.1062598
bagnet33,1,347,NaN,clock,car,0,0347_ske_dnn_0_car_00_car-0143-sketch-45.png,00_car-0143-sketch-45.png,0.0,1.7540241,3.4693902,-1.212947
bagnet33,1,348,NaN,bottle,car,0,0348_ske_dnn_0_car_00_car-0145-sketch-47.png,00_car-0145-sketch-47.png,0.0,1.4396548,1.5315616,-0.06498791
bagnet33,1,349,NaN,car,car,0,0349_ske_dnn_0_car_00_car-0151-sketch-7.png,00_car-0151-sketch-7.png,1.0,5.872057,2.8026,2.170434
bagnet33,1,350,NaN,bicycle,car,0,0350_ske_dnn_0_car_00_car-0153-sketch-9.png,00_car-0153-sketch-9.png,0.0,3.8902867,5.707267,-1.284799
bagnet33,1,351,NaN,cat,cat,0,0351_ske_dnn_0_cat_00_cat-0002-sketch-1.png,00_cat-0002-sketch-1.png,1.0,29.207388,6.0715904,16.35948
bagnet33,1,352,NaN,cat,cat,0,0352_ske_dnn_0_cat_00_cat-0009-sketch-16.png,00_cat-0009-sketch-16.png,1.0,8.691638,4.1372848,3.2204142
bagnet33,1,353,NaN,clock,cat,0,0353_ske_dnn_0_cat_00_cat-0011-sketch-18.png,00_cat-0011-sketch-18.png,0.0,1.5243973,2.8582048,-0.9431444
bagnet33,1,354,NaN,cat,cat,0,0354_ske_dnn_0_cat_00_cat-0015-sketch-21.png,00_cat-0015-sketch-21.png,1.0,8.86645,1.8151202,4.9860435
bagnet33,1,355,NaN,cat,cat,0,0355_ske_dnn_0_cat_00_cat-0016-sketch-22.png,00_cat-0016-sketch-22.png,1.0,19.645716,5.865259,9.744254
bagnet33,1,356,NaN,cat,cat,0,0356_ske_dnn_0_cat_00_cat-0021-sketch-27.png,00_cat-0021-sketch-27.png,1.0,17.941023,6.9293327,7.786441
bagnet33,1,357,NaN,cat,cat,0,0357_ske_dnn_0_cat_00_cat-0027-sketch-32.png,00_cat-0027-sketch-32.png,1.0,10.107745,2.1489198,5.6277394
bagnet33,1,358,NaN,cat,cat,0,0358_ske_dnn_0_cat_00_cat-0042-sketch-46.png,00_cat-0042-sketch-46.png,1.0,9.343495,2.761832,4.653939
bagnet33,1,359,NaN,cat,cat,0,0359_ske_dnn_0_cat_00_cat-0043-sketch-47.png,00_cat-0043-sketch-47.png,1.0,11.058461,3.193376,5.5614552
bagnet33,1,360,NaN,cat,cat,0,0360_ske_dnn_0_cat_00_cat-0044-sketch-48.png,00_cat-0044-sketch-48.png,1.0,8.091047,2.6610315,3.8396008
bagnet33,1,361,NaN,cat,cat,0,0361_ske_dnn_0_cat_00_cat-0048-sketch-7.png,00_cat-0048-sketch-7.png,1.0,8.836024,2.676013,4.355786
bagnet33,1,362,NaN,cat,cat,0,0362_ske_dnn_0_cat_00_cat-0052-sketch-1.png,00_cat-0052-sketch-1.png,1.0,17.59651,8.673572,6.30947
bagnet33,1,363,NaN,bicycle,cat,0,0363_ske_dnn_0_cat_00_cat-0053-sketch-10.png,00_cat-0053-sketch-10.png,0.0,0.15101893,4.416917,-3.0164452
bagnet33,1,364,NaN,bottle,cat,0,0364_ske_dnn_0_cat_00_cat-0059-sketch-16.png,00_cat-0059-sketch-16.png,0.0,0.053017575,4.527714,-3.164088
bagnet33,1,365,NaN,cat,cat,0,0365_ske_dnn_0_cat_00_cat-0062-sketch-19.png,00_cat-0062-sketch-19.png,1.0,7.0211463,6.852326,0.11937404
bagnet33,1,366,NaN,cat,cat,0,0366_ske_dnn_0_cat_00_cat-0067-sketch-23.png,00_cat-0067-sketch-23.png,1.0,5.0159974,1.6610942,2.3722749
bagnet33,1,367,NaN,bottle,cat,0,0367_ske_dnn_0_cat_00_cat-0073-sketch-29.png,00_cat-0073-sketch-29.png,0.0,0.8795659,3.293839,-1.7071489
bagnet33,1,368,NaN,cat,cat,0,0368_ske_dnn_0_cat_00_cat-0082-sketch-37.png,00_cat-0082-sketch-37.png,1.0,3.0645416,2.6241324,0.31141633
bagnet33,1,369,NaN,cat,cat,0,0369_ske_dnn_0_cat_00_cat-0085-sketch-4.png,00_cat-0085-sketch-4.png,1.0,8.814548,2.0662844,4.771743
bagnet33,1,370,NaN,cat,cat,0,0370_ske_dnn_0_cat_00_cat-0090-sketch-44.png,00_cat-0090-sketch-44.png,1.0,10.082415,2.5147848,5.3511224
bagnet33,1,371,NaN,elephant,cat,0,0371_ske_dnn_0_cat_00_cat-0104-sketch-10.png,00_cat-0104-sketch-10.png,0.0,0.87000304,1.9005058,-0.72867554
bagnet33,1,372,NaN,clock,cat,0,0372_ske_dnn_0_cat_00_cat-0124-sketch-29.png,00_cat-0124-sketch-29.png,0.0,1.4917397,5.873123,-3.098106
bagnet33,1,373,NaN,cat,cat,0,0373_ske_dnn_0_cat_00_cat-0128-sketch-32.png,00_cat-0128-sketch-32.png,1.0,6.2108345,4.343184,1.3206284
bagnet33,1,374,NaN,chair,cat,0,0374_ske_dnn_0_cat_00_cat-0134-sketch-38.png,00_cat-0134-sketch-38.png,0.0,2.073149,4.2000046,-1.503914
bagnet33,1,375,NaN,cat,cat,0,0375_ske_dnn_0_cat_00_cat-0140-sketch-43.png,00_cat-0140-sketch-43.png,1.0,15.985356,5.818659,7.188941
bagnet33,1,376,NaN,cat,cat,0,0376_ske_dnn_0_cat_00_cat-0149-sketch-6.png,00_cat-0149-sketch-6.png,1.0,9.261028,3.2512293,4.24957
bagnet33,1,377,NaN,keyboard,cat,0,0377_ske_dnn_0_cat_00_cat-0150-sketch-7.png,00_cat-0150-sketch-7.png,0.0,2.6065183,3.5741262,-0.6842022
bagnet33,1,378,NaN,clock,cat,0,0378_ske_dnn_0_cat_00_cat-0152-sketch-9.png,00_cat-0152-sketch-9.png,0.0,0.8128257,2.1308093,-0.93195516
bagnet33,1,379,NaN,bicycle,cat,0,0379_ske_dnn_0_cat_00_cat-0158-sketch-13.png,00_cat-0158-sketch-13.png,0.0,-0.113025494,3.0595777,-2.2433693
bagnet33,1,380,NaN,cat,cat,0,0380_ske_dnn_0_cat_00_cat-0160-sketch-15.png,00_cat-0160-sketch-15.png,1.0,8.900324,4.529403,3.0907078
bagnet33,1,381,NaN,cat,cat,0,0381_ske_dnn_0_cat_00_cat-0175-sketch-29.png,00_cat-0175-sketch-29.png,1.0,5.671368,2.972118,1.9086581
bagnet33,1,382,NaN,clock,cat,0,0382_ske_dnn_0_cat_00_cat-0207-sketch-11.png,00_cat-0207-sketch-11.png,0.0,0.63734853,4.39807,-2.6592314
bagnet33,1,383,NaN,clock,cat,0,0383_ske_dnn_0_cat_00_cat-0229-sketch-31.png,00_cat-0229-sketch-31.png,0.0,-0.75787145,3.6028068,-3.083465
bagnet33,1,384,NaN,clock,cat,0,0384_ske_dnn_0_cat_00_cat-0233-sketch-35.png,00_cat-0233-sketch-35.png,0.0,0.63734853,4.39807,-2.6592314
bagnet33,1,385,NaN,bottle,cat,0,0385_ske_dnn_0_cat_00_cat-0241-sketch-42.png,00_cat-0241-sketch-42.png,0.0,-0.22147648,4.9294806,-3.6422768
bagnet33,1,386,NaN,clock,cat,0,0386_ske_dnn_0_cat_00_cat-0245-sketch-46.png,00_cat-0245-sketch-46.png,0.0,-0.8248542,4.5448813,-3.7969766
bagnet33,1,387,NaN,clock,cat,0,0387_ske_dnn_0_cat_00_cat-0250-sketch-50.png,00_cat-0250-sketch-50.png,0.0,-0.10309285,5.7447777,-4.135069
bagnet33,1,388,NaN,bottle,cat,0,0388_ske_dnn_0_cat_00_cat-0251-sketch-6.png,00_cat-0251-sketch-6.png,0.0,-0.22147648,4.9294806,-3.6422768
bagnet33,1,389,NaN,cat,cat,0,0389_ske_dnn_0_cat_00_cat-0258-sketch-11.png,00_cat-0258-sketch-11.png,1.0,14.107746,3.635552,7.40496
bagnet33,1,390,NaN,clock,cat,0,0390_ske_dnn_0_cat_00_cat-0260-sketch-13.png,00_cat-0260-sketch-13.png,0.0,0.4113445,5.1819277,-3.3733118
bagnet33,1,391,NaN,knife,cat,0,0391_ske_dnn_0_cat_00_cat-0264-sketch-17.png,00_cat-0264-sketch-17.png,0.0,-0.11989897,4.158334,-3.0251672
bagnet33,1,392,NaN,cat,cat,0,0392_ske_dnn_0_cat_00_cat-0265-sketch-18.png,00_cat-0265-sketch-18.png,1.0,2.016785,1.7569659,0.1837198
bagnet33,1,393,NaN,knife,cat,0,0393_ske_dnn_0_cat_00_cat-0269-sketch-21.png,00_cat-0269-sketch-21.png,0.0,0.5709024,3.2145567,-1.8693459
bagnet33,1,394,NaN,cat,cat,0,0394_ske_dnn_0_cat_00_cat-0274-sketch-26.png,00_cat-0274-sketch-26.png,1.0,6.2300544,3.252191,2.1056674
bagnet33,1,395,NaN,knife,cat,0,0395_ske_dnn_0_cat_00_cat-0279-sketch-30.png,00_cat-0279-sketch-30.png,0.0,1.1055415,1.7187421,-0.43359837
bagnet33,1,396,NaN,bottle,cat,0,0396_ske_dnn_0_cat_00_cat-0289-sketch-4.png,00_cat-0289-sketch-4.png,0.0,0.09255717,3.4234958,-2.3553293
bagnet33,1,397,NaN,cat,cat,0,0397_ske_dnn_0_cat_00_cat-0293-sketch-43.png,00_cat-0293-sketch-43.png,1.0,7.612772,2.689682,3.4811504
bagnet33,1,398,NaN,cat,cat,0,0398_ske_dnn_0_cat_00_cat-0295-sketch-45.png,00_cat-0295-sketch-45.png,1.0,17.535606,3.7604609,9.740499
bagnet33,1,399,NaN,knife,cat,0,0399_ske_dnn_0_cat_00_cat-0302-sketch-6.png,00_cat-0302-sketch-6.png,0.0,3.5967834,4.6258874,-0.7276864
bagnet33,1,400,NaN,cat,cat,0,0400_ske_dnn_0_cat_00_cat-0304-sketch-8.png,00_cat-0304-sketch-8.png,1.0,11.179671,3.4731386,5.4493413
bagnet33,1,401,NaN,chair,chair,0,0401_ske_dnn_0_chair_00_chair-0002-sketch-1.png,00_chair-0002-sketch-1.png,1.0,2.7293246,1.413571,0.9303783
bagnet33,1,402,NaN,chair,chair,0,0402_ske_dnn_0_chair_00_chair-0005-sketch-12.png,00_chair-0005-sketch-12.png,1.0,8.1417885,4.587951,2.5129426
bagnet33,1,403,NaN,chair,chair,0,0403_ske_dnn_0_chair_00_chair-0006-sketch-13.png,00_chair-0006-sketch-13.png,1.0,4.5800085,4.3436885,0.16710348
bagnet33,1,404,NaN,knife,chair,0,0404_ske_dnn_0_chair_00_chair-0011-sketch-18.png,00_chair-0011-sketch-18.png,0.0,0.13317275,2.3743486,-1.5847507
bagnet33,1,405,NaN,keyboard,chair,0,0405_ske_dnn_0_chair_00_chair-0013-sketch-2.png,00_chair-0013-sketch-2.png,0.0,2.4639196,7.2633705,-3.3937242
bagnet33,1,406,NaN,chair,chair,0,0406_ske_dnn_0_chair_00_chair-0014-sketch-20.png,00_chair-0014-sketch-20.png,1.0,4.494843,3.7728102,0.5105543
bagnet33,1,407,NaN,keyboard,chair,0,0407_ske_dnn_0_chair_00_chair-0017-sketch-23.png,00_chair-0017-sketch-23.png,0.0,1.6931747,1.8190664,-0.08901887
bagnet33,1,408,NaN,bottle,chair,0,0408_ske_dnn_0_chair_00_chair-0029-sketch-34.png,00_chair-0029-sketch-34.png,0.0,4.048913,5.955174,-1.3479301
bagnet33,1,409,NaN,clock,chair,0,0409_ske_dnn_0_chair_00_chair-0034-sketch-39.png,00_chair-0034-sketch-39.png,0.0,2.9441204,7.6488748,-3.3267639
bagnet33,1,410,NaN,chair,chair,0,0410_ske_dnn_0_chair_00_chair-0040-sketch-44.png,00_chair-0040-sketch-44.png,1.0,10.1146555,6.9640985,2.2277803
bagnet33,1,411,NaN,chair,chair,0,0411_ske_dnn_0_chair_00_chair-0051-sketch-9.png,00_chair-0051-sketch-9.png,1.0,6.734648,3.2304416,2.4778483
bagnet33,1,412,NaN,clock,chair,0,0412_ske_dnn_0_chair_00_chair-0052-sketch-0.png,00_chair-0052-sketch-0.png,0.0,0.72250664,2.2002106,-1.0448945
bagnet33,1,413,NaN,clock,chair,0,0413_ske_dnn_0_chair_00_chair-0055-sketch-11.png,00_chair-0055-sketch-11.png,0.0,3.8982635,6.975186,-2.1757128
bagnet33,1,414,NaN,bicycle,chair,0,0414_ske_dnn_0_chair_00_chair-0060-sketch-16.png,00_chair-0060-sketch-16.png,0.0,7.350488,7.7854366,-0.307555
bagnet33,1,415,NaN,chair,chair,0,0415_ske_dnn_0_chair_00_chair-0062-sketch-18.png,00_chair-0062-sketch-18.png,1.0,14.787417,5.0606356,6.8778734
bagnet33,1,416,NaN,clock,chair,0,0416_ske_dnn_0_chair_00_chair-0063-sketch-19.png,00_chair-0063-sketch-19.png,0.0,5.3206477,6.1158156,-0.5622686
bagnet33,1,417,NaN,clock,chair,0,0417_ske_dnn_0_chair_00_chair-0064-sketch-2.png,00_chair-0064-sketch-2.png,0.0,1.8109927,2.5130608,-0.4964371
bagnet33,1,418,NaN,bottle,chair,0,0418_ske_dnn_0_chair_00_chair-0066-sketch-21.png,00_chair-0066-sketch-21.png,0.0,1.7553185,2.4703538,-0.50560635
bagnet33,1,419,NaN,chair,chair,0,0419_ske_dnn_0_chair_00_chair-0067-sketch-22.png,00_chair-0067-sketch-22.png,1.0,5.649775,4.8356957,0.575641
bagnet33,1,420,NaN,chair,chair,0,0420_ske_dnn_0_chair_00_chair-0071-sketch-26.png,00_chair-0071-sketch-26.png,1.0,3.5070524,3.4948637,0.008618694
bagnet33,1,421,NaN,chair,chair,0,0421_ske_dnn_0_chair_00_chair-0072-sketch-27.png,00_chair-0072-sketch-27.png,1.0,6.6436663,4.8877726,1.2416043
bagnet33,1,422,NaN,chair,chair,0,0422_ske_dnn_0_chair_00_chair-0076-sketch-30.png,00_chair-0076-sketch-30.png,1.0,13.350679,5.3407073,5.663905
bagnet33,1,423,NaN,chair,chair,0,0423_ske_dnn_0_chair_00_chair-0079-sketch-33.png,00_chair-0079-sketch-33.png,1.0,12.8494835,5.9979725,4.84475
bagnet33,1,424,NaN,clock,chair,0,0424_ske_dnn_0_chair_00_chair-0083-sketch-37.png,00_chair-0083-sketch-37.png,0.0,0.53116655,3.596841,-2.1677592
bagnet33,1,425,NaN,clock,chair,0,0425_ske_dnn_0_chair_00_chair-0088-sketch-41.png,00_chair-0088-sketch-41.png,0.0,0.77360356,3.3202817,-1.8007734
bagnet33,1,426,NaN,bicycle,chair,0,0426_ske_dnn_0_chair_00_chair-0094-sketch-47.png,00_chair-0094-sketch-47.png,0.0,6.712902,6.9794827,-0.18850094
bagnet33,1,427,NaN,knife,chair,0,0427_ske_dnn_0_chair_00_chair-0105-sketch-11.png,00_chair-0105-sketch-11.png,0.0,-1.0464344,4.1699715,-3.688556
bagnet33,1,428,NaN,chair,chair,0,0428_ske_dnn_0_chair_00_chair-0118-sketch-23.png,00_chair-0118-sketch-23.png,1.0,8.870678,5.6756315,2.259239
bagnet33,1,429,NaN,chair,chair,0,0429_ske_dnn_0_chair_00_chair-0122-sketch-27.png,00_chair-0122-sketch-27.png,1.0,5.3936443,4.1889715,0.85183233
bagnet33,1,430,NaN,chair,chair,0,0430_ske_dnn_0_chair_00_chair-0124-sketch-29.png,00_chair-0124-sketch-29.png,1.0,7.319584,2.4834213,3.4196835
bagnet33,1,431,NaN,chair,chair,0,0431_ske_dnn_0_chair_00_chair-0125-sketch-3.png,00_chair-0125-sketch-3.png,1.0,2.8394492,2.3633726,0.336637
bagnet33,1,432,NaN,bicycle,chair,0,0432_ske_dnn_0_chair_00_chair-0127-sketch-31.png,00_chair-0127-sketch-31.png,0.0,3.1497293,3.2173605,-0.047822513
bagnet33,1,433,NaN,clock,chair,0,0433_ske_dnn_0_chair_00_chair-0129-sketch-33.png,00_chair-0129-sketch-33.png,0.0,1.4292886,3.036539,-1.1364977
bagnet33,1,434,NaN,keyboard,chair,0,0434_ske_dnn_0_chair_00_chair-0130-sketch-34.png,00_chair-0130-sketch-34.png,0.0,5.616171,5.9854183,-0.26109737
bagnet33,1,435,NaN,clock,chair,0,0435_ske_dnn_0_chair_00_chair-0131-sketch-35.png,00_chair-0131-sketch-35.png,0.0,2.3817096,2.9300683,-0.38774815
bagnet33,1,436,NaN,chair,chair,0,0436_ske_dnn_0_chair_00_chair-0135-sketch-39.png,00_chair-0135-sketch-39.png,1.0,8.728481,5.6606317,2.1692972
bagnet33,1,437,NaN,bicycle,chair,0,0437_ske_dnn_0_chair_00_chair-0144-sketch-47.png,00_chair-0144-sketch-47.png,0.0,2.1347466,4.612673,-1.7521585
bagnet33,1,438,NaN,clock,chair,0,0438_ske_dnn_0_chair_00_chair-0145-sketch-48.png,00_chair-0145-sketch-48.png,0.0,0.06566608,1.7022299,-1.1572254
bagnet33,1,439,NaN,clock,chair,0,0439_ske_dnn_0_chair_00_chair-0153-sketch-0.png,00_chair-0153-sketch-0.png,0.0,2.0655584,4.7042985,-1.8658711
bagnet33,1,440,NaN,knife,chair,0,0440_ske_dnn_0_chair_00_chair-0155-sketch-10.png,00_chair-0155-sketch-10.png,0.0,3.7068515,5.5599513,-1.3103395
bagnet33,1,441,NaN,knife,chair,0,0441_ske_dnn_0_chair_00_chair-0163-sketch-18.png,00_chair-0163-sketch-18.png,0.0,2.8061543,5.413255,-1.8434988
bagnet33,1,442,NaN,knife,chair,0,0442_ske_dnn_0_chair_00_chair-0166-sketch-20.png,00_chair-0166-sketch-20.png,0.0,4.3701615,6.7630167,-1.6920042
bagnet33,1,443,NaN,clock,chair,0,0443_ske_dnn_0_chair_00_chair-0167-sketch-21.png,00_chair-0167-sketch-21.png,0.0,0.7291615,3.0540369,-1.6439352
bagnet33,1,444,NaN,knife,chair,0,0444_ske_dnn_0_chair_00_chair-0168-sketch-22.png,00_chair-0168-sketch-22.png,0.0,4.531597,6.6195817,-1.476428
bagnet33,1,445,NaN,oven,chair,0,0445_ske_dnn_0_chair_00_chair-0175-sketch-29.png,00_chair-0175-sketch-29.png,0.0,1.5816896,2.0287137,-0.31609377
bagnet33,1,446,NaN,clock,chair,0,0446_ske_dnn_0_chair_00_chair-0176-sketch-3.png,00_chair-0176-sketch-3.png,0.0,3.4806511,4.4915175,-0.7147905
bagnet33,1,447,NaN,bottle,chair,0,0447_ske_dnn_0_chair_00_chair-0178-sketch-31.png,00_chair-0178-sketch-31.png,0.0,2.6456347,4.178769,-1.0840898
bagnet33,1,448,NaN,clock,chair,0,0448_ske_dnn_0_chair_00_chair-0180-sketch-33.png,00_chair-0180-sketch-33.png,0.0,0.8786994,4.1752944,-2.3310447
bagnet33,1,449,NaN,knife,chair,0,0449_ske_dnn_0_chair_00_chair-0197-sketch-49.png,00_chair-0197-sketch-49.png,0.0,4.07981,6.476228,-1.6945236
bagnet33,1,450,NaN,clock,chair,0,0450_ske_dnn_0_chair_00_chair-0200-sketch-6.png,00_chair-0200-sketch-6.png,0.0,0.95353687,4.308435,-2.372271
bagnet33,1,451,NaN,clock,clock,0,0451_ske_dnn_0_clock_00_clock-0005-sketch-12.png,00_clock-0005-sketch-12.png,1.0,26.558115,6.908803,13.894161
bagnet33,1,452,NaN,clock,clock,0,0452_ske_dnn_0_clock_00_clock-0007-sketch-14.png,00_clock-0007-sketch-14.png,1.0,37.92549,9.783433,19.89944
bagnet33,1,453,NaN,clock,clock,0,0453_ske_dnn_0_clock_00_clock-0015-sketch-21.png,00_clock-0015-sketch-21.png,1.0,6.866117,3.650127,2.2740483
bagnet33,1,454,NaN,clock,clock,0,0454_ske_dnn_0_clock_00_clock-0017-sketch-23.png,00_clock-0017-sketch-23.png,1.0,16.654623,5.0751076,8.187954
bagnet33,1,455,NaN,clock,clock,0,0455_ske_dnn_0_clock_00_clock-0018-sketch-24.png,00_clock-0018-sketch-24.png,1.0,24.160332,5.2396655,13.378931
bagnet33,1,456,NaN,clock,clock,0,0456_ske_dnn_0_clock_00_clock-0021-sketch-27.png,00_clock-0021-sketch-27.png,1.0,76.92914,19.05172,40.925514
bagnet33,1,457,NaN,clock,clock,0,0457_ske_dnn_0_clock_00_clock-0022-sketch-28.png,00_clock-0022-sketch-28.png,1.0,5.5396576,1.780024,2.6584625
bagnet33,1,458,NaN,clock,clock,0,0458_ske_dnn_0_clock_00_clock-0027-sketch-32.png,00_clock-0027-sketch-32.png,1.0,22.264647,4.311226,12.694985
bagnet33,1,459,NaN,clock,clock,0,0459_ske_dnn_0_clock_00_clock-0028-sketch-33.png,00_clock-0028-sketch-33.png,1.0,23.1259,7.8072867,10.831896
bagnet33,1,460,NaN,clock,clock,0,0460_ske_dnn_0_clock_00_clock-0030-sketch-35.png,00_clock-0030-sketch-35.png,1.0,23.602938,5.675134,12.676871
bagnet33,1,461,NaN,clock,clock,0,0461_ske_dnn_0_clock_00_clock-0033-sketch-38.png,00_clock-0033-sketch-38.png,1.0,22.792816,5.5944767,12.161062
bagnet33,1,462,NaN,clock,clock,0,0462_ske_dnn_0_clock_00_clock-0035-sketch-4.png,00_clock-0035-sketch-4.png,1.0,31.746393,5.827323,18.32755
bagnet33,1,463,NaN,clock,clock,0,0463_ske_dnn_0_clock_00_clock-0044-sketch-48.png,00_clock-0044-sketch-48.png,1.0,5.0111656,2.6301193,1.6836541
bagnet33,1,464,NaN,clock,clock,0,0464_ske_dnn_0_clock_00_clock-0046-sketch-5.png,00_clock-0046-sketch-5.png,1.0,3.408064,2.8557882,0.39051786
bagnet33,1,465,NaN,clock,clock,0,0465_ske_dnn_0_clock_00_clock-0049-sketch-7.png,00_clock-0049-sketch-7.png,1.0,31.35553,6.7955065,17.36656
bagnet33,1,466,NaN,clock,clock,0,0466_ske_dnn_0_clock_00_clock-0057-sketch-13.png,00_clock-0057-sketch-13.png,1.0,14.160797,6.30376,5.555764
bagnet33,1,467,NaN,clock,clock,0,0467_ske_dnn_0_clock_00_clock-0059-sketch-15.png,00_clock-0059-sketch-15.png,1.0,9.67604,3.185349,4.5896115
bagnet33,1,468,NaN,bottle,clock,0,0468_ske_dnn_0_clock_00_clock-0060-sketch-16.png,00_clock-0060-sketch-16.png,0.0,3.0469916,4.6973577,-1.166985
bagnet33,1,469,NaN,clock,clock,0,0469_ske_dnn_0_clock_00_clock-0067-sketch-22.png,00_clock-0067-sketch-22.png,1.0,47.313114,10.75513,25.850399
bagnet33,1,470,NaN,keyboard,clock,0,0470_ske_dnn_0_clock_00_clock-0069-sketch-24.png,00_clock-0069-sketch-24.png,0.0,4.2582836,5.0708694,-0.57458496
bagnet33,1,471,NaN,clock,clock,0,0471_ske_dnn_0_clock_00_clock-0070-sketch-25.png,00_clock-0070-sketch-25.png,1.0,6.4485703,5.672803,0.54855037
bagnet33,1,472,NaN,clock,clock,0,0472_ske_dnn_0_clock_00_clock-0071-sketch-26.png,00_clock-0071-sketch-26.png,1.0,12.111668,4.7133117,5.2314277
bagnet33,1,473,NaN,clock,clock,0,0473_ske_dnn_0_clock_00_clock-0073-sketch-28.png,00_clock-0073-sketch-28.png,1.0,9.42751,4.107377,3.7619023
bagnet33,1,474,NaN,truck,clock,0,0474_ske_dnn_0_clock_00_clock-0074-sketch-29.png,00_clock-0074-sketch-29.png,0.0,3.0839367,5.079744,-1.4112488
bagnet33,1,475,NaN,clock,clock,0,0475_ske_dnn_0_clock_00_clock-0076-sketch-30.png,00_clock-0076-sketch-30.png,1.0,6.644455,4.4342594,1.5628443
bagnet33,1,476,NaN,clock,clock,0,0476_ske_dnn_0_clock_00_clock-0077-sketch-31.png,00_clock-0077-sketch-31.png,1.0,5.196179,4.787911,0.28868905
bagnet33,1,477,NaN,clock,clock,0,0477_ske_dnn_0_clock_00_clock-0078-sketch-32.png,00_clock-0078-sketch-32.png,1.0,4.1832814,2.7663984,1.0018876
bagnet33,1,478,NaN,clock,clock,0,0478_ske_dnn_0_clock_00_clock-0081-sketch-35.png,00_clock-0081-sketch-35.png,1.0,16.836046,5.2505846,8.192159
bagnet33,1,479,NaN,clock,clock,0,0479_ske_dnn_0_clock_00_clock-0085-sketch-39.png,00_clock-0085-sketch-39.png,1.0,41.30037,7.819515,23.67454
bagnet33,1,480,NaN,bottle,clock,0,0480_ske_dnn_0_clock_00_clock-0087-sketch-40.png,00_clock-0087-sketch-40.png,0.0,4.565802,5.3701563,-0.5687643
bagnet33,1,481,NaN,clock,clock,0,0481_ske_dnn_0_clock_00_clock-0092-sketch-45.png,00_clock-0092-sketch-45.png,1.0,5.1074085,3.3918366,1.2130926
bagnet33,1,482,NaN,clock,clock,0,0482_ske_dnn_0_clock_00_clock-0093-sketch-46.png,00_clock-0093-sketch-46.png,1.0,8.991424,2.800688,4.3775115
bagnet33,1,483,NaN,clock,clock,0,0483_ske_dnn_0_clock_00_clock-0095-sketch-48.png,00_clock-0095-sketch-48.png,1.0,47.526245,9.720081,26.732996
bagnet33,1,484,NaN,clock,clock,0,0484_ske_dnn_0_clock_00_clock-0099-sketch-6.png,00_clock-0099-sketch-6.png,1.0,5.6052613,4.2732444,0.94187826
bagnet33,1,485,NaN,clock,clock,0,0485_ske_dnn_0_clock_00_clock-0110-sketch-15.png,00_clock-0110-sketch-15.png,1.0,23.79452,6.6456757,12.126064
bagnet33,1,486,NaN,clock,clock,0,0486_ske_dnn_0_clock_00_clock-0112-sketch-17.png,00_clock-0112-sketch-17.png,1.0,10.320168,9.509695,0.5730906
bagnet33,1,487,NaN,clock,clock,0,0487_ske_dnn_0_clock_00_clock-0115-sketch-2.png,00_clock-0115-sketch-2.png,1.0,10.114783,3.8088758,4.45895
bagnet33,1,488,NaN,clock,clock,0,0488_ske_dnn_0_clock_00_clock-0118-sketch-22.png,00_clock-0118-sketch-22.png,1.0,6.5126405,5.7214174,0.5594792
bagnet33,1,489,NaN,clock,clock,0,0489_ske_dnn_0_clock_00_clock-0123-sketch-27.png,00_clock-0123-sketch-27.png,1.0,17.804438,6.71332,7.8426046
bagnet33,1,490,NaN,clock,clock,0,0490_ske_dnn_0_clock_00_clock-0127-sketch-30.png,00_clock-0127-sketch-30.png,1.0,23.246454,5.456546,12.579366
bagnet33,1,491,NaN,clock,clock,0,0491_ske_dnn_0_clock_00_clock-0131-sketch-34.png,00_clock-0131-sketch-34.png,1.0,21.372984,5.3717175,11.314604
bagnet33,1,492,NaN,clock,clock,0,0492_ske_dnn_0_clock_00_clock-0132-sketch-35.png,00_clock-0132-sketch-35.png,1.0,6.8707466,4.471551,1.6964875
bagnet33,1,493,NaN,clock,clock,0,0493_ske_dnn_0_clock_00_clock-0133-sketch-36.png,00_clock-0133-sketch-36.png,1.0,11.519989,4.0226297,5.3014336
bagnet33,1,494,NaN,clock,clock,0,0494_ske_dnn_0_clock_00_clock-0136-sketch-39.png,00_clock-0136-sketch-39.png,1.0,11.287753,1.8518003,6.6722264
bagnet33,1,495,NaN,clock,clock,0,0495_ske_dnn_0_clock_00_clock-0137-sketch-4.png,00_clock-0137-sketch-4.png,1.0,14.380809,4.6207,6.901439
bagnet33,1,496,NaN,clock,clock,0,0496_ske_dnn_0_clock_00_clock-0138-sketch-40.png,00_clock-0138-sketch-40.png,1.0,15.563968,8.058718,5.307013
bagnet33,1,497,NaN,clock,clock,0,0497_ske_dnn_0_clock_00_clock-0141-sketch-43.png,00_clock-0141-sketch-43.png,1.0,12.008822,4.8217106,5.0820556
bagnet33,1,498,NaN,clock,clock,0,0498_ske_dnn_0_clock_00_clock-0143-sketch-45.png,00_clock-0143-sketch-45.png,1.0,7.5761714,2.6228018,3.5025613
bagnet33,1,499,NaN,clock,clock,0,0499_ske_dnn_0_clock_00_clock-0144-sketch-46.png,00_clock-0144-sketch-46.png,1.0,13.990386,4.6995273,6.5696297
bagnet33,1,500,NaN,clock,clock,0,0500_ske_dnn_0_clock_00_clock-0150-sketch-6.png,00_clock-0150-sketch-6.png,1.0,10.678212,3.7991807,4.8642097
bagnet33,1,501,NaN,dog,dog,0,0501_ske_dnn_0_dog_00_dog-0011-sketch-18.png,00_dog-0011-sketch-18.png,1.0,3.2810595,2.4635198,0.57808787
bagnet33,1,502,NaN,clock,dog,0,0502_ske_dnn_0_dog_00_dog-0111-sketch-17.png,00_dog-0111-sketch-17.png,0.0,0.30198485,3.3247445,-2.137414
bagnet33,1,503,NaN,clock,dog,0,0503_ske_dnn_0_dog_00_dog-0215-sketch-19.png,00_dog-0215-sketch-19.png,0.0,-1.9641132,7.731878,-6.8561015
bagnet33,1,504,NaN,knife,dog,0,0504_ske_dnn_0_dog_00_dog-0243-sketch-44.png,00_dog-0243-sketch-44.png,0.0,1.1544716,7.1770754,-4.258624
bagnet33,1,505,NaN,knife,dog,0,0505_ske_dnn_0_dog_00_dog-0476-sketch-26.png,00_dog-0476-sketch-26.png,0.0,3.2036188,3.7979288,-0.42024067
bagnet33,1,506,NaN,bottle,dog,0,0506_ske_dnn_0_dog_00_dog-0607-sketch-8.png,00_dog-0607-sketch-8.png,0.0,0.07399297,3.3494985,-2.3161323
bagnet33,1,507,NaN,dog,dog,0,0507_ske_dnn_0_dog_00_dog-0630-sketch-28.png,00_dog-0630-sketch-28.png,1.0,4.0260544,3.3696444,0.46415195
bagnet33,1,508,NaN,knife,dog,0,0508_ske_dnn_0_dog_00_dog-1035-sketch-27.png,00_dog-1035-sketch-27.png,0.0,-0.21734238,2.4834816,-1.909771
bagnet33,1,509,NaN,dog,dog,0,0509_ske_dnn_0_dog_00_dog-1292-sketch-3.png,00_dog-1292-sketch-3.png,1.0,5.114622,2.6821234,1.7200364
bagnet33,1,510,NaN,bicycle,dog,0,0510_ske_dnn_0_dog_00_dog-1393-sketch-3.png,00_dog-1393-sketch-3.png,0.0,0.5487239,1.3895011,-0.59451926
bagnet33,1,511,NaN,elephant,dog,0,0511_ske_dnn_0_dog_00_dog-1460-sketch-44.png,00_dog-1460-sketch-44.png,0.0,0.07494153,3.9072382,-2.709843
bagnet33,1,512,NaN,clock,dog,0,0512_ske_dnn_0_dog_00_dog-1617-sketch-48.png,00_dog-1617-sketch-48.png,0.0,-0.598751,3.6299846,-2.9901676
bagnet33,1,513,NaN,dog,dog,0,0513_ske_dnn_0_dog_00_dog-1657-sketch-38.png,00_dog-1657-sketch-38.png,1.0,9.927498,3.017921,4.885809
bagnet33,1,514,NaN,dog,dog,0,0514_ske_dnn_0_dog_00_dog-1711-sketch-40.png,00_dog-1711-sketch-40.png,1.0,3.8001344,3.3622491,0.30963165
bagnet33,1,515,NaN,dog,dog,0,0515_ske_dnn_0_dog_00_dog-1759-sketch-38.png,00_dog-1759-sketch-38.png,1.0,6.603818,4.3920565,1.5639516
bagnet33,1,516,NaN,bottle,dog,0,0516_ske_dnn_0_dog_00_dog-1797-sketch-26.png,00_dog-1797-sketch-26.png,0.0,-1.4681861,4.1714973,-3.9878588
bagnet33,1,517,NaN,dog,dog,0,0517_ske_dnn_0_dog_00_dog-1973-sketch-47.png,00_dog-1973-sketch-47.png,1.0,2.2472606,2.0472655,0.14141785
bagnet33,1,518,NaN,clock,dog,0,0518_ske_dnn_0_dog_00_dog-2150-sketch-22.png,00_dog-2150-sketch-22.png,0.0,-1.9649372,7.468622,-6.670534
bagnet33,1,519,NaN,bottle,dog,0,0519_ske_dnn_0_dog_00_dog-2198-sketch-20.png,00_dog-2198-sketch-20.png,0.0,-1.4287101,3.3691487,-3.3925984
bagnet33,1,520,NaN,dog,dog,0,0520_ske_dnn_0_dog_00_dog-2291-sketch-12.png,00_dog-2291-sketch-12.png,1.0,4.8231225,1.6162124,2.267628
bagnet33,1,521,NaN,cat,dog,0,0521_ske_dnn_0_dog_00_dog-2323-sketch-41.png,00_dog-2323-sketch-41.png,0.0,3.456514,5.384521,-1.3633069
bagnet33,1,522,NaN,dog,dog,0,0522_ske_dnn_0_dog_00_dog-2454-sketch-21.png,00_dog-2454-sketch-21.png,1.0,7.234726,4.1811795,2.1591835
bagnet33,1,523,NaN,dog,dog,0,0523_ske_dnn_0_dog_00_dog-2506-sketch-23.png,00_dog-2506-sketch-23.png,1.0,5.6817517,3.4471157,1.5801263
bagnet33,1,524,NaN,dog,dog,0,0524_ske_dnn_0_dog_00_dog-2541-sketch-0.png,00_dog-2541-sketch-0.png,1.0,4.8121037,2.0196903,1.9745345
bagnet33,1,525,NaN,dog,dog,0,0525_ske_dnn_0_dog_00_dog-2615-sketch-3.png,00_dog-2615-sketch-3.png,1.0,9.253568,3.4674795,4.091382
bagnet33,1,526,NaN,dog,dog,0,0526_ske_dnn_0_dog_00_dog-2948-sketch-10.png,00_dog-2948-sketch-10.png,1.0,3.9565716,3.7084563,0.17544402
bagnet33,1,527,NaN,bear,dog,0,0527_ske_dnn_0_dog_00_dog-3000-sketch-11.png,00_dog-3000-sketch-11.png,0.0,4.9591937,5.068061,-0.07698072
bagnet33,1,528,NaN,clock,dog,0,0528_ske_dnn_0_dog_00_dog-3153-sketch-11.png,00_dog-3153-sketch-11.png,0.0,-0.607657,1.4622587,-1.4636515
bagnet33,1,529,NaN,knife,dog,0,0529_ske_dnn_0_dog_00_dog-3251-sketch-9.png,00_dog-3251-sketch-9.png,0.0,0.99880433,4.009247,-2.1287043
bagnet33,1,530,NaN,knife,dog,0,0530_ske_dnn_0_dog_00_dog-3303-sketch-0.png,00_dog-3303-sketch-0.png,0.0,2.80875,3.9940755,-0.8381518
bagnet33,1,531,NaN,dog,dog,0,0531_ske_dnn_0_dog_00_dog-3338-sketch-40.png,00_dog-3338-sketch-40.png,1.0,8.619287,3.5462961,3.587146
bagnet33,1,532,NaN,elephant,dog,0,0532_ske_dnn_0_dog_00_dog-3417-sketch-2.png,00_dog-3417-sketch-2.png,0.0,1.0532664,1.4243828,-0.26241893
bagnet33,1,533,NaN,bottle,dog,0,0533_ske_dnn_0_dog_00_dog-3503-sketch-6.png,00_dog-3503-sketch-6.png,0.0,1.1918573,3.5186732,-1.6453073
bagnet33,1,534,NaN,keyboard,dog,0,0534_ske_dnn_0_dog_00_dog-3573-sketch-22.png,00_dog-3573-sketch-22.png,0.0,1.1713053,4.9730663,-2.688251
bagnet33,1,535,NaN,cat,dog,0,0535_ske_dnn_0_dog_00_dog-3646-sketch-42.png,00_dog-3646-sketch-42.png,0.0,8.667555,9.455369,-0.5570687
bagnet33,1,536,NaN,clock,dog,0,0536_ske_dnn_0_dog_00_dog-3695-sketch-40.png,00_dog-3695-sketch-40.png,0.0,-0.34894896,5.223409,-3.9402523
bagnet33,1,537,NaN,knife,dog,0,0537_ske_dnn_0_dog_00_dog-3915-sketch-0.png,00_dog-3915-sketch-0.png,0.0,0.06064515,3.614844,-2.5131981
bagnet33,1,538,NaN,dog,dog,0,0538_ske_dnn_0_dog_00_dog-4202-sketch-4.png,00_dog-4202-sketch-4.png,1.0,4.875793,4.7617946,0.08060905
bagnet33,1,539,NaN,dog,dog,0,0539_ske_dnn_0_dog_00_dog-4208-sketch-45.png,00_dog-4208-sketch-45.png,1.0,3.5660684,3.0631678,0.35560444
bagnet33,1,540,NaN,bicycle,dog,0,0540_ske_dnn_0_dog_00_dog-4325-sketch-13.png,00_dog-4325-sketch-13.png,0.0,0.113170356,7.77439,-5.4173007
bagnet33,1,541,NaN,dog,dog,0,0541_ske_dnn_0_dog_00_dog-4475-sketch-11.png,00_dog-4475-sketch-11.png,1.0,8.738684,3.7144444,3.5526738
bagnet33,1,542,NaN,clock,dog,0,0542_ske_dnn_0_dog_00_dog-4499-sketch-33.png,00_dog-4499-sketch-33.png,0.0,0.29618457,3.2736485,-2.105385
bagnet33,1,543,NaN,car,dog,0,0543_ske_dnn_0_dog_00_dog-4581-sketch-16.png,00_dog-4581-sketch-16.png,0.0,-0.23270932,2.1472445,-1.6828816
bagnet33,1,544,NaN,clock,dog,0,0544_ske_dnn_0_dog_00_dog-4709-sketch-4.png,00_dog-4709-sketch-4.png,0.0,-0.5319559,2.6004667,-2.2149575
bagnet33,1,545,NaN,knife,dog,0,0545_ske_dnn_0_dog_00_dog-4909-sketch-37.png,00_dog-4909-sketch-37.png,0.0,-0.5925419,1.8219737,-1.7073203
bagnet33,1,546,NaN,cat,dog,0,0546_ske_dnn_0_dog_00_dog-5028-sketch-8.png,00_dog-5028-sketch-8.png,0.0,3.3973966,6.788887,-2.398146
bagnet33,1,547,NaN,dog,dog,0,0547_ske_dnn_0_dog_00_dog-5084-sketch-11.png,00_dog-5084-sketch-11.png,1.0,4.459594,2.7959228,1.176393
bagnet33,1,548,NaN,cat,dog,0,0548_ske_dnn_0_dog_00_dog-5223-sketch-45.png,00_dog-5223-sketch-45.png,0.0,2.0089607,3.9015255,-1.3382454
bagnet33,1,549,NaN,cat,dog,0,0549_ske_dnn_0_dog_00_dog-5325-sketch-45.png,00_dog-5325-sketch-45.png,0.0,6.578818,7.6430264,-0.75250906
bagnet33,1,550,NaN,dog,dog,0,0550_ske_dnn_0_dog_00_dog-5354-sketch-25.png,00_dog-5354-sketch-25.png,1.0,7.8199143,7.184889,0.44903085
bagnet33,1,551,NaN,knife,elephant,0,0551_ske_dnn_0_elephant_00_elephant-0001-sketch-0.png,00_elephant-0001-sketch-0.png,0.0,4.7309594,5.07265,-0.2416117
bagnet33,1,552,NaN,elephant,elephant,0,0552_ske_dnn_0_elephant_00_elephant-0002-sketch-1.png,00_elephant-0002-sketch-1.png,1.0,12.640707,4.3457866,5.865394
bagnet33,1,553,NaN,elephant,elephant,0,0553_ske_dnn_0_elephant_00_elephant-0006-sketch-13.png,00_elephant-0006-sketch-13.png,1.0,2.727456,1.5128838,0.85883236
bagnet33,1,554,NaN,knife,elephant,0,0554_ske_dnn_0_elephant_00_elephant-0011-sketch-18.png,00_elephant-0011-sketch-18.png,0.0,-0.25115407,4.0237484,-3.0228126
bagnet33,1,555,NaN,clock,elephant,0,0555_ske_dnn_0_elephant_00_elephant-0012-sketch-19.png,00_elephant-0012-sketch-19.png,0.0,-0.7033497,3.5585003,-3.013583
bagnet33,1,556,NaN,knife,elephant,0,0556_ske_dnn_0_elephant_00_elephant-0013-sketch-2.png,00_elephant-0013-sketch-2.png,0.0,0.7404562,5.2317867,-3.1758504
bagnet33,1,557,NaN,bottle,elephant,0,0557_ske_dnn_0_elephant_00_elephant-0014-sketch-20.png,00_elephant-0014-sketch-20.png,0.0,1.4747005,3.4013462,-1.3623443
bagnet33,1,558,NaN,elephant,elephant,0,0558_ske_dnn_0_elephant_00_elephant-0015-sketch-21.png,00_elephant-0015-sketch-21.png,1.0,2.630733,2.2322445,0.28177395
bagnet33,1,559,NaN,clock,elephant,0,0559_ske_dnn_0_elephant_00_elephant-0016-sketch-22.png,00_elephant-0016-sketch-22.png,0.0,0.9802308,4.0868115,-2.1966844
bagnet33,1,560,NaN,elephant,elephant,0,0560_ske_dnn_0_elephant_00_elephant-0019-sketch-25.png,00_elephant-0019-sketch-25.png,1.0,12.737259,5.3227386,5.2428575
bagnet33,1,561,NaN,elephant,elephant,0,0561_ske_dnn_0_elephant_00_elephant-0020-sketch-26.png,00_elephant-0020-sketch-26.png,1.0,3.13578,1.0715317,1.4596442
bagnet33,1,562,NaN,elephant,elephant,0,0562_ske_dnn_0_elephant_00_elephant-0021-sketch-27.png,00_elephant-0021-sketch-27.png,1.0,1.9096804,1.5373528,0.26327536
bagnet33,1,563,NaN,clock,elephant,0,0563_ske_dnn_0_elephant_00_elephant-0022-sketch-28.png,00_elephant-0022-sketch-28.png,0.0,-0.48178512,2.4911025,-2.102149
bagnet33,1,564,NaN,elephant,elephant,0,0564_ske_dnn_0_elephant_00_elephant-0025-sketch-30.png,00_elephant-0025-sketch-30.png,1.0,4.7494464,3.365552,0.97856116
bagnet33,1,565,NaN,elephant,elephant,0,0565_ske_dnn_0_elephant_00_elephant-0028-sketch-33.png,00_elephant-0028-sketch-33.png,1.0,12.327515,3.9214158,5.94401
bagnet33,1,566,NaN,knife,elephant,0,0566_ske_dnn_0_elephant_00_elephant-0029-sketch-34.png,00_elephant-0029-sketch-34.png,0.0,-0.2592122,5.423148,-4.0180354
bagnet33,1,567,NaN,clock,elephant,0,0567_ske_dnn_0_elephant_00_elephant-0030-sketch-35.png,00_elephant-0030-sketch-35.png,0.0,-1.6063404,4.87908,-4.5858846
bagnet33,1,568,NaN,elephant,elephant,0,0568_ske_dnn_0_elephant_00_elephant-0032-sketch-37.png,00_elephant-0032-sketch-37.png,1.0,7.921731,6.834062,0.76909804
bagnet33,1,569,NaN,clock,elephant,0,0569_ske_dnn_0_elephant_00_elephant-0033-sketch-38.png,00_elephant-0033-sketch-38.png,0.0,0.860379,3.0257766,-1.5311674
bagnet33,1,570,NaN,knife,elephant,0,0570_ske_dnn_0_elephant_00_elephant-0037-sketch-41.png,00_elephant-0037-sketch-41.png,0.0,2.0931892,3.8718965,-1.257736
bagnet33,1,571,NaN,elephant,elephant,0,0571_ske_dnn_0_elephant_00_elephant-0039-sketch-43.png,00_elephant-0039-sketch-43.png,1.0,11.002098,4.270376,4.7600465
bagnet33,1,572,NaN,elephant,elephant,0,0572_ske_dnn_0_elephant_00_elephant-0040-sketch-44.png,00_elephant-0040-sketch-44.png,1.0,16.788567,6.0115356,7.620512
bagnet33,1,573,NaN,elephant,elephant,0,0573_ske_dnn_0_elephant_00_elephant-0043-sketch-47.png,00_elephant-0043-sketch-47.png,1.0,2.239389,1.235683,0.7097273
bagnet33,1,574,NaN,elephant,elephant,0,0574_ske_dnn_0_elephant_00_elephant-0044-sketch-48.png,00_elephant-0044-sketch-48.png,1.0,16.122019,3.6404295,8.825816
bagnet33,1,575,NaN,elephant,elephant,0,0575_ske_dnn_0_elephant_00_elephant-0046-sketch-5.png,00_elephant-0046-sketch-5.png,1.0,7.538788,5.739138,1.2725445
bagnet33,1,576,NaN,knife,elephant,0,0576_ske_dnn_0_elephant_00_elephant-0047-sketch-50.png,00_elephant-0047-sketch-50.png,0.0,0.28459108,4.300444,-2.8396368
bagnet33,1,577,NaN,clock,elephant,0,0577_ske_dnn_0_elephant_00_elephant-0048-sketch-6.png,00_elephant-0048-sketch-6.png,0.0,0.74271905,3.2733843,-1.7894506
bagnet33,1,578,NaN,elephant,elephant,0,0578_ske_dnn_0_elephant_00_elephant-0050-sketch-8.png,00_elephant-0050-sketch-8.png,1.0,4.7061453,2.2066855,1.767385
bagnet33,1,579,NaN,elephant,elephant,0,0579_ske_dnn_0_elephant_00_elephant-0052-sketch-0.png,00_elephant-0052-sketch-0.png,1.0,7.092949,5.4065914,1.1924348
bagnet33,1,580,NaN,clock,elephant,0,0580_ske_dnn_0_elephant_00_elephant-0054-sketch-10.png,00_elephant-0054-sketch-10.png,0.0,2.1245105,4.7884574,-1.8836949
bagnet33,1,581,NaN,knife,elephant,0,0581_ske_dnn_0_elephant_00_elephant-0055-sketch-11.png,00_elephant-0055-sketch-11.png,0.0,1.2300755,2.4085858,-0.83333266
bagnet33,1,582,NaN,elephant,elephant,0,0582_ske_dnn_0_elephant_00_elephant-0057-sketch-13.png,00_elephant-0057-sketch-13.png,1.0,2.9000733,2.4550576,0.3146736
bagnet33,1,583,NaN,elephant,elephant,0,0583_ske_dnn_0_elephant_00_elephant-0058-sketch-14.png,00_elephant-0058-sketch-14.png,1.0,9.298417,2.6397026,4.708422
bagnet33,1,584,NaN,elephant,elephant,0,0584_ske_dnn_0_elephant_00_elephant-0061-sketch-17.png,00_elephant-0061-sketch-17.png,1.0,27.127453,2.9722686,17.080294
bagnet33,1,585,NaN,elephant,elephant,0,0585_ske_dnn_0_elephant_00_elephant-0062-sketch-18.png,00_elephant-0062-sketch-18.png,1.0,1.8151107,1.7110144,0.0736072
bagnet33,1,586,NaN,clock,elephant,0,0586_ske_dnn_0_elephant_00_elephant-0065-sketch-20.png,00_elephant-0065-sketch-20.png,0.0,-0.70699376,3.3266191,-2.852195
bagnet33,1,587,NaN,elephant,elephant,0,0587_ske_dnn_0_elephant_00_elephant-0066-sketch-21.png,00_elephant-0066-sketch-21.png,1.0,25.047977,3.9925385,14.888444
bagnet33,1,588,NaN,elephant,elephant,0,0588_ske_dnn_0_elephant_00_elephant-0071-sketch-26.png,00_elephant-0071-sketch-26.png,1.0,17.347172,5.021518,8.715553
bagnet33,1,589,NaN,clock,elephant,0,0589_ske_dnn_0_elephant_00_elephant-0075-sketch-3.png,00_elephant-0075-sketch-3.png,0.0,-0.63370264,3.2155426,-2.7218273
bagnet33,1,590,NaN,clock,elephant,0,0590_ske_dnn_0_elephant_00_elephant-0076-sketch-30.png,00_elephant-0076-sketch-30.png,0.0,0.95093757,1.3131486,-0.2561219
bagnet33,1,591,NaN,elephant,elephant,0,0591_ske_dnn_0_elephant_00_elephant-0077-sketch-31.png,00_elephant-0077-sketch-31.png,1.0,4.3263865,2.520422,1.2770097
bagnet33,1,592,NaN,elephant,elephant,0,0592_ske_dnn_0_elephant_00_elephant-0079-sketch-33.png,00_elephant-0079-sketch-33.png,1.0,6.935357,4.460296,1.7501324
bagnet33,1,593,NaN,elephant,elephant,0,0593_ske_dnn_0_elephant_00_elephant-0080-sketch-34.png,00_elephant-0080-sketch-34.png,1.0,2.1759367,1.1418351,0.73122025
bagnet33,1,594,NaN,elephant,elephant,0,0594_ske_dnn_0_elephant_00_elephant-0082-sketch-36.png,00_elephant-0082-sketch-36.png,1.0,9.180296,2.4154234,4.7834873
bagnet33,1,595,NaN,elephant,elephant,0,0595_ske_dnn_0_elephant_00_elephant-0086-sketch-4.png,00_elephant-0086-sketch-4.png,1.0,5.4530907,1.5472759,2.7618282
bagnet33,1,596,NaN,elephant,elephant,0,0596_ske_dnn_0_elephant_00_elephant-0090-sketch-43.png,00_elephant-0090-sketch-43.png,1.0,13.602919,3.2606435,7.313093
bagnet33,1,597,NaN,knife,elephant,0,0597_ske_dnn_0_elephant_00_elephant-0094-sketch-47.png,00_elephant-0094-sketch-47.png,0.0,3.2384665,4.7199206,-1.0475463
bagnet33,1,598,NaN,clock,elephant,0,0598_ske_dnn_0_elephant_00_elephant-0098-sketch-50.png,00_elephant-0098-sketch-50.png,0.0,-0.9488015,3.7618477,-3.3309321
bagnet33,1,599,NaN,elephant,elephant,0,0599_ske_dnn_0_elephant_00_elephant-0100-sketch-7.png,00_elephant-0100-sketch-7.png,1.0,16.27518,2.3543854,9.843489
bagnet33,1,600,NaN,clock,elephant,0,0600_ske_dnn_0_elephant_00_elephant-0101-sketch-8.png,00_elephant-0101-sketch-8.png,0.0,-1.1641921,4.114992,-3.732947
bagnet33,1,601,NaN,keyboard,keyboard,0,0601_ske_dnn_0_keyboard_00_keyboard-0002-sketch-1.png,00_keyboard-0002-sketch-1.png,1.0,26.119564,4.5496926,15.252203
bagnet33,1,602,NaN,keyboard,keyboard,0,0602_ske_dnn_0_keyboard_00_keyboard-0003-sketch-10.png,00_keyboard-0003-sketch-10.png,1.0,8.18195,4.537396,2.5770886
bagnet33,1,603,NaN,keyboard,keyboard,0,0603_ske_dnn_0_keyboard_00_keyboard-0004-sketch-11.png,00_keyboard-0004-sketch-11.png,1.0,4.6845875,1.9359978,1.9435463
bagnet33,1,604,NaN,keyboard,keyboard,0,0604_ske_dnn_0_keyboard_00_keyboard-0005-sketch-12.png,00_keyboard-0005-sketch-12.png,1.0,13.744774,1.1315138,8.918922
bagnet33,1,605,NaN,keyboard,keyboard,0,0605_ske_dnn_0_keyboard_00_keyboard-0006-sketch-13.png,00_keyboard-0006-sketch-13.png,1.0,35.630016,3.1164715,22.99055
bagnet33,1,606,NaN,keyboard,keyboard,0,0606_ske_dnn_0_keyboard_00_keyboard-0007-sketch-14.png,00_keyboard-0007-sketch-14.png,1.0,15.092554,1.4290189,9.661578
bagnet33,1,607,NaN,keyboard,keyboard,0,0607_ske_dnn_0_keyboard_00_keyboard-0008-sketch-15.png,00_keyboard-0008-sketch-15.png,1.0,17.92493,2.7316635,10.743262
bagnet33,1,608,NaN,keyboard,keyboard,0,0608_ske_dnn_0_keyboard_00_keyboard-0009-sketch-16.png,00_keyboard-0009-sketch-16.png,1.0,5.359006,1.6104735,2.6506126
bagnet33,1,609,NaN,clock,keyboard,0,0609_ske_dnn_0_keyboard_00_keyboard-0010-sketch-17.png,00_keyboard-0010-sketch-17.png,0.0,5.06423,5.24061,-0.124719605
bagnet33,1,610,NaN,keyboard,keyboard,0,0610_ske_dnn_0_keyboard_00_keyboard-0014-sketch-20.png,00_keyboard-0014-sketch-20.png,1.0,27.335209,1.4298518,18.317854
bagnet33,1,611,NaN,keyboard,keyboard,0,0611_ske_dnn_0_keyboard_00_keyboard-0016-sketch-22.png,00_keyboard-0016-sketch-22.png,1.0,12.021815,5.3153105,4.742215
bagnet33,1,612,NaN,keyboard,keyboard,0,0612_ske_dnn_0_keyboard_00_keyboard-0017-sketch-23.png,00_keyboard-0017-sketch-23.png,1.0,31.246555,3.4558957,19.650963
bagnet33,1,613,NaN,keyboard,keyboard,0,0613_ske_dnn_0_keyboard_00_keyboard-0019-sketch-25.png,00_keyboard-0019-sketch-25.png,1.0,28.847189,7.109877,15.370602
bagnet33,1,614,NaN,keyboard,keyboard,0,0614_ske_dnn_0_keyboard_00_keyboard-0022-sketch-28.png,00_keyboard-0022-sketch-28.png,1.0,21.854176,3.1904366,13.197256
bagnet33,1,615,NaN,keyboard,keyboard,0,0615_ske_dnn_0_keyboard_00_keyboard-0023-sketch-29.png,00_keyboard-0023-sketch-29.png,1.0,8.231009,5.8355126,1.6938714
bagnet33,1,616,NaN,keyboard,keyboard,0,0616_ske_dnn_0_keyboard_00_keyboard-0026-sketch-31.png,00_keyboard-0026-sketch-31.png,1.0,26.092304,4.546076,15.235484
bagnet33,1,617,NaN,clock,keyboard,0,0617_ske_dnn_0_keyboard_00_keyboard-0028-sketch-33.png,00_keyboard-0028-sketch-33.png,0.0,0.8419628,1.4622587,-0.43861544
bagnet33,1,618,NaN,keyboard,keyboard,0,0618_ske_dnn_0_keyboard_00_keyboard-0029-sketch-34.png,00_keyboard-0029-sketch-34.png,1.0,15.120511,5.918295,6.5069494
bagnet33,1,619,NaN,keyboard,keyboard,0,0619_ske_dnn_0_keyboard_00_keyboard-0031-sketch-36.png,00_keyboard-0031-sketch-36.png,1.0,10.932243,4.7235913,4.39018
bagnet33,1,620,NaN,keyboard,keyboard,0,0620_ske_dnn_0_keyboard_00_keyboard-0033-sketch-38.png,00_keyboard-0033-sketch-38.png,1.0,7.8642015,7.568529,0.20907198
bagnet33,1,621,NaN,keyboard,keyboard,0,0621_ske_dnn_0_keyboard_00_keyboard-0034-sketch-39.png,00_keyboard-0034-sketch-39.png,1.0,3.4947114,1.3263704,1.5332488
bagnet33,1,622,NaN,keyboard,keyboard,0,0622_ske_dnn_0_keyboard_00_keyboard-0035-sketch-4.png,00_keyboard-0035-sketch-4.png,1.0,15.081239,6.264767,6.2341866
bagnet33,1,623,NaN,keyboard,keyboard,0,0623_ske_dnn_0_keyboard_00_keyboard-0037-sketch-41.png,00_keyboard-0037-sketch-41.png,1.0,3.8922129,2.250387,1.1609462
bagnet33,1,624,NaN,keyboard,keyboard,0,0624_ske_dnn_0_keyboard_00_keyboard-0038-sketch-42.png,00_keyboard-0038-sketch-42.png,1.0,13.386029,1.2136327,8.607184
bagnet33,1,625,NaN,keyboard,keyboard,0,0625_ske_dnn_0_keyboard_00_keyboard-0039-sketch-43.png,00_keyboard-0039-sketch-43.png,1.0,34.531265,3.0941174,22.22942
bagnet33,1,626,NaN,keyboard,keyboard,0,0626_ske_dnn_0_keyboard_00_keyboard-0041-sketch-45.png,00_keyboard-0041-sketch-45.png,1.0,17.735655,2.5912848,10.708687
bagnet33,1,627,NaN,keyboard,keyboard,0,0627_ske_dnn_0_keyboard_00_keyboard-0042-sketch-46.png,00_keyboard-0042-sketch-46.png,1.0,5.9909105,1.8447343,2.9317894
bagnet33,1,628,NaN,clock,keyboard,0,0628_ske_dnn_0_keyboard_00_keyboard-0043-sketch-47.png,00_keyboard-0043-sketch-47.png,0.0,4.329242,4.9999623,-0.47427073
bagnet33,1,629,NaN,keyboard,keyboard,0,0629_ske_dnn_0_keyboard_00_keyboard-0044-sketch-48.png,00_keyboard-0044-sketch-48.png,1.0,29.461262,4.933986,17.343403
bagnet33,1,630,NaN,keyboard,keyboard,0,0630_ske_dnn_0_keyboard_00_keyboard-0045-sketch-49.png,00_keyboard-0045-sketch-49.png,1.0,5.1431627,2.0106905,2.2149925
bagnet33,1,631,NaN,keyboard,keyboard,0,0631_ske_dnn_0_keyboard_00_keyboard-0047-sketch-50.png,00_keyboard-0047-sketch-50.png,1.0,28.040836,1.7104381,18.618404
bagnet33,1,632,NaN,keyboard,keyboard,0,0632_ske_dnn_0_keyboard_00_keyboard-0049-sketch-7.png,00_keyboard-0049-sketch-7.png,1.0,24.280357,1.3582611,16.20837
bagnet33,1,633,NaN,keyboard,keyboard,0,0633_ske_dnn_0_keyboard_00_keyboard-0052-sketch-0.png,00_keyboard-0052-sketch-0.png,1.0,6.961494,5.116473,1.3046267
bagnet33,1,634,NaN,keyboard,keyboard,0,0634_ske_dnn_0_keyboard_00_keyboard-0053-sketch-1.png,00_keyboard-0053-sketch-1.png,1.0,11.7110195,4.8575745,4.8461175
bagnet33,1,635,NaN,keyboard,keyboard,0,0635_ske_dnn_0_keyboard_00_keyboard-0059-sketch-15.png,00_keyboard-0059-sketch-15.png,1.0,11.200459,10.014347,0.83870745
bagnet33,1,636,NaN,clock,keyboard,0,0636_ske_dnn_0_keyboard_00_keyboard-0061-sketch-17.png,00_keyboard-0061-sketch-17.png,0.0,8.886533,10.313728,-1.0091797
bagnet33,1,637,NaN,clock,keyboard,0,0637_ske_dnn_0_keyboard_00_keyboard-0062-sketch-18.png,00_keyboard-0062-sketch-18.png,0.0,5.238226,5.4316635,-0.13678102
bagnet33,1,638,NaN,keyboard,keyboard,0,0638_ske_dnn_0_keyboard_00_keyboard-0063-sketch-19.png,00_keyboard-0063-sketch-19.png,1.0,50.71263,9.209782,29.346947
bagnet33,1,639,NaN,keyboard,keyboard,0,0639_ske_dnn_0_keyboard_00_keyboard-0064-sketch-2.png,00_keyboard-0064-sketch-2.png,1.0,60.09654,11.812672,34.14185
bagnet33,1,640,NaN,keyboard,keyboard,0,0640_ske_dnn_0_keyboard_00_keyboard-0068-sketch-23.png,00_keyboard-0068-sketch-23.png,1.0,11.585693,11.193071,0.27762568
bagnet33,1,641,NaN,clock,keyboard,0,0641_ske_dnn_0_keyboard_00_keyboard-0071-sketch-26.png,00_keyboard-0071-sketch-26.png,0.0,4.335908,4.3535466,-0.012472433
bagnet33,1,642,NaN,keyboard,keyboard,0,0642_ske_dnn_0_keyboard_00_keyboard-0074-sketch-29.png,00_keyboard-0074-sketch-29.png,1.0,12.555863,9.4896345,2.1681514
bagnet33,1,643,NaN,keyboard,keyboard,0,0643_ske_dnn_0_keyboard_00_keyboard-0076-sketch-30.png,00_keyboard-0076-sketch-30.png,1.0,14.651661,6.1240387,6.0299397
bagnet33,1,644,NaN,keyboard,keyboard,0,0644_ske_dnn_0_keyboard_00_keyboard-0084-sketch-38.png,00_keyboard-0084-sketch-38.png,1.0,48.140438,19.380281,20.336502
bagnet33,1,645,NaN,clock,keyboard,0,0645_ske_dnn_0_keyboard_00_keyboard-0085-sketch-39.png,00_keyboard-0085-sketch-39.png,0.0,5.5084963,11.036159,-3.9086475
bagnet33,1,646,NaN,clock,keyboard,0,0646_ske_dnn_0_keyboard_00_keyboard-0086-sketch-4.png,00_keyboard-0086-sketch-4.png,0.0,1.7885303,4.316852,-1.7877935
bagnet33,1,647,NaN,keyboard,keyboard,0,0647_ske_dnn_0_keyboard_00_keyboard-0087-sketch-40.png,00_keyboard-0087-sketch-40.png,1.0,7.8755794,1.9951967,4.1580586
bagnet33,1,648,NaN,keyboard,keyboard,0,0648_ske_dnn_0_keyboard_00_keyboard-0088-sketch-41.png,00_keyboard-0088-sketch-41.png,1.0,6.723631,3.3404944,2.3922389
bagnet33,1,649,NaN,clock,keyboard,0,0649_ske_dnn_0_keyboard_00_keyboard-0091-sketch-44.png,00_keyboard-0091-sketch-44.png,0.0,7.742464,9.848637,-1.4892889
bagnet33,1,650,NaN,keyboard,keyboard,0,0650_ske_dnn_0_keyboard_00_keyboard-0098-sketch-50.png,00_keyboard-0098-sketch-50.png,1.0,48.665104,9.456262,27.72484
bagnet33,1,651,NaN,knife,knife,0,0651_ske_dnn_0_knife_00_knife-0001-sketch-0.png,00_knife-0001-sketch-0.png,1.0,2.4424427,2.3677394,0.052823152
bagnet33,1,652,NaN,keyboard,knife,0,0652_ske_dnn_0_knife_00_knife-0002-sketch-1.png,00_knife-0002-sketch-1.png,0.0,2.3672237,7.5710583,-3.6796668
bagnet33,1,653,NaN,clock,knife,0,0653_ske_dnn_0_knife_00_knife-0004-sketch-11.png,00_knife-0004-sketch-11.png,0.0,0.9505603,6.123878,-3.6580882
bagnet33,1,654,NaN,knife,knife,0,0654_ske_dnn_0_knife_00_knife-0005-sketch-12.png,00_knife-0005-sketch-12.png,1.0,15.392657,6.12235,6.5550976
bagnet33,1,655,NaN,knife,knife,0,0655_ske_dnn_0_knife_00_knife-0006-sketch-13.png,00_knife-0006-sketch-13.png,1.0,5.487234,2.3071892,2.2486312
bagnet33,1,656,NaN,knife,knife,0,0656_ske_dnn_0_knife_00_knife-0007-sketch-14.png,00_knife-0007-sketch-14.png,1.0,8.71248,8.4876175,0.15900151
bagnet33,1,657,NaN,clock,knife,0,0657_ske_dnn_0_knife_00_knife-0008-sketch-15.png,00_knife-0008-sketch-15.png,0.0,1.8022181,4.8668556,-2.167026
bagnet33,1,658,NaN,car,knife,0,0658_ske_dnn_0_knife_00_knife-0009-sketch-16.png,00_knife-0009-sketch-16.png,0.0,-0.39924932,3.0621452,-2.4475756
bagnet33,1,659,NaN,knife,knife,0,0659_ske_dnn_0_knife_00_knife-0010-sketch-17.png,00_knife-0010-sketch-17.png,1.0,20.552418,6.624986,9.848181
bagnet33,1,660,NaN,clock,knife,0,0660_ske_dnn_0_knife_00_knife-0011-sketch-18.png,00_knife-0011-sketch-18.png,0.0,4.829135,5.9665923,-0.8043038
bagnet33,1,661,NaN,bicycle,knife,0,0661_ske_dnn_0_knife_00_knife-0012-sketch-19.png,00_knife-0012-sketch-19.png,0.0,-0.5311159,1.8941708,-1.7149367
bagnet33,1,662,NaN,knife,knife,0,0662_ske_dnn_0_knife_00_knife-0013-sketch-2.png,00_knife-0013-sketch-2.png,1.0,5.832125,4.5678005,0.8940126
bagnet33,1,663,NaN,clock,knife,0,0663_ske_dnn_0_knife_00_knife-0014-sketch-20.png,00_knife-0014-sketch-20.png,0.0,2.8464487,3.1015987,-0.18041836
bagnet33,1,664,NaN,knife,knife,0,0664_ske_dnn_0_knife_00_knife-0015-sketch-21.png,00_knife-0015-sketch-21.png,1.0,11.422584,5.250831,4.364088
bagnet33,1,665,NaN,clock,knife,0,0665_ske_dnn_0_knife_00_knife-0016-sketch-22.png,00_knife-0016-sketch-22.png,0.0,1.3727323,3.2733498,-1.3439395
bagnet33,1,666,NaN,clock,knife,0,0666_ske_dnn_0_knife_00_knife-0017-sketch-23.png,00_knife-0017-sketch-23.png,0.0,1.0109485,3.148002,-1.5111251
bagnet33,1,667,NaN,keyboard,knife,0,0667_ske_dnn_0_knife_00_knife-0018-sketch-24.png,00_knife-0018-sketch-24.png,0.0,1.3077438,2.706573,-0.9891216
bagnet33,1,668,NaN,clock,knife,0,0668_ske_dnn_0_knife_00_knife-0019-sketch-25.png,00_knife-0019-sketch-25.png,0.0,2.244086,3.9849794,-1.2309976
bagnet33,1,669,NaN,clock,knife,0,0669_ske_dnn_0_knife_00_knife-0020-sketch-26.png,00_knife-0020-sketch-26.png,0.0,2.2535987,2.8850613,-0.44651148
bagnet33,1,670,NaN,knife,knife,0,0670_ske_dnn_0_knife_00_knife-0021-sketch-27.png,00_knife-0021-sketch-27.png,1.0,4.3443036,2.580078,1.247496
bagnet33,1,671,NaN,knife,knife,0,0671_ske_dnn_0_knife_00_knife-0022-sketch-28.png,00_knife-0022-sketch-28.png,1.0,11.357773,6.3619313,3.5325935
bagnet33,1,672,NaN,clock,knife,0,0672_ske_dnn_0_knife_00_knife-0023-sketch-29.png,00_knife-0023-sketch-29.png,0.0,2.226074,4.7117343,-1.7576272
bagnet33,1,673,NaN,clock,knife,0,0673_ske_dnn_0_knife_00_knife-0024-sketch-3.png,00_knife-0024-sketch-3.png,0.0,0.80521095,2.1870673,-0.97712
bagnet33,1,674,NaN,clock,knife,0,0674_ske_dnn_0_knife_00_knife-0025-sketch-30.png,00_knife-0025-sketch-30.png,0.0,0.024179995,11.141309,-7.860997
bagnet33,1,675,NaN,clock,knife,0,0675_ske_dnn_0_knife_00_knife-0026-sketch-31.png,00_knife-0026-sketch-31.png,0.0,1.804486,2.1834042,-0.2679356
bagnet33,1,676,NaN,keyboard,knife,0,0676_ske_dnn_0_knife_00_knife-0027-sketch-32.png,00_knife-0027-sketch-32.png,0.0,2.5162215,7.3377504,-3.4093359
bagnet33,1,677,NaN,knife,knife,0,0677_ske_dnn_0_knife_00_knife-0028-sketch-33.png,00_knife-0028-sketch-33.png,1.0,5.861294,4.7472076,0.7877779
bagnet33,1,678,NaN,clock,knife,0,0678_ske_dnn_0_knife_00_knife-0029-sketch-34.png,00_knife-0029-sketch-34.png,0.0,0.7255883,2.0476615,-0.93484694
bagnet33,1,679,NaN,clock,knife,0,0679_ske_dnn_0_knife_00_knife-0030-sketch-35.png,00_knife-0030-sketch-35.png,0.0,0.2812065,2.2044747,-1.359956
bagnet33,1,680,NaN,knife,knife,0,0680_ske_dnn_0_knife_00_knife-0031-sketch-36.png,00_knife-0031-sketch-36.png,1.0,11.055558,4.3831267,4.7181215
bagnet33,1,681,NaN,keyboard,knife,0,0681_ske_dnn_0_knife_00_knife-0032-sketch-37.png,00_knife-0032-sketch-37.png,0.0,1.6834207,4.1997485,-1.7793125
bagnet33,1,682,NaN,clock,knife,0,0682_ske_dnn_0_knife_00_knife-0033-sketch-38.png,00_knife-0033-sketch-38.png,0.0,-0.974721,2.5087051,-2.4631543
bagnet33,1,683,NaN,clock,knife,0,0683_ske_dnn_0_knife_00_knife-0034-sketch-39.png,00_knife-0034-sketch-39.png,0.0,0.7360648,2.5416992,-1.2767763
bagnet33,1,684,NaN,clock,knife,0,0684_ske_dnn_0_knife_00_knife-0035-sketch-4.png,00_knife-0035-sketch-4.png,0.0,-0.17587689,2.3983452,-1.8202499
