subj,session,trial,rt,object_response,category,condition,imagename,filename,is_correct,targ_act,max_nontarg_act,decision_margin
alexnet2023_baseline_pgd,1,1,NaN,airplane,airplane,0,0001_ske_dnn_0_airplane_00_airplane-0001-sketch-0.png,airplane-0001-sketch-0.png,1.0,8.222718,3.8985007,3.0576837
alexnet2023_baseline_pgd,1,2,NaN,airplane,airplane,0,0002_ske_dnn_0_airplane_00_airplane-0002-sketch-1.png,airplane-0002-sketch-1.png,1.0,7.233142,4.66242,1.817775
alexnet2023_baseline_pgd,1,3,NaN,keyboard,airplane,0,0003_ske_dnn_0_airplane_00_airplane-0003-sketch-10.png,airplane-0003-sketch-10.png,0.0,3.0603023,4.947472,-1.3344306
alexnet2023_baseline_pgd,1,4,NaN,keyboard,airplane,0,0004_ske_dnn_0_airplane_00_airplane-0004-sketch-11.png,airplane-0004-sketch-11.png,0.0,2.3188367,4.631257,-1.6351281
alexnet2023_baseline_pgd,1,5,NaN,airplane,airplane,0,0005_ske_dnn_0_airplane_00_airplane-0005-sketch-12.png,airplane-0005-sketch-12.png,1.0,5.31238,4.3850503,0.655721
alexnet2023_baseline_pgd,1,6,NaN,airplane,airplane,0,0006_ske_dnn_0_airplane_00_airplane-0006-sketch-13.png,airplane-0006-sketch-13.png,1.0,15.346345,4.948028,7.3527207
alexnet2023_baseline_pgd,1,7,NaN,airplane,airplane,0,0007_ske_dnn_0_airplane_00_airplane-0007-sketch-14.png,airplane-0007-sketch-14.png,1.0,8.124389,4.201507,2.7738962
alexnet2023_baseline_pgd,1,8,NaN,car,airplane,0,0008_ske_dnn_0_airplane_00_airplane-0008-sketch-15.png,airplane-0008-sketch-15.png,0.0,3.612029,6.9133587,-2.3343925
alexnet2023_baseline_pgd,1,9,NaN,airplane,airplane,0,0009_ske_dnn_0_airplane_00_airplane-0009-sketch-16.png,airplane-0009-sketch-16.png,1.0,5.937394,3.7423573,1.5521255
alexnet2023_baseline_pgd,1,10,NaN,bird,airplane,0,0010_ske_dnn_0_airplane_00_airplane-0010-sketch-17.png,airplane-0010-sketch-17.png,0.0,3.1585543,5.1708493,-1.4229075
alexnet2023_baseline_pgd,1,11,NaN,clock,airplane,0,0011_ske_dnn_0_airplane_00_airplane-0011-sketch-18.png,airplane-0011-sketch-18.png,0.0,3.7742784,4.8673644,-0.77292854
alexnet2023_baseline_pgd,1,12,NaN,truck,airplane,0,0012_ske_dnn_0_airplane_00_airplane-0012-sketch-19.png,airplane-0012-sketch-19.png,0.0,1.9170529,3.4759636,-1.1023164
alexnet2023_baseline_pgd,1,13,NaN,airplane,airplane,0,0013_ske_dnn_0_airplane_00_airplane-0013-sketch-2.png,airplane-0013-sketch-2.png,1.0,9.014487,5.407818,2.5503004
alexnet2023_baseline_pgd,1,14,NaN,airplane,airplane,0,0014_ske_dnn_0_airplane_00_airplane-0014-sketch-20.png,airplane-0014-sketch-20.png,1.0,7.8101096,3.884915,2.7755318
alexnet2023_baseline_pgd,1,15,NaN,airplane,airplane,0,0015_ske_dnn_0_airplane_00_airplane-0015-sketch-21.png,airplane-0015-sketch-21.png,1.0,6.007969,3.696257,1.6346271
alexnet2023_baseline_pgd,1,16,NaN,airplane,airplane,0,0016_ske_dnn_0_airplane_00_airplane-0016-sketch-22.png,airplane-0016-sketch-22.png,1.0,9.493863,3.2017138,4.4492216
alexnet2023_baseline_pgd,1,17,NaN,airplane,airplane,0,0017_ske_dnn_0_airplane_00_airplane-0017-sketch-23.png,airplane-0017-sketch-23.png,1.0,3.3972714,2.514243,0.62439543
alexnet2023_baseline_pgd,1,18,NaN,airplane,airplane,0,0018_ske_dnn_0_airplane_00_airplane-0018-sketch-24.png,airplane-0018-sketch-24.png,1.0,9.8547,5.584352,3.019592
alexnet2023_baseline_pgd,1,19,NaN,knife,airplane,0,0019_ske_dnn_0_airplane_00_airplane-0019-sketch-25.png,airplane-0019-sketch-25.png,0.0,-2.3171842,5.0747805,-5.2269087
alexnet2023_baseline_pgd,1,20,NaN,keyboard,airplane,0,0020_ske_dnn_0_airplane_00_airplane-0020-sketch-26.png,airplane-0020-sketch-26.png,0.0,5.123433,6.4593315,-0.9446228
alexnet2023_baseline_pgd,1,21,NaN,clock,airplane,0,0021_ske_dnn_0_airplane_00_airplane-0021-sketch-27.png,airplane-0021-sketch-27.png,0.0,2.95545,5.1712284,-1.5667919
alexnet2023_baseline_pgd,1,22,NaN,airplane,airplane,0,0022_ske_dnn_0_airplane_00_airplane-0022-sketch-28.png,airplane-0022-sketch-28.png,1.0,6.6921716,5.834098,0.6067498
alexnet2023_baseline_pgd,1,23,NaN,airplane,airplane,0,0023_ske_dnn_0_airplane_00_airplane-0023-sketch-29.png,airplane-0023-sketch-29.png,1.0,4.4868917,3.3311322,0.8172454
alexnet2023_baseline_pgd,1,24,NaN,airplane,airplane,0,0024_ske_dnn_0_airplane_00_airplane-0024-sketch-3.png,airplane-0024-sketch-3.png,1.0,5.231294,5.1844234,0.033142596
alexnet2023_baseline_pgd,1,25,NaN,airplane,airplane,0,0025_ske_dnn_0_airplane_00_airplane-0025-sketch-30.png,airplane-0025-sketch-30.png,1.0,4.7947426,3.9404795,0.6040552
alexnet2023_baseline_pgd,1,26,NaN,airplane,airplane,0,0026_ske_dnn_0_airplane_00_airplane-0027-sketch-32.png,airplane-0027-sketch-32.png,1.0,4.339012,3.3914306,0.6700413
alexnet2023_baseline_pgd,1,27,NaN,keyboard,airplane,0,0027_ske_dnn_0_airplane_00_airplane-0028-sketch-33.png,airplane-0028-sketch-33.png,0.0,5.2022595,6.738477,-1.08627
alexnet2023_baseline_pgd,1,28,NaN,clock,airplane,0,0028_ske_dnn_0_airplane_00_airplane-0029-sketch-34.png,airplane-0029-sketch-34.png,0.0,3.1811523,4.0158243,-0.5902022
alexnet2023_baseline_pgd,1,29,NaN,airplane,airplane,0,0029_ske_dnn_0_airplane_00_airplane-0030-sketch-35.png,airplane-0030-sketch-35.png,1.0,2.6587293,2.2900372,0.26070473
alexnet2023_baseline_pgd,1,30,NaN,airplane,airplane,0,0030_ske_dnn_0_airplane_00_airplane-0031-sketch-36.png,airplane-0031-sketch-36.png,1.0,7.406659,3.494749,2.766138
alexnet2023_baseline_pgd,1,31,NaN,airplane,airplane,0,0031_ske_dnn_0_airplane_00_airplane-0032-sketch-37.png,airplane-0032-sketch-37.png,1.0,7.076352,4.8274083,1.5902435
alexnet2023_baseline_pgd,1,32,NaN,airplane,airplane,0,0032_ske_dnn_0_airplane_00_airplane-0033-sketch-38.png,airplane-0033-sketch-38.png,1.0,5.5461984,3.896914,1.1662202
alexnet2023_baseline_pgd,1,33,NaN,airplane,airplane,0,0033_ske_dnn_0_airplane_00_airplane-0034-sketch-39.png,airplane-0034-sketch-39.png,1.0,4.407782,3.0358293,0.97011715
alexnet2023_baseline_pgd,1,34,NaN,airplane,airplane,0,0034_ske_dnn_0_airplane_00_airplane-0035-sketch-4.png,airplane-0035-sketch-4.png,1.0,3.8357818,2.995742,0.5939978
alexnet2023_baseline_pgd,1,35,NaN,airplane,airplane,0,0035_ske_dnn_0_airplane_00_airplane-0036-sketch-40.png,airplane-0036-sketch-40.png,1.0,11.276485,3.852855,5.2492995
alexnet2023_baseline_pgd,1,36,NaN,airplane,airplane,0,0036_ske_dnn_0_airplane_00_airplane-0037-sketch-41.png,airplane-0037-sketch-41.png,1.0,5.2234745,4.5133305,0.5021477
alexnet2023_baseline_pgd,1,37,NaN,airplane,airplane,0,0037_ske_dnn_0_airplane_00_airplane-0038-sketch-42.png,airplane-0038-sketch-42.png,1.0,4.621969,4.4644895,0.11135501
alexnet2023_baseline_pgd,1,38,NaN,airplane,airplane,0,0038_ske_dnn_0_airplane_00_airplane-0039-sketch-43.png,airplane-0039-sketch-43.png,1.0,9.18273,5.0294175,2.9368353
alexnet2023_baseline_pgd,1,39,NaN,keyboard,airplane,0,0039_ske_dnn_0_airplane_00_airplane-0040-sketch-44.png,airplane-0040-sketch-44.png,0.0,2.7035315,7.9228563,-3.6906202
alexnet2023_baseline_pgd,1,40,NaN,knife,airplane,0,0040_ske_dnn_0_airplane_00_airplane-0041-sketch-45.png,airplane-0041-sketch-45.png,0.0,2.9584,5.0212607,-1.4586629
alexnet2023_baseline_pgd,1,41,NaN,knife,airplane,0,0041_ske_dnn_0_airplane_00_airplane-0042-sketch-46.png,airplane-0042-sketch-46.png,0.0,2.4486837,4.92593,-1.7516776
alexnet2023_baseline_pgd,1,42,NaN,clock,airplane,0,0042_ske_dnn_0_airplane_00_airplane-0043-sketch-47.png,airplane-0043-sketch-47.png,0.0,0.746962,5.4624896,-3.3343816
alexnet2023_baseline_pgd,1,43,NaN,airplane,airplane,0,0043_ske_dnn_0_airplane_00_airplane-0044-sketch-48.png,airplane-0044-sketch-48.png,1.0,4.6406765,3.3346767,0.9234813
alexnet2023_baseline_pgd,1,44,NaN,airplane,airplane,0,0044_ske_dnn_0_airplane_00_airplane-0045-sketch-49.png,airplane-0045-sketch-49.png,1.0,5.545405,3.3967295,1.519343
alexnet2023_baseline_pgd,1,45,NaN,keyboard,airplane,0,0045_ske_dnn_0_airplane_00_airplane-0046-sketch-5.png,airplane-0046-sketch-5.png,0.0,2.2898831,5.2082667,-2.063609
alexnet2023_baseline_pgd,1,46,NaN,airplane,airplane,0,0046_ske_dnn_0_airplane_00_airplane-0047-sketch-50.png,airplane-0047-sketch-50.png,1.0,8.304345,5.2407193,2.1663105
alexnet2023_baseline_pgd,1,47,NaN,airplane,airplane,0,0047_ske_dnn_0_airplane_00_airplane-0048-sketch-6.png,airplane-0048-sketch-6.png,1.0,8.085833,3.711673,3.092998
alexnet2023_baseline_pgd,1,48,NaN,airplane,airplane,0,0048_ske_dnn_0_airplane_00_airplane-0049-sketch-7.png,airplane-0049-sketch-7.png,1.0,7.7300415,5.7689056,1.3867325
alexnet2023_baseline_pgd,1,49,NaN,clock,airplane,0,0049_ske_dnn_0_airplane_00_airplane-0050-sketch-8.png,airplane-0050-sketch-8.png,0.0,1.3104728,5.046886,-2.642043
alexnet2023_baseline_pgd,1,50,NaN,airplane,airplane,0,0050_ske_dnn_0_airplane_00_airplane-0051-sketch-9.png,airplane-0051-sketch-9.png,1.0,5.3524675,3.616618,1.227431
alexnet2023_baseline_pgd,1,51,NaN,bird,bear,0,0051_ske_dnn_0_bear_00_bear-0005-sketch-12.png,bear-0005-sketch-12.png,0.0,-0.6650133,4.535795,-3.677527
alexnet2023_baseline_pgd,1,52,NaN,clock,bear,0,0052_ske_dnn_0_bear_00_bear-0007-sketch-14.png,bear-0007-sketch-14.png,0.0,1.8486283,6.3825912,-3.2059963
alexnet2023_baseline_pgd,1,53,NaN,cat,bear,0,0053_ske_dnn_0_bear_00_bear-0017-sketch-23.png,bear-0017-sketch-23.png,0.0,5.5245876,5.6136627,-0.0629856
alexnet2023_baseline_pgd,1,54,NaN,elephant,bear,0,0054_ske_dnn_0_bear_00_bear-0022-sketch-28.png,bear-0022-sketch-28.png,0.0,3.8435988,9.580332,-4.056483
alexnet2023_baseline_pgd,1,55,NaN,clock,bear,0,0055_ske_dnn_0_bear_00_bear-0023-sketch-29.png,bear-0023-sketch-29.png,0.0,2.7869523,4.6221814,-1.297703
alexnet2023_baseline_pgd,1,56,NaN,bear,bear,0,0056_ske_dnn_0_bear_00_bear-0026-sketch-31.png,bear-0026-sketch-31.png,1.0,6.9154763,6.5953774,0.2263441
alexnet2023_baseline_pgd,1,57,NaN,oven,bear,0,0057_ske_dnn_0_bear_00_bear-0027-sketch-32.png,bear-0027-sketch-32.png,0.0,-0.5927571,4.0648975,-3.2934594
alexnet2023_baseline_pgd,1,58,NaN,bear,bear,0,0058_ske_dnn_0_bear_00_bear-0030-sketch-35.png,bear-0030-sketch-35.png,1.0,4.5258985,4.3134184,0.1502461
alexnet2023_baseline_pgd,1,59,NaN,elephant,bear,0,0059_ske_dnn_0_bear_00_bear-0033-sketch-38.png,bear-0033-sketch-38.png,0.0,4.030333,6.2862177,-1.5951513
alexnet2023_baseline_pgd,1,60,NaN,knife,bear,0,0060_ske_dnn_0_bear_00_bear-0036-sketch-40.png,bear-0036-sketch-40.png,0.0,-0.7936862,3.4211316,-2.9803264
alexnet2023_baseline_pgd,1,61,NaN,cat,bear,0,0061_ske_dnn_0_bear_00_bear-0037-sketch-41.png,bear-0037-sketch-41.png,0.0,5.2531815,6.09691,-0.5966062
alexnet2023_baseline_pgd,1,62,NaN,bear,bear,0,0062_ske_dnn_0_bear_00_bear-0038-sketch-42.png,bear-0038-sketch-42.png,1.0,6.5044413,4.2662807,1.5826186
alexnet2023_baseline_pgd,1,63,NaN,elephant,bear,0,0063_ske_dnn_0_bear_00_bear-0039-sketch-43.png,bear-0039-sketch-43.png,0.0,3.0308135,4.663353,-1.1543797
alexnet2023_baseline_pgd,1,64,NaN,bear,bear,0,0064_ske_dnn_0_bear_00_bear-0041-sketch-45.png,bear-0041-sketch-45.png,1.0,6.204409,4.538679,1.177849
alexnet2023_baseline_pgd,1,65,NaN,bear,bear,0,0065_ske_dnn_0_bear_00_bear-0045-sketch-49.png,bear-0045-sketch-49.png,1.0,8.952909,8.646429,0.21671438
alexnet2023_baseline_pgd,1,66,NaN,elephant,bear,0,0066_ske_dnn_0_bear_00_bear-0048-sketch-7.png,bear-0048-sketch-7.png,0.0,0.5767832,5.5780325,-3.5364172
alexnet2023_baseline_pgd,1,67,NaN,bird,bear,0,0067_ske_dnn_0_bear_00_bear-0049-sketch-8.png,bear-0049-sketch-8.png,0.0,1.2125226,4.5793,-2.3806713
alexnet2023_baseline_pgd,1,68,NaN,cat,bear,0,0068_ske_dnn_0_bear_00_bear-0053-sketch-10.png,bear-0053-sketch-10.png,0.0,4.165446,4.448939,-0.20045985
alexnet2023_baseline_pgd,1,69,NaN,bear,bear,0,0069_ske_dnn_0_bear_00_bear-0059-sketch-16.png,bear-0059-sketch-16.png,1.0,4.9712515,3.0408983,1.3649658
alexnet2023_baseline_pgd,1,70,NaN,bear,bear,0,0070_ske_dnn_0_bear_00_bear-0068-sketch-24.png,bear-0068-sketch-24.png,1.0,11.728191,9.391449,1.6523265
alexnet2023_baseline_pgd,1,71,NaN,bear,bear,0,0071_ske_dnn_0_bear_00_bear-0070-sketch-26.png,bear-0070-sketch-26.png,1.0,2.6437316,1.795125,0.60005546
alexnet2023_baseline_pgd,1,72,NaN,bear,bear,0,0072_ske_dnn_0_bear_00_bear-0073-sketch-29.png,bear-0073-sketch-29.png,1.0,5.59237,4.0135403,1.1164012
alexnet2023_baseline_pgd,1,73,NaN,bear,bear,0,0073_ske_dnn_0_bear_00_bear-0079-sketch-34.png,bear-0079-sketch-34.png,1.0,17.259087,6.0332375,7.9378743
alexnet2023_baseline_pgd,1,74,NaN,bear,bear,0,0074_ske_dnn_0_bear_00_bear-0081-sketch-36.png,bear-0081-sketch-36.png,1.0,9.645435,4.8868017,3.3648622
alexnet2023_baseline_pgd,1,75,NaN,cat,bear,0,0075_ske_dnn_0_bear_00_bear-0085-sketch-4.png,bear-0085-sketch-4.png,0.0,7.4342375,9.032489,-1.1301343
alexnet2023_baseline_pgd,1,76,NaN,bear,bear,0,0076_ske_dnn_0_bear_00_bear-0086-sketch-40.png,bear-0086-sketch-40.png,1.0,10.847791,8.161534,1.8994702
alexnet2023_baseline_pgd,1,77,NaN,clock,bear,0,0077_ske_dnn_0_bear_00_bear-0087-sketch-41.png,bear-0087-sketch-41.png,0.0,-0.09161193,3.4551408,-2.507933
alexnet2023_baseline_pgd,1,78,NaN,knife,bear,0,0078_ske_dnn_0_bear_00_bear-0090-sketch-44.png,bear-0090-sketch-44.png,0.0,-1.0792859,3.944951,-3.552672
alexnet2023_baseline_pgd,1,79,NaN,knife,bear,0,0079_ske_dnn_0_bear_00_bear-0103-sketch-1.png,bear-0103-sketch-1.png,0.0,-0.97899354,5.7506633,-4.758586
alexnet2023_baseline_pgd,1,80,NaN,knife,bear,0,0080_ske_dnn_0_bear_00_bear-0107-sketch-13.png,bear-0107-sketch-13.png,0.0,-0.5661564,5.7274156,-4.4502273
alexnet2023_baseline_pgd,1,81,NaN,dog,bear,0,0081_ske_dnn_0_bear_00_bear-0110-sketch-16.png,bear-0110-sketch-16.png,0.0,0.15963763,2.6549962,-1.7644849
alexnet2023_baseline_pgd,1,82,NaN,knife,bear,0,0082_ske_dnn_0_bear_00_bear-0112-sketch-18.png,bear-0112-sketch-18.png,0.0,1.602835,3.9228168,-1.6404747
alexnet2023_baseline_pgd,1,83,NaN,clock,bear,0,0083_ske_dnn_0_bear_00_bear-0117-sketch-22.png,bear-0117-sketch-22.png,0.0,-2.61072,4.8160934,-5.25155
alexnet2023_baseline_pgd,1,84,NaN,knife,bear,0,0084_ske_dnn_0_bear_00_bear-0123-sketch-28.png,bear-0123-sketch-28.png,0.0,1.7731044,2.921255,-0.81186515
alexnet2023_baseline_pgd,1,85,NaN,clock,bear,0,0085_ske_dnn_0_bear_00_bear-0135-sketch-39.png,bear-0135-sketch-39.png,0.0,-4.034377,6.420729,-7.392877
alexnet2023_baseline_pgd,1,86,NaN,knife,bear,0,0086_ske_dnn_0_bear_00_bear-0136-sketch-4.png,bear-0136-sketch-4.png,0.0,-0.1508664,5.3105655,-3.8618157
alexnet2023_baseline_pgd,1,87,NaN,knife,bear,0,0087_ske_dnn_0_bear_00_bear-0137-sketch-40.png,bear-0137-sketch-40.png,0.0,-0.9766052,2.5762217,-2.512228
alexnet2023_baseline_pgd,1,88,NaN,bear,bear,0,0088_ske_dnn_0_bear_00_bear-0148-sketch-50.png,bear-0148-sketch-50.png,1.0,6.3050704,5.035385,0.89780307
alexnet2023_baseline_pgd,1,89,NaN,knife,bear,0,0089_ske_dnn_0_bear_00_bear-0149-sketch-6.png,bear-0149-sketch-6.png,0.0,-2.4039652,4.192804,-4.6646204
alexnet2023_baseline_pgd,1,90,NaN,bear,bear,0,0090_ske_dnn_0_bear_00_bear-0161-sketch-16.png,bear-0161-sketch-16.png,1.0,8.248951,3.9705677,3.0252738
alexnet2023_baseline_pgd,1,91,NaN,knife,bear,0,0091_ske_dnn_0_bear_00_bear-0166-sketch-20.png,bear-0166-sketch-20.png,0.0,-1.6865941,2.7102664,-3.10905
alexnet2023_baseline_pgd,1,92,NaN,clock,bear,0,0092_ske_dnn_0_bear_00_bear-0170-sketch-24.png,bear-0170-sketch-24.png,0.0,-4.0747886,6.415499,-7.4177537
alexnet2023_baseline_pgd,1,93,NaN,bear,bear,0,0093_ske_dnn_0_bear_00_bear-0171-sketch-25.png,bear-0171-sketch-25.png,1.0,14.04182,5.9799523,5.7006006
alexnet2023_baseline_pgd,1,94,NaN,cat,bear,0,0094_ske_dnn_0_bear_00_bear-0179-sketch-32.png,bear-0179-sketch-32.png,0.0,1.4705806,3.1536863,-1.1901355
alexnet2023_baseline_pgd,1,95,NaN,clock,bear,0,0095_ske_dnn_0_bear_00_bear-0187-sketch-4.png,bear-0187-sketch-4.png,0.0,-1.0522635,7.4619446,-6.0204544
alexnet2023_baseline_pgd,1,96,NaN,bear,bear,0,0096_ske_dnn_0_bear_00_bear-0188-sketch-40.png,bear-0188-sketch-40.png,1.0,5.840309,5.384224,0.32250094
alexnet2023_baseline_pgd,1,97,NaN,clock,bear,0,0097_ske_dnn_0_bear_00_bear-0195-sketch-47.png,bear-0195-sketch-47.png,0.0,2.8142447,6.0691414,-2.3015594
alexnet2023_baseline_pgd,1,98,NaN,bear,bear,0,0098_ske_dnn_0_bear_00_bear-0198-sketch-5.png,bear-0198-sketch-5.png,1.0,6.6857514,4.661198,1.4315754
alexnet2023_baseline_pgd,1,99,NaN,bottle,bear,0,0099_ske_dnn_0_bear_00_bear-0199-sketch-50.png,bear-0199-sketch-50.png,0.0,0.6436887,3.6976292,-2.1594622
alexnet2023_baseline_pgd,1,100,NaN,keyboard,bear,0,0100_ske_dnn_0_bear_00_bear-0201-sketch-7.png,bear-0201-sketch-7.png,0.0,0.6018592,2.7502396,-1.5191343
alexnet2023_baseline_pgd,1,101,NaN,bicycle,bicycle,0,0101_ske_dnn_0_bicycle_00_bicycle-0002-sketch-1.png,bicycle-0002-sketch-1.png,1.0,21.1706,6.814194,10.151513
alexnet2023_baseline_pgd,1,102,NaN,bottle,bicycle,0,0102_ske_dnn_0_bicycle_00_bicycle-0003-sketch-10.png,bicycle-0003-sketch-10.png,0.0,1.1222327,5.3155847,-2.9651475
alexnet2023_baseline_pgd,1,103,NaN,bicycle,bicycle,0,0103_ske_dnn_0_bicycle_00_bicycle-0004-sketch-11.png,bicycle-0004-sketch-11.png,1.0,14.389476,3.1514006,7.9465194
alexnet2023_baseline_pgd,1,104,NaN,bicycle,bicycle,0,0104_ske_dnn_0_bicycle_00_bicycle-0008-sketch-15.png,bicycle-0008-sketch-15.png,1.0,8.698288,1.9846979,4.7472253
alexnet2023_baseline_pgd,1,105,NaN,bicycle,bicycle,0,0105_ske_dnn_0_bicycle_00_bicycle-0011-sketch-18.png,bicycle-0011-sketch-18.png,1.0,14.187832,4.769247,6.6599455
alexnet2023_baseline_pgd,1,106,NaN,bicycle,bicycle,0,0106_ske_dnn_0_bicycle_00_bicycle-0013-sketch-2.png,bicycle-0013-sketch-2.png,1.0,11.653984,1.6510816,7.0731206
alexnet2023_baseline_pgd,1,107,NaN,bottle,bicycle,0,0107_ske_dnn_0_bicycle_00_bicycle-0016-sketch-22.png,bicycle-0016-sketch-22.png,0.0,0.62669045,6.038346,-3.8266184
alexnet2023_baseline_pgd,1,108,NaN,bicycle,bicycle,0,0108_ske_dnn_0_bicycle_00_bicycle-0019-sketch-25.png,bicycle-0019-sketch-25.png,1.0,13.53429,8.816895,3.3357027
alexnet2023_baseline_pgd,1,109,NaN,bicycle,bicycle,0,0109_ske_dnn_0_bicycle_00_bicycle-0020-sketch-26.png,bicycle-0020-sketch-26.png,1.0,5.956132,4.8293,0.79679054
alexnet2023_baseline_pgd,1,110,NaN,bicycle,bicycle,0,0110_ske_dnn_0_bicycle_00_bicycle-0022-sketch-28.png,bicycle-0022-sketch-28.png,1.0,6.374652,1.1614244,3.6863084
alexnet2023_baseline_pgd,1,111,NaN,bicycle,bicycle,0,0111_ske_dnn_0_bicycle_00_bicycle-0023-sketch-29.png,bicycle-0023-sketch-29.png,1.0,9.631231,4.4964542,3.6308358
alexnet2023_baseline_pgd,1,112,NaN,clock,bicycle,0,0112_ske_dnn_0_bicycle_00_bicycle-0025-sketch-30.png,bicycle-0025-sketch-30.png,0.0,4.633482,6.3772445,-1.2330263
alexnet2023_baseline_pgd,1,113,NaN,bicycle,bicycle,0,0113_ske_dnn_0_bicycle_00_bicycle-0026-sketch-31.png,bicycle-0026-sketch-31.png,1.0,6.839025,2.6487257,2.9629889
alexnet2023_baseline_pgd,1,114,NaN,bicycle,bicycle,0,0114_ske_dnn_0_bicycle_00_bicycle-0031-sketch-36.png,bicycle-0031-sketch-36.png,1.0,4.657452,1.5967901,2.1642148
alexnet2023_baseline_pgd,1,115,NaN,bicycle,bicycle,0,0115_ske_dnn_0_bicycle_00_bicycle-0034-sketch-39.png,bicycle-0034-sketch-39.png,1.0,6.552474,3.4339194,2.205151
alexnet2023_baseline_pgd,1,116,NaN,bicycle,bicycle,0,0116_ske_dnn_0_bicycle_00_bicycle-0037-sketch-41.png,bicycle-0037-sketch-41.png,1.0,10.060709,4.3607984,4.0304456
alexnet2023_baseline_pgd,1,117,NaN,clock,bicycle,0,0117_ske_dnn_0_bicycle_00_bicycle-0038-sketch-42.png,bicycle-0038-sketch-42.png,0.0,4.9260554,6.2237096,-0.91758007
alexnet2023_baseline_pgd,1,118,NaN,bicycle,bicycle,0,0118_ske_dnn_0_bicycle_00_bicycle-0039-sketch-43.png,bicycle-0039-sketch-43.png,1.0,5.3678036,2.6292624,1.9364411
alexnet2023_baseline_pgd,1,119,NaN,bicycle,bicycle,0,0119_ske_dnn_0_bicycle_00_bicycle-0040-sketch-44.png,bicycle-0040-sketch-44.png,1.0,6.1592717,1.9800357,2.955166
alexnet2023_baseline_pgd,1,120,NaN,bicycle,bicycle,0,0120_ske_dnn_0_bicycle_00_bicycle-0044-sketch-48.png,bicycle-0044-sketch-48.png,1.0,11.141939,2.090328,6.4004555
alexnet2023_baseline_pgd,1,121,NaN,bicycle,bicycle,0,0121_ske_dnn_0_bicycle_00_bicycle-0045-sketch-49.png,bicycle-0045-sketch-49.png,1.0,21.1706,6.814194,10.151513
alexnet2023_baseline_pgd,1,122,NaN,bicycle,bicycle,0,0122_ske_dnn_0_bicycle_00_bicycle-0046-sketch-5.png,bicycle-0046-sketch-5.png,1.0,12.508614,4.284325,5.8154507
alexnet2023_baseline_pgd,1,123,NaN,bicycle,bicycle,0,0123_ske_dnn_0_bicycle_00_bicycle-0047-sketch-50.png,bicycle-0047-sketch-50.png,1.0,11.653984,1.6510816,7.0731206
alexnet2023_baseline_pgd,1,124,NaN,bicycle,bicycle,0,0124_ske_dnn_0_bicycle_00_bicycle-0048-sketch-6.png,bicycle-0048-sketch-6.png,1.0,12.232254,3.6586246,6.0624714
alexnet2023_baseline_pgd,1,125,NaN,bicycle,bicycle,0,0125_ske_dnn_0_bicycle_00_bicycle-0053-sketch-1.png,bicycle-0053-sketch-1.png,1.0,8.173854,1.5965301,4.6508703
alexnet2023_baseline_pgd,1,126,NaN,bicycle,bicycle,0,0126_ske_dnn_0_bicycle_00_bicycle-0054-sketch-10.png,bicycle-0054-sketch-10.png,1.0,8.002396,1.3244913,4.7219915
alexnet2023_baseline_pgd,1,127,NaN,bicycle,bicycle,0,0127_ske_dnn_0_bicycle_00_bicycle-0056-sketch-12.png,bicycle-0056-sketch-12.png,1.0,6.7761135,3.967065,1.9862972
alexnet2023_baseline_pgd,1,128,NaN,clock,bicycle,0,0128_ske_dnn_0_bicycle_00_bicycle-0057-sketch-13.png,bicycle-0057-sketch-13.png,0.0,1.810161,4.9836264,-2.2439787
alexnet2023_baseline_pgd,1,129,NaN,bicycle,bicycle,0,0129_ske_dnn_0_bicycle_00_bicycle-0058-sketch-14.png,bicycle-0058-sketch-14.png,1.0,4.6720915,2.8008218,1.3231875
alexnet2023_baseline_pgd,1,130,NaN,clock,bicycle,0,0130_ske_dnn_0_bicycle_00_bicycle-0059-sketch-15.png,bicycle-0059-sketch-15.png,0.0,-0.519028,7.3677564,-5.576799
alexnet2023_baseline_pgd,1,131,NaN,bicycle,bicycle,0,0131_ske_dnn_0_bicycle_00_bicycle-0060-sketch-16.png,bicycle-0060-sketch-16.png,1.0,14.284925,4.3480496,7.0264325
alexnet2023_baseline_pgd,1,132,NaN,bicycle,bicycle,0,0132_ske_dnn_0_bicycle_00_bicycle-0062-sketch-18.png,bicycle-0062-sketch-18.png,1.0,13.51604,4.694899,6.2374883
alexnet2023_baseline_pgd,1,133,NaN,bicycle,bicycle,0,0133_ske_dnn_0_bicycle_00_bicycle-0066-sketch-21.png,bicycle-0066-sketch-21.png,1.0,10.141249,3.6110866,4.617522
alexnet2023_baseline_pgd,1,134,NaN,bicycle,bicycle,0,0134_ske_dnn_0_bicycle_00_bicycle-0068-sketch-23.png,bicycle-0068-sketch-23.png,1.0,19.107834,5.3551393,9.724624
alexnet2023_baseline_pgd,1,135,NaN,bicycle,bicycle,0,0135_ske_dnn_0_bicycle_00_bicycle-0070-sketch-25.png,bicycle-0070-sketch-25.png,1.0,11.698847,4.1693225,5.3241777
alexnet2023_baseline_pgd,1,136,NaN,bicycle,bicycle,0,0136_ske_dnn_0_bicycle_00_bicycle-0071-sketch-26.png,bicycle-0071-sketch-26.png,1.0,11.084466,5.919653,3.6520743
alexnet2023_baseline_pgd,1,137,NaN,bicycle,bicycle,0,0137_ske_dnn_0_bicycle_00_bicycle-0075-sketch-3.png,bicycle-0075-sketch-3.png,1.0,16.54546,4.1761456,8.746426
alexnet2023_baseline_pgd,1,138,NaN,bicycle,bicycle,0,0138_ske_dnn_0_bicycle_00_bicycle-0078-sketch-32.png,bicycle-0078-sketch-32.png,1.0,16.501287,3.4422839,9.23411
alexnet2023_baseline_pgd,1,139,NaN,bicycle,bicycle,0,0139_ske_dnn_0_bicycle_00_bicycle-0080-sketch-34.png,bicycle-0080-sketch-34.png,1.0,13.03017,5.7789154,5.127412
alexnet2023_baseline_pgd,1,140,NaN,bicycle,bicycle,0,0140_ske_dnn_0_bicycle_00_bicycle-0081-sketch-35.png,bicycle-0081-sketch-35.png,1.0,14.814457,3.4169247,8.059273
alexnet2023_baseline_pgd,1,141,NaN,bicycle,bicycle,0,0141_ske_dnn_0_bicycle_00_bicycle-0083-sketch-37.png,bicycle-0083-sketch-37.png,1.0,10.010136,7.8559537,1.5232368
alexnet2023_baseline_pgd,1,142,NaN,bicycle,bicycle,0,0142_ske_dnn_0_bicycle_00_bicycle-0084-sketch-38.png,bicycle-0084-sketch-38.png,1.0,10.290373,6.567534,2.6324446
alexnet2023_baseline_pgd,1,143,NaN,bicycle,bicycle,0,0143_ske_dnn_0_bicycle_00_bicycle-0087-sketch-40.png,bicycle-0087-sketch-40.png,1.0,18.111454,3.1014836,10.613652
alexnet2023_baseline_pgd,1,144,NaN,bicycle,bicycle,0,0144_ske_dnn_0_bicycle_00_bicycle-0090-sketch-43.png,bicycle-0090-sketch-43.png,1.0,19.868046,6.805758,9.236433
alexnet2023_baseline_pgd,1,145,NaN,clock,bicycle,0,0145_ske_dnn_0_bicycle_00_bicycle-0094-sketch-47.png,bicycle-0094-sketch-47.png,0.0,-0.5051513,7.7688546,-5.850606
alexnet2023_baseline_pgd,1,146,NaN,bicycle,bicycle,0,0146_ske_dnn_0_bicycle_00_bicycle-0095-sketch-48.png,bicycle-0095-sketch-48.png,1.0,14.477819,5.41118,6.411082
alexnet2023_baseline_pgd,1,147,NaN,bicycle,bicycle,0,0147_ske_dnn_0_bicycle_00_bicycle-0098-sketch-50.png,bicycle-0098-sketch-50.png,1.0,13.332191,5.725142,5.3789964
alexnet2023_baseline_pgd,1,148,NaN,bicycle,bicycle,0,0148_ske_dnn_0_bicycle_00_bicycle-0099-sketch-6.png,bicycle-0099-sketch-6.png,1.0,9.130478,5.932815,2.261089
alexnet2023_baseline_pgd,1,149,NaN,bicycle,bicycle,0,0149_ske_dnn_0_bicycle_00_bicycle-0101-sketch-8.png,bicycle-0101-sketch-8.png,1.0,17.089317,2.6803498,10.188679
alexnet2023_baseline_pgd,1,150,NaN,bicycle,bicycle,0,0150_ske_dnn_0_bicycle_00_bicycle-0102-sketch-9.png,bicycle-0102-sketch-9.png,1.0,6.4203463,4.955049,1.0361216
alexnet2023_baseline_pgd,1,151,NaN,clock,bird,0,0151_ske_dnn_0_bird_00_bird-0030-sketch-35.png,bird-0030-sketch-35.png,0.0,1.2358956,5.2984576,-2.8726652
alexnet2023_baseline_pgd,1,152,NaN,bird,bird,0,0152_ske_dnn_0_bird_00_bird-0047-sketch-50.png,bird-0047-sketch-50.png,1.0,4.1564155,2.3388906,1.2851843
alexnet2023_baseline_pgd,1,153,NaN,knife,bird,0,0153_ske_dnn_0_bird_00_bird-0072-sketch-27.png,bird-0072-sketch-27.png,0.0,2.902429,2.981984,-0.05625374
alexnet2023_baseline_pgd,1,154,NaN,bird,bird,0,0154_ske_dnn_0_bird_00_bird-0228-sketch-3.png,bird-0228-sketch-3.png,1.0,10.432571,3.5101068,4.894922
alexnet2023_baseline_pgd,1,155,NaN,bird,bird,0,0155_ske_dnn_0_bird_00_bird-0274-sketch-25.png,bird-0274-sketch-25.png,1.0,4.415943,4.0474505,0.2605636
alexnet2023_baseline_pgd,1,156,NaN,bird,bird,0,0156_ske_dnn_0_bird_00_bird-0292-sketch-41.png,bird-0292-sketch-41.png,1.0,6.556798,2.7761383,2.67333
alexnet2023_baseline_pgd,1,157,NaN,knife,bird,0,0157_ske_dnn_0_bird_00_bird-0316-sketch-17.png,bird-0316-sketch-17.png,0.0,0.38194737,5.22131,-3.4219463
alexnet2023_baseline_pgd,1,158,NaN,clock,bird,0,0158_ske_dnn_0_bird_00_bird-0325-sketch-25.png,bird-0325-sketch-25.png,0.0,1.4094121,4.6342225,-2.2802854
alexnet2023_baseline_pgd,1,159,NaN,bird,bird,0,0159_ske_dnn_0_bird_00_bird-0357-sketch-9.png,bird-0357-sketch-9.png,1.0,7.6833196,1.9026257,4.087568
alexnet2023_baseline_pgd,1,160,NaN,bird,bird,0,0160_ske_dnn_0_bird_00_bird-0384-sketch-32.png,bird-0384-sketch-32.png,1.0,5.1494603,4.0928617,0.74712807
alexnet2023_baseline_pgd,1,161,NaN,bird,bird,0,0161_ske_dnn_0_bird_00_bird-0415-sketch-14.png,bird-0415-sketch-14.png,1.0,7.192545,3.7975397,2.4006312
alexnet2023_baseline_pgd,1,162,NaN,bicycle,bird,0,0162_ske_dnn_0_bird_00_bird-0474-sketch-21.png,bird-0474-sketch-21.png,0.0,3.820571,4.262037,-0.3121635
alexnet2023_baseline_pgd,1,163,NaN,bird,bird,0,0163_ske_dnn_0_bird_00_bird-0479-sketch-26.png,bird-0479-sketch-26.png,1.0,4.5937934,1.9017187,1.9035844
alexnet2023_baseline_pgd,1,164,NaN,bird,bird,0,0164_ske_dnn_0_bird_00_bird-0491-sketch-37.png,bird-0491-sketch-37.png,1.0,5.1337423,4.2863803,0.59917545
alexnet2023_baseline_pgd,1,165,NaN,bird,bird,0,0165_ske_dnn_0_bird_00_bird-0578-sketch-23.png,bird-0578-sketch-23.png,1.0,5.5087247,3.0308356,1.7521322
alexnet2023_baseline_pgd,1,166,NaN,bird,bird,0,0166_ske_dnn_0_bird_00_bird-0640-sketch-33.png,bird-0640-sketch-33.png,1.0,4.0780582,3.302205,0.54861104
alexnet2023_baseline_pgd,1,167,NaN,bird,bird,0,0167_ske_dnn_0_bird_00_bird-0646-sketch-39.png,bird-0646-sketch-39.png,1.0,3.4041395,2.990137,0.29274392
alexnet2023_baseline_pgd,1,168,NaN,clock,bird,0,0168_ske_dnn_0_bird_00_bird-0685-sketch-28.png,bird-0685-sketch-28.png,0.0,2.4979455,3.4225445,-0.6537902
alexnet2023_baseline_pgd,1,169,NaN,knife,bird,0,0169_ske_dnn_0_bird_00_bird-0694-sketch-36.png,bird-0694-sketch-36.png,0.0,3.5503988,4.3391185,-0.55770904
alexnet2023_baseline_pgd,1,170,NaN,bicycle,bird,0,0170_ske_dnn_0_bird_00_bird-0733-sketch-25.png,bird-0733-sketch-25.png,0.0,3.6097643,3.7201037,-0.07802174
alexnet2023_baseline_pgd,1,171,NaN,bird,bird,0,0171_ske_dnn_0_bird_00_bird-0748-sketch-39.png,bird-0748-sketch-39.png,1.0,8.706767,1.9867069,4.7518005
alexnet2023_baseline_pgd,1,172,NaN,bird,bird,0,0172_ske_dnn_0_bird_00_bird-0749-sketch-4.png,bird-0749-sketch-4.png,1.0,5.2394934,2.7004724,1.795359
alexnet2023_baseline_pgd,1,173,NaN,bird,bird,0,0173_ske_dnn_0_bird_00_bird-0809-sketch-48.png,bird-0809-sketch-48.png,1.0,6.8451514,1.9613094,3.4533978
alexnet2023_baseline_pgd,1,174,NaN,bird,bird,0,0174_ske_dnn_0_bird_00_bird-0834-sketch-24.png,bird-0834-sketch-24.png,1.0,4.966271,1.5070145,2.4460638
alexnet2023_baseline_pgd,1,175,NaN,bird,bird,0,0175_ske_dnn_0_bird_00_bird-0880-sketch-2.png,bird-0880-sketch-2.png,1.0,3.33804,1.8251129,1.0698011
alexnet2023_baseline_pgd,1,176,NaN,elephant,bird,0,0176_ske_dnn_0_bird_00_bird-0939-sketch-27.png,bird-0939-sketch-27.png,0.0,1.8583812,3.3417585,-1.0489062
alexnet2023_baseline_pgd,1,177,NaN,bird,bird,0,0177_ske_dnn_0_bird_00_bird-0954-sketch-40.png,bird-0954-sketch-40.png,1.0,6.1830583,4.4390507,1.2331996
alexnet2023_baseline_pgd,1,178,NaN,knife,bird,0,0178_ske_dnn_0_bird_00_bird-1033-sketch-20.png,bird-1033-sketch-20.png,0.0,4.0953574,4.169355,-0.052324135
alexnet2023_baseline_pgd,1,179,NaN,bird,bird,0,0179_ske_dnn_0_bird_00_bird-1081-sketch-18.png,bird-1081-sketch-18.png,1.0,6.9976587,6.663351,0.23639123
alexnet2023_baseline_pgd,1,180,NaN,knife,bird,0,0180_ske_dnn_0_bird_00_bird-1096-sketch-31.png,bird-1096-sketch-31.png,0.0,2.31574,5.9835076,-2.5935032
alexnet2023_baseline_pgd,1,181,NaN,bottle,bird,0,0181_ske_dnn_0_bird_00_bird-1148-sketch-32.png,bird-1148-sketch-32.png,0.0,0.80238825,2.4592032,-1.1715451
alexnet2023_baseline_pgd,1,182,NaN,bird,bird,0,0182_ske_dnn_0_bird_00_bird-1201-sketch-34.png,bird-1201-sketch-34.png,1.0,11.238183,3.8177545,5.247035
alexnet2023_baseline_pgd,1,183,NaN,bird,bird,0,0183_ske_dnn_0_bird_00_bird-1342-sketch-24.png,bird-1342-sketch-24.png,1.0,10.184629,5.626429,3.2231345
alexnet2023_baseline_pgd,1,184,NaN,bird,bird,0,0184_ske_dnn_0_bird_00_bird-1510-sketch-39.png,bird-1510-sketch-39.png,1.0,4.7301397,3.1782684,1.0973388
alexnet2023_baseline_pgd,1,185,NaN,bicycle,bird,0,0185_ske_dnn_0_bird_00_bird-1562-sketch-40.png,bird-1562-sketch-40.png,0.0,0.35675836,4.007307,-2.5813277
alexnet2023_baseline_pgd,1,186,NaN,bird,bird,0,0186_ske_dnn_0_bird_00_bird-1565-sketch-43.png,bird-1565-sketch-43.png,1.0,3.3313358,2.8113363,0.36769518
alexnet2023_baseline_pgd,1,187,NaN,bicycle,bird,0,0187_ske_dnn_0_bird_00_bird-1702-sketch-29.png,bird-1702-sketch-29.png,0.0,1.61394,3.0894744,-1.0433605
alexnet2023_baseline_pgd,1,188,NaN,bird,bird,0,0188_ske_dnn_0_bird_00_bird-1721-sketch-46.png,bird-1721-sketch-46.png,1.0,9.057154,5.695344,2.3771584
alexnet2023_baseline_pgd,1,189,NaN,bird,bird,0,0189_ske_dnn_0_bird_00_bird-1740-sketch-17.png,bird-1740-sketch-17.png,1.0,4.047815,3.3032663,0.52647537
alexnet2023_baseline_pgd,1,190,NaN,bottle,bird,0,0190_ske_dnn_0_bird_00_bird-1749-sketch-25.png,bird-1749-sketch-25.png,0.0,0.31035885,2.3401086,-1.4352499
alexnet2023_baseline_pgd,1,191,NaN,chair,bird,0,0191_ske_dnn_0_bird_00_bird-1756-sketch-31.png,bird-1756-sketch-31.png,0.0,1.9728409,3.448675,-1.0435723
alexnet2023_baseline_pgd,1,192,NaN,bird,bird,0,0192_ske_dnn_0_bird_00_bird-1860-sketch-33.png,bird-1860-sketch-33.png,1.0,9.310684,2.1119285,5.090289
alexnet2023_baseline_pgd,1,193,NaN,bird,bird,0,0193_ske_dnn_0_bird_00_bird-1937-sketch-10.png,bird-1937-sketch-10.png,1.0,10.936084,1.002087,7.024397
alexnet2023_baseline_pgd,1,194,NaN,bird,bird,0,0194_ske_dnn_0_bird_00_bird-1948-sketch-20.png,bird-1948-sketch-20.png,1.0,4.258636,2.5822601,1.1853768
alexnet2023_baseline_pgd,1,195,NaN,knife,bird,0,0195_ske_dnn_0_bird_00_bird-2010-sketch-30.png,bird-2010-sketch-30.png,0.0,3.107572,3.57364,-0.32955986
alexnet2023_baseline_pgd,1,196,NaN,bird,bird,0,0196_ske_dnn_0_bird_00_bird-2169-sketch-36.png,bird-2169-sketch-36.png,1.0,3.718409,1.9558992,1.2462827
alexnet2023_baseline_pgd,1,197,NaN,bird,bird,0,0197_ske_dnn_0_bird_00_bird-2262-sketch-28.png,bird-2262-sketch-28.png,1.0,4.099512,1.7032824,1.6943903
alexnet2023_baseline_pgd,1,198,NaN,bird,bird,0,0198_ske_dnn_0_bird_00_bird-2312-sketch-27.png,bird-2312-sketch-27.png,1.0,5.209814,5.0350432,0.12358164
alexnet2023_baseline_pgd,1,199,NaN,chair,bird,0,0199_ske_dnn_0_bird_00_bird-2313-sketch-28.png,bird-2313-sketch-28.png,0.0,1.4793766,3.0721946,-1.1262925
alexnet2023_baseline_pgd,1,200,NaN,bird,bird,0,0200_ske_dnn_0_bird_00_bird-2372-sketch-36.png,bird-2372-sketch-36.png,1.0,4.601268,3.7439046,0.60624737
alexnet2023_baseline_pgd,1,201,NaN,knife,boat,0,0201_ske_dnn_0_boat_00_boat-0001-sketch-0.png,boat-0001-sketch-0.png,0.0,0.5109398,2.9643373,-1.734814
alexnet2023_baseline_pgd,1,202,NaN,boat,boat,0,0202_ske_dnn_0_boat_00_boat-0002-sketch-1.png,boat-0002-sketch-1.png,1.0,8.227907,4.6133213,2.5558982
alexnet2023_baseline_pgd,1,203,NaN,keyboard,boat,0,0203_ske_dnn_0_boat_00_boat-0010-sketch-17.png,boat-0010-sketch-17.png,0.0,-0.13849688,3.7520223,-2.7510126
alexnet2023_baseline_pgd,1,204,NaN,bird,boat,0,0204_ske_dnn_0_boat_00_boat-0016-sketch-22.png,boat-0016-sketch-22.png,0.0,-0.71770877,3.39404,-2.9074454
alexnet2023_baseline_pgd,1,205,NaN,clock,boat,0,0205_ske_dnn_0_boat_00_boat-0029-sketch-34.png,boat-0029-sketch-34.png,0.0,-2.686314,4.763122,-5.267547
alexnet2023_baseline_pgd,1,206,NaN,airplane,boat,0,0206_ske_dnn_0_boat_00_boat-0034-sketch-39.png,boat-0034-sketch-39.png,0.0,1.4212601,6.981205,-3.931475
alexnet2023_baseline_pgd,1,207,NaN,knife,boat,0,0207_ske_dnn_0_boat_00_boat-0036-sketch-40.png,boat-0036-sketch-40.png,0.0,0.7762335,9.155139,-5.924781
alexnet2023_baseline_pgd,1,208,NaN,keyboard,boat,0,0208_ske_dnn_0_boat_00_boat-0051-sketch-9.png,boat-0051-sketch-9.png,0.0,0.4217655,5.3861065,-3.5103195
alexnet2023_baseline_pgd,1,209,NaN,boat,boat,0,0209_ske_dnn_0_boat_00_boat-0052-sketch-0.png,boat-0052-sketch-0.png,1.0,7.3065248,5.3161283,1.4074229
alexnet2023_baseline_pgd,1,210,NaN,airplane,boat,0,0210_ske_dnn_0_boat_00_boat-0059-sketch-15.png,boat-0059-sketch-15.png,0.0,6.551299,8.679702,-1.505008
alexnet2023_baseline_pgd,1,211,NaN,oven,boat,0,0211_ske_dnn_0_boat_00_boat-0064-sketch-2.png,boat-0064-sketch-2.png,0.0,-1.0339826,4.1058607,-3.6344182
alexnet2023_baseline_pgd,1,212,NaN,airplane,boat,0,0212_ske_dnn_0_boat_00_boat-0065-sketch-20.png,boat-0065-sketch-20.png,0.0,2.213853,7.6938586,-3.8749492
alexnet2023_baseline_pgd,1,213,NaN,keyboard,boat,0,0213_ske_dnn_0_boat_00_boat-0067-sketch-22.png,boat-0067-sketch-22.png,0.0,2.9423285,6.4132605,-2.4543197
alexnet2023_baseline_pgd,1,214,NaN,bicycle,boat,0,0214_ske_dnn_0_boat_00_boat-0068-sketch-23.png,boat-0068-sketch-23.png,0.0,3.154759,4.582141,-1.0093116
alexnet2023_baseline_pgd,1,215,NaN,bicycle,boat,0,0215_ske_dnn_0_boat_00_boat-0070-sketch-25.png,boat-0070-sketch-25.png,0.0,3.496378,4.890096,-0.98550767
alexnet2023_baseline_pgd,1,216,NaN,bird,boat,0,0216_ske_dnn_0_boat_00_boat-0074-sketch-29.png,boat-0074-sketch-29.png,0.0,0.8650902,2.3279965,-1.034431
alexnet2023_baseline_pgd,1,217,NaN,clock,boat,0,0217_ske_dnn_0_boat_00_boat-0079-sketch-33.png,boat-0079-sketch-33.png,0.0,-1.0255711,3.9435976,-3.513733
alexnet2023_baseline_pgd,1,218,NaN,bicycle,boat,0,0218_ske_dnn_0_boat_00_boat-0080-sketch-34.png,boat-0080-sketch-34.png,0.0,3.1065514,6.482858,-2.3874094
alexnet2023_baseline_pgd,1,219,NaN,chair,boat,0,0219_ske_dnn_0_boat_00_boat-0085-sketch-39.png,boat-0085-sketch-39.png,0.0,2.8371682,3.6053996,-0.54322165
alexnet2023_baseline_pgd,1,220,NaN,bottle,boat,0,0220_ske_dnn_0_boat_00_boat-0088-sketch-41.png,boat-0088-sketch-41.png,0.0,3.5619278,3.9195292,-0.2528624
alexnet2023_baseline_pgd,1,221,NaN,boat,boat,0,0221_ske_dnn_0_boat_00_boat-0094-sketch-47.png,boat-0094-sketch-47.png,1.0,9.316508,6.101088,2.2736454
alexnet2023_baseline_pgd,1,222,NaN,clock,boat,0,0222_ske_dnn_0_boat_00_boat-0099-sketch-6.png,boat-0099-sketch-6.png,0.0,3.5661817,5.489105,-1.3597124
alexnet2023_baseline_pgd,1,223,NaN,knife,boat,0,0223_ske_dnn_0_boat_00_boat-0107-sketch-12.png,boat-0107-sketch-12.png,0.0,2.1455362,3.9450781,-1.2724683
alexnet2023_baseline_pgd,1,224,NaN,airplane,boat,0,0224_ske_dnn_0_boat_00_boat-0108-sketch-13.png,boat-0108-sketch-13.png,0.0,2.5749574,3.279427,-0.4981353
alexnet2023_baseline_pgd,1,225,NaN,knife,boat,0,0225_ske_dnn_0_boat_00_boat-0110-sketch-15.png,boat-0110-sketch-15.png,0.0,-2.2069468,4.12152,-4.474902
alexnet2023_baseline_pgd,1,226,NaN,bicycle,boat,0,0226_ske_dnn_0_boat_00_boat-0113-sketch-18.png,boat-0113-sketch-18.png,0.0,0.9316859,4.001154,-2.1704416
alexnet2023_baseline_pgd,1,227,NaN,knife,boat,0,0227_ske_dnn_0_boat_00_boat-0115-sketch-2.png,boat-0115-sketch-2.png,0.0,-2.2992017,3.8747756,-4.365661
alexnet2023_baseline_pgd,1,228,NaN,bicycle,boat,0,0228_ske_dnn_0_boat_00_boat-0123-sketch-27.png,boat-0123-sketch-27.png,0.0,2.8588088,4.47071,-1.1397861
alexnet2023_baseline_pgd,1,229,NaN,knife,boat,0,0229_ske_dnn_0_boat_00_boat-0124-sketch-28.png,boat-0124-sketch-28.png,0.0,-3.3551903,3.3315804,-4.728261
alexnet2023_baseline_pgd,1,230,NaN,knife,boat,0,0230_ske_dnn_0_boat_00_boat-0125-sketch-29.png,boat-0125-sketch-29.png,0.0,-0.8533357,3.5336328,-3.1020553
alexnet2023_baseline_pgd,1,231,NaN,knife,boat,0,0231_ske_dnn_0_boat_00_boat-0126-sketch-3.png,boat-0126-sketch-3.png,0.0,0.14977375,3.4809098,-2.355469
alexnet2023_baseline_pgd,1,232,NaN,bottle,boat,0,0232_ske_dnn_0_boat_00_boat-0128-sketch-31.png,boat-0128-sketch-31.png,0.0,-3.2145538,1.7018948,-3.4764543
alexnet2023_baseline_pgd,1,233,NaN,car,boat,0,0233_ske_dnn_0_boat_00_boat-0130-sketch-33.png,boat-0130-sketch-33.png,0.0,0.53997123,4.284723,-2.6479392
alexnet2023_baseline_pgd,1,234,NaN,car,boat,0,0234_ske_dnn_0_boat_00_boat-0132-sketch-35.png,boat-0132-sketch-35.png,0.0,0.6004293,4.205627,-2.5492597
alexnet2023_baseline_pgd,1,235,NaN,bicycle,boat,0,0235_ske_dnn_0_boat_00_boat-0146-sketch-48.png,boat-0146-sketch-48.png,0.0,0.81705266,3.6331248,-1.9912637
alexnet2023_baseline_pgd,1,236,NaN,airplane,boat,0,0236_ske_dnn_0_boat_00_boat-0152-sketch-8.png,boat-0152-sketch-8.png,0.0,2.8617275,4.564774,-1.2042358
alexnet2023_baseline_pgd,1,237,NaN,knife,boat,0,0237_ske_dnn_0_boat_00_boat-0165-sketch-19.png,boat-0165-sketch-19.png,0.0,-1.0198578,5.5551214,-4.6492124
alexnet2023_baseline_pgd,1,238,NaN,boat,boat,0,0238_ske_dnn_0_boat_00_boat-0166-sketch-2.png,boat-0166-sketch-2.png,1.0,2.2590532,1.5533559,0.49900335
alexnet2023_baseline_pgd,1,239,NaN,airplane,boat,0,0239_ske_dnn_0_boat_00_boat-0173-sketch-26.png,boat-0173-sketch-26.png,0.0,3.8862984,5.942649,-1.4540594
alexnet2023_baseline_pgd,1,240,NaN,car,boat,0,0240_ske_dnn_0_boat_00_boat-0178-sketch-30.png,boat-0178-sketch-30.png,0.0,-0.06321444,6.417394,-4.5824823
alexnet2023_baseline_pgd,1,241,NaN,bird,boat,0,0241_ske_dnn_0_boat_00_boat-0180-sketch-32.png,boat-0180-sketch-32.png,0.0,-1.6181408,2.4108822,-2.8489497
alexnet2023_baseline_pgd,1,242,NaN,bird,boat,0,0242_ske_dnn_0_boat_00_boat-0194-sketch-45.png,boat-0194-sketch-45.png,0.0,1.1254671,2.1145427,-0.6993821
alexnet2023_baseline_pgd,1,243,NaN,boat,boat,0,0243_ske_dnn_0_boat_00_boat-0197-sketch-48.png,boat-0197-sketch-48.png,1.0,2.1544757,1.68807,0.32979858
alexnet2023_baseline_pgd,1,244,NaN,bicycle,boat,0,0244_ske_dnn_0_boat_00_boat-0212-sketch-15.png,boat-0212-sketch-15.png,0.0,3.2543628,3.7259974,-0.33349603
alexnet2023_baseline_pgd,1,245,NaN,clock,boat,0,0245_ske_dnn_0_boat_00_boat-0228-sketch-3.png,boat-0228-sketch-3.png,0.0,2.257236,4.6721125,-1.7075756
alexnet2023_baseline_pgd,1,246,NaN,bicycle,boat,0,0246_ske_dnn_0_boat_00_boat-0233-sketch-34.png,boat-0233-sketch-34.png,0.0,1.4163424,5.04556,-2.5662444
alexnet2023_baseline_pgd,1,247,NaN,keyboard,boat,0,0247_ske_dnn_0_boat_00_boat-0234-sketch-35.png,boat-0234-sketch-35.png,0.0,2.6498246,4.2643375,-1.141633
alexnet2023_baseline_pgd,1,248,NaN,clock,boat,0,0248_ske_dnn_0_boat_00_boat-0237-sketch-38.png,boat-0237-sketch-38.png,0.0,2.705601,4.530342,-1.2902869
alexnet2023_baseline_pgd,1,249,NaN,bicycle,boat,0,0249_ske_dnn_0_boat_00_boat-0239-sketch-4.png,boat-0239-sketch-4.png,0.0,2.8790073,4.561182,-1.1894771
alexnet2023_baseline_pgd,1,250,NaN,boat,boat,0,0250_ske_dnn_0_boat_00_boat-0253-sketch-7.png,boat-0253-sketch-7.png,1.0,4.699215,4.2293034,0.33227766
alexnet2023_baseline_pgd,1,251,NaN,bottle,bottle,0,0251_ske_dnn_0_bottle_00_bottle-0002-sketch-1.png,bottle-0002-sketch-1.png,1.0,7.503663,5.102408,1.6979438
alexnet2023_baseline_pgd,1,252,NaN,knife,bottle,0,0252_ske_dnn_0_bottle_00_bottle-0003-sketch-10.png,bottle-0003-sketch-10.png,0.0,5.98384,8.251392,-1.6034017
alexnet2023_baseline_pgd,1,253,NaN,bottle,bottle,0,0253_ske_dnn_0_bottle_00_bottle-0019-sketch-25.png,bottle-0019-sketch-25.png,1.0,4.947865,4.715686,0.16417547
alexnet2023_baseline_pgd,1,254,NaN,bottle,bottle,0,0254_ske_dnn_0_bottle_00_bottle-0030-sketch-35.png,bottle-0030-sketch-35.png,1.0,7.196981,6.9181314,0.19717644
alexnet2023_baseline_pgd,1,255,NaN,bottle,bottle,0,0255_ske_dnn_0_bottle_00_bottle-0031-sketch-36.png,bottle-0031-sketch-36.png,1.0,9.919778,6.6325803,2.3243997
alexnet2023_baseline_pgd,1,256,NaN,knife,bottle,0,0256_ske_dnn_0_bottle_00_bottle-0038-sketch-42.png,bottle-0038-sketch-42.png,0.0,6.133881,6.6794105,-0.38574752
alexnet2023_baseline_pgd,1,257,NaN,bottle,bottle,0,0257_ske_dnn_0_bottle_00_bottle-0039-sketch-43.png,bottle-0039-sketch-43.png,1.0,14.187574,6.79142,5.229871
alexnet2023_baseline_pgd,1,258,NaN,knife,bottle,0,0258_ske_dnn_0_bottle_00_bottle-0041-sketch-45.png,bottle-0041-sketch-45.png,0.0,4.888004,8.535194,-2.5789533
alexnet2023_baseline_pgd,1,259,NaN,clock,bottle,0,0259_ske_dnn_0_bottle_00_bottle-0045-sketch-49.png,bottle-0045-sketch-49.png,0.0,5.9677362,6.6904526,-0.51103765
alexnet2023_baseline_pgd,1,260,NaN,bottle,bottle,0,0260_ske_dnn_0_bottle_00_bottle-0050-sketch-9.png,bottle-0050-sketch-9.png,1.0,10.492995,7.7125173,1.9660949
alexnet2023_baseline_pgd,1,261,NaN,bottle,bottle,0,0261_ske_dnn_0_bottle_00_bottle-0054-sketch-11.png,bottle-0054-sketch-11.png,1.0,8.63659,7.716313,0.6507342
alexnet2023_baseline_pgd,1,262,NaN,bottle,bottle,0,0262_ske_dnn_0_bottle_00_bottle-0066-sketch-22.png,bottle-0066-sketch-22.png,1.0,7.871747,5.1917863,1.8950185
alexnet2023_baseline_pgd,1,263,NaN,knife,bottle,0,0263_ske_dnn_0_bottle_00_bottle-0071-sketch-27.png,bottle-0071-sketch-27.png,0.0,2.2043583,4.9144516,-1.9163253
alexnet2023_baseline_pgd,1,264,NaN,clock,bottle,0,0264_ske_dnn_0_bottle_00_bottle-0082-sketch-37.png,bottle-0082-sketch-37.png,0.0,3.548663,5.9755034,-1.7160355
alexnet2023_baseline_pgd,1,265,NaN,bottle,bottle,0,0265_ske_dnn_0_bottle_00_bottle-0086-sketch-40.png,bottle-0086-sketch-40.png,1.0,9.866266,5.9253106,2.7866764
alexnet2023_baseline_pgd,1,266,NaN,bottle,bottle,0,0266_ske_dnn_0_bottle_00_bottle-0090-sketch-44.png,bottle-0090-sketch-44.png,1.0,8.109507,7.4184265,0.48866743
alexnet2023_baseline_pgd,1,267,NaN,airplane,bottle,0,0267_ske_dnn_0_bottle_00_bottle-0097-sketch-50.png,bottle-0097-sketch-50.png,0.0,2.1365092,3.1438081,-0.71226794
alexnet2023_baseline_pgd,1,268,NaN,bicycle,bottle,0,0268_ske_dnn_0_bottle_00_bottle-0107-sketch-13.png,bottle-0107-sketch-13.png,0.0,0.8839065,6.7088523,-4.118859
alexnet2023_baseline_pgd,1,269,NaN,bicycle,bottle,0,0269_ske_dnn_0_bottle_00_bottle-0114-sketch-2.png,bottle-0114-sketch-2.png,0.0,0.96988684,5.9274497,-3.5055263
alexnet2023_baseline_pgd,1,270,NaN,bird,bottle,0,0270_ske_dnn_0_bottle_00_bottle-0126-sketch-30.png,bottle-0126-sketch-30.png,0.0,2.4938622,4.1241803,-1.152809
alexnet2023_baseline_pgd,1,271,NaN,clock,bottle,0,0271_ske_dnn_0_bottle_00_bottle-0130-sketch-34.png,bottle-0130-sketch-34.png,0.0,7.439544,8.090951,-0.46061414
alexnet2023_baseline_pgd,1,272,NaN,bicycle,bottle,0,0272_ske_dnn_0_bottle_00_bottle-0131-sketch-35.png,bottle-0131-sketch-35.png,0.0,-1.127989,2.2527392,-2.3905358
alexnet2023_baseline_pgd,1,273,NaN,bicycle,bottle,0,0273_ske_dnn_0_bottle_00_bottle-0133-sketch-37.png,bottle-0133-sketch-37.png,0.0,2.8224566,4.77923,-1.3836478
alexnet2023_baseline_pgd,1,274,NaN,clock,bottle,0,0274_ske_dnn_0_bottle_00_bottle-0135-sketch-39.png,bottle-0135-sketch-39.png,0.0,2.5929394,3.036543,-0.31367505
alexnet2023_baseline_pgd,1,275,NaN,keyboard,bottle,0,0275_ske_dnn_0_bottle_00_bottle-0143-sketch-46.png,bottle-0143-sketch-46.png,0.0,4.773162,5.1848516,-0.29110864
alexnet2023_baseline_pgd,1,276,NaN,bottle,bottle,0,0276_ske_dnn_0_bottle_00_bottle-0145-sketch-48.png,bottle-0145-sketch-48.png,1.0,6.2658224,3.151308,2.2022943
alexnet2023_baseline_pgd,1,277,NaN,bottle,bottle,0,0277_ske_dnn_0_bottle_00_bottle-0150-sketch-7.png,bottle-0150-sketch-7.png,1.0,6.245527,3.5659616,1.8947388
alexnet2023_baseline_pgd,1,278,NaN,clock,bottle,0,0278_ske_dnn_0_bottle_00_bottle-0162-sketch-17.png,bottle-0162-sketch-17.png,0.0,5.773156,6.229538,-0.32271066
alexnet2023_baseline_pgd,1,279,NaN,clock,bottle,0,0279_ske_dnn_0_bottle_00_bottle-0165-sketch-2.png,bottle-0165-sketch-2.png,0.0,4.9810266,5.5319743,-0.38957885
alexnet2023_baseline_pgd,1,280,NaN,clock,bottle,0,0280_ske_dnn_0_bottle_00_bottle-0184-sketch-37.png,bottle-0184-sketch-37.png,0.0,2.8529947,5.9069896,-2.1595006
alexnet2023_baseline_pgd,1,281,NaN,clock,bottle,0,0281_ske_dnn_0_bottle_00_bottle-0185-sketch-38.png,bottle-0185-sketch-38.png,0.0,4.490826,7.578055,-2.1830003
alexnet2023_baseline_pgd,1,282,NaN,bottle,bottle,0,0282_ske_dnn_0_bottle_00_bottle-0189-sketch-41.png,bottle-0189-sketch-41.png,1.0,5.7591257,3.2136104,1.7999512
alexnet2023_baseline_pgd,1,283,NaN,bottle,bottle,0,0283_ske_dnn_0_bottle_00_bottle-0202-sketch-8.png,bottle-0202-sketch-8.png,1.0,6.6191974,3.947672,1.8890538
alexnet2023_baseline_pgd,1,284,NaN,clock,bottle,0,0284_ske_dnn_0_bottle_00_bottle-0207-sketch-11.png,bottle-0207-sketch-11.png,0.0,3.4352422,7.497703,-2.8725936
alexnet2023_baseline_pgd,1,285,NaN,bottle,bottle,0,0285_ske_dnn_0_bottle_00_bottle-0215-sketch-19.png,bottle-0215-sketch-19.png,1.0,5.0356708,4.568772,0.3301474
alexnet2023_baseline_pgd,1,286,NaN,clock,bottle,0,0286_ske_dnn_0_bottle_00_bottle-0217-sketch-20.png,bottle-0217-sketch-20.png,0.0,2.4085977,5.540333,-2.214471
alexnet2023_baseline_pgd,1,287,NaN,knife,bottle,0,0287_ske_dnn_0_bottle_00_bottle-0237-sketch-39.png,bottle-0237-sketch-39.png,0.0,2.4411721,5.854617,-2.41367
alexnet2023_baseline_pgd,1,288,NaN,clock,bottle,0,0288_ske_dnn_0_bottle_00_bottle-0243-sketch-44.png,bottle-0243-sketch-44.png,0.0,3.034167,4.3451934,-0.9270356
alexnet2023_baseline_pgd,1,289,NaN,bottle,bottle,0,0289_ske_dnn_0_bottle_00_bottle-0245-sketch-46.png,bottle-0245-sketch-46.png,1.0,8.693085,4.1813426,3.1902835
alexnet2023_baseline_pgd,1,290,NaN,bottle,bottle,0,0290_ske_dnn_0_bottle_00_bottle-0268-sketch-20.png,bottle-0268-sketch-20.png,1.0,9.156112,4.651939,3.1849313
alexnet2023_baseline_pgd,1,291,NaN,bottle,bottle,0,0291_ske_dnn_0_bottle_00_bottle-0280-sketch-31.png,bottle-0280-sketch-31.png,1.0,10.405784,3.7102737,4.7344403
alexnet2023_baseline_pgd,1,292,NaN,bottle,bottle,0,0292_ske_dnn_0_bottle_00_bottle-0292-sketch-42.png,bottle-0292-sketch-42.png,1.0,11.246031,10.78962,0.3227309
alexnet2023_baseline_pgd,1,293,NaN,bottle,bottle,0,0293_ske_dnn_0_bottle_00_bottle-0294-sketch-44.png,bottle-0294-sketch-44.png,1.0,3.339369,1.6643019,1.1844513
alexnet2023_baseline_pgd,1,294,NaN,bottle,bottle,0,0294_ske_dnn_0_bottle_00_bottle-0296-sketch-46.png,bottle-0296-sketch-46.png,1.0,5.3470674,4.5057063,0.59493214
alexnet2023_baseline_pgd,1,295,NaN,bottle,bottle,0,0295_ske_dnn_0_bottle_00_bottle-0301-sketch-50.png,bottle-0301-sketch-50.png,1.0,5.5570345,3.3843467,1.5363222
alexnet2023_baseline_pgd,1,296,NaN,bottle,bottle,0,0296_ske_dnn_0_bottle_00_bottle-0305-sketch-9.png,bottle-0305-sketch-9.png,1.0,6.4950294,3.6605244,2.0042977
alexnet2023_baseline_pgd,1,297,NaN,bottle,bottle,0,0297_ske_dnn_0_bottle_00_bottle-0313-sketch-15.png,bottle-0313-sketch-15.png,1.0,12.812196,5.729814,5.0080004
alexnet2023_baseline_pgd,1,298,NaN,bottle,bottle,0,0298_ske_dnn_0_bottle_00_bottle-0321-sketch-22.png,bottle-0321-sketch-22.png,1.0,12.456003,8.451026,2.8319466
alexnet2023_baseline_pgd,1,299,NaN,bottle,bottle,0,0299_ske_dnn_0_bottle_00_bottle-0330-sketch-30.png,bottle-0330-sketch-30.png,1.0,13.135626,9.842681,2.3284638
alexnet2023_baseline_pgd,1,300,NaN,bottle,bottle,0,0300_ske_dnn_0_bottle_00_bottle-0338-sketch-38.png,bottle-0338-sketch-38.png,1.0,7.750621,1.9286764,4.1167364
alexnet2023_baseline_pgd,1,301,NaN,truck,car,0,0301_ske_dnn_0_car_00_car-0002-sketch-1.png,car-0002-sketch-1.png,0.0,6.908338,9.159779,-1.592009
alexnet2023_baseline_pgd,1,302,NaN,truck,car,0,0302_ske_dnn_0_car_00_car-0004-sketch-11.png,car-0004-sketch-11.png,0.0,3.9512727,5.2139816,-0.89287007
alexnet2023_baseline_pgd,1,303,NaN,truck,car,0,0303_ske_dnn_0_car_00_car-0005-sketch-12.png,car-0005-sketch-12.png,0.0,5.512119,8.272577,-1.951939
alexnet2023_baseline_pgd,1,304,NaN,car,car,0,0304_ske_dnn_0_car_00_car-0009-sketch-16.png,car-0009-sketch-16.png,1.0,7.5649114,6.6639767,0.63705707
alexnet2023_baseline_pgd,1,305,NaN,car,car,0,0305_ske_dnn_0_car_00_car-0013-sketch-2.png,car-0013-sketch-2.png,1.0,10.65012,6.271901,3.095868
alexnet2023_baseline_pgd,1,306,NaN,clock,car,0,0306_ske_dnn_0_car_00_car-0014-sketch-20.png,car-0014-sketch-20.png,0.0,5.5395064,5.5813413,-0.029581694
alexnet2023_baseline_pgd,1,307,NaN,bicycle,car,0,0307_ske_dnn_0_car_00_car-0017-sketch-23.png,car-0017-sketch-23.png,0.0,2.2620206,3.1721735,-0.6435753
alexnet2023_baseline_pgd,1,308,NaN,knife,car,0,0308_ske_dnn_0_car_00_car-0018-sketch-24.png,car-0018-sketch-24.png,0.0,7.439113,7.537052,-0.06925334
alexnet2023_baseline_pgd,1,309,NaN,knife,car,0,0309_ske_dnn_0_car_00_car-0021-sketch-27.png,car-0021-sketch-27.png,0.0,2.1596587,6.134452,-2.8106034
alexnet2023_baseline_pgd,1,310,NaN,clock,car,0,0310_ske_dnn_0_car_00_car-0022-sketch-28.png,car-0022-sketch-28.png,0.0,1.5332855,5.011686,-2.4596004
alexnet2023_baseline_pgd,1,311,NaN,car,car,0,0311_ske_dnn_0_car_00_car-0024-sketch-3.png,car-0024-sketch-3.png,1.0,18.197184,8.933855,6.5501623
alexnet2023_baseline_pgd,1,312,NaN,clock,car,0,0312_ske_dnn_0_car_00_car-0025-sketch-30.png,car-0025-sketch-30.png,0.0,-2.2418358,5.811405,-5.6945014
alexnet2023_baseline_pgd,1,313,NaN,oven,car,0,0313_ske_dnn_0_car_00_car-0029-sketch-34.png,car-0029-sketch-34.png,0.0,2.8743622,3.8974276,-0.72341645
alexnet2023_baseline_pgd,1,314,NaN,car,car,0,0314_ske_dnn_0_car_00_car-0030-sketch-35.png,car-0030-sketch-35.png,1.0,8.521451,7.190283,0.94127804
alexnet2023_baseline_pgd,1,315,NaN,knife,car,0,0315_ske_dnn_0_car_00_car-0032-sketch-37.png,car-0032-sketch-37.png,0.0,6.157065,6.280877,-0.08754845
alexnet2023_baseline_pgd,1,316,NaN,clock,car,0,0316_ske_dnn_0_car_00_car-0034-sketch-39.png,car-0034-sketch-39.png,0.0,1.1538032,4.7322097,-2.5303154
alexnet2023_baseline_pgd,1,317,NaN,truck,car,0,0317_ske_dnn_0_car_00_car-0040-sketch-44.png,car-0040-sketch-44.png,0.0,4.8597493,6.0474687,-0.8398444
alexnet2023_baseline_pgd,1,318,NaN,car,car,0,0318_ske_dnn_0_car_00_car-0043-sketch-47.png,car-0043-sketch-47.png,1.0,18.197184,8.933855,6.5501623
alexnet2023_baseline_pgd,1,319,NaN,car,car,0,0319_ske_dnn_0_car_00_car-0044-sketch-48.png,car-0044-sketch-48.png,1.0,15.860797,6.125638,6.883797
alexnet2023_baseline_pgd,1,320,NaN,car,car,0,0320_ske_dnn_0_car_00_car-0045-sketch-49.png,car-0045-sketch-49.png,1.0,9.719318,6.4387393,2.3197198
alexnet2023_baseline_pgd,1,321,NaN,truck,car,0,0321_ske_dnn_0_car_00_car-0047-sketch-50.png,car-0047-sketch-50.png,0.0,4.92902,6.0910096,-0.8216508
alexnet2023_baseline_pgd,1,322,NaN,clock,car,0,0322_ske_dnn_0_car_00_car-0050-sketch-8.png,car-0050-sketch-8.png,0.0,2.7211044,5.317923,-1.8362281
alexnet2023_baseline_pgd,1,323,NaN,knife,car,0,0323_ske_dnn_0_car_00_car-0052-sketch-0.png,car-0052-sketch-0.png,0.0,1.8715869,3.1752343,-0.92181796
alexnet2023_baseline_pgd,1,324,NaN,car,car,0,0324_ske_dnn_0_car_00_car-0055-sketch-11.png,car-0055-sketch-11.png,1.0,12.354446,4.962732,5.226732
alexnet2023_baseline_pgd,1,325,NaN,car,car,0,0325_ske_dnn_0_car_00_car-0064-sketch-2.png,car-0064-sketch-2.png,1.0,4.4711213,3.48629,0.6963809
alexnet2023_baseline_pgd,1,326,NaN,car,car,0,0326_ske_dnn_0_car_00_car-0069-sketch-24.png,car-0069-sketch-24.png,1.0,10.864288,8.749859,1.4951274
alexnet2023_baseline_pgd,1,327,NaN,car,car,0,0327_ske_dnn_0_car_00_car-0076-sketch-30.png,car-0076-sketch-30.png,1.0,9.720475,4.0509186,4.008982
alexnet2023_baseline_pgd,1,328,NaN,oven,car,0,0328_ske_dnn_0_car_00_car-0079-sketch-33.png,car-0079-sketch-33.png,0.0,1.187674,6.0856113,-3.4633648
alexnet2023_baseline_pgd,1,329,NaN,keyboard,car,0,0329_ske_dnn_0_car_00_car-0083-sketch-37.png,car-0083-sketch-37.png,0.0,5.56947,6.7675,-0.8471351
alexnet2023_baseline_pgd,1,330,NaN,bicycle,car,0,0330_ske_dnn_0_car_00_car-0092-sketch-45.png,car-0092-sketch-45.png,0.0,1.9176172,4.7647266,-2.0132103
alexnet2023_baseline_pgd,1,331,NaN,car,car,0,0331_ske_dnn_0_car_00_car-0096-sketch-49.png,car-0096-sketch-49.png,1.0,16.908537,9.904972,4.952268
alexnet2023_baseline_pgd,1,332,NaN,keyboard,car,0,0332_ske_dnn_0_car_00_car-0098-sketch-50.png,car-0098-sketch-50.png,0.0,3.3088312,3.3899062,-0.05732865
alexnet2023_baseline_pgd,1,333,NaN,car,car,0,0333_ske_dnn_0_car_00_car-0100-sketch-7.png,car-0100-sketch-7.png,1.0,12.35822,6.731239,3.9788766
alexnet2023_baseline_pgd,1,334,NaN,car,car,0,0334_ske_dnn_0_car_00_car-0112-sketch-17.png,car-0112-sketch-17.png,1.0,12.076088,6.062187,4.25247
alexnet2023_baseline_pgd,1,335,NaN,car,car,0,0335_ske_dnn_0_car_00_car-0114-sketch-19.png,car-0114-sketch-19.png,1.0,6.1107736,4.293491,1.285013
alexnet2023_baseline_pgd,1,336,NaN,car,car,0,0336_ske_dnn_0_car_00_car-0116-sketch-20.png,car-0116-sketch-20.png,1.0,9.913144,4.4444666,3.866939
alexnet2023_baseline_pgd,1,337,NaN,car,car,0,0337_ske_dnn_0_car_00_car-0117-sketch-21.png,car-0117-sketch-21.png,1.0,6.2502456,3.3472986,2.0526936
alexnet2023_baseline_pgd,1,338,NaN,car,car,0,0338_ske_dnn_0_car_00_car-0120-sketch-24.png,car-0120-sketch-24.png,1.0,7.850643,4.617631,2.286085
alexnet2023_baseline_pgd,1,339,NaN,car,car,0,0339_ske_dnn_0_car_00_car-0122-sketch-26.png,car-0122-sketch-26.png,1.0,8.4894495,5.405712,2.1805317
alexnet2023_baseline_pgd,1,340,NaN,clock,car,0,0340_ske_dnn_0_car_00_car-0124-sketch-28.png,car-0124-sketch-28.png,0.0,1.8499249,5.7806697,-2.7794561
alexnet2023_baseline_pgd,1,341,NaN,car,car,0,0341_ske_dnn_0_car_00_car-0125-sketch-29.png,car-0125-sketch-29.png,1.0,6.3174095,3.0724635,2.2945235
alexnet2023_baseline_pgd,1,342,NaN,car,car,0,0342_ske_dnn_0_car_00_car-0129-sketch-32.png,car-0129-sketch-32.png,1.0,4.9085116,4.0874166,0.5806019
alexnet2023_baseline_pgd,1,343,NaN,car,car,0,0343_ske_dnn_0_car_00_car-0132-sketch-35.png,car-0132-sketch-35.png,1.0,15.098485,5.959461,6.462266
alexnet2023_baseline_pgd,1,344,NaN,clock,car,0,0344_ske_dnn_0_car_00_car-0136-sketch-39.png,car-0136-sketch-39.png,0.0,2.1883821,3.357333,-0.8265731
alexnet2023_baseline_pgd,1,345,NaN,car,car,0,0345_ske_dnn_0_car_00_car-0138-sketch-40.png,car-0138-sketch-40.png,1.0,11.280072,5.5859857,4.026327
alexnet2023_baseline_pgd,1,346,NaN,car,car,0,0346_ske_dnn_0_car_00_car-0139-sketch-41.png,car-0139-sketch-41.png,1.0,9.1644945,3.6239834,3.917733
alexnet2023_baseline_pgd,1,347,NaN,car,car,0,0347_ske_dnn_0_car_00_car-0143-sketch-45.png,car-0143-sketch-45.png,1.0,6.408648,3.5182698,2.043806
alexnet2023_baseline_pgd,1,348,NaN,knife,car,0,0348_ske_dnn_0_car_00_car-0145-sketch-47.png,car-0145-sketch-47.png,0.0,2.5001564,3.011703,-0.3617181
alexnet2023_baseline_pgd,1,349,NaN,car,car,0,0349_ske_dnn_0_car_00_car-0151-sketch-7.png,car-0151-sketch-7.png,1.0,11.401688,7.5180206,2.7461674
alexnet2023_baseline_pgd,1,350,NaN,clock,car,0,0350_ske_dnn_0_car_00_car-0153-sketch-9.png,car-0153-sketch-9.png,0.0,3.3311985,5.3433537,-1.4228086
alexnet2023_baseline_pgd,1,351,NaN,cat,cat,0,0351_ske_dnn_0_cat_00_cat-0002-sketch-1.png,cat-0002-sketch-1.png,1.0,9.785717,4.8863993,3.464341
alexnet2023_baseline_pgd,1,352,NaN,cat,cat,0,0352_ske_dnn_0_cat_00_cat-0009-sketch-16.png,cat-0009-sketch-16.png,1.0,10.399562,3.7401052,4.708947
alexnet2023_baseline_pgd,1,353,NaN,cat,cat,0,0353_ske_dnn_0_cat_00_cat-0011-sketch-18.png,cat-0011-sketch-18.png,1.0,3.0488663,2.2267916,0.5812946
alexnet2023_baseline_pgd,1,354,NaN,cat,cat,0,0354_ske_dnn_0_cat_00_cat-0015-sketch-21.png,cat-0015-sketch-21.png,1.0,9.04779,3.547119,3.8895614
alexnet2023_baseline_pgd,1,355,NaN,cat,cat,0,0355_ske_dnn_0_cat_00_cat-0016-sketch-22.png,cat-0016-sketch-22.png,1.0,12.308716,3.5056517,6.2247066
alexnet2023_baseline_pgd,1,356,NaN,cat,cat,0,0356_ske_dnn_0_cat_00_cat-0021-sketch-27.png,cat-0021-sketch-27.png,1.0,9.628612,1.8715389,5.485079
alexnet2023_baseline_pgd,1,357,NaN,cat,cat,0,0357_ske_dnn_0_cat_00_cat-0027-sketch-32.png,cat-0027-sketch-32.png,1.0,4.2904115,3.7150168,0.40686545
alexnet2023_baseline_pgd,1,358,NaN,cat,cat,0,0358_ske_dnn_0_cat_00_cat-0042-sketch-46.png,cat-0042-sketch-46.png,1.0,5.2034593,4.364594,0.59316736
alexnet2023_baseline_pgd,1,359,NaN,cat,cat,0,0359_ske_dnn_0_cat_00_cat-0043-sketch-47.png,cat-0043-sketch-47.png,1.0,8.543852,4.2305713,3.04995
alexnet2023_baseline_pgd,1,360,NaN,cat,cat,0,0360_ske_dnn_0_cat_00_cat-0044-sketch-48.png,cat-0044-sketch-48.png,1.0,6.7329803,2.1282885,3.2560086
alexnet2023_baseline_pgd,1,361,NaN,cat,cat,0,0361_ske_dnn_0_cat_00_cat-0048-sketch-7.png,cat-0048-sketch-7.png,1.0,11.072808,1.8131754,6.5475492
alexnet2023_baseline_pgd,1,362,NaN,cat,cat,0,0362_ske_dnn_0_cat_00_cat-0052-sketch-1.png,cat-0052-sketch-1.png,1.0,12.652167,6.5762396,4.29633
alexnet2023_baseline_pgd,1,363,NaN,clock,cat,0,0363_ske_dnn_0_cat_00_cat-0053-sketch-10.png,cat-0053-sketch-10.png,0.0,-0.40783134,4.116607,-3.1992612
alexnet2023_baseline_pgd,1,364,NaN,bottle,cat,0,0364_ske_dnn_0_cat_00_cat-0059-sketch-16.png,cat-0059-sketch-16.png,0.0,-1.726816,2.6391616,-3.0872126
alexnet2023_baseline_pgd,1,365,NaN,knife,cat,0,0365_ske_dnn_0_cat_00_cat-0062-sketch-19.png,cat-0062-sketch-19.png,0.0,1.9260708,3.2363756,-0.9265254
alexnet2023_baseline_pgd,1,366,NaN,cat,cat,0,0366_ske_dnn_0_cat_00_cat-0067-sketch-23.png,cat-0067-sketch-23.png,1.0,5.0066338,4.2888365,0.50755936
alexnet2023_baseline_pgd,1,367,NaN,chair,cat,0,0367_ske_dnn_0_cat_00_cat-0073-sketch-29.png,cat-0073-sketch-29.png,0.0,1.875276,4.3074274,-1.7197907
alexnet2023_baseline_pgd,1,368,NaN,knife,cat,0,0368_ske_dnn_0_cat_00_cat-0082-sketch-37.png,cat-0082-sketch-37.png,0.0,2.2655184,4.065375,-1.2726907
alexnet2023_baseline_pgd,1,369,NaN,cat,cat,0,0369_ske_dnn_0_cat_00_cat-0085-sketch-4.png,cat-0085-sketch-4.png,1.0,5.385388,5.3745413,0.007669715
alexnet2023_baseline_pgd,1,370,NaN,chair,cat,0,0370_ske_dnn_0_cat_00_cat-0090-sketch-44.png,cat-0090-sketch-44.png,0.0,4.8356333,5.8433,-0.7125279
alexnet2023_baseline_pgd,1,371,NaN,clock,cat,0,0371_ske_dnn_0_cat_00_cat-0104-sketch-10.png,cat-0104-sketch-10.png,0.0,-0.21685068,2.5927026,-1.9866543
alexnet2023_baseline_pgd,1,372,NaN,clock,cat,0,0372_ske_dnn_0_cat_00_cat-0124-sketch-29.png,cat-0124-sketch-29.png,0.0,0.6367031,5.7311573,-3.6023233
alexnet2023_baseline_pgd,1,373,NaN,cat,cat,0,0373_ske_dnn_0_cat_00_cat-0128-sketch-32.png,cat-0128-sketch-32.png,1.0,12.120781,4.7251163,5.2295246
alexnet2023_baseline_pgd,1,374,NaN,clock,cat,0,0374_ske_dnn_0_cat_00_cat-0134-sketch-38.png,cat-0134-sketch-38.png,0.0,1.2883176,4.2238555,-2.0757387
alexnet2023_baseline_pgd,1,375,NaN,cat,cat,0,0375_ske_dnn_0_cat_00_cat-0140-sketch-43.png,cat-0140-sketch-43.png,1.0,10.732693,3.843068,4.8717003
alexnet2023_baseline_pgd,1,376,NaN,cat,cat,0,0376_ske_dnn_0_cat_00_cat-0149-sketch-6.png,cat-0149-sketch-6.png,1.0,5.757259,4.0299,1.2214272
alexnet2023_baseline_pgd,1,377,NaN,cat,cat,0,0377_ske_dnn_0_cat_00_cat-0150-sketch-7.png,cat-0150-sketch-7.png,1.0,6.235704,2.19683,2.855915
alexnet2023_baseline_pgd,1,378,NaN,chair,cat,0,0378_ske_dnn_0_cat_00_cat-0152-sketch-9.png,cat-0152-sketch-9.png,0.0,0.074565254,3.0295916,-2.0895193
alexnet2023_baseline_pgd,1,379,NaN,clock,cat,0,0379_ske_dnn_0_cat_00_cat-0158-sketch-13.png,cat-0158-sketch-13.png,0.0,-1.8725953,5.5597568,-5.2554665
alexnet2023_baseline_pgd,1,380,NaN,cat,cat,0,0380_ske_dnn_0_cat_00_cat-0160-sketch-15.png,cat-0160-sketch-15.png,1.0,8.53557,5.28711,2.2970083
alexnet2023_baseline_pgd,1,381,NaN,cat,cat,0,0381_ske_dnn_0_cat_00_cat-0175-sketch-29.png,cat-0175-sketch-29.png,1.0,7.892078,2.9594538,3.487892
alexnet2023_baseline_pgd,1,382,NaN,clock,cat,0,0382_ske_dnn_0_cat_00_cat-0207-sketch-11.png,cat-0207-sketch-11.png,0.0,-2.2130682,3.7850015,-4.241276
alexnet2023_baseline_pgd,1,383,NaN,knife,cat,0,0383_ske_dnn_0_cat_00_cat-0229-sketch-31.png,cat-0229-sketch-31.png,0.0,-1.0906076,5.2847047,-4.5080266
alexnet2023_baseline_pgd,1,384,NaN,clock,cat,0,0384_ske_dnn_0_cat_00_cat-0233-sketch-35.png,cat-0233-sketch-35.png,0.0,-2.2130682,3.7850015,-4.241276
alexnet2023_baseline_pgd,1,385,NaN,clock,cat,0,0385_ske_dnn_0_cat_00_cat-0241-sketch-42.png,cat-0241-sketch-42.png,0.0,-3.1538877,5.9277673,-6.4217005
alexnet2023_baseline_pgd,1,386,NaN,knife,cat,0,0386_ske_dnn_0_cat_00_cat-0245-sketch-46.png,cat-0245-sketch-46.png,0.0,-1.2272327,4.7041125,-4.194094
alexnet2023_baseline_pgd,1,387,NaN,knife,cat,0,0387_ske_dnn_0_cat_00_cat-0250-sketch-50.png,cat-0250-sketch-50.png,0.0,-1.3747686,5.101688,-4.5795465
alexnet2023_baseline_pgd,1,388,NaN,clock,cat,0,0388_ske_dnn_0_cat_00_cat-0251-sketch-6.png,cat-0251-sketch-6.png,0.0,-3.1538877,5.9277673,-6.4217005
alexnet2023_baseline_pgd,1,389,NaN,cat,cat,0,0389_ske_dnn_0_cat_00_cat-0258-sketch-11.png,cat-0258-sketch-11.png,1.0,11.082302,4.423296,4.7086287
alexnet2023_baseline_pgd,1,390,NaN,knife,cat,0,0390_ske_dnn_0_cat_00_cat-0260-sketch-13.png,cat-0260-sketch-13.png,0.0,-1.5730842,3.7389164,-3.756152
alexnet2023_baseline_pgd,1,391,NaN,oven,cat,0,0391_ske_dnn_0_cat_00_cat-0264-sketch-17.png,cat-0264-sketch-17.png,0.0,1.0438426,4.1576595,-2.201801
alexnet2023_baseline_pgd,1,392,NaN,cat,cat,0,0392_ske_dnn_0_cat_00_cat-0265-sketch-18.png,cat-0265-sketch-18.png,1.0,3.809085,2.7660873,0.7375107
alexnet2023_baseline_pgd,1,393,NaN,dog,cat,0,0393_ske_dnn_0_cat_00_cat-0269-sketch-21.png,cat-0269-sketch-21.png,0.0,4.4027677,6.419347,-1.4259368
alexnet2023_baseline_pgd,1,394,NaN,cat,cat,0,0394_ske_dnn_0_cat_00_cat-0274-sketch-26.png,cat-0274-sketch-26.png,1.0,5.0765834,2.1008174,2.1041844
alexnet2023_baseline_pgd,1,395,NaN,cat,cat,0,0395_ske_dnn_0_cat_00_cat-0279-sketch-30.png,cat-0279-sketch-30.png,1.0,1.7722162,1.1993076,0.4051076
alexnet2023_baseline_pgd,1,396,NaN,knife,cat,0,0396_ske_dnn_0_cat_00_cat-0289-sketch-4.png,cat-0289-sketch-4.png,0.0,-1.541625,4.063982,-3.9637628
alexnet2023_baseline_pgd,1,397,NaN,cat,cat,0,0397_ske_dnn_0_cat_00_cat-0293-sketch-43.png,cat-0293-sketch-43.png,1.0,9.980073,3.339473,4.6956134
alexnet2023_baseline_pgd,1,398,NaN,cat,cat,0,0398_ske_dnn_0_cat_00_cat-0295-sketch-45.png,cat-0295-sketch-45.png,1.0,13.418962,3.0830734,7.3085766
alexnet2023_baseline_pgd,1,399,NaN,cat,cat,0,0399_ske_dnn_0_cat_00_cat-0302-sketch-6.png,cat-0302-sketch-6.png,1.0,7.378058,3.8581975,2.4889174
alexnet2023_baseline_pgd,1,400,NaN,cat,cat,0,0400_ske_dnn_0_cat_00_cat-0304-sketch-8.png,cat-0304-sketch-8.png,1.0,10.426177,2.0433881,5.927527
alexnet2023_baseline_pgd,1,401,NaN,clock,chair,0,0401_ske_dnn_0_chair_00_chair-0002-sketch-1.png,chair-0002-sketch-1.png,0.0,3.5612788,4.985394,-1.0070015
alexnet2023_baseline_pgd,1,402,NaN,chair,chair,0,0402_ske_dnn_0_chair_00_chair-0005-sketch-12.png,chair-0005-sketch-12.png,1.0,7.8494854,4.9236426,2.0688832
alexnet2023_baseline_pgd,1,403,NaN,chair,chair,0,0403_ske_dnn_0_chair_00_chair-0006-sketch-13.png,chair-0006-sketch-13.png,1.0,6.8563643,5.9505267,0.64052385
alexnet2023_baseline_pgd,1,404,NaN,chair,chair,0,0404_ske_dnn_0_chair_00_chair-0011-sketch-18.png,chair-0011-sketch-18.png,1.0,7.3446956,5.8974123,1.0233839
alexnet2023_baseline_pgd,1,405,NaN,bicycle,chair,0,0405_ske_dnn_0_chair_00_chair-0013-sketch-2.png,chair-0013-sketch-2.png,0.0,2.833637,4.2316523,-0.9885461
alexnet2023_baseline_pgd,1,406,NaN,chair,chair,0,0406_ske_dnn_0_chair_00_chair-0014-sketch-20.png,chair-0014-sketch-20.png,1.0,11.737043,7.0512505,3.313356
alexnet2023_baseline_pgd,1,407,NaN,chair,chair,0,0407_ske_dnn_0_chair_00_chair-0017-sketch-23.png,chair-0017-sketch-23.png,1.0,6.429982,5.8494263,0.41051504
alexnet2023_baseline_pgd,1,408,NaN,chair,chair,0,0408_ske_dnn_0_chair_00_chair-0029-sketch-34.png,chair-0029-sketch-34.png,1.0,5.9542394,4.7757,0.8333531
alexnet2023_baseline_pgd,1,409,NaN,bicycle,chair,0,0409_ske_dnn_0_chair_00_chair-0034-sketch-39.png,chair-0034-sketch-39.png,0.0,3.296418,5.814095,-1.7802665
alexnet2023_baseline_pgd,1,410,NaN,chair,chair,0,0410_ske_dnn_0_chair_00_chair-0040-sketch-44.png,chair-0040-sketch-44.png,1.0,14.29508,5.8230715,5.990615
alexnet2023_baseline_pgd,1,411,NaN,chair,chair,0,0411_ske_dnn_0_chair_00_chair-0051-sketch-9.png,chair-0051-sketch-9.png,1.0,10.760557,7.9987497,1.9528928
alexnet2023_baseline_pgd,1,412,NaN,oven,chair,0,0412_ske_dnn_0_chair_00_chair-0052-sketch-0.png,chair-0052-sketch-0.png,0.0,6.3849998,6.8997383,-0.36397514
alexnet2023_baseline_pgd,1,413,NaN,chair,chair,0,0413_ske_dnn_0_chair_00_chair-0055-sketch-11.png,chair-0055-sketch-11.png,1.0,7.1108894,5.5378947,1.1122752
alexnet2023_baseline_pgd,1,414,NaN,chair,chair,0,0414_ske_dnn_0_chair_00_chair-0060-sketch-16.png,chair-0060-sketch-16.png,1.0,8.0968075,6.576562,1.074976
alexnet2023_baseline_pgd,1,415,NaN,chair,chair,0,0415_ske_dnn_0_chair_00_chair-0062-sketch-18.png,chair-0062-sketch-18.png,1.0,14.633428,11.2996025,2.3573704
alexnet2023_baseline_pgd,1,416,NaN,chair,chair,0,0416_ske_dnn_0_chair_00_chair-0063-sketch-19.png,chair-0063-sketch-19.png,1.0,11.13622,7.5120096,2.5627038
alexnet2023_baseline_pgd,1,417,NaN,chair,chair,0,0417_ske_dnn_0_chair_00_chair-0064-sketch-2.png,chair-0064-sketch-2.png,1.0,7.3051076,4.67942,1.8566415
alexnet2023_baseline_pgd,1,418,NaN,chair,chair,0,0418_ske_dnn_0_chair_00_chair-0066-sketch-21.png,chair-0066-sketch-21.png,1.0,4.2320037,3.110555,0.792984
alexnet2023_baseline_pgd,1,419,NaN,chair,chair,0,0419_ske_dnn_0_chair_00_chair-0067-sketch-22.png,chair-0067-sketch-22.png,1.0,9.742552,4.5001955,3.7069058
alexnet2023_baseline_pgd,1,420,NaN,chair,chair,0,0420_ske_dnn_0_chair_00_chair-0071-sketch-26.png,chair-0071-sketch-26.png,1.0,12.004743,7.3564343,3.2868505
alexnet2023_baseline_pgd,1,421,NaN,chair,chair,0,0421_ske_dnn_0_chair_00_chair-0072-sketch-27.png,chair-0072-sketch-27.png,1.0,14.099301,8.03378,4.2889714
alexnet2023_baseline_pgd,1,422,NaN,chair,chair,0,0422_ske_dnn_0_chair_00_chair-0076-sketch-30.png,chair-0076-sketch-30.png,1.0,11.613688,6.0741386,3.9170532
alexnet2023_baseline_pgd,1,423,NaN,chair,chair,0,0423_ske_dnn_0_chair_00_chair-0079-sketch-33.png,chair-0079-sketch-33.png,1.0,13.743719,7.1959577,4.6299667
alexnet2023_baseline_pgd,1,424,NaN,chair,chair,0,0424_ske_dnn_0_chair_00_chair-0083-sketch-37.png,chair-0083-sketch-37.png,1.0,5.8060336,4.8456373,0.6791027
alexnet2023_baseline_pgd,1,425,NaN,chair,chair,0,0425_ske_dnn_0_chair_00_chair-0088-sketch-41.png,chair-0088-sketch-41.png,1.0,7.629621,5.3129654,1.6381229
alexnet2023_baseline_pgd,1,426,NaN,chair,chair,0,0426_ske_dnn_0_chair_00_chair-0094-sketch-47.png,chair-0094-sketch-47.png,1.0,14.487468,11.2476635,2.2908876
alexnet2023_baseline_pgd,1,427,NaN,knife,chair,0,0427_ske_dnn_0_chair_00_chair-0105-sketch-11.png,chair-0105-sketch-11.png,0.0,1.0069611,4.920341,-2.7671776
alexnet2023_baseline_pgd,1,428,NaN,chair,chair,0,0428_ske_dnn_0_chair_00_chair-0118-sketch-23.png,chair-0118-sketch-23.png,1.0,7.8269005,3.6994612,2.9185405
alexnet2023_baseline_pgd,1,429,NaN,chair,chair,0,0429_ske_dnn_0_chair_00_chair-0122-sketch-27.png,chair-0122-sketch-27.png,1.0,13.62198,3.342905,7.2684035
alexnet2023_baseline_pgd,1,430,NaN,chair,chair,0,0430_ske_dnn_0_chair_00_chair-0124-sketch-29.png,chair-0124-sketch-29.png,1.0,4.947424,2.028279,2.0641472
alexnet2023_baseline_pgd,1,431,NaN,chair,chair,0,0431_ske_dnn_0_chair_00_chair-0125-sketch-3.png,chair-0125-sketch-3.png,1.0,11.553766,5.9500666,3.962414
alexnet2023_baseline_pgd,1,432,NaN,chair,chair,0,0432_ske_dnn_0_chair_00_chair-0127-sketch-31.png,chair-0127-sketch-31.png,1.0,8.413813,3.6878767,3.3417413
alexnet2023_baseline_pgd,1,433,NaN,chair,chair,0,0433_ske_dnn_0_chair_00_chair-0129-sketch-33.png,chair-0129-sketch-33.png,1.0,7.4630146,5.339217,1.5017515
alexnet2023_baseline_pgd,1,434,NaN,chair,chair,0,0434_ske_dnn_0_chair_00_chair-0130-sketch-34.png,chair-0130-sketch-34.png,1.0,12.442325,5.8239803,4.6798763
alexnet2023_baseline_pgd,1,435,NaN,chair,chair,0,0435_ske_dnn_0_chair_00_chair-0131-sketch-35.png,chair-0131-sketch-35.png,1.0,8.250944,4.558638,2.6108546
alexnet2023_baseline_pgd,1,436,NaN,chair,chair,0,0436_ske_dnn_0_chair_00_chair-0135-sketch-39.png,chair-0135-sketch-39.png,1.0,10.90149,5.2872477,3.9698691
alexnet2023_baseline_pgd,1,437,NaN,chair,chair,0,0437_ske_dnn_0_chair_00_chair-0144-sketch-47.png,chair-0144-sketch-47.png,1.0,10.381527,5.0211363,3.7903686
alexnet2023_baseline_pgd,1,438,NaN,chair,chair,0,0438_ske_dnn_0_chair_00_chair-0145-sketch-48.png,chair-0145-sketch-48.png,1.0,10.9729185,6.3366756,3.278319
alexnet2023_baseline_pgd,1,439,NaN,bicycle,chair,0,0439_ske_dnn_0_chair_00_chair-0153-sketch-0.png,chair-0153-sketch-0.png,0.0,-0.118579865,3.6401613,-2.6578314
alexnet2023_baseline_pgd,1,440,NaN,chair,chair,0,0440_ske_dnn_0_chair_00_chair-0155-sketch-10.png,chair-0155-sketch-10.png,1.0,13.264898,7.170639,4.3092923
alexnet2023_baseline_pgd,1,441,NaN,chair,chair,0,0441_ske_dnn_0_chair_00_chair-0163-sketch-18.png,chair-0163-sketch-18.png,1.0,8.205113,5.1968226,2.1271827
alexnet2023_baseline_pgd,1,442,NaN,chair,chair,0,0442_ske_dnn_0_chair_00_chair-0166-sketch-20.png,chair-0166-sketch-20.png,1.0,11.319004,5.5943027,4.047975
alexnet2023_baseline_pgd,1,443,NaN,chair,chair,0,0443_ske_dnn_0_chair_00_chair-0167-sketch-21.png,chair-0167-sketch-21.png,1.0,3.6840854,3.65149,0.023048425
alexnet2023_baseline_pgd,1,444,NaN,chair,chair,0,0444_ske_dnn_0_chair_00_chair-0168-sketch-22.png,chair-0168-sketch-22.png,1.0,10.8888,9.082669,1.277127
alexnet2023_baseline_pgd,1,445,NaN,chair,chair,0,0445_ske_dnn_0_chair_00_chair-0175-sketch-29.png,chair-0175-sketch-29.png,1.0,8.349414,3.7734787,3.235675
alexnet2023_baseline_pgd,1,446,NaN,clock,chair,0,0446_ske_dnn_0_chair_00_chair-0176-sketch-3.png,chair-0176-sketch-3.png,0.0,6.340962,9.148738,-1.9853975
alexnet2023_baseline_pgd,1,447,NaN,chair,chair,0,0447_ske_dnn_0_chair_00_chair-0178-sketch-31.png,chair-0178-sketch-31.png,1.0,9.307755,8.037674,0.89808327
alexnet2023_baseline_pgd,1,448,NaN,bird,chair,0,0448_ske_dnn_0_chair_00_chair-0180-sketch-33.png,chair-0180-sketch-33.png,0.0,1.4847726,4.0214734,-1.7937183
alexnet2023_baseline_pgd,1,449,NaN,clock,chair,0,0449_ske_dnn_0_chair_00_chair-0197-sketch-49.png,chair-0197-sketch-49.png,0.0,9.525212,9.840333,-0.22282399
alexnet2023_baseline_pgd,1,450,NaN,bird,chair,0,0450_ske_dnn_0_chair_00_chair-0200-sketch-6.png,chair-0200-sketch-6.png,0.0,0.6884316,4.4075785,-2.629834
alexnet2023_baseline_pgd,1,451,NaN,clock,clock,0,0451_ske_dnn_0_clock_00_clock-0005-sketch-12.png,clock-0005-sketch-12.png,1.0,17.657064,4.0086274,9.650903
alexnet2023_baseline_pgd,1,452,NaN,clock,clock,0,0452_ske_dnn_0_clock_00_clock-0007-sketch-14.png,clock-0007-sketch-14.png,1.0,14.842092,4.411889,7.375267
alexnet2023_baseline_pgd,1,453,NaN,clock,clock,0,0453_ske_dnn_0_clock_00_clock-0015-sketch-21.png,clock-0015-sketch-21.png,1.0,12.804273,3.7305572,6.4160857
alexnet2023_baseline_pgd,1,454,NaN,clock,clock,0,0454_ske_dnn_0_clock_00_clock-0017-sketch-23.png,clock-0017-sketch-23.png,1.0,9.91228,3.6934066,4.3974075
alexnet2023_baseline_pgd,1,455,NaN,clock,clock,0,0455_ske_dnn_0_clock_00_clock-0018-sketch-24.png,clock-0018-sketch-24.png,1.0,11.886092,3.5705047,5.8800087
alexnet2023_baseline_pgd,1,456,NaN,clock,clock,0,0456_ske_dnn_0_clock_00_clock-0021-sketch-27.png,clock-0021-sketch-27.png,1.0,9.7709,3.271207,4.595977
alexnet2023_baseline_pgd,1,457,NaN,clock,clock,0,0457_ske_dnn_0_clock_00_clock-0022-sketch-28.png,clock-0022-sketch-28.png,1.0,12.2894335,3.836151,5.9773736
alexnet2023_baseline_pgd,1,458,NaN,clock,clock,0,0458_ske_dnn_0_clock_00_clock-0027-sketch-32.png,clock-0027-sketch-32.png,1.0,9.671197,5.349557,3.055861
alexnet2023_baseline_pgd,1,459,NaN,clock,clock,0,0459_ske_dnn_0_clock_00_clock-0028-sketch-33.png,clock-0028-sketch-33.png,1.0,13.808357,2.7035978,7.8522506
alexnet2023_baseline_pgd,1,460,NaN,clock,clock,0,0460_ske_dnn_0_clock_00_clock-0030-sketch-35.png,clock-0030-sketch-35.png,1.0,13.505447,4.3281956,6.489297
alexnet2023_baseline_pgd,1,461,NaN,clock,clock,0,0461_ske_dnn_0_clock_00_clock-0033-sketch-38.png,clock-0033-sketch-38.png,1.0,13.19411,5.0239277,5.777191
alexnet2023_baseline_pgd,1,462,NaN,clock,clock,0,0462_ske_dnn_0_clock_00_clock-0035-sketch-4.png,clock-0035-sketch-4.png,1.0,15.75885,4.292243,8.108116
alexnet2023_baseline_pgd,1,463,NaN,clock,clock,0,0463_ske_dnn_0_clock_00_clock-0044-sketch-48.png,clock-0044-sketch-48.png,1.0,7.604484,4.2927155,2.341774
alexnet2023_baseline_pgd,1,464,NaN,clock,clock,0,0464_ske_dnn_0_clock_00_clock-0046-sketch-5.png,clock-0046-sketch-5.png,1.0,10.045659,5.8179016,2.989476
alexnet2023_baseline_pgd,1,465,NaN,clock,clock,0,0465_ske_dnn_0_clock_00_clock-0049-sketch-7.png,clock-0049-sketch-7.png,1.0,13.092857,4.077478,6.3748355
alexnet2023_baseline_pgd,1,466,NaN,bottle,clock,0,0466_ske_dnn_0_clock_00_clock-0057-sketch-13.png,clock-0057-sketch-13.png,0.0,1.7014651,3.2359693,-1.0850583
alexnet2023_baseline_pgd,1,467,NaN,clock,clock,0,0467_ske_dnn_0_clock_00_clock-0059-sketch-15.png,clock-0059-sketch-15.png,1.0,8.529474,3.3476307,3.6641169
alexnet2023_baseline_pgd,1,468,NaN,clock,clock,0,0468_ske_dnn_0_clock_00_clock-0060-sketch-16.png,clock-0060-sketch-16.png,1.0,6.3986325,4.852131,1.0935419
alexnet2023_baseline_pgd,1,469,NaN,clock,clock,0,0469_ske_dnn_0_clock_00_clock-0067-sketch-22.png,clock-0067-sketch-22.png,1.0,8.029666,4.576288,2.441907
alexnet2023_baseline_pgd,1,470,NaN,oven,clock,0,0470_ske_dnn_0_clock_00_clock-0069-sketch-24.png,clock-0069-sketch-24.png,0.0,9.10851,11.885182,-1.9634039
alexnet2023_baseline_pgd,1,471,NaN,clock,clock,0,0471_ske_dnn_0_clock_00_clock-0070-sketch-25.png,clock-0070-sketch-25.png,1.0,7.7035117,7.484359,0.15496452
alexnet2023_baseline_pgd,1,472,NaN,clock,clock,0,0472_ske_dnn_0_clock_00_clock-0071-sketch-26.png,clock-0071-sketch-26.png,1.0,11.733701,5.0615234,4.7179418
alexnet2023_baseline_pgd,1,473,NaN,knife,clock,0,0473_ske_dnn_0_clock_00_clock-0073-sketch-28.png,clock-0073-sketch-28.png,0.0,3.96202,4.174388,-0.15016687
alexnet2023_baseline_pgd,1,474,NaN,clock,clock,0,0474_ske_dnn_0_clock_00_clock-0074-sketch-29.png,clock-0074-sketch-29.png,1.0,4.60913,2.065291,1.7987658
alexnet2023_baseline_pgd,1,475,NaN,clock,clock,0,0475_ske_dnn_0_clock_00_clock-0076-sketch-30.png,clock-0076-sketch-30.png,1.0,10.758812,7.3671184,2.3982897
alexnet2023_baseline_pgd,1,476,NaN,clock,clock,0,0476_ske_dnn_0_clock_00_clock-0077-sketch-31.png,clock-0077-sketch-31.png,1.0,10.367454,7.1614676,2.2669744
alexnet2023_baseline_pgd,1,477,NaN,clock,clock,0,0477_ske_dnn_0_clock_00_clock-0078-sketch-32.png,clock-0078-sketch-32.png,1.0,7.3334928,6.3777723,0.6757964
alexnet2023_baseline_pgd,1,478,NaN,clock,clock,0,0478_ske_dnn_0_clock_00_clock-0081-sketch-35.png,clock-0081-sketch-35.png,1.0,8.730733,5.3308268,2.4040968
alexnet2023_baseline_pgd,1,479,NaN,clock,clock,0,0479_ske_dnn_0_clock_00_clock-0085-sketch-39.png,clock-0085-sketch-39.png,1.0,7.8523507,5.645774,1.5602854
alexnet2023_baseline_pgd,1,480,NaN,oven,clock,0,0480_ske_dnn_0_clock_00_clock-0087-sketch-40.png,clock-0087-sketch-40.png,0.0,3.9754295,7.000641,-2.1391475
alexnet2023_baseline_pgd,1,481,NaN,clock,clock,0,0481_ske_dnn_0_clock_00_clock-0092-sketch-45.png,clock-0092-sketch-45.png,1.0,8.007306,6.4035964,1.133994
alexnet2023_baseline_pgd,1,482,NaN,clock,clock,0,0482_ske_dnn_0_clock_00_clock-0093-sketch-46.png,clock-0093-sketch-46.png,1.0,7.6308427,3.9093704,2.6314783
alexnet2023_baseline_pgd,1,483,NaN,clock,clock,0,0483_ske_dnn_0_clock_00_clock-0095-sketch-48.png,clock-0095-sketch-48.png,1.0,7.331604,5.4535975,1.3279511
alexnet2023_baseline_pgd,1,484,NaN,clock,clock,0,0484_ske_dnn_0_clock_00_clock-0099-sketch-6.png,clock-0099-sketch-6.png,1.0,5.0458264,4.579147,0.3299923
alexnet2023_baseline_pgd,1,485,NaN,clock,clock,0,0485_ske_dnn_0_clock_00_clock-0110-sketch-15.png,clock-0110-sketch-15.png,1.0,9.9930525,3.6807494,4.4634724
alexnet2023_baseline_pgd,1,486,NaN,clock,clock,0,0486_ske_dnn_0_clock_00_clock-0112-sketch-17.png,clock-0112-sketch-17.png,1.0,21.065577,5.5850983,10.946351
alexnet2023_baseline_pgd,1,487,NaN,clock,clock,0,0487_ske_dnn_0_clock_00_clock-0115-sketch-2.png,clock-0115-sketch-2.png,1.0,7.940582,4.2030125,2.6428607
alexnet2023_baseline_pgd,1,488,NaN,clock,clock,0,0488_ske_dnn_0_clock_00_clock-0118-sketch-22.png,clock-0118-sketch-22.png,1.0,8.684535,4.8081403,2.741025
alexnet2023_baseline_pgd,1,489,NaN,clock,clock,0,0489_ske_dnn_0_clock_00_clock-0123-sketch-27.png,clock-0123-sketch-27.png,1.0,16.014704,6.14014,6.982371
alexnet2023_baseline_pgd,1,490,NaN,clock,clock,0,0490_ske_dnn_0_clock_00_clock-0127-sketch-30.png,clock-0127-sketch-30.png,1.0,11.027661,4.87698,4.349189
alexnet2023_baseline_pgd,1,491,NaN,clock,clock,0,0491_ske_dnn_0_clock_00_clock-0131-sketch-34.png,clock-0131-sketch-34.png,1.0,11.271172,4.457851,4.817745
alexnet2023_baseline_pgd,1,492,NaN,clock,clock,0,0492_ske_dnn_0_clock_00_clock-0132-sketch-35.png,clock-0132-sketch-35.png,1.0,9.763099,3.782751,4.2287445
alexnet2023_baseline_pgd,1,493,NaN,clock,clock,0,0493_ske_dnn_0_clock_00_clock-0133-sketch-36.png,clock-0133-sketch-36.png,1.0,10.644509,6.025608,3.2660565
alexnet2023_baseline_pgd,1,494,NaN,clock,clock,0,0494_ske_dnn_0_clock_00_clock-0136-sketch-39.png,clock-0136-sketch-39.png,1.0,11.810466,2.901343,6.299701
alexnet2023_baseline_pgd,1,495,NaN,clock,clock,0,0495_ske_dnn_0_clock_00_clock-0137-sketch-4.png,clock-0137-sketch-4.png,1.0,12.012975,4.3651576,5.4078236
alexnet2023_baseline_pgd,1,496,NaN,clock,clock,0,0496_ske_dnn_0_clock_00_clock-0138-sketch-40.png,clock-0138-sketch-40.png,1.0,13.49305,6.2028437,5.154954
alexnet2023_baseline_pgd,1,497,NaN,clock,clock,0,0497_ske_dnn_0_clock_00_clock-0141-sketch-43.png,clock-0141-sketch-43.png,1.0,10.7015085,5.226259,3.871586
alexnet2023_baseline_pgd,1,498,NaN,clock,clock,0,0498_ske_dnn_0_clock_00_clock-0143-sketch-45.png,clock-0143-sketch-45.png,1.0,8.435323,3.6181042,3.4062881
alexnet2023_baseline_pgd,1,499,NaN,clock,clock,0,0499_ske_dnn_0_clock_00_clock-0144-sketch-46.png,clock-0144-sketch-46.png,1.0,12.730845,5.213034,5.3158956
alexnet2023_baseline_pgd,1,500,NaN,clock,clock,0,0500_ske_dnn_0_clock_00_clock-0150-sketch-6.png,clock-0150-sketch-6.png,1.0,12.793774,4.0355353,6.1930094
alexnet2023_baseline_pgd,1,501,NaN,dog,dog,0,0501_ske_dnn_0_dog_00_dog-0011-sketch-18.png,dog-0011-sketch-18.png,1.0,3.1634653,2.7247016,0.31025273
alexnet2023_baseline_pgd,1,502,NaN,bottle,dog,0,0502_ske_dnn_0_dog_00_dog-0111-sketch-17.png,dog-0111-sketch-17.png,0.0,-1.0635697,3.3309343,-3.1073837
alexnet2023_baseline_pgd,1,503,NaN,knife,dog,0,0503_ske_dnn_0_dog_00_dog-0215-sketch-19.png,dog-0215-sketch-19.png,0.0,-2.0943255,6.253047,-5.9024835
alexnet2023_baseline_pgd,1,504,NaN,clock,dog,0,0504_ske_dnn_0_dog_00_dog-0243-sketch-44.png,dog-0243-sketch-44.png,0.0,1.4037856,4.01862,-1.8489671
alexnet2023_baseline_pgd,1,505,NaN,knife,dog,0,0505_ske_dnn_0_dog_00_dog-0476-sketch-26.png,dog-0476-sketch-26.png,0.0,2.5598462,3.6337938,-0.7593957
alexnet2023_baseline_pgd,1,506,NaN,chair,dog,0,0506_ske_dnn_0_dog_00_dog-0607-sketch-8.png,dog-0607-sketch-8.png,0.0,2.623282,3.2998018,-0.4783718
alexnet2023_baseline_pgd,1,507,NaN,dog,dog,0,0507_ske_dnn_0_dog_00_dog-0630-sketch-28.png,dog-0630-sketch-28.png,1.0,7.471047,4.6195493,2.0163133
alexnet2023_baseline_pgd,1,508,NaN,dog,dog,0,0508_ske_dnn_0_dog_00_dog-1035-sketch-27.png,dog-1035-sketch-27.png,1.0,3.9819872,2.69447,0.91041225
alexnet2023_baseline_pgd,1,509,NaN,dog,dog,0,0509_ske_dnn_0_dog_00_dog-1292-sketch-3.png,dog-1292-sketch-3.png,1.0,3.7376,2.329265,0.99584323
alexnet2023_baseline_pgd,1,510,NaN,knife,dog,0,0510_ske_dnn_0_dog_00_dog-1393-sketch-3.png,dog-1393-sketch-3.png,0.0,0.7009526,2.8601804,-1.5268047
alexnet2023_baseline_pgd,1,511,NaN,bottle,dog,0,0511_ske_dnn_0_dog_00_dog-1460-sketch-44.png,dog-1460-sketch-44.png,0.0,2.218145,3.5494397,-0.94136757
alexnet2023_baseline_pgd,1,512,NaN,bird,dog,0,0512_ske_dnn_0_dog_00_dog-1617-sketch-48.png,dog-1617-sketch-48.png,0.0,-2.12234,2.8558817,-3.5201344
alexnet2023_baseline_pgd,1,513,NaN,dog,dog,0,0513_ske_dnn_0_dog_00_dog-1657-sketch-38.png,dog-1657-sketch-38.png,1.0,7.3165083,6.438329,0.6209664
alexnet2023_baseline_pgd,1,514,NaN,clock,dog,0,0514_ske_dnn_0_dog_00_dog-1711-sketch-40.png,dog-1711-sketch-40.png,0.0,1.2389117,2.5403564,-0.92026037
alexnet2023_baseline_pgd,1,515,NaN,dog,dog,0,0515_ske_dnn_0_dog_00_dog-1759-sketch-38.png,dog-1759-sketch-38.png,1.0,7.776679,4.6220527,2.2306578
alexnet2023_baseline_pgd,1,516,NaN,knife,dog,0,0516_ske_dnn_0_dog_00_dog-1797-sketch-26.png,dog-1797-sketch-26.png,0.0,-1.6911452,5.434908,-5.0388803
alexnet2023_baseline_pgd,1,517,NaN,elephant,dog,0,0517_ske_dnn_0_dog_00_dog-1973-sketch-47.png,dog-1973-sketch-47.png,0.0,1.2166269,2.0980515,-0.6232614
alexnet2023_baseline_pgd,1,518,NaN,knife,dog,0,0518_ske_dnn_0_dog_00_dog-2150-sketch-22.png,dog-2150-sketch-22.png,0.0,-0.08714541,5.763241,-4.136848
alexnet2023_baseline_pgd,1,519,NaN,knife,dog,0,0519_ske_dnn_0_dog_00_dog-2198-sketch-20.png,dog-2198-sketch-20.png,0.0,-0.84715754,2.913002,-2.6588342
alexnet2023_baseline_pgd,1,520,NaN,elephant,dog,0,0520_ske_dnn_0_dog_00_dog-2291-sketch-12.png,dog-2291-sketch-12.png,0.0,4.5305214,7.0407486,-1.7749987
alexnet2023_baseline_pgd,1,521,NaN,dog,dog,0,0521_ske_dnn_0_dog_00_dog-2323-sketch-41.png,dog-2323-sketch-41.png,1.0,4.9798756,3.7920866,0.83989364
alexnet2023_baseline_pgd,1,522,NaN,dog,dog,0,0522_ske_dnn_0_dog_00_dog-2454-sketch-21.png,dog-2454-sketch-21.png,1.0,6.780158,2.7253826,2.8671591
alexnet2023_baseline_pgd,1,523,NaN,dog,dog,0,0523_ske_dnn_0_dog_00_dog-2506-sketch-23.png,dog-2506-sketch-23.png,1.0,6.897066,2.5764937,3.0551062
alexnet2023_baseline_pgd,1,524,NaN,dog,dog,0,0524_ske_dnn_0_dog_00_dog-2541-sketch-0.png,dog-2541-sketch-0.png,1.0,4.418748,2.7354863,1.1902457
alexnet2023_baseline_pgd,1,525,NaN,dog,dog,0,0525_ske_dnn_0_dog_00_dog-2615-sketch-3.png,dog-2615-sketch-3.png,1.0,8.883372,5.64885,2.2871528
alexnet2023_baseline_pgd,1,526,NaN,dog,dog,0,0526_ske_dnn_0_dog_00_dog-2948-sketch-10.png,dog-2948-sketch-10.png,1.0,7.9476953,4.7011,2.2956896
alexnet2023_baseline_pgd,1,527,NaN,elephant,dog,0,0527_ske_dnn_0_dog_00_dog-3000-sketch-11.png,dog-3000-sketch-11.png,0.0,5.829266,6.8086424,-0.69252366
alexnet2023_baseline_pgd,1,528,NaN,airplane,dog,0,0528_ske_dnn_0_dog_00_dog-3153-sketch-11.png,dog-3153-sketch-11.png,0.0,-0.6485512,2.7179413,-2.3804698
alexnet2023_baseline_pgd,1,529,NaN,knife,dog,0,0529_ske_dnn_0_dog_00_dog-3251-sketch-9.png,dog-3251-sketch-9.png,0.0,1.3821683,1.6127814,-0.1630681
alexnet2023_baseline_pgd,1,530,NaN,clock,dog,0,0530_ske_dnn_0_dog_00_dog-3303-sketch-0.png,dog-3303-sketch-0.png,0.0,3.3400888,3.342047,-0.0013846083
alexnet2023_baseline_pgd,1,531,NaN,dog,dog,0,0531_ske_dnn_0_dog_00_dog-3338-sketch-40.png,dog-3338-sketch-40.png,1.0,9.673759,2.7443888,4.899805
alexnet2023_baseline_pgd,1,532,NaN,dog,dog,0,0532_ske_dnn_0_dog_00_dog-3417-sketch-2.png,dog-3417-sketch-2.png,1.0,2.5691757,2.546119,0.016303582
alexnet2023_baseline_pgd,1,533,NaN,bird,dog,0,0533_ske_dnn_0_dog_00_dog-3503-sketch-6.png,dog-3503-sketch-6.png,0.0,0.29405177,2.5887122,-1.62257
alexnet2023_baseline_pgd,1,534,NaN,cat,dog,0,0534_ske_dnn_0_dog_00_dog-3573-sketch-22.png,dog-3573-sketch-22.png,0.0,2.7120876,3.7693665,-0.7476091
alexnet2023_baseline_pgd,1,535,NaN,cat,dog,0,0535_ske_dnn_0_dog_00_dog-3646-sketch-42.png,dog-3646-sketch-42.png,0.0,6.4917083,7.4066353,-0.6469511
alexnet2023_baseline_pgd,1,536,NaN,dog,dog,0,0536_ske_dnn_0_dog_00_dog-3695-sketch-40.png,dog-3695-sketch-40.png,1.0,4.1326137,2.8300347,0.9210624
alexnet2023_baseline_pgd,1,537,NaN,chair,dog,0,0537_ske_dnn_0_dog_00_dog-3915-sketch-0.png,dog-3915-sketch-0.png,0.0,0.38365152,3.0439072,-1.8810848
alexnet2023_baseline_pgd,1,538,NaN,cat,dog,0,0538_ske_dnn_0_dog_00_dog-4202-sketch-4.png,dog-4202-sketch-4.png,0.0,2.9778323,11.931552,-6.3312364
alexnet2023_baseline_pgd,1,539,NaN,dog,dog,0,0539_ske_dnn_0_dog_00_dog-4208-sketch-45.png,dog-4208-sketch-45.png,1.0,4.869862,3.0266707,1.3033332
alexnet2023_baseline_pgd,1,540,NaN,dog,dog,0,0540_ske_dnn_0_dog_00_dog-4325-sketch-13.png,dog-4325-sketch-13.png,1.0,6.3393598,4.3384943,1.4148256
alexnet2023_baseline_pgd,1,541,NaN,dog,dog,0,0541_ske_dnn_0_dog_00_dog-4475-sketch-11.png,dog-4475-sketch-11.png,1.0,5.643663,3.5033972,1.5133964
alexnet2023_baseline_pgd,1,542,NaN,bird,dog,0,0542_ske_dnn_0_dog_00_dog-4499-sketch-33.png,dog-4499-sketch-33.png,0.0,-1.5909282,3.6149352,-3.6811013
alexnet2023_baseline_pgd,1,543,NaN,bottle,dog,0,0543_ske_dnn_0_dog_00_dog-4581-sketch-16.png,dog-4581-sketch-16.png,0.0,0.06822416,2.854842,-1.9704363
alexnet2023_baseline_pgd,1,544,NaN,clock,dog,0,0544_ske_dnn_0_dog_00_dog-4709-sketch-4.png,dog-4709-sketch-4.png,0.0,-4.0213957,7.799048,-8.358316
alexnet2023_baseline_pgd,1,545,NaN,clock,dog,0,0545_ske_dnn_0_dog_00_dog-4909-sketch-37.png,dog-4909-sketch-37.png,0.0,1.0688964,3.6390398,-1.8173658
alexnet2023_baseline_pgd,1,546,NaN,dog,dog,0,0546_ske_dnn_0_dog_00_dog-5028-sketch-8.png,dog-5028-sketch-8.png,1.0,6.8034344,3.9600582,2.0105705
alexnet2023_baseline_pgd,1,547,NaN,dog,dog,0,0547_ske_dnn_0_dog_00_dog-5084-sketch-11.png,dog-5084-sketch-11.png,1.0,4.7993293,1.6703053,2.2125542
alexnet2023_baseline_pgd,1,548,NaN,clock,dog,0,0548_ske_dnn_0_dog_00_dog-5223-sketch-45.png,dog-5223-sketch-45.png,0.0,0.98312867,3.8419876,-2.0215187
alexnet2023_baseline_pgd,1,549,NaN,dog,dog,0,0549_ske_dnn_0_dog_00_dog-5325-sketch-45.png,dog-5325-sketch-45.png,1.0,6.6731944,2.903552,2.6655397
alexnet2023_baseline_pgd,1,550,NaN,dog,dog,0,0550_ske_dnn_0_dog_00_dog-5354-sketch-25.png,dog-5354-sketch-25.png,1.0,3.6203957,3.5341547,0.0609816
alexnet2023_baseline_pgd,1,551,NaN,elephant,elephant,0,0551_ske_dnn_0_elephant_00_elephant-0001-sketch-0.png,elephant-0001-sketch-0.png,1.0,5.7598815,5.3057895,0.32109156
alexnet2023_baseline_pgd,1,552,NaN,elephant,elephant,0,0552_ske_dnn_0_elephant_00_elephant-0002-sketch-1.png,elephant-0002-sketch-1.png,1.0,7.452524,4.3994584,2.1588435
alexnet2023_baseline_pgd,1,553,NaN,bottle,elephant,0,0553_ske_dnn_0_elephant_00_elephant-0006-sketch-13.png,elephant-0006-sketch-13.png,0.0,3.5253322,3.7584589,-0.16484544
alexnet2023_baseline_pgd,1,554,NaN,knife,elephant,0,0554_ske_dnn_0_elephant_00_elephant-0011-sketch-18.png,elephant-0011-sketch-18.png,0.0,-3.6879342,5.1678414,-6.261979
alexnet2023_baseline_pgd,1,555,NaN,clock,elephant,0,0555_ske_dnn_0_elephant_00_elephant-0012-sketch-19.png,elephant-0012-sketch-19.png,0.0,0.5675379,3.5985966,-2.1432822
alexnet2023_baseline_pgd,1,556,NaN,elephant,elephant,0,0556_ske_dnn_0_elephant_00_elephant-0013-sketch-2.png,elephant-0013-sketch-2.png,1.0,13.532085,5.154876,5.923581
alexnet2023_baseline_pgd,1,557,NaN,elephant,elephant,0,0557_ske_dnn_0_elephant_00_elephant-0014-sketch-20.png,elephant-0014-sketch-20.png,1.0,4.0735064,2.963314,0.7850245
alexnet2023_baseline_pgd,1,558,NaN,elephant,elephant,0,0558_ske_dnn_0_elephant_00_elephant-0015-sketch-21.png,elephant-0015-sketch-21.png,1.0,7.795598,2.4654133,3.76901
alexnet2023_baseline_pgd,1,559,NaN,knife,elephant,0,0559_ske_dnn_0_elephant_00_elephant-0016-sketch-22.png,elephant-0016-sketch-22.png,0.0,-1.2456946,4.7197685,-4.2182198
alexnet2023_baseline_pgd,1,560,NaN,elephant,elephant,0,0560_ske_dnn_0_elephant_00_elephant-0019-sketch-25.png,elephant-0019-sketch-25.png,1.0,13.622062,3.8948205,6.8781986
alexnet2023_baseline_pgd,1,561,NaN,knife,elephant,0,0561_ske_dnn_0_elephant_00_elephant-0020-sketch-26.png,elephant-0020-sketch-26.png,0.0,0.42499524,4.279781,-2.7257452
alexnet2023_baseline_pgd,1,562,NaN,clock,elephant,0,0562_ske_dnn_0_elephant_00_elephant-0021-sketch-27.png,elephant-0021-sketch-27.png,0.0,2.1362648,4.110733,-1.3961599
alexnet2023_baseline_pgd,1,563,NaN,knife,elephant,0,0563_ske_dnn_0_elephant_00_elephant-0022-sketch-28.png,elephant-0022-sketch-28.png,0.0,2.314934,4.044698,-1.2231281
alexnet2023_baseline_pgd,1,564,NaN,elephant,elephant,0,0564_ske_dnn_0_elephant_00_elephant-0025-sketch-30.png,elephant-0025-sketch-30.png,1.0,6.7258143,2.911776,2.6969323
alexnet2023_baseline_pgd,1,565,NaN,elephant,elephant,0,0565_ske_dnn_0_elephant_00_elephant-0028-sketch-33.png,elephant-0028-sketch-33.png,1.0,9.141893,4.8145967,3.059861
alexnet2023_baseline_pgd,1,566,NaN,elephant,elephant,0,0566_ske_dnn_0_elephant_00_elephant-0029-sketch-34.png,elephant-0029-sketch-34.png,1.0,15.137735,5.5624633,6.7707396
alexnet2023_baseline_pgd,1,567,NaN,knife,elephant,0,0567_ske_dnn_0_elephant_00_elephant-0030-sketch-35.png,elephant-0030-sketch-35.png,0.0,1.242219,6.6604137,-3.8312423
alexnet2023_baseline_pgd,1,568,NaN,elephant,elephant,0,0568_ske_dnn_0_elephant_00_elephant-0032-sketch-37.png,elephant-0032-sketch-37.png,1.0,6.00879,2.2514403,2.6568475
alexnet2023_baseline_pgd,1,569,NaN,knife,elephant,0,0569_ske_dnn_0_elephant_00_elephant-0033-sketch-38.png,elephant-0033-sketch-38.png,0.0,1.3221365,5.1052017,-2.6750312
alexnet2023_baseline_pgd,1,570,NaN,elephant,elephant,0,0570_ske_dnn_0_elephant_00_elephant-0037-sketch-41.png,elephant-0037-sketch-41.png,1.0,6.0492544,1.746205,3.0427155
alexnet2023_baseline_pgd,1,571,NaN,elephant,elephant,0,0571_ske_dnn_0_elephant_00_elephant-0039-sketch-43.png,elephant-0039-sketch-43.png,1.0,10.035613,5.8353996,2.9699996
alexnet2023_baseline_pgd,1,572,NaN,elephant,elephant,0,0572_ske_dnn_0_elephant_00_elephant-0040-sketch-44.png,elephant-0040-sketch-44.png,1.0,7.2173758,3.4959033,2.6314785
alexnet2023_baseline_pgd,1,573,NaN,elephant,elephant,0,0573_ske_dnn_0_elephant_00_elephant-0043-sketch-47.png,elephant-0043-sketch-47.png,1.0,5.9884205,2.5314183,2.4444697
alexnet2023_baseline_pgd,1,574,NaN,elephant,elephant,0,0574_ske_dnn_0_elephant_00_elephant-0044-sketch-48.png,elephant-0044-sketch-48.png,1.0,11.942404,4.1327033,5.522292
alexnet2023_baseline_pgd,1,575,NaN,elephant,elephant,0,0575_ske_dnn_0_elephant_00_elephant-0046-sketch-5.png,elephant-0046-sketch-5.png,1.0,4.767788,2.969244,1.2717626
alexnet2023_baseline_pgd,1,576,NaN,knife,elephant,0,0576_ske_dnn_0_elephant_00_elephant-0047-sketch-50.png,elephant-0047-sketch-50.png,0.0,-2.4950938,4.8218803,-5.173882
alexnet2023_baseline_pgd,1,577,NaN,knife,elephant,0,0577_ske_dnn_0_elephant_00_elephant-0048-sketch-6.png,elephant-0048-sketch-6.png,0.0,1.4064735,5.4323072,-2.8466942
alexnet2023_baseline_pgd,1,578,NaN,elephant,elephant,0,0578_ske_dnn_0_elephant_00_elephant-0050-sketch-8.png,elephant-0050-sketch-8.png,1.0,6.347566,2.7318985,2.556663
alexnet2023_baseline_pgd,1,579,NaN,elephant,elephant,0,0579_ske_dnn_0_elephant_00_elephant-0052-sketch-0.png,elephant-0052-sketch-0.png,1.0,9.575668,3.255468,4.4690566
alexnet2023_baseline_pgd,1,580,NaN,elephant,elephant,0,0580_ske_dnn_0_elephant_00_elephant-0054-sketch-10.png,elephant-0054-sketch-10.png,1.0,9.603294,3.742151,4.144454
alexnet2023_baseline_pgd,1,581,NaN,elephant,elephant,0,0581_ske_dnn_0_elephant_00_elephant-0055-sketch-11.png,elephant-0055-sketch-11.png,1.0,5.160926,2.0616071,2.1915493
alexnet2023_baseline_pgd,1,582,NaN,elephant,elephant,0,0582_ske_dnn_0_elephant_00_elephant-0057-sketch-13.png,elephant-0057-sketch-13.png,1.0,2.383235,2.361598,0.015299643
alexnet2023_baseline_pgd,1,583,NaN,elephant,elephant,0,0583_ske_dnn_0_elephant_00_elephant-0058-sketch-14.png,elephant-0058-sketch-14.png,1.0,8.032436,3.090222,3.4946735
alexnet2023_baseline_pgd,1,584,NaN,elephant,elephant,0,0584_ske_dnn_0_elephant_00_elephant-0061-sketch-17.png,elephant-0061-sketch-17.png,1.0,17.111841,2.4519775,10.366089
alexnet2023_baseline_pgd,1,585,NaN,bottle,elephant,0,0585_ske_dnn_0_elephant_00_elephant-0062-sketch-18.png,elephant-0062-sketch-18.png,0.0,4.3804297,5.649312,-0.8972353
alexnet2023_baseline_pgd,1,586,NaN,knife,elephant,0,0586_ske_dnn_0_elephant_00_elephant-0065-sketch-20.png,elephant-0065-sketch-20.png,0.0,0.12272492,3.741806,-2.5590768
alexnet2023_baseline_pgd,1,587,NaN,elephant,elephant,0,0587_ske_dnn_0_elephant_00_elephant-0066-sketch-21.png,elephant-0066-sketch-21.png,1.0,14.254179,2.923672,8.011879
alexnet2023_baseline_pgd,1,588,NaN,elephant,elephant,0,0588_ske_dnn_0_elephant_00_elephant-0071-sketch-26.png,elephant-0071-sketch-26.png,1.0,8.657625,1.6768322,4.9361663
alexnet2023_baseline_pgd,1,589,NaN,knife,elephant,0,0589_ske_dnn_0_elephant_00_elephant-0075-sketch-3.png,elephant-0075-sketch-3.png,0.0,-0.2876739,2.9473882,-2.2875345
alexnet2023_baseline_pgd,1,590,NaN,knife,elephant,0,0590_ske_dnn_0_elephant_00_elephant-0076-sketch-30.png,elephant-0076-sketch-30.png,0.0,-2.2348924,3.807207,-4.2724094
alexnet2023_baseline_pgd,1,591,NaN,knife,elephant,0,0591_ske_dnn_0_elephant_00_elephant-0077-sketch-31.png,elephant-0077-sketch-31.png,0.0,1.7843215,3.4019036,-1.1438032
alexnet2023_baseline_pgd,1,592,NaN,knife,elephant,0,0592_ske_dnn_0_elephant_00_elephant-0079-sketch-33.png,elephant-0079-sketch-33.png,0.0,5.535357,6.2581344,-0.5110808
alexnet2023_baseline_pgd,1,593,NaN,bottle,elephant,0,0593_ske_dnn_0_elephant_00_elephant-0080-sketch-34.png,elephant-0080-sketch-34.png,0.0,3.1718717,3.9309926,-0.5367796
alexnet2023_baseline_pgd,1,594,NaN,elephant,elephant,0,0594_ske_dnn_0_elephant_00_elephant-0082-sketch-36.png,elephant-0082-sketch-36.png,1.0,7.556114,2.7628508,3.3893492
alexnet2023_baseline_pgd,1,595,NaN,elephant,elephant,0,0595_ske_dnn_0_elephant_00_elephant-0086-sketch-4.png,elephant-0086-sketch-4.png,1.0,4.7166243,2.4493134,1.603231
alexnet2023_baseline_pgd,1,596,NaN,elephant,elephant,0,0596_ske_dnn_0_elephant_00_elephant-0090-sketch-43.png,elephant-0090-sketch-43.png,1.0,11.836813,3.6582987,5.783083
alexnet2023_baseline_pgd,1,597,NaN,elephant,elephant,0,0597_ske_dnn_0_elephant_00_elephant-0094-sketch-47.png,elephant-0094-sketch-47.png,1.0,8.316523,6.352478,1.3887893
alexnet2023_baseline_pgd,1,598,NaN,clock,elephant,0,0598_ske_dnn_0_elephant_00_elephant-0098-sketch-50.png,elephant-0098-sketch-50.png,0.0,1.0542809,5.086122,-2.8509424
alexnet2023_baseline_pgd,1,599,NaN,elephant,elephant,0,0599_ske_dnn_0_elephant_00_elephant-0100-sketch-7.png,elephant-0100-sketch-7.png,1.0,7.1461678,2.7134778,3.1343849
alexnet2023_baseline_pgd,1,600,NaN,clock,elephant,0,0600_ske_dnn_0_elephant_00_elephant-0101-sketch-8.png,elephant-0101-sketch-8.png,0.0,0.8623451,4.3261085,-2.4492505
alexnet2023_baseline_pgd,1,601,NaN,keyboard,keyboard,0,0601_ske_dnn_0_keyboard_00_keyboard-0002-sketch-1.png,keyboard-0002-sketch-1.png,1.0,8.754232,4.7695427,2.8176012
alexnet2023_baseline_pgd,1,602,NaN,keyboard,keyboard,0,0602_ske_dnn_0_keyboard_00_keyboard-0003-sketch-10.png,keyboard-0003-sketch-10.png,1.0,8.64794,8.517005,0.092584826
alexnet2023_baseline_pgd,1,603,NaN,keyboard,keyboard,0,0603_ske_dnn_0_keyboard_00_keyboard-0004-sketch-11.png,keyboard-0004-sketch-11.png,1.0,12.536832,4.827371,5.451412
alexnet2023_baseline_pgd,1,604,NaN,keyboard,keyboard,0,0604_ske_dnn_0_keyboard_00_keyboard-0005-sketch-12.png,keyboard-0005-sketch-12.png,1.0,16.895695,4.332118,8.88379
alexnet2023_baseline_pgd,1,605,NaN,keyboard,keyboard,0,0605_ske_dnn_0_keyboard_00_keyboard-0006-sketch-13.png,keyboard-0006-sketch-13.png,1.0,9.347397,2.9629216,4.514506
alexnet2023_baseline_pgd,1,606,NaN,keyboard,keyboard,0,0606_ske_dnn_0_keyboard_00_keyboard-0007-sketch-14.png,keyboard-0007-sketch-14.png,1.0,17.039394,4.215121,9.068131
alexnet2023_baseline_pgd,1,607,NaN,keyboard,keyboard,0,0607_ske_dnn_0_keyboard_00_keyboard-0008-sketch-15.png,keyboard-0008-sketch-15.png,1.0,17.635443,4.9494596,8.9703455
alexnet2023_baseline_pgd,1,608,NaN,keyboard,keyboard,0,0608_ske_dnn_0_keyboard_00_keyboard-0009-sketch-16.png,keyboard-0009-sketch-16.png,1.0,8.200403,5.16957,2.1431227
alexnet2023_baseline_pgd,1,609,NaN,knife,keyboard,0,0609_ske_dnn_0_keyboard_00_keyboard-0010-sketch-17.png,keyboard-0010-sketch-17.png,0.0,2.7496638,4.691715,-1.3732374
alexnet2023_baseline_pgd,1,610,NaN,keyboard,keyboard,0,0610_ske_dnn_0_keyboard_00_keyboard-0014-sketch-20.png,keyboard-0014-sketch-20.png,1.0,16.21222,5.2763324,7.7328396
alexnet2023_baseline_pgd,1,611,NaN,keyboard,keyboard,0,0611_ske_dnn_0_keyboard_00_keyboard-0016-sketch-22.png,keyboard-0016-sketch-22.png,1.0,11.461473,5.8078475,3.9977174
alexnet2023_baseline_pgd,1,612,NaN,keyboard,keyboard,0,0612_ske_dnn_0_keyboard_00_keyboard-0017-sketch-23.png,keyboard-0017-sketch-23.png,1.0,10.425281,5.345154,3.5921922
alexnet2023_baseline_pgd,1,613,NaN,keyboard,keyboard,0,0613_ske_dnn_0_keyboard_00_keyboard-0019-sketch-25.png,keyboard-0019-sketch-25.png,1.0,7.5950785,7.516905,0.05527711
alexnet2023_baseline_pgd,1,614,NaN,keyboard,keyboard,0,0614_ske_dnn_0_keyboard_00_keyboard-0022-sketch-28.png,keyboard-0022-sketch-28.png,1.0,8.196531,2.3803823,4.1126385
alexnet2023_baseline_pgd,1,615,NaN,keyboard,keyboard,0,0615_ske_dnn_0_keyboard_00_keyboard-0023-sketch-29.png,keyboard-0023-sketch-29.png,1.0,10.362846,4.7180753,3.991456
alexnet2023_baseline_pgd,1,616,NaN,keyboard,keyboard,0,0616_ske_dnn_0_keyboard_00_keyboard-0026-sketch-31.png,keyboard-0026-sketch-31.png,1.0,8.045918,4.7363596,2.3402116
alexnet2023_baseline_pgd,1,617,NaN,airplane,keyboard,0,0617_ske_dnn_0_keyboard_00_keyboard-0028-sketch-33.png,keyboard-0028-sketch-33.png,0.0,-0.21031287,2.7179413,-2.0705884
alexnet2023_baseline_pgd,1,618,NaN,keyboard,keyboard,0,0618_ske_dnn_0_keyboard_00_keyboard-0029-sketch-34.png,keyboard-0029-sketch-34.png,1.0,9.550854,3.6834366,4.1488905
alexnet2023_baseline_pgd,1,619,NaN,keyboard,keyboard,0,0619_ske_dnn_0_keyboard_00_keyboard-0031-sketch-36.png,keyboard-0031-sketch-36.png,1.0,14.755402,5.581571,6.4868774
alexnet2023_baseline_pgd,1,620,NaN,keyboard,keyboard,0,0620_ske_dnn_0_keyboard_00_keyboard-0033-sketch-38.png,keyboard-0033-sketch-38.png,1.0,12.612663,5.477851,5.0450745
alexnet2023_baseline_pgd,1,621,NaN,knife,keyboard,0,0621_ske_dnn_0_keyboard_00_keyboard-0034-sketch-39.png,keyboard-0034-sketch-39.png,0.0,4.602873,5.9327183,-0.9403427
alexnet2023_baseline_pgd,1,622,NaN,keyboard,keyboard,0,0622_ske_dnn_0_keyboard_00_keyboard-0035-sketch-4.png,keyboard-0035-sketch-4.png,1.0,9.0489235,4.31599,3.3466895
alexnet2023_baseline_pgd,1,623,NaN,keyboard,keyboard,0,0623_ske_dnn_0_keyboard_00_keyboard-0037-sketch-41.png,keyboard-0037-sketch-41.png,1.0,11.978746,5.3502393,4.6870623
alexnet2023_baseline_pgd,1,624,NaN,keyboard,keyboard,0,0624_ske_dnn_0_keyboard_00_keyboard-0038-sketch-42.png,keyboard-0038-sketch-42.png,1.0,17.023462,3.8804457,9.293516
alexnet2023_baseline_pgd,1,625,NaN,keyboard,keyboard,0,0625_ske_dnn_0_keyboard_00_keyboard-0039-sketch-43.png,keyboard-0039-sketch-43.png,1.0,9.027297,4.1826515,3.4256818
alexnet2023_baseline_pgd,1,626,NaN,keyboard,keyboard,0,0626_ske_dnn_0_keyboard_00_keyboard-0041-sketch-45.png,keyboard-0041-sketch-45.png,1.0,17.658718,5.1067753,8.875564
alexnet2023_baseline_pgd,1,627,NaN,keyboard,keyboard,0,0627_ske_dnn_0_keyboard_00_keyboard-0042-sketch-46.png,keyboard-0042-sketch-46.png,1.0,7.255988,5.118655,1.5113226
alexnet2023_baseline_pgd,1,628,NaN,knife,keyboard,0,0628_ske_dnn_0_keyboard_00_keyboard-0043-sketch-47.png,keyboard-0043-sketch-47.png,0.0,3.6661544,4.821169,-0.81671864
alexnet2023_baseline_pgd,1,629,NaN,keyboard,keyboard,0,0629_ske_dnn_0_keyboard_00_keyboard-0044-sketch-48.png,keyboard-0044-sketch-48.png,1.0,13.562251,7.1378684,4.5427246
alexnet2023_baseline_pgd,1,630,NaN,keyboard,keyboard,0,0630_ske_dnn_0_keyboard_00_keyboard-0045-sketch-49.png,keyboard-0045-sketch-49.png,1.0,11.063675,3.6974626,5.2086987
alexnet2023_baseline_pgd,1,631,NaN,keyboard,keyboard,0,0631_ske_dnn_0_keyboard_00_keyboard-0047-sketch-50.png,keyboard-0047-sketch-50.png,1.0,16.346752,5.3694153,7.7621493
