subj,session,trial,rt,object_response,category,condition,imagename,filename,is_correct,targ_act,max_nontarg_act,decision_margin
bagnet33,1,1,NaN,clock,airplane,NaN,airplane1.png,airplane1.png,0.0,-3.552429,7.5460696,-7.8478236
bagnet33,1,2,NaN,clock,airplane,NaN,airplane10.png,airplane10.png,0.0,-4.928999,5.46427,-7.3491507
bagnet33,1,3,NaN,clock,airplane,NaN,airplane2.png,airplane2.png,0.0,-6.748449,5.846208,-8.905767
bagnet33,1,4,NaN,clock,airplane,NaN,airplane3.png,airplane3.png,0.0,-2.630426,4.6085734,-5.118746
bagnet33,1,5,NaN,clock,airplane,NaN,airplane4.png,airplane4.png,0.0,-5.7842274,4.77747,-7.468248
bagnet33,1,6,NaN,clock,airplane,NaN,airplane5.png,airplane5.png,0.0,-10.571943,11.929059,-15.910612
bagnet33,1,7,NaN,clock,airplane,NaN,airplane6.png,airplane6.png,0.0,-4.371671,6.0167847,-7.345748
bagnet33,1,8,NaN,clock,airplane,NaN,airplane7.png,airplane7.png,0.0,-4.776836,8.312889,-9.255834
bagnet33,1,9,NaN,clock,airplane,NaN,airplane8.png,airplane8.png,0.0,-5.630475,10.215488,-11.204788
bagnet33,1,10,NaN,clock,airplane,NaN,airplane9.png,airplane9.png,0.0,-7.2413855,7.7940955,-10.63169
bagnet33,1,11,NaN,clock,bear,NaN,bear1.png,bear1.png,0.0,1.1104046,12.379123,-7.968187
bagnet33,1,12,NaN,clock,bear,NaN,bear10.png,bear10.png,0.0,-0.8755946,9.835804,-7.574103
bagnet33,1,13,NaN,clock,bear,NaN,bear2.png,bear2.png,0.0,-0.031837106,14.585976,-10.336355
bagnet33,1,14,NaN,clock,bear,NaN,bear3.png,bear3.png,0.0,-1.4658214,12.652108,-9.982883
bagnet33,1,15,NaN,clock,bear,NaN,bear4.png,bear4.png,0.0,2.0565104,8.872958,-4.8199563
bagnet33,1,16,NaN,clock,bear,NaN,bear5.png,bear5.png,0.0,-0.67788243,13.648358,-10.130182
bagnet33,1,17,NaN,clock,bear,NaN,bear6.png,bear6.png,0.0,0.6082536,13.143729,-8.86392
bagnet33,1,18,NaN,clock,bear,NaN,bear7.png,bear7.png,0.0,2.187647,15.165188,-9.176507
bagnet33,1,19,NaN,clock,bear,NaN,bear8.png,bear8.png,0.0,0.63577545,14.762013,-9.988759
bagnet33,1,20,NaN,clock,bear,NaN,bear9.png,bear9.png,0.0,1.891122,13.7315855,-8.372472
bagnet33,1,21,NaN,clock,bicycle,NaN,bicycle1.png,bicycle1.png,0.0,-3.3445423,13.14416,-11.659274
bagnet33,1,22,NaN,clock,bicycle,NaN,bicycle10.png,bicycle10.png,0.0,-3.2045946,14.356586,-12.41763
bagnet33,1,23,NaN,clock,bicycle,NaN,bicycle2.png,bicycle2.png,0.0,-5.2426305,10.129758,-10.869921
bagnet33,1,24,NaN,clock,bicycle,NaN,bicycle3.png,bicycle3.png,0.0,-4.4342275,11.846164,-11.511975
bagnet33,1,25,NaN,clock,bicycle,NaN,bicycle4.png,bicycle4.png,0.0,-3.5919154,15.198474,-13.286813
bagnet33,1,26,NaN,clock,bicycle,NaN,bicycle5.png,bicycle5.png,0.0,-4.364544,13.102857,-12.351316
bagnet33,1,27,NaN,clock,bicycle,NaN,bicycle6.png,bicycle6.png,0.0,-2.492398,10.767757,-9.376347
bagnet33,1,28,NaN,clock,bicycle,NaN,bicycle7.png,bicycle7.png,0.0,-3.8093543,15.473736,-13.635204
bagnet33,1,29,NaN,clock,bicycle,NaN,bicycle8.png,bicycle8.png,0.0,-4.0385313,16.468542,-14.50069
bagnet33,1,30,NaN,clock,bicycle,NaN,bicycle9.png,bicycle9.png,0.0,-4.8289776,15.634463,-14.469837
bagnet33,1,31,NaN,clock,bird,NaN,bird1.png,bird1.png,0.0,0.626096,10.206296,-6.7742248
bagnet33,1,32,NaN,clock,bird,NaN,bird10.png,bird10.png,0.0,1.3111968,12.776151,-8.106947
bagnet33,1,33,NaN,clock,bird,NaN,bird2.png,bird2.png,0.0,2.042846,14.7043295,-8.953021
bagnet33,1,34,NaN,clock,bird,NaN,bird3.png,bird3.png,0.0,0.43282446,6.7368073,-4.457589
bagnet33,1,35,NaN,clock,bird,NaN,bird4.png,bird4.png,0.0,2.408293,11.122211,-6.161671
bagnet33,1,36,NaN,clock,bird,NaN,bird5.png,bird5.png,0.0,2.3596246,11.325676,-6.339956
bagnet33,1,37,NaN,clock,bird,NaN,bird6.png,bird6.png,0.0,2.1650784,12.3237,-7.1832304
bagnet33,1,38,NaN,clock,bird,NaN,bird7.png,bird7.png,0.0,-0.7922832,6.9591813,-5.481113
bagnet33,1,39,NaN,clock,bird,NaN,bird8.png,bird8.png,0.0,1.0524212,11.228141,-7.19532
bagnet33,1,40,NaN,clock,bird,NaN,bird9.png,bird9.png,0.0,0.12586637,9.887195,-6.902302
bagnet33,1,41,NaN,clock,boat,NaN,boat1.png,boat1.png,0.0,-3.2641501,5.866922,-6.456643
bagnet33,1,42,NaN,clock,boat,NaN,boat10.png,boat10.png,0.0,-5.5295463,6.3833957,-8.423722
bagnet33,1,43,NaN,clock,boat,NaN,boat2.png,boat2.png,0.0,-4.592034,7.5116134,-8.558571
bagnet33,1,44,NaN,keyboard,boat,NaN,boat3.png,boat3.png,0.0,-5.990693,5.1341805,-7.866474
bagnet33,1,45,NaN,clock,boat,NaN,boat4.png,boat4.png,0.0,-3.2596009,4.9547353,-5.808413
bagnet33,1,46,NaN,clock,boat,NaN,boat5.png,boat5.png,0.0,-7.2874365,15.803558,-16.3278
bagnet33,1,47,NaN,clock,boat,NaN,boat6.png,boat6.png,0.0,-3.4570591,14.607219,-12.773374
bagnet33,1,48,NaN,clock,boat,NaN,boat7.png,boat7.png,0.0,-2.4238563,7.595188,-7.0845346
bagnet33,1,49,NaN,clock,boat,NaN,boat8.png,boat8.png,0.0,-5.032872,8.598346,-9.638727
bagnet33,1,50,NaN,clock,boat,NaN,boat9.png,boat9.png,0.0,-7.1782365,11.180225,-12.981393
bagnet33,1,51,NaN,cat,bottle,NaN,bottle1.png,bottle1.png,0.0,-2.0867288,8.441823,-7.444811
bagnet33,1,52,NaN,clock,bottle,NaN,bottle10.png,bottle10.png,0.0,0.104428224,8.026294,-5.601605
bagnet33,1,53,NaN,cat,bottle,NaN,bottle2.png,bottle2.png,0.0,-0.7477665,5.9038696,-4.7034173
bagnet33,1,54,NaN,cat,bottle,NaN,bottle3.png,bottle3.png,0.0,-1.5887471,7.425459,-6.3740063
bagnet33,1,55,NaN,clock,bottle,NaN,bottle4.png,bottle4.png,0.0,-1.7529345,6.7773566,-6.0318265
bagnet33,1,56,NaN,clock,bottle,NaN,bottle5.png,bottle5.png,0.0,-0.043325286,6.328131,-4.5053
bagnet33,1,57,NaN,clock,bottle,NaN,bottle6.png,bottle6.png,0.0,0.08815745,6.9450684,-4.848568
bagnet33,1,58,NaN,clock,bottle,NaN,bottle7.png,bottle7.png,0.0,-0.76701576,10.185764,-7.744785
bagnet33,1,59,NaN,clock,bottle,NaN,bottle8.png,bottle8.png,0.0,0.59323823,8.590374,-5.654829
bagnet33,1,60,NaN,clock,bottle,NaN,bottle9.png,bottle9.png,0.0,0.71870756,8.968566,-5.8335314
bagnet33,1,61,NaN,clock,car,NaN,car1.png,car1.png,0.0,-7.2078977,10.788167,-12.72514
bagnet33,1,62,NaN,clock,car,NaN,car10.png,car10.png,0.0,-5.0225215,5.160683,-7.200613
bagnet33,1,63,NaN,clock,car,NaN,car2.png,car2.png,0.0,-5.78865,6.4389057,-8.646188
bagnet33,1,64,NaN,clock,car,NaN,car3.png,car3.png,0.0,-4.3645334,6.000492,-7.32918
bagnet33,1,65,NaN,clock,car,NaN,car4.png,car4.png,0.0,-8.818784,12.097168,-14.789811
bagnet33,1,66,NaN,clock,car,NaN,car5.png,car5.png,0.0,-7.521462,9.841308,-12.277332
bagnet33,1,67,NaN,clock,car,NaN,car6.png,car6.png,0.0,-6.101835,10.900592,-12.022531
bagnet33,1,68,NaN,clock,car,NaN,car7.png,car7.png,0.0,-7.1748443,9.215312,-11.58959
bagnet33,1,69,NaN,clock,car,NaN,car8.png,car8.png,0.0,-5.8131213,8.285174,-9.969
bagnet33,1,70,NaN,clock,car,NaN,car9.png,car9.png,0.0,-5.9829755,10.761079,-11.839835
bagnet33,1,71,NaN,clock,cat,NaN,cat1.png,cat1.png,0.0,8.780372,14.759604,-4.2279563
bagnet33,1,72,NaN,clock,cat,NaN,cat10.png,cat10.png,0.0,8.271461,9.335858,-0.7526429
bagnet33,1,73,NaN,clock,cat,NaN,cat2.png,cat2.png,0.0,9.840662,12.313113,-1.7482871
bagnet33,1,74,NaN,clock,cat,NaN,cat3.png,cat3.png,0.0,7.8035107,11.254687,-2.4403505
bagnet33,1,75,NaN,clock,cat,NaN,cat4.png,cat4.png,0.0,6.4590473,10.729774,-3.0198603
bagnet33,1,76,NaN,clock,cat,NaN,cat5.png,cat5.png,0.0,8.739427,11.238355,-1.767009
bagnet33,1,77,NaN,clock,cat,NaN,cat6.png,cat6.png,0.0,8.455161,14.325559,-4.150998
bagnet33,1,78,NaN,clock,cat,NaN,cat7.png,cat7.png,0.0,9.193389,12.384869,-2.256717
bagnet33,1,79,NaN,clock,cat,NaN,cat8.png,cat8.png,0.0,6.557503,12.173207,-3.9709024
bagnet33,1,80,NaN,clock,cat,NaN,cat9.png,cat9.png,0.0,5.7907557,9.318326,-2.4943688
bagnet33,1,81,NaN,clock,chair,NaN,chair1.png,chair1.png,0.0,-1.3458554,8.980321,-7.3017097
bagnet33,1,82,NaN,clock,chair,NaN,chair10.png,chair10.png,0.0,-1.4860673,9.103298,-7.487812
bagnet33,1,83,NaN,clock,chair,NaN,chair2.png,chair2.png,0.0,0.7338225,7.258653,-4.6137524
bagnet33,1,84,NaN,clock,chair,NaN,chair3.png,chair3.png,0.0,-2.0484405,14.172696,-11.470076
bagnet33,1,85,NaN,clock,chair,NaN,chair4.png,chair4.png,0.0,0.46346572,11.236904,-7.6179714
bagnet33,1,86,NaN,clock,chair,NaN,chair5.png,chair5.png,0.0,-2.5231938,12.447955,-10.586202
bagnet33,1,87,NaN,clock,chair,NaN,chair6.png,chair6.png,0.0,-1.0595603,6.54135,-5.3746552
bagnet33,1,88,NaN,clock,chair,NaN,chair7.png,chair7.png,0.0,-1.847856,9.451333,-7.989733
bagnet33,1,89,NaN,clock,chair,NaN,chair8.png,chair8.png,0.0,0.1976594,5.3906045,-3.6719668
bagnet33,1,90,NaN,clock,chair,NaN,chair9.png,chair9.png,0.0,-2.7879965,7.8742814,-7.539369
bagnet33,1,91,NaN,clock,clock,NaN,clock1.png,clock1.png,1.0,10.809741,3.406173,5.2351136
bagnet33,1,92,NaN,clock,clock,NaN,clock10.png,clock10.png,1.0,9.127407,6.268757,2.021371
bagnet33,1,93,NaN,clock,clock,NaN,clock2.png,clock2.png,1.0,24.325548,3.9762776,14.389107
bagnet33,1,94,NaN,clock,clock,NaN,clock3.png,clock3.png,1.0,18.123917,6.1301427,8.48088
bagnet33,1,95,NaN,clock,clock,NaN,clock4.png,clock4.png,1.0,17.09819,7.117483,7.057426
bagnet33,1,96,NaN,clock,clock,NaN,clock5.png,clock5.png,1.0,19.15434,4.2866325,10.513058
bagnet33,1,97,NaN,clock,clock,NaN,clock6.png,clock6.png,1.0,20.19686,3.6253805,11.717806
bagnet33,1,98,NaN,clock,clock,NaN,clock7.png,clock7.png,1.0,10.874021,3.8396294,4.974066
bagnet33,1,99,NaN,clock,clock,NaN,clock8.png,clock8.png,1.0,12.302798,6.7111244,3.9539106
bagnet33,1,100,NaN,clock,clock,NaN,clock9.png,clock9.png,1.0,18.910353,5.467603,9.505459
bagnet33,1,101,NaN,clock,dog,NaN,dog1.png,dog1.png,0.0,-1.8990111,11.91611,-9.768765
bagnet33,1,102,NaN,clock,dog,NaN,dog10.png,dog10.png,0.0,-1.822518,9.19624,-7.791439
bagnet33,1,103,NaN,clock,dog,NaN,dog2.png,dog2.png,0.0,-1.8614404,11.485728,-9.437874
bagnet33,1,104,NaN,clock,dog,NaN,dog3.png,dog3.png,0.0,-1.3751287,11.058278,-8.791746
bagnet33,1,105,NaN,clock,dog,NaN,dog4.png,dog4.png,0.0,-1.8289471,9.63142,-8.1037035
bagnet33,1,106,NaN,clock,dog,NaN,dog5.png,dog5.png,0.0,-2.9498663,14.125008,-12.07376
bagnet33,1,107,NaN,clock,dog,NaN,dog6.png,dog6.png,0.0,-1.403657,13.851619,-10.787109
bagnet33,1,108,NaN,clock,dog,NaN,dog7.png,dog7.png,0.0,-1.6939329,11.240518,-9.146037
bagnet33,1,109,NaN,clock,dog,NaN,dog8.png,dog8.png,0.0,-1.8000907,11.748967,-9.580631
bagnet33,1,110,NaN,clock,dog,NaN,dog9.png,dog9.png,0.0,-1.5809146,8.55025,-7.1638155
bagnet33,1,111,NaN,clock,elephant,NaN,elephant1.png,elephant1.png,0.0,-3.443625,14.2376585,-12.502556
bagnet33,1,112,NaN,clock,elephant,NaN,elephant10.png,elephant10.png,0.0,-2.1724663,10.612098,-9.040052
bagnet33,1,113,NaN,clock,elephant,NaN,elephant2.png,elephant2.png,0.0,-2.0284295,10.780101,-9.056999
bagnet33,1,114,NaN,clock,elephant,NaN,elephant3.png,elephant3.png,0.0,-2.3725483,13.8699465,-11.485178
bagnet33,1,115,NaN,clock,elephant,NaN,elephant4.png,elephant4.png,0.0,-2.6844072,15.537117,-12.8845625
bagnet33,1,116,NaN,clock,elephant,NaN,elephant5.png,elephant5.png,0.0,-2.7724426,11.966001,-10.421654
bagnet33,1,117,NaN,clock,elephant,NaN,elephant6.png,elephant6.png,0.0,-2.3726692,13.483383,-11.211923
bagnet33,1,118,NaN,clock,elephant,NaN,elephant7.png,elephant7.png,0.0,-2.2370653,11.464147,-9.68822
bagnet33,1,119,NaN,clock,elephant,NaN,elephant8.png,elephant8.png,0.0,-2.4407597,13.082967,-10.976933
bagnet33,1,120,NaN,clock,elephant,NaN,elephant9.png,elephant9.png,0.0,-2.0280542,15.202359,-12.183743
bagnet33,1,121,NaN,clock,keyboard,NaN,keyboard1.png,keyboard1.png,0.0,3.4375467,5.1125417,-1.1844003
bagnet33,1,122,NaN,clock,keyboard,NaN,keyboard10.png,keyboard10.png,0.0,5.3759165,14.843582,-6.6946507
bagnet33,1,123,NaN,clock,keyboard,NaN,keyboard2.png,keyboard2.png,0.0,1.0206236,9.585699,-6.056423
bagnet33,1,124,NaN,clock,keyboard,NaN,keyboard3.png,keyboard3.png,0.0,1.8546321,3.758913,-1.34653
bagnet33,1,125,NaN,clock,keyboard,NaN,keyboard4.png,keyboard4.png,0.0,0.42402732,8.517219,-5.7227507
bagnet33,1,126,NaN,clock,keyboard,NaN,keyboard5.png,keyboard5.png,0.0,4.669934,13.054492,-5.9287777
bagnet33,1,127,NaN,clock,keyboard,NaN,keyboard6.png,keyboard6.png,0.0,2.4125748,3.5672662,-0.8164902
bagnet33,1,128,NaN,clock,keyboard,NaN,keyboard7.png,keyboard7.png,0.0,5.2793484,16.409554,-7.8702435
bagnet33,1,129,NaN,clock,keyboard,NaN,keyboard8.png,keyboard8.png,0.0,0.90913856,11.373385,-7.39934
bagnet33,1,130,NaN,keyboard,keyboard,NaN,keyboard9.png,keyboard9.png,1.0,6.4820404,5.201172,0.9057108
bagnet33,1,131,NaN,clock,knife,NaN,knife1.png,knife1.png,0.0,-2.4336212,9.77091,-8.629908
bagnet33,1,132,NaN,clock,knife,NaN,knife10.png,knife10.png,0.0,-2.8806531,9.116564,-8.483314
bagnet33,1,133,NaN,clock,knife,NaN,knife2.png,knife2.png,0.0,-2.8728728,10.630466,-9.548304
bagnet33,1,134,NaN,clock,knife,NaN,knife3.png,knife3.png,0.0,-2.0306625,16.302795,-12.963713
bagnet33,1,135,NaN,clock,knife,NaN,knife4.png,knife4.png,0.0,-2.346213,7.752704,-7.1410127
bagnet33,1,136,NaN,keyboard,knife,NaN,knife5.png,knife5.png,0.0,1.4825443,3.3875592,-1.347049
bagnet33,1,137,NaN,clock,knife,NaN,knife6.png,knife6.png,0.0,-0.17741892,4.3324275,-3.188943
bagnet33,1,138,NaN,clock,knife,NaN,knife7.png,knife7.png,0.0,1.0346376,4.2515826,-2.2747238
bagnet33,1,139,NaN,clock,knife,NaN,knife8.png,knife8.png,0.0,-1.7827264,8.227586,-7.0783596
bagnet33,1,140,NaN,clock,knife,NaN,knife9.png,knife9.png,0.0,-1.7374681,6.9812407,-6.165058
bagnet33,1,141,NaN,clock,oven,NaN,oven1.png,oven1.png,0.0,-7.6206455,5.753611,-9.457027
bagnet33,1,142,NaN,clock,oven,NaN,oven10.png,oven10.png,0.0,-9.465632,8.323307,-12.578681
bagnet33,1,143,NaN,keyboard,oven,NaN,oven2.png,oven2.png,0.0,-4.071715,4.823955,-6.290189
bagnet33,1,144,NaN,clock,oven,NaN,oven3.png,oven3.png,0.0,-9.5880165,9.154436,-13.252915
bagnet33,1,145,NaN,clock,oven,NaN,oven4.png,oven4.png,0.0,-13.395208,9.116517,-15.918195
bagnet33,1,146,NaN,clock,oven,NaN,oven5.png,oven5.png,0.0,-10.036078,10.443938,-14.481559
bagnet33,1,147,NaN,clock,oven,NaN,oven6.png,oven6.png,0.0,-11.948208,9.7754755,-15.360964
bagnet33,1,148,NaN,keyboard,oven,NaN,oven7.png,oven7.png,0.0,-3.2777932,7.8729844,-7.884791
bagnet33,1,149,NaN,clock,oven,NaN,oven8.png,oven8.png,0.0,-10.22174,6.760713,-12.008408
bagnet33,1,150,NaN,clock,oven,NaN,oven9.png,oven9.png,0.0,-11.968811,9.170814,-14.947973
bagnet33,1,151,NaN,clock,truck,NaN,truck1.png,truck1.png,0.0,-5.065771,6.7866173,-8.380904
bagnet33,1,152,NaN,clock,truck,NaN,truck10.png,truck10.png,0.0,-6.415603,10.903831,-12.246689
bagnet33,1,153,NaN,clock,truck,NaN,truck2.png,truck2.png,0.0,-5.6639085,4.386908,-7.107001
bagnet33,1,154,NaN,clock,truck,NaN,truck3.png,truck3.png,0.0,-5.868467,7.6580143,-9.564667
bagnet33,1,155,NaN,clock,truck,NaN,truck4.png,truck4.png,0.0,-7.1218424,9.192343,-11.5358715
bagnet33,1,156,NaN,clock,truck,NaN,truck5.png,truck5.png,0.0,-4.395864,6.1463876,-7.454498
bagnet33,1,157,NaN,clock,truck,NaN,truck6.png,truck6.png,0.0,-5.7110662,5.8728137,-8.19104
bagnet33,1,158,NaN,clock,truck,NaN,truck7.png,truck7.png,0.0,-4.403343,8.289383,-8.975113
bagnet33,1,159,NaN,clock,truck,NaN,truck8.png,truck8.png,0.0,-6.5223675,6.4657593,-9.183992
bagnet33,1,160,NaN,clock,truck,NaN,truck9.png,truck9.png,0.0,-6.2863626,8.98153,-10.796031
