subj,session,trial,rt,object_response,category,condition,imagename,filename,is_correct,targ_act,max_nontarg_act,decision_margin
alexnet_w1_mlp_simclrhn_probe2,1,1,NaN,airplane,airplane,NaN,airplane1.png,airplane1.png,1.0,3.0879872,0.8137172,1.6081518
alexnet_w1_mlp_simclrhn_probe2,1,2,NaN,airplane,airplane,NaN,airplane10.png,airplane10.png,1.0,1.1526098,-0.7678681,1.357983
alexnet_w1_mlp_simclrhn_probe2,1,3,NaN,airplane,airplane,NaN,airplane2.png,airplane2.png,1.0,0.39114028,-0.20399272,0.4208226
alexnet_w1_mlp_simclrhn_probe2,1,4,NaN,airplane,airplane,NaN,airplane3.png,airplane3.png,1.0,3.258212,-0.3508185,2.5519702
alexnet_w1_mlp_simclrhn_probe2,1,5,NaN,airplane,airplane,NaN,airplane4.png,airplane4.png,1.0,1.8339398,-0.8270344,1.881593
alexnet_w1_mlp_simclrhn_probe2,1,6,NaN,bicycle,airplane,NaN,airplane5.png,airplane5.png,0.0,-4.804949,3.2045777,-5.6635904
alexnet_w1_mlp_simclrhn_probe2,1,7,NaN,airplane,airplane,NaN,airplane6.png,airplane6.png,1.0,2.3816457,0.02526237,1.6662147
alexnet_w1_mlp_simclrhn_probe2,1,8,NaN,airplane,airplane,NaN,airplane7.png,airplane7.png,1.0,3.3402805,-0.16773462,2.4805412
alexnet_w1_mlp_simclrhn_probe2,1,9,NaN,airplane,airplane,NaN,airplane8.png,airplane8.png,1.0,0.9786937,-0.105957896,0.7669645
alexnet_w1_mlp_simclrhn_probe2,1,10,NaN,clock,airplane,NaN,airplane9.png,airplane9.png,0.0,0.32961684,0.518822,-0.13378826
alexnet_w1_mlp_simclrhn_probe2,1,11,NaN,bicycle,bear,NaN,bear1.png,bear1.png,0.0,-16.25364,1.5452561,-12.585719
alexnet_w1_mlp_simclrhn_probe2,1,12,NaN,clock,bear,NaN,bear10.png,bear10.png,0.0,-12.318568,-0.08200296,-8.652558
alexnet_w1_mlp_simclrhn_probe2,1,13,NaN,bicycle,bear,NaN,bear2.png,bear2.png,0.0,-11.5826845,1.8033333,-9.465344
alexnet_w1_mlp_simclrhn_probe2,1,14,NaN,clock,bear,NaN,bear3.png,bear3.png,0.0,-12.355062,1.354703,-9.694267
alexnet_w1_mlp_simclrhn_probe2,1,15,NaN,bottle,bear,NaN,bear4.png,bear4.png,0.0,-12.24206,-1.6201068,-7.510855
alexnet_w1_mlp_simclrhn_probe2,1,16,NaN,clock,bear,NaN,bear5.png,bear5.png,0.0,-10.478246,0.2961975,-7.6186824
alexnet_w1_mlp_simclrhn_probe2,1,17,NaN,clock,bear,NaN,bear6.png,bear6.png,0.0,-16.91251,1.1545898,-12.77537
alexnet_w1_mlp_simclrhn_probe2,1,18,NaN,bicycle,bear,NaN,bear7.png,bear7.png,0.0,-12.130222,1.1412894,-9.384377
alexnet_w1_mlp_simclrhn_probe2,1,19,NaN,clock,bear,NaN,bear8.png,bear8.png,0.0,-11.862042,2.0693548,-9.850986
alexnet_w1_mlp_simclrhn_probe2,1,20,NaN,bicycle,bear,NaN,bear9.png,bear9.png,0.0,-9.181158,0.7016001,-6.9881654
alexnet_w1_mlp_simclrhn_probe2,1,21,NaN,bicycle,bicycle,NaN,bicycle1.png,bicycle1.png,1.0,12.450923,3.5580394,6.288218
alexnet_w1_mlp_simclrhn_probe2,1,22,NaN,bicycle,bicycle,NaN,bicycle10.png,bicycle10.png,1.0,6.0810747,3.098364,2.1090949
alexnet_w1_mlp_simclrhn_probe2,1,23,NaN,bicycle,bicycle,NaN,bicycle2.png,bicycle2.png,1.0,7.0578575,2.5442855,3.1915772
alexnet_w1_mlp_simclrhn_probe2,1,24,NaN,bicycle,bicycle,NaN,bicycle3.png,bicycle3.png,1.0,4.835984,2.0994146,1.935047
alexnet_w1_mlp_simclrhn_probe2,1,25,NaN,bicycle,bicycle,NaN,bicycle4.png,bicycle4.png,1.0,6.976495,3.8003585,2.2458675
alexnet_w1_mlp_simclrhn_probe2,1,26,NaN,bicycle,bicycle,NaN,bicycle5.png,bicycle5.png,1.0,9.166569,0.8518065,5.8794246
alexnet_w1_mlp_simclrhn_probe2,1,27,NaN,clock,bicycle,NaN,bicycle6.png,bicycle6.png,0.0,1.5328854,1.5813483,-0.034268424
alexnet_w1_mlp_simclrhn_probe2,1,28,NaN,bicycle,bicycle,NaN,bicycle7.png,bicycle7.png,1.0,13.524244,2.621717,7.709251
alexnet_w1_mlp_simclrhn_probe2,1,29,NaN,bicycle,bicycle,NaN,bicycle8.png,bicycle8.png,1.0,8.492966,4.330527,2.9432888
alexnet_w1_mlp_simclrhn_probe2,1,30,NaN,bicycle,bicycle,NaN,bicycle9.png,bicycle9.png,1.0,9.142607,2.9600227,4.371747
alexnet_w1_mlp_simclrhn_probe2,1,31,NaN,clock,bird,NaN,bird1.png,bird1.png,0.0,-7.866338,1.1253742,-6.3581004
alexnet_w1_mlp_simclrhn_probe2,1,32,NaN,clock,bird,NaN,bird10.png,bird10.png,0.0,-5.8307824,0.6076038,-4.5526266
alexnet_w1_mlp_simclrhn_probe2,1,33,NaN,bicycle,bird,NaN,bird2.png,bird2.png,0.0,-5.133718,-0.1412901,-3.5301797
alexnet_w1_mlp_simclrhn_probe2,1,34,NaN,clock,bird,NaN,bird3.png,bird3.png,0.0,-3.9693108,-0.09743166,-2.737832
alexnet_w1_mlp_simclrhn_probe2,1,35,NaN,keyboard,bird,NaN,bird4.png,bird4.png,0.0,-6.262038,-0.90607774,-3.787236
alexnet_w1_mlp_simclrhn_probe2,1,36,NaN,bird,bird,NaN,bird5.png,bird5.png,1.0,-2.4799924,-2.8828802,0.28488472
alexnet_w1_mlp_simclrhn_probe2,1,37,NaN,bicycle,bird,NaN,bird6.png,bird6.png,0.0,-4.3409915,1.6228778,-4.2170925
alexnet_w1_mlp_simclrhn_probe2,1,38,NaN,clock,bird,NaN,bird7.png,bird7.png,0.0,-7.1498623,2.1045122,-6.543831
alexnet_w1_mlp_simclrhn_probe2,1,39,NaN,clock,bird,NaN,bird8.png,bird8.png,0.0,-7.4395204,0.8627294,-5.8705773
alexnet_w1_mlp_simclrhn_probe2,1,40,NaN,bird,bird,NaN,bird9.png,bird9.png,1.0,-0.9011082,-3.1934707,1.6209451
alexnet_w1_mlp_simclrhn_probe2,1,41,NaN,clock,boat,NaN,boat1.png,boat1.png,0.0,-5.659735,-0.56517065,-3.602401
alexnet_w1_mlp_simclrhn_probe2,1,42,NaN,clock,boat,NaN,boat10.png,boat10.png,0.0,-6.06987,0.59130913,-4.710165
alexnet_w1_mlp_simclrhn_probe2,1,43,NaN,clock,boat,NaN,boat2.png,boat2.png,0.0,-5.851569,-1.8245007,-2.8475676
alexnet_w1_mlp_simclrhn_probe2,1,44,NaN,truck,boat,NaN,boat3.png,boat3.png,0.0,-3.523378,1.8811219,-3.8215587
alexnet_w1_mlp_simclrhn_probe2,1,45,NaN,airplane,boat,NaN,boat4.png,boat4.png,0.0,-5.1531878,0.45046085,-3.962378
alexnet_w1_mlp_simclrhn_probe2,1,46,NaN,bicycle,boat,NaN,boat5.png,boat5.png,0.0,-4.4713717,0.5275717,-3.5347867
alexnet_w1_mlp_simclrhn_probe2,1,47,NaN,knife,boat,NaN,boat6.png,boat6.png,0.0,-5.83864,-0.01819259,-4.115678
alexnet_w1_mlp_simclrhn_probe2,1,48,NaN,chair,boat,NaN,boat7.png,boat7.png,0.0,-2.4728146,-0.523885,-1.3781013
alexnet_w1_mlp_simclrhn_probe2,1,49,NaN,clock,boat,NaN,boat8.png,boat8.png,0.0,-4.122009,0.19381559,-3.0517488
alexnet_w1_mlp_simclrhn_probe2,1,50,NaN,bicycle,boat,NaN,boat9.png,boat9.png,0.0,-4.527018,1.272347,-4.1007705
alexnet_w1_mlp_simclrhn_probe2,1,51,NaN,clock,bottle,NaN,bottle1.png,bottle1.png,0.0,-0.5293765,0.7438979,-0.900341
alexnet_w1_mlp_simclrhn_probe2,1,52,NaN,bottle,bottle,NaN,bottle10.png,bottle10.png,1.0,4.011396,4.007059,0.0030666047
alexnet_w1_mlp_simclrhn_probe2,1,53,NaN,clock,bottle,NaN,bottle2.png,bottle2.png,0.0,0.24548842,0.6316988,-0.27309197
alexnet_w1_mlp_simclrhn_probe2,1,54,NaN,clock,bottle,NaN,bottle3.png,bottle3.png,0.0,-0.7368509,0.1427232,-0.62195283
alexnet_w1_mlp_simclrhn_probe2,1,55,NaN,clock,bottle,NaN,bottle4.png,bottle4.png,0.0,-0.5436159,0.069251575,-0.43336275
alexnet_w1_mlp_simclrhn_probe2,1,56,NaN,clock,bottle,NaN,bottle5.png,bottle5.png,0.0,2.1871183,2.222913,-0.0253107
alexnet_w1_mlp_simclrhn_probe2,1,57,NaN,bottle,bottle,NaN,bottle6.png,bottle6.png,1.0,3.8241744,3.0716355,0.53212535
alexnet_w1_mlp_simclrhn_probe2,1,58,NaN,bottle,bottle,NaN,bottle7.png,bottle7.png,1.0,2.237219,0.3731915,1.3180666
alexnet_w1_mlp_simclrhn_probe2,1,59,NaN,bottle,bottle,NaN,bottle8.png,bottle8.png,1.0,4.9454813,2.4065964,1.7952627
alexnet_w1_mlp_simclrhn_probe2,1,60,NaN,bottle,bottle,NaN,bottle9.png,bottle9.png,1.0,4.255123,2.7933168,1.0336531
alexnet_w1_mlp_simclrhn_probe2,1,61,NaN,clock,car,NaN,car1.png,car1.png,0.0,-2.2344356,3.5812905,-4.1123395
alexnet_w1_mlp_simclrhn_probe2,1,62,NaN,bicycle,car,NaN,car10.png,car10.png,0.0,-0.8325189,-0.08209297,-0.5306313
alexnet_w1_mlp_simclrhn_probe2,1,63,NaN,car,car,NaN,car2.png,car2.png,1.0,3.4001884,1.6120394,1.2644123
alexnet_w1_mlp_simclrhn_probe2,1,64,NaN,bicycle,car,NaN,car3.png,car3.png,0.0,-0.54979247,1.5920012,-1.5144769
alexnet_w1_mlp_simclrhn_probe2,1,65,NaN,clock,car,NaN,car4.png,car4.png,0.0,-3.0389454,2.1255322,-3.651837
alexnet_w1_mlp_simclrhn_probe2,1,66,NaN,clock,car,NaN,car5.png,car5.png,0.0,-2.8850424,3.2389603,-4.3303237
alexnet_w1_mlp_simclrhn_probe2,1,67,NaN,clock,car,NaN,car6.png,car6.png,0.0,-0.2149487,4.382824,-3.2511163
alexnet_w1_mlp_simclrhn_probe2,1,68,NaN,clock,car,NaN,car7.png,car7.png,0.0,-5.3371296,-0.14172895,-3.6737032
alexnet_w1_mlp_simclrhn_probe2,1,69,NaN,clock,car,NaN,car8.png,car8.png,0.0,-0.54062575,1.8799492,-1.711605
alexnet_w1_mlp_simclrhn_probe2,1,70,NaN,clock,car,NaN,car9.png,car9.png,0.0,0.37160707,2.4351697,-1.4591591
alexnet_w1_mlp_simclrhn_probe2,1,71,NaN,bottle,cat,NaN,cat1.png,cat1.png,0.0,-4.5425344,-0.75876,-2.6755326
alexnet_w1_mlp_simclrhn_probe2,1,72,NaN,clock,cat,NaN,cat10.png,cat10.png,0.0,-6.059998,-0.8903535,-3.6554906
alexnet_w1_mlp_simclrhn_probe2,1,73,NaN,bottle,cat,NaN,cat2.png,cat2.png,0.0,-4.32585,-1.3621702,-2.095638
alexnet_w1_mlp_simclrhn_probe2,1,74,NaN,clock,cat,NaN,cat3.png,cat3.png,0.0,-5.8396926,-0.97199273,-3.4419835
alexnet_w1_mlp_simclrhn_probe2,1,75,NaN,bottle,cat,NaN,cat4.png,cat4.png,0.0,-5.115044,-0.5833574,-3.2043865
alexnet_w1_mlp_simclrhn_probe2,1,76,NaN,bottle,cat,NaN,cat5.png,cat5.png,0.0,-4.32552,-0.26596585,-2.8705382
alexnet_w1_mlp_simclrhn_probe2,1,77,NaN,clock,cat,NaN,cat6.png,cat6.png,0.0,-7.0793643,-0.9619882,-4.3256383
alexnet_w1_mlp_simclrhn_probe2,1,78,NaN,clock,cat,NaN,cat7.png,cat7.png,0.0,-7.367521,-0.77315134,-4.6629233
alexnet_w1_mlp_simclrhn_probe2,1,79,NaN,clock,cat,NaN,cat8.png,cat8.png,0.0,-7.7941937,1.8425307,-6.8141932
alexnet_w1_mlp_simclrhn_probe2,1,80,NaN,clock,cat,NaN,cat9.png,cat9.png,0.0,-6.5313,0.37635848,-4.8844523
alexnet_w1_mlp_simclrhn_probe2,1,81,NaN,chair,chair,NaN,chair1.png,chair1.png,1.0,2.1140983,1.6525348,0.32637465
alexnet_w1_mlp_simclrhn_probe2,1,82,NaN,chair,chair,NaN,chair10.png,chair10.png,1.0,3.68203,1.3655459,1.6380016
alexnet_w1_mlp_simclrhn_probe2,1,83,NaN,chair,chair,NaN,chair2.png,chair2.png,1.0,4.854194,0.6700442,2.9586408
alexnet_w1_mlp_simclrhn_probe2,1,84,NaN,keyboard,chair,NaN,chair3.png,chair3.png,0.0,2.1306143,3.3766108,-0.88105255
alexnet_w1_mlp_simclrhn_probe2,1,85,NaN,chair,chair,NaN,chair4.png,chair4.png,1.0,4.6443043,-0.45356494,3.604738
alexnet_w1_mlp_simclrhn_probe2,1,86,NaN,clock,chair,NaN,chair5.png,chair5.png,0.0,1.326663,1.8274789,-0.3541303
alexnet_w1_mlp_simclrhn_probe2,1,87,NaN,chair,chair,NaN,chair6.png,chair6.png,1.0,1.7735127,1.0166906,0.53515404
alexnet_w1_mlp_simclrhn_probe2,1,88,NaN,chair,chair,NaN,chair7.png,chair7.png,1.0,2.6819987,1.3949705,0.91006637
alexnet_w1_mlp_simclrhn_probe2,1,89,NaN,chair,chair,NaN,chair8.png,chair8.png,1.0,2.2448072,1.358774,0.62652016
alexnet_w1_mlp_simclrhn_probe2,1,90,NaN,chair,chair,NaN,chair9.png,chair9.png,1.0,3.6465864,1.2089175,1.7236922
alexnet_w1_mlp_simclrhn_probe2,1,91,NaN,clock,clock,NaN,clock1.png,clock1.png,1.0,3.207716,-0.08774027,2.3302395
alexnet_w1_mlp_simclrhn_probe2,1,92,NaN,clock,clock,NaN,clock10.png,clock10.png,1.0,2.67412,0.506231,1.532929
alexnet_w1_mlp_simclrhn_probe2,1,93,NaN,clock,clock,NaN,clock2.png,clock2.png,1.0,18.585249,-3.995173,15.966769
alexnet_w1_mlp_simclrhn_probe2,1,94,NaN,clock,clock,NaN,clock3.png,clock3.png,1.0,13.487613,-1.0549083,10.283115
alexnet_w1_mlp_simclrhn_probe2,1,95,NaN,clock,clock,NaN,clock4.png,clock4.png,1.0,11.4277115,-1.32652,9.018603
alexnet_w1_mlp_simclrhn_probe2,1,96,NaN,clock,clock,NaN,clock5.png,clock5.png,1.0,12.931163,-4.3358464,12.2096195
alexnet_w1_mlp_simclrhn_probe2,1,97,NaN,clock,clock,NaN,clock6.png,clock6.png,1.0,13.675122,-1.1081879,10.453379
alexnet_w1_mlp_simclrhn_probe2,1,98,NaN,clock,clock,NaN,clock7.png,clock7.png,1.0,6.7111325,-2.212217,6.309761
alexnet_w1_mlp_simclrhn_probe2,1,99,NaN,clock,clock,NaN,clock8.png,clock8.png,1.0,12.165047,-0.64989567,9.061533
alexnet_w1_mlp_simclrhn_probe2,1,100,NaN,clock,clock,NaN,clock9.png,clock9.png,1.0,12.92056,1.4697237,8.096964
alexnet_w1_mlp_simclrhn_probe2,1,101,NaN,clock,dog,NaN,dog1.png,dog1.png,0.0,-9.338335,2.2633028,-8.203597
alexnet_w1_mlp_simclrhn_probe2,1,102,NaN,clock,dog,NaN,dog10.png,dog10.png,0.0,-9.769953,0.6340461,-7.3567386
alexnet_w1_mlp_simclrhn_probe2,1,103,NaN,clock,dog,NaN,dog2.png,dog2.png,0.0,-10.10088,2.64708,-9.014169
alexnet_w1_mlp_simclrhn_probe2,1,104,NaN,clock,dog,NaN,dog3.png,dog3.png,0.0,-8.744097,1.6737608,-7.3665376
alexnet_w1_mlp_simclrhn_probe2,1,105,NaN,bottle,dog,NaN,dog4.png,dog4.png,0.0,-8.405587,-1.7488681,-4.707011
alexnet_w1_mlp_simclrhn_probe2,1,106,NaN,bottle,dog,NaN,dog5.png,dog5.png,0.0,-9.89839,0.3604996,-7.2541304
alexnet_w1_mlp_simclrhn_probe2,1,107,NaN,clock,dog,NaN,dog6.png,dog6.png,0.0,-11.503288,2.7885768,-10.105875
alexnet_w1_mlp_simclrhn_probe2,1,108,NaN,clock,dog,NaN,dog7.png,dog7.png,0.0,-9.30126,0.886311,-7.2037005
alexnet_w1_mlp_simclrhn_probe2,1,109,NaN,clock,dog,NaN,dog8.png,dog8.png,0.0,-7.0878434,0.34098196,-5.252973
alexnet_w1_mlp_simclrhn_probe2,1,110,NaN,clock,dog,NaN,dog9.png,dog9.png,0.0,-5.3645353,-0.56916934,-3.3908358
alexnet_w1_mlp_simclrhn_probe2,1,111,NaN,clock,elephant,NaN,elephant1.png,elephant1.png,0.0,-11.530603,2.1820095,-9.696281
alexnet_w1_mlp_simclrhn_probe2,1,112,NaN,clock,elephant,NaN,elephant10.png,elephant10.png,0.0,-6.262084,0.37214366,-4.6911077
alexnet_w1_mlp_simclrhn_probe2,1,113,NaN,clock,elephant,NaN,elephant2.png,elephant2.png,0.0,-9.195168,0.29116726,-6.707852
alexnet_w1_mlp_simclrhn_probe2,1,114,NaN,clock,elephant,NaN,elephant3.png,elephant3.png,0.0,-10.9834385,-0.054991562,-7.727579
alexnet_w1_mlp_simclrhn_probe2,1,115,NaN,bicycle,elephant,NaN,elephant4.png,elephant4.png,0.0,-7.2552986,2.0653317,-6.590681
alexnet_w1_mlp_simclrhn_probe2,1,116,NaN,bicycle,elephant,NaN,elephant5.png,elephant5.png,0.0,-13.163971,2.684404,-11.206493
alexnet_w1_mlp_simclrhn_probe2,1,117,NaN,clock,elephant,NaN,elephant6.png,elephant6.png,0.0,-12.911154,1.060206,-9.879244
alexnet_w1_mlp_simclrhn_probe2,1,118,NaN,clock,elephant,NaN,elephant7.png,elephant7.png,0.0,-13.670208,2.8920095,-11.711257
alexnet_w1_mlp_simclrhn_probe2,1,119,NaN,clock,elephant,NaN,elephant8.png,elephant8.png,0.0,-11.152264,1.6513453,-9.053519
alexnet_w1_mlp_simclrhn_probe2,1,120,NaN,bicycle,elephant,NaN,elephant9.png,elephant9.png,0.0,-11.766451,2.316018,-9.957809
alexnet_w1_mlp_simclrhn_probe2,1,121,NaN,keyboard,keyboard,NaN,keyboard1.png,keyboard1.png,1.0,7.4386377,1.94143,3.8871129
alexnet_w1_mlp_simclrhn_probe2,1,122,NaN,keyboard,keyboard,NaN,keyboard10.png,keyboard10.png,1.0,4.8695717,0.3497265,3.1960132
alexnet_w1_mlp_simclrhn_probe2,1,123,NaN,keyboard,keyboard,NaN,keyboard2.png,keyboard2.png,1.0,8.59165,0.8673514,5.461904
alexnet_w1_mlp_simclrhn_probe2,1,124,NaN,knife,keyboard,NaN,keyboard3.png,keyboard3.png,0.0,0.9523152,2.3619757,-0.9967805
alexnet_w1_mlp_simclrhn_probe2,1,125,NaN,keyboard,keyboard,NaN,keyboard4.png,keyboard4.png,1.0,8.060511,-0.5787277,6.1088643
alexnet_w1_mlp_simclrhn_probe2,1,126,NaN,keyboard,keyboard,NaN,keyboard5.png,keyboard5.png,1.0,7.390479,-0.6340176,5.674176
alexnet_w1_mlp_simclrhn_probe2,1,127,NaN,keyboard,keyboard,NaN,keyboard6.png,keyboard6.png,1.0,8.207605,1.5255705,4.724912
alexnet_w1_mlp_simclrhn_probe2,1,128,NaN,keyboard,keyboard,NaN,keyboard7.png,keyboard7.png,1.0,5.5005636,0.8776402,3.2689006
alexnet_w1_mlp_simclrhn_probe2,1,129,NaN,keyboard,keyboard,NaN,keyboard8.png,keyboard8.png,1.0,6.203051,-0.63665086,4.8364
alexnet_w1_mlp_simclrhn_probe2,1,130,NaN,keyboard,keyboard,NaN,keyboard9.png,keyboard9.png,1.0,4.0323124,1.6186378,1.7067257
alexnet_w1_mlp_simclrhn_probe2,1,131,NaN,knife,knife,NaN,knife1.png,knife1.png,1.0,4.0483484,2.2864044,1.2458826
alexnet_w1_mlp_simclrhn_probe2,1,132,NaN,knife,knife,NaN,knife10.png,knife10.png,1.0,1.3602984,0.6584984,0.49624753
alexnet_w1_mlp_simclrhn_probe2,1,133,NaN,knife,knife,NaN,knife2.png,knife2.png,1.0,2.1792886,1.2710085,0.6422511
alexnet_w1_mlp_simclrhn_probe2,1,134,NaN,knife,knife,NaN,knife3.png,knife3.png,1.0,4.0888996,0.88809586,2.2633102
alexnet_w1_mlp_simclrhn_probe2,1,135,NaN,airplane,knife,NaN,knife4.png,knife4.png,0.0,1.8074865,2.9867063,-0.8338343
alexnet_w1_mlp_simclrhn_probe2,1,136,NaN,knife,knife,NaN,knife5.png,knife5.png,1.0,2.1292274,1.7021549,0.3019859
alexnet_w1_mlp_simclrhn_probe2,1,137,NaN,airplane,knife,NaN,knife6.png,knife6.png,0.0,1.2263429,2.9212692,-1.1984938
alexnet_w1_mlp_simclrhn_probe2,1,138,NaN,airplane,knife,NaN,knife7.png,knife7.png,0.0,0.8540634,1.1077169,-0.17936014
alexnet_w1_mlp_simclrhn_probe2,1,139,NaN,knife,knife,NaN,knife8.png,knife8.png,1.0,1.0795778,0.344299,0.51992065
alexnet_w1_mlp_simclrhn_probe2,1,140,NaN,airplane,knife,NaN,knife9.png,knife9.png,0.0,1.4132394,2.10634,-0.49009612
alexnet_w1_mlp_simclrhn_probe2,1,141,NaN,oven,oven,NaN,oven1.png,oven1.png,1.0,3.0996864,1.5584178,1.0898415
alexnet_w1_mlp_simclrhn_probe2,1,142,NaN,clock,oven,NaN,oven10.png,oven10.png,0.0,-1.4897755,2.4622786,-2.7945242
alexnet_w1_mlp_simclrhn_probe2,1,143,NaN,oven,oven,NaN,oven2.png,oven2.png,1.0,3.9222999,2.73159,0.841959
alexnet_w1_mlp_simclrhn_probe2,1,144,NaN,clock,oven,NaN,oven3.png,oven3.png,0.0,-2.1912374,3.8243945,-4.253694
alexnet_w1_mlp_simclrhn_probe2,1,145,NaN,chair,oven,NaN,oven4.png,oven4.png,0.0,0.48876843,2.0527387,-1.105894
alexnet_w1_mlp_simclrhn_probe2,1,146,NaN,clock,oven,NaN,oven5.png,oven5.png,0.0,-1.099102,2.634742,-2.6402266
alexnet_w1_mlp_simclrhn_probe2,1,147,NaN,clock,oven,NaN,oven6.png,oven6.png,0.0,-2.9635696,2.5785282,-3.9188552
alexnet_w1_mlp_simclrhn_probe2,1,148,NaN,chair,oven,NaN,oven7.png,oven7.png,0.0,-1.2294927,1.839608,-2.170182
alexnet_w1_mlp_simclrhn_probe2,1,149,NaN,oven,oven,NaN,oven8.png,oven8.png,1.0,3.8474603,2.0719974,1.2554419
alexnet_w1_mlp_simclrhn_probe2,1,150,NaN,clock,oven,NaN,oven9.png,oven9.png,0.0,-1.7290487,3.2271855,-3.5045867
alexnet_w1_mlp_simclrhn_probe2,1,151,NaN,truck,truck,NaN,truck1.png,truck1.png,1.0,2.5397036,1.0465666,1.0558074
alexnet_w1_mlp_simclrhn_probe2,1,152,NaN,bicycle,truck,NaN,truck10.png,truck10.png,0.0,-2.0718803,3.5538163,-3.9779682
alexnet_w1_mlp_simclrhn_probe2,1,153,NaN,clock,truck,NaN,truck2.png,truck2.png,0.0,-0.7654075,2.954918,-2.6306674
alexnet_w1_mlp_simclrhn_probe2,1,154,NaN,clock,truck,NaN,truck3.png,truck3.png,0.0,-4.496842,1.4691257,-4.2185764
alexnet_w1_mlp_simclrhn_probe2,1,155,NaN,clock,truck,NaN,truck4.png,truck4.png,0.0,-3.1512156,2.5718923,-4.0468483
alexnet_w1_mlp_simclrhn_probe2,1,156,NaN,clock,truck,NaN,truck5.png,truck5.png,0.0,-2.830791,2.877903,-4.0366564
alexnet_w1_mlp_simclrhn_probe2,1,157,NaN,airplane,truck,NaN,truck6.png,truck6.png,0.0,-0.86227036,1.7536356,-1.8497249
alexnet_w1_mlp_simclrhn_probe2,1,158,NaN,truck,truck,NaN,truck7.png,truck7.png,1.0,2.3928347,2.2685287,0.08789759
alexnet_w1_mlp_simclrhn_probe2,1,159,NaN,clock,truck,NaN,truck8.png,truck8.png,0.0,-2.058769,2.0601788,-2.9125361
alexnet_w1_mlp_simclrhn_probe2,1,160,NaN,clock,truck,NaN,truck9.png,truck9.png,0.0,0.2412826,2.2282395,-1.4049908
