subj,session,trial,rt,object_response,category,condition,imagename,filename,is_correct,targ_act,max_nontarg_act,decision_margin
alexnet2023_baseline_pgd,1,1,NaN,oven,oven,cr,0001_cl_dnn_cr_oven_40_n04111531_14126.png,n04111531_14126.png,1.0,21.391453,3.7161229,12.498345
alexnet2023_baseline_pgd,1,2,NaN,bear,bear,cr,0002_cl_dnn_cr_bear_40_n02134084_5274.png,n02134084_5274.png,1.0,10.175558,9.494016,0.48192325
alexnet2023_baseline_pgd,1,3,NaN,dog,cat,cr,0003_cl_dnn_cr_cat_40_n02123394_133.png,n02123394_133.png,0.0,3.4823024,5.061203,-1.1164513
alexnet2023_baseline_pgd,1,4,NaN,car,car,cr,0004_cl_dnn_cr_car_40_n02814533_51190.png,n02814533_51190.png,1.0,21.217665,11.771437,6.679492
alexnet2023_baseline_pgd,1,5,NaN,chair,chair,bw,0005_cl_dnn_bw_chair_40_n04099969_14986.png,n04099969_14986.png,1.0,10.213703,3.2781732,4.90416
alexnet2023_baseline_pgd,1,6,NaN,elephant,elephant,cr,0006_cl_dnn_cr_elephant_40_n02504013_6731.png,n02504013_6731.png,1.0,10.058954,4.068176,4.23612
alexnet2023_baseline_pgd,1,7,NaN,bottle,bottle,cr,0007_cl_dnn_cr_bottle_40_n02823428_987.png,n02823428_987.png,1.0,16.391115,3.8571653,8.862841
alexnet2023_baseline_pgd,1,8,NaN,truck,truck,cr,0008_cl_dnn_cr_truck_40_n03417042_7458.png,n03417042_7458.png,1.0,7.8992305,7.1342173,0.54094607
alexnet2023_baseline_pgd,1,9,NaN,chair,chair,bw,0009_cl_dnn_bw_chair_40_n04099969_4577.png,n04099969_4577.png,1.0,9.355512,3.1501818,4.3878307
alexnet2023_baseline_pgd,1,10,NaN,knife,knife,cr,0010_cl_dnn_cr_knife_40_n03041632_83472.png,n03041632_83472.png,1.0,3.945567,1.9819474,1.3884887
alexnet2023_baseline_pgd,1,11,NaN,elephant,elephant,bw,0011_cl_dnn_bw_elephant_40_n02504458_3485.png,n02504458_3485.png,1.0,18.657822,2.9607692,11.099492
alexnet2023_baseline_pgd,1,12,NaN,elephant,bear,bw,0012_cl_dnn_bw_bear_40_n02133161_1066.png,n02133161_1066.png,0.0,6.491147,11.14028,-3.2874334
alexnet2023_baseline_pgd,1,13,NaN,elephant,elephant,bw,0013_cl_dnn_bw_elephant_40_n02504013_1060.png,n02504013_1060.png,1.0,14.144703,5.307783,6.248646
alexnet2023_baseline_pgd,1,14,NaN,elephant,bear,bw,0014_cl_dnn_bw_bear_40_n02134084_1009.png,n02134084_1009.png,0.0,3.4935431,5.3077784,-1.282858
alexnet2023_baseline_pgd,1,15,NaN,cat,cat,cr,0015_cl_dnn_cr_cat_40_n02125311_13383.png,n02125311_13383.png,1.0,8.048038,5.897086,1.5209523
alexnet2023_baseline_pgd,1,16,NaN,elephant,elephant,bw,0016_cl_dnn_bw_elephant_40_n02504013_257.png,n02504013_257.png,1.0,23.886566,5.965968,12.671776
alexnet2023_baseline_pgd,1,17,NaN,cat,cat,bw,0017_cl_dnn_bw_cat_40_n02123045_6445.png,n02123045_6445.png,1.0,5.722919,3.9503653,1.2533847
alexnet2023_baseline_pgd,1,18,NaN,airplane,airplane,bw,0018_cl_dnn_bw_airplane_40_n02690373_3493.png,n02690373_3493.png,1.0,20.174559,7.7812514,8.7633915
alexnet2023_baseline_pgd,1,19,NaN,airplane,airplane,bw,0019_cl_dnn_bw_airplane_40_n02690373_5184.png,n02690373_5184.png,1.0,18.395897,6.3608212,8.510084
alexnet2023_baseline_pgd,1,20,NaN,car,truck,bw,0020_cl_dnn_bw_truck_40_n04467665_22637.png,n04467665_22637.png,0.0,5.990344,7.2497735,-0.89055115
alexnet2023_baseline_pgd,1,21,NaN,cat,cat,cr,0021_cl_dnn_cr_cat_40_n02123159_10952.png,n02123159_10952.png,1.0,10.0644455,3.3974118,4.714305
alexnet2023_baseline_pgd,1,22,NaN,airplane,airplane,bw,0022_cl_dnn_bw_airplane_40_n02690373_3620.png,n02690373_3620.png,1.0,15.912821,6.903224,6.370747
alexnet2023_baseline_pgd,1,23,NaN,elephant,bottle,cr,0023_cl_dnn_cr_bottle_40_n04557648_10744.png,n04557648_10744.png,0.0,1.423007,3.568328,-1.516971
alexnet2023_baseline_pgd,1,24,NaN,oven,oven,bw,0024_cl_dnn_bw_oven_40_n04111531_12702.png,n04111531_12702.png,1.0,7.6180634,1.806689,4.1092625
alexnet2023_baseline_pgd,1,25,NaN,elephant,bear,cr,0025_cl_dnn_cr_bear_40_n02133161_9949.png,n02133161_9949.png,0.0,3.2695317,4.3990116,-0.7986629
alexnet2023_baseline_pgd,1,26,NaN,bottle,keyboard,cr,0026_cl_dnn_cr_keyboard_40_n03085013_3489.png,n03085013_3489.png,0.0,2.9861479,5.511621,-1.7857792
alexnet2023_baseline_pgd,1,27,NaN,elephant,elephant,bw,0027_cl_dnn_bw_elephant_40_n02504458_4633.png,n02504458_4633.png,1.0,13.634912,4.7014723,6.3168955
alexnet2023_baseline_pgd,1,28,NaN,clock,clock,cr,0028_cl_dnn_cr_clock_40_n04548280_7816.png,n04548280_7816.png,1.0,5.4632974,3.7944775,1.1800339
alexnet2023_baseline_pgd,1,29,NaN,dog,dog,bw,0029_cl_dnn_bw_dog_40_n02097474_1859.png,n02097474_1859.png,1.0,8.277287,6.642177,1.156197
alexnet2023_baseline_pgd,1,30,NaN,cat,cat,bw,0030_cl_dnn_bw_cat_40_n02123394_916.png,n02123394_916.png,1.0,6.881363,2.6322992,3.0045416
alexnet2023_baseline_pgd,1,31,NaN,elephant,elephant,cr,0031_cl_dnn_cr_elephant_40_n02504458_3525.png,n02504458_3525.png,1.0,20.315563,8.207128,8.561957
alexnet2023_baseline_pgd,1,32,NaN,bear,bear,bw,0032_cl_dnn_bw_bear_40_n02134418_4456.png,n02134418_4456.png,1.0,7.319029,5.7081733,1.1390469
alexnet2023_baseline_pgd,1,33,NaN,keyboard,keyboard,bw,0033_cl_dnn_bw_keyboard_40_n03085013_24045.png,n03085013_24045.png,1.0,15.50124,7.527504,5.638283
alexnet2023_baseline_pgd,1,34,NaN,knife,knife,bw,0034_cl_dnn_bw_knife_40_n03041632_49363.png,n03041632_49363.png,1.0,5.9173064,5.8561544,0.043240983
alexnet2023_baseline_pgd,1,35,NaN,cat,cat,bw,0035_cl_dnn_bw_cat_40_n02123159_7854.png,n02123159_7854.png,1.0,9.915547,3.0656507,4.8436084
alexnet2023_baseline_pgd,1,36,NaN,knife,knife,cr,0036_cl_dnn_cr_knife_40_n03041632_4708.png,n03041632_4708.png,1.0,13.068134,5.3823023,5.434704
alexnet2023_baseline_pgd,1,37,NaN,chair,chair,cr,0037_cl_dnn_cr_chair_40_n04429376_7788.png,n04429376_7788.png,1.0,7.5784664,4.8011236,1.9638779
alexnet2023_baseline_pgd,1,38,NaN,car,car,cr,0038_cl_dnn_cr_car_40_n03100240_9086.png,n03100240_9086.png,1.0,18.670622,9.139771,6.739329
alexnet2023_baseline_pgd,1,39,NaN,car,chair,cr,0039_cl_dnn_cr_chair_40_n03376595_3038.png,n03376595_3038.png,0.0,2.1344755,2.6748946,-0.38213402
alexnet2023_baseline_pgd,1,40,NaN,truck,truck,bw,0040_cl_dnn_bw_truck_40_n03796401_1758.png,n03796401_1758.png,1.0,7.2515697,6.5742593,0.47893083
alexnet2023_baseline_pgd,1,41,NaN,boat,boat,cr,0041_cl_dnn_cr_boat_40_n04273569_4324.png,n04273569_4324.png,1.0,18.075222,8.132149,7.0308146
alexnet2023_baseline_pgd,1,42,NaN,bear,bear,cr,0042_cl_dnn_cr_bear_40_n02134084_1090.png,n02134084_1090.png,1.0,9.087598,6.3308525,1.9493134
alexnet2023_baseline_pgd,1,43,NaN,bicycle,bicycle,bw,0043_cl_dnn_bw_bicycle_40_n03792782_13665.png,n03792782_13665.png,1.0,5.8662047,2.7204483,2.2243857
alexnet2023_baseline_pgd,1,44,NaN,knife,knife,bw,0044_cl_dnn_bw_knife_40_n03041632_36215.png,n03041632_36215.png,1.0,11.231843,5.2322206,4.242374
alexnet2023_baseline_pgd,1,45,NaN,car,car,bw,0045_cl_dnn_bw_car_40_n04285008_7770.png,n04285008_7770.png,1.0,17.234362,10.119059,5.031279
alexnet2023_baseline_pgd,1,46,NaN,bottle,bottle,cr,0046_cl_dnn_cr_bottle_40_n03983396_15260.png,n03983396_15260.png,1.0,9.65159,3.4874578,4.3587
alexnet2023_baseline_pgd,1,47,NaN,bear,dog,cr,0047_cl_dnn_cr_dog_40_n02091635_6519.png,n02091635_6519.png,0.0,7.0213904,7.1075277,-0.060908265
alexnet2023_baseline_pgd,1,48,NaN,elephant,elephant,cr,0048_cl_dnn_cr_elephant_40_n02504013_3485.png,n02504013_3485.png,1.0,21.403759,8.671664,9.002951
alexnet2023_baseline_pgd,1,49,NaN,oven,oven,cr,0049_cl_dnn_cr_oven_40_n04111531_807.png,n04111531_807.png,1.0,9.34023,3.9074001,3.841591
alexnet2023_baseline_pgd,1,50,NaN,oven,oven,cr,0050_cl_dnn_cr_oven_40_n04111531_605.png,n04111531_605.png,1.0,12.885676,2.6556447,7.233725
alexnet2023_baseline_pgd,1,51,NaN,elephant,dog,bw,0051_cl_dnn_bw_dog_40_n02109047_2662.png,n02109047_2662.png,0.0,2.046486,9.893073,-5.548375
alexnet2023_baseline_pgd,1,52,NaN,truck,truck,cr,0052_cl_dnn_cr_truck_40_n03417042_16038.png,n03417042_16038.png,1.0,7.412526,3.8933759,2.488415
alexnet2023_baseline_pgd,1,53,NaN,truck,truck,bw,0053_cl_dnn_bw_truck_40_n03796401_1710.png,n03796401_1710.png,1.0,9.069515,4.6896615,3.0970244
alexnet2023_baseline_pgd,1,54,NaN,cat,cat,cr,0054_cl_dnn_cr_cat_40_n02125311_20921.png,n02125311_20921.png,1.0,7.3753314,5.2485456,1.5038646
alexnet2023_baseline_pgd,1,55,NaN,bear,bear,cr,0055_cl_dnn_cr_bear_40_n02133161_575.png,n02133161_575.png,1.0,7.725112,4.764876,2.093203
alexnet2023_baseline_pgd,1,56,NaN,bottle,chair,bw,0056_cl_dnn_bw_chair_40_n04429376_21865.png,n04429376_21865.png,0.0,4.5436983,4.614207,-0.049857024
alexnet2023_baseline_pgd,1,57,NaN,bird,bird,bw,0057_cl_dnn_bw_bird_40_n01616318_26436.png,n01616318_26436.png,1.0,3.829468,2.8252728,0.71007323
alexnet2023_baseline_pgd,1,58,NaN,oven,oven,cr,0058_cl_dnn_cr_oven_40_n04111531_9498.png,n04111531_9498.png,1.0,20.125072,5.261125,10.510398
alexnet2023_baseline_pgd,1,59,NaN,bear,bear,bw,0059_cl_dnn_bw_bear_40_n02134418_397.png,n02134418_397.png,1.0,10.17083,5.387593,3.3822594
alexnet2023_baseline_pgd,1,60,NaN,chair,chair,cr,0060_cl_dnn_cr_chair_40_n04099969_23961.png,n04099969_23961.png,1.0,4.4671087,3.0941842,0.9708043
alexnet2023_baseline_pgd,1,61,NaN,cat,dog,bw,0061_cl_dnn_bw_dog_40_n02093256_7181.png,n02093256_7181.png,0.0,2.9478602,4.271792,-0.9361611
alexnet2023_baseline_pgd,1,62,NaN,bicycle,bicycle,cr,0062_cl_dnn_cr_bicycle_40_n02835271_26731.png,n02835271_26731.png,1.0,9.921142,5.7666225,2.9376886
alexnet2023_baseline_pgd,1,63,NaN,cat,cat,cr,0063_cl_dnn_cr_cat_40_n02125311_12557.png,n02125311_12557.png,1.0,7.6837153,3.9882305,2.6131024
alexnet2023_baseline_pgd,1,64,NaN,dog,dog,cr,0064_cl_dnn_cr_dog_40_n02093647_2890.png,n02093647_2890.png,1.0,6.6730533,4.3361554,1.6524364
alexnet2023_baseline_pgd,1,65,NaN,knife,knife,cr,0065_cl_dnn_cr_knife_40_n03041632_14293.png,n03041632_14293.png,1.0,7.326191,3.2355206,2.892541
alexnet2023_baseline_pgd,1,66,NaN,oven,oven,bw,0066_cl_dnn_bw_oven_40_n04111531_20359.png,n04111531_20359.png,1.0,13.042471,1.856988,7.909331
alexnet2023_baseline_pgd,1,67,NaN,truck,truck,bw,0067_cl_dnn_bw_truck_40_n04467665_12177.png,n04467665_12177.png,1.0,16.335709,9.009683,5.1802826
alexnet2023_baseline_pgd,1,68,NaN,bicycle,bicycle,cr,0068_cl_dnn_cr_bicycle_40_n02835271_19400.png,n02835271_19400.png,1.0,9.151782,2.4539535,4.7360797
alexnet2023_baseline_pgd,1,69,NaN,truck,truck,cr,0069_cl_dnn_cr_truck_40_n03417042_1263.png,n03417042_1263.png,1.0,9.760289,5.057999,3.3250213
alexnet2023_baseline_pgd,1,70,NaN,cat,cat,bw,0070_cl_dnn_bw_cat_40_n02123045_8336.png,n02123045_8336.png,1.0,12.234231,4.312397,5.6015825
alexnet2023_baseline_pgd,1,71,NaN,bear,bear,bw,0071_cl_dnn_bw_bear_40_n02134418_5405.png,n02134418_5405.png,1.0,10.864884,5.5164375,3.781923
alexnet2023_baseline_pgd,1,72,NaN,car,car,bw,0072_cl_dnn_bw_car_40_n04285008_2906.png,n04285008_2906.png,1.0,12.48296,7.439238,3.5664499
alexnet2023_baseline_pgd,1,73,NaN,bird,bird,cr,0073_cl_dnn_cr_bird_40_n01818515_10517.png,n01818515_10517.png,1.0,7.182776,5.0343103,1.5191946
alexnet2023_baseline_pgd,1,74,NaN,truck,truck,cr,0074_cl_dnn_cr_truck_40_n03796401_14203.png,n03796401_14203.png,1.0,11.693517,6.678493,3.5461574
alexnet2023_baseline_pgd,1,75,NaN,elephant,bird,bw,0075_cl_dnn_bw_bird_40_n02009229_2503.png,n02009229_2503.png,0.0,6.396608,6.5739937,-0.1254307
alexnet2023_baseline_pgd,1,76,NaN,bottle,bottle,bw,0076_cl_dnn_bw_bottle_40_n02823428_6767.png,n02823428_6767.png,1.0,10.57482,2.6128042,5.629995
alexnet2023_baseline_pgd,1,77,NaN,bicycle,bicycle,bw,0077_cl_dnn_bw_bicycle_40_n02835271_12847.png,n02835271_12847.png,1.0,14.588556,2.068531,8.852995
alexnet2023_baseline_pgd,1,78,NaN,bicycle,bicycle,cr,0078_cl_dnn_cr_bicycle_40_n02835271_24104.png,n02835271_24104.png,1.0,22.698982,2.0978718,14.567185
alexnet2023_baseline_pgd,1,79,NaN,clock,clock,cr,0079_cl_dnn_cr_clock_40_n04548280_77.png,n04548280_77.png,1.0,12.592761,4.0309844,6.054091
alexnet2023_baseline_pgd,1,80,NaN,cat,cat,bw,0080_cl_dnn_bw_cat_40_n02123394_6698.png,n02123394_6698.png,1.0,11.381554,2.4663293,6.3040156
alexnet2023_baseline_pgd,1,81,NaN,keyboard,keyboard,cr,0081_cl_dnn_cr_keyboard_40_n04505470_4356.png,n04505470_4356.png,1.0,15.772481,4.9000177,7.6879926
alexnet2023_baseline_pgd,1,82,NaN,chair,chair,cr,0082_cl_dnn_cr_chair_40_n04429376_16325.png,n04429376_16325.png,1.0,13.090563,9.002827,2.890466
alexnet2023_baseline_pgd,1,83,NaN,elephant,elephant,bw,0083_cl_dnn_bw_elephant_40_n02504458_6721.png,n02504458_6721.png,1.0,9.079981,2.0924306,4.940944
alexnet2023_baseline_pgd,1,84,NaN,truck,truck,cr,0084_cl_dnn_cr_truck_40_n03417042_6213.png,n03417042_6213.png,1.0,20.218452,9.811649,7.3587213
alexnet2023_baseline_pgd,1,85,NaN,elephant,dog,bw,0085_cl_dnn_bw_dog_40_n02097130_8277.png,n02097130_8277.png,0.0,4.5900545,6.056548,-1.0369676
alexnet2023_baseline_pgd,1,86,NaN,bottle,bottle,cr,0086_cl_dnn_cr_bottle_40_n04557648_1856.png,n04557648_1856.png,1.0,3.1902583,2.985798,0.14457533
alexnet2023_baseline_pgd,1,87,NaN,bird,bird,bw,0087_cl_dnn_bw_bird_40_n01531178_10905.png,n01531178_10905.png,1.0,6.785407,2.2552886,3.2032776
alexnet2023_baseline_pgd,1,88,NaN,elephant,bear,cr,0088_cl_dnn_cr_bear_40_n02133161_2202.png,n02133161_2202.png,0.0,10.305807,11.724769,-1.0033573
alexnet2023_baseline_pgd,1,89,NaN,elephant,elephant,cr,0089_cl_dnn_cr_elephant_40_n02504458_10439.png,n02504458_10439.png,1.0,12.72279,2.3651843,7.3239326
alexnet2023_baseline_pgd,1,90,NaN,clock,clock,cr,0090_cl_dnn_cr_clock_40_n02708093_6766.png,n02708093_6766.png,1.0,3.8704746,2.9884498,0.6236857
alexnet2023_baseline_pgd,1,91,NaN,clock,bottle,bw,0091_cl_dnn_bw_bottle_40_n03983396_2057.png,n03983396_2057.png,0.0,2.3774602,4.581376,-1.5584038
alexnet2023_baseline_pgd,1,92,NaN,knife,knife,bw,0092_cl_dnn_bw_knife_40_n03041632_10000.png,n03041632_10000.png,1.0,7.963491,3.7908409,2.9505093
alexnet2023_baseline_pgd,1,93,NaN,cat,cat,cr,0093_cl_dnn_cr_cat_40_n02125311_2959.png,n02125311_2959.png,1.0,11.944054,6.3793187,3.934862
alexnet2023_baseline_pgd,1,94,NaN,car,car,bw,0094_cl_dnn_bw_car_40_n04285008_13759.png,n04285008_13759.png,1.0,17.428596,7.8089714,6.802102
alexnet2023_baseline_pgd,1,95,NaN,bottle,bottle,cr,0095_cl_dnn_cr_bottle_40_n03937543_396.png,n03937543_396.png,1.0,5.1144724,3.7565951,0.96016425
alexnet2023_baseline_pgd,1,96,NaN,boat,boat,bw,0096_cl_dnn_bw_boat_40_n03662601_3984.png,n03662601_3984.png,1.0,9.618245,6.0815415,2.500827
alexnet2023_baseline_pgd,1,97,NaN,truck,truck,bw,0097_cl_dnn_bw_truck_40_n04467665_2230.png,n04467665_2230.png,1.0,10.645077,4.784314,4.144185
alexnet2023_baseline_pgd,1,98,NaN,boat,boat,cr,0098_cl_dnn_cr_boat_40_n03662601_28640.png,n03662601_28640.png,1.0,14.966791,8.328136,4.6942377
alexnet2023_baseline_pgd,1,99,NaN,cat,cat,cr,0099_cl_dnn_cr_cat_40_n02124075_11039.png,n02124075_11039.png,1.0,8.97125,1.0726027,5.585187
alexnet2023_baseline_pgd,1,100,NaN,knife,knife,bw,0100_cl_dnn_bw_knife_40_n03041632_7380.png,n03041632_7380.png,1.0,11.146072,5.997288,3.6407402
alexnet2023_baseline_pgd,1,101,NaN,cat,cat,cr,0101_cl_dnn_cr_cat_40_n02123045_6607.png,n02123045_6607.png,1.0,14.78868,3.85031,7.734596
alexnet2023_baseline_pgd,1,102,NaN,chair,chair,cr,0102_cl_dnn_cr_chair_40_n03376595_6704.png,n03376595_6704.png,1.0,4.4036427,3.282133,0.79302704
alexnet2023_baseline_pgd,1,103,NaN,bear,bear,bw,0103_cl_dnn_bw_bear_40_n02133161_12187.png,n02133161_12187.png,1.0,12.517784,5.068854,5.267189
alexnet2023_baseline_pgd,1,104,NaN,knife,dog,cr,0104_cl_dnn_cr_dog_40_n02110958_2363.png,n02110958_2363.png,0.0,4.038853,4.47321,-0.30713657
alexnet2023_baseline_pgd,1,105,NaN,airplane,airplane,cr,0105_cl_dnn_cr_airplane_40_n02690373_19438.png,n02690373_19438.png,1.0,18.412794,1.7195624,11.803898
alexnet2023_baseline_pgd,1,106,NaN,bird,bird,cr,0106_cl_dnn_cr_bird_40_n01855032_5511.png,n01855032_5511.png,1.0,8.063463,4.831955,2.2850215
alexnet2023_baseline_pgd,1,107,NaN,boat,boat,bw,0107_cl_dnn_bw_boat_40_n04273569_9821.png,n04273569_9821.png,1.0,14.569018,4.1453476,7.3706484
alexnet2023_baseline_pgd,1,108,NaN,elephant,bear,bw,0108_cl_dnn_bw_bear_40_n02133161_13461.png,n02133161_13461.png,0.0,2.8683507,3.792017,-0.65313065
alexnet2023_baseline_pgd,1,109,NaN,oven,dog,cr,0109_cl_dnn_cr_dog_40_n02113023_8552.png,n02113023_8552.png,0.0,0.1632263,1.227306,-0.75241804
alexnet2023_baseline_pgd,1,110,NaN,elephant,elephant,cr,0110_cl_dnn_cr_elephant_40_n02504458_1600.png,n02504458_1600.png,1.0,26.188637,6.6925926,13.785786
alexnet2023_baseline_pgd,1,111,NaN,chair,chair,cr,0111_cl_dnn_cr_chair_40_n04099969_4205.png,n04099969_4205.png,1.0,15.679407,3.1910443,8.830606
alexnet2023_baseline_pgd,1,112,NaN,dog,dog,bw,0112_cl_dnn_bw_dog_40_n02105505_2121.png,n02105505_2121.png,1.0,7.6858454,4.7723074,2.0601826
alexnet2023_baseline_pgd,1,113,NaN,chair,chair,cr,0113_cl_dnn_cr_chair_40_n02791124_4528.png,n02791124_4528.png,1.0,10.3431015,4.793906,3.9238737
alexnet2023_baseline_pgd,1,114,NaN,truck,truck,bw,0114_cl_dnn_bw_truck_40_n03417042_5659.png,n03417042_5659.png,1.0,8.024551,6.3156557,1.2083718
alexnet2023_baseline_pgd,1,115,NaN,elephant,elephant,cr,0115_cl_dnn_cr_elephant_40_n02504013_10330.png,n02504013_10330.png,1.0,32.575356,6.792469,18.231255
alexnet2023_baseline_pgd,1,116,NaN,cat,cat,cr,0116_cl_dnn_cr_cat_40_n02123394_1594.png,n02123394_1594.png,1.0,10.116709,1.820109,5.866582
alexnet2023_baseline_pgd,1,117,NaN,bicycle,bear,bw,0117_cl_dnn_bw_bear_40_n02132136_10654.png,n02132136_10654.png,0.0,3.3737216,4.711345,-0.94584274
alexnet2023_baseline_pgd,1,118,NaN,bottle,bottle,bw,0118_cl_dnn_bw_bottle_40_n02823428_5265.png,n02823428_5265.png,1.0,7.885133,6.8922396,0.70208156
alexnet2023_baseline_pgd,1,119,NaN,truck,truck,cr,0119_cl_dnn_cr_truck_40_n04467665_3125.png,n04467665_3125.png,1.0,4.620703,4.5077066,0.079900645
alexnet2023_baseline_pgd,1,120,NaN,airplane,airplane,cr,0120_cl_dnn_cr_airplane_40_n02690373_60.png,n02690373_60.png,1.0,26.78624,9.296503,12.367111
alexnet2023_baseline_pgd,1,121,NaN,keyboard,keyboard,cr,0121_cl_dnn_cr_keyboard_40_n03085013_21645.png,n03085013_21645.png,1.0,6.4177575,3.433024,2.1105254
alexnet2023_baseline_pgd,1,122,NaN,car,car,bw,0122_cl_dnn_bw_car_40_n03100240_9471.png,n03100240_9471.png,1.0,6.415816,6.0330935,0.2706256
alexnet2023_baseline_pgd,1,123,NaN,boat,boat,cr,0123_cl_dnn_cr_boat_40_n03344393_9818.png,n03344393_9818.png,1.0,15.356456,7.5758805,5.5016975
alexnet2023_baseline_pgd,1,124,NaN,elephant,elephant,bw,0124_cl_dnn_bw_elephant_40_n02504458_5444.png,n02504458_5444.png,1.0,19.160782,6.1862793,9.174359
alexnet2023_baseline_pgd,1,125,NaN,bottle,bottle,bw,0125_cl_dnn_bw_bottle_40_n04557648_26823.png,n04557648_26823.png,1.0,9.742974,2.7070255,4.9751673
alexnet2023_baseline_pgd,1,126,NaN,bottle,bottle,cr,0126_cl_dnn_cr_bottle_40_n02823428_765.png,n02823428_765.png,1.0,6.352608,2.291798,2.8714263
alexnet2023_baseline_pgd,1,127,NaN,cat,cat,bw,0127_cl_dnn_bw_cat_40_n02123045_1787.png,n02123045_1787.png,1.0,11.251556,2.9366243,5.8795447
alexnet2023_baseline_pgd,1,128,NaN,car,car,bw,0128_cl_dnn_bw_car_40_n02814533_35863.png,n02814533_35863.png,1.0,13.040569,11.804514,0.87402314
alexnet2023_baseline_pgd,1,129,NaN,bear,boat,bw,0129_cl_dnn_bw_boat_40_n02951358_7944.png,n02951358_7944.png,0.0,1.6437193,2.8982873,-0.8871136
alexnet2023_baseline_pgd,1,130,NaN,dog,dog,bw,0130_cl_dnn_bw_dog_40_n02091467_3727.png,n02091467_3727.png,1.0,8.286566,8.033895,0.17866555
alexnet2023_baseline_pgd,1,131,NaN,bicycle,bicycle,cr,0131_cl_dnn_cr_bicycle_40_n02835271_5886.png,n02835271_5886.png,1.0,8.769255,2.2122426,4.636508
alexnet2023_baseline_pgd,1,132,NaN,truck,truck,bw,0132_cl_dnn_bw_truck_40_n04467665_18234.png,n04467665_18234.png,1.0,13.312859,6.373413,4.906929
alexnet2023_baseline_pgd,1,133,NaN,elephant,elephant,cr,0133_cl_dnn_cr_elephant_40_n02504013_4892.png,n02504013_4892.png,1.0,18.798386,8.077595,7.5807443
alexnet2023_baseline_pgd,1,134,NaN,keyboard,keyboard,cr,0134_cl_dnn_cr_keyboard_40_n03085013_19618.png,n03085013_19618.png,1.0,22.210625,6.0298123,11.441563
alexnet2023_baseline_pgd,1,135,NaN,knife,clock,cr,0135_cl_dnn_cr_clock_40_n03196217_3430.png,n03196217_3430.png,0.0,4.164142,5.745565,-1.1182348
alexnet2023_baseline_pgd,1,136,NaN,bicycle,bicycle,bw,0136_cl_dnn_bw_bicycle_40_n03792782_24591.png,n03792782_24591.png,1.0,18.178574,2.0354347,11.414923
alexnet2023_baseline_pgd,1,137,NaN,oven,bird,cr,0137_cl_dnn_cr_bird_40_n02007558_2822.png,n02007558_2822.png,0.0,-2.4551213,12.088452,-10.283859
alexnet2023_baseline_pgd,1,138,NaN,truck,truck,bw,0138_cl_dnn_bw_truck_40_n04467665_71126.png,n04467665_71126.png,1.0,17.395952,7.871265,6.7349706
alexnet2023_baseline_pgd,1,139,NaN,bicycle,bicycle,cr,0139_cl_dnn_cr_bicycle_40_n02835271_22263.png,n02835271_22263.png,1.0,22.915577,6.724164,11.449059
alexnet2023_baseline_pgd,1,140,NaN,car,car,bw,0140_cl_dnn_bw_car_40_n04285008_5548.png,n04285008_5548.png,1.0,12.933178,11.753508,0.8341529
alexnet2023_baseline_pgd,1,141,NaN,oven,oven,bw,0141_cl_dnn_bw_oven_40_n04111531_13006.png,n04111531_13006.png,1.0,11.7209,5.7228155,4.241286
alexnet2023_baseline_pgd,1,142,NaN,car,car,bw,0142_cl_dnn_bw_car_40_n04285008_11410.png,n04285008_11410.png,1.0,13.196949,6.3041706,4.8739305
alexnet2023_baseline_pgd,1,143,NaN,oven,chair,bw,0143_cl_dnn_bw_chair_40_n04429376_2304.png,n04429376_2304.png,0.0,3.966394,10.399011,-4.548547
alexnet2023_baseline_pgd,1,144,NaN,boat,boat,cr,0144_cl_dnn_cr_boat_40_n03662601_27165.png,n03662601_27165.png,1.0,14.596939,8.499986,4.3111973
alexnet2023_baseline_pgd,1,145,NaN,truck,truck,bw,0145_cl_dnn_bw_truck_40_n04467665_70308.png,n04467665_70308.png,1.0,9.667934,4.5663705,3.6073506
alexnet2023_baseline_pgd,1,146,NaN,bicycle,bicycle,cr,0146_cl_dnn_cr_bicycle_40_n03792782_51414.png,n03792782_51414.png,1.0,11.686874,5.40407,4.4426136
alexnet2023_baseline_pgd,1,147,NaN,knife,knife,cr,0147_cl_dnn_cr_knife_40_n03041632_44738.png,n03041632_44738.png,1.0,18.393858,4.9282045,9.521655
alexnet2023_baseline_pgd,1,148,NaN,elephant,elephant,bw,0148_cl_dnn_bw_elephant_40_n02504458_11363.png,n02504458_11363.png,1.0,17.097454,3.7736177,9.421375
alexnet2023_baseline_pgd,1,149,NaN,truck,truck,cr,0149_cl_dnn_cr_truck_40_n04467665_4899.png,n04467665_4899.png,1.0,14.233923,9.590094,3.2836833
alexnet2023_baseline_pgd,1,150,NaN,bear,bear,cr,0150_cl_dnn_cr_bear_40_n02134418_685.png,n02134418_685.png,1.0,7.371223,5.2635765,1.4903312
alexnet2023_baseline_pgd,1,151,NaN,keyboard,keyboard,bw,0151_cl_dnn_bw_keyboard_40_n04505470_4363.png,n04505470_4363.png,1.0,10.215133,2.4073303,5.52095
alexnet2023_baseline_pgd,1,152,NaN,oven,oven,bw,0152_cl_dnn_bw_oven_40_n04111531_12468.png,n04111531_12468.png,1.0,13.4921255,5.1872473,5.872436
alexnet2023_baseline_pgd,1,153,NaN,bottle,bottle,cr,0153_cl_dnn_cr_bottle_40_n04591713_5559.png,n04591713_5559.png,1.0,3.2739968,0.55322474,1.9238764
alexnet2023_baseline_pgd,1,154,NaN,elephant,elephant,cr,0154_cl_dnn_cr_elephant_40_n02504013_3197.png,n02504013_3197.png,1.0,7.7628274,3.267393,3.1787522
alexnet2023_baseline_pgd,1,155,NaN,bird,bird,bw,0155_cl_dnn_bw_bird_40_n01817953_5039.png,n01817953_5039.png,1.0,5.6212735,2.3004706,2.3481624
alexnet2023_baseline_pgd,1,156,NaN,bicycle,bicycle,cr,0156_cl_dnn_cr_bicycle_40_n03792782_3296.png,n03792782_3296.png,1.0,13.2374525,4.365261,6.2735868
alexnet2023_baseline_pgd,1,157,NaN,dog,bird,cr,0157_cl_dnn_cr_bird_40_n01855672_5670.png,n01855672_5670.png,0.0,1.3662571,4.50422,-2.218875
alexnet2023_baseline_pgd,1,158,NaN,oven,oven,cr,0158_cl_dnn_cr_oven_40_n04111531_2260.png,n04111531_2260.png,1.0,14.999218,3.242332,8.313374
alexnet2023_baseline_pgd,1,159,NaN,cat,cat,cr,0159_cl_dnn_cr_cat_40_n02123045_5932.png,n02123045_5932.png,1.0,5.915794,2.9190712,2.119003
alexnet2023_baseline_pgd,1,160,NaN,dog,dog,cr,0160_cl_dnn_cr_dog_40_n02100583_1267.png,n02100583_1267.png,1.0,5.204714,3.0453827,1.5268776
alexnet2023_baseline_pgd,1,161,NaN,dog,dog,bw,0161_cl_dnn_bw_dog_40_n02099601_8005.png,n02099601_8005.png,1.0,9.177331,5.5275116,2.580812
alexnet2023_baseline_pgd,1,162,NaN,knife,boat,cr,0162_cl_dnn_cr_boat_40_n02951358_12080.png,n02951358_12080.png,0.0,2.5256584,2.7001672,-0.12339637
alexnet2023_baseline_pgd,1,163,NaN,oven,oven,cr,0163_cl_dnn_cr_oven_40_n04111531_20028.png,n04111531_20028.png,1.0,20.809086,5.2707305,10.987276
alexnet2023_baseline_pgd,1,164,NaN,cat,cat,bw,0164_cl_dnn_bw_cat_40_n02123159_2107.png,n02123159_2107.png,1.0,10.894929,4.1818314,4.7468767
alexnet2023_baseline_pgd,1,165,NaN,bear,bear,cr,0165_cl_dnn_cr_bear_40_n02134418_1351.png,n02134418_1351.png,1.0,11.307709,8.761919,1.8001451
alexnet2023_baseline_pgd,1,166,NaN,oven,oven,cr,0166_cl_dnn_cr_oven_40_n04111531_6609.png,n04111531_6609.png,1.0,14.051279,4.7979975,6.5430584
alexnet2023_baseline_pgd,1,167,NaN,knife,knife,bw,0167_cl_dnn_bw_knife_40_n03041632_21477.png,n03041632_21477.png,1.0,14.03565,3.816042,7.2263546
alexnet2023_baseline_pgd,1,168,NaN,cat,cat,cr,0168_cl_dnn_cr_cat_40_n02123394_238.png,n02123394_238.png,1.0,9.566244,3.8620975,4.0334406
alexnet2023_baseline_pgd,1,169,NaN,elephant,elephant,cr,0169_cl_dnn_cr_elephant_40_n02504013_3141.png,n02504013_3141.png,1.0,10.059122,5.4170947,3.2824092
alexnet2023_baseline_pgd,1,170,NaN,elephant,elephant,cr,0170_cl_dnn_cr_elephant_40_n02504013_5035.png,n02504013_5035.png,1.0,16.176445,2.725218,9.511455
alexnet2023_baseline_pgd,1,171,NaN,elephant,dog,cr,0171_cl_dnn_cr_dog_40_n02089867_2298.png,n02089867_2298.png,0.0,8.252964,9.353004,-0.77784604
alexnet2023_baseline_pgd,1,172,NaN,bear,bear,bw,0172_cl_dnn_bw_bear_40_n02134418_2503.png,n02134418_2503.png,1.0,2.7084384,2.4272368,0.19883956
alexnet2023_baseline_pgd,1,173,NaN,keyboard,keyboard,cr,0173_cl_dnn_cr_keyboard_40_n04505470_4878.png,n04505470_4878.png,1.0,7.0220194,2.0370739,3.5248888
alexnet2023_baseline_pgd,1,174,NaN,knife,knife,bw,0174_cl_dnn_bw_knife_40_n03041632_22734.png,n03041632_22734.png,1.0,8.687925,3.41614,3.7277153
alexnet2023_baseline_pgd,1,175,NaN,elephant,bear,cr,0175_cl_dnn_cr_bear_40_n02132136_8896.png,n02132136_8896.png,0.0,6.0666647,6.9550247,-0.6281654
alexnet2023_baseline_pgd,1,176,NaN,boat,boat,bw,0176_cl_dnn_bw_boat_40_n02951358_5952.png,n02951358_5952.png,1.0,5.342998,4.922058,0.29764947
alexnet2023_baseline_pgd,1,177,NaN,chair,chair,bw,0177_cl_dnn_bw_chair_40_n04099969_1775.png,n04099969_1775.png,1.0,4.101704,3.8245552,0.19597392
alexnet2023_baseline_pgd,1,178,NaN,airplane,airplane,bw,0178_cl_dnn_bw_airplane_40_n02690373_6524.png,n02690373_6524.png,1.0,12.936548,7.5092583,3.8376737
alexnet2023_baseline_pgd,1,179,NaN,bird,bear,cr,0179_cl_dnn_cr_bear_40_n02133161_1916.png,n02133161_1916.png,0.0,5.05999,6.15002,-0.77076775
alexnet2023_baseline_pgd,1,180,NaN,knife,knife,bw,0180_cl_dnn_bw_knife_40_n03041632_96714.png,n03041632_96714.png,1.0,11.033371,2.9363465,5.7254615
alexnet2023_baseline_pgd,1,181,NaN,truck,truck,bw,0181_cl_dnn_bw_truck_40_n03417042_13635.png,n03417042_13635.png,1.0,14.4638,9.190151,3.7290332
alexnet2023_baseline_pgd,1,182,NaN,boat,boat,bw,0182_cl_dnn_bw_boat_40_n04612504_1748.png,n04612504_1748.png,1.0,10.881877,5.379707,3.890622
alexnet2023_baseline_pgd,1,183,NaN,bird,bird,cr,0183_cl_dnn_cr_bird_40_n01592084_3341.png,n01592084_3341.png,1.0,11.45754,2.6108623,6.255546
alexnet2023_baseline_pgd,1,184,NaN,car,car,bw,0184_cl_dnn_bw_car_40_n02814533_12388.png,n02814533_12388.png,1.0,18.307344,10.152191,5.7665644
alexnet2023_baseline_pgd,1,185,NaN,bicycle,bicycle,cr,0185_cl_dnn_cr_bicycle_40_n03792782_5864.png,n03792782_5864.png,1.0,16.081305,6.5922856,6.70975
alexnet2023_baseline_pgd,1,186,NaN,elephant,bird,bw,0186_cl_dnn_bw_bird_40_n01514859_17156.png,n01514859_17156.png,0.0,4.228223,8.084271,-2.726638
alexnet2023_baseline_pgd,1,187,NaN,car,car,cr,0187_cl_dnn_cr_car_40_n03100240_7737.png,n03100240_7737.png,1.0,15.400143,7.538191,5.5592394
alexnet2023_baseline_pgd,1,188,NaN,chair,bottle,bw,0188_cl_dnn_bw_bottle_40_n04579145_1829.png,n04579145_1829.png,0.0,2.6448302,2.926458,-0.19914083
alexnet2023_baseline_pgd,1,189,NaN,elephant,elephant,bw,0189_cl_dnn_bw_elephant_40_n02504013_22388.png,n02504013_22388.png,1.0,13.131475,8.121441,3.5426295
alexnet2023_baseline_pgd,1,190,NaN,airplane,airplane,bw,0190_cl_dnn_bw_airplane_40_n02690373_7107.png,n02690373_7107.png,1.0,16.006762,6.01855,7.062732
alexnet2023_baseline_pgd,1,191,NaN,car,car,bw,0191_cl_dnn_bw_car_40_n02814533_45594.png,n02814533_45594.png,1.0,17.849632,15.094971,1.9478399
alexnet2023_baseline_pgd,1,192,NaN,boat,boat,cr,0192_cl_dnn_cr_boat_40_n04612504_18536.png,n04612504_18536.png,1.0,9.808479,9.595242,0.15078187
alexnet2023_baseline_pgd,1,193,NaN,elephant,dog,cr,0193_cl_dnn_cr_dog_40_n02088466_6371.png,n02088466_6371.png,0.0,4.667587,4.8807964,-0.15076198
alexnet2023_baseline_pgd,1,194,NaN,bear,bear,bw,0194_cl_dnn_bw_bear_40_n02133161_1003.png,n02133161_1003.png,1.0,4.549993,4.1065197,0.31358302
alexnet2023_baseline_pgd,1,195,NaN,knife,knife,bw,0195_cl_dnn_bw_knife_40_n03041632_29037.png,n03041632_29037.png,1.0,6.7827606,5.0293617,1.2398403
alexnet2023_baseline_pgd,1,196,NaN,airplane,airplane,cr,0196_cl_dnn_cr_airplane_40_n02690373_4015.png,n02690373_4015.png,1.0,8.144454,3.4821236,3.2967656
alexnet2023_baseline_pgd,1,197,NaN,knife,knife,bw,0197_cl_dnn_bw_knife_40_n03041632_28009.png,n03041632_28009.png,1.0,8.549288,1.9578234,4.660869
alexnet2023_baseline_pgd,1,198,NaN,bird,bird,bw,0198_cl_dnn_bw_bird_40_n01560419_5714.png,n01560419_5714.png,1.0,7.8454185,4.8622546,2.1094155
alexnet2023_baseline_pgd,1,199,NaN,bird,cat,cr,0199_cl_dnn_cr_cat_40_n02125311_6429.png,n02125311_6429.png,0.0,2.3474448,3.6210823,-0.90059775
alexnet2023_baseline_pgd,1,200,NaN,chair,chair,bw,0200_cl_dnn_bw_chair_40_n04099969_9847.png,n04099969_9847.png,1.0,7.0213327,1.8329464,3.6687434
alexnet2023_baseline_pgd,1,201,NaN,cat,cat,bw,0201_cl_dnn_bw_cat_40_n02123597_7142.png,n02123597_7142.png,1.0,10.652711,3.8141234,4.835612
alexnet2023_baseline_pgd,1,202,NaN,bicycle,bicycle,cr,0202_cl_dnn_cr_bicycle_40_n02835271_8982.png,n02835271_8982.png,1.0,9.82835,5.6250706,2.9721675
alexnet2023_baseline_pgd,1,203,NaN,bird,bird,bw,0203_cl_dnn_bw_bird_40_n01592084_19555.png,n01592084_19555.png,1.0,13.507648,3.979272,6.73758
alexnet2023_baseline_pgd,1,204,NaN,oven,knife,cr,0204_cl_dnn_cr_knife_40_n03041632_8618.png,n03041632_8618.png,0.0,6.8633866,7.682522,-0.57921606
alexnet2023_baseline_pgd,1,205,NaN,boat,boat,bw,0205_cl_dnn_bw_boat_40_n03344393_547.png,n03344393_547.png,1.0,8.630457,8.6251545,0.0037493836
alexnet2023_baseline_pgd,1,206,NaN,bird,bird,bw,0206_cl_dnn_bw_bird_40_n01843383_5962.png,n01843383_5962.png,1.0,3.1834364,3.1442852,0.027684074
alexnet2023_baseline_pgd,1,207,NaN,keyboard,keyboard,cr,0207_cl_dnn_cr_keyboard_40_n04505470_213.png,n04505470_213.png,1.0,19.12238,7.350386,8.324057
alexnet2023_baseline_pgd,1,208,NaN,elephant,elephant,cr,0208_cl_dnn_cr_elephant_40_n02504458_2607.png,n02504458_2607.png,1.0,11.355929,4.1086326,5.124613
alexnet2023_baseline_pgd,1,209,NaN,bear,bear,bw,0209_cl_dnn_bw_bear_40_n02134418_4157.png,n02134418_4157.png,1.0,6.769944,4.1592774,1.8460202
alexnet2023_baseline_pgd,1,210,NaN,bottle,bottle,cr,0210_cl_dnn_cr_bottle_40_n03983396_11519.png,n03983396_11519.png,1.0,9.576991,2.4529624,5.037449
alexnet2023_baseline_pgd,1,211,NaN,cat,cat,cr,0211_cl_dnn_cr_cat_40_n02124075_1999.png,n02124075_1999.png,1.0,12.273838,2.8102615,6.691759
alexnet2023_baseline_pgd,1,212,NaN,cat,cat,bw,0212_cl_dnn_bw_cat_40_n02124075_11252.png,n02124075_11252.png,1.0,9.843628,3.7849367,4.2841415
alexnet2023_baseline_pgd,1,213,NaN,airplane,airplane,bw,0213_cl_dnn_bw_airplane_40_n02690373_4195.png,n02690373_4195.png,1.0,15.3163395,6.309015,6.36914
alexnet2023_baseline_pgd,1,214,NaN,airplane,airplane,cr,0214_cl_dnn_cr_airplane_40_n02690373_2629.png,n02690373_2629.png,1.0,21.546608,8.515085,9.214678
alexnet2023_baseline_pgd,1,215,NaN,keyboard,keyboard,bw,0215_cl_dnn_bw_keyboard_40_n04505470_5060.png,n04505470_5060.png,1.0,6.737919,5.829941,0.64203745
alexnet2023_baseline_pgd,1,216,NaN,bear,bear,cr,0216_cl_dnn_cr_bear_40_n02132136_10060.png,n02132136_10060.png,1.0,9.374472,9.159658,0.1518959
alexnet2023_baseline_pgd,1,217,NaN,airplane,airplane,bw,0217_cl_dnn_bw_airplane_40_n02690373_4150.png,n02690373_4150.png,1.0,18.745306,5.0543714,9.680953
alexnet2023_baseline_pgd,1,218,NaN,dog,dog,cr,0218_cl_dnn_cr_dog_40_n02102040_7465.png,n02102040_7465.png,1.0,7.8902745,3.9860396,2.760711
alexnet2023_baseline_pgd,1,219,NaN,bird,bird,bw,0219_cl_dnn_bw_bird_40_n02009229_12179.png,n02009229_12179.png,1.0,6.9911404,2.9837933,2.8336225
alexnet2023_baseline_pgd,1,220,NaN,knife,knife,bw,0220_cl_dnn_bw_knife_40_n03041632_20413.png,n03041632_20413.png,1.0,8.95889,3.6553228,3.750188
alexnet2023_baseline_pgd,1,221,NaN,truck,truck,bw,0221_cl_dnn_bw_truck_40_n03796401_13490.png,n03796401_13490.png,1.0,9.111689,4.9082985,2.9722457
alexnet2023_baseline_pgd,1,222,NaN,oven,oven,cr,0222_cl_dnn_cr_oven_40_n04111531_584.png,n04111531_584.png,1.0,18.030499,5.960453,8.534811
alexnet2023_baseline_pgd,1,223,NaN,airplane,airplane,bw,0223_cl_dnn_bw_airplane_40_n02690373_3899.png,n02690373_3899.png,1.0,12.935783,7.5989037,3.7737439
alexnet2023_baseline_pgd,1,224,NaN,bird,bird,cr,0224_cl_dnn_cr_bird_40_n02027492_8707.png,n02027492_8707.png,1.0,8.747422,4.74465,2.8303876
alexnet2023_baseline_pgd,1,225,NaN,airplane,airplane,cr,0225_cl_dnn_cr_airplane_40_n02690373_2648.png,n02690373_2648.png,1.0,18.685616,7.909716,7.619712
alexnet2023_baseline_pgd,1,226,NaN,cat,cat,bw,0226_cl_dnn_bw_cat_40_n02123394_6598.png,n02123394_6598.png,1.0,7.952427,3.9897177,2.8020587
alexnet2023_baseline_pgd,1,227,NaN,bicycle,bicycle,bw,0227_cl_dnn_bw_bicycle_40_n02835271_17168.png,n02835271_17168.png,1.0,9.6330185,4.426416,3.681624
alexnet2023_baseline_pgd,1,228,NaN,truck,truck,bw,0228_cl_dnn_bw_truck_40_n03417042_29849.png,n03417042_29849.png,1.0,13.5922985,8.028136,3.9344568
alexnet2023_baseline_pgd,1,229,NaN,knife,knife,cr,0229_cl_dnn_cr_knife_40_n03041632_29125.png,n03041632_29125.png,1.0,9.778456,1.7255372,5.6942735
alexnet2023_baseline_pgd,1,230,NaN,clock,clock,bw,0230_cl_dnn_bw_clock_40_n04548280_5456.png,n04548280_5456.png,1.0,12.582686,5.9220796,4.70976
alexnet2023_baseline_pgd,1,231,NaN,truck,truck,bw,0231_cl_dnn_bw_truck_40_n03796401_8099.png,n03796401_8099.png,1.0,4.926181,3.9944263,0.65885
alexnet2023_baseline_pgd,1,232,NaN,elephant,bear,cr,0232_cl_dnn_cr_bear_40_n02132136_860.png,n02132136_860.png,0.0,8.655128,9.82467,-0.8269913
alexnet2023_baseline_pgd,1,233,NaN,truck,truck,bw,0233_cl_dnn_bw_truck_40_n03796401_4423.png,n03796401_4423.png,1.0,13.333403,6.8203464,4.6054263
alexnet2023_baseline_pgd,1,234,NaN,elephant,elephant,bw,0234_cl_dnn_bw_elephant_40_n02504458_7871.png,n02504458_7871.png,1.0,20.691277,6.9945173,9.685072
alexnet2023_baseline_pgd,1,235,NaN,oven,oven,cr,0235_cl_dnn_cr_oven_40_n04111531_14753.png,n04111531_14753.png,1.0,13.166602,4.804405,5.9129663
alexnet2023_baseline_pgd,1,236,NaN,clock,clock,bw,0236_cl_dnn_bw_clock_40_n04548280_17198.png,n04548280_17198.png,1.0,13.595272,4.4655647,6.455678
alexnet2023_baseline_pgd,1,237,NaN,oven,oven,cr,0237_cl_dnn_cr_oven_40_n04111531_15947.png,n04111531_15947.png,1.0,24.908485,2.8237371,15.616275
alexnet2023_baseline_pgd,1,238,NaN,elephant,elephant,bw,0238_cl_dnn_bw_elephant_40_n02504013_1103.png,n02504013_1103.png,1.0,5.1360826,3.6906898,1.022047
alexnet2023_baseline_pgd,1,239,NaN,bicycle,bicycle,cr,0239_cl_dnn_cr_bicycle_40_n03792782_33853.png,n03792782_33853.png,1.0,7.892334,3.8343844,2.8694036
alexnet2023_baseline_pgd,1,240,NaN,bottle,bottle,bw,0240_cl_dnn_bw_bottle_40_n04557648_5665.png,n04557648_5665.png,1.0,8.470033,4.9251604,2.5066032
alexnet2023_baseline_pgd,1,241,NaN,bear,bear,bw,0241_cl_dnn_bw_bear_40_n02134418_5824.png,n02134418_5824.png,1.0,8.872673,3.7461548,3.624996
alexnet2023_baseline_pgd,1,242,NaN,truck,truck,cr,0242_cl_dnn_cr_truck_40_n04467665_54349.png,n04467665_54349.png,1.0,18.993408,11.313062,5.430825
alexnet2023_baseline_pgd,1,243,NaN,truck,truck,cr,0243_cl_dnn_cr_truck_40_n03796401_8100.png,n03796401_8100.png,1.0,12.758083,8.829731,2.7777646
alexnet2023_baseline_pgd,1,244,NaN,elephant,elephant,cr,0244_cl_dnn_cr_elephant_40_n02504013_4288.png,n02504013_4288.png,1.0,23.589333,8.741068,10.499309
alexnet2023_baseline_pgd,1,245,NaN,boat,boat,cr,0245_cl_dnn_cr_boat_40_n03662601_4437.png,n03662601_4437.png,1.0,12.787525,8.544378,3.000358
alexnet2023_baseline_pgd,1,246,NaN,bicycle,bicycle,cr,0246_cl_dnn_cr_bicycle_40_n02835271_7351.png,n02835271_7351.png,1.0,20.787094,4.055016,11.831367
alexnet2023_baseline_pgd,1,247,NaN,elephant,elephant,bw,0247_cl_dnn_bw_elephant_40_n02504458_2556.png,n02504458_2556.png,1.0,10.272017,4.4335117,4.1284466
alexnet2023_baseline_pgd,1,248,NaN,airplane,airplane,cr,0248_cl_dnn_cr_airplane_40_n02690373_303.png,n02690373_303.png,1.0,24.411709,3.8979974,14.505385
alexnet2023_baseline_pgd,1,249,NaN,elephant,elephant,bw,0249_cl_dnn_bw_elephant_40_n02504013_5503.png,n02504013_5503.png,1.0,13.18771,3.121595,7.117818
alexnet2023_baseline_pgd,1,250,NaN,airplane,truck,cr,0250_cl_dnn_cr_truck_40_n04467665_68332.png,n04467665_68332.png,0.0,10.620482,13.503601,-2.0386727
alexnet2023_baseline_pgd,1,251,NaN,clock,clock,bw,0251_cl_dnn_bw_clock_40_n02708093_3079.png,n02708093_3079.png,1.0,10.079251,2.7861087,5.1570306
alexnet2023_baseline_pgd,1,252,NaN,cat,cat,cr,0252_cl_dnn_cr_cat_40_n02123394_2395.png,n02123394_2395.png,1.0,9.186663,2.864926,4.470143
alexnet2023_baseline_pgd,1,253,NaN,chair,chair,cr,0253_cl_dnn_cr_chair_40_n04429376_20906.png,n04429376_20906.png,1.0,9.6030445,5.4359484,2.946582
alexnet2023_baseline_pgd,1,254,NaN,boat,boat,cr,0254_cl_dnn_cr_boat_40_n03344393_8160.png,n03344393_8160.png,1.0,12.688705,5.893408,4.8050013
alexnet2023_baseline_pgd,1,255,NaN,keyboard,keyboard,cr,0255_cl_dnn_cr_keyboard_40_n03085013_21325.png,n03085013_21325.png,1.0,14.291218,6.227456,5.7019405
alexnet2023_baseline_pgd,1,256,NaN,knife,knife,cr,0256_cl_dnn_cr_knife_40_n03041632_99875.png,n03041632_99875.png,1.0,6.4506164,4.6422887,1.2786808
alexnet2023_baseline_pgd,1,257,NaN,airplane,clock,bw,0257_cl_dnn_bw_clock_40_n04548280_7384.png,n04548280_7384.png,0.0,0.8296376,1.5481662,-0.5080764
alexnet2023_baseline_pgd,1,258,NaN,keyboard,keyboard,bw,0258_cl_dnn_bw_keyboard_40_n03085013_23534.png,n03085013_23534.png,1.0,13.978313,3.8335018,7.1734653
alexnet2023_baseline_pgd,1,259,NaN,truck,truck,bw,0259_cl_dnn_bw_truck_40_n03417042_2383.png,n03417042_2383.png,1.0,11.782088,9.134072,1.8724301
alexnet2023_baseline_pgd,1,260,NaN,keyboard,clock,bw,0260_cl_dnn_bw_clock_40_n03196217_711.png,n03196217_711.png,0.0,2.3372781,3.6649103,-0.93877774
alexnet2023_baseline_pgd,1,261,NaN,keyboard,keyboard,bw,0261_cl_dnn_bw_keyboard_40_n03085013_7992.png,n03085013_7992.png,1.0,13.981319,6.460671,5.3179016
alexnet2023_baseline_pgd,1,262,NaN,cat,cat,bw,0262_cl_dnn_bw_cat_40_n02125311_75445.png,n02125311_75445.png,1.0,4.084865,3.4918413,0.41933113
alexnet2023_baseline_pgd,1,263,NaN,knife,knife,cr,0263_cl_dnn_cr_knife_40_n03041632_47410.png,n03041632_47410.png,1.0,15.293649,3.3453565,8.448718
alexnet2023_baseline_pgd,1,264,NaN,oven,oven,bw,0264_cl_dnn_bw_oven_40_n04111531_741.png,n04111531_741.png,1.0,11.5028515,3.3353176,5.7753186
alexnet2023_baseline_pgd,1,265,NaN,oven,oven,bw,0265_cl_dnn_bw_oven_40_n04111531_3181.png,n04111531_3181.png,1.0,4.5988307,3.5484746,0.742714
alexnet2023_baseline_pgd,1,266,NaN,truck,truck,bw,0266_cl_dnn_bw_truck_40_n03417042_17099.png,n03417042_17099.png,1.0,17.751232,9.632524,5.740794
alexnet2023_baseline_pgd,1,267,NaN,boat,boat,cr,0267_cl_dnn_cr_boat_40_n03662601_15143.png,n03662601_15143.png,1.0,16.46779,10.564778,4.17406
alexnet2023_baseline_pgd,1,268,NaN,keyboard,keyboard,bw,0268_cl_dnn_bw_keyboard_40_n03085013_19197.png,n03085013_19197.png,1.0,19.781715,6.4459677,9.429798
alexnet2023_baseline_pgd,1,269,NaN,airplane,airplane,cr,0269_cl_dnn_cr_airplane_40_n02690373_4202.png,n02690373_4202.png,1.0,21.607338,8.218292,9.467485
alexnet2023_baseline_pgd,1,270,NaN,bear,bear,bw,0270_cl_dnn_bw_bear_40_n02132136_10134.png,n02132136_10134.png,1.0,12.85687,6.7611637,4.310315
alexnet2023_baseline_pgd,1,271,NaN,boat,boat,bw,0271_cl_dnn_bw_boat_40_n03344393_5296.png,n03344393_5296.png,1.0,10.2037525,5.5716133,3.275417
alexnet2023_baseline_pgd,1,272,NaN,keyboard,keyboard,bw,0272_cl_dnn_bw_keyboard_40_n04505470_1600.png,n04505470_1600.png,1.0,13.27973,9.061437,2.9827838
alexnet2023_baseline_pgd,1,273,NaN,truck,truck,bw,0273_cl_dnn_bw_truck_40_n03417042_10043.png,n03417042_10043.png,1.0,13.751646,8.442249,3.7543106
alexnet2023_baseline_pgd,1,274,NaN,bird,bird,bw,0274_cl_dnn_bw_bird_40_n02007558_5525.png,n02007558_5525.png,1.0,6.955058,3.001246,2.7957673
alexnet2023_baseline_pgd,1,275,NaN,airplane,airplane,cr,0275_cl_dnn_cr_airplane_40_n02690373_6621.png,n02690373_6621.png,1.0,13.6518135,5.0161147,6.106361
alexnet2023_baseline_pgd,1,276,NaN,keyboard,keyboard,bw,0276_cl_dnn_bw_keyboard_40_n04505470_6623.png,n04505470_6623.png,1.0,17.444443,5.3781595,8.532151
alexnet2023_baseline_pgd,1,277,NaN,dog,dog,cr,0277_cl_dnn_cr_dog_40_n02113624_3403.png,n02113624_3403.png,1.0,3.7941403,3.628217,0.11732553
alexnet2023_baseline_pgd,1,278,NaN,dog,dog,bw,0278_cl_dnn_bw_dog_40_n02106550_12642.png,n02106550_12642.png,1.0,4.3968163,2.6845195,1.2107767
alexnet2023_baseline_pgd,1,279,NaN,clock,clock,cr,0279_cl_dnn_cr_clock_40_n04548280_24041.png,n04548280_24041.png,1.0,12.17603,3.983219,5.7931924
alexnet2023_baseline_pgd,1,280,NaN,truck,truck,bw,0280_cl_dnn_bw_truck_40_n03417042_3236.png,n03417042_3236.png,1.0,6.669985,4.861164,1.2790294
alexnet2023_baseline_pgd,1,281,NaN,car,car,bw,0281_cl_dnn_bw_car_40_n03100240_2583.png,n03100240_2583.png,1.0,16.752653,13.264236,2.4666831
alexnet2023_baseline_pgd,1,282,NaN,knife,knife,cr,0282_cl_dnn_cr_knife_40_n03041632_45090.png,n03041632_45090.png,1.0,12.973071,2.2848341,7.557725
alexnet2023_baseline_pgd,1,283,NaN,cat,cat,cr,0283_cl_dnn_cr_cat_40_n02123597_660.png,n02123597_660.png,1.0,7.2689424,2.7835462,3.1716542
alexnet2023_baseline_pgd,1,284,NaN,clock,clock,bw,0284_cl_dnn_bw_clock_40_n04548280_7813.png,n04548280_7813.png,1.0,9.429651,8.943765,0.3435737
alexnet2023_baseline_pgd,1,285,NaN,dog,dog,bw,0285_cl_dnn_bw_dog_40_n02111129_797.png,n02111129_797.png,1.0,11.734428,8.984431,1.9445417
alexnet2023_baseline_pgd,1,286,NaN,knife,knife,cr,0286_cl_dnn_cr_knife_40_n03041632_3717.png,n03041632_3717.png,1.0,19.24609,5.482879,9.7320595
alexnet2023_baseline_pgd,1,287,NaN,boat,boat,bw,0287_cl_dnn_bw_boat_40_n04273569_870.png,n04273569_870.png,1.0,9.30093,6.3738494,2.0697587
alexnet2023_baseline_pgd,1,288,NaN,elephant,elephant,bw,0288_cl_dnn_bw_elephant_40_n02504013_720.png,n02504013_720.png,1.0,25.109154,11.642328,9.522484
alexnet2023_baseline_pgd,1,289,NaN,oven,oven,cr,0289_cl_dnn_cr_oven_40_n04111531_14876.png,n04111531_14876.png,1.0,17.30811,2.4376945,10.514972
alexnet2023_baseline_pgd,1,290,NaN,cat,cat,bw,0290_cl_dnn_bw_cat_40_n02123045_569.png,n02123045_569.png,1.0,5.825264,4.403865,1.0050809
alexnet2023_baseline_pgd,1,291,NaN,clock,clock,bw,0291_cl_dnn_bw_clock_40_n03196217_5888.png,n03196217_5888.png,1.0,5.745592,4.227102,1.0737348
alexnet2023_baseline_pgd,1,292,NaN,keyboard,keyboard,cr,0292_cl_dnn_cr_keyboard_40_n04505470_4770.png,n04505470_4770.png,1.0,14.562778,3.6718392,7.7010574
alexnet2023_baseline_pgd,1,293,NaN,knife,knife,cr,0293_cl_dnn_cr_knife_40_n03041632_32292.png,n03041632_32292.png,1.0,7.8082175,3.7183616,2.8919652
alexnet2023_baseline_pgd,1,294,NaN,elephant,elephant,cr,0294_cl_dnn_cr_elephant_40_n02504013_6672.png,n02504013_6672.png,1.0,7.861433,5.029664,2.0023632
alexnet2023_baseline_pgd,1,295,NaN,airplane,airplane,bw,0295_cl_dnn_bw_airplane_40_n02690373_5838.png,n02690373_5838.png,1.0,21.535412,6.449314,10.667482
alexnet2023_baseline_pgd,1,296,NaN,bird,bird,cr,0296_cl_dnn_cr_bird_40_n01796340_5508.png,n01796340_5508.png,1.0,5.303503,1.034131,3.0189018
alexnet2023_baseline_pgd,1,297,NaN,oven,clock,bw,0297_cl_dnn_bw_clock_40_n03196217_6477.png,n03196217_6477.png,0.0,5.8564553,6.2447906,-0.2745945
alexnet2023_baseline_pgd,1,298,NaN,bird,bird,bw,0298_cl_dnn_bw_bird_40_n02011460_5075.png,n02011460_5075.png,1.0,4.7547474,2.0485718,1.9135551
alexnet2023_baseline_pgd,1,299,NaN,boat,boat,bw,0299_cl_dnn_bw_boat_40_n03344393_10284.png,n03344393_10284.png,1.0,10.76158,6.015011,3.3563316
alexnet2023_baseline_pgd,1,300,NaN,oven,oven,bw,0300_cl_dnn_bw_oven_40_n04111531_14559.png,n04111531_14559.png,1.0,11.736852,4.944586,4.8028574
alexnet2023_baseline_pgd,1,301,NaN,knife,knife,cr,0301_cl_dnn_cr_knife_40_n03041632_24060.png,n03041632_24060.png,1.0,8.8732,3.9266522,3.4977381
alexnet2023_baseline_pgd,1,302,NaN,airplane,airplane,bw,0302_cl_dnn_bw_airplane_40_n02690373_4134.png,n02690373_4134.png,1.0,16.290075,4.1748457,8.566761
alexnet2023_baseline_pgd,1,303,NaN,bear,bear,cr,0303_cl_dnn_cr_bear_40_n02134084_6669.png,n02134084_6669.png,1.0,4.537198,3.689627,0.59932333
alexnet2023_baseline_pgd,1,304,NaN,bird,bird,cr,0304_cl_dnn_cr_bird_40_n01558993_5744.png,n01558993_5744.png,1.0,11.253747,3.1106675,5.758027
alexnet2023_baseline_pgd,1,305,NaN,oven,bird,bw,0305_cl_dnn_bw_bird_40_n01818515_10536.png,n01818515_10536.png,0.0,0.62169474,2.561054,-1.3713341
alexnet2023_baseline_pgd,1,306,NaN,bicycle,bottle,bw,0306_cl_dnn_bw_bottle_40_n04557648_20614.png,n04557648_20614.png,0.0,1.2837007,10.719423,-6.6720634
alexnet2023_baseline_pgd,1,307,NaN,clock,clock,cr,0307_cl_dnn_cr_clock_40_n04548280_3605.png,n04548280_3605.png,1.0,11.679919,5.53809,4.342929
alexnet2023_baseline_pgd,1,308,NaN,truck,truck,bw,0308_cl_dnn_bw_truck_40_n03796401_27288.png,n03796401_27288.png,1.0,13.9420595,10.65888,2.3215585
alexnet2023_baseline_pgd,1,309,NaN,bicycle,bicycle,cr,0309_cl_dnn_cr_bicycle_40_n02835271_18276.png,n02835271_18276.png,1.0,15.185198,4.680747,7.4277687
alexnet2023_baseline_pgd,1,310,NaN,bear,bear,cr,0310_cl_dnn_cr_bear_40_n02133161_12152.png,n02133161_12152.png,1.0,8.518201,6.5740767,1.3747034
alexnet2023_baseline_pgd,1,311,NaN,elephant,elephant,cr,0311_cl_dnn_cr_elephant_40_n02504013_14918.png,n02504013_14918.png,1.0,22.515942,7.7841797,10.416929
alexnet2023_baseline_pgd,1,312,NaN,bicycle,bicycle,bw,0312_cl_dnn_bw_bicycle_40_n03792782_5323.png,n03792782_5323.png,1.0,13.168087,4.0056047,6.478853
alexnet2023_baseline_pgd,1,313,NaN,elephant,truck,cr,0313_cl_dnn_cr_truck_40_n04467665_37066.png,n04467665_37066.png,0.0,5.258132,6.1238565,-0.6121597
alexnet2023_baseline_pgd,1,314,NaN,bird,bird,bw,0314_cl_dnn_bw_bird_40_n02025239_2481.png,n02025239_2481.png,1.0,6.6087174,2.6905582,2.770557
alexnet2023_baseline_pgd,1,315,NaN,bicycle,bicycle,bw,0315_cl_dnn_bw_bicycle_40_n02835271_5113.png,n02835271_5113.png,1.0,7.592897,4.102271,2.4682453
alexnet2023_baseline_pgd,1,316,NaN,elephant,elephant,cr,0316_cl_dnn_cr_elephant_40_n02504458_6185.png,n02504458_6185.png,1.0,20.32727,2.3563416,12.707365
alexnet2023_baseline_pgd,1,317,NaN,knife,knife,cr,0317_cl_dnn_cr_knife_40_n03041632_11475.png,n03041632_11475.png,1.0,5.7150903,3.9222152,1.2677541
alexnet2023_baseline_pgd,1,318,NaN,cat,cat,bw,0318_cl_dnn_bw_cat_40_n02125311_31318.png,n02125311_31318.png,1.0,7.6085,1.3802918,4.4040084
alexnet2023_baseline_pgd,1,319,NaN,clock,clock,bw,0319_cl_dnn_bw_clock_40_n04548280_8585.png,n04548280_8585.png,1.0,7.8546395,4.794891,2.163569
alexnet2023_baseline_pgd,1,320,NaN,bear,bear,bw,0320_cl_dnn_bw_bear_40_n02134418_12628.png,n02134418_12628.png,1.0,9.990723,6.8436894,2.2252886
alexnet2023_baseline_pgd,1,321,NaN,chair,chair,bw,0321_cl_dnn_bw_chair_40_n03376595_17859.png,n03376595_17859.png,1.0,8.020337,3.2872684,3.3467848
alexnet2023_baseline_pgd,1,322,NaN,knife,knife,cr,0322_cl_dnn_cr_knife_40_n03041632_379.png,n03041632_379.png,1.0,7.52211,3.1140904,3.1169405
alexnet2023_baseline_pgd,1,323,NaN,oven,bottle,bw,0323_cl_dnn_bw_bottle_40_n04557648_1293.png,n04557648_1293.png,0.0,3.6323278,4.44624,-0.57552284
alexnet2023_baseline_pgd,1,324,NaN,boat,boat,cr,0324_cl_dnn_cr_boat_40_n03662601_26298.png,n03662601_26298.png,1.0,17.573824,6.00189,8.182593
alexnet2023_baseline_pgd,1,325,NaN,oven,oven,bw,0325_cl_dnn_bw_oven_40_n04111531_6120.png,n04111531_6120.png,1.0,6.3032584,2.2706952,2.8514528
alexnet2023_baseline_pgd,1,326,NaN,car,car,bw,0326_cl_dnn_bw_car_40_n02814533_92940.png,n02814533_92940.png,1.0,13.10429,7.345828,4.0718474
alexnet2023_baseline_pgd,1,327,NaN,chair,chair,cr,0327_cl_dnn_cr_chair_40_n02791124_392.png,n02791124_392.png,1.0,10.756321,5.1594176,3.9576085
alexnet2023_baseline_pgd,1,328,NaN,clock,clock,bw,0328_cl_dnn_bw_clock_40_n04548280_3330.png,n04548280_3330.png,1.0,11.033101,4.602271,4.5472836
alexnet2023_baseline_pgd,1,329,NaN,car,car,cr,0329_cl_dnn_cr_car_40_n02814533_83614.png,n02814533_83614.png,1.0,16.812723,16.07285,0.5231699
alexnet2023_baseline_pgd,1,330,NaN,bear,bear,cr,0330_cl_dnn_cr_bear_40_n02134418_3846.png,n02134418_3846.png,1.0,15.839394,8.702624,5.0464582
alexnet2023_baseline_pgd,1,331,NaN,elephant,elephant,cr,0331_cl_dnn_cr_elephant_40_n02504013_811.png,n02504013_811.png,1.0,10.177926,3.0501618,5.0400906
alexnet2023_baseline_pgd,1,332,NaN,airplane,airplane,bw,0332_cl_dnn_bw_airplane_40_n02690373_1442.png,n02690373_1442.png,1.0,18.767914,3.388953,10.874568
alexnet2023_baseline_pgd,1,333,NaN,chair,chair,cr,0333_cl_dnn_cr_chair_40_n03376595_6691.png,n03376595_6691.png,1.0,7.3207965,3.4629042,2.7279418
alexnet2023_baseline_pgd,1,334,NaN,bird,bird,bw,0334_cl_dnn_bw_bird_40_n01616318_1071.png,n01616318_1071.png,1.0,3.5972319,3.5792706,0.012700532
alexnet2023_baseline_pgd,1,335,NaN,boat,boat,cr,0335_cl_dnn_cr_boat_40_n03662601_8333.png,n03662601_8333.png,1.0,6.9545774,1.9749777,3.5211089
alexnet2023_baseline_pgd,1,336,NaN,truck,truck,cr,0336_cl_dnn_cr_truck_40_n03796401_9384.png,n03796401_9384.png,1.0,7.738155,5.3405337,1.6953743
alexnet2023_baseline_pgd,1,337,NaN,bottle,bottle,cr,0337_cl_dnn_cr_bottle_40_n04560804_19001.png,n04560804_19001.png,1.0,7.874797,4.1408424,2.6403046
alexnet2023_baseline_pgd,1,338,NaN,cat,cat,cr,0338_cl_dnn_cr_cat_40_n02123045_7646.png,n02123045_7646.png,1.0,8.736843,0.78254724,5.624537
alexnet2023_baseline_pgd,1,339,NaN,elephant,elephant,cr,0339_cl_dnn_cr_elephant_40_n02504013_3599.png,n02504013_3599.png,1.0,20.783218,10.964908,6.942594
alexnet2023_baseline_pgd,1,340,NaN,clock,clock,cr,0340_cl_dnn_cr_clock_40_n03196217_1109.png,n03196217_1109.png,1.0,7.091041,5.3361244,1.2409135
alexnet2023_baseline_pgd,1,341,NaN,boat,boat,bw,0341_cl_dnn_bw_boat_40_n03344393_5322.png,n03344393_5322.png,1.0,7.368467,6.2462378,0.7935358
alexnet2023_baseline_pgd,1,342,NaN,dog,dog,cr,0342_cl_dnn_cr_dog_40_n02090622_11748.png,n02090622_11748.png,1.0,6.2293806,1.8785235,3.0765207
alexnet2023_baseline_pgd,1,343,NaN,knife,knife,cr,0343_cl_dnn_cr_knife_40_n03041632_20707.png,n03041632_20707.png,1.0,12.105612,4.4525037,5.411565
alexnet2023_baseline_pgd,1,344,NaN,keyboard,keyboard,cr,0344_cl_dnn_cr_keyboard_40_n03085013_8936.png,n03085013_8936.png,1.0,6.169324,3.6810896,1.7594473
alexnet2023_baseline_pgd,1,345,NaN,airplane,airplane,cr,0345_cl_dnn_cr_airplane_40_n02690373_4695.png,n02690373_4695.png,1.0,14.176169,5.6120567,6.0557423
alexnet2023_baseline_pgd,1,346,NaN,oven,oven,bw,0346_cl_dnn_bw_oven_40_n04111531_16463.png,n04111531_16463.png,1.0,11.487061,3.6936455,5.5107765
alexnet2023_baseline_pgd,1,347,NaN,dog,dog,bw,0347_cl_dnn_bw_dog_40_n02099712_1234.png,n02099712_1234.png,1.0,5.147902,4.537432,0.43166736
alexnet2023_baseline_pgd,1,348,NaN,boat,boat,bw,0348_cl_dnn_bw_boat_40_n03662601_17361.png,n03662601_17361.png,1.0,9.393257,4.3371716,3.5751925
alexnet2023_baseline_pgd,1,349,NaN,oven,oven,cr,0349_cl_dnn_cr_oven_40_n04111531_12929.png,n04111531_12929.png,1.0,10.218089,4.5085473,4.037256
alexnet2023_baseline_pgd,1,350,NaN,car,truck,bw,0350_cl_dnn_bw_truck_40_n03417042_2056.png,n03417042_2056.png,0.0,6.323469,7.988888,-1.1776289
alexnet2023_baseline_pgd,1,351,NaN,oven,oven,cr,0351_cl_dnn_cr_oven_40_n04111531_2937.png,n04111531_2937.png,1.0,16.687685,5.3526316,8.015093
alexnet2023_baseline_pgd,1,352,NaN,boat,boat,bw,0352_cl_dnn_bw_boat_40_n04273569_23705.png,n04273569_23705.png,1.0,9.1872425,7.007834,1.5410746
alexnet2023_baseline_pgd,1,353,NaN,boat,boat,cr,0353_cl_dnn_cr_boat_40_n02951358_8456.png,n02951358_8456.png,1.0,6.2359905,3.622745,1.8478436
alexnet2023_baseline_pgd,1,354,NaN,bottle,bottle,bw,0354_cl_dnn_bw_bottle_40_n03983396_11632.png,n03983396_11632.png,1.0,8.875292,4.4203005,3.1501546
alexnet2023_baseline_pgd,1,355,NaN,bicycle,bicycle,bw,0355_cl_dnn_bw_bicycle_40_n02835271_506.png,n02835271_506.png,1.0,16.0709,2.8079147,9.378347
alexnet2023_baseline_pgd,1,356,NaN,keyboard,keyboard,cr,0356_cl_dnn_cr_keyboard_40_n04505470_665.png,n04505470_665.png,1.0,12.611289,8.036012,3.2352097
alexnet2023_baseline_pgd,1,357,NaN,bear,bear,bw,0357_cl_dnn_bw_bear_40_n02132136_390.png,n02132136_390.png,1.0,13.969278,9.982431,2.8191266
alexnet2023_baseline_pgd,1,358,NaN,bear,bear,cr,0358_cl_dnn_cr_bear_40_n02134084_13663.png,n02134084_13663.png,1.0,8.829928,6.0658836,1.9544748
alexnet2023_baseline_pgd,1,359,NaN,airplane,airplane,cr,0359_cl_dnn_cr_airplane_40_n02690373_2837.png,n02690373_2837.png,1.0,20.070183,12.130436,5.6142488
alexnet2023_baseline_pgd,1,360,NaN,airplane,airplane,bw,0360_cl_dnn_bw_airplane_40_n02690373_1492.png,n02690373_1492.png,1.0,16.448162,6.808301,6.8164115
alexnet2023_baseline_pgd,1,361,NaN,car,car,cr,0361_cl_dnn_cr_car_40_n03100240_14252.png,n03100240_14252.png,1.0,21.897215,13.710712,5.7887316
alexnet2023_baseline_pgd,1,362,NaN,elephant,elephant,bw,0362_cl_dnn_bw_elephant_40_n02504458_4908.png,n02504458_4908.png,1.0,2.802907,1.6920823,0.7854717
alexnet2023_baseline_pgd,1,363,NaN,bird,bird,bw,0363_cl_dnn_bw_bird_40_n01582220_5821.png,n01582220_5821.png,1.0,7.467507,1.4308863,4.2685356
alexnet2023_baseline_pgd,1,364,NaN,cat,cat,cr,0364_cl_dnn_cr_cat_40_n02123045_2968.png,n02123045_2968.png,1.0,9.107364,4.4703236,3.2788825
alexnet2023_baseline_pgd,1,365,NaN,dog,dog,cr,0365_cl_dnn_cr_dog_40_n02088466_1671.png,n02088466_1671.png,1.0,9.869968,3.0677423,4.8099003
alexnet2023_baseline_pgd,1,366,NaN,boat,boat,bw,0366_cl_dnn_bw_boat_40_n03344393_7659.png,n03344393_7659.png,1.0,14.878093,7.927536,4.914786
alexnet2023_baseline_pgd,1,367,NaN,bicycle,bicycle,bw,0367_cl_dnn_bw_bicycle_40_n03792782_3783.png,n03792782_3783.png,1.0,11.591994,5.7588873,4.1246295
alexnet2023_baseline_pgd,1,368,NaN,airplane,airplane,cr,0368_cl_dnn_cr_airplane_40_n02690373_2059.png,n02690373_2059.png,1.0,16.449411,7.867801,6.0681148
alexnet2023_baseline_pgd,1,369,NaN,keyboard,keyboard,cr,0369_cl_dnn_cr_keyboard_40_n03085013_19483.png,n03085013_19483.png,1.0,11.192148,3.8146043,5.2167115
alexnet2023_baseline_pgd,1,370,NaN,bicycle,bicycle,bw,0370_cl_dnn_bw_bicycle_40_n03792782_2960.png,n03792782_2960.png,1.0,12.944681,0.42490637,8.852818
alexnet2023_baseline_pgd,1,371,NaN,keyboard,keyboard,cr,0371_cl_dnn_cr_keyboard_40_n03085013_24538.png,n03085013_24538.png,1.0,8.24473,5.7036695,1.7968011
alexnet2023_baseline_pgd,1,372,NaN,elephant,cat,cr,0372_cl_dnn_cr_cat_40_n02123597_9656.png,n02123597_9656.png,0.0,0.67542523,5.594012,-3.477966
alexnet2023_baseline_pgd,1,373,NaN,car,car,cr,0373_cl_dnn_cr_car_40_n04285008_1085.png,n04285008_1085.png,1.0,18.608324,9.771982,6.248237
alexnet2023_baseline_pgd,1,374,NaN,dog,dog,cr,0374_cl_dnn_cr_dog_40_n02102177_5870.png,n02102177_5870.png,1.0,8.822223,2.5148618,4.4599776
alexnet2023_baseline_pgd,1,375,NaN,boat,boat,cr,0375_cl_dnn_cr_boat_40_n03662601_24852.png,n03662601_24852.png,1.0,11.377707,9.539437,1.2998526
alexnet2023_baseline_pgd,1,376,NaN,bicycle,bicycle,cr,0376_cl_dnn_cr_bicycle_40_n03792782_32379.png,n03792782_32379.png,1.0,19.153305,4.305705,10.498838
alexnet2023_baseline_pgd,1,377,NaN,car,cat,cr,0377_cl_dnn_cr_cat_40_n02123597_12266.png,n02123597_12266.png,0.0,1.0029774,1.677412,-0.47689733
alexnet2023_baseline_pgd,1,378,NaN,airplane,airplane,cr,0378_cl_dnn_cr_airplane_40_n02690373_713.png,n02690373_713.png,1.0,25.377518,7.495031,12.644828
alexnet2023_baseline_pgd,1,379,NaN,airplane,airplane,cr,0379_cl_dnn_cr_airplane_40_n02690373_6543.png,n02690373_6543.png,1.0,17.061905,6.981425,7.1279764
alexnet2023_baseline_pgd,1,380,NaN,oven,oven,cr,0380_cl_dnn_cr_oven_40_n04111531_5888.png,n04111531_5888.png,1.0,18.886818,3.6587481,10.767871
alexnet2023_baseline_pgd,1,381,NaN,dog,dog,bw,0381_cl_dnn_bw_dog_40_n02099601_7304.png,n02099601_7304.png,1.0,9.573417,1.0324442,6.0393796
alexnet2023_baseline_pgd,1,382,NaN,knife,bird,bw,0382_cl_dnn_bw_bird_40_n01819313_146.png,n01819313_146.png,0.0,3.3865845,4.42672,-0.735487
alexnet2023_baseline_pgd,1,383,NaN,car,car,bw,0383_cl_dnn_bw_car_40_n03100240_18873.png,n03100240_18873.png,1.0,16.955925,11.436842,3.9025812
alexnet2023_baseline_pgd,1,384,NaN,elephant,dog,bw,0384_cl_dnn_bw_dog_40_n02100583_2707.png,n02100583_2707.png,0.0,7.6905723,8.604717,-0.6463981
alexnet2023_baseline_pgd,1,385,NaN,bird,dog,bw,0385_cl_dnn_bw_dog_40_n02105056_15484.png,n02105056_15484.png,0.0,0.72861713,3.0535429,-1.6439707
alexnet2023_baseline_pgd,1,386,NaN,truck,truck,bw,0386_cl_dnn_bw_truck_40_n04467665_66535.png,n04467665_66535.png,1.0,10.179045,7.1236596,2.1604836
alexnet2023_baseline_pgd,1,387,NaN,elephant,elephant,bw,0387_cl_dnn_bw_elephant_40_n02504458_12303.png,n02504458_12303.png,1.0,17.56752,8.588691,6.3489914
alexnet2023_baseline_pgd,1,388,NaN,bottle,bottle,cr,0388_cl_dnn_cr_bottle_40_n03937543_4586.png,n03937543_4586.png,1.0,7.917066,5.490802,1.7156279
alexnet2023_baseline_pgd,1,389,NaN,bird,bird,cr,0389_cl_dnn_cr_bird_40_n02007558_19064.png,n02007558_19064.png,1.0,5.801679,2.7827866,2.1346793
alexnet2023_baseline_pgd,1,390,NaN,oven,oven,bw,0390_cl_dnn_bw_oven_40_n04111531_5904.png,n04111531_5904.png,1.0,11.697406,2.0787995,6.801382
alexnet2023_baseline_pgd,1,391,NaN,keyboard,keyboard,cr,0391_cl_dnn_cr_keyboard_40_n03085013_18625.png,n03085013_18625.png,1.0,9.622029,5.887626,2.640622
alexnet2023_baseline_pgd,1,392,NaN,bottle,bottle,cr,0392_cl_dnn_cr_bottle_40_n04579145_445.png,n04579145_445.png,1.0,12.274529,4.37692,5.584453
alexnet2023_baseline_pgd,1,393,NaN,keyboard,keyboard,bw,0393_cl_dnn_bw_keyboard_40_n03085013_22820.png,n03085013_22820.png,1.0,7.4950867,4.1968,2.3322408
alexnet2023_baseline_pgd,1,394,NaN,truck,truck,cr,0394_cl_dnn_cr_truck_40_n03417042_19479.png,n03417042_19479.png,1.0,17.631714,9.928928,5.446692
alexnet2023_baseline_pgd,1,395,NaN,bird,bird,bw,0395_cl_dnn_bw_bird_40_n01833805_28946.png,n01833805_28946.png,1.0,6.9753256,5.695927,0.9046713
alexnet2023_baseline_pgd,1,396,NaN,bottle,bottle,bw,0396_cl_dnn_bw_bottle_40_n04591713_3896.png,n04591713_3896.png,1.0,4.4551215,2.9321132,1.0769296
alexnet2023_baseline_pgd,1,397,NaN,cat,cat,cr,0397_cl_dnn_cr_cat_40_n02123159_782.png,n02123159_782.png,1.0,10.480268,2.199273,5.8555474
alexnet2023_baseline_pgd,1,398,NaN,bottle,keyboard,bw,0398_cl_dnn_bw_keyboard_40_n04505470_464.png,n04505470_464.png,0.0,3.3661246,5.3748026,-1.4203498
alexnet2023_baseline_pgd,1,399,NaN,bird,bird,cr,0399_cl_dnn_cr_bird_40_n01558993_3939.png,n01558993_3939.png,1.0,12.3414135,4.535968,5.519284
alexnet2023_baseline_pgd,1,400,NaN,boat,boat,cr,0400_cl_dnn_cr_boat_40_n04273569_3052.png,n04273569_3052.png,1.0,14.052211,6.882658,5.0696397
alexnet2023_baseline_pgd,1,401,NaN,knife,knife,bw,0401_cl_dnn_bw_knife_40_n03041632_85416.png,n03041632_85416.png,1.0,6.1959577,3.4564588,1.9371183
alexnet2023_baseline_pgd,1,402,NaN,car,car,bw,0402_cl_dnn_bw_car_40_n02814533_51154.png,n02814533_51154.png,1.0,19.58022,14.078598,3.8902338
alexnet2023_baseline_pgd,1,403,NaN,airplane,airplane,bw,0403_cl_dnn_bw_airplane_40_n02690373_6516.png,n02690373_6516.png,1.0,18.800888,9.740321,6.4067883
alexnet2023_baseline_pgd,1,404,NaN,airplane,airplane,cr,0404_cl_dnn_cr_airplane_40_n02690373_12813.png,n02690373_12813.png,1.0,24.0171,4.9941826,13.451234
alexnet2023_baseline_pgd,1,405,NaN,airplane,airplane,bw,0405_cl_dnn_bw_airplane_40_n02690373_6406.png,n02690373_6406.png,1.0,16.330381,5.534122,7.634108
alexnet2023_baseline_pgd,1,406,NaN,chair,chair,cr,0406_cl_dnn_cr_chair_40_n03376595_8228.png,n03376595_8228.png,1.0,11.811056,5.1606903,4.702519
alexnet2023_baseline_pgd,1,407,NaN,clock,chair,bw,0407_cl_dnn_bw_chair_40_n04099969_6309.png,n04099969_6309.png,0.0,3.534239,4.122274,-0.41580346
alexnet2023_baseline_pgd,1,408,NaN,elephant,elephant,cr,0408_cl_dnn_cr_elephant_40_n02504013_19831.png,n02504013_19831.png,1.0,20.34918,6.735625,9.626238
alexnet2023_baseline_pgd,1,409,NaN,bottle,bottle,bw,0409_cl_dnn_bw_bottle_40_n03937543_5088.png,n03937543_5088.png,1.0,3.7114043,2.4431484,0.8967924
alexnet2023_baseline_pgd,1,410,NaN,elephant,elephant,cr,0410_cl_dnn_cr_elephant_40_n02504458_2190.png,n02504458_2190.png,1.0,14.519962,2.819565,8.273431
alexnet2023_baseline_pgd,1,411,NaN,car,car,bw,0411_cl_dnn_bw_car_40_n04285008_5997.png,n04285008_5997.png,1.0,14.844775,6.725731,5.741031
alexnet2023_baseline_pgd,1,412,NaN,knife,knife,cr,0412_cl_dnn_cr_knife_40_n03041632_94620.png,n03041632_94620.png,1.0,4.051283,2.5256114,1.0788127
alexnet2023_baseline_pgd,1,413,NaN,bicycle,bicycle,cr,0413_cl_dnn_cr_bicycle_40_n02835271_8125.png,n02835271_8125.png,1.0,18.255451,7.7308583,7.4420114
alexnet2023_baseline_pgd,1,414,NaN,oven,oven,cr,0414_cl_dnn_cr_oven_40_n04111531_4662.png,n04111531_4662.png,1.0,16.534052,6.874162,6.830573
alexnet2023_baseline_pgd,1,415,NaN,bicycle,dog,bw,0415_cl_dnn_bw_dog_40_n02110806_21755.png,n02110806_21755.png,0.0,4.465553,6.3283453,-1.3171933
alexnet2023_baseline_pgd,1,416,NaN,bottle,bottle,bw,0416_cl_dnn_bw_bottle_40_n02823428_3505.png,n02823428_3505.png,1.0,6.3648496,3.575362,1.9724656
alexnet2023_baseline_pgd,1,417,NaN,cat,cat,cr,0417_cl_dnn_cr_cat_40_n02123045_11472.png,n02123045_11472.png,1.0,10.376365,2.385738,5.6502266
alexnet2023_baseline_pgd,1,418,NaN,boat,boat,cr,0418_cl_dnn_cr_boat_40_n03662601_14818.png,n03662601_14818.png,1.0,13.623871,6.1679726,5.272116
alexnet2023_baseline_pgd,1,419,NaN,bicycle,bicycle,cr,0419_cl_dnn_cr_bicycle_40_n02835271_8322.png,n02835271_8322.png,1.0,12.102725,3.9877498,5.738154
alexnet2023_baseline_pgd,1,420,NaN,knife,knife,bw,0420_cl_dnn_bw_knife_40_n03041632_9580.png,n03041632_9580.png,1.0,8.102314,4.662852,2.4320672
alexnet2023_baseline_pgd,1,421,NaN,bicycle,dog,bw,0421_cl_dnn_bw_dog_40_n02088466_3052.png,n02088466_3052.png,0.0,3.1687827,3.262939,-0.06657854
alexnet2023_baseline_pgd,1,422,NaN,keyboard,keyboard,cr,0422_cl_dnn_cr_keyboard_40_n04505470_7161.png,n04505470_7161.png,1.0,14.768115,3.9549866,7.6460366
alexnet2023_baseline_pgd,1,423,NaN,keyboard,keyboard,cr,0423_cl_dnn_cr_keyboard_40_n04505470_2321.png,n04505470_2321.png,1.0,12.462387,6.8230143,3.987639
alexnet2023_baseline_pgd,1,424,NaN,knife,knife,cr,0424_cl_dnn_cr_knife_40_n03041632_6708.png,n03041632_6708.png,1.0,12.184685,9.796375,1.6887898
alexnet2023_baseline_pgd,1,425,NaN,keyboard,keyboard,bw,0425_cl_dnn_bw_keyboard_40_n04505470_4965.png,n04505470_4965.png,1.0,15.416317,5.901342,6.728103
alexnet2023_baseline_pgd,1,426,NaN,cat,cat,bw,0426_cl_dnn_bw_cat_40_n02123597_11981.png,n02123597_11981.png,1.0,10.564811,4.4869184,4.297719
alexnet2023_baseline_pgd,1,427,NaN,truck,truck,cr,0427_cl_dnn_cr_truck_40_n03417042_2778.png,n03417042_2778.png,1.0,9.711869,7.2374883,1.7496516
alexnet2023_baseline_pgd,1,428,NaN,car,car,cr,0428_cl_dnn_cr_car_40_n02814533_80049.png,n02814533_80049.png,1.0,15.407245,14.907789,0.35316834
alexnet2023_baseline_pgd,1,429,NaN,keyboard,keyboard,cr,0429_cl_dnn_cr_keyboard_40_n03085013_23561.png,n03085013_23561.png,1.0,2.689464,2.645809,0.030868858
alexnet2023_baseline_pgd,1,430,NaN,airplane,airplane,bw,0430_cl_dnn_bw_airplane_40_n02690373_1800.png,n02690373_1800.png,1.0,11.21399,7.8454766,2.3818989
alexnet2023_baseline_pgd,1,431,NaN,chair,chair,bw,0431_cl_dnn_bw_chair_40_n02791124_4306.png,n02791124_4306.png,1.0,4.210792,2.98061,0.8698702
alexnet2023_baseline_pgd,1,432,NaN,bicycle,knife,bw,0432_cl_dnn_bw_knife_40_n03041632_33424.png,n03041632_33424.png,0.0,3.2221487,3.842625,-0.43874297
alexnet2023_baseline_pgd,1,433,NaN,airplane,boat,cr,0433_cl_dnn_cr_boat_40_n04273569_111.png,n04273569_111.png,0.0,5.8615427,8.620765,-1.9510646
alexnet2023_baseline_pgd,1,434,NaN,bear,bear,bw,0434_cl_dnn_bw_bear_40_n02132136_4403.png,n02132136_4403.png,1.0,9.320026,8.297903,0.72275037
alexnet2023_baseline_pgd,1,435,NaN,elephant,bicycle,bw,0435_cl_dnn_bw_bicycle_40_n03792782_49707.png,n03792782_49707.png,0.0,6.4575796,7.9523344,-1.0569513
alexnet2023_baseline_pgd,1,436,NaN,bicycle,bicycle,cr,0436_cl_dnn_cr_bicycle_40_n02835271_3308.png,n02835271_3308.png,1.0,19.57382,5.4692173,9.97346
alexnet2023_baseline_pgd,1,437,NaN,clock,clock,bw,0437_cl_dnn_bw_clock_40_n04548280_3305.png,n04548280_3305.png,1.0,8.253067,5.067434,2.2525828
alexnet2023_baseline_pgd,1,438,NaN,boat,boat,bw,0438_cl_dnn_bw_boat_40_n03344393_7614.png,n03344393_7614.png,1.0,12.1599865,10.224893,1.3683181
alexnet2023_baseline_pgd,1,439,NaN,chair,bicycle,bw,0439_cl_dnn_bw_bicycle_40_n02835271_9434.png,n02835271_9434.png,0.0,2.8973463,3.4134603,-0.3649477
alexnet2023_baseline_pgd,1,440,NaN,bicycle,truck,bw,0440_cl_dnn_bw_truck_40_n03417042_3039.png,n03417042_3039.png,0.0,0.6301723,3.3881829,-1.9502081
alexnet2023_baseline_pgd,1,441,NaN,oven,oven,cr,0441_cl_dnn_cr_oven_40_n04111531_5519.png,n04111531_5519.png,1.0,18.669825,4.160824,10.259413
alexnet2023_baseline_pgd,1,442,NaN,bottle,bottle,cr,0442_cl_dnn_cr_bottle_40_n03983396_3702.png,n03983396_3702.png,1.0,4.6563296,3.704819,0.6728197
alexnet2023_baseline_pgd,1,443,NaN,clock,clock,cr,0443_cl_dnn_cr_clock_40_n04548280_2177.png,n04548280_2177.png,1.0,10.975169,7.0838103,2.7516062
alexnet2023_baseline_pgd,1,444,NaN,bottle,bottle,cr,0444_cl_dnn_cr_bottle_40_n03983396_4132.png,n03983396_4132.png,1.0,13.407661,3.7336342,6.8405704
alexnet2023_baseline_pgd,1,445,NaN,bicycle,bicycle,cr,0445_cl_dnn_cr_bicycle_40_n02835271_17509.png,n02835271_17509.png,1.0,18.895487,1.6923624,12.164447
alexnet2023_baseline_pgd,1,446,NaN,airplane,airplane,bw,0446_cl_dnn_bw_airplane_40_n02690373_3090.png,n02690373_3090.png,1.0,14.961623,2.9944417,8.462075
alexnet2023_baseline_pgd,1,447,NaN,chair,chair,cr,0447_cl_dnn_cr_chair_40_n03376595_1302.png,n03376595_1302.png,1.0,10.881717,1.4552702,6.6655045
alexnet2023_baseline_pgd,1,448,NaN,dog,dog,cr,0448_cl_dnn_cr_dog_40_n02107683_3640.png,n02107683_3640.png,1.0,8.100669,6.5062404,1.1274313
alexnet2023_baseline_pgd,1,449,NaN,car,car,cr,0449_cl_dnn_cr_car_40_n03100240_770.png,n03100240_770.png,1.0,21.888283,11.291111,7.4933324
alexnet2023_baseline_pgd,1,450,NaN,knife,knife,cr,0450_cl_dnn_cr_knife_40_n03041632_4305.png,n03041632_4305.png,1.0,5.591252,2.975245,1.8497962
alexnet2023_baseline_pgd,1,451,NaN,elephant,elephant,cr,0451_cl_dnn_cr_elephant_40_n02504013_4590.png,n02504013_4590.png,1.0,16.38175,3.9658232,8.7793865
alexnet2023_baseline_pgd,1,452,NaN,truck,truck,cr,0452_cl_dnn_cr_truck_40_n03417042_5752.png,n03417042_5752.png,1.0,5.7547607,3.8272846,1.3629315
alexnet2023_baseline_pgd,1,453,NaN,oven,oven,cr,0453_cl_dnn_cr_oven_40_n04111531_21931.png,n04111531_21931.png,1.0,11.868336,3.2680097,6.0813494
alexnet2023_baseline_pgd,1,454,NaN,elephant,elephant,bw,0454_cl_dnn_bw_elephant_40_n02504458_4711.png,n02504458_4711.png,1.0,11.864582,3.4043858,5.9822626
alexnet2023_baseline_pgd,1,455,NaN,clock,clock,bw,0455_cl_dnn_bw_clock_40_n02708093_8033.png,n02708093_8033.png,1.0,7.5927486,5.4697175,1.5012097
alexnet2023_baseline_pgd,1,456,NaN,bicycle,bicycle,bw,0456_cl_dnn_bw_bicycle_40_n03792782_41992.png,n03792782_41992.png,1.0,18.36481,1.6311786,11.832465
alexnet2023_baseline_pgd,1,457,NaN,keyboard,keyboard,cr,0457_cl_dnn_cr_keyboard_40_n03085013_5622.png,n03085013_5622.png,1.0,15.677872,3.368955,8.703719
alexnet2023_baseline_pgd,1,458,NaN,bird,bird,bw,0458_cl_dnn_bw_bird_40_n02009912_1919.png,n02009912_1919.png,1.0,4.81501,2.2137375,1.8393775
alexnet2023_baseline_pgd,1,459,NaN,bottle,bottle,cr,0459_cl_dnn_cr_bottle_40_n03937543_4202.png,n03937543_4202.png,1.0,8.54448,2.8367505,4.0359745
alexnet2023_baseline_pgd,1,460,NaN,bicycle,bicycle,bw,0460_cl_dnn_bw_bicycle_40_n02835271_4341.png,n02835271_4341.png,1.0,6.088181,2.7680607,2.3476796
alexnet2023_baseline_pgd,1,461,NaN,bear,bear,bw,0461_cl_dnn_bw_bear_40_n02132136_18543.png,n02132136_18543.png,1.0,7.752577,7.4686723,0.20075084
alexnet2023_baseline_pgd,1,462,NaN,cat,cat,bw,0462_cl_dnn_bw_cat_40_n02124075_14425.png,n02124075_14425.png,1.0,13.007205,2.1668677,7.6652765
alexnet2023_baseline_pgd,1,463,NaN,clock,clock,bw,0463_cl_dnn_bw_clock_40_n02708093_544.png,n02708093_544.png,1.0,5.7370896,2.997789,1.9369781
alexnet2023_baseline_pgd,1,464,NaN,bear,bear,cr,0464_cl_dnn_cr_bear_40_n02133161_7604.png,n02133161_7604.png,1.0,7.089716,6.822689,0.18881653
alexnet2023_baseline_pgd,1,465,NaN,car,car,bw,0465_cl_dnn_bw_car_40_n03100240_15407.png,n03100240_15407.png,1.0,13.017476,6.448002,4.64532
alexnet2023_baseline_pgd,1,466,NaN,bicycle,bicycle,bw,0466_cl_dnn_bw_bicycle_40_n02835271_12926.png,n02835271_12926.png,1.0,9.579825,4.303425,3.7309787
alexnet2023_baseline_pgd,1,467,NaN,knife,chair,cr,0467_cl_dnn_cr_chair_40_n03376595_2056.png,n03376595_2056.png,0.0,2.1588352,3.1204078,-0.67993456
alexnet2023_baseline_pgd,1,468,NaN,oven,oven,bw,0468_cl_dnn_bw_oven_40_n04111531_9762.png,n04111531_9762.png,1.0,9.571926,4.1033115,3.8668945
alexnet2023_baseline_pgd,1,469,NaN,bicycle,bicycle,bw,0469_cl_dnn_bw_bicycle_40_n03792782_25799.png,n03792782_25799.png,1.0,5.8339825,3.5434594,1.6196444
alexnet2023_baseline_pgd,1,470,NaN,oven,oven,cr,0470_cl_dnn_cr_oven_40_n04111531_3570.png,n04111531_3570.png,1.0,16.261652,3.546643,8.9908695
alexnet2023_baseline_pgd,1,471,NaN,car,car,cr,0471_cl_dnn_cr_car_40_n04285008_874.png,n04285008_874.png,1.0,15.768356,7.990797,5.499565
alexnet2023_baseline_pgd,1,472,NaN,boat,bottle,cr,0472_cl_dnn_cr_bottle_40_n04557648_364.png,n04557648_364.png,0.0,-0.18030152,2.4390752,-1.852179
alexnet2023_baseline_pgd,1,473,NaN,airplane,airplane,bw,0473_cl_dnn_bw_airplane_40_n02690373_8461.png,n02690373_8461.png,1.0,15.947638,3.2838123,8.954677
alexnet2023_baseline_pgd,1,474,NaN,boat,boat,cr,0474_cl_dnn_cr_boat_40_n04273569_1087.png,n04273569_1087.png,1.0,13.382845,4.9335537,5.974551
alexnet2023_baseline_pgd,1,475,NaN,chair,chair,cr,0475_cl_dnn_cr_chair_40_n03376595_1798.png,n03376595_1798.png,1.0,7.7037296,4.8556004,2.0139315
alexnet2023_baseline_pgd,1,476,NaN,oven,oven,cr,0476_cl_dnn_cr_oven_40_n04111531_5290.png,n04111531_5290.png,1.0,13.528775,3.299345,7.2332997
alexnet2023_baseline_pgd,1,477,NaN,cat,cat,bw,0477_cl_dnn_bw_cat_40_n02124075_12369.png,n02124075_12369.png,1.0,9.3859,2.9816225,4.5285077
alexnet2023_baseline_pgd,1,478,NaN,elephant,elephant,bw,0478_cl_dnn_bw_elephant_40_n02504458_3714.png,n02504458_3714.png,1.0,15.475737,4.049072,8.079872
alexnet2023_baseline_pgd,1,479,NaN,bicycle,bicycle,bw,0479_cl_dnn_bw_bicycle_40_n03792782_7388.png,n03792782_7388.png,1.0,4.700638,2.2199125,1.7541378
alexnet2023_baseline_pgd,1,480,NaN,truck,truck,cr,0480_cl_dnn_cr_truck_40_n03796401_18240.png,n03796401_18240.png,1.0,10.271779,7.049949,2.2781777
alexnet2023_baseline_pgd,1,481,NaN,airplane,airplane,cr,0481_cl_dnn_cr_airplane_40_n02690373_610.png,n02690373_610.png,1.0,21.314257,7.319121,9.896056
alexnet2023_baseline_pgd,1,482,NaN,airplane,airplane,bw,0482_cl_dnn_bw_airplane_40_n02690373_6046.png,n02690373_6046.png,1.0,23.438675,3.681459,13.970461
alexnet2023_baseline_pgd,1,483,NaN,bear,dog,cr,0483_cl_dnn_cr_dog_40_n02105505_4069.png,n02105505_4069.png,0.0,7.2325273,8.402083,-0.8270011
alexnet2023_baseline_pgd,1,484,NaN,clock,chair,bw,0484_cl_dnn_bw_chair_40_n04429376_1954.png,n04429376_1954.png,0.0,3.2518158,5.82324,-1.8182714
alexnet2023_baseline_pgd,1,485,NaN,oven,oven,bw,0485_cl_dnn_bw_oven_40_n04111531_7862.png,n04111531_7862.png,1.0,6.6014047,4.5920467,1.4208306
alexnet2023_baseline_pgd,1,486,NaN,oven,chair,cr,0486_cl_dnn_cr_chair_40_n02791124_7424.png,n02791124_7424.png,0.0,5.254198,6.4106016,-0.8177008
alexnet2023_baseline_pgd,1,487,NaN,elephant,dog,bw,0487_cl_dnn_bw_dog_40_n02088466_5521.png,n02088466_5521.png,0.0,3.5094063,7.262636,-2.6539342
alexnet2023_baseline_pgd,1,488,NaN,bear,bear,cr,0488_cl_dnn_cr_bear_40_n02133161_12868.png,n02133161_12868.png,1.0,6.3744955,5.7258654,0.45865077
alexnet2023_baseline_pgd,1,489,NaN,keyboard,keyboard,bw,0489_cl_dnn_bw_keyboard_40_n04505470_4107.png,n04505470_4107.png,1.0,8.40042,6.029845,1.6762496
alexnet2023_baseline_pgd,1,490,NaN,boat,boat,bw,0490_cl_dnn_bw_boat_40_n03662601_855.png,n03662601_855.png,1.0,12.639076,4.2809224,5.9101076
alexnet2023_baseline_pgd,1,491,NaN,bird,bird,cr,0491_cl_dnn_cr_bird_40_n02017213_7558.png,n02017213_7558.png,1.0,9.914343,2.2547474,5.416152
alexnet2023_baseline_pgd,1,492,NaN,airplane,bottle,bw,0492_cl_dnn_bw_bottle_40_n04557648_23801.png,n04557648_23801.png,0.0,1.950677,1.9695821,-0.013367885
alexnet2023_baseline_pgd,1,493,NaN,bird,bird,bw,0493_cl_dnn_bw_bird_40_n01601694_13054.png,n01601694_13054.png,1.0,12.3146515,1.6989446,7.5064387
alexnet2023_baseline_pgd,1,494,NaN,oven,oven,bw,0494_cl_dnn_bw_oven_40_n04111531_2207.png,n04111531_2207.png,1.0,11.62824,2.823483,6.225903
alexnet2023_baseline_pgd,1,495,NaN,bird,bird,bw,0495_cl_dnn_bw_bird_40_n02009912_9425.png,n02009912_9425.png,1.0,4.4010763,1.3030974,2.190602
alexnet2023_baseline_pgd,1,496,NaN,clock,clock,cr,0496_cl_dnn_cr_clock_40_n03196217_6193.png,n03196217_6193.png,1.0,7.5821767,3.5197463,2.8725722
alexnet2023_baseline_pgd,1,497,NaN,boat,boat,bw,0497_cl_dnn_bw_boat_40_n04273569_27625.png,n04273569_27625.png,1.0,14.258448,9.661807,3.2503157
alexnet2023_baseline_pgd,1,498,NaN,truck,truck,bw,0498_cl_dnn_bw_truck_40_n03417042_29855.png,n03417042_29855.png,1.0,6.35763,5.7462964,0.43227798
alexnet2023_baseline_pgd,1,499,NaN,bottle,bottle,cr,0499_cl_dnn_cr_bottle_40_n03983396_4212.png,n03983396_4212.png,1.0,12.053235,2.527107,6.7359896
alexnet2023_baseline_pgd,1,500,NaN,cat,cat,bw,0500_cl_dnn_bw_cat_40_n02123597_11613.png,n02123597_11613.png,1.0,9.478535,2.6635835,4.818898
alexnet2023_baseline_pgd,1,501,NaN,clock,clock,cr,0501_cl_dnn_cr_clock_40_n02708093_1559.png,n02708093_1559.png,1.0,7.005202,2.340626,3.2983532
alexnet2023_baseline_pgd,1,502,NaN,chair,chair,cr,0502_cl_dnn_cr_chair_40_n02791124_7031.png,n02791124_7031.png,1.0,7.054251,5.061069,1.4093927
alexnet2023_baseline_pgd,1,503,NaN,bottle,bottle,cr,0503_cl_dnn_cr_bottle_40_n04560804_1703.png,n04560804_1703.png,1.0,7.8711686,6.055104,1.2841518
alexnet2023_baseline_pgd,1,504,NaN,bottle,bottle,bw,0504_cl_dnn_bw_bottle_40_n04560804_15679.png,n04560804_15679.png,1.0,8.313455,2.1775405,4.3387465
alexnet2023_baseline_pgd,1,505,NaN,bottle,bottle,bw,0505_cl_dnn_bw_bottle_40_n03983396_1006.png,n03983396_1006.png,1.0,8.594274,3.635368,3.5064757
alexnet2023_baseline_pgd,1,506,NaN,knife,knife,bw,0506_cl_dnn_bw_knife_40_n03041632_100645.png,n03041632_100645.png,1.0,10.517863,2.0546057,5.984427
alexnet2023_baseline_pgd,1,507,NaN,car,car,cr,0507_cl_dnn_cr_car_40_n02814533_54845.png,n02814533_54845.png,1.0,16.92928,11.857199,3.5865026
alexnet2023_baseline_pgd,1,508,NaN,keyboard,keyboard,cr,0508_cl_dnn_cr_keyboard_40_n03085013_20078.png,n03085013_20078.png,1.0,9.055568,3.7648666,3.7410905
alexnet2023_baseline_pgd,1,509,NaN,chair,chair,cr,0509_cl_dnn_cr_chair_40_n04099969_4543.png,n04099969_4543.png,1.0,6.811407,6.078497,0.51824576
alexnet2023_baseline_pgd,1,510,NaN,bear,bear,cr,0510_cl_dnn_cr_bear_40_n02134418_1253.png,n02134418_1253.png,1.0,12.714995,5.3405695,5.2145066
alexnet2023_baseline_pgd,1,511,NaN,bicycle,bicycle,bw,0511_cl_dnn_bw_bicycle_40_n02835271_8137.png,n02835271_8137.png,1.0,8.317691,2.7852554,3.9120226
alexnet2023_baseline_pgd,1,512,NaN,keyboard,keyboard,bw,0512_cl_dnn_bw_keyboard_40_n04505470_7312.png,n04505470_7312.png,1.0,12.514261,7.293753,3.6914568
alexnet2023_baseline_pgd,1,513,NaN,elephant,elephant,cr,0513_cl_dnn_cr_elephant_40_n02504013_2460.png,n02504013_2460.png,1.0,18.963638,4.8874063,9.9534
alexnet2023_baseline_pgd,1,514,NaN,clock,clock,cr,0514_cl_dnn_cr_clock_40_n04548280_13469.png,n04548280_13469.png,1.0,5.826896,4.0871444,1.2301903
alexnet2023_baseline_pgd,1,515,NaN,car,chair,cr,0515_cl_dnn_cr_chair_40_n02791124_3161.png,n02791124_3161.png,0.0,5.2838273,6.938217,-1.1698303
alexnet2023_baseline_pgd,1,516,NaN,elephant,dog,cr,0516_cl_dnn_cr_dog_40_n02093647_1818.png,n02093647_1818.png,0.0,3.6068892,6.460573,-2.0178592
alexnet2023_baseline_pgd,1,517,NaN,oven,chair,cr,0517_cl_dnn_cr_chair_40_n02791124_4294.png,n02791124_4294.png,0.0,7.503619,8.309658,-0.5699555
alexnet2023_baseline_pgd,1,518,NaN,cat,cat,cr,0518_cl_dnn_cr_cat_40_n02124075_3533.png,n02124075_3533.png,1.0,14.150252,2.9339573,7.9311185
alexnet2023_baseline_pgd,1,519,NaN,boat,boat,cr,0519_cl_dnn_cr_boat_40_n03344393_2480.png,n03344393_2480.png,1.0,15.389415,6.415266,6.3456817
alexnet2023_baseline_pgd,1,520,NaN,car,car,bw,0520_cl_dnn_bw_car_40_n02814533_95054.png,n02814533_95054.png,1.0,11.418163,8.483886,2.0748475
alexnet2023_baseline_pgd,1,521,NaN,bottle,bottle,cr,0521_cl_dnn_cr_bottle_40_n03937543_1808.png,n03937543_1808.png,1.0,8.432746,3.417297,3.546458
alexnet2023_baseline_pgd,1,522,NaN,car,car,cr,0522_cl_dnn_cr_car_40_n02814533_72213.png,n02814533_72213.png,1.0,17.02881,11.321053,4.0359945
alexnet2023_baseline_pgd,1,523,NaN,clock,clock,cr,0523_cl_dnn_cr_clock_40_n03196217_1499.png,n03196217_1499.png,1.0,9.251149,6.5036736,1.9427587
alexnet2023_baseline_pgd,1,524,NaN,cat,cat,cr,0524_cl_dnn_cr_cat_40_n02123045_5300.png,n02123045_5300.png,1.0,12.262877,3.8130958,5.974898
alexnet2023_baseline_pgd,1,525,NaN,bird,bird,bw,0525_cl_dnn_bw_bird_40_n02006656_3185.png,n02006656_3185.png,1.0,3.1129262,2.5492098,0.3986077
alexnet2023_baseline_pgd,1,526,NaN,clock,clock,cr,0526_cl_dnn_cr_clock_40_n03196217_4541.png,n03196217_4541.png,1.0,5.9922943,5.684578,0.21758834
alexnet2023_baseline_pgd,1,527,NaN,cat,cat,cr,0527_cl_dnn_cr_cat_40_n02123159_2317.png,n02123159_2317.png,1.0,17.61247,0.9782637,11.76216
alexnet2023_baseline_pgd,1,528,NaN,bear,bear,cr,0528_cl_dnn_cr_bear_40_n02133161_1362.png,n02133161_1362.png,1.0,10.110328,8.363056,1.2355076
alexnet2023_baseline_pgd,1,529,NaN,clock,clock,bw,0529_cl_dnn_bw_clock_40_n04548280_1202.png,n04548280_1202.png,1.0,8.512971,3.8361108,3.3070393
alexnet2023_baseline_pgd,1,530,NaN,bear,dog,bw,0530_cl_dnn_bw_dog_40_n02095570_6717.png,n02095570_6717.png,0.0,5.2605114,5.749369,-0.34567463
alexnet2023_baseline_pgd,1,531,NaN,car,car,bw,0531_cl_dnn_bw_car_40_n03100240_15941.png,n03100240_15941.png,1.0,18.543442,14.076157,3.1588476
alexnet2023_baseline_pgd,1,532,NaN,bottle,chair,bw,0532_cl_dnn_bw_chair_40_n02791124_1443.png,n02791124_1443.png,0.0,3.9774542,4.2116075,-0.16557136
alexnet2023_baseline_pgd,1,533,NaN,bottle,bottle,cr,0533_cl_dnn_cr_bottle_40_n04557648_830.png,n04557648_830.png,1.0,14.599559,1.4835206,9.27444
alexnet2023_baseline_pgd,1,534,NaN,truck,truck,cr,0534_cl_dnn_cr_truck_40_n03417042_8298.png,n03417042_8298.png,1.0,20.421288,10.047203,7.3355856
alexnet2023_baseline_pgd,1,535,NaN,clock,clock,bw,0535_cl_dnn_bw_clock_40_n02708093_4569.png,n02708093_4569.png,1.0,11.276871,3.6385252,5.4011264
alexnet2023_baseline_pgd,1,536,NaN,knife,keyboard,cr,0536_cl_dnn_cr_keyboard_40_n03085013_7576.png,n03085013_7576.png,0.0,3.5051982,7.0121017,-2.4797552
alexnet2023_baseline_pgd,1,537,NaN,truck,truck,bw,0537_cl_dnn_bw_truck_40_n03417042_27093.png,n03417042_27093.png,1.0,13.547848,7.600097,4.2056947
alexnet2023_baseline_pgd,1,538,NaN,elephant,elephant,cr,0538_cl_dnn_cr_elephant_40_n02504013_13560.png,n02504013_13560.png,1.0,12.241215,4.9192905,5.1773825
alexnet2023_baseline_pgd,1,539,NaN,car,car,bw,0539_cl_dnn_bw_car_40_n04285008_12045.png,n04285008_12045.png,1.0,14.527829,7.461355,4.996752
alexnet2023_baseline_pgd,1,540,NaN,airplane,airplane,cr,0540_cl_dnn_cr_airplane_40_n02690373_5176.png,n02690373_5176.png,1.0,27.423225,9.029559,13.006286
alexnet2023_baseline_pgd,1,541,NaN,bicycle,bicycle,bw,0541_cl_dnn_bw_bicycle_40_n03792782_6194.png,n03792782_6194.png,1.0,9.465864,3.5838284,4.1592274
alexnet2023_baseline_pgd,1,542,NaN,oven,oven,cr,0542_cl_dnn_cr_oven_40_n04111531_15912.png,n04111531_15912.png,1.0,16.277424,2.5258467,9.723834
alexnet2023_baseline_pgd,1,543,NaN,oven,oven,cr,0543_cl_dnn_cr_oven_40_n04111531_2592.png,n04111531_2592.png,1.0,12.483698,4.714679,5.493526
alexnet2023_baseline_pgd,1,544,NaN,bird,bird,cr,0544_cl_dnn_cr_bird_40_n02011460_2435.png,n02011460_2435.png,1.0,4.3251195,2.6550179,1.1809403
alexnet2023_baseline_pgd,1,545,NaN,car,car,cr,0545_cl_dnn_cr_car_40_n02814533_33205.png,n02814533_33205.png,1.0,16.844923,11.356307,3.8810377
alexnet2023_baseline_pgd,1,546,NaN,oven,oven,bw,0546_cl_dnn_bw_oven_40_n04111531_14959.png,n04111531_14959.png,1.0,6.423303,5.3066344,0.789604
alexnet2023_baseline_pgd,1,547,NaN,clock,clock,cr,0547_cl_dnn_cr_clock_40_n04548280_6743.png,n04548280_6743.png,1.0,11.048816,3.2556236,5.510619
alexnet2023_baseline_pgd,1,548,NaN,bicycle,knife,bw,0548_cl_dnn_bw_knife_40_n03041632_15299.png,n03041632_15299.png,0.0,1.902216,3.8966026,-1.4102443
alexnet2023_baseline_pgd,1,549,NaN,clock,clock,bw,0549_cl_dnn_bw_clock_40_n03196217_127.png,n03196217_127.png,1.0,4.4182935,2.3514237,1.4614977
alexnet2023_baseline_pgd,1,550,NaN,boat,boat,bw,0550_cl_dnn_bw_boat_40_n04273569_12917.png,n04273569_12917.png,1.0,10.142021,7.0006604,2.2212775
alexnet2023_baseline_pgd,1,551,NaN,airplane,airplane,cr,0551_cl_dnn_cr_airplane_40_n02690373_9626.png,n02690373_9626.png,1.0,21.813011,8.518526,9.40062
alexnet2023_baseline_pgd,1,552,NaN,bear,bear,cr,0552_cl_dnn_cr_bear_40_n02134084_20500.png,n02134084_20500.png,1.0,11.822029,6.6481104,3.658513
alexnet2023_baseline_pgd,1,553,NaN,elephant,bear,bw,0553_cl_dnn_bw_bear_40_n02132136_6890.png,n02132136_6890.png,0.0,8.835456,10.976208,-1.5137402
alexnet2023_baseline_pgd,1,554,NaN,bottle,bottle,bw,0554_cl_dnn_bw_bottle_40_n02823428_3049.png,n02823428_3049.png,1.0,11.689019,4.214546,5.2852507
alexnet2023_baseline_pgd,1,555,NaN,keyboard,keyboard,cr,0555_cl_dnn_cr_keyboard_40_n03085013_22837.png,n03085013_22837.png,1.0,5.43807,5.241411,0.13905863
alexnet2023_baseline_pgd,1,556,NaN,keyboard,keyboard,bw,0556_cl_dnn_bw_keyboard_40_n03085013_3264.png,n03085013_3264.png,1.0,14.532426,2.368772,8.601003
alexnet2023_baseline_pgd,1,557,NaN,bear,bear,bw,0557_cl_dnn_bw_bear_40_n02134418_7795.png,n02134418_7795.png,1.0,10.737237,6.988854,2.6505072
alexnet2023_baseline_pgd,1,558,NaN,bicycle,boat,bw,0558_cl_dnn_bw_boat_40_n02951358_34163.png,n02951358_34163.png,0.0,1.513249,4.88167,-2.3818333
alexnet2023_baseline_pgd,1,559,NaN,elephant,bear,cr,0559_cl_dnn_cr_bear_40_n02132136_8637.png,n02132136_8637.png,0.0,9.066454,9.30699,-0.17008445
alexnet2023_baseline_pgd,1,560,NaN,truck,truck,cr,0560_cl_dnn_cr_truck_40_n03417042_4218.png,n03417042_4218.png,1.0,13.743761,7.6715713,4.293687
alexnet2023_baseline_pgd,1,561,NaN,clock,clock,bw,0561_cl_dnn_bw_clock_40_n04548280_4473.png,n04548280_4473.png,1.0,5.74996,4.8004317,0.67141783
alexnet2023_baseline_pgd,1,562,NaN,bear,bear,bw,0562_cl_dnn_bw_bear_40_n02132136_21799.png,n02132136_21799.png,1.0,8.242352,7.1064453,0.803207
alexnet2023_baseline_pgd,1,563,NaN,bird,bird,cr,0563_cl_dnn_cr_bird_40_n01531178_5780.png,n01531178_5780.png,1.0,4.514582,1.392215,2.207847
alexnet2023_baseline_pgd,1,564,NaN,truck,truck,cr,0564_cl_dnn_cr_truck_40_n03796401_27184.png,n03796401_27184.png,1.0,21.388145,15.09307,4.4512906
alexnet2023_baseline_pgd,1,565,NaN,knife,clock,bw,0565_cl_dnn_bw_clock_40_n03196217_5258.png,n03196217_5258.png,0.0,4.2663407,7.517621,-2.2990024
alexnet2023_baseline_pgd,1,566,NaN,airplane,bird,cr,0566_cl_dnn_cr_bird_40_n02002556_15337.png,n02002556_15337.png,0.0,7.7322993,7.820667,-0.062485233
alexnet2023_baseline_pgd,1,567,NaN,oven,bottle,cr,0567_cl_dnn_cr_bottle_40_n04560804_3683.png,n04560804_3683.png,0.0,2.8142428,5.399221,-1.8278556
alexnet2023_baseline_pgd,1,568,NaN,bicycle,bicycle,cr,0568_cl_dnn_cr_bicycle_40_n02835271_8511.png,n02835271_8511.png,1.0,13.129311,7.210623,4.1851444
alexnet2023_baseline_pgd,1,569,NaN,bear,bear,cr,0569_cl_dnn_cr_bear_40_n02134084_23974.png,n02134084_23974.png,1.0,7.935611,6.030922,1.3468184
alexnet2023_baseline_pgd,1,570,NaN,dog,dog,bw,0570_cl_dnn_bw_dog_40_n02091244_9271.png,n02091244_9271.png,1.0,5.4287434,3.759407,1.1803991
alexnet2023_baseline_pgd,1,571,NaN,bear,bear,cr,0571_cl_dnn_cr_bear_40_n02133161_6946.png,n02133161_6946.png,1.0,4.620417,2.5724108,1.4481592
alexnet2023_baseline_pgd,1,572,NaN,airplane,truck,bw,0572_cl_dnn_bw_truck_40_n04467665_10060.png,n04467665_10060.png,0.0,7.3720226,8.9713545,-1.1308985
alexnet2023_baseline_pgd,1,573,NaN,oven,oven,bw,0573_cl_dnn_bw_oven_40_n04111531_5328.png,n04111531_5328.png,1.0,12.62082,3.8387756,6.209843
alexnet2023_baseline_pgd,1,574,NaN,bird,bottle,cr,0574_cl_dnn_cr_bottle_40_n04560804_2005.png,n04560804_2005.png,0.0,2.1056247,6.613714,-3.1877007
alexnet2023_baseline_pgd,1,575,NaN,bear,bear,bw,0575_cl_dnn_bw_bear_40_n02134084_3695.png,n02134084_3695.png,1.0,2.879569,2.1270032,0.5321444
alexnet2023_baseline_pgd,1,576,NaN,cat,cat,bw,0576_cl_dnn_bw_cat_40_n02123597_2219.png,n02123597_2219.png,1.0,8.983016,1.8155725,5.0681477
alexnet2023_baseline_pgd,1,577,NaN,car,chair,bw,0577_cl_dnn_bw_chair_40_n02791124_6077.png,n02791124_6077.png,0.0,2.9581592,3.6123352,-0.46257228
alexnet2023_baseline_pgd,1,578,NaN,bottle,bottle,cr,0578_cl_dnn_cr_bottle_40_n04579145_7431.png,n04579145_7431.png,1.0,3.6683605,2.861723,0.5703789
alexnet2023_baseline_pgd,1,579,NaN,keyboard,keyboard,bw,0579_cl_dnn_bw_keyboard_40_n04505470_510.png,n04505470_510.png,1.0,9.662064,5.6503263,2.8367267
alexnet2023_baseline_pgd,1,580,NaN,oven,oven,cr,0580_cl_dnn_cr_oven_40_n04111531_4452.png,n04111531_4452.png,1.0,20.605719,5.000785,11.034354
alexnet2023_baseline_pgd,1,581,NaN,elephant,elephant,bw,0581_cl_dnn_bw_elephant_40_n02504013_237.png,n02504013_237.png,1.0,13.078974,1.919085,7.8912334
alexnet2023_baseline_pgd,1,582,NaN,elephant,elephant,cr,0582_cl_dnn_cr_elephant_40_n02504013_10351.png,n02504013_10351.png,1.0,14.222577,5.256917,6.3396792
alexnet2023_baseline_pgd,1,583,NaN,elephant,elephant,cr,0583_cl_dnn_cr_elephant_40_n02504458_1304.png,n02504458_1304.png,1.0,21.733276,6.7694077,10.581054
alexnet2023_baseline_pgd,1,584,NaN,cat,dog,bw,0584_cl_dnn_bw_dog_40_n02104365_9837.png,n02104365_9837.png,0.0,4.0252457,5.2641053,-0.87600607
alexnet2023_baseline_pgd,1,585,NaN,cat,cat,cr,0585_cl_dnn_cr_cat_40_n02123045_9661.png,n02123045_9661.png,1.0,12.107441,1.6518545,7.393216
alexnet2023_baseline_pgd,1,586,NaN,bottle,bottle,bw,0586_cl_dnn_bw_bottle_40_n02823428_5214.png,n02823428_5214.png,1.0,5.013074,3.6600943,0.9567011
alexnet2023_baseline_pgd,1,587,NaN,bird,bird,bw,0587_cl_dnn_bw_bird_40_n01828970_5448.png,n01828970_5448.png,1.0,9.097214,6.954793,1.5149202
alexnet2023_baseline_pgd,1,588,NaN,car,car,cr,0588_cl_dnn_cr_car_40_n02814533_83874.png,n02814533_83874.png,1.0,6.287291,3.5602822,1.9282864
alexnet2023_baseline_pgd,1,589,NaN,oven,oven,bw,0589_cl_dnn_bw_oven_40_n04111531_8036.png,n04111531_8036.png,1.0,9.486451,2.381196,5.024174
alexnet2023_baseline_pgd,1,590,NaN,oven,oven,cr,0590_cl_dnn_cr_oven_40_n04111531_7355.png,n04111531_7355.png,1.0,5.3783584,4.692192,0.48519284
alexnet2023_baseline_pgd,1,591,NaN,car,car,bw,0591_cl_dnn_bw_car_40_n04285008_13354.png,n04285008_13354.png,1.0,11.149422,8.694906,1.7356045
alexnet2023_baseline_pgd,1,592,NaN,clock,clock,cr,0592_cl_dnn_cr_clock_40_n02708093_8267.png,n02708093_8267.png,1.0,5.414989,3.5917723,1.2892089
alexnet2023_baseline_pgd,1,593,NaN,cat,cat,bw,0593_cl_dnn_bw_cat_40_n02124075_14242.png,n02124075_14242.png,1.0,13.431648,2.6163177,7.6475935
alexnet2023_baseline_pgd,1,594,NaN,knife,knife,cr,0594_cl_dnn_cr_knife_40_n03041632_4279.png,n03041632_4279.png,1.0,13.091829,4.574622,6.022575
alexnet2023_baseline_pgd,1,595,NaN,oven,oven,cr,0595_cl_dnn_cr_oven_40_n04111531_2296.png,n04111531_2296.png,1.0,11.364529,2.5368664,6.2421002
alexnet2023_baseline_pgd,1,596,NaN,boat,boat,cr,0596_cl_dnn_cr_boat_40_n03344393_5859.png,n03344393_5859.png,1.0,13.923414,5.3080335,6.091995
alexnet2023_baseline_pgd,1,597,NaN,car,car,cr,0597_cl_dnn_cr_car_40_n02814533_57176.png,n02814533_57176.png,1.0,14.889249,13.507038,0.9773706
alexnet2023_baseline_pgd,1,598,NaN,cat,cat,bw,0598_cl_dnn_bw_cat_40_n02123159_1769.png,n02123159_1769.png,1.0,8.203397,4.9221153,2.3202164
alexnet2023_baseline_pgd,1,599,NaN,clock,clock,cr,0599_cl_dnn_cr_clock_40_n02708093_4976.png,n02708093_4976.png,1.0,13.439113,6.034954,5.235531
alexnet2023_baseline_pgd,1,600,NaN,bicycle,truck,cr,0600_cl_dnn_cr_truck_40_n03796401_8864.png,n03796401_8864.png,0.0,5.0936413,5.309205,-0.15242662
alexnet2023_baseline_pgd,1,601,NaN,clock,clock,bw,0601_cl_dnn_bw_clock_40_n03196217_868.png,n03196217_868.png,1.0,12.466548,3.1144514,6.612931
alexnet2023_baseline_pgd,1,602,NaN,cat,keyboard,bw,0602_cl_dnn_bw_keyboard_40_n03085013_3910.png,n03085013_3910.png,0.0,0.29286402,4.1692805,-2.7410405
alexnet2023_baseline_pgd,1,603,NaN,bicycle,bicycle,cr,0603_cl_dnn_cr_bicycle_40_n03792782_5466.png,n03792782_5466.png,1.0,17.732624,2.2447624,10.951572
alexnet2023_baseline_pgd,1,604,NaN,bear,bear,bw,0604_cl_dnn_bw_bear_40_n02132136_23248.png,n02132136_23248.png,1.0,12.885786,7.727353,3.647563
alexnet2023_baseline_pgd,1,605,NaN,truck,truck,bw,0605_cl_dnn_bw_truck_40_n03417042_2794.png,n03417042_2794.png,1.0,14.086695,5.174093,6.302161
alexnet2023_baseline_pgd,1,606,NaN,chair,chair,bw,0606_cl_dnn_bw_chair_40_n02791124_7324.png,n02791124_7324.png,1.0,9.106084,4.4547753,3.288972
alexnet2023_baseline_pgd,1,607,NaN,bicycle,bicycle,bw,0607_cl_dnn_bw_bicycle_40_n02835271_6736.png,n02835271_6736.png,1.0,9.4085245,3.1765842,4.406647
alexnet2023_baseline_pgd,1,608,NaN,clock,clock,bw,0608_cl_dnn_bw_clock_40_n04548280_8990.png,n04548280_8990.png,1.0,18.440447,4.077968,10.155806
alexnet2023_baseline_pgd,1,609,NaN,airplane,airplane,bw,0609_cl_dnn_bw_airplane_40_n02690373_971.png,n02690373_971.png,1.0,8.833098,3.9872863,3.4265065
alexnet2023_baseline_pgd,1,610,NaN,bear,bear,bw,0610_cl_dnn_bw_bear_40_n02132136_23853.png,n02132136_23853.png,1.0,9.865573,9.273109,0.41893497
alexnet2023_baseline_pgd,1,611,NaN,clock,clock,cr,0611_cl_dnn_cr_clock_40_n03196217_3416.png,n03196217_3416.png,1.0,8.485529,7.0053964,1.0466118
alexnet2023_baseline_pgd,1,612,NaN,airplane,clock,bw,0612_cl_dnn_bw_clock_40_n04548280_4346.png,n04548280_4346.png,0.0,3.3514893,4.6436167,-0.91367203
alexnet2023_baseline_pgd,1,613,NaN,oven,oven,cr,0613_cl_dnn_cr_oven_40_n04111531_2342.png,n04111531_2342.png,1.0,16.28408,3.7223172,8.882508
alexnet2023_baseline_pgd,1,614,NaN,chair,chair,bw,0614_cl_dnn_bw_chair_40_n04099969_8509.png,n04099969_8509.png,1.0,8.739399,2.0194938,4.7516904
alexnet2023_baseline_pgd,1,615,NaN,bottle,bottle,bw,0615_cl_dnn_bw_bottle_40_n03937543_4340.png,n03937543_4340.png,1.0,5.9717402,4.0771737,1.3396609
alexnet2023_baseline_pgd,1,616,NaN,boat,clock,bw,0616_cl_dnn_bw_clock_40_n02708093_6655.png,n02708093_6655.png,0.0,0.81366056,3.9265144,-2.2011201
alexnet2023_baseline_pgd,1,617,NaN,cat,cat,cr,0617_cl_dnn_cr_cat_40_n02123159_1339.png,n02123159_1339.png,1.0,12.869092,3.2121897,6.828461
alexnet2023_baseline_pgd,1,618,NaN,knife,knife,bw,0618_cl_dnn_bw_knife_40_n03041632_30553.png,n03041632_30553.png,1.0,4.260662,1.1447325,2.203295
alexnet2023_baseline_pgd,1,619,NaN,bicycle,bicycle,cr,0619_cl_dnn_cr_bicycle_40_n03792782_18707.png,n03792782_18707.png,1.0,15.203493,2.0913296,9.2717
alexnet2023_baseline_pgd,1,620,NaN,elephant,elephant,bw,0620_cl_dnn_bw_elephant_40_n02504458_3648.png,n02504458_3648.png,1.0,18.675686,4.975293,9.687641
alexnet2023_baseline_pgd,1,621,NaN,elephant,elephant,cr,0621_cl_dnn_cr_elephant_40_n02504458_1179.png,n02504458_1179.png,1.0,28.293907,11.591353,11.810489
alexnet2023_baseline_pgd,1,622,NaN,clock,clock,bw,0622_cl_dnn_bw_clock_40_n02708093_391.png,n02708093_391.png,1.0,11.071551,4.994764,4.2969375
alexnet2023_baseline_pgd,1,623,NaN,bicycle,car,cr,0623_cl_dnn_cr_car_40_n04285008_3453.png,n04285008_3453.png,0.0,10.601399,12.667835,-1.4611908
alexnet2023_baseline_pgd,1,624,NaN,airplane,airplane,bw,0624_cl_dnn_bw_airplane_40_n02690373_2800.png,n02690373_2800.png,1.0,18.434416,5.035505,9.474461
alexnet2023_baseline_pgd,1,625,NaN,cat,cat,cr,0625_cl_dnn_cr_cat_40_n02123394_979.png,n02123394_979.png,1.0,9.9931345,2.269689,5.461301
alexnet2023_baseline_pgd,1,626,NaN,bear,dog,cr,0626_cl_dnn_cr_dog_40_n02105641_4701.png,n02105641_4701.png,0.0,6.221958,6.8932037,-0.4746423
alexnet2023_baseline_pgd,1,627,NaN,airplane,boat,cr,0627_cl_dnn_cr_boat_40_n04273569_13641.png,n04273569_13641.png,0.0,7.519777,10.7286415,-2.26901
alexnet2023_baseline_pgd,1,628,NaN,car,car,cr,0628_cl_dnn_cr_car_40_n02814533_74825.png,n02814533_74825.png,1.0,8.8671255,7.8332777,0.73104084
alexnet2023_baseline_pgd,1,629,NaN,airplane,airplane,cr,0629_cl_dnn_cr_airplane_40_n02690373_6812.png,n02690373_6812.png,1.0,22.772871,7.414093,10.860296
alexnet2023_baseline_pgd,1,630,NaN,car,car,bw,0630_cl_dnn_bw_car_40_n03100240_19223.png,n03100240_19223.png,1.0,20.186665,12.27569,5.593904
alexnet2023_baseline_pgd,1,631,NaN,bottle,bottle,bw,0631_cl_dnn_bw_bottle_40_n03983396_3817.png,n03983396_3817.png,1.0,9.1121235,4.824333,3.0319257
alexnet2023_baseline_pgd,1,632,NaN,elephant,elephant,bw,0632_cl_dnn_bw_elephant_40_n02504013_1432.png,n02504013_1432.png,1.0,16.485043,5.109764,8.043537
alexnet2023_baseline_pgd,1,633,NaN,boat,boat,cr,0633_cl_dnn_cr_boat_40_n03662601_35008.png,n03662601_35008.png,1.0,13.319632,8.914115,3.1151707
alexnet2023_baseline_pgd,1,634,NaN,oven,oven,bw,0634_cl_dnn_bw_oven_40_n04111531_14055.png,n04111531_14055.png,1.0,7.431088,2.602263,3.414495
alexnet2023_baseline_pgd,1,635,NaN,airplane,airplane,bw,0635_cl_dnn_bw_airplane_40_n02690373_9812.png,n02690373_9812.png,1.0,24.570187,12.37921,8.620322
alexnet2023_baseline_pgd,1,636,NaN,car,car,cr,0636_cl_dnn_cr_car_40_n04285008_6200.png,n04285008_6200.png,1.0,11.574119,11.341107,0.16476384
alexnet2023_baseline_pgd,1,637,NaN,clock,clock,cr,0637_cl_dnn_cr_clock_40_n04548280_5889.png,n04548280_5889.png,1.0,8.551815,3.2540512,3.7460847
alexnet2023_baseline_pgd,1,638,NaN,chair,chair,bw,0638_cl_dnn_bw_chair_40_n03376595_2924.png,n03376595_2924.png,1.0,3.6820931,2.8463042,0.59099203
alexnet2023_baseline_pgd,1,639,NaN,airplane,airplane,bw,0639_cl_dnn_bw_airplane_40_n02690373_693.png,n02690373_693.png,1.0,14.240709,7.657084,4.6553264
alexnet2023_baseline_pgd,1,640,NaN,bicycle,bicycle,bw,0640_cl_dnn_bw_bicycle_40_n03792782_1778.png,n03792782_1778.png,1.0,12.999802,3.5787601,6.6616826
alexnet2023_baseline_pgd,1,641,NaN,clock,clock,cr,0641_cl_dnn_cr_clock_40_n02708093_444.png,n02708093_444.png,1.0,12.02695,4.458977,5.351365
alexnet2023_baseline_pgd,1,642,NaN,clock,clock,cr,0642_cl_dnn_cr_clock_40_n02708093_3385.png,n02708093_3385.png,1.0,9.387573,2.9109204,4.579685
alexnet2023_baseline_pgd,1,643,NaN,clock,clock,cr,0643_cl_dnn_cr_clock_40_n03196217_970.png,n03196217_970.png,1.0,6.7425804,4.423809,1.639619
alexnet2023_baseline_pgd,1,644,NaN,clock,clock,bw,0644_cl_dnn_bw_clock_40_n04548280_4839.png,n04548280_4839.png,1.0,7.33181,6.352117,0.69274753
alexnet2023_baseline_pgd,1,645,NaN,truck,truck,bw,0645_cl_dnn_bw_truck_40_n03796401_1853.png,n03796401_1853.png,1.0,10.568527,6.8714676,2.614216
alexnet2023_baseline_pgd,1,646,NaN,bottle,bottle,bw,0646_cl_dnn_bw_bottle_40_n04591713_2680.png,n04591713_2680.png,1.0,5.178359,4.5109324,0.47194186
alexnet2023_baseline_pgd,1,647,NaN,clock,clock,bw,0647_cl_dnn_bw_clock_40_n02708093_3691.png,n02708093_3691.png,1.0,13.580359,5.7885017,5.5096755
alexnet2023_baseline_pgd,1,648,NaN,cat,cat,bw,0648_cl_dnn_bw_cat_40_n02123045_12762.png,n02123045_12762.png,1.0,15.795144,5.017499,7.620946
alexnet2023_baseline_pgd,1,649,NaN,cat,cat,cr,0649_cl_dnn_cr_cat_40_n02124075_17464.png,n02124075_17464.png,1.0,12.110545,5.1090536,4.9508023
alexnet2023_baseline_pgd,1,650,NaN,chair,chair,bw,0650_cl_dnn_bw_chair_40_n02791124_5690.png,n02791124_5690.png,1.0,9.042713,5.756945,2.3233888
alexnet2023_baseline_pgd,1,651,NaN,bird,bird,bw,0651_cl_dnn_bw_bird_40_n01592084_5361.png,n01592084_5361.png,1.0,7.785846,7.005239,0.5519727
alexnet2023_baseline_pgd,1,652,NaN,boat,truck,cr,0652_cl_dnn_cr_truck_40_n04467665_34228.png,n04467665_34228.png,0.0,4.1582336,4.534429,-0.26601034
alexnet2023_baseline_pgd,1,653,NaN,bear,bear,cr,0653_cl_dnn_cr_bear_40_n02133161_4282.png,n02133161_4282.png,1.0,11.040611,5.01725,4.2591596
alexnet2023_baseline_pgd,1,654,NaN,bear,cat,bw,0654_cl_dnn_bw_cat_40_n02125311_20219.png,n02125311_20219.png,0.0,9.874007,10.934746,-0.75005543
alexnet2023_baseline_pgd,1,655,NaN,bicycle,bicycle,cr,0655_cl_dnn_cr_bicycle_40_n02835271_8502.png,n02835271_8502.png,1.0,18.708096,6.3713164,8.72342
alexnet2023_baseline_pgd,1,656,NaN,dog,dog,bw,0656_cl_dnn_bw_dog_40_n02110958_5624.png,n02110958_5624.png,1.0,6.224125,4.6523414,1.1114188
alexnet2023_baseline_pgd,1,657,NaN,knife,knife,bw,0657_cl_dnn_bw_knife_40_n03041632_35365.png,n03041632_35365.png,1.0,10.1121435,4.3264813,4.091081
alexnet2023_baseline_pgd,1,658,NaN,bear,bear,bw,0658_cl_dnn_bw_bear_40_n02134418_399.png,n02134418_399.png,1.0,9.27024,6.542825,1.9285734
alexnet2023_baseline_pgd,1,659,NaN,bear,bear,cr,0659_cl_dnn_cr_bear_40_n02132136_4314.png,n02132136_4314.png,1.0,7.0272818,4.957619,1.4634725
alexnet2023_baseline_pgd,1,660,NaN,keyboard,keyboard,cr,0660_cl_dnn_cr_keyboard_40_n04505470_996.png,n04505470_996.png,1.0,8.270117,6.125655,1.5163634
alexnet2023_baseline_pgd,1,661,NaN,airplane,airplane,cr,0661_cl_dnn_cr_airplane_40_n02690373_3313.png,n02690373_3313.png,1.0,27.581923,11.965351,11.042583
alexnet2023_baseline_pgd,1,662,NaN,knife,knife,bw,0662_cl_dnn_bw_knife_40_n03041632_9302.png,n03041632_9302.png,1.0,4.4125266,3.1784396,0.8726313
alexnet2023_baseline_pgd,1,663,NaN,clock,clock,bw,0663_cl_dnn_bw_clock_40_n04548280_7211.png,n04548280_7211.png,1.0,16.794619,5.7132154,7.835736
alexnet2023_baseline_pgd,1,664,NaN,bird,bird,cr,0664_cl_dnn_cr_bird_40_n01829413_122.png,n01829413_122.png,1.0,7.44206,2.2444854,3.6752403
alexnet2023_baseline_pgd,1,665,NaN,keyboard,keyboard,cr,0665_cl_dnn_cr_keyboard_40_n03085013_24001.png,n03085013_24001.png,1.0,14.400654,2.8625872,8.158646
alexnet2023_baseline_pgd,1,666,NaN,keyboard,bottle,cr,0666_cl_dnn_cr_bottle_40_n03937543_3219.png,n03937543_3219.png,0.0,2.8219717,2.9098144,-0.06211417
alexnet2023_baseline_pgd,1,667,NaN,keyboard,keyboard,bw,0667_cl_dnn_bw_keyboard_40_n03085013_19916.png,n03085013_19916.png,1.0,10.228241,7.24176,2.111761
alexnet2023_baseline_pgd,1,668,NaN,cat,cat,cr,0668_cl_dnn_cr_cat_40_n02123159_6609.png,n02123159_6609.png,1.0,13.574159,2.668681,7.711337
alexnet2023_baseline_pgd,1,669,NaN,cat,cat,bw,0669_cl_dnn_bw_cat_40_n02125311_17543.png,n02125311_17543.png,1.0,8.356853,4.9580526,2.4033146
alexnet2023_baseline_pgd,1,670,NaN,bear,bear,bw,0670_cl_dnn_bw_bear_40_n02134418_1043.png,n02134418_1043.png,1.0,14.387671,12.952433,1.0148672
alexnet2023_baseline_pgd,1,671,NaN,chair,chair,bw,0671_cl_dnn_bw_chair_40_n04099969_43.png,n04099969_43.png,1.0,4.3239355,4.2289705,0.067150384
alexnet2023_baseline_pgd,1,672,NaN,airplane,airplane,bw,0672_cl_dnn_bw_airplane_40_n02690373_1912.png,n02690373_1912.png,1.0,8.787051,3.2001135,3.9505618
alexnet2023_baseline_pgd,1,673,NaN,bicycle,bicycle,cr,0673_cl_dnn_cr_bicycle_40_n02835271_1426.png,n02835271_1426.png,1.0,15.807373,6.250517,6.757718
alexnet2023_baseline_pgd,1,674,NaN,bicycle,bicycle,bw,0674_cl_dnn_bw_bicycle_40_n03792782_47426.png,n03792782_47426.png,1.0,16.176136,5.1343956,7.8076897
alexnet2023_baseline_pgd,1,675,NaN,truck,truck,cr,0675_cl_dnn_cr_truck_40_n03417042_27404.png,n03417042_27404.png,1.0,15.346188,8.587708,4.7789664
alexnet2023_baseline_pgd,1,676,NaN,clock,clock,cr,0676_cl_dnn_cr_clock_40_n04548280_4349.png,n04548280_4349.png,1.0,7.5965385,6.1917076,0.99336547
alexnet2023_baseline_pgd,1,677,NaN,oven,oven,bw,0677_cl_dnn_bw_oven_40_n04111531_8193.png,n04111531_8193.png,1.0,14.278413,9.243291,3.560369
alexnet2023_baseline_pgd,1,678,NaN,boat,boat,bw,0678_cl_dnn_bw_boat_40_n03344393_11855.png,n03344393_11855.png,1.0,12.240408,10.747906,1.0553584
alexnet2023_baseline_pgd,1,679,NaN,bottle,bottle,bw,0679_cl_dnn_bw_bottle_40_n02823428_6830.png,n02823428_6830.png,1.0,9.019043,6.597563,1.7122451
