subj,session,trial,rt,object_response,category,condition,imagename,filename,is_correct,targ_act,max_nontarg_act,decision_margin
alexnet_w3_mlp_simclrhn_probe0,1,1,NaN,oven,oven,cr,0001_cl_dnn_cr_oven_40_n04111531_14126.png,n04111531_14126.png,1.0,5.7129297,-0.46699882,4.3698697
alexnet_w3_mlp_simclrhn_probe0,1,2,NaN,bear,bear,cr,0002_cl_dnn_cr_bear_40_n02134084_5274.png,n02134084_5274.png,1.0,5.1750336,4.0195913,0.8170211
alexnet_w3_mlp_simclrhn_probe0,1,3,NaN,elephant,cat,cr,0003_cl_dnn_cr_cat_40_n02123394_133.png,n02123394_133.png,0.0,-1.1708412,-0.38823077,-0.55338913
alexnet_w3_mlp_simclrhn_probe0,1,4,NaN,car,car,cr,0004_cl_dnn_cr_car_40_n02814533_51190.png,n02814533_51190.png,1.0,8.951693,4.9679356,2.8169417
alexnet_w3_mlp_simclrhn_probe0,1,5,NaN,chair,chair,bw,0005_cl_dnn_bw_chair_40_n04099969_14986.png,n04099969_14986.png,1.0,0.924209,-2.432165,2.3733146
alexnet_w3_mlp_simclrhn_probe0,1,6,NaN,elephant,elephant,cr,0006_cl_dnn_cr_elephant_40_n02504013_6731.png,n02504013_6731.png,1.0,1.8991021,-1.1161128,2.132079
alexnet_w3_mlp_simclrhn_probe0,1,7,NaN,bottle,bottle,cr,0007_cl_dnn_cr_bottle_40_n02823428_987.png,n02823428_987.png,1.0,9.096388,2.5391092,4.6366963
alexnet_w3_mlp_simclrhn_probe0,1,8,NaN,oven,truck,cr,0008_cl_dnn_cr_truck_40_n03417042_7458.png,n03417042_7458.png,0.0,-1.330327,-0.933438,-0.28064293
alexnet_w3_mlp_simclrhn_probe0,1,9,NaN,chair,chair,bw,0009_cl_dnn_bw_chair_40_n04099969_4577.png,n04099969_4577.png,1.0,1.5071895,-0.7697018,1.6100053
alexnet_w3_mlp_simclrhn_probe0,1,10,NaN,bicycle,knife,cr,0010_cl_dnn_cr_knife_40_n03041632_83472.png,n03041632_83472.png,0.0,-2.4401262,-1.709861,-0.5163754
alexnet_w3_mlp_simclrhn_probe0,1,11,NaN,elephant,elephant,bw,0011_cl_dnn_bw_elephant_40_n02504458_3485.png,n02504458_3485.png,1.0,7.418004,-1.8029687,6.5202127
alexnet_w3_mlp_simclrhn_probe0,1,12,NaN,elephant,bear,bw,0012_cl_dnn_bw_bear_40_n02133161_1066.png,n02133161_1066.png,0.0,0.6210043,1.3688142,-0.5287815
alexnet_w3_mlp_simclrhn_probe0,1,13,NaN,elephant,elephant,bw,0013_cl_dnn_bw_elephant_40_n02504013_1060.png,n02504013_1060.png,1.0,1.7084885,-2.443089,2.9356086
alexnet_w3_mlp_simclrhn_probe0,1,14,NaN,bear,bear,bw,0014_cl_dnn_bw_bear_40_n02134084_1009.png,n02134084_1009.png,1.0,-1.4009216,-1.9330908,0.37630048
alexnet_w3_mlp_simclrhn_probe0,1,15,NaN,cat,cat,cr,0015_cl_dnn_cr_cat_40_n02125311_13383.png,n02125311_13383.png,1.0,2.3582888,-2.164957,3.198418
alexnet_w3_mlp_simclrhn_probe0,1,16,NaN,elephant,elephant,bw,0016_cl_dnn_bw_elephant_40_n02504013_257.png,n02504013_257.png,1.0,8.2212715,-4.6655865,9.112385
alexnet_w3_mlp_simclrhn_probe0,1,17,NaN,oven,cat,bw,0017_cl_dnn_bw_cat_40_n02123045_6445.png,n02123045_6445.png,0.0,-2.4370196,-0.90763086,-1.0814412
alexnet_w3_mlp_simclrhn_probe0,1,18,NaN,airplane,airplane,bw,0018_cl_dnn_bw_airplane_40_n02690373_3493.png,n02690373_3493.png,1.0,10.300763,-0.7374663,7.805207
alexnet_w3_mlp_simclrhn_probe0,1,19,NaN,airplane,airplane,bw,0019_cl_dnn_bw_airplane_40_n02690373_5184.png,n02690373_5184.png,1.0,4.599506,-0.97717094,3.943306
alexnet_w3_mlp_simclrhn_probe0,1,20,NaN,car,truck,bw,0020_cl_dnn_bw_truck_40_n04467665_22637.png,n04467665_22637.png,0.0,-1.1606302,-0.80298525,-0.25289318
alexnet_w3_mlp_simclrhn_probe0,1,21,NaN,cat,cat,cr,0021_cl_dnn_cr_cat_40_n02123159_10952.png,n02123159_10952.png,1.0,1.4837788,-2.8358722,3.0544546
alexnet_w3_mlp_simclrhn_probe0,1,22,NaN,airplane,airplane,bw,0022_cl_dnn_bw_airplane_40_n02690373_3620.png,n02690373_3620.png,1.0,6.5664535,1.7924992,3.3756955
alexnet_w3_mlp_simclrhn_probe0,1,23,NaN,bottle,bottle,cr,0023_cl_dnn_cr_bottle_40_n04557648_10744.png,n04557648_10744.png,1.0,-5.844648,-5.86277,0.012814328
alexnet_w3_mlp_simclrhn_probe0,1,24,NaN,oven,oven,bw,0024_cl_dnn_bw_oven_40_n04111531_12702.png,n04111531_12702.png,1.0,4.93986,-2.5480034,5.294719
alexnet_w3_mlp_simclrhn_probe0,1,25,NaN,elephant,bear,cr,0025_cl_dnn_cr_bear_40_n02133161_9949.png,n02133161_9949.png,0.0,-1.4662756,-0.76079756,-0.4988483
alexnet_w3_mlp_simclrhn_probe0,1,26,NaN,bottle,keyboard,cr,0026_cl_dnn_cr_keyboard_40_n03085013_3489.png,n03085013_3489.png,0.0,-4.5374904,-3.1633487,-0.9716649
alexnet_w3_mlp_simclrhn_probe0,1,27,NaN,elephant,elephant,bw,0027_cl_dnn_bw_elephant_40_n02504458_4633.png,n02504458_4633.png,1.0,3.3266292,-0.65339065,2.814299
alexnet_w3_mlp_simclrhn_probe0,1,28,NaN,clock,clock,cr,0028_cl_dnn_cr_clock_40_n04548280_7816.png,n04548280_7816.png,1.0,0.3383031,-1.5725714,1.3511924
alexnet_w3_mlp_simclrhn_probe0,1,29,NaN,dog,dog,bw,0029_cl_dnn_bw_dog_40_n02097474_1859.png,n02097474_1859.png,1.0,0.605231,0.34536085,0.18375595
alexnet_w3_mlp_simclrhn_probe0,1,30,NaN,cat,cat,bw,0030_cl_dnn_bw_cat_40_n02123394_916.png,n02123394_916.png,1.0,1.076428,-1.5415109,1.8511624
alexnet_w3_mlp_simclrhn_probe0,1,31,NaN,elephant,elephant,cr,0031_cl_dnn_cr_elephant_40_n02504458_3525.png,n02504458_3525.png,1.0,3.5685153,-4.9599376,6.030527
alexnet_w3_mlp_simclrhn_probe0,1,32,NaN,bear,bear,bw,0032_cl_dnn_bw_bear_40_n02134418_4456.png,n02134418_4456.png,1.0,0.5666578,-3.3776894,2.7890747
alexnet_w3_mlp_simclrhn_probe0,1,33,NaN,keyboard,keyboard,bw,0033_cl_dnn_bw_keyboard_40_n03085013_24045.png,n03085013_24045.png,1.0,3.0928047,0.08798985,2.124725
alexnet_w3_mlp_simclrhn_probe0,1,34,NaN,oven,knife,bw,0034_cl_dnn_bw_knife_40_n03041632_49363.png,n03041632_49363.png,0.0,-3.4793212,-0.18483502,-2.3295536
alexnet_w3_mlp_simclrhn_probe0,1,35,NaN,cat,cat,bw,0035_cl_dnn_bw_cat_40_n02123159_7854.png,n02123159_7854.png,1.0,0.58791465,-2.5596752,2.2256823
alexnet_w3_mlp_simclrhn_probe0,1,36,NaN,oven,knife,cr,0036_cl_dnn_cr_knife_40_n03041632_4708.png,n03041632_4708.png,0.0,-3.1932118,2.865818,-4.284381
alexnet_w3_mlp_simclrhn_probe0,1,37,NaN,chair,chair,cr,0037_cl_dnn_cr_chair_40_n04429376_7788.png,n04429376_7788.png,1.0,-0.90913725,-3.1447904,1.5808456
alexnet_w3_mlp_simclrhn_probe0,1,38,NaN,car,car,cr,0038_cl_dnn_cr_car_40_n03100240_9086.png,n03100240_9086.png,1.0,7.130732,3.2113764,2.771403
alexnet_w3_mlp_simclrhn_probe0,1,39,NaN,chair,chair,cr,0039_cl_dnn_cr_chair_40_n03376595_3038.png,n03376595_3038.png,1.0,-2.3355732,-3.0299776,0.49101806
alexnet_w3_mlp_simclrhn_probe0,1,40,NaN,truck,truck,bw,0040_cl_dnn_bw_truck_40_n03796401_1758.png,n03796401_1758.png,1.0,0.9517162,0.32065275,0.44622925
alexnet_w3_mlp_simclrhn_probe0,1,41,NaN,boat,boat,cr,0041_cl_dnn_cr_boat_40_n04273569_4324.png,n04273569_4324.png,1.0,3.3667893,-1.6941602,3.5786316
alexnet_w3_mlp_simclrhn_probe0,1,42,NaN,elephant,bear,cr,0042_cl_dnn_cr_bear_40_n02134084_1090.png,n02134084_1090.png,0.0,-1.5250455,-1.1460146,-0.26801535
alexnet_w3_mlp_simclrhn_probe0,1,43,NaN,bicycle,bicycle,bw,0043_cl_dnn_bw_bicycle_40_n03792782_13665.png,n03792782_13665.png,1.0,-0.39696908,-5.2717347,3.4469798
alexnet_w3_mlp_simclrhn_probe0,1,44,NaN,knife,knife,bw,0044_cl_dnn_bw_knife_40_n03041632_36215.png,n03041632_36215.png,1.0,1.1707486,-2.3073947,2.4594188
alexnet_w3_mlp_simclrhn_probe0,1,45,NaN,car,car,bw,0045_cl_dnn_bw_car_40_n04285008_7770.png,n04285008_7770.png,1.0,7.7173705,2.8746324,3.424333
alexnet_w3_mlp_simclrhn_probe0,1,46,NaN,bottle,bottle,cr,0046_cl_dnn_cr_bottle_40_n03983396_15260.png,n03983396_15260.png,1.0,2.4623191,-1.4502589,2.7666106
alexnet_w3_mlp_simclrhn_probe0,1,47,NaN,bear,dog,cr,0047_cl_dnn_cr_dog_40_n02091635_6519.png,n02091635_6519.png,0.0,-0.22831284,0.024312943,-0.17863339
alexnet_w3_mlp_simclrhn_probe0,1,48,NaN,elephant,elephant,cr,0048_cl_dnn_cr_elephant_40_n02504013_3485.png,n02504013_3485.png,1.0,7.0538144,-0.024345279,5.005015
alexnet_w3_mlp_simclrhn_probe0,1,49,NaN,oven,oven,cr,0049_cl_dnn_cr_oven_40_n04111531_807.png,n04111531_807.png,1.0,2.9814754,1.1583496,1.2891446
alexnet_w3_mlp_simclrhn_probe0,1,50,NaN,oven,oven,cr,0050_cl_dnn_cr_oven_40_n04111531_605.png,n04111531_605.png,1.0,3.1266534,-2.4722486,3.9590216
alexnet_w3_mlp_simclrhn_probe0,1,51,NaN,elephant,dog,bw,0051_cl_dnn_bw_dog_40_n02109047_2662.png,n02109047_2662.png,0.0,-4.649818,1.087775,-4.0570908
alexnet_w3_mlp_simclrhn_probe0,1,52,NaN,truck,truck,cr,0052_cl_dnn_cr_truck_40_n03417042_16038.png,n03417042_16038.png,1.0,-0.613407,-3.5475597,2.0747592
alexnet_w3_mlp_simclrhn_probe0,1,53,NaN,truck,truck,bw,0053_cl_dnn_bw_truck_40_n03796401_1710.png,n03796401_1710.png,1.0,2.2060592,-2.439336,3.2847905
alexnet_w3_mlp_simclrhn_probe0,1,54,NaN,cat,cat,cr,0054_cl_dnn_cr_cat_40_n02125311_20921.png,n02125311_20921.png,1.0,0.47287473,-4.207445,3.309486
alexnet_w3_mlp_simclrhn_probe0,1,55,NaN,bird,bear,cr,0055_cl_dnn_cr_bear_40_n02133161_575.png,n02133161_575.png,0.0,-6.9382133,-5.3797874,-1.1019735
alexnet_w3_mlp_simclrhn_probe0,1,56,NaN,knife,chair,bw,0056_cl_dnn_bw_chair_40_n04429376_21865.png,n04429376_21865.png,0.0,-4.3504553,-3.8136373,-0.37958768
alexnet_w3_mlp_simclrhn_probe0,1,57,NaN,bicycle,bird,bw,0057_cl_dnn_bw_bird_40_n01616318_26436.png,n01616318_26436.png,0.0,-3.201291,-2.096644,-0.7811035
alexnet_w3_mlp_simclrhn_probe0,1,58,NaN,oven,oven,cr,0058_cl_dnn_cr_oven_40_n04111531_9498.png,n04111531_9498.png,1.0,0.35392377,-4.5791936,3.4882407
alexnet_w3_mlp_simclrhn_probe0,1,59,NaN,bear,bear,bw,0059_cl_dnn_bw_bear_40_n02134418_397.png,n02134418_397.png,1.0,1.2390397,-1.471811,1.9168609
alexnet_w3_mlp_simclrhn_probe0,1,60,NaN,chair,chair,cr,0060_cl_dnn_cr_chair_40_n04099969_23961.png,n04099969_23961.png,1.0,-2.237958,-3.3724847,0.80223155
alexnet_w3_mlp_simclrhn_probe0,1,61,NaN,bird,dog,bw,0061_cl_dnn_bw_dog_40_n02093256_7181.png,n02093256_7181.png,0.0,-4.081719,-1.0631614,-2.1344426
alexnet_w3_mlp_simclrhn_probe0,1,62,NaN,bicycle,bicycle,cr,0062_cl_dnn_cr_bicycle_40_n02835271_26731.png,n02835271_26731.png,1.0,4.350729,-5.1856422,6.7432327
alexnet_w3_mlp_simclrhn_probe0,1,63,NaN,cat,cat,cr,0063_cl_dnn_cr_cat_40_n02125311_12557.png,n02125311_12557.png,1.0,-0.51567906,-2.1293514,1.1410387
alexnet_w3_mlp_simclrhn_probe0,1,64,NaN,knife,dog,cr,0064_cl_dnn_cr_dog_40_n02093647_2890.png,n02093647_2890.png,0.0,-4.40296,-2.646316,-1.2421347
alexnet_w3_mlp_simclrhn_probe0,1,65,NaN,keyboard,knife,cr,0065_cl_dnn_cr_knife_40_n03041632_14293.png,n03041632_14293.png,0.0,-3.1454668,-2.638803,-0.3582654
alexnet_w3_mlp_simclrhn_probe0,1,66,NaN,oven,oven,bw,0066_cl_dnn_bw_oven_40_n04111531_20359.png,n04111531_20359.png,1.0,3.3710492,-3.6061828,4.933648
alexnet_w3_mlp_simclrhn_probe0,1,67,NaN,truck,truck,bw,0067_cl_dnn_bw_truck_40_n04467665_12177.png,n04467665_12177.png,1.0,6.7061286,2.3848085,3.0556347
alexnet_w3_mlp_simclrhn_probe0,1,68,NaN,bicycle,bicycle,cr,0068_cl_dnn_cr_bicycle_40_n02835271_19400.png,n02835271_19400.png,1.0,1.961571,-2.8440604,3.398095
alexnet_w3_mlp_simclrhn_probe0,1,69,NaN,truck,truck,cr,0069_cl_dnn_cr_truck_40_n03417042_1263.png,n03417042_1263.png,1.0,1.4802622,-1.4738647,2.0888832
alexnet_w3_mlp_simclrhn_probe0,1,70,NaN,cat,cat,bw,0070_cl_dnn_bw_cat_40_n02123045_8336.png,n02123045_8336.png,1.0,2.681694,-2.5055585,3.6679416
alexnet_w3_mlp_simclrhn_probe0,1,71,NaN,bear,bear,bw,0071_cl_dnn_bw_bear_40_n02134418_5405.png,n02134418_5405.png,1.0,5.2677913,2.9309607,1.6523888
alexnet_w3_mlp_simclrhn_probe0,1,72,NaN,car,car,bw,0072_cl_dnn_bw_car_40_n04285008_2906.png,n04285008_2906.png,1.0,3.6395981,1.4524343,1.5465584
alexnet_w3_mlp_simclrhn_probe0,1,73,NaN,elephant,bird,cr,0073_cl_dnn_cr_bird_40_n01818515_10517.png,n01818515_10517.png,0.0,-5.954277,-0.93804955,-3.5470088
alexnet_w3_mlp_simclrhn_probe0,1,74,NaN,truck,truck,cr,0074_cl_dnn_cr_truck_40_n03796401_14203.png,n03796401_14203.png,1.0,1.7199961,-1.5544418,2.3153772
alexnet_w3_mlp_simclrhn_probe0,1,75,NaN,bird,bird,bw,0075_cl_dnn_bw_bird_40_n02009229_2503.png,n02009229_2503.png,1.0,-1.437351,-3.3460784,1.3496741
alexnet_w3_mlp_simclrhn_probe0,1,76,NaN,bottle,bottle,bw,0076_cl_dnn_bw_bottle_40_n02823428_6767.png,n02823428_6767.png,1.0,3.7587087,-2.6137173,4.5059857
alexnet_w3_mlp_simclrhn_probe0,1,77,NaN,bicycle,bicycle,bw,0077_cl_dnn_bw_bicycle_40_n02835271_12847.png,n02835271_12847.png,1.0,4.0273776,-4.482713,6.017543
alexnet_w3_mlp_simclrhn_probe0,1,78,NaN,bicycle,bicycle,cr,0078_cl_dnn_cr_bicycle_40_n02835271_24104.png,n02835271_24104.png,1.0,10.6032715,-2.6337059,9.359957
alexnet_w3_mlp_simclrhn_probe0,1,79,NaN,clock,clock,cr,0079_cl_dnn_cr_clock_40_n04548280_77.png,n04548280_77.png,1.0,5.71905,-0.022093335,4.0596013
alexnet_w3_mlp_simclrhn_probe0,1,80,NaN,cat,cat,bw,0080_cl_dnn_bw_cat_40_n02123394_6698.png,n02123394_6698.png,1.0,5.213734,-2.7107406,5.60345
alexnet_w3_mlp_simclrhn_probe0,1,81,NaN,keyboard,keyboard,cr,0081_cl_dnn_cr_keyboard_40_n04505470_4356.png,n04505470_4356.png,1.0,12.67205,-2.2081387,10.521883
alexnet_w3_mlp_simclrhn_probe0,1,82,NaN,chair,chair,cr,0082_cl_dnn_cr_chair_40_n04429376_16325.png,n04429376_16325.png,1.0,-1.9119034,-2.8660219,0.67466366
alexnet_w3_mlp_simclrhn_probe0,1,83,NaN,elephant,elephant,bw,0083_cl_dnn_bw_elephant_40_n02504458_6721.png,n02504458_6721.png,1.0,-1.6681584,-3.967081,1.6255838
alexnet_w3_mlp_simclrhn_probe0,1,84,NaN,truck,truck,cr,0084_cl_dnn_cr_truck_40_n03417042_6213.png,n03417042_6213.png,1.0,10.485649,3.9881413,4.594432
alexnet_w3_mlp_simclrhn_probe0,1,85,NaN,cat,dog,bw,0085_cl_dnn_bw_dog_40_n02097130_8277.png,n02097130_8277.png,0.0,-4.950879,-2.93291,-1.4269197
alexnet_w3_mlp_simclrhn_probe0,1,86,NaN,knife,bottle,cr,0086_cl_dnn_cr_bottle_40_n04557648_1856.png,n04557648_1856.png,0.0,-4.587098,-1.1951315,-2.3984826
alexnet_w3_mlp_simclrhn_probe0,1,87,NaN,bird,bird,bw,0087_cl_dnn_bw_bird_40_n01531178_10905.png,n01531178_10905.png,1.0,-3.1638317,-5.011241,1.3063157
alexnet_w3_mlp_simclrhn_probe0,1,88,NaN,elephant,bear,cr,0088_cl_dnn_cr_bear_40_n02133161_2202.png,n02133161_2202.png,0.0,-1.3376052,-0.7489375,-0.41625097
alexnet_w3_mlp_simclrhn_probe0,1,89,NaN,elephant,elephant,cr,0089_cl_dnn_cr_elephant_40_n02504458_10439.png,n02504458_10439.png,1.0,0.16816969,-4.1953015,3.08544
alexnet_w3_mlp_simclrhn_probe0,1,90,NaN,clock,clock,cr,0090_cl_dnn_cr_clock_40_n02708093_6766.png,n02708093_6766.png,1.0,-1.9636865,-3.5906334,1.1504252
alexnet_w3_mlp_simclrhn_probe0,1,91,NaN,oven,bottle,bw,0091_cl_dnn_bw_bottle_40_n03983396_2057.png,n03983396_2057.png,0.0,-3.1683948,-2.8592663,-0.21858688
alexnet_w3_mlp_simclrhn_probe0,1,92,NaN,keyboard,knife,bw,0092_cl_dnn_bw_knife_40_n03041632_10000.png,n03041632_10000.png,0.0,-0.087868154,0.53506726,-0.44048187
alexnet_w3_mlp_simclrhn_probe0,1,93,NaN,cat,cat,cr,0093_cl_dnn_cr_cat_40_n02125311_2959.png,n02125311_2959.png,1.0,3.3302243,-3.0587437,4.5176826
alexnet_w3_mlp_simclrhn_probe0,1,94,NaN,car,car,bw,0094_cl_dnn_bw_car_40_n04285008_13759.png,n04285008_13759.png,1.0,6.7049346,0.7067747,4.2413397
alexnet_w3_mlp_simclrhn_probe0,1,95,NaN,bicycle,bottle,cr,0095_cl_dnn_cr_bottle_40_n03937543_396.png,n03937543_396.png,0.0,-7.6324763,-3.121965,-3.1894133
alexnet_w3_mlp_simclrhn_probe0,1,96,NaN,boat,boat,bw,0096_cl_dnn_bw_boat_40_n03662601_3984.png,n03662601_3984.png,1.0,-1.1201527,-2.464431,0.95054835
alexnet_w3_mlp_simclrhn_probe0,1,97,NaN,truck,truck,bw,0097_cl_dnn_bw_truck_40_n04467665_2230.png,n04467665_2230.png,1.0,3.6081898,2.0347233,1.1126089
alexnet_w3_mlp_simclrhn_probe0,1,98,NaN,boat,boat,cr,0098_cl_dnn_cr_boat_40_n03662601_28640.png,n03662601_28640.png,1.0,4.8656297,-0.4191963,3.7369363
alexnet_w3_mlp_simclrhn_probe0,1,99,NaN,cat,cat,cr,0099_cl_dnn_cr_cat_40_n02124075_11039.png,n02124075_11039.png,1.0,-1.6703463,-5.401034,2.6379945
alexnet_w3_mlp_simclrhn_probe0,1,100,NaN,clock,knife,bw,0100_cl_dnn_bw_knife_40_n03041632_7380.png,n03041632_7380.png,0.0,-0.60831964,1.4677148,-1.4679781
alexnet_w3_mlp_simclrhn_probe0,1,101,NaN,cat,cat,cr,0101_cl_dnn_cr_cat_40_n02123045_6607.png,n02123045_6607.png,1.0,8.40154,-5.8967586,10.110423
alexnet_w3_mlp_simclrhn_probe0,1,102,NaN,chair,chair,cr,0102_cl_dnn_cr_chair_40_n03376595_6704.png,n03376595_6704.png,1.0,-0.6399232,-2.2277217,1.1227431
alexnet_w3_mlp_simclrhn_probe0,1,103,NaN,bear,bear,bw,0103_cl_dnn_bw_bear_40_n02133161_12187.png,n02133161_12187.png,1.0,5.2377872,0.5223762,3.3342993
alexnet_w3_mlp_simclrhn_probe0,1,104,NaN,cat,dog,cr,0104_cl_dnn_cr_dog_40_n02110958_2363.png,n02110958_2363.png,0.0,-4.1064653,-3.8108494,-0.20903201
alexnet_w3_mlp_simclrhn_probe0,1,105,NaN,airplane,airplane,cr,0105_cl_dnn_cr_airplane_40_n02690373_19438.png,n02690373_19438.png,1.0,7.0053697,-4.092888,7.847653
alexnet_w3_mlp_simclrhn_probe0,1,106,NaN,bird,bird,cr,0106_cl_dnn_cr_bird_40_n01855032_5511.png,n01855032_5511.png,1.0,-1.7077677,-2.8005185,0.7726915
alexnet_w3_mlp_simclrhn_probe0,1,107,NaN,boat,boat,bw,0107_cl_dnn_bw_boat_40_n04273569_9821.png,n04273569_9821.png,1.0,6.832338,-1.7658195,6.079816
alexnet_w3_mlp_simclrhn_probe0,1,108,NaN,bicycle,bear,bw,0108_cl_dnn_bw_bear_40_n02133161_13461.png,n02133161_13461.png,0.0,-3.9799604,-2.9839678,-0.70427316
alexnet_w3_mlp_simclrhn_probe0,1,109,NaN,knife,dog,cr,0109_cl_dnn_cr_dog_40_n02113023_8552.png,n02113023_8552.png,0.0,-4.3597064,-3.112118,-0.88217825
alexnet_w3_mlp_simclrhn_probe0,1,110,NaN,elephant,elephant,cr,0110_cl_dnn_cr_elephant_40_n02504458_1600.png,n02504458_1600.png,1.0,7.5039387,-1.436966,6.3221745
alexnet_w3_mlp_simclrhn_probe0,1,111,NaN,chair,chair,cr,0111_cl_dnn_cr_chair_40_n04099969_4205.png,n04099969_4205.png,1.0,3.357508,-4.578345,5.6114955
alexnet_w3_mlp_simclrhn_probe0,1,112,NaN,dog,dog,bw,0112_cl_dnn_bw_dog_40_n02105505_2121.png,n02105505_2121.png,1.0,-1.7966453,-6.2755446,3.1670601
alexnet_w3_mlp_simclrhn_probe0,1,113,NaN,chair,chair,cr,0113_cl_dnn_cr_chair_40_n02791124_4528.png,n02791124_4528.png,1.0,0.5383606,-0.982177,1.0751824
alexnet_w3_mlp_simclrhn_probe0,1,114,NaN,airplane,truck,bw,0114_cl_dnn_bw_truck_40_n03417042_5659.png,n03417042_5659.png,0.0,0.15807496,2.3420472,-1.5443017
alexnet_w3_mlp_simclrhn_probe0,1,115,NaN,elephant,elephant,cr,0115_cl_dnn_cr_elephant_40_n02504013_10330.png,n02504013_10330.png,1.0,9.769207,-4.3703127,9.998151
alexnet_w3_mlp_simclrhn_probe0,1,116,NaN,cat,cat,cr,0116_cl_dnn_cr_cat_40_n02123394_1594.png,n02123394_1594.png,1.0,1.329722,-2.5636723,2.7530458
alexnet_w3_mlp_simclrhn_probe0,1,117,NaN,boat,bear,bw,0117_cl_dnn_bw_bear_40_n02132136_10654.png,n02132136_10654.png,0.0,-2.3085032,-0.98572576,-0.9353449
alexnet_w3_mlp_simclrhn_probe0,1,118,NaN,bottle,bottle,bw,0118_cl_dnn_bw_bottle_40_n02823428_5265.png,n02823428_5265.png,1.0,1.1317159,-0.9473312,1.4701084
alexnet_w3_mlp_simclrhn_probe0,1,119,NaN,airplane,truck,cr,0119_cl_dnn_cr_truck_40_n04467665_3125.png,n04467665_3125.png,0.0,-1.7394564,0.8465604,-1.8285902
alexnet_w3_mlp_simclrhn_probe0,1,120,NaN,airplane,airplane,cr,0120_cl_dnn_cr_airplane_40_n02690373_60.png,n02690373_60.png,1.0,14.401819,2.7839327,8.215087
alexnet_w3_mlp_simclrhn_probe0,1,121,NaN,keyboard,keyboard,cr,0121_cl_dnn_cr_keyboard_40_n03085013_21645.png,n03085013_21645.png,1.0,-1.8546528,-3.6682107,1.2823792
alexnet_w3_mlp_simclrhn_probe0,1,122,NaN,car,car,bw,0122_cl_dnn_bw_car_40_n03100240_9471.png,n03100240_9471.png,1.0,-1.5147263,-1.7232103,0.1474205
alexnet_w3_mlp_simclrhn_probe0,1,123,NaN,boat,boat,cr,0123_cl_dnn_cr_boat_40_n03344393_9818.png,n03344393_9818.png,1.0,2.4922523,0.8865936,1.1353723
alexnet_w3_mlp_simclrhn_probe0,1,124,NaN,elephant,elephant,bw,0124_cl_dnn_bw_elephant_40_n02504458_5444.png,n02504458_5444.png,1.0,2.7941766,-3.5331492,4.474095
alexnet_w3_mlp_simclrhn_probe0,1,125,NaN,bottle,bottle,bw,0125_cl_dnn_bw_bottle_40_n04557648_26823.png,n04557648_26823.png,1.0,1.8326418,-5.612498,5.264509
alexnet_w3_mlp_simclrhn_probe0,1,126,NaN,elephant,bottle,cr,0126_cl_dnn_cr_bottle_40_n02823428_765.png,n02823428_765.png,0.0,-4.04885,-2.5468926,-1.0620443
alexnet_w3_mlp_simclrhn_probe0,1,127,NaN,cat,cat,bw,0127_cl_dnn_bw_cat_40_n02123045_1787.png,n02123045_1787.png,1.0,1.433112,-8.100904,6.741568
alexnet_w3_mlp_simclrhn_probe0,1,128,NaN,truck,car,bw,0128_cl_dnn_bw_car_40_n02814533_35863.png,n02814533_35863.png,0.0,3.4303086,3.9780052,-0.38728
alexnet_w3_mlp_simclrhn_probe0,1,129,NaN,car,boat,bw,0129_cl_dnn_bw_boat_40_n02951358_7944.png,n02951358_7944.png,0.0,-5.0554876,-4.965408,-0.06369603
alexnet_w3_mlp_simclrhn_probe0,1,130,NaN,cat,dog,bw,0130_cl_dnn_bw_dog_40_n02091467_3727.png,n02091467_3727.png,0.0,-0.7220822,1.1461248,-1.3210218
alexnet_w3_mlp_simclrhn_probe0,1,131,NaN,bicycle,bicycle,cr,0131_cl_dnn_cr_bicycle_40_n02835271_5886.png,n02835271_5886.png,1.0,-0.63523185,-3.882672,2.296287
alexnet_w3_mlp_simclrhn_probe0,1,132,NaN,truck,truck,bw,0132_cl_dnn_bw_truck_40_n04467665_18234.png,n04467665_18234.png,1.0,3.8184202,-1.286894,3.6100023
alexnet_w3_mlp_simclrhn_probe0,1,133,NaN,elephant,elephant,cr,0133_cl_dnn_cr_elephant_40_n02504013_4892.png,n02504013_4892.png,1.0,6.176427,-1.0534195,5.1122737
alexnet_w3_mlp_simclrhn_probe0,1,134,NaN,keyboard,keyboard,cr,0134_cl_dnn_cr_keyboard_40_n03085013_19618.png,n03085013_19618.png,1.0,8.109164,1.49161,4.6793175
alexnet_w3_mlp_simclrhn_probe0,1,135,NaN,clock,clock,cr,0135_cl_dnn_cr_clock_40_n03196217_3430.png,n03196217_3430.png,1.0,0.5680211,0.35024247,0.15399277
alexnet_w3_mlp_simclrhn_probe0,1,136,NaN,bicycle,bicycle,bw,0136_cl_dnn_bw_bicycle_40_n03792782_24591.png,n03792782_24591.png,1.0,9.076955,-4.315957,9.470219
alexnet_w3_mlp_simclrhn_probe0,1,137,NaN,bicycle,bird,cr,0137_cl_dnn_cr_bird_40_n02007558_2822.png,n02007558_2822.png,0.0,-8.138603,-4.695091,-2.434931
alexnet_w3_mlp_simclrhn_probe0,1,138,NaN,truck,truck,bw,0138_cl_dnn_bw_truck_40_n04467665_71126.png,n04467665_71126.png,1.0,6.4193554,2.2971098,2.914868
alexnet_w3_mlp_simclrhn_probe0,1,139,NaN,bicycle,bicycle,cr,0139_cl_dnn_cr_bicycle_40_n02835271_22263.png,n02835271_22263.png,1.0,8.794682,-0.25978154,6.4024725
alexnet_w3_mlp_simclrhn_probe0,1,140,NaN,car,car,bw,0140_cl_dnn_bw_car_40_n04285008_5548.png,n04285008_5548.png,1.0,4.320062,3.649372,0.4742495
alexnet_w3_mlp_simclrhn_probe0,1,141,NaN,oven,oven,bw,0141_cl_dnn_bw_oven_40_n04111531_13006.png,n04111531_13006.png,1.0,-0.1448307,-1.9166611,1.2528733
alexnet_w3_mlp_simclrhn_probe0,1,142,NaN,car,car,bw,0142_cl_dnn_bw_car_40_n04285008_11410.png,n04285008_11410.png,1.0,3.4116638,-2.5181432,4.1930065
alexnet_w3_mlp_simclrhn_probe0,1,143,NaN,oven,chair,bw,0143_cl_dnn_bw_chair_40_n04429376_2304.png,n04429376_2304.png,0.0,-1.4415785,3.4771006,-3.4780314
alexnet_w3_mlp_simclrhn_probe0,1,144,NaN,boat,boat,cr,0144_cl_dnn_cr_boat_40_n03662601_27165.png,n03662601_27165.png,1.0,5.5305667,1.9324894,2.544225
alexnet_w3_mlp_simclrhn_probe0,1,145,NaN,truck,truck,bw,0145_cl_dnn_bw_truck_40_n04467665_70308.png,n04467665_70308.png,1.0,0.2863454,-1.3261708,1.1402211
alexnet_w3_mlp_simclrhn_probe0,1,146,NaN,bicycle,bicycle,cr,0146_cl_dnn_cr_bicycle_40_n03792782_51414.png,n03792782_51414.png,1.0,0.5130186,-2.8883536,2.4051335
alexnet_w3_mlp_simclrhn_probe0,1,147,NaN,knife,knife,cr,0147_cl_dnn_cr_knife_40_n03041632_44738.png,n03041632_44738.png,1.0,2.7517426,-0.4813617,2.28615
alexnet_w3_mlp_simclrhn_probe0,1,148,NaN,elephant,elephant,bw,0148_cl_dnn_bw_elephant_40_n02504458_11363.png,n02504458_11363.png,1.0,4.2860723,-3.8840852,5.777174
alexnet_w3_mlp_simclrhn_probe0,1,149,NaN,truck,truck,cr,0149_cl_dnn_cr_truck_40_n04467665_4899.png,n04467665_4899.png,1.0,3.8237844,0.60068053,2.2790785
alexnet_w3_mlp_simclrhn_probe0,1,150,NaN,bear,bear,cr,0150_cl_dnn_cr_bear_40_n02134418_685.png,n02134418_685.png,1.0,-1.9811419,-3.928057,1.3766768
alexnet_w3_mlp_simclrhn_probe0,1,151,NaN,keyboard,keyboard,bw,0151_cl_dnn_bw_keyboard_40_n04505470_4363.png,n04505470_4363.png,1.0,4.2716093,-1.70846,4.2285476
alexnet_w3_mlp_simclrhn_probe0,1,152,NaN,oven,oven,bw,0152_cl_dnn_bw_oven_40_n04111531_12468.png,n04111531_12468.png,1.0,6.875571,-1.1144602,5.6498055
alexnet_w3_mlp_simclrhn_probe0,1,153,NaN,oven,bottle,cr,0153_cl_dnn_cr_bottle_40_n04591713_5559.png,n04591713_5559.png,0.0,-5.9806867,-4.4049406,-1.1142207
alexnet_w3_mlp_simclrhn_probe0,1,154,NaN,elephant,elephant,cr,0154_cl_dnn_cr_elephant_40_n02504013_3197.png,n02504013_3197.png,1.0,1.4386644,-1.7074994,2.224674
alexnet_w3_mlp_simclrhn_probe0,1,155,NaN,oven,bird,bw,0155_cl_dnn_bw_bird_40_n01817953_5039.png,n01817953_5039.png,0.0,-5.0493402,-2.1472454,-2.052091
alexnet_w3_mlp_simclrhn_probe0,1,156,NaN,bicycle,bicycle,cr,0156_cl_dnn_cr_bicycle_40_n03792782_3296.png,n03792782_3296.png,1.0,4.7991676,-1.5401313,4.4825616
alexnet_w3_mlp_simclrhn_probe0,1,157,NaN,dog,bird,cr,0157_cl_dnn_cr_bird_40_n01855672_5670.png,n01855672_5670.png,0.0,-7.8866963,-6.0105367,-1.3266453
alexnet_w3_mlp_simclrhn_probe0,1,158,NaN,oven,oven,cr,0158_cl_dnn_cr_oven_40_n04111531_2260.png,n04111531_2260.png,1.0,7.5238624,-2.9763083,7.424742
alexnet_w3_mlp_simclrhn_probe0,1,159,NaN,cat,cat,cr,0159_cl_dnn_cr_cat_40_n02123045_5932.png,n02123045_5932.png,1.0,-3.2689266,-3.6806474,0.29113054
alexnet_w3_mlp_simclrhn_probe0,1,160,NaN,dog,dog,cr,0160_cl_dnn_cr_dog_40_n02100583_1267.png,n02100583_1267.png,1.0,-6.419312,-6.8006396,0.26963934
alexnet_w3_mlp_simclrhn_probe0,1,161,NaN,dog,dog,bw,0161_cl_dnn_bw_dog_40_n02099601_8005.png,n02099601_8005.png,1.0,-0.4411969,-1.4649978,0.72393656
alexnet_w3_mlp_simclrhn_probe0,1,162,NaN,bicycle,boat,cr,0162_cl_dnn_cr_boat_40_n02951358_12080.png,n02951358_12080.png,0.0,-6.6019945,-3.5631866,-2.1487617
alexnet_w3_mlp_simclrhn_probe0,1,163,NaN,oven,oven,cr,0163_cl_dnn_cr_oven_40_n04111531_20028.png,n04111531_20028.png,1.0,3.7807648,-7.0165186,7.6348324
alexnet_w3_mlp_simclrhn_probe0,1,164,NaN,cat,cat,bw,0164_cl_dnn_bw_cat_40_n02123159_2107.png,n02123159_2107.png,1.0,1.7674977,-4.9878597,4.776759
alexnet_w3_mlp_simclrhn_probe0,1,165,NaN,bear,bear,cr,0165_cl_dnn_cr_bear_40_n02134418_1351.png,n02134418_1351.png,1.0,0.87361574,-1.3654547,1.5832618
alexnet_w3_mlp_simclrhn_probe0,1,166,NaN,oven,oven,cr,0166_cl_dnn_cr_oven_40_n04111531_6609.png,n04111531_6609.png,1.0,4.5133123,0.51492697,2.8272855
alexnet_w3_mlp_simclrhn_probe0,1,167,NaN,airplane,knife,bw,0167_cl_dnn_bw_knife_40_n03041632_21477.png,n03041632_21477.png,0.0,-0.3362037,2.087927,-1.7141194
alexnet_w3_mlp_simclrhn_probe0,1,168,NaN,cat,cat,cr,0168_cl_dnn_cr_cat_40_n02123394_238.png,n02123394_238.png,1.0,1.9798771,-0.6556074,1.863569
alexnet_w3_mlp_simclrhn_probe0,1,169,NaN,elephant,elephant,cr,0169_cl_dnn_cr_elephant_40_n02504013_3141.png,n02504013_3141.png,1.0,1.083083,-2.5346935,2.5581543
alexnet_w3_mlp_simclrhn_probe0,1,170,NaN,elephant,elephant,cr,0170_cl_dnn_cr_elephant_40_n02504013_5035.png,n02504013_5035.png,1.0,2.5538664,-6.5272903,6.4213476
alexnet_w3_mlp_simclrhn_probe0,1,171,NaN,dog,dog,cr,0171_cl_dnn_cr_dog_40_n02089867_2298.png,n02089867_2298.png,1.0,-0.31114644,-2.060766,1.2371678
alexnet_w3_mlp_simclrhn_probe0,1,172,NaN,chair,bear,bw,0172_cl_dnn_bw_bear_40_n02134418_2503.png,n02134418_2503.png,0.0,-3.6258693,-1.5817103,-1.4454386
alexnet_w3_mlp_simclrhn_probe0,1,173,NaN,keyboard,keyboard,cr,0173_cl_dnn_cr_keyboard_40_n04505470_4878.png,n04505470_4878.png,1.0,-0.79698,-5.3547935,3.222861
alexnet_w3_mlp_simclrhn_probe0,1,174,NaN,bottle,knife,bw,0174_cl_dnn_bw_knife_40_n03041632_22734.png,n03041632_22734.png,0.0,-6.0783134,-3.8136516,-1.6013577
alexnet_w3_mlp_simclrhn_probe0,1,175,NaN,bear,bear,cr,0175_cl_dnn_cr_bear_40_n02132136_8896.png,n02132136_8896.png,1.0,1.2312095,0.64095294,0.41737443
alexnet_w3_mlp_simclrhn_probe0,1,176,NaN,bicycle,boat,bw,0176_cl_dnn_bw_boat_40_n02951358_5952.png,n02951358_5952.png,0.0,-5.8252296,-1.6125085,-2.9788435
alexnet_w3_mlp_simclrhn_probe0,1,177,NaN,keyboard,chair,bw,0177_cl_dnn_bw_chair_40_n04099969_1775.png,n04099969_1775.png,0.0,-2.720345,-1.5068905,-0.8580419
alexnet_w3_mlp_simclrhn_probe0,1,178,NaN,airplane,airplane,bw,0178_cl_dnn_bw_airplane_40_n02690373_6524.png,n02690373_6524.png,1.0,3.542556,0.9260155,1.8501735
alexnet_w3_mlp_simclrhn_probe0,1,179,NaN,bird,bear,cr,0179_cl_dnn_cr_bear_40_n02133161_1916.png,n02133161_1916.png,0.0,-3.9261541,-1.4186538,-1.7730705
alexnet_w3_mlp_simclrhn_probe0,1,180,NaN,keyboard,knife,bw,0180_cl_dnn_bw_knife_40_n03041632_96714.png,n03041632_96714.png,0.0,-0.5739416,0.20454162,-0.55047077
alexnet_w3_mlp_simclrhn_probe0,1,181,NaN,truck,truck,bw,0181_cl_dnn_bw_truck_40_n03417042_13635.png,n03417042_13635.png,1.0,4.1036916,1.0375983,2.1680555
alexnet_w3_mlp_simclrhn_probe0,1,182,NaN,boat,boat,bw,0182_cl_dnn_bw_boat_40_n04612504_1748.png,n04612504_1748.png,1.0,0.7540647,-1.3197956,1.4664406
alexnet_w3_mlp_simclrhn_probe0,1,183,NaN,bird,bird,cr,0183_cl_dnn_cr_bird_40_n01592084_3341.png,n01592084_3341.png,1.0,0.77029717,-3.9489145,3.3369865
alexnet_w3_mlp_simclrhn_probe0,1,184,NaN,car,car,bw,0184_cl_dnn_bw_car_40_n02814533_12388.png,n02814533_12388.png,1.0,7.7514043,-0.17694652,5.6061907
alexnet_w3_mlp_simclrhn_probe0,1,185,NaN,bicycle,bicycle,cr,0185_cl_dnn_cr_bicycle_40_n03792782_5864.png,n03792782_5864.png,1.0,4.0516725,-3.373506,5.2503943
alexnet_w3_mlp_simclrhn_probe0,1,186,NaN,cat,bird,bw,0186_cl_dnn_bw_bird_40_n01514859_17156.png,n01514859_17156.png,0.0,-5.7843256,-2.1505973,-2.569434
alexnet_w3_mlp_simclrhn_probe0,1,187,NaN,car,car,cr,0187_cl_dnn_cr_car_40_n03100240_7737.png,n03100240_7737.png,1.0,4.896892,-1.46886,4.5012665
alexnet_w3_mlp_simclrhn_probe0,1,188,NaN,bottle,bottle,bw,0188_cl_dnn_bw_bottle_40_n04579145_1829.png,n04579145_1829.png,1.0,-3.0550065,-3.5536208,0.35257357
alexnet_w3_mlp_simclrhn_probe0,1,189,NaN,elephant,elephant,bw,0189_cl_dnn_bw_elephant_40_n02504013_22388.png,n02504013_22388.png,1.0,0.91983294,0.8121045,0.076175496
alexnet_w3_mlp_simclrhn_probe0,1,190,NaN,airplane,airplane,bw,0190_cl_dnn_bw_airplane_40_n02690373_7107.png,n02690373_7107.png,1.0,4.251348,-0.923979,3.6595087
alexnet_w3_mlp_simclrhn_probe0,1,191,NaN,car,car,bw,0191_cl_dnn_bw_car_40_n02814533_45594.png,n02814533_45594.png,1.0,9.156006,6.8197484,1.6519835
alexnet_w3_mlp_simclrhn_probe0,1,192,NaN,elephant,boat,cr,0192_cl_dnn_cr_boat_40_n04612504_18536.png,n04612504_18536.png,0.0,-0.5164127,1.9264746,-1.7273822
alexnet_w3_mlp_simclrhn_probe0,1,193,NaN,elephant,dog,cr,0193_cl_dnn_cr_dog_40_n02088466_6371.png,n02088466_6371.png,0.0,-3.66049,0.69613636,-3.0806003
alexnet_w3_mlp_simclrhn_probe0,1,194,NaN,oven,bear,bw,0194_cl_dnn_bw_bear_40_n02133161_1003.png,n02133161_1003.png,0.0,-3.8678558,-3.349968,-0.366202
alexnet_w3_mlp_simclrhn_probe0,1,195,NaN,knife,knife,bw,0195_cl_dnn_bw_knife_40_n03041632_29037.png,n03041632_29037.png,1.0,-1.8292644,-4.5394573,1.9163958
alexnet_w3_mlp_simclrhn_probe0,1,196,NaN,airplane,airplane,cr,0196_cl_dnn_cr_airplane_40_n02690373_4015.png,n02690373_4015.png,1.0,3.5196443,0.6423663,2.0345428
alexnet_w3_mlp_simclrhn_probe0,1,197,NaN,knife,knife,bw,0197_cl_dnn_bw_knife_40_n03041632_28009.png,n03041632_28009.png,1.0,-1.9206142,-4.1814504,1.5986526
alexnet_w3_mlp_simclrhn_probe0,1,198,NaN,bird,bird,bw,0198_cl_dnn_bw_bird_40_n01560419_5714.png,n01560419_5714.png,1.0,-1.166384,-5.5852084,3.1245806
alexnet_w3_mlp_simclrhn_probe0,1,199,NaN,bird,cat,cr,0199_cl_dnn_cr_cat_40_n02125311_6429.png,n02125311_6429.png,0.0,-3.197004,-2.6576633,-0.3813715
alexnet_w3_mlp_simclrhn_probe0,1,200,NaN,chair,chair,bw,0200_cl_dnn_bw_chair_40_n04099969_9847.png,n04099969_9847.png,1.0,0.6371399,-2.9666278,2.5482488
alexnet_w3_mlp_simclrhn_probe0,1,201,NaN,cat,cat,bw,0201_cl_dnn_bw_cat_40_n02123597_7142.png,n02123597_7142.png,1.0,0.6078549,-1.3290488,1.3695978
alexnet_w3_mlp_simclrhn_probe0,1,202,NaN,bicycle,bicycle,cr,0202_cl_dnn_cr_bicycle_40_n02835271_8982.png,n02835271_8982.png,1.0,-1.1054304,-2.1587296,0.744795
alexnet_w3_mlp_simclrhn_probe0,1,203,NaN,bird,bird,bw,0203_cl_dnn_bw_bird_40_n01592084_19555.png,n01592084_19555.png,1.0,1.9404545,1.1483134,0.56012833
alexnet_w3_mlp_simclrhn_probe0,1,204,NaN,knife,knife,cr,0204_cl_dnn_cr_knife_40_n03041632_8618.png,n03041632_8618.png,1.0,-4.0615683,-4.1337156,0.051015895
alexnet_w3_mlp_simclrhn_probe0,1,205,NaN,truck,boat,bw,0205_cl_dnn_bw_boat_40_n03344393_547.png,n03344393_547.png,0.0,0.89393675,2.418004,-1.0776783
alexnet_w3_mlp_simclrhn_probe0,1,206,NaN,bird,bird,bw,0206_cl_dnn_bw_bird_40_n01843383_5962.png,n01843383_5962.png,1.0,-4.9508367,-5.158083,0.14654528
alexnet_w3_mlp_simclrhn_probe0,1,207,NaN,keyboard,keyboard,cr,0207_cl_dnn_cr_keyboard_40_n04505470_213.png,n04505470_213.png,1.0,7.943761,-0.38879123,5.892004
alexnet_w3_mlp_simclrhn_probe0,1,208,NaN,elephant,elephant,cr,0208_cl_dnn_cr_elephant_40_n02504458_2607.png,n02504458_2607.png,1.0,3.2852964,-6.2699223,6.75656
alexnet_w3_mlp_simclrhn_probe0,1,209,NaN,bear,bear,bw,0209_cl_dnn_bw_bear_40_n02134418_4157.png,n02134418_4157.png,1.0,-0.33322185,-2.330093,1.412001
alexnet_w3_mlp_simclrhn_probe0,1,210,NaN,bottle,bottle,cr,0210_cl_dnn_cr_bottle_40_n03983396_11519.png,n03983396_11519.png,1.0,0.5740272,-3.9057755,3.1676989
alexnet_w3_mlp_simclrhn_probe0,1,211,NaN,cat,cat,cr,0211_cl_dnn_cr_cat_40_n02124075_1999.png,n02124075_1999.png,1.0,2.8155756,-4.380475,5.0883765
alexnet_w3_mlp_simclrhn_probe0,1,212,NaN,cat,cat,bw,0212_cl_dnn_bw_cat_40_n02124075_11252.png,n02124075_11252.png,1.0,-1.9644955,-4.3751397,1.7045828
alexnet_w3_mlp_simclrhn_probe0,1,213,NaN,airplane,airplane,bw,0213_cl_dnn_bw_airplane_40_n02690373_4195.png,n02690373_4195.png,1.0,4.2300625,1.1140115,2.2033808
alexnet_w3_mlp_simclrhn_probe0,1,214,NaN,airplane,airplane,cr,0214_cl_dnn_cr_airplane_40_n02690373_2629.png,n02690373_2629.png,1.0,3.3183432,-0.9765024,3.0369146
alexnet_w3_mlp_simclrhn_probe0,1,215,NaN,keyboard,keyboard,bw,0215_cl_dnn_bw_keyboard_40_n04505470_5060.png,n04505470_5060.png,1.0,5.444233,-2.0717957,5.314635
alexnet_w3_mlp_simclrhn_probe0,1,216,NaN,bear,bear,cr,0216_cl_dnn_cr_bear_40_n02132136_10060.png,n02132136_10060.png,1.0,-0.35268506,-1.6203513,0.8963754
alexnet_w3_mlp_simclrhn_probe0,1,217,NaN,airplane,airplane,bw,0217_cl_dnn_bw_airplane_40_n02690373_4150.png,n02690373_4150.png,1.0,9.040632,1.1966125,5.54656
alexnet_w3_mlp_simclrhn_probe0,1,218,NaN,dog,dog,cr,0218_cl_dnn_cr_dog_40_n02102040_7465.png,n02102040_7465.png,1.0,-2.8066313,-4.5369315,1.223507
alexnet_w3_mlp_simclrhn_probe0,1,219,NaN,bird,bird,bw,0219_cl_dnn_bw_bird_40_n02009229_12179.png,n02009229_12179.png,1.0,-0.15696047,-0.7300775,0.40525493
alexnet_w3_mlp_simclrhn_probe0,1,220,NaN,knife,knife,bw,0220_cl_dnn_bw_knife_40_n03041632_20413.png,n03041632_20413.png,1.0,1.0750934,-1.1939083,1.6044265
alexnet_w3_mlp_simclrhn_probe0,1,221,NaN,truck,truck,bw,0221_cl_dnn_bw_truck_40_n03796401_13490.png,n03796401_13490.png,1.0,1.4551231,-3.7050126,3.648767
alexnet_w3_mlp_simclrhn_probe0,1,222,NaN,oven,oven,cr,0222_cl_dnn_cr_oven_40_n04111531_584.png,n04111531_584.png,1.0,2.6850839,-0.13101318,1.9912814
alexnet_w3_mlp_simclrhn_probe0,1,223,NaN,airplane,airplane,bw,0223_cl_dnn_bw_airplane_40_n02690373_3899.png,n02690373_3899.png,1.0,3.9292927,0.21586789,2.6257877
alexnet_w3_mlp_simclrhn_probe0,1,224,NaN,bird,bird,cr,0224_cl_dnn_cr_bird_40_n02027492_8707.png,n02027492_8707.png,1.0,0.15469842,-2.896868,2.1577833
alexnet_w3_mlp_simclrhn_probe0,1,225,NaN,airplane,airplane,cr,0225_cl_dnn_cr_airplane_40_n02690373_2648.png,n02690373_2648.png,1.0,9.651549,1.6660053,5.6466327
alexnet_w3_mlp_simclrhn_probe0,1,226,NaN,cat,cat,bw,0226_cl_dnn_bw_cat_40_n02123394_6598.png,n02123394_6598.png,1.0,-0.43714082,-2.889298,1.7339369
alexnet_w3_mlp_simclrhn_probe0,1,227,NaN,bicycle,bicycle,bw,0227_cl_dnn_bw_bicycle_40_n02835271_17168.png,n02835271_17168.png,1.0,-0.058544636,-4.683698,3.2704775
alexnet_w3_mlp_simclrhn_probe0,1,228,NaN,truck,truck,bw,0228_cl_dnn_bw_truck_40_n03417042_29849.png,n03417042_29849.png,1.0,5.0583844,0.9265558,2.9216442
alexnet_w3_mlp_simclrhn_probe0,1,229,NaN,knife,knife,cr,0229_cl_dnn_cr_knife_40_n03041632_29125.png,n03041632_29125.png,1.0,-0.75240237,-2.1024728,0.954644
alexnet_w3_mlp_simclrhn_probe0,1,230,NaN,clock,clock,bw,0230_cl_dnn_bw_clock_40_n04548280_5456.png,n04548280_5456.png,1.0,0.9423549,-0.4046133,0.95245034
alexnet_w3_mlp_simclrhn_probe0,1,231,NaN,truck,truck,bw,0231_cl_dnn_bw_truck_40_n03796401_8099.png,n03796401_8099.png,1.0,-0.97962886,-2.931425,1.3801284
alexnet_w3_mlp_simclrhn_probe0,1,232,NaN,bear,bear,cr,0232_cl_dnn_cr_bear_40_n02132136_860.png,n02132136_860.png,1.0,0.34944475,-1.8573911,1.5604686
alexnet_w3_mlp_simclrhn_probe0,1,233,NaN,truck,truck,bw,0233_cl_dnn_bw_truck_40_n03796401_4423.png,n03796401_4423.png,1.0,4.160071,0.19954325,2.8005161
alexnet_w3_mlp_simclrhn_probe0,1,234,NaN,elephant,elephant,bw,0234_cl_dnn_bw_elephant_40_n02504458_7871.png,n02504458_7871.png,1.0,7.4875937,-1.4550278,6.323388
alexnet_w3_mlp_simclrhn_probe0,1,235,NaN,oven,oven,cr,0235_cl_dnn_cr_oven_40_n04111531_14753.png,n04111531_14753.png,1.0,1.2976096,-1.4760491,1.961273
alexnet_w3_mlp_simclrhn_probe0,1,236,NaN,clock,clock,bw,0236_cl_dnn_bw_clock_40_n04548280_17198.png,n04548280_17198.png,1.0,1.984367,-0.5843816,1.8163795
alexnet_w3_mlp_simclrhn_probe0,1,237,NaN,oven,oven,cr,0237_cl_dnn_cr_oven_40_n04111531_15947.png,n04111531_15947.png,1.0,6.3002124,-4.415821,7.57738
alexnet_w3_mlp_simclrhn_probe0,1,238,NaN,bear,elephant,bw,0238_cl_dnn_bw_elephant_40_n02504013_1103.png,n02504013_1103.png,0.0,-4.3804407,-2.396092,-1.4031465
alexnet_w3_mlp_simclrhn_probe0,1,239,NaN,bicycle,bicycle,cr,0239_cl_dnn_cr_bicycle_40_n03792782_33853.png,n03792782_33853.png,1.0,-0.67056704,-2.645017,1.3961469
alexnet_w3_mlp_simclrhn_probe0,1,240,NaN,oven,bottle,bw,0240_cl_dnn_bw_bottle_40_n04557648_5665.png,n04557648_5665.png,0.0,-1.1307645,0.474484,-1.1350821
alexnet_w3_mlp_simclrhn_probe0,1,241,NaN,bear,bear,bw,0241_cl_dnn_bw_bear_40_n02134418_5824.png,n02134418_5824.png,1.0,3.5372362,-1.7120047,3.7117739
alexnet_w3_mlp_simclrhn_probe0,1,242,NaN,truck,truck,cr,0242_cl_dnn_cr_truck_40_n04467665_54349.png,n04467665_54349.png,1.0,5.8885927,2.2229383,2.592009
alexnet_w3_mlp_simclrhn_probe0,1,243,NaN,truck,truck,cr,0243_cl_dnn_cr_truck_40_n03796401_8100.png,n03796401_8100.png,1.0,5.181567,1.1671404,2.8386283
alexnet_w3_mlp_simclrhn_probe0,1,244,NaN,elephant,elephant,cr,0244_cl_dnn_cr_elephant_40_n02504013_4288.png,n02504013_4288.png,1.0,7.547657,-1.5804145,6.4545217
alexnet_w3_mlp_simclrhn_probe0,1,245,NaN,boat,boat,cr,0245_cl_dnn_cr_boat_40_n03662601_4437.png,n03662601_4437.png,1.0,2.6881201,0.6495907,1.441458
alexnet_w3_mlp_simclrhn_probe0,1,246,NaN,bicycle,bicycle,cr,0246_cl_dnn_cr_bicycle_40_n02835271_7351.png,n02835271_7351.png,1.0,7.753727,-1.357543,6.442641
alexnet_w3_mlp_simclrhn_probe0,1,247,NaN,elephant,elephant,bw,0247_cl_dnn_bw_elephant_40_n02504458_2556.png,n02504458_2556.png,1.0,1.1595427,0.23414417,0.6543556
alexnet_w3_mlp_simclrhn_probe0,1,248,NaN,airplane,airplane,cr,0248_cl_dnn_cr_airplane_40_n02690373_303.png,n02690373_303.png,1.0,9.400887,-2.4793973,8.400629
alexnet_w3_mlp_simclrhn_probe0,1,249,NaN,elephant,elephant,bw,0249_cl_dnn_bw_elephant_40_n02504013_5503.png,n02504013_5503.png,1.0,3.5534272,-5.58573,6.4623604
alexnet_w3_mlp_simclrhn_probe0,1,250,NaN,airplane,truck,cr,0250_cl_dnn_cr_truck_40_n04467665_68332.png,n04467665_68332.png,0.0,0.118643224,4.30327,-2.958978
alexnet_w3_mlp_simclrhn_probe0,1,251,NaN,clock,clock,bw,0251_cl_dnn_bw_clock_40_n02708093_3079.png,n02708093_3079.png,1.0,1.3419737,-1.7941567,2.2175791
alexnet_w3_mlp_simclrhn_probe0,1,252,NaN,cat,cat,cr,0252_cl_dnn_cr_cat_40_n02123394_2395.png,n02123394_2395.png,1.0,1.6072918,-2.8231022,3.1327617
alexnet_w3_mlp_simclrhn_probe0,1,253,NaN,chair,chair,cr,0253_cl_dnn_cr_chair_40_n04429376_20906.png,n04429376_20906.png,1.0,0.71542394,0.037790656,0.4791591
alexnet_w3_mlp_simclrhn_probe0,1,254,NaN,boat,boat,cr,0254_cl_dnn_cr_boat_40_n03344393_8160.png,n03344393_8160.png,1.0,1.6623663,0.566633,0.7748004
alexnet_w3_mlp_simclrhn_probe0,1,255,NaN,keyboard,keyboard,cr,0255_cl_dnn_cr_keyboard_40_n03085013_21325.png,n03085013_21325.png,1.0,5.3841343,0.987614,3.1088092
alexnet_w3_mlp_simclrhn_probe0,1,256,NaN,knife,knife,cr,0256_cl_dnn_cr_knife_40_n03041632_99875.png,n03041632_99875.png,1.0,-3.8594255,-7.3744807,2.4855194
alexnet_w3_mlp_simclrhn_probe0,1,257,NaN,knife,clock,bw,0257_cl_dnn_bw_clock_40_n04548280_7384.png,n04548280_7384.png,0.0,-0.4908897,-0.12553242,-0.25834662
alexnet_w3_mlp_simclrhn_probe0,1,258,NaN,keyboard,keyboard,bw,0258_cl_dnn_bw_keyboard_40_n03085013_23534.png,n03085013_23534.png,1.0,4.6355987,0.23391788,3.1124585
alexnet_w3_mlp_simclrhn_probe0,1,259,NaN,truck,truck,bw,0259_cl_dnn_bw_truck_40_n03417042_2383.png,n03417042_2383.png,1.0,2.2049756,-0.26002255,1.743017
alexnet_w3_mlp_simclrhn_probe0,1,260,NaN,clock,clock,bw,0260_cl_dnn_bw_clock_40_n03196217_711.png,n03196217_711.png,1.0,-0.3621663,-0.6009357,0.16883548
alexnet_w3_mlp_simclrhn_probe0,1,261,NaN,keyboard,keyboard,bw,0261_cl_dnn_bw_keyboard_40_n03085013_7992.png,n03085013_7992.png,1.0,2.9183767,-0.9894935,2.7632816
alexnet_w3_mlp_simclrhn_probe0,1,262,NaN,cat,cat,bw,0262_cl_dnn_bw_cat_40_n02125311_75445.png,n02125311_75445.png,1.0,-0.13601255,-4.100338,2.8032014
alexnet_w3_mlp_simclrhn_probe0,1,263,NaN,knife,knife,cr,0263_cl_dnn_cr_knife_40_n03041632_47410.png,n03041632_47410.png,1.0,-0.17144643,-5.0153627,3.4251661
alexnet_w3_mlp_simclrhn_probe0,1,264,NaN,oven,oven,bw,0264_cl_dnn_bw_oven_40_n04111531_741.png,n04111531_741.png,1.0,5.7588696,-3.1550722,6.303109
alexnet_w3_mlp_simclrhn_probe0,1,265,NaN,oven,oven,bw,0265_cl_dnn_bw_oven_40_n04111531_3181.png,n04111531_3181.png,1.0,-4.499499,-5.1734433,0.47655073
alexnet_w3_mlp_simclrhn_probe0,1,266,NaN,truck,truck,bw,0266_cl_dnn_bw_truck_40_n03417042_17099.png,n03417042_17099.png,1.0,8.393431,3.16428,3.697568
alexnet_w3_mlp_simclrhn_probe0,1,267,NaN,boat,boat,cr,0267_cl_dnn_cr_boat_40_n03662601_15143.png,n03662601_15143.png,1.0,3.9283264,0.56083894,2.3811731
alexnet_w3_mlp_simclrhn_probe0,1,268,NaN,keyboard,keyboard,bw,0268_cl_dnn_bw_keyboard_40_n03085013_19197.png,n03085013_19197.png,1.0,10.77341,3.4719589,5.162905
alexnet_w3_mlp_simclrhn_probe0,1,269,NaN,airplane,airplane,cr,0269_cl_dnn_cr_airplane_40_n02690373_4202.png,n02690373_4202.png,1.0,7.5430174,-0.33941257,5.57372
alexnet_w3_mlp_simclrhn_probe0,1,270,NaN,bear,bear,bw,0270_cl_dnn_bw_bear_40_n02132136_10134.png,n02132136_10134.png,1.0,1.4703782,-1.4962611,2.0977309
alexnet_w3_mlp_simclrhn_probe0,1,271,NaN,boat,boat,bw,0271_cl_dnn_bw_boat_40_n03344393_5296.png,n03344393_5296.png,1.0,2.216381,0.2120722,1.4172604
alexnet_w3_mlp_simclrhn_probe0,1,272,NaN,clock,keyboard,bw,0272_cl_dnn_bw_keyboard_40_n04505470_1600.png,n04505470_1600.png,0.0,4.2322474,4.780581,-0.38773045
alexnet_w3_mlp_simclrhn_probe0,1,273,NaN,truck,truck,bw,0273_cl_dnn_bw_truck_40_n03417042_10043.png,n03417042_10043.png,1.0,4.6969624,0.29776922,3.1106994
alexnet_w3_mlp_simclrhn_probe0,1,274,NaN,bird,bird,bw,0274_cl_dnn_bw_bird_40_n02007558_5525.png,n02007558_5525.png,1.0,-2.1085665,-3.2377648,0.7984638
alexnet_w3_mlp_simclrhn_probe0,1,275,NaN,airplane,airplane,cr,0275_cl_dnn_cr_airplane_40_n02690373_6621.png,n02690373_6621.png,1.0,0.9025723,-2.2472456,2.2272577
alexnet_w3_mlp_simclrhn_probe0,1,276,NaN,keyboard,keyboard,bw,0276_cl_dnn_bw_keyboard_40_n04505470_6623.png,n04505470_6623.png,1.0,3.5952888,-1.3348694,3.4861484
alexnet_w3_mlp_simclrhn_probe0,1,277,NaN,elephant,dog,cr,0277_cl_dnn_cr_dog_40_n02113624_3403.png,n02113624_3403.png,0.0,-5.0822377,-2.8431263,-1.5832909
alexnet_w3_mlp_simclrhn_probe0,1,278,NaN,dog,dog,bw,0278_cl_dnn_bw_dog_40_n02106550_12642.png,n02106550_12642.png,1.0,-2.9174373,-4.813099,1.3404351
alexnet_w3_mlp_simclrhn_probe0,1,279,NaN,clock,clock,cr,0279_cl_dnn_cr_clock_40_n04548280_24041.png,n04548280_24041.png,1.0,4.910193,-0.9702706,4.158116
alexnet_w3_mlp_simclrhn_probe0,1,280,NaN,truck,truck,bw,0280_cl_dnn_bw_truck_40_n03417042_3236.png,n03417042_3236.png,1.0,1.11006,-1.7309672,2.0089097
alexnet_w3_mlp_simclrhn_probe0,1,281,NaN,car,car,bw,0281_cl_dnn_bw_car_40_n03100240_2583.png,n03100240_2583.png,1.0,7.3719068,5.9790335,0.9849102
alexnet_w3_mlp_simclrhn_probe0,1,282,NaN,knife,knife,cr,0282_cl_dnn_cr_knife_40_n03041632_45090.png,n03041632_45090.png,1.0,1.6774778,-2.4728942,2.9347563
alexnet_w3_mlp_simclrhn_probe0,1,283,NaN,cat,cat,cr,0283_cl_dnn_cr_cat_40_n02123597_660.png,n02123597_660.png,1.0,-1.5234603,-3.2988188,1.2553681
alexnet_w3_mlp_simclrhn_probe0,1,284,NaN,clock,clock,bw,0284_cl_dnn_bw_clock_40_n04548280_7813.png,n04548280_7813.png,1.0,0.78881574,0.56611896,0.1574704
alexnet_w3_mlp_simclrhn_probe0,1,285,NaN,dog,dog,bw,0285_cl_dnn_bw_dog_40_n02111129_797.png,n02111129_797.png,1.0,0.6920994,-1.7318748,1.7140087
alexnet_w3_mlp_simclrhn_probe0,1,286,NaN,knife,knife,cr,0286_cl_dnn_cr_knife_40_n03041632_3717.png,n03041632_3717.png,1.0,4.2268543,-1.1054813,3.7705307
alexnet_w3_mlp_simclrhn_probe0,1,287,NaN,boat,boat,bw,0287_cl_dnn_bw_boat_40_n04273569_870.png,n04273569_870.png,1.0,1.6801481,-0.36913294,1.4490606
alexnet_w3_mlp_simclrhn_probe0,1,288,NaN,elephant,elephant,bw,0288_cl_dnn_bw_elephant_40_n02504013_720.png,n02504013_720.png,1.0,10.059004,1.3679035,6.145536
alexnet_w3_mlp_simclrhn_probe0,1,289,NaN,oven,oven,cr,0289_cl_dnn_cr_oven_40_n04111531_14876.png,n04111531_14876.png,1.0,4.125251,-2.5694604,4.7338758
alexnet_w3_mlp_simclrhn_probe0,1,290,NaN,cat,cat,bw,0290_cl_dnn_bw_cat_40_n02123045_569.png,n02123045_569.png,1.0,-0.09344822,-2.6481946,1.8064785
alexnet_w3_mlp_simclrhn_probe0,1,291,NaN,clock,clock,bw,0291_cl_dnn_bw_clock_40_n03196217_5888.png,n03196217_5888.png,1.0,1.132113,0.543286,0.41636354
alexnet_w3_mlp_simclrhn_probe0,1,292,NaN,keyboard,keyboard,cr,0292_cl_dnn_cr_keyboard_40_n04505470_4770.png,n04505470_4770.png,1.0,9.788675,1.5929406,5.79526
alexnet_w3_mlp_simclrhn_probe0,1,293,NaN,knife,knife,cr,0293_cl_dnn_cr_knife_40_n03041632_32292.png,n03041632_32292.png,1.0,-2.5687716,-4.272111,1.2044429
alexnet_w3_mlp_simclrhn_probe0,1,294,NaN,elephant,elephant,cr,0294_cl_dnn_cr_elephant_40_n02504013_6672.png,n02504013_6672.png,1.0,-1.2044474,-3.9970944,1.9746996
alexnet_w3_mlp_simclrhn_probe0,1,295,NaN,airplane,airplane,bw,0295_cl_dnn_bw_airplane_40_n02690373_5838.png,n02690373_5838.png,1.0,7.2642136,-0.17403524,5.259636
alexnet_w3_mlp_simclrhn_probe0,1,296,NaN,bird,bird,cr,0296_cl_dnn_cr_bird_40_n01796340_5508.png,n01796340_5508.png,1.0,-3.9637017,-5.393632,1.0111134
alexnet_w3_mlp_simclrhn_probe0,1,297,NaN,keyboard,clock,bw,0297_cl_dnn_bw_clock_40_n03196217_6477.png,n03196217_6477.png,0.0,0.077717304,1.8738134,-1.2700317
alexnet_w3_mlp_simclrhn_probe0,1,298,NaN,bird,bird,bw,0298_cl_dnn_bw_bird_40_n02011460_5075.png,n02011460_5075.png,1.0,-3.0251107,-3.9447281,0.6502677
alexnet_w3_mlp_simclrhn_probe0,1,299,NaN,boat,boat,bw,0299_cl_dnn_bw_boat_40_n03344393_10284.png,n03344393_10284.png,1.0,1.1753775,0.011285499,0.82313734
alexnet_w3_mlp_simclrhn_probe0,1,300,NaN,oven,oven,bw,0300_cl_dnn_bw_oven_40_n04111531_14559.png,n04111531_14559.png,1.0,0.15261456,-1.832544,1.4037191
alexnet_w3_mlp_simclrhn_probe0,1,301,NaN,bottle,knife,cr,0301_cl_dnn_cr_knife_40_n03041632_24060.png,n03041632_24060.png,0.0,-3.538263,-3.2250597,-0.22146821
alexnet_w3_mlp_simclrhn_probe0,1,302,NaN,airplane,airplane,bw,0302_cl_dnn_bw_airplane_40_n02690373_4134.png,n02690373_4134.png,1.0,7.7554483,-0.32059732,5.710627
alexnet_w3_mlp_simclrhn_probe0,1,303,NaN,elephant,bear,cr,0303_cl_dnn_cr_bear_40_n02134084_6669.png,n02134084_6669.png,0.0,-1.5273421,-0.839826,-0.4861473
alexnet_w3_mlp_simclrhn_probe0,1,304,NaN,bird,bird,cr,0304_cl_dnn_cr_bird_40_n01558993_5744.png,n01558993_5744.png,1.0,-1.6176708,-6.2478104,3.274003
alexnet_w3_mlp_simclrhn_probe0,1,305,NaN,oven,bird,bw,0305_cl_dnn_bw_bird_40_n01818515_10536.png,n01818515_10536.png,0.0,-9.854948,-5.1385508,-3.3349965
alexnet_w3_mlp_simclrhn_probe0,1,306,NaN,bicycle,bottle,bw,0306_cl_dnn_bw_bottle_40_n04557648_20614.png,n04557648_20614.png,0.0,-5.562935,1.3826891,-4.911298
alexnet_w3_mlp_simclrhn_probe0,1,307,NaN,clock,clock,cr,0307_cl_dnn_cr_clock_40_n04548280_3605.png,n04548280_3605.png,1.0,3.962081,-0.4819529,3.1424065
alexnet_w3_mlp_simclrhn_probe0,1,308,NaN,truck,truck,bw,0308_cl_dnn_bw_truck_40_n03796401_27288.png,n03796401_27288.png,1.0,4.4902854,1.1578326,2.3564
alexnet_w3_mlp_simclrhn_probe0,1,309,NaN,bicycle,bicycle,cr,0309_cl_dnn_cr_bicycle_40_n02835271_18276.png,n02835271_18276.png,1.0,4.5019746,-0.05207629,3.2202003
alexnet_w3_mlp_simclrhn_probe0,1,310,NaN,bear,bear,cr,0310_cl_dnn_cr_bear_40_n02133161_12152.png,n02133161_12152.png,1.0,-1.8443677,-2.8692904,0.7247297
alexnet_w3_mlp_simclrhn_probe0,1,311,NaN,elephant,elephant,cr,0311_cl_dnn_cr_elephant_40_n02504013_14918.png,n02504013_14918.png,1.0,5.2064667,-1.924562,5.042399
alexnet_w3_mlp_simclrhn_probe0,1,312,NaN,bicycle,bicycle,bw,0312_cl_dnn_bw_bicycle_40_n03792782_5323.png,n03792782_5323.png,1.0,6.0876136,-6.167035,8.665345
alexnet_w3_mlp_simclrhn_probe0,1,313,NaN,truck,truck,cr,0313_cl_dnn_cr_truck_40_n04467665_37066.png,n04467665_37066.png,1.0,-2.275209,-2.5964212,0.2271314
alexnet_w3_mlp_simclrhn_probe0,1,314,NaN,bird,bird,bw,0314_cl_dnn_bw_bird_40_n02025239_2481.png,n02025239_2481.png,1.0,-1.3471287,-3.1549122,1.278296
alexnet_w3_mlp_simclrhn_probe0,1,315,NaN,bicycle,bicycle,bw,0315_cl_dnn_bw_bicycle_40_n02835271_5113.png,n02835271_5113.png,1.0,-0.42921913,-4.02375,2.541717
alexnet_w3_mlp_simclrhn_probe0,1,316,NaN,elephant,elephant,cr,0316_cl_dnn_cr_elephant_40_n02504458_6185.png,n02504458_6185.png,1.0,1.7751019,-2.8514178,3.2714436
alexnet_w3_mlp_simclrhn_probe0,1,317,NaN,clock,knife,cr,0317_cl_dnn_cr_knife_40_n03041632_11475.png,n03041632_11475.png,0.0,-3.612207,-1.2391226,-1.678024
alexnet_w3_mlp_simclrhn_probe0,1,318,NaN,cat,cat,bw,0318_cl_dnn_bw_cat_40_n02125311_31318.png,n02125311_31318.png,1.0,0.41263905,-4.4824133,3.461325
alexnet_w3_mlp_simclrhn_probe0,1,319,NaN,clock,clock,bw,0319_cl_dnn_bw_clock_40_n04548280_8585.png,n04548280_8585.png,1.0,0.3763999,-0.96355134,0.94748867
alexnet_w3_mlp_simclrhn_probe0,1,320,NaN,bear,bear,bw,0320_cl_dnn_bw_bear_40_n02134418_12628.png,n02134418_12628.png,1.0,1.9572294,-1.5377085,2.4712944
alexnet_w3_mlp_simclrhn_probe0,1,321,NaN,chair,chair,bw,0321_cl_dnn_bw_chair_40_n03376595_17859.png,n03376595_17859.png,1.0,0.5305149,-1.4398271,1.3932421
alexnet_w3_mlp_simclrhn_probe0,1,322,NaN,knife,knife,cr,0322_cl_dnn_cr_knife_40_n03041632_379.png,n03041632_379.png,1.0,-0.9774899,-3.1390476,1.5284522
alexnet_w3_mlp_simclrhn_probe0,1,323,NaN,oven,bottle,bw,0323_cl_dnn_bw_bottle_40_n04557648_1293.png,n04557648_1293.png,0.0,-3.3939054,-3.189383,-0.14461915
alexnet_w3_mlp_simclrhn_probe0,1,324,NaN,boat,boat,cr,0324_cl_dnn_cr_boat_40_n03662601_26298.png,n03662601_26298.png,1.0,9.134227,2.2772503,4.8486147
alexnet_w3_mlp_simclrhn_probe0,1,325,NaN,oven,oven,bw,0325_cl_dnn_bw_oven_40_n04111531_6120.png,n04111531_6120.png,1.0,3.0689335,-5.04631,5.738344
alexnet_w3_mlp_simclrhn_probe0,1,326,NaN,car,car,bw,0326_cl_dnn_bw_car_40_n02814533_92940.png,n02814533_92940.png,1.0,6.0064187,0.23972893,4.0776653
alexnet_w3_mlp_simclrhn_probe0,1,327,NaN,chair,chair,cr,0327_cl_dnn_cr_chair_40_n02791124_392.png,n02791124_392.png,1.0,-0.6368364,-1.7620777,0.79566574
alexnet_w3_mlp_simclrhn_probe0,1,328,NaN,clock,clock,bw,0328_cl_dnn_bw_clock_40_n04548280_3330.png,n04548280_3330.png,1.0,1.4336697,-1.0294311,1.7416754
alexnet_w3_mlp_simclrhn_probe0,1,329,NaN,truck,car,cr,0329_cl_dnn_cr_car_40_n02814533_83614.png,n02814533_83614.png,0.0,5.009625,7.0595083,-1.4494865
alexnet_w3_mlp_simclrhn_probe0,1,330,NaN,bear,bear,cr,0330_cl_dnn_cr_bear_40_n02134418_3846.png,n02134418_3846.png,1.0,4.2998915,2.2271845,1.4656252
alexnet_w3_mlp_simclrhn_probe0,1,331,NaN,elephant,elephant,cr,0331_cl_dnn_cr_elephant_40_n02504013_811.png,n02504013_811.png,1.0,-1.5100001,-1.9431213,0.30626294
alexnet_w3_mlp_simclrhn_probe0,1,332,NaN,airplane,airplane,bw,0332_cl_dnn_bw_airplane_40_n02690373_1442.png,n02690373_1442.png,1.0,4.6628895,-1.9272962,4.659965
alexnet_w3_mlp_simclrhn_probe0,1,333,NaN,chair,chair,cr,0333_cl_dnn_cr_chair_40_n03376595_6691.png,n03376595_6691.png,1.0,-0.9610041,-2.099698,0.8051783
alexnet_w3_mlp_simclrhn_probe0,1,334,NaN,bear,bird,bw,0334_cl_dnn_bw_bird_40_n01616318_1071.png,n01616318_1071.png,0.0,-6.993012,-2.3979673,-3.2491872
alexnet_w3_mlp_simclrhn_probe0,1,335,NaN,boat,boat,cr,0335_cl_dnn_cr_boat_40_n03662601_8333.png,n03662601_8333.png,1.0,0.03824873,-0.93047464,0.6849909
alexnet_w3_mlp_simclrhn_probe0,1,336,NaN,truck,truck,cr,0336_cl_dnn_cr_truck_40_n03796401_9384.png,n03796401_9384.png,1.0,1.9211514,-0.011795223,1.3667997
alexnet_w3_mlp_simclrhn_probe0,1,337,NaN,bottle,bottle,cr,0337_cl_dnn_cr_bottle_40_n04560804_19001.png,n04560804_19001.png,1.0,1.4861887,-0.46184754,1.3774697
alexnet_w3_mlp_simclrhn_probe0,1,338,NaN,cat,cat,cr,0338_cl_dnn_cr_cat_40_n02123045_7646.png,n02123045_7646.png,1.0,-3.5682898,-4.0836425,0.36440942
alexnet_w3_mlp_simclrhn_probe0,1,339,NaN,elephant,elephant,cr,0339_cl_dnn_cr_elephant_40_n02504013_3599.png,n02504013_3599.png,1.0,8.688667,2.8508854,4.1279354
alexnet_w3_mlp_simclrhn_probe0,1,340,NaN,bottle,clock,cr,0340_cl_dnn_cr_clock_40_n03196217_1109.png,n03196217_1109.png,0.0,-2.1976626,-2.094262,-0.07311534
alexnet_w3_mlp_simclrhn_probe0,1,341,NaN,truck,boat,bw,0341_cl_dnn_bw_boat_40_n03344393_5322.png,n03344393_5322.png,0.0,-0.37198037,1.023737,-0.98692125
alexnet_w3_mlp_simclrhn_probe0,1,342,NaN,elephant,dog,cr,0342_cl_dnn_cr_dog_40_n02090622_11748.png,n02090622_11748.png,0.0,-3.0682085,-1.0252879,-1.444563
alexnet_w3_mlp_simclrhn_probe0,1,343,NaN,knife,knife,cr,0343_cl_dnn_cr_knife_40_n03041632_20707.png,n03041632_20707.png,1.0,-6.4461126,-8.8734045,1.7163546
alexnet_w3_mlp_simclrhn_probe0,1,344,NaN,keyboard,keyboard,cr,0344_cl_dnn_cr_keyboard_40_n03085013_8936.png,n03085013_8936.png,1.0,-1.2890936,-1.815989,0.37257132
alexnet_w3_mlp_simclrhn_probe0,1,345,NaN,airplane,airplane,cr,0345_cl_dnn_cr_airplane_40_n02690373_4695.png,n02690373_4695.png,1.0,4.4941425,0.074178316,3.1253867
alexnet_w3_mlp_simclrhn_probe0,1,346,NaN,oven,oven,bw,0346_cl_dnn_bw_oven_40_n04111531_16463.png,n04111531_16463.png,1.0,-2.7439604,-4.0120955,0.89670694
alexnet_w3_mlp_simclrhn_probe0,1,347,NaN,dog,dog,bw,0347_cl_dnn_bw_dog_40_n02099712_1234.png,n02099712_1234.png,1.0,-4.606334,-9.632204,3.5538268
alexnet_w3_mlp_simclrhn_probe0,1,348,NaN,boat,boat,bw,0348_cl_dnn_bw_boat_40_n03662601_17361.png,n03662601_17361.png,1.0,3.222414,-1.8855183,3.6118536
alexnet_w3_mlp_simclrhn_probe0,1,349,NaN,oven,oven,cr,0349_cl_dnn_cr_oven_40_n04111531_12929.png,n04111531_12929.png,1.0,0.4451748,-2.8920448,2.3597708
alexnet_w3_mlp_simclrhn_probe0,1,350,NaN,car,truck,bw,0350_cl_dnn_bw_truck_40_n03417042_2056.png,n03417042_2056.png,0.0,-3.526266,0.09699402,-2.5620317
alexnet_w3_mlp_simclrhn_probe0,1,351,NaN,oven,oven,cr,0351_cl_dnn_cr_oven_40_n04111531_2937.png,n04111531_2937.png,1.0,3.712377,-1.2724633,3.5248146
alexnet_w3_mlp_simclrhn_probe0,1,352,NaN,boat,boat,bw,0352_cl_dnn_bw_boat_40_n04273569_23705.png,n04273569_23705.png,1.0,1.9596189,0.66032934,0.9187365
alexnet_w3_mlp_simclrhn_probe0,1,353,NaN,elephant,boat,cr,0353_cl_dnn_cr_boat_40_n02951358_8456.png,n02951358_8456.png,0.0,-2.104628,-1.0791693,-0.7251089
alexnet_w3_mlp_simclrhn_probe0,1,354,NaN,bottle,bottle,bw,0354_cl_dnn_bw_bottle_40_n03983396_11632.png,n03983396_11632.png,1.0,-0.028502626,-3.4367092,2.409966
alexnet_w3_mlp_simclrhn_probe0,1,355,NaN,bicycle,bicycle,bw,0355_cl_dnn_bw_bicycle_40_n02835271_506.png,n02835271_506.png,1.0,4.8374214,-2.6123579,5.26779
alexnet_w3_mlp_simclrhn_probe0,1,356,NaN,keyboard,keyboard,cr,0356_cl_dnn_cr_keyboard_40_n04505470_665.png,n04505470_665.png,1.0,4.49918,0.96817976,2.4967942
alexnet_w3_mlp_simclrhn_probe0,1,357,NaN,bear,bear,bw,0357_cl_dnn_bw_bear_40_n02132136_390.png,n02132136_390.png,1.0,2.7518091,0.2532683,1.7667352
alexnet_w3_mlp_simclrhn_probe0,1,358,NaN,bear,bear,cr,0358_cl_dnn_cr_bear_40_n02134084_13663.png,n02134084_13663.png,1.0,0.48039854,-2.1203635,1.8390164
alexnet_w3_mlp_simclrhn_probe0,1,359,NaN,airplane,airplane,cr,0359_cl_dnn_cr_airplane_40_n02690373_2837.png,n02690373_2837.png,1.0,7.9863205,2.8803413,3.6104724
alexnet_w3_mlp_simclrhn_probe0,1,360,NaN,airplane,airplane,bw,0360_cl_dnn_bw_airplane_40_n02690373_1492.png,n02690373_1492.png,1.0,6.72509,0.14391258,4.653595
alexnet_w3_mlp_simclrhn_probe0,1,361,NaN,car,car,cr,0361_cl_dnn_cr_car_40_n03100240_14252.png,n03100240_14252.png,1.0,11.411514,6.4167056,3.5318632
alexnet_w3_mlp_simclrhn_probe0,1,362,NaN,chair,elephant,bw,0362_cl_dnn_bw_elephant_40_n02504458_4908.png,n02504458_4908.png,0.0,-6.8603687,-4.5258017,-1.6507882
alexnet_w3_mlp_simclrhn_probe0,1,363,NaN,bird,bird,bw,0363_cl_dnn_bw_bird_40_n01582220_5821.png,n01582220_5821.png,1.0,-1.1120462,-3.8952062,1.9679914
alexnet_w3_mlp_simclrhn_probe0,1,364,NaN,cat,cat,cr,0364_cl_dnn_cr_cat_40_n02123045_2968.png,n02123045_2968.png,1.0,1.532318,-0.8122628,1.6578689
alexnet_w3_mlp_simclrhn_probe0,1,365,NaN,dog,dog,cr,0365_cl_dnn_cr_dog_40_n02088466_1671.png,n02088466_1671.png,1.0,0.0658779,-1.6543932,1.2164154
alexnet_w3_mlp_simclrhn_probe0,1,366,NaN,boat,boat,bw,0366_cl_dnn_bw_boat_40_n03344393_7659.png,n03344393_7659.png,1.0,6.0082936,0.30168205,4.035184
alexnet_w3_mlp_simclrhn_probe0,1,367,NaN,bicycle,bicycle,bw,0367_cl_dnn_bw_bicycle_40_n03792782_3783.png,n03792782_3783.png,1.0,0.010457754,-4.443532,3.1494465
alexnet_w3_mlp_simclrhn_probe0,1,368,NaN,airplane,airplane,cr,0368_cl_dnn_cr_airplane_40_n02690373_2059.png,n02690373_2059.png,1.0,6.170928,-0.23450637,4.5293264
alexnet_w3_mlp_simclrhn_probe0,1,369,NaN,keyboard,keyboard,cr,0369_cl_dnn_cr_keyboard_40_n03085013_19483.png,n03085013_19483.png,1.0,3.2831514,-0.3130274,2.5428824
alexnet_w3_mlp_simclrhn_probe0,1,370,NaN,bicycle,bicycle,bw,0370_cl_dnn_bw_bicycle_40_n03792782_2960.png,n03792782_2960.png,1.0,4.2851973,-5.258938,6.7487226
alexnet_w3_mlp_simclrhn_probe0,1,371,NaN,oven,keyboard,cr,0371_cl_dnn_cr_keyboard_40_n03085013_24538.png,n03085013_24538.png,0.0,0.86681205,1.3582485,-0.34749803
alexnet_w3_mlp_simclrhn_probe0,1,372,NaN,chair,cat,cr,0372_cl_dnn_cr_cat_40_n02123597_9656.png,n02123597_9656.png,0.0,-6.6905828,-2.533812,-2.9392807
alexnet_w3_mlp_simclrhn_probe0,1,373,NaN,car,car,cr,0373_cl_dnn_cr_car_40_n04285008_1085.png,n04285008_1085.png,1.0,10.676053,1.9946709,6.1386642
alexnet_w3_mlp_simclrhn_probe0,1,374,NaN,dog,dog,cr,0374_cl_dnn_cr_dog_40_n02102177_5870.png,n02102177_5870.png,1.0,-1.2928627,-4.7380905,2.436144
alexnet_w3_mlp_simclrhn_probe0,1,375,NaN,car,boat,cr,0375_cl_dnn_cr_boat_40_n03662601_24852.png,n03662601_24852.png,0.0,-0.7858404,-0.018495718,-0.5425946
alexnet_w3_mlp_simclrhn_probe0,1,376,NaN,bicycle,bicycle,cr,0376_cl_dnn_cr_bicycle_40_n03792782_32379.png,n03792782_32379.png,1.0,6.2836447,-2.7526736,6.389642
alexnet_w3_mlp_simclrhn_probe0,1,377,NaN,dog,cat,cr,0377_cl_dnn_cr_cat_40_n02123597_12266.png,n02123597_12266.png,0.0,-7.545281,-4.6583304,-2.0413823
alexnet_w3_mlp_simclrhn_probe0,1,378,NaN,airplane,airplane,cr,0378_cl_dnn_cr_airplane_40_n02690373_713.png,n02690373_713.png,1.0,13.506377,0.4700947,9.218044
alexnet_w3_mlp_simclrhn_probe0,1,379,NaN,airplane,airplane,cr,0379_cl_dnn_cr_airplane_40_n02690373_6543.png,n02690373_6543.png,1.0,5.264156,0.25129446,3.5446281
alexnet_w3_mlp_simclrhn_probe0,1,380,NaN,oven,oven,cr,0380_cl_dnn_cr_oven_40_n04111531_5888.png,n04111531_5888.png,1.0,4.1030955,-3.998477,5.728677
alexnet_w3_mlp_simclrhn_probe0,1,381,NaN,dog,dog,bw,0381_cl_dnn_bw_dog_40_n02099601_7304.png,n02099601_7304.png,1.0,-0.6263215,-2.6273882,1.4149679
alexnet_w3_mlp_simclrhn_probe0,1,382,NaN,elephant,bird,bw,0382_cl_dnn_bw_bird_40_n01819313_146.png,n01819313_146.png,0.0,-3.951119,-3.1873252,-0.5400837
alexnet_w3_mlp_simclrhn_probe0,1,383,NaN,car,car,bw,0383_cl_dnn_bw_car_40_n03100240_18873.png,n03100240_18873.png,1.0,7.9540405,3.44489,3.188451
alexnet_w3_mlp_simclrhn_probe0,1,384,NaN,dog,dog,bw,0384_cl_dnn_bw_dog_40_n02100583_2707.png,n02100583_2707.png,1.0,-1.3415103,-1.7838049,0.3127495
alexnet_w3_mlp_simclrhn_probe0,1,385,NaN,bear,dog,bw,0385_cl_dnn_bw_dog_40_n02105056_15484.png,n02105056_15484.png,0.0,-3.4701307,-1.4020137,-1.4623797
alexnet_w3_mlp_simclrhn_probe0,1,386,NaN,truck,truck,bw,0386_cl_dnn_bw_truck_40_n04467665_66535.png,n04467665_66535.png,1.0,4.118389,0.8532272,2.3088183
alexnet_w3_mlp_simclrhn_probe0,1,387,NaN,elephant,elephant,bw,0387_cl_dnn_bw_elephant_40_n02504458_12303.png,n02504458_12303.png,1.0,2.7140474,-1.6089712,3.056836
alexnet_w3_mlp_simclrhn_probe0,1,388,NaN,bottle,bottle,cr,0388_cl_dnn_cr_bottle_40_n03937543_4586.png,n03937543_4586.png,1.0,0.5255732,-2.390841,2.0622163
alexnet_w3_mlp_simclrhn_probe0,1,389,NaN,cat,bird,cr,0389_cl_dnn_cr_bird_40_n02007558_19064.png,n02007558_19064.png,0.0,-4.904939,-3.879916,-0.7248009
alexnet_w3_mlp_simclrhn_probe0,1,390,NaN,oven,oven,bw,0390_cl_dnn_bw_oven_40_n04111531_5904.png,n04111531_5904.png,1.0,3.7923408,-4.3276253,5.7416835
alexnet_w3_mlp_simclrhn_probe0,1,391,NaN,airplane,keyboard,cr,0391_cl_dnn_cr_keyboard_40_n03085013_18625.png,n03085013_18625.png,0.0,-4.663877,-0.7327868,-2.7797008
alexnet_w3_mlp_simclrhn_probe0,1,392,NaN,bottle,bottle,cr,0392_cl_dnn_cr_bottle_40_n04579145_445.png,n04579145_445.png,1.0,2.351816,-0.62751764,2.106707
alexnet_w3_mlp_simclrhn_probe0,1,393,NaN,keyboard,keyboard,bw,0393_cl_dnn_bw_keyboard_40_n03085013_22820.png,n03085013_22820.png,1.0,2.6469262,1.5131611,0.801693
alexnet_w3_mlp_simclrhn_probe0,1,394,NaN,truck,truck,cr,0394_cl_dnn_cr_truck_40_n03417042_19479.png,n03417042_19479.png,1.0,6.062388,1.5819799,3.168127
alexnet_w3_mlp_simclrhn_probe0,1,395,NaN,bird,bird,bw,0395_cl_dnn_bw_bird_40_n01833805_28946.png,n01833805_28946.png,1.0,-1.5524949,-3.873477,1.6411822
alexnet_w3_mlp_simclrhn_probe0,1,396,NaN,keyboard,bottle,bw,0396_cl_dnn_bw_bottle_40_n04591713_3896.png,n04591713_3896.png,0.0,-3.909444,-3.1411462,-0.5432687
alexnet_w3_mlp_simclrhn_probe0,1,397,NaN,cat,cat,cr,0397_cl_dnn_cr_cat_40_n02123159_782.png,n02123159_782.png,1.0,1.9073849,-8.105423,7.0801244
alexnet_w3_mlp_simclrhn_probe0,1,398,NaN,keyboard,keyboard,bw,0398_cl_dnn_bw_keyboard_40_n04505470_464.png,n04505470_464.png,1.0,-1.5538576,-2.840341,0.90968126
alexnet_w3_mlp_simclrhn_probe0,1,399,NaN,bird,bird,cr,0399_cl_dnn_cr_bird_40_n01558993_3939.png,n01558993_3939.png,1.0,0.4715192,-5.5772977,4.277159
alexnet_w3_mlp_simclrhn_probe0,1,400,NaN,boat,boat,cr,0400_cl_dnn_cr_boat_40_n04273569_3052.png,n04273569_3052.png,1.0,3.9152832,-2.3216367,4.4101686
alexnet_w3_mlp_simclrhn_probe0,1,401,NaN,knife,knife,bw,0401_cl_dnn_bw_knife_40_n03041632_85416.png,n03041632_85416.png,1.0,-3.5772307,-4.7082667,0.79976326
alexnet_w3_mlp_simclrhn_probe0,1,402,NaN,car,car,bw,0402_cl_dnn_bw_car_40_n02814533_51154.png,n02814533_51154.png,1.0,12.753474,10.646348,1.4899633
alexnet_w3_mlp_simclrhn_probe0,1,403,NaN,airplane,airplane,bw,0403_cl_dnn_bw_airplane_40_n02690373_6516.png,n02690373_6516.png,1.0,9.144947,1.7341043,5.2402573
alexnet_w3_mlp_simclrhn_probe0,1,404,NaN,airplane,airplane,cr,0404_cl_dnn_cr_airplane_40_n02690373_12813.png,n02690373_12813.png,1.0,12.040737,-1.3307955,9.455101
alexnet_w3_mlp_simclrhn_probe0,1,405,NaN,airplane,airplane,bw,0405_cl_dnn_bw_airplane_40_n02690373_6406.png,n02690373_6406.png,1.0,8.986148,0.27397996,6.160433
alexnet_w3_mlp_simclrhn_probe0,1,406,NaN,chair,chair,cr,0406_cl_dnn_cr_chair_40_n03376595_8228.png,n03376595_8228.png,1.0,2.9133484,-0.5780626,2.4688003
alexnet_w3_mlp_simclrhn_probe0,1,407,NaN,knife,chair,bw,0407_cl_dnn_bw_chair_40_n04099969_6309.png,n04099969_6309.png,0.0,-2.6681361,0.031454146,-1.9088986
alexnet_w3_mlp_simclrhn_probe0,1,408,NaN,elephant,elephant,cr,0408_cl_dnn_cr_elephant_40_n02504013_19831.png,n02504013_19831.png,1.0,7.353193,-2.1440074,6.7155347
alexnet_w3_mlp_simclrhn_probe0,1,409,NaN,knife,bottle,bw,0409_cl_dnn_bw_bottle_40_n03937543_5088.png,n03937543_5088.png,0.0,-5.3733177,-3.5040276,-1.3217877
alexnet_w3_mlp_simclrhn_probe0,1,410,NaN,elephant,elephant,cr,0410_cl_dnn_cr_elephant_40_n02504458_2190.png,n02504458_2190.png,1.0,-0.25202015,-2.7578483,1.7718881
alexnet_w3_mlp_simclrhn_probe0,1,411,NaN,car,car,bw,0411_cl_dnn_bw_car_40_n04285008_5997.png,n04285008_5997.png,1.0,5.7440286,-0.77572423,4.610162
alexnet_w3_mlp_simclrhn_probe0,1,412,NaN,bottle,knife,cr,0412_cl_dnn_cr_knife_40_n03041632_94620.png,n03041632_94620.png,0.0,-4.627303,-3.9965775,-0.44599038
alexnet_w3_mlp_simclrhn_probe0,1,413,NaN,bicycle,bicycle,cr,0413_cl_dnn_cr_bicycle_40_n02835271_8125.png,n02835271_8125.png,1.0,5.3286037,-3.2916572,6.095445
alexnet_w3_mlp_simclrhn_probe0,1,414,NaN,oven,oven,cr,0414_cl_dnn_cr_oven_40_n04111531_4662.png,n04111531_4662.png,1.0,4.683497,-5.261085,7.0318813
alexnet_w3_mlp_simclrhn_probe0,1,415,NaN,elephant,dog,bw,0415_cl_dnn_bw_dog_40_n02110806_21755.png,n02110806_21755.png,0.0,-4.627407,0.25878233,-3.4550579
alexnet_w3_mlp_simclrhn_probe0,1,416,NaN,bottle,bottle,bw,0416_cl_dnn_bw_bottle_40_n02823428_3505.png,n02823428_3505.png,1.0,-0.7158161,-2.4638906,1.2360754
alexnet_w3_mlp_simclrhn_probe0,1,417,NaN,cat,cat,cr,0417_cl_dnn_cr_cat_40_n02123045_11472.png,n02123045_11472.png,1.0,4.358591,-4.210969,6.059594
alexnet_w3_mlp_simclrhn_probe0,1,418,NaN,boat,boat,cr,0418_cl_dnn_cr_boat_40_n03662601_14818.png,n03662601_14818.png,1.0,5.760627,0.97907084,3.3810709
alexnet_w3_mlp_simclrhn_probe0,1,419,NaN,bicycle,bicycle,cr,0419_cl_dnn_cr_bicycle_40_n02835271_8322.png,n02835271_8322.png,1.0,0.92924285,-2.341796,2.3129737
alexnet_w3_mlp_simclrhn_probe0,1,420,NaN,knife,knife,bw,0420_cl_dnn_bw_knife_40_n03041632_9580.png,n03041632_9580.png,1.0,-1.0881023,-3.87281,1.9690856
alexnet_w3_mlp_simclrhn_probe0,1,421,NaN,elephant,dog,bw,0421_cl_dnn_bw_dog_40_n02088466_3052.png,n02088466_3052.png,0.0,-6.5517187,-4.875614,-1.185185
alexnet_w3_mlp_simclrhn_probe0,1,422,NaN,keyboard,keyboard,cr,0422_cl_dnn_cr_keyboard_40_n04505470_7161.png,n04505470_7161.png,1.0,14.463533,-0.8702777,10.842642
alexnet_w3_mlp_simclrhn_probe0,1,423,NaN,keyboard,keyboard,cr,0423_cl_dnn_cr_keyboard_40_n04505470_2321.png,n04505470_2321.png,1.0,5.878393,0.22182423,3.9997983
alexnet_w3_mlp_simclrhn_probe0,1,424,NaN,oven,knife,cr,0424_cl_dnn_cr_knife_40_n03041632_6708.png,n03041632_6708.png,0.0,-6.232062,-0.46104705,-4.080724
alexnet_w3_mlp_simclrhn_probe0,1,425,NaN,keyboard,keyboard,bw,0425_cl_dnn_bw_keyboard_40_n04505470_4965.png,n04505470_4965.png,1.0,10.461283,-2.0252173,8.8292885
alexnet_w3_mlp_simclrhn_probe0,1,426,NaN,cat,cat,bw,0426_cl_dnn_bw_cat_40_n02123597_11981.png,n02123597_11981.png,1.0,1.2679812,-1.6570537,2.0683122
alexnet_w3_mlp_simclrhn_probe0,1,427,NaN,truck,truck,cr,0427_cl_dnn_cr_truck_40_n03417042_2778.png,n03417042_2778.png,1.0,2.9712977,-1.9733359,3.496384
alexnet_w3_mlp_simclrhn_probe0,1,428,NaN,truck,car,cr,0428_cl_dnn_cr_car_40_n02814533_80049.png,n02814533_80049.png,0.0,6.963417,7.511426,-0.38750082
alexnet_w3_mlp_simclrhn_probe0,1,429,NaN,cat,keyboard,cr,0429_cl_dnn_cr_keyboard_40_n03085013_23561.png,n03085013_23561.png,0.0,-7.2674966,-3.5656316,-2.6176138
alexnet_w3_mlp_simclrhn_probe0,1,430,NaN,airplane,airplane,bw,0430_cl_dnn_bw_airplane_40_n02690373_1800.png,n02690373_1800.png,1.0,1.7405716,-0.9804854,1.9240779
alexnet_w3_mlp_simclrhn_probe0,1,431,NaN,knife,chair,bw,0431_cl_dnn_bw_chair_40_n02791124_4306.png,n02791124_4306.png,0.0,-3.8714619,-3.7096956,-0.114386044
alexnet_w3_mlp_simclrhn_probe0,1,432,NaN,bicycle,knife,bw,0432_cl_dnn_bw_knife_40_n03041632_33424.png,n03041632_33424.png,0.0,-7.431973,-5.355393,-1.4683639
alexnet_w3_mlp_simclrhn_probe0,1,433,NaN,airplane,boat,cr,0433_cl_dnn_cr_boat_40_n04273569_111.png,n04273569_111.png,0.0,-0.7617463,-0.4082088,-0.24998876
alexnet_w3_mlp_simclrhn_probe0,1,434,NaN,bear,bear,bw,0434_cl_dnn_bw_bear_40_n02132136_4403.png,n02132136_4403.png,1.0,0.42665574,-0.2792699,0.49916482
alexnet_w3_mlp_simclrhn_probe0,1,435,NaN,bicycle,bicycle,bw,0435_cl_dnn_bw_bicycle_40_n03792782_49707.png,n03792782_49707.png,1.0,-2.703813,-4.839197,1.5099446
alexnet_w3_mlp_simclrhn_probe0,1,436,NaN,bicycle,bicycle,cr,0436_cl_dnn_cr_bicycle_40_n02835271_3308.png,n02835271_3308.png,1.0,2.634015,-5.580298,5.808397
alexnet_w3_mlp_simclrhn_probe0,1,437,NaN,car,clock,bw,0437_cl_dnn_bw_clock_40_n04548280_3305.png,n04548280_3305.png,0.0,-1.0134668,-0.6753606,-0.2390772
alexnet_w3_mlp_simclrhn_probe0,1,438,NaN,boat,boat,bw,0438_cl_dnn_bw_boat_40_n03344393_7614.png,n03344393_7614.png,1.0,5.3201895,1.5852836,2.6409771
alexnet_w3_mlp_simclrhn_probe0,1,439,NaN,chair,bicycle,bw,0439_cl_dnn_bw_bicycle_40_n02835271_9434.png,n02835271_9434.png,0.0,-5.308817,-3.6038542,-1.2055907
alexnet_w3_mlp_simclrhn_probe0,1,440,NaN,chair,truck,bw,0440_cl_dnn_bw_truck_40_n03417042_3039.png,n03417042_3039.png,0.0,-4.3071547,-2.0276265,-1.6118698
alexnet_w3_mlp_simclrhn_probe0,1,441,NaN,oven,oven,cr,0441_cl_dnn_cr_oven_40_n04111531_5519.png,n04111531_5519.png,1.0,1.852075,-5.4499364,5.163302
alexnet_w3_mlp_simclrhn_probe0,1,442,NaN,bottle,bottle,cr,0442_cl_dnn_cr_bottle_40_n03983396_3702.png,n03983396_3702.png,1.0,-1.6696943,-3.878455,1.5618297
alexnet_w3_mlp_simclrhn_probe0,1,443,NaN,bicycle,clock,cr,0443_cl_dnn_cr_clock_40_n04548280_2177.png,n04548280_2177.png,0.0,-2.028354,-2.0000222,-0.020033577
alexnet_w3_mlp_simclrhn_probe0,1,444,NaN,bottle,bottle,cr,0444_cl_dnn_cr_bottle_40_n03983396_4132.png,n03983396_4132.png,1.0,3.3270028,-5.478597,6.2264996
alexnet_w3_mlp_simclrhn_probe0,1,445,NaN,bicycle,bicycle,cr,0445_cl_dnn_cr_bicycle_40_n02835271_17509.png,n02835271_17509.png,1.0,0.79838043,-6.215207,4.9593554
alexnet_w3_mlp_simclrhn_probe0,1,446,NaN,airplane,airplane,bw,0446_cl_dnn_bw_airplane_40_n02690373_3090.png,n02690373_3090.png,1.0,4.5411954,-0.9611703,3.8907602
alexnet_w3_mlp_simclrhn_probe0,1,447,NaN,chair,chair,cr,0447_cl_dnn_cr_chair_40_n03376595_1302.png,n03376595_1302.png,1.0,0.41516113,-1.7009864,1.4963423
alexnet_w3_mlp_simclrhn_probe0,1,448,NaN,dog,dog,cr,0448_cl_dnn_cr_dog_40_n02107683_3640.png,n02107683_3640.png,1.0,0.2731221,-0.39484638,0.4723251
alexnet_w3_mlp_simclrhn_probe0,1,449,NaN,car,car,cr,0449_cl_dnn_cr_car_40_n03100240_770.png,n03100240_770.png,1.0,9.664558,5.692155,2.8089135
alexnet_w3_mlp_simclrhn_probe0,1,450,NaN,knife,knife,cr,0450_cl_dnn_cr_knife_40_n03041632_4305.png,n03041632_4305.png,1.0,-2.8321123,-4.466826,1.1559172
alexnet_w3_mlp_simclrhn_probe0,1,451,NaN,elephant,elephant,cr,0451_cl_dnn_cr_elephant_40_n02504013_4590.png,n02504013_4590.png,1.0,2.6905007,-0.88365734,2.5273116
alexnet_w3_mlp_simclrhn_probe0,1,452,NaN,truck,truck,cr,0452_cl_dnn_cr_truck_40_n03417042_5752.png,n03417042_5752.png,1.0,-0.8450943,-2.2214444,0.9732265
alexnet_w3_mlp_simclrhn_probe0,1,453,NaN,oven,oven,cr,0453_cl_dnn_cr_oven_40_n04111531_21931.png,n04111531_21931.png,1.0,4.3389387,-1.9211721,4.426567
alexnet_w3_mlp_simclrhn_probe0,1,454,NaN,elephant,elephant,bw,0454_cl_dnn_bw_elephant_40_n02504458_4711.png,n02504458_4711.png,1.0,2.337889,-3.2801046,3.9725213
alexnet_w3_mlp_simclrhn_probe0,1,455,NaN,clock,clock,bw,0455_cl_dnn_bw_clock_40_n02708093_8033.png,n02708093_8033.png,1.0,0.50767165,-2.7469807,2.3013868
alexnet_w3_mlp_simclrhn_probe0,1,456,NaN,bicycle,bicycle,bw,0456_cl_dnn_bw_bicycle_40_n03792782_41992.png,n03792782_41992.png,1.0,9.894726,-3.3484938,9.36437
alexnet_w3_mlp_simclrhn_probe0,1,457,NaN,keyboard,keyboard,cr,0457_cl_dnn_cr_keyboard_40_n03085013_5622.png,n03085013_5622.png,1.0,0.41755724,-0.019757025,0.30922788
alexnet_w3_mlp_simclrhn_probe0,1,458,NaN,bird,bird,bw,0458_cl_dnn_bw_bird_40_n02009912_1919.png,n02009912_1919.png,1.0,-1.805376,-4.7790475,2.1027033
alexnet_w3_mlp_simclrhn_probe0,1,459,NaN,bottle,bottle,cr,0459_cl_dnn_cr_bottle_40_n03937543_4202.png,n03937543_4202.png,1.0,-0.9522272,-3.871069,2.063933
alexnet_w3_mlp_simclrhn_probe0,1,460,NaN,bicycle,bicycle,bw,0460_cl_dnn_bw_bicycle_40_n02835271_4341.png,n02835271_4341.png,1.0,1.2672005,-3.9498591,3.6890182
alexnet_w3_mlp_simclrhn_probe0,1,461,NaN,bear,bear,bw,0461_cl_dnn_bw_bear_40_n02132136_18543.png,n02132136_18543.png,1.0,-0.43014175,-2.0539474,1.1482041
alexnet_w3_mlp_simclrhn_probe0,1,462,NaN,cat,cat,bw,0462_cl_dnn_bw_cat_40_n02124075_14425.png,n02124075_14425.png,1.0,2.7566717,-4.0324454,4.8006306
alexnet_w3_mlp_simclrhn_probe0,1,463,NaN,clock,clock,bw,0463_cl_dnn_bw_clock_40_n02708093_544.png,n02708093_544.png,1.0,0.94796306,-0.29255775,0.8771807
alexnet_w3_mlp_simclrhn_probe0,1,464,NaN,bear,bear,cr,0464_cl_dnn_cr_bear_40_n02133161_7604.png,n02133161_7604.png,1.0,-0.870396,-1.7389119,0.6141335
alexnet_w3_mlp_simclrhn_probe0,1,465,NaN,car,car,bw,0465_cl_dnn_bw_car_40_n03100240_15407.png,n03100240_15407.png,1.0,5.5861287,1.7740823,2.695524
alexnet_w3_mlp_simclrhn_probe0,1,466,NaN,bicycle,bicycle,bw,0466_cl_dnn_bw_bicycle_40_n02835271_12926.png,n02835271_12926.png,1.0,4.244403,-2.951119,5.088002
alexnet_w3_mlp_simclrhn_probe0,1,467,NaN,knife,chair,cr,0467_cl_dnn_cr_chair_40_n03376595_2056.png,n03376595_2056.png,0.0,-3.5554197,-2.0839689,-1.0404729
alexnet_w3_mlp_simclrhn_probe0,1,468,NaN,oven,oven,bw,0468_cl_dnn_bw_oven_40_n04111531_9762.png,n04111531_9762.png,1.0,1.7283518,-0.41459304,1.5152909
alexnet_w3_mlp_simclrhn_probe0,1,469,NaN,bicycle,bicycle,bw,0469_cl_dnn_bw_bicycle_40_n03792782_25799.png,n03792782_25799.png,1.0,0.29934472,-4.265931,3.2281375
alexnet_w3_mlp_simclrhn_probe0,1,470,NaN,oven,oven,cr,0470_cl_dnn_cr_oven_40_n04111531_3570.png,n04111531_3570.png,1.0,2.8962913,-3.9946704,4.872646
alexnet_w3_mlp_simclrhn_probe0,1,471,NaN,car,car,cr,0471_cl_dnn_cr_car_40_n04285008_874.png,n04285008_874.png,1.0,4.696528,2.193315,1.7700388
alexnet_w3_mlp_simclrhn_probe0,1,472,NaN,bicycle,bottle,cr,0472_cl_dnn_cr_bottle_40_n04557648_364.png,n04557648_364.png,0.0,-7.8119516,-0.52205193,-5.1547375
alexnet_w3_mlp_simclrhn_probe0,1,473,NaN,airplane,airplane,bw,0473_cl_dnn_bw_airplane_40_n02690373_8461.png,n02690373_8461.png,1.0,6.0426044,-1.8198544,5.559598
alexnet_w3_mlp_simclrhn_probe0,1,474,NaN,boat,boat,cr,0474_cl_dnn_cr_boat_40_n04273569_1087.png,n04273569_1087.png,1.0,5.4610624,-1.7881868,5.1259937
alexnet_w3_mlp_simclrhn_probe0,1,475,NaN,chair,chair,cr,0475_cl_dnn_cr_chair_40_n03376595_1798.png,n03376595_1798.png,1.0,0.03943646,-2.0207415,1.4567658
alexnet_w3_mlp_simclrhn_probe0,1,476,NaN,oven,oven,cr,0476_cl_dnn_cr_oven_40_n04111531_5290.png,n04111531_5290.png,1.0,5.232401,0.18424852,3.569583
alexnet_w3_mlp_simclrhn_probe0,1,477,NaN,cat,cat,bw,0477_cl_dnn_bw_cat_40_n02124075_12369.png,n02124075_12369.png,1.0,2.3259065,-2.1349485,3.154301
alexnet_w3_mlp_simclrhn_probe0,1,478,NaN,elephant,elephant,bw,0478_cl_dnn_bw_elephant_40_n02504458_3714.png,n02504458_3714.png,1.0,3.0358164,-2.3611193,3.8162098
alexnet_w3_mlp_simclrhn_probe0,1,479,NaN,bicycle,bicycle,bw,0479_cl_dnn_bw_bicycle_40_n03792782_7388.png,n03792782_7388.png,1.0,-3.8705044,-4.1838727,0.22158487
alexnet_w3_mlp_simclrhn_probe0,1,480,NaN,truck,truck,cr,0480_cl_dnn_cr_truck_40_n03796401_18240.png,n03796401_18240.png,1.0,2.444098,0.05011745,1.6927999
alexnet_w3_mlp_simclrhn_probe0,1,481,NaN,airplane,airplane,cr,0481_cl_dnn_cr_airplane_40_n02690373_610.png,n02690373_610.png,1.0,9.579271,1.2007353,5.92452
alexnet_w3_mlp_simclrhn_probe0,1,482,NaN,airplane,airplane,bw,0482_cl_dnn_bw_airplane_40_n02690373_6046.png,n02690373_6046.png,1.0,14.363057,-3.1195393,12.362063
alexnet_w3_mlp_simclrhn_probe0,1,483,NaN,bear,dog,cr,0483_cl_dnn_cr_dog_40_n02105505_4069.png,n02105505_4069.png,0.0,-1.5051632,-0.930284,-0.40650097
alexnet_w3_mlp_simclrhn_probe0,1,484,NaN,chair,chair,bw,0484_cl_dnn_bw_chair_40_n04429376_1954.png,n04429376_1954.png,1.0,-1.3262947,-2.6196017,0.9145062
alexnet_w3_mlp_simclrhn_probe0,1,485,NaN,oven,oven,bw,0485_cl_dnn_bw_oven_40_n04111531_7862.png,n04111531_7862.png,1.0,2.9114943,-3.252718,4.3587565
alexnet_w3_mlp_simclrhn_probe0,1,486,NaN,car,chair,cr,0486_cl_dnn_cr_chair_40_n02791124_7424.png,n02791124_7424.png,0.0,-2.0516562,-1.5592903,-0.34815532
alexnet_w3_mlp_simclrhn_probe0,1,487,NaN,elephant,dog,bw,0487_cl_dnn_bw_dog_40_n02088466_5521.png,n02088466_5521.png,0.0,-3.1498866,-2.5435922,-0.42871487
alexnet_w3_mlp_simclrhn_probe0,1,488,NaN,bird,bear,cr,0488_cl_dnn_cr_bear_40_n02133161_12868.png,n02133161_12868.png,0.0,-4.178322,-2.0486538,-1.5059028
alexnet_w3_mlp_simclrhn_probe0,1,489,NaN,keyboard,keyboard,bw,0489_cl_dnn_bw_keyboard_40_n04505470_4107.png,n04505470_4107.png,1.0,3.3115687,1.6253166,1.1923603
alexnet_w3_mlp_simclrhn_probe0,1,490,NaN,boat,boat,bw,0490_cl_dnn_bw_boat_40_n03662601_855.png,n03662601_855.png,1.0,5.5926967,0.8439264,3.3578877
alexnet_w3_mlp_simclrhn_probe0,1,491,NaN,bird,bird,cr,0491_cl_dnn_cr_bird_40_n02017213_7558.png,n02017213_7558.png,1.0,-2.2817407,-7.394637,3.6153638
alexnet_w3_mlp_simclrhn_probe0,1,492,NaN,airplane,bottle,bw,0492_cl_dnn_bw_bottle_40_n04557648_23801.png,n04557648_23801.png,0.0,-4.8910627,-0.6668709,-2.9869547
alexnet_w3_mlp_simclrhn_probe0,1,493,NaN,bird,bird,bw,0493_cl_dnn_bw_bird_40_n01601694_13054.png,n01601694_13054.png,1.0,1.5079309,-6.639174,5.7608733
alexnet_w3_mlp_simclrhn_probe0,1,494,NaN,oven,oven,bw,0494_cl_dnn_bw_oven_40_n04111531_2207.png,n04111531_2207.png,1.0,2.9027846,-5.481154,5.92834
alexnet_w3_mlp_simclrhn_probe0,1,495,NaN,bird,bird,bw,0495_cl_dnn_bw_bird_40_n02009912_9425.png,n02009912_9425.png,1.0,1.0853975,-4.7396607,4.118938
alexnet_w3_mlp_simclrhn_probe0,1,496,NaN,clock,clock,cr,0496_cl_dnn_cr_clock_40_n03196217_6193.png,n03196217_6193.png,1.0,4.985299,3.803904,0.83537245
alexnet_w3_mlp_simclrhn_probe0,1,497,NaN,boat,boat,bw,0497_cl_dnn_bw_boat_40_n04273569_27625.png,n04273569_27625.png,1.0,3.830281,0.13140252,2.615502
alexnet_w3_mlp_simclrhn_probe0,1,498,NaN,chair,truck,bw,0498_cl_dnn_bw_truck_40_n03417042_29855.png,n03417042_29855.png,0.0,-1.2899587,-0.1645203,-0.79580516
alexnet_w3_mlp_simclrhn_probe0,1,499,NaN,bottle,bottle,cr,0499_cl_dnn_cr_bottle_40_n03983396_4212.png,n03983396_4212.png,1.0,1.5970811,-3.4847002,3.593362
alexnet_w3_mlp_simclrhn_probe0,1,500,NaN,cat,cat,bw,0500_cl_dnn_bw_cat_40_n02123597_11613.png,n02123597_11613.png,1.0,-0.49621344,-3.1182065,1.854029
alexnet_w3_mlp_simclrhn_probe0,1,501,NaN,clock,clock,cr,0501_cl_dnn_cr_clock_40_n02708093_1559.png,n02708093_1559.png,1.0,-0.6542445,-1.4928913,0.59301287
alexnet_w3_mlp_simclrhn_probe0,1,502,NaN,chair,chair,cr,0502_cl_dnn_cr_chair_40_n02791124_7031.png,n02791124_7031.png,1.0,-1.8869295,-2.6426344,0.53436404
alexnet_w3_mlp_simclrhn_probe0,1,503,NaN,bottle,bottle,cr,0503_cl_dnn_cr_bottle_40_n04560804_1703.png,n04560804_1703.png,1.0,0.96366787,-1.7824221,1.9417789
alexnet_w3_mlp_simclrhn_probe0,1,504,NaN,bottle,bottle,bw,0504_cl_dnn_bw_bottle_40_n04560804_15679.png,n04560804_15679.png,1.0,0.5854115,-4.0440497,3.2735236
alexnet_w3_mlp_simclrhn_probe0,1,505,NaN,bottle,bottle,bw,0505_cl_dnn_bw_bottle_40_n03983396_1006.png,n03983396_1006.png,1.0,1.3375539,-3.6309178,3.5132399
alexnet_w3_mlp_simclrhn_probe0,1,506,NaN,knife,knife,bw,0506_cl_dnn_bw_knife_40_n03041632_100645.png,n03041632_100645.png,1.0,0.07334247,-3.6170087,2.6094725
alexnet_w3_mlp_simclrhn_probe0,1,507,NaN,car,car,cr,0507_cl_dnn_cr_car_40_n02814533_54845.png,n02814533_54845.png,1.0,7.360527,5.9858294,0.97205806
alexnet_w3_mlp_simclrhn_probe0,1,508,NaN,keyboard,keyboard,cr,0508_cl_dnn_cr_keyboard_40_n03085013_20078.png,n03085013_20078.png,1.0,1.1901081,-1.6612611,2.0162225
alexnet_w3_mlp_simclrhn_probe0,1,509,NaN,chair,chair,cr,0509_cl_dnn_cr_chair_40_n04099969_4543.png,n04099969_4543.png,1.0,-2.299234,-3.1226947,0.58227473
alexnet_w3_mlp_simclrhn_probe0,1,510,NaN,bear,bear,cr,0510_cl_dnn_cr_bear_40_n02134418_1253.png,n02134418_1253.png,1.0,-0.35889944,-2.8639302,1.7713244
alexnet_w3_mlp_simclrhn_probe0,1,511,NaN,bicycle,bicycle,bw,0511_cl_dnn_bw_bicycle_40_n02835271_8137.png,n02835271_8137.png,1.0,2.2809048,-3.8275974,4.3193636
alexnet_w3_mlp_simclrhn_probe0,1,512,NaN,keyboard,keyboard,bw,0512_cl_dnn_bw_keyboard_40_n04505470_7312.png,n04505470_7312.png,1.0,3.2156014,-1.8099205,3.553581
alexnet_w3_mlp_simclrhn_probe0,1,513,NaN,elephant,elephant,cr,0513_cl_dnn_cr_elephant_40_n02504013_2460.png,n02504013_2460.png,1.0,3.1670623,-4.2782564,5.2646356
alexnet_w3_mlp_simclrhn_probe0,1,514,NaN,clock,clock,cr,0514_cl_dnn_cr_clock_40_n04548280_13469.png,n04548280_13469.png,1.0,-3.068689,-3.1318257,0.044644304
alexnet_w3_mlp_simclrhn_probe0,1,515,NaN,car,chair,cr,0515_cl_dnn_cr_chair_40_n02791124_3161.png,n02791124_3161.png,0.0,-4.5573015,-1.7267656,-2.001491
alexnet_w3_mlp_simclrhn_probe0,1,516,NaN,elephant,dog,cr,0516_cl_dnn_cr_dog_40_n02093647_1818.png,n02093647_1818.png,0.0,-4.993314,-1.5397468,-2.4420407
alexnet_w3_mlp_simclrhn_probe0,1,517,NaN,chair,chair,cr,0517_cl_dnn_cr_chair_40_n02791124_4294.png,n02791124_4294.png,1.0,-1.6961757,-2.0247881,0.23236409
alexnet_w3_mlp_simclrhn_probe0,1,518,NaN,cat,cat,cr,0518_cl_dnn_cr_cat_40_n02124075_3533.png,n02124075_3533.png,1.0,4.1567287,-5.0283523,6.4948335
alexnet_w3_mlp_simclrhn_probe0,1,519,NaN,boat,boat,cr,0519_cl_dnn_cr_boat_40_n03344393_2480.png,n03344393_2480.png,1.0,3.2516892,-0.945941,2.9681726
alexnet_w3_mlp_simclrhn_probe0,1,520,NaN,car,car,bw,0520_cl_dnn_bw_car_40_n02814533_95054.png,n02814533_95054.png,1.0,2.0056415,1.207615,0.5642899
alexnet_w3_mlp_simclrhn_probe0,1,521,NaN,bottle,bottle,cr,0521_cl_dnn_cr_bottle_40_n03937543_1808.png,n03937543_1808.png,1.0,3.3442419,-3.5871367,4.9012246
alexnet_w3_mlp_simclrhn_probe0,1,522,NaN,car,car,cr,0522_cl_dnn_cr_car_40_n02814533_72213.png,n02814533_72213.png,1.0,6.4614234,1.9881041,3.1631143
alexnet_w3_mlp_simclrhn_probe0,1,523,NaN,keyboard,clock,cr,0523_cl_dnn_cr_clock_40_n03196217_1499.png,n03196217_1499.png,0.0,2.5200472,3.5794072,-0.74908066
alexnet_w3_mlp_simclrhn_probe0,1,524,NaN,cat,cat,cr,0524_cl_dnn_cr_cat_40_n02123045_5300.png,n02123045_5300.png,1.0,3.9338017,-1.8086069,4.0604963
alexnet_w3_mlp_simclrhn_probe0,1,525,NaN,bicycle,bird,bw,0525_cl_dnn_bw_bird_40_n02006656_3185.png,n02006656_3185.png,0.0,-4.989937,-2.7674432,-1.5715404
alexnet_w3_mlp_simclrhn_probe0,1,526,NaN,clock,clock,cr,0526_cl_dnn_cr_clock_40_n03196217_4541.png,n03196217_4541.png,1.0,2.0063279,0.67851675,0.9389043
alexnet_w3_mlp_simclrhn_probe0,1,527,NaN,cat,cat,cr,0527_cl_dnn_cr_cat_40_n02123159_2317.png,n02123159_2317.png,1.0,6.6489983,-6.645711,9.400779
alexnet_w3_mlp_simclrhn_probe0,1,528,NaN,elephant,bear,cr,0528_cl_dnn_cr_bear_40_n02133161_1362.png,n02133161_1362.png,0.0,-2.6656725,-0.38853306,-1.6101807
alexnet_w3_mlp_simclrhn_probe0,1,529,NaN,clock,clock,bw,0529_cl_dnn_bw_clock_40_n04548280_1202.png,n04548280_1202.png,1.0,0.8711009,-2.5944126,2.450488
alexnet_w3_mlp_simclrhn_probe0,1,530,NaN,bear,dog,bw,0530_cl_dnn_bw_dog_40_n02095570_6717.png,n02095570_6717.png,0.0,-0.37981313,-0.2590683,-0.08537949
alexnet_w3_mlp_simclrhn_probe0,1,531,NaN,car,car,bw,0531_cl_dnn_bw_car_40_n03100240_15941.png,n03100240_15941.png,1.0,3.745016,1.2670346,1.7521976
alexnet_w3_mlp_simclrhn_probe0,1,532,NaN,bottle,chair,bw,0532_cl_dnn_bw_chair_40_n02791124_1443.png,n02791124_1443.png,0.0,-4.7155375,-3.63083,-0.767004
alexnet_w3_mlp_simclrhn_probe0,1,533,NaN,bottle,bottle,cr,0533_cl_dnn_cr_bottle_40_n04557648_830.png,n04557648_830.png,1.0,3.9420056,-4.0659976,5.6625133
alexnet_w3_mlp_simclrhn_probe0,1,534,NaN,truck,truck,cr,0534_cl_dnn_cr_truck_40_n03417042_8298.png,n03417042_8298.png,1.0,12.397842,7.168856,3.6974516
alexnet_w3_mlp_simclrhn_probe0,1,535,NaN,clock,clock,bw,0535_cl_dnn_bw_clock_40_n02708093_4569.png,n02708093_4569.png,1.0,6.6311727,0.07972668,4.632572
alexnet_w3_mlp_simclrhn_probe0,1,536,NaN,knife,keyboard,cr,0536_cl_dnn_cr_keyboard_40_n03085013_7576.png,n03085013_7576.png,0.0,-0.78040916,0.020255953,-0.56615573
alexnet_w3_mlp_simclrhn_probe0,1,537,NaN,truck,truck,bw,0537_cl_dnn_bw_truck_40_n03417042_27093.png,n03417042_27093.png,1.0,3.0353446,0.96153975,1.4664015
alexnet_w3_mlp_simclrhn_probe0,1,538,NaN,elephant,elephant,cr,0538_cl_dnn_cr_elephant_40_n02504013_13560.png,n02504013_13560.png,1.0,0.35714114,-0.5290992,0.6266666
alexnet_w3_mlp_simclrhn_probe0,1,539,NaN,car,car,bw,0539_cl_dnn_bw_car_40_n04285008_12045.png,n04285008_12045.png,1.0,7.1270733,2.5512118,3.2356226
alexnet_w3_mlp_simclrhn_probe0,1,540,NaN,airplane,airplane,cr,0540_cl_dnn_cr_airplane_40_n02690373_5176.png,n02690373_5176.png,1.0,10.827745,0.769337,7.112369
alexnet_w3_mlp_simclrhn_probe0,1,541,NaN,bicycle,bicycle,bw,0541_cl_dnn_bw_bicycle_40_n03792782_6194.png,n03792782_6194.png,1.0,2.4893851,-7.387425,6.9839597
alexnet_w3_mlp_simclrhn_probe0,1,542,NaN,oven,oven,cr,0542_cl_dnn_cr_oven_40_n04111531_15912.png,n04111531_15912.png,1.0,3.5467796,-1.4935755,3.5640695
alexnet_w3_mlp_simclrhn_probe0,1,543,NaN,oven,oven,cr,0543_cl_dnn_cr_oven_40_n04111531_2592.png,n04111531_2592.png,1.0,-1.1253628,-3.4165347,1.6201034
alexnet_w3_mlp_simclrhn_probe0,1,544,NaN,bird,bird,cr,0544_cl_dnn_cr_bird_40_n02011460_2435.png,n02011460_2435.png,1.0,-4.7927036,-7.239219,1.7299478
alexnet_w3_mlp_simclrhn_probe0,1,545,NaN,car,car,cr,0545_cl_dnn_cr_car_40_n02814533_33205.png,n02814533_33205.png,1.0,6.414025,5.3675375,0.7399783
alexnet_w3_mlp_simclrhn_probe0,1,546,NaN,chair,oven,bw,0546_cl_dnn_bw_oven_40_n04111531_14959.png,n04111531_14959.png,0.0,-2.5133245,-1.5117618,-0.7082118
alexnet_w3_mlp_simclrhn_probe0,1,547,NaN,clock,clock,cr,0547_cl_dnn_cr_clock_40_n04548280_6743.png,n04548280_6743.png,1.0,5.9474144,-1.857087,5.518616
alexnet_w3_mlp_simclrhn_probe0,1,548,NaN,car,knife,bw,0548_cl_dnn_bw_knife_40_n03041632_15299.png,n03041632_15299.png,0.0,-6.3384647,-4.68281,-1.1707249
alexnet_w3_mlp_simclrhn_probe0,1,549,NaN,knife,clock,bw,0549_cl_dnn_bw_clock_40_n03196217_127.png,n03196217_127.png,0.0,-3.8458939,-2.1169584,-1.222542
alexnet_w3_mlp_simclrhn_probe0,1,550,NaN,boat,boat,bw,0550_cl_dnn_bw_boat_40_n04273569_12917.png,n04273569_12917.png,1.0,4.3965583,-0.3910154,3.385326
alexnet_w3_mlp_simclrhn_probe0,1,551,NaN,airplane,airplane,cr,0551_cl_dnn_cr_airplane_40_n02690373_9626.png,n02690373_9626.png,1.0,9.920915,3.249215,4.717604
alexnet_w3_mlp_simclrhn_probe0,1,552,NaN,bear,bear,cr,0552_cl_dnn_cr_bear_40_n02134084_20500.png,n02134084_20500.png,1.0,-0.9397335,-3.0638092,1.5019484
alexnet_w3_mlp_simclrhn_probe0,1,553,NaN,bear,bear,bw,0553_cl_dnn_bw_bear_40_n02132136_6890.png,n02132136_6890.png,1.0,1.2879971,0.4104489,0.6205203
alexnet_w3_mlp_simclrhn_probe0,1,554,NaN,bottle,bottle,bw,0554_cl_dnn_bw_bottle_40_n02823428_3049.png,n02823428_3049.png,1.0,2.1879017,-3.1082203,3.7449238
alexnet_w3_mlp_simclrhn_probe0,1,555,NaN,knife,keyboard,cr,0555_cl_dnn_cr_keyboard_40_n03085013_22837.png,n03085013_22837.png,0.0,-1.5231619,1.5398252,-2.165859
alexnet_w3_mlp_simclrhn_probe0,1,556,NaN,keyboard,keyboard,bw,0556_cl_dnn_bw_keyboard_40_n03085013_3264.png,n03085013_3264.png,1.0,6.8605213,-0.773681,5.398196
alexnet_w3_mlp_simclrhn_probe0,1,557,NaN,bear,bear,bw,0557_cl_dnn_bw_bear_40_n02134418_7795.png,n02134418_7795.png,1.0,3.630312,1.8163148,1.2826897
alexnet_w3_mlp_simclrhn_probe0,1,558,NaN,bear,boat,bw,0558_cl_dnn_bw_boat_40_n02951358_34163.png,n02951358_34163.png,0.0,-5.5269074,0.014877491,-3.9186337
alexnet_w3_mlp_simclrhn_probe0,1,559,NaN,bear,bear,cr,0559_cl_dnn_cr_bear_40_n02132136_8637.png,n02132136_8637.png,1.0,1.7577466,-2.0719051,2.7079728
alexnet_w3_mlp_simclrhn_probe0,1,560,NaN,truck,truck,cr,0560_cl_dnn_cr_truck_40_n03417042_4218.png,n03417042_4218.png,1.0,5.5518055,0.8991268,3.2899406
alexnet_w3_mlp_simclrhn_probe0,1,561,NaN,truck,clock,bw,0561_cl_dnn_bw_clock_40_n04548280_4473.png,n04548280_4473.png,0.0,-1.9957298,-0.04194571,-1.381534
alexnet_w3_mlp_simclrhn_probe0,1,562,NaN,bear,bear,bw,0562_cl_dnn_bw_bear_40_n02132136_21799.png,n02132136_21799.png,1.0,1.7306882,0.23461032,1.0578868
alexnet_w3_mlp_simclrhn_probe0,1,563,NaN,bird,bird,cr,0563_cl_dnn_cr_bird_40_n01531178_5780.png,n01531178_5780.png,1.0,-2.4813786,-5.185018,1.9117619
alexnet_w3_mlp_simclrhn_probe0,1,564,NaN,truck,truck,cr,0564_cl_dnn_cr_truck_40_n03796401_27184.png,n03796401_27184.png,1.0,6.007063,2.3335984,2.5975318
alexnet_w3_mlp_simclrhn_probe0,1,565,NaN,keyboard,clock,bw,0565_cl_dnn_bw_clock_40_n03196217_5258.png,n03196217_5258.png,0.0,-1.6589283,-0.9094692,-0.52994764
alexnet_w3_mlp_simclrhn_probe0,1,566,NaN,airplane,bird,cr,0566_cl_dnn_cr_bird_40_n02002556_15337.png,n02002556_15337.png,0.0,-3.1769254,0.403908,-2.5320315
alexnet_w3_mlp_simclrhn_probe0,1,567,NaN,elephant,bottle,cr,0567_cl_dnn_cr_bottle_40_n04560804_3683.png,n04560804_3683.png,0.0,-5.580829,-4.8818016,-0.49428713
alexnet_w3_mlp_simclrhn_probe0,1,568,NaN,bicycle,bicycle,cr,0568_cl_dnn_cr_bicycle_40_n02835271_8511.png,n02835271_8511.png,1.0,5.8636317,-7.44063,9.407535
alexnet_w3_mlp_simclrhn_probe0,1,569,NaN,bear,bear,cr,0569_cl_dnn_cr_bear_40_n02134084_23974.png,n02134084_23974.png,1.0,-0.98595935,-0.99174905,0.0040939343
alexnet_w3_mlp_simclrhn_probe0,1,570,NaN,bicycle,dog,bw,0570_cl_dnn_bw_dog_40_n02091244_9271.png,n02091244_9271.png,0.0,-5.8909016,-4.2693753,-1.1465923
alexnet_w3_mlp_simclrhn_probe0,1,571,NaN,bear,bear,cr,0571_cl_dnn_cr_bear_40_n02133161_6946.png,n02133161_6946.png,1.0,-0.7316748,-2.3881512,1.1713057
alexnet_w3_mlp_simclrhn_probe0,1,572,NaN,airplane,truck,bw,0572_cl_dnn_bw_truck_40_n04467665_10060.png,n04467665_10060.png,0.0,-0.19639601,0.17674112,-0.2638478
alexnet_w3_mlp_simclrhn_probe0,1,573,NaN,oven,oven,bw,0573_cl_dnn_bw_oven_40_n04111531_5328.png,n04111531_5328.png,1.0,7.443519,1.5932719,4.1367497
alexnet_w3_mlp_simclrhn_probe0,1,574,NaN,bottle,bottle,cr,0574_cl_dnn_cr_bottle_40_n04560804_2005.png,n04560804_2005.png,1.0,-2.070451,-2.233746,0.11546703
alexnet_w3_mlp_simclrhn_probe0,1,575,NaN,bear,bear,bw,0575_cl_dnn_bw_bear_40_n02134084_3695.png,n02134084_3695.png,1.0,-1.7914499,-2.3637338,0.4046658
alexnet_w3_mlp_simclrhn_probe0,1,576,NaN,cat,cat,bw,0576_cl_dnn_bw_cat_40_n02123597_2219.png,n02123597_2219.png,1.0,-0.047717452,-2.2057998,1.5259948
alexnet_w3_mlp_simclrhn_probe0,1,577,NaN,keyboard,chair,bw,0577_cl_dnn_bw_chair_40_n02791124_6077.png,n02791124_6077.png,0.0,-3.1230388,-1.3202983,-1.27473
alexnet_w3_mlp_simclrhn_probe0,1,578,NaN,knife,bottle,cr,0578_cl_dnn_cr_bottle_40_n04579145_7431.png,n04579145_7431.png,0.0,-5.788712,-4.917504,-0.61603725
alexnet_w3_mlp_simclrhn_probe0,1,579,NaN,keyboard,keyboard,bw,0579_cl_dnn_bw_keyboard_40_n04505470_510.png,n04505470_510.png,1.0,2.2600145,-1.7506027,2.8359346
alexnet_w3_mlp_simclrhn_probe0,1,580,NaN,oven,oven,cr,0580_cl_dnn_cr_oven_40_n04111531_4452.png,n04111531_4452.png,1.0,5.5500636,-4.450133,7.071207
alexnet_w3_mlp_simclrhn_probe0,1,581,NaN,elephant,elephant,bw,0581_cl_dnn_bw_elephant_40_n02504013_237.png,n02504013_237.png,1.0,4.6027803,-5.191402,6.9255323
alexnet_w3_mlp_simclrhn_probe0,1,582,NaN,elephant,elephant,cr,0582_cl_dnn_cr_elephant_40_n02504013_10351.png,n02504013_10351.png,1.0,2.4431467,-0.52396494,2.0980647
alexnet_w3_mlp_simclrhn_probe0,1,583,NaN,elephant,elephant,cr,0583_cl_dnn_cr_elephant_40_n02504458_1304.png,n02504458_1304.png,1.0,7.6573114,0.26797068,5.2250533
alexnet_w3_mlp_simclrhn_probe0,1,584,NaN,cat,dog,bw,0584_cl_dnn_bw_dog_40_n02104365_9837.png,n02104365_9837.png,0.0,-5.970399,-5.003629,-0.6836094
alexnet_w3_mlp_simclrhn_probe0,1,585,NaN,cat,cat,cr,0585_cl_dnn_cr_cat_40_n02123045_9661.png,n02123045_9661.png,1.0,-1.3381075,-4.589161,2.298842
alexnet_w3_mlp_simclrhn_probe0,1,586,NaN,knife,bottle,bw,0586_cl_dnn_bw_bottle_40_n02823428_5214.png,n02823428_5214.png,0.0,-3.061361,-1.6336467,-1.0095465
alexnet_w3_mlp_simclrhn_probe0,1,587,NaN,airplane,bird,bw,0587_cl_dnn_bw_bird_40_n01828970_5448.png,n01828970_5448.png,0.0,-1.1494533,-0.9078722,-0.17082362
alexnet_w3_mlp_simclrhn_probe0,1,588,NaN,clock,car,cr,0588_cl_dnn_cr_car_40_n02814533_83874.png,n02814533_83874.png,0.0,-5.185825,-3.681856,-1.0634667
alexnet_w3_mlp_simclrhn_probe0,1,589,NaN,oven,oven,bw,0589_cl_dnn_bw_oven_40_n04111531_8036.png,n04111531_8036.png,1.0,4.6751556,-5.9661417,7.5245337
alexnet_w3_mlp_simclrhn_probe0,1,590,NaN,oven,oven,cr,0590_cl_dnn_cr_oven_40_n04111531_7355.png,n04111531_7355.png,1.0,0.033841193,-0.48756862,0.36869243
alexnet_w3_mlp_simclrhn_probe0,1,591,NaN,car,car,bw,0591_cl_dnn_bw_car_40_n04285008_13354.png,n04285008_13354.png,1.0,2.8566751,0.8308739,1.4324578
alexnet_w3_mlp_simclrhn_probe0,1,592,NaN,keyboard,clock,cr,0592_cl_dnn_cr_clock_40_n02708093_8267.png,n02708093_8267.png,0.0,-4.5208173,-2.403254,-1.4973433
alexnet_w3_mlp_simclrhn_probe0,1,593,NaN,cat,cat,bw,0593_cl_dnn_bw_cat_40_n02124075_14242.png,n02124075_14242.png,1.0,3.9693356,-2.514677,4.5848894
alexnet_w3_mlp_simclrhn_probe0,1,594,NaN,knife,knife,cr,0594_cl_dnn_cr_knife_40_n03041632_4279.png,n03041632_4279.png,1.0,-1.2330563,-2.9312663,1.2008158
alexnet_w3_mlp_simclrhn_probe0,1,595,NaN,oven,oven,cr,0595_cl_dnn_cr_oven_40_n04111531_2296.png,n04111531_2296.png,1.0,0.42027718,-6.165595,4.656915
alexnet_w3_mlp_simclrhn_probe0,1,596,NaN,boat,boat,cr,0596_cl_dnn_cr_boat_40_n03344393_5859.png,n03344393_5859.png,1.0,5.087959,2.4885879,1.8380328
alexnet_w3_mlp_simclrhn_probe0,1,597,NaN,truck,car,cr,0597_cl_dnn_cr_car_40_n02814533_57176.png,n02814533_57176.png,0.0,1.2378943,1.5785942,-0.24091122
alexnet_w3_mlp_simclrhn_probe0,1,598,NaN,elephant,cat,bw,0598_cl_dnn_bw_cat_40_n02123159_1769.png,n02123159_1769.png,0.0,-2.7988386,-2.529648,-0.19034646
alexnet_w3_mlp_simclrhn_probe0,1,599,NaN,clock,clock,cr,0599_cl_dnn_cr_clock_40_n02708093_4976.png,n02708093_4976.png,1.0,5.2587104,-0.44987807,4.036582
alexnet_w3_mlp_simclrhn_probe0,1,600,NaN,car,truck,cr,0600_cl_dnn_cr_truck_40_n03796401_8864.png,n03796401_8864.png,0.0,-0.67495286,0.9733734,-1.1655427
alexnet_w3_mlp_simclrhn_probe0,1,601,NaN,clock,clock,bw,0601_cl_dnn_bw_clock_40_n03196217_868.png,n03196217_868.png,1.0,6.4143753,3.8838625,1.7893428
alexnet_w3_mlp_simclrhn_probe0,1,602,NaN,knife,keyboard,bw,0602_cl_dnn_bw_keyboard_40_n03085013_3910.png,n03085013_3910.png,0.0,-5.231791,-4.3169317,-0.6469032
alexnet_w3_mlp_simclrhn_probe0,1,603,NaN,bicycle,bicycle,cr,0603_cl_dnn_cr_bicycle_40_n03792782_5466.png,n03792782_5466.png,1.0,6.685131,-5.3683143,8.523073
alexnet_w3_mlp_simclrhn_probe0,1,604,NaN,bear,bear,bw,0604_cl_dnn_bw_bear_40_n02132136_23248.png,n02132136_23248.png,1.0,2.374658,-0.9418869,2.3451514
alexnet_w3_mlp_simclrhn_probe0,1,605,NaN,truck,truck,bw,0605_cl_dnn_bw_truck_40_n03417042_2794.png,n03417042_2794.png,1.0,1.3302917,-2.9672894,3.0388489
alexnet_w3_mlp_simclrhn_probe0,1,606,NaN,chair,chair,bw,0606_cl_dnn_bw_chair_40_n02791124_7324.png,n02791124_7324.png,1.0,-1.3217444,-2.6498337,0.9391009
alexnet_w3_mlp_simclrhn_probe0,1,607,NaN,bicycle,bicycle,bw,0607_cl_dnn_bw_bicycle_40_n02835271_6736.png,n02835271_6736.png,1.0,3.897277,-3.687447,5.36321
alexnet_w3_mlp_simclrhn_probe0,1,608,NaN,clock,clock,bw,0608_cl_dnn_bw_clock_40_n04548280_8990.png,n04548280_8990.png,1.0,7.2693553,-2.6723144,7.029822
alexnet_w3_mlp_simclrhn_probe0,1,609,NaN,airplane,airplane,bw,0609_cl_dnn_bw_airplane_40_n02690373_971.png,n02690373_971.png,1.0,-2.064776,-3.9161985,1.3091534
alexnet_w3_mlp_simclrhn_probe0,1,610,NaN,bear,bear,bw,0610_cl_dnn_bw_bear_40_n02132136_23853.png,n02132136_23853.png,1.0,0.3286184,0.2736542,0.03886557
alexnet_w3_mlp_simclrhn_probe0,1,611,NaN,bottle,clock,cr,0611_cl_dnn_cr_clock_40_n03196217_3416.png,n03196217_3416.png,0.0,1.1711957,1.218548,-0.033483144
alexnet_w3_mlp_simclrhn_probe0,1,612,NaN,knife,clock,bw,0612_cl_dnn_bw_clock_40_n04548280_4346.png,n04548280_4346.png,0.0,-2.7141898,-1.2843837,-1.0110257
alexnet_w3_mlp_simclrhn_probe0,1,613,NaN,oven,oven,cr,0613_cl_dnn_cr_oven_40_n04111531_2342.png,n04111531_2342.png,1.0,7.939495,0.39134425,5.337349
alexnet_w3_mlp_simclrhn_probe0,1,614,NaN,chair,chair,bw,0614_cl_dnn_bw_chair_40_n04099969_8509.png,n04099969_8509.png,1.0,-0.52980983,-1.0989063,0.40241197
alexnet_w3_mlp_simclrhn_probe0,1,615,NaN,clock,bottle,bw,0615_cl_dnn_bw_bottle_40_n03937543_4340.png,n03937543_4340.png,0.0,-2.0430467,-1.4762154,-0.4008103
alexnet_w3_mlp_simclrhn_probe0,1,616,NaN,boat,clock,bw,0616_cl_dnn_bw_clock_40_n02708093_6655.png,n02708093_6655.png,0.0,-6.208364,-1.55104,-3.2932253
alexnet_w3_mlp_simclrhn_probe0,1,617,NaN,cat,cat,cr,0617_cl_dnn_cr_cat_40_n02123159_1339.png,n02123159_1339.png,1.0,5.9870486,-2.8878024,6.2754674
alexnet_w3_mlp_simclrhn_probe0,1,618,NaN,chair,knife,bw,0618_cl_dnn_bw_knife_40_n03041632_30553.png,n03041632_30553.png,0.0,-3.3870983,-3.2189202,-0.118919864
alexnet_w3_mlp_simclrhn_probe0,1,619,NaN,bicycle,bicycle,cr,0619_cl_dnn_cr_bicycle_40_n03792782_18707.png,n03792782_18707.png,1.0,5.142028,-3.8448868,6.354708
alexnet_w3_mlp_simclrhn_probe0,1,620,NaN,elephant,elephant,bw,0620_cl_dnn_bw_elephant_40_n02504458_3648.png,n02504458_3648.png,1.0,8.324171,-3.9390748,8.671424
alexnet_w3_mlp_simclrhn_probe0,1,621,NaN,elephant,elephant,cr,0621_cl_dnn_cr_elephant_40_n02504458_1179.png,n02504458_1179.png,1.0,8.311925,2.3929124,4.185374
alexnet_w3_mlp_simclrhn_probe0,1,622,NaN,clock,clock,bw,0622_cl_dnn_bw_clock_40_n02708093_391.png,n02708093_391.png,1.0,3.2567055,-1.1506807,3.1164927
alexnet_w3_mlp_simclrhn_probe0,1,623,NaN,airplane,car,cr,0623_cl_dnn_cr_car_40_n04285008_3453.png,n04285008_3453.png,0.0,-1.6985569,1.3290064,-2.1408105
alexnet_w3_mlp_simclrhn_probe0,1,624,NaN,airplane,airplane,bw,0624_cl_dnn_bw_airplane_40_n02690373_2800.png,n02690373_2800.png,1.0,5.6095495,-2.1700559,5.501012
alexnet_w3_mlp_simclrhn_probe0,1,625,NaN,cat,cat,cr,0625_cl_dnn_cr_cat_40_n02123394_979.png,n02123394_979.png,1.0,1.2994987,-0.5051665,1.276091
alexnet_w3_mlp_simclrhn_probe0,1,626,NaN,bear,dog,cr,0626_cl_dnn_cr_dog_40_n02105641_4701.png,n02105641_4701.png,0.0,-2.3312364,0.24380505,-1.8208292
alexnet_w3_mlp_simclrhn_probe0,1,627,NaN,boat,boat,cr,0627_cl_dnn_cr_boat_40_n04273569_13641.png,n04273569_13641.png,1.0,3.104622,2.0678658,0.73309726
alexnet_w3_mlp_simclrhn_probe0,1,628,NaN,truck,car,cr,0628_cl_dnn_cr_car_40_n02814533_74825.png,n02814533_74825.png,0.0,-3.6417305,-2.439598,-0.850036
alexnet_w3_mlp_simclrhn_probe0,1,629,NaN,airplane,airplane,cr,0629_cl_dnn_cr_airplane_40_n02690373_6812.png,n02690373_6812.png,1.0,8.765406,-0.58737683,6.6134157
alexnet_w3_mlp_simclrhn_probe0,1,630,NaN,car,car,bw,0630_cl_dnn_bw_car_40_n03100240_19223.png,n03100240_19223.png,1.0,12.08239,6.890429,3.6712708
alexnet_w3_mlp_simclrhn_probe0,1,631,NaN,bottle,bottle,bw,0631_cl_dnn_bw_bottle_40_n03983396_3817.png,n03983396_3817.png,1.0,0.82961494,-6.061487,4.872745
alexnet_w3_mlp_simclrhn_probe0,1,632,NaN,elephant,elephant,bw,0632_cl_dnn_bw_elephant_40_n02504013_1432.png,n02504013_1432.png,1.0,2.283474,-4.8939066,5.0751743
alexnet_w3_mlp_simclrhn_probe0,1,633,NaN,boat,boat,cr,0633_cl_dnn_cr_boat_40_n03662601_35008.png,n03662601_35008.png,1.0,3.2713082,2.9944253,0.19578578
alexnet_w3_mlp_simclrhn_probe0,1,634,NaN,oven,oven,bw,0634_cl_dnn_bw_oven_40_n04111531_14055.png,n04111531_14055.png,1.0,1.7032845,-4.2802134,4.230972
alexnet_w3_mlp_simclrhn_probe0,1,635,NaN,airplane,airplane,bw,0635_cl_dnn_bw_airplane_40_n02690373_9812.png,n02690373_9812.png,1.0,9.2072735,2.483996,4.754075
alexnet_w3_mlp_simclrhn_probe0,1,636,NaN,truck,car,cr,0636_cl_dnn_cr_car_40_n04285008_6200.png,n04285008_6200.png,0.0,-0.2176765,0.8858514,-0.78031206
alexnet_w3_mlp_simclrhn_probe0,1,637,NaN,clock,clock,cr,0637_cl_dnn_cr_clock_40_n04548280_5889.png,n04548280_5889.png,1.0,2.7316582,-2.04215,3.3755925
alexnet_w3_mlp_simclrhn_probe0,1,638,NaN,chair,chair,bw,0638_cl_dnn_bw_chair_40_n03376595_2924.png,n03376595_2924.png,1.0,-2.6794937,-3.0428402,0.25692484
alexnet_w3_mlp_simclrhn_probe0,1,639,NaN,airplane,airplane,bw,0639_cl_dnn_bw_airplane_40_n02690373_693.png,n02690373_693.png,1.0,5.0891514,2.0185046,2.1712751
alexnet_w3_mlp_simclrhn_probe0,1,640,NaN,bicycle,bicycle,bw,0640_cl_dnn_bw_bicycle_40_n03792782_1778.png,n03792782_1778.png,1.0,5.3846846,-4.1466665,6.739683
alexnet_w3_mlp_simclrhn_probe0,1,641,NaN,clock,clock,cr,0641_cl_dnn_cr_clock_40_n02708093_444.png,n02708093_444.png,1.0,4.376944,-1.0952997,3.8694608
alexnet_w3_mlp_simclrhn_probe0,1,642,NaN,clock,clock,cr,0642_cl_dnn_cr_clock_40_n02708093_3385.png,n02708093_3385.png,1.0,2.2556856,-2.1082366,3.085759
alexnet_w3_mlp_simclrhn_probe0,1,643,NaN,clock,clock,cr,0643_cl_dnn_cr_clock_40_n03196217_970.png,n03196217_970.png,1.0,1.2689503,0.023507893,0.8806608
alexnet_w3_mlp_simclrhn_probe0,1,644,NaN,clock,clock,bw,0644_cl_dnn_bw_clock_40_n04548280_4839.png,n04548280_4839.png,1.0,0.1277744,-1.778712,1.3480895
