subj,session,trial,rt,object_response,category,condition,imagename,filename,is_correct,targ_act,max_nontarg_act,decision_margin
alexnet_w3_mlp_simclrhn_probe1,1,1,NaN,oven,oven,cr,0001_cl_dnn_cr_oven_40_n04111531_14126.png,n04111531_14126.png,1.0,7.8126526,1.8010416,4.250851
alexnet_w3_mlp_simclrhn_probe1,1,2,NaN,bear,bear,cr,0002_cl_dnn_cr_bear_40_n02134084_5274.png,n02134084_5274.png,1.0,8.532368,5.5986466,2.074454
alexnet_w3_mlp_simclrhn_probe1,1,3,NaN,cat,cat,cr,0003_cl_dnn_cr_cat_40_n02123394_133.png,n02123394_133.png,1.0,0.8479447,0.5191703,0.2324786
alexnet_w3_mlp_simclrhn_probe1,1,4,NaN,car,car,cr,0004_cl_dnn_cr_car_40_n02814533_51190.png,n02814533_51190.png,1.0,13.939526,8.476741,3.8627722
alexnet_w3_mlp_simclrhn_probe1,1,5,NaN,chair,chair,bw,0005_cl_dnn_bw_chair_40_n04099969_14986.png,n04099969_14986.png,1.0,2.4858277,-1.1035688,2.5380867
alexnet_w3_mlp_simclrhn_probe1,1,6,NaN,elephant,elephant,cr,0006_cl_dnn_cr_elephant_40_n02504013_6731.png,n02504013_6731.png,1.0,5.2791443,0.6403852,3.2800982
alexnet_w3_mlp_simclrhn_probe1,1,7,NaN,bottle,bottle,cr,0007_cl_dnn_cr_bottle_40_n02823428_987.png,n02823428_987.png,1.0,13.295652,4.416151,6.2787557
alexnet_w3_mlp_simclrhn_probe1,1,8,NaN,chair,truck,cr,0008_cl_dnn_cr_truck_40_n03417042_7458.png,n03417042_7458.png,0.0,0.124190986,1.0228575,-0.6354532
alexnet_w3_mlp_simclrhn_probe1,1,9,NaN,chair,chair,bw,0009_cl_dnn_bw_chair_40_n04099969_4577.png,n04099969_4577.png,1.0,1.5219206,-1.2678739,1.9726826
alexnet_w3_mlp_simclrhn_probe1,1,10,NaN,bicycle,knife,cr,0010_cl_dnn_cr_knife_40_n03041632_83472.png,n03041632_83472.png,0.0,-2.42103,-2.3000607,-0.08553821
alexnet_w3_mlp_simclrhn_probe1,1,11,NaN,elephant,elephant,bw,0011_cl_dnn_bw_elephant_40_n02504458_3485.png,n02504458_3485.png,1.0,12.637655,-1.1074439,9.719253
alexnet_w3_mlp_simclrhn_probe1,1,12,NaN,elephant,bear,bw,0012_cl_dnn_bw_bear_40_n02133161_1066.png,n02133161_1066.png,0.0,0.03649211,3.0312874,-2.11764
alexnet_w3_mlp_simclrhn_probe1,1,13,NaN,elephant,elephant,bw,0013_cl_dnn_bw_elephant_40_n02504013_1060.png,n02504013_1060.png,1.0,4.5168447,0.20820987,3.046665
alexnet_w3_mlp_simclrhn_probe1,1,14,NaN,elephant,bear,bw,0014_cl_dnn_bw_bear_40_n02134084_1009.png,n02134084_1009.png,0.0,-0.18006286,-0.047799885,-0.093524046
alexnet_w3_mlp_simclrhn_probe1,1,15,NaN,cat,cat,cr,0015_cl_dnn_cr_cat_40_n02125311_13383.png,n02125311_13383.png,1.0,5.818058,0.23193769,3.9499836
alexnet_w3_mlp_simclrhn_probe1,1,16,NaN,elephant,elephant,bw,0016_cl_dnn_bw_elephant_40_n02504013_257.png,n02504013_257.png,1.0,13.5622225,-2.9484005,11.674774
alexnet_w3_mlp_simclrhn_probe1,1,17,NaN,cat,cat,bw,0017_cl_dnn_bw_cat_40_n02123045_6445.png,n02123045_6445.png,1.0,-0.042742014,-0.35898823,0.22361985
alexnet_w3_mlp_simclrhn_probe1,1,18,NaN,airplane,airplane,bw,0018_cl_dnn_bw_airplane_40_n02690373_3493.png,n02690373_3493.png,1.0,12.449906,1.218085,7.942097
alexnet_w3_mlp_simclrhn_probe1,1,19,NaN,airplane,airplane,bw,0019_cl_dnn_bw_airplane_40_n02690373_5184.png,n02690373_5184.png,1.0,6.6924143,-0.050724942,4.76812
alexnet_w3_mlp_simclrhn_probe1,1,20,NaN,car,truck,bw,0020_cl_dnn_bw_truck_40_n04467665_22637.png,n04467665_22637.png,0.0,0.7753471,1.3487936,-0.40548792
alexnet_w3_mlp_simclrhn_probe1,1,21,NaN,cat,cat,cr,0021_cl_dnn_cr_cat_40_n02123159_10952.png,n02123159_10952.png,1.0,5.466104,-0.9211638,4.5164804
alexnet_w3_mlp_simclrhn_probe1,1,22,NaN,airplane,airplane,bw,0022_cl_dnn_bw_airplane_40_n02690373_3620.png,n02690373_3620.png,1.0,6.9042883,1.5154347,3.810495
alexnet_w3_mlp_simclrhn_probe1,1,23,NaN,bottle,bottle,cr,0023_cl_dnn_cr_bottle_40_n04557648_10744.png,n04557648_10744.png,1.0,-2.514322,-2.8457112,0.23432754
alexnet_w3_mlp_simclrhn_probe1,1,24,NaN,oven,oven,bw,0024_cl_dnn_bw_oven_40_n04111531_12702.png,n04111531_12702.png,1.0,6.7343693,-1.0463599,5.5018067
alexnet_w3_mlp_simclrhn_probe1,1,25,NaN,elephant,bear,cr,0025_cl_dnn_cr_bear_40_n02133161_9949.png,n02133161_9949.png,0.0,-1.7824522,0.5712753,-1.6643368
alexnet_w3_mlp_simclrhn_probe1,1,26,NaN,bottle,keyboard,cr,0026_cl_dnn_cr_keyboard_40_n03085013_3489.png,n03085013_3489.png,0.0,-2.6872358,-1.1480981,-1.0883347
alexnet_w3_mlp_simclrhn_probe1,1,27,NaN,elephant,elephant,bw,0027_cl_dnn_bw_elephant_40_n02504458_4633.png,n02504458_4633.png,1.0,4.619376,0.1614685,3.152217
alexnet_w3_mlp_simclrhn_probe1,1,28,NaN,clock,clock,cr,0028_cl_dnn_cr_clock_40_n04548280_7816.png,n04548280_7816.png,1.0,1.3422464,-0.8894677,1.5780603
alexnet_w3_mlp_simclrhn_probe1,1,29,NaN,dog,dog,bw,0029_cl_dnn_bw_dog_40_n02097474_1859.png,n02097474_1859.png,1.0,1.2550911,-2.3375955,2.5404131
alexnet_w3_mlp_simclrhn_probe1,1,30,NaN,cat,cat,bw,0030_cl_dnn_bw_cat_40_n02123394_916.png,n02123394_916.png,1.0,3.2562447,0.015973793,2.2912176
alexnet_w3_mlp_simclrhn_probe1,1,31,NaN,elephant,elephant,cr,0031_cl_dnn_cr_elephant_40_n02504458_3525.png,n02504458_3525.png,1.0,9.21143,-2.347085,8.173104
alexnet_w3_mlp_simclrhn_probe1,1,32,NaN,bear,bear,bw,0032_cl_dnn_bw_bear_40_n02134418_4456.png,n02134418_4456.png,1.0,3.5018396,-2.014946,3.9009566
alexnet_w3_mlp_simclrhn_probe1,1,33,NaN,keyboard,keyboard,bw,0033_cl_dnn_bw_keyboard_40_n03085013_24045.png,n03085013_24045.png,1.0,4.6607633,0.73182905,2.778176
alexnet_w3_mlp_simclrhn_probe1,1,34,NaN,oven,knife,bw,0034_cl_dnn_bw_knife_40_n03041632_49363.png,n03041632_49363.png,0.0,-1.7787637,1.1910614,-2.0999835
alexnet_w3_mlp_simclrhn_probe1,1,35,NaN,cat,cat,bw,0035_cl_dnn_bw_cat_40_n02123159_7854.png,n02123159_7854.png,1.0,3.4180892,-0.8373171,3.0090268
alexnet_w3_mlp_simclrhn_probe1,1,36,NaN,oven,knife,cr,0036_cl_dnn_cr_knife_40_n03041632_4708.png,n03041632_4708.png,0.0,-2.2380996,3.0681913,-3.752114
alexnet_w3_mlp_simclrhn_probe1,1,37,NaN,chair,chair,cr,0037_cl_dnn_cr_chair_40_n04429376_7788.png,n04429376_7788.png,1.0,0.74128854,0.04642175,0.49134502
alexnet_w3_mlp_simclrhn_probe1,1,38,NaN,car,car,cr,0038_cl_dnn_cr_car_40_n03100240_9086.png,n03100240_9086.png,1.0,9.728915,5.197068,3.2044997
alexnet_w3_mlp_simclrhn_probe1,1,39,NaN,knife,chair,cr,0039_cl_dnn_cr_chair_40_n03376595_3038.png,n03376595_3038.png,0.0,-3.0080497,-2.5539117,-0.3211241
alexnet_w3_mlp_simclrhn_probe1,1,40,NaN,truck,truck,bw,0040_cl_dnn_bw_truck_40_n03796401_1758.png,n03796401_1758.png,1.0,1.5489159,0.3585881,0.8416889
alexnet_w3_mlp_simclrhn_probe1,1,41,NaN,boat,boat,cr,0041_cl_dnn_cr_boat_40_n04273569_4324.png,n04273569_4324.png,1.0,5.3112698,-1.3038306,4.6775823
alexnet_w3_mlp_simclrhn_probe1,1,42,NaN,elephant,bear,cr,0042_cl_dnn_cr_bear_40_n02134084_1090.png,n02134084_1090.png,0.0,0.16970965,1.396357,-0.86737067
alexnet_w3_mlp_simclrhn_probe1,1,43,NaN,bicycle,bicycle,bw,0043_cl_dnn_bw_bicycle_40_n03792782_13665.png,n03792782_13665.png,1.0,1.8153884,-4.32754,4.343706
alexnet_w3_mlp_simclrhn_probe1,1,44,NaN,knife,knife,bw,0044_cl_dnn_bw_knife_40_n03041632_36215.png,n03041632_36215.png,1.0,1.3083866,-2.123625,2.4267988
alexnet_w3_mlp_simclrhn_probe1,1,45,NaN,car,car,bw,0045_cl_dnn_bw_car_40_n04285008_7770.png,n04285008_7770.png,1.0,12.707713,7.484212,3.6935732
alexnet_w3_mlp_simclrhn_probe1,1,46,NaN,bottle,bottle,cr,0046_cl_dnn_cr_bottle_40_n03983396_15260.png,n03983396_15260.png,1.0,6.2180395,-0.332891,4.6322074
alexnet_w3_mlp_simclrhn_probe1,1,47,NaN,dog,dog,cr,0047_cl_dnn_cr_dog_40_n02091635_6519.png,n02091635_6519.png,1.0,0.9003509,-0.41331422,0.92890155
alexnet_w3_mlp_simclrhn_probe1,1,48,NaN,elephant,elephant,cr,0048_cl_dnn_cr_elephant_40_n02504013_3485.png,n02504013_3485.png,1.0,13.90617,4.0424094,6.974732
alexnet_w3_mlp_simclrhn_probe1,1,49,NaN,oven,oven,cr,0049_cl_dnn_cr_oven_40_n04111531_807.png,n04111531_807.png,1.0,2.948971,-0.9918736,2.786598
alexnet_w3_mlp_simclrhn_probe1,1,50,NaN,oven,oven,cr,0050_cl_dnn_cr_oven_40_n04111531_605.png,n04111531_605.png,1.0,4.5770235,-1.4106555,4.2339287
alexnet_w3_mlp_simclrhn_probe1,1,51,NaN,elephant,dog,bw,0051_cl_dnn_bw_dog_40_n02109047_2662.png,n02109047_2662.png,0.0,-1.1117463,4.8866067,-4.241476
alexnet_w3_mlp_simclrhn_probe1,1,52,NaN,truck,truck,cr,0052_cl_dnn_cr_truck_40_n03417042_16038.png,n03417042_16038.png,1.0,2.525007,-1.7476916,3.021254
alexnet_w3_mlp_simclrhn_probe1,1,53,NaN,truck,truck,bw,0053_cl_dnn_bw_truck_40_n03796401_1710.png,n03796401_1710.png,1.0,5.1505795,0.2749688,3.4475775
alexnet_w3_mlp_simclrhn_probe1,1,54,NaN,cat,cat,cr,0054_cl_dnn_cr_cat_40_n02125311_20921.png,n02125311_20921.png,1.0,4.6217365,-0.12633443,3.357393
alexnet_w3_mlp_simclrhn_probe1,1,55,NaN,bird,bear,cr,0055_cl_dnn_cr_bear_40_n02133161_575.png,n02133161_575.png,0.0,-4.6417375,-3.42524,-0.8601936
alexnet_w3_mlp_simclrhn_probe1,1,56,NaN,chair,chair,bw,0056_cl_dnn_bw_chair_40_n04429376_21865.png,n04429376_21865.png,1.0,-3.4017346,-3.7418325,0.24048553
alexnet_w3_mlp_simclrhn_probe1,1,57,NaN,bicycle,bird,bw,0057_cl_dnn_bw_bird_40_n01616318_26436.png,n01616318_26436.png,0.0,-3.9791653,-3.9452987,-0.023947334
alexnet_w3_mlp_simclrhn_probe1,1,58,NaN,oven,oven,cr,0058_cl_dnn_cr_oven_40_n04111531_9498.png,n04111531_9498.png,1.0,5.0834723,-0.7562475,4.1293054
alexnet_w3_mlp_simclrhn_probe1,1,59,NaN,bear,bear,bw,0059_cl_dnn_bw_bear_40_n02134418_397.png,n02134418_397.png,1.0,6.004591,1.3388942,3.2991457
alexnet_w3_mlp_simclrhn_probe1,1,60,NaN,chair,chair,cr,0060_cl_dnn_cr_chair_40_n04099969_23961.png,n04099969_23961.png,1.0,-0.26061332,-2.207595,1.376724
alexnet_w3_mlp_simclrhn_probe1,1,61,NaN,elephant,dog,bw,0061_cl_dnn_bw_dog_40_n02093256_7181.png,n02093256_7181.png,0.0,-4.5557084,-1.8963165,-1.8804741
alexnet_w3_mlp_simclrhn_probe1,1,62,NaN,bicycle,bicycle,cr,0062_cl_dnn_cr_bicycle_40_n02835271_26731.png,n02835271_26731.png,1.0,7.7744255,-2.6023316,7.3374753
alexnet_w3_mlp_simclrhn_probe1,1,63,NaN,cat,cat,cr,0063_cl_dnn_cr_cat_40_n02125311_12557.png,n02125311_12557.png,1.0,1.2696216,-1.0514638,1.6412553
alexnet_w3_mlp_simclrhn_probe1,1,64,NaN,dog,dog,cr,0064_cl_dnn_cr_dog_40_n02093647_2890.png,n02093647_2890.png,1.0,-0.06234495,-2.4134855,1.6625074
alexnet_w3_mlp_simclrhn_probe1,1,65,NaN,keyboard,knife,cr,0065_cl_dnn_cr_knife_40_n03041632_14293.png,n03041632_14293.png,0.0,-1.3291609,-0.3205857,-0.71317035
alexnet_w3_mlp_simclrhn_probe1,1,66,NaN,oven,oven,bw,0066_cl_dnn_bw_oven_40_n04111531_20359.png,n04111531_20359.png,1.0,6.9326077,-4.3457623,7.975012
alexnet_w3_mlp_simclrhn_probe1,1,67,NaN,truck,truck,bw,0067_cl_dnn_bw_truck_40_n04467665_12177.png,n04467665_12177.png,1.0,10.155304,4.808541,3.7807326
alexnet_w3_mlp_simclrhn_probe1,1,68,NaN,bicycle,bicycle,cr,0068_cl_dnn_cr_bicycle_40_n02835271_19400.png,n02835271_19400.png,1.0,2.7345104,-3.2294703,4.217171
alexnet_w3_mlp_simclrhn_probe1,1,69,NaN,truck,truck,cr,0069_cl_dnn_cr_truck_40_n03417042_1263.png,n03417042_1263.png,1.0,4.0171375,1.8958223,1.4999964
alexnet_w3_mlp_simclrhn_probe1,1,70,NaN,cat,cat,bw,0070_cl_dnn_bw_cat_40_n02123045_8336.png,n02123045_8336.png,1.0,4.7744174,-2.4743702,5.125667
alexnet_w3_mlp_simclrhn_probe1,1,71,NaN,bear,bear,bw,0071_cl_dnn_bw_bear_40_n02134418_5405.png,n02134418_5405.png,1.0,6.277419,3.1483111,2.2126136
alexnet_w3_mlp_simclrhn_probe1,1,72,NaN,car,car,bw,0072_cl_dnn_bw_car_40_n04285008_2906.png,n04285008_2906.png,1.0,9.586872,6.0450583,2.5044405
alexnet_w3_mlp_simclrhn_probe1,1,73,NaN,elephant,bird,cr,0073_cl_dnn_cr_bird_40_n01818515_10517.png,n01818515_10517.png,0.0,-1.1441778,1.0228927,-1.5323502
alexnet_w3_mlp_simclrhn_probe1,1,74,NaN,truck,truck,cr,0074_cl_dnn_cr_truck_40_n03796401_14203.png,n03796401_14203.png,1.0,1.8965721,-2.9271414,3.4108803
alexnet_w3_mlp_simclrhn_probe1,1,75,NaN,bird,bird,bw,0075_cl_dnn_bw_bird_40_n02009229_2503.png,n02009229_2503.png,1.0,0.31442437,-3.286666,2.5463552
alexnet_w3_mlp_simclrhn_probe1,1,76,NaN,bottle,bottle,bw,0076_cl_dnn_bw_bottle_40_n02823428_6767.png,n02823428_6767.png,1.0,6.3054495,-2.090845,5.937077
alexnet_w3_mlp_simclrhn_probe1,1,77,NaN,bicycle,bicycle,bw,0077_cl_dnn_bw_bicycle_40_n02835271_12847.png,n02835271_12847.png,1.0,7.9326296,-4.451193,8.756685
alexnet_w3_mlp_simclrhn_probe1,1,78,NaN,bicycle,bicycle,cr,0078_cl_dnn_cr_bicycle_40_n02835271_24104.png,n02835271_24104.png,1.0,16.102383,-1.8986993,12.728687
alexnet_w3_mlp_simclrhn_probe1,1,79,NaN,clock,clock,cr,0079_cl_dnn_cr_clock_40_n04548280_77.png,n04548280_77.png,1.0,5.658903,-1.8482376,5.30835
alexnet_w3_mlp_simclrhn_probe1,1,80,NaN,cat,cat,bw,0080_cl_dnn_bw_cat_40_n02123394_6698.png,n02123394_6698.png,1.0,6.9233594,-4.0294805,7.7448273
alexnet_w3_mlp_simclrhn_probe1,1,81,NaN,keyboard,keyboard,cr,0081_cl_dnn_cr_keyboard_40_n04505470_4356.png,n04505470_4356.png,1.0,13.976791,-2.010051,11.304404
alexnet_w3_mlp_simclrhn_probe1,1,82,NaN,chair,chair,cr,0082_cl_dnn_cr_chair_40_n04429376_16325.png,n04429376_16325.png,1.0,0.017403603,-2.3725781,1.6899723
alexnet_w3_mlp_simclrhn_probe1,1,83,NaN,elephant,elephant,bw,0083_cl_dnn_bw_elephant_40_n02504458_6721.png,n02504458_6721.png,1.0,1.1004316,-0.9020705,1.4159827
alexnet_w3_mlp_simclrhn_probe1,1,84,NaN,truck,truck,cr,0084_cl_dnn_cr_truck_40_n03417042_6213.png,n03417042_6213.png,1.0,16.671291,8.087016,6.069999
alexnet_w3_mlp_simclrhn_probe1,1,85,NaN,cat,dog,bw,0085_cl_dnn_bw_dog_40_n02097130_8277.png,n02097130_8277.png,0.0,-1.5965952,-0.8273315,-0.5439516
alexnet_w3_mlp_simclrhn_probe1,1,86,NaN,knife,bottle,cr,0086_cl_dnn_cr_bottle_40_n04557648_1856.png,n04557648_1856.png,0.0,-4.667533,-0.7395179,-2.7775261
alexnet_w3_mlp_simclrhn_probe1,1,87,NaN,bird,bird,bw,0087_cl_dnn_bw_bird_40_n01531178_10905.png,n01531178_10905.png,1.0,0.4179623,-3.963838,3.098401
alexnet_w3_mlp_simclrhn_probe1,1,88,NaN,bear,bear,cr,0088_cl_dnn_cr_bear_40_n02133161_2202.png,n02133161_2202.png,1.0,0.68642765,-0.54685307,0.87206113
alexnet_w3_mlp_simclrhn_probe1,1,89,NaN,elephant,elephant,cr,0089_cl_dnn_cr_elephant_40_n02504458_10439.png,n02504458_10439.png,1.0,3.1838377,-2.0558608,3.7050264
alexnet_w3_mlp_simclrhn_probe1,1,90,NaN,clock,clock,cr,0090_cl_dnn_cr_clock_40_n02708093_6766.png,n02708093_6766.png,1.0,-0.6798825,-2.1992204,1.0743341
alexnet_w3_mlp_simclrhn_probe1,1,91,NaN,oven,bottle,bw,0091_cl_dnn_bw_bottle_40_n03983396_2057.png,n03983396_2057.png,0.0,-0.24726954,-0.06817576,-0.12663843
alexnet_w3_mlp_simclrhn_probe1,1,92,NaN,keyboard,knife,bw,0092_cl_dnn_bw_knife_40_n03041632_10000.png,n03041632_10000.png,0.0,-0.39217088,1.1664037,-1.1020787
alexnet_w3_mlp_simclrhn_probe1,1,93,NaN,cat,cat,cr,0093_cl_dnn_cr_cat_40_n02125311_2959.png,n02125311_2959.png,1.0,7.0063853,-2.459041,6.6930676
alexnet_w3_mlp_simclrhn_probe1,1,94,NaN,car,car,bw,0094_cl_dnn_bw_car_40_n04285008_13759.png,n04285008_13759.png,1.0,11.767906,5.119754,4.7009535
alexnet_w3_mlp_simclrhn_probe1,1,95,NaN,bicycle,bottle,cr,0095_cl_dnn_cr_bottle_40_n03937543_396.png,n03937543_396.png,0.0,-5.018052,-1.9615612,-2.1612654
alexnet_w3_mlp_simclrhn_probe1,1,96,NaN,boat,boat,bw,0096_cl_dnn_bw_boat_40_n03662601_3984.png,n03662601_3984.png,1.0,2.4548593,-0.32145742,1.9631524
alexnet_w3_mlp_simclrhn_probe1,1,97,NaN,truck,truck,bw,0097_cl_dnn_bw_truck_40_n04467665_2230.png,n04467665_2230.png,1.0,3.884066,1.420291,1.7421521
alexnet_w3_mlp_simclrhn_probe1,1,98,NaN,boat,boat,cr,0098_cl_dnn_cr_boat_40_n03662601_28640.png,n03662601_28640.png,1.0,6.5384836,-1.7306573,5.847166
alexnet_w3_mlp_simclrhn_probe1,1,99,NaN,cat,cat,cr,0099_cl_dnn_cr_cat_40_n02124075_11039.png,n02124075_11039.png,1.0,2.061835,-4.823589,4.86873
alexnet_w3_mlp_simclrhn_probe1,1,100,NaN,clock,knife,bw,0100_cl_dnn_bw_knife_40_n03041632_7380.png,n03041632_7380.png,0.0,-0.8110612,1.33999,-1.5210229
alexnet_w3_mlp_simclrhn_probe1,1,101,NaN,cat,cat,cr,0101_cl_dnn_cr_cat_40_n02123045_6607.png,n02123045_6607.png,1.0,16.214138,-6.4318876,16.013159
alexnet_w3_mlp_simclrhn_probe1,1,102,NaN,chair,chair,cr,0102_cl_dnn_cr_chair_40_n03376595_6704.png,n03376595_6704.png,1.0,0.8958051,-1.2145591,1.4922528
alexnet_w3_mlp_simclrhn_probe1,1,103,NaN,bear,bear,bw,0103_cl_dnn_bw_bear_40_n02133161_12187.png,n02133161_12187.png,1.0,8.131468,1.3470418,4.7973137
alexnet_w3_mlp_simclrhn_probe1,1,104,NaN,cat,dog,cr,0104_cl_dnn_cr_dog_40_n02110958_2363.png,n02110958_2363.png,0.0,-0.38483384,-0.2826815,-0.07223262
alexnet_w3_mlp_simclrhn_probe1,1,105,NaN,airplane,airplane,cr,0105_cl_dnn_cr_airplane_40_n02690373_19438.png,n02690373_19438.png,1.0,10.198542,-2.4915216,8.97323
alexnet_w3_mlp_simclrhn_probe1,1,106,NaN,bird,bird,cr,0106_cl_dnn_cr_bird_40_n01855032_5511.png,n01855032_5511.png,1.0,-0.028986448,-3.7172205,2.6079755
alexnet_w3_mlp_simclrhn_probe1,1,107,NaN,boat,boat,bw,0107_cl_dnn_bw_boat_40_n04273569_9821.png,n04273569_9821.png,1.0,8.277315,-2.2857473,7.4692135
alexnet_w3_mlp_simclrhn_probe1,1,108,NaN,bicycle,bear,bw,0108_cl_dnn_bw_bear_40_n02133161_13461.png,n02133161_13461.png,0.0,-4.163498,-2.4274306,-1.227585
alexnet_w3_mlp_simclrhn_probe1,1,109,NaN,knife,dog,cr,0109_cl_dnn_cr_dog_40_n02113023_8552.png,n02113023_8552.png,0.0,-3.1013937,-1.6360415,-1.0361605
alexnet_w3_mlp_simclrhn_probe1,1,110,NaN,elephant,elephant,cr,0110_cl_dnn_cr_elephant_40_n02504458_1600.png,n02504458_1600.png,1.0,12.074816,-0.59292185,8.957443
alexnet_w3_mlp_simclrhn_probe1,1,111,NaN,chair,chair,cr,0111_cl_dnn_cr_chair_40_n04099969_4205.png,n04099969_4205.png,1.0,4.3820744,-3.1868486,5.352037
alexnet_w3_mlp_simclrhn_probe1,1,112,NaN,dog,dog,bw,0112_cl_dnn_bw_dog_40_n02105505_2121.png,n02105505_2121.png,1.0,1.3664984,-5.6628,4.9704647
alexnet_w3_mlp_simclrhn_probe1,1,113,NaN,chair,chair,cr,0113_cl_dnn_cr_chair_40_n02791124_4528.png,n02791124_4528.png,1.0,1.9565675,-0.6479443,1.8416679
alexnet_w3_mlp_simclrhn_probe1,1,114,NaN,airplane,truck,bw,0114_cl_dnn_bw_truck_40_n03417042_5659.png,n03417042_5659.png,0.0,1.3147626,2.518238,-0.8509857
alexnet_w3_mlp_simclrhn_probe1,1,115,NaN,elephant,elephant,cr,0115_cl_dnn_cr_elephant_40_n02504013_10330.png,n02504013_10330.png,1.0,15.816236,-1.1697359,12.010896
alexnet_w3_mlp_simclrhn_probe1,1,116,NaN,cat,cat,cr,0116_cl_dnn_cr_cat_40_n02123394_1594.png,n02123394_1594.png,1.0,3.1243048,-1.9789761,3.6085646
alexnet_w3_mlp_simclrhn_probe1,1,117,NaN,boat,bear,bw,0117_cl_dnn_bw_bear_40_n02132136_10654.png,n02132136_10654.png,0.0,-2.5548096,-1.3638685,-0.84212255
alexnet_w3_mlp_simclrhn_probe1,1,118,NaN,bottle,bottle,bw,0118_cl_dnn_bw_bottle_40_n02823428_5265.png,n02823428_5265.png,1.0,3.2692363,-0.681202,2.7933817
alexnet_w3_mlp_simclrhn_probe1,1,119,NaN,airplane,truck,cr,0119_cl_dnn_cr_truck_40_n04467665_3125.png,n04467665_3125.png,0.0,-0.72123134,1.1076677,-1.293227
alexnet_w3_mlp_simclrhn_probe1,1,120,NaN,airplane,airplane,cr,0120_cl_dnn_cr_airplane_40_n02690373_60.png,n02690373_60.png,1.0,16.5718,2.1036007,10.230562
alexnet_w3_mlp_simclrhn_probe1,1,121,NaN,keyboard,keyboard,cr,0121_cl_dnn_cr_keyboard_40_n03085013_21645.png,n03085013_21645.png,1.0,0.0016661882,-1.6835352,1.1916174
alexnet_w3_mlp_simclrhn_probe1,1,122,NaN,car,car,bw,0122_cl_dnn_bw_car_40_n03100240_9471.png,n03100240_9471.png,1.0,1.2923964,0.7818845,0.36098647
alexnet_w3_mlp_simclrhn_probe1,1,123,NaN,boat,boat,cr,0123_cl_dnn_cr_boat_40_n03344393_9818.png,n03344393_9818.png,1.0,5.2462034,2.7658935,1.753844
alexnet_w3_mlp_simclrhn_probe1,1,124,NaN,elephant,elephant,bw,0124_cl_dnn_bw_elephant_40_n02504458_5444.png,n02504458_5444.png,1.0,6.1132183,-1.061384,5.0732102
alexnet_w3_mlp_simclrhn_probe1,1,125,NaN,bottle,bottle,bw,0125_cl_dnn_bw_bottle_40_n04557648_26823.png,n04557648_26823.png,1.0,5.17059,-3.892538,6.408599
alexnet_w3_mlp_simclrhn_probe1,1,126,NaN,elephant,bottle,cr,0126_cl_dnn_cr_bottle_40_n02823428_765.png,n02823428_765.png,0.0,-3.1708167,-2.3075666,-0.61041
alexnet_w3_mlp_simclrhn_probe1,1,127,NaN,cat,cat,bw,0127_cl_dnn_bw_cat_40_n02123045_1787.png,n02123045_1787.png,1.0,7.0892024,-4.156469,7.9518905
alexnet_w3_mlp_simclrhn_probe1,1,128,NaN,car,car,bw,0128_cl_dnn_bw_car_40_n02814533_35863.png,n02814533_35863.png,1.0,7.363123,6.9145737,0.31717223
alexnet_w3_mlp_simclrhn_probe1,1,129,NaN,boat,boat,bw,0129_cl_dnn_bw_boat_40_n02951358_7944.png,n02951358_7944.png,1.0,-2.9677405,-3.0882978,0.08524689
alexnet_w3_mlp_simclrhn_probe1,1,130,NaN,dog,dog,bw,0130_cl_dnn_bw_dog_40_n02091467_3727.png,n02091467_3727.png,1.0,2.3388746,2.0549107,0.20079282
alexnet_w3_mlp_simclrhn_probe1,1,131,NaN,bicycle,bicycle,cr,0131_cl_dnn_cr_bicycle_40_n02835271_5886.png,n02835271_5886.png,1.0,-0.293016,-3.130786,2.0066063
alexnet_w3_mlp_simclrhn_probe1,1,132,NaN,truck,truck,bw,0132_cl_dnn_bw_truck_40_n04467665_18234.png,n04467665_18234.png,1.0,8.081878,3.2561636,3.4122953
alexnet_w3_mlp_simclrhn_probe1,1,133,NaN,elephant,elephant,cr,0133_cl_dnn_cr_elephant_40_n02504013_4892.png,n02504013_4892.png,1.0,12.094685,1.6959692,7.353002
alexnet_w3_mlp_simclrhn_probe1,1,134,NaN,keyboard,keyboard,cr,0134_cl_dnn_cr_keyboard_40_n03085013_19618.png,n03085013_19618.png,1.0,7.5848327,-1.8367556,6.662069
alexnet_w3_mlp_simclrhn_probe1,1,135,NaN,clock,clock,cr,0135_cl_dnn_cr_clock_40_n03196217_3430.png,n03196217_3430.png,1.0,1.3796444,-0.5328989,1.3523724
alexnet_w3_mlp_simclrhn_probe1,1,136,NaN,bicycle,bicycle,bw,0136_cl_dnn_bw_bicycle_40_n03792782_24591.png,n03792782_24591.png,1.0,12.4224415,-4.0708323,11.662506
alexnet_w3_mlp_simclrhn_probe1,1,137,NaN,elephant,bird,cr,0137_cl_dnn_cr_bird_40_n02007558_2822.png,n02007558_2822.png,0.0,-7.5532637,-3.6064584,-2.7908127
alexnet_w3_mlp_simclrhn_probe1,1,138,NaN,truck,truck,bw,0138_cl_dnn_bw_truck_40_n04467665_71126.png,n04467665_71126.png,1.0,11.3286705,6.791413,3.2083256
alexnet_w3_mlp_simclrhn_probe1,1,139,NaN,bicycle,bicycle,cr,0139_cl_dnn_cr_bicycle_40_n02835271_22263.png,n02835271_22263.png,1.0,12.261122,-0.7755971,9.218352
alexnet_w3_mlp_simclrhn_probe1,1,140,NaN,car,car,bw,0140_cl_dnn_bw_car_40_n04285008_5548.png,n04285008_5548.png,1.0,5.9666047,5.377065,0.4168674
alexnet_w3_mlp_simclrhn_probe1,1,141,NaN,oven,oven,bw,0141_cl_dnn_bw_oven_40_n04111531_13006.png,n04111531_13006.png,1.0,2.2941263,0.074663416,1.5693973
alexnet_w3_mlp_simclrhn_probe1,1,142,NaN,car,car,bw,0142_cl_dnn_bw_car_40_n04285008_11410.png,n04285008_11410.png,1.0,6.2579713,-0.10115427,4.496581
alexnet_w3_mlp_simclrhn_probe1,1,143,NaN,oven,chair,bw,0143_cl_dnn_bw_chair_40_n04429376_2304.png,n04429376_2304.png,0.0,-1.9489449,4.6454077,-4.6629114
alexnet_w3_mlp_simclrhn_probe1,1,144,NaN,boat,boat,cr,0144_cl_dnn_cr_boat_40_n03662601_27165.png,n03662601_27165.png,1.0,7.2463684,2.737601,3.18818
alexnet_w3_mlp_simclrhn_probe1,1,145,NaN,truck,truck,bw,0145_cl_dnn_bw_truck_40_n04467665_70308.png,n04467665_70308.png,1.0,2.632329,0.65230757,1.4000866
alexnet_w3_mlp_simclrhn_probe1,1,146,NaN,bicycle,bicycle,cr,0146_cl_dnn_cr_bicycle_40_n03792782_51414.png,n03792782_51414.png,1.0,3.7636342,-1.9324399,4.027733
alexnet_w3_mlp_simclrhn_probe1,1,147,NaN,knife,knife,cr,0147_cl_dnn_cr_knife_40_n03041632_44738.png,n03041632_44738.png,1.0,3.1876662,-1.4315138,3.2662535
alexnet_w3_mlp_simclrhn_probe1,1,148,NaN,elephant,elephant,bw,0148_cl_dnn_bw_elephant_40_n02504458_11363.png,n02504458_11363.png,1.0,8.432934,-2.6969185,7.869994
alexnet_w3_mlp_simclrhn_probe1,1,149,NaN,truck,truck,cr,0149_cl_dnn_cr_truck_40_n04467665_4899.png,n04467665_4899.png,1.0,7.2629843,2.427103,3.4194844
alexnet_w3_mlp_simclrhn_probe1,1,150,NaN,bear,bear,cr,0150_cl_dnn_cr_bear_40_n02134418_685.png,n02134418_685.png,1.0,0.06988487,-0.9441419,0.7170252
alexnet_w3_mlp_simclrhn_probe1,1,151,NaN,keyboard,keyboard,bw,0151_cl_dnn_bw_keyboard_40_n04505470_4363.png,n04505470_4363.png,1.0,4.8006525,-1.2791119,4.2990427
alexnet_w3_mlp_simclrhn_probe1,1,152,NaN,oven,oven,bw,0152_cl_dnn_bw_oven_40_n04111531_12468.png,n04111531_12468.png,1.0,6.5306883,-0.69174945,5.1070347
alexnet_w3_mlp_simclrhn_probe1,1,153,NaN,oven,bottle,cr,0153_cl_dnn_cr_bottle_40_n04591713_5559.png,n04591713_5559.png,0.0,-4.812764,-3.3988853,-0.99976337
alexnet_w3_mlp_simclrhn_probe1,1,154,NaN,elephant,elephant,cr,0154_cl_dnn_cr_elephant_40_n02504013_3197.png,n02504013_3197.png,1.0,0.88144517,-1.2967074,1.5401865
alexnet_w3_mlp_simclrhn_probe1,1,155,NaN,oven,bird,bw,0155_cl_dnn_bw_bird_40_n01817953_5039.png,n01817953_5039.png,0.0,-3.204092,0.70282745,-2.7626092
alexnet_w3_mlp_simclrhn_probe1,1,156,NaN,bicycle,bicycle,cr,0156_cl_dnn_cr_bicycle_40_n03792782_3296.png,n03792782_3296.png,1.0,8.419112,-0.09253168,6.0186415
alexnet_w3_mlp_simclrhn_probe1,1,157,NaN,dog,bird,cr,0157_cl_dnn_cr_bird_40_n01855672_5670.png,n01855672_5670.png,0.0,-6.2546306,-4.5401855,-1.2122958
alexnet_w3_mlp_simclrhn_probe1,1,158,NaN,oven,oven,cr,0158_cl_dnn_cr_oven_40_n04111531_2260.png,n04111531_2260.png,1.0,9.611906,-0.6942417,7.287547
alexnet_w3_mlp_simclrhn_probe1,1,159,NaN,cat,cat,cr,0159_cl_dnn_cr_cat_40_n02123045_5932.png,n02123045_5932.png,1.0,-0.18053381,-2.5943146,1.7068007
alexnet_w3_mlp_simclrhn_probe1,1,160,NaN,dog,dog,cr,0160_cl_dnn_cr_dog_40_n02100583_1267.png,n02100583_1267.png,1.0,-3.2536771,-5.310836,1.4546309
alexnet_w3_mlp_simclrhn_probe1,1,161,NaN,dog,dog,bw,0161_cl_dnn_bw_dog_40_n02099601_8005.png,n02099601_8005.png,1.0,2.5984278,0.097706676,1.7682768
alexnet_w3_mlp_simclrhn_probe1,1,162,NaN,bicycle,boat,cr,0162_cl_dnn_cr_boat_40_n02951358_12080.png,n02951358_12080.png,0.0,-5.401072,-3.4085002,-1.408961
alexnet_w3_mlp_simclrhn_probe1,1,163,NaN,oven,oven,cr,0163_cl_dnn_cr_oven_40_n04111531_20028.png,n04111531_20028.png,1.0,7.2719364,-4.56326,8.368748
alexnet_w3_mlp_simclrhn_probe1,1,164,NaN,cat,cat,bw,0164_cl_dnn_bw_cat_40_n02123159_2107.png,n02123159_2107.png,1.0,7.17221,-4.2574725,8.082006
alexnet_w3_mlp_simclrhn_probe1,1,165,NaN,bear,bear,cr,0165_cl_dnn_cr_bear_40_n02134418_1351.png,n02134418_1351.png,1.0,4.200881,1.2800701,2.0653253
alexnet_w3_mlp_simclrhn_probe1,1,166,NaN,oven,oven,cr,0166_cl_dnn_cr_oven_40_n04111531_6609.png,n04111531_6609.png,1.0,3.6896133,-0.3692767,2.8700686
alexnet_w3_mlp_simclrhn_probe1,1,167,NaN,airplane,knife,bw,0167_cl_dnn_bw_knife_40_n03041632_21477.png,n03041632_21477.png,0.0,0.13111195,1.9583857,-1.2920777
alexnet_w3_mlp_simclrhn_probe1,1,168,NaN,cat,cat,cr,0168_cl_dnn_cr_cat_40_n02123394_238.png,n02123394_238.png,1.0,2.4259794,-1.1309881,2.5151558
alexnet_w3_mlp_simclrhn_probe1,1,169,NaN,elephant,elephant,cr,0169_cl_dnn_cr_elephant_40_n02504013_3141.png,n02504013_3141.png,1.0,1.1797355,-2.138853,2.3465967
alexnet_w3_mlp_simclrhn_probe1,1,170,NaN,elephant,elephant,cr,0170_cl_dnn_cr_elephant_40_n02504013_5035.png,n02504013_5035.png,1.0,6.6688833,-3.912415,7.482108
alexnet_w3_mlp_simclrhn_probe1,1,171,NaN,dog,dog,cr,0171_cl_dnn_cr_dog_40_n02089867_2298.png,n02089867_2298.png,1.0,3.428525,-2.2661011,4.0267086
alexnet_w3_mlp_simclrhn_probe1,1,172,NaN,chair,bear,bw,0172_cl_dnn_bw_bear_40_n02134418_2503.png,n02134418_2503.png,0.0,-5.0832205,-2.4463198,-1.8645704
alexnet_w3_mlp_simclrhn_probe1,1,173,NaN,keyboard,keyboard,cr,0173_cl_dnn_cr_keyboard_40_n04505470_4878.png,n04505470_4878.png,1.0,-3.256354,-7.4590034,2.9717216
alexnet_w3_mlp_simclrhn_probe1,1,174,NaN,bottle,knife,bw,0174_cl_dnn_bw_knife_40_n03041632_22734.png,n03041632_22734.png,0.0,-3.7395203,-2.4735904,-0.8951477
alexnet_w3_mlp_simclrhn_probe1,1,175,NaN,bear,bear,cr,0175_cl_dnn_cr_bear_40_n02132136_8896.png,n02132136_8896.png,1.0,2.215625,1.3304293,0.6259279
alexnet_w3_mlp_simclrhn_probe1,1,176,NaN,bicycle,boat,bw,0176_cl_dnn_bw_boat_40_n02951358_5952.png,n02951358_5952.png,0.0,-2.0352626,1.3526521,-2.3956175
alexnet_w3_mlp_simclrhn_probe1,1,177,NaN,keyboard,chair,bw,0177_cl_dnn_bw_chair_40_n04099969_1775.png,n04099969_1775.png,0.0,-2.5095258,-1.2733593,-0.8741017
alexnet_w3_mlp_simclrhn_probe1,1,178,NaN,airplane,airplane,bw,0178_cl_dnn_bw_airplane_40_n02690373_6524.png,n02690373_6524.png,1.0,3.9661217,1.1144803,2.016415
alexnet_w3_mlp_simclrhn_probe1,1,179,NaN,bird,bear,cr,0179_cl_dnn_cr_bear_40_n02133161_1916.png,n02133161_1916.png,0.0,-2.849051,-0.44670525,-1.698715
alexnet_w3_mlp_simclrhn_probe1,1,180,NaN,keyboard,knife,bw,0180_cl_dnn_bw_knife_40_n03041632_96714.png,n03041632_96714.png,0.0,-0.42831218,1.3944877,-1.2889142
alexnet_w3_mlp_simclrhn_probe1,1,181,NaN,truck,truck,bw,0181_cl_dnn_bw_truck_40_n03417042_13635.png,n03417042_13635.png,1.0,8.251303,4.578278,2.5972207
alexnet_w3_mlp_simclrhn_probe1,1,182,NaN,boat,boat,bw,0182_cl_dnn_bw_boat_40_n04612504_1748.png,n04612504_1748.png,1.0,3.3162484,0.773101,1.7982769
alexnet_w3_mlp_simclrhn_probe1,1,183,NaN,bird,bird,cr,0183_cl_dnn_cr_bird_40_n01592084_3341.png,n01592084_3341.png,1.0,4.5458226,-5.6233144,7.1906657
alexnet_w3_mlp_simclrhn_probe1,1,184,NaN,car,car,bw,0184_cl_dnn_bw_car_40_n02814533_12388.png,n02814533_12388.png,1.0,11.38718,1.1953576,7.2067075
alexnet_w3_mlp_simclrhn_probe1,1,185,NaN,bicycle,bicycle,cr,0185_cl_dnn_cr_bicycle_40_n03792782_5864.png,n03792782_5864.png,1.0,7.281725,-2.4767127,6.900258
alexnet_w3_mlp_simclrhn_probe1,1,186,NaN,cat,bird,bw,0186_cl_dnn_bw_bird_40_n01514859_17156.png,n01514859_17156.png,0.0,-4.546964,-0.30292168,-3.000991
alexnet_w3_mlp_simclrhn_probe1,1,187,NaN,car,car,cr,0187_cl_dnn_cr_car_40_n03100240_7737.png,n03100240_7737.png,1.0,6.246412,0.82642055,3.8325129
alexnet_w3_mlp_simclrhn_probe1,1,188,NaN,bottle,bottle,bw,0188_cl_dnn_bw_bottle_40_n04579145_1829.png,n04579145_1829.png,1.0,-1.3480042,-2.347533,0.7067736
alexnet_w3_mlp_simclrhn_probe1,1,189,NaN,bear,elephant,bw,0189_cl_dnn_bw_elephant_40_n02504013_22388.png,n02504013_22388.png,0.0,0.8297807,1.5753828,-0.5272203
alexnet_w3_mlp_simclrhn_probe1,1,190,NaN,airplane,airplane,bw,0190_cl_dnn_bw_airplane_40_n02690373_7107.png,n02690373_7107.png,1.0,5.53074,-0.14249206,4.011581
alexnet_w3_mlp_simclrhn_probe1,1,191,NaN,car,car,bw,0191_cl_dnn_bw_car_40_n02814533_45594.png,n02814533_45594.png,1.0,13.411372,10.880451,1.7896314
alexnet_w3_mlp_simclrhn_probe1,1,192,NaN,boat,boat,cr,0192_cl_dnn_cr_boat_40_n04612504_18536.png,n04612504_18536.png,1.0,1.5146737,0.58300984,0.6587859
alexnet_w3_mlp_simclrhn_probe1,1,193,NaN,elephant,dog,cr,0193_cl_dnn_cr_dog_40_n02088466_6371.png,n02088466_6371.png,0.0,-2.5144575,2.1792562,-3.3189569
alexnet_w3_mlp_simclrhn_probe1,1,194,NaN,oven,bear,bw,0194_cl_dnn_bw_bear_40_n02133161_1003.png,n02133161_1003.png,0.0,-0.88808286,-0.27974203,-0.43016195
alexnet_w3_mlp_simclrhn_probe1,1,195,NaN,knife,knife,bw,0195_cl_dnn_bw_knife_40_n03041632_29037.png,n03041632_29037.png,1.0,-0.4300568,-1.6927036,0.89282614
alexnet_w3_mlp_simclrhn_probe1,1,196,NaN,airplane,airplane,cr,0196_cl_dnn_cr_airplane_40_n02690373_4015.png,n02690373_4015.png,1.0,1.6488565,-0.8592185,1.7734768
alexnet_w3_mlp_simclrhn_probe1,1,197,NaN,knife,knife,bw,0197_cl_dnn_bw_knife_40_n03041632_28009.png,n03041632_28009.png,1.0,-0.48764828,-2.6979768,1.5629383
alexnet_w3_mlp_simclrhn_probe1,1,198,NaN,bird,bird,bw,0198_cl_dnn_bw_bird_40_n01560419_5714.png,n01560419_5714.png,1.0,2.7672915,-4.8838735,5.4101906
alexnet_w3_mlp_simclrhn_probe1,1,199,NaN,bird,cat,cr,0199_cl_dnn_cr_cat_40_n02125311_6429.png,n02125311_6429.png,0.0,-4.109422,-2.6007917,-1.0667629
alexnet_w3_mlp_simclrhn_probe1,1,200,NaN,chair,chair,bw,0200_cl_dnn_bw_chair_40_n04099969_9847.png,n04099969_9847.png,1.0,1.06292,-2.7312024,2.6828496
alexnet_w3_mlp_simclrhn_probe1,1,201,NaN,cat,cat,bw,0201_cl_dnn_bw_cat_40_n02123597_7142.png,n02123597_7142.png,1.0,2.1508887,-0.13269256,1.6147358
alexnet_w3_mlp_simclrhn_probe1,1,202,NaN,bicycle,bicycle,cr,0202_cl_dnn_cr_bicycle_40_n02835271_8982.png,n02835271_8982.png,1.0,0.5576204,-0.014105171,0.40427107
alexnet_w3_mlp_simclrhn_probe1,1,203,NaN,bird,bird,bw,0203_cl_dnn_bw_bird_40_n01592084_19555.png,n01592084_19555.png,1.0,6.64684,0.6237817,4.2589455
alexnet_w3_mlp_simclrhn_probe1,1,204,NaN,knife,knife,cr,0204_cl_dnn_cr_knife_40_n03041632_8618.png,n03041632_8618.png,1.0,-0.39665726,-0.6319621,0.16638567
alexnet_w3_mlp_simclrhn_probe1,1,205,NaN,car,boat,bw,0205_cl_dnn_bw_boat_40_n03344393_547.png,n03344393_547.png,0.0,2.933655,3.4072227,-0.33486295
alexnet_w3_mlp_simclrhn_probe1,1,206,NaN,bird,bird,bw,0206_cl_dnn_bw_bird_40_n01843383_5962.png,n01843383_5962.png,1.0,-2.3875787,-4.5386143,1.5210118
alexnet_w3_mlp_simclrhn_probe1,1,207,NaN,keyboard,keyboard,cr,0207_cl_dnn_cr_keyboard_40_n04505470_213.png,n04505470_213.png,1.0,8.313292,-1.35175,6.8342166
alexnet_w3_mlp_simclrhn_probe1,1,208,NaN,elephant,elephant,cr,0208_cl_dnn_cr_elephant_40_n02504458_2607.png,n02504458_2607.png,1.0,7.1176305,-3.7981653,7.7186337
alexnet_w3_mlp_simclrhn_probe1,1,209,NaN,bear,bear,bw,0209_cl_dnn_bw_bear_40_n02134418_4157.png,n02134418_4157.png,1.0,1.937527,0.5000819,1.0164272
alexnet_w3_mlp_simclrhn_probe1,1,210,NaN,bottle,bottle,cr,0210_cl_dnn_cr_bottle_40_n03983396_11519.png,n03983396_11519.png,1.0,5.135642,-3.5182514,6.119227
alexnet_w3_mlp_simclrhn_probe1,1,211,NaN,cat,cat,cr,0211_cl_dnn_cr_cat_40_n02124075_1999.png,n02124075_1999.png,1.0,5.9734464,-3.999597,7.0520067
alexnet_w3_mlp_simclrhn_probe1,1,212,NaN,cat,cat,bw,0212_cl_dnn_bw_cat_40_n02124075_11252.png,n02124075_11252.png,1.0,-0.57332367,-3.650625,2.1759806
alexnet_w3_mlp_simclrhn_probe1,1,213,NaN,airplane,airplane,bw,0213_cl_dnn_bw_airplane_40_n02690373_4195.png,n02690373_4195.png,1.0,5.8603163,2.7223983,2.2188432
alexnet_w3_mlp_simclrhn_probe1,1,214,NaN,airplane,airplane,cr,0214_cl_dnn_cr_airplane_40_n02690373_2629.png,n02690373_2629.png,1.0,5.8086295,0.98020065,3.4142148
alexnet_w3_mlp_simclrhn_probe1,1,215,NaN,keyboard,keyboard,bw,0215_cl_dnn_bw_keyboard_40_n04505470_5060.png,n04505470_5060.png,1.0,3.4659958,-1.3102243,3.3772979
alexnet_w3_mlp_simclrhn_probe1,1,216,NaN,bear,bear,cr,0216_cl_dnn_cr_bear_40_n02132136_10060.png,n02132136_10060.png,1.0,1.6838002,-0.6151991,1.625638
alexnet_w3_mlp_simclrhn_probe1,1,217,NaN,airplane,airplane,bw,0217_cl_dnn_bw_airplane_40_n02690373_4150.png,n02690373_4150.png,1.0,10.155874,1.1484338,6.3692226
alexnet_w3_mlp_simclrhn_probe1,1,218,NaN,dog,dog,cr,0218_cl_dnn_cr_dog_40_n02102040_7465.png,n02102040_7465.png,1.0,1.2065743,-2.355095,2.5184805
alexnet_w3_mlp_simclrhn_probe1,1,219,NaN,bird,bird,bw,0219_cl_dnn_bw_bird_40_n02009229_12179.png,n02009229_12179.png,1.0,0.8718888,-1.8430374,1.9197428
alexnet_w3_mlp_simclrhn_probe1,1,220,NaN,knife,knife,bw,0220_cl_dnn_bw_knife_40_n03041632_20413.png,n03041632_20413.png,1.0,1.2098093,-0.65719736,1.3201731
alexnet_w3_mlp_simclrhn_probe1,1,221,NaN,truck,truck,bw,0221_cl_dnn_bw_truck_40_n03796401_13490.png,n03796401_13490.png,1.0,3.96699,-3.0645456,4.9720464
alexnet_w3_mlp_simclrhn_probe1,1,222,NaN,oven,oven,cr,0222_cl_dnn_cr_oven_40_n04111531_584.png,n04111531_584.png,1.0,4.6918707,-2.694219,5.2227545
alexnet_w3_mlp_simclrhn_probe1,1,223,NaN,airplane,airplane,bw,0223_cl_dnn_bw_airplane_40_n02690373_3899.png,n02690373_3899.png,1.0,5.3245263,2.3158154,2.1274798
alexnet_w3_mlp_simclrhn_probe1,1,224,NaN,bird,bird,cr,0224_cl_dnn_cr_bird_40_n02027492_8707.png,n02027492_8707.png,1.0,2.5459476,-6.27431,6.2368636
alexnet_w3_mlp_simclrhn_probe1,1,225,NaN,airplane,airplane,cr,0225_cl_dnn_cr_airplane_40_n02690373_2648.png,n02690373_2648.png,1.0,10.322742,3.313352,4.9563875
alexnet_w3_mlp_simclrhn_probe1,1,226,NaN,cat,cat,bw,0226_cl_dnn_bw_cat_40_n02123394_6598.png,n02123394_6598.png,1.0,1.886191,-0.17104955,1.4546887
alexnet_w3_mlp_simclrhn_probe1,1,227,NaN,bicycle,bicycle,bw,0227_cl_dnn_bw_bicycle_40_n02835271_17168.png,n02835271_17168.png,1.0,2.2999852,-1.1570156,2.4444687
alexnet_w3_mlp_simclrhn_probe1,1,228,NaN,truck,truck,bw,0228_cl_dnn_bw_truck_40_n03417042_29849.png,n03417042_29849.png,1.0,8.18457,3.2094972,3.5179079
alexnet_w3_mlp_simclrhn_probe1,1,229,NaN,knife,knife,cr,0229_cl_dnn_cr_knife_40_n03041632_29125.png,n03041632_29125.png,1.0,-0.78279924,-1.6653328,0.6240455
alexnet_w3_mlp_simclrhn_probe1,1,230,NaN,clock,clock,bw,0230_cl_dnn_bw_clock_40_n04548280_5456.png,n04548280_5456.png,1.0,1.0118974,0.109848514,0.6378449
alexnet_w3_mlp_simclrhn_probe1,1,231,NaN,truck,truck,bw,0231_cl_dnn_bw_truck_40_n03796401_8099.png,n03796401_8099.png,1.0,2.880822,1.5398432,0.9482152
alexnet_w3_mlp_simclrhn_probe1,1,232,NaN,bear,bear,cr,0232_cl_dnn_cr_bear_40_n02132136_860.png,n02132136_860.png,1.0,0.8294657,-1.896324,1.9274244
alexnet_w3_mlp_simclrhn_probe1,1,233,NaN,truck,truck,bw,0233_cl_dnn_bw_truck_40_n03796401_4423.png,n03796401_4423.png,1.0,6.6590347,3.2298622,2.424791
alexnet_w3_mlp_simclrhn_probe1,1,234,NaN,elephant,elephant,bw,0234_cl_dnn_bw_elephant_40_n02504458_7871.png,n02504458_7871.png,1.0,12.252657,0.23237729,8.499621
alexnet_w3_mlp_simclrhn_probe1,1,235,NaN,oven,oven,cr,0235_cl_dnn_cr_oven_40_n04111531_14753.png,n04111531_14753.png,1.0,3.3438303,0.59664893,1.9425507
alexnet_w3_mlp_simclrhn_probe1,1,236,NaN,clock,clock,bw,0236_cl_dnn_bw_clock_40_n04548280_17198.png,n04548280_17198.png,1.0,4.496593,0.050383188,3.1439452
alexnet_w3_mlp_simclrhn_probe1,1,237,NaN,oven,oven,cr,0237_cl_dnn_cr_oven_40_n04111531_15947.png,n04111531_15947.png,1.0,9.208178,-2.2395716,8.094781
alexnet_w3_mlp_simclrhn_probe1,1,238,NaN,bear,elephant,bw,0238_cl_dnn_bw_elephant_40_n02504013_1103.png,n02504013_1103.png,0.0,-3.645695,-1.8490446,-1.2704237
alexnet_w3_mlp_simclrhn_probe1,1,239,NaN,bicycle,bicycle,cr,0239_cl_dnn_cr_bicycle_40_n03792782_33853.png,n03792782_33853.png,1.0,-0.7401942,-3.2652848,1.7855088
alexnet_w3_mlp_simclrhn_probe1,1,240,NaN,oven,bottle,bw,0240_cl_dnn_bw_bottle_40_n04557648_5665.png,n04557648_5665.png,0.0,-1.9979981,-1.744091,-0.17953943
alexnet_w3_mlp_simclrhn_probe1,1,241,NaN,bear,bear,bw,0241_cl_dnn_bw_bear_40_n02134418_5824.png,n02134418_5824.png,1.0,5.977418,-1.3463544,5.178689
alexnet_w3_mlp_simclrhn_probe1,1,242,NaN,truck,truck,cr,0242_cl_dnn_cr_truck_40_n04467665_54349.png,n04467665_54349.png,1.0,10.368025,6.2445617,2.9157288
alexnet_w3_mlp_simclrhn_probe1,1,243,NaN,truck,truck,cr,0243_cl_dnn_cr_truck_40_n03796401_8100.png,n03796401_8100.png,1.0,9.244028,6.0799155,2.2373655
alexnet_w3_mlp_simclrhn_probe1,1,244,NaN,elephant,elephant,cr,0244_cl_dnn_cr_elephant_40_n02504013_4288.png,n02504013_4288.png,1.0,12.042075,0.2015984,8.372481
alexnet_w3_mlp_simclrhn_probe1,1,245,NaN,boat,boat,cr,0245_cl_dnn_cr_boat_40_n03662601_4437.png,n03662601_4437.png,1.0,3.1496797,0.7233582,1.7156684
alexnet_w3_mlp_simclrhn_probe1,1,246,NaN,bicycle,bicycle,cr,0246_cl_dnn_cr_bicycle_40_n02835271_7351.png,n02835271_7351.png,1.0,12.151064,-0.66807956,9.064504
alexnet_w3_mlp_simclrhn_probe1,1,247,NaN,elephant,elephant,bw,0247_cl_dnn_bw_elephant_40_n02504458_2556.png,n02504458_2556.png,1.0,2.1219656,-0.3586886,1.7540874
alexnet_w3_mlp_simclrhn_probe1,1,248,NaN,airplane,airplane,cr,0248_cl_dnn_cr_airplane_40_n02690373_303.png,n02690373_303.png,1.0,10.166323,-2.6730812,9.07883
alexnet_w3_mlp_simclrhn_probe1,1,249,NaN,elephant,elephant,bw,0249_cl_dnn_bw_elephant_40_n02504013_5503.png,n02504013_5503.png,1.0,7.0658836,-2.4532928,6.7310743
alexnet_w3_mlp_simclrhn_probe1,1,250,NaN,airplane,truck,cr,0250_cl_dnn_cr_truck_40_n04467665_68332.png,n04467665_68332.png,0.0,1.366981,5.53157,-2.9448092
alexnet_w3_mlp_simclrhn_probe1,1,251,NaN,clock,clock,bw,0251_cl_dnn_bw_clock_40_n02708093_3079.png,n02708093_3079.png,1.0,2.7343254,-0.7324,2.451345
alexnet_w3_mlp_simclrhn_probe1,1,252,NaN,cat,cat,cr,0252_cl_dnn_cr_cat_40_n02123394_2395.png,n02123394_2395.png,1.0,2.105834,-2.6221478,3.3431878
alexnet_w3_mlp_simclrhn_probe1,1,253,NaN,chair,chair,cr,0253_cl_dnn_cr_chair_40_n04429376_20906.png,n04429376_20906.png,1.0,1.2173216,0.59384316,0.44086587
alexnet_w3_mlp_simclrhn_probe1,1,254,NaN,boat,boat,cr,0254_cl_dnn_cr_boat_40_n03344393_8160.png,n03344393_8160.png,1.0,1.7472839,0.20970237,1.0872344
alexnet_w3_mlp_simclrhn_probe1,1,255,NaN,keyboard,keyboard,cr,0255_cl_dnn_cr_keyboard_40_n03085013_21325.png,n03085013_21325.png,1.0,6.481703,-0.30198717,4.7967935
alexnet_w3_mlp_simclrhn_probe1,1,256,NaN,knife,knife,cr,0256_cl_dnn_cr_knife_40_n03041632_99875.png,n03041632_99875.png,1.0,0.40931013,-5.7236843,4.3366823
alexnet_w3_mlp_simclrhn_probe1,1,257,NaN,knife,clock,bw,0257_cl_dnn_bw_clock_40_n04548280_7384.png,n04548280_7384.png,0.0,-0.6412422,-0.03477778,-0.42883512
alexnet_w3_mlp_simclrhn_probe1,1,258,NaN,keyboard,keyboard,bw,0258_cl_dnn_bw_keyboard_40_n03085013_23534.png,n03085013_23534.png,1.0,3.5413072,-0.92809886,3.1603475
alexnet_w3_mlp_simclrhn_probe1,1,259,NaN,truck,truck,bw,0259_cl_dnn_bw_truck_40_n03417042_2383.png,n03417042_2383.png,1.0,4.9246464,2.563991,1.6692353
alexnet_w3_mlp_simclrhn_probe1,1,260,NaN,clock,clock,bw,0260_cl_dnn_bw_clock_40_n03196217_711.png,n03196217_711.png,1.0,0.012517174,-0.08003722,0.06544584
alexnet_w3_mlp_simclrhn_probe1,1,261,NaN,keyboard,keyboard,bw,0261_cl_dnn_bw_keyboard_40_n03085013_7992.png,n03085013_7992.png,1.0,3.0779219,-1.3451821,3.1276069
alexnet_w3_mlp_simclrhn_probe1,1,262,NaN,cat,cat,bw,0262_cl_dnn_bw_cat_40_n02125311_75445.png,n02125311_75445.png,1.0,3.9467325,-2.9987702,4.911212
alexnet_w3_mlp_simclrhn_probe1,1,263,NaN,knife,knife,cr,0263_cl_dnn_cr_knife_40_n03041632_47410.png,n03041632_47410.png,1.0,0.73485756,-3.4590807,2.9655623
alexnet_w3_mlp_simclrhn_probe1,1,264,NaN,oven,oven,bw,0264_cl_dnn_bw_oven_40_n04111531_741.png,n04111531_741.png,1.0,8.1341,-2.6199684,7.6042747
alexnet_w3_mlp_simclrhn_probe1,1,265,NaN,oven,oven,bw,0265_cl_dnn_bw_oven_40_n04111531_3181.png,n04111531_3181.png,1.0,-0.51983476,-1.7866737,0.8957904
alexnet_w3_mlp_simclrhn_probe1,1,266,NaN,truck,truck,bw,0266_cl_dnn_bw_truck_40_n03417042_17099.png,n03417042_17099.png,1.0,14.811546,8.03906,4.7888713
alexnet_w3_mlp_simclrhn_probe1,1,267,NaN,boat,boat,cr,0267_cl_dnn_cr_boat_40_n03662601_15143.png,n03662601_15143.png,1.0,6.788771,0.082089126,4.7423406
alexnet_w3_mlp_simclrhn_probe1,1,268,NaN,keyboard,keyboard,bw,0268_cl_dnn_bw_keyboard_40_n03085013_19197.png,n03085013_19197.png,1.0,10.880867,2.5374243,5.899705
alexnet_w3_mlp_simclrhn_probe1,1,269,NaN,airplane,airplane,cr,0269_cl_dnn_cr_airplane_40_n02690373_4202.png,n02690373_4202.png,1.0,11.992132,1.629756,7.3273067
alexnet_w3_mlp_simclrhn_probe1,1,270,NaN,bear,bear,bw,0270_cl_dnn_bw_bear_40_n02132136_10134.png,n02132136_10134.png,1.0,4.920232,-0.977608,4.1704025
alexnet_w3_mlp_simclrhn_probe1,1,271,NaN,boat,boat,bw,0271_cl_dnn_bw_boat_40_n03344393_5296.png,n03344393_5296.png,1.0,4.164362,2.562468,1.1327101
alexnet_w3_mlp_simclrhn_probe1,1,272,NaN,keyboard,keyboard,bw,0272_cl_dnn_bw_keyboard_40_n04505470_1600.png,n04505470_1600.png,1.0,3.1671622,2.020147,0.81106216
alexnet_w3_mlp_simclrhn_probe1,1,273,NaN,truck,truck,bw,0273_cl_dnn_bw_truck_40_n03417042_10043.png,n03417042_10043.png,1.0,9.408136,4.0919843,3.7590873
alexnet_w3_mlp_simclrhn_probe1,1,274,NaN,bird,bird,bw,0274_cl_dnn_bw_bird_40_n02007558_5525.png,n02007558_5525.png,1.0,-0.23984759,-4.853717,3.2624981
alexnet_w3_mlp_simclrhn_probe1,1,275,NaN,airplane,airplane,cr,0275_cl_dnn_cr_airplane_40_n02690373_6621.png,n02690373_6621.png,1.0,1.7348473,-0.93203866,1.8857731
alexnet_w3_mlp_simclrhn_probe1,1,276,NaN,keyboard,keyboard,bw,0276_cl_dnn_bw_keyboard_40_n04505470_6623.png,n04505470_6623.png,1.0,4.7078905,-1.3362582,4.2738585
alexnet_w3_mlp_simclrhn_probe1,1,277,NaN,oven,dog,cr,0277_cl_dnn_cr_dog_40_n02113624_3403.png,n02113624_3403.png,0.0,-3.7593946,-1.2862931,-1.748747
alexnet_w3_mlp_simclrhn_probe1,1,278,NaN,dog,dog,bw,0278_cl_dnn_bw_dog_40_n02106550_12642.png,n02106550_12642.png,1.0,0.29638892,-2.9414272,2.2894816
alexnet_w3_mlp_simclrhn_probe1,1,279,NaN,clock,clock,cr,0279_cl_dnn_cr_clock_40_n04548280_24041.png,n04548280_24041.png,1.0,5.5252075,-1.2687492,4.804053
alexnet_w3_mlp_simclrhn_probe1,1,280,NaN,truck,truck,bw,0280_cl_dnn_bw_truck_40_n03417042_3236.png,n03417042_3236.png,1.0,2.3508544,-0.8878702,2.2901242
alexnet_w3_mlp_simclrhn_probe1,1,281,NaN,car,car,bw,0281_cl_dnn_bw_car_40_n03100240_2583.png,n03100240_2583.png,1.0,10.465186,9.405493,0.74931633
alexnet_w3_mlp_simclrhn_probe1,1,282,NaN,knife,knife,cr,0282_cl_dnn_cr_knife_40_n03041632_45090.png,n03041632_45090.png,1.0,2.2800736,-2.8550165,3.631057
alexnet_w3_mlp_simclrhn_probe1,1,283,NaN,cat,cat,cr,0283_cl_dnn_cr_cat_40_n02123597_660.png,n02123597_660.png,1.0,1.7079235,-0.57358426,1.6132696
alexnet_w3_mlp_simclrhn_probe1,1,284,NaN,clock,clock,bw,0284_cl_dnn_bw_clock_40_n04548280_7813.png,n04548280_7813.png,1.0,0.53139925,0.3345723,0.13917768
alexnet_w3_mlp_simclrhn_probe1,1,285,NaN,dog,dog,bw,0285_cl_dnn_bw_dog_40_n02111129_797.png,n02111129_797.png,1.0,4.47,-0.4476687,3.4773166
alexnet_w3_mlp_simclrhn_probe1,1,286,NaN,knife,knife,cr,0286_cl_dnn_cr_knife_40_n03041632_3717.png,n03041632_3717.png,1.0,4.6087537,-2.1927445,4.809386
alexnet_w3_mlp_simclrhn_probe1,1,287,NaN,boat,boat,bw,0287_cl_dnn_bw_boat_40_n04273569_870.png,n04273569_870.png,1.0,2.7177258,-0.39407504,2.2003753
alexnet_w3_mlp_simclrhn_probe1,1,288,NaN,elephant,elephant,bw,0288_cl_dnn_bw_elephant_40_n02504013_720.png,n02504013_720.png,1.0,16.73794,4.1804814,8.879464
alexnet_w3_mlp_simclrhn_probe1,1,289,NaN,oven,oven,cr,0289_cl_dnn_cr_oven_40_n04111531_14876.png,n04111531_14876.png,1.0,4.398245,-1.780715,4.3691845
alexnet_w3_mlp_simclrhn_probe1,1,290,NaN,cat,cat,bw,0290_cl_dnn_bw_cat_40_n02123045_569.png,n02123045_569.png,1.0,1.9695207,-1.3140844,2.3218594
alexnet_w3_mlp_simclrhn_probe1,1,291,NaN,clock,clock,bw,0291_cl_dnn_bw_clock_40_n03196217_5888.png,n03196217_5888.png,1.0,0.87796026,-0.76225424,1.1598067
alexnet_w3_mlp_simclrhn_probe1,1,292,NaN,keyboard,keyboard,cr,0292_cl_dnn_cr_keyboard_40_n04505470_4770.png,n04505470_4770.png,1.0,11.550236,1.017155,7.4480133
alexnet_w3_mlp_simclrhn_probe1,1,293,NaN,knife,knife,cr,0293_cl_dnn_cr_knife_40_n03041632_32292.png,n03041632_32292.png,1.0,-1.7388167,-2.6403513,0.6374812
alexnet_w3_mlp_simclrhn_probe1,1,294,NaN,elephant,elephant,cr,0294_cl_dnn_cr_elephant_40_n02504013_6672.png,n02504013_6672.png,1.0,2.479667,-0.106079996,1.8283993
alexnet_w3_mlp_simclrhn_probe1,1,295,NaN,airplane,airplane,bw,0295_cl_dnn_bw_airplane_40_n02690373_5838.png,n02690373_5838.png,1.0,8.33815,0.91490185,5.249029
alexnet_w3_mlp_simclrhn_probe1,1,296,NaN,bird,bird,cr,0296_cl_dnn_cr_bird_40_n01796340_5508.png,n01796340_5508.png,1.0,-0.2014511,-4.8954077,3.3191285
alexnet_w3_mlp_simclrhn_probe1,1,297,NaN,keyboard,clock,bw,0297_cl_dnn_bw_clock_40_n03196217_6477.png,n03196217_6477.png,0.0,-0.25521612,1.2318416,-1.0515085
alexnet_w3_mlp_simclrhn_probe1,1,298,NaN,bird,bird,bw,0298_cl_dnn_bw_bird_40_n02011460_5075.png,n02011460_5075.png,1.0,-1.2153032,-6.657687,3.8483465
alexnet_w3_mlp_simclrhn_probe1,1,299,NaN,boat,boat,bw,0299_cl_dnn_bw_boat_40_n03344393_10284.png,n03344393_10284.png,1.0,4.0225563,1.9517274,1.4642972
alexnet_w3_mlp_simclrhn_probe1,1,300,NaN,oven,oven,bw,0300_cl_dnn_bw_oven_40_n04111531_14559.png,n04111531_14559.png,1.0,4.5857787,-1.2207751,4.1058536
alexnet_w3_mlp_simclrhn_probe1,1,301,NaN,knife,knife,cr,0301_cl_dnn_cr_knife_40_n03041632_24060.png,n03041632_24060.png,1.0,-0.1533221,-1.1271287,0.6885853
alexnet_w3_mlp_simclrhn_probe1,1,302,NaN,airplane,airplane,bw,0302_cl_dnn_bw_airplane_40_n02690373_4134.png,n02690373_4134.png,1.0,8.933616,-1.0657783,7.070639
alexnet_w3_mlp_simclrhn_probe1,1,303,NaN,elephant,bear,cr,0303_cl_dnn_cr_bear_40_n02134084_6669.png,n02134084_6669.png,0.0,-1.2349647,-0.48345464,-0.5313979
alexnet_w3_mlp_simclrhn_probe1,1,304,NaN,bird,bird,cr,0304_cl_dnn_cr_bird_40_n01558993_5744.png,n01558993_5744.png,1.0,0.24979004,-10.206324,7.393589
alexnet_w3_mlp_simclrhn_probe1,1,305,NaN,elephant,bird,bw,0305_cl_dnn_bw_bird_40_n01818515_10536.png,n01818515_10536.png,0.0,-7.4883256,-1.5224445,-4.2185154
alexnet_w3_mlp_simclrhn_probe1,1,306,NaN,bicycle,bottle,bw,0306_cl_dnn_bw_bottle_40_n04557648_20614.png,n04557648_20614.png,0.0,-5.999203,3.1956713,-6.5017586
alexnet_w3_mlp_simclrhn_probe1,1,307,NaN,clock,clock,cr,0307_cl_dnn_cr_clock_40_n04548280_3605.png,n04548280_3605.png,1.0,4.6593165,0.08875561,3.2318747
alexnet_w3_mlp_simclrhn_probe1,1,308,NaN,truck,truck,bw,0308_cl_dnn_bw_truck_40_n03796401_27288.png,n03796401_27288.png,1.0,8.440856,4.870729,2.524461
alexnet_w3_mlp_simclrhn_probe1,1,309,NaN,bicycle,bicycle,cr,0309_cl_dnn_cr_bicycle_40_n02835271_18276.png,n02835271_18276.png,1.0,6.6665606,0.25435877,4.5341115
alexnet_w3_mlp_simclrhn_probe1,1,310,NaN,bear,bear,cr,0310_cl_dnn_cr_bear_40_n02133161_12152.png,n02133161_12152.png,1.0,-0.0912388,-1.8498858,1.2435513
alexnet_w3_mlp_simclrhn_probe1,1,311,NaN,elephant,elephant,cr,0311_cl_dnn_cr_elephant_40_n02504013_14918.png,n02504013_14918.png,1.0,9.887449,0.3477543,6.745583
alexnet_w3_mlp_simclrhn_probe1,1,312,NaN,bicycle,bicycle,bw,0312_cl_dnn_bw_bicycle_40_n03792782_5323.png,n03792782_5323.png,1.0,9.39991,-4.6883903,9.961933
alexnet_w3_mlp_simclrhn_probe1,1,313,NaN,bicycle,truck,cr,0313_cl_dnn_cr_truck_40_n04467665_37066.png,n04467665_37066.png,0.0,-0.39126533,0.2206099,-0.43266115
alexnet_w3_mlp_simclrhn_probe1,1,314,NaN,bird,bird,bw,0314_cl_dnn_bw_bird_40_n02025239_2481.png,n02025239_2481.png,1.0,1.8020972,-5.6385856,5.2613573
alexnet_w3_mlp_simclrhn_probe1,1,315,NaN,bicycle,bicycle,bw,0315_cl_dnn_bw_bicycle_40_n02835271_5113.png,n02835271_5113.png,1.0,3.733386,-3.646627,5.218457
alexnet_w3_mlp_simclrhn_probe1,1,316,NaN,elephant,elephant,cr,0316_cl_dnn_cr_elephant_40_n02504458_6185.png,n02504458_6185.png,1.0,5.697064,-1.5393537,5.11692
alexnet_w3_mlp_simclrhn_probe1,1,317,NaN,oven,knife,cr,0317_cl_dnn_cr_knife_40_n03041632_11475.png,n03041632_11475.png,0.0,-4.0263004,-0.19288152,-2.7106366
alexnet_w3_mlp_simclrhn_probe1,1,318,NaN,cat,cat,bw,0318_cl_dnn_bw_cat_40_n02125311_31318.png,n02125311_31318.png,1.0,5.624569,-2.6380634,5.8425636
alexnet_w3_mlp_simclrhn_probe1,1,319,NaN,clock,clock,bw,0319_cl_dnn_bw_clock_40_n04548280_8585.png,n04548280_8585.png,1.0,0.29662967,-0.96690357,0.89345294
alexnet_w3_mlp_simclrhn_probe1,1,320,NaN,bear,bear,bw,0320_cl_dnn_bw_bear_40_n02134418_12628.png,n02134418_12628.png,1.0,5.1646137,0.18759222,3.519286
alexnet_w3_mlp_simclrhn_probe1,1,321,NaN,chair,chair,bw,0321_cl_dnn_bw_chair_40_n03376595_17859.png,n03376595_17859.png,1.0,1.6634533,-0.49549246,1.5266052
alexnet_w3_mlp_simclrhn_probe1,1,322,NaN,knife,knife,cr,0322_cl_dnn_cr_knife_40_n03041632_379.png,n03041632_379.png,1.0,0.24562353,-2.506979,1.946384
alexnet_w3_mlp_simclrhn_probe1,1,323,NaN,bottle,bottle,bw,0323_cl_dnn_bw_bottle_40_n04557648_1293.png,n04557648_1293.png,1.0,-0.33351263,-0.3949175,0.04341979
alexnet_w3_mlp_simclrhn_probe1,1,324,NaN,boat,boat,cr,0324_cl_dnn_cr_boat_40_n03662601_26298.png,n03662601_26298.png,1.0,13.08623,5.251148,5.54024
alexnet_w3_mlp_simclrhn_probe1,1,325,NaN,oven,oven,bw,0325_cl_dnn_bw_oven_40_n04111531_6120.png,n04111531_6120.png,1.0,6.1998787,-2.2072268,5.944721
alexnet_w3_mlp_simclrhn_probe1,1,326,NaN,car,car,bw,0326_cl_dnn_bw_car_40_n02814533_92940.png,n02814533_92940.png,1.0,8.430558,2.8559322,3.941856
alexnet_w3_mlp_simclrhn_probe1,1,327,NaN,chair,chair,cr,0327_cl_dnn_cr_chair_40_n02791124_392.png,n02791124_392.png,1.0,1.0603964,-0.3020452,0.9633918
alexnet_w3_mlp_simclrhn_probe1,1,328,NaN,clock,clock,bw,0328_cl_dnn_bw_clock_40_n04548280_3330.png,n04548280_3330.png,1.0,3.2489586,-1.2009327,3.1465483
alexnet_w3_mlp_simclrhn_probe1,1,329,NaN,truck,car,cr,0329_cl_dnn_cr_car_40_n02814533_83614.png,n02814533_83614.png,0.0,8.796611,9.877546,-0.7643368
alexnet_w3_mlp_simclrhn_probe1,1,330,NaN,bear,bear,cr,0330_cl_dnn_cr_bear_40_n02134418_3846.png,n02134418_3846.png,1.0,5.9488354,2.014577,2.781941
alexnet_w3_mlp_simclrhn_probe1,1,331,NaN,elephant,elephant,cr,0331_cl_dnn_cr_elephant_40_n02504013_811.png,n02504013_811.png,1.0,-0.33977807,-2.6161783,1.609658
alexnet_w3_mlp_simclrhn_probe1,1,332,NaN,airplane,airplane,bw,0332_cl_dnn_bw_airplane_40_n02690373_1442.png,n02690373_1442.png,1.0,6.927014,-1.1410257,5.7049656
alexnet_w3_mlp_simclrhn_probe1,1,333,NaN,chair,chair,cr,0333_cl_dnn_cr_chair_40_n03376595_6691.png,n03376595_6691.png,1.0,0.2269727,-2.3623803,1.8309492
alexnet_w3_mlp_simclrhn_probe1,1,334,NaN,bear,bird,bw,0334_cl_dnn_bw_bird_40_n01616318_1071.png,n01616318_1071.png,0.0,-4.6120105,-0.928607,-2.6045597
alexnet_w3_mlp_simclrhn_probe1,1,335,NaN,boat,boat,cr,0335_cl_dnn_cr_boat_40_n03662601_8333.png,n03662601_8333.png,1.0,-0.4900643,-1.8172319,0.93844926
alexnet_w3_mlp_simclrhn_probe1,1,336,NaN,truck,truck,cr,0336_cl_dnn_cr_truck_40_n03796401_9384.png,n03796401_9384.png,1.0,2.4857197,0.3328241,1.522327
alexnet_w3_mlp_simclrhn_probe1,1,337,NaN,bottle,bottle,cr,0337_cl_dnn_cr_bottle_40_n04560804_19001.png,n04560804_19001.png,1.0,1.4796593,-0.24884546,1.2222375
alexnet_w3_mlp_simclrhn_probe1,1,338,NaN,cat,cat,cr,0338_cl_dnn_cr_cat_40_n02123045_7646.png,n02123045_7646.png,1.0,0.26046404,-1.3817475,1.161219
alexnet_w3_mlp_simclrhn_probe1,1,339,NaN,elephant,elephant,cr,0339_cl_dnn_cr_elephant_40_n02504013_3599.png,n02504013_3599.png,1.0,14.881341,7.5371637,5.1931176
alexnet_w3_mlp_simclrhn_probe1,1,340,NaN,clock,clock,cr,0340_cl_dnn_cr_clock_40_n03196217_1109.png,n03196217_1109.png,1.0,-1.3328408,-1.437659,0.074117675
alexnet_w3_mlp_simclrhn_probe1,1,341,NaN,boat,boat,bw,0341_cl_dnn_bw_boat_40_n03344393_5322.png,n03344393_5322.png,1.0,1.8076274,1.6949966,0.079642035
alexnet_w3_mlp_simclrhn_probe1,1,342,NaN,elephant,dog,cr,0342_cl_dnn_cr_dog_40_n02090622_11748.png,n02090622_11748.png,0.0,0.54287654,1.7563313,-0.85804206
alexnet_w3_mlp_simclrhn_probe1,1,343,NaN,knife,knife,cr,0343_cl_dnn_cr_knife_40_n03041632_20707.png,n03041632_20707.png,1.0,-0.99018323,-3.795182,1.9834337
alexnet_w3_mlp_simclrhn_probe1,1,344,NaN,keyboard,keyboard,cr,0344_cl_dnn_cr_keyboard_40_n03085013_8936.png,n03085013_8936.png,1.0,0.81042045,-0.2577487,0.75530964
alexnet_w3_mlp_simclrhn_probe1,1,345,NaN,airplane,airplane,cr,0345_cl_dnn_cr_airplane_40_n02690373_4695.png,n02690373_4695.png,1.0,5.7139406,1.5442336,2.9484284
alexnet_w3_mlp_simclrhn_probe1,1,346,NaN,oven,oven,bw,0346_cl_dnn_bw_oven_40_n04111531_16463.png,n04111531_16463.png,1.0,1.0787028,-1.4966593,1.8210561
alexnet_w3_mlp_simclrhn_probe1,1,347,NaN,dog,dog,bw,0347_cl_dnn_bw_dog_40_n02099712_1234.png,n02099712_1234.png,1.0,0.6785593,-9.977596,7.53504
alexnet_w3_mlp_simclrhn_probe1,1,348,NaN,boat,boat,bw,0348_cl_dnn_bw_boat_40_n03662601_17361.png,n03662601_17361.png,1.0,4.601485,-2.6064396,5.096772
alexnet_w3_mlp_simclrhn_probe1,1,349,NaN,oven,oven,cr,0349_cl_dnn_cr_oven_40_n04111531_12929.png,n04111531_12929.png,1.0,1.5654294,-2.0432346,2.5517108
alexnet_w3_mlp_simclrhn_probe1,1,350,NaN,car,truck,bw,0350_cl_dnn_bw_truck_40_n03417042_2056.png,n03417042_2056.png,0.0,-2.1329446,1.0736094,-2.2673762
alexnet_w3_mlp_simclrhn_probe1,1,351,NaN,oven,oven,cr,0351_cl_dnn_cr_oven_40_n04111531_2937.png,n04111531_2937.png,1.0,4.2028513,-0.4966498,3.323049
alexnet_w3_mlp_simclrhn_probe1,1,352,NaN,boat,boat,bw,0352_cl_dnn_bw_boat_40_n04273569_23705.png,n04273569_23705.png,1.0,4.065071,0.39351416,2.5961828
alexnet_w3_mlp_simclrhn_probe1,1,353,NaN,boat,boat,cr,0353_cl_dnn_cr_boat_40_n02951358_8456.png,n02951358_8456.png,1.0,-0.7775332,-1.0330932,0.18070824
alexnet_w3_mlp_simclrhn_probe1,1,354,NaN,bottle,bottle,bw,0354_cl_dnn_bw_bottle_40_n03983396_11632.png,n03983396_11632.png,1.0,2.2694545,-1.9379873,2.9751108
alexnet_w3_mlp_simclrhn_probe1,1,355,NaN,bicycle,bicycle,bw,0355_cl_dnn_bw_bicycle_40_n02835271_506.png,n02835271_506.png,1.0,8.16428,-3.309344,8.113077
alexnet_w3_mlp_simclrhn_probe1,1,356,NaN,keyboard,keyboard,cr,0356_cl_dnn_cr_keyboard_40_n04505470_665.png,n04505470_665.png,1.0,6.569785,1.7644732,3.3978689
alexnet_w3_mlp_simclrhn_probe1,1,357,NaN,bear,bear,bw,0357_cl_dnn_bw_bear_40_n02132136_390.png,n02132136_390.png,1.0,6.1992874,0.39803174,4.1021075
alexnet_w3_mlp_simclrhn_probe1,1,358,NaN,bear,bear,cr,0358_cl_dnn_cr_bear_40_n02134084_13663.png,n02134084_13663.png,1.0,2.2959719,-0.62317425,2.064148
alexnet_w3_mlp_simclrhn_probe1,1,359,NaN,airplane,airplane,cr,0359_cl_dnn_cr_airplane_40_n02690373_2837.png,n02690373_2837.png,1.0,9.181005,4.1562157,3.5530624
alexnet_w3_mlp_simclrhn_probe1,1,360,NaN,airplane,airplane,bw,0360_cl_dnn_bw_airplane_40_n02690373_1492.png,n02690373_1492.png,1.0,7.612577,0.65922785,4.9167604
alexnet_w3_mlp_simclrhn_probe1,1,361,NaN,car,car,cr,0361_cl_dnn_cr_car_40_n03100240_14252.png,n03100240_14252.png,1.0,18.437223,11.829914,4.6720734
alexnet_w3_mlp_simclrhn_probe1,1,362,NaN,chair,elephant,bw,0362_cl_dnn_bw_elephant_40_n02504458_4908.png,n02504458_4908.png,0.0,-6.888911,-2.0682325,-3.4087343
alexnet_w3_mlp_simclrhn_probe1,1,363,NaN,bird,bird,bw,0363_cl_dnn_bw_bird_40_n01582220_5821.png,n01582220_5821.png,1.0,0.8548207,-4.591102,3.8508492
alexnet_w3_mlp_simclrhn_probe1,1,364,NaN,cat,cat,cr,0364_cl_dnn_cr_cat_40_n02123045_2968.png,n02123045_2968.png,1.0,2.2557344,-0.3381796,1.8341743
alexnet_w3_mlp_simclrhn_probe1,1,365,NaN,dog,dog,cr,0365_cl_dnn_cr_dog_40_n02088466_1671.png,n02088466_1671.png,1.0,1.099956,-1.8447376,2.082213
alexnet_w3_mlp_simclrhn_probe1,1,366,NaN,boat,boat,bw,0366_cl_dnn_bw_boat_40_n03344393_7659.png,n03344393_7659.png,1.0,8.711462,3.0732741,3.986801
alexnet_w3_mlp_simclrhn_probe1,1,367,NaN,bicycle,bicycle,bw,0367_cl_dnn_bw_bicycle_40_n03792782_3783.png,n03792782_3783.png,1.0,3.3494923,-3.2652264,4.6773124
alexnet_w3_mlp_simclrhn_probe1,1,368,NaN,airplane,airplane,cr,0368_cl_dnn_cr_airplane_40_n02690373_2059.png,n02690373_2059.png,1.0,6.9931316,0.08428997,4.8852887
alexnet_w3_mlp_simclrhn_probe1,1,369,NaN,keyboard,keyboard,cr,0369_cl_dnn_cr_keyboard_40_n03085013_19483.png,n03085013_19483.png,1.0,4.211512,-0.25537318,3.1585648
alexnet_w3_mlp_simclrhn_probe1,1,370,NaN,bicycle,bicycle,bw,0370_cl_dnn_bw_bicycle_40_n03792782_2960.png,n03792782_2960.png,1.0,8.798012,-3.3401308,8.582963
alexnet_w3_mlp_simclrhn_probe1,1,371,NaN,keyboard,keyboard,cr,0371_cl_dnn_cr_keyboard_40_n03085013_24538.png,n03085013_24538.png,1.0,1.0626001,0.73361695,0.23262624
alexnet_w3_mlp_simclrhn_probe1,1,372,NaN,elephant,cat,cr,0372_cl_dnn_cr_cat_40_n02123597_9656.png,n02123597_9656.png,0.0,-5.185078,-2.2559154,-2.071231
alexnet_w3_mlp_simclrhn_probe1,1,373,NaN,car,car,cr,0373_cl_dnn_cr_car_40_n04285008_1085.png,n04285008_1085.png,1.0,17.459959,7.844679,6.79903
alexnet_w3_mlp_simclrhn_probe1,1,374,NaN,dog,dog,cr,0374_cl_dnn_cr_dog_40_n02102177_5870.png,n02102177_5870.png,1.0,2.3912797,-3.774503,4.359867
alexnet_w3_mlp_simclrhn_probe1,1,375,NaN,airplane,boat,cr,0375_cl_dnn_cr_boat_40_n03662601_24852.png,n03662601_24852.png,0.0,-2.8621101,-1.7728078,-0.77025306
alexnet_w3_mlp_simclrhn_probe1,1,376,NaN,bicycle,bicycle,cr,0376_cl_dnn_cr_bicycle_40_n03792782_32379.png,n03792782_32379.png,1.0,8.709864,-2.8899293,8.202292
alexnet_w3_mlp_simclrhn_probe1,1,377,NaN,dog,cat,cr,0377_cl_dnn_cr_cat_40_n02123597_12266.png,n02123597_12266.png,0.0,-5.8044076,-3.0449555,-1.9512273
alexnet_w3_mlp_simclrhn_probe1,1,378,NaN,airplane,airplane,cr,0378_cl_dnn_cr_airplane_40_n02690373_713.png,n02690373_713.png,1.0,16.054737,0.7001653,10.857323
alexnet_w3_mlp_simclrhn_probe1,1,379,NaN,airplane,airplane,cr,0379_cl_dnn_cr_airplane_40_n02690373_6543.png,n02690373_6543.png,1.0,7.107897,1.9786831,3.6269019
alexnet_w3_mlp_simclrhn_probe1,1,380,NaN,oven,oven,cr,0380_cl_dnn_cr_oven_40_n04111531_5888.png,n04111531_5888.png,1.0,6.9327765,-1.3037362,5.8240943
alexnet_w3_mlp_simclrhn_probe1,1,381,NaN,dog,dog,bw,0381_cl_dnn_bw_dog_40_n02099601_7304.png,n02099601_7304.png,1.0,1.4918574,-2.0636892,2.5141513
alexnet_w3_mlp_simclrhn_probe1,1,382,NaN,bird,bird,bw,0382_cl_dnn_bw_bird_40_n01819313_146.png,n01819313_146.png,1.0,-1.8964036,-3.3697853,1.0418383
alexnet_w3_mlp_simclrhn_probe1,1,383,NaN,car,car,bw,0383_cl_dnn_bw_car_40_n03100240_18873.png,n03100240_18873.png,1.0,11.178726,7.2498093,2.778164
alexnet_w3_mlp_simclrhn_probe1,1,384,NaN,dog,dog,bw,0384_cl_dnn_bw_dog_40_n02100583_2707.png,n02100583_2707.png,1.0,0.32441917,-2.7923348,2.203878
alexnet_w3_mlp_simclrhn_probe1,1,385,NaN,bear,dog,bw,0385_cl_dnn_bw_dog_40_n02105056_15484.png,n02105056_15484.png,0.0,-2.2112103,0.4896777,-1.9098161
alexnet_w3_mlp_simclrhn_probe1,1,386,NaN,truck,truck,bw,0386_cl_dnn_bw_truck_40_n04467665_66535.png,n04467665_66535.png,1.0,7.0254536,2.8302298,2.9664712
alexnet_w3_mlp_simclrhn_probe1,1,387,NaN,elephant,elephant,bw,0387_cl_dnn_bw_elephant_40_n02504458_12303.png,n02504458_12303.png,1.0,7.4717903,1.4295908,4.2724805
alexnet_w3_mlp_simclrhn_probe1,1,388,NaN,bottle,bottle,cr,0388_cl_dnn_cr_bottle_40_n03937543_4586.png,n03937543_4586.png,1.0,2.3519683,-1.5743344,2.7763152
alexnet_w3_mlp_simclrhn_probe1,1,389,NaN,bird,bird,cr,0389_cl_dnn_cr_bird_40_n02007558_19064.png,n02007558_19064.png,1.0,-1.5723318,-1.5990305,0.018878838
alexnet_w3_mlp_simclrhn_probe1,1,390,NaN,oven,oven,bw,0390_cl_dnn_bw_oven_40_n04111531_5904.png,n04111531_5904.png,1.0,7.607816,-2.7407634,7.3175507
alexnet_w3_mlp_simclrhn_probe1,1,391,NaN,airplane,keyboard,cr,0391_cl_dnn_cr_keyboard_40_n03085013_18625.png,n03085013_18625.png,0.0,-3.9921074,-1.1156836,-2.033939
alexnet_w3_mlp_simclrhn_probe1,1,392,NaN,bottle,bottle,cr,0392_cl_dnn_cr_bottle_40_n04579145_445.png,n04579145_445.png,1.0,6.504313,-3.7859592,7.276321
alexnet_w3_mlp_simclrhn_probe1,1,393,NaN,keyboard,keyboard,bw,0393_cl_dnn_bw_keyboard_40_n03085013_22820.png,n03085013_22820.png,1.0,3.4755058,2.2395756,0.8739346
alexnet_w3_mlp_simclrhn_probe1,1,394,NaN,truck,truck,cr,0394_cl_dnn_cr_truck_40_n03417042_19479.png,n03417042_19479.png,1.0,9.148218,3.6551905,3.8841572
alexnet_w3_mlp_simclrhn_probe1,1,395,NaN,bird,bird,bw,0395_cl_dnn_bw_bird_40_n01833805_28946.png,n01833805_28946.png,1.0,0.2479959,-4.0580897,3.0448623
alexnet_w3_mlp_simclrhn_probe1,1,396,NaN,bottle,bottle,bw,0396_cl_dnn_bw_bottle_40_n04591713_3896.png,n04591713_3896.png,1.0,-0.6959239,-1.6794435,0.69545335
alexnet_w3_mlp_simclrhn_probe1,1,397,NaN,cat,cat,cr,0397_cl_dnn_cr_cat_40_n02123159_782.png,n02123159_782.png,1.0,8.663302,-5.63005,10.106926
alexnet_w3_mlp_simclrhn_probe1,1,398,NaN,keyboard,keyboard,bw,0398_cl_dnn_bw_keyboard_40_n04505470_464.png,n04505470_464.png,1.0,-0.48981375,-1.233465,0.5258408
alexnet_w3_mlp_simclrhn_probe1,1,399,NaN,bird,bird,cr,0399_cl_dnn_cr_bird_40_n01558993_3939.png,n01558993_3939.png,1.0,6.4350553,-9.315945,11.137639
alexnet_w3_mlp_simclrhn_probe1,1,400,NaN,boat,boat,cr,0400_cl_dnn_cr_boat_40_n04273569_3052.png,n04273569_3052.png,1.0,4.664378,-2.5583963,5.107273
alexnet_w3_mlp_simclrhn_probe1,1,401,NaN,knife,knife,bw,0401_cl_dnn_bw_knife_40_n03041632_85416.png,n03041632_85416.png,1.0,-0.29583597,-2.3031297,1.419371
alexnet_w3_mlp_simclrhn_probe1,1,402,NaN,car,car,bw,0402_cl_dnn_bw_car_40_n02814533_51154.png,n02814533_51154.png,1.0,16.9171,14.711515,1.5595845
alexnet_w3_mlp_simclrhn_probe1,1,403,NaN,airplane,airplane,bw,0403_cl_dnn_bw_airplane_40_n02690373_6516.png,n02690373_6516.png,1.0,10.70952,3.1477745,5.3469615
alexnet_w3_mlp_simclrhn_probe1,1,404,NaN,airplane,airplane,cr,0404_cl_dnn_cr_airplane_40_n02690373_12813.png,n02690373_12813.png,1.0,14.668207,-0.7212549,10.881993
alexnet_w3_mlp_simclrhn_probe1,1,405,NaN,airplane,airplane,bw,0405_cl_dnn_bw_airplane_40_n02690373_6406.png,n02690373_6406.png,1.0,10.284317,0.7187338,6.763889
alexnet_w3_mlp_simclrhn_probe1,1,406,NaN,chair,chair,cr,0406_cl_dnn_cr_chair_40_n03376595_8228.png,n03376595_8228.png,1.0,2.5080938,-1.2675399,2.6697762
alexnet_w3_mlp_simclrhn_probe1,1,407,NaN,knife,chair,bw,0407_cl_dnn_bw_chair_40_n04099969_6309.png,n04099969_6309.png,0.0,-3.508851,0.42523527,-2.781819
alexnet_w3_mlp_simclrhn_probe1,1,408,NaN,elephant,elephant,cr,0408_cl_dnn_cr_elephant_40_n02504013_19831.png,n02504013_19831.png,1.0,14.211841,1.7798426,8.7907505
alexnet_w3_mlp_simclrhn_probe1,1,409,NaN,knife,bottle,bw,0409_cl_dnn_bw_bottle_40_n03937543_5088.png,n03937543_5088.png,0.0,-3.724262,-0.46486935,-2.3047388
alexnet_w3_mlp_simclrhn_probe1,1,410,NaN,elephant,elephant,cr,0410_cl_dnn_cr_elephant_40_n02504458_2190.png,n02504458_2190.png,1.0,2.0635734,-2.0554018,2.9125552
alexnet_w3_mlp_simclrhn_probe1,1,411,NaN,car,car,bw,0411_cl_dnn_bw_car_40_n04285008_5997.png,n04285008_5997.png,1.0,9.265466,2.2553372,4.9569097
alexnet_w3_mlp_simclrhn_probe1,1,412,NaN,bottle,knife,cr,0412_cl_dnn_cr_knife_40_n03041632_94620.png,n03041632_94620.png,0.0,-2.2097049,-1.1096417,-0.7778622
alexnet_w3_mlp_simclrhn_probe1,1,413,NaN,bicycle,bicycle,cr,0413_cl_dnn_cr_bicycle_40_n02835271_8125.png,n02835271_8125.png,1.0,8.037836,-1.2431836,6.5626717
alexnet_w3_mlp_simclrhn_probe1,1,414,NaN,oven,oven,cr,0414_cl_dnn_cr_oven_40_n04111531_4662.png,n04111531_4662.png,1.0,8.048804,-3.0191703,7.8262396
alexnet_w3_mlp_simclrhn_probe1,1,415,NaN,elephant,dog,bw,0415_cl_dnn_bw_dog_40_n02110806_21755.png,n02110806_21755.png,0.0,-3.0066545,2.8537729,-4.143948
alexnet_w3_mlp_simclrhn_probe1,1,416,NaN,bottle,bottle,bw,0416_cl_dnn_bw_bottle_40_n02823428_3505.png,n02823428_3505.png,1.0,0.61894614,-1.2346317,1.3106775
alexnet_w3_mlp_simclrhn_probe1,1,417,NaN,cat,cat,cr,0417_cl_dnn_cr_cat_40_n02123045_11472.png,n02123045_11472.png,1.0,8.098726,-2.5599282,7.5368066
alexnet_w3_mlp_simclrhn_probe1,1,418,NaN,boat,boat,cr,0418_cl_dnn_cr_boat_40_n03662601_14818.png,n03662601_14818.png,1.0,8.067804,-1.4335189,6.7184505
alexnet_w3_mlp_simclrhn_probe1,1,419,NaN,bicycle,bicycle,cr,0419_cl_dnn_cr_bicycle_40_n02835271_8322.png,n02835271_8322.png,1.0,4.6811895,0.9740864,2.6213179
alexnet_w3_mlp_simclrhn_probe1,1,420,NaN,knife,knife,bw,0420_cl_dnn_bw_knife_40_n03041632_9580.png,n03041632_9580.png,1.0,0.44914895,-2.5453575,2.1174357
alexnet_w3_mlp_simclrhn_probe1,1,421,NaN,dog,dog,bw,0421_cl_dnn_bw_dog_40_n02088466_3052.png,n02088466_3052.png,1.0,-2.6307678,-4.0619764,1.0120174
alexnet_w3_mlp_simclrhn_probe1,1,422,NaN,keyboard,keyboard,cr,0422_cl_dnn_cr_keyboard_40_n04505470_7161.png,n04505470_7161.png,1.0,12.36046,-2.3274505,10.3859215
alexnet_w3_mlp_simclrhn_probe1,1,423,NaN,keyboard,keyboard,cr,0423_cl_dnn_cr_keyboard_40_n04505470_2321.png,n04505470_2321.png,1.0,5.647279,-0.03787905,4.020014
alexnet_w3_mlp_simclrhn_probe1,1,424,NaN,oven,knife,cr,0424_cl_dnn_cr_knife_40_n03041632_6708.png,n03041632_6708.png,0.0,-2.9143581,3.4998465,-4.5355277
alexnet_w3_mlp_simclrhn_probe1,1,425,NaN,keyboard,keyboard,bw,0425_cl_dnn_bw_keyboard_40_n04505470_4965.png,n04505470_4965.png,1.0,11.64708,-0.8471617,8.834764
alexnet_w3_mlp_simclrhn_probe1,1,426,NaN,cat,cat,bw,0426_cl_dnn_bw_cat_40_n02123597_11981.png,n02123597_11981.png,1.0,3.9133558,0.60241073,2.3411918
alexnet_w3_mlp_simclrhn_probe1,1,427,NaN,truck,truck,cr,0427_cl_dnn_cr_truck_40_n03417042_2778.png,n03417042_2778.png,1.0,7.320384,2.1187665,3.678099
alexnet_w3_mlp_simclrhn_probe1,1,428,NaN,car,car,cr,0428_cl_dnn_cr_car_40_n02814533_80049.png,n02814533_80049.png,1.0,11.389005,10.885265,0.35619754
alexnet_w3_mlp_simclrhn_probe1,1,429,NaN,knife,keyboard,cr,0429_cl_dnn_cr_keyboard_40_n03085013_23561.png,n03085013_23561.png,0.0,-5.184183,-1.1566248,-2.8479137
alexnet_w3_mlp_simclrhn_probe1,1,430,NaN,airplane,airplane,bw,0430_cl_dnn_bw_airplane_40_n02690373_1800.png,n02690373_1800.png,1.0,3.5861166,-0.6484888,2.9943182
alexnet_w3_mlp_simclrhn_probe1,1,431,NaN,chair,chair,bw,0431_cl_dnn_bw_chair_40_n02791124_4306.png,n02791124_4306.png,1.0,-1.0635426,-2.5225973,1.0317075
alexnet_w3_mlp_simclrhn_probe1,1,432,NaN,bicycle,knife,bw,0432_cl_dnn_bw_knife_40_n03041632_33424.png,n03041632_33424.png,0.0,-3.5354402,-1.7976,-1.2288386
alexnet_w3_mlp_simclrhn_probe1,1,433,NaN,boat,boat,cr,0433_cl_dnn_cr_boat_40_n04273569_111.png,n04273569_111.png,1.0,1.2509277,0.27390766,0.69085747
alexnet_w3_mlp_simclrhn_probe1,1,434,NaN,bear,bear,bw,0434_cl_dnn_bw_bear_40_n02132136_4403.png,n02132136_4403.png,1.0,0.21406536,-0.051672064,0.18790473
alexnet_w3_mlp_simclrhn_probe1,1,435,NaN,bicycle,bicycle,bw,0435_cl_dnn_bw_bicycle_40_n03792782_49707.png,n03792782_49707.png,1.0,-0.16383126,-1.647921,1.04941
alexnet_w3_mlp_simclrhn_probe1,1,436,NaN,bicycle,bicycle,cr,0436_cl_dnn_cr_bicycle_40_n02835271_3308.png,n02835271_3308.png,1.0,6.8254623,-4.8492312,8.255256
alexnet_w3_mlp_simclrhn_probe1,1,437,NaN,clock,clock,bw,0437_cl_dnn_bw_clock_40_n04548280_3305.png,n04548280_3305.png,1.0,0.36374155,0.27741906,0.061039217
alexnet_w3_mlp_simclrhn_probe1,1,438,NaN,boat,boat,bw,0438_cl_dnn_bw_boat_40_n03344393_7614.png,n03344393_7614.png,1.0,8.425756,3.2859344,3.634403
alexnet_w3_mlp_simclrhn_probe1,1,439,NaN,car,bicycle,bw,0439_cl_dnn_bw_bicycle_40_n02835271_9434.png,n02835271_9434.png,0.0,-2.2783697,0.015902707,-1.6222956
alexnet_w3_mlp_simclrhn_probe1,1,440,NaN,chair,truck,bw,0440_cl_dnn_bw_truck_40_n03417042_3039.png,n03417042_3039.png,0.0,-3.666872,-1.0550785,-1.8468169
alexnet_w3_mlp_simclrhn_probe1,1,441,NaN,oven,oven,cr,0441_cl_dnn_cr_oven_40_n04111531_5519.png,n04111531_5519.png,1.0,3.4814365,-4.7948556,5.852222
alexnet_w3_mlp_simclrhn_probe1,1,442,NaN,bottle,bottle,cr,0442_cl_dnn_cr_bottle_40_n03983396_3702.png,n03983396_3702.png,1.0,0.34888834,-2.2444854,1.8337922
alexnet_w3_mlp_simclrhn_probe1,1,443,NaN,clock,clock,cr,0443_cl_dnn_cr_clock_40_n04548280_2177.png,n04548280_2177.png,1.0,-1.3269987,-2.1867528,0.60793793
alexnet_w3_mlp_simclrhn_probe1,1,444,NaN,bottle,bottle,cr,0444_cl_dnn_cr_bottle_40_n03983396_4132.png,n03983396_4132.png,1.0,7.5761476,-4.0921893,8.25076
alexnet_w3_mlp_simclrhn_probe1,1,445,NaN,bicycle,bicycle,cr,0445_cl_dnn_cr_bicycle_40_n02835271_17509.png,n02835271_17509.png,1.0,4.46482,-4.386896,6.2591085
alexnet_w3_mlp_simclrhn_probe1,1,446,NaN,airplane,airplane,bw,0446_cl_dnn_bw_airplane_40_n02690373_3090.png,n02690373_3090.png,1.0,5.6426563,-0.6519003,4.450924
alexnet_w3_mlp_simclrhn_probe1,1,447,NaN,chair,chair,cr,0447_cl_dnn_cr_chair_40_n03376595_1302.png,n03376595_1302.png,1.0,0.10675621,-3.3666697,2.456083
alexnet_w3_mlp_simclrhn_probe1,1,448,NaN,dog,dog,cr,0448_cl_dnn_cr_dog_40_n02107683_3640.png,n02107683_3640.png,1.0,3.2388659,-0.23677588,2.45765
alexnet_w3_mlp_simclrhn_probe1,1,449,NaN,car,car,cr,0449_cl_dnn_cr_car_40_n03100240_770.png,n03100240_770.png,1.0,12.3618965,8.353999,2.8340116
alexnet_w3_mlp_simclrhn_probe1,1,450,NaN,knife,knife,cr,0450_cl_dnn_cr_knife_40_n03041632_4305.png,n03041632_4305.png,1.0,-1.4167949,-2.1792378,0.5391286
alexnet_w3_mlp_simclrhn_probe1,1,451,NaN,elephant,elephant,cr,0451_cl_dnn_cr_elephant_40_n02504013_4590.png,n02504013_4590.png,1.0,5.771561,0.62107885,3.6419408
alexnet_w3_mlp_simclrhn_probe1,1,452,NaN,truck,truck,cr,0452_cl_dnn_cr_truck_40_n03417042_5752.png,n03417042_5752.png,1.0,0.4639626,-2.1427464,1.8432217
alexnet_w3_mlp_simclrhn_probe1,1,453,NaN,oven,oven,cr,0453_cl_dnn_cr_oven_40_n04111531_21931.png,n04111531_21931.png,1.0,5.0670023,-1.6104366,4.7216625
alexnet_w3_mlp_simclrhn_probe1,1,454,NaN,elephant,elephant,bw,0454_cl_dnn_bw_elephant_40_n02504458_4711.png,n02504458_4711.png,1.0,5.459048,-1.6356953,5.0167413
alexnet_w3_mlp_simclrhn_probe1,1,455,NaN,clock,clock,bw,0455_cl_dnn_bw_clock_40_n02708093_8033.png,n02708093_8033.png,1.0,3.966054,-4.45733,5.956232
alexnet_w3_mlp_simclrhn_probe1,1,456,NaN,bicycle,bicycle,bw,0456_cl_dnn_bw_bicycle_40_n03792782_41992.png,n03792782_41992.png,1.0,15.526675,-2.2370489,12.560849
alexnet_w3_mlp_simclrhn_probe1,1,457,NaN,knife,keyboard,cr,0457_cl_dnn_cr_keyboard_40_n03085013_5622.png,n03085013_5622.png,0.0,2.241843,2.832459,-0.4176286
alexnet_w3_mlp_simclrhn_probe1,1,458,NaN,bird,bird,bw,0458_cl_dnn_bw_bird_40_n02009912_1919.png,n02009912_1919.png,1.0,0.44687152,-4.462423,3.4713953
alexnet_w3_mlp_simclrhn_probe1,1,459,NaN,bottle,bottle,cr,0459_cl_dnn_cr_bottle_40_n03937543_4202.png,n03937543_4202.png,1.0,0.6723711,-2.5777302,2.2981687
alexnet_w3_mlp_simclrhn_probe1,1,460,NaN,bicycle,bicycle,bw,0460_cl_dnn_bw_bicycle_40_n02835271_4341.png,n02835271_4341.png,1.0,4.156712,-1.7530229,4.1788135
alexnet_w3_mlp_simclrhn_probe1,1,461,NaN,bear,bear,bw,0461_cl_dnn_bw_bear_40_n02132136_18543.png,n02132136_18543.png,1.0,1.493361,0.07251018,1.0046933
alexnet_w3_mlp_simclrhn_probe1,1,462,NaN,cat,cat,bw,0462_cl_dnn_bw_cat_40_n02124075_14425.png,n02124075_14425.png,1.0,9.050122,-2.2214189,7.970184
alexnet_w3_mlp_simclrhn_probe1,1,463,NaN,clock,clock,bw,0463_cl_dnn_bw_clock_40_n02708093_544.png,n02708093_544.png,1.0,1.2398783,-0.39355248,1.15501
alexnet_w3_mlp_simclrhn_probe1,1,464,NaN,bear,bear,cr,0464_cl_dnn_cr_bear_40_n02133161_7604.png,n02133161_7604.png,1.0,1.0059383,-0.7034987,1.2087545
alexnet_w3_mlp_simclrhn_probe1,1,465,NaN,car,car,bw,0465_cl_dnn_bw_car_40_n03100240_15407.png,n03100240_15407.png,1.0,5.9874153,2.2733002,2.626276
alexnet_w3_mlp_simclrhn_probe1,1,466,NaN,bicycle,bicycle,bw,0466_cl_dnn_bw_bicycle_40_n02835271_12926.png,n02835271_12926.png,1.0,7.024602,-3.387361,7.3623695
alexnet_w3_mlp_simclrhn_probe1,1,467,NaN,knife,chair,cr,0467_cl_dnn_cr_chair_40_n03376595_2056.png,n03376595_2056.png,0.0,-2.0914817,-0.49597424,-1.1281941
alexnet_w3_mlp_simclrhn_probe1,1,468,NaN,oven,oven,bw,0468_cl_dnn_bw_oven_40_n04111531_9762.png,n04111531_9762.png,1.0,3.6784222,-0.5756791,3.0081038
alexnet_w3_mlp_simclrhn_probe1,1,469,NaN,bicycle,bicycle,bw,0469_cl_dnn_bw_bicycle_40_n03792782_25799.png,n03792782_25799.png,1.0,3.7130098,-3.9742727,5.4357295
alexnet_w3_mlp_simclrhn_probe1,1,470,NaN,oven,oven,cr,0470_cl_dnn_cr_oven_40_n04111531_3570.png,n04111531_3570.png,1.0,4.454874,-2.9867291,5.262008
alexnet_w3_mlp_simclrhn_probe1,1,471,NaN,car,car,cr,0471_cl_dnn_cr_car_40_n04285008_874.png,n04285008_874.png,1.0,10.231511,6.1680517,2.8732998
alexnet_w3_mlp_simclrhn_probe1,1,472,NaN,bicycle,bottle,cr,0472_cl_dnn_cr_bottle_40_n04557648_364.png,n04557648_364.png,0.0,-10.479898,-0.70487297,-6.911987
alexnet_w3_mlp_simclrhn_probe1,1,473,NaN,airplane,airplane,bw,0473_cl_dnn_bw_airplane_40_n02690373_8461.png,n02690373_8461.png,1.0,8.890212,-0.35959053,6.5405984
alexnet_w3_mlp_simclrhn_probe1,1,474,NaN,boat,boat,cr,0474_cl_dnn_cr_boat_40_n04273569_1087.png,n04273569_1087.png,1.0,6.935807,-3.3906858,7.301934
alexnet_w3_mlp_simclrhn_probe1,1,475,NaN,chair,chair,cr,0475_cl_dnn_cr_chair_40_n03376595_1798.png,n03376595_1798.png,1.0,2.3693228,-2.537695,3.4697855
alexnet_w3_mlp_simclrhn_probe1,1,476,NaN,oven,oven,cr,0476_cl_dnn_cr_oven_40_n04111531_5290.png,n04111531_5290.png,1.0,5.5805435,0.2837829,3.7453754
alexnet_w3_mlp_simclrhn_probe1,1,477,NaN,cat,cat,bw,0477_cl_dnn_bw_cat_40_n02124075_12369.png,n02124075_12369.png,1.0,5.490347,-0.84048146,4.4765716
alexnet_w3_mlp_simclrhn_probe1,1,478,NaN,elephant,elephant,bw,0478_cl_dnn_bw_elephant_40_n02504458_3714.png,n02504458_3714.png,1.0,5.3621416,-0.48459053,4.134264
alexnet_w3_mlp_simclrhn_probe1,1,479,NaN,bottle,bicycle,bw,0479_cl_dnn_bw_bicycle_40_n03792782_7388.png,n03792782_7388.png,0.0,-2.7907133,-2.4655938,-0.2298942
alexnet_w3_mlp_simclrhn_probe1,1,480,NaN,truck,truck,cr,0480_cl_dnn_cr_truck_40_n03796401_18240.png,n03796401_18240.png,1.0,5.4207726,2.6077032,1.9891404
alexnet_w3_mlp_simclrhn_probe1,1,481,NaN,airplane,airplane,cr,0481_cl_dnn_cr_airplane_40_n02690373_610.png,n02690373_610.png,1.0,11.820275,2.3997877,6.6612906
alexnet_w3_mlp_simclrhn_probe1,1,482,NaN,airplane,airplane,bw,0482_cl_dnn_bw_airplane_40_n02690373_6046.png,n02690373_6046.png,1.0,17.423761,-2.0352998,13.759634
alexnet_w3_mlp_simclrhn_probe1,1,483,NaN,bear,dog,cr,0483_cl_dnn_cr_dog_40_n02105505_4069.png,n02105505_4069.png,0.0,-0.025382234,0.4180702,-0.3135682
alexnet_w3_mlp_simclrhn_probe1,1,484,NaN,chair,chair,bw,0484_cl_dnn_bw_chair_40_n04429376_1954.png,n04429376_1954.png,1.0,-0.69590116,-1.3368747,0.45323676
alexnet_w3_mlp_simclrhn_probe1,1,485,NaN,oven,oven,bw,0485_cl_dnn_bw_oven_40_n04111531_7862.png,n04111531_7862.png,1.0,7.063694,-1.1503932,5.808237
alexnet_w3_mlp_simclrhn_probe1,1,486,NaN,car,chair,cr,0486_cl_dnn_cr_chair_40_n02791124_7424.png,n02791124_7424.png,0.0,-0.50869596,-0.03715384,-0.33343065
alexnet_w3_mlp_simclrhn_probe1,1,487,NaN,elephant,dog,bw,0487_cl_dnn_bw_dog_40_n02088466_5521.png,n02088466_5521.png,0.0,-0.19875513,0.009256974,-0.14708677
alexnet_w3_mlp_simclrhn_probe1,1,488,NaN,bird,bear,cr,0488_cl_dnn_cr_bear_40_n02133161_12868.png,n02133161_12868.png,0.0,-3.0047536,-1.9598904,-0.7388299
alexnet_w3_mlp_simclrhn_probe1,1,489,NaN,keyboard,keyboard,bw,0489_cl_dnn_bw_keyboard_40_n04505470_4107.png,n04505470_4107.png,1.0,6.126661,4.1373353,1.4066656
alexnet_w3_mlp_simclrhn_probe1,1,490,NaN,boat,boat,bw,0490_cl_dnn_bw_boat_40_n03662601_855.png,n03662601_855.png,1.0,9.884668,2.1440125,5.47347
alexnet_w3_mlp_simclrhn_probe1,1,491,NaN,bird,bird,cr,0491_cl_dnn_cr_bird_40_n02017213_7558.png,n02017213_7558.png,1.0,0.68118566,-6.347939,4.9703417
alexnet_w3_mlp_simclrhn_probe1,1,492,NaN,airplane,bottle,bw,0492_cl_dnn_bw_bottle_40_n04557648_23801.png,n04557648_23801.png,0.0,-4.2130394,-0.5110079,-2.6177318
alexnet_w3_mlp_simclrhn_probe1,1,493,NaN,bird,bird,bw,0493_cl_dnn_bw_bird_40_n01601694_13054.png,n01601694_13054.png,1.0,5.499469,-9.529087,10.626794
alexnet_w3_mlp_simclrhn_probe1,1,494,NaN,oven,oven,bw,0494_cl_dnn_bw_oven_40_n04111531_2207.png,n04111531_2207.png,1.0,5.8462505,-4.809379,7.5346684
alexnet_w3_mlp_simclrhn_probe1,1,495,NaN,bird,bird,bw,0495_cl_dnn_bw_bird_40_n02009912_9425.png,n02009912_9425.png,1.0,3.4984622,-7.0021324,7.425042
alexnet_w3_mlp_simclrhn_probe1,1,496,NaN,clock,clock,cr,0496_cl_dnn_cr_clock_40_n03196217_6193.png,n03196217_6193.png,1.0,4.0780287,2.3843548,1.1976082
alexnet_w3_mlp_simclrhn_probe1,1,497,NaN,boat,boat,bw,0497_cl_dnn_bw_boat_40_n04273569_27625.png,n04273569_27625.png,1.0,5.2288423,-0.05704385,3.7376862
alexnet_w3_mlp_simclrhn_probe1,1,498,NaN,chair,truck,bw,0498_cl_dnn_bw_truck_40_n03417042_29855.png,n03417042_29855.png,0.0,1.7237965,1.7469243,-0.01635382
alexnet_w3_mlp_simclrhn_probe1,1,499,NaN,bottle,bottle,cr,0499_cl_dnn_cr_bottle_40_n03983396_4212.png,n03983396_4212.png,1.0,5.419974,-5.97517,8.057584
alexnet_w3_mlp_simclrhn_probe1,1,500,NaN,cat,cat,bw,0500_cl_dnn_bw_cat_40_n02123597_11613.png,n02123597_11613.png,1.0,2.2837827,-0.63089335,2.0609872
alexnet_w3_mlp_simclrhn_probe1,1,501,NaN,clock,clock,cr,0501_cl_dnn_cr_clock_40_n02708093_1559.png,n02708093_1559.png,1.0,-0.19841075,-1.9377612,1.2299066
alexnet_w3_mlp_simclrhn_probe1,1,502,NaN,chair,chair,cr,0502_cl_dnn_cr_chair_40_n02791124_7031.png,n02791124_7031.png,1.0,-0.018556595,-2.2145004,1.5527668
alexnet_w3_mlp_simclrhn_probe1,1,503,NaN,bottle,bottle,cr,0503_cl_dnn_cr_bottle_40_n04560804_1703.png,n04560804_1703.png,1.0,2.2618146,-0.50242764,1.9546144
alexnet_w3_mlp_simclrhn_probe1,1,504,NaN,bottle,bottle,bw,0504_cl_dnn_bw_bottle_40_n04560804_15679.png,n04560804_15679.png,1.0,2.689387,-2.8143477,3.8917282
alexnet_w3_mlp_simclrhn_probe1,1,505,NaN,bottle,bottle,bw,0505_cl_dnn_bw_bottle_40_n03983396_1006.png,n03983396_1006.png,1.0,2.765155,-1.8506092,3.2638383
alexnet_w3_mlp_simclrhn_probe1,1,506,NaN,knife,knife,bw,0506_cl_dnn_bw_knife_40_n03041632_100645.png,n03041632_100645.png,1.0,1.0071774,-3.3288417,3.0660286
alexnet_w3_mlp_simclrhn_probe1,1,507,NaN,car,car,cr,0507_cl_dnn_cr_car_40_n02814533_54845.png,n02814533_54845.png,1.0,12.142886,9.824619,1.6392622
alexnet_w3_mlp_simclrhn_probe1,1,508,NaN,keyboard,keyboard,cr,0508_cl_dnn_cr_keyboard_40_n03085013_20078.png,n03085013_20078.png,1.0,2.6224034,0.21767531,1.7003996
alexnet_w3_mlp_simclrhn_probe1,1,509,NaN,chair,chair,cr,0509_cl_dnn_cr_chair_40_n04099969_4543.png,n04099969_4543.png,1.0,-0.38052318,-1.825033,1.0214226
alexnet_w3_mlp_simclrhn_probe1,1,510,NaN,bear,bear,cr,0510_cl_dnn_cr_bear_40_n02134418_1253.png,n02134418_1253.png,1.0,2.4672637,-0.8872187,2.3719773
alexnet_w3_mlp_simclrhn_probe1,1,511,NaN,bicycle,bicycle,bw,0511_cl_dnn_bw_bicycle_40_n02835271_8137.png,n02835271_8137.png,1.0,4.1913214,-1.6781803,4.1503644
alexnet_w3_mlp_simclrhn_probe1,1,512,NaN,keyboard,keyboard,bw,0512_cl_dnn_bw_keyboard_40_n04505470_7312.png,n04505470_7312.png,1.0,4.652361,-0.90856266,3.9321668
alexnet_w3_mlp_simclrhn_probe1,1,513,NaN,elephant,elephant,cr,0513_cl_dnn_cr_elephant_40_n02504013_2460.png,n02504013_2460.png,1.0,8.793441,-2.557158,8.026086
alexnet_w3_mlp_simclrhn_probe1,1,514,NaN,clock,clock,cr,0514_cl_dnn_cr_clock_40_n04548280_13469.png,n04548280_13469.png,1.0,-2.3698146,-2.4960072,0.089231625
alexnet_w3_mlp_simclrhn_probe1,1,515,NaN,car,chair,cr,0515_cl_dnn_cr_chair_40_n02791124_3161.png,n02791124_3161.png,0.0,-2.6010995,0.2745268,-2.033375
alexnet_w3_mlp_simclrhn_probe1,1,516,NaN,knife,dog,cr,0516_cl_dnn_cr_dog_40_n02093647_1818.png,n02093647_1818.png,0.0,-3.2748418,-2.0960708,-0.833517
alexnet_w3_mlp_simclrhn_probe1,1,517,NaN,chair,chair,cr,0517_cl_dnn_cr_chair_40_n02791124_4294.png,n02791124_4294.png,1.0,0.3941752,0.18180947,0.15016524
alexnet_w3_mlp_simclrhn_probe1,1,518,NaN,cat,cat,cr,0518_cl_dnn_cr_cat_40_n02124075_3533.png,n02124075_3533.png,1.0,11.410588,-4.065206,10.943039
alexnet_w3_mlp_simclrhn_probe1,1,519,NaN,boat,boat,cr,0519_cl_dnn_cr_boat_40_n03344393_2480.png,n03344393_2480.png,1.0,4.8229537,-1.1418294,4.2177386
alexnet_w3_mlp_simclrhn_probe1,1,520,NaN,car,car,bw,0520_cl_dnn_bw_car_40_n02814533_95054.png,n02814533_95054.png,1.0,2.9826546,1.5012635,1.0475017
alexnet_w3_mlp_simclrhn_probe1,1,521,NaN,bottle,bottle,cr,0521_cl_dnn_cr_bottle_40_n03937543_1808.png,n03937543_1808.png,1.0,6.2499824,-3.461728,6.867216
alexnet_w3_mlp_simclrhn_probe1,1,522,NaN,car,car,cr,0522_cl_dnn_cr_car_40_n02814533_72213.png,n02814533_72213.png,1.0,10.695389,5.7294526,3.5114472
alexnet_w3_mlp_simclrhn_probe1,1,523,NaN,keyboard,clock,cr,0523_cl_dnn_cr_clock_40_n03196217_1499.png,n03196217_1499.png,0.0,1.8693151,4.1967826,-1.645768
alexnet_w3_mlp_simclrhn_probe1,1,524,NaN,cat,cat,cr,0524_cl_dnn_cr_cat_40_n02123045_5300.png,n02123045_5300.png,1.0,7.031133,-0.23539805,5.1382136
alexnet_w3_mlp_simclrhn_probe1,1,525,NaN,bicycle,bird,bw,0525_cl_dnn_bw_bird_40_n02006656_3185.png,n02006656_3185.png,0.0,-3.1345122,-2.488007,-0.45714816
alexnet_w3_mlp_simclrhn_probe1,1,526,NaN,clock,clock,cr,0526_cl_dnn_cr_clock_40_n03196217_4541.png,n03196217_4541.png,1.0,2.9595258,0.003517747,2.0902133
alexnet_w3_mlp_simclrhn_probe1,1,527,NaN,cat,cat,cr,0527_cl_dnn_cr_cat_40_n02123159_2317.png,n02123159_2317.png,1.0,14.17081,-6.1700296,14.383145
alexnet_w3_mlp_simclrhn_probe1,1,528,NaN,elephant,bear,cr,0528_cl_dnn_cr_bear_40_n02133161_1362.png,n02133161_1362.png,0.0,0.3251955,1.5216217,-0.8460011
alexnet_w3_mlp_simclrhn_probe1,1,529,NaN,clock,clock,bw,0529_cl_dnn_bw_clock_40_n04548280_1202.png,n04548280_1202.png,1.0,1.9200846,-0.97095925,2.0442767
alexnet_w3_mlp_simclrhn_probe1,1,530,NaN,dog,dog,bw,0530_cl_dnn_bw_dog_40_n02095570_6717.png,n02095570_6717.png,1.0,2.3387442,0.41760904,1.3584478
alexnet_w3_mlp_simclrhn_probe1,1,531,NaN,car,car,bw,0531_cl_dnn_bw_car_40_n03100240_15941.png,n03100240_15941.png,1.0,8.778159,5.713419,2.1670985
alexnet_w3_mlp_simclrhn_probe1,1,532,NaN,bottle,chair,bw,0532_cl_dnn_bw_chair_40_n02791124_1443.png,n02791124_1443.png,0.0,-1.9233593,-1.913551,-0.006935517
alexnet_w3_mlp_simclrhn_probe1,1,533,NaN,bottle,bottle,cr,0533_cl_dnn_cr_bottle_40_n04557648_830.png,n04557648_830.png,1.0,7.5378213,-0.7914536,5.889687
alexnet_w3_mlp_simclrhn_probe1,1,534,NaN,truck,truck,cr,0534_cl_dnn_cr_truck_40_n03417042_8298.png,n03417042_8298.png,1.0,19.467402,12.930959,4.621963
alexnet_w3_mlp_simclrhn_probe1,1,535,NaN,clock,clock,bw,0535_cl_dnn_bw_clock_40_n02708093_4569.png,n02708093_4569.png,1.0,8.337537,-0.21557076,6.0479603
alexnet_w3_mlp_simclrhn_probe1,1,536,NaN,knife,keyboard,cr,0536_cl_dnn_cr_keyboard_40_n03085013_7576.png,n03085013_7576.png,0.0,-1.8761737,-0.45128858,-1.007546
alexnet_w3_mlp_simclrhn_probe1,1,537,NaN,truck,truck,bw,0537_cl_dnn_bw_truck_40_n03417042_27093.png,n03417042_27093.png,1.0,5.8571267,3.279103,1.8229381
alexnet_w3_mlp_simclrhn_probe1,1,538,NaN,elephant,elephant,cr,0538_cl_dnn_cr_elephant_40_n02504013_13560.png,n02504013_13560.png,1.0,1.7861032,0.8074368,0.69202167
alexnet_w3_mlp_simclrhn_probe1,1,539,NaN,car,car,bw,0539_cl_dnn_bw_car_40_n04285008_12045.png,n04285008_12045.png,1.0,11.56118,5.6908855,4.150925
alexnet_w3_mlp_simclrhn_probe1,1,540,NaN,airplane,airplane,cr,0540_cl_dnn_cr_airplane_40_n02690373_5176.png,n02690373_5176.png,1.0,13.2896,1.8941942,8.057769
alexnet_w3_mlp_simclrhn_probe1,1,541,NaN,bicycle,bicycle,bw,0541_cl_dnn_bw_bicycle_40_n03792782_6194.png,n03792782_6194.png,1.0,6.7274623,-3.2525342,7.0569234
alexnet_w3_mlp_simclrhn_probe1,1,542,NaN,oven,oven,cr,0542_cl_dnn_cr_oven_40_n04111531_15912.png,n04111531_15912.png,1.0,4.554637,-1.0363117,3.9533978
alexnet_w3_mlp_simclrhn_probe1,1,543,NaN,oven,oven,cr,0543_cl_dnn_cr_oven_40_n04111531_2592.png,n04111531_2592.png,1.0,0.7720773,-1.914876,1.8999629
alexnet_w3_mlp_simclrhn_probe1,1,544,NaN,bird,bird,cr,0544_cl_dnn_cr_bird_40_n02011460_2435.png,n02011460_2435.png,1.0,-2.7253528,-4.639859,1.3537605
alexnet_w3_mlp_simclrhn_probe1,1,545,NaN,car,car,cr,0545_cl_dnn_cr_car_40_n02814533_33205.png,n02814533_33205.png,1.0,9.119035,9.007065,0.07917471
alexnet_w3_mlp_simclrhn_probe1,1,546,NaN,chair,oven,bw,0546_cl_dnn_bw_oven_40_n04111531_14959.png,n04111531_14959.png,0.0,-0.4578953,0.346555,-0.5688323
alexnet_w3_mlp_simclrhn_probe1,1,547,NaN,clock,clock,cr,0547_cl_dnn_cr_clock_40_n04548280_6743.png,n04548280_6743.png,1.0,6.6085877,-2.0835938,6.146301
alexnet_w3_mlp_simclrhn_probe1,1,548,NaN,car,knife,bw,0548_cl_dnn_bw_knife_40_n03041632_15299.png,n03041632_15299.png,0.0,-2.9547224,-2.2166748,-0.5218785
alexnet_w3_mlp_simclrhn_probe1,1,549,NaN,knife,clock,bw,0549_cl_dnn_bw_clock_40_n03196217_127.png,n03196217_127.png,0.0,-4.223294,-1.9375299,-1.6162791
alexnet_w3_mlp_simclrhn_probe1,1,550,NaN,boat,boat,bw,0550_cl_dnn_bw_boat_40_n04273569_12917.png,n04273569_12917.png,1.0,5.1669493,0.474774,3.3178692
alexnet_w3_mlp_simclrhn_probe1,1,551,NaN,airplane,airplane,cr,0551_cl_dnn_cr_airplane_40_n02690373_9626.png,n02690373_9626.png,1.0,11.454187,4.1316476,5.177818
alexnet_w3_mlp_simclrhn_probe1,1,552,NaN,bear,bear,cr,0552_cl_dnn_cr_bear_40_n02134084_20500.png,n02134084_20500.png,1.0,0.1050117,-1.4084612,1.070187
alexnet_w3_mlp_simclrhn_probe1,1,553,NaN,bear,bear,bw,0553_cl_dnn_bw_bear_40_n02132136_6890.png,n02132136_6890.png,1.0,2.5560002,2.139968,0.2941793
alexnet_w3_mlp_simclrhn_probe1,1,554,NaN,bottle,bottle,bw,0554_cl_dnn_bw_bottle_40_n02823428_3049.png,n02823428_3049.png,1.0,4.3189883,-1.5601038,4.157146
alexnet_w3_mlp_simclrhn_probe1,1,555,NaN,knife,keyboard,cr,0555_cl_dnn_cr_keyboard_40_n03085013_22837.png,n03085013_22837.png,0.0,0.0694226,0.43592054,-0.2591532
alexnet_w3_mlp_simclrhn_probe1,1,556,NaN,keyboard,keyboard,bw,0556_cl_dnn_bw_keyboard_40_n03085013_3264.png,n03085013_3264.png,1.0,6.1625395,-1.3370541,5.303014
alexnet_w3_mlp_simclrhn_probe1,1,557,NaN,bear,bear,bw,0557_cl_dnn_bw_bear_40_n02134418_7795.png,n02134418_7795.png,1.0,5.2395377,1.9867046,2.3001003
alexnet_w3_mlp_simclrhn_probe1,1,558,NaN,bear,boat,bw,0558_cl_dnn_bw_boat_40_n02951358_34163.png,n02951358_34163.png,0.0,-5.1176023,-0.15971199,-3.505758
alexnet_w3_mlp_simclrhn_probe1,1,559,NaN,bear,bear,cr,0559_cl_dnn_cr_bear_40_n02132136_8637.png,n02132136_8637.png,1.0,2.9934983,-1.6265826,3.2668905
alexnet_w3_mlp_simclrhn_probe1,1,560,NaN,truck,truck,cr,0560_cl_dnn_cr_truck_40_n03417042_4218.png,n03417042_4218.png,1.0,6.36283,0.48510328,4.156181
alexnet_w3_mlp_simclrhn_probe1,1,561,NaN,chair,clock,bw,0561_cl_dnn_bw_clock_40_n04548280_4473.png,n04548280_4473.png,0.0,-3.10546,-0.87593514,-1.5765122
alexnet_w3_mlp_simclrhn_probe1,1,562,NaN,bear,bear,bw,0562_cl_dnn_bw_bear_40_n02132136_21799.png,n02132136_21799.png,1.0,2.0866928,-0.16742799,1.5939041
alexnet_w3_mlp_simclrhn_probe1,1,563,NaN,bird,bird,cr,0563_cl_dnn_cr_bird_40_n01531178_5780.png,n01531178_5780.png,1.0,0.7083862,-7.0398355,5.47882
alexnet_w3_mlp_simclrhn_probe1,1,564,NaN,truck,truck,cr,0564_cl_dnn_cr_truck_40_n03796401_27184.png,n03796401_27184.png,1.0,11.0605755,5.819555,3.7059612
alexnet_w3_mlp_simclrhn_probe1,1,565,NaN,keyboard,clock,bw,0565_cl_dnn_bw_clock_40_n03196217_5258.png,n03196217_5258.png,0.0,-0.4705297,0.46304554,-0.6601374
alexnet_w3_mlp_simclrhn_probe1,1,566,NaN,airplane,bird,cr,0566_cl_dnn_cr_bird_40_n02002556_15337.png,n02002556_15337.png,0.0,-2.3665602,0.25615034,-1.8545364
alexnet_w3_mlp_simclrhn_probe1,1,567,NaN,elephant,bottle,cr,0567_cl_dnn_cr_bottle_40_n04560804_3683.png,n04560804_3683.png,0.0,-3.358686,-1.8912325,-1.0376463
alexnet_w3_mlp_simclrhn_probe1,1,568,NaN,bicycle,bicycle,cr,0568_cl_dnn_cr_bicycle_40_n02835271_8511.png,n02835271_8511.png,1.0,9.451519,-6.906722,11.567024
alexnet_w3_mlp_simclrhn_probe1,1,569,NaN,bear,bear,cr,0569_cl_dnn_cr_bear_40_n02134084_23974.png,n02134084_23974.png,1.0,1.2067407,0.7356008,0.33314624
alexnet_w3_mlp_simclrhn_probe1,1,570,NaN,bicycle,dog,bw,0570_cl_dnn_bw_dog_40_n02091244_9271.png,n02091244_9271.png,0.0,-4.1912,-3.4750738,-0.5063775
alexnet_w3_mlp_simclrhn_probe1,1,571,NaN,bear,bear,cr,0571_cl_dnn_cr_bear_40_n02133161_6946.png,n02133161_6946.png,1.0,-1.0606946,-2.491517,1.0117443
alexnet_w3_mlp_simclrhn_probe1,1,572,NaN,airplane,truck,bw,0572_cl_dnn_bw_truck_40_n04467665_10060.png,n04467665_10060.png,0.0,2.6385512,3.3741415,-0.5201408
alexnet_w3_mlp_simclrhn_probe1,1,573,NaN,oven,oven,bw,0573_cl_dnn_bw_oven_40_n04111531_5328.png,n04111531_5328.png,1.0,6.9862385,0.28109598,4.741252
alexnet_w3_mlp_simclrhn_probe1,1,574,NaN,bottle,bottle,cr,0574_cl_dnn_cr_bottle_40_n04560804_2005.png,n04560804_2005.png,1.0,-1.36845,-2.2971756,0.6567082
alexnet_w3_mlp_simclrhn_probe1,1,575,NaN,bear,bear,bw,0575_cl_dnn_bw_bear_40_n02134084_3695.png,n02134084_3695.png,1.0,-0.48873106,-1.2991484,0.57305163
alexnet_w3_mlp_simclrhn_probe1,1,576,NaN,cat,cat,bw,0576_cl_dnn_bw_cat_40_n02123597_2219.png,n02123597_2219.png,1.0,2.266938,-0.4625475,1.9300377
alexnet_w3_mlp_simclrhn_probe1,1,577,NaN,keyboard,chair,bw,0577_cl_dnn_bw_chair_40_n02791124_6077.png,n02791124_6077.png,0.0,-1.2174178,1.6394651,-2.0201213
alexnet_w3_mlp_simclrhn_probe1,1,578,NaN,knife,bottle,cr,0578_cl_dnn_cr_bottle_40_n04579145_7431.png,n04579145_7431.png,0.0,-4.326652,-1.4763296,-2.0154824
alexnet_w3_mlp_simclrhn_probe1,1,579,NaN,keyboard,keyboard,bw,0579_cl_dnn_bw_keyboard_40_n04505470_510.png,n04505470_510.png,1.0,3.9956965,0.38133442,2.55574
alexnet_w3_mlp_simclrhn_probe1,1,580,NaN,oven,oven,cr,0580_cl_dnn_cr_oven_40_n04111531_4452.png,n04111531_4452.png,1.0,9.46592,-2.6981814,8.601319
alexnet_w3_mlp_simclrhn_probe1,1,581,NaN,elephant,elephant,bw,0581_cl_dnn_bw_elephant_40_n02504013_237.png,n02504013_237.png,1.0,6.273704,-2.2193818,6.005519
alexnet_w3_mlp_simclrhn_probe1,1,582,NaN,elephant,elephant,cr,0582_cl_dnn_cr_elephant_40_n02504013_10351.png,n02504013_10351.png,1.0,4.3572736,1.2318134,2.2100341
alexnet_w3_mlp_simclrhn_probe1,1,583,NaN,elephant,elephant,cr,0583_cl_dnn_cr_elephant_40_n02504458_1304.png,n02504458_1304.png,1.0,10.914229,1.6441114,6.554963
alexnet_w3_mlp_simclrhn_probe1,1,584,NaN,cat,dog,bw,0584_cl_dnn_bw_dog_40_n02104365_9837.png,n02104365_9837.png,0.0,-1.472707,-1.2036523,-0.19025046
alexnet_w3_mlp_simclrhn_probe1,1,585,NaN,cat,cat,cr,0585_cl_dnn_cr_cat_40_n02123045_9661.png,n02123045_9661.png,1.0,1.8460091,-1.9575655,2.6895335
alexnet_w3_mlp_simclrhn_probe1,1,586,NaN,knife,bottle,bw,0586_cl_dnn_bw_bottle_40_n02823428_5214.png,n02823428_5214.png,0.0,-3.74456,-1.844786,-1.343343
alexnet_w3_mlp_simclrhn_probe1,1,587,NaN,bird,bird,bw,0587_cl_dnn_bw_bird_40_n01828970_5448.png,n01828970_5448.png,1.0,2.2505174,-1.7665156,2.8404715
alexnet_w3_mlp_simclrhn_probe1,1,588,NaN,bicycle,car,cr,0588_cl_dnn_cr_car_40_n02814533_83874.png,n02814533_83874.png,0.0,-2.6080155,-1.5749665,-0.73047596
alexnet_w3_mlp_simclrhn_probe1,1,589,NaN,oven,oven,bw,0589_cl_dnn_bw_oven_40_n04111531_8036.png,n04111531_8036.png,1.0,7.317582,-3.2776296,7.491946
alexnet_w3_mlp_simclrhn_probe1,1,590,NaN,oven,oven,cr,0590_cl_dnn_cr_oven_40_n04111531_7355.png,n04111531_7355.png,1.0,1.6265593,-0.6162859,1.585931
alexnet_w3_mlp_simclrhn_probe1,1,591,NaN,car,car,bw,0591_cl_dnn_bw_car_40_n04285008_13354.png,n04285008_13354.png,1.0,3.4662387,0.87654567,1.8311895
alexnet_w3_mlp_simclrhn_probe1,1,592,NaN,keyboard,clock,cr,0592_cl_dnn_cr_clock_40_n02708093_8267.png,n02708093_8267.png,0.0,-1.5028614,-0.7241402,-0.55063903
alexnet_w3_mlp_simclrhn_probe1,1,593,NaN,cat,cat,bw,0593_cl_dnn_bw_cat_40_n02124075_14242.png,n02124075_14242.png,1.0,7.206356,-2.5800228,6.920015
alexnet_w3_mlp_simclrhn_probe1,1,594,NaN,knife,knife,cr,0594_cl_dnn_cr_knife_40_n03041632_4279.png,n03041632_4279.png,1.0,0.18623132,-1.2103207,0.98751146
alexnet_w3_mlp_simclrhn_probe1,1,595,NaN,oven,oven,cr,0595_cl_dnn_cr_oven_40_n04111531_2296.png,n04111531_2296.png,1.0,5.0359545,-1.867689,4.8816133
alexnet_w3_mlp_simclrhn_probe1,1,596,NaN,boat,boat,cr,0596_cl_dnn_cr_boat_40_n03344393_5859.png,n03344393_5859.png,1.0,7.0871034,2.5349643,3.2188487
alexnet_w3_mlp_simclrhn_probe1,1,597,NaN,truck,car,cr,0597_cl_dnn_cr_car_40_n02814533_57176.png,n02814533_57176.png,0.0,6.2466145,6.2493896,-0.0019623572
alexnet_w3_mlp_simclrhn_probe1,1,598,NaN,elephant,cat,bw,0598_cl_dnn_bw_cat_40_n02123159_1769.png,n02123159_1769.png,0.0,-0.79819536,-0.5820891,-0.15281019
alexnet_w3_mlp_simclrhn_probe1,1,599,NaN,clock,clock,cr,0599_cl_dnn_cr_clock_40_n02708093_4976.png,n02708093_4976.png,1.0,7.5256095,-0.043570418,5.3522186
alexnet_w3_mlp_simclrhn_probe1,1,600,NaN,car,truck,cr,0600_cl_dnn_cr_truck_40_n03796401_8864.png,n03796401_8864.png,0.0,2.2086434,4.143798,-1.3683609
alexnet_w3_mlp_simclrhn_probe1,1,601,NaN,clock,clock,bw,0601_cl_dnn_bw_clock_40_n03196217_868.png,n03196217_868.png,1.0,4.544342,0.9964837,2.5087147
alexnet_w3_mlp_simclrhn_probe1,1,602,NaN,cat,keyboard,bw,0602_cl_dnn_bw_keyboard_40_n03085013_3910.png,n03085013_3910.png,0.0,-3.5541859,-1.677059,-1.3273292
alexnet_w3_mlp_simclrhn_probe1,1,603,NaN,bicycle,bicycle,cr,0603_cl_dnn_cr_bicycle_40_n03792782_5466.png,n03792782_5466.png,1.0,10.162636,-3.8903787,9.936982
alexnet_w3_mlp_simclrhn_probe1,1,604,NaN,bear,bear,bw,0604_cl_dnn_bw_bear_40_n02132136_23248.png,n02132136_23248.png,1.0,4.7133255,-0.31640872,3.556559
alexnet_w3_mlp_simclrhn_probe1,1,605,NaN,truck,truck,bw,0605_cl_dnn_bw_truck_40_n03417042_2794.png,n03417042_2794.png,1.0,4.3404064,-0.10300863,3.141969
alexnet_w3_mlp_simclrhn_probe1,1,606,NaN,chair,chair,bw,0606_cl_dnn_bw_chair_40_n02791124_7324.png,n02791124_7324.png,1.0,0.44388968,-0.8708391,0.92965364
alexnet_w3_mlp_simclrhn_probe1,1,607,NaN,bicycle,bicycle,bw,0607_cl_dnn_bw_bicycle_40_n02835271_6736.png,n02835271_6736.png,1.0,5.822166,-1.4607639,5.1498094
alexnet_w3_mlp_simclrhn_probe1,1,608,NaN,clock,clock,bw,0608_cl_dnn_bw_clock_40_n04548280_8990.png,n04548280_8990.png,1.0,9.634457,-4.03962,9.669032
alexnet_w3_mlp_simclrhn_probe1,1,609,NaN,airplane,airplane,bw,0609_cl_dnn_bw_airplane_40_n02690373_971.png,n02690373_971.png,1.0,0.7474461,-2.2590797,2.1259348
alexnet_w3_mlp_simclrhn_probe1,1,610,NaN,dog,bear,bw,0610_cl_dnn_bw_bear_40_n02132136_23853.png,n02132136_23853.png,0.0,0.41002876,0.97724646,-0.4010835
alexnet_w3_mlp_simclrhn_probe1,1,611,NaN,clock,clock,cr,0611_cl_dnn_cr_clock_40_n03196217_3416.png,n03196217_3416.png,1.0,2.0979269,1.3408667,0.53532237
alexnet_w3_mlp_simclrhn_probe1,1,612,NaN,knife,clock,bw,0612_cl_dnn_bw_clock_40_n04548280_4346.png,n04548280_4346.png,0.0,-3.016343,-1.486726,-1.0816026
alexnet_w3_mlp_simclrhn_probe1,1,613,NaN,oven,oven,cr,0613_cl_dnn_cr_oven_40_n04111531_2342.png,n04111531_2342.png,1.0,8.667657,-0.73373437,6.6477876
alexnet_w3_mlp_simclrhn_probe1,1,614,NaN,chair,chair,bw,0614_cl_dnn_bw_chair_40_n04099969_8509.png,n04099969_8509.png,1.0,0.91503894,-0.8114567,1.2208167
alexnet_w3_mlp_simclrhn_probe1,1,615,NaN,bottle,bottle,bw,0615_cl_dnn_bw_bottle_40_n03937543_4340.png,n03937543_4340.png,1.0,-1.4250027,-1.9801775,0.3925679
alexnet_w3_mlp_simclrhn_probe1,1,616,NaN,boat,clock,bw,0616_cl_dnn_bw_clock_40_n02708093_6655.png,n02708093_6655.png,0.0,-4.3239584,0.43092728,-3.362212
alexnet_w3_mlp_simclrhn_probe1,1,617,NaN,cat,cat,cr,0617_cl_dnn_cr_cat_40_n02123159_1339.png,n02123159_1339.png,1.0,10.415688,-2.8848827,9.404923
alexnet_w3_mlp_simclrhn_probe1,1,618,NaN,chair,knife,bw,0618_cl_dnn_bw_knife_40_n03041632_30553.png,n03041632_30553.png,0.0,-1.8095212,-1.6333568,-0.12456704
alexnet_w3_mlp_simclrhn_probe1,1,619,NaN,bicycle,bicycle,cr,0619_cl_dnn_cr_bicycle_40_n03792782_18707.png,n03792782_18707.png,1.0,8.787825,-2.5800567,8.038306
alexnet_w3_mlp_simclrhn_probe1,1,620,NaN,elephant,elephant,bw,0620_cl_dnn_bw_elephant_40_n02504458_3648.png,n02504458_3648.png,1.0,14.944679,-0.6629231,11.036242
alexnet_w3_mlp_simclrhn_probe1,1,621,NaN,elephant,elephant,cr,0621_cl_dnn_cr_elephant_40_n02504458_1179.png,n02504458_1179.png,1.0,12.077807,3.875354,5.8000107
alexnet_w3_mlp_simclrhn_probe1,1,622,NaN,clock,clock,bw,0622_cl_dnn_bw_clock_40_n02708093_391.png,n02708093_391.png,1.0,3.5805538,-0.5474691,2.918953
alexnet_w3_mlp_simclrhn_probe1,1,623,NaN,airplane,car,cr,0623_cl_dnn_cr_car_40_n04285008_3453.png,n04285008_3453.png,0.0,-1.9560336,2.342595,-3.0395896
alexnet_w3_mlp_simclrhn_probe1,1,624,NaN,airplane,airplane,bw,0624_cl_dnn_bw_airplane_40_n02690373_2800.png,n02690373_2800.png,1.0,8.216304,-2.7587996,7.76057
alexnet_w3_mlp_simclrhn_probe1,1,625,NaN,cat,cat,cr,0625_cl_dnn_cr_cat_40_n02123394_979.png,n02123394_979.png,1.0,2.0852363,0.3514139,1.2259976
alexnet_w3_mlp_simclrhn_probe1,1,626,NaN,bear,dog,cr,0626_cl_dnn_cr_dog_40_n02105641_4701.png,n02105641_4701.png,0.0,0.14033766,0.7226324,-0.4117446
alexnet_w3_mlp_simclrhn_probe1,1,627,NaN,boat,boat,cr,0627_cl_dnn_cr_boat_40_n04273569_13641.png,n04273569_13641.png,1.0,5.421719,4.337283,0.766812
alexnet_w3_mlp_simclrhn_probe1,1,628,NaN,truck,car,cr,0628_cl_dnn_cr_car_40_n02814533_74825.png,n02814533_74825.png,0.0,-3.807647,-1.4507289,-1.6665928
alexnet_w3_mlp_simclrhn_probe1,1,629,NaN,airplane,airplane,cr,0629_cl_dnn_cr_airplane_40_n02690373_6812.png,n02690373_6812.png,1.0,10.501473,-0.27039373,7.6168604
alexnet_w3_mlp_simclrhn_probe1,1,630,NaN,car,car,bw,0630_cl_dnn_bw_car_40_n03100240_19223.png,n03100240_19223.png,1.0,18.893759,12.671434,4.399848
alexnet_w3_mlp_simclrhn_probe1,1,631,NaN,bottle,bottle,bw,0631_cl_dnn_bw_bottle_40_n03983396_3817.png,n03983396_3817.png,1.0,6.2842264,-4.3922634,7.5494184
alexnet_w3_mlp_simclrhn_probe1,1,632,NaN,elephant,elephant,bw,0632_cl_dnn_bw_elephant_40_n02504013_1432.png,n02504013_1432.png,1.0,5.7190995,-1.8469996,5.35004
alexnet_w3_mlp_simclrhn_probe1,1,633,NaN,boat,boat,cr,0633_cl_dnn_cr_boat_40_n03662601_35008.png,n03662601_35008.png,1.0,4.6613054,3.1196575,1.0901097
alexnet_w3_mlp_simclrhn_probe1,1,634,NaN,oven,oven,bw,0634_cl_dnn_bw_oven_40_n04111531_14055.png,n04111531_14055.png,1.0,4.2386513,-0.51696265,3.362727
alexnet_w3_mlp_simclrhn_probe1,1,635,NaN,airplane,airplane,bw,0635_cl_dnn_bw_airplane_40_n02690373_9812.png,n02690373_9812.png,1.0,9.536649,1.9709376,5.349766
alexnet_w3_mlp_simclrhn_probe1,1,636,NaN,truck,car,cr,0636_cl_dnn_cr_car_40_n04285008_6200.png,n04285008_6200.png,0.0,2.5726302,3.4911542,-0.6494946
alexnet_w3_mlp_simclrhn_probe1,1,637,NaN,clock,clock,cr,0637_cl_dnn_cr_clock_40_n04548280_5889.png,n04548280_5889.png,1.0,4.712587,-1.4560522,4.3618865
alexnet_w3_mlp_simclrhn_probe1,1,638,NaN,chair,chair,bw,0638_cl_dnn_bw_chair_40_n03376595_2924.png,n03376595_2924.png,1.0,-1.8301508,-3.1052594,0.9016379
alexnet_w3_mlp_simclrhn_probe1,1,639,NaN,airplane,airplane,bw,0639_cl_dnn_bw_airplane_40_n02690373_693.png,n02690373_693.png,1.0,5.298029,1.7354685,2.5191107
alexnet_w3_mlp_simclrhn_probe1,1,640,NaN,bicycle,bicycle,bw,0640_cl_dnn_bw_bicycle_40_n03792782_1778.png,n03792782_1778.png,1.0,9.205007,-1.4402137,7.527307
alexnet_w3_mlp_simclrhn_probe1,1,641,NaN,clock,clock,cr,0641_cl_dnn_cr_clock_40_n02708093_444.png,n02708093_444.png,1.0,4.36825,-2.0994039,4.573322
alexnet_w3_mlp_simclrhn_probe1,1,642,NaN,clock,clock,cr,0642_cl_dnn_cr_clock_40_n02708093_3385.png,n02708093_3385.png,1.0,2.9884949,-2.5465124,3.9138415
alexnet_w3_mlp_simclrhn_probe1,1,643,NaN,clock,clock,cr,0643_cl_dnn_cr_clock_40_n03196217_970.png,n03196217_970.png,1.0,1.8838725,1.0145952,0.61467195
alexnet_w3_mlp_simclrhn_probe1,1,644,NaN,clock,clock,bw,0644_cl_dnn_bw_clock_40_n04548280_4839.png,n04548280_4839.png,1.0,1.9203686,-1.049079,2.0997167
alexnet_w3_mlp_simclrhn_probe1,1,645,NaN,truck,truck,bw,0645_cl_dnn_bw_truck_40_n03796401_1853.png,n03796401_1853.png,1.0,4.0724354,0.6987598,2.3855488
alexnet_w3_mlp_simclrhn_probe1,1,646,NaN,oven,bottle,bw,0646_cl_dnn_bw_bottle_40_n04591713_2680.png,n04591713_2680.png,0.0,-2.294355,-0.5054126,-1.2649733
