subj,session,trial,rt,object_response,category,condition,imagename,filename,is_correct,targ_act,max_nontarg_act,decision_margin
vit_b_16,1,1,NaN,oven,oven,cr,0001_cl_dnn_cr_oven_40_n04111531_14126.png,n04111531_14126.png,1.0,9.065936,0.5713014,6.0066137
vit_b_16,1,2,NaN,bear,bear,cr,0002_cl_dnn_cr_bear_40_n02134084_5274.png,n02134084_5274.png,1.0,2.800428,0.3063455,1.7635826
vit_b_16,1,3,NaN,cat,cat,cr,0003_cl_dnn_cr_cat_40_n02123394_133.png,n02123394_133.png,1.0,1.3345609,0.6764877,0.465328
vit_b_16,1,4,NaN,car,car,cr,0004_cl_dnn_cr_car_40_n02814533_51190.png,n02814533_51190.png,1.0,6.090383,0.6304001,3.860791
vit_b_16,1,5,NaN,chair,chair,bw,0005_cl_dnn_bw_chair_40_n04099969_14986.png,n04099969_14986.png,1.0,3.4245868,0.75761926,1.8858308
vit_b_16,1,6,NaN,elephant,elephant,cr,0006_cl_dnn_cr_elephant_40_n02504013_6731.png,n02504013_6731.png,1.0,7.2273693,0.55663,4.716925
vit_b_16,1,7,NaN,bottle,bottle,cr,0007_cl_dnn_cr_bottle_40_n02823428_987.png,n02823428_987.png,1.0,2.613642,0.34217852,1.6061672
vit_b_16,1,8,NaN,truck,truck,cr,0008_cl_dnn_cr_truck_40_n03417042_7458.png,n03417042_7458.png,1.0,1.4790586,0.7423121,0.5209585
vit_b_16,1,9,NaN,chair,chair,bw,0009_cl_dnn_bw_chair_40_n04099969_4577.png,n04099969_4577.png,1.0,2.6245136,0.65816736,1.3904169
vit_b_16,1,10,NaN,knife,knife,cr,0010_cl_dnn_cr_knife_40_n03041632_83472.png,n03041632_83472.png,1.0,3.7371213,1.5645025,1.5362736
vit_b_16,1,11,NaN,elephant,elephant,bw,0011_cl_dnn_bw_elephant_40_n02504458_3485.png,n02504458_3485.png,1.0,7.521697,0.31826666,5.0935946
vit_b_16,1,12,NaN,elephant,bear,bw,0012_cl_dnn_bw_bear_40_n02133161_1066.png,n02133161_1066.png,0.0,3.8039908,5.1525297,-0.953561
vit_b_16,1,13,NaN,elephant,elephant,bw,0013_cl_dnn_bw_elephant_40_n02504013_1060.png,n02504013_1060.png,1.0,6.801874,0.27216122,4.6172047
vit_b_16,1,14,NaN,bear,bear,bw,0014_cl_dnn_bw_bear_40_n02134084_1009.png,n02134084_1009.png,1.0,3.6793137,3.244084,0.30775392
vit_b_16,1,15,NaN,cat,cat,cr,0015_cl_dnn_cr_cat_40_n02125311_13383.png,n02125311_13383.png,1.0,1.5366716,0.1570232,0.9755588
vit_b_16,1,16,NaN,elephant,elephant,bw,0016_cl_dnn_bw_elephant_40_n02504013_257.png,n02504013_257.png,1.0,7.7039423,0.3913721,5.170768
vit_b_16,1,17,NaN,cat,cat,bw,0017_cl_dnn_bw_cat_40_n02123045_6445.png,n02123045_6445.png,1.0,3.2290967,0.64030844,1.8305497
vit_b_16,1,18,NaN,airplane,airplane,bw,0018_cl_dnn_bw_airplane_40_n02690373_3493.png,n02690373_3493.png,1.0,9.122462,0.169034,6.33103
vit_b_16,1,19,NaN,airplane,airplane,bw,0019_cl_dnn_bw_airplane_40_n02690373_5184.png,n02690373_5184.png,1.0,9.018615,0.25124124,6.199469
vit_b_16,1,20,NaN,truck,truck,bw,0020_cl_dnn_bw_truck_40_n04467665_22637.png,n04467665_22637.png,1.0,4.73338,1.527642,2.266799
vit_b_16,1,21,NaN,cat,cat,cr,0021_cl_dnn_cr_cat_40_n02123159_10952.png,n02123159_10952.png,1.0,4.3096356,3.7522478,0.39413273
vit_b_16,1,22,NaN,airplane,airplane,bw,0022_cl_dnn_bw_airplane_40_n02690373_3620.png,n02690373_3620.png,1.0,8.46883,0.21002257,5.8398585
vit_b_16,1,23,NaN,bottle,bottle,cr,0023_cl_dnn_cr_bottle_40_n04557648_10744.png,n04557648_10744.png,1.0,4.2348766,0.38478202,2.722428
vit_b_16,1,24,NaN,oven,oven,bw,0024_cl_dnn_bw_oven_40_n04111531_12702.png,n04111531_12702.png,1.0,8.708029,2.9247541,4.0893927
vit_b_16,1,25,NaN,bear,bear,cr,0025_cl_dnn_cr_bear_40_n02133161_9949.png,n02133161_9949.png,1.0,5.365481,2.1393664,2.2812076
vit_b_16,1,26,NaN,keyboard,keyboard,cr,0026_cl_dnn_cr_keyboard_40_n03085013_3489.png,n03085013_3489.png,1.0,4.724597,1.4266459,2.3320036
vit_b_16,1,27,NaN,elephant,elephant,bw,0027_cl_dnn_bw_elephant_40_n02504458_4633.png,n02504458_4633.png,1.0,6.717219,0.3038078,4.5349665
vit_b_16,1,28,NaN,clock,clock,cr,0028_cl_dnn_cr_clock_40_n04548280_7816.png,n04548280_7816.png,1.0,4.815458,0.47021994,3.0725472
vit_b_16,1,29,NaN,dog,dog,bw,0029_cl_dnn_bw_dog_40_n02097474_1859.png,n02097474_1859.png,1.0,0.4325873,0.051926702,0.2691677
vit_b_16,1,30,NaN,cat,cat,bw,0030_cl_dnn_bw_cat_40_n02123394_916.png,n02123394_916.png,1.0,2.416356,0.7147728,1.203201
vit_b_16,1,31,NaN,elephant,elephant,cr,0031_cl_dnn_cr_elephant_40_n02504458_3525.png,n02504458_3525.png,1.0,8.03377,0.35157645,5.4321313
vit_b_16,1,32,NaN,bear,bear,bw,0032_cl_dnn_bw_bear_40_n02134418_4456.png,n02134418_4456.png,1.0,3.1469383,0.19565964,2.0868692
vit_b_16,1,33,NaN,keyboard,keyboard,bw,0033_cl_dnn_bw_keyboard_40_n03085013_24045.png,n03085013_24045.png,1.0,7.5155907,0.3775283,5.0473723
vit_b_16,1,34,NaN,oven,knife,bw,0034_cl_dnn_bw_knife_40_n03041632_49363.png,n03041632_49363.png,0.0,2.000077,2.0932252,-0.06586575
vit_b_16,1,35,NaN,cat,cat,bw,0035_cl_dnn_bw_cat_40_n02123159_7854.png,n02123159_7854.png,1.0,4.0037656,0.48246178,2.489938
vit_b_16,1,36,NaN,knife,knife,cr,0036_cl_dnn_cr_knife_40_n03041632_4708.png,n03041632_4708.png,1.0,10.8877125,0.5713125,7.294796
vit_b_16,1,37,NaN,chair,chair,cr,0037_cl_dnn_cr_chair_40_n04429376_7788.png,n04429376_7788.png,1.0,4.3799977,0.2580188,2.9146793
vit_b_16,1,38,NaN,car,car,cr,0038_cl_dnn_cr_car_40_n03100240_9086.png,n03100240_9086.png,1.0,6.0364532,0.32233998,4.0404882
vit_b_16,1,39,NaN,chair,chair,cr,0039_cl_dnn_cr_chair_40_n03376595_3038.png,n03376595_3038.png,1.0,2.6936784,0.79094106,1.3454385
vit_b_16,1,40,NaN,truck,truck,bw,0040_cl_dnn_bw_truck_40_n03796401_1758.png,n03796401_1758.png,1.0,2.8256488,0.4397664,1.6870736
vit_b_16,1,41,NaN,boat,boat,cr,0041_cl_dnn_cr_boat_40_n04273569_4324.png,n04273569_4324.png,1.0,3.4012132,0.71557784,1.899031
vit_b_16,1,42,NaN,bear,bear,cr,0042_cl_dnn_cr_bear_40_n02134084_1090.png,n02134084_1090.png,1.0,2.4843094,0.31822073,1.5316559
vit_b_16,1,43,NaN,bicycle,bicycle,bw,0043_cl_dnn_bw_bicycle_40_n03792782_13665.png,n03792782_13665.png,1.0,6.7520475,0.75842214,4.2381334
vit_b_16,1,44,NaN,knife,knife,bw,0044_cl_dnn_bw_knife_40_n03041632_36215.png,n03041632_36215.png,1.0,9.087448,0.058826245,6.3841996
vit_b_16,1,45,NaN,car,car,bw,0045_cl_dnn_bw_car_40_n04285008_7770.png,n04285008_7770.png,1.0,6.596273,0.86981845,4.049215
vit_b_16,1,46,NaN,bottle,bottle,cr,0046_cl_dnn_cr_bottle_40_n03983396_15260.png,n03983396_15260.png,1.0,2.8387418,0.30869088,1.7890162
vit_b_16,1,47,NaN,clock,dog,cr,0047_cl_dnn_cr_dog_40_n02091635_6519.png,n02091635_6519.png,0.0,0.08191042,0.3713745,-0.204682
vit_b_16,1,48,NaN,elephant,elephant,cr,0048_cl_dnn_cr_elephant_40_n02504013_3485.png,n02504013_3485.png,1.0,6.0355053,0.12691782,4.1780024
vit_b_16,1,49,NaN,oven,oven,cr,0049_cl_dnn_cr_oven_40_n04111531_807.png,n04111531_807.png,1.0,6.8147883,1.6913033,3.6228511
vit_b_16,1,50,NaN,oven,oven,cr,0050_cl_dnn_cr_oven_40_n04111531_605.png,n04111531_605.png,1.0,9.289886,0.2920556,6.3624277
vit_b_16,1,51,NaN,dog,dog,bw,0051_cl_dnn_bw_dog_40_n02109047_2662.png,n02109047_2662.png,1.0,1.0519416,0.6294772,0.29872748
vit_b_16,1,52,NaN,truck,truck,cr,0052_cl_dnn_cr_truck_40_n03417042_16038.png,n03417042_16038.png,1.0,1.8592315,1.164159,0.49149042
vit_b_16,1,53,NaN,truck,truck,bw,0053_cl_dnn_bw_truck_40_n03796401_1710.png,n03796401_1710.png,1.0,2.7109385,1.099223,1.1396549
vit_b_16,1,54,NaN,cat,cat,cr,0054_cl_dnn_cr_cat_40_n02125311_20921.png,n02125311_20921.png,1.0,1.4342475,0.27449006,0.8200723
vit_b_16,1,55,NaN,bear,bear,cr,0055_cl_dnn_cr_bear_40_n02133161_575.png,n02133161_575.png,1.0,4.0406857,0.18080516,2.7293477
vit_b_16,1,56,NaN,chair,chair,bw,0056_cl_dnn_bw_chair_40_n04429376_21865.png,n04429376_21865.png,1.0,2.4519315,0.5628518,1.3357811
vit_b_16,1,57,NaN,clock,bird,bw,0057_cl_dnn_bw_bird_40_n01616318_26436.png,n01616318_26436.png,0.0,0.57127327,0.8634507,-0.20660065
vit_b_16,1,58,NaN,oven,oven,cr,0058_cl_dnn_cr_oven_40_n04111531_9498.png,n04111531_9498.png,1.0,8.993863,0.7296946,5.84365
vit_b_16,1,59,NaN,bear,bear,bw,0059_cl_dnn_bw_bear_40_n02134418_397.png,n02134418_397.png,1.0,3.0692573,0.73502904,1.6505487
vit_b_16,1,60,NaN,chair,chair,cr,0060_cl_dnn_cr_chair_40_n04099969_23961.png,n04099969_23961.png,1.0,3.5557983,1.0893849,1.7440177
vit_b_16,1,61,NaN,elephant,dog,bw,0061_cl_dnn_bw_dog_40_n02093256_7181.png,n02093256_7181.png,0.0,1.0552595,4.043398,-2.112933
vit_b_16,1,62,NaN,bicycle,bicycle,cr,0062_cl_dnn_cr_bicycle_40_n02835271_26731.png,n02835271_26731.png,1.0,5.429161,0.08683201,3.7775972
vit_b_16,1,63,NaN,cat,cat,cr,0063_cl_dnn_cr_cat_40_n02125311_12557.png,n02125311_12557.png,1.0,1.7031665,0.36867657,0.9436269
vit_b_16,1,64,NaN,elephant,dog,cr,0064_cl_dnn_cr_dog_40_n02093647_2890.png,n02093647_2890.png,0.0,-0.06062993,0.27656356,-0.23843181
vit_b_16,1,65,NaN,knife,knife,cr,0065_cl_dnn_cr_knife_40_n03041632_14293.png,n03041632_14293.png,1.0,10.018913,0.607106,6.655153
vit_b_16,1,66,NaN,oven,oven,bw,0066_cl_dnn_bw_oven_40_n04111531_20359.png,n04111531_20359.png,1.0,9.030917,0.4014487,6.101956
vit_b_16,1,67,NaN,truck,truck,bw,0067_cl_dnn_bw_truck_40_n04467665_12177.png,n04467665_12177.png,1.0,2.1494832,0.23845343,1.3513021
vit_b_16,1,68,NaN,bicycle,bicycle,cr,0068_cl_dnn_cr_bicycle_40_n02835271_19400.png,n02835271_19400.png,1.0,6.8784103,0.3910733,4.58724
vit_b_16,1,69,NaN,truck,truck,cr,0069_cl_dnn_cr_truck_40_n03417042_1263.png,n03417042_1263.png,1.0,1.031738,0.21683902,0.57622063
vit_b_16,1,70,NaN,cat,cat,bw,0070_cl_dnn_bw_cat_40_n02123045_8336.png,n02123045_8336.png,1.0,4.1845555,1.3815613,1.9820163
vit_b_16,1,71,NaN,bear,bear,bw,0071_cl_dnn_bw_bear_40_n02134418_5405.png,n02134418_5405.png,1.0,3.8346233,0.060114026,2.6689813
vit_b_16,1,72,NaN,car,car,bw,0072_cl_dnn_bw_car_40_n04285008_2906.png,n04285008_2906.png,1.0,4.6447587,1.1516676,2.4699883
vit_b_16,1,73,NaN,oven,bird,cr,0073_cl_dnn_cr_bird_40_n01818515_10517.png,n01818515_10517.png,0.0,0.13441679,0.63992363,-0.35744736
vit_b_16,1,74,NaN,truck,truck,cr,0074_cl_dnn_cr_truck_40_n03796401_14203.png,n03796401_14203.png,1.0,1.2960953,0.23383082,0.7511344
vit_b_16,1,75,NaN,bicycle,bird,bw,0075_cl_dnn_bw_bird_40_n02009229_2503.png,n02009229_2503.png,0.0,0.15655264,0.5099137,-0.249864
vit_b_16,1,76,NaN,bottle,bottle,bw,0076_cl_dnn_bw_bottle_40_n02823428_6767.png,n02823428_6767.png,1.0,3.6881824,0.24712168,2.4331975
vit_b_16,1,77,NaN,bicycle,bicycle,bw,0077_cl_dnn_bw_bicycle_40_n02835271_12847.png,n02835271_12847.png,1.0,5.975283,0.25125358,4.0475
vit_b_16,1,78,NaN,bicycle,bicycle,cr,0078_cl_dnn_cr_bicycle_40_n02835271_24104.png,n02835271_24104.png,1.0,5.199707,0.38266388,3.406164
vit_b_16,1,79,NaN,clock,clock,cr,0079_cl_dnn_cr_clock_40_n04548280_77.png,n04548280_77.png,1.0,6.0616493,0.72789073,3.7715368
vit_b_16,1,80,NaN,cat,cat,bw,0080_cl_dnn_bw_cat_40_n02123394_6698.png,n02123394_6698.png,1.0,2.8695729,0.8402436,1.4349525
vit_b_16,1,81,NaN,keyboard,keyboard,cr,0081_cl_dnn_cr_keyboard_40_n04505470_4356.png,n04505470_4356.png,1.0,7.5740814,0.73635495,4.835003
vit_b_16,1,82,NaN,chair,chair,cr,0082_cl_dnn_cr_chair_40_n04429376_16325.png,n04429376_16325.png,1.0,2.236677,1.1240898,0.7867179
vit_b_16,1,83,NaN,elephant,elephant,bw,0083_cl_dnn_bw_elephant_40_n02504458_6721.png,n02504458_6721.png,1.0,6.7714353,0.095825955,4.7203684
vit_b_16,1,84,NaN,truck,truck,cr,0084_cl_dnn_cr_truck_40_n03417042_6213.png,n03417042_6213.png,1.0,1.8301611,0.15459302,1.1848056
vit_b_16,1,85,NaN,airplane,dog,bw,0085_cl_dnn_bw_dog_40_n02097130_8277.png,n02097130_8277.png,0.0,-0.7320987,0.54893315,-0.90582633
vit_b_16,1,86,NaN,bottle,bottle,cr,0086_cl_dnn_cr_bottle_40_n04557648_1856.png,n04557648_1856.png,1.0,5.427308,0.2708286,3.6461816
vit_b_16,1,87,NaN,bird,bird,bw,0087_cl_dnn_bw_bird_40_n01531178_10905.png,n01531178_10905.png,1.0,0.8570643,0.50561,0.24851574
vit_b_16,1,88,NaN,bear,bear,cr,0088_cl_dnn_cr_bear_40_n02133161_2202.png,n02133161_2202.png,1.0,3.9115102,0.1693057,2.6461382
vit_b_16,1,89,NaN,elephant,elephant,cr,0089_cl_dnn_cr_elephant_40_n02504458_10439.png,n02504458_10439.png,1.0,7.240265,0.1677518,5.001022
vit_b_16,1,90,NaN,clock,clock,cr,0090_cl_dnn_cr_clock_40_n02708093_6766.png,n02708093_6766.png,1.0,6.7915516,0.20754713,4.6555943
vit_b_16,1,91,NaN,bottle,bottle,bw,0091_cl_dnn_bw_bottle_40_n03983396_2057.png,n03983396_2057.png,1.0,3.915092,0.47913635,2.4295876
vit_b_16,1,92,NaN,knife,knife,bw,0092_cl_dnn_bw_knife_40_n03041632_10000.png,n03041632_10000.png,1.0,10.046694,0.28636387,6.9015956
vit_b_16,1,93,NaN,cat,cat,cr,0093_cl_dnn_cr_cat_40_n02125311_2959.png,n02125311_2959.png,1.0,1.6730937,0.10311928,1.1101396
vit_b_16,1,94,NaN,car,car,bw,0094_cl_dnn_bw_car_40_n04285008_13759.png,n04285008_13759.png,1.0,5.572328,0.46395302,3.6121666
vit_b_16,1,95,NaN,bottle,bottle,cr,0095_cl_dnn_cr_bottle_40_n03937543_396.png,n03937543_396.png,1.0,1.6879499,0.7591939,0.6567297
vit_b_16,1,96,NaN,boat,boat,bw,0096_cl_dnn_bw_boat_40_n03662601_3984.png,n03662601_3984.png,1.0,4.1592646,1.0413674,2.2046862
vit_b_16,1,97,NaN,truck,truck,bw,0097_cl_dnn_bw_truck_40_n04467665_2230.png,n04467665_2230.png,1.0,3.471484,0.5328562,2.0779235
vit_b_16,1,98,NaN,boat,boat,cr,0098_cl_dnn_cr_boat_40_n03662601_28640.png,n03662601_28640.png,1.0,1.9841564,0.37669644,1.1366458
vit_b_16,1,99,NaN,cat,cat,cr,0099_cl_dnn_cr_cat_40_n02124075_11039.png,n02124075_11039.png,1.0,4.3464885,0.503716,2.7172506
vit_b_16,1,100,NaN,knife,knife,bw,0100_cl_dnn_bw_knife_40_n03041632_7380.png,n03041632_7380.png,1.0,9.271205,1.6733402,5.372502
vit_b_16,1,101,NaN,cat,cat,cr,0101_cl_dnn_cr_cat_40_n02123045_6607.png,n02123045_6607.png,1.0,4.06852,0.14913289,2.7714252
vit_b_16,1,102,NaN,chair,chair,cr,0102_cl_dnn_cr_chair_40_n03376595_6704.png,n03376595_6704.png,1.0,3.7623885,0.35652018,2.4083126
vit_b_16,1,103,NaN,bear,bear,bw,0103_cl_dnn_bw_bear_40_n02133161_12187.png,n02133161_12187.png,1.0,6.1509066,0.2608529,4.164897
vit_b_16,1,104,NaN,keyboard,dog,cr,0104_cl_dnn_cr_dog_40_n02110958_2363.png,n02110958_2363.png,0.0,0.5542474,1.003989,-0.31801534
vit_b_16,1,105,NaN,airplane,airplane,cr,0105_cl_dnn_cr_airplane_40_n02690373_19438.png,n02690373_19438.png,1.0,9.204307,0.23110661,6.3450108
vit_b_16,1,106,NaN,elephant,bird,cr,0106_cl_dnn_cr_bird_40_n01855032_5511.png,n01855032_5511.png,0.0,0.11836646,0.29574466,-0.12542534
vit_b_16,1,107,NaN,boat,boat,bw,0107_cl_dnn_bw_boat_40_n04273569_9821.png,n04273569_9821.png,1.0,3.4726262,0.58294356,2.0433142
vit_b_16,1,108,NaN,bear,bear,bw,0108_cl_dnn_bw_bear_40_n02133161_13461.png,n02133161_13461.png,1.0,4.8988495,2.9706676,1.3634305
vit_b_16,1,109,NaN,dog,dog,cr,0109_cl_dnn_cr_dog_40_n02113023_8552.png,n02113023_8552.png,1.0,0.94234145,0.13097687,0.5737214
vit_b_16,1,110,NaN,elephant,elephant,cr,0110_cl_dnn_cr_elephant_40_n02504458_1600.png,n02504458_1600.png,1.0,7.2863836,0.31077728,4.932499
vit_b_16,1,111,NaN,chair,chair,cr,0111_cl_dnn_cr_chair_40_n04099969_4205.png,n04099969_4205.png,1.0,3.4698694,0.3853335,2.1810963
vit_b_16,1,112,NaN,knife,dog,bw,0112_cl_dnn_bw_dog_40_n02105505_2121.png,n02105505_2121.png,0.0,-0.49184942,1.1597527,-1.1678591
vit_b_16,1,113,NaN,chair,chair,cr,0113_cl_dnn_cr_chair_40_n02791124_4528.png,n02791124_4528.png,1.0,3.5744896,0.48281464,2.1861444
vit_b_16,1,114,NaN,truck,truck,bw,0114_cl_dnn_bw_truck_40_n03417042_5659.png,n03417042_5659.png,1.0,1.7523813,0.40095574,0.9556022
vit_b_16,1,115,NaN,elephant,elephant,cr,0115_cl_dnn_cr_elephant_40_n02504013_10330.png,n02504013_10330.png,1.0,5.4484625,0.22076243,3.6965423
vit_b_16,1,116,NaN,cat,cat,cr,0116_cl_dnn_cr_cat_40_n02123394_1594.png,n02123394_1594.png,1.0,2.9227743,0.20387286,1.9225537
vit_b_16,1,117,NaN,bicycle,bear,bw,0117_cl_dnn_bw_bear_40_n02132136_10654.png,n02132136_10654.png,0.0,-0.26012552,1.6586834,-1.3568028
vit_b_16,1,118,NaN,bottle,bottle,bw,0118_cl_dnn_bw_bottle_40_n02823428_5265.png,n02823428_5265.png,1.0,4.8948865,0.5885047,3.0450718
vit_b_16,1,119,NaN,truck,truck,cr,0119_cl_dnn_cr_truck_40_n04467665_3125.png,n04467665_3125.png,1.0,2.4870853,2.2049851,0.19947498
vit_b_16,1,120,NaN,airplane,airplane,cr,0120_cl_dnn_cr_airplane_40_n02690373_60.png,n02690373_60.png,1.0,8.874469,0.3648879,6.0171824
vit_b_16,1,121,NaN,keyboard,keyboard,cr,0121_cl_dnn_cr_keyboard_40_n03085013_21645.png,n03085013_21645.png,1.0,5.908555,2.2700565,2.572807
vit_b_16,1,122,NaN,truck,car,bw,0122_cl_dnn_bw_car_40_n03100240_9471.png,n03100240_9471.png,0.0,1.771258,2.0780017,-0.21690059
vit_b_16,1,123,NaN,boat,boat,cr,0123_cl_dnn_cr_boat_40_n03344393_9818.png,n03344393_9818.png,1.0,2.1680858,0.06330525,1.4883047
vit_b_16,1,124,NaN,elephant,elephant,bw,0124_cl_dnn_bw_elephant_40_n02504458_5444.png,n02504458_5444.png,1.0,6.5813937,0.326008,4.423226
vit_b_16,1,125,NaN,bottle,bottle,bw,0125_cl_dnn_bw_bottle_40_n04557648_26823.png,n04557648_26823.png,1.0,1.9626104,0.516711,1.0224053
vit_b_16,1,126,NaN,bottle,bottle,cr,0126_cl_dnn_cr_bottle_40_n02823428_765.png,n02823428_765.png,1.0,3.1576073,0.4224559,1.934044
vit_b_16,1,127,NaN,cat,cat,bw,0127_cl_dnn_bw_cat_40_n02123045_1787.png,n02123045_1787.png,1.0,4.3679833,0.080189034,3.0319283
vit_b_16,1,128,NaN,car,car,bw,0128_cl_dnn_bw_car_40_n02814533_35863.png,n02814533_35863.png,1.0,2.1809204,1.1302587,0.74293
vit_b_16,1,129,NaN,boat,boat,bw,0129_cl_dnn_bw_boat_40_n02951358_7944.png,n02951358_7944.png,1.0,2.955484,0.8143076,1.5140402
vit_b_16,1,130,NaN,car,dog,bw,0130_cl_dnn_bw_dog_40_n02091467_3727.png,n02091467_3727.png,0.0,-0.079025105,0.25349954,-0.23513044
vit_b_16,1,131,NaN,bicycle,bicycle,cr,0131_cl_dnn_cr_bicycle_40_n02835271_5886.png,n02835271_5886.png,1.0,6.3020678,0.4568307,4.133207
vit_b_16,1,132,NaN,truck,truck,bw,0132_cl_dnn_bw_truck_40_n04467665_18234.png,n04467665_18234.png,1.0,4.106688,0.22882558,2.7420628
vit_b_16,1,133,NaN,elephant,elephant,cr,0133_cl_dnn_cr_elephant_40_n02504013_4892.png,n02504013_4892.png,1.0,6.9736705,0.50311184,4.575376
vit_b_16,1,134,NaN,keyboard,keyboard,cr,0134_cl_dnn_cr_keyboard_40_n03085013_19618.png,n03085013_19618.png,1.0,6.545541,0.51553047,4.263861
vit_b_16,1,135,NaN,clock,clock,cr,0135_cl_dnn_cr_clock_40_n03196217_3430.png,n03196217_3430.png,1.0,4.171778,1.4380518,1.9330366
vit_b_16,1,136,NaN,bicycle,bicycle,bw,0136_cl_dnn_bw_bicycle_40_n03792782_24591.png,n03792782_24591.png,1.0,7.8020573,0.35148212,5.2683525
vit_b_16,1,137,NaN,clock,bird,cr,0137_cl_dnn_cr_bird_40_n02007558_2822.png,n02007558_2822.png,0.0,0.20262916,0.29187962,-0.06310961
vit_b_16,1,138,NaN,truck,truck,bw,0138_cl_dnn_bw_truck_40_n04467665_71126.png,n04467665_71126.png,1.0,2.0474691,0.21875788,1.2930942
vit_b_16,1,139,NaN,bicycle,bicycle,cr,0139_cl_dnn_cr_bicycle_40_n02835271_22263.png,n02835271_22263.png,1.0,7.105282,0.42463425,4.7239313
vit_b_16,1,140,NaN,car,car,bw,0140_cl_dnn_bw_car_40_n04285008_5548.png,n04285008_5548.png,1.0,5.058843,0.70031947,3.0819418
vit_b_16,1,141,NaN,oven,oven,bw,0141_cl_dnn_bw_oven_40_n04111531_13006.png,n04111531_13006.png,1.0,9.405791,1.7333939,5.4252043
vit_b_16,1,142,NaN,car,car,bw,0142_cl_dnn_bw_car_40_n04285008_11410.png,n04285008_11410.png,1.0,3.3830674,0.20206544,2.249308
vit_b_16,1,143,NaN,chair,chair,bw,0143_cl_dnn_bw_chair_40_n04429376_2304.png,n04429376_2304.png,1.0,2.677765,1.0385524,1.1590983
vit_b_16,1,144,NaN,boat,boat,cr,0144_cl_dnn_cr_boat_40_n03662601_27165.png,n03662601_27165.png,1.0,2.0896287,0.3497211,1.2303005
vit_b_16,1,145,NaN,truck,truck,bw,0145_cl_dnn_bw_truck_40_n04467665_70308.png,n04467665_70308.png,1.0,1.8003571,0.64542973,0.816657
vit_b_16,1,146,NaN,bicycle,bicycle,cr,0146_cl_dnn_cr_bicycle_40_n03792782_51414.png,n03792782_51414.png,1.0,5.7108536,0.44143838,3.7260394
vit_b_16,1,147,NaN,knife,knife,cr,0147_cl_dnn_cr_knife_40_n03041632_44738.png,n03041632_44738.png,1.0,9.087094,0.29352567,6.2179923
vit_b_16,1,148,NaN,elephant,elephant,bw,0148_cl_dnn_bw_elephant_40_n02504458_11363.png,n02504458_11363.png,1.0,7.0789824,0.3376886,4.7668147
vit_b_16,1,149,NaN,truck,truck,cr,0149_cl_dnn_cr_truck_40_n04467665_4899.png,n04467665_4899.png,1.0,2.3792572,0.7134798,1.1778826
vit_b_16,1,150,NaN,bear,bear,cr,0150_cl_dnn_cr_bear_40_n02134418_685.png,n02134418_685.png,1.0,3.1450012,0.2521532,2.0455525
vit_b_16,1,151,NaN,keyboard,keyboard,bw,0151_cl_dnn_bw_keyboard_40_n04505470_4363.png,n04505470_4363.png,1.0,5.43533,0.6782537,3.363761
vit_b_16,1,152,NaN,oven,oven,bw,0152_cl_dnn_bw_oven_40_n04111531_12468.png,n04111531_12468.png,1.0,9.228645,0.63955694,6.073403
vit_b_16,1,153,NaN,bottle,bottle,cr,0153_cl_dnn_cr_bottle_40_n04591713_5559.png,n04591713_5559.png,1.0,4.3941007,0.22000188,2.9515338
vit_b_16,1,154,NaN,elephant,elephant,cr,0154_cl_dnn_cr_elephant_40_n02504013_3197.png,n02504013_3197.png,1.0,5.90063,1.1526613,3.3573208
vit_b_16,1,155,NaN,airplane,bird,bw,0155_cl_dnn_bw_bird_40_n01817953_5039.png,n01817953_5039.png,0.0,0.172763,0.30071092,-0.09047284
vit_b_16,1,156,NaN,bicycle,bicycle,cr,0156_cl_dnn_cr_bicycle_40_n03792782_3296.png,n03792782_3296.png,1.0,6.349906,0.32721135,4.2586884
vit_b_16,1,157,NaN,dog,bird,cr,0157_cl_dnn_cr_bird_40_n01855672_5670.png,n01855672_5670.png,0.0,0.1369884,0.34774354,-0.1490264
vit_b_16,1,158,NaN,oven,oven,cr,0158_cl_dnn_cr_oven_40_n04111531_2260.png,n04111531_2260.png,1.0,8.510132,0.69814515,5.523909
vit_b_16,1,159,NaN,cat,cat,cr,0159_cl_dnn_cr_cat_40_n02123045_5932.png,n02123045_5932.png,1.0,4.38604,0.4293954,2.7977705
vit_b_16,1,160,NaN,knife,dog,cr,0160_cl_dnn_cr_dog_40_n02100583_1267.png,n02100583_1267.png,0.0,0.18867135,0.70817673,-0.36734578
vit_b_16,1,161,NaN,bear,dog,bw,0161_cl_dnn_bw_dog_40_n02099601_8005.png,n02099601_8005.png,0.0,-0.024053914,0.5186558,-0.38375372
vit_b_16,1,162,NaN,keyboard,boat,cr,0162_cl_dnn_cr_boat_40_n02951358_12080.png,n02951358_12080.png,0.0,1.6025579,1.649013,-0.03284875
vit_b_16,1,163,NaN,oven,oven,cr,0163_cl_dnn_cr_oven_40_n04111531_20028.png,n04111531_20028.png,1.0,9.130657,0.3079055,6.238628
vit_b_16,1,164,NaN,cat,cat,bw,0164_cl_dnn_bw_cat_40_n02123159_2107.png,n02123159_2107.png,1.0,1.947391,0.18066065,1.2492671
vit_b_16,1,165,NaN,bear,bear,cr,0165_cl_dnn_cr_bear_40_n02134418_1351.png,n02134418_1351.png,1.0,3.0588017,0.3163003,1.9392413
vit_b_16,1,166,NaN,oven,oven,cr,0166_cl_dnn_cr_oven_40_n04111531_6609.png,n04111531_6609.png,1.0,9.469595,0.15459135,6.5867023
vit_b_16,1,167,NaN,knife,knife,bw,0167_cl_dnn_bw_knife_40_n03041632_21477.png,n03041632_21477.png,1.0,8.401505,1.9851536,4.537046
vit_b_16,1,168,NaN,cat,cat,cr,0168_cl_dnn_cr_cat_40_n02123394_238.png,n02123394_238.png,1.0,1.6654826,0.35316533,0.92794853
vit_b_16,1,169,NaN,elephant,elephant,cr,0169_cl_dnn_cr_elephant_40_n02504013_3141.png,n02504013_3141.png,1.0,7.330765,0.45941633,4.858777
vit_b_16,1,170,NaN,elephant,elephant,cr,0170_cl_dnn_cr_elephant_40_n02504013_5035.png,n02504013_5035.png,1.0,7.641689,0.31143662,5.183271
vit_b_16,1,171,NaN,dog,dog,cr,0171_cl_dnn_cr_dog_40_n02089867_2298.png,n02089867_2298.png,1.0,0.3555255,0.23617235,0.08439542
vit_b_16,1,172,NaN,bear,bear,bw,0172_cl_dnn_bw_bear_40_n02134418_2503.png,n02134418_2503.png,1.0,4.1412587,1.4864445,1.8772372
vit_b_16,1,173,NaN,keyboard,keyboard,cr,0173_cl_dnn_cr_keyboard_40_n04505470_4878.png,n04505470_4878.png,1.0,4.695174,0.39269593,3.0423117
vit_b_16,1,174,NaN,knife,knife,bw,0174_cl_dnn_bw_knife_40_n03041632_22734.png,n03041632_22734.png,1.0,8.810042,0.4014287,5.9457874
vit_b_16,1,175,NaN,bear,bear,cr,0175_cl_dnn_cr_bear_40_n02132136_8896.png,n02132136_8896.png,1.0,2.567859,0.82388973,1.2331724
vit_b_16,1,176,NaN,boat,boat,bw,0176_cl_dnn_bw_boat_40_n02951358_5952.png,n02951358_5952.png,1.0,2.3722584,0.4106048,1.3870986
vit_b_16,1,177,NaN,chair,chair,bw,0177_cl_dnn_bw_chair_40_n04099969_1775.png,n04099969_1775.png,1.0,2.3300843,1.1509769,0.8337549
vit_b_16,1,178,NaN,airplane,airplane,bw,0178_cl_dnn_bw_airplane_40_n02690373_6524.png,n02690373_6524.png,1.0,8.231361,1.3231289,4.884858
vit_b_16,1,179,NaN,bear,bear,cr,0179_cl_dnn_cr_bear_40_n02133161_1916.png,n02133161_1916.png,1.0,4.2120337,0.5895826,2.5614598
vit_b_16,1,180,NaN,knife,knife,bw,0180_cl_dnn_bw_knife_40_n03041632_96714.png,n03041632_96714.png,1.0,7.3086143,0.54818565,4.780345
vit_b_16,1,181,NaN,truck,truck,bw,0181_cl_dnn_bw_truck_40_n03417042_13635.png,n03417042_13635.png,1.0,1.6006546,0.30112293,0.9189077
vit_b_16,1,182,NaN,boat,boat,bw,0182_cl_dnn_bw_boat_40_n04612504_1748.png,n04612504_1748.png,1.0,1.945269,0.13681291,1.2787715
vit_b_16,1,183,NaN,bird,bird,cr,0183_cl_dnn_cr_bird_40_n01592084_3341.png,n01592084_3341.png,1.0,0.23604296,0.21991858,0.011401661
vit_b_16,1,184,NaN,car,car,bw,0184_cl_dnn_bw_car_40_n02814533_12388.png,n02814533_12388.png,1.0,2.4170036,0.38276654,1.4384229
vit_b_16,1,185,NaN,bicycle,bicycle,cr,0185_cl_dnn_cr_bicycle_40_n03792782_5864.png,n03792782_5864.png,1.0,6.7330313,0.3214462,4.533675
vit_b_16,1,186,NaN,bicycle,bird,bw,0186_cl_dnn_bw_bird_40_n01514859_17156.png,n01514859_17156.png,0.0,-0.18645714,0.31347096,-0.35350257
vit_b_16,1,187,NaN,car,car,cr,0187_cl_dnn_cr_car_40_n03100240_7737.png,n03100240_7737.png,1.0,5.883449,0.39778897,3.8789475
vit_b_16,1,188,NaN,bottle,bottle,bw,0188_cl_dnn_bw_bottle_40_n04579145_1829.png,n04579145_1829.png,1.0,1.4745197,0.43516803,0.73493266
vit_b_16,1,189,NaN,elephant,elephant,bw,0189_cl_dnn_bw_elephant_40_n02504013_22388.png,n02504013_22388.png,1.0,7.235139,0.29228735,4.9093375
vit_b_16,1,190,NaN,airplane,airplane,bw,0190_cl_dnn_bw_airplane_40_n02690373_7107.png,n02690373_7107.png,1.0,8.975884,0.22671844,6.1865945
vit_b_16,1,191,NaN,clock,car,bw,0191_cl_dnn_bw_car_40_n02814533_45594.png,n02814533_45594.png,0.0,0.28524718,1.1653354,-0.62231636
vit_b_16,1,192,NaN,boat,boat,cr,0192_cl_dnn_cr_boat_40_n04612504_18536.png,n04612504_18536.png,1.0,2.2526517,0.14106081,1.4931202
vit_b_16,1,193,NaN,dog,dog,cr,0193_cl_dnn_cr_dog_40_n02088466_6371.png,n02088466_6371.png,1.0,0.47693288,0.19003735,0.20286576
vit_b_16,1,194,NaN,bear,bear,bw,0194_cl_dnn_bw_bear_40_n02133161_1003.png,n02133161_1003.png,1.0,4.5457354,1.2139468,2.3559303
vit_b_16,1,195,NaN,knife,knife,bw,0195_cl_dnn_bw_knife_40_n03041632_29037.png,n03041632_29037.png,1.0,8.6483,0.4248507,5.814857
vit_b_16,1,196,NaN,airplane,airplane,cr,0196_cl_dnn_cr_airplane_40_n02690373_4015.png,n02690373_4015.png,1.0,9.172229,0.9507433,5.813468
vit_b_16,1,197,NaN,knife,knife,bw,0197_cl_dnn_bw_knife_40_n03041632_28009.png,n03041632_28009.png,1.0,9.588443,0.68695265,6.2943044
vit_b_16,1,198,NaN,bicycle,bird,bw,0198_cl_dnn_bw_bird_40_n01560419_5714.png,n01560419_5714.png,0.0,0.14031622,0.8535789,-0.50435287
vit_b_16,1,199,NaN,cat,cat,cr,0199_cl_dnn_cr_cat_40_n02125311_6429.png,n02125311_6429.png,1.0,1.4294086,0.5960634,0.58926404
vit_b_16,1,200,NaN,chair,chair,bw,0200_cl_dnn_bw_chair_40_n04099969_9847.png,n04099969_9847.png,1.0,3.767366,0.6764745,2.1855903
vit_b_16,1,201,NaN,cat,cat,bw,0201_cl_dnn_bw_cat_40_n02123597_7142.png,n02123597_7142.png,1.0,2.059193,1.3022293,0.5352541
vit_b_16,1,202,NaN,bicycle,bicycle,cr,0202_cl_dnn_cr_bicycle_40_n02835271_8982.png,n02835271_8982.png,1.0,4.210168,0.3305095,2.7433329
vit_b_16,1,203,NaN,airplane,bird,bw,0203_cl_dnn_bw_bird_40_n01592084_19555.png,n01592084_19555.png,0.0,0.21399027,0.34906632,-0.09551319
vit_b_16,1,204,NaN,knife,knife,cr,0204_cl_dnn_cr_knife_40_n03041632_8618.png,n03041632_8618.png,1.0,7.805654,1.4734784,4.4775243
vit_b_16,1,205,NaN,boat,boat,bw,0205_cl_dnn_bw_boat_40_n03344393_547.png,n03344393_547.png,1.0,3.4421153,0.6358318,1.9843421
vit_b_16,1,206,NaN,knife,bird,bw,0206_cl_dnn_bw_bird_40_n01843383_5962.png,n01843383_5962.png,0.0,0.27790794,0.3539688,-0.053783152
vit_b_16,1,207,NaN,keyboard,keyboard,cr,0207_cl_dnn_cr_keyboard_40_n04505470_213.png,n04505470_213.png,1.0,5.0988994,0.45881176,3.2810376
vit_b_16,1,208,NaN,elephant,elephant,cr,0208_cl_dnn_cr_elephant_40_n02504458_2607.png,n02504458_2607.png,1.0,7.6394377,0.4414782,5.089726
vit_b_16,1,209,NaN,bear,bear,bw,0209_cl_dnn_bw_bear_40_n02134418_4157.png,n02134418_4157.png,1.0,4.986875,0.44363055,3.212559
vit_b_16,1,210,NaN,bottle,bottle,cr,0210_cl_dnn_cr_bottle_40_n03983396_11519.png,n03983396_11519.png,1.0,4.2182827,0.3959729,2.7027812
vit_b_16,1,211,NaN,cat,cat,cr,0211_cl_dnn_cr_cat_40_n02124075_1999.png,n02124075_1999.png,1.0,4.225176,0.8673529,2.3743393
vit_b_16,1,212,NaN,cat,cat,bw,0212_cl_dnn_bw_cat_40_n02124075_11252.png,n02124075_11252.png,1.0,4.232417,0.55808985,2.598142
vit_b_16,1,213,NaN,airplane,airplane,bw,0213_cl_dnn_bw_airplane_40_n02690373_4195.png,n02690373_4195.png,1.0,4.4041634,0.25186926,2.9361155
vit_b_16,1,214,NaN,airplane,airplane,cr,0214_cl_dnn_cr_airplane_40_n02690373_2629.png,n02690373_2629.png,1.0,9.23644,0.8115412,5.9573026
vit_b_16,1,215,NaN,keyboard,keyboard,bw,0215_cl_dnn_bw_keyboard_40_n04505470_5060.png,n04505470_5060.png,1.0,5.3953815,0.38494623,3.5429127
vit_b_16,1,216,NaN,bear,bear,cr,0216_cl_dnn_cr_bear_40_n02132136_10060.png,n02132136_10060.png,1.0,4.5286427,0.48158652,2.861701
vit_b_16,1,217,NaN,airplane,airplane,bw,0217_cl_dnn_bw_airplane_40_n02690373_4150.png,n02690373_4150.png,1.0,8.722692,0.26529303,5.9802837
vit_b_16,1,218,NaN,dog,dog,cr,0218_cl_dnn_cr_dog_40_n02102040_7465.png,n02102040_7465.png,1.0,1.0262713,0.07807945,0.6704729
vit_b_16,1,219,NaN,bird,bird,bw,0219_cl_dnn_bw_bird_40_n02009229_12179.png,n02009229_12179.png,1.0,1.6240628,0.42016587,0.85128367
vit_b_16,1,220,NaN,knife,knife,bw,0220_cl_dnn_bw_knife_40_n03041632_20413.png,n03041632_20413.png,1.0,9.832979,0.4918914,6.6051464
vit_b_16,1,221,NaN,truck,truck,bw,0221_cl_dnn_bw_truck_40_n03796401_13490.png,n03796401_13490.png,1.0,2.5041904,0.11837281,1.6870278
vit_b_16,1,222,NaN,oven,oven,cr,0222_cl_dnn_cr_oven_40_n04111531_584.png,n04111531_584.png,1.0,8.973079,0.81586325,5.768022
vit_b_16,1,223,NaN,airplane,airplane,bw,0223_cl_dnn_bw_airplane_40_n02690373_3899.png,n02690373_3899.png,1.0,9.170741,1.0096306,5.7707767
vit_b_16,1,224,NaN,bird,bird,cr,0224_cl_dnn_cr_bird_40_n02027492_8707.png,n02027492_8707.png,1.0,0.41665182,0.080416255,0.23775445
vit_b_16,1,225,NaN,airplane,airplane,cr,0225_cl_dnn_cr_airplane_40_n02690373_2648.png,n02690373_2648.png,1.0,8.800764,1.4614452,5.189682
vit_b_16,1,226,NaN,cat,cat,bw,0226_cl_dnn_bw_cat_40_n02123394_6598.png,n02123394_6598.png,1.0,4.427181,1.8202746,1.843361
vit_b_16,1,227,NaN,bicycle,bicycle,bw,0227_cl_dnn_bw_bicycle_40_n02835271_17168.png,n02835271_17168.png,1.0,6.032078,1.5145686,3.1943617
vit_b_16,1,228,NaN,truck,truck,bw,0228_cl_dnn_bw_truck_40_n03417042_29849.png,n03417042_29849.png,1.0,4.209305,0.32757425,2.744798
vit_b_16,1,229,NaN,knife,knife,cr,0229_cl_dnn_cr_knife_40_n03041632_29125.png,n03041632_29125.png,1.0,8.918937,0.7273526,5.7923245
vit_b_16,1,230,NaN,clock,clock,bw,0230_cl_dnn_bw_clock_40_n04548280_5456.png,n04548280_5456.png,1.0,5.450891,0.16721605,3.7361226
vit_b_16,1,231,NaN,truck,truck,bw,0231_cl_dnn_bw_truck_40_n03796401_8099.png,n03796401_8099.png,1.0,3.5997071,0.40940082,2.2558873
vit_b_16,1,232,NaN,bear,bear,cr,0232_cl_dnn_cr_bear_40_n02132136_860.png,n02132136_860.png,1.0,3.4483595,0.39160886,2.161449
vit_b_16,1,233,NaN,truck,truck,bw,0233_cl_dnn_bw_truck_40_n03796401_4423.png,n03796401_4423.png,1.0,3.2891245,0.2892588,2.1212254
vit_b_16,1,234,NaN,elephant,elephant,bw,0234_cl_dnn_bw_elephant_40_n02504458_7871.png,n02504458_7871.png,1.0,7.8234873,0.4607143,5.206267
vit_b_16,1,235,NaN,oven,oven,cr,0235_cl_dnn_cr_oven_40_n04111531_14753.png,n04111531_14753.png,1.0,9.32067,0.7711921,6.0453944
vit_b_16,1,236,NaN,clock,clock,bw,0236_cl_dnn_bw_clock_40_n04548280_17198.png,n04548280_17198.png,1.0,6.485943,0.5618616,4.188958
vit_b_16,1,237,NaN,oven,oven,cr,0237_cl_dnn_cr_oven_40_n04111531_15947.png,n04111531_15947.png,1.0,9.375717,0.30591044,6.413322
vit_b_16,1,238,NaN,elephant,elephant,bw,0238_cl_dnn_bw_elephant_40_n02504013_1103.png,n02504013_1103.png,1.0,5.046737,1.1148117,2.7802913
vit_b_16,1,239,NaN,bicycle,bicycle,cr,0239_cl_dnn_cr_bicycle_40_n03792782_33853.png,n03792782_33853.png,1.0,5.8669205,0.3860128,3.875587
vit_b_16,1,240,NaN,bottle,bottle,bw,0240_cl_dnn_bw_bottle_40_n04557648_5665.png,n04557648_5665.png,1.0,2.9000814,0.41657817,1.7561021
vit_b_16,1,241,NaN,bear,bear,bw,0241_cl_dnn_bw_bear_40_n02134418_5824.png,n02134418_5824.png,1.0,2.6857924,0.09900977,1.8291316
vit_b_16,1,242,NaN,truck,truck,cr,0242_cl_dnn_cr_truck_40_n04467665_54349.png,n04467665_54349.png,1.0,1.9140244,0.7955002,0.79091597
vit_b_16,1,243,NaN,truck,truck,cr,0243_cl_dnn_cr_truck_40_n03796401_8100.png,n03796401_8100.png,1.0,3.1283603,0.17677441,2.0870864
vit_b_16,1,244,NaN,elephant,elephant,cr,0244_cl_dnn_cr_elephant_40_n02504013_4288.png,n02504013_4288.png,1.0,6.8085303,0.38894,4.539336
vit_b_16,1,245,NaN,boat,boat,cr,0245_cl_dnn_cr_boat_40_n03662601_4437.png,n03662601_4437.png,1.0,1.8004701,0.39442658,0.99422294
vit_b_16,1,246,NaN,bicycle,bicycle,cr,0246_cl_dnn_cr_bicycle_40_n02835271_7351.png,n02835271_7351.png,1.0,4.87003,0.7674904,2.9009335
vit_b_16,1,247,NaN,elephant,elephant,bw,0247_cl_dnn_bw_elephant_40_n02504458_2556.png,n02504458_2556.png,1.0,6.878396,0.31456897,4.641327
vit_b_16,1,248,NaN,airplane,airplane,cr,0248_cl_dnn_cr_airplane_40_n02690373_303.png,n02690373_303.png,1.0,9.160533,0.4453578,6.16256
vit_b_16,1,249,NaN,elephant,elephant,bw,0249_cl_dnn_bw_elephant_40_n02504013_5503.png,n02504013_5503.png,1.0,7.772664,0.30162412,5.282823
vit_b_16,1,250,NaN,truck,truck,cr,0250_cl_dnn_cr_truck_40_n04467665_68332.png,n04467665_68332.png,1.0,2.2142456,0.79476136,1.0037268
vit_b_16,1,251,NaN,clock,clock,bw,0251_cl_dnn_bw_clock_40_n02708093_3079.png,n02708093_3079.png,1.0,6.040955,0.2556579,4.090823
vit_b_16,1,252,NaN,cat,cat,cr,0252_cl_dnn_cr_cat_40_n02123394_2395.png,n02123394_2395.png,1.0,1.5468115,0.14483638,0.99134606
vit_b_16,1,253,NaN,chair,chair,cr,0253_cl_dnn_cr_chair_40_n04429376_20906.png,n04429376_20906.png,1.0,2.5588098,0.8217721,1.2282711
vit_b_16,1,254,NaN,boat,boat,cr,0254_cl_dnn_cr_boat_40_n03344393_8160.png,n03344393_8160.png,1.0,3.0524716,0.3484702,1.9120178
vit_b_16,1,255,NaN,keyboard,keyboard,cr,0255_cl_dnn_cr_keyboard_40_n03085013_21325.png,n03085013_21325.png,1.0,6.799038,0.4436679,4.493925
vit_b_16,1,256,NaN,knife,knife,cr,0256_cl_dnn_cr_knife_40_n03041632_99875.png,n03041632_99875.png,1.0,8.313324,1.1543555,5.0621552
vit_b_16,1,257,NaN,clock,clock,bw,0257_cl_dnn_bw_clock_40_n04548280_7384.png,n04548280_7384.png,1.0,4.1843734,1.8252109,1.6681798
vit_b_16,1,258,NaN,keyboard,keyboard,bw,0258_cl_dnn_bw_keyboard_40_n03085013_23534.png,n03085013_23534.png,1.0,6.5798607,0.9450274,3.984429
vit_b_16,1,259,NaN,truck,truck,bw,0259_cl_dnn_bw_truck_40_n03417042_2383.png,n03417042_2383.png,1.0,3.132368,0.72001857,1.7057887
vit_b_16,1,260,NaN,clock,clock,bw,0260_cl_dnn_bw_clock_40_n03196217_711.png,n03196217_711.png,1.0,4.904508,0.71999204,2.9588997
vit_b_16,1,261,NaN,keyboard,keyboard,bw,0261_cl_dnn_bw_keyboard_40_n03085013_7992.png,n03085013_7992.png,1.0,6.9869003,0.4670469,4.610233
vit_b_16,1,262,NaN,cat,cat,bw,0262_cl_dnn_bw_cat_40_n02125311_75445.png,n02125311_75445.png,1.0,1.755,0.4528753,0.92074126
vit_b_16,1,263,NaN,knife,knife,cr,0263_cl_dnn_cr_knife_40_n03041632_47410.png,n03041632_47410.png,1.0,7.9163833,0.70118165,5.1019177
vit_b_16,1,264,NaN,oven,oven,bw,0264_cl_dnn_bw_oven_40_n04111531_741.png,n04111531_741.png,1.0,8.581634,0.61199,5.6353893
vit_b_16,1,265,NaN,oven,oven,bw,0265_cl_dnn_bw_oven_40_n04111531_3181.png,n04111531_3181.png,1.0,7.888086,5.0171304,2.0300722
vit_b_16,1,266,NaN,truck,truck,bw,0266_cl_dnn_bw_truck_40_n03417042_17099.png,n03417042_17099.png,1.0,1.8884493,0.1379808,1.2377682
vit_b_16,1,267,NaN,boat,boat,cr,0267_cl_dnn_cr_boat_40_n03662601_15143.png,n03662601_15143.png,1.0,1.8409641,0.31305236,1.0803968
vit_b_16,1,268,NaN,keyboard,keyboard,bw,0268_cl_dnn_bw_keyboard_40_n03085013_19197.png,n03085013_19197.png,1.0,7.795524,0.54775983,5.1249433
vit_b_16,1,269,NaN,airplane,airplane,cr,0269_cl_dnn_cr_airplane_40_n02690373_4202.png,n02690373_4202.png,1.0,9.0602045,0.20698288,6.2601733
vit_b_16,1,270,NaN,bear,bear,bw,0270_cl_dnn_bw_bear_40_n02132136_10134.png,n02132136_10134.png,1.0,5.0915093,0.51648724,3.2350292
vit_b_16,1,271,NaN,boat,boat,bw,0271_cl_dnn_bw_boat_40_n03344393_5296.png,n03344393_5296.png,1.0,3.256332,0.21680762,2.1492684
vit_b_16,1,272,NaN,keyboard,keyboard,bw,0272_cl_dnn_bw_keyboard_40_n04505470_1600.png,n04505470_1600.png,1.0,5.2508197,0.5127458,3.3503242
vit_b_16,1,273,NaN,truck,truck,bw,0273_cl_dnn_bw_truck_40_n03417042_10043.png,n03417042_10043.png,1.0,1.5963835,0.12172106,1.0427438
vit_b_16,1,274,NaN,bird,bird,bw,0274_cl_dnn_bw_bird_40_n02007558_5525.png,n02007558_5525.png,1.0,0.495416,0.29400313,0.1424204
vit_b_16,1,275,NaN,airplane,airplane,cr,0275_cl_dnn_cr_airplane_40_n02690373_6621.png,n02690373_6621.png,1.0,9.157863,0.19846988,6.3352475
vit_b_16,1,276,NaN,keyboard,keyboard,bw,0276_cl_dnn_bw_keyboard_40_n04505470_6623.png,n04505470_6623.png,1.0,5.633746,0.17511636,3.8598342
vit_b_16,1,277,NaN,knife,dog,cr,0277_cl_dnn_cr_dog_40_n02113624_3403.png,n02113624_3403.png,0.0,-0.33050624,0.6505233,-0.6936926
vit_b_16,1,278,NaN,oven,dog,bw,0278_cl_dnn_bw_dog_40_n02106550_12642.png,n02106550_12642.png,0.0,-0.06458679,0.61645323,-0.48156804
vit_b_16,1,279,NaN,clock,clock,cr,0279_cl_dnn_cr_clock_40_n04548280_24041.png,n04548280_24041.png,1.0,5.7809243,0.45756647,3.7641826
vit_b_16,1,280,NaN,truck,truck,bw,0280_cl_dnn_bw_truck_40_n03417042_3236.png,n03417042_3236.png,1.0,3.9700449,0.64219385,2.353146
vit_b_16,1,281,NaN,car,car,bw,0281_cl_dnn_bw_car_40_n03100240_2583.png,n03100240_2583.png,1.0,6.114816,1.8033793,3.0486462
vit_b_16,1,282,NaN,knife,knife,cr,0282_cl_dnn_cr_knife_40_n03041632_45090.png,n03041632_45090.png,1.0,9.081903,0.34260714,6.1796155
vit_b_16,1,283,NaN,cat,cat,cr,0283_cl_dnn_cr_cat_40_n02123597_660.png,n02123597_660.png,1.0,2.9282172,0.5048762,1.7135609
vit_b_16,1,284,NaN,clock,clock,bw,0284_cl_dnn_bw_clock_40_n04548280_7813.png,n04548280_7813.png,1.0,6.4675636,1.0051255,3.8625271
vit_b_16,1,285,NaN,car,dog,bw,0285_cl_dnn_bw_dog_40_n02111129_797.png,n02111129_797.png,0.0,-0.01569067,0.08311414,-0.069865555
vit_b_16,1,286,NaN,knife,knife,cr,0286_cl_dnn_cr_knife_40_n03041632_3717.png,n03041632_3717.png,1.0,9.221534,0.45039424,6.202132
vit_b_16,1,287,NaN,boat,boat,bw,0287_cl_dnn_bw_boat_40_n04273569_870.png,n04273569_870.png,1.0,2.8073745,0.15868987,1.8729028
vit_b_16,1,288,NaN,elephant,elephant,bw,0288_cl_dnn_bw_elephant_40_n02504013_720.png,n02504013_720.png,1.0,7.1218944,0.21929018,4.8808784
vit_b_16,1,289,NaN,oven,oven,cr,0289_cl_dnn_cr_oven_40_n04111531_14876.png,n04111531_14876.png,1.0,9.356556,0.38270175,6.3454733
vit_b_16,1,290,NaN,cat,cat,bw,0290_cl_dnn_bw_cat_40_n02123045_569.png,n02123045_569.png,1.0,3.6222389,0.92090344,1.9101326
vit_b_16,1,291,NaN,clock,clock,bw,0291_cl_dnn_bw_clock_40_n03196217_5888.png,n03196217_5888.png,1.0,4.7108126,0.21950866,3.1758316
vit_b_16,1,292,NaN,keyboard,keyboard,cr,0292_cl_dnn_cr_keyboard_40_n04505470_4770.png,n04505470_4770.png,1.0,5.9364185,0.32585552,3.967267
vit_b_16,1,293,NaN,knife,knife,cr,0293_cl_dnn_cr_knife_40_n03041632_32292.png,n03041632_32292.png,1.0,8.064304,0.6231946,5.261659
vit_b_16,1,294,NaN,elephant,elephant,cr,0294_cl_dnn_cr_elephant_40_n02504013_6672.png,n02504013_6672.png,1.0,5.704485,0.47897542,3.6949933
vit_b_16,1,295,NaN,airplane,airplane,bw,0295_cl_dnn_bw_airplane_40_n02690373_5838.png,n02690373_5838.png,1.0,8.790703,0.12513857,6.1274796
vit_b_16,1,296,NaN,bird,bird,cr,0296_cl_dnn_cr_bird_40_n01796340_5508.png,n01796340_5508.png,1.0,0.3157409,0.28304178,0.023121782
vit_b_16,1,297,NaN,clock,clock,bw,0297_cl_dnn_bw_clock_40_n03196217_6477.png,n03196217_6477.png,1.0,3.9578543,0.66386735,2.3292005
vit_b_16,1,298,NaN,keyboard,bird,bw,0298_cl_dnn_bw_bird_40_n02011460_5075.png,n02011460_5075.png,0.0,0.18226865,0.18925986,-0.0049435305
vit_b_16,1,299,NaN,boat,boat,bw,0299_cl_dnn_bw_boat_40_n03344393_10284.png,n03344393_10284.png,1.0,2.2508526,0.07955585,1.5353388
vit_b_16,1,300,NaN,oven,oven,bw,0300_cl_dnn_bw_oven_40_n04111531_14559.png,n04111531_14559.png,1.0,9.842378,1.7136116,5.7479057
vit_b_16,1,301,NaN,knife,knife,cr,0301_cl_dnn_cr_knife_40_n03041632_24060.png,n03041632_24060.png,1.0,8.157288,1.1798073,4.9338236
vit_b_16,1,302,NaN,airplane,airplane,bw,0302_cl_dnn_bw_airplane_40_n02690373_4134.png,n02690373_4134.png,1.0,9.174229,0.3082312,6.269207
vit_b_16,1,303,NaN,bear,bear,cr,0303_cl_dnn_cr_bear_40_n02134084_6669.png,n02134084_6669.png,1.0,2.4534173,1.1398073,0.9288625
vit_b_16,1,304,NaN,oven,bird,cr,0304_cl_dnn_cr_bird_40_n01558993_5744.png,n01558993_5744.png,0.0,0.2547086,0.27945855,-0.017500868
vit_b_16,1,305,NaN,oven,bird,bw,0305_cl_dnn_bw_bird_40_n01818515_10536.png,n01818515_10536.png,0.0,0.10883095,1.4152,-0.9237424
vit_b_16,1,306,NaN,bicycle,bottle,bw,0306_cl_dnn_bw_bottle_40_n04557648_20614.png,n04557648_20614.png,0.0,0.5405389,6.8637934,-4.471216
vit_b_16,1,307,NaN,clock,clock,cr,0307_cl_dnn_cr_clock_40_n04548280_3605.png,n04548280_3605.png,1.0,5.1932406,0.3486754,3.425625
vit_b_16,1,308,NaN,truck,truck,bw,0308_cl_dnn_bw_truck_40_n03796401_27288.png,n03796401_27288.png,1.0,2.6526198,0.37074926,1.6135262
vit_b_16,1,309,NaN,bicycle,bicycle,cr,0309_cl_dnn_cr_bicycle_40_n02835271_18276.png,n02835271_18276.png,1.0,6.414392,2.5672905,2.7203116
vit_b_16,1,310,NaN,bear,bear,cr,0310_cl_dnn_cr_bear_40_n02133161_12152.png,n02133161_12152.png,1.0,4.239683,0.66419005,2.5282555
vit_b_16,1,311,NaN,elephant,elephant,cr,0311_cl_dnn_cr_elephant_40_n02504013_14918.png,n02504013_14918.png,1.0,6.3546896,0.5527601,4.102584
vit_b_16,1,312,NaN,bicycle,bicycle,bw,0312_cl_dnn_bw_bicycle_40_n03792782_5323.png,n03792782_5323.png,1.0,7.5061007,1.2794632,4.4028974
vit_b_16,1,313,NaN,truck,truck,cr,0313_cl_dnn_cr_truck_40_n04467665_37066.png,n04467665_37066.png,1.0,3.4605439,1.1917084,1.6043091
vit_b_16,1,314,NaN,bird,bird,bw,0314_cl_dnn_bw_bird_40_n02025239_2481.png,n02025239_2481.png,1.0,0.32284462,0.20559879,0.08290533
vit_b_16,1,315,NaN,bicycle,bicycle,bw,0315_cl_dnn_bw_bicycle_40_n02835271_5113.png,n02835271_5113.png,1.0,4.790478,0.3698851,3.1258316
vit_b_16,1,316,NaN,elephant,elephant,cr,0316_cl_dnn_cr_elephant_40_n02504458_6185.png,n02504458_6185.png,1.0,7.2745037,0.20263591,5.000566
vit_b_16,1,317,NaN,knife,knife,cr,0317_cl_dnn_cr_knife_40_n03041632_11475.png,n03041632_11475.png,1.0,8.577417,0.52645904,5.6928873
vit_b_16,1,318,NaN,cat,cat,bw,0318_cl_dnn_bw_cat_40_n02125311_31318.png,n02125311_31318.png,1.0,1.47536,0.20299278,0.8996995
vit_b_16,1,319,NaN,clock,clock,bw,0319_cl_dnn_bw_clock_40_n04548280_8585.png,n04548280_8585.png,1.0,6.1434326,3.1396284,2.1240103
vit_b_16,1,320,NaN,bear,bear,bw,0320_cl_dnn_bw_bear_40_n02134418_12628.png,n02134418_12628.png,1.0,3.0442233,0.13119963,2.0598187
vit_b_16,1,321,NaN,chair,chair,bw,0321_cl_dnn_bw_chair_40_n03376595_17859.png,n03376595_17859.png,1.0,3.7295682,0.45140454,2.3180118
vit_b_16,1,322,NaN,knife,knife,cr,0322_cl_dnn_cr_knife_40_n03041632_379.png,n03041632_379.png,1.0,8.20559,0.7307871,5.285484
vit_b_16,1,323,NaN,bottle,bottle,bw,0323_cl_dnn_bw_bottle_40_n04557648_1293.png,n04557648_1293.png,1.0,3.6721485,2.0386915,1.1550285
vit_b_16,1,324,NaN,boat,boat,cr,0324_cl_dnn_cr_boat_40_n03662601_26298.png,n03662601_26298.png,1.0,1.6463718,0.53983057,0.78244287
vit_b_16,1,325,NaN,oven,oven,bw,0325_cl_dnn_bw_oven_40_n04111531_6120.png,n04111531_6120.png,1.0,9.04534,0.16908112,6.276463
vit_b_16,1,326,NaN,car,car,bw,0326_cl_dnn_bw_car_40_n02814533_92940.png,n02814533_92940.png,1.0,5.938633,0.42298725,3.9001503
vit_b_16,1,327,NaN,chair,chair,cr,0327_cl_dnn_cr_chair_40_n02791124_392.png,n02791124_392.png,1.0,2.900418,0.5350106,1.6725957
vit_b_16,1,328,NaN,clock,clock,bw,0328_cl_dnn_bw_clock_40_n04548280_3330.png,n04548280_3330.png,1.0,5.8467827,0.20263131,3.9910176
vit_b_16,1,329,NaN,car,car,cr,0329_cl_dnn_cr_car_40_n02814533_83614.png,n02814533_83614.png,1.0,3.332815,1.5646061,1.2503124
vit_b_16,1,330,NaN,bear,bear,cr,0330_cl_dnn_cr_bear_40_n02134418_3846.png,n02134418_3846.png,1.0,4.8801126,0.16860273,3.3315406
vit_b_16,1,331,NaN,elephant,elephant,cr,0331_cl_dnn_cr_elephant_40_n02504013_811.png,n02504013_811.png,1.0,6.0627613,0.2467909,4.112512
vit_b_16,1,332,NaN,airplane,airplane,bw,0332_cl_dnn_bw_airplane_40_n02690373_1442.png,n02690373_1442.png,1.0,8.9813175,0.27210635,6.1583424
vit_b_16,1,333,NaN,chair,chair,cr,0333_cl_dnn_cr_chair_40_n03376595_6691.png,n03376595_6691.png,1.0,3.1737382,0.69362545,1.7537045
vit_b_16,1,334,NaN,bicycle,bird,bw,0334_cl_dnn_bw_bird_40_n01616318_1071.png,n01616318_1071.png,0.0,0.11214368,0.35436514,-0.17127644
vit_b_16,1,335,NaN,boat,boat,cr,0335_cl_dnn_cr_boat_40_n03662601_8333.png,n03662601_8333.png,1.0,2.7348504,0.25717032,1.7519845
vit_b_16,1,336,NaN,truck,truck,cr,0336_cl_dnn_cr_truck_40_n03796401_9384.png,n03796401_9384.png,1.0,2.5038846,1.5985187,0.6401903
vit_b_16,1,337,NaN,bottle,bottle,cr,0337_cl_dnn_cr_bottle_40_n04560804_19001.png,n04560804_19001.png,1.0,2.570989,0.08315179,1.7591665
vit_b_16,1,338,NaN,cat,cat,cr,0338_cl_dnn_cr_cat_40_n02123045_7646.png,n02123045_7646.png,1.0,4.435621,0.63150465,2.6899164
vit_b_16,1,339,NaN,elephant,elephant,cr,0339_cl_dnn_cr_elephant_40_n02504013_3599.png,n02504013_3599.png,1.0,6.2310286,0.26567298,4.2181435
vit_b_16,1,340,NaN,clock,clock,cr,0340_cl_dnn_cr_clock_40_n03196217_1109.png,n03196217_1109.png,1.0,4.651605,0.8580435,2.6824532
vit_b_16,1,341,NaN,boat,boat,bw,0341_cl_dnn_bw_boat_40_n03344393_5322.png,n03344393_5322.png,1.0,2.446342,0.09613688,1.661846
vit_b_16,1,342,NaN,bicycle,dog,cr,0342_cl_dnn_cr_dog_40_n02090622_11748.png,n02090622_11748.png,0.0,0.25033036,0.5759999,-0.23028316
vit_b_16,1,343,NaN,knife,knife,cr,0343_cl_dnn_cr_knife_40_n03041632_20707.png,n03041632_20707.png,1.0,9.78983,0.23149522,6.758764
vit_b_16,1,344,NaN,keyboard,keyboard,cr,0344_cl_dnn_cr_keyboard_40_n03085013_8936.png,n03085013_8936.png,1.0,7.0133314,0.26324537,4.7730317
vit_b_16,1,345,NaN,airplane,airplane,cr,0345_cl_dnn_cr_airplane_40_n02690373_4695.png,n02690373_4695.png,1.0,8.995432,0.22502026,6.2016177
vit_b_16,1,346,NaN,oven,oven,bw,0346_cl_dnn_bw_oven_40_n04111531_16463.png,n04111531_16463.png,1.0,10.213884,2.7110844,5.3052807
vit_b_16,1,347,NaN,airplane,dog,bw,0347_cl_dnn_bw_dog_40_n02099712_1234.png,n02099712_1234.png,0.0,0.30118486,0.45364368,-0.10780466
vit_b_16,1,348,NaN,boat,boat,bw,0348_cl_dnn_bw_boat_40_n03662601_17361.png,n03662601_17361.png,1.0,4.4800434,0.023528526,3.151232
vit_b_16,1,349,NaN,oven,oven,cr,0349_cl_dnn_cr_oven_40_n04111531_12929.png,n04111531_12929.png,1.0,8.563173,1.4536484,5.027193
vit_b_16,1,350,NaN,truck,truck,bw,0350_cl_dnn_bw_truck_40_n03417042_2056.png,n03417042_2056.png,1.0,4.621125,2.3892202,1.5781952
vit_b_16,1,351,NaN,oven,oven,cr,0351_cl_dnn_cr_oven_40_n04111531_2937.png,n04111531_2937.png,1.0,9.790567,0.28085798,6.72438
vit_b_16,1,352,NaN,boat,boat,bw,0352_cl_dnn_bw_boat_40_n04273569_23705.png,n04273569_23705.png,1.0,2.882767,0.3879362,1.7641119
vit_b_16,1,353,NaN,boat,boat,cr,0353_cl_dnn_cr_boat_40_n02951358_8456.png,n02951358_8456.png,1.0,2.9011056,0.34598345,1.8067442
vit_b_16,1,354,NaN,bottle,bottle,bw,0354_cl_dnn_bw_bottle_40_n03983396_11632.png,n03983396_11632.png,1.0,3.8677185,0.4334432,2.4283993
vit_b_16,1,355,NaN,bicycle,bicycle,bw,0355_cl_dnn_bw_bicycle_40_n02835271_506.png,n02835271_506.png,1.0,4.9567213,0.26537916,3.31728
vit_b_16,1,356,NaN,keyboard,keyboard,cr,0356_cl_dnn_cr_keyboard_40_n04505470_665.png,n04505470_665.png,1.0,4.8784003,0.35267177,3.2001736
vit_b_16,1,357,NaN,bear,bear,bw,0357_cl_dnn_bw_bear_40_n02132136_390.png,n02132136_390.png,1.0,4.617513,0.5533964,2.8737648
vit_b_16,1,358,NaN,bear,bear,cr,0358_cl_dnn_cr_bear_40_n02134084_13663.png,n02134084_13663.png,1.0,2.5632277,0.33192787,1.5777673
vit_b_16,1,359,NaN,airplane,airplane,cr,0359_cl_dnn_cr_airplane_40_n02690373_2837.png,n02690373_2837.png,1.0,8.882732,0.2336961,6.1157923
vit_b_16,1,360,NaN,airplane,airplane,bw,0360_cl_dnn_bw_airplane_40_n02690373_1492.png,n02690373_1492.png,1.0,8.89458,0.17274098,6.1672716
vit_b_16,1,361,NaN,car,car,cr,0361_cl_dnn_cr_car_40_n03100240_14252.png,n03100240_14252.png,1.0,5.933245,0.47163555,3.8619413
vit_b_16,1,362,NaN,elephant,elephant,bw,0362_cl_dnn_bw_elephant_40_n02504458_4908.png,n02504458_4908.png,1.0,7.935663,0.7585202,5.0750065
vit_b_16,1,363,NaN,car,bird,bw,0363_cl_dnn_bw_bird_40_n01582220_5821.png,n01582220_5821.png,0.0,0.23360702,0.37967148,-0.103283174
vit_b_16,1,364,NaN,cat,cat,cr,0364_cl_dnn_cr_cat_40_n02123045_2968.png,n02123045_2968.png,1.0,4.283911,0.55291843,2.6382103
vit_b_16,1,365,NaN,airplane,dog,cr,0365_cl_dnn_cr_dog_40_n02088466_1671.png,n02088466_1671.png,0.0,-0.003545788,1.2530817,-0.8885698
vit_b_16,1,366,NaN,boat,boat,bw,0366_cl_dnn_bw_boat_40_n03344393_7659.png,n03344393_7659.png,1.0,3.20435,0.3845992,1.9938649
vit_b_16,1,367,NaN,bicycle,bicycle,bw,0367_cl_dnn_bw_bicycle_40_n03792782_3783.png,n03792782_3783.png,1.0,7.2786627,0.9499435,4.4750805
vit_b_16,1,368,NaN,airplane,airplane,cr,0368_cl_dnn_cr_airplane_40_n02690373_2059.png,n02690373_2059.png,1.0,8.518254,0.49260414,5.6749916
vit_b_16,1,369,NaN,keyboard,keyboard,cr,0369_cl_dnn_cr_keyboard_40_n03085013_19483.png,n03085013_19483.png,1.0,7.02001,1.7799519,3.7052805
vit_b_16,1,370,NaN,bicycle,bicycle,bw,0370_cl_dnn_bw_bicycle_40_n03792782_2960.png,n03792782_2960.png,1.0,7.938372,1.2382797,4.737681
vit_b_16,1,371,NaN,keyboard,keyboard,cr,0371_cl_dnn_cr_keyboard_40_n03085013_24538.png,n03085013_24538.png,1.0,3.7173629,0.2549495,2.448296
vit_b_16,1,372,NaN,cat,cat,cr,0372_cl_dnn_cr_cat_40_n02123597_9656.png,n02123597_9656.png,1.0,3.0029972,1.7800753,0.8647363
vit_b_16,1,373,NaN,car,car,cr,0373_cl_dnn_cr_car_40_n04285008_1085.png,n04285008_1085.png,1.0,6.809674,0.49501628,4.4651375
vit_b_16,1,374,NaN,bicycle,dog,cr,0374_cl_dnn_cr_dog_40_n02102177_5870.png,n02102177_5870.png,0.0,0.28178287,0.31616396,-0.024311103
vit_b_16,1,375,NaN,boat,boat,cr,0375_cl_dnn_cr_boat_40_n03662601_24852.png,n03662601_24852.png,1.0,2.1834223,0.25012225,1.3670496
vit_b_16,1,376,NaN,bicycle,bicycle,cr,0376_cl_dnn_cr_bicycle_40_n03792782_32379.png,n03792782_32379.png,1.0,5.855297,0.62805027,3.6962216
vit_b_16,1,377,NaN,car,cat,cr,0377_cl_dnn_cr_cat_40_n02123597_12266.png,n02123597_12266.png,0.0,2.426624,3.8575659,-1.0118287
vit_b_16,1,378,NaN,airplane,airplane,cr,0378_cl_dnn_cr_airplane_40_n02690373_713.png,n02690373_713.png,1.0,9.035692,0.22163638,6.2324786
vit_b_16,1,379,NaN,airplane,airplane,cr,0379_cl_dnn_cr_airplane_40_n02690373_6543.png,n02690373_6543.png,1.0,8.940852,0.8089554,5.7501197
vit_b_16,1,380,NaN,oven,oven,cr,0380_cl_dnn_cr_oven_40_n04111531_5888.png,n04111531_5888.png,1.0,8.595127,1.5040449,5.0141525
vit_b_16,1,381,NaN,elephant,dog,bw,0381_cl_dnn_bw_dog_40_n02099601_7304.png,n02099601_7304.png,0.0,0.04434318,0.37151444,-0.23134503
vit_b_16,1,382,NaN,elephant,bird,bw,0382_cl_dnn_bw_bird_40_n01819313_146.png,n01819313_146.png,0.0,0.16697037,0.22372927,-0.0401346
vit_b_16,1,383,NaN,car,car,bw,0383_cl_dnn_bw_car_40_n03100240_18873.png,n03100240_18873.png,1.0,6.102997,1.3582819,3.35502
vit_b_16,1,384,NaN,oven,dog,bw,0384_cl_dnn_bw_dog_40_n02100583_2707.png,n02100583_2707.png,0.0,-0.10913597,0.5180914,-0.44351673
vit_b_16,1,385,NaN,chair,dog,bw,0385_cl_dnn_bw_dog_40_n02105056_15484.png,n02105056_15484.png,0.0,-0.036330927,0.29918638,-0.23724657
vit_b_16,1,386,NaN,truck,truck,bw,0386_cl_dnn_bw_truck_40_n04467665_66535.png,n04467665_66535.png,1.0,1.7831423,0.3682657,1.000469
vit_b_16,1,387,NaN,elephant,elephant,bw,0387_cl_dnn_bw_elephant_40_n02504458_12303.png,n02504458_12303.png,1.0,6.7395296,0.30533203,4.5496645
vit_b_16,1,388,NaN,bottle,bottle,cr,0388_cl_dnn_cr_bottle_40_n03937543_4586.png,n03937543_4586.png,1.0,2.2612028,-0.0005406551,1.5992942
vit_b_16,1,389,NaN,bird,bird,cr,0389_cl_dnn_cr_bird_40_n02007558_19064.png,n02007558_19064.png,1.0,0.25805688,0.17764199,0.056861915
vit_b_16,1,390,NaN,oven,oven,bw,0390_cl_dnn_bw_oven_40_n04111531_5904.png,n04111531_5904.png,1.0,9.055859,0.56825286,6.0016437
vit_b_16,1,391,NaN,keyboard,keyboard,cr,0391_cl_dnn_cr_keyboard_40_n03085013_18625.png,n03085013_18625.png,1.0,6.9059486,0.6254469,4.4409857
vit_b_16,1,392,NaN,bottle,bottle,cr,0392_cl_dnn_cr_bottle_40_n04579145_445.png,n04579145_445.png,1.0,2.1843278,0.16822465,1.4256003
vit_b_16,1,393,NaN,keyboard,keyboard,bw,0393_cl_dnn_bw_keyboard_40_n03085013_22820.png,n03085013_22820.png,1.0,4.0706215,0.16198039,2.7638266
vit_b_16,1,394,NaN,truck,truck,cr,0394_cl_dnn_cr_truck_40_n03417042_19479.png,n03417042_19479.png,1.0,1.8138003,0.5489358,0.89439434
vit_b_16,1,395,NaN,knife,bird,bw,0395_cl_dnn_bw_bird_40_n01833805_28946.png,n01833805_28946.png,0.0,0.061227184,0.16755699,-0.07518652
vit_b_16,1,396,NaN,bottle,bottle,bw,0396_cl_dnn_bw_bottle_40_n04591713_3896.png,n04591713_3896.png,1.0,2.500227,1.2991925,0.8492596
vit_b_16,1,397,NaN,cat,cat,cr,0397_cl_dnn_cr_cat_40_n02123159_782.png,n02123159_782.png,1.0,1.7763084,0.14287643,1.1550109
vit_b_16,1,398,NaN,keyboard,keyboard,bw,0398_cl_dnn_bw_keyboard_40_n04505470_464.png,n04505470_464.png,1.0,5.3304358,0.4590206,3.4446108
vit_b_16,1,399,NaN,keyboard,bird,cr,0399_cl_dnn_cr_bird_40_n01558993_3939.png,n01558993_3939.png,0.0,0.26227692,0.3132192,-0.036021627
vit_b_16,1,400,NaN,boat,boat,cr,0400_cl_dnn_cr_boat_40_n04273569_3052.png,n04273569_3052.png,1.0,3.768581,0.64139515,2.2112544
vit_b_16,1,401,NaN,knife,knife,bw,0401_cl_dnn_bw_knife_40_n03041632_85416.png,n03041632_85416.png,1.0,4.14644,2.355144,1.2666376
vit_b_16,1,402,NaN,car,car,bw,0402_cl_dnn_bw_car_40_n02814533_51154.png,n02814533_51154.png,1.0,2.279553,1.334835,0.66801643
vit_b_16,1,403,NaN,airplane,airplane,bw,0403_cl_dnn_bw_airplane_40_n02690373_6516.png,n02690373_6516.png,1.0,9.181735,0.48848096,6.1470594
vit_b_16,1,404,NaN,airplane,airplane,cr,0404_cl_dnn_cr_airplane_40_n02690373_12813.png,n02690373_12813.png,1.0,9.087499,0.31469238,6.203311
vit_b_16,1,405,NaN,airplane,airplane,bw,0405_cl_dnn_bw_airplane_40_n02690373_6406.png,n02690373_6406.png,1.0,9.220372,0.27970785,6.3220043
vit_b_16,1,406,NaN,chair,chair,cr,0406_cl_dnn_cr_chair_40_n03376595_8228.png,n03376595_8228.png,1.0,2.386206,0.12389989,1.5996919
vit_b_16,1,407,NaN,chair,chair,bw,0407_cl_dnn_bw_chair_40_n04099969_6309.png,n04099969_6309.png,1.0,2.679173,1.2065902,1.0412734
vit_b_16,1,408,NaN,elephant,elephant,cr,0408_cl_dnn_cr_elephant_40_n02504013_19831.png,n02504013_19831.png,1.0,6.067021,0.28546405,4.088178
vit_b_16,1,409,NaN,bottle,bottle,bw,0409_cl_dnn_bw_bottle_40_n03937543_5088.png,n03937543_5088.png,1.0,2.477158,1.7182422,0.53663456
vit_b_16,1,410,NaN,elephant,elephant,cr,0410_cl_dnn_cr_elephant_40_n02504458_2190.png,n02504458_2190.png,1.0,7.3742704,0.2987732,5.003132
vit_b_16,1,411,NaN,car,car,bw,0411_cl_dnn_bw_car_40_n04285008_5997.png,n04285008_5997.png,1.0,4.3463492,0.22004601,2.917737
vit_b_16,1,412,NaN,knife,knife,cr,0412_cl_dnn_cr_knife_40_n03041632_94620.png,n03041632_94620.png,1.0,6.72019,0.65040445,4.2919865
vit_b_16,1,413,NaN,bicycle,bicycle,cr,0413_cl_dnn_cr_bicycle_40_n02835271_8125.png,n02835271_8125.png,1.0,4.7535357,0.4736795,3.0263155
vit_b_16,1,414,NaN,oven,oven,cr,0414_cl_dnn_cr_oven_40_n04111531_4662.png,n04111531_4662.png,1.0,8.973984,0.35390112,6.0953193
vit_b_16,1,415,NaN,dog,dog,bw,0415_cl_dnn_bw_dog_40_n02110806_21755.png,n02110806_21755.png,1.0,1.828744,1.5433115,0.20183131
vit_b_16,1,416,NaN,bottle,bottle,bw,0416_cl_dnn_bw_bottle_40_n02823428_3505.png,n02823428_3505.png,1.0,3.175033,0.9668457,1.5614243
vit_b_16,1,417,NaN,cat,cat,cr,0417_cl_dnn_cr_cat_40_n02123045_11472.png,n02123045_11472.png,1.0,4.122729,0.5402139,2.5332208
vit_b_16,1,418,NaN,boat,boat,cr,0418_cl_dnn_cr_boat_40_n03662601_14818.png,n03662601_14818.png,1.0,1.9240421,0.33105522,1.1264118
vit_b_16,1,419,NaN,bicycle,bicycle,cr,0419_cl_dnn_cr_bicycle_40_n02835271_8322.png,n02835271_8322.png,1.0,4.2415037,0.9701694,2.3131826
vit_b_16,1,420,NaN,knife,knife,bw,0420_cl_dnn_bw_knife_40_n03041632_9580.png,n03041632_9580.png,1.0,7.004111,0.5034694,4.5966477
vit_b_16,1,421,NaN,bottle,dog,bw,0421_cl_dnn_bw_dog_40_n02088466_3052.png,n02088466_3052.png,0.0,0.16449174,0.24888149,-0.059672564
vit_b_16,1,422,NaN,keyboard,keyboard,cr,0422_cl_dnn_cr_keyboard_40_n04505470_7161.png,n04505470_7161.png,1.0,5.3189893,0.46390033,3.4330666
vit_b_16,1,423,NaN,keyboard,keyboard,cr,0423_cl_dnn_cr_keyboard_40_n04505470_2321.png,n04505470_2321.png,1.0,5.2591205,0.24649356,3.5444627
vit_b_16,1,424,NaN,knife,knife,cr,0424_cl_dnn_cr_knife_40_n03041632_6708.png,n03041632_6708.png,1.0,9.783546,0.44627967,6.6024446
vit_b_16,1,425,NaN,keyboard,keyboard,bw,0425_cl_dnn_bw_keyboard_40_n04505470_4965.png,n04505470_4965.png,1.0,4.7525635,0.26648808,3.1721344
vit_b_16,1,426,NaN,cat,cat,bw,0426_cl_dnn_bw_cat_40_n02123597_11981.png,n02123597_11981.png,1.0,3.2205937,0.8460112,1.6790835
vit_b_16,1,427,NaN,truck,truck,cr,0427_cl_dnn_cr_truck_40_n03417042_2778.png,n03417042_2778.png,1.0,2.760367,0.1289012,1.8607273
vit_b_16,1,428,NaN,car,car,cr,0428_cl_dnn_cr_car_40_n02814533_80049.png,n02814533_80049.png,1.0,2.1545217,1.3535633,0.5663631
vit_b_16,1,429,NaN,keyboard,keyboard,cr,0429_cl_dnn_cr_keyboard_40_n03085013_23561.png,n03085013_23561.png,1.0,5.4245553,0.4279384,3.5331416
vit_b_16,1,430,NaN,airplane,airplane,bw,0430_cl_dnn_bw_airplane_40_n02690373_1800.png,n02690373_1800.png,1.0,8.945096,1.5032551,5.2621765
vit_b_16,1,431,NaN,chair,chair,bw,0431_cl_dnn_bw_chair_40_n02791124_4306.png,n02791124_4306.png,1.0,1.769659,1.0007592,0.54369426
vit_b_16,1,432,NaN,bicycle,knife,bw,0432_cl_dnn_bw_knife_40_n03041632_33424.png,n03041632_33424.png,0.0,1.5124804,1.8244928,-0.22062612
vit_b_16,1,433,NaN,boat,boat,cr,0433_cl_dnn_cr_boat_40_n04273569_111.png,n04273569_111.png,1.0,2.4213774,0.38076773,1.4429289
vit_b_16,1,434,NaN,bear,bear,bw,0434_cl_dnn_bw_bear_40_n02132136_4403.png,n02132136_4403.png,1.0,4.6517167,0.6250637,2.8472736
vit_b_16,1,435,NaN,bicycle,bicycle,bw,0435_cl_dnn_bw_bicycle_40_n03792782_49707.png,n03792782_49707.png,1.0,6.819709,0.49504328,4.4722137
vit_b_16,1,436,NaN,bicycle,bicycle,cr,0436_cl_dnn_cr_bicycle_40_n02835271_3308.png,n02835271_3308.png,1.0,5.854913,0.15278667,4.0320125
vit_b_16,1,437,NaN,clock,clock,bw,0437_cl_dnn_bw_clock_40_n04548280_3305.png,n04548280_3305.png,1.0,6.135731,0.8941639,3.7063477
vit_b_16,1,438,NaN,boat,boat,bw,0438_cl_dnn_bw_boat_40_n03344393_7614.png,n03344393_7614.png,1.0,2.6105359,0.11017354,1.7680233
vit_b_16,1,439,NaN,bicycle,bicycle,bw,0439_cl_dnn_bw_bicycle_40_n02835271_9434.png,n02835271_9434.png,1.0,3.5345337,1.3984717,1.510424
vit_b_16,1,440,NaN,truck,truck,bw,0440_cl_dnn_bw_truck_40_n03417042_3039.png,n03417042_3039.png,1.0,2.359105,0.4513154,1.3490111
vit_b_16,1,441,NaN,oven,oven,cr,0441_cl_dnn_cr_oven_40_n04111531_5519.png,n04111531_5519.png,1.0,8.78631,0.31178454,5.9923944
vit_b_16,1,442,NaN,bottle,bottle,cr,0442_cl_dnn_cr_bottle_40_n03983396_3702.png,n03983396_3702.png,1.0,3.3972943,1.261496,1.5102376
vit_b_16,1,443,NaN,clock,clock,cr,0443_cl_dnn_cr_clock_40_n04548280_2177.png,n04548280_2177.png,1.0,6.90912,1.2276876,4.0173798
vit_b_16,1,444,NaN,bottle,bottle,cr,0444_cl_dnn_cr_bottle_40_n03983396_4132.png,n03983396_4132.png,1.0,4.166654,0.24826415,2.7707202
vit_b_16,1,445,NaN,bicycle,bicycle,cr,0445_cl_dnn_cr_bicycle_40_n02835271_17509.png,n02835271_17509.png,1.0,5.333756,0.2234741,3.6135151
vit_b_16,1,446,NaN,airplane,airplane,bw,0446_cl_dnn_bw_airplane_40_n02690373_3090.png,n02690373_3090.png,1.0,9.095608,0.28367186,6.2309794
vit_b_16,1,447,NaN,chair,chair,cr,0447_cl_dnn_cr_chair_40_n03376595_1302.png,n03376595_1302.png,1.0,3.1307805,0.37592787,1.9479749
vit_b_16,1,448,NaN,airplane,dog,cr,0448_cl_dnn_cr_dog_40_n02107683_3640.png,n02107683_3640.png,0.0,0.29491007,0.44682574,-0.1074206
vit_b_16,1,449,NaN,car,car,cr,0449_cl_dnn_cr_car_40_n03100240_770.png,n03100240_770.png,1.0,6.280171,0.94691706,3.7711802
vit_b_16,1,450,NaN,knife,knife,cr,0450_cl_dnn_cr_knife_40_n03041632_4305.png,n03041632_4305.png,1.0,8.821055,0.7668011,5.695218
vit_b_16,1,451,NaN,elephant,elephant,cr,0451_cl_dnn_cr_elephant_40_n02504013_4590.png,n02504013_4590.png,1.0,5.9677563,0.66176933,3.7518995
vit_b_16,1,452,NaN,truck,truck,cr,0452_cl_dnn_cr_truck_40_n03417042_5752.png,n03417042_5752.png,1.0,1.6456577,0.40866074,0.8746889
vit_b_16,1,453,NaN,oven,oven,cr,0453_cl_dnn_cr_oven_40_n04111531_21931.png,n04111531_21931.png,1.0,8.413231,2.1086078,4.4580417
vit_b_16,1,454,NaN,elephant,elephant,bw,0454_cl_dnn_bw_elephant_40_n02504458_4711.png,n02504458_4711.png,1.0,7.1057205,0.26657847,4.836004
vit_b_16,1,455,NaN,clock,clock,bw,0455_cl_dnn_bw_clock_40_n02708093_8033.png,n02708093_8033.png,1.0,5.556195,0.49873683,3.5761628
vit_b_16,1,456,NaN,bicycle,bicycle,bw,0456_cl_dnn_bw_bicycle_40_n03792782_41992.png,n03792782_41992.png,1.0,6.605443,0.40424764,4.3849072
vit_b_16,1,457,NaN,keyboard,keyboard,cr,0457_cl_dnn_cr_keyboard_40_n03085013_5622.png,n03085013_5622.png,1.0,6.6187496,0.29799327,4.46945
vit_b_16,1,458,NaN,bird,bird,bw,0458_cl_dnn_bw_bird_40_n02009912_1919.png,n02009912_1919.png,1.0,0.58462596,0.41077763,0.122929335
vit_b_16,1,459,NaN,bottle,bottle,cr,0459_cl_dnn_cr_bottle_40_n03937543_4202.png,n03937543_4202.png,1.0,0.52143896,0.37458706,0.10383997
vit_b_16,1,460,NaN,bicycle,bicycle,bw,0460_cl_dnn_bw_bicycle_40_n02835271_4341.png,n02835271_4341.png,1.0,5.063099,2.1942394,2.02859
vit_b_16,1,461,NaN,bear,bear,bw,0461_cl_dnn_bw_bear_40_n02132136_18543.png,n02132136_18543.png,1.0,6.077675,1.8259593,3.006417
vit_b_16,1,462,NaN,cat,cat,bw,0462_cl_dnn_bw_cat_40_n02124075_14425.png,n02124075_14425.png,1.0,2.8993347,0.32943818,1.8171912
vit_b_16,1,463,NaN,clock,clock,bw,0463_cl_dnn_bw_clock_40_n02708093_544.png,n02708093_544.png,1.0,5.690532,0.68420756,3.5400062
vit_b_16,1,464,NaN,bear,bear,cr,0464_cl_dnn_cr_bear_40_n02133161_7604.png,n02133161_7604.png,1.0,5.0978036,0.046559628,3.5717688
vit_b_16,1,465,NaN,car,car,bw,0465_cl_dnn_bw_car_40_n03100240_15407.png,n03100240_15407.png,1.0,6.3244348,0.6153935,4.036902
vit_b_16,1,466,NaN,bicycle,bicycle,bw,0466_cl_dnn_bw_bicycle_40_n02835271_12926.png,n02835271_12926.png,1.0,4.9171953,0.53559494,3.0982594
vit_b_16,1,467,NaN,chair,chair,cr,0467_cl_dnn_cr_chair_40_n03376595_2056.png,n03376595_2056.png,1.0,1.3205583,0.75330526,0.40110847
vit_b_16,1,468,NaN,oven,oven,bw,0468_cl_dnn_bw_oven_40_n04111531_9762.png,n04111531_9762.png,1.0,7.568236,0.9012106,4.7142987
vit_b_16,1,469,NaN,bicycle,bicycle,bw,0469_cl_dnn_bw_bicycle_40_n03792782_25799.png,n03792782_25799.png,1.0,8.270917,0.39448375,5.5694795
vit_b_16,1,470,NaN,oven,oven,cr,0470_cl_dnn_cr_oven_40_n04111531_3570.png,n04111531_3570.png,1.0,8.811378,0.69630533,5.7382226
vit_b_16,1,471,NaN,car,car,cr,0471_cl_dnn_cr_car_40_n04285008_874.png,n04285008_874.png,1.0,5.937739,0.4606626,3.872878
vit_b_16,1,472,NaN,bottle,bottle,cr,0472_cl_dnn_cr_bottle_40_n04557648_364.png,n04557648_364.png,1.0,1.5582476,0.41744518,0.8066691
vit_b_16,1,473,NaN,airplane,airplane,bw,0473_cl_dnn_bw_airplane_40_n02690373_8461.png,n02690373_8461.png,1.0,8.995376,0.28879637,6.1564813
vit_b_16,1,474,NaN,boat,boat,cr,0474_cl_dnn_cr_boat_40_n04273569_1087.png,n04273569_1087.png,1.0,2.4351797,0.45499444,1.4002025
vit_b_16,1,475,NaN,chair,chair,cr,0475_cl_dnn_cr_chair_40_n03376595_1798.png,n03376595_1798.png,1.0,2.385493,0.96985114,1.0010101
vit_b_16,1,476,NaN,oven,oven,cr,0476_cl_dnn_cr_oven_40_n04111531_5290.png,n04111531_5290.png,1.0,8.882473,0.1577513,6.16931
vit_b_16,1,477,NaN,cat,cat,bw,0477_cl_dnn_bw_cat_40_n02124075_12369.png,n02124075_12369.png,1.0,4.661939,1.187816,2.4565759
vit_b_16,1,478,NaN,elephant,elephant,bw,0478_cl_dnn_bw_elephant_40_n02504458_3714.png,n02504458_3714.png,1.0,7.5116987,0.42400256,5.011758
vit_b_16,1,479,NaN,bicycle,bicycle,bw,0479_cl_dnn_bw_bicycle_40_n03792782_7388.png,n03792782_7388.png,1.0,4.2875495,1.0408497,2.2957635
vit_b_16,1,480,NaN,truck,truck,cr,0480_cl_dnn_cr_truck_40_n03796401_18240.png,n03796401_18240.png,1.0,1.2515491,0.16912523,0.7653893
vit_b_16,1,481,NaN,airplane,airplane,cr,0481_cl_dnn_cr_airplane_40_n02690373_610.png,n02690373_610.png,1.0,9.043042,0.2798281,6.1965284
vit_b_16,1,482,NaN,airplane,airplane,bw,0482_cl_dnn_bw_airplane_40_n02690373_6046.png,n02690373_6046.png,1.0,9.16186,0.20021515,6.33684
vit_b_16,1,483,NaN,cat,dog,cr,0483_cl_dnn_cr_dog_40_n02105505_4069.png,n02105505_4069.png,0.0,0.12298107,0.20754743,-0.059797443
vit_b_16,1,484,NaN,chair,chair,bw,0484_cl_dnn_bw_chair_40_n04429376_1954.png,n04429376_1954.png,1.0,2.601929,2.497296,0.073986605
vit_b_16,1,485,NaN,oven,oven,bw,0485_cl_dnn_bw_oven_40_n04111531_7862.png,n04111531_7862.png,1.0,9.205534,1.5871651,5.3870006
vit_b_16,1,486,NaN,chair,chair,cr,0486_cl_dnn_cr_chair_40_n02791124_7424.png,n02791124_7424.png,1.0,2.8276255,1.0716677,1.2416497
vit_b_16,1,487,NaN,elephant,dog,bw,0487_cl_dnn_bw_dog_40_n02088466_5521.png,n02088466_5521.png,0.0,-0.010314176,0.23108439,-0.17069457
vit_b_16,1,488,NaN,bear,bear,cr,0488_cl_dnn_cr_bear_40_n02133161_12868.png,n02133161_12868.png,1.0,4.3138647,0.13237996,2.9567564
vit_b_16,1,489,NaN,keyboard,keyboard,bw,0489_cl_dnn_bw_keyboard_40_n04505470_4107.png,n04505470_4107.png,1.0,5.206785,0.27696228,3.4859114
vit_b_16,1,490,NaN,boat,boat,bw,0490_cl_dnn_bw_boat_40_n03662601_855.png,n03662601_855.png,1.0,4.474022,0.39038336,2.8875687
vit_b_16,1,491,NaN,knife,bird,cr,0491_cl_dnn_cr_bird_40_n02017213_7558.png,n02017213_7558.png,0.0,0.25795236,0.27422974,-0.011509841
vit_b_16,1,492,NaN,bottle,bottle,bw,0492_cl_dnn_bw_bottle_40_n04557648_23801.png,n04557648_23801.png,1.0,1.6879817,0.99306166,0.4913827
vit_b_16,1,493,NaN,bicycle,bird,bw,0493_cl_dnn_bw_bird_40_n01601694_13054.png,n01601694_13054.png,0.0,0.09816373,0.6244266,-0.37212405
vit_b_16,1,494,NaN,oven,oven,bw,0494_cl_dnn_bw_oven_40_n04111531_2207.png,n04111531_2207.png,1.0,9.165806,0.8552464,5.876453
vit_b_16,1,495,NaN,bird,bird,bw,0495_cl_dnn_bw_bird_40_n02009912_9425.png,n02009912_9425.png,1.0,0.5369182,0.17347065,0.25699624
vit_b_16,1,496,NaN,clock,clock,cr,0496_cl_dnn_cr_clock_40_n03196217_6193.png,n03196217_6193.png,1.0,4.6599636,0.20351186,3.1511874
vit_b_16,1,497,NaN,boat,boat,bw,0497_cl_dnn_bw_boat_40_n04273569_27625.png,n04273569_27625.png,1.0,2.7981477,0.5266685,1.6061783
vit_b_16,1,498,NaN,truck,truck,bw,0498_cl_dnn_bw_truck_40_n03417042_29855.png,n03417042_29855.png,1.0,4.5800295,2.365699,1.5657681
vit_b_16,1,499,NaN,bottle,bottle,cr,0499_cl_dnn_cr_bottle_40_n03983396_4212.png,n03983396_4212.png,1.0,1.1620172,0.97652173,0.13116513
vit_b_16,1,500,NaN,cat,cat,bw,0500_cl_dnn_bw_cat_40_n02123597_11613.png,n02123597_11613.png,1.0,2.5953457,0.38440493,1.5633713
vit_b_16,1,501,NaN,clock,clock,cr,0501_cl_dnn_cr_clock_40_n02708093_1559.png,n02708093_1559.png,1.0,6.6844254,0.8637796,4.115818
vit_b_16,1,502,NaN,chair,chair,cr,0502_cl_dnn_cr_chair_40_n02791124_7031.png,n02791124_7031.png,1.0,3.7455611,1.1689095,1.8219678
vit_b_16,1,503,NaN,bottle,bottle,cr,0503_cl_dnn_cr_bottle_40_n04560804_1703.png,n04560804_1703.png,1.0,2.205148,0.61984,1.120982
vit_b_16,1,504,NaN,bottle,bottle,bw,0504_cl_dnn_bw_bottle_40_n04560804_15679.png,n04560804_15679.png,1.0,3.0948732,2.0031424,0.7719703
vit_b_16,1,505,NaN,bottle,bottle,bw,0505_cl_dnn_bw_bottle_40_n03983396_1006.png,n03983396_1006.png,1.0,1.7636738,0.35820362,0.9938175
vit_b_16,1,506,NaN,knife,knife,bw,0506_cl_dnn_bw_knife_40_n03041632_100645.png,n03041632_100645.png,1.0,9.272863,0.42997855,6.252864
vit_b_16,1,507,NaN,car,car,cr,0507_cl_dnn_cr_car_40_n02814533_54845.png,n02814533_54845.png,1.0,2.7075155,0.8740888,1.2964284
vit_b_16,1,508,NaN,keyboard,keyboard,cr,0508_cl_dnn_cr_keyboard_40_n03085013_20078.png,n03085013_20078.png,1.0,6.7511845,0.5276218,4.4007235
vit_b_16,1,509,NaN,chair,chair,cr,0509_cl_dnn_cr_chair_40_n04099969_4543.png,n04099969_4543.png,1.0,2.3942883,0.70124954,1.1971592
vit_b_16,1,510,NaN,bear,bear,cr,0510_cl_dnn_cr_bear_40_n02134418_1253.png,n02134418_1253.png,1.0,4.400917,0.089177124,3.0488605
vit_b_16,1,511,NaN,bicycle,bicycle,bw,0511_cl_dnn_bw_bicycle_40_n02835271_8137.png,n02835271_8137.png,1.0,5.2239985,0.31677273,3.4699326
vit_b_16,1,512,NaN,keyboard,keyboard,bw,0512_cl_dnn_bw_keyboard_40_n04505470_7312.png,n04505470_7312.png,1.0,6.364884,0.42994285,4.196637
vit_b_16,1,513,NaN,elephant,elephant,cr,0513_cl_dnn_cr_elephant_40_n02504013_2460.png,n02504013_2460.png,1.0,6.3469243,0.75278795,3.9556518
vit_b_16,1,514,NaN,clock,clock,cr,0514_cl_dnn_cr_clock_40_n04548280_13469.png,n04548280_13469.png,1.0,5.328247,0.95992184,3.0888724
vit_b_16,1,515,NaN,chair,chair,cr,0515_cl_dnn_cr_chair_40_n02791124_3161.png,n02791124_3161.png,1.0,1.7805991,1.7435316,0.026210705
vit_b_16,1,516,NaN,car,dog,cr,0516_cl_dnn_cr_dog_40_n02093647_1818.png,n02093647_1818.png,0.0,0.03613877,0.21459265,-0.12618595
vit_b_16,1,517,NaN,chair,chair,cr,0517_cl_dnn_cr_chair_40_n02791124_4294.png,n02791124_4294.png,1.0,2.4310942,1.3005865,0.79938966
vit_b_16,1,518,NaN,cat,cat,cr,0518_cl_dnn_cr_cat_40_n02124075_3533.png,n02124075_3533.png,1.0,4.1350555,0.5053659,2.5665781
vit_b_16,1,519,NaN,boat,boat,cr,0519_cl_dnn_cr_boat_40_n03344393_2480.png,n03344393_2480.png,1.0,2.0615406,0.4311971,1.1528269
vit_b_16,1,520,NaN,car,car,bw,0520_cl_dnn_bw_car_40_n02814533_95054.png,n02814533_95054.png,1.0,2.8665667,1.4268404,1.0180402
vit_b_16,1,521,NaN,airplane,bottle,cr,0521_cl_dnn_cr_bottle_40_n03937543_1808.png,n03937543_1808.png,0.0,0.39837334,0.50752497,-0.07718186
vit_b_16,1,522,NaN,car,car,cr,0522_cl_dnn_cr_car_40_n02814533_72213.png,n02814533_72213.png,1.0,3.8039856,0.38042876,2.4208202
vit_b_16,1,523,NaN,clock,clock,cr,0523_cl_dnn_cr_clock_40_n03196217_1499.png,n03196217_1499.png,1.0,4.4074917,0.19575673,2.9781463
vit_b_16,1,524,NaN,cat,cat,cr,0524_cl_dnn_cr_cat_40_n02123045_5300.png,n02123045_5300.png,1.0,4.5038114,0.666722,2.7132318
vit_b_16,1,525,NaN,knife,bird,bw,0525_cl_dnn_bw_bird_40_n02006656_3185.png,n02006656_3185.png,0.0,-0.09982139,0.44844946,-0.387686
vit_b_16,1,526,NaN,clock,clock,cr,0526_cl_dnn_cr_clock_40_n03196217_4541.png,n03196217_4541.png,1.0,4.1546025,0.14946644,2.832059
vit_b_16,1,527,NaN,cat,cat,cr,0527_cl_dnn_cr_cat_40_n02123159_2317.png,n02123159_2317.png,1.0,4.0201077,0.21251075,2.6923776
vit_b_16,1,528,NaN,bear,bear,cr,0528_cl_dnn_cr_bear_40_n02133161_1362.png,n02133161_1362.png,1.0,4.2592216,0.15589249,2.9014919
vit_b_16,1,529,NaN,clock,clock,bw,0529_cl_dnn_bw_clock_40_n04548280_1202.png,n04548280_1202.png,1.0,3.3913834,0.8822867,1.7741992
vit_b_16,1,530,NaN,dog,dog,bw,0530_cl_dnn_bw_dog_40_n02095570_6717.png,n02095570_6717.png,1.0,0.4417584,0.30381984,0.097537294
vit_b_16,1,531,NaN,car,car,bw,0531_cl_dnn_bw_car_40_n03100240_15941.png,n03100240_15941.png,1.0,5.807966,1.079934,3.3432236
vit_b_16,1,532,NaN,chair,chair,bw,0532_cl_dnn_bw_chair_40_n02791124_1443.png,n02791124_1443.png,1.0,1.2481018,0.5179397,0.5163026
vit_b_16,1,533,NaN,bottle,bottle,cr,0533_cl_dnn_cr_bottle_40_n04557648_830.png,n04557648_830.png,1.0,1.0503782,0.4514901,0.42347783
vit_b_16,1,534,NaN,truck,truck,cr,0534_cl_dnn_cr_truck_40_n03417042_8298.png,n03417042_8298.png,1.0,1.4937327,0.48105654,0.7160702
vit_b_16,1,535,NaN,clock,clock,bw,0535_cl_dnn_bw_clock_40_n02708093_4569.png,n02708093_4569.png,1.0,6.4647365,0.2899443,4.3662376
vit_b_16,1,536,NaN,keyboard,keyboard,cr,0536_cl_dnn_cr_keyboard_40_n03085013_7576.png,n03085013_7576.png,1.0,7.7893333,0.4929838,5.1592984
vit_b_16,1,537,NaN,truck,truck,bw,0537_cl_dnn_bw_truck_40_n03417042_27093.png,n03417042_27093.png,1.0,3.3913753,0.38068953,2.1288762
vit_b_16,1,538,NaN,elephant,elephant,cr,0538_cl_dnn_cr_elephant_40_n02504013_13560.png,n02504013_13560.png,1.0,7.1612854,0.15661071,4.953053
vit_b_16,1,539,NaN,car,car,bw,0539_cl_dnn_bw_car_40_n04285008_12045.png,n04285008_12045.png,1.0,5.876263,0.45474148,3.8335948
vit_b_16,1,540,NaN,airplane,airplane,cr,0540_cl_dnn_cr_airplane_40_n02690373_5176.png,n02690373_5176.png,1.0,9.047626,0.23122992,6.2341332
vit_b_16,1,541,NaN,bicycle,bicycle,bw,0541_cl_dnn_bw_bicycle_40_n03792782_6194.png,n03792782_6194.png,1.0,7.822859,0.1936645,5.394655
vit_b_16,1,542,NaN,oven,oven,cr,0542_cl_dnn_cr_oven_40_n04111531_15912.png,n04111531_15912.png,1.0,8.966188,0.77667826,5.7908583
vit_b_16,1,543,NaN,oven,oven,cr,0543_cl_dnn_cr_oven_40_n04111531_2592.png,n04111531_2592.png,1.0,9.712855,1.0992047,6.0907707
vit_b_16,1,544,NaN,bear,bird,cr,0544_cl_dnn_cr_bird_40_n02011460_2435.png,n02011460_2435.png,0.0,0.16008939,0.50011164,-0.24043205
vit_b_16,1,545,NaN,car,car,cr,0545_cl_dnn_cr_car_40_n02814533_33205.png,n02814533_33205.png,1.0,4.359452,0.56680846,2.681804
vit_b_16,1,546,NaN,oven,oven,bw,0546_cl_dnn_bw_oven_40_n04111531_14959.png,n04111531_14959.png,1.0,8.170962,4.00485,2.9458864
vit_b_16,1,547,NaN,clock,clock,cr,0547_cl_dnn_cr_clock_40_n04548280_6743.png,n04548280_6743.png,1.0,5.738352,0.5503874,3.6684449
vit_b_16,1,548,NaN,knife,knife,bw,0548_cl_dnn_bw_knife_40_n03041632_15299.png,n03041632_15299.png,1.0,4.8473754,0.2953624,3.2187593
vit_b_16,1,549,NaN,clock,clock,bw,0549_cl_dnn_bw_clock_40_n03196217_127.png,n03196217_127.png,1.0,4.780855,0.28263065,3.1807253
vit_b_16,1,550,NaN,boat,boat,bw,0550_cl_dnn_bw_boat_40_n04273569_12917.png,n04273569_12917.png,1.0,3.0819335,0.53674734,1.7997184
vit_b_16,1,551,NaN,airplane,airplane,cr,0551_cl_dnn_cr_airplane_40_n02690373_9626.png,n02690373_9626.png,1.0,9.159445,0.9346631,5.815799
vit_b_16,1,552,NaN,bear,bear,cr,0552_cl_dnn_cr_bear_40_n02134084_20500.png,n02134084_20500.png,1.0,2.466641,0.32444108,1.5147642
vit_b_16,1,553,NaN,bear,bear,bw,0553_cl_dnn_bw_bear_40_n02132136_6890.png,n02132136_6890.png,1.0,6.218823,3.460144,1.9506806
vit_b_16,1,554,NaN,bottle,bottle,bw,0554_cl_dnn_bw_bottle_40_n02823428_3049.png,n02823428_3049.png,1.0,3.1151128,0.30878925,1.9843705
vit_b_16,1,555,NaN,keyboard,keyboard,cr,0555_cl_dnn_cr_keyboard_40_n03085013_22837.png,n03085013_22837.png,1.0,4.0974746,1.144034,2.088398
vit_b_16,1,556,NaN,keyboard,keyboard,bw,0556_cl_dnn_bw_keyboard_40_n03085013_3264.png,n03085013_3264.png,1.0,6.960451,0.3274412,4.6902466
vit_b_16,1,557,NaN,bear,bear,bw,0557_cl_dnn_bw_bear_40_n02134418_7795.png,n02134418_7795.png,1.0,3.5647824,0.22367975,2.3625164
vit_b_16,1,558,NaN,boat,boat,bw,0558_cl_dnn_bw_boat_40_n02951358_34163.png,n02951358_34163.png,1.0,2.8418274,1.7745545,0.7546759
vit_b_16,1,559,NaN,bear,bear,cr,0559_cl_dnn_cr_bear_40_n02132136_8637.png,n02132136_8637.png,1.0,3.4652202,0.3394697,2.2102394
vit_b_16,1,560,NaN,truck,truck,cr,0560_cl_dnn_cr_truck_40_n03417042_4218.png,n03417042_4218.png,1.0,1.9680505,0.11332959,1.3114856
vit_b_16,1,561,NaN,clock,clock,bw,0561_cl_dnn_bw_clock_40_n04548280_4473.png,n04548280_4473.png,1.0,5.08371,1.3125706,2.6665986
vit_b_16,1,562,NaN,bear,bear,bw,0562_cl_dnn_bw_bear_40_n02132136_21799.png,n02132136_21799.png,1.0,4.151724,0.55098546,2.5461066
vit_b_16,1,563,NaN,bird,bird,cr,0563_cl_dnn_cr_bird_40_n01531178_5780.png,n01531178_5780.png,1.0,0.71912366,0.3845709,0.23656453
vit_b_16,1,564,NaN,truck,truck,cr,0564_cl_dnn_cr_truck_40_n03796401_27184.png,n03796401_27184.png,1.0,2.204023,0.5702816,1.1552296
vit_b_16,1,565,NaN,clock,clock,bw,0565_cl_dnn_bw_clock_40_n03196217_5258.png,n03196217_5258.png,1.0,5.128067,0.07181957,3.5753067
vit_b_16,1,566,NaN,airplane,bird,cr,0566_cl_dnn_cr_bird_40_n02002556_15337.png,n02002556_15337.png,0.0,-0.07807704,0.6418476,-0.5090636
vit_b_16,1,567,NaN,bottle,bottle,cr,0567_cl_dnn_cr_bottle_40_n04560804_3683.png,n04560804_3683.png,1.0,3.4686882,0.18232258,2.3238115
vit_b_16,1,568,NaN,bicycle,bicycle,cr,0568_cl_dnn_cr_bicycle_40_n02835271_8511.png,n02835271_8511.png,1.0,4.830986,0.45464364,3.0945413
vit_b_16,1,569,NaN,bear,bear,cr,0569_cl_dnn_cr_bear_40_n02134084_23974.png,n02134084_23974.png,1.0,2.4106996,0.33479843,1.467884
vit_b_16,1,570,NaN,knife,dog,bw,0570_cl_dnn_bw_dog_40_n02091244_9271.png,n02091244_9271.png,0.0,0.2213247,0.40984282,-0.13330245
vit_b_16,1,571,NaN,bear,bear,cr,0571_cl_dnn_cr_bear_40_n02133161_6946.png,n02133161_6946.png,1.0,4.107813,0.36653614,2.6454823
vit_b_16,1,572,NaN,truck,truck,bw,0572_cl_dnn_bw_truck_40_n04467665_10060.png,n04467665_10060.png,1.0,2.5464585,0.4396049,1.4897704
vit_b_16,1,573,NaN,oven,oven,bw,0573_cl_dnn_bw_oven_40_n04111531_5328.png,n04111531_5328.png,1.0,7.731217,0.7975249,4.9028606
vit_b_16,1,574,NaN,bottle,bottle,cr,0574_cl_dnn_cr_bottle_40_n04560804_2005.png,n04560804_2005.png,1.0,2.9307594,0.1719841,1.9507487
vit_b_16,1,575,NaN,bear,bear,bw,0575_cl_dnn_bw_bear_40_n02134084_3695.png,n02134084_3695.png,1.0,3.152117,1.7577591,0.98595995
vit_b_16,1,576,NaN,cat,cat,bw,0576_cl_dnn_bw_cat_40_n02123597_2219.png,n02123597_2219.png,1.0,2.736822,0.7142724,1.4301586
vit_b_16,1,577,NaN,chair,chair,bw,0577_cl_dnn_bw_chair_40_n02791124_6077.png,n02791124_6077.png,1.0,3.497034,1.522848,1.3959603
vit_b_16,1,578,NaN,bottle,bottle,cr,0578_cl_dnn_cr_bottle_40_n04579145_7431.png,n04579145_7431.png,1.0,1.299471,0.3618535,0.66299576
vit_b_16,1,579,NaN,keyboard,keyboard,bw,0579_cl_dnn_bw_keyboard_40_n04505470_510.png,n04505470_510.png,1.0,4.3540406,0.7369393,2.5576768
vit_b_16,1,580,NaN,oven,oven,cr,0580_cl_dnn_cr_oven_40_n04111531_4452.png,n04111531_4452.png,1.0,9.397076,0.27915785,6.447342
vit_b_16,1,581,NaN,elephant,elephant,bw,0581_cl_dnn_bw_elephant_40_n02504013_237.png,n02504013_237.png,1.0,7.8291516,0.37604466,5.2701426
vit_b_16,1,582,NaN,elephant,elephant,cr,0582_cl_dnn_cr_elephant_40_n02504013_10351.png,n02504013_10351.png,1.0,5.631092,0.43473518,3.674379
vit_b_16,1,583,NaN,elephant,elephant,cr,0583_cl_dnn_cr_elephant_40_n02504458_1304.png,n02504458_1304.png,1.0,6.6186705,0.96748656,3.9959908
vit_b_16,1,584,NaN,keyboard,dog,bw,0584_cl_dnn_bw_dog_40_n02104365_9837.png,n02104365_9837.png,0.0,-0.443148,0.50926566,-0.67345816
vit_b_16,1,585,NaN,cat,cat,cr,0585_cl_dnn_cr_cat_40_n02123045_9661.png,n02123045_9661.png,1.0,4.020411,3.0592716,0.67962825
vit_b_16,1,586,NaN,bottle,bottle,bw,0586_cl_dnn_bw_bottle_40_n02823428_5214.png,n02823428_5214.png,1.0,3.9006712,0.6684531,2.2855234
vit_b_16,1,587,NaN,oven,bird,bw,0587_cl_dnn_bw_bird_40_n01828970_5448.png,n01828970_5448.png,0.0,0.21552113,0.27235135,-0.040185038
vit_b_16,1,588,NaN,car,car,cr,0588_cl_dnn_cr_car_40_n02814533_83874.png,n02814533_83874.png,1.0,6.845642,2.5064943,3.0682406
vit_b_16,1,589,NaN,oven,oven,bw,0589_cl_dnn_bw_oven_40_n04111531_8036.png,n04111531_8036.png,1.0,9.712244,2.0054352,5.449537
vit_b_16,1,590,NaN,oven,oven,cr,0590_cl_dnn_cr_oven_40_n04111531_7355.png,n04111531_7355.png,1.0,9.540034,1.8131106,5.4637604
vit_b_16,1,591,NaN,car,car,bw,0591_cl_dnn_bw_car_40_n04285008_13354.png,n04285008_13354.png,1.0,5.911361,0.8667737,3.5670621
vit_b_16,1,592,NaN,clock,clock,cr,0592_cl_dnn_cr_clock_40_n02708093_8267.png,n02708093_8267.png,1.0,5.697611,0.15582938,3.9186313
vit_b_16,1,593,NaN,cat,cat,bw,0593_cl_dnn_bw_cat_40_n02124075_14242.png,n02124075_14242.png,1.0,4.343576,0.1192923,2.9870198
vit_b_16,1,594,NaN,knife,knife,cr,0594_cl_dnn_cr_knife_40_n03041632_4279.png,n03041632_4279.png,1.0,7.3682456,0.22256877,5.0527563
vit_b_16,1,595,NaN,oven,oven,cr,0595_cl_dnn_cr_oven_40_n04111531_2296.png,n04111531_2296.png,1.0,8.883627,0.50745416,5.9228487
vit_b_16,1,596,NaN,boat,boat,cr,0596_cl_dnn_cr_boat_40_n03344393_5859.png,n03344393_5859.png,1.0,2.2753239,-0.022459116,1.6247779
vit_b_16,1,597,NaN,car,car,cr,0597_cl_dnn_cr_car_40_n02814533_57176.png,n02814533_57176.png,1.0,1.7486925,1.438034,0.2196687
vit_b_16,1,598,NaN,cat,cat,bw,0598_cl_dnn_bw_cat_40_n02123159_1769.png,n02123159_1769.png,1.0,3.9601753,1.8279258,1.507728
vit_b_16,1,599,NaN,clock,clock,cr,0599_cl_dnn_cr_clock_40_n02708093_4976.png,n02708093_4976.png,1.0,5.7159877,1.0630989,3.2900894
vit_b_16,1,600,NaN,truck,truck,cr,0600_cl_dnn_cr_truck_40_n03796401_8864.png,n03796401_8864.png,1.0,3.6605546,2.1762366,1.0495714
vit_b_16,1,601,NaN,clock,clock,bw,0601_cl_dnn_bw_clock_40_n03196217_868.png,n03196217_868.png,1.0,5.9895573,0.47886506,3.896648
vit_b_16,1,602,NaN,keyboard,keyboard,bw,0602_cl_dnn_bw_keyboard_40_n03085013_3910.png,n03085013_3910.png,1.0,6.6952267,1.8575107,3.4207819
vit_b_16,1,603,NaN,bicycle,bicycle,cr,0603_cl_dnn_cr_bicycle_40_n03792782_5466.png,n03792782_5466.png,1.0,5.5403547,0.57091767,3.5139227
vit_b_16,1,604,NaN,bear,bear,bw,0604_cl_dnn_bw_bear_40_n02132136_23248.png,n02132136_23248.png,1.0,5.549363,0.37014836,3.6622581
vit_b_16,1,605,NaN,truck,truck,bw,0605_cl_dnn_bw_truck_40_n03417042_2794.png,n03417042_2794.png,1.0,1.3420607,0.17611673,0.8244469
vit_b_16,1,606,NaN,chair,chair,bw,0606_cl_dnn_bw_chair_40_n02791124_7324.png,n02791124_7324.png,1.0,3.0395222,0.46179625,1.8227274
vit_b_16,1,607,NaN,bicycle,bicycle,bw,0607_cl_dnn_bw_bicycle_40_n02835271_6736.png,n02835271_6736.png,1.0,5.281063,0.7784384,3.1838365
vit_b_16,1,608,NaN,clock,clock,bw,0608_cl_dnn_bw_clock_40_n04548280_8990.png,n04548280_8990.png,1.0,6.1654396,0.13864033,4.2615905
vit_b_16,1,609,NaN,airplane,airplane,bw,0609_cl_dnn_bw_airplane_40_n02690373_971.png,n02690373_971.png,1.0,9.094005,0.9508366,5.7580895
vit_b_16,1,610,NaN,bear,bear,bw,0610_cl_dnn_bw_bear_40_n02132136_23853.png,n02132136_23853.png,1.0,4.9710445,0.41025075,3.2249684
vit_b_16,1,611,NaN,clock,clock,cr,0611_cl_dnn_cr_clock_40_n03196217_3416.png,n03196217_3416.png,1.0,3.9038737,0.4323433,2.4547427
vit_b_16,1,612,NaN,clock,clock,bw,0612_cl_dnn_bw_clock_40_n04548280_4346.png,n04548280_4346.png,1.0,3.9842184,1.4174613,1.8149714
vit_b_16,1,613,NaN,oven,oven,cr,0613_cl_dnn_cr_oven_40_n04111531_2342.png,n04111531_2342.png,1.0,9.428879,0.41288817,6.375268
vit_b_16,1,614,NaN,chair,chair,bw,0614_cl_dnn_bw_chair_40_n04099969_8509.png,n04099969_8509.png,1.0,2.3208184,0.6257933,1.1985638
vit_b_16,1,615,NaN,bottle,bottle,bw,0615_cl_dnn_bw_bottle_40_n03937543_4340.png,n03937543_4340.png,1.0,2.290257,0.65092385,1.1591836
vit_b_16,1,616,NaN,car,clock,bw,0616_cl_dnn_bw_clock_40_n02708093_6655.png,n02708093_6655.png,0.0,0.60912627,0.6662341,-0.040381316
vit_b_16,1,617,NaN,cat,cat,cr,0617_cl_dnn_cr_cat_40_n02123159_1339.png,n02123159_1339.png,1.0,4.117961,0.25630298,2.7306044
vit_b_16,1,618,NaN,knife,knife,bw,0618_cl_dnn_bw_knife_40_n03041632_30553.png,n03041632_30553.png,1.0,5.951301,0.8589167,3.6008596
vit_b_16,1,619,NaN,bicycle,bicycle,cr,0619_cl_dnn_cr_bicycle_40_n03792782_18707.png,n03792782_18707.png,1.0,7.540347,0.79428935,4.770183
vit_b_16,1,620,NaN,elephant,elephant,bw,0620_cl_dnn_bw_elephant_40_n02504458_3648.png,n02504458_3648.png,1.0,6.7163773,0.37535584,4.4837794
vit_b_16,1,621,NaN,elephant,elephant,cr,0621_cl_dnn_cr_elephant_40_n02504458_1179.png,n02504458_1179.png,1.0,7.5223064,0.35248873,5.069827
vit_b_16,1,622,NaN,clock,clock,bw,0622_cl_dnn_bw_clock_40_n02708093_391.png,n02708093_391.png,1.0,5.9288673,0.7471962,3.6639948
vit_b_16,1,623,NaN,car,car,cr,0623_cl_dnn_cr_car_40_n04285008_3453.png,n04285008_3453.png,1.0,6.4505363,0.90533245,3.9210513
vit_b_16,1,624,NaN,airplane,airplane,bw,0624_cl_dnn_bw_airplane_40_n02690373_2800.png,n02690373_2800.png,1.0,8.9446535,0.22552443,6.1653557
vit_b_16,1,625,NaN,cat,cat,cr,0625_cl_dnn_cr_cat_40_n02123394_979.png,n02123394_979.png,1.0,1.8497087,0.0081654,1.3021678
vit_b_16,1,626,NaN,airplane,dog,cr,0626_cl_dnn_cr_dog_40_n02105641_4701.png,n02105641_4701.png,0.0,-0.13075449,0.6826174,-0.5751408
vit_b_16,1,627,NaN,boat,boat,cr,0627_cl_dnn_cr_boat_40_n04273569_13641.png,n04273569_13641.png,1.0,2.1222782,0.48055437,1.1608741
vit_b_16,1,628,NaN,car,car,cr,0628_cl_dnn_cr_car_40_n02814533_74825.png,n02814533_74825.png,1.0,3.6742039,0.71642745,2.0914638
vit_b_16,1,629,NaN,airplane,airplane,cr,0629_cl_dnn_cr_airplane_40_n02690373_6812.png,n02690373_6812.png,1.0,9.287221,0.4542734,6.245837
vit_b_16,1,630,NaN,car,car,bw,0630_cl_dnn_bw_car_40_n03100240_19223.png,n03100240_19223.png,1.0,6.1575484,0.35416776,4.1036096
vit_b_16,1,631,NaN,bottle,bottle,bw,0631_cl_dnn_bw_bottle_40_n03983396_3817.png,n03983396_3817.png,1.0,1.8786745,0.22380245,1.1701713
vit_b_16,1,632,NaN,elephant,elephant,bw,0632_cl_dnn_bw_elephant_40_n02504013_1432.png,n02504013_1432.png,1.0,6.1342936,0.3693802,4.0764093
vit_b_16,1,633,NaN,boat,boat,cr,0633_cl_dnn_cr_boat_40_n03662601_35008.png,n03662601_35008.png,1.0,1.9754174,0.755072,0.8629145
vit_b_16,1,634,NaN,oven,oven,bw,0634_cl_dnn_bw_oven_40_n04111531_14055.png,n04111531_14055.png,1.0,9.981471,1.0806793,6.2938104
vit_b_16,1,635,NaN,airplane,airplane,bw,0635_cl_dnn_bw_airplane_40_n02690373_9812.png,n02690373_9812.png,1.0,9.295299,0.33807552,6.333713
vit_b_16,1,636,NaN,car,car,cr,0636_cl_dnn_cr_car_40_n04285008_6200.png,n04285008_6200.png,1.0,6.500023,0.73488045,4.0765715
vit_b_16,1,637,NaN,clock,clock,cr,0637_cl_dnn_cr_clock_40_n04548280_5889.png,n04548280_5889.png,1.0,4.7248306,0.28433678,3.1399035
vit_b_16,1,638,NaN,chair,chair,bw,0638_cl_dnn_bw_chair_40_n03376595_2924.png,n03376595_2924.png,1.0,2.195991,1.9566177,0.1692625
vit_b_16,1,639,NaN,airplane,airplane,bw,0639_cl_dnn_bw_airplane_40_n02690373_693.png,n02690373_693.png,1.0,9.167315,0.2928572,6.275189
vit_b_16,1,640,NaN,bicycle,bicycle,bw,0640_cl_dnn_bw_bicycle_40_n03792782_1778.png,n03792782_1778.png,1.0,7.617605,0.74786836,4.8576374
vit_b_16,1,641,NaN,clock,clock,cr,0641_cl_dnn_cr_clock_40_n02708093_444.png,n02708093_444.png,1.0,5.920639,0.5536418,3.7950401
vit_b_16,1,642,NaN,clock,clock,cr,0642_cl_dnn_cr_clock_40_n02708093_3385.png,n02708093_3385.png,1.0,6.109211,0.91200215,3.6749816
vit_b_16,1,643,NaN,clock,clock,cr,0643_cl_dnn_cr_clock_40_n03196217_970.png,n03196217_970.png,1.0,6.294729,0.06696559,4.403694
vit_b_16,1,644,NaN,clock,clock,bw,0644_cl_dnn_bw_clock_40_n04548280_4839.png,n04548280_4839.png,1.0,5.3835998,0.49240768,3.458595
vit_b_16,1,645,NaN,truck,truck,bw,0645_cl_dnn_bw_truck_40_n03796401_1853.png,n03796401_1853.png,1.0,2.8769376,0.5878345,1.6186403
vit_b_16,1,646,NaN,bottle,bottle,bw,0646_cl_dnn_bw_bottle_40_n04591713_2680.png,n04591713_2680.png,1.0,3.2240775,0.24040739,2.1097734
vit_b_16,1,647,NaN,clock,clock,bw,0647_cl_dnn_bw_clock_40_n02708093_3691.png,n02708093_3691.png,1.0,6.313314,0.2204689,4.308292
vit_b_16,1,648,NaN,cat,cat,bw,0648_cl_dnn_bw_cat_40_n02123045_12762.png,n02123045_12762.png,1.0,3.7714157,0.28987196,2.4618232
vit_b_16,1,649,NaN,cat,cat,cr,0649_cl_dnn_cr_cat_40_n02124075_17464.png,n02124075_17464.png,1.0,3.6563637,0.52575636,2.2136738
vit_b_16,1,650,NaN,chair,chair,bw,0650_cl_dnn_bw_chair_40_n02791124_5690.png,n02791124_5690.png,1.0,1.2523735,0.44300726,0.57230836
vit_b_16,1,651,NaN,elephant,bird,bw,0651_cl_dnn_bw_bird_40_n01592084_5361.png,n01592084_5361.png,0.0,0.2591765,0.31324697,-0.038233597
vit_b_16,1,652,NaN,truck,truck,cr,0652_cl_dnn_cr_truck_40_n04467665_34228.png,n04467665_34228.png,1.0,2.5285602,1.6280093,0.6367856
vit_b_16,1,653,NaN,bear,bear,cr,0653_cl_dnn_cr_bear_40_n02133161_4282.png,n02133161_4282.png,1.0,5.1992197,0.5257767,3.3046231
vit_b_16,1,654,NaN,cat,cat,bw,0654_cl_dnn_bw_cat_40_n02125311_20219.png,n02125311_20219.png,1.0,2.693013,0.056982815,1.8639549
vit_b_16,1,655,NaN,bicycle,bicycle,cr,0655_cl_dnn_cr_bicycle_40_n02835271_8502.png,n02835271_8502.png,1.0,4.757819,0.973473,2.675937
vit_b_16,1,656,NaN,dog,dog,bw,0656_cl_dnn_bw_dog_40_n02110958_5624.png,n02110958_5624.png,1.0,1.8355248,1.4000336,0.30793878
vit_b_16,1,657,NaN,knife,knife,bw,0657_cl_dnn_bw_knife_40_n03041632_35365.png,n03041632_35365.png,1.0,8.816258,0.371535,5.971321
vit_b_16,1,658,NaN,bear,bear,bw,0658_cl_dnn_bw_bear_40_n02134418_399.png,n02134418_399.png,1.0,3.3689995,0.22573245,2.2226255
vit_b_16,1,659,NaN,bear,bear,cr,0659_cl_dnn_cr_bear_40_n02132136_4314.png,n02132136_4314.png,1.0,3.395573,0.23580587,2.2342927
vit_b_16,1,660,NaN,keyboard,keyboard,cr,0660_cl_dnn_cr_keyboard_40_n04505470_996.png,n04505470_996.png,1.0,5.556238,0.2724767,3.7361836
vit_b_16,1,661,NaN,airplane,airplane,cr,0661_cl_dnn_cr_airplane_40_n02690373_3313.png,n02690373_3313.png,1.0,9.218065,0.28666353,6.315455
vit_b_16,1,662,NaN,knife,knife,bw,0662_cl_dnn_bw_knife_40_n03041632_9302.png,n03041632_9302.png,1.0,5.063437,0.8536724,2.976753
vit_b_16,1,663,NaN,clock,clock,bw,0663_cl_dnn_bw_clock_40_n04548280_7211.png,n04548280_7211.png,1.0,6.489652,0.18326479,4.4592896
vit_b_16,1,664,NaN,bird,bird,cr,0664_cl_dnn_cr_bird_40_n01829413_122.png,n01829413_122.png,1.0,0.13067381,0.08180519,0.03455533
vit_b_16,1,665,NaN,keyboard,keyboard,cr,0665_cl_dnn_cr_keyboard_40_n03085013_24001.png,n03085013_24001.png,1.0,7.4541073,0.9086617,4.628329
vit_b_16,1,666,NaN,bottle,bottle,cr,0666_cl_dnn_cr_bottle_40_n03937543_3219.png,n03937543_3219.png,1.0,0.7340073,0.4844517,0.17646246
vit_b_16,1,667,NaN,keyboard,keyboard,bw,0667_cl_dnn_bw_keyboard_40_n03085013_19916.png,n03085013_19916.png,1.0,4.33284,0.9012318,2.4265134
vit_b_16,1,668,NaN,cat,cat,cr,0668_cl_dnn_cr_cat_40_n02123159_6609.png,n02123159_6609.png,1.0,4.426407,0.20299861,2.9864006
vit_b_16,1,669,NaN,cat,cat,bw,0669_cl_dnn_bw_cat_40_n02125311_17543.png,n02125311_17543.png,1.0,1.2433777,0.19759512,0.73947996
vit_b_16,1,670,NaN,bear,bear,bw,0670_cl_dnn_bw_bear_40_n02134418_1043.png,n02134418_1043.png,1.0,2.3221242,1.6499866,0.47527307
vit_b_16,1,671,NaN,chair,chair,bw,0671_cl_dnn_bw_chair_40_n04099969_43.png,n04099969_43.png,1.0,2.4789765,0.12874068,1.6618676
vit_b_16,1,672,NaN,airplane,airplane,bw,0672_cl_dnn_bw_airplane_40_n02690373_1912.png,n02690373_1912.png,1.0,8.47818,1.2253172,5.1285486
vit_b_16,1,673,NaN,bicycle,bicycle,cr,0673_cl_dnn_cr_bicycle_40_n02835271_1426.png,n02835271_1426.png,1.0,4.9771357,0.42185506,3.2210698
vit_b_16,1,674,NaN,bicycle,bicycle,bw,0674_cl_dnn_bw_bicycle_40_n03792782_47426.png,n03792782_47426.png,1.0,7.4718237,0.7828201,4.72984
vit_b_16,1,675,NaN,truck,truck,cr,0675_cl_dnn_cr_truck_40_n03417042_27404.png,n03417042_27404.png,1.0,4.1836305,0.53741044,2.5782669
vit_b_16,1,676,NaN,clock,clock,cr,0676_cl_dnn_cr_clock_40_n04548280_4349.png,n04548280_4349.png,1.0,5.7268314,1.3906496,3.0661435
vit_b_16,1,677,NaN,oven,oven,bw,0677_cl_dnn_bw_oven_40_n04111531_8193.png,n04111531_8193.png,1.0,9.837488,0.22939017,6.7939515
vit_b_16,1,678,NaN,boat,boat,bw,0678_cl_dnn_bw_boat_40_n03344393_11855.png,n03344393_11855.png,1.0,4.4651523,0.30135238,2.944251
vit_b_16,1,679,NaN,bottle,bottle,bw,0679_cl_dnn_bw_bottle_40_n02823428_6830.png,n02823428_6830.png,1.0,2.2024343,0.46125755,1.2311978
vit_b_16,1,680,NaN,bottle,bottle,bw,0680_cl_dnn_bw_bottle_40_n02823428_3298.png,n02823428_3298.png,1.0,4.4523473,0.91762346,2.499427
vit_b_16,1,681,NaN,oven,oven,bw,0681_cl_dnn_bw_oven_40_n04111531_615.png,n04111531_615.png,1.0,2.8424456,1.2419654,1.1317104
vit_b_16,1,682,NaN,clock,clock,cr,0682_cl_dnn_cr_clock_40_n03196217_9736.png,n03196217_9736.png,1.0,4.510882,0.21152931,3.0401015
vit_b_16,1,683,NaN,clock,clock,cr,0683_cl_dnn_cr_clock_40_n03196217_6293.png,n03196217_6293.png,1.0,3.6981652,0.13768311,2.517641
vit_b_16,1,684,NaN,bicycle,bicycle,cr,0684_cl_dnn_cr_bicycle_40_n02835271_15524.png,n02835271_15524.png,1.0,5.6129665,0.12900938,3.8777435
vit_b_16,1,685,NaN,oven,oven,cr,0685_cl_dnn_cr_oven_40_n04111531_10749.png,n04111531_10749.png,1.0,8.603683,0.2579258,5.901342
vit_b_16,1,686,NaN,car,car,cr,0686_cl_dnn_cr_car_40_n03100240_9354.png,n03100240_9354.png,1.0,6.5553284,1.354886,3.677268
vit_b_16,1,687,NaN,chair,chair,bw,0687_cl_dnn_bw_chair_40_n03376595_9695.png,n03376595_9695.png,1.0,3.1659412,1.1218218,1.4454107
vit_b_16,1,688,NaN,cat,cat,bw,0688_cl_dnn_bw_cat_40_n02125311_7729.png,n02125311_7729.png,1.0,1.7794765,0.35949808,1.0040764
vit_b_16,1,689,NaN,clock,clock,cr,0689_cl_dnn_cr_clock_40_n04548280_7153.png,n04548280_7153.png,1.0,4.6023073,0.78976554,2.6958742
vit_b_16,1,690,NaN,boat,boat,cr,0690_cl_dnn_cr_boat_40_n03344393_3355.png,n03344393_3355.png,1.0,2.3333125,0.077264525,1.5952668
vit_b_16,1,691,NaN,boat,boat,bw,0691_cl_dnn_bw_boat_40_n02951358_381.png,n02951358_381.png,1.0,2.3160105,0.2886245,1.4335784
vit_b_16,1,692,NaN,boat,boat,cr,0692_cl_dnn_cr_boat_40_n03344393_6226.png,n03344393_6226.png,1.0,1.5317528,0.89348936,0.45132044
vit_b_16,1,693,NaN,car,car,bw,0693_cl_dnn_bw_car_40_n03100240_8206.png,n03100240_8206.png,1.0,6.818161,0.62111217,4.381975
vit_b_16,1,694,NaN,boat,boat,bw,0694_cl_dnn_bw_boat_40_n04273569_4044.png,n04273569_4044.png,1.0,2.0886102,0.18789822,1.3440064
vit_b_16,1,695,NaN,bicycle,bicycle,cr,0695_cl_dnn_cr_bicycle_40_n02835271_8180.png,n02835271_8180.png,1.0,6.5771065,0.26895726,4.460535
vit_b_16,1,696,NaN,bear,bear,cr,0696_cl_dnn_cr_bear_40_n02134418_1063.png,n02134418_1063.png,1.0,5.6949444,0.64918643,3.5678897
vit_b_16,1,697,NaN,truck,truck,bw,0697_cl_dnn_bw_truck_40_n03417042_265.png,n03417042_265.png,1.0,1.8014705,0.33336315,1.0381087
vit_b_16,1,698,NaN,cat,cat,cr,0698_cl_dnn_cr_cat_40_n02124075_8351.png,n02124075_8351.png,1.0,2.7455075,0.41247687,1.6497018
vit_b_16,1,699,NaN,clock,clock,bw,0699_cl_dnn_bw_clock_40_n03196217_4004.png,n03196217_4004.png,1.0,6.471861,2.0132942,3.1526828
vit_b_16,1,700,NaN,car,car,cr,0700_cl_dnn_cr_car_40_n04285008_8093.png,n04285008_8093.png,1.0,3.0550926,0.5589002,1.7650746
vit_b_16,1,701,NaN,knife,knife,bw,0701_cl_dnn_bw_knife_40_n03041632_131.png,n03041632_131.png,1.0,9.98802,3.564586,4.542054
vit_b_16,1,702,NaN,car,car,bw,0702_cl_dnn_bw_car_40_n03100240_6479.png,n03100240_6479.png,1.0,6.34239,1.0551907,3.7386148
vit_b_16,1,703,NaN,clock,clock,bw,0703_cl_dnn_bw_clock_40_n03196217_5365.png,n03196217_5365.png,1.0,4.6996064,0.41402054,3.030367
vit_b_16,1,704,NaN,bear,bear,bw,0704_cl_dnn_bw_bear_40_n02134418_6123.png,n02134418_6123.png,1.0,4.9626117,0.38339433,3.2379959
vit_b_16,1,705,NaN,bear,bear,cr,0705_cl_dnn_cr_bear_40_n02134418_5273.png,n02134418_5273.png,1.0,3.0141318,0.18094544,2.0033653
vit_b_16,1,706,NaN,bird,bird,cr,0706_cl_dnn_cr_bird_40_n01558993_11456.png,n01558993_11456.png,1.0,0.18167618,0.15015805,0.022286685
vit_b_16,1,707,NaN,oven,oven,cr,0707_cl_dnn_cr_oven_40_n04111531_6080.png,n04111531_6080.png,1.0,8.610692,0.33606127,5.8510475
vit_b_16,1,708,NaN,knife,knife,bw,0708_cl_dnn_bw_knife_40_n03041632_101553.png,n03041632_101553.png,1.0,9.281184,0.77916765,6.011833
vit_b_16,1,709,NaN,oven,oven,bw,0709_cl_dnn_bw_oven_40_n04111531_10436.png,n04111531_10436.png,1.0,8.010134,2.3159075,4.026426
vit_b_16,1,710,NaN,clock,clock,cr,0710_cl_dnn_cr_clock_40_n02708093_3621.png,n02708093_3621.png,1.0,6.106109,0.43060368,4.0131884
vit_b_16,1,711,NaN,knife,knife,cr,0711_cl_dnn_cr_knife_40_n03041632_14801.png,n03041632_14801.png,1.0,9.028257,0.8923631,5.7529464
vit_b_16,1,712,NaN,airplane,dog,cr,0712_cl_dnn_cr_dog_40_n02097130_456.png,n02097130_456.png,0.0,-0.29260254,0.36138082,-0.46243608
vit_b_16,1,713,NaN,chair,chair,cr,0713_cl_dnn_cr_chair_40_n04429376_21081.png,n04429376_21081.png,1.0,2.1580844,0.5853627,1.1120822
vit_b_16,1,714,NaN,bicycle,bicycle,cr,0714_cl_dnn_cr_bicycle_40_n02835271_2068.png,n02835271_2068.png,1.0,5.4857645,0.59867936,3.4556909
vit_b_16,1,715,NaN,chair,chair,cr,0715_cl_dnn_cr_chair_40_n03376595_1773.png,n03376595_1773.png,1.0,2.5210311,0.64644146,1.325535
vit_b_16,1,716,NaN,car,car,bw,0716_cl_dnn_bw_car_40_n03100240_23849.png,n03100240_23849.png,1.0,5.505155,2.3862772,2.2053797
vit_b_16,1,717,NaN,car,car,bw,0717_cl_dnn_bw_car_40_n04285008_4834.png,n04285008_4834.png,1.0,5.968952,0.30181065,4.007274
vit_b_16,1,718,NaN,knife,knife,cr,0718_cl_dnn_cr_knife_40_n03041632_18859.png,n03041632_18859.png,1.0,10.811945,4.50506,4.459641
vit_b_16,1,719,NaN,car,car,bw,0719_cl_dnn_bw_car_40_n03100240_7013.png,n03100240_7013.png,1.0,6.7541046,1.1241775,3.9809597
vit_b_16,1,720,NaN,airplane,airplane,cr,0720_cl_dnn_cr_airplane_40_n02690373_1732.png,n02690373_1732.png,1.0,9.139393,0.11259611,6.382909
vit_b_16,1,721,NaN,knife,dog,cr,0721_cl_dnn_cr_dog_40_n02100877_1107.png,n02100877_1107.png,0.0,-0.0038508934,0.27482322,-0.19705237
vit_b_16,1,722,NaN,dog,dog,bw,0722_cl_dnn_bw_dog_40_n02106662_50272.png,n02106662_50272.png,1.0,0.81481767,0.16421287,0.46004707
vit_b_16,1,723,NaN,boat,boat,cr,0723_cl_dnn_cr_boat_40_n03344393_3337.png,n03344393_3337.png,1.0,2.575021,0.10853398,1.7440697
vit_b_16,1,724,NaN,oven,oven,bw,0724_cl_dnn_bw_oven_40_n04111531_4939.png,n04111531_4939.png,1.0,9.78069,0.46080694,6.5901527
vit_b_16,1,725,NaN,knife,knife,bw,0725_cl_dnn_bw_knife_40_n03041632_37513.png,n03041632_37513.png,1.0,9.6284685,0.42034006,6.51113
vit_b_16,1,726,NaN,chair,chair,cr,0726_cl_dnn_cr_chair_40_n04429376_7089.png,n04429376_7089.png,1.0,2.4820852,0.6871046,1.269243
vit_b_16,1,727,NaN,knife,knife,cr,0727_cl_dnn_cr_knife_40_n03041632_32048.png,n03041632_32048.png,1.0,9.0279255,1.1334683,5.5822244
vit_b_16,1,728,NaN,boat,boat,cr,0728_cl_dnn_cr_boat_40_n02951358_5355.png,n02951358_5355.png,1.0,3.235909,1.2864709,1.3784609
vit_b_16,1,729,NaN,bird,bird,cr,0729_cl_dnn_cr_bird_40_n01797886_3876.png,n01797886_3876.png,1.0,0.3599178,0.03270282,0.23137592
vit_b_16,1,730,NaN,boat,boat,bw,0730_cl_dnn_bw_boat_40_n04273569_517.png,n04273569_517.png,1.0,3.9358144,0.46105555,2.4570255
vit_b_16,1,731,NaN,chair,chair,cr,0731_cl_dnn_cr_chair_40_n04099969_17727.png,n04099969_17727.png,1.0,3.6598797,0.7258705,2.0746577
vit_b_16,1,732,NaN,keyboard,keyboard,cr,0732_cl_dnn_cr_keyboard_40_n03085013_6644.png,n03085013_6644.png,1.0,7.6106043,0.5162502,5.016466
vit_b_16,1,733,NaN,knife,knife,bw,0733_cl_dnn_bw_knife_40_n03041632_32177.png,n03041632_32177.png,1.0,8.771087,0.4752672,5.86603
vit_b_16,1,734,NaN,chair,chair,bw,0734_cl_dnn_bw_chair_40_n03376595_2420.png,n03376595_2420.png,1.0,2.4371617,0.36754605,1.4634392
vit_b_16,1,735,NaN,clock,clock,bw,0735_cl_dnn_bw_clock_40_n02708093_1430.png,n02708093_1430.png,1.0,5.9559746,0.8051082,3.6422126
vit_b_16,1,736,NaN,knife,knife,cr,0736_cl_dnn_cr_knife_40_n03041632_90125.png,n03041632_90125.png,1.0,9.302369,1.3737836,5.6063566
vit_b_16,1,737,NaN,airplane,truck,cr,0737_cl_dnn_cr_truck_40_n04467665_67327.png,n04467665_67327.png,0.0,2.2282424,2.2653253,-0.026221577
vit_b_16,1,738,NaN,bear,dog,bw,0738_cl_dnn_bw_dog_40_n02101556_8410.png,n02101556_8410.png,0.0,0.23439214,0.36209032,-0.09029625
vit_b_16,1,739,NaN,boat,boat,bw,0739_cl_dnn_bw_boat_40_n03662601_6340.png,n03662601_6340.png,1.0,3.396798,0.9630336,1.7209312
vit_b_16,1,740,NaN,bird,bird,cr,0740_cl_dnn_cr_bird_40_n01860187_2825.png,n01860187_2825.png,1.0,0.45287943,0.24347799,0.14806919
vit_b_16,1,741,NaN,keyboard,keyboard,cr,0741_cl_dnn_cr_keyboard_40_n04505470_8575.png,n04505470_8575.png,1.0,5.410723,0.28353083,3.6254725
vit_b_16,1,742,NaN,boat,boat,bw,0742_cl_dnn_bw_boat_40_n03344393_3443.png,n03344393_3443.png,1.0,2.009013,0.12821335,1.3299261
vit_b_16,1,743,NaN,boat,boat,bw,0743_cl_dnn_bw_boat_40_n03344393_5066.png,n03344393_5066.png,1.0,3.6538525,0.44437546,2.269443
vit_b_16,1,744,NaN,elephant,elephant,bw,0744_cl_dnn_bw_elephant_40_n02504458_6995.png,n02504458_6995.png,1.0,6.9968796,0.17147186,4.826292
vit_b_16,1,745,NaN,knife,cat,bw,0745_cl_dnn_bw_cat_40_n02123394_5708.png,n02123394_5708.png,0.0,0.9895571,1.5642703,-0.40638357
vit_b_16,1,746,NaN,airplane,truck,bw,0746_cl_dnn_bw_truck_40_n04467665_68331.png,n04467665_68331.png,0.0,1.9432893,2.7742329,-0.58756584
vit_b_16,1,747,NaN,keyboard,keyboard,cr,0747_cl_dnn_cr_keyboard_40_n04505470_2740.png,n04505470_2740.png,1.0,7.047764,0.7106889,4.4809885
vit_b_16,1,748,NaN,oven,oven,bw,0748_cl_dnn_bw_oven_40_n04111531_12103.png,n04111531_12103.png,1.0,9.026428,0.7223053,5.8719015
vit_b_16,1,749,NaN,boat,boat,bw,0749_cl_dnn_bw_boat_40_n02951358_30020.png,n02951358_30020.png,1.0,3.2917747,2.9371917,0.25072807
vit_b_16,1,750,NaN,bottle,bottle,bw,0750_cl_dnn_bw_bottle_40_n03983396_16300.png,n03983396_16300.png,1.0,2.9826074,0.37263525,1.845529
vit_b_16,1,751,NaN,chair,chair,bw,0751_cl_dnn_bw_chair_40_n02791124_3926.png,n02791124_3926.png,1.0,2.7341673,0.061406832,1.8899271
vit_b_16,1,752,NaN,knife,knife,bw,0752_cl_dnn_bw_knife_40_n03041632_5102.png,n03041632_5102.png,1.0,6.7180657,0.2899118,4.5453916
vit_b_16,1,753,NaN,keyboard,keyboard,bw,0753_cl_dnn_bw_keyboard_40_n03085013_20161.png,n03085013_20161.png,1.0,6.6807575,0.17674722,4.59903
vit_b_16,1,754,NaN,bottle,bottle,bw,0754_cl_dnn_bw_bottle_40_n04591713_7959.png,n04591713_7959.png,1.0,3.859235,0.9917404,2.0276248
vit_b_16,1,755,NaN,car,car,cr,0755_cl_dnn_cr_car_40_n04285008_10901.png,n04285008_10901.png,1.0,6.357063,0.19550054,4.3568826
vit_b_16,1,756,NaN,bear,bear,cr,0756_cl_dnn_cr_bear_40_n02134084_4490.png,n02134084_4490.png,1.0,3.1921418,0.38632122,1.9840147
