subj,session,trial,rt,object_response,category,condition,imagename,filename,is_correct,targ_act,max_nontarg_act,decision_margin
alexnet,1,1,NaN,oven,oven,cr,0001_cl_dnn_cr_oven_40_n04111531_14126.png,n04111531_14126.png,1.0,18.6713,4.405882,10.087174
alexnet,1,2,NaN,bear,bear,cr,0002_cl_dnn_cr_bear_40_n02134084_5274.png,n02134084_5274.png,1.0,9.72505,8.124091,1.1320488
alexnet,1,3,NaN,cat,cat,cr,0003_cl_dnn_cr_cat_40_n02123394_133.png,n02123394_133.png,1.0,5.4832516,3.8408086,1.1613826
alexnet,1,4,NaN,car,car,cr,0004_cl_dnn_cr_car_40_n02814533_51190.png,n02814533_51190.png,1.0,17.590357,10.519974,4.999516
alexnet,1,5,NaN,chair,chair,bw,0005_cl_dnn_bw_chair_40_n04099969_14986.png,n04099969_14986.png,1.0,9.5667925,3.0816288,4.5857034
alexnet,1,6,NaN,elephant,elephant,cr,0006_cl_dnn_cr_elephant_40_n02504013_6731.png,n02504013_6731.png,1.0,15.93392,4.400819,8.155134
alexnet,1,7,NaN,bottle,bottle,cr,0007_cl_dnn_cr_bottle_40_n02823428_987.png,n02823428_987.png,1.0,19.47327,7.5805645,8.409413
alexnet,1,8,NaN,chair,truck,cr,0008_cl_dnn_cr_truck_40_n03417042_7458.png,n03417042_7458.png,0.0,6.7971463,7.864812,-0.75495356
alexnet,1,9,NaN,chair,chair,bw,0009_cl_dnn_bw_chair_40_n04099969_4577.png,n04099969_4577.png,1.0,11.187912,3.7449858,5.2629437
alexnet,1,10,NaN,knife,knife,cr,0010_cl_dnn_cr_knife_40_n03041632_83472.png,n03041632_83472.png,1.0,3.949809,2.597595,0.9561598
alexnet,1,11,NaN,elephant,elephant,bw,0011_cl_dnn_bw_elephant_40_n02504458_3485.png,n02504458_3485.png,1.0,21.319567,2.6264591,13.218023
alexnet,1,12,NaN,bear,bear,bw,0012_cl_dnn_bw_bear_40_n02133161_1066.png,n02133161_1066.png,1.0,6.3676944,4.7154126,1.1683396
alexnet,1,13,NaN,elephant,elephant,bw,0013_cl_dnn_bw_elephant_40_n02504013_1060.png,n02504013_1060.png,1.0,13.1619,4.0905714,6.4143977
alexnet,1,14,NaN,cat,bear,bw,0014_cl_dnn_bw_bear_40_n02134084_1009.png,n02134084_1009.png,0.0,2.5135324,3.7500923,-0.8743799
alexnet,1,15,NaN,cat,cat,cr,0015_cl_dnn_cr_cat_40_n02125311_13383.png,n02125311_13383.png,1.0,12.006415,4.537266,5.2814865
alexnet,1,16,NaN,elephant,elephant,bw,0016_cl_dnn_bw_elephant_40_n02504013_257.png,n02504013_257.png,1.0,18.55999,4.1497936,10.189548
alexnet,1,17,NaN,oven,cat,bw,0017_cl_dnn_bw_cat_40_n02123045_6445.png,n02123045_6445.png,0.0,5.511925,7.7679663,-1.5952619
alexnet,1,18,NaN,airplane,airplane,bw,0018_cl_dnn_bw_airplane_40_n02690373_3493.png,n02690373_3493.png,1.0,16.385788,7.553272,6.245532
alexnet,1,19,NaN,airplane,airplane,bw,0019_cl_dnn_bw_airplane_40_n02690373_5184.png,n02690373_5184.png,1.0,13.1517935,6.845128,4.459486
alexnet,1,20,NaN,car,truck,bw,0020_cl_dnn_bw_truck_40_n04467665_22637.png,n04467665_22637.png,0.0,6.8610477,8.979476,-1.497955
alexnet,1,21,NaN,cat,cat,cr,0021_cl_dnn_cr_cat_40_n02123159_10952.png,n02123159_10952.png,1.0,10.51035,5.4259133,3.5952399
alexnet,1,22,NaN,airplane,airplane,bw,0022_cl_dnn_bw_airplane_40_n02690373_3620.png,n02690373_3620.png,1.0,14.40093,6.2819242,5.7410045
alexnet,1,23,NaN,bottle,bottle,cr,0023_cl_dnn_cr_bottle_40_n04557648_10744.png,n04557648_10744.png,1.0,3.327112,2.7890213,0.3804876
alexnet,1,24,NaN,oven,oven,bw,0024_cl_dnn_bw_oven_40_n04111531_12702.png,n04111531_12702.png,1.0,8.246298,5.3980737,2.0139987
alexnet,1,25,NaN,elephant,bear,cr,0025_cl_dnn_cr_bear_40_n02133161_9949.png,n02133161_9949.png,0.0,4.3503647,4.4284024,-0.055181015
alexnet,1,26,NaN,keyboard,keyboard,cr,0026_cl_dnn_cr_keyboard_40_n03085013_3489.png,n03085013_3489.png,1.0,7.366343,3.5539658,2.6957579
alexnet,1,27,NaN,elephant,elephant,bw,0027_cl_dnn_bw_elephant_40_n02504458_4633.png,n02504458_4633.png,1.0,11.063865,4.1705456,4.874313
alexnet,1,28,NaN,clock,clock,cr,0028_cl_dnn_cr_clock_40_n04548280_7816.png,n04548280_7816.png,1.0,8.565945,4.3893037,2.9533312
alexnet,1,29,NaN,dog,dog,bw,0029_cl_dnn_bw_dog_40_n02097474_1859.png,n02097474_1859.png,1.0,4.8274093,2.7603948,1.4616
alexnet,1,30,NaN,cat,cat,bw,0030_cl_dnn_bw_cat_40_n02123394_916.png,n02123394_916.png,1.0,8.233808,4.634497,2.5450969
alexnet,1,31,NaN,elephant,elephant,cr,0031_cl_dnn_cr_elephant_40_n02504458_3525.png,n02504458_3525.png,1.0,21.240633,6.168973,10.657273
alexnet,1,32,NaN,bear,bear,bw,0032_cl_dnn_bw_bear_40_n02134418_4456.png,n02134418_4456.png,1.0,8.50709,4.908073,2.5448892
alexnet,1,33,NaN,keyboard,keyboard,bw,0033_cl_dnn_bw_keyboard_40_n03085013_24045.png,n03085013_24045.png,1.0,15.579136,6.2809997,6.5747747
alexnet,1,34,NaN,oven,knife,bw,0034_cl_dnn_bw_knife_40_n03041632_49363.png,n03041632_49363.png,0.0,4.1582236,5.8866415,-1.2221761
alexnet,1,35,NaN,cat,cat,bw,0035_cl_dnn_bw_cat_40_n02123159_7854.png,n02123159_7854.png,1.0,7.2132897,3.847849,2.3797262
alexnet,1,36,NaN,knife,knife,cr,0036_cl_dnn_cr_knife_40_n03041632_4708.png,n03041632_4708.png,1.0,16.414047,10.10452,4.4615097
alexnet,1,37,NaN,chair,chair,cr,0037_cl_dnn_cr_chair_40_n04429376_7788.png,n04429376_7788.png,1.0,7.3095236,6.55929,0.5304953
alexnet,1,38,NaN,car,car,cr,0038_cl_dnn_cr_car_40_n03100240_9086.png,n03100240_9086.png,1.0,16.927053,9.188864,5.4717264
alexnet,1,39,NaN,car,chair,cr,0039_cl_dnn_cr_chair_40_n03376595_3038.png,n03376595_3038.png,0.0,3.5509484,5.807215,-1.5954216
alexnet,1,40,NaN,car,truck,bw,0040_cl_dnn_bw_truck_40_n03796401_1758.png,n03796401_1758.png,0.0,6.358416,6.809265,-0.31879842
alexnet,1,41,NaN,boat,boat,cr,0041_cl_dnn_cr_boat_40_n04273569_4324.png,n04273569_4324.png,1.0,19.332731,6.1925106,9.291539
alexnet,1,42,NaN,bear,bear,cr,0042_cl_dnn_cr_bear_40_n02134084_1090.png,n02134084_1090.png,1.0,11.350742,8.469591,2.0372815
alexnet,1,43,NaN,bicycle,bicycle,bw,0043_cl_dnn_bw_bicycle_40_n03792782_13665.png,n03792782_13665.png,1.0,7.1825333,3.4148564,2.66415
alexnet,1,44,NaN,knife,knife,bw,0044_cl_dnn_bw_knife_40_n03041632_36215.png,n03041632_36215.png,1.0,6.507512,4.9369206,1.1105759
alexnet,1,45,NaN,car,car,bw,0045_cl_dnn_bw_car_40_n04285008_7770.png,n04285008_7770.png,1.0,12.5831785,7.7372007,3.4266238
alexnet,1,46,NaN,bottle,bottle,cr,0046_cl_dnn_cr_bottle_40_n03983396_15260.png,n03983396_15260.png,1.0,10.5132065,3.9867654,4.614891
alexnet,1,47,NaN,dog,dog,cr,0047_cl_dnn_cr_dog_40_n02091635_6519.png,n02091635_6519.png,1.0,5.236715,3.6367161,1.13137
alexnet,1,48,NaN,elephant,elephant,cr,0048_cl_dnn_cr_elephant_40_n02504013_3485.png,n02504013_3485.png,1.0,21.429142,6.941338,10.244425
alexnet,1,49,NaN,oven,oven,cr,0049_cl_dnn_cr_oven_40_n04111531_807.png,n04111531_807.png,1.0,9.329008,4.1225524,3.6815202
alexnet,1,50,NaN,oven,oven,cr,0050_cl_dnn_cr_oven_40_n04111531_605.png,n04111531_605.png,1.0,11.548533,3.650518,5.5847406
alexnet,1,51,NaN,elephant,dog,bw,0051_cl_dnn_bw_dog_40_n02109047_2662.png,n02109047_2662.png,0.0,1.4058871,10.124335,-6.164874
alexnet,1,52,NaN,truck,truck,cr,0052_cl_dnn_cr_truck_40_n03417042_16038.png,n03417042_16038.png,1.0,8.79377,4.948311,2.71915
alexnet,1,53,NaN,truck,truck,bw,0053_cl_dnn_bw_truck_40_n03796401_1710.png,n03796401_1710.png,1.0,12.417,5.8616943,4.635301
alexnet,1,54,NaN,cat,cat,cr,0054_cl_dnn_cr_cat_40_n02125311_20921.png,n02125311_20921.png,1.0,7.870012,6.104062,1.248715
alexnet,1,55,NaN,bear,bear,cr,0055_cl_dnn_cr_bear_40_n02133161_575.png,n02133161_575.png,1.0,8.82958,5.1381383,2.6102438
alexnet,1,56,NaN,knife,chair,bw,0056_cl_dnn_bw_chair_40_n04429376_21865.png,n04429376_21865.png,0.0,4.569866,7.780821,-2.2704878
alexnet,1,57,NaN,clock,bird,bw,0057_cl_dnn_bw_bird_40_n01616318_26436.png,n01616318_26436.png,0.0,1.8968972,4.828564,-2.0730016
alexnet,1,58,NaN,oven,oven,cr,0058_cl_dnn_cr_oven_40_n04111531_9498.png,n04111531_9498.png,1.0,18.342289,11.098673,5.12201
alexnet,1,59,NaN,bear,bear,bw,0059_cl_dnn_bw_bear_40_n02134418_397.png,n02134418_397.png,1.0,10.853227,5.904597,3.49921
alexnet,1,60,NaN,chair,chair,cr,0060_cl_dnn_cr_chair_40_n04099969_23961.png,n04099969_23961.png,1.0,4.4276056,3.980517,0.31613946
alexnet,1,61,NaN,cat,dog,bw,0061_cl_dnn_bw_dog_40_n02093256_7181.png,n02093256_7181.png,0.0,2.1324313,3.40172,-0.89752275
alexnet,1,62,NaN,bicycle,bicycle,cr,0062_cl_dnn_cr_bicycle_40_n02835271_26731.png,n02835271_26731.png,1.0,16.787771,4.6729603,8.566465
alexnet,1,63,NaN,cat,cat,cr,0063_cl_dnn_cr_cat_40_n02125311_12557.png,n02125311_12557.png,1.0,12.446205,5.4079,4.9768333
alexnet,1,64,NaN,dog,dog,cr,0064_cl_dnn_cr_dog_40_n02093647_2890.png,n02093647_2890.png,1.0,9.769576,4.839483,3.4861023
alexnet,1,65,NaN,keyboard,knife,cr,0065_cl_dnn_cr_knife_40_n03041632_14293.png,n03041632_14293.png,0.0,3.4052172,3.7376242,-0.23504725
alexnet,1,66,NaN,oven,oven,bw,0066_cl_dnn_bw_oven_40_n04111531_20359.png,n04111531_20359.png,1.0,7.6976085,3.8226495,2.7400098
alexnet,1,67,NaN,truck,truck,bw,0067_cl_dnn_bw_truck_40_n04467665_12177.png,n04467665_12177.png,1.0,13.417764,7.102904,4.4652805
alexnet,1,68,NaN,bicycle,bicycle,cr,0068_cl_dnn_cr_bicycle_40_n02835271_19400.png,n02835271_19400.png,1.0,12.539267,3.3626668,6.488836
alexnet,1,69,NaN,truck,truck,cr,0069_cl_dnn_cr_truck_40_n03417042_1263.png,n03417042_1263.png,1.0,9.161539,4.437668,3.3402815
alexnet,1,70,NaN,cat,cat,bw,0070_cl_dnn_bw_cat_40_n02123045_8336.png,n02123045_8336.png,1.0,12.472291,2.9789717,6.7127905
alexnet,1,71,NaN,bear,bear,bw,0071_cl_dnn_bw_bear_40_n02134418_5405.png,n02134418_5405.png,1.0,12.75923,6.3130584,4.5581317
alexnet,1,72,NaN,car,car,bw,0072_cl_dnn_bw_car_40_n04285008_2906.png,n04285008_2906.png,1.0,13.653661,8.208224,3.850505
alexnet,1,73,NaN,bird,bird,cr,0073_cl_dnn_cr_bird_40_n01818515_10517.png,n01818515_10517.png,1.0,3.924074,3.3973935,0.37241933
alexnet,1,74,NaN,truck,truck,cr,0074_cl_dnn_cr_truck_40_n03796401_14203.png,n03796401_14203.png,1.0,12.661113,9.210948,2.439635
alexnet,1,75,NaN,elephant,bird,bw,0075_cl_dnn_bw_bird_40_n02009229_2503.png,n02009229_2503.png,0.0,2.6435719,4.444255,-1.2732753
alexnet,1,76,NaN,bottle,bottle,bw,0076_cl_dnn_bw_bottle_40_n02823428_6767.png,n02823428_6767.png,1.0,14.674849,7.0547223,5.388243
alexnet,1,77,NaN,bicycle,bicycle,bw,0077_cl_dnn_bw_bicycle_40_n02835271_12847.png,n02835271_12847.png,1.0,10.446188,3.9233284,4.612358
alexnet,1,78,NaN,bicycle,bicycle,cr,0078_cl_dnn_cr_bicycle_40_n02835271_24104.png,n02835271_24104.png,1.0,17.856373,2.881806,10.588618
alexnet,1,79,NaN,clock,clock,cr,0079_cl_dnn_cr_clock_40_n04548280_77.png,n04548280_77.png,1.0,15.683548,1.8645086,9.771537
alexnet,1,80,NaN,cat,cat,bw,0080_cl_dnn_bw_cat_40_n02123394_6698.png,n02123394_6698.png,1.0,13.31788,3.743002,6.770461
alexnet,1,81,NaN,keyboard,keyboard,cr,0081_cl_dnn_cr_keyboard_40_n04505470_4356.png,n04505470_4356.png,1.0,13.6881275,6.5637927,5.0376654
alexnet,1,82,NaN,chair,chair,cr,0082_cl_dnn_cr_chair_40_n04429376_16325.png,n04429376_16325.png,1.0,11.303637,8.505908,1.9782928
alexnet,1,83,NaN,elephant,elephant,bw,0083_cl_dnn_bw_elephant_40_n02504458_6721.png,n02504458_6721.png,1.0,3.4415593,2.7517467,0.4877712
alexnet,1,84,NaN,truck,truck,cr,0084_cl_dnn_cr_truck_40_n03417042_6213.png,n03417042_6213.png,1.0,22.635181,8.701696,9.852462
alexnet,1,85,NaN,cat,dog,bw,0085_cl_dnn_bw_dog_40_n02097130_8277.png,n02097130_8277.png,0.0,2.8930862,3.0935318,-0.14173648
alexnet,1,86,NaN,bottle,bottle,cr,0086_cl_dnn_cr_bottle_40_n04557648_1856.png,n04557648_1856.png,1.0,4.29022,1.8995702,1.6904446
alexnet,1,87,NaN,knife,bird,bw,0087_cl_dnn_bw_bird_40_n01531178_10905.png,n01531178_10905.png,0.0,-1.1296177,4.3741436,-3.891747
alexnet,1,88,NaN,bear,bear,cr,0088_cl_dnn_cr_bear_40_n02133161_2202.png,n02133161_2202.png,1.0,7.061069,4.8646364,1.5531124
alexnet,1,89,NaN,elephant,elephant,cr,0089_cl_dnn_cr_elephant_40_n02504458_10439.png,n02504458_10439.png,1.0,12.519888,2.413206,7.1465034
alexnet,1,90,NaN,clock,clock,cr,0090_cl_dnn_cr_clock_40_n02708093_6766.png,n02708093_6766.png,1.0,6.8590264,5.038711,1.2871574
alexnet,1,91,NaN,car,bottle,bw,0091_cl_dnn_bw_bottle_40_n03983396_2057.png,n03983396_2057.png,0.0,3.212395,5.402509,-1.5486447
alexnet,1,92,NaN,keyboard,knife,bw,0092_cl_dnn_bw_knife_40_n03041632_10000.png,n03041632_10000.png,0.0,4.6107063,5.661217,-0.74282336
alexnet,1,93,NaN,cat,cat,cr,0093_cl_dnn_cr_cat_40_n02125311_2959.png,n02125311_2959.png,1.0,16.772903,2.2030487,10.3024435
alexnet,1,94,NaN,car,car,bw,0094_cl_dnn_bw_car_40_n04285008_13759.png,n04285008_13759.png,1.0,18.090431,10.114323,5.639961
alexnet,1,95,NaN,bicycle,bottle,cr,0095_cl_dnn_cr_bottle_40_n03937543_396.png,n03937543_396.png,0.0,4.4608054,9.9065695,-3.8507369
alexnet,1,96,NaN,boat,boat,bw,0096_cl_dnn_bw_boat_40_n03662601_3984.png,n03662601_3984.png,1.0,6.567238,4.416453,1.5208347
alexnet,1,97,NaN,truck,truck,bw,0097_cl_dnn_bw_truck_40_n04467665_2230.png,n04467665_2230.png,1.0,12.1434765,6.3892765,4.068834
alexnet,1,98,NaN,boat,boat,cr,0098_cl_dnn_cr_boat_40_n03662601_28640.png,n03662601_28640.png,1.0,13.604861,5.0019746,6.0831594
alexnet,1,99,NaN,cat,cat,cr,0099_cl_dnn_cr_cat_40_n02124075_11039.png,n02124075_11039.png,1.0,8.754082,2.9029226,4.1373944
alexnet,1,100,NaN,clock,knife,bw,0100_cl_dnn_bw_knife_40_n03041632_7380.png,n03041632_7380.png,0.0,8.722927,8.995303,-0.19259897
alexnet,1,101,NaN,cat,cat,cr,0101_cl_dnn_cr_cat_40_n02123045_6607.png,n02123045_6607.png,1.0,10.8396225,6.6983995,2.9282868
alexnet,1,102,NaN,chair,chair,cr,0102_cl_dnn_cr_chair_40_n03376595_6704.png,n03376595_6704.png,1.0,5.522084,3.06188,1.739627
alexnet,1,103,NaN,bear,bear,bw,0103_cl_dnn_bw_bear_40_n02133161_12187.png,n02133161_12187.png,1.0,17.687544,7.6448307,7.1012707
alexnet,1,104,NaN,dog,dog,cr,0104_cl_dnn_cr_dog_40_n02110958_2363.png,n02110958_2363.png,1.0,6.314349,3.981657,1.6494625
alexnet,1,105,NaN,airplane,airplane,cr,0105_cl_dnn_cr_airplane_40_n02690373_19438.png,n02690373_19438.png,1.0,23.198566,5.460842,12.542465
alexnet,1,106,NaN,bird,bird,cr,0106_cl_dnn_cr_bird_40_n01855032_5511.png,n01855032_5511.png,1.0,8.358121,4.0854607,3.0212271
alexnet,1,107,NaN,boat,boat,bw,0107_cl_dnn_bw_boat_40_n04273569_9821.png,n04273569_9821.png,1.0,14.652539,3.2349868,8.073429
alexnet,1,108,NaN,bear,bear,bw,0108_cl_dnn_bw_bear_40_n02133161_13461.png,n02133161_13461.png,1.0,4.8933563,2.8443413,1.4488724
alexnet,1,109,NaN,dog,dog,cr,0109_cl_dnn_cr_dog_40_n02113023_8552.png,n02113023_8552.png,1.0,3.4446256,2.3963246,0.74126077
alexnet,1,110,NaN,elephant,elephant,cr,0110_cl_dnn_cr_elephant_40_n02504458_1600.png,n02504458_1600.png,1.0,19.232395,4.107872,10.6946535
alexnet,1,111,NaN,chair,chair,cr,0111_cl_dnn_cr_chair_40_n04099969_4205.png,n04099969_4205.png,1.0,18.448105,1.7654278,11.796433
alexnet,1,112,NaN,dog,dog,bw,0112_cl_dnn_bw_dog_40_n02105505_2121.png,n02105505_2121.png,1.0,5.026647,2.5355217,1.7614917
alexnet,1,113,NaN,chair,chair,cr,0113_cl_dnn_cr_chair_40_n02791124_4528.png,n02791124_4528.png,1.0,11.245239,5.282739,4.2161245
alexnet,1,114,NaN,truck,truck,bw,0114_cl_dnn_bw_truck_40_n03417042_5659.png,n03417042_5659.png,1.0,7.3471713,5.766034,1.1180328
alexnet,1,115,NaN,elephant,elephant,cr,0115_cl_dnn_cr_elephant_40_n02504013_10330.png,n02504013_10330.png,1.0,24.088474,4.2157993,14.052103
alexnet,1,116,NaN,cat,cat,cr,0116_cl_dnn_cr_cat_40_n02123394_1594.png,n02123394_1594.png,1.0,10.9553385,4.479023,4.579447
alexnet,1,117,NaN,bicycle,bear,bw,0117_cl_dnn_bw_bear_40_n02132136_10654.png,n02132136_10654.png,0.0,0.33433935,4.292216,-2.7986412
alexnet,1,118,NaN,bottle,bottle,bw,0118_cl_dnn_bw_bottle_40_n02823428_5265.png,n02823428_5265.png,1.0,7.661755,4.313402,2.367643
alexnet,1,119,NaN,airplane,truck,cr,0119_cl_dnn_cr_truck_40_n04467665_3125.png,n04467665_3125.png,0.0,4.245406,5.752547,-1.0657094
alexnet,1,120,NaN,airplane,airplane,cr,0120_cl_dnn_cr_airplane_40_n02690373_60.png,n02690373_60.png,1.0,19.95187,9.037308,7.717761
alexnet,1,121,NaN,keyboard,keyboard,cr,0121_cl_dnn_cr_keyboard_40_n03085013_21645.png,n03085013_21645.png,1.0,9.2823305,4.0395727,3.7071896
alexnet,1,122,NaN,truck,car,bw,0122_cl_dnn_bw_car_40_n03100240_9471.png,n03100240_9471.png,0.0,3.9483879,4.8416605,-0.6316391
alexnet,1,123,NaN,boat,boat,cr,0123_cl_dnn_cr_boat_40_n03344393_9818.png,n03344393_9818.png,1.0,18.559292,11.875719,4.726
alexnet,1,124,NaN,elephant,elephant,bw,0124_cl_dnn_bw_elephant_40_n02504458_5444.png,n02504458_5444.png,1.0,17.070204,4.137201,9.145014
alexnet,1,125,NaN,bottle,bottle,bw,0125_cl_dnn_bw_bottle_40_n04557648_26823.png,n04557648_26823.png,1.0,6.1664724,5.3526096,0.5754879
alexnet,1,126,NaN,bottle,bottle,cr,0126_cl_dnn_cr_bottle_40_n02823428_765.png,n02823428_765.png,1.0,7.1998334,3.8356552,2.3788333
alexnet,1,127,NaN,cat,cat,bw,0127_cl_dnn_bw_cat_40_n02123045_1787.png,n02123045_1787.png,1.0,12.043179,2.8781905,6.480625
alexnet,1,128,NaN,car,car,bw,0128_cl_dnn_bw_car_40_n02814533_35863.png,n02814533_35863.png,1.0,10.37713,8.817197,1.103039
alexnet,1,129,NaN,knife,boat,bw,0129_cl_dnn_bw_boat_40_n02951358_7944.png,n02951358_7944.png,0.0,2.0022068,3.1182234,-0.78914297
alexnet,1,130,NaN,cat,dog,bw,0130_cl_dnn_bw_dog_40_n02091467_3727.png,n02091467_3727.png,0.0,5.7972665,6.743917,-0.669383
alexnet,1,131,NaN,bicycle,bicycle,cr,0131_cl_dnn_cr_bicycle_40_n02835271_5886.png,n02835271_5886.png,1.0,10.096964,2.6822412,5.2430005
alexnet,1,132,NaN,truck,truck,bw,0132_cl_dnn_bw_truck_40_n04467665_18234.png,n04467665_18234.png,1.0,11.260782,5.087501,4.365169
alexnet,1,133,NaN,elephant,elephant,cr,0133_cl_dnn_cr_elephant_40_n02504013_4892.png,n02504013_4892.png,1.0,18.179379,8.754281,6.6645503
alexnet,1,134,NaN,keyboard,keyboard,cr,0134_cl_dnn_cr_keyboard_40_n03085013_19618.png,n03085013_19618.png,1.0,13.715904,6.104925,5.381775
alexnet,1,135,NaN,oven,clock,cr,0135_cl_dnn_cr_clock_40_n03196217_3430.png,n03196217_3430.png,0.0,7.4181523,8.233416,-0.5764782
alexnet,1,136,NaN,bicycle,bicycle,bw,0136_cl_dnn_bw_bicycle_40_n03792782_24591.png,n03792782_24591.png,1.0,16.719423,4.8180275,8.415558
alexnet,1,137,NaN,oven,bird,cr,0137_cl_dnn_cr_bird_40_n02007558_2822.png,n02007558_2822.png,0.0,-0.6985316,10.32831,-7.797155
alexnet,1,138,NaN,truck,truck,bw,0138_cl_dnn_bw_truck_40_n04467665_71126.png,n04467665_71126.png,1.0,12.920872,8.338046,3.2405472
alexnet,1,139,NaN,bicycle,bicycle,cr,0139_cl_dnn_cr_bicycle_40_n02835271_22263.png,n02835271_22263.png,1.0,19.25823,4.743538,10.263437
alexnet,1,140,NaN,car,car,bw,0140_cl_dnn_bw_car_40_n04285008_5548.png,n04285008_5548.png,1.0,13.289342,9.082954,2.9743652
alexnet,1,141,NaN,oven,oven,bw,0141_cl_dnn_bw_oven_40_n04111531_13006.png,n04111531_13006.png,1.0,8.83262,5.4017515,2.42599
alexnet,1,142,NaN,car,car,bw,0142_cl_dnn_bw_car_40_n04285008_11410.png,n04285008_11410.png,1.0,11.258599,6.1286945,3.6273904
alexnet,1,143,NaN,oven,chair,bw,0143_cl_dnn_bw_chair_40_n04429376_2304.png,n04429376_2304.png,0.0,3.9563017,10.946648,-4.942921
alexnet,1,144,NaN,boat,boat,cr,0144_cl_dnn_cr_boat_40_n03662601_27165.png,n03662601_27165.png,1.0,19.466742,10.411886,6.4027495
alexnet,1,145,NaN,truck,truck,bw,0145_cl_dnn_bw_truck_40_n04467665_70308.png,n04467665_70308.png,1.0,9.365352,4.973081,3.1058044
alexnet,1,146,NaN,bicycle,bicycle,cr,0146_cl_dnn_cr_bicycle_40_n03792782_51414.png,n03792782_51414.png,1.0,15.046343,4.109336,7.733632
alexnet,1,147,NaN,knife,knife,cr,0147_cl_dnn_cr_knife_40_n03041632_44738.png,n03041632_44738.png,1.0,15.489668,5.485835,7.073778
alexnet,1,148,NaN,elephant,elephant,bw,0148_cl_dnn_bw_elephant_40_n02504458_11363.png,n02504458_11363.png,1.0,14.452406,3.1320508,8.004701
alexnet,1,149,NaN,truck,truck,cr,0149_cl_dnn_cr_truck_40_n04467665_4899.png,n04467665_4899.png,1.0,10.550564,7.5528784,2.1196837
alexnet,1,150,NaN,bear,bear,cr,0150_cl_dnn_cr_bear_40_n02134418_685.png,n02134418_685.png,1.0,8.3234415,4.895245,2.4241009
alexnet,1,151,NaN,keyboard,keyboard,bw,0151_cl_dnn_bw_keyboard_40_n04505470_4363.png,n04505470_4363.png,1.0,12.247119,5.1827507,4.9952626
alexnet,1,152,NaN,oven,oven,bw,0152_cl_dnn_bw_oven_40_n04111531_12468.png,n04111531_12468.png,1.0,12.982571,6.107836,4.8611717
alexnet,1,153,NaN,bottle,bottle,cr,0153_cl_dnn_cr_bottle_40_n04591713_5559.png,n04591713_5559.png,1.0,4.4422464,1.7457212,1.9067312
alexnet,1,154,NaN,elephant,elephant,cr,0154_cl_dnn_cr_elephant_40_n02504013_3197.png,n02504013_3197.png,1.0,5.331875,2.6891956,1.8686564
alexnet,1,155,NaN,knife,bird,bw,0155_cl_dnn_bw_bird_40_n01817953_5039.png,n01817953_5039.png,0.0,1.6719768,6.418211,-3.3560944
alexnet,1,156,NaN,bicycle,bicycle,cr,0156_cl_dnn_cr_bicycle_40_n03792782_3296.png,n03792782_3296.png,1.0,14.501595,3.809475,7.5604706
alexnet,1,157,NaN,bird,bird,cr,0157_cl_dnn_cr_bird_40_n01855672_5670.png,n01855672_5670.png,1.0,4.0067415,3.556632,0.31827548
alexnet,1,158,NaN,oven,oven,cr,0158_cl_dnn_cr_oven_40_n04111531_2260.png,n04111531_2260.png,1.0,12.207242,4.9627686,5.1226163
alexnet,1,159,NaN,cat,cat,cr,0159_cl_dnn_cr_cat_40_n02123045_5932.png,n02123045_5932.png,1.0,8.03394,3.3374236,3.320939
alexnet,1,160,NaN,dog,dog,cr,0160_cl_dnn_cr_dog_40_n02100583_1267.png,n02100583_1267.png,1.0,6.8464293,3.6601553,2.253036
alexnet,1,161,NaN,dog,dog,bw,0161_cl_dnn_bw_dog_40_n02099601_8005.png,n02099601_8005.png,1.0,5.1653647,2.0820904,2.1802042
alexnet,1,162,NaN,car,boat,cr,0162_cl_dnn_cr_boat_40_n02951358_12080.png,n02951358_12080.png,0.0,2.729589,2.8312275,-0.07186931
alexnet,1,163,NaN,oven,oven,cr,0163_cl_dnn_cr_oven_40_n04111531_20028.png,n04111531_20028.png,1.0,19.16063,6.11907,9.221775
alexnet,1,164,NaN,cat,cat,bw,0164_cl_dnn_bw_cat_40_n02123159_2107.png,n02123159_2107.png,1.0,11.410058,3.9355323,5.285288
alexnet,1,165,NaN,bear,bear,cr,0165_cl_dnn_cr_bear_40_n02134418_1351.png,n02134418_1351.png,1.0,15.257109,8.288563,4.927506
alexnet,1,166,NaN,oven,oven,cr,0166_cl_dnn_cr_oven_40_n04111531_6609.png,n04111531_6609.png,1.0,12.800376,4.363156,5.9660153
alexnet,1,167,NaN,knife,knife,bw,0167_cl_dnn_bw_knife_40_n03041632_21477.png,n03041632_21477.png,1.0,6.3099537,4.572359,1.228665
alexnet,1,168,NaN,cat,cat,cr,0168_cl_dnn_cr_cat_40_n02123394_238.png,n02123394_238.png,1.0,8.207908,2.284309,4.1886168
alexnet,1,169,NaN,elephant,elephant,cr,0169_cl_dnn_cr_elephant_40_n02504013_3141.png,n02504013_3141.png,1.0,10.670577,3.8460402,4.8256764
alexnet,1,170,NaN,elephant,elephant,cr,0170_cl_dnn_cr_elephant_40_n02504013_5035.png,n02504013_5035.png,1.0,14.839462,2.2839236,8.878106
alexnet,1,171,NaN,dog,dog,cr,0171_cl_dnn_cr_dog_40_n02089867_2298.png,n02089867_2298.png,1.0,6.7246127,4.8196473,1.347014
alexnet,1,172,NaN,cat,bear,bw,0172_cl_dnn_bw_bear_40_n02134418_2503.png,n02134418_2503.png,0.0,1.4025695,4.0303893,-1.8581492
alexnet,1,173,NaN,keyboard,keyboard,cr,0173_cl_dnn_cr_keyboard_40_n04505470_4878.png,n04505470_4878.png,1.0,7.741662,3.2998867,3.1408095
alexnet,1,174,NaN,knife,knife,bw,0174_cl_dnn_bw_knife_40_n03041632_22734.png,n03041632_22734.png,1.0,5.3788986,2.9912748,1.688305
alexnet,1,175,NaN,elephant,bear,cr,0175_cl_dnn_cr_bear_40_n02132136_8896.png,n02132136_8896.png,0.0,10.671859,12.057988,-0.9801415
alexnet,1,176,NaN,bicycle,boat,bw,0176_cl_dnn_bw_boat_40_n02951358_5952.png,n02951358_5952.png,0.0,3.3765998,4.6395164,-0.8930169
alexnet,1,177,NaN,knife,chair,bw,0177_cl_dnn_bw_chair_40_n04099969_1775.png,n04099969_1775.png,0.0,4.3512707,5.786745,-1.0150337
alexnet,1,178,NaN,airplane,airplane,bw,0178_cl_dnn_bw_airplane_40_n02690373_6524.png,n02690373_6524.png,1.0,11.734729,7.7576385,2.8122277
alexnet,1,179,NaN,bird,bear,cr,0179_cl_dnn_cr_bear_40_n02133161_1916.png,n02133161_1916.png,0.0,4.8367476,5.057228,-0.15590322
alexnet,1,180,NaN,knife,knife,bw,0180_cl_dnn_bw_knife_40_n03041632_96714.png,n03041632_96714.png,1.0,6.9172344,5.686512,0.8702522
alexnet,1,181,NaN,truck,truck,bw,0181_cl_dnn_bw_truck_40_n03417042_13635.png,n03417042_13635.png,1.0,14.915701,6.9146886,5.6575704
alexnet,1,182,NaN,boat,boat,bw,0182_cl_dnn_bw_boat_40_n04612504_1748.png,n04612504_1748.png,1.0,12.78587,9.208392,2.5296586
alexnet,1,183,NaN,bird,bird,cr,0183_cl_dnn_cr_bird_40_n01592084_3341.png,n01592084_3341.png,1.0,11.792006,2.529356,6.5496826
alexnet,1,184,NaN,car,car,bw,0184_cl_dnn_bw_car_40_n02814533_12388.png,n02814533_12388.png,1.0,16.193966,7.5992994,6.0773473
alexnet,1,185,NaN,bicycle,bicycle,cr,0185_cl_dnn_cr_bicycle_40_n03792782_5864.png,n03792782_5864.png,1.0,11.516621,4.7063084,4.815618
alexnet,1,186,NaN,cat,bird,bw,0186_cl_dnn_bw_bird_40_n01514859_17156.png,n01514859_17156.png,0.0,2.6910307,5.294081,-1.8406347
alexnet,1,187,NaN,car,car,cr,0187_cl_dnn_cr_car_40_n03100240_7737.png,n03100240_7737.png,1.0,14.247097,8.548252,4.029692
alexnet,1,188,NaN,bottle,bottle,bw,0188_cl_dnn_bw_bottle_40_n04579145_1829.png,n04579145_1829.png,1.0,5.274865,4.4593167,0.5766798
alexnet,1,189,NaN,elephant,elephant,bw,0189_cl_dnn_bw_elephant_40_n02504013_22388.png,n02504013_22388.png,1.0,11.431833,5.6685967,4.075224
alexnet,1,190,NaN,airplane,airplane,bw,0190_cl_dnn_bw_airplane_40_n02690373_7107.png,n02690373_7107.png,1.0,14.51567,6.1839886,5.8913884
alexnet,1,191,NaN,car,car,bw,0191_cl_dnn_bw_car_40_n02814533_45594.png,n02814533_45594.png,1.0,13.927867,9.290453,3.279147
alexnet,1,192,NaN,boat,boat,cr,0192_cl_dnn_cr_boat_40_n04612504_18536.png,n04612504_18536.png,1.0,12.06592,8.137045,2.778134
alexnet,1,193,NaN,dog,dog,cr,0193_cl_dnn_cr_dog_40_n02088466_6371.png,n02088466_6371.png,1.0,5.2883983,4.9317617,0.2521801
alexnet,1,194,NaN,cat,bear,bw,0194_cl_dnn_bw_bear_40_n02133161_1003.png,n02133161_1003.png,0.0,3.09853,3.945161,-0.59865856
alexnet,1,195,NaN,knife,knife,bw,0195_cl_dnn_bw_knife_40_n03041632_29037.png,n03041632_29037.png,1.0,9.17891,4.4949384,3.3120682
alexnet,1,196,NaN,airplane,airplane,cr,0196_cl_dnn_cr_airplane_40_n02690373_4015.png,n02690373_4015.png,1.0,7.0965424,4.7668676,1.6473289
alexnet,1,197,NaN,knife,knife,bw,0197_cl_dnn_bw_knife_40_n03041632_28009.png,n03041632_28009.png,1.0,6.6124463,3.583293,2.1419349
alexnet,1,198,NaN,knife,bird,bw,0198_cl_dnn_bw_bird_40_n01560419_5714.png,n01560419_5714.png,0.0,-0.76600957,3.1601605,-2.7762215
alexnet,1,199,NaN,cat,cat,cr,0199_cl_dnn_cr_cat_40_n02125311_6429.png,n02125311_6429.png,1.0,2.702041,2.2199543,0.34088674
alexnet,1,200,NaN,chair,chair,bw,0200_cl_dnn_bw_chair_40_n04099969_9847.png,n04099969_9847.png,1.0,7.2051544,3.441472,2.6613255
alexnet,1,201,NaN,cat,cat,bw,0201_cl_dnn_bw_cat_40_n02123597_7142.png,n02123597_7142.png,1.0,8.820461,5.0090065,2.6951056
alexnet,1,202,NaN,bicycle,bicycle,cr,0202_cl_dnn_cr_bicycle_40_n02835271_8982.png,n02835271_8982.png,1.0,8.708704,5.9672565,1.9384961
alexnet,1,203,NaN,bird,bird,bw,0203_cl_dnn_bw_bird_40_n01592084_19555.png,n01592084_19555.png,1.0,6.5320725,4.853992,1.1865822
alexnet,1,204,NaN,oven,knife,cr,0204_cl_dnn_cr_knife_40_n03041632_8618.png,n03041632_8618.png,0.0,8.104088,8.4852295,-0.26950786
alexnet,1,205,NaN,boat,boat,bw,0205_cl_dnn_bw_boat_40_n03344393_547.png,n03344393_547.png,1.0,6.529373,5.951655,0.4085085
alexnet,1,206,NaN,knife,bird,bw,0206_cl_dnn_bw_bird_40_n01843383_5962.png,n01843383_5962.png,0.0,-1.1418562,2.9595246,-2.9001143
alexnet,1,207,NaN,keyboard,keyboard,cr,0207_cl_dnn_cr_keyboard_40_n04505470_213.png,n04505470_213.png,1.0,22.609417,9.129443,9.531781
alexnet,1,208,NaN,elephant,elephant,cr,0208_cl_dnn_cr_elephant_40_n02504458_2607.png,n02504458_2607.png,1.0,12.354341,4.865475,5.295428
alexnet,1,209,NaN,bear,bear,bw,0209_cl_dnn_bw_bear_40_n02134418_4157.png,n02134418_4157.png,1.0,7.0810876,2.3451753,3.348796
alexnet,1,210,NaN,bottle,bottle,cr,0210_cl_dnn_cr_bottle_40_n03983396_11519.png,n03983396_11519.png,1.0,14.348375,5.6612105,6.142753
alexnet,1,211,NaN,cat,cat,cr,0211_cl_dnn_cr_cat_40_n02124075_1999.png,n02124075_1999.png,1.0,11.838832,2.7832346,6.4032745
alexnet,1,212,NaN,cat,cat,bw,0212_cl_dnn_bw_cat_40_n02124075_11252.png,n02124075_11252.png,1.0,6.127971,1.7661006,3.0843084
alexnet,1,213,NaN,airplane,airplane,bw,0213_cl_dnn_bw_airplane_40_n02690373_4195.png,n02690373_4195.png,1.0,15.8849125,6.9937463,6.2870045
alexnet,1,214,NaN,airplane,airplane,cr,0214_cl_dnn_cr_airplane_40_n02690373_2629.png,n02690373_2629.png,1.0,20.184967,7.095689,9.255518
alexnet,1,215,NaN,keyboard,keyboard,bw,0215_cl_dnn_bw_keyboard_40_n04505470_5060.png,n04505470_5060.png,1.0,8.964739,7.1677833,1.2706395
alexnet,1,216,NaN,cat,bear,cr,0216_cl_dnn_cr_bear_40_n02132136_10060.png,n02132136_10060.png,0.0,6.2089534,6.493498,-0.20120333
alexnet,1,217,NaN,airplane,airplane,bw,0217_cl_dnn_bw_airplane_40_n02690373_4150.png,n02690373_4150.png,1.0,19.941929,7.6141906,8.717027
alexnet,1,218,NaN,dog,dog,cr,0218_cl_dnn_cr_dog_40_n02102040_7465.png,n02102040_7465.png,1.0,6.4888735,2.9250333,2.5200155
alexnet,1,219,NaN,bird,bird,bw,0219_cl_dnn_bw_bird_40_n02009229_12179.png,n02009229_12179.png,1.0,7.126869,4.7925777,1.6505934
alexnet,1,220,NaN,knife,knife,bw,0220_cl_dnn_bw_knife_40_n03041632_20413.png,n03041632_20413.png,1.0,5.63325,3.669641,1.3884814
alexnet,1,221,NaN,truck,truck,bw,0221_cl_dnn_bw_truck_40_n03796401_13490.png,n03796401_13490.png,1.0,8.328566,6.22867,1.4848504
alexnet,1,222,NaN,oven,oven,cr,0222_cl_dnn_cr_oven_40_n04111531_584.png,n04111531_584.png,1.0,14.861928,5.700389,6.4781866
alexnet,1,223,NaN,airplane,airplane,bw,0223_cl_dnn_bw_airplane_40_n02690373_3899.png,n02690373_3899.png,1.0,10.40731,7.3085914,2.1911247
alexnet,1,224,NaN,bird,bird,cr,0224_cl_dnn_cr_bird_40_n02027492_8707.png,n02027492_8707.png,1.0,7.9706264,3.4284923,3.211774
alexnet,1,225,NaN,airplane,airplane,cr,0225_cl_dnn_cr_airplane_40_n02690373_2648.png,n02690373_2648.png,1.0,12.574324,10.924034,1.1669309
alexnet,1,226,NaN,cat,cat,bw,0226_cl_dnn_bw_cat_40_n02123394_6598.png,n02123394_6598.png,1.0,7.805754,3.1772313,3.27286
alexnet,1,227,NaN,bicycle,bicycle,bw,0227_cl_dnn_bw_bicycle_40_n02835271_17168.png,n02835271_17168.png,1.0,7.949862,5.1980677,1.9458125
alexnet,1,228,NaN,truck,truck,bw,0228_cl_dnn_bw_truck_40_n03417042_29849.png,n03417042_29849.png,1.0,13.366858,7.7397485,3.978967
alexnet,1,229,NaN,knife,knife,cr,0229_cl_dnn_cr_knife_40_n03041632_29125.png,n03041632_29125.png,1.0,11.303837,2.9796727,5.886073
alexnet,1,230,NaN,clock,clock,bw,0230_cl_dnn_bw_clock_40_n04548280_5456.png,n04548280_5456.png,1.0,12.416125,6.309828,4.3178043
alexnet,1,231,NaN,truck,truck,bw,0231_cl_dnn_bw_truck_40_n03796401_8099.png,n03796401_8099.png,1.0,8.379333,6.7654047,1.1412194
alexnet,1,232,NaN,bear,bear,cr,0232_cl_dnn_cr_bear_40_n02132136_860.png,n02132136_860.png,1.0,9.255842,8.965197,0.20551747
alexnet,1,233,NaN,truck,truck,bw,0233_cl_dnn_bw_truck_40_n03796401_4423.png,n03796401_4423.png,1.0,9.717552,4.908893,3.4002354
alexnet,1,234,NaN,elephant,elephant,bw,0234_cl_dnn_bw_elephant_40_n02504458_7871.png,n02504458_7871.png,1.0,16.147827,4.9950852,7.88618
alexnet,1,235,NaN,oven,oven,cr,0235_cl_dnn_cr_oven_40_n04111531_14753.png,n04111531_14753.png,1.0,16.402567,6.9113355,6.7113147
alexnet,1,236,NaN,clock,clock,bw,0236_cl_dnn_bw_clock_40_n04548280_17198.png,n04548280_17198.png,1.0,10.976115,4.5986896,4.509521
alexnet,1,237,NaN,oven,oven,cr,0237_cl_dnn_cr_oven_40_n04111531_15947.png,n04111531_15947.png,1.0,22.573372,4.3990474,12.851188
alexnet,1,238,NaN,clock,elephant,bw,0238_cl_dnn_bw_elephant_40_n02504013_1103.png,n02504013_1103.png,0.0,1.9857457,2.5786822,-0.41926944
alexnet,1,239,NaN,bicycle,bicycle,cr,0239_cl_dnn_cr_bicycle_40_n03792782_33853.png,n03792782_33853.png,1.0,9.4578705,1.7726626,5.4342628
alexnet,1,240,NaN,bottle,bottle,bw,0240_cl_dnn_bw_bottle_40_n04557648_5665.png,n04557648_5665.png,1.0,9.358185,6.5561924,1.9813079
alexnet,1,241,NaN,bear,bear,bw,0241_cl_dnn_bw_bear_40_n02134418_5824.png,n02134418_5824.png,1.0,12.908361,4.7565217,5.7642217
alexnet,1,242,NaN,truck,truck,cr,0242_cl_dnn_cr_truck_40_n04467665_54349.png,n04467665_54349.png,1.0,14.166537,8.160954,4.246588
alexnet,1,243,NaN,truck,truck,cr,0243_cl_dnn_cr_truck_40_n03796401_8100.png,n03796401_8100.png,1.0,14.522129,9.822154,3.3233843
alexnet,1,244,NaN,elephant,elephant,cr,0244_cl_dnn_cr_elephant_40_n02504013_4288.png,n02504013_4288.png,1.0,18.830025,5.0723004,9.728181
alexnet,1,245,NaN,boat,boat,cr,0245_cl_dnn_cr_boat_40_n03662601_4437.png,n03662601_4437.png,1.0,11.469421,7.6247206,2.718614
alexnet,1,246,NaN,bicycle,bicycle,cr,0246_cl_dnn_cr_bicycle_40_n02835271_7351.png,n02835271_7351.png,1.0,13.651346,5.500229,5.7637105
alexnet,1,247,NaN,elephant,elephant,bw,0247_cl_dnn_bw_elephant_40_n02504458_2556.png,n02504458_2556.png,1.0,5.111583,4.0948143,0.7189642
alexnet,1,248,NaN,airplane,airplane,cr,0248_cl_dnn_cr_airplane_40_n02690373_303.png,n02690373_303.png,1.0,33.523388,7.6002517,18.330425
alexnet,1,249,NaN,elephant,elephant,bw,0249_cl_dnn_bw_elephant_40_n02504013_5503.png,n02504013_5503.png,1.0,10.498102,1.8096988,6.143629
alexnet,1,250,NaN,airplane,truck,cr,0250_cl_dnn_cr_truck_40_n04467665_68332.png,n04467665_68332.png,0.0,9.683032,10.8401,-0.81817085
alexnet,1,251,NaN,clock,clock,bw,0251_cl_dnn_bw_clock_40_n02708093_3079.png,n02708093_3079.png,1.0,13.910647,5.257133,6.118959
alexnet,1,252,NaN,cat,cat,cr,0252_cl_dnn_cr_cat_40_n02123394_2395.png,n02123394_2395.png,1.0,8.59275,3.8711596,3.3386683
alexnet,1,253,NaN,chair,chair,cr,0253_cl_dnn_cr_chair_40_n04429376_20906.png,n04429376_20906.png,1.0,8.466047,5.7658463,1.9093305
alexnet,1,254,NaN,boat,boat,cr,0254_cl_dnn_cr_boat_40_n03344393_8160.png,n03344393_8160.png,1.0,11.305197,6.1155114,3.6696618
alexnet,1,255,NaN,keyboard,keyboard,cr,0255_cl_dnn_cr_keyboard_40_n03085013_21325.png,n03085013_21325.png,1.0,12.883525,8.435963,3.1449015
alexnet,1,256,NaN,knife,knife,cr,0256_cl_dnn_cr_knife_40_n03041632_99875.png,n03041632_99875.png,1.0,8.055643,4.943027,2.200952
alexnet,1,257,NaN,clock,clock,bw,0257_cl_dnn_bw_clock_40_n04548280_7384.png,n04548280_7384.png,1.0,3.1365006,2.506989,0.44513193
alexnet,1,258,NaN,keyboard,keyboard,bw,0258_cl_dnn_bw_keyboard_40_n03085013_23534.png,n03085013_23534.png,1.0,17.361137,5.113711,8.660239
alexnet,1,259,NaN,truck,truck,bw,0259_cl_dnn_bw_truck_40_n03417042_2383.png,n03417042_2383.png,1.0,10.462237,7.83947,1.8545767
alexnet,1,260,NaN,keyboard,clock,bw,0260_cl_dnn_bw_clock_40_n03196217_711.png,n03196217_711.png,0.0,5.6636405,7.9496512,-1.6164538
alexnet,1,261,NaN,keyboard,keyboard,bw,0261_cl_dnn_bw_keyboard_40_n03085013_7992.png,n03085013_7992.png,1.0,14.695318,6.1026096,6.0759625
alexnet,1,262,NaN,cat,cat,bw,0262_cl_dnn_bw_cat_40_n02125311_75445.png,n02125311_75445.png,1.0,4.1611705,3.527371,0.44816396
alexnet,1,263,NaN,knife,knife,cr,0263_cl_dnn_cr_knife_40_n03041632_47410.png,n03041632_47410.png,1.0,12.634743,5.8834715,4.77387
alexnet,1,264,NaN,oven,oven,bw,0264_cl_dnn_bw_oven_40_n04111531_741.png,n04111531_741.png,1.0,12.600684,4.8505063,5.4802036
alexnet,1,265,NaN,oven,oven,bw,0265_cl_dnn_bw_oven_40_n04111531_3181.png,n04111531_3181.png,1.0,2.8936148,2.6040013,0.20478766
alexnet,1,266,NaN,truck,truck,bw,0266_cl_dnn_bw_truck_40_n03417042_17099.png,n03417042_17099.png,1.0,12.434756,4.9873643,5.2661014
alexnet,1,267,NaN,boat,boat,cr,0267_cl_dnn_cr_boat_40_n03662601_15143.png,n03662601_15143.png,1.0,12.474402,5.2787743,5.0880775
alexnet,1,268,NaN,keyboard,keyboard,bw,0268_cl_dnn_bw_keyboard_40_n03085013_19197.png,n03085013_19197.png,1.0,23.901014,7.5058475,11.593134
alexnet,1,269,NaN,airplane,airplane,cr,0269_cl_dnn_cr_airplane_40_n02690373_4202.png,n02690373_4202.png,1.0,27.537579,10.845825,11.802853
alexnet,1,270,NaN,bear,bear,bw,0270_cl_dnn_bw_bear_40_n02132136_10134.png,n02132136_10134.png,1.0,10.994551,6.232633,3.3671842
alexnet,1,271,NaN,boat,boat,bw,0271_cl_dnn_bw_boat_40_n03344393_5296.png,n03344393_5296.png,1.0,11.818133,7.6136312,2.973032
alexnet,1,272,NaN,keyboard,keyboard,bw,0272_cl_dnn_bw_keyboard_40_n04505470_1600.png,n04505470_1600.png,1.0,14.946412,8.957318,4.234929
alexnet,1,273,NaN,truck,truck,bw,0273_cl_dnn_bw_truck_40_n03417042_10043.png,n03417042_10043.png,1.0,13.665417,5.5994782,5.7034802
alexnet,1,274,NaN,bird,bird,bw,0274_cl_dnn_bw_bird_40_n02007558_5525.png,n02007558_5525.png,1.0,3.4261496,2.8450615,0.41089132
alexnet,1,275,NaN,airplane,airplane,cr,0275_cl_dnn_cr_airplane_40_n02690373_6621.png,n02690373_6621.png,1.0,18.910023,6.909908,8.485362
alexnet,1,276,NaN,keyboard,keyboard,bw,0276_cl_dnn_bw_keyboard_40_n04505470_6623.png,n04505470_6623.png,1.0,19.203165,8.51236,7.559541
alexnet,1,277,NaN,dog,dog,cr,0277_cl_dnn_cr_dog_40_n02113624_3403.png,n02113624_3403.png,1.0,4.302718,2.8421528,1.0327756
alexnet,1,278,NaN,dog,dog,bw,0278_cl_dnn_bw_dog_40_n02106550_12642.png,n02106550_12642.png,1.0,3.567857,2.9531636,0.43465388
alexnet,1,279,NaN,clock,clock,cr,0279_cl_dnn_cr_clock_40_n04548280_24041.png,n04548280_24041.png,1.0,12.963199,4.8088846,5.7659707
alexnet,1,280,NaN,truck,truck,bw,0280_cl_dnn_bw_truck_40_n03417042_3236.png,n03417042_3236.png,1.0,7.638056,6.3602424,0.90355057
alexnet,1,281,NaN,car,car,bw,0281_cl_dnn_bw_car_40_n03100240_2583.png,n03100240_2583.png,1.0,8.915886,7.3138447,1.1328143
alexnet,1,282,NaN,knife,knife,cr,0282_cl_dnn_cr_knife_40_n03041632_45090.png,n03041632_45090.png,1.0,10.622572,2.2297173,5.9346447
alexnet,1,283,NaN,cat,cat,cr,0283_cl_dnn_cr_cat_40_n02123597_660.png,n02123597_660.png,1.0,10.030677,4.590143,3.8470383
alexnet,1,284,NaN,clock,clock,bw,0284_cl_dnn_bw_clock_40_n04548280_7813.png,n04548280_7813.png,1.0,9.488995,5.996014,2.4699101
alexnet,1,285,NaN,dog,dog,bw,0285_cl_dnn_bw_dog_40_n02111129_797.png,n02111129_797.png,1.0,6.903902,6.3735604,0.37500817
alexnet,1,286,NaN,knife,knife,cr,0286_cl_dnn_cr_knife_40_n03041632_3717.png,n03041632_3717.png,1.0,20.978107,4.0916414,11.940536
alexnet,1,287,NaN,boat,boat,bw,0287_cl_dnn_bw_boat_40_n04273569_870.png,n04273569_870.png,1.0,5.1566076,5.0513077,0.07445831
alexnet,1,288,NaN,elephant,elephant,bw,0288_cl_dnn_bw_elephant_40_n02504013_720.png,n02504013_720.png,1.0,26.008812,11.463964,10.28476
alexnet,1,289,NaN,oven,oven,cr,0289_cl_dnn_cr_oven_40_n04111531_14876.png,n04111531_14876.png,1.0,15.64583,2.8198211,9.069358
alexnet,1,290,NaN,cat,cat,bw,0290_cl_dnn_bw_cat_40_n02123045_569.png,n02123045_569.png,1.0,7.473252,3.1019917,3.0909479
alexnet,1,291,NaN,oven,clock,bw,0291_cl_dnn_bw_clock_40_n03196217_5888.png,n03196217_5888.png,0.0,7.848427,7.947076,-0.0697554
alexnet,1,292,NaN,keyboard,keyboard,cr,0292_cl_dnn_cr_keyboard_40_n04505470_4770.png,n04505470_4770.png,1.0,16.698544,4.678454,8.499487
alexnet,1,293,NaN,knife,knife,cr,0293_cl_dnn_cr_knife_40_n03041632_32292.png,n03041632_32292.png,1.0,5.143512,1.2352283,2.763574
alexnet,1,294,NaN,elephant,elephant,cr,0294_cl_dnn_cr_elephant_40_n02504013_6672.png,n02504013_6672.png,1.0,9.513626,3.1966484,4.466778
alexnet,1,295,NaN,airplane,airplane,bw,0295_cl_dnn_bw_airplane_40_n02690373_5838.png,n02690373_5838.png,1.0,19.261883,6.2306323,9.214485
alexnet,1,296,NaN,bird,bird,cr,0296_cl_dnn_cr_bird_40_n01796340_5508.png,n01796340_5508.png,1.0,5.6505313,1.3169025,3.0643382
alexnet,1,297,NaN,keyboard,clock,bw,0297_cl_dnn_bw_clock_40_n03196217_6477.png,n03196217_6477.png,0.0,4.798845,6.7628403,-1.3887545
alexnet,1,298,NaN,bottle,bird,bw,0298_cl_dnn_bw_bird_40_n02011460_5075.png,n02011460_5075.png,0.0,0.96248287,2.6322143,-1.1806784
alexnet,1,299,NaN,boat,boat,bw,0299_cl_dnn_bw_boat_40_n03344393_10284.png,n03344393_10284.png,1.0,13.859846,8.776428,3.5945194
alexnet,1,300,NaN,oven,oven,bw,0300_cl_dnn_bw_oven_40_n04111531_14559.png,n04111531_14559.png,1.0,8.999255,6.1467304,2.0170395
alexnet,1,301,NaN,knife,knife,cr,0301_cl_dnn_cr_knife_40_n03041632_24060.png,n03041632_24060.png,1.0,4.2588243,3.8157554,0.3132971
alexnet,1,302,NaN,airplane,airplane,bw,0302_cl_dnn_bw_airplane_40_n02690373_4134.png,n02690373_4134.png,1.0,19.773283,4.467559,10.822782
alexnet,1,303,NaN,cat,bear,cr,0303_cl_dnn_cr_bear_40_n02134084_6669.png,n02134084_6669.png,0.0,3.5579321,3.7063687,-0.104960494
alexnet,1,304,NaN,bird,bird,cr,0304_cl_dnn_cr_bird_40_n01558993_5744.png,n01558993_5744.png,1.0,8.510183,3.7475612,3.3676822
alexnet,1,305,NaN,knife,bird,bw,0305_cl_dnn_bw_bird_40_n01818515_10536.png,n01818515_10536.png,0.0,-2.157735,5.3594303,-5.3154387
alexnet,1,306,NaN,bicycle,bottle,bw,0306_cl_dnn_bw_bottle_40_n04557648_20614.png,n04557648_20614.png,0.0,1.1543114,10.253733,-6.4342628
alexnet,1,307,NaN,clock,clock,cr,0307_cl_dnn_cr_clock_40_n04548280_3605.png,n04548280_3605.png,1.0,10.245587,4.4673996,4.085796
alexnet,1,308,NaN,truck,truck,bw,0308_cl_dnn_bw_truck_40_n03796401_27288.png,n03796401_27288.png,1.0,12.853131,6.7814746,4.2933097
alexnet,1,309,NaN,bicycle,bicycle,cr,0309_cl_dnn_cr_bicycle_40_n02835271_18276.png,n02835271_18276.png,1.0,11.241272,4.8764763,4.5005903
alexnet,1,310,NaN,bear,bear,cr,0310_cl_dnn_cr_bear_40_n02133161_12152.png,n02133161_12152.png,1.0,7.6214995,5.8978386,1.2188123
alexnet,1,311,NaN,elephant,elephant,cr,0311_cl_dnn_cr_elephant_40_n02504013_14918.png,n02504013_14918.png,1.0,20.660244,6.1929297,10.229936
alexnet,1,312,NaN,bicycle,bicycle,bw,0312_cl_dnn_bw_bicycle_40_n03792782_5323.png,n03792782_5323.png,1.0,13.635973,2.4845867,7.885221
alexnet,1,313,NaN,truck,truck,cr,0313_cl_dnn_cr_truck_40_n04467665_37066.png,n04467665_37066.png,1.0,6.381667,6.1912365,0.1346548
alexnet,1,314,NaN,dog,bird,bw,0314_cl_dnn_bw_bird_40_n02025239_2481.png,n02025239_2481.png,0.0,4.1299653,4.2355084,-0.07463027
alexnet,1,315,NaN,bicycle,bicycle,bw,0315_cl_dnn_bw_bicycle_40_n02835271_5113.png,n02835271_5113.png,1.0,7.5918202,5.1283493,1.741937
alexnet,1,316,NaN,elephant,elephant,cr,0316_cl_dnn_cr_elephant_40_n02504458_6185.png,n02504458_6185.png,1.0,19.024189,4.2744255,10.429658
alexnet,1,317,NaN,knife,knife,cr,0317_cl_dnn_cr_knife_40_n03041632_11475.png,n03041632_11475.png,1.0,5.33721,4.7832837,0.39168516
alexnet,1,318,NaN,cat,cat,bw,0318_cl_dnn_bw_cat_40_n02125311_31318.png,n02125311_31318.png,1.0,7.8033423,3.57681,2.9886098
alexnet,1,319,NaN,bicycle,clock,bw,0319_cl_dnn_bw_clock_40_n04548280_8585.png,n04548280_8585.png,0.0,4.8634143,5.804202,-0.6652374
alexnet,1,320,NaN,bear,bear,bw,0320_cl_dnn_bw_bear_40_n02134418_12628.png,n02134418_12628.png,1.0,7.9265575,4.9813595,2.0825696
alexnet,1,321,NaN,chair,chair,bw,0321_cl_dnn_bw_chair_40_n03376595_17859.png,n03376595_17859.png,1.0,7.579301,4.2615542,2.3460011
alexnet,1,322,NaN,knife,knife,cr,0322_cl_dnn_cr_knife_40_n03041632_379.png,n03041632_379.png,1.0,6.0277057,3.5492744,1.7525156
alexnet,1,323,NaN,chair,bottle,bw,0323_cl_dnn_bw_bottle_40_n04557648_1293.png,n04557648_1293.png,0.0,4.342678,4.850658,-0.359196
alexnet,1,324,NaN,boat,boat,cr,0324_cl_dnn_cr_boat_40_n03662601_26298.png,n03662601_26298.png,1.0,19.582651,9.56328,7.0847654
alexnet,1,325,NaN,oven,oven,bw,0325_cl_dnn_bw_oven_40_n04111531_6120.png,n04111531_6120.png,1.0,8.378932,3.4143782,3.5104697
alexnet,1,326,NaN,car,car,bw,0326_cl_dnn_bw_car_40_n02814533_92940.png,n02814533_92940.png,1.0,13.377902,6.060393,5.1742606
alexnet,1,327,NaN,chair,chair,cr,0327_cl_dnn_cr_chair_40_n02791124_392.png,n02791124_392.png,1.0,11.300831,4.3698435,4.900948
alexnet,1,328,NaN,clock,clock,bw,0328_cl_dnn_bw_clock_40_n04548280_3330.png,n04548280_3330.png,1.0,15.151713,6.2872934,6.2680917
alexnet,1,329,NaN,truck,car,cr,0329_cl_dnn_cr_car_40_n02814533_83614.png,n02814533_83614.png,0.0,11.988037,13.452372,-1.0354409
alexnet,1,330,NaN,bear,bear,cr,0330_cl_dnn_cr_bear_40_n02134418_3846.png,n02134418_3846.png,1.0,16.71518,6.335401,7.3396115
alexnet,1,331,NaN,elephant,elephant,cr,0331_cl_dnn_cr_elephant_40_n02504013_811.png,n02504013_811.png,1.0,11.496906,5.2414217,4.4232955
alexnet,1,332,NaN,airplane,airplane,bw,0332_cl_dnn_bw_airplane_40_n02690373_1442.png,n02690373_1442.png,1.0,21.26931,5.7089844,11.002812
alexnet,1,333,NaN,chair,chair,cr,0333_cl_dnn_cr_chair_40_n03376595_6691.png,n03376595_6691.png,1.0,5.2528934,2.469144,1.9684081
alexnet,1,334,NaN,dog,bird,bw,0334_cl_dnn_bw_bird_40_n01616318_1071.png,n01616318_1071.png,0.0,1.8323709,2.7364893,-0.6393083
alexnet,1,335,NaN,boat,boat,cr,0335_cl_dnn_cr_boat_40_n03662601_8333.png,n03662601_8333.png,1.0,9.287781,2.2992077,4.9416676
alexnet,1,336,NaN,truck,truck,cr,0336_cl_dnn_cr_truck_40_n03796401_9384.png,n03796401_9384.png,1.0,6.932933,5.9620214,0.6865381
alexnet,1,337,NaN,bottle,bottle,cr,0337_cl_dnn_cr_bottle_40_n04560804_19001.png,n04560804_19001.png,1.0,7.8854475,3.8988419,2.818956
alexnet,1,338,NaN,cat,cat,cr,0338_cl_dnn_cr_cat_40_n02123045_7646.png,n02123045_7646.png,1.0,6.767258,3.2809396,2.4651995
alexnet,1,339,NaN,elephant,elephant,cr,0339_cl_dnn_cr_elephant_40_n02504013_3599.png,n02504013_3599.png,1.0,19.155073,10.521191,6.105077
alexnet,1,340,NaN,clock,clock,cr,0340_cl_dnn_cr_clock_40_n03196217_1109.png,n03196217_1109.png,1.0,8.263952,4.6812634,2.5333436
alexnet,1,341,NaN,truck,boat,bw,0341_cl_dnn_bw_boat_40_n03344393_5322.png,n03344393_5322.png,0.0,4.455665,6.3301945,-1.3254925
alexnet,1,342,NaN,dog,dog,cr,0342_cl_dnn_cr_dog_40_n02090622_11748.png,n02090622_11748.png,1.0,5.4603496,2.7735777,1.8998346
alexnet,1,343,NaN,knife,knife,cr,0343_cl_dnn_cr_knife_40_n03041632_20707.png,n03041632_20707.png,1.0,11.620418,5.7964,4.118202
alexnet,1,344,NaN,keyboard,keyboard,cr,0344_cl_dnn_cr_keyboard_40_n03085013_8936.png,n03085013_8936.png,1.0,9.903783,6.7456355,2.2331474
alexnet,1,345,NaN,airplane,airplane,cr,0345_cl_dnn_cr_airplane_40_n02690373_4695.png,n02690373_4695.png,1.0,20.068169,4.929585,10.704596
alexnet,1,346,NaN,oven,oven,bw,0346_cl_dnn_bw_oven_40_n04111531_16463.png,n04111531_16463.png,1.0,6.6928988,4.028334,1.8841318
alexnet,1,347,NaN,dog,dog,bw,0347_cl_dnn_bw_dog_40_n02099712_1234.png,n02099712_1234.png,1.0,4.3388762,2.4011178,1.3702022
alexnet,1,348,NaN,boat,boat,bw,0348_cl_dnn_bw_boat_40_n03662601_17361.png,n03662601_17361.png,1.0,9.883473,2.8741431,4.956345
alexnet,1,349,NaN,oven,oven,cr,0349_cl_dnn_cr_oven_40_n04111531_12929.png,n04111531_12929.png,1.0,8.38908,5.448143,2.0795565
alexnet,1,350,NaN,keyboard,truck,bw,0350_cl_dnn_bw_truck_40_n03417042_2056.png,n03417042_2056.png,0.0,5.3402567,6.994279,-1.1695703
alexnet,1,351,NaN,oven,oven,cr,0351_cl_dnn_cr_oven_40_n04111531_2937.png,n04111531_2937.png,1.0,12.671474,6.882992,4.0930753
alexnet,1,352,NaN,boat,boat,bw,0352_cl_dnn_bw_boat_40_n04273569_23705.png,n04273569_23705.png,1.0,11.873132,5.7246757,4.3476152
alexnet,1,353,NaN,boat,boat,cr,0353_cl_dnn_cr_boat_40_n02951358_8456.png,n02951358_8456.png,1.0,7.3130407,3.9477026,2.3796535
alexnet,1,354,NaN,bottle,bottle,bw,0354_cl_dnn_bw_bottle_40_n03983396_11632.png,n03983396_11632.png,1.0,8.727987,3.371022,3.7879465
alexnet,1,355,NaN,bicycle,bicycle,bw,0355_cl_dnn_bw_bicycle_40_n02835271_506.png,n02835271_506.png,1.0,11.455729,3.3640933,5.72165
alexnet,1,356,NaN,keyboard,keyboard,cr,0356_cl_dnn_cr_keyboard_40_n04505470_665.png,n04505470_665.png,1.0,12.402698,7.361923,3.5643659
alexnet,1,357,NaN,bear,bear,bw,0357_cl_dnn_bw_bear_40_n02132136_390.png,n02132136_390.png,1.0,10.136614,9.653166,0.3418494
alexnet,1,358,NaN,bear,bear,cr,0358_cl_dnn_cr_bear_40_n02134084_13663.png,n02134084_13663.png,1.0,13.122285,5.714298,5.238238
alexnet,1,359,NaN,airplane,airplane,cr,0359_cl_dnn_cr_airplane_40_n02690373_2837.png,n02690373_2837.png,1.0,17.570965,11.267821,4.4569955
alexnet,1,360,NaN,airplane,airplane,bw,0360_cl_dnn_bw_airplane_40_n02690373_1492.png,n02690373_1492.png,1.0,16.30313,5.980696,7.2990627
alexnet,1,361,NaN,car,car,cr,0361_cl_dnn_cr_car_40_n03100240_14252.png,n03100240_14252.png,1.0,14.982873,7.8850107,5.0189466
alexnet,1,362,NaN,chair,elephant,bw,0362_cl_dnn_bw_elephant_40_n02504458_4908.png,n02504458_4908.png,0.0,1.7619598,4.154009,-1.6914341
alexnet,1,363,NaN,bird,bird,bw,0363_cl_dnn_bw_bird_40_n01582220_5821.png,n01582220_5821.png,1.0,7.1851354,3.4100676,2.6693761
alexnet,1,364,NaN,cat,cat,cr,0364_cl_dnn_cr_cat_40_n02123045_2968.png,n02123045_2968.png,1.0,9.653114,3.4997492,4.351086
alexnet,1,365,NaN,dog,dog,cr,0365_cl_dnn_cr_dog_40_n02088466_1671.png,n02088466_1671.png,1.0,7.500919,2.711911,3.3863401
alexnet,1,366,NaN,boat,boat,bw,0366_cl_dnn_bw_boat_40_n03344393_7659.png,n03344393_7659.png,1.0,13.15114,9.062504,2.8911026
alexnet,1,367,NaN,bicycle,bicycle,bw,0367_cl_dnn_bw_bicycle_40_n03792782_3783.png,n03792782_3783.png,1.0,11.389238,2.8043144,6.070458
alexnet,1,368,NaN,airplane,airplane,cr,0368_cl_dnn_cr_airplane_40_n02690373_2059.png,n02690373_2059.png,1.0,16.899422,7.494911,6.6499934
alexnet,1,369,NaN,keyboard,keyboard,cr,0369_cl_dnn_cr_keyboard_40_n03085013_19483.png,n03085013_19483.png,1.0,13.180662,3.3163533,6.97512
alexnet,1,370,NaN,bicycle,bicycle,bw,0370_cl_dnn_bw_bicycle_40_n03792782_2960.png,n03792782_2960.png,1.0,11.179293,3.9408908,5.1183233
alexnet,1,371,NaN,keyboard,keyboard,cr,0371_cl_dnn_cr_keyboard_40_n03085013_24538.png,n03085013_24538.png,1.0,8.47839,6.2574944,1.5704101
alexnet,1,372,NaN,elephant,cat,cr,0372_cl_dnn_cr_cat_40_n02123597_9656.png,n02123597_9656.png,0.0,2.691734,5.2508173,-1.8095452
alexnet,1,373,NaN,car,car,cr,0373_cl_dnn_cr_car_40_n04285008_1085.png,n04285008_1085.png,1.0,19.99788,12.300581,5.442813
alexnet,1,374,NaN,dog,dog,cr,0374_cl_dnn_cr_dog_40_n02102177_5870.png,n02102177_5870.png,1.0,7.903793,1.0704719,4.8318877
alexnet,1,375,NaN,boat,boat,cr,0375_cl_dnn_cr_boat_40_n03662601_24852.png,n03662601_24852.png,1.0,8.693726,8.400325,0.20746568
alexnet,1,376,NaN,bicycle,bicycle,cr,0376_cl_dnn_cr_bicycle_40_n03792782_32379.png,n03792782_32379.png,1.0,17.516418,6.402937,7.8584185
alexnet,1,377,NaN,dog,cat,cr,0377_cl_dnn_cr_cat_40_n02123597_12266.png,n02123597_12266.png,0.0,0.48427567,3.1992865,-1.9198027
alexnet,1,378,NaN,airplane,airplane,cr,0378_cl_dnn_cr_airplane_40_n02690373_713.png,n02690373_713.png,1.0,33.777252,10.300497,16.600573
alexnet,1,379,NaN,airplane,airplane,cr,0379_cl_dnn_cr_airplane_40_n02690373_6543.png,n02690373_6543.png,1.0,19.500782,8.55983,7.7364216
alexnet,1,380,NaN,oven,oven,cr,0380_cl_dnn_cr_oven_40_n04111531_5888.png,n04111531_5888.png,1.0,15.988212,7.488798,6.009993
alexnet,1,381,NaN,dog,dog,bw,0381_cl_dnn_bw_dog_40_n02099601_7304.png,n02099601_7304.png,1.0,8.103732,0.8452194,5.1325436
alexnet,1,382,NaN,bird,bird,bw,0382_cl_dnn_bw_bird_40_n01819313_146.png,n01819313_146.png,1.0,3.365349,3.0518718,0.22166191
alexnet,1,383,NaN,car,car,bw,0383_cl_dnn_bw_car_40_n03100240_18873.png,n03100240_18873.png,1.0,14.386388,10.470529,2.7689307
alexnet,1,384,NaN,elephant,dog,bw,0384_cl_dnn_bw_dog_40_n02100583_2707.png,n02100583_2707.png,0.0,4.0860333,4.9875093,-0.6374397
alexnet,1,385,NaN,cat,dog,bw,0385_cl_dnn_bw_dog_40_n02105056_15484.png,n02105056_15484.png,0.0,2.4708712,6.225409,-2.6548593
alexnet,1,386,NaN,truck,truck,bw,0386_cl_dnn_bw_truck_40_n04467665_66535.png,n04467665_66535.png,1.0,10.414109,6.8567066,2.5154636
alexnet,1,387,NaN,elephant,elephant,bw,0387_cl_dnn_bw_elephant_40_n02504458_12303.png,n02504458_12303.png,1.0,14.380154,4.703141,6.8426814
alexnet,1,388,NaN,bottle,bottle,cr,0388_cl_dnn_cr_bottle_40_n03937543_4586.png,n03937543_4586.png,1.0,8.403601,3.129179,3.7295794
alexnet,1,389,NaN,oven,bird,cr,0389_cl_dnn_cr_bird_40_n02007558_19064.png,n02007558_19064.png,0.0,2.2967556,5.5432844,-2.2956426
alexnet,1,390,NaN,oven,oven,bw,0390_cl_dnn_bw_oven_40_n04111531_5904.png,n04111531_5904.png,1.0,8.531715,7.3068166,0.8661343
alexnet,1,391,NaN,keyboard,keyboard,cr,0391_cl_dnn_cr_keyboard_40_n03085013_18625.png,n03085013_18625.png,1.0,10.393299,5.2877626,3.6101594
alexnet,1,392,NaN,bottle,bottle,cr,0392_cl_dnn_cr_bottle_40_n04579145_445.png,n04579145_445.png,1.0,10.012297,3.2597492,4.774772
alexnet,1,393,NaN,keyboard,keyboard,bw,0393_cl_dnn_bw_keyboard_40_n03085013_22820.png,n03085013_22820.png,1.0,8.551361,6.675875,1.3261688
alexnet,1,394,NaN,truck,truck,cr,0394_cl_dnn_cr_truck_40_n03417042_19479.png,n03417042_19479.png,1.0,15.35551,6.5208664,6.2470365
alexnet,1,395,NaN,cat,bird,bw,0395_cl_dnn_bw_bird_40_n01833805_28946.png,n01833805_28946.png,0.0,4.8746066,6.0365157,-0.8215938
alexnet,1,396,NaN,keyboard,bottle,bw,0396_cl_dnn_bw_bottle_40_n04591713_3896.png,n04591713_3896.png,0.0,5.0646505,7.369085,-1.6294812
alexnet,1,397,NaN,cat,cat,cr,0397_cl_dnn_cr_cat_40_n02123159_782.png,n02123159_782.png,1.0,7.435375,3.619483,2.6982434
alexnet,1,398,NaN,keyboard,keyboard,bw,0398_cl_dnn_bw_keyboard_40_n04505470_464.png,n04505470_464.png,1.0,5.651214,5.524093,0.0898881
alexnet,1,399,NaN,bird,bird,cr,0399_cl_dnn_cr_bird_40_n01558993_3939.png,n01558993_3939.png,1.0,13.799673,3.4481156,7.319657
alexnet,1,400,NaN,boat,boat,cr,0400_cl_dnn_cr_boat_40_n04273569_3052.png,n04273569_3052.png,1.0,14.949803,8.115131,4.832843
alexnet,1,401,NaN,keyboard,knife,bw,0401_cl_dnn_bw_knife_40_n03041632_85416.png,n03041632_85416.png,0.0,6.120908,6.1274657,-0.004637165
alexnet,1,402,NaN,car,car,bw,0402_cl_dnn_bw_car_40_n02814533_51154.png,n02814533_51154.png,1.0,10.470469,8.460201,1.4214743
alexnet,1,403,NaN,airplane,airplane,bw,0403_cl_dnn_bw_airplane_40_n02690373_6516.png,n02690373_6516.png,1.0,13.813173,8.386529,3.837217
alexnet,1,404,NaN,airplane,airplane,cr,0404_cl_dnn_cr_airplane_40_n02690373_12813.png,n02690373_12813.png,1.0,27.231308,6.9890127,14.313464
alexnet,1,405,NaN,airplane,airplane,bw,0405_cl_dnn_bw_airplane_40_n02690373_6406.png,n02690373_6406.png,1.0,16.238953,6.127811,7.149657
alexnet,1,406,NaN,chair,chair,cr,0406_cl_dnn_cr_chair_40_n03376595_8228.png,n03376595_8228.png,1.0,14.839336,6.581793,5.838965
alexnet,1,407,NaN,clock,chair,bw,0407_cl_dnn_bw_chair_40_n04099969_6309.png,n04099969_6309.png,0.0,6.324404,6.636126,-0.22042094
alexnet,1,408,NaN,elephant,elephant,cr,0408_cl_dnn_cr_elephant_40_n02504013_19831.png,n02504013_19831.png,1.0,20.481686,4.821361,11.073522
alexnet,1,409,NaN,knife,bottle,bw,0409_cl_dnn_bw_bottle_40_n03937543_5088.png,n03937543_5088.png,0.0,4.1753707,6.3136787,-1.5120121
alexnet,1,410,NaN,elephant,elephant,cr,0410_cl_dnn_cr_elephant_40_n02504458_2190.png,n02504458_2190.png,1.0,14.433944,1.6194136,9.061241
alexnet,1,411,NaN,car,car,bw,0411_cl_dnn_bw_car_40_n04285008_5997.png,n04285008_5997.png,1.0,16.402906,8.729993,5.4255695
alexnet,1,412,NaN,keyboard,knife,cr,0412_cl_dnn_cr_knife_40_n03041632_94620.png,n03041632_94620.png,0.0,2.0283346,3.1978602,-0.8269795
alexnet,1,413,NaN,bicycle,bicycle,cr,0413_cl_dnn_cr_bicycle_40_n02835271_8125.png,n02835271_8125.png,1.0,12.896082,3.6813579,6.515794
alexnet,1,414,NaN,oven,oven,cr,0414_cl_dnn_cr_oven_40_n04111531_4662.png,n04111531_4662.png,1.0,20.65139,5.311258,10.847112
alexnet,1,415,NaN,elephant,dog,bw,0415_cl_dnn_bw_dog_40_n02110806_21755.png,n02110806_21755.png,0.0,2.7268746,5.771326,-2.1527524
alexnet,1,416,NaN,bottle,bottle,bw,0416_cl_dnn_bw_bottle_40_n02823428_3505.png,n02823428_3505.png,1.0,7.367345,5.2492156,1.4977436
alexnet,1,417,NaN,cat,cat,cr,0417_cl_dnn_cr_cat_40_n02123045_11472.png,n02123045_11472.png,1.0,10.783973,1.9279728,6.262138
alexnet,1,418,NaN,boat,boat,cr,0418_cl_dnn_cr_boat_40_n03662601_14818.png,n03662601_14818.png,1.0,21.320698,7.987001,9.428348
alexnet,1,419,NaN,bicycle,bicycle,cr,0419_cl_dnn_cr_bicycle_40_n02835271_8322.png,n02835271_8322.png,1.0,11.783491,6.953544,3.4152884
alexnet,1,420,NaN,knife,knife,bw,0420_cl_dnn_bw_knife_40_n03041632_9580.png,n03041632_9580.png,1.0,11.172821,6.5413494,3.274945
alexnet,1,421,NaN,bicycle,dog,bw,0421_cl_dnn_bw_dog_40_n02088466_3052.png,n02088466_3052.png,0.0,2.0255823,5.207352,-2.249851
alexnet,1,422,NaN,keyboard,keyboard,cr,0422_cl_dnn_cr_keyboard_40_n04505470_7161.png,n04505470_7161.png,1.0,13.582537,4.34303,6.533318
alexnet,1,423,NaN,keyboard,keyboard,cr,0423_cl_dnn_cr_keyboard_40_n04505470_2321.png,n04505470_2321.png,1.0,8.845534,3.197245,3.993944
alexnet,1,424,NaN,knife,knife,cr,0424_cl_dnn_cr_knife_40_n03041632_6708.png,n03041632_6708.png,1.0,15.446694,9.030804,4.53672
alexnet,1,425,NaN,keyboard,keyboard,bw,0425_cl_dnn_bw_keyboard_40_n04505470_4965.png,n04505470_4965.png,1.0,18.600737,8.178153,7.3698797
alexnet,1,426,NaN,cat,cat,bw,0426_cl_dnn_bw_cat_40_n02123597_11981.png,n02123597_11981.png,1.0,10.185909,5.2234516,3.5089874
alexnet,1,427,NaN,truck,truck,cr,0427_cl_dnn_cr_truck_40_n03417042_2778.png,n03417042_2778.png,1.0,11.71707,6.049967,4.007247
alexnet,1,428,NaN,car,car,cr,0428_cl_dnn_cr_car_40_n02814533_80049.png,n02814533_80049.png,1.0,9.366982,7.7340164,1.1546813
alexnet,1,429,NaN,knife,keyboard,cr,0429_cl_dnn_cr_keyboard_40_n03085013_23561.png,n03085013_23561.png,0.0,3.1456304,4.051564,-0.640592
alexnet,1,430,NaN,airplane,airplane,bw,0430_cl_dnn_bw_airplane_40_n02690373_1800.png,n02690373_1800.png,1.0,9.536547,6.5694957,2.098022
alexnet,1,431,NaN,chair,chair,bw,0431_cl_dnn_bw_chair_40_n02791124_4306.png,n02791124_4306.png,1.0,4.6684256,3.8644364,0.5685062
alexnet,1,432,NaN,knife,knife,bw,0432_cl_dnn_bw_knife_40_n03041632_33424.png,n03041632_33424.png,1.0,4.9123726,3.4665537,1.0223484
alexnet,1,433,NaN,boat,boat,cr,0433_cl_dnn_cr_boat_40_n04273569_111.png,n04273569_111.png,1.0,9.128041,6.56255,1.8140763
alexnet,1,434,NaN,dog,bear,bw,0434_cl_dnn_bw_bear_40_n02132136_4403.png,n02132136_4403.png,0.0,7.0115438,8.084485,-0.7586841
alexnet,1,435,NaN,truck,bicycle,bw,0435_cl_dnn_bw_bicycle_40_n03792782_49707.png,n03792782_49707.png,0.0,4.140455,4.2880883,-0.104392685
alexnet,1,436,NaN,bicycle,bicycle,cr,0436_cl_dnn_cr_bicycle_40_n02835271_3308.png,n02835271_3308.png,1.0,25.351759,3.5111992,15.443607
alexnet,1,437,NaN,clock,clock,bw,0437_cl_dnn_bw_clock_40_n04548280_3305.png,n04548280_3305.png,1.0,8.877315,5.6706257,2.2674716
alexnet,1,438,NaN,boat,boat,bw,0438_cl_dnn_bw_boat_40_n03344393_7614.png,n03344393_7614.png,1.0,10.470808,8.888714,1.1187096
alexnet,1,439,NaN,boat,bicycle,bw,0439_cl_dnn_bw_bicycle_40_n02835271_9434.png,n02835271_9434.png,0.0,4.000757,4.203219,-0.14316206
alexnet,1,440,NaN,chair,truck,bw,0440_cl_dnn_bw_truck_40_n03417042_3039.png,n03417042_3039.png,0.0,2.4379485,3.7025118,-0.8941813
alexnet,1,441,NaN,oven,oven,cr,0441_cl_dnn_cr_oven_40_n04111531_5519.png,n04111531_5519.png,1.0,16.849674,3.584066,9.380201
alexnet,1,442,NaN,bottle,bottle,cr,0442_cl_dnn_cr_bottle_40_n03983396_3702.png,n03983396_3702.png,1.0,7.0913773,3.6356337,2.4435797
alexnet,1,443,NaN,clock,clock,cr,0443_cl_dnn_cr_clock_40_n04548280_2177.png,n04548280_2177.png,1.0,12.126358,8.162372,2.8029618
alexnet,1,444,NaN,bottle,bottle,cr,0444_cl_dnn_cr_bottle_40_n03983396_4132.png,n03983396_4132.png,1.0,12.785071,5.2819543,5.3055053
alexnet,1,445,NaN,bicycle,bicycle,cr,0445_cl_dnn_cr_bicycle_40_n02835271_17509.png,n02835271_17509.png,1.0,23.497547,4.593387,13.36726
alexnet,1,446,NaN,airplane,airplane,bw,0446_cl_dnn_bw_airplane_40_n02690373_3090.png,n02690373_3090.png,1.0,16.65419,4.705409,8.449064
alexnet,1,447,NaN,chair,chair,cr,0447_cl_dnn_cr_chair_40_n03376595_1302.png,n03376595_1302.png,1.0,15.175139,1.8249316,9.440023
alexnet,1,448,NaN,dog,dog,cr,0448_cl_dnn_cr_dog_40_n02107683_3640.png,n02107683_3640.png,1.0,7.1787853,4.1152587,2.1662405
alexnet,1,449,NaN,car,car,cr,0449_cl_dnn_cr_car_40_n03100240_770.png,n03100240_770.png,1.0,18.049334,9.617898,5.9619255
alexnet,1,450,NaN,knife,knife,cr,0450_cl_dnn_cr_knife_40_n03041632_4305.png,n03041632_4305.png,1.0,9.72719,4.245567,3.876093
alexnet,1,451,NaN,elephant,elephant,cr,0451_cl_dnn_cr_elephant_40_n02504013_4590.png,n02504013_4590.png,1.0,14.386777,3.301469,7.8384967
alexnet,1,452,NaN,truck,truck,cr,0452_cl_dnn_cr_truck_40_n03417042_5752.png,n03417042_5752.png,1.0,5.749055,3.7342174,1.4247053
alexnet,1,453,NaN,oven,oven,cr,0453_cl_dnn_cr_oven_40_n04111531_21931.png,n04111531_21931.png,1.0,13.1613655,3.1025856,7.1126313
alexnet,1,454,NaN,elephant,elephant,bw,0454_cl_dnn_bw_elephant_40_n02504458_4711.png,n02504458_4711.png,1.0,10.956562,5.131666,4.1188235
alexnet,1,455,NaN,clock,clock,bw,0455_cl_dnn_bw_clock_40_n02708093_8033.png,n02708093_8033.png,1.0,12.384117,5.5630627,4.823214
alexnet,1,456,NaN,bicycle,bicycle,bw,0456_cl_dnn_bw_bicycle_40_n03792782_41992.png,n03792782_41992.png,1.0,15.146706,3.7049093,8.090572
alexnet,1,457,NaN,keyboard,keyboard,cr,0457_cl_dnn_cr_keyboard_40_n03085013_5622.png,n03085013_5622.png,1.0,15.177677,8.400679,4.792062
alexnet,1,458,NaN,bird,bird,bw,0458_cl_dnn_bw_bird_40_n02009912_1919.png,n02009912_1919.png,1.0,2.7571194,2.3892026,0.26015648
alexnet,1,459,NaN,bottle,bottle,cr,0459_cl_dnn_cr_bottle_40_n03937543_4202.png,n03937543_4202.png,1.0,9.307393,3.6069648,4.0308113
alexnet,1,460,NaN,bicycle,bicycle,bw,0460_cl_dnn_bw_bicycle_40_n02835271_4341.png,n02835271_4341.png,1.0,7.739156,5.45317,1.6164362
alexnet,1,461,NaN,bear,bear,bw,0461_cl_dnn_bw_bear_40_n02132136_18543.png,n02132136_18543.png,1.0,7.59474,6.3563614,0.87566584
alexnet,1,462,NaN,cat,cat,bw,0462_cl_dnn_bw_cat_40_n02124075_14425.png,n02124075_14425.png,1.0,16.498455,2.7857025,9.696381
alexnet,1,463,NaN,clock,clock,bw,0463_cl_dnn_bw_clock_40_n02708093_544.png,n02708093_544.png,1.0,8.050266,4.7176714,2.3565004
alexnet,1,464,NaN,elephant,bear,cr,0464_cl_dnn_cr_bear_40_n02133161_7604.png,n02133161_7604.png,0.0,7.915266,9.322841,-0.9953056
alexnet,1,465,NaN,car,car,bw,0465_cl_dnn_bw_car_40_n03100240_15407.png,n03100240_15407.png,1.0,11.819786,8.334139,2.4647248
alexnet,1,466,NaN,bicycle,bicycle,bw,0466_cl_dnn_bw_bicycle_40_n02835271_12926.png,n02835271_12926.png,1.0,10.298967,2.3995287,5.585747
alexnet,1,467,NaN,elephant,chair,cr,0467_cl_dnn_cr_chair_40_n03376595_2056.png,n03376595_2056.png,0.0,2.0927064,3.6195974,-1.079675
alexnet,1,468,NaN,oven,oven,bw,0468_cl_dnn_bw_oven_40_n04111531_9762.png,n04111531_9762.png,1.0,10.05286,4.1562643,4.1695232
alexnet,1,469,NaN,bicycle,bicycle,bw,0469_cl_dnn_bw_bicycle_40_n03792782_25799.png,n03792782_25799.png,1.0,9.112275,4.5958376,3.1936038
alexnet,1,470,NaN,oven,oven,cr,0470_cl_dnn_cr_oven_40_n04111531_3570.png,n04111531_3570.png,1.0,12.231361,3.5036685,6.1714106
alexnet,1,471,NaN,car,car,cr,0471_cl_dnn_cr_car_40_n04285008_874.png,n04285008_874.png,1.0,13.274791,9.689168,2.5354183
alexnet,1,472,NaN,boat,bottle,cr,0472_cl_dnn_cr_bottle_40_n04557648_364.png,n04557648_364.png,0.0,0.6826981,2.1313205,-1.0243307
alexnet,1,473,NaN,airplane,airplane,bw,0473_cl_dnn_bw_airplane_40_n02690373_8461.png,n02690373_8461.png,1.0,13.017551,5.2297645,5.506797
alexnet,1,474,NaN,boat,boat,cr,0474_cl_dnn_cr_boat_40_n04273569_1087.png,n04273569_1087.png,1.0,12.675774,5.295985,5.2182984
alexnet,1,475,NaN,chair,chair,cr,0475_cl_dnn_cr_chair_40_n03376595_1798.png,n03376595_1798.png,1.0,7.322292,3.7669566,2.5140018
alexnet,1,476,NaN,oven,oven,cr,0476_cl_dnn_cr_oven_40_n04111531_5290.png,n04111531_5290.png,1.0,13.947575,5.6364803,5.876831
alexnet,1,477,NaN,cat,cat,bw,0477_cl_dnn_bw_cat_40_n02124075_12369.png,n02124075_12369.png,1.0,9.97428,3.4645405,4.603081
alexnet,1,478,NaN,elephant,elephant,bw,0478_cl_dnn_bw_elephant_40_n02504458_3714.png,n02504458_3714.png,1.0,12.054964,4.2784004,5.498861
alexnet,1,479,NaN,bicycle,bicycle,bw,0479_cl_dnn_bw_bicycle_40_n03792782_7388.png,n03792782_7388.png,1.0,6.2057133,4.731478,1.0424416
alexnet,1,480,NaN,truck,truck,cr,0480_cl_dnn_cr_truck_40_n03796401_18240.png,n03796401_18240.png,1.0,14.974623,6.299563,6.134194
alexnet,1,481,NaN,airplane,airplane,cr,0481_cl_dnn_cr_airplane_40_n02690373_610.png,n02690373_610.png,1.0,25.899542,9.083411,11.8908
alexnet,1,482,NaN,airplane,airplane,bw,0482_cl_dnn_bw_airplane_40_n02690373_6046.png,n02690373_6046.png,1.0,30.596458,6.1896496,17.25822
alexnet,1,483,NaN,bear,dog,cr,0483_cl_dnn_cr_dog_40_n02105505_4069.png,n02105505_4069.png,0.0,4.6592574,5.5221906,-0.6101859
alexnet,1,484,NaN,clock,chair,bw,0484_cl_dnn_bw_chair_40_n04429376_1954.png,n04429376_1954.png,0.0,5.0533857,5.5440083,-0.34692252
alexnet,1,485,NaN,oven,oven,bw,0485_cl_dnn_bw_oven_40_n04111531_7862.png,n04111531_7862.png,1.0,6.4644403,4.774629,1.194877
alexnet,1,486,NaN,oven,chair,cr,0486_cl_dnn_cr_chair_40_n02791124_7424.png,n02791124_7424.png,0.0,7.031993,9.145454,-1.4944429
alexnet,1,487,NaN,dog,dog,bw,0487_cl_dnn_bw_dog_40_n02088466_5521.png,n02088466_5521.png,1.0,4.5983257,4.213888,0.2718384
alexnet,1,488,NaN,bear,bear,cr,0488_cl_dnn_cr_bear_40_n02133161_12868.png,n02133161_12868.png,1.0,6.749965,5.125439,1.1487134
alexnet,1,489,NaN,keyboard,keyboard,bw,0489_cl_dnn_bw_keyboard_40_n04505470_4107.png,n04505470_4107.png,1.0,11.241793,7.7845454,2.444643
alexnet,1,490,NaN,boat,boat,bw,0490_cl_dnn_bw_boat_40_n03662601_855.png,n03662601_855.png,1.0,11.0281515,7.33923,2.6084614
alexnet,1,491,NaN,bird,bird,cr,0491_cl_dnn_cr_bird_40_n02017213_7558.png,n02017213_7558.png,1.0,8.956636,1.4300463,5.322103
alexnet,1,492,NaN,knife,bottle,bw,0492_cl_dnn_bw_bottle_40_n04557648_23801.png,n04557648_23801.png,0.0,4.0658813,4.8386345,-0.5464191
alexnet,1,493,NaN,bird,bird,bw,0493_cl_dnn_bw_bird_40_n01601694_13054.png,n01601694_13054.png,1.0,6.937656,6.500367,0.30920985
alexnet,1,494,NaN,oven,oven,bw,0494_cl_dnn_bw_oven_40_n04111531_2207.png,n04111531_2207.png,1.0,10.101393,2.1955879,5.590248
alexnet,1,495,NaN,bird,bird,bw,0495_cl_dnn_bw_bird_40_n02009912_9425.png,n02009912_9425.png,1.0,3.5792916,2.121869,1.0305533
alexnet,1,496,NaN,clock,clock,cr,0496_cl_dnn_cr_clock_40_n03196217_6193.png,n03196217_6193.png,1.0,10.302571,7.054288,2.2968833
alexnet,1,497,NaN,boat,boat,bw,0497_cl_dnn_bw_boat_40_n04273569_27625.png,n04273569_27625.png,1.0,7.7662554,6.8120966,0.67469215
alexnet,1,498,NaN,truck,truck,bw,0498_cl_dnn_bw_truck_40_n03417042_29855.png,n03417042_29855.png,1.0,8.6974,8.104297,0.41938746
alexnet,1,499,NaN,bottle,bottle,cr,0499_cl_dnn_cr_bottle_40_n03983396_4212.png,n03983396_4212.png,1.0,15.594149,4.2437963,8.025911
alexnet,1,500,NaN,cat,cat,bw,0500_cl_dnn_bw_cat_40_n02123597_11613.png,n02123597_11613.png,1.0,8.913634,4.0974736,3.40554
alexnet,1,501,NaN,clock,clock,cr,0501_cl_dnn_cr_clock_40_n02708093_1559.png,n02708093_1559.png,1.0,8.790563,4.4127703,3.0955667
alexnet,1,502,NaN,chair,chair,cr,0502_cl_dnn_cr_chair_40_n02791124_7031.png,n02791124_7031.png,1.0,9.140787,4.4446716,3.320655
alexnet,1,503,NaN,bottle,bottle,cr,0503_cl_dnn_cr_bottle_40_n04560804_1703.png,n04560804_1703.png,1.0,8.437658,7.8560076,0.4112892
alexnet,1,504,NaN,bottle,bottle,bw,0504_cl_dnn_bw_bottle_40_n04560804_15679.png,n04560804_15679.png,1.0,6.466789,3.58887,2.0349958
alexnet,1,505,NaN,bottle,bottle,bw,0505_cl_dnn_bw_bottle_40_n03983396_1006.png,n03983396_1006.png,1.0,8.199858,3.9761238,2.986631
alexnet,1,506,NaN,knife,knife,bw,0506_cl_dnn_bw_knife_40_n03041632_100645.png,n03041632_100645.png,1.0,9.748224,3.738676,4.2493925
alexnet,1,507,NaN,car,car,cr,0507_cl_dnn_cr_car_40_n02814533_54845.png,n02814533_54845.png,1.0,13.733167,8.473982,3.7188053
alexnet,1,508,NaN,keyboard,keyboard,cr,0508_cl_dnn_cr_keyboard_40_n03085013_20078.png,n03085013_20078.png,1.0,9.573645,5.05614,3.1943583
alexnet,1,509,NaN,elephant,chair,cr,0509_cl_dnn_cr_chair_40_n04099969_4543.png,n04099969_4543.png,0.0,7.0393357,7.440268,-0.28350195
alexnet,1,510,NaN,bear,bear,cr,0510_cl_dnn_cr_bear_40_n02134418_1253.png,n02134418_1253.png,1.0,12.119192,5.969804,4.348274
alexnet,1,511,NaN,bicycle,bicycle,bw,0511_cl_dnn_bw_bicycle_40_n02835271_8137.png,n02835271_8137.png,1.0,8.60961,3.2998095,3.7545958
alexnet,1,512,NaN,keyboard,keyboard,bw,0512_cl_dnn_bw_keyboard_40_n04505470_7312.png,n04505470_7312.png,1.0,14.939596,6.5944147,5.9009347
alexnet,1,513,NaN,elephant,elephant,cr,0513_cl_dnn_cr_elephant_40_n02504013_2460.png,n02504013_2460.png,1.0,11.940374,6.677292,3.7215614
alexnet,1,514,NaN,clock,clock,cr,0514_cl_dnn_cr_clock_40_n04548280_13469.png,n04548280_13469.png,1.0,7.449627,3.1156275,3.0646005
alexnet,1,515,NaN,chair,chair,cr,0515_cl_dnn_cr_chair_40_n02791124_3161.png,n02791124_3161.png,1.0,5.067037,4.785934,0.19876994
alexnet,1,516,NaN,elephant,dog,cr,0516_cl_dnn_cr_dog_40_n02093647_1818.png,n02093647_1818.png,0.0,3.255638,3.5610034,-0.21592607
alexnet,1,517,NaN,chair,chair,cr,0517_cl_dnn_cr_chair_40_n02791124_4294.png,n02791124_4294.png,1.0,5.9326787,5.2952886,0.4507029
alexnet,1,518,NaN,cat,cat,cr,0518_cl_dnn_cr_cat_40_n02124075_3533.png,n02124075_3533.png,1.0,13.452965,5.904518,5.337558
alexnet,1,519,NaN,boat,boat,cr,0519_cl_dnn_cr_boat_40_n03344393_2480.png,n03344393_2480.png,1.0,13.898947,8.920501,3.520293
alexnet,1,520,NaN,car,car,bw,0520_cl_dnn_bw_car_40_n02814533_95054.png,n02814533_95054.png,1.0,13.674895,9.773618,2.7586198
alexnet,1,521,NaN,bottle,bottle,cr,0521_cl_dnn_cr_bottle_40_n03937543_1808.png,n03937543_1808.png,1.0,9.523244,3.8814037,3.9893835
alexnet,1,522,NaN,car,car,cr,0522_cl_dnn_cr_car_40_n02814533_72213.png,n02814533_72213.png,1.0,13.712022,7.7482433,4.217028
alexnet,1,523,NaN,clock,clock,cr,0523_cl_dnn_cr_clock_40_n03196217_1499.png,n03196217_1499.png,1.0,10.918544,7.1788845,2.6443386
alexnet,1,524,NaN,cat,cat,cr,0524_cl_dnn_cr_cat_40_n02123045_5300.png,n02123045_5300.png,1.0,11.8045845,4.830201,4.931634
alexnet,1,525,NaN,knife,bird,bw,0525_cl_dnn_bw_bird_40_n02006656_3185.png,n02006656_3185.png,0.0,0.35019827,3.1718268,-1.9951928
alexnet,1,526,NaN,clock,clock,cr,0526_cl_dnn_cr_clock_40_n03196217_4541.png,n03196217_4541.png,1.0,9.586225,6.1428137,2.4348593
alexnet,1,527,NaN,cat,cat,cr,0527_cl_dnn_cr_cat_40_n02123159_2317.png,n02123159_2317.png,1.0,13.335616,3.91059,6.6644998
alexnet,1,528,NaN,bear,bear,cr,0528_cl_dnn_cr_bear_40_n02133161_1362.png,n02133161_1362.png,1.0,7.2873454,6.9950805,0.20666252
alexnet,1,529,NaN,clock,clock,bw,0529_cl_dnn_bw_clock_40_n04548280_1202.png,n04548280_1202.png,1.0,5.1584487,3.073266,1.4744468
alexnet,1,530,NaN,dog,dog,bw,0530_cl_dnn_bw_dog_40_n02095570_6717.png,n02095570_6717.png,1.0,5.726303,3.7969558,1.3642546
alexnet,1,531,NaN,car,car,bw,0531_cl_dnn_bw_car_40_n03100240_15941.png,n03100240_15941.png,1.0,16.840662,10.92571,4.1825027
alexnet,1,532,NaN,chair,chair,bw,0532_cl_dnn_bw_chair_40_n02791124_1443.png,n02791124_1443.png,1.0,5.2072024,3.0493205,1.525853
alexnet,1,533,NaN,bottle,bottle,cr,0533_cl_dnn_cr_bottle_40_n04557648_830.png,n04557648_830.png,1.0,13.78789,5.158973,6.1015663
alexnet,1,534,NaN,truck,truck,cr,0534_cl_dnn_cr_truck_40_n03417042_8298.png,n03417042_8298.png,1.0,15.37867,5.3620534,7.082818
alexnet,1,535,NaN,clock,clock,bw,0535_cl_dnn_bw_clock_40_n02708093_4569.png,n02708093_4569.png,1.0,12.120659,3.978667,5.7572575
alexnet,1,536,NaN,knife,keyboard,cr,0536_cl_dnn_cr_keyboard_40_n03085013_7576.png,n03085013_7576.png,0.0,5.502773,5.9284897,-0.3010273
alexnet,1,537,NaN,truck,truck,bw,0537_cl_dnn_bw_truck_40_n03417042_27093.png,n03417042_27093.png,1.0,9.606012,6.178838,2.4233785
alexnet,1,538,NaN,elephant,elephant,cr,0538_cl_dnn_cr_elephant_40_n02504013_13560.png,n02504013_13560.png,1.0,14.641981,7.0944443,5.3369145
alexnet,1,539,NaN,car,car,bw,0539_cl_dnn_bw_car_40_n04285008_12045.png,n04285008_12045.png,1.0,11.845984,6.263254,3.9475865
alexnet,1,540,NaN,airplane,airplane,cr,0540_cl_dnn_cr_airplane_40_n02690373_5176.png,n02690373_5176.png,1.0,24.986305,10.658234,10.131476
alexnet,1,541,NaN,bicycle,bicycle,bw,0541_cl_dnn_bw_bicycle_40_n03792782_6194.png,n03792782_6194.png,1.0,13.304962,2.354701,7.743004
alexnet,1,542,NaN,oven,oven,cr,0542_cl_dnn_cr_oven_40_n04111531_15912.png,n04111531_15912.png,1.0,14.777379,3.558273,7.933106
alexnet,1,543,NaN,oven,oven,cr,0543_cl_dnn_cr_oven_40_n04111531_2592.png,n04111531_2592.png,1.0,9.950228,6.352658,2.5438662
alexnet,1,544,NaN,cat,bird,cr,0544_cl_dnn_cr_bird_40_n02011460_2435.png,n02011460_2435.png,0.0,3.3114657,3.759096,-0.31652233
alexnet,1,545,NaN,car,car,cr,0545_cl_dnn_cr_car_40_n02814533_33205.png,n02814533_33205.png,1.0,13.558063,7.7237873,4.125456
alexnet,1,546,NaN,oven,oven,bw,0546_cl_dnn_bw_oven_40_n04111531_14959.png,n04111531_14959.png,1.0,7.437886,5.900629,1.087005
alexnet,1,547,NaN,clock,clock,cr,0547_cl_dnn_cr_clock_40_n04548280_6743.png,n04548280_6743.png,1.0,12.167443,5.802549,4.50066
alexnet,1,548,NaN,knife,knife,bw,0548_cl_dnn_bw_knife_40_n03041632_15299.png,n03041632_15299.png,1.0,4.999243,3.7282875,0.89870113
alexnet,1,549,NaN,clock,clock,bw,0549_cl_dnn_bw_clock_40_n03196217_127.png,n03196217_127.png,1.0,5.217959,5.1773252,0.02873235
alexnet,1,550,NaN,boat,boat,bw,0550_cl_dnn_bw_boat_40_n04273569_12917.png,n04273569_12917.png,1.0,10.04485,7.596174,1.7314758
alexnet,1,551,NaN,airplane,airplane,cr,0551_cl_dnn_cr_airplane_40_n02690373_9626.png,n02690373_9626.png,1.0,29.337864,13.192433,11.416544
alexnet,1,552,NaN,bear,bear,cr,0552_cl_dnn_cr_bear_40_n02134084_20500.png,n02134084_20500.png,1.0,7.2784095,4.911449,1.6736939
alexnet,1,553,NaN,bear,bear,bw,0553_cl_dnn_bw_bear_40_n02132136_6890.png,n02132136_6890.png,1.0,6.388758,6.2209954,0.118626185
alexnet,1,554,NaN,bottle,bottle,bw,0554_cl_dnn_bw_bottle_40_n02823428_3049.png,n02823428_3049.png,1.0,9.633727,8.099881,1.0845928
alexnet,1,555,NaN,keyboard,keyboard,cr,0555_cl_dnn_cr_keyboard_40_n03085013_22837.png,n03085013_22837.png,1.0,5.6061745,5.044737,0.39699635
alexnet,1,556,NaN,keyboard,keyboard,bw,0556_cl_dnn_bw_keyboard_40_n03085013_3264.png,n03085013_3264.png,1.0,15.947807,4.5746074,8.042067
alexnet,1,557,NaN,bear,bear,bw,0557_cl_dnn_bw_bear_40_n02134418_7795.png,n02134418_7795.png,1.0,10.057132,7.055001,2.1228273
alexnet,1,558,NaN,elephant,boat,bw,0558_cl_dnn_bw_boat_40_n02951358_34163.png,n02951358_34163.png,0.0,3.03918,3.257638,-0.1544731
alexnet,1,559,NaN,bear,bear,cr,0559_cl_dnn_cr_bear_40_n02132136_8637.png,n02132136_8637.png,1.0,10.371672,7.166055,2.2667131
alexnet,1,560,NaN,truck,truck,cr,0560_cl_dnn_cr_truck_40_n03417042_4218.png,n03417042_4218.png,1.0,15.473802,6.502626,6.34358
alexnet,1,561,NaN,chair,clock,bw,0561_cl_dnn_bw_clock_40_n04548280_4473.png,n04548280_4473.png,0.0,7.243196,7.286618,-0.030704148
alexnet,1,562,NaN,bear,bear,bw,0562_cl_dnn_bw_bear_40_n02132136_21799.png,n02132136_21799.png,1.0,7.8587112,5.3886924,1.7465671
alexnet,1,563,NaN,bird,bird,cr,0563_cl_dnn_cr_bird_40_n01531178_5780.png,n01531178_5780.png,1.0,6.3984313,3.6108913,1.9710884
alexnet,1,564,NaN,truck,truck,cr,0564_cl_dnn_cr_truck_40_n03796401_27184.png,n03796401_27184.png,1.0,17.207886,9.007495,5.798552
alexnet,1,565,NaN,clock,clock,bw,0565_cl_dnn_bw_clock_40_n03196217_5258.png,n03196217_5258.png,1.0,6.022997,5.898844,0.08778953
alexnet,1,566,NaN,airplane,bird,cr,0566_cl_dnn_cr_bird_40_n02002556_15337.png,n02002556_15337.png,0.0,7.2520165,8.142967,-0.62999725
alexnet,1,567,NaN,oven,bottle,cr,0567_cl_dnn_cr_bottle_40_n04560804_3683.png,n04560804_3683.png,0.0,4.857662,6.8533325,-1.411152
alexnet,1,568,NaN,bicycle,bicycle,cr,0568_cl_dnn_cr_bicycle_40_n02835271_8511.png,n02835271_8511.png,1.0,17.016901,3.621858,9.471726
alexnet,1,569,NaN,bear,bear,cr,0569_cl_dnn_cr_bear_40_n02134084_23974.png,n02134084_23974.png,1.0,6.1608334,4.0537696,1.4899191
alexnet,1,570,NaN,dog,dog,bw,0570_cl_dnn_bw_dog_40_n02091244_9271.png,n02091244_9271.png,1.0,3.6204817,2.4273195,0.8436931
alexnet,1,571,NaN,bear,bear,cr,0571_cl_dnn_cr_bear_40_n02133161_6946.png,n02133161_6946.png,1.0,5.200059,2.4031756,1.9776952
alexnet,1,572,NaN,truck,truck,bw,0572_cl_dnn_bw_truck_40_n04467665_10060.png,n04467665_10060.png,1.0,12.207119,9.739267,1.7450347
alexnet,1,573,NaN,oven,oven,bw,0573_cl_dnn_bw_oven_40_n04111531_5328.png,n04111531_5328.png,1.0,11.7096615,5.400843,4.461008
alexnet,1,574,NaN,bottle,bottle,cr,0574_cl_dnn_cr_bottle_40_n04560804_2005.png,n04560804_2005.png,1.0,6.8568463,3.0726256,2.6758482
alexnet,1,575,NaN,bear,bear,bw,0575_cl_dnn_bw_bear_40_n02134084_3695.png,n02134084_3695.png,1.0,4.221693,3.256404,0.6825625
alexnet,1,576,NaN,cat,cat,bw,0576_cl_dnn_bw_cat_40_n02123597_2219.png,n02123597_2219.png,1.0,8.214457,6.124355,1.4779252
alexnet,1,577,NaN,car,chair,bw,0577_cl_dnn_bw_chair_40_n02791124_6077.png,n02791124_6077.png,0.0,4.678689,6.4935684,-1.2833135
alexnet,1,578,NaN,bottle,bottle,cr,0578_cl_dnn_cr_bottle_40_n04579145_7431.png,n04579145_7431.png,1.0,5.816135,2.123649,2.610982
alexnet,1,579,NaN,keyboard,keyboard,bw,0579_cl_dnn_bw_keyboard_40_n04505470_510.png,n04505470_510.png,1.0,11.395223,9.025323,1.6757722
alexnet,1,580,NaN,oven,oven,cr,0580_cl_dnn_cr_oven_40_n04111531_4452.png,n04111531_4452.png,1.0,21.232817,5.6426067,11.023943
alexnet,1,581,NaN,elephant,elephant,bw,0581_cl_dnn_bw_elephant_40_n02504013_237.png,n02504013_237.png,1.0,11.392242,2.5099926,6.2806993
alexnet,1,582,NaN,elephant,elephant,cr,0582_cl_dnn_cr_elephant_40_n02504013_10351.png,n02504013_10351.png,1.0,12.8197975,3.9688032,6.258598
alexnet,1,583,NaN,elephant,elephant,cr,0583_cl_dnn_cr_elephant_40_n02504458_1304.png,n02504458_1304.png,1.0,24.516731,6.2930703,12.886075
alexnet,1,584,NaN,cat,dog,bw,0584_cl_dnn_bw_dog_40_n02104365_9837.png,n02104365_9837.png,0.0,5.8346224,6.7793097,-0.66799486
alexnet,1,585,NaN,cat,cat,cr,0585_cl_dnn_cr_cat_40_n02123045_9661.png,n02123045_9661.png,1.0,10.425469,3.8635507,4.6399775
alexnet,1,586,NaN,cat,bottle,bw,0586_cl_dnn_bw_bottle_40_n02823428_5214.png,n02823428_5214.png,0.0,1.2778281,3.6666336,-1.6891406
alexnet,1,587,NaN,bird,bird,bw,0587_cl_dnn_bw_bird_40_n01828970_5448.png,n01828970_5448.png,1.0,7.087652,2.9258165,2.9428623
alexnet,1,588,NaN,car,car,cr,0588_cl_dnn_cr_car_40_n02814533_83874.png,n02814533_83874.png,1.0,5.0285993,3.944824,0.76634485
alexnet,1,589,NaN,oven,oven,bw,0589_cl_dnn_bw_oven_40_n04111531_8036.png,n04111531_8036.png,1.0,4.137746,3.6406674,0.35148752
alexnet,1,590,NaN,oven,oven,cr,0590_cl_dnn_cr_oven_40_n04111531_7355.png,n04111531_7355.png,1.0,7.4122777,6.453865,0.6777001
alexnet,1,591,NaN,car,car,bw,0591_cl_dnn_bw_car_40_n04285008_13354.png,n04285008_13354.png,1.0,8.550128,6.151449,1.696122
alexnet,1,592,NaN,clock,clock,cr,0592_cl_dnn_cr_clock_40_n02708093_8267.png,n02708093_8267.png,1.0,8.269338,6.3195014,1.3787425
alexnet,1,593,NaN,cat,cat,bw,0593_cl_dnn_bw_cat_40_n02124075_14242.png,n02124075_14242.png,1.0,12.179849,2.935595,6.536674
alexnet,1,594,NaN,knife,knife,cr,0594_cl_dnn_cr_knife_40_n03041632_4279.png,n03041632_4279.png,1.0,12.538632,8.267527,3.020128
alexnet,1,595,NaN,oven,oven,cr,0595_cl_dnn_cr_oven_40_n04111531_2296.png,n04111531_2296.png,1.0,14.024937,5.013344,6.3721585
alexnet,1,596,NaN,boat,boat,cr,0596_cl_dnn_cr_boat_40_n03344393_5859.png,n03344393_5859.png,1.0,16.321522,5.0128474,7.99644
alexnet,1,597,NaN,car,car,cr,0597_cl_dnn_cr_car_40_n02814533_57176.png,n02814533_57176.png,1.0,11.926663,11.2162075,0.5023682
alexnet,1,598,NaN,cat,cat,bw,0598_cl_dnn_bw_cat_40_n02123159_1769.png,n02123159_1769.png,1.0,6.5890465,3.449662,2.21988
alexnet,1,599,NaN,clock,clock,cr,0599_cl_dnn_cr_clock_40_n02708093_4976.png,n02708093_4976.png,1.0,16.129717,5.610462,7.438236
alexnet,1,600,NaN,airplane,truck,cr,0600_cl_dnn_cr_truck_40_n03796401_8864.png,n03796401_8864.png,0.0,6.5525494,7.479382,-0.6553697
alexnet,1,601,NaN,clock,clock,bw,0601_cl_dnn_bw_clock_40_n03196217_868.png,n03196217_868.png,1.0,11.749957,6.6970634,3.5729353
alexnet,1,602,NaN,knife,keyboard,bw,0602_cl_dnn_bw_keyboard_40_n03085013_3910.png,n03085013_3910.png,0.0,1.6360986,4.2057724,-1.8170338
alexnet,1,603,NaN,bicycle,bicycle,cr,0603_cl_dnn_cr_bicycle_40_n03792782_5466.png,n03792782_5466.png,1.0,17.779072,2.3483706,10.911154
alexnet,1,604,NaN,bear,bear,bw,0604_cl_dnn_bw_bear_40_n02132136_23248.png,n02132136_23248.png,1.0,15.143887,6.0881615,6.4033647
alexnet,1,605,NaN,truck,truck,bw,0605_cl_dnn_bw_truck_40_n03417042_2794.png,n03417042_2794.png,1.0,12.969699,5.0362544,5.6097927
alexnet,1,606,NaN,chair,chair,bw,0606_cl_dnn_bw_chair_40_n02791124_7324.png,n02791124_7324.png,1.0,8.762332,5.226323,2.500336
alexnet,1,607,NaN,bicycle,bicycle,bw,0607_cl_dnn_bw_bicycle_40_n02835271_6736.png,n02835271_6736.png,1.0,8.6893215,5.8704853,1.9932182
alexnet,1,608,NaN,clock,clock,bw,0608_cl_dnn_bw_clock_40_n04548280_8990.png,n04548280_8990.png,1.0,22.381262,5.340938,12.049329
alexnet,1,609,NaN,airplane,airplane,bw,0609_cl_dnn_bw_airplane_40_n02690373_971.png,n02690373_971.png,1.0,9.485468,5.286027,2.9694533
alexnet,1,610,NaN,bear,bear,bw,0610_cl_dnn_bw_bear_40_n02132136_23853.png,n02132136_23853.png,1.0,8.299494,7.225085,0.75972193
alexnet,1,611,NaN,bottle,clock,cr,0611_cl_dnn_cr_clock_40_n03196217_3416.png,n03196217_3416.png,0.0,6.7881646,6.938275,-0.106143974
alexnet,1,612,NaN,clock,clock,bw,0612_cl_dnn_bw_clock_40_n04548280_4346.png,n04548280_4346.png,1.0,3.2216327,2.3124557,0.64288527
alexnet,1,613,NaN,oven,oven,cr,0613_cl_dnn_cr_oven_40_n04111531_2342.png,n04111531_2342.png,1.0,20.664474,7.2542453,9.482464
alexnet,1,614,NaN,chair,chair,bw,0614_cl_dnn_bw_chair_40_n04099969_8509.png,n04099969_8509.png,1.0,7.5479746,5.2263365,1.641646
alexnet,1,615,NaN,keyboard,bottle,bw,0615_cl_dnn_bw_bottle_40_n03937543_4340.png,n03937543_4340.png,0.0,4.3972154,5.27827,-0.62299955
alexnet,1,616,NaN,chair,clock,bw,0616_cl_dnn_bw_clock_40_n02708093_6655.png,n02708093_6655.png,0.0,2.7730525,4.953021,-1.5414706
alexnet,1,617,NaN,cat,cat,cr,0617_cl_dnn_cr_cat_40_n02123159_1339.png,n02123159_1339.png,1.0,14.618945,3.7193463,7.7071805
alexnet,1,618,NaN,knife,knife,bw,0618_cl_dnn_bw_knife_40_n03041632_30553.png,n03041632_30553.png,1.0,6.911888,5.556404,0.95847195
alexnet,1,619,NaN,bicycle,bicycle,cr,0619_cl_dnn_cr_bicycle_40_n03792782_18707.png,n03792782_18707.png,1.0,14.737329,3.874277,7.6813374
alexnet,1,620,NaN,elephant,elephant,bw,0620_cl_dnn_bw_elephant_40_n02504458_3648.png,n02504458_3648.png,1.0,18.855103,2.3155947,11.695199
alexnet,1,621,NaN,elephant,elephant,cr,0621_cl_dnn_cr_elephant_40_n02504458_1179.png,n02504458_1179.png,1.0,28.43451,12.073836,11.568743
alexnet,1,622,NaN,clock,clock,bw,0622_cl_dnn_bw_clock_40_n02708093_391.png,n02708093_391.png,1.0,13.047825,6.1866016,4.8516173
alexnet,1,623,NaN,bicycle,car,cr,0623_cl_dnn_cr_car_40_n04285008_3453.png,n04285008_3453.png,0.0,8.181468,8.746047,-0.39921767
alexnet,1,624,NaN,airplane,airplane,bw,0624_cl_dnn_bw_airplane_40_n02690373_2800.png,n02690373_2800.png,1.0,20.75687,6.5009146,10.080483
alexnet,1,625,NaN,cat,cat,cr,0625_cl_dnn_cr_cat_40_n02123394_979.png,n02123394_979.png,1.0,10.7161875,4.361848,4.4931965
alexnet,1,626,NaN,bear,dog,cr,0626_cl_dnn_cr_dog_40_n02105641_4701.png,n02105641_4701.png,0.0,5.4265857,5.5159397,-0.063182846
alexnet,1,627,NaN,airplane,boat,cr,0627_cl_dnn_cr_boat_40_n04273569_13641.png,n04273569_13641.png,0.0,9.504707,13.7780695,-3.0217235
alexnet,1,628,NaN,car,car,cr,0628_cl_dnn_cr_car_40_n02814533_74825.png,n02814533_74825.png,1.0,6.671902,5.1638446,1.0663577
alexnet,1,629,NaN,airplane,airplane,cr,0629_cl_dnn_cr_airplane_40_n02690373_6812.png,n02690373_6812.png,1.0,27.026161,10.268808,11.849238
alexnet,1,630,NaN,car,car,bw,0630_cl_dnn_bw_car_40_n03100240_19223.png,n03100240_19223.png,1.0,15.740204,8.726216,4.959638
alexnet,1,631,NaN,bottle,bottle,bw,0631_cl_dnn_bw_bottle_40_n03983396_3817.png,n03983396_3817.png,1.0,11.083928,4.8303795,4.4219265
alexnet,1,632,NaN,elephant,elephant,bw,0632_cl_dnn_bw_elephant_40_n02504013_1432.png,n02504013_1432.png,1.0,14.980584,5.5586586,6.6623077
alexnet,1,633,NaN,boat,boat,cr,0633_cl_dnn_cr_boat_40_n03662601_35008.png,n03662601_35008.png,1.0,14.79021,10.719858,2.8781734
alexnet,1,634,NaN,oven,oven,bw,0634_cl_dnn_bw_oven_40_n04111531_14055.png,n04111531_14055.png,1.0,8.1404,5.111792,2.141549
alexnet,1,635,NaN,airplane,airplane,bw,0635_cl_dnn_bw_airplane_40_n02690373_9812.png,n02690373_9812.png,1.0,19.270603,9.702768,6.765481
alexnet,1,636,NaN,truck,car,cr,0636_cl_dnn_cr_car_40_n04285008_6200.png,n04285008_6200.png,0.0,8.40315,9.697948,-0.9155611
alexnet,1,637,NaN,clock,clock,cr,0637_cl_dnn_cr_clock_40_n04548280_5889.png,n04548280_5889.png,1.0,10.826844,3.468473,5.203154
alexnet,1,638,NaN,chair,chair,bw,0638_cl_dnn_bw_chair_40_n03376595_2924.png,n03376595_2924.png,1.0,5.7335405,4.9397955,0.5612625
alexnet,1,639,NaN,airplane,airplane,bw,0639_cl_dnn_bw_airplane_40_n02690373_693.png,n02690373_693.png,1.0,14.112532,6.917741,5.0874853
alexnet,1,640,NaN,bicycle,bicycle,bw,0640_cl_dnn_bw_bicycle_40_n03792782_1778.png,n03792782_1778.png,1.0,8.315992,3.5858798,3.3446946
alexnet,1,641,NaN,clock,clock,cr,0641_cl_dnn_cr_clock_40_n02708093_444.png,n02708093_444.png,1.0,13.808352,6.532222,5.1450014
alexnet,1,642,NaN,clock,clock,cr,0642_cl_dnn_cr_clock_40_n02708093_3385.png,n02708093_3385.png,1.0,9.469327,5.1520147,3.052801
alexnet,1,643,NaN,clock,clock,cr,0643_cl_dnn_cr_clock_40_n03196217_970.png,n03196217_970.png,1.0,8.961543,7.8933926,0.75529647
alexnet,1,644,NaN,clock,clock,bw,0644_cl_dnn_bw_clock_40_n04548280_4839.png,n04548280_4839.png,1.0,6.857263,6.3865304,0.3328583
alexnet,1,645,NaN,truck,truck,bw,0645_cl_dnn_bw_truck_40_n03796401_1853.png,n03796401_1853.png,1.0,10.363768,5.1933703,3.656023
alexnet,1,646,NaN,bottle,bottle,bw,0646_cl_dnn_bw_bottle_40_n04591713_2680.png,n04591713_2680.png,1.0,4.6734548,3.588633,0.7670848
alexnet,1,647,NaN,clock,clock,bw,0647_cl_dnn_bw_clock_40_n02708093_3691.png,n02708093_3691.png,1.0,14.245303,7.4718914,4.7895255
alexnet,1,648,NaN,cat,cat,bw,0648_cl_dnn_bw_cat_40_n02123045_12762.png,n02123045_12762.png,1.0,18.28573,4.3979654,9.820133
alexnet,1,649,NaN,cat,cat,cr,0649_cl_dnn_cr_cat_40_n02124075_17464.png,n02124075_17464.png,1.0,12.469627,1.6479044,7.652114
alexnet,1,650,NaN,chair,chair,bw,0650_cl_dnn_bw_chair_40_n02791124_5690.png,n02791124_5690.png,1.0,8.937592,4.9483094,2.8208485
alexnet,1,651,NaN,cat,bird,bw,0651_cl_dnn_bw_bird_40_n01592084_5361.png,n01592084_5361.png,0.0,4.90926,5.7860737,-0.6200011
alexnet,1,652,NaN,clock,truck,cr,0652_cl_dnn_cr_truck_40_n04467665_34228.png,n04467665_34228.png,0.0,3.4514134,4.824116,-0.9706475
alexnet,1,653,NaN,bear,bear,cr,0653_cl_dnn_cr_bear_40_n02133161_4282.png,n02133161_4282.png,1.0,13.95115,4.4689107,6.7049556
alexnet,1,654,NaN,cat,cat,bw,0654_cl_dnn_bw_cat_40_n02125311_20219.png,n02125311_20219.png,1.0,7.723968,5.634442,1.4775182
alexnet,1,655,NaN,bicycle,bicycle,cr,0655_cl_dnn_cr_bicycle_40_n02835271_8502.png,n02835271_8502.png,1.0,13.258772,4.141384,6.4469666
alexnet,1,656,NaN,dog,dog,bw,0656_cl_dnn_bw_dog_40_n02110958_5624.png,n02110958_5624.png,1.0,6.9871225,6.856238,0.09254942
alexnet,1,657,NaN,knife,knife,bw,0657_cl_dnn_bw_knife_40_n03041632_35365.png,n03041632_35365.png,1.0,11.924358,3.233461,6.1453924
alexnet,1,658,NaN,bear,bear,bw,0658_cl_dnn_bw_bear_40_n02134418_399.png,n02134418_399.png,1.0,8.363141,5.533212,2.001062
alexnet,1,659,NaN,bear,bear,cr,0659_cl_dnn_cr_bear_40_n02132136_4314.png,n02132136_4314.png,1.0,7.1229157,6.8125076,0.21949169
alexnet,1,660,NaN,keyboard,keyboard,cr,0660_cl_dnn_cr_keyboard_40_n04505470_996.png,n04505470_996.png,1.0,8.891985,4.637867,3.0081158
alexnet,1,661,NaN,airplane,airplane,cr,0661_cl_dnn_cr_airplane_40_n02690373_3313.png,n02690373_3313.png,1.0,31.506866,9.440169,15.603511
alexnet,1,662,NaN,knife,knife,bw,0662_cl_dnn_bw_knife_40_n03041632_9302.png,n03041632_9302.png,1.0,6.068117,4.067699,1.4145093
alexnet,1,663,NaN,clock,clock,bw,0663_cl_dnn_bw_clock_40_n04548280_7211.png,n04548280_7211.png,1.0,15.383704,5.6218104,6.902702
alexnet,1,664,NaN,bird,bird,cr,0664_cl_dnn_cr_bird_40_n01829413_122.png,n01829413_122.png,1.0,5.0694647,5.002968,0.047020372
alexnet,1,665,NaN,keyboard,keyboard,cr,0665_cl_dnn_cr_keyboard_40_n03085013_24001.png,n03085013_24001.png,1.0,13.528774,6.0709867,5.2734523
alexnet,1,666,NaN,bottle,bottle,cr,0666_cl_dnn_cr_bottle_40_n03937543_3219.png,n03937543_3219.png,1.0,3.7391105,3.4430032,0.20937948
alexnet,1,667,NaN,keyboard,keyboard,bw,0667_cl_dnn_bw_keyboard_40_n03085013_19916.png,n03085013_19916.png,1.0,8.623934,6.784923,1.300377
alexnet,1,668,NaN,cat,cat,cr,0668_cl_dnn_cr_cat_40_n02123159_6609.png,n02123159_6609.png,1.0,13.832236,4.9227924,6.299928
alexnet,1,669,NaN,cat,cat,bw,0669_cl_dnn_bw_cat_40_n02125311_17543.png,n02125311_17543.png,1.0,7.9167485,3.813642,2.9013345
alexnet,1,670,NaN,bear,bear,bw,0670_cl_dnn_bw_bear_40_n02134418_1043.png,n02134418_1043.png,1.0,8.149487,7.0560427,0.7731816
alexnet,1,671,NaN,chair,chair,bw,0671_cl_dnn_bw_chair_40_n04099969_43.png,n04099969_43.png,1.0,5.184125,4.76614,0.29556
alexnet,1,672,NaN,airplane,airplane,bw,0672_cl_dnn_bw_airplane_40_n02690373_1912.png,n02690373_1912.png,1.0,5.7809954,5.260672,0.36792412
alexnet,1,673,NaN,bicycle,bicycle,cr,0673_cl_dnn_cr_bicycle_40_n02835271_1426.png,n02835271_1426.png,1.0,17.868832,3.7577832,9.978019
alexnet,1,674,NaN,bicycle,bicycle,bw,0674_cl_dnn_bw_bicycle_40_n03792782_47426.png,n03792782_47426.png,1.0,14.207837,6.7788305,5.253101
alexnet,1,675,NaN,truck,truck,cr,0675_cl_dnn_cr_truck_40_n03417042_27404.png,n03417042_27404.png,1.0,12.058928,7.6124816,3.144112
alexnet,1,676,NaN,clock,clock,cr,0676_cl_dnn_cr_clock_40_n04548280_4349.png,n04548280_4349.png,1.0,9.009994,8.54634,0.32785258
alexnet,1,677,NaN,oven,oven,bw,0677_cl_dnn_bw_oven_40_n04111531_8193.png,n04111531_8193.png,1.0,16.670437,5.7296553,7.736301
alexnet,1,678,NaN,boat,boat,bw,0678_cl_dnn_bw_boat_40_n03344393_11855.png,n03344393_11855.png,1.0,10.529832,9.483244,0.7400494
alexnet,1,679,NaN,keyboard,bottle,bw,0679_cl_dnn_bw_bottle_40_n02823428_6830.png,n02823428_6830.png,0.0,7.6023836,10.119482,-1.7798574
alexnet,1,680,NaN,oven,bottle,bw,0680_cl_dnn_bw_bottle_40_n02823428_3298.png,n02823428_3298.png,0.0,4.364187,5.5073013,-0.8083041
alexnet,1,681,NaN,oven,oven,bw,0681_cl_dnn_bw_oven_40_n04111531_615.png,n04111531_615.png,1.0,4.194371,3.8815937,0.2211671
alexnet,1,682,NaN,clock,clock,cr,0682_cl_dnn_cr_clock_40_n03196217_9736.png,n03196217_9736.png,1.0,8.482947,4.4377937,2.8603556
alexnet,1,683,NaN,oven,clock,cr,0683_cl_dnn_cr_clock_40_n03196217_6293.png,n03196217_6293.png,0.0,5.651321,7.561816,-1.3509241
alexnet,1,684,NaN,bicycle,bicycle,cr,0684_cl_dnn_cr_bicycle_40_n02835271_15524.png,n02835271_15524.png,1.0,19.480976,9.73118,6.894147
alexnet,1,685,NaN,oven,oven,cr,0685_cl_dnn_cr_oven_40_n04111531_10749.png,n04111531_10749.png,1.0,19.184757,4.6875114,10.251101
alexnet,1,686,NaN,car,car,cr,0686_cl_dnn_cr_car_40_n03100240_9354.png,n03100240_9354.png,1.0,17.083466,10.47851,4.670409
alexnet,1,687,NaN,chair,chair,bw,0687_cl_dnn_bw_chair_40_n03376595_9695.png,n03376595_9695.png,1.0,7.553946,5.5769253,1.3979648
alexnet,1,688,NaN,cat,cat,bw,0688_cl_dnn_bw_cat_40_n02125311_7729.png,n02125311_7729.png,1.0,7.6864815,3.6892123,2.8264961
alexnet,1,689,NaN,clock,clock,cr,0689_cl_dnn_cr_clock_40_n04548280_7153.png,n04548280_7153.png,1.0,3.2143276,1.9393338,0.9015568
alexnet,1,690,NaN,boat,boat,cr,0690_cl_dnn_cr_boat_40_n03344393_3355.png,n03344393_3355.png,1.0,18.208374,9.728729,5.9960146
alexnet,1,691,NaN,boat,boat,bw,0691_cl_dnn_bw_boat_40_n02951358_381.png,n02951358_381.png,1.0,8.559572,2.8614266,4.0291977
alexnet,1,692,NaN,boat,boat,cr,0692_cl_dnn_cr_boat_40_n03344393_6226.png,n03344393_6226.png,1.0,12.43579,8.521799,2.7676096
alexnet,1,693,NaN,car,car,bw,0693_cl_dnn_bw_car_40_n03100240_8206.png,n03100240_8206.png,1.0,12.349637,9.423661,2.0689774
alexnet,1,694,NaN,boat,boat,bw,0694_cl_dnn_bw_boat_40_n04273569_4044.png,n04273569_4044.png,1.0,9.599783,5.381,2.98313
alexnet,1,695,NaN,bicycle,bicycle,cr,0695_cl_dnn_cr_bicycle_40_n02835271_8180.png,n02835271_8180.png,1.0,17.939775,3.1023707,10.49163
alexnet,1,696,NaN,bear,bear,cr,0696_cl_dnn_cr_bear_40_n02134418_1063.png,n02134418_1063.png,1.0,5.002382,2.9362764,1.4609572
alexnet,1,697,NaN,truck,truck,bw,0697_cl_dnn_bw_truck_40_n03417042_265.png,n03417042_265.png,1.0,9.26115,8.737092,0.3705652
alexnet,1,698,NaN,cat,cat,cr,0698_cl_dnn_cr_cat_40_n02124075_8351.png,n02124075_8351.png,1.0,9.078678,5.206889,2.7377682
alexnet,1,699,NaN,clock,clock,bw,0699_cl_dnn_bw_clock_40_n03196217_4004.png,n03196217_4004.png,1.0,4.507316,3.6229403,0.62534815
alexnet,1,700,NaN,car,car,cr,0700_cl_dnn_cr_car_40_n04285008_8093.png,n04285008_8093.png,1.0,14.051946,9.656734,3.1078837
alexnet,1,701,NaN,oven,knife,bw,0701_cl_dnn_bw_knife_40_n03041632_131.png,n03041632_131.png,0.0,5.555338,6.3399754,-0.55482244
alexnet,1,702,NaN,car,car,bw,0702_cl_dnn_bw_car_40_n03100240_6479.png,n03100240_6479.png,1.0,15.379064,10.761389,3.2651892
alexnet,1,703,NaN,keyboard,clock,bw,0703_cl_dnn_bw_clock_40_n03196217_5365.png,n03196217_5365.png,0.0,7.4364085,10.523808,-2.1831207
alexnet,1,704,NaN,bear,bear,bw,0704_cl_dnn_bw_bear_40_n02134418_6123.png,n02134418_6123.png,1.0,8.425881,4.2587028,2.9466403
alexnet,1,705,NaN,bear,bear,cr,0705_cl_dnn_cr_bear_40_n02134418_5273.png,n02134418_5273.png,1.0,13.88616,6.7558904,5.041862
alexnet,1,706,NaN,bird,bird,cr,0706_cl_dnn_cr_bird_40_n01558993_11456.png,n01558993_11456.png,1.0,10.18061,3.462046,4.7507424
alexnet,1,707,NaN,oven,oven,cr,0707_cl_dnn_cr_oven_40_n04111531_6080.png,n04111531_6080.png,1.0,14.057707,3.405732,7.5320835
alexnet,1,708,NaN,car,knife,bw,0708_cl_dnn_bw_knife_40_n03041632_101553.png,n03041632_101553.png,0.0,4.0821934,4.2261996,-0.1018278
alexnet,1,709,NaN,oven,oven,bw,0709_cl_dnn_bw_oven_40_n04111531_10436.png,n04111531_10436.png,1.0,10.934215,8.814333,1.4989827
alexnet,1,710,NaN,clock,clock,cr,0710_cl_dnn_cr_clock_40_n02708093_3621.png,n02708093_3621.png,1.0,11.06581,4.0766377,4.9420915
alexnet,1,711,NaN,knife,knife,cr,0711_cl_dnn_cr_knife_40_n03041632_14801.png,n03041632_14801.png,1.0,8.0011635,2.7232704,3.732034
alexnet,1,712,NaN,dog,dog,cr,0712_cl_dnn_cr_dog_40_n02097130_456.png,n02097130_456.png,1.0,7.759301,5.8665576,1.3383719
alexnet,1,713,NaN,bicycle,chair,cr,0713_cl_dnn_cr_chair_40_n04429376_21081.png,n04429376_21081.png,0.0,4.183176,7.525038,-2.363053
alexnet,1,714,NaN,bicycle,bicycle,cr,0714_cl_dnn_cr_bicycle_40_n02835271_2068.png,n02835271_2068.png,1.0,8.616123,3.9461205,3.3021908
alexnet,1,715,NaN,chair,chair,cr,0715_cl_dnn_cr_chair_40_n03376595_1773.png,n03376595_1773.png,1.0,9.711612,8.374573,0.9454294
alexnet,1,716,NaN,car,car,bw,0716_cl_dnn_bw_car_40_n03100240_23849.png,n03100240_23849.png,1.0,11.053723,10.7275,0.23067476
alexnet,1,717,NaN,car,car,bw,0717_cl_dnn_bw_car_40_n04285008_4834.png,n04285008_4834.png,1.0,8.3955,5.3185067,2.175763
alexnet,1,718,NaN,knife,knife,cr,0718_cl_dnn_cr_knife_40_n03041632_18859.png,n03041632_18859.png,1.0,7.0478897,3.6945715,2.371154
alexnet,1,719,NaN,car,car,bw,0719_cl_dnn_bw_car_40_n03100240_7013.png,n03100240_7013.png,1.0,16.872435,12.443843,3.1314874
alexnet,1,720,NaN,airplane,airplane,cr,0720_cl_dnn_cr_airplane_40_n02690373_1732.png,n02690373_1732.png,1.0,16.34067,6.7207575,6.802305
alexnet,1,721,NaN,dog,dog,cr,0721_cl_dnn_cr_dog_40_n02100877_1107.png,n02100877_1107.png,1.0,8.626912,2.9299893,4.0283327
alexnet,1,722,NaN,dog,dog,bw,0722_cl_dnn_bw_dog_40_n02106662_50272.png,n02106662_50272.png,1.0,6.4277596,6.3015175,0.08926669
alexnet,1,723,NaN,boat,boat,cr,0723_cl_dnn_cr_boat_40_n03344393_3337.png,n03344393_3337.png,1.0,8.245916,4.8812056,2.3792098
alexnet,1,724,NaN,oven,oven,bw,0724_cl_dnn_bw_oven_40_n04111531_4939.png,n04111531_4939.png,1.0,11.269256,8.289512,2.1069973
alexnet,1,725,NaN,knife,knife,bw,0725_cl_dnn_bw_knife_40_n03041632_37513.png,n03041632_37513.png,1.0,15.865469,4.09271,8.324597
alexnet,1,726,NaN,chair,chair,cr,0726_cl_dnn_cr_chair_40_n04429376_7089.png,n04429376_7089.png,1.0,4.754382,2.6870892,1.4617969
alexnet,1,727,NaN,oven,knife,cr,0727_cl_dnn_cr_knife_40_n03041632_32048.png,n03041632_32048.png,0.0,3.5671415,4.200801,-0.44806483
alexnet,1,728,NaN,car,boat,cr,0728_cl_dnn_cr_boat_40_n02951358_5355.png,n02951358_5355.png,0.0,2.674225,3.4483302,-0.54737496
alexnet,1,729,NaN,bird,bird,cr,0729_cl_dnn_cr_bird_40_n01797886_3876.png,n01797886_3876.png,1.0,3.2881284,2.8139694,0.33528104
alexnet,1,730,NaN,boat,boat,bw,0730_cl_dnn_bw_boat_40_n04273569_517.png,n04273569_517.png,1.0,6.5132155,2.6939096,2.7006571
alexnet,1,731,NaN,chair,chair,cr,0731_cl_dnn_cr_chair_40_n04099969_17727.png,n04099969_17727.png,1.0,6.858886,4.901593,1.3840148
alexnet,1,732,NaN,keyboard,keyboard,cr,0732_cl_dnn_cr_keyboard_40_n03085013_6644.png,n03085013_6644.png,1.0,22.471092,8.004123,10.229692
alexnet,1,733,NaN,elephant,knife,bw,0733_cl_dnn_bw_knife_40_n03041632_32177.png,n03041632_32177.png,0.0,2.1517692,2.2553337,-0.07323116
alexnet,1,734,NaN,chair,chair,bw,0734_cl_dnn_bw_chair_40_n03376595_2420.png,n03376595_2420.png,1.0,5.561296,2.4177117,2.2228498
alexnet,1,735,NaN,clock,clock,bw,0735_cl_dnn_bw_clock_40_n02708093_1430.png,n02708093_1430.png,1.0,7.135072,3.399399,2.6415198
alexnet,1,736,NaN,knife,knife,cr,0736_cl_dnn_cr_knife_40_n03041632_90125.png,n03041632_90125.png,1.0,6.2256966,6.0274816,0.14015917
alexnet,1,737,NaN,airplane,truck,cr,0737_cl_dnn_cr_truck_40_n04467665_67327.png,n04467665_67327.png,0.0,8.72636,9.8802185,-0.815901
alexnet,1,738,NaN,dog,dog,bw,0738_cl_dnn_bw_dog_40_n02101556_8410.png,n02101556_8410.png,1.0,5.524157,3.729852,1.2687653
alexnet,1,739,NaN,boat,boat,bw,0739_cl_dnn_bw_boat_40_n03662601_6340.png,n03662601_6340.png,1.0,6.038751,4.1875033,1.3090299
alexnet,1,740,NaN,elephant,bird,cr,0740_cl_dnn_cr_bird_40_n01860187_2825.png,n01860187_2825.png,0.0,5.5559616,9.229832,-2.5978186
alexnet,1,741,NaN,keyboard,keyboard,cr,0741_cl_dnn_cr_keyboard_40_n04505470_8575.png,n04505470_8575.png,1.0,18.904339,8.889736,7.0813937
alexnet,1,742,NaN,boat,boat,bw,0742_cl_dnn_bw_boat_40_n03344393_3443.png,n03344393_3443.png,1.0,9.509058,5.0278597,3.1686857
alexnet,1,743,NaN,boat,boat,bw,0743_cl_dnn_bw_boat_40_n03344393_5066.png,n03344393_5066.png,1.0,14.59374,6.401881,5.792519
alexnet,1,744,NaN,elephant,elephant,bw,0744_cl_dnn_bw_elephant_40_n02504458_6995.png,n02504458_6995.png,1.0,9.348721,2.1743178,5.073069
alexnet,1,745,NaN,cat,cat,bw,0745_cl_dnn_bw_cat_40_n02123394_5708.png,n02123394_5708.png,1.0,4.1650577,4.0196614,0.102810666
alexnet,1,746,NaN,boat,truck,bw,0746_cl_dnn_bw_truck_40_n04467665_68331.png,n04467665_68331.png,0.0,2.8913016,5.624583,-1.9327216
alexnet,1,747,NaN,keyboard,keyboard,cr,0747_cl_dnn_cr_keyboard_40_n04505470_2740.png,n04505470_2740.png,1.0,11.3363905,6.884408,3.1480272
alexnet,1,748,NaN,oven,oven,bw,0748_cl_dnn_bw_oven_40_n04111531_12103.png,n04111531_12103.png,1.0,9.172413,3.3057284,4.1483727
alexnet,1,749,NaN,knife,boat,bw,0749_cl_dnn_bw_boat_40_n02951358_30020.png,n02951358_30020.png,0.0,1.90744,3.4682736,-1.1036761
alexnet,1,750,NaN,bottle,bottle,bw,0750_cl_dnn_bw_bottle_40_n03983396_16300.png,n03983396_16300.png,1.0,6.4585257,3.6658146,1.9747449
alexnet,1,751,NaN,chair,chair,bw,0751_cl_dnn_bw_chair_40_n02791124_3926.png,n02791124_3926.png,1.0,10.627476,7.2768846,2.3692257
alexnet,1,752,NaN,knife,knife,bw,0752_cl_dnn_bw_knife_40_n03041632_5102.png,n03041632_5102.png,1.0,5.1236773,3.9523463,0.8282561
alexnet,1,753,NaN,keyboard,keyboard,bw,0753_cl_dnn_bw_keyboard_40_n03085013_20161.png,n03085013_20161.png,1.0,15.830273,5.015221,7.6473966
alexnet,1,754,NaN,clock,bottle,bw,0754_cl_dnn_bw_bottle_40_n04591713_7959.png,n04591713_7959.png,0.0,6.0999327,6.2837434,-0.1299738
alexnet,1,755,NaN,car,car,cr,0755_cl_dnn_cr_car_40_n04285008_10901.png,n04285008_10901.png,1.0,17.208345,9.623282,5.3634496
alexnet,1,756,NaN,bear,bear,cr,0756_cl_dnn_cr_bear_40_n02134084_4490.png,n02134084_4490.png,1.0,11.37081,6.29043,3.5923707
alexnet,1,757,NaN,truck,truck,cr,0757_cl_dnn_cr_truck_40_n03417042_8046.png,n03417042_8046.png,1.0,13.378916,6.2532125,5.0386333
alexnet,1,758,NaN,bicycle,bicycle,bw,0758_cl_dnn_bw_bicycle_40_n03792782_13140.png,n03792782_13140.png,1.0,10.556559,3.822288,4.7618484
alexnet,1,759,NaN,boat,boat,bw,0759_cl_dnn_bw_boat_40_n03662601_8283.png,n03662601_8283.png,1.0,10.286297,6.1965303,2.8919017
alexnet,1,760,NaN,elephant,elephant,bw,0760_cl_dnn_bw_elephant_40_n02504458_6930.png,n02504458_6930.png,1.0,23.578758,3.3683872,14.290891
alexnet,1,761,NaN,car,car,cr,0761_cl_dnn_cr_car_40_n03100240_3286.png,n03100240_3286.png,1.0,16.400541,7.337076,6.408838
alexnet,1,762,NaN,bear,bear,bw,0762_cl_dnn_bw_bear_40_n02132136_7647.png,n02132136_7647.png,1.0,12.804707,5.95022,4.8468537
alexnet,1,763,NaN,bottle,bottle,bw,0763_cl_dnn_bw_bottle_40_n03983396_20329.png,n03983396_20329.png,1.0,6.8815274,3.524267,2.3739417
alexnet,1,764,NaN,dog,dog,cr,0764_cl_dnn_cr_dog_40_n02097209_1491.png,n02097209_1491.png,1.0,4.4543786,2.397047,1.4547532
alexnet,1,765,NaN,bicycle,bicycle,bw,0765_cl_dnn_bw_bicycle_40_n02835271_10813.png,n02835271_10813.png,1.0,13.021862,5.1721525,5.550583
alexnet,1,766,NaN,bird,bird,cr,0766_cl_dnn_cr_bird_40_n01833805_4859.png,n01833805_4859.png,1.0,9.850651,5.28677,3.2271512
alexnet,1,767,NaN,knife,knife,cr,0767_cl_dnn_cr_knife_40_n03041632_30573.png,n03041632_30573.png,1.0,10.834884,2.4373178,5.937976
alexnet,1,768,NaN,elephant,bottle,cr,0768_cl_dnn_cr_bottle_40_n04560804_15293.png,n04560804_15293.png,0.0,2.5189006,2.5839105,-0.045968894
alexnet,1,769,NaN,cat,cat,cr,0769_cl_dnn_cr_cat_40_n02123045_4089.png,n02123045_4089.png,1.0,10.23112,6.934024,2.3313992
