subj,session,trial,rt,object_response,category,condition,imagename,filename,is_correct,targ_act,max_nontarg_act,decision_margin
alexnet_w1_mlp_simclrhn_probe3,1,1,NaN,oven,oven,cr,0001_cl_dnn_cr_oven_40_n04111531_14126.png,n04111531_14126.png,1.0,5.199922,3.5477133,1.1682881
alexnet_w1_mlp_simclrhn_probe3,1,2,NaN,bear,bear,cr,0002_cl_dnn_cr_bear_40_n02134084_5274.png,n02134084_5274.png,1.0,8.216934,6.3618383,1.3117509
alexnet_w1_mlp_simclrhn_probe3,1,3,NaN,elephant,cat,cr,0003_cl_dnn_cr_cat_40_n02123394_133.png,n02123394_133.png,0.0,1.7200972,1.9045224,-0.13040833
alexnet_w1_mlp_simclrhn_probe3,1,4,NaN,car,car,cr,0004_cl_dnn_cr_car_40_n02814533_51190.png,n02814533_51190.png,1.0,12.114238,6.1239643,4.235763
alexnet_w1_mlp_simclrhn_probe3,1,5,NaN,chair,chair,bw,0005_cl_dnn_bw_chair_40_n04099969_14986.png,n04099969_14986.png,1.0,4.2272496,2.3453393,1.3307116
alexnet_w1_mlp_simclrhn_probe3,1,6,NaN,elephant,elephant,cr,0006_cl_dnn_cr_elephant_40_n02504013_6731.png,n02504013_6731.png,1.0,4.294915,2.7950296,1.0605793
alexnet_w1_mlp_simclrhn_probe3,1,7,NaN,bottle,bottle,cr,0007_cl_dnn_cr_bottle_40_n02823428_987.png,n02823428_987.png,1.0,13.866416,8.598956,3.7246566
alexnet_w1_mlp_simclrhn_probe3,1,8,NaN,oven,truck,cr,0008_cl_dnn_cr_truck_40_n03417042_7458.png,n03417042_7458.png,0.0,4.053579,4.556121,-0.35535088
alexnet_w1_mlp_simclrhn_probe3,1,9,NaN,chair,chair,bw,0009_cl_dnn_bw_chair_40_n04099969_4577.png,n04099969_4577.png,1.0,3.41674,2.2970726,0.7917243
alexnet_w1_mlp_simclrhn_probe3,1,10,NaN,bicycle,knife,cr,0010_cl_dnn_cr_knife_40_n03041632_83472.png,n03041632_83472.png,0.0,0.22143735,0.9559511,-0.5193797
alexnet_w1_mlp_simclrhn_probe3,1,11,NaN,elephant,elephant,bw,0011_cl_dnn_bw_elephant_40_n02504458_3485.png,n02504458_3485.png,1.0,13.172088,4.2416425,6.3147783
alexnet_w1_mlp_simclrhn_probe3,1,12,NaN,elephant,bear,bw,0012_cl_dnn_bw_bear_40_n02133161_1066.png,n02133161_1066.png,0.0,2.2092373,2.7805097,-0.40395057
alexnet_w1_mlp_simclrhn_probe3,1,13,NaN,elephant,elephant,bw,0013_cl_dnn_bw_elephant_40_n02504013_1060.png,n02504013_1060.png,1.0,3.6791751,1.8759725,1.2750568
alexnet_w1_mlp_simclrhn_probe3,1,14,NaN,elephant,bear,bw,0014_cl_dnn_bw_bear_40_n02134084_1009.png,n02134084_1009.png,0.0,1.5899905,2.3928173,-0.56768423
alexnet_w1_mlp_simclrhn_probe3,1,15,NaN,cat,cat,cr,0015_cl_dnn_cr_cat_40_n02125311_13383.png,n02125311_13383.png,1.0,6.954556,3.1407547,2.6967647
alexnet_w1_mlp_simclrhn_probe3,1,16,NaN,elephant,elephant,bw,0016_cl_dnn_bw_elephant_40_n02504013_257.png,n02504013_257.png,1.0,13.670692,4.6649036,6.3680544
alexnet_w1_mlp_simclrhn_probe3,1,17,NaN,cat,cat,bw,0017_cl_dnn_bw_cat_40_n02123045_6445.png,n02123045_6445.png,1.0,2.7581213,1.6720409,0.7679748
alexnet_w1_mlp_simclrhn_probe3,1,18,NaN,airplane,airplane,bw,0018_cl_dnn_bw_airplane_40_n02690373_3493.png,n02690373_3493.png,1.0,8.878029,2.8489785,4.2631826
alexnet_w1_mlp_simclrhn_probe3,1,19,NaN,airplane,airplane,bw,0019_cl_dnn_bw_airplane_40_n02690373_5184.png,n02690373_5184.png,1.0,4.7342005,1.9781616,1.9488138
alexnet_w1_mlp_simclrhn_probe3,1,20,NaN,car,truck,bw,0020_cl_dnn_bw_truck_40_n04467665_22637.png,n04467665_22637.png,0.0,1.7272387,2.5226727,-0.5624568
alexnet_w1_mlp_simclrhn_probe3,1,21,NaN,cat,cat,cr,0021_cl_dnn_cr_cat_40_n02123159_10952.png,n02123159_10952.png,1.0,4.7775607,1.6541369,2.208594
alexnet_w1_mlp_simclrhn_probe3,1,22,NaN,airplane,airplane,bw,0022_cl_dnn_bw_airplane_40_n02690373_3620.png,n02690373_3620.png,1.0,8.201241,3.8666809,3.0649965
alexnet_w1_mlp_simclrhn_probe3,1,23,NaN,oven,bottle,cr,0023_cl_dnn_cr_bottle_40_n04557648_10744.png,n04557648_10744.png,0.0,1.2958087,1.6099367,-0.22212207
alexnet_w1_mlp_simclrhn_probe3,1,24,NaN,oven,oven,bw,0024_cl_dnn_bw_oven_40_n04111531_12702.png,n04111531_12702.png,1.0,8.254007,2.0790904,4.366326
alexnet_w1_mlp_simclrhn_probe3,1,25,NaN,truck,bear,cr,0025_cl_dnn_cr_bear_40_n02133161_9949.png,n02133161_9949.png,0.0,1.0056114,2.1887445,-0.8366015
alexnet_w1_mlp_simclrhn_probe3,1,26,NaN,oven,keyboard,cr,0026_cl_dnn_cr_keyboard_40_n03085013_3489.png,n03085013_3489.png,0.0,1.7673286,3.3458066,-1.1161525
alexnet_w1_mlp_simclrhn_probe3,1,27,NaN,elephant,elephant,bw,0027_cl_dnn_bw_elephant_40_n02504458_4633.png,n02504458_4633.png,1.0,3.0562015,0.6700266,1.6872805
alexnet_w1_mlp_simclrhn_probe3,1,28,NaN,clock,clock,cr,0028_cl_dnn_cr_clock_40_n04548280_7816.png,n04548280_7816.png,1.0,1.3715738,0.7874135,0.41306373
alexnet_w1_mlp_simclrhn_probe3,1,29,NaN,dog,dog,bw,0029_cl_dnn_bw_dog_40_n02097474_1859.png,n02097474_1859.png,1.0,2.5650923,0.36715686,1.5541751
alexnet_w1_mlp_simclrhn_probe3,1,30,NaN,cat,cat,bw,0030_cl_dnn_bw_cat_40_n02123394_916.png,n02123394_916.png,1.0,3.4901254,1.5465779,1.3742956
alexnet_w1_mlp_simclrhn_probe3,1,31,NaN,elephant,elephant,cr,0031_cl_dnn_cr_elephant_40_n02504458_3525.png,n02504458_3525.png,1.0,6.6346235,1.7734317,3.4373817
alexnet_w1_mlp_simclrhn_probe3,1,32,NaN,bear,bear,bw,0032_cl_dnn_bw_bear_40_n02134418_4456.png,n02134418_4456.png,1.0,5.8023663,3.177814,1.8558388
alexnet_w1_mlp_simclrhn_probe3,1,33,NaN,keyboard,keyboard,bw,0033_cl_dnn_bw_keyboard_40_n03085013_24045.png,n03085013_24045.png,1.0,4.3240004,1.6404994,1.8975217
alexnet_w1_mlp_simclrhn_probe3,1,34,NaN,oven,knife,bw,0034_cl_dnn_bw_knife_40_n03041632_49363.png,n03041632_49363.png,0.0,1.4697692,1.5475507,-0.054999784
alexnet_w1_mlp_simclrhn_probe3,1,35,NaN,cat,cat,bw,0035_cl_dnn_bw_cat_40_n02123159_7854.png,n02123159_7854.png,1.0,3.6539147,1.6275023,1.43289
alexnet_w1_mlp_simclrhn_probe3,1,36,NaN,oven,knife,cr,0036_cl_dnn_cr_knife_40_n03041632_4708.png,n03041632_4708.png,0.0,0.28681725,4.0192156,-2.6392043
alexnet_w1_mlp_simclrhn_probe3,1,37,NaN,oven,chair,cr,0037_cl_dnn_cr_chair_40_n04429376_7788.png,n04429376_7788.png,0.0,2.664557,4.0603538,-0.9869774
alexnet_w1_mlp_simclrhn_probe3,1,38,NaN,car,car,cr,0038_cl_dnn_cr_car_40_n03100240_9086.png,n03100240_9086.png,1.0,8.040084,7.9520044,0.06228158
alexnet_w1_mlp_simclrhn_probe3,1,39,NaN,knife,chair,cr,0039_cl_dnn_cr_chair_40_n03376595_3038.png,n03376595_3038.png,0.0,1.1376135,1.2123759,-0.05286496
alexnet_w1_mlp_simclrhn_probe3,1,40,NaN,airplane,truck,bw,0040_cl_dnn_bw_truck_40_n03796401_1758.png,n03796401_1758.png,0.0,2.2792692,2.4116,-0.09357207
alexnet_w1_mlp_simclrhn_probe3,1,41,NaN,boat,boat,cr,0041_cl_dnn_cr_boat_40_n04273569_4324.png,n04273569_4324.png,1.0,8.914362,2.630035,4.4436903
alexnet_w1_mlp_simclrhn_probe3,1,42,NaN,bear,bear,cr,0042_cl_dnn_cr_bear_40_n02134084_1090.png,n02134084_1090.png,1.0,4.205265,3.578767,0.44300097
alexnet_w1_mlp_simclrhn_probe3,1,43,NaN,bicycle,bicycle,bw,0043_cl_dnn_bw_bicycle_40_n03792782_13665.png,n03792782_13665.png,1.0,1.9220668,0.29805017,1.1483532
alexnet_w1_mlp_simclrhn_probe3,1,44,NaN,knife,knife,bw,0044_cl_dnn_bw_knife_40_n03041632_36215.png,n03041632_36215.png,1.0,3.0933988,2.2216482,0.61642075
alexnet_w1_mlp_simclrhn_probe3,1,45,NaN,car,car,bw,0045_cl_dnn_bw_car_40_n04285008_7770.png,n04285008_7770.png,1.0,13.634609,8.367331,3.7245286
alexnet_w1_mlp_simclrhn_probe3,1,46,NaN,bottle,bottle,cr,0046_cl_dnn_cr_bottle_40_n03983396_15260.png,n03983396_15260.png,1.0,7.248619,3.8505135,2.4028237
alexnet_w1_mlp_simclrhn_probe3,1,47,NaN,bear,dog,cr,0047_cl_dnn_cr_dog_40_n02091635_6519.png,n02091635_6519.png,0.0,1.2040647,2.5724716,-0.9676098
alexnet_w1_mlp_simclrhn_probe3,1,48,NaN,elephant,elephant,cr,0048_cl_dnn_cr_elephant_40_n02504013_3485.png,n02504013_3485.png,1.0,14.745069,6.0585794,6.1422753
alexnet_w1_mlp_simclrhn_probe3,1,49,NaN,oven,oven,cr,0049_cl_dnn_cr_oven_40_n04111531_807.png,n04111531_807.png,1.0,4.283743,1.6048095,1.894292
alexnet_w1_mlp_simclrhn_probe3,1,50,NaN,oven,oven,cr,0050_cl_dnn_cr_oven_40_n04111531_605.png,n04111531_605.png,1.0,4.740709,1.563402,2.246695
alexnet_w1_mlp_simclrhn_probe3,1,51,NaN,elephant,dog,bw,0051_cl_dnn_bw_dog_40_n02109047_2662.png,n02109047_2662.png,0.0,1.414467,4.5527744,-2.2191186
alexnet_w1_mlp_simclrhn_probe3,1,52,NaN,truck,truck,cr,0052_cl_dnn_cr_truck_40_n03417042_16038.png,n03417042_16038.png,1.0,4.6424894,0.31240824,3.0618296
alexnet_w1_mlp_simclrhn_probe3,1,53,NaN,truck,truck,bw,0053_cl_dnn_bw_truck_40_n03796401_1710.png,n03796401_1710.png,1.0,5.6429553,0.60615844,3.5615535
alexnet_w1_mlp_simclrhn_probe3,1,54,NaN,cat,cat,cr,0054_cl_dnn_cr_cat_40_n02125311_20921.png,n02125311_20921.png,1.0,4.492409,2.5228689,1.3926754
alexnet_w1_mlp_simclrhn_probe3,1,55,NaN,oven,bear,cr,0055_cl_dnn_cr_bear_40_n02133161_575.png,n02133161_575.png,0.0,1.3259969,1.3963468,-0.049744915
alexnet_w1_mlp_simclrhn_probe3,1,56,NaN,chair,chair,bw,0056_cl_dnn_bw_chair_40_n04429376_21865.png,n04429376_21865.png,1.0,1.3456635,0.9185139,0.30204043
alexnet_w1_mlp_simclrhn_probe3,1,57,NaN,bird,bird,bw,0057_cl_dnn_bw_bird_40_n01616318_26436.png,n01616318_26436.png,1.0,1.3730425,0.6953859,0.47917557
alexnet_w1_mlp_simclrhn_probe3,1,58,NaN,keyboard,oven,cr,0058_cl_dnn_cr_oven_40_n04111531_9498.png,n04111531_9498.png,0.0,2.8249767,3.4794292,-0.46276784
alexnet_w1_mlp_simclrhn_probe3,1,59,NaN,bear,bear,bw,0059_cl_dnn_bw_bear_40_n02134418_397.png,n02134418_397.png,1.0,7.181427,5.524063,1.1719333
alexnet_w1_mlp_simclrhn_probe3,1,60,NaN,chair,chair,cr,0060_cl_dnn_cr_chair_40_n04099969_23961.png,n04099969_23961.png,1.0,4.3552504,2.700724,1.1699269
alexnet_w1_mlp_simclrhn_probe3,1,61,NaN,bird,dog,bw,0061_cl_dnn_bw_dog_40_n02093256_7181.png,n02093256_7181.png,0.0,-0.30282235,1.6772426,-1.4001174
alexnet_w1_mlp_simclrhn_probe3,1,62,NaN,bicycle,bicycle,cr,0062_cl_dnn_cr_bicycle_40_n02835271_26731.png,n02835271_26731.png,1.0,9.08022,3.2216058,4.142666
alexnet_w1_mlp_simclrhn_probe3,1,63,NaN,cat,cat,cr,0063_cl_dnn_cr_cat_40_n02125311_12557.png,n02125311_12557.png,1.0,2.395006,0.8754699,1.0744742
alexnet_w1_mlp_simclrhn_probe3,1,64,NaN,dog,dog,cr,0064_cl_dnn_cr_dog_40_n02093647_2890.png,n02093647_2890.png,1.0,2.3644407,1.5335319,0.5875412
alexnet_w1_mlp_simclrhn_probe3,1,65,NaN,keyboard,knife,cr,0065_cl_dnn_cr_knife_40_n03041632_14293.png,n03041632_14293.png,0.0,0.7438016,2.5401025,-1.2701765
alexnet_w1_mlp_simclrhn_probe3,1,66,NaN,oven,oven,bw,0066_cl_dnn_bw_oven_40_n04111531_20359.png,n04111531_20359.png,1.0,5.106088,1.2606393,2.7191432
alexnet_w1_mlp_simclrhn_probe3,1,67,NaN,truck,truck,bw,0067_cl_dnn_bw_truck_40_n04467665_12177.png,n04467665_12177.png,1.0,9.348946,3.064787,4.443571
alexnet_w1_mlp_simclrhn_probe3,1,68,NaN,bicycle,bicycle,cr,0068_cl_dnn_cr_bicycle_40_n02835271_19400.png,n02835271_19400.png,1.0,4.052211,1.5126262,1.7957575
alexnet_w1_mlp_simclrhn_probe3,1,69,NaN,airplane,truck,cr,0069_cl_dnn_cr_truck_40_n03417042_1263.png,n03417042_1263.png,0.0,5.5495496,6.315762,-0.54179406
alexnet_w1_mlp_simclrhn_probe3,1,70,NaN,cat,cat,bw,0070_cl_dnn_bw_cat_40_n02123045_8336.png,n02123045_8336.png,1.0,4.997279,1.1656549,2.7093675
alexnet_w1_mlp_simclrhn_probe3,1,71,NaN,bear,bear,bw,0071_cl_dnn_bw_bear_40_n02134418_5405.png,n02134418_5405.png,1.0,5.432551,3.1057067,1.6453273
alexnet_w1_mlp_simclrhn_probe3,1,72,NaN,car,car,bw,0072_cl_dnn_bw_car_40_n04285008_2906.png,n04285008_2906.png,1.0,7.601938,4.152826,2.4388905
alexnet_w1_mlp_simclrhn_probe3,1,73,NaN,elephant,bird,cr,0073_cl_dnn_cr_bird_40_n01818515_10517.png,n01818515_10517.png,0.0,2.868025,3.8940482,-0.7255079
alexnet_w1_mlp_simclrhn_probe3,1,74,NaN,airplane,truck,cr,0074_cl_dnn_cr_truck_40_n03796401_14203.png,n03796401_14203.png,0.0,2.5053082,3.503593,-0.705894
alexnet_w1_mlp_simclrhn_probe3,1,75,NaN,bird,bird,bw,0075_cl_dnn_bw_bird_40_n02009229_2503.png,n02009229_2503.png,1.0,3.7514243,0.71106595,2.149858
alexnet_w1_mlp_simclrhn_probe3,1,76,NaN,bottle,bottle,bw,0076_cl_dnn_bw_bottle_40_n02823428_6767.png,n02823428_6767.png,1.0,9.094831,1.3727773,5.4603167
alexnet_w1_mlp_simclrhn_probe3,1,77,NaN,bicycle,bicycle,bw,0077_cl_dnn_bw_bicycle_40_n02835271_12847.png,n02835271_12847.png,1.0,9.704558,1.6797947,5.674365
alexnet_w1_mlp_simclrhn_probe3,1,78,NaN,bicycle,bicycle,cr,0078_cl_dnn_cr_bicycle_40_n02835271_24104.png,n02835271_24104.png,1.0,17.940838,2.6478972,10.813742
alexnet_w1_mlp_simclrhn_probe3,1,79,NaN,clock,clock,cr,0079_cl_dnn_cr_clock_40_n04548280_77.png,n04548280_77.png,1.0,2.9762049,1.0022203,1.3958179
alexnet_w1_mlp_simclrhn_probe3,1,80,NaN,cat,cat,bw,0080_cl_dnn_bw_cat_40_n02123394_6698.png,n02123394_6698.png,1.0,5.091504,0.7793038,3.0491862
alexnet_w1_mlp_simclrhn_probe3,1,81,NaN,keyboard,keyboard,cr,0081_cl_dnn_cr_keyboard_40_n04505470_4356.png,n04505470_4356.png,1.0,14.500862,2.719992,8.330334
alexnet_w1_mlp_simclrhn_probe3,1,82,NaN,chair,chair,cr,0082_cl_dnn_cr_chair_40_n04429376_16325.png,n04429376_16325.png,1.0,3.196955,2.651781,0.38549617
alexnet_w1_mlp_simclrhn_probe3,1,83,NaN,elephant,elephant,bw,0083_cl_dnn_bw_elephant_40_n02504458_6721.png,n02504458_6721.png,1.0,2.8547595,1.5481395,0.92391986
alexnet_w1_mlp_simclrhn_probe3,1,84,NaN,truck,truck,cr,0084_cl_dnn_cr_truck_40_n03417042_6213.png,n03417042_6213.png,1.0,13.223175,2.9313722,7.2774043
alexnet_w1_mlp_simclrhn_probe3,1,85,NaN,cat,dog,bw,0085_cl_dnn_bw_dog_40_n02097130_8277.png,n02097130_8277.png,0.0,1.9948249,2.2670321,-0.1924796
alexnet_w1_mlp_simclrhn_probe3,1,86,NaN,knife,bottle,cr,0086_cl_dnn_cr_bottle_40_n04557648_1856.png,n04557648_1856.png,0.0,0.37469,1.7537864,-0.9751685
alexnet_w1_mlp_simclrhn_probe3,1,87,NaN,bird,bird,bw,0087_cl_dnn_bw_bird_40_n01531178_10905.png,n01531178_10905.png,1.0,2.9851243,0.87615633,1.4912657
alexnet_w1_mlp_simclrhn_probe3,1,88,NaN,bear,bear,cr,0088_cl_dnn_cr_bear_40_n02133161_2202.png,n02133161_2202.png,1.0,3.242556,1.7249454,1.0731128
alexnet_w1_mlp_simclrhn_probe3,1,89,NaN,elephant,elephant,cr,0089_cl_dnn_cr_elephant_40_n02504458_10439.png,n02504458_10439.png,1.0,3.8797688,0.6031492,2.31692
alexnet_w1_mlp_simclrhn_probe3,1,90,NaN,knife,clock,cr,0090_cl_dnn_cr_clock_40_n02708093_6766.png,n02708093_6766.png,0.0,1.5242783,2.150302,-0.44266558
alexnet_w1_mlp_simclrhn_probe3,1,91,NaN,oven,bottle,bw,0091_cl_dnn_bw_bottle_40_n03983396_2057.png,n03983396_2057.png,0.0,1.7112275,3.2556684,-1.0920846
alexnet_w1_mlp_simclrhn_probe3,1,92,NaN,keyboard,knife,bw,0092_cl_dnn_bw_knife_40_n03041632_10000.png,n03041632_10000.png,0.0,2.36467,5.273801,-2.0570662
alexnet_w1_mlp_simclrhn_probe3,1,93,NaN,cat,cat,cr,0093_cl_dnn_cr_cat_40_n02125311_2959.png,n02125311_2959.png,1.0,5.48498,1.8104986,2.5982509
alexnet_w1_mlp_simclrhn_probe3,1,94,NaN,car,car,bw,0094_cl_dnn_bw_car_40_n04285008_13759.png,n04285008_13759.png,1.0,12.857955,5.107598,5.48033
alexnet_w1_mlp_simclrhn_probe3,1,95,NaN,keyboard,bottle,cr,0095_cl_dnn_cr_bottle_40_n03937543_396.png,n03937543_396.png,0.0,0.6772275,2.0105274,-0.9427854
alexnet_w1_mlp_simclrhn_probe3,1,96,NaN,boat,boat,bw,0096_cl_dnn_bw_boat_40_n03662601_3984.png,n03662601_3984.png,1.0,4.9816065,3.1778333,1.2754602
alexnet_w1_mlp_simclrhn_probe3,1,97,NaN,truck,truck,bw,0097_cl_dnn_bw_truck_40_n04467665_2230.png,n04467665_2230.png,1.0,3.7454615,3.353119,0.2774281
alexnet_w1_mlp_simclrhn_probe3,1,98,NaN,boat,boat,cr,0098_cl_dnn_cr_boat_40_n03662601_28640.png,n03662601_28640.png,1.0,8.556532,2.3607736,4.381063
alexnet_w1_mlp_simclrhn_probe3,1,99,NaN,cat,cat,cr,0099_cl_dnn_cr_cat_40_n02124075_11039.png,n02124075_11039.png,1.0,3.5017214,0.8953395,1.8429904
alexnet_w1_mlp_simclrhn_probe3,1,100,NaN,clock,knife,bw,0100_cl_dnn_bw_knife_40_n03041632_7380.png,n03041632_7380.png,0.0,1.3228253,3.380022,-1.4546577
alexnet_w1_mlp_simclrhn_probe3,1,101,NaN,cat,cat,cr,0101_cl_dnn_cr_cat_40_n02123045_6607.png,n02123045_6607.png,1.0,15.98784,0.5676972,10.9036875
alexnet_w1_mlp_simclrhn_probe3,1,102,NaN,chair,chair,cr,0102_cl_dnn_cr_chair_40_n03376595_6704.png,n03376595_6704.png,1.0,1.9610198,1.7390283,0.15697165
alexnet_w1_mlp_simclrhn_probe3,1,103,NaN,bear,bear,bw,0103_cl_dnn_bw_bear_40_n02133161_12187.png,n02133161_12187.png,1.0,7.42663,3.7196412,2.621237
alexnet_w1_mlp_simclrhn_probe3,1,104,NaN,cat,dog,cr,0104_cl_dnn_cr_dog_40_n02110958_2363.png,n02110958_2363.png,0.0,2.0401802,3.4335413,-0.9852551
alexnet_w1_mlp_simclrhn_probe3,1,105,NaN,airplane,airplane,cr,0105_cl_dnn_cr_airplane_40_n02690373_19438.png,n02690373_19438.png,1.0,7.2835903,1.2768631,4.2473974
alexnet_w1_mlp_simclrhn_probe3,1,106,NaN,bird,bird,cr,0106_cl_dnn_cr_bird_40_n01855032_5511.png,n01855032_5511.png,1.0,2.4967716,1.3376929,0.8195924
alexnet_w1_mlp_simclrhn_probe3,1,107,NaN,boat,boat,bw,0107_cl_dnn_bw_boat_40_n04273569_9821.png,n04273569_9821.png,1.0,8.137509,1.0975859,4.9779778
alexnet_w1_mlp_simclrhn_probe3,1,108,NaN,oven,bear,bw,0108_cl_dnn_bw_bear_40_n02133161_13461.png,n02133161_13461.png,0.0,-0.115574285,0.7646755,-0.6224306
alexnet_w1_mlp_simclrhn_probe3,1,109,NaN,knife,dog,cr,0109_cl_dnn_cr_dog_40_n02113023_8552.png,n02113023_8552.png,0.0,-0.04275737,0.927158,-0.68583375
alexnet_w1_mlp_simclrhn_probe3,1,110,NaN,elephant,elephant,cr,0110_cl_dnn_cr_elephant_40_n02504458_1600.png,n02504458_1600.png,1.0,13.4292,3.0057023,7.3705263
alexnet_w1_mlp_simclrhn_probe3,1,111,NaN,chair,chair,cr,0111_cl_dnn_cr_chair_40_n04099969_4205.png,n04099969_4205.png,1.0,4.856491,3.36031,1.0579598
alexnet_w1_mlp_simclrhn_probe3,1,112,NaN,dog,dog,bw,0112_cl_dnn_bw_dog_40_n02105505_2121.png,n02105505_2121.png,1.0,3.757959,0.30824143,2.4393187
alexnet_w1_mlp_simclrhn_probe3,1,113,NaN,chair,chair,cr,0113_cl_dnn_cr_chair_40_n02791124_4528.png,n02791124_4528.png,1.0,4.001845,2.7351089,0.8957177
alexnet_w1_mlp_simclrhn_probe3,1,114,NaN,truck,truck,bw,0114_cl_dnn_bw_truck_40_n03417042_5659.png,n03417042_5659.png,1.0,3.6479287,2.583562,0.752621
alexnet_w1_mlp_simclrhn_probe3,1,115,NaN,elephant,elephant,cr,0115_cl_dnn_cr_elephant_40_n02504013_10330.png,n02504013_10330.png,1.0,19.393202,5.022585,10.161561
alexnet_w1_mlp_simclrhn_probe3,1,116,NaN,cat,cat,cr,0116_cl_dnn_cr_cat_40_n02123394_1594.png,n02123394_1594.png,1.0,2.8862095,0.62520987,1.5987682
alexnet_w1_mlp_simclrhn_probe3,1,117,NaN,boat,bear,bw,0117_cl_dnn_bw_bear_40_n02132136_10654.png,n02132136_10654.png,0.0,1.1132889,1.7357063,-0.4401156
alexnet_w1_mlp_simclrhn_probe3,1,118,NaN,bottle,bottle,bw,0118_cl_dnn_bw_bottle_40_n02823428_5265.png,n02823428_5265.png,1.0,5.308255,2.2846322,2.1380243
alexnet_w1_mlp_simclrhn_probe3,1,119,NaN,airplane,truck,cr,0119_cl_dnn_cr_truck_40_n04467665_3125.png,n04467665_3125.png,0.0,0.4049146,1.9550418,-1.0961055
alexnet_w1_mlp_simclrhn_probe3,1,120,NaN,airplane,airplane,cr,0120_cl_dnn_cr_airplane_40_n02690373_60.png,n02690373_60.png,1.0,7.845462,2.9427834,3.4667172
alexnet_w1_mlp_simclrhn_probe3,1,121,NaN,keyboard,keyboard,cr,0121_cl_dnn_cr_keyboard_40_n03085013_21645.png,n03085013_21645.png,1.0,3.8294277,2.396799,1.0130215
alexnet_w1_mlp_simclrhn_probe3,1,122,NaN,bicycle,car,bw,0122_cl_dnn_bw_car_40_n03100240_9471.png,n03100240_9471.png,0.0,2.1017776,2.6053038,-0.3560468
alexnet_w1_mlp_simclrhn_probe3,1,123,NaN,boat,boat,cr,0123_cl_dnn_cr_boat_40_n03344393_9818.png,n03344393_9818.png,1.0,7.0501404,3.331247,2.6296546
alexnet_w1_mlp_simclrhn_probe3,1,124,NaN,elephant,elephant,bw,0124_cl_dnn_bw_elephant_40_n02504458_5444.png,n02504458_5444.png,1.0,7.017646,2.3886106,3.2732222
alexnet_w1_mlp_simclrhn_probe3,1,125,NaN,bottle,bottle,bw,0125_cl_dnn_bw_bottle_40_n04557648_26823.png,n04557648_26823.png,1.0,6.556958,0.95049316,3.9643693
alexnet_w1_mlp_simclrhn_probe3,1,126,NaN,elephant,bottle,cr,0126_cl_dnn_cr_bottle_40_n02823428_765.png,n02823428_765.png,0.0,0.19054626,0.906726,-0.50641555
alexnet_w1_mlp_simclrhn_probe3,1,127,NaN,cat,cat,bw,0127_cl_dnn_bw_cat_40_n02123045_1787.png,n02123045_1787.png,1.0,10.798171,0.7820584,7.082461
alexnet_w1_mlp_simclrhn_probe3,1,128,NaN,car,car,bw,0128_cl_dnn_bw_car_40_n02814533_35863.png,n02814533_35863.png,1.0,10.86789,7.963846,2.0534694
alexnet_w1_mlp_simclrhn_probe3,1,129,NaN,boat,boat,bw,0129_cl_dnn_bw_boat_40_n02951358_7944.png,n02951358_7944.png,1.0,1.5189688,1.1394501,0.2683603
alexnet_w1_mlp_simclrhn_probe3,1,130,NaN,dog,dog,bw,0130_cl_dnn_bw_dog_40_n02091467_3727.png,n02091467_3727.png,1.0,1.9077553,1.3879194,0.36757946
alexnet_w1_mlp_simclrhn_probe3,1,131,NaN,bicycle,bicycle,cr,0131_cl_dnn_cr_bicycle_40_n02835271_5886.png,n02835271_5886.png,1.0,2.4422796,0.20703213,1.5805587
alexnet_w1_mlp_simclrhn_probe3,1,132,NaN,truck,truck,bw,0132_cl_dnn_bw_truck_40_n04467665_18234.png,n04467665_18234.png,1.0,8.558388,3.3403666,3.6896985
alexnet_w1_mlp_simclrhn_probe3,1,133,NaN,elephant,elephant,cr,0133_cl_dnn_cr_elephant_40_n02504013_4892.png,n02504013_4892.png,1.0,16.585247,6.5250044,7.113666
alexnet_w1_mlp_simclrhn_probe3,1,134,NaN,keyboard,keyboard,cr,0134_cl_dnn_cr_keyboard_40_n03085013_19618.png,n03085013_19618.png,1.0,8.422479,2.6853805,4.056741
alexnet_w1_mlp_simclrhn_probe3,1,135,NaN,clock,clock,cr,0135_cl_dnn_cr_clock_40_n03196217_3430.png,n03196217_3430.png,1.0,3.0152092,2.341559,0.47634268
alexnet_w1_mlp_simclrhn_probe3,1,136,NaN,bicycle,bicycle,bw,0136_cl_dnn_bw_bicycle_40_n03792782_24591.png,n03792782_24591.png,1.0,12.681786,3.581754,6.4346943
alexnet_w1_mlp_simclrhn_probe3,1,137,NaN,bicycle,bird,cr,0137_cl_dnn_cr_bird_40_n02007558_2822.png,n02007558_2822.png,0.0,0.6540351,2.9184346,-1.6011723
alexnet_w1_mlp_simclrhn_probe3,1,138,NaN,truck,truck,bw,0138_cl_dnn_bw_truck_40_n04467665_71126.png,n04467665_71126.png,1.0,12.656596,4.8891315,5.492427
alexnet_w1_mlp_simclrhn_probe3,1,139,NaN,bicycle,bicycle,cr,0139_cl_dnn_cr_bicycle_40_n02835271_22263.png,n02835271_22263.png,1.0,15.141603,4.437665,7.5688276
alexnet_w1_mlp_simclrhn_probe3,1,140,NaN,truck,car,bw,0140_cl_dnn_bw_car_40_n04285008_5548.png,n04285008_5548.png,0.0,6.470104,7.9731565,-1.0628184
alexnet_w1_mlp_simclrhn_probe3,1,141,NaN,oven,oven,bw,0141_cl_dnn_bw_oven_40_n04111531_13006.png,n04111531_13006.png,1.0,3.4902353,2.5673876,0.6525519
alexnet_w1_mlp_simclrhn_probe3,1,142,NaN,car,car,bw,0142_cl_dnn_bw_car_40_n04285008_11410.png,n04285008_11410.png,1.0,6.3012013,1.805597,3.1788726
alexnet_w1_mlp_simclrhn_probe3,1,143,NaN,oven,chair,bw,0143_cl_dnn_bw_chair_40_n04429376_2304.png,n04429376_2304.png,0.0,1.3970857,5.755406,-3.0817978
alexnet_w1_mlp_simclrhn_probe3,1,144,NaN,boat,boat,cr,0144_cl_dnn_cr_boat_40_n03662601_27165.png,n03662601_27165.png,1.0,9.220606,5.7450523,2.4575875
alexnet_w1_mlp_simclrhn_probe3,1,145,NaN,truck,truck,bw,0145_cl_dnn_bw_truck_40_n04467665_70308.png,n04467665_70308.png,1.0,3.6512773,1.2906346,1.6692265
alexnet_w1_mlp_simclrhn_probe3,1,146,NaN,bicycle,bicycle,cr,0146_cl_dnn_cr_bicycle_40_n03792782_51414.png,n03792782_51414.png,1.0,4.6733627,1.6635104,2.128287
alexnet_w1_mlp_simclrhn_probe3,1,147,NaN,knife,knife,cr,0147_cl_dnn_cr_knife_40_n03041632_44738.png,n03041632_44738.png,1.0,1.9610872,0.59720474,0.9644106
alexnet_w1_mlp_simclrhn_probe3,1,148,NaN,elephant,elephant,bw,0148_cl_dnn_bw_elephant_40_n02504458_11363.png,n02504458_11363.png,1.0,5.5591717,1.5433556,2.8396108
alexnet_w1_mlp_simclrhn_probe3,1,149,NaN,truck,truck,cr,0149_cl_dnn_cr_truck_40_n04467665_4899.png,n04467665_4899.png,1.0,7.627532,4.145957,2.4618454
alexnet_w1_mlp_simclrhn_probe3,1,150,NaN,cat,bear,cr,0150_cl_dnn_cr_bear_40_n02134418_685.png,n02134418_685.png,0.0,1.759675,1.802188,-0.03006124
alexnet_w1_mlp_simclrhn_probe3,1,151,NaN,keyboard,keyboard,bw,0151_cl_dnn_bw_keyboard_40_n04505470_4363.png,n04505470_4363.png,1.0,6.288604,1.9217445,3.087836
alexnet_w1_mlp_simclrhn_probe3,1,152,NaN,oven,oven,bw,0152_cl_dnn_bw_oven_40_n04111531_12468.png,n04111531_12468.png,1.0,7.5300226,2.2918434,3.703952
alexnet_w1_mlp_simclrhn_probe3,1,153,NaN,oven,bottle,cr,0153_cl_dnn_cr_bottle_40_n04591713_5559.png,n04591713_5559.png,0.0,0.7869641,1.4525108,-0.47061262
alexnet_w1_mlp_simclrhn_probe3,1,154,NaN,elephant,elephant,cr,0154_cl_dnn_cr_elephant_40_n02504013_3197.png,n02504013_3197.png,1.0,3.7867007,1.6749532,1.493231
alexnet_w1_mlp_simclrhn_probe3,1,155,NaN,cat,bird,bw,0155_cl_dnn_bw_bird_40_n01817953_5039.png,n01817953_5039.png,0.0,1.4610976,2.410995,-0.6716789
alexnet_w1_mlp_simclrhn_probe3,1,156,NaN,bicycle,bicycle,cr,0156_cl_dnn_cr_bicycle_40_n03792782_3296.png,n03792782_3296.png,1.0,12.365461,1.9742137,7.347722
alexnet_w1_mlp_simclrhn_probe3,1,157,NaN,oven,bird,cr,0157_cl_dnn_cr_bird_40_n01855672_5670.png,n01855672_5670.png,0.0,0.18943855,1.824913,-1.156455
alexnet_w1_mlp_simclrhn_probe3,1,158,NaN,oven,oven,cr,0158_cl_dnn_cr_oven_40_n04111531_2260.png,n04111531_2260.png,1.0,10.677833,3.2515717,5.2511597
alexnet_w1_mlp_simclrhn_probe3,1,159,NaN,cat,cat,cr,0159_cl_dnn_cr_cat_40_n02123045_5932.png,n02123045_5932.png,1.0,2.0883307,1.4149772,0.47613287
alexnet_w1_mlp_simclrhn_probe3,1,160,NaN,cat,dog,cr,0160_cl_dnn_cr_dog_40_n02100583_1267.png,n02100583_1267.png,0.0,1.1759586,2.0383744,-0.60982007
alexnet_w1_mlp_simclrhn_probe3,1,161,NaN,dog,dog,bw,0161_cl_dnn_bw_dog_40_n02099601_8005.png,n02099601_8005.png,1.0,3.4267645,2.9056246,0.36850154
alexnet_w1_mlp_simclrhn_probe3,1,162,NaN,bird,boat,cr,0162_cl_dnn_cr_boat_40_n02951358_12080.png,n02951358_12080.png,0.0,-0.013869261,1.193158,-0.8534972
alexnet_w1_mlp_simclrhn_probe3,1,163,NaN,oven,oven,cr,0163_cl_dnn_cr_oven_40_n04111531_20028.png,n04111531_20028.png,1.0,8.17366,1.0588826,5.0309076
alexnet_w1_mlp_simclrhn_probe3,1,164,NaN,cat,cat,bw,0164_cl_dnn_bw_cat_40_n02123159_2107.png,n02123159_2107.png,1.0,11.010277,0.85475045,7.1810417
alexnet_w1_mlp_simclrhn_probe3,1,165,NaN,bear,bear,cr,0165_cl_dnn_cr_bear_40_n02134418_1351.png,n02134418_1351.png,1.0,5.770027,4.0348463,1.2269582
alexnet_w1_mlp_simclrhn_probe3,1,166,NaN,oven,oven,cr,0166_cl_dnn_cr_oven_40_n04111531_6609.png,n04111531_6609.png,1.0,4.3551865,1.7671127,1.8300445
alexnet_w1_mlp_simclrhn_probe3,1,167,NaN,knife,knife,bw,0167_cl_dnn_bw_knife_40_n03041632_21477.png,n03041632_21477.png,1.0,1.6632992,1.5196602,0.10156809
alexnet_w1_mlp_simclrhn_probe3,1,168,NaN,cat,cat,cr,0168_cl_dnn_cr_cat_40_n02123394_238.png,n02123394_238.png,1.0,3.4091122,1.170402,1.5830072
alexnet_w1_mlp_simclrhn_probe3,1,169,NaN,elephant,elephant,cr,0169_cl_dnn_cr_elephant_40_n02504013_3141.png,n02504013_3141.png,1.0,2.4815564,2.118648,0.25661498
alexnet_w1_mlp_simclrhn_probe3,1,170,NaN,elephant,elephant,cr,0170_cl_dnn_cr_elephant_40_n02504013_5035.png,n02504013_5035.png,1.0,5.494159,1.351812,2.929082
alexnet_w1_mlp_simclrhn_probe3,1,171,NaN,dog,dog,cr,0171_cl_dnn_cr_dog_40_n02089867_2298.png,n02089867_2298.png,1.0,3.6695623,1.290234,1.6824392
alexnet_w1_mlp_simclrhn_probe3,1,172,NaN,chair,bear,bw,0172_cl_dnn_bw_bear_40_n02134418_2503.png,n02134418_2503.png,0.0,0.031129964,1.1175944,-0.76824635
alexnet_w1_mlp_simclrhn_probe3,1,173,NaN,keyboard,keyboard,cr,0173_cl_dnn_cr_keyboard_40_n04505470_4878.png,n04505470_4878.png,1.0,3.9528437,1.0354328,2.062921
alexnet_w1_mlp_simclrhn_probe3,1,174,NaN,airplane,knife,bw,0174_cl_dnn_bw_knife_40_n03041632_22734.png,n03041632_22734.png,0.0,0.43523106,1.2045715,-0.5440058
alexnet_w1_mlp_simclrhn_probe3,1,175,NaN,bear,bear,cr,0175_cl_dnn_cr_bear_40_n02132136_8896.png,n02132136_8896.png,1.0,2.9526396,1.9386408,0.71700543
alexnet_w1_mlp_simclrhn_probe3,1,176,NaN,bicycle,boat,bw,0176_cl_dnn_bw_boat_40_n02951358_5952.png,n02951358_5952.png,0.0,2.5171132,6.0555973,-2.5020862
alexnet_w1_mlp_simclrhn_probe3,1,177,NaN,keyboard,chair,bw,0177_cl_dnn_bw_chair_40_n04099969_1775.png,n04099969_1775.png,0.0,0.41551644,1.597876,-0.8360544
alexnet_w1_mlp_simclrhn_probe3,1,178,NaN,airplane,airplane,bw,0178_cl_dnn_bw_airplane_40_n02690373_6524.png,n02690373_6524.png,1.0,4.930505,3.3359077,1.1275505
alexnet_w1_mlp_simclrhn_probe3,1,179,NaN,bird,bear,cr,0179_cl_dnn_cr_bear_40_n02133161_1916.png,n02133161_1916.png,0.0,0.31207597,2.0737748,-1.2457092
alexnet_w1_mlp_simclrhn_probe3,1,180,NaN,keyboard,knife,bw,0180_cl_dnn_bw_knife_40_n03041632_96714.png,n03041632_96714.png,0.0,1.2804037,4.145362,-2.0258315
alexnet_w1_mlp_simclrhn_probe3,1,181,NaN,truck,truck,bw,0181_cl_dnn_bw_truck_40_n03417042_13635.png,n03417042_13635.png,1.0,7.328258,3.158585,2.948404
alexnet_w1_mlp_simclrhn_probe3,1,182,NaN,boat,boat,bw,0182_cl_dnn_bw_boat_40_n04612504_1748.png,n04612504_1748.png,1.0,7.408316,2.8631744,3.2139006
alexnet_w1_mlp_simclrhn_probe3,1,183,NaN,bird,bird,cr,0183_cl_dnn_cr_bird_40_n01592084_3341.png,n01592084_3341.png,1.0,4.78015,1.2103345,2.5242407
alexnet_w1_mlp_simclrhn_probe3,1,184,NaN,car,car,bw,0184_cl_dnn_bw_car_40_n02814533_12388.png,n02814533_12388.png,1.0,6.309725,2.7899044,2.488889
alexnet_w1_mlp_simclrhn_probe3,1,185,NaN,bicycle,bicycle,cr,0185_cl_dnn_cr_bicycle_40_n03792782_5864.png,n03792782_5864.png,1.0,9.203229,2.5460174,4.7073593
alexnet_w1_mlp_simclrhn_probe3,1,186,NaN,elephant,bird,bw,0186_cl_dnn_bw_bird_40_n01514859_17156.png,n01514859_17156.png,0.0,-0.16515034,2.6486292,-1.9896426
alexnet_w1_mlp_simclrhn_probe3,1,187,NaN,car,car,cr,0187_cl_dnn_cr_car_40_n03100240_7737.png,n03100240_7737.png,1.0,5.2907104,4.42112,0.6148932
alexnet_w1_mlp_simclrhn_probe3,1,188,NaN,bottle,bottle,bw,0188_cl_dnn_bw_bottle_40_n04579145_1829.png,n04579145_1829.png,1.0,1.2984778,0.46415955,0.5899521
alexnet_w1_mlp_simclrhn_probe3,1,189,NaN,bear,elephant,bw,0189_cl_dnn_bw_elephant_40_n02504013_22388.png,n02504013_22388.png,0.0,2.4036424,4.4062166,-1.4160339
alexnet_w1_mlp_simclrhn_probe3,1,190,NaN,airplane,airplane,bw,0190_cl_dnn_bw_airplane_40_n02690373_7107.png,n02690373_7107.png,1.0,6.492424,2.6623793,2.7082508
alexnet_w1_mlp_simclrhn_probe3,1,191,NaN,car,car,bw,0191_cl_dnn_bw_car_40_n02814533_45594.png,n02814533_45594.png,1.0,16.082502,10.691687,3.8118825
alexnet_w1_mlp_simclrhn_probe3,1,192,NaN,elephant,boat,cr,0192_cl_dnn_cr_boat_40_n04612504_18536.png,n04612504_18536.png,0.0,3.3287365,3.426517,-0.06914123
alexnet_w1_mlp_simclrhn_probe3,1,193,NaN,elephant,dog,cr,0193_cl_dnn_cr_dog_40_n02088466_6371.png,n02088466_6371.png,0.0,0.8995412,4.933376,-2.8523517
alexnet_w1_mlp_simclrhn_probe3,1,194,NaN,oven,bear,bw,0194_cl_dnn_bw_bear_40_n02133161_1003.png,n02133161_1003.png,0.0,1.6405079,2.2672737,-0.4431903
alexnet_w1_mlp_simclrhn_probe3,1,195,NaN,knife,knife,bw,0195_cl_dnn_bw_knife_40_n03041632_29037.png,n03041632_29037.png,1.0,1.6067138,1.1312447,0.33620745
alexnet_w1_mlp_simclrhn_probe3,1,196,NaN,airplane,airplane,cr,0196_cl_dnn_cr_airplane_40_n02690373_4015.png,n02690373_4015.png,1.0,2.22584,1.3106723,0.64712137
alexnet_w1_mlp_simclrhn_probe3,1,197,NaN,knife,knife,bw,0197_cl_dnn_bw_knife_40_n03041632_28009.png,n03041632_28009.png,1.0,1.7109357,0.6924158,0.7202023
alexnet_w1_mlp_simclrhn_probe3,1,198,NaN,bird,bird,bw,0198_cl_dnn_bw_bird_40_n01560419_5714.png,n01560419_5714.png,1.0,2.5979404,0.9330247,1.1772733
alexnet_w1_mlp_simclrhn_probe3,1,199,NaN,bird,cat,cr,0199_cl_dnn_cr_cat_40_n02125311_6429.png,n02125311_6429.png,0.0,0.56189483,0.90353096,-0.24157323
alexnet_w1_mlp_simclrhn_probe3,1,200,NaN,chair,chair,bw,0200_cl_dnn_bw_chair_40_n04099969_9847.png,n04099969_9847.png,1.0,2.5525963,0.9392625,1.1407993
alexnet_w1_mlp_simclrhn_probe3,1,201,NaN,cat,cat,bw,0201_cl_dnn_bw_cat_40_n02123597_7142.png,n02123597_7142.png,1.0,2.7269418,1.7365321,0.7003254
alexnet_w1_mlp_simclrhn_probe3,1,202,NaN,truck,bicycle,cr,0202_cl_dnn_cr_bicycle_40_n02835271_8982.png,n02835271_8982.png,0.0,2.309839,3.1265428,-0.5774968
alexnet_w1_mlp_simclrhn_probe3,1,203,NaN,airplane,bird,bw,0203_cl_dnn_bw_bird_40_n01592084_19555.png,n01592084_19555.png,0.0,6.1138644,6.3336744,-0.15542915
alexnet_w1_mlp_simclrhn_probe3,1,204,NaN,chair,knife,cr,0204_cl_dnn_cr_knife_40_n03041632_8618.png,n03041632_8618.png,0.0,1.7540429,2.94566,-0.84260064
alexnet_w1_mlp_simclrhn_probe3,1,205,NaN,truck,boat,bw,0205_cl_dnn_bw_boat_40_n03344393_547.png,n03344393_547.png,0.0,3.5103252,5.1143675,-1.1342292
alexnet_w1_mlp_simclrhn_probe3,1,206,NaN,bird,bird,bw,0206_cl_dnn_bw_bird_40_n01843383_5962.png,n01843383_5962.png,1.0,1.3667309,0.21711814,0.812899
alexnet_w1_mlp_simclrhn_probe3,1,207,NaN,keyboard,keyboard,cr,0207_cl_dnn_cr_keyboard_40_n04505470_213.png,n04505470_213.png,1.0,8.982759,1.8061697,5.0746155
alexnet_w1_mlp_simclrhn_probe3,1,208,NaN,elephant,elephant,cr,0208_cl_dnn_cr_elephant_40_n02504458_2607.png,n02504458_2607.png,1.0,5.118865,1.9050574,2.2725053
alexnet_w1_mlp_simclrhn_probe3,1,209,NaN,bear,bear,bw,0209_cl_dnn_bw_bear_40_n02134418_4157.png,n02134418_4157.png,1.0,4.279561,3.4226365,0.6059372
alexnet_w1_mlp_simclrhn_probe3,1,210,NaN,bottle,bottle,cr,0210_cl_dnn_cr_bottle_40_n03983396_11519.png,n03983396_11519.png,1.0,6.117685,3.147449,2.1002738
alexnet_w1_mlp_simclrhn_probe3,1,211,NaN,cat,cat,cr,0211_cl_dnn_cr_cat_40_n02124075_1999.png,n02124075_1999.png,1.0,7.792658,0.48221496,5.169264
alexnet_w1_mlp_simclrhn_probe3,1,212,NaN,cat,cat,bw,0212_cl_dnn_bw_cat_40_n02124075_11252.png,n02124075_11252.png,1.0,1.3413348,0.80063236,0.38233438
alexnet_w1_mlp_simclrhn_probe3,1,213,NaN,boat,airplane,bw,0213_cl_dnn_bw_airplane_40_n02690373_4195.png,n02690373_4195.png,0.0,4.3715916,4.8653345,-0.349129
alexnet_w1_mlp_simclrhn_probe3,1,214,NaN,airplane,airplane,cr,0214_cl_dnn_cr_airplane_40_n02690373_2629.png,n02690373_2629.png,1.0,4.4411907,2.42752,1.4238802
alexnet_w1_mlp_simclrhn_probe3,1,215,NaN,keyboard,keyboard,bw,0215_cl_dnn_bw_keyboard_40_n04505470_5060.png,n04505470_5060.png,1.0,5.416071,1.5086163,2.7629876
alexnet_w1_mlp_simclrhn_probe3,1,216,NaN,bear,bear,cr,0216_cl_dnn_cr_bear_40_n02132136_10060.png,n02132136_10060.png,1.0,4.780591,3.1401243,1.1599852
alexnet_w1_mlp_simclrhn_probe3,1,217,NaN,airplane,airplane,bw,0217_cl_dnn_bw_airplane_40_n02690373_4150.png,n02690373_4150.png,1.0,5.072959,2.8479998,1.5732837
alexnet_w1_mlp_simclrhn_probe3,1,218,NaN,dog,dog,cr,0218_cl_dnn_cr_dog_40_n02102040_7465.png,n02102040_7465.png,1.0,4.1975236,2.1966279,1.414847
alexnet_w1_mlp_simclrhn_probe3,1,219,NaN,bird,bird,bw,0219_cl_dnn_bw_bird_40_n02009229_12179.png,n02009229_12179.png,1.0,2.0224907,0.6453302,0.9737996
alexnet_w1_mlp_simclrhn_probe3,1,220,NaN,knife,knife,bw,0220_cl_dnn_bw_knife_40_n03041632_20413.png,n03041632_20413.png,1.0,2.8637266,2.75835,0.07451259
alexnet_w1_mlp_simclrhn_probe3,1,221,NaN,truck,truck,bw,0221_cl_dnn_bw_truck_40_n03796401_13490.png,n03796401_13490.png,1.0,4.8685055,2.3653722,1.7699826
alexnet_w1_mlp_simclrhn_probe3,1,222,NaN,oven,oven,cr,0222_cl_dnn_cr_oven_40_n04111531_584.png,n04111531_584.png,1.0,3.5134096,2.0773847,1.0154229
alexnet_w1_mlp_simclrhn_probe3,1,223,NaN,airplane,airplane,bw,0223_cl_dnn_bw_airplane_40_n02690373_3899.png,n02690373_3899.png,1.0,8.056765,6.3125863,1.2333204
alexnet_w1_mlp_simclrhn_probe3,1,224,NaN,bird,bird,cr,0224_cl_dnn_cr_bird_40_n02027492_8707.png,n02027492_8707.png,1.0,3.0842466,1.3875461,1.1997485
alexnet_w1_mlp_simclrhn_probe3,1,225,NaN,airplane,airplane,cr,0225_cl_dnn_cr_airplane_40_n02690373_2648.png,n02690373_2648.png,1.0,10.71068,4.802627,4.177624
alexnet_w1_mlp_simclrhn_probe3,1,226,NaN,cat,cat,bw,0226_cl_dnn_bw_cat_40_n02123394_6598.png,n02123394_6598.png,1.0,5.32402,2.0102994,2.3431542
alexnet_w1_mlp_simclrhn_probe3,1,227,NaN,bicycle,bicycle,bw,0227_cl_dnn_bw_bicycle_40_n02835271_17168.png,n02835271_17168.png,1.0,2.9136004,1.7188712,0.8448011
alexnet_w1_mlp_simclrhn_probe3,1,228,NaN,truck,truck,bw,0228_cl_dnn_bw_truck_40_n03417042_29849.png,n03417042_29849.png,1.0,7.9430723,2.8081465,3.630941
alexnet_w1_mlp_simclrhn_probe3,1,229,NaN,elephant,knife,cr,0229_cl_dnn_cr_knife_40_n03041632_29125.png,n03041632_29125.png,0.0,0.54804564,1.6249849,-0.761511
alexnet_w1_mlp_simclrhn_probe3,1,230,NaN,bottle,clock,bw,0230_cl_dnn_bw_clock_40_n04548280_5456.png,n04548280_5456.png,0.0,2.4310684,2.9538357,-0.3696523
alexnet_w1_mlp_simclrhn_probe3,1,231,NaN,truck,truck,bw,0231_cl_dnn_bw_truck_40_n03796401_8099.png,n03796401_8099.png,1.0,3.6493306,2.2585976,0.98339677
alexnet_w1_mlp_simclrhn_probe3,1,232,NaN,bear,bear,cr,0232_cl_dnn_cr_bear_40_n02132136_860.png,n02132136_860.png,1.0,4.2104874,2.399607,1.2804859
alexnet_w1_mlp_simclrhn_probe3,1,233,NaN,truck,truck,bw,0233_cl_dnn_bw_truck_40_n03796401_4423.png,n03796401_4423.png,1.0,7.698662,2.7004654,3.5342588
alexnet_w1_mlp_simclrhn_probe3,1,234,NaN,elephant,elephant,bw,0234_cl_dnn_bw_elephant_40_n02504458_7871.png,n02504458_7871.png,1.0,16.346733,4.2845497,8.529252
alexnet_w1_mlp_simclrhn_probe3,1,235,NaN,oven,oven,cr,0235_cl_dnn_cr_oven_40_n04111531_14753.png,n04111531_14753.png,1.0,4.654088,2.7130184,1.3725435
alexnet_w1_mlp_simclrhn_probe3,1,236,NaN,clock,clock,bw,0236_cl_dnn_bw_clock_40_n04548280_17198.png,n04548280_17198.png,1.0,5.9447503,2.5878448,2.3736906
alexnet_w1_mlp_simclrhn_probe3,1,237,NaN,oven,oven,cr,0237_cl_dnn_cr_oven_40_n04111531_15947.png,n04111531_15947.png,1.0,6.995098,1.7147475,3.7337718
alexnet_w1_mlp_simclrhn_probe3,1,238,NaN,oven,elephant,bw,0238_cl_dnn_bw_elephant_40_n02504013_1103.png,n02504013_1103.png,0.0,-0.5588242,1.3535901,-1.3522811
alexnet_w1_mlp_simclrhn_probe3,1,239,NaN,bicycle,bicycle,cr,0239_cl_dnn_cr_bicycle_40_n03792782_33853.png,n03792782_33853.png,1.0,0.75194013,0.57127863,0.12774697
alexnet_w1_mlp_simclrhn_probe3,1,240,NaN,chair,bottle,bw,0240_cl_dnn_bw_bottle_40_n04557648_5665.png,n04557648_5665.png,0.0,1.7028958,2.488746,-0.55568
alexnet_w1_mlp_simclrhn_probe3,1,241,NaN,bear,bear,bw,0241_cl_dnn_bw_bear_40_n02134418_5824.png,n02134418_5824.png,1.0,5.3566875,0.48191732,3.446983
alexnet_w1_mlp_simclrhn_probe3,1,242,NaN,truck,truck,cr,0242_cl_dnn_cr_truck_40_n04467665_54349.png,n04467665_54349.png,1.0,8.295643,2.6469407,3.9942358
alexnet_w1_mlp_simclrhn_probe3,1,243,NaN,truck,truck,cr,0243_cl_dnn_cr_truck_40_n03796401_8100.png,n03796401_8100.png,1.0,13.198303,7.8244967,3.799855
alexnet_w1_mlp_simclrhn_probe3,1,244,NaN,elephant,elephant,cr,0244_cl_dnn_cr_elephant_40_n02504013_4288.png,n02504013_4288.png,1.0,14.45185,5.3376093,6.4447412
alexnet_w1_mlp_simclrhn_probe3,1,245,NaN,boat,boat,cr,0245_cl_dnn_cr_boat_40_n03662601_4437.png,n03662601_4437.png,1.0,5.819573,1.715694,2.9018807
alexnet_w1_mlp_simclrhn_probe3,1,246,NaN,bicycle,bicycle,cr,0246_cl_dnn_cr_bicycle_40_n02835271_7351.png,n02835271_7351.png,1.0,12.161585,2.3002892,6.972989
alexnet_w1_mlp_simclrhn_probe3,1,247,NaN,elephant,elephant,bw,0247_cl_dnn_bw_elephant_40_n02504458_2556.png,n02504458_2556.png,1.0,2.759565,1.8087723,0.672312
alexnet_w1_mlp_simclrhn_probe3,1,248,NaN,airplane,airplane,cr,0248_cl_dnn_cr_airplane_40_n02690373_303.png,n02690373_303.png,1.0,8.03459,1.3336082,4.73831
alexnet_w1_mlp_simclrhn_probe3,1,249,NaN,elephant,elephant,bw,0249_cl_dnn_bw_elephant_40_n02504013_5503.png,n02504013_5503.png,1.0,6.4368887,1.7629254,3.3049915
alexnet_w1_mlp_simclrhn_probe3,1,250,NaN,airplane,truck,cr,0250_cl_dnn_cr_truck_40_n04467665_68332.png,n04467665_68332.png,0.0,2.4317317,9.694439,-5.1355095
alexnet_w1_mlp_simclrhn_probe3,1,251,NaN,clock,clock,bw,0251_cl_dnn_bw_clock_40_n02708093_3079.png,n02708093_3079.png,1.0,3.7983809,1.3896378,1.7032385
alexnet_w1_mlp_simclrhn_probe3,1,252,NaN,cat,cat,cr,0252_cl_dnn_cr_cat_40_n02123394_2395.png,n02123394_2395.png,1.0,2.6757462,1.6836337,0.7015295
alexnet_w1_mlp_simclrhn_probe3,1,253,NaN,chair,chair,cr,0253_cl_dnn_cr_chair_40_n04429376_20906.png,n04429376_20906.png,1.0,3.5889788,3.4362788,0.10797517
alexnet_w1_mlp_simclrhn_probe3,1,254,NaN,boat,boat,cr,0254_cl_dnn_cr_boat_40_n03344393_8160.png,n03344393_8160.png,1.0,3.3078487,2.1019473,0.85270107
alexnet_w1_mlp_simclrhn_probe3,1,255,NaN,keyboard,keyboard,cr,0255_cl_dnn_cr_keyboard_40_n03085013_21325.png,n03085013_21325.png,1.0,6.7986803,1.6672796,3.6284482
alexnet_w1_mlp_simclrhn_probe3,1,256,NaN,knife,knife,cr,0256_cl_dnn_cr_knife_40_n03041632_99875.png,n03041632_99875.png,1.0,3.117903,0.5786922,1.7954932
alexnet_w1_mlp_simclrhn_probe3,1,257,NaN,knife,clock,bw,0257_cl_dnn_bw_clock_40_n04548280_7384.png,n04548280_7384.png,0.0,0.39440417,0.7446516,-0.24766235
alexnet_w1_mlp_simclrhn_probe3,1,258,NaN,keyboard,keyboard,bw,0258_cl_dnn_bw_keyboard_40_n03085013_23534.png,n03085013_23534.png,1.0,5.178104,1.1268958,2.8646367
alexnet_w1_mlp_simclrhn_probe3,1,259,NaN,truck,truck,bw,0259_cl_dnn_bw_truck_40_n03417042_2383.png,n03417042_2383.png,1.0,6.2967196,4.1920476,1.4882278
alexnet_w1_mlp_simclrhn_probe3,1,260,NaN,bottle,clock,bw,0260_cl_dnn_bw_clock_40_n03196217_711.png,n03196217_711.png,0.0,0.8692155,0.94320345,-0.05231739
alexnet_w1_mlp_simclrhn_probe3,1,261,NaN,keyboard,keyboard,bw,0261_cl_dnn_bw_keyboard_40_n03085013_7992.png,n03085013_7992.png,1.0,3.4105315,0.7171362,1.9045181
alexnet_w1_mlp_simclrhn_probe3,1,262,NaN,cat,cat,bw,0262_cl_dnn_bw_cat_40_n02125311_75445.png,n02125311_75445.png,1.0,4.5771384,2.9513664,1.1495944
alexnet_w1_mlp_simclrhn_probe3,1,263,NaN,knife,knife,cr,0263_cl_dnn_cr_knife_40_n03041632_47410.png,n03041632_47410.png,1.0,0.9419283,0.31811622,0.44110176
alexnet_w1_mlp_simclrhn_probe3,1,264,NaN,oven,oven,bw,0264_cl_dnn_bw_oven_40_n04111531_741.png,n04111531_741.png,1.0,7.7922173,1.4090769,4.513562
alexnet_w1_mlp_simclrhn_probe3,1,265,NaN,cat,oven,bw,0265_cl_dnn_bw_oven_40_n04111531_3181.png,n04111531_3181.png,0.0,1.5122088,1.7060232,-0.13704747
alexnet_w1_mlp_simclrhn_probe3,1,266,NaN,truck,truck,bw,0266_cl_dnn_bw_truck_40_n03417042_17099.png,n03417042_17099.png,1.0,12.909183,3.7608383,6.4688563
alexnet_w1_mlp_simclrhn_probe3,1,267,NaN,boat,boat,cr,0267_cl_dnn_cr_boat_40_n03662601_15143.png,n03662601_15143.png,1.0,7.485442,3.852447,2.5689156
alexnet_w1_mlp_simclrhn_probe3,1,268,NaN,keyboard,keyboard,bw,0268_cl_dnn_bw_keyboard_40_n03085013_19197.png,n03085013_19197.png,1.0,14.858525,4.5275173,7.3051257
alexnet_w1_mlp_simclrhn_probe3,1,269,NaN,airplane,airplane,cr,0269_cl_dnn_cr_airplane_40_n02690373_4202.png,n02690373_4202.png,1.0,8.573908,4.149779,3.1283317
alexnet_w1_mlp_simclrhn_probe3,1,270,NaN,bear,bear,bw,0270_cl_dnn_bw_bear_40_n02132136_10134.png,n02132136_10134.png,1.0,4.931498,1.8670408,2.1668987
alexnet_w1_mlp_simclrhn_probe3,1,271,NaN,boat,boat,bw,0271_cl_dnn_bw_boat_40_n03344393_5296.png,n03344393_5296.png,1.0,5.586798,3.9577966,1.1518781
alexnet_w1_mlp_simclrhn_probe3,1,272,NaN,keyboard,keyboard,bw,0272_cl_dnn_bw_keyboard_40_n04505470_1600.png,n04505470_1600.png,1.0,5.839344,3.172447,1.885781
alexnet_w1_mlp_simclrhn_probe3,1,273,NaN,truck,truck,bw,0273_cl_dnn_bw_truck_40_n03417042_10043.png,n03417042_10043.png,1.0,10.484412,1.5850725,6.2927837
alexnet_w1_mlp_simclrhn_probe3,1,274,NaN,bird,bird,bw,0274_cl_dnn_bw_bird_40_n02007558_5525.png,n02007558_5525.png,1.0,5.0475187,1.675271,2.3845394
alexnet_w1_mlp_simclrhn_probe3,1,275,NaN,airplane,airplane,cr,0275_cl_dnn_cr_airplane_40_n02690373_6621.png,n02690373_6621.png,1.0,2.0744674,1.3593254,0.50568175
alexnet_w1_mlp_simclrhn_probe3,1,276,NaN,keyboard,keyboard,bw,0276_cl_dnn_bw_keyboard_40_n04505470_6623.png,n04505470_6623.png,1.0,5.5581236,2.0275714,2.4964774
alexnet_w1_mlp_simclrhn_probe3,1,277,NaN,oven,dog,cr,0277_cl_dnn_cr_dog_40_n02113624_3403.png,n02113624_3403.png,0.0,-0.018596945,1.696446,-1.2127185
alexnet_w1_mlp_simclrhn_probe3,1,278,NaN,dog,dog,bw,0278_cl_dnn_bw_dog_40_n02106550_12642.png,n02106550_12642.png,1.0,1.7586925,1.6858166,0.051531013
alexnet_w1_mlp_simclrhn_probe3,1,279,NaN,clock,clock,cr,0279_cl_dnn_cr_clock_40_n04548280_24041.png,n04548280_24041.png,1.0,5.524668,1.0514722,3.1630273
alexnet_w1_mlp_simclrhn_probe3,1,280,NaN,truck,truck,bw,0280_cl_dnn_bw_truck_40_n03417042_3236.png,n03417042_3236.png,1.0,5.185219,3.718107,1.0374048
alexnet_w1_mlp_simclrhn_probe3,1,281,NaN,car,car,bw,0281_cl_dnn_bw_car_40_n03100240_2583.png,n03100240_2583.png,1.0,9.327067,8.576872,0.53046834
alexnet_w1_mlp_simclrhn_probe3,1,282,NaN,knife,knife,cr,0282_cl_dnn_cr_knife_40_n03041632_45090.png,n03041632_45090.png,1.0,2.683676,0.4848767,1.554786
alexnet_w1_mlp_simclrhn_probe3,1,283,NaN,cat,cat,cr,0283_cl_dnn_cr_cat_40_n02123597_660.png,n02123597_660.png,1.0,3.0116894,1.618938,0.984824
alexnet_w1_mlp_simclrhn_probe3,1,284,NaN,chair,clock,bw,0284_cl_dnn_bw_clock_40_n04548280_7813.png,n04548280_7813.png,0.0,1.7820126,2.5534983,-0.54552275
alexnet_w1_mlp_simclrhn_probe3,1,285,NaN,dog,dog,bw,0285_cl_dnn_bw_dog_40_n02111129_797.png,n02111129_797.png,1.0,4.195749,1.4583546,1.9356301
alexnet_w1_mlp_simclrhn_probe3,1,286,NaN,knife,knife,cr,0286_cl_dnn_cr_knife_40_n03041632_3717.png,n03041632_3717.png,1.0,2.8588684,0.41738155,1.7263919
alexnet_w1_mlp_simclrhn_probe3,1,287,NaN,boat,boat,bw,0287_cl_dnn_bw_boat_40_n04273569_870.png,n04273569_870.png,1.0,4.0444613,1.8737112,1.5349522
alexnet_w1_mlp_simclrhn_probe3,1,288,NaN,elephant,elephant,bw,0288_cl_dnn_bw_elephant_40_n02504013_720.png,n02504013_720.png,1.0,16.98101,7.4231653,6.758417
alexnet_w1_mlp_simclrhn_probe3,1,289,NaN,oven,oven,cr,0289_cl_dnn_cr_oven_40_n04111531_14876.png,n04111531_14876.png,1.0,7.6024084,2.8740745,3.343437
alexnet_w1_mlp_simclrhn_probe3,1,290,NaN,cat,cat,bw,0290_cl_dnn_bw_cat_40_n02123045_569.png,n02123045_569.png,1.0,2.5665643,1.4336787,0.8010711
alexnet_w1_mlp_simclrhn_probe3,1,291,NaN,clock,clock,bw,0291_cl_dnn_bw_clock_40_n03196217_5888.png,n03196217_5888.png,1.0,1.6903225,1.4288146,0.184914
alexnet_w1_mlp_simclrhn_probe3,1,292,NaN,keyboard,keyboard,cr,0292_cl_dnn_cr_keyboard_40_n04505470_4770.png,n04505470_4770.png,1.0,9.887365,3.2547593,4.689961
alexnet_w1_mlp_simclrhn_probe3,1,293,NaN,oven,knife,cr,0293_cl_dnn_cr_knife_40_n03041632_32292.png,n03041632_32292.png,0.0,0.53690094,1.8163538,-0.90470976
alexnet_w1_mlp_simclrhn_probe3,1,294,NaN,bear,elephant,cr,0294_cl_dnn_cr_elephant_40_n02504013_6672.png,n02504013_6672.png,0.0,2.5363398,3.117645,-0.4110449
alexnet_w1_mlp_simclrhn_probe3,1,295,NaN,airplane,airplane,bw,0295_cl_dnn_bw_airplane_40_n02690373_5838.png,n02690373_5838.png,1.0,7.8543277,3.2307518,3.2693622
alexnet_w1_mlp_simclrhn_probe3,1,296,NaN,bird,bird,cr,0296_cl_dnn_cr_bird_40_n01796340_5508.png,n01796340_5508.png,1.0,2.8220823,0.87727726,1.3751849
alexnet_w1_mlp_simclrhn_probe3,1,297,NaN,oven,clock,bw,0297_cl_dnn_bw_clock_40_n03196217_6477.png,n03196217_6477.png,0.0,1.3484873,3.5884814,-1.583915
alexnet_w1_mlp_simclrhn_probe3,1,298,NaN,bird,bird,bw,0298_cl_dnn_bw_bird_40_n02011460_5075.png,n02011460_5075.png,1.0,2.3757062,1.0448146,0.9410825
alexnet_w1_mlp_simclrhn_probe3,1,299,NaN,boat,boat,bw,0299_cl_dnn_bw_boat_40_n03344393_10284.png,n03344393_10284.png,1.0,6.7166777,3.3461683,2.38331
alexnet_w1_mlp_simclrhn_probe3,1,300,NaN,oven,oven,bw,0300_cl_dnn_bw_oven_40_n04111531_14559.png,n04111531_14559.png,1.0,2.557987,2.243394,0.2224509
alexnet_w1_mlp_simclrhn_probe3,1,301,NaN,bottle,knife,cr,0301_cl_dnn_cr_knife_40_n03041632_24060.png,n03041632_24060.png,0.0,1.8948501,3.3111439,-1.0014709
alexnet_w1_mlp_simclrhn_probe3,1,302,NaN,airplane,airplane,bw,0302_cl_dnn_bw_airplane_40_n02690373_4134.png,n02690373_4134.png,1.0,7.985967,1.2297572,4.777362
alexnet_w1_mlp_simclrhn_probe3,1,303,NaN,cat,bear,cr,0303_cl_dnn_cr_bear_40_n02134084_6669.png,n02134084_6669.png,0.0,0.5204967,0.838563,-0.22490685
alexnet_w1_mlp_simclrhn_probe3,1,304,NaN,bird,bird,cr,0304_cl_dnn_cr_bird_40_n01558993_5744.png,n01558993_5744.png,1.0,4.7081842,1.3873907,2.3481557
alexnet_w1_mlp_simclrhn_probe3,1,305,NaN,elephant,bird,bw,0305_cl_dnn_bw_bird_40_n01818515_10536.png,n01818515_10536.png,0.0,-0.22939275,1.6053786,-1.2973794
alexnet_w1_mlp_simclrhn_probe3,1,306,NaN,bicycle,bottle,bw,0306_cl_dnn_bw_bottle_40_n04557648_20614.png,n04557648_20614.png,0.0,-0.04173554,5.076802,-3.6193526
alexnet_w1_mlp_simclrhn_probe3,1,307,NaN,clock,clock,cr,0307_cl_dnn_cr_clock_40_n04548280_3605.png,n04548280_3605.png,1.0,4.984425,0.33001933,3.2911618
alexnet_w1_mlp_simclrhn_probe3,1,308,NaN,truck,truck,bw,0308_cl_dnn_bw_truck_40_n03796401_27288.png,n03796401_27288.png,1.0,9.052917,5.035524,2.8407257
alexnet_w1_mlp_simclrhn_probe3,1,309,NaN,bicycle,bicycle,cr,0309_cl_dnn_cr_bicycle_40_n02835271_18276.png,n02835271_18276.png,1.0,7.265093,3.9991868,2.3093443
alexnet_w1_mlp_simclrhn_probe3,1,310,NaN,bear,bear,cr,0310_cl_dnn_cr_bear_40_n02133161_12152.png,n02133161_12152.png,1.0,1.2300829,1.0307863,0.14092398
alexnet_w1_mlp_simclrhn_probe3,1,311,NaN,elephant,elephant,cr,0311_cl_dnn_cr_elephant_40_n02504013_14918.png,n02504013_14918.png,1.0,12.402741,4.781041,5.389356
alexnet_w1_mlp_simclrhn_probe3,1,312,NaN,bicycle,bicycle,bw,0312_cl_dnn_bw_bicycle_40_n03792782_5323.png,n03792782_5323.png,1.0,10.027845,0.73667866,6.5698466
alexnet_w1_mlp_simclrhn_probe3,1,313,NaN,bicycle,truck,cr,0313_cl_dnn_cr_truck_40_n04467665_37066.png,n04467665_37066.png,0.0,1.2694447,3.996046,-1.9279983
alexnet_w1_mlp_simclrhn_probe3,1,314,NaN,bird,bird,bw,0314_cl_dnn_bw_bird_40_n02025239_2481.png,n02025239_2481.png,1.0,4.392703,1.1585418,2.2868974
alexnet_w1_mlp_simclrhn_probe3,1,315,NaN,bicycle,bicycle,bw,0315_cl_dnn_bw_bicycle_40_n02835271_5113.png,n02835271_5113.png,1.0,7.6309896,2.16083,3.867987
alexnet_w1_mlp_simclrhn_probe3,1,316,NaN,elephant,elephant,cr,0316_cl_dnn_cr_elephant_40_n02504458_6185.png,n02504458_6185.png,1.0,5.0072794,1.1778919,2.707786
alexnet_w1_mlp_simclrhn_probe3,1,317,NaN,oven,knife,cr,0317_cl_dnn_cr_knife_40_n03041632_11475.png,n03041632_11475.png,0.0,0.7472187,3.8093321,-2.165241
alexnet_w1_mlp_simclrhn_probe3,1,318,NaN,cat,cat,bw,0318_cl_dnn_bw_cat_40_n02125311_31318.png,n02125311_31318.png,1.0,5.5337486,1.5435387,2.8215046
alexnet_w1_mlp_simclrhn_probe3,1,319,NaN,clock,clock,bw,0319_cl_dnn_bw_clock_40_n04548280_8585.png,n04548280_8585.png,1.0,0.88085884,0.5877551,0.20725566
alexnet_w1_mlp_simclrhn_probe3,1,320,NaN,bear,bear,bw,0320_cl_dnn_bw_bear_40_n02134418_12628.png,n02134418_12628.png,1.0,6.239835,1.5016229,3.3504217
alexnet_w1_mlp_simclrhn_probe3,1,321,NaN,chair,chair,bw,0321_cl_dnn_bw_chair_40_n03376595_17859.png,n03376595_17859.png,1.0,2.3655875,1.8392434,0.37218148
alexnet_w1_mlp_simclrhn_probe3,1,322,NaN,knife,knife,cr,0322_cl_dnn_cr_knife_40_n03041632_379.png,n03041632_379.png,1.0,1.3829703,0.4819124,0.6371442
alexnet_w1_mlp_simclrhn_probe3,1,323,NaN,oven,bottle,bw,0323_cl_dnn_bw_bottle_40_n04557648_1293.png,n04557648_1293.png,0.0,1.5491089,3.4037013,-1.3113949
alexnet_w1_mlp_simclrhn_probe3,1,324,NaN,boat,boat,cr,0324_cl_dnn_cr_boat_40_n03662601_26298.png,n03662601_26298.png,1.0,13.218045,5.842735,5.215132
alexnet_w1_mlp_simclrhn_probe3,1,325,NaN,oven,oven,bw,0325_cl_dnn_bw_oven_40_n04111531_6120.png,n04111531_6120.png,1.0,6.5176907,1.4657091,3.5722904
alexnet_w1_mlp_simclrhn_probe3,1,326,NaN,car,car,bw,0326_cl_dnn_bw_car_40_n02814533_92940.png,n02814533_92940.png,1.0,10.674188,3.8888545,4.797955
alexnet_w1_mlp_simclrhn_probe3,1,327,NaN,chair,chair,cr,0327_cl_dnn_cr_chair_40_n02791124_392.png,n02791124_392.png,1.0,3.3316667,2.5996752,0.5175962
alexnet_w1_mlp_simclrhn_probe3,1,328,NaN,clock,clock,bw,0328_cl_dnn_bw_clock_40_n04548280_3330.png,n04548280_3330.png,1.0,2.9520302,1.0843327,1.3206615
alexnet_w1_mlp_simclrhn_probe3,1,329,NaN,truck,car,cr,0329_cl_dnn_cr_car_40_n02814533_83614.png,n02814533_83614.png,0.0,8.701244,11.89374,-2.257435
alexnet_w1_mlp_simclrhn_probe3,1,330,NaN,bear,bear,cr,0330_cl_dnn_cr_bear_40_n02134418_3846.png,n02134418_3846.png,1.0,6.7108407,3.7748504,2.0760586
alexnet_w1_mlp_simclrhn_probe3,1,331,NaN,elephant,elephant,cr,0331_cl_dnn_cr_elephant_40_n02504013_811.png,n02504013_811.png,1.0,2.7607765,2.6102185,0.10646058
alexnet_w1_mlp_simclrhn_probe3,1,332,NaN,airplane,airplane,bw,0332_cl_dnn_bw_airplane_40_n02690373_1442.png,n02690373_1442.png,1.0,6.4795275,1.8132161,3.2995803
alexnet_w1_mlp_simclrhn_probe3,1,333,NaN,chair,chair,cr,0333_cl_dnn_cr_chair_40_n03376595_6691.png,n03376595_6691.png,1.0,3.9495237,2.3048942,1.1629287
alexnet_w1_mlp_simclrhn_probe3,1,334,NaN,dog,bird,bw,0334_cl_dnn_bw_bird_40_n01616318_1071.png,n01616318_1071.png,0.0,0.026851479,3.0191424,-2.1158693
alexnet_w1_mlp_simclrhn_probe3,1,335,NaN,boat,boat,cr,0335_cl_dnn_cr_boat_40_n03662601_8333.png,n03662601_8333.png,1.0,1.0306756,0.7524429,0.19674027
alexnet_w1_mlp_simclrhn_probe3,1,336,NaN,oven,truck,cr,0336_cl_dnn_cr_truck_40_n03796401_9384.png,n03796401_9384.png,0.0,3.2940893,3.6176472,-0.22878996
alexnet_w1_mlp_simclrhn_probe3,1,337,NaN,bottle,bottle,cr,0337_cl_dnn_cr_bottle_40_n04560804_19001.png,n04560804_19001.png,1.0,2.6497018,2.3765712,0.19313253
alexnet_w1_mlp_simclrhn_probe3,1,338,NaN,elephant,cat,cr,0338_cl_dnn_cr_cat_40_n02123045_7646.png,n02123045_7646.png,0.0,1.5125815,1.75855,-0.17392606
alexnet_w1_mlp_simclrhn_probe3,1,339,NaN,elephant,elephant,cr,0339_cl_dnn_cr_elephant_40_n02504013_3599.png,n02504013_3599.png,1.0,16.718884,10.0182705,4.738049
alexnet_w1_mlp_simclrhn_probe3,1,340,NaN,clock,clock,cr,0340_cl_dnn_cr_clock_40_n03196217_1109.png,n03196217_1109.png,1.0,2.76745,2.5094604,0.18242623
alexnet_w1_mlp_simclrhn_probe3,1,341,NaN,truck,boat,bw,0341_cl_dnn_bw_boat_40_n03344393_5322.png,n03344393_5322.png,0.0,2.6718946,5.3809166,-1.9155679
alexnet_w1_mlp_simclrhn_probe3,1,342,NaN,elephant,dog,cr,0342_cl_dnn_cr_dog_40_n02090622_11748.png,n02090622_11748.png,0.0,2.6549444,2.923696,-0.1900361
alexnet_w1_mlp_simclrhn_probe3,1,343,NaN,knife,knife,cr,0343_cl_dnn_cr_knife_40_n03041632_20707.png,n03041632_20707.png,1.0,2.6575987,1.1751137,1.0482752
alexnet_w1_mlp_simclrhn_probe3,1,344,NaN,keyboard,keyboard,cr,0344_cl_dnn_cr_keyboard_40_n03085013_8936.png,n03085013_8936.png,1.0,2.9459128,2.6551216,0.20562048
alexnet_w1_mlp_simclrhn_probe3,1,345,NaN,airplane,airplane,cr,0345_cl_dnn_cr_airplane_40_n02690373_4695.png,n02690373_4695.png,1.0,5.8997517,3.4763076,1.7136338
alexnet_w1_mlp_simclrhn_probe3,1,346,NaN,bird,oven,bw,0346_cl_dnn_bw_oven_40_n04111531_16463.png,n04111531_16463.png,0.0,1.2223736,2.273441,-0.74321693
alexnet_w1_mlp_simclrhn_probe3,1,347,NaN,elephant,dog,bw,0347_cl_dnn_bw_dog_40_n02099712_1234.png,n02099712_1234.png,0.0,1.8299457,1.9132038,-0.058872405
alexnet_w1_mlp_simclrhn_probe3,1,348,NaN,boat,boat,bw,0348_cl_dnn_bw_boat_40_n03662601_17361.png,n03662601_17361.png,1.0,5.279596,0.9450883,3.0649598
alexnet_w1_mlp_simclrhn_probe3,1,349,NaN,oven,oven,cr,0349_cl_dnn_cr_oven_40_n04111531_12929.png,n04111531_12929.png,1.0,3.6267889,2.0499725,1.1149775
alexnet_w1_mlp_simclrhn_probe3,1,350,NaN,keyboard,truck,bw,0350_cl_dnn_bw_truck_40_n03417042_2056.png,n03417042_2056.png,0.0,-0.040786624,4.7332125,-3.3757272
alexnet_w1_mlp_simclrhn_probe3,1,351,NaN,oven,oven,cr,0351_cl_dnn_cr_oven_40_n04111531_2937.png,n04111531_2937.png,1.0,5.618056,2.2597616,2.3746727
alexnet_w1_mlp_simclrhn_probe3,1,352,NaN,boat,boat,bw,0352_cl_dnn_bw_boat_40_n04273569_23705.png,n04273569_23705.png,1.0,5.0471992,1.7546622,2.3281755
alexnet_w1_mlp_simclrhn_probe3,1,353,NaN,boat,boat,cr,0353_cl_dnn_cr_boat_40_n02951358_8456.png,n02951358_8456.png,1.0,1.6926314,1.3177377,0.26508987
alexnet_w1_mlp_simclrhn_probe3,1,354,NaN,bottle,bottle,bw,0354_cl_dnn_bw_bottle_40_n03983396_11632.png,n03983396_11632.png,1.0,3.48508,1.5497578,1.3684795
alexnet_w1_mlp_simclrhn_probe3,1,355,NaN,bicycle,bicycle,bw,0355_cl_dnn_bw_bicycle_40_n02835271_506.png,n02835271_506.png,1.0,9.96348,1.4828844,5.996687
alexnet_w1_mlp_simclrhn_probe3,1,356,NaN,keyboard,keyboard,cr,0356_cl_dnn_cr_keyboard_40_n04505470_665.png,n04505470_665.png,1.0,9.799041,3.9511049,4.135115
alexnet_w1_mlp_simclrhn_probe3,1,357,NaN,bear,bear,bw,0357_cl_dnn_bw_bear_40_n02132136_390.png,n02132136_390.png,1.0,4.948358,3.192418,1.2416371
alexnet_w1_mlp_simclrhn_probe3,1,358,NaN,bear,bear,cr,0358_cl_dnn_cr_bear_40_n02134084_13663.png,n02134084_13663.png,1.0,2.831085,2.5265927,0.21530853
alexnet_w1_mlp_simclrhn_probe3,1,359,NaN,airplane,airplane,cr,0359_cl_dnn_cr_airplane_40_n02690373_2837.png,n02690373_2837.png,1.0,9.303953,4.9862976,3.0530436
alexnet_w1_mlp_simclrhn_probe3,1,360,NaN,airplane,airplane,bw,0360_cl_dnn_bw_airplane_40_n02690373_1492.png,n02690373_1492.png,1.0,7.7101393,2.1302917,3.945548
alexnet_w1_mlp_simclrhn_probe3,1,361,NaN,car,car,cr,0361_cl_dnn_cr_car_40_n03100240_14252.png,n03100240_14252.png,1.0,17.297518,8.805074,6.005065
alexnet_w1_mlp_simclrhn_probe3,1,362,NaN,chair,elephant,bw,0362_cl_dnn_bw_elephant_40_n02504458_4908.png,n02504458_4908.png,0.0,0.6448368,2.5676658,-1.3596455
alexnet_w1_mlp_simclrhn_probe3,1,363,NaN,bird,bird,bw,0363_cl_dnn_bw_bird_40_n01582220_5821.png,n01582220_5821.png,1.0,2.3522973,0.3535399,1.413335
alexnet_w1_mlp_simclrhn_probe3,1,364,NaN,cat,cat,cr,0364_cl_dnn_cr_cat_40_n02123045_2968.png,n02123045_2968.png,1.0,2.9873,0.8958745,1.4788611
alexnet_w1_mlp_simclrhn_probe3,1,365,NaN,dog,dog,cr,0365_cl_dnn_cr_dog_40_n02088466_1671.png,n02088466_1671.png,1.0,1.3666981,0.51368296,0.60317284
alexnet_w1_mlp_simclrhn_probe3,1,366,NaN,boat,boat,bw,0366_cl_dnn_bw_boat_40_n03344393_7659.png,n03344393_7659.png,1.0,9.852693,5.513115,3.0685449
alexnet_w1_mlp_simclrhn_probe3,1,367,NaN,bicycle,bicycle,bw,0367_cl_dnn_bw_bicycle_40_n03792782_3783.png,n03792782_3783.png,1.0,4.794737,0.4513011,3.0712729
alexnet_w1_mlp_simclrhn_probe3,1,368,NaN,airplane,airplane,cr,0368_cl_dnn_cr_airplane_40_n02690373_2059.png,n02690373_2059.png,1.0,8.021501,2.5013974,3.9033027
alexnet_w1_mlp_simclrhn_probe3,1,369,NaN,keyboard,keyboard,cr,0369_cl_dnn_cr_keyboard_40_n03085013_19483.png,n03085013_19483.png,1.0,3.3049417,1.6793088,1.1494961
alexnet_w1_mlp_simclrhn_probe3,1,370,NaN,bicycle,bicycle,bw,0370_cl_dnn_bw_bicycle_40_n03792782_2960.png,n03792782_2960.png,1.0,10.94416,1.4392241,6.721005
alexnet_w1_mlp_simclrhn_probe3,1,371,NaN,oven,keyboard,cr,0371_cl_dnn_cr_keyboard_40_n03085013_24538.png,n03085013_24538.png,0.0,2.5705876,2.6301174,-0.042093914
alexnet_w1_mlp_simclrhn_probe3,1,372,NaN,elephant,cat,cr,0372_cl_dnn_cr_cat_40_n02123597_9656.png,n02123597_9656.png,0.0,-0.55630374,1.2427,-1.2720877
alexnet_w1_mlp_simclrhn_probe3,1,373,NaN,car,car,cr,0373_cl_dnn_cr_car_40_n04285008_1085.png,n04285008_1085.png,1.0,16.187147,5.633334,7.4626727
alexnet_w1_mlp_simclrhn_probe3,1,374,NaN,dog,dog,cr,0374_cl_dnn_cr_dog_40_n02102177_5870.png,n02102177_5870.png,1.0,4.979843,2.1698036,1.9869981
alexnet_w1_mlp_simclrhn_probe3,1,375,NaN,keyboard,boat,cr,0375_cl_dnn_cr_boat_40_n03662601_24852.png,n03662601_24852.png,0.0,1.3263944,3.28654,-1.3860322
alexnet_w1_mlp_simclrhn_probe3,1,376,NaN,bicycle,bicycle,cr,0376_cl_dnn_cr_bicycle_40_n03792782_32379.png,n03792782_32379.png,1.0,9.356938,1.0745461,5.856536
alexnet_w1_mlp_simclrhn_probe3,1,377,NaN,knife,cat,cr,0377_cl_dnn_cr_cat_40_n02123597_12266.png,n02123597_12266.png,0.0,-1.0172973,0.86908305,-1.3338723
alexnet_w1_mlp_simclrhn_probe3,1,378,NaN,airplane,airplane,cr,0378_cl_dnn_cr_airplane_40_n02690373_713.png,n02690373_713.png,1.0,11.820542,3.135186,6.1414742
alexnet_w1_mlp_simclrhn_probe3,1,379,NaN,airplane,airplane,cr,0379_cl_dnn_cr_airplane_40_n02690373_6543.png,n02690373_6543.png,1.0,7.5078497,5.0714335,1.7228065
alexnet_w1_mlp_simclrhn_probe3,1,380,NaN,oven,oven,cr,0380_cl_dnn_cr_oven_40_n04111531_5888.png,n04111531_5888.png,1.0,4.5575743,2.261156,1.6238129
alexnet_w1_mlp_simclrhn_probe3,1,381,NaN,elephant,dog,bw,0381_cl_dnn_bw_dog_40_n02099601_7304.png,n02099601_7304.png,0.0,1.3040416,1.9233263,-0.43790036
alexnet_w1_mlp_simclrhn_probe3,1,382,NaN,bird,bird,bw,0382_cl_dnn_bw_bird_40_n01819313_146.png,n01819313_146.png,1.0,1.27042,0.5995721,0.47436106
alexnet_w1_mlp_simclrhn_probe3,1,383,NaN,car,car,bw,0383_cl_dnn_bw_car_40_n03100240_18873.png,n03100240_18873.png,1.0,12.76492,7.2712917,3.884582
alexnet_w1_mlp_simclrhn_probe3,1,384,NaN,elephant,dog,bw,0384_cl_dnn_bw_dog_40_n02100583_2707.png,n02100583_2707.png,0.0,2.1029377,2.8774323,-0.54765046
alexnet_w1_mlp_simclrhn_probe3,1,385,NaN,cat,dog,bw,0385_cl_dnn_bw_dog_40_n02105056_15484.png,n02105056_15484.png,0.0,0.8520005,2.5189648,-1.1787218
alexnet_w1_mlp_simclrhn_probe3,1,386,NaN,truck,truck,bw,0386_cl_dnn_bw_truck_40_n04467665_66535.png,n04467665_66535.png,1.0,6.5480776,2.253529,3.0367045
alexnet_w1_mlp_simclrhn_probe3,1,387,NaN,elephant,elephant,bw,0387_cl_dnn_bw_elephant_40_n02504458_12303.png,n02504458_12303.png,1.0,8.750976,5.139163,2.5539372
alexnet_w1_mlp_simclrhn_probe3,1,388,NaN,bottle,bottle,cr,0388_cl_dnn_cr_bottle_40_n03937543_4586.png,n03937543_4586.png,1.0,4.753894,1.3653487,2.3960633
alexnet_w1_mlp_simclrhn_probe3,1,389,NaN,cat,bird,cr,0389_cl_dnn_cr_bird_40_n02007558_19064.png,n02007558_19064.png,0.0,1.6435196,2.8068016,-0.82256454
alexnet_w1_mlp_simclrhn_probe3,1,390,NaN,oven,oven,bw,0390_cl_dnn_bw_oven_40_n04111531_5904.png,n04111531_5904.png,1.0,4.674265,1.4843206,2.2556312
alexnet_w1_mlp_simclrhn_probe3,1,391,NaN,airplane,keyboard,cr,0391_cl_dnn_cr_keyboard_40_n03085013_18625.png,n03085013_18625.png,0.0,0.31556714,0.71721685,-0.28400925
alexnet_w1_mlp_simclrhn_probe3,1,392,NaN,bottle,bottle,cr,0392_cl_dnn_cr_bottle_40_n04579145_445.png,n04579145_445.png,1.0,6.3008885,2.9961073,2.3368332
alexnet_w1_mlp_simclrhn_probe3,1,393,NaN,oven,keyboard,bw,0393_cl_dnn_bw_keyboard_40_n03085013_22820.png,n03085013_22820.png,0.0,5.0858803,5.3366737,-0.17733775
alexnet_w1_mlp_simclrhn_probe3,1,394,NaN,truck,truck,cr,0394_cl_dnn_cr_truck_40_n03417042_19479.png,n03417042_19479.png,1.0,7.8562384,1.5722399,4.443458
alexnet_w1_mlp_simclrhn_probe3,1,395,NaN,bird,bird,bw,0395_cl_dnn_bw_bird_40_n01833805_28946.png,n01833805_28946.png,1.0,1.704918,0.59928954,0.7817974
alexnet_w1_mlp_simclrhn_probe3,1,396,NaN,bottle,bottle,bw,0396_cl_dnn_bw_bottle_40_n04591713_3896.png,n04591713_3896.png,1.0,1.562032,1.0354385,0.37235782
alexnet_w1_mlp_simclrhn_probe3,1,397,NaN,cat,cat,cr,0397_cl_dnn_cr_cat_40_n02123159_782.png,n02123159_782.png,1.0,12.460136,1.3627574,7.847032
alexnet_w1_mlp_simclrhn_probe3,1,398,NaN,keyboard,keyboard,bw,0398_cl_dnn_bw_keyboard_40_n04505470_464.png,n04505470_464.png,1.0,2.6008022,1.2804998,0.93359476
alexnet_w1_mlp_simclrhn_probe3,1,399,NaN,bird,bird,cr,0399_cl_dnn_cr_bird_40_n01558993_3939.png,n01558993_3939.png,1.0,5.4828973,0.2958472,3.6677983
alexnet_w1_mlp_simclrhn_probe3,1,400,NaN,boat,boat,cr,0400_cl_dnn_cr_boat_40_n04273569_3052.png,n04273569_3052.png,1.0,6.849719,1.3755028,3.8708556
alexnet_w1_mlp_simclrhn_probe3,1,401,NaN,knife,knife,bw,0401_cl_dnn_bw_knife_40_n03041632_85416.png,n03041632_85416.png,1.0,2.3792565,1.3749304,0.7101658
alexnet_w1_mlp_simclrhn_probe3,1,402,NaN,car,car,bw,0402_cl_dnn_bw_car_40_n02814533_51154.png,n02814533_51154.png,1.0,16.066189,12.272863,2.6822863
alexnet_w1_mlp_simclrhn_probe3,1,403,NaN,airplane,airplane,bw,0403_cl_dnn_bw_airplane_40_n02690373_6516.png,n02690373_6516.png,1.0,8.755018,5.768753,2.1116085
alexnet_w1_mlp_simclrhn_probe3,1,404,NaN,airplane,airplane,cr,0404_cl_dnn_cr_airplane_40_n02690373_12813.png,n02690373_12813.png,1.0,11.851558,1.7052574,7.174518
alexnet_w1_mlp_simclrhn_probe3,1,405,NaN,airplane,airplane,bw,0405_cl_dnn_bw_airplane_40_n02690373_6406.png,n02690373_6406.png,1.0,8.748554,2.2602603,4.5879164
alexnet_w1_mlp_simclrhn_probe3,1,406,NaN,knife,chair,cr,0406_cl_dnn_cr_chair_40_n03376595_8228.png,n03376595_8228.png,0.0,2.1060622,2.4184327,-0.22087933
alexnet_w1_mlp_simclrhn_probe3,1,407,NaN,knife,chair,bw,0407_cl_dnn_bw_chair_40_n04099969_6309.png,n04099969_6309.png,0.0,0.65753806,1.8212926,-0.82289875
alexnet_w1_mlp_simclrhn_probe3,1,408,NaN,elephant,elephant,cr,0408_cl_dnn_cr_elephant_40_n02504013_19831.png,n02504013_19831.png,1.0,15.889816,7.019217,6.2724614
alexnet_w1_mlp_simclrhn_probe3,1,409,NaN,knife,bottle,bw,0409_cl_dnn_bw_bottle_40_n03937543_5088.png,n03937543_5088.png,0.0,0.6735183,1.8100163,-0.80362546
alexnet_w1_mlp_simclrhn_probe3,1,410,NaN,elephant,elephant,cr,0410_cl_dnn_cr_elephant_40_n02504458_2190.png,n02504458_2190.png,1.0,2.289868,0.6857648,1.1342723
alexnet_w1_mlp_simclrhn_probe3,1,411,NaN,car,car,bw,0411_cl_dnn_bw_car_40_n04285008_5997.png,n04285008_5997.png,1.0,10.341165,3.3085155,4.972834
alexnet_w1_mlp_simclrhn_probe3,1,412,NaN,bottle,knife,cr,0412_cl_dnn_cr_knife_40_n03041632_94620.png,n03041632_94620.png,0.0,0.14226554,2.3446095,-1.5572923
alexnet_w1_mlp_simclrhn_probe3,1,413,NaN,bicycle,bicycle,cr,0413_cl_dnn_cr_bicycle_40_n02835271_8125.png,n02835271_8125.png,1.0,8.954206,3.3885152,3.9355378
alexnet_w1_mlp_simclrhn_probe3,1,414,NaN,oven,oven,cr,0414_cl_dnn_cr_oven_40_n04111531_4662.png,n04111531_4662.png,1.0,4.4314,1.1369392,2.3295355
alexnet_w1_mlp_simclrhn_probe3,1,415,NaN,bicycle,dog,bw,0415_cl_dnn_bw_dog_40_n02110806_21755.png,n02110806_21755.png,0.0,1.3115277,6.5150924,-3.679476
alexnet_w1_mlp_simclrhn_probe3,1,416,NaN,bottle,bottle,bw,0416_cl_dnn_bw_bottle_40_n02823428_3505.png,n02823428_3505.png,1.0,1.5793982,1.3303939,0.1760726
alexnet_w1_mlp_simclrhn_probe3,1,417,NaN,cat,cat,cr,0417_cl_dnn_cr_cat_40_n02123045_11472.png,n02123045_11472.png,1.0,8.367934,0.7498694,5.3867855
alexnet_w1_mlp_simclrhn_probe3,1,418,NaN,boat,boat,cr,0418_cl_dnn_cr_boat_40_n03662601_14818.png,n03662601_14818.png,1.0,7.689496,4.201433,2.466433
alexnet_w1_mlp_simclrhn_probe3,1,419,NaN,bicycle,bicycle,cr,0419_cl_dnn_cr_bicycle_40_n02835271_8322.png,n02835271_8322.png,1.0,8.773365,3.9338381,3.4220624
alexnet_w1_mlp_simclrhn_probe3,1,420,NaN,oven,knife,bw,0420_cl_dnn_bw_knife_40_n03041632_9580.png,n03041632_9580.png,0.0,2.5134757,2.5974283,-0.0593635
alexnet_w1_mlp_simclrhn_probe3,1,421,NaN,dog,dog,bw,0421_cl_dnn_bw_dog_40_n02088466_3052.png,n02088466_3052.png,1.0,1.4637581,0.15496492,0.9254565
alexnet_w1_mlp_simclrhn_probe3,1,422,NaN,keyboard,keyboard,cr,0422_cl_dnn_cr_keyboard_40_n04505470_7161.png,n04505470_7161.png,1.0,14.471332,2.4134557,8.526206
alexnet_w1_mlp_simclrhn_probe3,1,423,NaN,keyboard,keyboard,cr,0423_cl_dnn_cr_keyboard_40_n04505470_2321.png,n04505470_2321.png,1.0,6.0448737,2.3207903,2.6333246
alexnet_w1_mlp_simclrhn_probe3,1,424,NaN,oven,knife,cr,0424_cl_dnn_cr_knife_40_n03041632_6708.png,n03041632_6708.png,0.0,1.8030124,3.6983695,-1.3402199
alexnet_w1_mlp_simclrhn_probe3,1,425,NaN,keyboard,keyboard,bw,0425_cl_dnn_bw_keyboard_40_n04505470_4965.png,n04505470_4965.png,1.0,12.023022,4.9208984,5.02196
alexnet_w1_mlp_simclrhn_probe3,1,426,NaN,cat,cat,bw,0426_cl_dnn_bw_cat_40_n02123597_11981.png,n02123597_11981.png,1.0,3.8770916,2.4679658,0.99640244
alexnet_w1_mlp_simclrhn_probe3,1,427,NaN,truck,truck,cr,0427_cl_dnn_cr_truck_40_n03417042_2778.png,n03417042_2778.png,1.0,7.0022883,1.9965229,3.5396109
alexnet_w1_mlp_simclrhn_probe3,1,428,NaN,car,car,cr,0428_cl_dnn_cr_car_40_n02814533_80049.png,n02814533_80049.png,1.0,13.763368,10.337912,2.4221632
alexnet_w1_mlp_simclrhn_probe3,1,429,NaN,cat,keyboard,cr,0429_cl_dnn_cr_keyboard_40_n03085013_23561.png,n03085013_23561.png,0.0,-0.26113075,1.313625,-1.1135204
alexnet_w1_mlp_simclrhn_probe3,1,430,NaN,airplane,airplane,bw,0430_cl_dnn_bw_airplane_40_n02690373_1800.png,n02690373_1800.png,1.0,4.726422,2.3994703,1.6454033
alexnet_w1_mlp_simclrhn_probe3,1,431,NaN,chair,chair,bw,0431_cl_dnn_bw_chair_40_n02791124_4306.png,n02791124_4306.png,1.0,1.5712857,1.0225953,0.38798273
alexnet_w1_mlp_simclrhn_probe3,1,432,NaN,elephant,knife,bw,0432_cl_dnn_bw_knife_40_n03041632_33424.png,n03041632_33424.png,0.0,1.5507857,2.0270157,-0.3367455
alexnet_w1_mlp_simclrhn_probe3,1,433,NaN,boat,boat,cr,0433_cl_dnn_cr_boat_40_n04273569_111.png,n04273569_111.png,1.0,5.318342,3.5534315,1.2479804
alexnet_w1_mlp_simclrhn_probe3,1,434,NaN,bear,bear,bw,0434_cl_dnn_bw_bear_40_n02132136_4403.png,n02132136_4403.png,1.0,6.3326273,1.3532817,3.5209289
alexnet_w1_mlp_simclrhn_probe3,1,435,NaN,bicycle,bicycle,bw,0435_cl_dnn_bw_bicycle_40_n03792782_49707.png,n03792782_49707.png,1.0,2.2451525,1.9843636,0.18440561
alexnet_w1_mlp_simclrhn_probe3,1,436,NaN,bicycle,bicycle,cr,0436_cl_dnn_cr_bicycle_40_n02835271_3308.png,n02835271_3308.png,1.0,8.7841,1.9220173,4.8522253
alexnet_w1_mlp_simclrhn_probe3,1,437,NaN,clock,clock,bw,0437_cl_dnn_bw_clock_40_n04548280_3305.png,n04548280_3305.png,1.0,3.6313684,1.5610539,1.4639333
alexnet_w1_mlp_simclrhn_probe3,1,438,NaN,boat,boat,bw,0438_cl_dnn_bw_boat_40_n03344393_7614.png,n03344393_7614.png,1.0,9.720396,7.603175,1.4971013
alexnet_w1_mlp_simclrhn_probe3,1,439,NaN,chair,bicycle,bw,0439_cl_dnn_bw_bicycle_40_n02835271_9434.png,n02835271_9434.png,0.0,2.4015546,3.9724224,-1.1107713
alexnet_w1_mlp_simclrhn_probe3,1,440,NaN,bicycle,truck,bw,0440_cl_dnn_bw_truck_40_n03417042_3039.png,n03417042_3039.png,0.0,0.4836493,1.599416,-0.78896624
alexnet_w1_mlp_simclrhn_probe3,1,441,NaN,oven,oven,cr,0441_cl_dnn_cr_oven_40_n04111531_5519.png,n04111531_5519.png,1.0,2.9482095,0.22384495,1.9264166
alexnet_w1_mlp_simclrhn_probe3,1,442,NaN,bottle,bottle,cr,0442_cl_dnn_cr_bottle_40_n03983396_3702.png,n03983396_3702.png,1.0,2.9970117,0.39438942,1.8403319
alexnet_w1_mlp_simclrhn_probe3,1,443,NaN,bicycle,clock,cr,0443_cl_dnn_cr_clock_40_n04548280_2177.png,n04548280_2177.png,0.0,3.6731389,6.776332,-2.194289
alexnet_w1_mlp_simclrhn_probe3,1,444,NaN,bottle,bottle,cr,0444_cl_dnn_cr_bottle_40_n03983396_4132.png,n03983396_4132.png,1.0,10.027846,0.8842197,6.4655204
alexnet_w1_mlp_simclrhn_probe3,1,445,NaN,bicycle,bicycle,cr,0445_cl_dnn_cr_bicycle_40_n02835271_17509.png,n02835271_17509.png,1.0,7.859978,2.7392604,3.6208944
alexnet_w1_mlp_simclrhn_probe3,1,446,NaN,airplane,airplane,bw,0446_cl_dnn_bw_airplane_40_n02690373_3090.png,n02690373_3090.png,1.0,6.4298196,1.289377,3.6348422
alexnet_w1_mlp_simclrhn_probe3,1,447,NaN,keyboard,chair,cr,0447_cl_dnn_cr_chair_40_n03376595_1302.png,n03376595_1302.png,0.0,3.579054,3.9716706,-0.2776218
alexnet_w1_mlp_simclrhn_probe3,1,448,NaN,dog,dog,cr,0448_cl_dnn_cr_dog_40_n02107683_3640.png,n02107683_3640.png,1.0,3.6131804,2.1371546,1.0437078
alexnet_w1_mlp_simclrhn_probe3,1,449,NaN,car,car,cr,0449_cl_dnn_cr_car_40_n03100240_770.png,n03100240_770.png,1.0,13.075764,9.798411,2.3174381
alexnet_w1_mlp_simclrhn_probe3,1,450,NaN,bottle,knife,cr,0450_cl_dnn_cr_knife_40_n03041632_4305.png,n03041632_4305.png,0.0,0.63859737,1.156732,-0.3663765
alexnet_w1_mlp_simclrhn_probe3,1,451,NaN,elephant,elephant,cr,0451_cl_dnn_cr_elephant_40_n02504013_4590.png,n02504013_4590.png,1.0,4.478457,2.4086354,1.4635849
alexnet_w1_mlp_simclrhn_probe3,1,452,NaN,truck,truck,cr,0452_cl_dnn_cr_truck_40_n03417042_5752.png,n03417042_5752.png,1.0,1.939916,1.8039242,0.09616073
alexnet_w1_mlp_simclrhn_probe3,1,453,NaN,oven,oven,cr,0453_cl_dnn_cr_oven_40_n04111531_21931.png,n04111531_21931.png,1.0,6.0850554,1.549521,3.207107
alexnet_w1_mlp_simclrhn_probe3,1,454,NaN,elephant,elephant,bw,0454_cl_dnn_bw_elephant_40_n02504458_4711.png,n02504458_4711.png,1.0,6.271727,2.3569107,2.7681932
alexnet_w1_mlp_simclrhn_probe3,1,455,NaN,oven,clock,bw,0455_cl_dnn_bw_clock_40_n02708093_8033.png,n02708093_8033.png,0.0,3.311076,4.4686165,-0.8185048
alexnet_w1_mlp_simclrhn_probe3,1,456,NaN,bicycle,bicycle,bw,0456_cl_dnn_bw_bicycle_40_n03792782_41992.png,n03792782_41992.png,1.0,16.244259,4.498767,8.305317
alexnet_w1_mlp_simclrhn_probe3,1,457,NaN,knife,keyboard,cr,0457_cl_dnn_cr_keyboard_40_n03085013_5622.png,n03085013_5622.png,0.0,2.759797,2.9725509,-0.15043963
alexnet_w1_mlp_simclrhn_probe3,1,458,NaN,bird,bird,bw,0458_cl_dnn_bw_bird_40_n02009912_1919.png,n02009912_1919.png,1.0,4.153583,0.6785444,2.4572234
alexnet_w1_mlp_simclrhn_probe3,1,459,NaN,bottle,bottle,cr,0459_cl_dnn_cr_bottle_40_n03937543_4202.png,n03937543_4202.png,1.0,2.865196,0.88305926,1.4015824
alexnet_w1_mlp_simclrhn_probe3,1,460,NaN,bicycle,bicycle,bw,0460_cl_dnn_bw_bicycle_40_n02835271_4341.png,n02835271_4341.png,1.0,5.8600683,1.012149,3.4279969
alexnet_w1_mlp_simclrhn_probe3,1,461,NaN,bear,bear,bw,0461_cl_dnn_bw_bear_40_n02132136_18543.png,n02132136_18543.png,1.0,5.0683,2.9266713,1.5143601
alexnet_w1_mlp_simclrhn_probe3,1,462,NaN,cat,cat,bw,0462_cl_dnn_bw_cat_40_n02124075_14425.png,n02124075_14425.png,1.0,9.111852,2.9678564,4.344461
alexnet_w1_mlp_simclrhn_probe3,1,463,NaN,clock,clock,bw,0463_cl_dnn_bw_clock_40_n02708093_544.png,n02708093_544.png,1.0,1.9195033,0.34050548,1.11652
alexnet_w1_mlp_simclrhn_probe3,1,464,NaN,bear,bear,cr,0464_cl_dnn_cr_bear_40_n02133161_7604.png,n02133161_7604.png,1.0,2.5403447,1.2119255,0.9393343
alexnet_w1_mlp_simclrhn_probe3,1,465,NaN,car,car,bw,0465_cl_dnn_bw_car_40_n03100240_15407.png,n03100240_15407.png,1.0,8.325444,5.568101,1.9497361
alexnet_w1_mlp_simclrhn_probe3,1,466,NaN,bicycle,bicycle,bw,0466_cl_dnn_bw_bicycle_40_n02835271_12926.png,n02835271_12926.png,1.0,7.8714786,1.1856751,4.727577
alexnet_w1_mlp_simclrhn_probe3,1,467,NaN,knife,chair,cr,0467_cl_dnn_cr_chair_40_n03376595_2056.png,n03376595_2056.png,0.0,0.76688915,1.3235407,-0.3936121
alexnet_w1_mlp_simclrhn_probe3,1,468,NaN,oven,oven,bw,0468_cl_dnn_bw_oven_40_n04111531_9762.png,n04111531_9762.png,1.0,5.2262335,0.97190756,3.0082626
alexnet_w1_mlp_simclrhn_probe3,1,469,NaN,bicycle,bicycle,bw,0469_cl_dnn_bw_bicycle_40_n03792782_25799.png,n03792782_25799.png,1.0,4.8196554,0.96796256,2.7235582
alexnet_w1_mlp_simclrhn_probe3,1,470,NaN,oven,oven,cr,0470_cl_dnn_cr_oven_40_n04111531_3570.png,n04111531_3570.png,1.0,3.339532,0.47655347,2.0244315
alexnet_w1_mlp_simclrhn_probe3,1,471,NaN,car,car,cr,0471_cl_dnn_cr_car_40_n04285008_874.png,n04285008_874.png,1.0,9.946216,5.629983,3.0520375
alexnet_w1_mlp_simclrhn_probe3,1,472,NaN,bicycle,bottle,cr,0472_cl_dnn_cr_bottle_40_n04557648_364.png,n04557648_364.png,0.0,-0.70040715,3.62763,-3.0603845
alexnet_w1_mlp_simclrhn_probe3,1,473,NaN,airplane,airplane,bw,0473_cl_dnn_bw_airplane_40_n02690373_8461.png,n02690373_8461.png,1.0,6.3582363,1.6519967,3.327814
alexnet_w1_mlp_simclrhn_probe3,1,474,NaN,boat,boat,cr,0474_cl_dnn_cr_boat_40_n04273569_1087.png,n04273569_1087.png,1.0,12.389183,3.7984884,6.074538
alexnet_w1_mlp_simclrhn_probe3,1,475,NaN,chair,chair,cr,0475_cl_dnn_cr_chair_40_n03376595_1798.png,n03376595_1798.png,1.0,4.2744536,0.77075344,2.4774902
alexnet_w1_mlp_simclrhn_probe3,1,476,NaN,oven,oven,cr,0476_cl_dnn_cr_oven_40_n04111531_5290.png,n04111531_5290.png,1.0,5.864418,2.7537549,2.1995711
alexnet_w1_mlp_simclrhn_probe3,1,477,NaN,cat,cat,bw,0477_cl_dnn_bw_cat_40_n02124075_12369.png,n02124075_12369.png,1.0,3.136903,1.1281891,1.4203752
alexnet_w1_mlp_simclrhn_probe3,1,478,NaN,elephant,elephant,bw,0478_cl_dnn_bw_elephant_40_n02504458_3714.png,n02504458_3714.png,1.0,5.451193,1.8633804,2.5369666
alexnet_w1_mlp_simclrhn_probe3,1,479,NaN,bicycle,bicycle,bw,0479_cl_dnn_bw_bicycle_40_n03792782_7388.png,n03792782_7388.png,1.0,1.7469132,0.95760196,0.55812734
alexnet_w1_mlp_simclrhn_probe3,1,480,NaN,truck,truck,cr,0480_cl_dnn_cr_truck_40_n03796401_18240.png,n03796401_18240.png,1.0,4.1753597,0.5020631,2.597413
alexnet_w1_mlp_simclrhn_probe3,1,481,NaN,airplane,airplane,cr,0481_cl_dnn_cr_airplane_40_n02690373_610.png,n02690373_610.png,1.0,8.544308,3.3903365,3.644408
alexnet_w1_mlp_simclrhn_probe3,1,482,NaN,airplane,airplane,bw,0482_cl_dnn_bw_airplane_40_n02690373_6046.png,n02690373_6046.png,1.0,13.324692,1.419952,8.417922
alexnet_w1_mlp_simclrhn_probe3,1,483,NaN,bear,dog,cr,0483_cl_dnn_cr_dog_40_n02105505_4069.png,n02105505_4069.png,0.0,2.521973,2.6766493,-0.10937276
alexnet_w1_mlp_simclrhn_probe3,1,484,NaN,oven,chair,bw,0484_cl_dnn_bw_chair_40_n04429376_1954.png,n04429376_1954.png,0.0,1.3758715,3.2980533,-1.3591877
alexnet_w1_mlp_simclrhn_probe3,1,485,NaN,oven,oven,bw,0485_cl_dnn_bw_oven_40_n04111531_7862.png,n04111531_7862.png,1.0,6.4324284,1.0146081,3.8309772
alexnet_w1_mlp_simclrhn_probe3,1,486,NaN,car,chair,cr,0486_cl_dnn_cr_chair_40_n02791124_7424.png,n02791124_7424.png,0.0,2.6829996,3.082197,-0.28227514
alexnet_w1_mlp_simclrhn_probe3,1,487,NaN,elephant,dog,bw,0487_cl_dnn_bw_dog_40_n02088466_5521.png,n02088466_5521.png,0.0,2.610207,3.6888316,-0.7627027
alexnet_w1_mlp_simclrhn_probe3,1,488,NaN,bird,bear,cr,0488_cl_dnn_cr_bear_40_n02133161_12868.png,n02133161_12868.png,0.0,0.6122067,1.3945917,-0.55322975
alexnet_w1_mlp_simclrhn_probe3,1,489,NaN,keyboard,keyboard,bw,0489_cl_dnn_bw_keyboard_40_n04505470_4107.png,n04505470_4107.png,1.0,7.9046507,5.7910056,1.4945728
alexnet_w1_mlp_simclrhn_probe3,1,490,NaN,boat,boat,bw,0490_cl_dnn_bw_boat_40_n03662601_855.png,n03662601_855.png,1.0,10.217735,3.2278175,4.9426184
alexnet_w1_mlp_simclrhn_probe3,1,491,NaN,bird,bird,cr,0491_cl_dnn_cr_bird_40_n02017213_7558.png,n02017213_7558.png,1.0,4.1079054,1.106904,2.1220284
alexnet_w1_mlp_simclrhn_probe3,1,492,NaN,airplane,bottle,bw,0492_cl_dnn_bw_bottle_40_n04557648_23801.png,n04557648_23801.png,0.0,-0.36325735,3.6922898,-2.867705
alexnet_w1_mlp_simclrhn_probe3,1,493,NaN,bird,bird,bw,0493_cl_dnn_bw_bird_40_n01601694_13054.png,n01601694_13054.png,1.0,3.808972,0.78718626,2.1367252
alexnet_w1_mlp_simclrhn_probe3,1,494,NaN,oven,oven,bw,0494_cl_dnn_bw_oven_40_n04111531_2207.png,n04111531_2207.png,1.0,6.428198,1.29109,3.632484
alexnet_w1_mlp_simclrhn_probe3,1,495,NaN,bird,bird,bw,0495_cl_dnn_bw_bird_40_n02009912_9425.png,n02009912_9425.png,1.0,4.2724156,0.2869703,2.8181355
alexnet_w1_mlp_simclrhn_probe3,1,496,NaN,keyboard,clock,cr,0496_cl_dnn_cr_clock_40_n03196217_6193.png,n03196217_6193.png,0.0,4.204257,5.020072,-0.5768683
alexnet_w1_mlp_simclrhn_probe3,1,497,NaN,boat,boat,bw,0497_cl_dnn_bw_boat_40_n04273569_27625.png,n04273569_27625.png,1.0,7.727884,2.312583,3.829196
alexnet_w1_mlp_simclrhn_probe3,1,498,NaN,chair,truck,bw,0498_cl_dnn_bw_truck_40_n03417042_29855.png,n03417042_29855.png,0.0,2.4050968,3.3396351,-0.6608184
alexnet_w1_mlp_simclrhn_probe3,1,499,NaN,bottle,bottle,cr,0499_cl_dnn_cr_bottle_40_n03983396_4212.png,n03983396_4212.png,1.0,5.3904643,2.2149296,2.2454422
alexnet_w1_mlp_simclrhn_probe3,1,500,NaN,elephant,cat,bw,0500_cl_dnn_bw_cat_40_n02123597_11613.png,n02123597_11613.png,0.0,3.6675384,3.981826,-0.22223493
alexnet_w1_mlp_simclrhn_probe3,1,501,NaN,clock,clock,cr,0501_cl_dnn_cr_clock_40_n02708093_1559.png,n02708093_1559.png,1.0,1.7856327,1.5639102,0.15678148
alexnet_w1_mlp_simclrhn_probe3,1,502,NaN,chair,chair,cr,0502_cl_dnn_cr_chair_40_n02791124_7031.png,n02791124_7031.png,1.0,2.8507128,2.4031775,0.31645525
alexnet_w1_mlp_simclrhn_probe3,1,503,NaN,bottle,bottle,cr,0503_cl_dnn_cr_bottle_40_n04560804_1703.png,n04560804_1703.png,1.0,3.5287783,2.4109662,0.79041255
alexnet_w1_mlp_simclrhn_probe3,1,504,NaN,bottle,bottle,bw,0504_cl_dnn_bw_bottle_40_n04560804_15679.png,n04560804_15679.png,1.0,5.638795,2.3155513,2.349888
alexnet_w1_mlp_simclrhn_probe3,1,505,NaN,bottle,bottle,bw,0505_cl_dnn_bw_bottle_40_n03983396_1006.png,n03983396_1006.png,1.0,4.294177,2.152989,1.5140487
alexnet_w1_mlp_simclrhn_probe3,1,506,NaN,chair,knife,bw,0506_cl_dnn_bw_knife_40_n03041632_100645.png,n03041632_100645.png,0.0,1.2140353,1.364521,-0.1064095
alexnet_w1_mlp_simclrhn_probe3,1,507,NaN,car,car,cr,0507_cl_dnn_cr_car_40_n02814533_54845.png,n02814533_54845.png,1.0,11.023567,8.526372,1.7657837
alexnet_w1_mlp_simclrhn_probe3,1,508,NaN,keyboard,keyboard,cr,0508_cl_dnn_cr_keyboard_40_n03085013_20078.png,n03085013_20078.png,1.0,2.8786855,1.6152694,0.8933701
alexnet_w1_mlp_simclrhn_probe3,1,509,NaN,elephant,chair,cr,0509_cl_dnn_cr_chair_40_n04099969_4543.png,n04099969_4543.png,0.0,2.0730238,2.2732368,-0.14157194
alexnet_w1_mlp_simclrhn_probe3,1,510,NaN,bear,bear,cr,0510_cl_dnn_cr_bear_40_n02134418_1253.png,n02134418_1253.png,1.0,4.84096,3.3211472,1.07467
alexnet_w1_mlp_simclrhn_probe3,1,511,NaN,bicycle,bicycle,bw,0511_cl_dnn_bw_bicycle_40_n02835271_8137.png,n02835271_8137.png,1.0,7.7549324,1.2299563,4.613855
alexnet_w1_mlp_simclrhn_probe3,1,512,NaN,keyboard,keyboard,bw,0512_cl_dnn_bw_keyboard_40_n04505470_7312.png,n04505470_7312.png,1.0,6.2007456,1.6546808,3.2145534
alexnet_w1_mlp_simclrhn_probe3,1,513,NaN,elephant,elephant,cr,0513_cl_dnn_cr_elephant_40_n02504013_2460.png,n02504013_2460.png,1.0,11.527511,3.0063605,6.0253634
alexnet_w1_mlp_simclrhn_probe3,1,514,NaN,bicycle,clock,cr,0514_cl_dnn_cr_clock_40_n04548280_13469.png,n04548280_13469.png,0.0,0.623812,0.95272595,-0.23257728
alexnet_w1_mlp_simclrhn_probe3,1,515,NaN,car,chair,cr,0515_cl_dnn_cr_chair_40_n02791124_3161.png,n02791124_3161.png,0.0,1.5635741,2.7421305,-0.83336526
alexnet_w1_mlp_simclrhn_probe3,1,516,NaN,elephant,dog,cr,0516_cl_dnn_cr_dog_40_n02093647_1818.png,n02093647_1818.png,0.0,0.92460954,4.8337073,-2.7641494
alexnet_w1_mlp_simclrhn_probe3,1,517,NaN,oven,chair,cr,0517_cl_dnn_cr_chair_40_n02791124_4294.png,n02791124_4294.png,0.0,2.4668818,2.4943454,-0.01941975
alexnet_w1_mlp_simclrhn_probe3,1,518,NaN,cat,cat,cr,0518_cl_dnn_cr_cat_40_n02124075_3533.png,n02124075_3533.png,1.0,11.758907,1.6864383,7.122311
alexnet_w1_mlp_simclrhn_probe3,1,519,NaN,boat,boat,cr,0519_cl_dnn_cr_boat_40_n03344393_2480.png,n03344393_2480.png,1.0,6.348405,2.5594764,2.679177
alexnet_w1_mlp_simclrhn_probe3,1,520,NaN,car,car,bw,0520_cl_dnn_bw_car_40_n02814533_95054.png,n02814533_95054.png,1.0,4.1998105,1.4240757,1.962741
alexnet_w1_mlp_simclrhn_probe3,1,521,NaN,bottle,bottle,cr,0521_cl_dnn_cr_bottle_40_n03937543_1808.png,n03937543_1808.png,1.0,8.177016,1.8763702,4.4552293
alexnet_w1_mlp_simclrhn_probe3,1,522,NaN,car,car,cr,0522_cl_dnn_cr_car_40_n02814533_72213.png,n02814533_72213.png,1.0,12.247592,4.5242143,5.4612527
alexnet_w1_mlp_simclrhn_probe3,1,523,NaN,keyboard,clock,cr,0523_cl_dnn_cr_clock_40_n03196217_1499.png,n03196217_1499.png,0.0,2.1857994,4.1736,-1.4055874
alexnet_w1_mlp_simclrhn_probe3,1,524,NaN,cat,cat,cr,0524_cl_dnn_cr_cat_40_n02123045_5300.png,n02123045_5300.png,1.0,6.547304,1.6048583,3.494837
alexnet_w1_mlp_simclrhn_probe3,1,525,NaN,bird,bird,bw,0525_cl_dnn_bw_bird_40_n02006656_3185.png,n02006656_3185.png,1.0,1.0055828,0.72146356,0.20090266
alexnet_w1_mlp_simclrhn_probe3,1,526,NaN,clock,clock,cr,0526_cl_dnn_cr_clock_40_n03196217_4541.png,n03196217_4541.png,1.0,3.1867707,2.3224244,0.61118513
alexnet_w1_mlp_simclrhn_probe3,1,527,NaN,cat,cat,cr,0527_cl_dnn_cr_cat_40_n02123159_2317.png,n02123159_2317.png,1.0,12.107236,0.6791742,8.08086
alexnet_w1_mlp_simclrhn_probe3,1,528,NaN,elephant,bear,cr,0528_cl_dnn_cr_bear_40_n02133161_1362.png,n02133161_1362.png,0.0,3.8482273,4.5913324,-0.5254547
alexnet_w1_mlp_simclrhn_probe3,1,529,NaN,clock,clock,bw,0529_cl_dnn_bw_clock_40_n04548280_1202.png,n04548280_1202.png,1.0,3.7894032,2.3149745,1.0425785
alexnet_w1_mlp_simclrhn_probe3,1,530,NaN,bear,dog,bw,0530_cl_dnn_bw_dog_40_n02095570_6717.png,n02095570_6717.png,0.0,1.6956556,2.6239014,-0.6563689
alexnet_w1_mlp_simclrhn_probe3,1,531,NaN,car,car,bw,0531_cl_dnn_bw_car_40_n03100240_15941.png,n03100240_15941.png,1.0,11.062836,9.105202,1.3842562
alexnet_w1_mlp_simclrhn_probe3,1,532,NaN,oven,chair,bw,0532_cl_dnn_bw_chair_40_n02791124_1443.png,n02791124_1443.png,0.0,0.68525714,1.3101308,-0.44185245
alexnet_w1_mlp_simclrhn_probe3,1,533,NaN,bottle,bottle,cr,0533_cl_dnn_cr_bottle_40_n04557648_830.png,n04557648_830.png,1.0,8.0392475,4.000977,2.8554885
alexnet_w1_mlp_simclrhn_probe3,1,534,NaN,truck,truck,cr,0534_cl_dnn_cr_truck_40_n03417042_8298.png,n03417042_8298.png,1.0,14.29706,7.3595886,4.9055333
alexnet_w1_mlp_simclrhn_probe3,1,535,NaN,clock,clock,bw,0535_cl_dnn_bw_clock_40_n02708093_4569.png,n02708093_4569.png,1.0,8.970107,0.69006854,5.8548717
alexnet_w1_mlp_simclrhn_probe3,1,536,NaN,keyboard,keyboard,cr,0536_cl_dnn_cr_keyboard_40_n03085013_7576.png,n03085013_7576.png,1.0,2.913922,1.4374136,1.0440491
alexnet_w1_mlp_simclrhn_probe3,1,537,NaN,truck,truck,bw,0537_cl_dnn_bw_truck_40_n03417042_27093.png,n03417042_27093.png,1.0,9.303448,2.6017964,4.7387834
alexnet_w1_mlp_simclrhn_probe3,1,538,NaN,elephant,elephant,cr,0538_cl_dnn_cr_elephant_40_n02504013_13560.png,n02504013_13560.png,1.0,1.599905,1.4835373,0.08228439
alexnet_w1_mlp_simclrhn_probe3,1,539,NaN,car,car,bw,0539_cl_dnn_bw_car_40_n04285008_12045.png,n04285008_12045.png,1.0,11.150372,6.6135373,3.2080264
alexnet_w1_mlp_simclrhn_probe3,1,540,NaN,airplane,airplane,cr,0540_cl_dnn_cr_airplane_40_n02690373_5176.png,n02690373_5176.png,1.0,15.7241955,4.844856,7.692855
alexnet_w1_mlp_simclrhn_probe3,1,541,NaN,bicycle,bicycle,bw,0541_cl_dnn_bw_bicycle_40_n03792782_6194.png,n03792782_6194.png,1.0,6.8194413,1.6724943,3.639441
alexnet_w1_mlp_simclrhn_probe3,1,542,NaN,oven,oven,cr,0542_cl_dnn_cr_oven_40_n04111531_15912.png,n04111531_15912.png,1.0,5.24263,1.4599814,2.6747365
alexnet_w1_mlp_simclrhn_probe3,1,543,NaN,oven,oven,cr,0543_cl_dnn_cr_oven_40_n04111531_2592.png,n04111531_2592.png,1.0,3.5678983,1.183195,1.6862398
alexnet_w1_mlp_simclrhn_probe3,1,544,NaN,bird,bird,cr,0544_cl_dnn_cr_bird_40_n02011460_2435.png,n02011460_2435.png,1.0,1.4560037,0.77311534,0.482875
alexnet_w1_mlp_simclrhn_probe3,1,545,NaN,truck,car,cr,0545_cl_dnn_cr_car_40_n02814533_33205.png,n02814533_33205.png,0.0,8.217854,9.268935,-0.743227
alexnet_w1_mlp_simclrhn_probe3,1,546,NaN,chair,oven,bw,0546_cl_dnn_bw_oven_40_n04111531_14959.png,n04111531_14959.png,0.0,2.0451803,2.8513317,-0.5700351
alexnet_w1_mlp_simclrhn_probe3,1,547,NaN,clock,clock,cr,0547_cl_dnn_cr_clock_40_n04548280_6743.png,n04548280_6743.png,1.0,8.429002,1.3519723,5.0042152
alexnet_w1_mlp_simclrhn_probe3,1,548,NaN,bicycle,knife,bw,0548_cl_dnn_bw_knife_40_n03041632_15299.png,n03041632_15299.png,0.0,1.1773095,1.400542,-0.15784922
alexnet_w1_mlp_simclrhn_probe3,1,549,NaN,knife,clock,bw,0549_cl_dnn_bw_clock_40_n03196217_127.png,n03196217_127.png,0.0,0.66066265,1.208792,-0.38758597
alexnet_w1_mlp_simclrhn_probe3,1,550,NaN,boat,boat,bw,0550_cl_dnn_bw_boat_40_n04273569_12917.png,n04273569_12917.png,1.0,8.49119,3.6604917,3.4158194
alexnet_w1_mlp_simclrhn_probe3,1,551,NaN,airplane,airplane,cr,0551_cl_dnn_cr_airplane_40_n02690373_9626.png,n02690373_9626.png,1.0,7.937687,5.3850975,1.8049533
alexnet_w1_mlp_simclrhn_probe3,1,552,NaN,bear,bear,cr,0552_cl_dnn_cr_bear_40_n02134084_20500.png,n02134084_20500.png,1.0,2.232697,1.8830094,0.24726646
alexnet_w1_mlp_simclrhn_probe3,1,553,NaN,bear,bear,bw,0553_cl_dnn_bw_bear_40_n02132136_6890.png,n02132136_6890.png,1.0,3.9148083,3.7061234,0.14756252
alexnet_w1_mlp_simclrhn_probe3,1,554,NaN,bottle,bottle,bw,0554_cl_dnn_bw_bottle_40_n02823428_3049.png,n02823428_3049.png,1.0,5.527576,3.17298,1.6649507
alexnet_w1_mlp_simclrhn_probe3,1,555,NaN,knife,keyboard,cr,0555_cl_dnn_cr_keyboard_40_n03085013_22837.png,n03085013_22837.png,0.0,1.9987448,2.555916,-0.39397955
alexnet_w1_mlp_simclrhn_probe3,1,556,NaN,keyboard,keyboard,bw,0556_cl_dnn_bw_keyboard_40_n03085013_3264.png,n03085013_3264.png,1.0,5.706962,0.7214988,3.525255
alexnet_w1_mlp_simclrhn_probe3,1,557,NaN,bear,bear,bw,0557_cl_dnn_bw_bear_40_n02134418_7795.png,n02134418_7795.png,1.0,5.975983,3.5626082,1.7065138
alexnet_w1_mlp_simclrhn_probe3,1,558,NaN,bear,boat,bw,0558_cl_dnn_bw_boat_40_n02951358_34163.png,n02951358_34163.png,0.0,-1.4509704,2.852777,-3.0432088
alexnet_w1_mlp_simclrhn_probe3,1,559,NaN,bear,bear,cr,0559_cl_dnn_cr_bear_40_n02132136_8637.png,n02132136_8637.png,1.0,5.11827,1.7716892,2.36639
alexnet_w1_mlp_simclrhn_probe3,1,560,NaN,truck,truck,cr,0560_cl_dnn_cr_truck_40_n03417042_4218.png,n03417042_4218.png,1.0,6.1288815,3.6508472,1.7522348
alexnet_w1_mlp_simclrhn_probe3,1,561,NaN,chair,clock,bw,0561_cl_dnn_bw_clock_40_n04548280_4473.png,n04548280_4473.png,0.0,0.19254357,3.638723,-2.436817
alexnet_w1_mlp_simclrhn_probe3,1,562,NaN,bear,bear,bw,0562_cl_dnn_bw_bear_40_n02132136_21799.png,n02132136_21799.png,1.0,3.5006886,1.8410197,1.1735631
alexnet_w1_mlp_simclrhn_probe3,1,563,NaN,bird,bird,cr,0563_cl_dnn_cr_bird_40_n01531178_5780.png,n01531178_5780.png,1.0,3.8003008,0.73423827,2.1680336
alexnet_w1_mlp_simclrhn_probe3,1,564,NaN,truck,truck,cr,0564_cl_dnn_cr_truck_40_n03796401_27184.png,n03796401_27184.png,1.0,11.713154,4.243356,5.2819448
alexnet_w1_mlp_simclrhn_probe3,1,565,NaN,keyboard,clock,bw,0565_cl_dnn_bw_clock_40_n03196217_5258.png,n03196217_5258.png,0.0,2.0392992,2.3010128,-0.1850594
alexnet_w1_mlp_simclrhn_probe3,1,566,NaN,airplane,bird,cr,0566_cl_dnn_cr_bird_40_n02002556_15337.png,n02002556_15337.png,0.0,0.6150587,2.7051134,-1.4778919
alexnet_w1_mlp_simclrhn_probe3,1,567,NaN,elephant,bottle,cr,0567_cl_dnn_cr_bottle_40_n04560804_3683.png,n04560804_3683.png,0.0,0.022437397,1.9652358,-1.373766
alexnet_w1_mlp_simclrhn_probe3,1,568,NaN,bicycle,bicycle,cr,0568_cl_dnn_cr_bicycle_40_n02835271_8511.png,n02835271_8511.png,1.0,9.958271,1.5913332,5.9163184
alexnet_w1_mlp_simclrhn_probe3,1,569,NaN,elephant,bear,cr,0569_cl_dnn_cr_bear_40_n02134084_23974.png,n02134084_23974.png,0.0,2.6347532,2.6414633,-0.004744724
alexnet_w1_mlp_simclrhn_probe3,1,570,NaN,bicycle,dog,bw,0570_cl_dnn_bw_dog_40_n02091244_9271.png,n02091244_9271.png,0.0,0.17869098,1.9046762,-1.2204559
alexnet_w1_mlp_simclrhn_probe3,1,571,NaN,bear,bear,cr,0571_cl_dnn_cr_bear_40_n02133161_6946.png,n02133161_6946.png,1.0,0.65682495,0.26886895,0.27432632
alexnet_w1_mlp_simclrhn_probe3,1,572,NaN,truck,truck,bw,0572_cl_dnn_bw_truck_40_n04467665_10060.png,n04467665_10060.png,1.0,2.9734428,2.3790755,0.42028114
alexnet_w1_mlp_simclrhn_probe3,1,573,NaN,oven,oven,bw,0573_cl_dnn_bw_oven_40_n04111531_5328.png,n04111531_5328.png,1.0,7.774734,3.1066415,3.3008401
alexnet_w1_mlp_simclrhn_probe3,1,574,NaN,bird,bottle,cr,0574_cl_dnn_cr_bottle_40_n04560804_2005.png,n04560804_2005.png,0.0,0.11398331,0.32628572,-0.15012048
alexnet_w1_mlp_simclrhn_probe3,1,575,NaN,bear,bear,bw,0575_cl_dnn_bw_bear_40_n02134084_3695.png,n02134084_3695.png,1.0,1.5507809,1.16789,0.27074477
alexnet_w1_mlp_simclrhn_probe3,1,576,NaN,cat,cat,bw,0576_cl_dnn_bw_cat_40_n02123597_2219.png,n02123597_2219.png,1.0,3.1887138,1.4925728,1.1993529
alexnet_w1_mlp_simclrhn_probe3,1,577,NaN,keyboard,chair,bw,0577_cl_dnn_bw_chair_40_n02791124_6077.png,n02791124_6077.png,0.0,0.6579809,2.9093904,-1.591987
alexnet_w1_mlp_simclrhn_probe3,1,578,NaN,knife,bottle,cr,0578_cl_dnn_cr_bottle_40_n04579145_7431.png,n04579145_7431.png,0.0,-0.10115651,1.8898586,-1.4078603
alexnet_w1_mlp_simclrhn_probe3,1,579,NaN,keyboard,keyboard,bw,0579_cl_dnn_bw_keyboard_40_n04505470_510.png,n04505470_510.png,1.0,3.4821968,3.1827328,0.21175303
alexnet_w1_mlp_simclrhn_probe3,1,580,NaN,oven,oven,cr,0580_cl_dnn_cr_oven_40_n04111531_4452.png,n04111531_4452.png,1.0,6.585835,1.1948917,3.8119729
alexnet_w1_mlp_simclrhn_probe3,1,581,NaN,elephant,elephant,bw,0581_cl_dnn_bw_elephant_40_n02504013_237.png,n02504013_237.png,1.0,5.927442,3.1199784,1.9851766
alexnet_w1_mlp_simclrhn_probe3,1,582,NaN,bear,elephant,cr,0582_cl_dnn_cr_elephant_40_n02504013_10351.png,n02504013_10351.png,0.0,2.957583,3.8485622,-0.6300175
alexnet_w1_mlp_simclrhn_probe3,1,583,NaN,elephant,elephant,cr,0583_cl_dnn_cr_elephant_40_n02504458_1304.png,n02504458_1304.png,1.0,11.953193,6.244922,4.036357
alexnet_w1_mlp_simclrhn_probe3,1,584,NaN,cat,dog,bw,0584_cl_dnn_bw_dog_40_n02104365_9837.png,n02104365_9837.png,0.0,2.3927758,3.0340016,-0.45341513
alexnet_w1_mlp_simclrhn_probe3,1,585,NaN,bear,cat,cr,0585_cl_dnn_cr_cat_40_n02123045_9661.png,n02123045_9661.png,0.0,2.2507267,2.9611397,-0.5023379
alexnet_w1_mlp_simclrhn_probe3,1,586,NaN,keyboard,bottle,bw,0586_cl_dnn_bw_bottle_40_n02823428_5214.png,n02823428_5214.png,0.0,0.51489395,1.4650209,-0.6718412
alexnet_w1_mlp_simclrhn_probe3,1,587,NaN,bird,bird,bw,0587_cl_dnn_bw_bird_40_n01828970_5448.png,n01828970_5448.png,1.0,4.6829257,4.2330046,0.3181423
alexnet_w1_mlp_simclrhn_probe3,1,588,NaN,chair,car,cr,0588_cl_dnn_cr_car_40_n02814533_83874.png,n02814533_83874.png,0.0,0.7540698,2.3812366,-1.1505806
alexnet_w1_mlp_simclrhn_probe3,1,589,NaN,oven,oven,bw,0589_cl_dnn_bw_oven_40_n04111531_8036.png,n04111531_8036.png,1.0,4.8322196,0.4192484,3.1204417
alexnet_w1_mlp_simclrhn_probe3,1,590,NaN,oven,oven,cr,0590_cl_dnn_cr_oven_40_n04111531_7355.png,n04111531_7355.png,1.0,4.4163632,2.090139,1.644889
alexnet_w1_mlp_simclrhn_probe3,1,591,NaN,truck,car,bw,0591_cl_dnn_bw_car_40_n04285008_13354.png,n04285008_13354.png,0.0,3.0468893,3.080113,-0.023492653
alexnet_w1_mlp_simclrhn_probe3,1,592,NaN,keyboard,clock,cr,0592_cl_dnn_cr_clock_40_n02708093_8267.png,n02708093_8267.png,0.0,1.3213512,3.536776,-1.566542
alexnet_w1_mlp_simclrhn_probe3,1,593,NaN,cat,cat,bw,0593_cl_dnn_bw_cat_40_n02124075_14242.png,n02124075_14242.png,1.0,4.9999146,0.5130878,3.1726658
alexnet_w1_mlp_simclrhn_probe3,1,594,NaN,knife,knife,cr,0594_cl_dnn_cr_knife_40_n03041632_4279.png,n03041632_4279.png,1.0,1.9255759,1.1193644,0.5700776
alexnet_w1_mlp_simclrhn_probe3,1,595,NaN,oven,oven,cr,0595_cl_dnn_cr_oven_40_n04111531_2296.png,n04111531_2296.png,1.0,3.9577184,1.9832802,1.3961387
alexnet_w1_mlp_simclrhn_probe3,1,596,NaN,boat,boat,cr,0596_cl_dnn_cr_boat_40_n03344393_5859.png,n03344393_5859.png,1.0,6.829076,2.7699518,2.8702343
alexnet_w1_mlp_simclrhn_probe3,1,597,NaN,car,car,cr,0597_cl_dnn_cr_car_40_n02814533_57176.png,n02814533_57176.png,1.0,6.0107536,5.04984,0.6794686
alexnet_w1_mlp_simclrhn_probe3,1,598,NaN,elephant,cat,bw,0598_cl_dnn_bw_cat_40_n02123159_1769.png,n02123159_1769.png,0.0,1.0590672,1.3608878,-0.21341933
alexnet_w1_mlp_simclrhn_probe3,1,599,NaN,clock,clock,cr,0599_cl_dnn_cr_clock_40_n02708093_4976.png,n02708093_4976.png,1.0,9.383871,1.855389,5.3234406
alexnet_w1_mlp_simclrhn_probe3,1,600,NaN,car,truck,cr,0600_cl_dnn_cr_truck_40_n03796401_8864.png,n03796401_8864.png,0.0,2.44809,3.436739,-0.69908035
alexnet_w1_mlp_simclrhn_probe3,1,601,NaN,clock,clock,bw,0601_cl_dnn_bw_clock_40_n03196217_868.png,n03196217_868.png,1.0,5.201467,3.4125109,1.264983
alexnet_w1_mlp_simclrhn_probe3,1,602,NaN,cat,keyboard,bw,0602_cl_dnn_bw_keyboard_40_n03085013_3910.png,n03085013_3910.png,0.0,0.96853346,1.947649,-0.69233924
alexnet_w1_mlp_simclrhn_probe3,1,603,NaN,bicycle,bicycle,cr,0603_cl_dnn_cr_bicycle_40_n03792782_5466.png,n03792782_5466.png,1.0,12.523552,1.4593554,7.8235683
alexnet_w1_mlp_simclrhn_probe3,1,604,NaN,bear,bear,bw,0604_cl_dnn_bw_bear_40_n02132136_23248.png,n02132136_23248.png,1.0,5.5603085,1.8959541,2.5910897
alexnet_w1_mlp_simclrhn_probe3,1,605,NaN,truck,truck,bw,0605_cl_dnn_bw_truck_40_n03417042_2794.png,n03417042_2794.png,1.0,6.2422557,0.9489711,3.7429173
alexnet_w1_mlp_simclrhn_probe3,1,606,NaN,oven,chair,bw,0606_cl_dnn_bw_chair_40_n02791124_7324.png,n02791124_7324.png,0.0,1.7007155,3.6804397,-1.3998764
alexnet_w1_mlp_simclrhn_probe3,1,607,NaN,bicycle,bicycle,bw,0607_cl_dnn_bw_bicycle_40_n02835271_6736.png,n02835271_6736.png,1.0,5.195463,1.2445424,2.7937229
alexnet_w1_mlp_simclrhn_probe3,1,608,NaN,clock,clock,bw,0608_cl_dnn_bw_clock_40_n04548280_8990.png,n04548280_8990.png,1.0,10.900822,1.8965943,6.3669505
alexnet_w1_mlp_simclrhn_probe3,1,609,NaN,keyboard,airplane,bw,0609_cl_dnn_bw_airplane_40_n02690373_971.png,n02690373_971.png,0.0,1.1127068,1.6670494,-0.39197943
alexnet_w1_mlp_simclrhn_probe3,1,610,NaN,bear,bear,bw,0610_cl_dnn_bw_bear_40_n02132136_23853.png,n02132136_23853.png,1.0,1.4921517,1.2246667,0.18914048
alexnet_w1_mlp_simclrhn_probe3,1,611,NaN,clock,clock,cr,0611_cl_dnn_cr_clock_40_n03196217_3416.png,n03196217_3416.png,1.0,4.1302643,2.8005865,0.94022423
alexnet_w1_mlp_simclrhn_probe3,1,612,NaN,knife,clock,bw,0612_cl_dnn_bw_clock_40_n04548280_4346.png,n04548280_4346.png,0.0,0.47517785,0.7236494,-0.17569591
alexnet_w1_mlp_simclrhn_probe3,1,613,NaN,oven,oven,cr,0613_cl_dnn_cr_oven_40_n04111531_2342.png,n04111531_2342.png,1.0,10.164671,3.0367565,5.040197
alexnet_w1_mlp_simclrhn_probe3,1,614,NaN,chair,chair,bw,0614_cl_dnn_bw_chair_40_n04099969_8509.png,n04099969_8509.png,1.0,2.409181,1.3313618,0.76213336
alexnet_w1_mlp_simclrhn_probe3,1,615,NaN,clock,bottle,bw,0615_cl_dnn_bw_bottle_40_n03937543_4340.png,n03937543_4340.png,0.0,0.58659,0.7892816,-0.14332461
alexnet_w1_mlp_simclrhn_probe3,1,616,NaN,boat,clock,bw,0616_cl_dnn_bw_clock_40_n02708093_6655.png,n02708093_6655.png,0.0,-0.16313215,2.1904058,-1.6642027
alexnet_w1_mlp_simclrhn_probe3,1,617,NaN,cat,cat,cr,0617_cl_dnn_cr_cat_40_n02123159_1339.png,n02123159_1339.png,1.0,5.643423,0.566165,3.5901637
alexnet_w1_mlp_simclrhn_probe3,1,618,NaN,chair,knife,bw,0618_cl_dnn_bw_knife_40_n03041632_30553.png,n03041632_30553.png,0.0,1.3479812,2.9266849,-1.116312
alexnet_w1_mlp_simclrhn_probe3,1,619,NaN,bicycle,bicycle,cr,0619_cl_dnn_cr_bicycle_40_n03792782_18707.png,n03792782_18707.png,1.0,9.636211,2.3901923,5.1237097
alexnet_w1_mlp_simclrhn_probe3,1,620,NaN,elephant,elephant,bw,0620_cl_dnn_bw_elephant_40_n02504458_3648.png,n02504458_3648.png,1.0,14.791876,4.8641076,7.019993
alexnet_w1_mlp_simclrhn_probe3,1,621,NaN,elephant,elephant,cr,0621_cl_dnn_cr_elephant_40_n02504458_1179.png,n02504458_1179.png,1.0,15.209721,7.222804,5.647603
alexnet_w1_mlp_simclrhn_probe3,1,622,NaN,clock,clock,bw,0622_cl_dnn_bw_clock_40_n02708093_391.png,n02708093_391.png,1.0,5.352648,1.9359014,2.4160047
alexnet_w1_mlp_simclrhn_probe3,1,623,NaN,airplane,car,cr,0623_cl_dnn_cr_car_40_n04285008_3453.png,n04285008_3453.png,0.0,0.97117645,3.4789126,-1.7732373
alexnet_w1_mlp_simclrhn_probe3,1,624,NaN,airplane,airplane,bw,0624_cl_dnn_bw_airplane_40_n02690373_2800.png,n02690373_2800.png,1.0,5.296868,1.4082977,2.7496345
alexnet_w1_mlp_simclrhn_probe3,1,625,NaN,cat,cat,cr,0625_cl_dnn_cr_cat_40_n02123394_979.png,n02123394_979.png,1.0,3.3253338,2.1648402,0.82059294
alexnet_w1_mlp_simclrhn_probe3,1,626,NaN,bear,dog,cr,0626_cl_dnn_cr_dog_40_n02105641_4701.png,n02105641_4701.png,0.0,1.3706615,3.6691532,-1.6252791
alexnet_w1_mlp_simclrhn_probe3,1,627,NaN,boat,boat,cr,0627_cl_dnn_cr_boat_40_n04273569_13641.png,n04273569_13641.png,1.0,6.8851714,3.9682906,2.0625463
alexnet_w1_mlp_simclrhn_probe3,1,628,NaN,airplane,car,cr,0628_cl_dnn_cr_car_40_n02814533_74825.png,n02814533_74825.png,0.0,-0.3541511,2.602552,-2.0907047
alexnet_w1_mlp_simclrhn_probe3,1,629,NaN,airplane,airplane,cr,0629_cl_dnn_cr_airplane_40_n02690373_6812.png,n02690373_6812.png,1.0,7.4740314,1.7979835,4.0135717
alexnet_w1_mlp_simclrhn_probe3,1,630,NaN,car,car,bw,0630_cl_dnn_bw_car_40_n03100240_19223.png,n03100240_19223.png,1.0,16.280964,7.591563,6.1443343
alexnet_w1_mlp_simclrhn_probe3,1,631,NaN,bottle,bottle,bw,0631_cl_dnn_bw_bottle_40_n03983396_3817.png,n03983396_3817.png,1.0,7.123014,2.115713,3.5406969
alexnet_w1_mlp_simclrhn_probe3,1,632,NaN,elephant,elephant,bw,0632_cl_dnn_bw_elephant_40_n02504013_1432.png,n02504013_1432.png,1.0,9.875597,3.2080076,4.714698
alexnet_w1_mlp_simclrhn_probe3,1,633,NaN,airplane,boat,cr,0633_cl_dnn_cr_boat_40_n03662601_35008.png,n03662601_35008.png,0.0,5.7616935,8.344474,-1.8263016
alexnet_w1_mlp_simclrhn_probe3,1,634,NaN,oven,oven,bw,0634_cl_dnn_bw_oven_40_n04111531_14055.png,n04111531_14055.png,1.0,4.775869,1.8160026,2.0929415
alexnet_w1_mlp_simclrhn_probe3,1,635,NaN,airplane,airplane,bw,0635_cl_dnn_bw_airplane_40_n02690373_9812.png,n02690373_9812.png,1.0,8.197918,3.259965,3.49166
alexnet_w1_mlp_simclrhn_probe3,1,636,NaN,truck,car,cr,0636_cl_dnn_cr_car_40_n04285008_6200.png,n04285008_6200.png,0.0,4.9707375,6.6806765,-1.2091094
alexnet_w1_mlp_simclrhn_probe3,1,637,NaN,clock,clock,cr,0637_cl_dnn_cr_clock_40_n04548280_5889.png,n04548280_5889.png,1.0,6.5365996,1.2415813,3.7441432
alexnet_w1_mlp_simclrhn_probe3,1,638,NaN,chair,chair,bw,0638_cl_dnn_bw_chair_40_n03376595_2924.png,n03376595_2924.png,1.0,0.85137904,0.6598263,0.13544826
alexnet_w1_mlp_simclrhn_probe3,1,639,NaN,airplane,airplane,bw,0639_cl_dnn_bw_airplane_40_n02690373_693.png,n02690373_693.png,1.0,5.2965035,2.8444495,1.7338641
alexnet_w1_mlp_simclrhn_probe3,1,640,NaN,bicycle,bicycle,bw,0640_cl_dnn_bw_bicycle_40_n03792782_1778.png,n03792782_1778.png,1.0,9.164129,3.4015903,4.0747304
alexnet_w1_mlp_simclrhn_probe3,1,641,NaN,clock,clock,cr,0641_cl_dnn_cr_clock_40_n02708093_444.png,n02708093_444.png,1.0,5.945228,2.403419,2.5044372
alexnet_w1_mlp_simclrhn_probe3,1,642,NaN,clock,clock,cr,0642_cl_dnn_cr_clock_40_n02708093_3385.png,n02708093_3385.png,1.0,3.4692447,1.2474513,1.5710452
alexnet_w1_mlp_simclrhn_probe3,1,643,NaN,clock,clock,cr,0643_cl_dnn_cr_clock_40_n03196217_970.png,n03196217_970.png,1.0,2.8110678,2.5080643,0.21425587
alexnet_w1_mlp_simclrhn_probe3,1,644,NaN,keyboard,clock,bw,0644_cl_dnn_bw_clock_40_n04548280_4839.png,n04548280_4839.png,0.0,0.9656902,3.2602081,-1.6224693
alexnet_w1_mlp_simclrhn_probe3,1,645,NaN,truck,truck,bw,0645_cl_dnn_bw_truck_40_n03796401_1853.png,n03796401_1853.png,1.0,6.8030396,3.1360285,2.5929685
alexnet_w1_mlp_simclrhn_probe3,1,646,NaN,oven,bottle,bw,0646_cl_dnn_bw_bottle_40_n04591713_2680.png,n04591713_2680.png,0.0,0.53932756,2.266274,-1.2211355
alexnet_w1_mlp_simclrhn_probe3,1,647,NaN,clock,clock,bw,0647_cl_dnn_bw_clock_40_n02708093_3691.png,n02708093_3691.png,1.0,10.699962,1.4626637,6.5317564
alexnet_w1_mlp_simclrhn_probe3,1,648,NaN,cat,cat,bw,0648_cl_dnn_bw_cat_40_n02123045_12762.png,n02123045_12762.png,1.0,11.432174,0.1087255,8.006887
alexnet_w1_mlp_simclrhn_probe3,1,649,NaN,cat,cat,cr,0649_cl_dnn_cr_cat_40_n02124075_17464.png,n02124075_17464.png,1.0,6.9177513,0.7927565,4.3310256
