subj,session,trial,rt,object_response,category,condition,imagename,filename,is_correct,targ_act,max_nontarg_act,decision_margin
alexnet_w1_mlp_simclrhn_probe0,1,1,NaN,oven,oven,cr,0001_cl_dnn_cr_oven_40_n04111531_14126.png,n04111531_14126.png,1.0,5.0264697,-2.666175,5.4395213
alexnet_w1_mlp_simclrhn_probe0,1,2,NaN,bear,bear,cr,0002_cl_dnn_cr_bear_40_n02134084_5274.png,n02134084_5274.png,1.0,2.9259481,2.0610058,0.6116066
alexnet_w1_mlp_simclrhn_probe0,1,3,NaN,cat,cat,cr,0003_cl_dnn_cr_cat_40_n02123394_133.png,n02123394_133.png,1.0,-2.2332444,-2.6488047,0.29384547
alexnet_w1_mlp_simclrhn_probe0,1,4,NaN,car,car,cr,0004_cl_dnn_cr_car_40_n02814533_51190.png,n02814533_51190.png,1.0,7.61334,3.2979507,3.051441
alexnet_w1_mlp_simclrhn_probe0,1,5,NaN,chair,chair,bw,0005_cl_dnn_bw_chair_40_n04099969_14986.png,n04099969_14986.png,1.0,-0.36364707,-3.0971437,1.9328741
alexnet_w1_mlp_simclrhn_probe0,1,6,NaN,elephant,elephant,cr,0006_cl_dnn_cr_elephant_40_n02504013_6731.png,n02504013_6731.png,1.0,-0.031995416,-2.6246817,1.833306
alexnet_w1_mlp_simclrhn_probe0,1,7,NaN,bottle,bottle,cr,0007_cl_dnn_cr_bottle_40_n02823428_987.png,n02823428_987.png,1.0,7.8247843,3.1628122,3.2965121
alexnet_w1_mlp_simclrhn_probe0,1,8,NaN,truck,truck,cr,0008_cl_dnn_cr_truck_40_n03417042_7458.png,n03417042_7458.png,1.0,-3.2988305,-4.0409446,0.52475387
alexnet_w1_mlp_simclrhn_probe0,1,9,NaN,chair,chair,bw,0009_cl_dnn_bw_chair_40_n04099969_4577.png,n04099969_4577.png,1.0,-0.13932657,-2.133204,1.4098842
alexnet_w1_mlp_simclrhn_probe0,1,10,NaN,bicycle,knife,cr,0010_cl_dnn_cr_knife_40_n03041632_83472.png,n03041632_83472.png,0.0,-4.33845,-2.1299796,-1.5616244
alexnet_w1_mlp_simclrhn_probe0,1,11,NaN,elephant,elephant,bw,0011_cl_dnn_bw_elephant_40_n02504458_3485.png,n02504458_3485.png,1.0,6.3202105,-2.8404899,6.477593
alexnet_w1_mlp_simclrhn_probe0,1,12,NaN,elephant,bear,bw,0012_cl_dnn_bw_bear_40_n02133161_1066.png,n02133161_1066.png,0.0,-1.536915,-1.0118551,-0.37127337
alexnet_w1_mlp_simclrhn_probe0,1,13,NaN,elephant,elephant,bw,0013_cl_dnn_bw_elephant_40_n02504013_1060.png,n02504013_1060.png,1.0,-0.1983686,-4.3660893,2.9470236
alexnet_w1_mlp_simclrhn_probe0,1,14,NaN,bear,bear,bw,0014_cl_dnn_bw_bear_40_n02134084_1009.png,n02134084_1009.png,1.0,-2.2238686,-2.9988194,0.5479729
alexnet_w1_mlp_simclrhn_probe0,1,15,NaN,cat,cat,cr,0015_cl_dnn_cr_cat_40_n02125311_13383.png,n02125311_13383.png,1.0,2.68307,-1.1936258,2.7412379
alexnet_w1_mlp_simclrhn_probe0,1,16,NaN,elephant,elephant,bw,0016_cl_dnn_bw_elephant_40_n02504013_257.png,n02504013_257.png,1.0,4.387871,-7.2327876,8.217047
alexnet_w1_mlp_simclrhn_probe0,1,17,NaN,oven,cat,bw,0017_cl_dnn_bw_cat_40_n02123045_6445.png,n02123045_6445.png,0.0,-3.4737542,-1.9695812,-1.0636109
alexnet_w1_mlp_simclrhn_probe0,1,18,NaN,airplane,airplane,bw,0018_cl_dnn_bw_airplane_40_n02690373_3493.png,n02690373_3493.png,1.0,8.637938,-0.32939526,6.340862
alexnet_w1_mlp_simclrhn_probe0,1,19,NaN,airplane,airplane,bw,0019_cl_dnn_bw_airplane_40_n02690373_5184.png,n02690373_5184.png,1.0,1.626342,-2.495687,2.9147148
alexnet_w1_mlp_simclrhn_probe0,1,20,NaN,car,truck,bw,0020_cl_dnn_bw_truck_40_n04467665_22637.png,n04467665_22637.png,0.0,-2.5526447,-1.8322868,-0.50936997
alexnet_w1_mlp_simclrhn_probe0,1,21,NaN,cat,cat,cr,0021_cl_dnn_cr_cat_40_n02123159_10952.png,n02123159_10952.png,1.0,0.8310683,-2.5728486,2.4069328
alexnet_w1_mlp_simclrhn_probe0,1,22,NaN,airplane,airplane,bw,0022_cl_dnn_bw_airplane_40_n02690373_3620.png,n02690373_3620.png,1.0,4.923739,0.70892465,2.9803238
alexnet_w1_mlp_simclrhn_probe0,1,23,NaN,truck,bottle,cr,0023_cl_dnn_cr_bottle_40_n04557648_10744.png,n04557648_10744.png,0.0,-8.093776,-8.071776,-0.015555896
alexnet_w1_mlp_simclrhn_probe0,1,24,NaN,oven,oven,bw,0024_cl_dnn_bw_oven_40_n04111531_12702.png,n04111531_12702.png,1.0,4.0160947,-5.0559435,6.4149003
alexnet_w1_mlp_simclrhn_probe0,1,25,NaN,truck,bear,cr,0025_cl_dnn_cr_bear_40_n02133161_9949.png,n02133161_9949.png,0.0,-3.186688,-1.9364853,-0.88402677
alexnet_w1_mlp_simclrhn_probe0,1,26,NaN,oven,keyboard,cr,0026_cl_dnn_cr_keyboard_40_n03085013_3489.png,n03085013_3489.png,0.0,-5.935027,-4.059378,-1.3262842
alexnet_w1_mlp_simclrhn_probe0,1,27,NaN,elephant,elephant,bw,0027_cl_dnn_bw_elephant_40_n02504458_4633.png,n02504458_4633.png,1.0,1.5617776,-2.5871892,2.9337626
alexnet_w1_mlp_simclrhn_probe0,1,28,NaN,clock,clock,cr,0028_cl_dnn_cr_clock_40_n04548280_7816.png,n04548280_7816.png,1.0,-0.5605334,-2.295598,1.226876
alexnet_w1_mlp_simclrhn_probe0,1,29,NaN,dog,dog,bw,0029_cl_dnn_bw_dog_40_n02097474_1859.png,n02097474_1859.png,1.0,0.63728935,-0.20859134,0.59812796
alexnet_w1_mlp_simclrhn_probe0,1,30,NaN,cat,cat,bw,0030_cl_dnn_bw_cat_40_n02123394_916.png,n02123394_916.png,1.0,0.38342258,-1.4367296,1.2870419
alexnet_w1_mlp_simclrhn_probe0,1,31,NaN,elephant,elephant,cr,0031_cl_dnn_cr_elephant_40_n02504458_3525.png,n02504458_3525.png,1.0,-0.71906114,-7.561899,4.8386173
alexnet_w1_mlp_simclrhn_probe0,1,32,NaN,bear,bear,bw,0032_cl_dnn_bw_bear_40_n02134418_4456.png,n02134418_4456.png,1.0,-1.8191307,-4.442374,1.8549134
alexnet_w1_mlp_simclrhn_probe0,1,33,NaN,keyboard,keyboard,bw,0033_cl_dnn_bw_keyboard_40_n03085013_24045.png,n03085013_24045.png,1.0,1.7038424,-0.32749453,1.4363722
alexnet_w1_mlp_simclrhn_probe0,1,34,NaN,oven,knife,bw,0034_cl_dnn_bw_knife_40_n03041632_49363.png,n03041632_49363.png,0.0,-3.6919274,-1.7155713,-1.3974949
alexnet_w1_mlp_simclrhn_probe0,1,35,NaN,cat,cat,bw,0035_cl_dnn_bw_cat_40_n02123159_7854.png,n02123159_7854.png,1.0,-0.2766626,-2.8705113,1.834128
alexnet_w1_mlp_simclrhn_probe0,1,36,NaN,oven,knife,cr,0036_cl_dnn_cr_knife_40_n03041632_4708.png,n03041632_4708.png,0.0,-3.5481954,2.447876,-4.239863
alexnet_w1_mlp_simclrhn_probe0,1,37,NaN,chair,chair,cr,0037_cl_dnn_cr_chair_40_n04429376_7788.png,n04429376_7788.png,1.0,-2.7987883,-5.9523554,2.2299087
alexnet_w1_mlp_simclrhn_probe0,1,38,NaN,car,car,cr,0038_cl_dnn_cr_car_40_n03100240_9086.png,n03100240_9086.png,1.0,6.262754,1.9979067,3.0157025
alexnet_w1_mlp_simclrhn_probe0,1,39,NaN,chair,chair,cr,0039_cl_dnn_cr_chair_40_n03376595_3038.png,n03376595_3038.png,1.0,-3.6563878,-4.5871086,0.658119
alexnet_w1_mlp_simclrhn_probe0,1,40,NaN,truck,truck,bw,0040_cl_dnn_bw_truck_40_n03796401_1758.png,n03796401_1758.png,1.0,1.1899524,-0.04759987,0.8750816
alexnet_w1_mlp_simclrhn_probe0,1,41,NaN,boat,boat,cr,0041_cl_dnn_cr_boat_40_n04273569_4324.png,n04273569_4324.png,1.0,2.0903716,-1.9720495,2.8725653
alexnet_w1_mlp_simclrhn_probe0,1,42,NaN,elephant,bear,cr,0042_cl_dnn_cr_bear_40_n02134084_1090.png,n02134084_1090.png,0.0,-2.9096904,-2.4316676,-0.33801317
alexnet_w1_mlp_simclrhn_probe0,1,43,NaN,bicycle,bicycle,bw,0043_cl_dnn_bw_bicycle_40_n03792782_13665.png,n03792782_13665.png,1.0,-3.086994,-7.506892,3.12534
alexnet_w1_mlp_simclrhn_probe0,1,44,NaN,knife,knife,bw,0044_cl_dnn_bw_knife_40_n03041632_36215.png,n03041632_36215.png,1.0,-0.9476078,-3.5090303,1.8111993
alexnet_w1_mlp_simclrhn_probe0,1,45,NaN,car,car,bw,0045_cl_dnn_bw_car_40_n04285008_7770.png,n04285008_7770.png,1.0,2.8292606,-1.0899689,2.771314
alexnet_w1_mlp_simclrhn_probe0,1,46,NaN,bottle,bottle,cr,0046_cl_dnn_cr_bottle_40_n03983396_15260.png,n03983396_15260.png,1.0,0.33061472,-1.2061732,1.0866731
alexnet_w1_mlp_simclrhn_probe0,1,47,NaN,bear,dog,cr,0047_cl_dnn_cr_dog_40_n02091635_6519.png,n02091635_6519.png,0.0,-1.5955256,-0.019464672,-1.1144434
alexnet_w1_mlp_simclrhn_probe0,1,48,NaN,elephant,elephant,cr,0048_cl_dnn_cr_elephant_40_n02504013_3485.png,n02504013_3485.png,1.0,5.2119503,-1.9551508,5.067906
alexnet_w1_mlp_simclrhn_probe0,1,49,NaN,oven,oven,cr,0049_cl_dnn_cr_oven_40_n04111531_807.png,n04111531_807.png,1.0,1.1886605,-1.3805721,1.8167217
alexnet_w1_mlp_simclrhn_probe0,1,50,NaN,oven,oven,cr,0050_cl_dnn_cr_oven_40_n04111531_605.png,n04111531_605.png,1.0,3.0245397,-2.9466665,4.2222805
alexnet_w1_mlp_simclrhn_probe0,1,51,NaN,elephant,dog,bw,0051_cl_dnn_bw_dog_40_n02109047_2662.png,n02109047_2662.png,0.0,-6.717026,-1.5005531,-3.6886036
alexnet_w1_mlp_simclrhn_probe0,1,52,NaN,truck,truck,cr,0052_cl_dnn_cr_truck_40_n03417042_16038.png,n03417042_16038.png,1.0,-1.485917,-5.347435,2.7305055
alexnet_w1_mlp_simclrhn_probe0,1,53,NaN,truck,truck,bw,0053_cl_dnn_bw_truck_40_n03796401_1710.png,n03796401_1710.png,1.0,0.8574249,-3.6612473,3.1951838
alexnet_w1_mlp_simclrhn_probe0,1,54,NaN,cat,cat,cr,0054_cl_dnn_cr_cat_40_n02125311_20921.png,n02125311_20921.png,1.0,-1.8253578,-5.231471,2.4084857
alexnet_w1_mlp_simclrhn_probe0,1,55,NaN,oven,bear,cr,0055_cl_dnn_cr_bear_40_n02133161_575.png,n02133161_575.png,0.0,-10.661547,-7.908787,-1.9464953
alexnet_w1_mlp_simclrhn_probe0,1,56,NaN,chair,chair,bw,0056_cl_dnn_bw_chair_40_n04429376_21865.png,n04429376_21865.png,1.0,-6.6264663,-7.0069923,0.26907256
alexnet_w1_mlp_simclrhn_probe0,1,57,NaN,bicycle,bird,bw,0057_cl_dnn_bw_bird_40_n01616318_26436.png,n01616318_26436.png,0.0,-7.8125687,-4.635706,-2.2463813
alexnet_w1_mlp_simclrhn_probe0,1,58,NaN,oven,oven,cr,0058_cl_dnn_cr_oven_40_n04111531_9498.png,n04111531_9498.png,1.0,-1.0020928,-8.546574,5.3347535
alexnet_w1_mlp_simclrhn_probe0,1,59,NaN,bear,bear,bw,0059_cl_dnn_bw_bear_40_n02134418_397.png,n02134418_397.png,1.0,-0.07882202,-3.3404741,2.3063362
alexnet_w1_mlp_simclrhn_probe0,1,60,NaN,chair,chair,cr,0060_cl_dnn_cr_chair_40_n04099969_23961.png,n04099969_23961.png,1.0,-3.79959,-6.5549927,1.9483639
alexnet_w1_mlp_simclrhn_probe0,1,61,NaN,bird,dog,bw,0061_cl_dnn_bw_dog_40_n02093256_7181.png,n02093256_7181.png,0.0,-5.2346582,-2.3717806,-2.0243602
alexnet_w1_mlp_simclrhn_probe0,1,62,NaN,bicycle,bicycle,cr,0062_cl_dnn_cr_bicycle_40_n02835271_26731.png,n02835271_26731.png,1.0,-0.06907523,-7.3240366,5.1300325
alexnet_w1_mlp_simclrhn_probe0,1,63,NaN,cat,cat,cr,0063_cl_dnn_cr_cat_40_n02125311_12557.png,n02125311_12557.png,1.0,-0.7056753,-2.4144118,1.2082591
alexnet_w1_mlp_simclrhn_probe0,1,64,NaN,knife,dog,cr,0064_cl_dnn_cr_dog_40_n02093647_2890.png,n02093647_2890.png,0.0,-5.877913,-3.597322,-1.6126214
alexnet_w1_mlp_simclrhn_probe0,1,65,NaN,keyboard,knife,cr,0065_cl_dnn_cr_knife_40_n03041632_14293.png,n03041632_14293.png,0.0,-4.1664257,-3.0119007,-0.8163725
alexnet_w1_mlp_simclrhn_probe0,1,66,NaN,oven,oven,bw,0066_cl_dnn_bw_oven_40_n04111531_20359.png,n04111531_20359.png,1.0,1.260345,-5.9019423,5.064502
alexnet_w1_mlp_simclrhn_probe0,1,67,NaN,truck,truck,bw,0067_cl_dnn_bw_truck_40_n04467665_12177.png,n04467665_12177.png,1.0,6.8799496,2.710315,2.9483771
alexnet_w1_mlp_simclrhn_probe0,1,68,NaN,bicycle,bicycle,cr,0068_cl_dnn_cr_bicycle_40_n02835271_19400.png,n02835271_19400.png,1.0,-0.21263164,-3.2471216,2.1457083
alexnet_w1_mlp_simclrhn_probe0,1,69,NaN,truck,truck,cr,0069_cl_dnn_cr_truck_40_n03417042_1263.png,n03417042_1263.png,1.0,0.06802565,-3.6977246,2.6627874
alexnet_w1_mlp_simclrhn_probe0,1,70,NaN,cat,cat,bw,0070_cl_dnn_bw_cat_40_n02123045_8336.png,n02123045_8336.png,1.0,1.9928316,-2.9957874,3.5274863
alexnet_w1_mlp_simclrhn_probe0,1,71,NaN,bear,bear,bw,0071_cl_dnn_bw_bear_40_n02134418_5405.png,n02134418_5405.png,1.0,4.742072,1.7793002,2.0949962
alexnet_w1_mlp_simclrhn_probe0,1,72,NaN,car,car,bw,0072_cl_dnn_bw_car_40_n04285008_2906.png,n04285008_2906.png,1.0,2.069856,-0.7510966,1.9947146
alexnet_w1_mlp_simclrhn_probe0,1,73,NaN,elephant,bird,cr,0073_cl_dnn_cr_bird_40_n01818515_10517.png,n01818515_10517.png,0.0,-7.4818435,-4.1864743,-2.330178
alexnet_w1_mlp_simclrhn_probe0,1,74,NaN,truck,truck,cr,0074_cl_dnn_cr_truck_40_n03796401_14203.png,n03796401_14203.png,1.0,-1.3288225,-2.9797926,1.1674122
alexnet_w1_mlp_simclrhn_probe0,1,75,NaN,bird,bird,bw,0075_cl_dnn_bw_bird_40_n02009229_2503.png,n02009229_2503.png,1.0,-3.011814,-5.327132,1.6371771
alexnet_w1_mlp_simclrhn_probe0,1,76,NaN,bottle,bottle,bw,0076_cl_dnn_bw_bottle_40_n02823428_6767.png,n02823428_6767.png,1.0,2.9882352,-4.8583455,5.5483704
alexnet_w1_mlp_simclrhn_probe0,1,77,NaN,bicycle,bicycle,bw,0077_cl_dnn_bw_bicycle_40_n02835271_12847.png,n02835271_12847.png,1.0,2.6271303,-5.969754,6.0789156
alexnet_w1_mlp_simclrhn_probe0,1,78,NaN,bicycle,bicycle,cr,0078_cl_dnn_cr_bicycle_40_n02835271_24104.png,n02835271_24104.png,1.0,6.607724,-5.126463,8.297323
alexnet_w1_mlp_simclrhn_probe0,1,79,NaN,clock,clock,cr,0079_cl_dnn_cr_clock_40_n04548280_77.png,n04548280_77.png,1.0,5.51877,-0.06060032,3.9452107
alexnet_w1_mlp_simclrhn_probe0,1,80,NaN,cat,cat,bw,0080_cl_dnn_bw_cat_40_n02123394_6698.png,n02123394_6698.png,1.0,4.121262,-1.5878441,4.0369477
alexnet_w1_mlp_simclrhn_probe0,1,81,NaN,keyboard,keyboard,cr,0081_cl_dnn_cr_keyboard_40_n04505470_4356.png,n04505470_4356.png,1.0,12.4910145,-1.9014161,10.176985
alexnet_w1_mlp_simclrhn_probe0,1,82,NaN,chair,chair,cr,0082_cl_dnn_cr_chair_40_n04429376_16325.png,n04429376_16325.png,1.0,-3.1266303,-3.6440876,0.36589754
alexnet_w1_mlp_simclrhn_probe0,1,83,NaN,elephant,elephant,bw,0083_cl_dnn_bw_elephant_40_n02504458_6721.png,n02504458_6721.png,1.0,-3.3312101,-5.7580085,1.7160056
alexnet_w1_mlp_simclrhn_probe0,1,84,NaN,truck,truck,cr,0084_cl_dnn_cr_truck_40_n03417042_6213.png,n03417042_6213.png,1.0,9.299006,3.2046764,4.309342
alexnet_w1_mlp_simclrhn_probe0,1,85,NaN,cat,dog,bw,0085_cl_dnn_bw_dog_40_n02097130_8277.png,n02097130_8277.png,0.0,-6.935911,-3.8014278,-2.2164145
alexnet_w1_mlp_simclrhn_probe0,1,86,NaN,knife,bottle,cr,0086_cl_dnn_cr_bottle_40_n04557648_1856.png,n04557648_1856.png,0.0,-5.711186,-3.8265495,-1.3326392
alexnet_w1_mlp_simclrhn_probe0,1,87,NaN,bird,bird,bw,0087_cl_dnn_bw_bird_40_n01531178_10905.png,n01531178_10905.png,1.0,-5.282088,-6.3122497,0.72843444
alexnet_w1_mlp_simclrhn_probe0,1,88,NaN,elephant,bear,cr,0088_cl_dnn_cr_bear_40_n02133161_2202.png,n02133161_2202.png,0.0,-2.7761648,-2.0211234,-0.5338949
alexnet_w1_mlp_simclrhn_probe0,1,89,NaN,elephant,elephant,cr,0089_cl_dnn_cr_elephant_40_n02504458_10439.png,n02504458_10439.png,1.0,-2.2224474,-4.758499,1.7932594
alexnet_w1_mlp_simclrhn_probe0,1,90,NaN,clock,clock,cr,0090_cl_dnn_cr_clock_40_n02708093_6766.png,n02708093_6766.png,1.0,-4.227103,-5.059195,0.5883778
alexnet_w1_mlp_simclrhn_probe0,1,91,NaN,bottle,bottle,bw,0091_cl_dnn_bw_bottle_40_n03983396_2057.png,n03983396_2057.png,1.0,-3.5585673,-3.916854,0.2533469
alexnet_w1_mlp_simclrhn_probe0,1,92,NaN,keyboard,knife,bw,0092_cl_dnn_bw_knife_40_n03041632_10000.png,n03041632_10000.png,0.0,-1.9803035,-1.6330913,-0.2455161
alexnet_w1_mlp_simclrhn_probe0,1,93,NaN,cat,cat,cr,0093_cl_dnn_cr_cat_40_n02125311_2959.png,n02125311_2959.png,1.0,1.8949336,-2.0864959,2.815296
alexnet_w1_mlp_simclrhn_probe0,1,94,NaN,car,car,bw,0094_cl_dnn_bw_car_40_n04285008_13759.png,n04285008_13759.png,1.0,6.5373874,0.28578228,4.4205523
alexnet_w1_mlp_simclrhn_probe0,1,95,NaN,bicycle,bottle,cr,0095_cl_dnn_cr_bottle_40_n03937543_396.png,n03937543_396.png,0.0,-10.270955,-6.1187196,-2.936074
alexnet_w1_mlp_simclrhn_probe0,1,96,NaN,boat,boat,bw,0096_cl_dnn_bw_boat_40_n03662601_3984.png,n03662601_3984.png,1.0,-3.0961316,-4.8981495,1.2742192
alexnet_w1_mlp_simclrhn_probe0,1,97,NaN,truck,truck,bw,0097_cl_dnn_bw_truck_40_n04467665_2230.png,n04467665_2230.png,1.0,2.1536214,0.38701093,1.2491823
alexnet_w1_mlp_simclrhn_probe0,1,98,NaN,boat,boat,cr,0098_cl_dnn_cr_boat_40_n03662601_28640.png,n03662601_28640.png,1.0,3.19634,-3.4965503,4.7325883
alexnet_w1_mlp_simclrhn_probe0,1,99,NaN,cat,cat,cr,0099_cl_dnn_cr_cat_40_n02124075_11039.png,n02124075_11039.png,1.0,-3.902917,-5.612769,1.2090482
alexnet_w1_mlp_simclrhn_probe0,1,100,NaN,clock,knife,bw,0100_cl_dnn_bw_knife_40_n03041632_7380.png,n03041632_7380.png,0.0,-2.415811,0.46082076,-2.0340858
alexnet_w1_mlp_simclrhn_probe0,1,101,NaN,cat,cat,cr,0101_cl_dnn_cr_cat_40_n02123045_6607.png,n02123045_6607.png,1.0,5.519531,-5.8922596,8.069355
alexnet_w1_mlp_simclrhn_probe0,1,102,NaN,chair,chair,cr,0102_cl_dnn_cr_chair_40_n03376595_6704.png,n03376595_6704.png,1.0,-2.094809,-4.0378747,1.3739549
alexnet_w1_mlp_simclrhn_probe0,1,103,NaN,bear,bear,bw,0103_cl_dnn_bw_bear_40_n02133161_12187.png,n02133161_12187.png,1.0,3.9505973,-1.4133315,3.7928705
alexnet_w1_mlp_simclrhn_probe0,1,104,NaN,cat,dog,cr,0104_cl_dnn_cr_dog_40_n02110958_2363.png,n02110958_2363.png,0.0,-5.989188,-4.9862313,-0.70919764
alexnet_w1_mlp_simclrhn_probe0,1,105,NaN,airplane,airplane,cr,0105_cl_dnn_cr_airplane_40_n02690373_19438.png,n02690373_19438.png,1.0,4.459124,-4.5454936,6.367226
alexnet_w1_mlp_simclrhn_probe0,1,106,NaN,bicycle,bird,cr,0106_cl_dnn_cr_bird_40_n01855032_5511.png,n01855032_5511.png,0.0,-3.673827,-3.3779325,-0.20922893
alexnet_w1_mlp_simclrhn_probe0,1,107,NaN,boat,boat,bw,0107_cl_dnn_bw_boat_40_n04273569_9821.png,n04273569_9821.png,1.0,4.447081,-3.0730357,5.317526
alexnet_w1_mlp_simclrhn_probe0,1,108,NaN,elephant,bear,bw,0108_cl_dnn_bw_bear_40_n02133161_13461.png,n02133161_13461.png,0.0,-4.7717853,-3.9860399,-0.5556059
alexnet_w1_mlp_simclrhn_probe0,1,109,NaN,knife,dog,cr,0109_cl_dnn_cr_dog_40_n02113023_8552.png,n02113023_8552.png,0.0,-5.1953983,-3.7642784,-1.0119547
alexnet_w1_mlp_simclrhn_probe0,1,110,NaN,elephant,elephant,cr,0110_cl_dnn_cr_elephant_40_n02504458_1600.png,n02504458_1600.png,1.0,5.921894,-2.6956213,6.093504
alexnet_w1_mlp_simclrhn_probe0,1,111,NaN,chair,chair,cr,0111_cl_dnn_cr_chair_40_n04099969_4205.png,n04099969_4205.png,1.0,1.2911019,-6.4504533,5.4741063
alexnet_w1_mlp_simclrhn_probe0,1,112,NaN,dog,dog,bw,0112_cl_dnn_bw_dog_40_n02105505_2121.png,n02105505_2121.png,1.0,-3.1148455,-8.229519,3.6166205
alexnet_w1_mlp_simclrhn_probe0,1,113,NaN,chair,chair,cr,0113_cl_dnn_cr_chair_40_n02791124_4528.png,n02791124_4528.png,1.0,-2.3383107,-2.9027176,0.39909592
alexnet_w1_mlp_simclrhn_probe0,1,114,NaN,airplane,truck,bw,0114_cl_dnn_bw_truck_40_n03417042_5659.png,n03417042_5659.png,0.0,-1.0524976,2.0485249,-2.192754
alexnet_w1_mlp_simclrhn_probe0,1,115,NaN,elephant,elephant,cr,0115_cl_dnn_cr_elephant_40_n02504013_10330.png,n02504013_10330.png,1.0,7.595688,-7.289517,10.525429
alexnet_w1_mlp_simclrhn_probe0,1,116,NaN,cat,cat,cr,0116_cl_dnn_cr_cat_40_n02123394_1594.png,n02123394_1594.png,1.0,0.13101523,-2.7140372,2.011756
alexnet_w1_mlp_simclrhn_probe0,1,117,NaN,boat,bear,bw,0117_cl_dnn_bw_bear_40_n02132136_10654.png,n02132136_10654.png,0.0,-3.5383022,-2.2993321,-0.87608415
alexnet_w1_mlp_simclrhn_probe0,1,118,NaN,bottle,bottle,bw,0118_cl_dnn_bw_bottle_40_n02823428_5265.png,n02823428_5265.png,1.0,0.043099165,-2.0643256,1.4901743
alexnet_w1_mlp_simclrhn_probe0,1,119,NaN,airplane,truck,cr,0119_cl_dnn_cr_truck_40_n04467665_3125.png,n04467665_3125.png,0.0,-3.6470895,-0.36087266,-2.3237062
alexnet_w1_mlp_simclrhn_probe0,1,120,NaN,airplane,airplane,cr,0120_cl_dnn_cr_airplane_40_n02690373_60.png,n02690373_60.png,1.0,8.444556,0.76317173,5.431559
alexnet_w1_mlp_simclrhn_probe0,1,121,NaN,keyboard,keyboard,cr,0121_cl_dnn_cr_keyboard_40_n03085013_21645.png,n03085013_21645.png,1.0,-2.6136343,-4.8796167,1.6022916
alexnet_w1_mlp_simclrhn_probe0,1,122,NaN,truck,car,bw,0122_cl_dnn_bw_car_40_n03100240_9471.png,n03100240_9471.png,0.0,-2.8513148,-2.6818833,-0.119806126
alexnet_w1_mlp_simclrhn_probe0,1,123,NaN,boat,boat,cr,0123_cl_dnn_cr_boat_40_n03344393_9818.png,n03344393_9818.png,1.0,0.33382803,-0.122280836,0.3225177
alexnet_w1_mlp_simclrhn_probe0,1,124,NaN,elephant,elephant,bw,0124_cl_dnn_bw_elephant_40_n02504458_5444.png,n02504458_5444.png,1.0,1.3771348,-5.1238356,4.5968804
alexnet_w1_mlp_simclrhn_probe0,1,125,NaN,bottle,bottle,bw,0125_cl_dnn_bw_bottle_40_n04557648_26823.png,n04557648_26823.png,1.0,0.28369826,-6.074244,4.495744
alexnet_w1_mlp_simclrhn_probe0,1,126,NaN,bicycle,bottle,cr,0126_cl_dnn_cr_bottle_40_n02823428_765.png,n02823428_765.png,0.0,-5.006904,-4.5138435,-0.3486465
alexnet_w1_mlp_simclrhn_probe0,1,127,NaN,cat,cat,bw,0127_cl_dnn_bw_cat_40_n02123045_1787.png,n02123045_1787.png,1.0,-1.0042406,-9.1305685,5.7461815
alexnet_w1_mlp_simclrhn_probe0,1,128,NaN,truck,car,bw,0128_cl_dnn_bw_car_40_n02814533_35863.png,n02814533_35863.png,0.0,2.539951,3.3719726,-0.58832806
alexnet_w1_mlp_simclrhn_probe0,1,129,NaN,car,boat,bw,0129_cl_dnn_bw_boat_40_n02951358_7944.png,n02951358_7944.png,0.0,-6.9555335,-6.5621905,-0.27813548
alexnet_w1_mlp_simclrhn_probe0,1,130,NaN,cat,dog,bw,0130_cl_dnn_bw_dog_40_n02091467_3727.png,n02091467_3727.png,0.0,-1.9869978,-0.032503128,-1.3820364
alexnet_w1_mlp_simclrhn_probe0,1,131,NaN,bicycle,bicycle,cr,0131_cl_dnn_cr_bicycle_40_n02835271_5886.png,n02835271_5886.png,1.0,-2.0644164,-4.876956,1.9887658
alexnet_w1_mlp_simclrhn_probe0,1,132,NaN,truck,truck,bw,0132_cl_dnn_bw_truck_40_n04467665_18234.png,n04467665_18234.png,1.0,2.5340395,-1.8266845,3.0834975
alexnet_w1_mlp_simclrhn_probe0,1,133,NaN,elephant,elephant,cr,0133_cl_dnn_cr_elephant_40_n02504013_4892.png,n02504013_4892.png,1.0,4.636046,-2.5034747,5.0484037
alexnet_w1_mlp_simclrhn_probe0,1,134,NaN,keyboard,keyboard,cr,0134_cl_dnn_cr_keyboard_40_n03085013_19618.png,n03085013_19618.png,1.0,7.116042,-0.20656902,5.1778684
alexnet_w1_mlp_simclrhn_probe0,1,135,NaN,clock,clock,cr,0135_cl_dnn_cr_clock_40_n03196217_3430.png,n03196217_3430.png,1.0,-0.19463508,-0.31164107,0.08273573
alexnet_w1_mlp_simclrhn_probe0,1,136,NaN,bicycle,bicycle,bw,0136_cl_dnn_bw_bicycle_40_n03792782_24591.png,n03792782_24591.png,1.0,6.9251595,-6.1329107,9.23345
alexnet_w1_mlp_simclrhn_probe0,1,137,NaN,bicycle,bird,cr,0137_cl_dnn_cr_bird_40_n02007558_2822.png,n02007558_2822.png,0.0,-10.355891,-5.6327295,-3.3397796
alexnet_w1_mlp_simclrhn_probe0,1,138,NaN,truck,truck,bw,0138_cl_dnn_bw_truck_40_n04467665_71126.png,n04467665_71126.png,1.0,4.4840965,-0.22726071,3.3314326
alexnet_w1_mlp_simclrhn_probe0,1,139,NaN,bicycle,bicycle,cr,0139_cl_dnn_cr_bicycle_40_n02835271_22263.png,n02835271_22263.png,1.0,5.197213,-4.1129293,6.583265
alexnet_w1_mlp_simclrhn_probe0,1,140,NaN,car,car,bw,0140_cl_dnn_bw_car_40_n04285008_5548.png,n04285008_5548.png,1.0,2.8836257,2.2154799,0.4724505
alexnet_w1_mlp_simclrhn_probe0,1,141,NaN,oven,oven,bw,0141_cl_dnn_bw_oven_40_n04111531_13006.png,n04111531_13006.png,1.0,-3.1033823,-3.7258184,0.44012874
alexnet_w1_mlp_simclrhn_probe0,1,142,NaN,car,car,bw,0142_cl_dnn_bw_car_40_n04285008_11410.png,n04285008_11410.png,1.0,0.6590762,-4.846826,3.893261
alexnet_w1_mlp_simclrhn_probe0,1,143,NaN,oven,chair,bw,0143_cl_dnn_bw_chair_40_n04429376_2304.png,n04429376_2304.png,0.0,-3.126412,2.6313999,-4.071388
alexnet_w1_mlp_simclrhn_probe0,1,144,NaN,boat,boat,cr,0144_cl_dnn_cr_boat_40_n03662601_27165.png,n03662601_27165.png,1.0,3.1083646,0.3999077,1.9151683
alexnet_w1_mlp_simclrhn_probe0,1,145,NaN,truck,truck,bw,0145_cl_dnn_bw_truck_40_n04467665_70308.png,n04467665_70308.png,1.0,-1.1322234,-3.3360546,1.558344
alexnet_w1_mlp_simclrhn_probe0,1,146,NaN,bicycle,bicycle,cr,0146_cl_dnn_cr_bicycle_40_n03792782_51414.png,n03792782_51414.png,1.0,-1.6574879,-4.58132,2.0674615
alexnet_w1_mlp_simclrhn_probe0,1,147,NaN,knife,knife,cr,0147_cl_dnn_cr_knife_40_n03041632_44738.png,n03041632_44738.png,1.0,1.3755662,-1.1482859,1.7846329
alexnet_w1_mlp_simclrhn_probe0,1,148,NaN,elephant,elephant,bw,0148_cl_dnn_bw_elephant_40_n02504458_11363.png,n02504458_11363.png,1.0,-9.793043e-05,-6.7941904,4.804149
alexnet_w1_mlp_simclrhn_probe0,1,149,NaN,truck,truck,cr,0149_cl_dnn_cr_truck_40_n04467665_4899.png,n04467665_4899.png,1.0,1.1058288,-1.0637646,1.5341341
alexnet_w1_mlp_simclrhn_probe0,1,150,NaN,bear,bear,cr,0150_cl_dnn_cr_bear_40_n02134418_685.png,n02134418_685.png,1.0,-3.6365168,-4.583443,0.6695781
alexnet_w1_mlp_simclrhn_probe0,1,151,NaN,keyboard,keyboard,bw,0151_cl_dnn_bw_keyboard_40_n04505470_4363.png,n04505470_4363.png,1.0,2.3231542,-2.5030656,3.4126527
alexnet_w1_mlp_simclrhn_probe0,1,152,NaN,oven,oven,bw,0152_cl_dnn_bw_oven_40_n04111531_12468.png,n04111531_12468.png,1.0,3.9857764,-1.5379791,3.905885
alexnet_w1_mlp_simclrhn_probe0,1,153,NaN,oven,bottle,cr,0153_cl_dnn_cr_bottle_40_n04591713_5559.png,n04591713_5559.png,0.0,-7.141495,-6.7479806,-0.27825686
alexnet_w1_mlp_simclrhn_probe0,1,154,NaN,elephant,elephant,cr,0154_cl_dnn_cr_elephant_40_n02504013_3197.png,n02504013_3197.png,1.0,-0.39656952,-4.094593,2.6148975
alexnet_w1_mlp_simclrhn_probe0,1,155,NaN,oven,bird,bw,0155_cl_dnn_bw_bird_40_n01817953_5039.png,n01817953_5039.png,0.0,-6.447642,-4.1930714,-1.5942221
alexnet_w1_mlp_simclrhn_probe0,1,156,NaN,bicycle,bicycle,cr,0156_cl_dnn_cr_bicycle_40_n03792782_3296.png,n03792782_3296.png,1.0,3.7788796,-3.9268193,5.448752
alexnet_w1_mlp_simclrhn_probe0,1,157,NaN,dog,bird,cr,0157_cl_dnn_cr_bird_40_n01855672_5670.png,n01855672_5670.png,0.0,-11.941712,-7.602211,-3.068491
alexnet_w1_mlp_simclrhn_probe0,1,158,NaN,oven,oven,cr,0158_cl_dnn_cr_oven_40_n04111531_2260.png,n04111531_2260.png,1.0,5.305704,-2.4991815,5.518888
alexnet_w1_mlp_simclrhn_probe0,1,159,NaN,cat,cat,cr,0159_cl_dnn_cr_cat_40_n02123045_5932.png,n02123045_5932.png,1.0,-5.4563217,-5.837473,0.2695146
alexnet_w1_mlp_simclrhn_probe0,1,160,NaN,cat,dog,cr,0160_cl_dnn_cr_dog_40_n02100583_1267.png,n02100583_1267.png,0.0,-9.021342,-7.028789,-1.408948
alexnet_w1_mlp_simclrhn_probe0,1,161,NaN,cat,dog,bw,0161_cl_dnn_bw_dog_40_n02099601_8005.png,n02099601_8005.png,0.0,-1.9085156,-1.7274765,-0.12801397
alexnet_w1_mlp_simclrhn_probe0,1,162,NaN,bicycle,boat,cr,0162_cl_dnn_cr_boat_40_n02951358_12080.png,n02951358_12080.png,0.0,-8.482689,-4.725918,-2.6564384
alexnet_w1_mlp_simclrhn_probe0,1,163,NaN,oven,oven,cr,0163_cl_dnn_cr_oven_40_n04111531_20028.png,n04111531_20028.png,1.0,2.1851192,-7.924932,7.1488857
alexnet_w1_mlp_simclrhn_probe0,1,164,NaN,cat,cat,bw,0164_cl_dnn_bw_cat_40_n02123159_2107.png,n02123159_2107.png,1.0,0.26025346,-5.9246864,4.373413
alexnet_w1_mlp_simclrhn_probe0,1,165,NaN,bear,bear,cr,0165_cl_dnn_cr_bear_40_n02134418_1351.png,n02134418_1351.png,1.0,-0.9635259,-1.8651785,0.63756466
alexnet_w1_mlp_simclrhn_probe0,1,166,NaN,oven,oven,cr,0166_cl_dnn_cr_oven_40_n04111531_6609.png,n04111531_6609.png,1.0,4.539155,-0.10969362,3.2872324
alexnet_w1_mlp_simclrhn_probe0,1,167,NaN,airplane,knife,bw,0167_cl_dnn_bw_knife_40_n03041632_21477.png,n03041632_21477.png,0.0,-1.3557806,1.2429099,-1.8375517
alexnet_w1_mlp_simclrhn_probe0,1,168,NaN,cat,cat,cr,0168_cl_dnn_cr_cat_40_n02123394_238.png,n02123394_238.png,1.0,2.5715628,-1.3289989,2.7581139
alexnet_w1_mlp_simclrhn_probe0,1,169,NaN,elephant,elephant,cr,0169_cl_dnn_cr_elephant_40_n02504013_3141.png,n02504013_3141.png,1.0,-0.8372582,-3.2729406,1.7222875
alexnet_w1_mlp_simclrhn_probe0,1,170,NaN,elephant,elephant,cr,0170_cl_dnn_cr_elephant_40_n02504013_5035.png,n02504013_5035.png,1.0,-0.71616805,-7.9012246,5.080602
alexnet_w1_mlp_simclrhn_probe0,1,171,NaN,dog,dog,cr,0171_cl_dnn_cr_dog_40_n02089867_2298.png,n02089867_2298.png,1.0,-2.911406,-4.273282,0.9629918
alexnet_w1_mlp_simclrhn_probe0,1,172,NaN,chair,bear,bw,0172_cl_dnn_bw_bear_40_n02134418_2503.png,n02134418_2503.png,0.0,-5.156509,-2.8699427,-1.6168466
alexnet_w1_mlp_simclrhn_probe0,1,173,NaN,keyboard,keyboard,cr,0173_cl_dnn_cr_keyboard_40_n04505470_4878.png,n04505470_4878.png,1.0,-1.7165546,-6.2302833,3.191688
alexnet_w1_mlp_simclrhn_probe0,1,174,NaN,bottle,knife,bw,0174_cl_dnn_bw_knife_40_n03041632_22734.png,n03041632_22734.png,0.0,-6.9605784,-3.8580456,-2.1938221
alexnet_w1_mlp_simclrhn_probe0,1,175,NaN,bear,bear,cr,0175_cl_dnn_cr_bear_40_n02132136_8896.png,n02132136_8896.png,1.0,-0.64367765,-1.1013837,0.32364705
alexnet_w1_mlp_simclrhn_probe0,1,176,NaN,bicycle,boat,bw,0176_cl_dnn_bw_boat_40_n02951358_5952.png,n02951358_5952.png,0.0,-7.136552,-2.3199632,-3.4058423
alexnet_w1_mlp_simclrhn_probe0,1,177,NaN,keyboard,chair,bw,0177_cl_dnn_bw_chair_40_n04099969_1775.png,n04099969_1775.png,0.0,-4.98172,-2.451013,-1.78948
alexnet_w1_mlp_simclrhn_probe0,1,178,NaN,airplane,airplane,bw,0178_cl_dnn_bw_airplane_40_n02690373_6524.png,n02690373_6524.png,1.0,2.7027433,0.29180694,1.7047895
alexnet_w1_mlp_simclrhn_probe0,1,179,NaN,bird,bear,cr,0179_cl_dnn_cr_bear_40_n02133161_1916.png,n02133161_1916.png,0.0,-5.283614,-1.8437377,-2.4323602
alexnet_w1_mlp_simclrhn_probe0,1,180,NaN,keyboard,knife,bw,0180_cl_dnn_bw_knife_40_n03041632_96714.png,n03041632_96714.png,0.0,-1.3836863,-0.6124927,-0.5453163
alexnet_w1_mlp_simclrhn_probe0,1,181,NaN,truck,truck,bw,0181_cl_dnn_bw_truck_40_n03417042_13635.png,n03417042_13635.png,1.0,2.0362399,0.08051496,1.3829064
alexnet_w1_mlp_simclrhn_probe0,1,182,NaN,boat,boat,bw,0182_cl_dnn_bw_boat_40_n04612504_1748.png,n04612504_1748.png,1.0,-0.30424756,-2.9791205,1.8914207
alexnet_w1_mlp_simclrhn_probe0,1,183,NaN,bird,bird,cr,0183_cl_dnn_cr_bird_40_n01592084_3341.png,n01592084_3341.png,1.0,-0.62960744,-4.8459187,2.9813824
alexnet_w1_mlp_simclrhn_probe0,1,184,NaN,car,car,bw,0184_cl_dnn_bw_car_40_n02814533_12388.png,n02814533_12388.png,1.0,6.4946933,-1.79668,5.8628864
alexnet_w1_mlp_simclrhn_probe0,1,185,NaN,bicycle,bicycle,cr,0185_cl_dnn_cr_bicycle_40_n03792782_5864.png,n03792782_5864.png,1.0,0.43849647,-5.9632072,4.526688
alexnet_w1_mlp_simclrhn_probe0,1,186,NaN,cat,bird,bw,0186_cl_dnn_bw_bird_40_n01514859_17156.png,n01514859_17156.png,0.0,-6.344532,-2.0537462,-3.0340438
alexnet_w1_mlp_simclrhn_probe0,1,187,NaN,car,car,cr,0187_cl_dnn_cr_car_40_n03100240_7737.png,n03100240_7737.png,1.0,3.6173067,-2.8185222,4.5508184
alexnet_w1_mlp_simclrhn_probe0,1,188,NaN,bottle,bottle,bw,0188_cl_dnn_bw_bottle_40_n04579145_1829.png,n04579145_1829.png,1.0,-3.69544,-3.9775796,0.19950278
alexnet_w1_mlp_simclrhn_probe0,1,189,NaN,bear,elephant,bw,0189_cl_dnn_bw_elephant_40_n02504013_22388.png,n02504013_22388.png,0.0,-0.0934715,0.39248234,-0.34362125
alexnet_w1_mlp_simclrhn_probe0,1,190,NaN,airplane,airplane,bw,0190_cl_dnn_bw_airplane_40_n02690373_7107.png,n02690373_7107.png,1.0,2.6143546,-1.9802281,3.2488606
alexnet_w1_mlp_simclrhn_probe0,1,191,NaN,car,car,bw,0191_cl_dnn_bw_car_40_n02814533_45594.png,n02814533_45594.png,1.0,9.013045,5.729545,2.3217852
alexnet_w1_mlp_simclrhn_probe0,1,192,NaN,elephant,boat,cr,0192_cl_dnn_cr_boat_40_n04612504_18536.png,n04612504_18536.png,0.0,-3.7439544,0.72630894,-3.1609538
alexnet_w1_mlp_simclrhn_probe0,1,193,NaN,elephant,dog,cr,0193_cl_dnn_cr_dog_40_n02088466_6371.png,n02088466_6371.png,0.0,-5.7393765,-0.9960153,-3.354063
alexnet_w1_mlp_simclrhn_probe0,1,194,NaN,oven,bear,bw,0194_cl_dnn_bw_bear_40_n02133161_1003.png,n02133161_1003.png,0.0,-6.727868,-6.1124477,-0.4351679
alexnet_w1_mlp_simclrhn_probe0,1,195,NaN,knife,knife,bw,0195_cl_dnn_bw_knife_40_n03041632_29037.png,n03041632_29037.png,1.0,-3.2388828,-5.2505755,1.4224817
alexnet_w1_mlp_simclrhn_probe0,1,196,NaN,airplane,airplane,cr,0196_cl_dnn_cr_airplane_40_n02690373_4015.png,n02690373_4015.png,1.0,2.7594452,0.21888284,1.796449
alexnet_w1_mlp_simclrhn_probe0,1,197,NaN,knife,knife,bw,0197_cl_dnn_bw_knife_40_n03041632_28009.png,n03041632_28009.png,1.0,-2.8658729,-5.146055,1.6123325
alexnet_w1_mlp_simclrhn_probe0,1,198,NaN,bird,bird,bw,0198_cl_dnn_bw_bird_40_n01560419_5714.png,n01560419_5714.png,1.0,-3.657208,-6.98303,2.3517113
alexnet_w1_mlp_simclrhn_probe0,1,199,NaN,bicycle,cat,cr,0199_cl_dnn_cr_cat_40_n02125311_6429.png,n02125311_6429.png,0.0,-5.0463295,-3.1596384,-1.3340921
alexnet_w1_mlp_simclrhn_probe0,1,200,NaN,chair,chair,bw,0200_cl_dnn_bw_chair_40_n04099969_9847.png,n04099969_9847.png,1.0,-0.36851913,-3.790032,2.419375
alexnet_w1_mlp_simclrhn_probe0,1,201,NaN,cat,cat,bw,0201_cl_dnn_bw_cat_40_n02123597_7142.png,n02123597_7142.png,1.0,-0.73186415,-2.4119918,1.1880296
alexnet_w1_mlp_simclrhn_probe0,1,202,NaN,bicycle,bicycle,cr,0202_cl_dnn_cr_bicycle_40_n02835271_8982.png,n02835271_8982.png,1.0,-3.064186,-3.517086,0.32024863
alexnet_w1_mlp_simclrhn_probe0,1,203,NaN,airplane,bird,bw,0203_cl_dnn_bw_bird_40_n01592084_19555.png,n01592084_19555.png,0.0,0.44407803,0.9723017,-0.37351057
alexnet_w1_mlp_simclrhn_probe0,1,204,NaN,knife,knife,cr,0204_cl_dnn_cr_knife_40_n03041632_8618.png,n03041632_8618.png,1.0,-6.0377197,-7.063158,0.7250944
alexnet_w1_mlp_simclrhn_probe0,1,205,NaN,truck,boat,bw,0205_cl_dnn_bw_boat_40_n03344393_547.png,n03344393_547.png,0.0,-0.71067446,1.35027,-1.4573079
alexnet_w1_mlp_simclrhn_probe0,1,206,NaN,knife,bird,bw,0206_cl_dnn_bw_bird_40_n01843383_5962.png,n01843383_5962.png,0.0,-7.7756834,-6.81986,-0.6758692
alexnet_w1_mlp_simclrhn_probe0,1,207,NaN,keyboard,keyboard,cr,0207_cl_dnn_cr_keyboard_40_n04505470_213.png,n04505470_213.png,1.0,6.6893005,0.20925504,4.582084
alexnet_w1_mlp_simclrhn_probe0,1,208,NaN,elephant,elephant,cr,0208_cl_dnn_cr_elephant_40_n02504458_2607.png,n02504458_2607.png,1.0,-1.0971471,-8.211173,5.030376
alexnet_w1_mlp_simclrhn_probe0,1,209,NaN,bear,bear,bw,0209_cl_dnn_bw_bear_40_n02134418_4157.png,n02134418_4157.png,1.0,-1.6471028,-3.6589923,1.4226207
alexnet_w1_mlp_simclrhn_probe0,1,210,NaN,bottle,bottle,cr,0210_cl_dnn_cr_bottle_40_n03983396_11519.png,n03983396_11519.png,1.0,-1.4532154,-4.672471,2.2763577
alexnet_w1_mlp_simclrhn_probe0,1,211,NaN,cat,cat,cr,0211_cl_dnn_cr_cat_40_n02124075_1999.png,n02124075_1999.png,1.0,0.76020026,-5.7516985,4.604608
alexnet_w1_mlp_simclrhn_probe0,1,212,NaN,cat,cat,bw,0212_cl_dnn_bw_cat_40_n02124075_11252.png,n02124075_11252.png,1.0,-3.6365979,-4.482873,0.59840685
alexnet_w1_mlp_simclrhn_probe0,1,213,NaN,airplane,airplane,bw,0213_cl_dnn_bw_airplane_40_n02690373_4195.png,n02690373_4195.png,1.0,1.5451605,-0.85304296,1.6957859
alexnet_w1_mlp_simclrhn_probe0,1,214,NaN,airplane,airplane,cr,0214_cl_dnn_cr_airplane_40_n02690373_2629.png,n02690373_2629.png,1.0,2.3723977,-2.3036067,3.3064344
alexnet_w1_mlp_simclrhn_probe0,1,215,NaN,keyboard,keyboard,bw,0215_cl_dnn_bw_keyboard_40_n04505470_5060.png,n04505470_5060.png,1.0,5.1636715,-2.3984485,5.3472266
alexnet_w1_mlp_simclrhn_probe0,1,216,NaN,bear,bear,cr,0216_cl_dnn_cr_bear_40_n02132136_10060.png,n02132136_10060.png,1.0,-1.8021001,-2.7852154,0.69516754
alexnet_w1_mlp_simclrhn_probe0,1,217,NaN,airplane,airplane,bw,0217_cl_dnn_bw_airplane_40_n02690373_4150.png,n02690373_4150.png,1.0,5.92566,-1.367593,5.157109
alexnet_w1_mlp_simclrhn_probe0,1,218,NaN,dog,dog,cr,0218_cl_dnn_cr_dog_40_n02102040_7465.png,n02102040_7465.png,1.0,-3.5615351,-5.624494,1.4587322
alexnet_w1_mlp_simclrhn_probe0,1,219,NaN,bird,bird,bw,0219_cl_dnn_bw_bird_40_n02009229_12179.png,n02009229_12179.png,1.0,-1.089382,-1.6964198,0.42924055
alexnet_w1_mlp_simclrhn_probe0,1,220,NaN,knife,knife,bw,0220_cl_dnn_bw_knife_40_n03041632_20413.png,n03041632_20413.png,1.0,0.7031299,-1.6476393,1.6622448
alexnet_w1_mlp_simclrhn_probe0,1,221,NaN,truck,truck,bw,0221_cl_dnn_bw_truck_40_n03796401_13490.png,n03796401_13490.png,1.0,-0.98993593,-6.115337,3.6242058
alexnet_w1_mlp_simclrhn_probe0,1,222,NaN,oven,oven,cr,0222_cl_dnn_cr_oven_40_n04111531_584.png,n04111531_584.png,1.0,2.1766531,-1.5586952,2.6412902
alexnet_w1_mlp_simclrhn_probe0,1,223,NaN,airplane,airplane,bw,0223_cl_dnn_bw_airplane_40_n02690373_3899.png,n02690373_3899.png,1.0,3.779,-0.003275156,2.6744726
alexnet_w1_mlp_simclrhn_probe0,1,224,NaN,bird,bird,cr,0224_cl_dnn_cr_bird_40_n02027492_8707.png,n02027492_8707.png,1.0,-1.8409038,-3.8972187,1.4540342
alexnet_w1_mlp_simclrhn_probe0,1,225,NaN,airplane,airplane,cr,0225_cl_dnn_cr_airplane_40_n02690373_2648.png,n02690373_2648.png,1.0,9.291138,1.0991939,5.792579
alexnet_w1_mlp_simclrhn_probe0,1,226,NaN,cat,cat,bw,0226_cl_dnn_bw_cat_40_n02123394_6598.png,n02123394_6598.png,1.0,-2.2537043,-4.36449,1.492551
alexnet_w1_mlp_simclrhn_probe0,1,227,NaN,bicycle,bicycle,bw,0227_cl_dnn_bw_bicycle_40_n02835271_17168.png,n02835271_17168.png,1.0,-3.14497,-6.5471935,2.4057355
alexnet_w1_mlp_simclrhn_probe0,1,228,NaN,truck,truck,bw,0228_cl_dnn_bw_truck_40_n03417042_29849.png,n03417042_29849.png,1.0,4.0598197,0.2900961,2.6655972
alexnet_w1_mlp_simclrhn_probe0,1,229,NaN,knife,knife,cr,0229_cl_dnn_cr_knife_40_n03041632_29125.png,n03041632_29125.png,1.0,-1.5282884,-2.4292018,0.63704205
alexnet_w1_mlp_simclrhn_probe0,1,230,NaN,clock,clock,bw,0230_cl_dnn_bw_clock_40_n04548280_5456.png,n04548280_5456.png,1.0,0.7577312,-1.5291936,1.6171001
alexnet_w1_mlp_simclrhn_probe0,1,231,NaN,truck,truck,bw,0231_cl_dnn_bw_truck_40_n03796401_8099.png,n03796401_8099.png,1.0,-4.9123926,-6.5206523,1.1372113
alexnet_w1_mlp_simclrhn_probe0,1,232,NaN,bear,bear,cr,0232_cl_dnn_cr_bear_40_n02132136_860.png,n02132136_860.png,1.0,-0.2661384,-2.9037488,1.8650723
alexnet_w1_mlp_simclrhn_probe0,1,233,NaN,truck,truck,bw,0233_cl_dnn_bw_truck_40_n03796401_4423.png,n03796401_4423.png,1.0,3.171335,-1.0697826,2.998923
alexnet_w1_mlp_simclrhn_probe0,1,234,NaN,elephant,elephant,bw,0234_cl_dnn_bw_elephant_40_n02504458_7871.png,n02504458_7871.png,1.0,6.417886,-1.8171186,5.8230276
alexnet_w1_mlp_simclrhn_probe0,1,235,NaN,oven,oven,cr,0235_cl_dnn_cr_oven_40_n04111531_14753.png,n04111531_14753.png,1.0,1.8964291,-2.3309748,2.9892259
alexnet_w1_mlp_simclrhn_probe0,1,236,NaN,clock,clock,bw,0236_cl_dnn_bw_clock_40_n04548280_17198.png,n04548280_17198.png,1.0,0.03575484,-0.4218455,0.3235723
alexnet_w1_mlp_simclrhn_probe0,1,237,NaN,oven,oven,cr,0237_cl_dnn_cr_oven_40_n04111531_15947.png,n04111531_15947.png,1.0,3.2346873,-4.8565054,5.721337
alexnet_w1_mlp_simclrhn_probe0,1,238,NaN,bear,elephant,bw,0238_cl_dnn_bw_elephant_40_n02504013_1103.png,n02504013_1103.png,0.0,-8.0545025,-2.8760624,-3.6617103
alexnet_w1_mlp_simclrhn_probe0,1,239,NaN,bicycle,bicycle,cr,0239_cl_dnn_cr_bicycle_40_n03792782_33853.png,n03792782_33853.png,1.0,-2.1943924,-4.1498694,1.3827311
alexnet_w1_mlp_simclrhn_probe0,1,240,NaN,oven,bottle,bw,0240_cl_dnn_bw_bottle_40_n04557648_5665.png,n04557648_5665.png,0.0,-2.429702,-0.0043810606,-1.714961
alexnet_w1_mlp_simclrhn_probe0,1,241,NaN,bear,bear,bw,0241_cl_dnn_bw_bear_40_n02134418_5824.png,n02134418_5824.png,1.0,3.1179578,-1.9207264,3.562888
alexnet_w1_mlp_simclrhn_probe0,1,242,NaN,truck,truck,cr,0242_cl_dnn_cr_truck_40_n04467665_54349.png,n04467665_54349.png,1.0,4.1052904,0.33885023,2.6632755
alexnet_w1_mlp_simclrhn_probe0,1,243,NaN,truck,truck,cr,0243_cl_dnn_cr_truck_40_n03796401_8100.png,n03796401_8100.png,1.0,4.0612636,0.49712896,2.5202239
alexnet_w1_mlp_simclrhn_probe0,1,244,NaN,elephant,elephant,cr,0244_cl_dnn_cr_elephant_40_n02504013_4288.png,n02504013_4288.png,1.0,6.1603804,-2.0870948,5.8318453
alexnet_w1_mlp_simclrhn_probe0,1,245,NaN,boat,boat,cr,0245_cl_dnn_cr_boat_40_n03662601_4437.png,n03662601_4437.png,1.0,0.8194586,-0.18550628,0.7106175
alexnet_w1_mlp_simclrhn_probe0,1,246,NaN,bicycle,bicycle,cr,0246_cl_dnn_cr_bicycle_40_n02835271_7351.png,n02835271_7351.png,1.0,4.1129484,-3.0146143,5.039948
alexnet_w1_mlp_simclrhn_probe0,1,247,NaN,elephant,elephant,bw,0247_cl_dnn_bw_elephant_40_n02504458_2556.png,n02504458_2556.png,1.0,0.04602945,-0.3870884,0.30626056
alexnet_w1_mlp_simclrhn_probe0,1,248,NaN,airplane,airplane,cr,0248_cl_dnn_cr_airplane_40_n02690373_303.png,n02690373_303.png,1.0,8.22261,-3.3670826,8.19515
alexnet_w1_mlp_simclrhn_probe0,1,249,NaN,elephant,elephant,bw,0249_cl_dnn_bw_elephant_40_n02504013_5503.png,n02504013_5503.png,1.0,-1.4398471,-7.0712504,3.9820037
alexnet_w1_mlp_simclrhn_probe0,1,250,NaN,airplane,truck,cr,0250_cl_dnn_cr_truck_40_n04467665_68332.png,n04467665_68332.png,0.0,-1.7400768,2.7264209,-3.1582906
alexnet_w1_mlp_simclrhn_probe0,1,251,NaN,clock,clock,bw,0251_cl_dnn_bw_clock_40_n02708093_3079.png,n02708093_3079.png,1.0,0.88666075,-2.8422294,2.6367235
alexnet_w1_mlp_simclrhn_probe0,1,252,NaN,cat,cat,cr,0252_cl_dnn_cr_cat_40_n02123394_2395.png,n02123394_2395.png,1.0,1.4937526,-2.7450864,2.997312
alexnet_w1_mlp_simclrhn_probe0,1,253,NaN,chair,chair,cr,0253_cl_dnn_cr_chair_40_n04429376_20906.png,n04429376_20906.png,1.0,-0.9975972,-1.8321716,0.5901332
alexnet_w1_mlp_simclrhn_probe0,1,254,NaN,boat,boat,cr,0254_cl_dnn_cr_boat_40_n03344393_8160.png,n03344393_8160.png,1.0,0.10116718,-1.4387509,1.0888865
alexnet_w1_mlp_simclrhn_probe0,1,255,NaN,keyboard,keyboard,cr,0255_cl_dnn_cr_keyboard_40_n03085013_21325.png,n03085013_21325.png,1.0,5.03946,1.0423422,2.8263893
alexnet_w1_mlp_simclrhn_probe0,1,256,NaN,knife,knife,cr,0256_cl_dnn_cr_knife_40_n03041632_99875.png,n03041632_99875.png,1.0,-6.8692093,-9.270733,1.6981336
alexnet_w1_mlp_simclrhn_probe0,1,257,NaN,knife,clock,bw,0257_cl_dnn_bw_clock_40_n04548280_7384.png,n04548280_7384.png,0.0,-0.67273957,-0.36197853,-0.21974124
alexnet_w1_mlp_simclrhn_probe0,1,258,NaN,keyboard,keyboard,bw,0258_cl_dnn_bw_keyboard_40_n03085013_23534.png,n03085013_23534.png,1.0,3.5201755,0.340856,2.2481184
alexnet_w1_mlp_simclrhn_probe0,1,259,NaN,truck,truck,bw,0259_cl_dnn_bw_truck_40_n03417042_2383.png,n03417042_2383.png,1.0,0.45840886,-1.1625098,1.1461626
alexnet_w1_mlp_simclrhn_probe0,1,260,NaN,clock,clock,bw,0260_cl_dnn_bw_clock_40_n03196217_711.png,n03196217_711.png,1.0,-0.6178226,-1.0888352,0.33305624
alexnet_w1_mlp_simclrhn_probe0,1,261,NaN,keyboard,keyboard,bw,0261_cl_dnn_bw_keyboard_40_n03085013_7992.png,n03085013_7992.png,1.0,2.8176079,-1.3045722,2.9148214
alexnet_w1_mlp_simclrhn_probe0,1,262,NaN,cat,cat,bw,0262_cl_dnn_bw_cat_40_n02125311_75445.png,n02125311_75445.png,1.0,-2.8577616,-5.0557575,1.5542178
alexnet_w1_mlp_simclrhn_probe0,1,263,NaN,knife,knife,cr,0263_cl_dnn_cr_knife_40_n03041632_47410.png,n03041632_47410.png,1.0,-0.8930319,-6.094857,3.6782458
alexnet_w1_mlp_simclrhn_probe0,1,264,NaN,oven,oven,bw,0264_cl_dnn_bw_oven_40_n04111531_741.png,n04111531_741.png,1.0,5.0052204,-2.5676374,5.3548193
alexnet_w1_mlp_simclrhn_probe0,1,265,NaN,oven,oven,bw,0265_cl_dnn_bw_oven_40_n04111531_3181.png,n04111531_3181.png,1.0,-5.724414,-7.102951,0.974773
alexnet_w1_mlp_simclrhn_probe0,1,266,NaN,truck,truck,bw,0266_cl_dnn_bw_truck_40_n03417042_17099.png,n03417042_17099.png,1.0,7.875267,2.4440267,3.8404667
alexnet_w1_mlp_simclrhn_probe0,1,267,NaN,boat,boat,cr,0267_cl_dnn_cr_boat_40_n03662601_15143.png,n03662601_15143.png,1.0,1.7683865,-0.018333316,1.2634017
alexnet_w1_mlp_simclrhn_probe0,1,268,NaN,keyboard,keyboard,bw,0268_cl_dnn_bw_keyboard_40_n03085013_19197.png,n03085013_19197.png,1.0,12.289568,4.1113257,5.7828903
alexnet_w1_mlp_simclrhn_probe0,1,269,NaN,airplane,airplane,cr,0269_cl_dnn_cr_airplane_40_n02690373_4202.png,n02690373_4202.png,1.0,4.5643377,-1.3110355,4.154516
alexnet_w1_mlp_simclrhn_probe0,1,270,NaN,bear,bear,bw,0270_cl_dnn_bw_bear_40_n02132136_10134.png,n02132136_10134.png,1.0,0.19611001,-1.5203179,1.2136978
alexnet_w1_mlp_simclrhn_probe0,1,271,NaN,boat,boat,bw,0271_cl_dnn_bw_boat_40_n03344393_5296.png,n03344393_5296.png,1.0,-0.07950659,-1.0879326,0.71306485
alexnet_w1_mlp_simclrhn_probe0,1,272,NaN,clock,keyboard,bw,0272_cl_dnn_bw_keyboard_40_n04505470_1600.png,n04505470_1600.png,0.0,1.441639,4.0138755,-1.818846
alexnet_w1_mlp_simclrhn_probe0,1,273,NaN,truck,truck,bw,0273_cl_dnn_bw_truck_40_n03417042_10043.png,n03417042_10043.png,1.0,1.648025,-2.1914237,2.7149003
alexnet_w1_mlp_simclrhn_probe0,1,274,NaN,bird,bird,bw,0274_cl_dnn_bw_bird_40_n02007558_5525.png,n02007558_5525.png,1.0,-3.987908,-4.549806,0.39732206
alexnet_w1_mlp_simclrhn_probe0,1,275,NaN,airplane,airplane,cr,0275_cl_dnn_cr_airplane_40_n02690373_6621.png,n02690373_6621.png,1.0,0.39874443,-3.9055266,3.0435793
alexnet_w1_mlp_simclrhn_probe0,1,276,NaN,keyboard,keyboard,bw,0276_cl_dnn_bw_keyboard_40_n04505470_6623.png,n04505470_6623.png,1.0,1.239779,-1.927176,2.2393754
alexnet_w1_mlp_simclrhn_probe0,1,277,NaN,oven,dog,cr,0277_cl_dnn_cr_dog_40_n02113624_3403.png,n02113624_3403.png,0.0,-6.618298,-4.1274037,-1.7613283
alexnet_w1_mlp_simclrhn_probe0,1,278,NaN,dog,dog,bw,0278_cl_dnn_bw_dog_40_n02106550_12642.png,n02106550_12642.png,1.0,-5.764058,-6.7874336,0.7236358
alexnet_w1_mlp_simclrhn_probe0,1,279,NaN,clock,clock,cr,0279_cl_dnn_cr_clock_40_n04548280_24041.png,n04548280_24041.png,1.0,3.5782015,-2.2464817,4.118673
alexnet_w1_mlp_simclrhn_probe0,1,280,NaN,truck,truck,bw,0280_cl_dnn_bw_truck_40_n03417042_3236.png,n03417042_3236.png,1.0,-2.25666,-3.675539,1.003299
alexnet_w1_mlp_simclrhn_probe0,1,281,NaN,car,car,bw,0281_cl_dnn_bw_car_40_n03100240_2583.png,n03100240_2583.png,1.0,6.481834,5.4010124,0.76425624
alexnet_w1_mlp_simclrhn_probe0,1,282,NaN,knife,knife,cr,0282_cl_dnn_cr_knife_40_n03041632_45090.png,n03041632_45090.png,1.0,0.70212066,-4.5513105,3.714737
alexnet_w1_mlp_simclrhn_probe0,1,283,NaN,cat,cat,cr,0283_cl_dnn_cr_cat_40_n02123597_660.png,n02123597_660.png,1.0,-3.0635958,-4.466194,0.99178684
alexnet_w1_mlp_simclrhn_probe0,1,284,NaN,clock,clock,bw,0284_cl_dnn_bw_clock_40_n04548280_7813.png,n04548280_7813.png,1.0,-0.27433875,-2.0433528,1.2508819
alexnet_w1_mlp_simclrhn_probe0,1,285,NaN,dog,dog,bw,0285_cl_dnn_bw_dog_40_n02111129_797.png,n02111129_797.png,1.0,-0.034565717,-2.1432064,1.4910342
alexnet_w1_mlp_simclrhn_probe0,1,286,NaN,knife,knife,cr,0286_cl_dnn_cr_knife_40_n03041632_3717.png,n03041632_3717.png,1.0,2.7558203,-1.184205,2.7860186
alexnet_w1_mlp_simclrhn_probe0,1,287,NaN,boat,boat,bw,0287_cl_dnn_bw_boat_40_n04273569_870.png,n04273569_870.png,1.0,-1.4351952,-2.7614758,0.93782204
alexnet_w1_mlp_simclrhn_probe0,1,288,NaN,elephant,elephant,bw,0288_cl_dnn_bw_elephant_40_n02504013_720.png,n02504013_720.png,1.0,7.332548,-0.026596755,5.203701
alexnet_w1_mlp_simclrhn_probe0,1,289,NaN,oven,oven,cr,0289_cl_dnn_cr_oven_40_n04111531_14876.png,n04111531_14876.png,1.0,3.0591462,-3.1896353,4.4185557
alexnet_w1_mlp_simclrhn_probe0,1,290,NaN,cat,cat,bw,0290_cl_dnn_bw_cat_40_n02123045_569.png,n02123045_569.png,1.0,-1.6581181,-4.316485,1.8797492
alexnet_w1_mlp_simclrhn_probe0,1,291,NaN,clock,clock,bw,0291_cl_dnn_bw_clock_40_n03196217_5888.png,n03196217_5888.png,1.0,0.60414463,0.08492103,0.36714652
alexnet_w1_mlp_simclrhn_probe0,1,292,NaN,keyboard,keyboard,cr,0292_cl_dnn_cr_keyboard_40_n04505470_4770.png,n04505470_4770.png,1.0,7.2121625,0.90502125,4.4598227
alexnet_w1_mlp_simclrhn_probe0,1,293,NaN,knife,knife,cr,0293_cl_dnn_cr_knife_40_n03041632_32292.png,n03041632_32292.png,1.0,-4.8214607,-6.4873137,1.177936
alexnet_w1_mlp_simclrhn_probe0,1,294,NaN,elephant,elephant,cr,0294_cl_dnn_cr_elephant_40_n02504013_6672.png,n02504013_6672.png,1.0,-4.0090704,-4.3866024,0.26695544
alexnet_w1_mlp_simclrhn_probe0,1,295,NaN,airplane,airplane,bw,0295_cl_dnn_bw_airplane_40_n02690373_5838.png,n02690373_5838.png,1.0,6.081555,-1.0159069,5.0186634
alexnet_w1_mlp_simclrhn_probe0,1,296,NaN,bird,bird,cr,0296_cl_dnn_cr_bird_40_n01796340_5508.png,n01796340_5508.png,1.0,-5.386558,-6.854247,1.037813
alexnet_w1_mlp_simclrhn_probe0,1,297,NaN,keyboard,clock,bw,0297_cl_dnn_bw_clock_40_n03196217_6477.png,n03196217_6477.png,0.0,-0.52747947,0.97958434,-1.0656551
alexnet_w1_mlp_simclrhn_probe0,1,298,NaN,bicycle,bird,bw,0298_cl_dnn_bw_bird_40_n02011460_5075.png,n02011460_5075.png,0.0,-7.1722803,-4.427553,-1.9408152
alexnet_w1_mlp_simclrhn_probe0,1,299,NaN,boat,boat,bw,0299_cl_dnn_bw_boat_40_n03344393_10284.png,n03344393_10284.png,1.0,-0.34598437,-1.425272,0.7631716
alexnet_w1_mlp_simclrhn_probe0,1,300,NaN,oven,oven,bw,0300_cl_dnn_bw_oven_40_n04111531_14559.png,n04111531_14559.png,1.0,0.8529282,-3.9327037,3.383953
alexnet_w1_mlp_simclrhn_probe0,1,301,NaN,bottle,knife,cr,0301_cl_dnn_cr_knife_40_n03041632_24060.png,n03041632_24060.png,0.0,-6.201497,-4.483537,-1.214781
alexnet_w1_mlp_simclrhn_probe0,1,302,NaN,airplane,airplane,bw,0302_cl_dnn_bw_airplane_40_n02690373_4134.png,n02690373_4134.png,1.0,6.11645,-1.2616612,5.2171125
alexnet_w1_mlp_simclrhn_probe0,1,303,NaN,elephant,bear,cr,0303_cl_dnn_cr_bear_40_n02134084_6669.png,n02134084_6669.png,0.0,-2.562283,-1.5760247,-0.69739
alexnet_w1_mlp_simclrhn_probe0,1,304,NaN,bird,bird,cr,0304_cl_dnn_cr_bird_40_n01558993_5744.png,n01558993_5744.png,1.0,-1.9326357,-9.2667465,5.1859994
alexnet_w1_mlp_simclrhn_probe0,1,305,NaN,oven,bird,bw,0305_cl_dnn_bw_bird_40_n01818515_10536.png,n01818515_10536.png,0.0,-12.608378,-6.922135,-4.0207815
alexnet_w1_mlp_simclrhn_probe0,1,306,NaN,bicycle,bottle,bw,0306_cl_dnn_bw_bottle_40_n04557648_20614.png,n04557648_20614.png,0.0,-7.356927,0.03991857,-5.2303596
alexnet_w1_mlp_simclrhn_probe0,1,307,NaN,clock,clock,cr,0307_cl_dnn_cr_clock_40_n04548280_3605.png,n04548280_3605.png,1.0,3.0387964,-1.1723061,2.9776993
alexnet_w1_mlp_simclrhn_probe0,1,308,NaN,truck,truck,bw,0308_cl_dnn_bw_truck_40_n03796401_27288.png,n03796401_27288.png,1.0,3.3107955,0.20737512,2.1944497
alexnet_w1_mlp_simclrhn_probe0,1,309,NaN,bicycle,bicycle,cr,0309_cl_dnn_cr_bicycle_40_n02835271_18276.png,n02835271_18276.png,1.0,2.9603891,-1.6724343,3.2759008
alexnet_w1_mlp_simclrhn_probe0,1,310,NaN,bear,bear,cr,0310_cl_dnn_cr_bear_40_n02133161_12152.png,n02133161_12152.png,1.0,-3.5699768,-3.9611325,0.27658886
alexnet_w1_mlp_simclrhn_probe0,1,311,NaN,elephant,elephant,cr,0311_cl_dnn_cr_elephant_40_n02504013_14918.png,n02504013_14918.png,1.0,2.3082056,-3.4117112,4.044592
alexnet_w1_mlp_simclrhn_probe0,1,312,NaN,bicycle,bicycle,bw,0312_cl_dnn_bw_bicycle_40_n03792782_5323.png,n03792782_5323.png,1.0,3.16111,-7.3910494,7.4615035
alexnet_w1_mlp_simclrhn_probe0,1,313,NaN,bicycle,truck,cr,0313_cl_dnn_cr_truck_40_n04467665_37066.png,n04467665_37066.png,0.0,-5.546656,-4.3945227,-0.8146814
alexnet_w1_mlp_simclrhn_probe0,1,314,NaN,bird,bird,bw,0314_cl_dnn_bw_bird_40_n02025239_2481.png,n02025239_2481.png,1.0,-3.352645,-3.8228676,0.3324977
alexnet_w1_mlp_simclrhn_probe0,1,315,NaN,bicycle,bicycle,bw,0315_cl_dnn_bw_bicycle_40_n02835271_5113.png,n02835271_5113.png,1.0,-4.056898,-7.7205925,2.5906231
alexnet_w1_mlp_simclrhn_probe0,1,316,NaN,elephant,elephant,cr,0316_cl_dnn_cr_elephant_40_n02504458_6185.png,n02504458_6185.png,1.0,1.5856595,-3.6123888,3.6755755
alexnet_w1_mlp_simclrhn_probe0,1,317,NaN,clock,knife,cr,0317_cl_dnn_cr_knife_40_n03041632_11475.png,n03041632_11475.png,0.0,-4.590578,-2.2030451,-1.6882408
alexnet_w1_mlp_simclrhn_probe0,1,318,NaN,cat,cat,bw,0318_cl_dnn_bw_cat_40_n02125311_31318.png,n02125311_31318.png,1.0,-1.6311997,-4.7543206,2.20838
alexnet_w1_mlp_simclrhn_probe0,1,319,NaN,clock,clock,bw,0319_cl_dnn_bw_clock_40_n04548280_8585.png,n04548280_8585.png,1.0,-0.3827776,-1.2057008,0.5818946
alexnet_w1_mlp_simclrhn_probe0,1,320,NaN,bear,bear,bw,0320_cl_dnn_bw_bear_40_n02134418_12628.png,n02134418_12628.png,1.0,0.6795392,-2.8557615,2.4998353
alexnet_w1_mlp_simclrhn_probe0,1,321,NaN,chair,chair,bw,0321_cl_dnn_bw_chair_40_n03376595_17859.png,n03376595_17859.png,1.0,-0.26284778,-1.8823969,1.1451942
alexnet_w1_mlp_simclrhn_probe0,1,322,NaN,knife,knife,cr,0322_cl_dnn_cr_knife_40_n03041632_379.png,n03041632_379.png,1.0,-2.0755494,-4.7490363,1.8904408
alexnet_w1_mlp_simclrhn_probe0,1,323,NaN,oven,bottle,bw,0323_cl_dnn_bw_bottle_40_n04557648_1293.png,n04557648_1293.png,0.0,-5.870117,-5.1891613,-0.48150852
alexnet_w1_mlp_simclrhn_probe0,1,324,NaN,boat,boat,cr,0324_cl_dnn_cr_boat_40_n03662601_26298.png,n03662601_26298.png,1.0,7.5700884,0.61184067,4.920224
alexnet_w1_mlp_simclrhn_probe0,1,325,NaN,oven,oven,bw,0325_cl_dnn_bw_oven_40_n04111531_6120.png,n04111531_6120.png,1.0,0.87889296,-6.489063,5.2099314
alexnet_w1_mlp_simclrhn_probe0,1,326,NaN,car,car,bw,0326_cl_dnn_bw_car_40_n02814533_92940.png,n02814533_92940.png,1.0,3.7569091,-2.5547872,4.463043
alexnet_w1_mlp_simclrhn_probe0,1,327,NaN,chair,chair,cr,0327_cl_dnn_cr_chair_40_n02791124_392.png,n02791124_392.png,1.0,-2.6387243,-5.0569286,1.7099288
alexnet_w1_mlp_simclrhn_probe0,1,328,NaN,clock,clock,bw,0328_cl_dnn_bw_clock_40_n04548280_3330.png,n04548280_3330.png,1.0,-0.19898193,-1.4513682,0.8855709
alexnet_w1_mlp_simclrhn_probe0,1,329,NaN,truck,car,cr,0329_cl_dnn_cr_car_40_n02814533_83614.png,n02814533_83614.png,0.0,4.655496,7.041298,-1.6870166
alexnet_w1_mlp_simclrhn_probe0,1,330,NaN,bear,bear,cr,0330_cl_dnn_cr_bear_40_n02134418_3846.png,n02134418_3846.png,1.0,4.0771127,2.3010483,1.2558672
alexnet_w1_mlp_simclrhn_probe0,1,331,NaN,elephant,elephant,cr,0331_cl_dnn_cr_elephant_40_n02504013_811.png,n02504013_811.png,1.0,-2.3979135,-2.7542346,0.25195706
alexnet_w1_mlp_simclrhn_probe0,1,332,NaN,airplane,airplane,bw,0332_cl_dnn_bw_airplane_40_n02690373_1442.png,n02690373_1442.png,1.0,0.68899214,-4.4239554,3.6153998
alexnet_w1_mlp_simclrhn_probe0,1,333,NaN,chair,chair,cr,0333_cl_dnn_cr_chair_40_n03376595_6691.png,n03376595_6691.png,1.0,-2.642358,-3.8689826,0.8673545
alexnet_w1_mlp_simclrhn_probe0,1,334,NaN,bear,bird,bw,0334_cl_dnn_bw_bird_40_n01616318_1071.png,n01616318_1071.png,0.0,-8.843254,-3.518879,-3.7649019
alexnet_w1_mlp_simclrhn_probe0,1,335,NaN,boat,boat,cr,0335_cl_dnn_cr_boat_40_n03662601_8333.png,n03662601_8333.png,1.0,0.23732448,-0.75896144,0.7044805
alexnet_w1_mlp_simclrhn_probe0,1,336,NaN,truck,truck,cr,0336_cl_dnn_cr_truck_40_n03796401_9384.png,n03796401_9384.png,1.0,-0.0861426,-1.4055339,0.9329505
alexnet_w1_mlp_simclrhn_probe0,1,337,NaN,bottle,bottle,cr,0337_cl_dnn_cr_bottle_40_n04560804_19001.png,n04560804_19001.png,1.0,0.6161302,-1.1118307,1.2218528
alexnet_w1_mlp_simclrhn_probe0,1,338,NaN,cat,cat,cr,0338_cl_dnn_cr_cat_40_n02123045_7646.png,n02123045_7646.png,1.0,-4.7151647,-5.4261045,0.5027104
alexnet_w1_mlp_simclrhn_probe0,1,339,NaN,elephant,elephant,cr,0339_cl_dnn_cr_elephant_40_n02504013_3599.png,n02504013_3599.png,1.0,6.2010508,0.7221465,3.8741703
alexnet_w1_mlp_simclrhn_probe0,1,340,NaN,bottle,clock,cr,0340_cl_dnn_cr_clock_40_n03196217_1109.png,n03196217_1109.png,0.0,-3.1656342,-3.0980513,-0.04778829
alexnet_w1_mlp_simclrhn_probe0,1,341,NaN,truck,boat,bw,0341_cl_dnn_bw_boat_40_n03344393_5322.png,n03344393_5322.png,0.0,-3.4144807,-1.3595419,-1.4530612
alexnet_w1_mlp_simclrhn_probe0,1,342,NaN,elephant,dog,cr,0342_cl_dnn_cr_dog_40_n02090622_11748.png,n02090622_11748.png,0.0,-5.223009,-3.3283217,-1.3397464
alexnet_w1_mlp_simclrhn_probe0,1,343,NaN,knife,knife,cr,0343_cl_dnn_cr_knife_40_n03041632_20707.png,n03041632_20707.png,1.0,-9.498576,-9.835822,0.2384689
alexnet_w1_mlp_simclrhn_probe0,1,344,NaN,knife,keyboard,cr,0344_cl_dnn_cr_keyboard_40_n03085013_8936.png,n03085013_8936.png,0.0,-4.9359503,-4.5250206,-0.29057118
alexnet_w1_mlp_simclrhn_probe0,1,345,NaN,airplane,airplane,cr,0345_cl_dnn_cr_airplane_40_n02690373_4695.png,n02690373_4695.png,1.0,3.084686,-0.6500542,2.6408603
alexnet_w1_mlp_simclrhn_probe0,1,346,NaN,oven,oven,bw,0346_cl_dnn_bw_oven_40_n04111531_16463.png,n04111531_16463.png,1.0,-4.2606754,-6.109355,1.3072139
alexnet_w1_mlp_simclrhn_probe0,1,347,NaN,dog,dog,bw,0347_cl_dnn_bw_dog_40_n02099712_1234.png,n02099712_1234.png,1.0,-6.548311,-10.124688,2.5288804
alexnet_w1_mlp_simclrhn_probe0,1,348,NaN,boat,boat,bw,0348_cl_dnn_bw_boat_40_n03662601_17361.png,n03662601_17361.png,1.0,1.9865487,-2.3989694,3.1010296
alexnet_w1_mlp_simclrhn_probe0,1,349,NaN,oven,oven,cr,0349_cl_dnn_cr_oven_40_n04111531_12929.png,n04111531_12929.png,1.0,-1.0972692,-4.8591566,2.6600564
alexnet_w1_mlp_simclrhn_probe0,1,350,NaN,car,truck,bw,0350_cl_dnn_bw_truck_40_n03417042_2056.png,n03417042_2056.png,0.0,-6.429942,-2.1975927,-2.992723
alexnet_w1_mlp_simclrhn_probe0,1,351,NaN,oven,oven,cr,0351_cl_dnn_cr_oven_40_n04111531_2937.png,n04111531_2937.png,1.0,2.8626556,-0.67850184,2.5039766
alexnet_w1_mlp_simclrhn_probe0,1,352,NaN,boat,boat,bw,0352_cl_dnn_bw_boat_40_n04273569_23705.png,n04273569_23705.png,1.0,-0.62834483,-1.1134592,0.34302768
alexnet_w1_mlp_simclrhn_probe0,1,353,NaN,elephant,boat,cr,0353_cl_dnn_cr_boat_40_n02951358_8456.png,n02951358_8456.png,0.0,-3.9528165,-2.6558805,-0.9170723
alexnet_w1_mlp_simclrhn_probe0,1,354,NaN,bottle,bottle,bw,0354_cl_dnn_bw_bottle_40_n03983396_11632.png,n03983396_11632.png,1.0,-1.3245045,-4.2674155,2.0809524
alexnet_w1_mlp_simclrhn_probe0,1,355,NaN,bicycle,bicycle,bw,0355_cl_dnn_bw_bicycle_40_n02835271_506.png,n02835271_506.png,1.0,2.4996865,-5.383859,5.5745087
alexnet_w1_mlp_simclrhn_probe0,1,356,NaN,keyboard,keyboard,cr,0356_cl_dnn_cr_keyboard_40_n04505470_665.png,n04505470_665.png,1.0,0.26366878,0.1935669,0.04956951
alexnet_w1_mlp_simclrhn_probe0,1,357,NaN,bear,bear,bw,0357_cl_dnn_bw_bear_40_n02132136_390.png,n02132136_390.png,1.0,1.6143117,-0.24543138,1.315037
alexnet_w1_mlp_simclrhn_probe0,1,358,NaN,bear,bear,cr,0358_cl_dnn_cr_bear_40_n02134084_13663.png,n02134084_13663.png,1.0,0.14908391,-2.3755176,1.7851628
alexnet_w1_mlp_simclrhn_probe0,1,359,NaN,airplane,airplane,cr,0359_cl_dnn_cr_airplane_40_n02690373_2837.png,n02690373_2837.png,1.0,5.5309367,0.7474866,3.38241
alexnet_w1_mlp_simclrhn_probe0,1,360,NaN,airplane,airplane,bw,0360_cl_dnn_bw_airplane_40_n02690373_1492.png,n02690373_1492.png,1.0,6.5826135,-0.8625816,5.2645483
alexnet_w1_mlp_simclrhn_probe0,1,361,NaN,car,car,cr,0361_cl_dnn_cr_car_40_n03100240_14252.png,n03100240_14252.png,1.0,10.368463,4.3677816,4.243122
alexnet_w1_mlp_simclrhn_probe0,1,362,NaN,chair,elephant,bw,0362_cl_dnn_bw_elephant_40_n02504458_4908.png,n02504458_4908.png,0.0,-8.733919,-6.8958254,-1.2997286
alexnet_w1_mlp_simclrhn_probe0,1,363,NaN,bird,bird,bw,0363_cl_dnn_bw_bird_40_n01582220_5821.png,n01582220_5821.png,1.0,-3.2386515,-4.47355,0.873205
alexnet_w1_mlp_simclrhn_probe0,1,364,NaN,cat,cat,cr,0364_cl_dnn_cr_cat_40_n02123045_2968.png,n02123045_2968.png,1.0,1.2310349,-0.7434882,1.3961986
alexnet_w1_mlp_simclrhn_probe0,1,365,NaN,dog,dog,cr,0365_cl_dnn_cr_dog_40_n02088466_1671.png,n02088466_1671.png,1.0,-0.5980257,-1.37243,0.54758656
alexnet_w1_mlp_simclrhn_probe0,1,366,NaN,boat,boat,bw,0366_cl_dnn_bw_boat_40_n03344393_7659.png,n03344393_7659.png,1.0,4.6051445,-0.07184431,3.3071303
alexnet_w1_mlp_simclrhn_probe0,1,367,NaN,bicycle,bicycle,bw,0367_cl_dnn_bw_bicycle_40_n03792782_3783.png,n03792782_3783.png,1.0,-2.3321924,-7.2817655,3.4998767
alexnet_w1_mlp_simclrhn_probe0,1,368,NaN,airplane,airplane,cr,0368_cl_dnn_cr_airplane_40_n02690373_2059.png,n02690373_2059.png,1.0,5.524586,-1.3271823,4.844932
alexnet_w1_mlp_simclrhn_probe0,1,369,NaN,keyboard,keyboard,cr,0369_cl_dnn_cr_keyboard_40_n03085013_19483.png,n03085013_19483.png,1.0,2.0715408,-0.37690428,1.7313122
alexnet_w1_mlp_simclrhn_probe0,1,370,NaN,bicycle,bicycle,bw,0370_cl_dnn_bw_bicycle_40_n03792782_2960.png,n03792782_2960.png,1.0,0.93692106,-8.029183,6.3399935
alexnet_w1_mlp_simclrhn_probe0,1,371,NaN,oven,keyboard,cr,0371_cl_dnn_cr_keyboard_40_n03085013_24538.png,n03085013_24538.png,0.0,-0.5995971,-0.37245822,-0.16061144
alexnet_w1_mlp_simclrhn_probe0,1,372,NaN,elephant,cat,cr,0372_cl_dnn_cr_cat_40_n02123597_9656.png,n02123597_9656.png,0.0,-7.7562714,-4.724149,-2.1440341
alexnet_w1_mlp_simclrhn_probe0,1,373,NaN,car,car,cr,0373_cl_dnn_cr_car_40_n04285008_1085.png,n04285008_1085.png,1.0,7.3551407,-1.9893776,6.6075726
alexnet_w1_mlp_simclrhn_probe0,1,374,NaN,dog,dog,cr,0374_cl_dnn_cr_dog_40_n02102177_5870.png,n02102177_5870.png,1.0,-1.8900819,-4.6399646,1.9444607
alexnet_w1_mlp_simclrhn_probe0,1,375,NaN,car,boat,cr,0375_cl_dnn_cr_boat_40_n03662601_24852.png,n03662601_24852.png,0.0,-2.8154812,-0.63191307,-1.5440158
alexnet_w1_mlp_simclrhn_probe0,1,376,NaN,bicycle,bicycle,cr,0376_cl_dnn_cr_bicycle_40_n03792782_32379.png,n03792782_32379.png,1.0,3.9983153,-4.0992103,5.7258153
alexnet_w1_mlp_simclrhn_probe0,1,377,NaN,dog,cat,cr,0377_cl_dnn_cr_cat_40_n02123597_12266.png,n02123597_12266.png,0.0,-10.431633,-6.871372,-2.5174847
alexnet_w1_mlp_simclrhn_probe0,1,378,NaN,airplane,airplane,cr,0378_cl_dnn_cr_airplane_40_n02690373_713.png,n02690373_713.png,1.0,9.499177,-1.1525598,7.5319157
alexnet_w1_mlp_simclrhn_probe0,1,379,NaN,airplane,airplane,cr,0379_cl_dnn_cr_airplane_40_n02690373_6543.png,n02690373_6543.png,1.0,3.7776291,-0.8668438,3.2841384
alexnet_w1_mlp_simclrhn_probe0,1,380,NaN,oven,oven,cr,0380_cl_dnn_cr_oven_40_n04111531_5888.png,n04111531_5888.png,1.0,2.7147956,-5.077469,5.509963
alexnet_w1_mlp_simclrhn_probe0,1,381,NaN,dog,dog,bw,0381_cl_dnn_bw_dog_40_n02099601_7304.png,n02099601_7304.png,1.0,-0.829875,-2.4004347,1.1105535
alexnet_w1_mlp_simclrhn_probe0,1,382,NaN,knife,bird,bw,0382_cl_dnn_bw_bird_40_n01819313_146.png,n01819313_146.png,0.0,-6.3004837,-4.9666796,-0.94314194
alexnet_w1_mlp_simclrhn_probe0,1,383,NaN,car,car,bw,0383_cl_dnn_bw_car_40_n03100240_18873.png,n03100240_18873.png,1.0,8.183414,3.5063808,3.307162
alexnet_w1_mlp_simclrhn_probe0,1,384,NaN,cat,dog,bw,0384_cl_dnn_bw_dog_40_n02100583_2707.png,n02100583_2707.png,0.0,-2.8992994,-2.181568,-0.5075128
alexnet_w1_mlp_simclrhn_probe0,1,385,NaN,cat,dog,bw,0385_cl_dnn_bw_dog_40_n02105056_15484.png,n02105056_15484.png,0.0,-5.6383686,-2.9483387,-1.9021384
alexnet_w1_mlp_simclrhn_probe0,1,386,NaN,truck,truck,bw,0386_cl_dnn_bw_truck_40_n04467665_66535.png,n04467665_66535.png,1.0,2.9780455,-1.2546921,2.9929974
alexnet_w1_mlp_simclrhn_probe0,1,387,NaN,elephant,elephant,bw,0387_cl_dnn_bw_elephant_40_n02504458_12303.png,n02504458_12303.png,1.0,0.5483565,-3.372999,2.7728171
alexnet_w1_mlp_simclrhn_probe0,1,388,NaN,bottle,bottle,cr,0388_cl_dnn_cr_bottle_40_n03937543_4586.png,n03937543_4586.png,1.0,-1.1613611,-3.3986936,1.5820329
alexnet_w1_mlp_simclrhn_probe0,1,389,NaN,elephant,bird,cr,0389_cl_dnn_cr_bird_40_n02007558_19064.png,n02007558_19064.png,0.0,-6.0938296,-5.65969,-0.30698314
alexnet_w1_mlp_simclrhn_probe0,1,390,NaN,oven,oven,bw,0390_cl_dnn_bw_oven_40_n04111531_5904.png,n04111531_5904.png,1.0,2.1989703,-4.8314486,4.9712567
alexnet_w1_mlp_simclrhn_probe0,1,391,NaN,airplane,keyboard,cr,0391_cl_dnn_cr_keyboard_40_n03085013_18625.png,n03085013_18625.png,0.0,-5.0072336,-1.277523,-2.6373036
alexnet_w1_mlp_simclrhn_probe0,1,392,NaN,clock,bottle,cr,0392_cl_dnn_cr_bottle_40_n04579145_445.png,n04579145_445.png,0.0,-0.569326,0.05417387,-0.44088098
alexnet_w1_mlp_simclrhn_probe0,1,393,NaN,oven,keyboard,bw,0393_cl_dnn_bw_keyboard_40_n03085013_22820.png,n03085013_22820.png,0.0,0.7824645,1.4308956,-0.45851
alexnet_w1_mlp_simclrhn_probe0,1,394,NaN,truck,truck,cr,0394_cl_dnn_cr_truck_40_n03417042_19479.png,n03417042_19479.png,1.0,5.48565,1.1124614,3.0923114
alexnet_w1_mlp_simclrhn_probe0,1,395,NaN,bird,bird,bw,0395_cl_dnn_bw_bird_40_n01833805_28946.png,n01833805_28946.png,1.0,-3.2737813,-4.4672685,0.8439229
alexnet_w1_mlp_simclrhn_probe0,1,396,NaN,keyboard,bottle,bw,0396_cl_dnn_bw_bottle_40_n04591713_3896.png,n04591713_3896.png,0.0,-6.62558,-5.9502587,-0.47752413
alexnet_w1_mlp_simclrhn_probe0,1,397,NaN,cat,cat,cr,0397_cl_dnn_cr_cat_40_n02123159_782.png,n02123159_782.png,1.0,-1.2442344,-8.212193,4.9270906
alexnet_w1_mlp_simclrhn_probe0,1,398,NaN,keyboard,keyboard,bw,0398_cl_dnn_bw_keyboard_40_n04505470_464.png,n04505470_464.png,1.0,-1.700753,-4.0306997,1.6475211
alexnet_w1_mlp_simclrhn_probe0,1,399,NaN,bird,bird,cr,0399_cl_dnn_cr_bird_40_n01558993_3939.png,n01558993_3939.png,1.0,-2.9757473,-8.24857,3.728449
alexnet_w1_mlp_simclrhn_probe0,1,400,NaN,boat,boat,cr,0400_cl_dnn_cr_boat_40_n04273569_3052.png,n04273569_3052.png,1.0,2.823733,-3.2068343,4.264255
alexnet_w1_mlp_simclrhn_probe0,1,401,NaN,knife,knife,bw,0401_cl_dnn_bw_knife_40_n03041632_85416.png,n03041632_85416.png,1.0,-5.7530417,-6.3374815,0.41326132
alexnet_w1_mlp_simclrhn_probe0,1,402,NaN,car,car,bw,0402_cl_dnn_bw_car_40_n02814533_51154.png,n02814533_51154.png,1.0,14.605904,11.21364,2.3986926
alexnet_w1_mlp_simclrhn_probe0,1,403,NaN,airplane,airplane,bw,0403_cl_dnn_bw_airplane_40_n02690373_6516.png,n02690373_6516.png,1.0,7.0228844,1.0830424,4.200103
alexnet_w1_mlp_simclrhn_probe0,1,404,NaN,airplane,airplane,cr,0404_cl_dnn_cr_airplane_40_n02690373_12813.png,n02690373_12813.png,1.0,8.531652,-2.432276,7.752668
alexnet_w1_mlp_simclrhn_probe0,1,405,NaN,airplane,airplane,bw,0405_cl_dnn_bw_airplane_40_n02690373_6406.png,n02690373_6406.png,1.0,6.896646,-0.8063669,5.4468527
alexnet_w1_mlp_simclrhn_probe0,1,406,NaN,chair,chair,cr,0406_cl_dnn_cr_chair_40_n03376595_8228.png,n03376595_8228.png,1.0,2.8995523,-1.4899061,3.103816
alexnet_w1_mlp_simclrhn_probe0,1,407,NaN,knife,chair,bw,0407_cl_dnn_bw_chair_40_n04099969_6309.png,n04099969_6309.png,0.0,-4.1181335,-1.4954244,-1.8545356
alexnet_w1_mlp_simclrhn_probe0,1,408,NaN,elephant,elephant,cr,0408_cl_dnn_cr_elephant_40_n02504013_19831.png,n02504013_19831.png,1.0,5.2320924,-3.7787328,6.371616
alexnet_w1_mlp_simclrhn_probe0,1,409,NaN,knife,bottle,bw,0409_cl_dnn_bw_bottle_40_n03937543_5088.png,n03937543_5088.png,0.0,-7.2165055,-4.8564825,-1.6687883
alexnet_w1_mlp_simclrhn_probe0,1,410,NaN,elephant,elephant,cr,0410_cl_dnn_cr_elephant_40_n02504458_2190.png,n02504458_2190.png,1.0,-2.319603,-3.453403,0.8017177
alexnet_w1_mlp_simclrhn_probe0,1,411,NaN,car,car,bw,0411_cl_dnn_bw_car_40_n04285008_5997.png,n04285008_5997.png,1.0,5.442119,-1.1510894,4.662102
alexnet_w1_mlp_simclrhn_probe0,1,412,NaN,bottle,knife,cr,0412_cl_dnn_cr_knife_40_n03041632_94620.png,n03041632_94620.png,0.0,-6.745449,-5.6191497,-0.79641396
alexnet_w1_mlp_simclrhn_probe0,1,413,NaN,bicycle,bicycle,cr,0413_cl_dnn_cr_bicycle_40_n02835271_8125.png,n02835271_8125.png,1.0,2.6002088,-4.3951354,4.9464555
alexnet_w1_mlp_simclrhn_probe0,1,414,NaN,oven,oven,cr,0414_cl_dnn_cr_oven_40_n04111531_4662.png,n04111531_4662.png,1.0,4.071704,-7.0195475,7.842699
alexnet_w1_mlp_simclrhn_probe0,1,415,NaN,elephant,dog,bw,0415_cl_dnn_bw_dog_40_n02110806_21755.png,n02110806_21755.png,0.0,-6.256141,-0.88210654,-3.8000166
alexnet_w1_mlp_simclrhn_probe0,1,416,NaN,bottle,bottle,bw,0416_cl_dnn_bw_bottle_40_n02823428_3505.png,n02823428_3505.png,1.0,-2.99637,-3.5246303,0.3735364
alexnet_w1_mlp_simclrhn_probe0,1,417,NaN,cat,cat,cr,0417_cl_dnn_cr_cat_40_n02123045_11472.png,n02123045_11472.png,1.0,3.4455802,-4.612737,5.698091
alexnet_w1_mlp_simclrhn_probe0,1,418,NaN,boat,boat,cr,0418_cl_dnn_cr_boat_40_n03662601_14818.png,n03662601_14818.png,1.0,3.7291565,-0.61950415,3.0749674
alexnet_w1_mlp_simclrhn_probe0,1,419,NaN,bicycle,bicycle,cr,0419_cl_dnn_cr_bicycle_40_n02835271_8322.png,n02835271_8322.png,1.0,-0.9313213,-4.847721,2.7693129
alexnet_w1_mlp_simclrhn_probe0,1,420,NaN,knife,knife,bw,0420_cl_dnn_bw_knife_40_n03041632_9580.png,n03041632_9580.png,1.0,-1.357573,-4.7041254,2.36637
alexnet_w1_mlp_simclrhn_probe0,1,421,NaN,bicycle,dog,bw,0421_cl_dnn_bw_dog_40_n02088466_3052.png,n02088466_3052.png,0.0,-9.73082,-6.1699915,-2.517886
alexnet_w1_mlp_simclrhn_probe0,1,422,NaN,keyboard,keyboard,cr,0422_cl_dnn_cr_keyboard_40_n04505470_7161.png,n04505470_7161.png,1.0,18.136333,6.998586,7.8755765
alexnet_w1_mlp_simclrhn_probe0,1,423,NaN,keyboard,keyboard,cr,0423_cl_dnn_cr_keyboard_40_n04505470_2321.png,n04505470_2321.png,1.0,6.0029325,-2.055248,5.697994
alexnet_w1_mlp_simclrhn_probe0,1,424,NaN,oven,knife,cr,0424_cl_dnn_cr_knife_40_n03041632_6708.png,n03041632_6708.png,0.0,-8.522299,-0.31872952,-5.8008
alexnet_w1_mlp_simclrhn_probe0,1,425,NaN,keyboard,keyboard,bw,0425_cl_dnn_bw_keyboard_40_n04505470_4965.png,n04505470_4965.png,1.0,7.870971,-1.2292479,6.4348264
alexnet_w1_mlp_simclrhn_probe0,1,426,NaN,cat,cat,bw,0426_cl_dnn_bw_cat_40_n02123597_11981.png,n02123597_11981.png,1.0,-0.3459078,-2.5706887,1.5731578
alexnet_w1_mlp_simclrhn_probe0,1,427,NaN,truck,truck,cr,0427_cl_dnn_cr_truck_40_n03417042_2778.png,n03417042_2778.png,1.0,0.4284372,-4.0948677,3.1984596
alexnet_w1_mlp_simclrhn_probe0,1,428,NaN,truck,car,cr,0428_cl_dnn_cr_car_40_n02814533_80049.png,n02814533_80049.png,0.0,6.271958,6.696729,-0.30035868
alexnet_w1_mlp_simclrhn_probe0,1,429,NaN,cat,keyboard,cr,0429_cl_dnn_cr_keyboard_40_n03085013_23561.png,n03085013_23561.png,0.0,-8.937962,-5.263451,-2.5982714
alexnet_w1_mlp_simclrhn_probe0,1,430,NaN,airplane,airplane,bw,0430_cl_dnn_bw_airplane_40_n02690373_1800.png,n02690373_1800.png,1.0,1.508694,-2.2203152,2.6368077
alexnet_w1_mlp_simclrhn_probe0,1,431,NaN,knife,chair,bw,0431_cl_dnn_bw_chair_40_n02791124_4306.png,n02791124_4306.png,0.0,-6.551688,-5.4067597,-0.8095867
alexnet_w1_mlp_simclrhn_probe0,1,432,NaN,bicycle,knife,bw,0432_cl_dnn_bw_knife_40_n03041632_33424.png,n03041632_33424.png,0.0,-10.077076,-8.742136,-0.9439451
alexnet_w1_mlp_simclrhn_probe0,1,433,NaN,airplane,boat,cr,0433_cl_dnn_cr_boat_40_n04273569_111.png,n04273569_111.png,0.0,-4.894371,-1.8303181,-2.1666126
alexnet_w1_mlp_simclrhn_probe0,1,434,NaN,bear,bear,bw,0434_cl_dnn_bw_bear_40_n02132136_4403.png,n02132136_4403.png,1.0,-0.075989455,-1.3243117,0.88269717
alexnet_w1_mlp_simclrhn_probe0,1,435,NaN,bicycle,bicycle,bw,0435_cl_dnn_bw_bicycle_40_n03792782_49707.png,n03792782_49707.png,1.0,-4.9468455,-7.077484,1.506589
alexnet_w1_mlp_simclrhn_probe0,1,436,NaN,bicycle,bicycle,cr,0436_cl_dnn_cr_bicycle_40_n02835271_3308.png,n02835271_3308.png,1.0,-1.0736765,-8.034441,4.9220037
alexnet_w1_mlp_simclrhn_probe0,1,437,NaN,car,clock,bw,0437_cl_dnn_bw_clock_40_n04548280_3305.png,n04548280_3305.png,0.0,-2.6305354,-0.49308124,-1.5114082
alexnet_w1_mlp_simclrhn_probe0,1,438,NaN,boat,boat,bw,0438_cl_dnn_bw_boat_40_n03344393_7614.png,n03344393_7614.png,1.0,2.2120597,0.7140244,1.059271
alexnet_w1_mlp_simclrhn_probe0,1,439,NaN,chair,bicycle,bw,0439_cl_dnn_bw_bicycle_40_n02835271_9434.png,n02835271_9434.png,0.0,-7.11102,-5.605033,-1.0648937
alexnet_w1_mlp_simclrhn_probe0,1,440,NaN,chair,truck,bw,0440_cl_dnn_bw_truck_40_n03417042_3039.png,n03417042_3039.png,0.0,-4.5487785,-3.2501068,-0.9182996
alexnet_w1_mlp_simclrhn_probe0,1,441,NaN,oven,oven,cr,0441_cl_dnn_cr_oven_40_n04111531_5519.png,n04111531_5519.png,1.0,-0.8644692,-6.467678,3.9620671
alexnet_w1_mlp_simclrhn_probe0,1,442,NaN,bottle,bottle,cr,0442_cl_dnn_cr_bottle_40_n03983396_3702.png,n03983396_3702.png,1.0,-2.774317,-6.5886197,2.6971192
alexnet_w1_mlp_simclrhn_probe0,1,443,NaN,bicycle,clock,cr,0443_cl_dnn_cr_clock_40_n04548280_2177.png,n04548280_2177.png,0.0,-4.4334073,-3.2311158,-0.8501485
alexnet_w1_mlp_simclrhn_probe0,1,444,NaN,bottle,bottle,cr,0444_cl_dnn_cr_bottle_40_n03983396_4132.png,n03983396_4132.png,1.0,1.7186707,-6.0591526,5.4997516
alexnet_w1_mlp_simclrhn_probe0,1,445,NaN,bicycle,bicycle,cr,0445_cl_dnn_cr_bicycle_40_n02835271_17509.png,n02835271_17509.png,1.0,-1.10975,-9.156914,5.690204
alexnet_w1_mlp_simclrhn_probe0,1,446,NaN,airplane,airplane,bw,0446_cl_dnn_bw_airplane_40_n02690373_3090.png,n02690373_3090.png,1.0,3.1676357,-1.3565538,3.199085
alexnet_w1_mlp_simclrhn_probe0,1,447,NaN,car,chair,cr,0447_cl_dnn_cr_chair_40_n03376595_1302.png,n03376595_1302.png,0.0,-2.8591938,-2.2913315,-0.40153927
alexnet_w1_mlp_simclrhn_probe0,1,448,NaN,dog,dog,cr,0448_cl_dnn_cr_dog_40_n02107683_3640.png,n02107683_3640.png,1.0,-0.6658743,-1.3633978,0.49322364
alexnet_w1_mlp_simclrhn_probe0,1,449,NaN,car,car,cr,0449_cl_dnn_cr_car_40_n03100240_770.png,n03100240_770.png,1.0,8.372382,3.3255267,3.5686657
alexnet_w1_mlp_simclrhn_probe0,1,450,NaN,knife,knife,cr,0450_cl_dnn_cr_knife_40_n03041632_4305.png,n03041632_4305.png,1.0,-4.4625177,-6.2189293,1.2419705
alexnet_w1_mlp_simclrhn_probe0,1,451,NaN,elephant,elephant,cr,0451_cl_dnn_cr_elephant_40_n02504013_4590.png,n02504013_4590.png,1.0,1.8486619,-1.6803476,2.4953864
alexnet_w1_mlp_simclrhn_probe0,1,452,NaN,truck,truck,cr,0452_cl_dnn_cr_truck_40_n03417042_5752.png,n03417042_5752.png,1.0,-2.178833,-4.0429263,1.3181131
alexnet_w1_mlp_simclrhn_probe0,1,453,NaN,oven,oven,cr,0453_cl_dnn_cr_oven_40_n04111531_21931.png,n04111531_21931.png,1.0,3.3490713,-2.2620034,3.967629
alexnet_w1_mlp_simclrhn_probe0,1,454,NaN,elephant,elephant,bw,0454_cl_dnn_bw_elephant_40_n02504458_4711.png,n02504458_4711.png,1.0,0.0116197765,-4.0491433,2.871393
alexnet_w1_mlp_simclrhn_probe0,1,455,NaN,clock,clock,bw,0455_cl_dnn_bw_clock_40_n02708093_8033.png,n02708093_8033.png,1.0,-3.04873,-4.0013285,0.67358893
alexnet_w1_mlp_simclrhn_probe0,1,456,NaN,bicycle,bicycle,bw,0456_cl_dnn_bw_bicycle_40_n03792782_41992.png,n03792782_41992.png,1.0,7.0135508,-6.2301764,9.364729
alexnet_w1_mlp_simclrhn_probe0,1,457,NaN,knife,keyboard,cr,0457_cl_dnn_cr_keyboard_40_n03085013_5622.png,n03085013_5622.png,0.0,-1.3863735,-1.2822102,-0.07365457
alexnet_w1_mlp_simclrhn_probe0,1,458,NaN,bird,bird,bw,0458_cl_dnn_bw_bird_40_n02009912_1919.png,n02009912_1919.png,1.0,-3.6614144,-7.2960935,2.5701063
alexnet_w1_mlp_simclrhn_probe0,1,459,NaN,bottle,bottle,cr,0459_cl_dnn_cr_bottle_40_n03937543_4202.png,n03937543_4202.png,1.0,-2.1341476,-5.4301395,2.3306181
alexnet_w1_mlp_simclrhn_probe0,1,460,NaN,bicycle,bicycle,bw,0460_cl_dnn_bw_bicycle_40_n02835271_4341.png,n02835271_4341.png,1.0,-1.5817913,-6.8494005,3.7247622
alexnet_w1_mlp_simclrhn_probe0,1,461,NaN,bear,bear,bw,0461_cl_dnn_bw_bear_40_n02132136_18543.png,n02132136_18543.png,1.0,-2.9917445,-4.772091,1.258895
alexnet_w1_mlp_simclrhn_probe0,1,462,NaN,cat,cat,bw,0462_cl_dnn_bw_cat_40_n02124075_14425.png,n02124075_14425.png,1.0,-0.46522722,-6.010142,3.920847
alexnet_w1_mlp_simclrhn_probe0,1,463,NaN,clock,clock,bw,0463_cl_dnn_bw_clock_40_n02708093_544.png,n02708093_544.png,1.0,1.043915,-0.76482165,1.27897
alexnet_w1_mlp_simclrhn_probe0,1,464,NaN,bear,bear,cr,0464_cl_dnn_cr_bear_40_n02133161_7604.png,n02133161_7604.png,1.0,-1.1983033,-2.384376,0.8386801
alexnet_w1_mlp_simclrhn_probe0,1,465,NaN,car,car,bw,0465_cl_dnn_bw_car_40_n03100240_15407.png,n03100240_15407.png,1.0,4.69376,0.9475632,2.648961
alexnet_w1_mlp_simclrhn_probe0,1,466,NaN,bicycle,bicycle,bw,0466_cl_dnn_bw_bicycle_40_n02835271_12926.png,n02835271_12926.png,1.0,3.2500157,-5.312387,6.054533
alexnet_w1_mlp_simclrhn_probe0,1,467,NaN,knife,chair,cr,0467_cl_dnn_cr_chair_40_n03376595_2056.png,n03376595_2056.png,0.0,-5.6270046,-4.3003664,-0.9380749
alexnet_w1_mlp_simclrhn_probe0,1,468,NaN,oven,oven,bw,0468_cl_dnn_bw_oven_40_n04111531_9762.png,n04111531_9762.png,1.0,1.2656765,-1.5199142,1.9697101
alexnet_w1_mlp_simclrhn_probe0,1,469,NaN,bicycle,bicycle,bw,0469_cl_dnn_bw_bicycle_40_n03792782_25799.png,n03792782_25799.png,1.0,-2.2415345,-6.1909623,2.7926672
alexnet_w1_mlp_simclrhn_probe0,1,470,NaN,oven,oven,cr,0470_cl_dnn_cr_oven_40_n04111531_3570.png,n04111531_3570.png,1.0,0.88776755,-4.411434,3.7471018
alexnet_w1_mlp_simclrhn_probe0,1,471,NaN,car,car,cr,0471_cl_dnn_cr_car_40_n04285008_874.png,n04285008_874.png,1.0,0.8206954,-1.5366399,1.6668879
alexnet_w1_mlp_simclrhn_probe0,1,472,NaN,bicycle,bottle,cr,0472_cl_dnn_cr_bottle_40_n04557648_364.png,n04557648_364.png,0.0,-9.977855,-1.5213234,-5.979671
alexnet_w1_mlp_simclrhn_probe0,1,473,NaN,airplane,airplane,bw,0473_cl_dnn_bw_airplane_40_n02690373_8461.png,n02690373_8461.png,1.0,4.982983,-3.1575346,5.7562156
alexnet_w1_mlp_simclrhn_probe0,1,474,NaN,boat,boat,cr,0474_cl_dnn_cr_boat_40_n04273569_1087.png,n04273569_1087.png,1.0,3.9598336,-1.3374712,3.7457604
alexnet_w1_mlp_simclrhn_probe0,1,475,NaN,chair,chair,cr,0475_cl_dnn_cr_chair_40_n03376595_1798.png,n03376595_1798.png,1.0,-1.9009727,-3.75988,1.314446
alexnet_w1_mlp_simclrhn_probe0,1,476,NaN,oven,oven,cr,0476_cl_dnn_cr_oven_40_n04111531_5290.png,n04111531_5290.png,1.0,4.097669,-0.81748253,3.475537
alexnet_w1_mlp_simclrhn_probe0,1,477,NaN,cat,cat,bw,0477_cl_dnn_bw_cat_40_n02124075_12369.png,n02124075_12369.png,1.0,0.74116343,-2.2009559,2.0803926
alexnet_w1_mlp_simclrhn_probe0,1,478,NaN,elephant,elephant,bw,0478_cl_dnn_bw_elephant_40_n02504458_3714.png,n02504458_3714.png,1.0,0.41588378,-3.6144288,2.8498614
alexnet_w1_mlp_simclrhn_probe0,1,479,NaN,bottle,bicycle,bw,0479_cl_dnn_bw_bicycle_40_n03792782_7388.png,n03792782_7388.png,0.0,-6.076028,-5.6632075,-0.29190806
alexnet_w1_mlp_simclrhn_probe0,1,480,NaN,truck,truck,cr,0480_cl_dnn_cr_truck_40_n03796401_18240.png,n03796401_18240.png,1.0,2.110784,-0.15655637,1.6032518
alexnet_w1_mlp_simclrhn_probe0,1,481,NaN,airplane,airplane,cr,0481_cl_dnn_cr_airplane_40_n02690373_610.png,n02690373_610.png,1.0,8.899429,0.1173203,6.209889
alexnet_w1_mlp_simclrhn_probe0,1,482,NaN,airplane,airplane,bw,0482_cl_dnn_bw_airplane_40_n02690373_6046.png,n02690373_6046.png,1.0,12.512996,-3.301344,11.182427
alexnet_w1_mlp_simclrhn_probe0,1,483,NaN,bear,dog,cr,0483_cl_dnn_cr_dog_40_n02105505_4069.png,n02105505_4069.png,0.0,-2.753366,-1.7968152,-0.6763836
alexnet_w1_mlp_simclrhn_probe0,1,484,NaN,chair,chair,bw,0484_cl_dnn_bw_chair_40_n04429376_1954.png,n04429376_1954.png,1.0,-3.377262,-4.001527,0.44142184
alexnet_w1_mlp_simclrhn_probe0,1,485,NaN,oven,oven,bw,0485_cl_dnn_bw_oven_40_n04111531_7862.png,n04111531_7862.png,1.0,1.4034091,-4.4056168,4.1076016
alexnet_w1_mlp_simclrhn_probe0,1,486,NaN,car,chair,cr,0486_cl_dnn_cr_chair_40_n02791124_7424.png,n02791124_7424.png,0.0,-4.034208,-2.5368233,-1.0588108
alexnet_w1_mlp_simclrhn_probe0,1,487,NaN,elephant,dog,bw,0487_cl_dnn_bw_dog_40_n02088466_5521.png,n02088466_5521.png,0.0,-5.0843706,-4.715914,-0.26053834
alexnet_w1_mlp_simclrhn_probe0,1,488,NaN,bicycle,bear,cr,0488_cl_dnn_cr_bear_40_n02133161_12868.png,n02133161_12868.png,0.0,-5.398819,-2.7860353,-1.8475171
alexnet_w1_mlp_simclrhn_probe0,1,489,NaN,keyboard,keyboard,bw,0489_cl_dnn_bw_keyboard_40_n04505470_4107.png,n04505470_4107.png,1.0,1.9292195,-0.32494482,1.5939348
alexnet_w1_mlp_simclrhn_probe0,1,490,NaN,boat,boat,bw,0490_cl_dnn_bw_boat_40_n03662601_855.png,n03662601_855.png,1.0,3.248979,-0.14247632,2.398121
alexnet_w1_mlp_simclrhn_probe0,1,491,NaN,bird,bird,cr,0491_cl_dnn_cr_bird_40_n02017213_7558.png,n02017213_7558.png,1.0,-4.70348,-9.13228,3.131635
alexnet_w1_mlp_simclrhn_probe0,1,492,NaN,airplane,bottle,bw,0492_cl_dnn_bw_bottle_40_n04557648_23801.png,n04557648_23801.png,0.0,-5.9069743,-1.4300145,-3.1656885
alexnet_w1_mlp_simclrhn_probe0,1,493,NaN,bird,bird,bw,0493_cl_dnn_bw_bird_40_n01601694_13054.png,n01601694_13054.png,1.0,-0.7073772,-7.105482,4.524143
alexnet_w1_mlp_simclrhn_probe0,1,494,NaN,oven,oven,bw,0494_cl_dnn_bw_oven_40_n04111531_2207.png,n04111531_2207.png,1.0,0.44134784,-8.306114,6.18539
alexnet_w1_mlp_simclrhn_probe0,1,495,NaN,bird,bird,bw,0495_cl_dnn_bw_bird_40_n02009912_9425.png,n02009912_9425.png,1.0,-1.3654972,-4.4576616,2.1864905
alexnet_w1_mlp_simclrhn_probe0,1,496,NaN,clock,clock,cr,0496_cl_dnn_cr_clock_40_n03196217_6193.png,n03196217_6193.png,1.0,4.4013815,3.6456654,0.534372
alexnet_w1_mlp_simclrhn_probe0,1,497,NaN,boat,boat,bw,0497_cl_dnn_bw_boat_40_n04273569_27625.png,n04273569_27625.png,1.0,2.2767062,-2.4292634,3.3276231
alexnet_w1_mlp_simclrhn_probe0,1,498,NaN,chair,truck,bw,0498_cl_dnn_bw_truck_40_n03417042_29855.png,n03417042_29855.png,0.0,-3.3963711,-1.8709846,-1.0786113
alexnet_w1_mlp_simclrhn_probe0,1,499,NaN,bottle,bottle,cr,0499_cl_dnn_cr_bottle_40_n03983396_4212.png,n03983396_4212.png,1.0,-0.6460932,-5.8509398,3.6803823
alexnet_w1_mlp_simclrhn_probe0,1,500,NaN,cat,cat,bw,0500_cl_dnn_bw_cat_40_n02123597_11613.png,n02123597_11613.png,1.0,-1.514575,-4.1907377,1.8923328
alexnet_w1_mlp_simclrhn_probe0,1,501,NaN,clock,clock,cr,0501_cl_dnn_cr_clock_40_n02708093_1559.png,n02708093_1559.png,1.0,-1.2553097,-2.4598775,0.85175806
alexnet_w1_mlp_simclrhn_probe0,1,502,NaN,chair,chair,cr,0502_cl_dnn_cr_chair_40_n02791124_7031.png,n02791124_7031.png,1.0,-3.1401844,-5.413714,1.6076282
alexnet_w1_mlp_simclrhn_probe0,1,503,NaN,bottle,bottle,cr,0503_cl_dnn_cr_bottle_40_n04560804_1703.png,n04560804_1703.png,1.0,-0.41883907,-2.389773,1.3936607
alexnet_w1_mlp_simclrhn_probe0,1,504,NaN,bottle,bottle,bw,0504_cl_dnn_bw_bottle_40_n04560804_15679.png,n04560804_15679.png,1.0,-0.70058817,-5.453658,3.360928
alexnet_w1_mlp_simclrhn_probe0,1,505,NaN,bottle,bottle,bw,0505_cl_dnn_bw_bottle_40_n03983396_1006.png,n03983396_1006.png,1.0,-0.53256077,-4.6067653,2.8808975
alexnet_w1_mlp_simclrhn_probe0,1,506,NaN,knife,knife,bw,0506_cl_dnn_bw_knife_40_n03041632_100645.png,n03041632_100645.png,1.0,-1.314882,-4.729633,2.4145935
alexnet_w1_mlp_simclrhn_probe0,1,507,NaN,car,car,cr,0507_cl_dnn_cr_car_40_n02814533_54845.png,n02814533_54845.png,1.0,5.827811,4.4145336,0.99933785
alexnet_w1_mlp_simclrhn_probe0,1,508,NaN,keyboard,keyboard,cr,0508_cl_dnn_cr_keyboard_40_n03085013_20078.png,n03085013_20078.png,1.0,0.21701014,-2.8107417,2.140944
alexnet_w1_mlp_simclrhn_probe0,1,509,NaN,chair,chair,cr,0509_cl_dnn_cr_chair_40_n04099969_4543.png,n04099969_4543.png,1.0,-3.9713373,-5.02213,0.7430227
alexnet_w1_mlp_simclrhn_probe0,1,510,NaN,bear,bear,cr,0510_cl_dnn_cr_bear_40_n02134418_1253.png,n02134418_1253.png,1.0,-1.8053758,-4.5677085,1.9532642
alexnet_w1_mlp_simclrhn_probe0,1,511,NaN,bicycle,bicycle,bw,0511_cl_dnn_bw_bicycle_40_n02835271_8137.png,n02835271_8137.png,1.0,-0.030427635,-6.907281,4.86267
alexnet_w1_mlp_simclrhn_probe0,1,512,NaN,keyboard,keyboard,bw,0512_cl_dnn_bw_keyboard_40_n04505470_7312.png,n04505470_7312.png,1.0,0.59810483,-2.1549046,1.9466716
alexnet_w1_mlp_simclrhn_probe0,1,513,NaN,elephant,elephant,cr,0513_cl_dnn_cr_elephant_40_n02504013_2460.png,n02504013_2460.png,1.0,0.5761882,-7.161868,5.471632
alexnet_w1_mlp_simclrhn_probe0,1,514,NaN,chair,clock,cr,0514_cl_dnn_cr_clock_40_n04548280_13469.png,n04548280_13469.png,0.0,-4.368159,-4.3360176,-0.022727268
alexnet_w1_mlp_simclrhn_probe0,1,515,NaN,car,chair,cr,0515_cl_dnn_cr_chair_40_n02791124_3161.png,n02791124_3161.png,0.0,-7.435828,-4.568604,-2.0274336
alexnet_w1_mlp_simclrhn_probe0,1,516,NaN,elephant,dog,cr,0516_cl_dnn_cr_dog_40_n02093647_1818.png,n02093647_1818.png,0.0,-7.2981076,-2.0064068,-3.7417977
alexnet_w1_mlp_simclrhn_probe0,1,517,NaN,chair,chair,cr,0517_cl_dnn_cr_chair_40_n02791124_4294.png,n02791124_4294.png,1.0,-3.6304605,-4.268696,0.45130053
alexnet_w1_mlp_simclrhn_probe0,1,518,NaN,cat,cat,cr,0518_cl_dnn_cr_cat_40_n02124075_3533.png,n02124075_3533.png,1.0,2.3931532,-4.025249,4.538496
alexnet_w1_mlp_simclrhn_probe0,1,519,NaN,boat,boat,cr,0519_cl_dnn_cr_boat_40_n03344393_2480.png,n03344393_2480.png,1.0,2.0453935,-1.8935388,2.785246
alexnet_w1_mlp_simclrhn_probe0,1,520,NaN,car,car,bw,0520_cl_dnn_bw_car_40_n02814533_95054.png,n02814533_95054.png,1.0,1.9010286,0.11041312,1.2661564
alexnet_w1_mlp_simclrhn_probe0,1,521,NaN,bottle,bottle,cr,0521_cl_dnn_cr_bottle_40_n03937543_1808.png,n03937543_1808.png,1.0,2.0163665,-5.528816,5.33525
alexnet_w1_mlp_simclrhn_probe0,1,522,NaN,car,car,cr,0522_cl_dnn_cr_car_40_n02814533_72213.png,n02814533_72213.png,1.0,5.746783,0.7325859,3.5455728
alexnet_w1_mlp_simclrhn_probe0,1,523,NaN,keyboard,clock,cr,0523_cl_dnn_cr_clock_40_n03196217_1499.png,n03196217_1499.png,0.0,0.67633945,1.2036009,-0.37283015
alexnet_w1_mlp_simclrhn_probe0,1,524,NaN,cat,cat,cr,0524_cl_dnn_cr_cat_40_n02123045_5300.png,n02123045_5300.png,1.0,2.8738353,-2.8347783,4.036599
alexnet_w1_mlp_simclrhn_probe0,1,525,NaN,bicycle,bird,bw,0525_cl_dnn_bw_bird_40_n02006656_3185.png,n02006656_3185.png,0.0,-10.193083,-8.1579685,-1.4390432
alexnet_w1_mlp_simclrhn_probe0,1,526,NaN,clock,clock,cr,0526_cl_dnn_cr_clock_40_n03196217_4541.png,n03196217_4541.png,1.0,2.13876,0.048690677,1.4779022
alexnet_w1_mlp_simclrhn_probe0,1,527,NaN,cat,cat,cr,0527_cl_dnn_cr_cat_40_n02123159_2317.png,n02123159_2317.png,1.0,3.552882,-5.9659367,6.7308216
alexnet_w1_mlp_simclrhn_probe0,1,528,NaN,elephant,bear,cr,0528_cl_dnn_cr_bear_40_n02133161_1362.png,n02133161_1362.png,0.0,-3.7282612,-0.5169555,-2.270736
alexnet_w1_mlp_simclrhn_probe0,1,529,NaN,clock,clock,bw,0529_cl_dnn_bw_clock_40_n04548280_1202.png,n04548280_1202.png,1.0,-0.108174324,-3.109182,2.1220329
alexnet_w1_mlp_simclrhn_probe0,1,530,NaN,bear,dog,bw,0530_cl_dnn_bw_dog_40_n02095570_6717.png,n02095570_6717.png,0.0,-1.1926349,0.039363563,-0.8711545
alexnet_w1_mlp_simclrhn_probe0,1,531,NaN,car,car,bw,0531_cl_dnn_bw_car_40_n03100240_15941.png,n03100240_15941.png,1.0,2.8524911,-0.4524356,2.3369362
alexnet_w1_mlp_simclrhn_probe0,1,532,NaN,bottle,chair,bw,0532_cl_dnn_bw_chair_40_n02791124_1443.png,n02791124_1443.png,0.0,-7.0827804,-5.7256765,-0.9596173
alexnet_w1_mlp_simclrhn_probe0,1,533,NaN,bottle,bottle,cr,0533_cl_dnn_cr_bottle_40_n04557648_830.png,n04557648_830.png,1.0,1.6696726,-4.8369575,4.600882
alexnet_w1_mlp_simclrhn_probe0,1,534,NaN,truck,truck,cr,0534_cl_dnn_cr_truck_40_n03417042_8298.png,n03417042_8298.png,1.0,11.475752,6.1588826,3.7595944
alexnet_w1_mlp_simclrhn_probe0,1,535,NaN,clock,clock,bw,0535_cl_dnn_bw_clock_40_n02708093_4569.png,n02708093_4569.png,1.0,5.8257194,-0.767229,4.6619186
alexnet_w1_mlp_simclrhn_probe0,1,536,NaN,knife,keyboard,cr,0536_cl_dnn_cr_keyboard_40_n03085013_7576.png,n03085013_7576.png,0.0,-0.7961534,0.35760593,-0.81583107
alexnet_w1_mlp_simclrhn_probe0,1,537,NaN,truck,truck,bw,0537_cl_dnn_bw_truck_40_n03417042_27093.png,n03417042_27093.png,1.0,1.3590082,-1.0197858,1.6820613
alexnet_w1_mlp_simclrhn_probe0,1,538,NaN,elephant,elephant,cr,0538_cl_dnn_cr_elephant_40_n02504013_13560.png,n02504013_13560.png,1.0,-0.2668887,-0.86249447,0.42115685
alexnet_w1_mlp_simclrhn_probe0,1,539,NaN,car,car,bw,0539_cl_dnn_bw_car_40_n04285008_12045.png,n04285008_12045.png,1.0,5.345693,1.8986542,2.4374247
alexnet_w1_mlp_simclrhn_probe0,1,540,NaN,airplane,airplane,cr,0540_cl_dnn_cr_airplane_40_n02690373_5176.png,n02690373_5176.png,1.0,8.535979,-0.3669144,6.2952967
alexnet_w1_mlp_simclrhn_probe0,1,541,NaN,bicycle,bicycle,bw,0541_cl_dnn_bw_bicycle_40_n03792782_6194.png,n03792782_6194.png,1.0,-1.1133761,-7.4608774,4.4883614
alexnet_w1_mlp_simclrhn_probe0,1,542,NaN,oven,oven,cr,0542_cl_dnn_cr_oven_40_n04111531_15912.png,n04111531_15912.png,1.0,2.8267102,-2.1313026,3.5058444
alexnet_w1_mlp_simclrhn_probe0,1,543,NaN,oven,oven,cr,0543_cl_dnn_cr_oven_40_n04111531_2592.png,n04111531_2592.png,1.0,-3.0754788,-4.505329,1.0110569
alexnet_w1_mlp_simclrhn_probe0,1,544,NaN,bird,bird,cr,0544_cl_dnn_cr_bird_40_n02011460_2435.png,n02011460_2435.png,1.0,-6.980025,-8.036498,0.74703944
alexnet_w1_mlp_simclrhn_probe0,1,545,NaN,car,car,cr,0545_cl_dnn_cr_car_40_n02814533_33205.png,n02814533_33205.png,1.0,5.1178145,3.8402038,0.9034073
alexnet_w1_mlp_simclrhn_probe0,1,546,NaN,oven,oven,bw,0546_cl_dnn_bw_oven_40_n04111531_14959.png,n04111531_14959.png,1.0,-2.4077094,-2.72562,0.2247968
alexnet_w1_mlp_simclrhn_probe0,1,547,NaN,clock,clock,cr,0547_cl_dnn_cr_clock_40_n04548280_6743.png,n04548280_6743.png,1.0,5.061058,-1.5724427,4.6905932
alexnet_w1_mlp_simclrhn_probe0,1,548,NaN,bicycle,knife,bw,0548_cl_dnn_bw_knife_40_n03041632_15299.png,n03041632_15299.png,0.0,-8.548299,-7.8916636,-0.46431127
alexnet_w1_mlp_simclrhn_probe0,1,549,NaN,knife,clock,bw,0549_cl_dnn_bw_clock_40_n03196217_127.png,n03196217_127.png,0.0,-5.5336165,-3.5050533,-1.4344108
alexnet_w1_mlp_simclrhn_probe0,1,550,NaN,boat,boat,bw,0550_cl_dnn_bw_boat_40_n04273569_12917.png,n04273569_12917.png,1.0,4.398538,-2.9829838,5.2195244
alexnet_w1_mlp_simclrhn_probe0,1,551,NaN,airplane,airplane,cr,0551_cl_dnn_cr_airplane_40_n02690373_9626.png,n02690373_9626.png,1.0,6.2119493,0.4996897,4.039178
alexnet_w1_mlp_simclrhn_probe0,1,552,NaN,bear,bear,cr,0552_cl_dnn_cr_bear_40_n02134084_20500.png,n02134084_20500.png,1.0,-2.160913,-3.6900585,1.0812691
alexnet_w1_mlp_simclrhn_probe0,1,553,NaN,bear,bear,bw,0553_cl_dnn_bw_bear_40_n02132136_6890.png,n02132136_6890.png,1.0,0.6884513,-0.57189965,0.8912027
alexnet_w1_mlp_simclrhn_probe0,1,554,NaN,bottle,bottle,bw,0554_cl_dnn_bw_bottle_40_n02823428_3049.png,n02823428_3049.png,1.0,0.21180762,-3.925996,2.925869
alexnet_w1_mlp_simclrhn_probe0,1,555,NaN,knife,keyboard,cr,0555_cl_dnn_cr_keyboard_40_n03085013_22837.png,n03085013_22837.png,0.0,-2.6413293,0.056431383,-1.9076048
alexnet_w1_mlp_simclrhn_probe0,1,556,NaN,keyboard,keyboard,bw,0556_cl_dnn_bw_keyboard_40_n03085013_3264.png,n03085013_3264.png,1.0,6.616393,-0.8592693,5.2860913
alexnet_w1_mlp_simclrhn_probe0,1,557,NaN,bear,bear,bw,0557_cl_dnn_bw_bear_40_n02134418_7795.png,n02134418_7795.png,1.0,2.9312282,1.0031077,1.3633871
alexnet_w1_mlp_simclrhn_probe0,1,558,NaN,bear,boat,bw,0558_cl_dnn_bw_boat_40_n02951358_34163.png,n02951358_34163.png,0.0,-8.981134,-1.2288047,-5.481725
alexnet_w1_mlp_simclrhn_probe0,1,559,NaN,bear,bear,cr,0559_cl_dnn_cr_bear_40_n02132136_8637.png,n02132136_8637.png,1.0,0.6651119,-2.9980533,2.5902488
alexnet_w1_mlp_simclrhn_probe0,1,560,NaN,truck,truck,cr,0560_cl_dnn_cr_truck_40_n03417042_4218.png,n03417042_4218.png,1.0,5.3409076,1.1848153,2.938801
alexnet_w1_mlp_simclrhn_probe0,1,561,NaN,truck,clock,bw,0561_cl_dnn_bw_clock_40_n04548280_4473.png,n04548280_4473.png,0.0,-3.529505,-2.173133,-0.95909995
alexnet_w1_mlp_simclrhn_probe0,1,562,NaN,bear,bear,bw,0562_cl_dnn_bw_bear_40_n02132136_21799.png,n02132136_21799.png,1.0,0.81946397,-0.61221975,1.0123533
alexnet_w1_mlp_simclrhn_probe0,1,563,NaN,bird,bird,cr,0563_cl_dnn_cr_bird_40_n01531178_5780.png,n01531178_5780.png,1.0,-3.8903744,-7.2202444,2.3545737
alexnet_w1_mlp_simclrhn_probe0,1,564,NaN,truck,truck,cr,0564_cl_dnn_cr_truck_40_n03796401_27184.png,n03796401_27184.png,1.0,5.4632807,1.8045756,2.5870953
alexnet_w1_mlp_simclrhn_probe0,1,565,NaN,keyboard,clock,bw,0565_cl_dnn_bw_clock_40_n03196217_5258.png,n03196217_5258.png,0.0,-2.5069315,-1.5912141,-0.64751005
alexnet_w1_mlp_simclrhn_probe0,1,566,NaN,airplane,bird,cr,0566_cl_dnn_cr_bird_40_n02002556_15337.png,n02002556_15337.png,0.0,-4.324424,-1.2379684,-2.1824536
alexnet_w1_mlp_simclrhn_probe0,1,567,NaN,bottle,bottle,cr,0567_cl_dnn_cr_bottle_40_n04560804_3683.png,n04560804_3683.png,1.0,-7.4078703,-7.640524,0.16451095
alexnet_w1_mlp_simclrhn_probe0,1,568,NaN,bicycle,bicycle,cr,0568_cl_dnn_cr_bicycle_40_n02835271_8511.png,n02835271_8511.png,1.0,0.51491094,-10.693895,7.9258227
alexnet_w1_mlp_simclrhn_probe0,1,569,NaN,cat,bear,cr,0569_cl_dnn_cr_bear_40_n02134084_23974.png,n02134084_23974.png,0.0,-2.4741395,-1.683483,-0.5590786
alexnet_w1_mlp_simclrhn_probe0,1,570,NaN,bicycle,dog,bw,0570_cl_dnn_bw_dog_40_n02091244_9271.png,n02091244_9271.png,0.0,-9.136706,-6.025774,-2.1997614
alexnet_w1_mlp_simclrhn_probe0,1,571,NaN,bear,bear,cr,0571_cl_dnn_cr_bear_40_n02133161_6946.png,n02133161_6946.png,1.0,-2.9100792,-3.9886045,0.76263255
alexnet_w1_mlp_simclrhn_probe0,1,572,NaN,truck,truck,bw,0572_cl_dnn_bw_truck_40_n04467665_10060.png,n04467665_10060.png,1.0,-0.17973432,-1.6262157,1.0228168
alexnet_w1_mlp_simclrhn_probe0,1,573,NaN,oven,oven,bw,0573_cl_dnn_bw_oven_40_n04111531_5328.png,n04111531_5328.png,1.0,5.5633473,0.7410762,3.4098608
alexnet_w1_mlp_simclrhn_probe0,1,574,NaN,airplane,bottle,cr,0574_cl_dnn_cr_bottle_40_n04560804_2005.png,n04560804_2005.png,0.0,-3.0413077,-1.6138641,-1.0093551
alexnet_w1_mlp_simclrhn_probe0,1,575,NaN,bear,bear,bw,0575_cl_dnn_bw_bear_40_n02134084_3695.png,n02134084_3695.png,1.0,-2.456102,-2.6102316,0.10898619
alexnet_w1_mlp_simclrhn_probe0,1,576,NaN,cat,cat,bw,0576_cl_dnn_bw_cat_40_n02123597_2219.png,n02123597_2219.png,1.0,-1.9818572,-3.9930377,1.4221194
alexnet_w1_mlp_simclrhn_probe0,1,577,NaN,keyboard,chair,bw,0577_cl_dnn_bw_chair_40_n02791124_6077.png,n02791124_6077.png,0.0,-3.857051,-3.6227303,-0.16568972
alexnet_w1_mlp_simclrhn_probe0,1,578,NaN,knife,bottle,cr,0578_cl_dnn_cr_bottle_40_n04579145_7431.png,n04579145_7431.png,0.0,-7.721295,-6.561893,-0.81982094
alexnet_w1_mlp_simclrhn_probe0,1,579,NaN,keyboard,keyboard,bw,0579_cl_dnn_bw_keyboard_40_n04505470_510.png,n04505470_510.png,1.0,2.9888468,-1.0393476,2.8483636
alexnet_w1_mlp_simclrhn_probe0,1,580,NaN,oven,oven,cr,0580_cl_dnn_cr_oven_40_n04111531_4452.png,n04111531_4452.png,1.0,5.132372,-4.9500484,7.129348
alexnet_w1_mlp_simclrhn_probe0,1,581,NaN,elephant,elephant,bw,0581_cl_dnn_bw_elephant_40_n02504013_237.png,n02504013_237.png,1.0,2.2997768,-5.3657527,5.4203477
alexnet_w1_mlp_simclrhn_probe0,1,582,NaN,elephant,elephant,cr,0582_cl_dnn_cr_elephant_40_n02504013_10351.png,n02504013_10351.png,1.0,1.3587271,-1.8781241,2.2887995
alexnet_w1_mlp_simclrhn_probe0,1,583,NaN,elephant,elephant,cr,0583_cl_dnn_cr_elephant_40_n02504458_1304.png,n02504458_1304.png,1.0,5.9297276,0.21413209,4.0415363
alexnet_w1_mlp_simclrhn_probe0,1,584,NaN,cat,dog,bw,0584_cl_dnn_bw_dog_40_n02104365_9837.png,n02104365_9837.png,0.0,-8.676614,-7.8337097,-0.5960232
alexnet_w1_mlp_simclrhn_probe0,1,585,NaN,cat,cat,cr,0585_cl_dnn_cr_cat_40_n02123045_9661.png,n02123045_9661.png,1.0,-3.291356,-5.6026325,1.6343193
alexnet_w1_mlp_simclrhn_probe0,1,586,NaN,knife,bottle,bw,0586_cl_dnn_bw_bottle_40_n02823428_5214.png,n02823428_5214.png,0.0,-4.3501043,-2.2979178,-1.451115
alexnet_w1_mlp_simclrhn_probe0,1,587,NaN,airplane,bird,bw,0587_cl_dnn_bw_bird_40_n01828970_5448.png,n01828970_5448.png,0.0,-3.1826253,-2.0660112,-0.78956544
alexnet_w1_mlp_simclrhn_probe0,1,588,NaN,truck,car,cr,0588_cl_dnn_cr_car_40_n02814533_83874.png,n02814533_83874.png,0.0,-7.093661,-4.8904457,-1.5579084
alexnet_w1_mlp_simclrhn_probe0,1,589,NaN,oven,oven,bw,0589_cl_dnn_bw_oven_40_n04111531_8036.png,n04111531_8036.png,1.0,2.4061937,-6.236668,6.111427
alexnet_w1_mlp_simclrhn_probe0,1,590,NaN,oven,oven,cr,0590_cl_dnn_cr_oven_40_n04111531_7355.png,n04111531_7355.png,1.0,-1.348735,-1.3967841,0.03397584
alexnet_w1_mlp_simclrhn_probe0,1,591,NaN,car,car,bw,0591_cl_dnn_bw_car_40_n04285008_13354.png,n04285008_13354.png,1.0,2.39736,0.6794996,1.2147108
alexnet_w1_mlp_simclrhn_probe0,1,592,NaN,keyboard,clock,cr,0592_cl_dnn_cr_clock_40_n02708093_8267.png,n02708093_8267.png,0.0,-5.7193494,-3.1689026,-1.8034382
alexnet_w1_mlp_simclrhn_probe0,1,593,NaN,cat,cat,bw,0593_cl_dnn_bw_cat_40_n02124075_14242.png,n02124075_14242.png,1.0,3.3162606,-1.7797923,3.6034539
alexnet_w1_mlp_simclrhn_probe0,1,594,NaN,knife,knife,cr,0594_cl_dnn_cr_knife_40_n03041632_4279.png,n03041632_4279.png,1.0,-3.4025116,-4.420764,0.72001314
alexnet_w1_mlp_simclrhn_probe0,1,595,NaN,oven,oven,cr,0595_cl_dnn_cr_oven_40_n04111531_2296.png,n04111531_2296.png,1.0,-2.038803,-8.279663,4.4129543
alexnet_w1_mlp_simclrhn_probe0,1,596,NaN,boat,boat,cr,0596_cl_dnn_cr_boat_40_n03344393_5859.png,n03344393_5859.png,1.0,3.1844594,0.57087064,1.8480864
alexnet_w1_mlp_simclrhn_probe0,1,597,NaN,car,car,cr,0597_cl_dnn_cr_car_40_n02814533_57176.png,n02814533_57176.png,1.0,-0.3683304,-0.42675564,0.04131289
alexnet_w1_mlp_simclrhn_probe0,1,598,NaN,elephant,cat,bw,0598_cl_dnn_bw_cat_40_n02123159_1769.png,n02123159_1769.png,0.0,-4.1705775,-2.8208435,-0.95440614
alexnet_w1_mlp_simclrhn_probe0,1,599,NaN,clock,clock,cr,0599_cl_dnn_cr_clock_40_n02708093_4976.png,n02708093_4976.png,1.0,2.636566,-2.0353544,3.3035467
alexnet_w1_mlp_simclrhn_probe0,1,600,NaN,car,truck,cr,0600_cl_dnn_cr_truck_40_n03796401_8864.png,n03796401_8864.png,0.0,-1.7480228,-1.3827788,-0.25826654
alexnet_w1_mlp_simclrhn_probe0,1,601,NaN,clock,clock,bw,0601_cl_dnn_bw_clock_40_n03196217_868.png,n03196217_868.png,1.0,5.8414435,2.1803207,2.5888047
alexnet_w1_mlp_simclrhn_probe0,1,602,NaN,keyboard,keyboard,bw,0602_cl_dnn_bw_keyboard_40_n03085013_3910.png,n03085013_3910.png,1.0,-5.398144,-6.4066277,0.7131058
alexnet_w1_mlp_simclrhn_probe0,1,603,NaN,bicycle,bicycle,cr,0603_cl_dnn_cr_bicycle_40_n03792782_5466.png,n03792782_5466.png,1.0,4.596728,-7.8585534,8.807214
alexnet_w1_mlp_simclrhn_probe0,1,604,NaN,bear,bear,bw,0604_cl_dnn_bw_bear_40_n02132136_23248.png,n02132136_23248.png,1.0,0.12619992,-1.860545,1.4048408
alexnet_w1_mlp_simclrhn_probe0,1,605,NaN,truck,truck,bw,0605_cl_dnn_bw_truck_40_n03417042_2794.png,n03417042_2794.png,1.0,0.73894,-4.0837646,3.410167
alexnet_w1_mlp_simclrhn_probe0,1,606,NaN,elephant,chair,bw,0606_cl_dnn_bw_chair_40_n02791124_7324.png,n02791124_7324.png,0.0,-3.8314102,-3.3768609,-0.32141492
alexnet_w1_mlp_simclrhn_probe0,1,607,NaN,bicycle,bicycle,bw,0607_cl_dnn_bw_bicycle_40_n02835271_6736.png,n02835271_6736.png,1.0,0.20153347,-5.510147,4.038768
alexnet_w1_mlp_simclrhn_probe0,1,608,NaN,clock,clock,bw,0608_cl_dnn_bw_clock_40_n04548280_8990.png,n04548280_8990.png,1.0,5.620359,-3.0307581,6.117264
alexnet_w1_mlp_simclrhn_probe0,1,609,NaN,airplane,airplane,bw,0609_cl_dnn_bw_airplane_40_n02690373_971.png,n02690373_971.png,1.0,-2.5958269,-4.5283194,1.3664786
alexnet_w1_mlp_simclrhn_probe0,1,610,NaN,dog,bear,bw,0610_cl_dnn_bw_bear_40_n02132136_23853.png,n02132136_23853.png,0.0,-1.2242818,-0.24119098,-0.6951502
alexnet_w1_mlp_simclrhn_probe0,1,611,NaN,bottle,clock,cr,0611_cl_dnn_cr_clock_40_n03196217_3416.png,n03196217_3416.png,0.0,0.45633134,0.4575339,-0.0008503338
alexnet_w1_mlp_simclrhn_probe0,1,612,NaN,bicycle,clock,bw,0612_cl_dnn_bw_clock_40_n04548280_4346.png,n04548280_4346.png,0.0,-4.196407,-2.0587826,-1.5115286
alexnet_w1_mlp_simclrhn_probe0,1,613,NaN,oven,oven,cr,0613_cl_dnn_cr_oven_40_n04111531_2342.png,n04111531_2342.png,1.0,6.43196,0.30993265,4.328927
alexnet_w1_mlp_simclrhn_probe0,1,614,NaN,chair,chair,bw,0614_cl_dnn_bw_chair_40_n04099969_8509.png,n04099969_8509.png,1.0,-2.0712967,-2.8923604,0.58057976
alexnet_w1_mlp_simclrhn_probe0,1,615,NaN,bottle,bottle,bw,0615_cl_dnn_bw_bottle_40_n03937543_4340.png,n03937543_4340.png,1.0,-2.1982753,-2.72203,0.37035042
alexnet_w1_mlp_simclrhn_probe0,1,616,NaN,boat,clock,bw,0616_cl_dnn_bw_clock_40_n02708093_6655.png,n02708093_6655.png,0.0,-8.407137,-3.432486,-3.5176094
alexnet_w1_mlp_simclrhn_probe0,1,617,NaN,cat,cat,cr,0617_cl_dnn_cr_cat_40_n02123159_1339.png,n02123159_1339.png,1.0,4.216307,-1.4248353,3.9888902
alexnet_w1_mlp_simclrhn_probe0,1,618,NaN,knife,knife,bw,0618_cl_dnn_bw_knife_40_n03041632_30553.png,n03041632_30553.png,1.0,-5.255407,-6.2808867,0.7251237
alexnet_w1_mlp_simclrhn_probe0,1,619,NaN,bicycle,bicycle,cr,0619_cl_dnn_cr_bicycle_40_n03792782_18707.png,n03792782_18707.png,1.0,3.9207096,-4.6903286,6.0889235
alexnet_w1_mlp_simclrhn_probe0,1,620,NaN,elephant,elephant,bw,0620_cl_dnn_bw_elephant_40_n02504458_3648.png,n02504458_3648.png,1.0,6.251725,-5.5045166,8.312919
alexnet_w1_mlp_simclrhn_probe0,1,621,NaN,elephant,elephant,cr,0621_cl_dnn_cr_elephant_40_n02504458_1179.png,n02504458_1179.png,1.0,7.1924696,2.0342352,3.6474228
alexnet_w1_mlp_simclrhn_probe0,1,622,NaN,clock,clock,bw,0622_cl_dnn_bw_clock_40_n02708093_391.png,n02708093_391.png,1.0,3.3406498,-1.5993254,3.4930902
alexnet_w1_mlp_simclrhn_probe0,1,623,NaN,airplane,car,cr,0623_cl_dnn_cr_car_40_n04285008_3453.png,n04285008_3453.png,0.0,-4.06122,-0.53501666,-2.4934025
alexnet_w1_mlp_simclrhn_probe0,1,624,NaN,airplane,airplane,bw,0624_cl_dnn_bw_airplane_40_n02690373_2800.png,n02690373_2800.png,1.0,2.4251823,-4.995348,5.2471075
alexnet_w1_mlp_simclrhn_probe0,1,625,NaN,cat,cat,cr,0625_cl_dnn_cr_cat_40_n02123394_979.png,n02123394_979.png,1.0,0.24175589,-1.1896231,1.0121378
alexnet_w1_mlp_simclrhn_probe0,1,626,NaN,bear,dog,cr,0626_cl_dnn_cr_dog_40_n02105641_4701.png,n02105641_4701.png,0.0,-3.2125561,-0.73238957,-1.7537426
alexnet_w1_mlp_simclrhn_probe0,1,627,NaN,airplane,boat,cr,0627_cl_dnn_cr_boat_40_n04273569_13641.png,n04273569_13641.png,0.0,1.7525742,1.80346,-0.035981692
alexnet_w1_mlp_simclrhn_probe0,1,628,NaN,truck,car,cr,0628_cl_dnn_cr_car_40_n02814533_74825.png,n02814533_74825.png,0.0,-5.8422337,-3.559017,-1.614478
alexnet_w1_mlp_simclrhn_probe0,1,629,NaN,airplane,airplane,cr,0629_cl_dnn_cr_airplane_40_n02690373_6812.png,n02690373_6812.png,1.0,5.2669907,-2.6932757,5.6287584
alexnet_w1_mlp_simclrhn_probe0,1,630,NaN,car,car,bw,0630_cl_dnn_bw_car_40_n03100240_19223.png,n03100240_19223.png,1.0,11.507286,6.3358316,3.6567705
alexnet_w1_mlp_simclrhn_probe0,1,631,NaN,bottle,bottle,bw,0631_cl_dnn_bw_bottle_40_n03983396_3817.png,n03983396_3817.png,1.0,-2.5422099,-7.348217,3.3983605
alexnet_w1_mlp_simclrhn_probe0,1,632,NaN,elephant,elephant,bw,0632_cl_dnn_bw_elephant_40_n02504013_1432.png,n02504013_1432.png,1.0,0.34267884,-6.3952174,4.7644124
alexnet_w1_mlp_simclrhn_probe0,1,633,NaN,airplane,boat,cr,0633_cl_dnn_cr_boat_40_n03662601_35008.png,n03662601_35008.png,0.0,0.89882946,1.5670298,-0.47248903
alexnet_w1_mlp_simclrhn_probe0,1,634,NaN,oven,oven,bw,0634_cl_dnn_bw_oven_40_n04111531_14055.png,n04111531_14055.png,1.0,-0.15818869,-4.491732,3.064278
alexnet_w1_mlp_simclrhn_probe0,1,635,NaN,airplane,airplane,bw,0635_cl_dnn_bw_airplane_40_n02690373_9812.png,n02690373_9812.png,1.0,7.6284637,1.777737,4.1370883
alexnet_w1_mlp_simclrhn_probe0,1,636,NaN,truck,car,cr,0636_cl_dnn_cr_car_40_n04285008_6200.png,n04285008_6200.png,0.0,-0.6037108,0.20887777,-0.5745869
alexnet_w1_mlp_simclrhn_probe0,1,637,NaN,clock,clock,cr,0637_cl_dnn_cr_clock_40_n04548280_5889.png,n04548280_5889.png,1.0,2.2237787,-1.8537341,2.883237
alexnet_w1_mlp_simclrhn_probe0,1,638,NaN,chair,chair,bw,0638_cl_dnn_bw_chair_40_n03376595_2924.png,n03376595_2924.png,1.0,-3.410545,-4.759787,0.9540582
alexnet_w1_mlp_simclrhn_probe0,1,639,NaN,airplane,airplane,bw,0639_cl_dnn_bw_airplane_40_n02690373_693.png,n02690373_693.png,1.0,4.9080405,1.6346493,2.3146372
alexnet_w1_mlp_simclrhn_probe0,1,640,NaN,bicycle,bicycle,bw,0640_cl_dnn_bw_bicycle_40_n03792782_1778.png,n03792782_1778.png,1.0,2.3831189,-6.5841246,6.3407984
alexnet_w1_mlp_simclrhn_probe0,1,641,NaN,clock,clock,cr,0641_cl_dnn_cr_clock_40_n02708093_444.png,n02708093_444.png,1.0,3.9650137,-2.4969358,4.5692883
alexnet_w1_mlp_simclrhn_probe0,1,642,NaN,clock,clock,cr,0642_cl_dnn_cr_clock_40_n02708093_3385.png,n02708093_3385.png,1.0,1.359836,-2.0042357,2.378758
alexnet_w1_mlp_simclrhn_probe0,1,643,NaN,keyboard,clock,cr,0643_cl_dnn_cr_clock_40_n03196217_970.png,n03196217_970.png,0.0,-0.09426256,0.5940726,-0.48672643
