subj,session,trial,rt,object_response,category,condition,imagename,filename,is_correct,targ_act,max_nontarg_act,decision_margin
alexnet_w3_mlp_simclrhn_probe2,1,1,NaN,oven,oven,cr,0001_cl_dnn_cr_oven_40_n04111531_14126.png,n04111531_14126.png,1.0,5.0225115,1.5997285,2.420273
alexnet_w3_mlp_simclrhn_probe2,1,2,NaN,bear,bear,cr,0002_cl_dnn_cr_bear_40_n02134084_5274.png,n02134084_5274.png,1.0,6.0237117,3.412984,1.8460634
alexnet_w3_mlp_simclrhn_probe2,1,3,NaN,dog,cat,cr,0003_cl_dnn_cr_cat_40_n02123394_133.png,n02123394_133.png,0.0,-0.009297169,0.7148329,-0.51203734
alexnet_w3_mlp_simclrhn_probe2,1,4,NaN,car,car,cr,0004_cl_dnn_cr_car_40_n02814533_51190.png,n02814533_51190.png,1.0,11.508785,6.47279,3.5609865
alexnet_w3_mlp_simclrhn_probe2,1,5,NaN,chair,chair,bw,0005_cl_dnn_bw_chair_40_n04099969_14986.png,n04099969_14986.png,1.0,3.020372,0.14634919,2.032241
alexnet_w3_mlp_simclrhn_probe2,1,6,NaN,elephant,elephant,cr,0006_cl_dnn_cr_elephant_40_n02504013_6731.png,n02504013_6731.png,1.0,4.4742126,1.0577502,2.4158037
alexnet_w3_mlp_simclrhn_probe2,1,7,NaN,bottle,bottle,cr,0007_cl_dnn_cr_bottle_40_n02823428_987.png,n02823428_987.png,1.0,15.156541,4.0665126,7.8418345
alexnet_w3_mlp_simclrhn_probe2,1,8,NaN,chair,truck,cr,0008_cl_dnn_cr_truck_40_n03417042_7458.png,n03417042_7458.png,0.0,1.6691191,1.8522651,-0.12950379
alexnet_w3_mlp_simclrhn_probe2,1,9,NaN,chair,chair,bw,0009_cl_dnn_bw_chair_40_n04099969_4577.png,n04099969_4577.png,1.0,2.2882662,0.640857,1.1648942
alexnet_w3_mlp_simclrhn_probe2,1,10,NaN,bicycle,knife,cr,0010_cl_dnn_cr_knife_40_n03041632_83472.png,n03041632_83472.png,0.0,-0.67011875,-0.31652647,-0.2500275
alexnet_w3_mlp_simclrhn_probe2,1,11,NaN,elephant,elephant,bw,0011_cl_dnn_bw_elephant_40_n02504458_3485.png,n02504458_3485.png,1.0,12.799735,1.6549612,7.880545
alexnet_w3_mlp_simclrhn_probe2,1,12,NaN,elephant,bear,bw,0012_cl_dnn_bw_bear_40_n02133161_1066.png,n02133161_1066.png,0.0,1.3347933,3.2211165,-1.3338319
alexnet_w3_mlp_simclrhn_probe2,1,13,NaN,elephant,elephant,bw,0013_cl_dnn_bw_elephant_40_n02504013_1060.png,n02504013_1060.png,1.0,4.439158,0.96364295,2.4575603
alexnet_w3_mlp_simclrhn_probe2,1,14,NaN,elephant,bear,bw,0014_cl_dnn_bw_bear_40_n02134084_1009.png,n02134084_1009.png,0.0,-0.21487084,0.19044,-0.28659806
alexnet_w3_mlp_simclrhn_probe2,1,15,NaN,cat,cat,cr,0015_cl_dnn_cr_cat_40_n02125311_13383.png,n02125311_13383.png,1.0,4.386278,0.6780232,2.622132
alexnet_w3_mlp_simclrhn_probe2,1,16,NaN,elephant,elephant,bw,0016_cl_dnn_bw_elephant_40_n02504013_257.png,n02504013_257.png,1.0,14.481161,1.7861453,8.976732
alexnet_w3_mlp_simclrhn_probe2,1,17,NaN,cat,cat,bw,0017_cl_dnn_bw_cat_40_n02123045_6445.png,n02123045_6445.png,1.0,0.700401,-1.6780243,1.6818007
alexnet_w3_mlp_simclrhn_probe2,1,18,NaN,airplane,airplane,bw,0018_cl_dnn_bw_airplane_40_n02690373_3493.png,n02690373_3493.png,1.0,11.6803665,2.3664012,6.585968
alexnet_w3_mlp_simclrhn_probe2,1,19,NaN,airplane,airplane,bw,0019_cl_dnn_bw_airplane_40_n02690373_5184.png,n02690373_5184.png,1.0,6.0250845,-0.3121215,4.4810815
alexnet_w3_mlp_simclrhn_probe2,1,20,NaN,car,truck,bw,0020_cl_dnn_bw_truck_40_n04467665_22637.png,n04467665_22637.png,0.0,0.8909061,1.9257994,-0.73178005
alexnet_w3_mlp_simclrhn_probe2,1,21,NaN,cat,cat,cr,0021_cl_dnn_cr_cat_40_n02123159_10952.png,n02123159_10952.png,1.0,4.7307997,-0.6793788,3.8255742
alexnet_w3_mlp_simclrhn_probe2,1,22,NaN,airplane,airplane,bw,0022_cl_dnn_bw_airplane_40_n02690373_3620.png,n02690373_3620.png,1.0,7.184843,2.4731402,3.331677
alexnet_w3_mlp_simclrhn_probe2,1,23,NaN,oven,bottle,cr,0023_cl_dnn_cr_bottle_40_n04557648_10744.png,n04557648_10744.png,0.0,-1.3140087,0.67049015,-1.4032526
alexnet_w3_mlp_simclrhn_probe2,1,24,NaN,oven,oven,bw,0024_cl_dnn_bw_oven_40_n04111531_12702.png,n04111531_12702.png,1.0,7.0673985,0.8333741,4.408121
alexnet_w3_mlp_simclrhn_probe2,1,25,NaN,elephant,bear,cr,0025_cl_dnn_cr_bear_40_n02133161_9949.png,n02133161_9949.png,0.0,-0.24358472,1.5793881,-1.2890365
alexnet_w3_mlp_simclrhn_probe2,1,26,NaN,oven,keyboard,cr,0026_cl_dnn_cr_keyboard_40_n03085013_3489.png,n03085013_3489.png,0.0,-1.2493141,0.6460675,-1.3402371
alexnet_w3_mlp_simclrhn_probe2,1,27,NaN,elephant,elephant,bw,0027_cl_dnn_bw_elephant_40_n02504458_4633.png,n02504458_4633.png,1.0,4.0116005,0.4628596,2.5093389
alexnet_w3_mlp_simclrhn_probe2,1,28,NaN,clock,clock,cr,0028_cl_dnn_cr_clock_40_n04548280_7816.png,n04548280_7816.png,1.0,1.3564262,0.04673565,0.92609113
alexnet_w3_mlp_simclrhn_probe2,1,29,NaN,dog,dog,bw,0029_cl_dnn_bw_dog_40_n02097474_1859.png,n02097474_1859.png,1.0,2.031136,-1.2858764,2.3454819
alexnet_w3_mlp_simclrhn_probe2,1,30,NaN,cat,cat,bw,0030_cl_dnn_bw_cat_40_n02123394_916.png,n02123394_916.png,1.0,2.7302372,-0.16509554,2.0473094
alexnet_w3_mlp_simclrhn_probe2,1,31,NaN,elephant,elephant,cr,0031_cl_dnn_cr_elephant_40_n02504458_3525.png,n02504458_3525.png,1.0,10.262305,-1.5623546,8.361297
alexnet_w3_mlp_simclrhn_probe2,1,32,NaN,bear,bear,bw,0032_cl_dnn_bw_bear_40_n02134418_4456.png,n02134418_4456.png,1.0,4.9861307,-0.33970618,3.7659357
alexnet_w3_mlp_simclrhn_probe2,1,33,NaN,keyboard,keyboard,bw,0033_cl_dnn_bw_keyboard_40_n03085013_24045.png,n03085013_24045.png,1.0,6.39567,1.4134705,3.5229473
alexnet_w3_mlp_simclrhn_probe2,1,34,NaN,oven,knife,bw,0034_cl_dnn_bw_knife_40_n03041632_49363.png,n03041632_49363.png,0.0,0.16692951,2.1298296,-1.38798
alexnet_w3_mlp_simclrhn_probe2,1,35,NaN,cat,cat,bw,0035_cl_dnn_bw_cat_40_n02123159_7854.png,n02123159_7854.png,1.0,2.1697204,-0.32940513,1.7671486
alexnet_w3_mlp_simclrhn_probe2,1,36,NaN,oven,knife,cr,0036_cl_dnn_cr_knife_40_n03041632_4708.png,n03041632_4708.png,0.0,-0.59565735,3.5747318,-2.9489105
alexnet_w3_mlp_simclrhn_probe2,1,37,NaN,oven,chair,cr,0037_cl_dnn_cr_chair_40_n04429376_7788.png,n04429376_7788.png,0.0,1.7534832,1.9380891,-0.13053612
alexnet_w3_mlp_simclrhn_probe2,1,38,NaN,car,car,cr,0038_cl_dnn_cr_car_40_n03100240_9086.png,n03100240_9086.png,1.0,7.0309353,4.088319,2.080744
alexnet_w3_mlp_simclrhn_probe2,1,39,NaN,knife,chair,cr,0039_cl_dnn_cr_chair_40_n03376595_3038.png,n03376595_3038.png,0.0,-0.3060944,0.39787626,-0.49778244
alexnet_w3_mlp_simclrhn_probe2,1,40,NaN,truck,truck,bw,0040_cl_dnn_bw_truck_40_n03796401_1758.png,n03796401_1758.png,1.0,1.8128586,0.3772032,1.0151616
alexnet_w3_mlp_simclrhn_probe2,1,41,NaN,boat,boat,cr,0041_cl_dnn_cr_boat_40_n04273569_4324.png,n04273569_4324.png,1.0,7.9465165,0.6830088,5.136076
alexnet_w3_mlp_simclrhn_probe2,1,42,NaN,elephant,bear,cr,0042_cl_dnn_cr_bear_40_n02134084_1090.png,n02134084_1090.png,0.0,1.2990667,1.791045,-0.3478812
alexnet_w3_mlp_simclrhn_probe2,1,43,NaN,bicycle,bicycle,bw,0043_cl_dnn_bw_bicycle_40_n03792782_13665.png,n03792782_13665.png,1.0,1.9358828,-1.2730691,2.2690718
alexnet_w3_mlp_simclrhn_probe2,1,44,NaN,knife,knife,bw,0044_cl_dnn_bw_knife_40_n03041632_36215.png,n03041632_36215.png,1.0,2.83954,0.45052862,1.6892862
alexnet_w3_mlp_simclrhn_probe2,1,45,NaN,car,car,bw,0045_cl_dnn_bw_car_40_n04285008_7770.png,n04285008_7770.png,1.0,12.671241,8.015034,3.2924356
alexnet_w3_mlp_simclrhn_probe2,1,46,NaN,bottle,bottle,cr,0046_cl_dnn_cr_bottle_40_n03983396_15260.png,n03983396_15260.png,1.0,7.4120216,0.63766193,4.790196
alexnet_w3_mlp_simclrhn_probe2,1,47,NaN,dog,dog,cr,0047_cl_dnn_cr_dog_40_n02091635_6519.png,n02091635_6519.png,1.0,0.961188,-0.406215,0.9669
alexnet_w3_mlp_simclrhn_probe2,1,48,NaN,elephant,elephant,cr,0048_cl_dnn_cr_elephant_40_n02504013_3485.png,n02504013_3485.png,1.0,15.26853,4.3822927,7.6977324
alexnet_w3_mlp_simclrhn_probe2,1,49,NaN,oven,oven,cr,0049_cl_dnn_cr_oven_40_n04111531_807.png,n04111531_807.png,1.0,4.662499,1.6769625,2.1110933
alexnet_w3_mlp_simclrhn_probe2,1,50,NaN,oven,oven,cr,0050_cl_dnn_cr_oven_40_n04111531_605.png,n04111531_605.png,1.0,3.549416,0.002012223,2.5083933
alexnet_w3_mlp_simclrhn_probe2,1,51,NaN,elephant,dog,bw,0051_cl_dnn_bw_dog_40_n02109047_2662.png,n02109047_2662.png,0.0,-0.075777195,4.379797,-3.1505666
alexnet_w3_mlp_simclrhn_probe2,1,52,NaN,truck,truck,cr,0052_cl_dnn_cr_truck_40_n03417042_16038.png,n03417042_16038.png,1.0,3.2768059,-0.87044996,2.9325528
alexnet_w3_mlp_simclrhn_probe2,1,53,NaN,truck,truck,bw,0053_cl_dnn_bw_truck_40_n03796401_1710.png,n03796401_1710.png,1.0,4.545227,0.19170892,3.078402
alexnet_w3_mlp_simclrhn_probe2,1,54,NaN,cat,cat,cr,0054_cl_dnn_cr_cat_40_n02125311_20921.png,n02125311_20921.png,1.0,3.4819248,-0.82184684,3.043226
alexnet_w3_mlp_simclrhn_probe2,1,55,NaN,bird,bear,cr,0055_cl_dnn_cr_bear_40_n02133161_575.png,n02133161_575.png,0.0,-1.4745166,-1.275423,-0.14078042
alexnet_w3_mlp_simclrhn_probe2,1,56,NaN,chair,chair,bw,0056_cl_dnn_bw_chair_40_n04429376_21865.png,n04429376_21865.png,1.0,0.08033378,-0.7431821,0.58231366
alexnet_w3_mlp_simclrhn_probe2,1,57,NaN,bicycle,bird,bw,0057_cl_dnn_bw_bird_40_n01616318_26436.png,n01616318_26436.png,0.0,-2.09223,-0.97851574,-0.787515
alexnet_w3_mlp_simclrhn_probe2,1,58,NaN,oven,oven,cr,0058_cl_dnn_cr_oven_40_n04111531_9498.png,n04111531_9498.png,1.0,3.4892888,1.2645576,1.5731225
alexnet_w3_mlp_simclrhn_probe2,1,59,NaN,bear,bear,bw,0059_cl_dnn_bw_bear_40_n02134418_397.png,n02134418_397.png,1.0,6.5468607,2.1765325,3.0902886
alexnet_w3_mlp_simclrhn_probe2,1,60,NaN,chair,chair,cr,0060_cl_dnn_cr_chair_40_n04099969_23961.png,n04099969_23961.png,1.0,1.9102646,0.48698348,1.0064118
alexnet_w3_mlp_simclrhn_probe2,1,61,NaN,bird,dog,bw,0061_cl_dnn_bw_dog_40_n02093256_7181.png,n02093256_7181.png,0.0,-2.301142,-0.03018895,-1.6058062
alexnet_w3_mlp_simclrhn_probe2,1,62,NaN,bicycle,bicycle,cr,0062_cl_dnn_cr_bicycle_40_n02835271_26731.png,n02835271_26731.png,1.0,8.164505,-1.1209855,6.565833
alexnet_w3_mlp_simclrhn_probe2,1,63,NaN,cat,cat,cr,0063_cl_dnn_cr_cat_40_n02125311_12557.png,n02125311_12557.png,1.0,2.2283924,0.27323347,1.3825061
alexnet_w3_mlp_simclrhn_probe2,1,64,NaN,dog,dog,cr,0064_cl_dnn_cr_dog_40_n02093647_2890.png,n02093647_2890.png,1.0,1.9695859,-3.998312,4.219941
alexnet_w3_mlp_simclrhn_probe2,1,65,NaN,keyboard,knife,cr,0065_cl_dnn_cr_knife_40_n03041632_14293.png,n03041632_14293.png,0.0,0.23502022,0.97685313,-0.5245551
alexnet_w3_mlp_simclrhn_probe2,1,66,NaN,oven,oven,bw,0066_cl_dnn_bw_oven_40_n04111531_20359.png,n04111531_20359.png,1.0,5.912422,-3.6434326,6.75701
alexnet_w3_mlp_simclrhn_probe2,1,67,NaN,truck,truck,bw,0067_cl_dnn_bw_truck_40_n04467665_12177.png,n04467665_12177.png,1.0,8.3784485,2.8905075,3.8805602
alexnet_w3_mlp_simclrhn_probe2,1,68,NaN,bicycle,bicycle,cr,0068_cl_dnn_cr_bicycle_40_n02835271_19400.png,n02835271_19400.png,1.0,4.3277273,-1.344079,4.010573
alexnet_w3_mlp_simclrhn_probe2,1,69,NaN,truck,truck,cr,0069_cl_dnn_cr_truck_40_n03417042_1263.png,n03417042_1263.png,1.0,3.9686491,1.984747,1.4028306
alexnet_w3_mlp_simclrhn_probe2,1,70,NaN,cat,cat,bw,0070_cl_dnn_bw_cat_40_n02123045_8336.png,n02123045_8336.png,1.0,4.4911256,-1.0225861,3.8987832
alexnet_w3_mlp_simclrhn_probe2,1,71,NaN,bear,bear,bw,0071_cl_dnn_bw_bear_40_n02134418_5405.png,n02134418_5405.png,1.0,4.5355186,2.1360705,1.6966661
alexnet_w3_mlp_simclrhn_probe2,1,72,NaN,car,car,bw,0072_cl_dnn_bw_car_40_n04285008_2906.png,n04285008_2906.png,1.0,8.513335,5.2649765,2.2969365
alexnet_w3_mlp_simclrhn_probe2,1,73,NaN,bird,bird,cr,0073_cl_dnn_cr_bird_40_n01818515_10517.png,n01818515_10517.png,1.0,0.40561575,-0.44405285,0.6008065
alexnet_w3_mlp_simclrhn_probe2,1,74,NaN,truck,truck,cr,0074_cl_dnn_cr_truck_40_n03796401_14203.png,n03796401_14203.png,1.0,2.564631,-1.7606232,3.0584168
alexnet_w3_mlp_simclrhn_probe2,1,75,NaN,bird,bird,bw,0075_cl_dnn_bw_bird_40_n02009229_2503.png,n02009229_2503.png,1.0,1.9442241,-1.8798956,2.704061
alexnet_w3_mlp_simclrhn_probe2,1,76,NaN,bottle,bottle,bw,0076_cl_dnn_bw_bottle_40_n02823428_6767.png,n02823428_6767.png,1.0,7.2162514,-0.97654694,5.7931833
alexnet_w3_mlp_simclrhn_probe2,1,77,NaN,bicycle,bicycle,bw,0077_cl_dnn_bw_bicycle_40_n02835271_12847.png,n02835271_12847.png,1.0,9.424827,-2.7606182,8.616411
alexnet_w3_mlp_simclrhn_probe2,1,78,NaN,bicycle,bicycle,cr,0078_cl_dnn_cr_bicycle_40_n02835271_24104.png,n02835271_24104.png,1.0,16.69075,-1.6258818,12.951815
alexnet_w3_mlp_simclrhn_probe2,1,79,NaN,clock,clock,cr,0079_cl_dnn_cr_clock_40_n04548280_77.png,n04548280_77.png,1.0,3.536773,-0.13629688,2.5972526
alexnet_w3_mlp_simclrhn_probe2,1,80,NaN,cat,cat,bw,0080_cl_dnn_bw_cat_40_n02123394_6698.png,n02123394_6698.png,1.0,4.822691,-1.4555464,4.4393845
alexnet_w3_mlp_simclrhn_probe2,1,81,NaN,keyboard,keyboard,cr,0081_cl_dnn_cr_keyboard_40_n04505470_4356.png,n04505470_4356.png,1.0,14.206548,1.025107,9.320686
alexnet_w3_mlp_simclrhn_probe2,1,82,NaN,chair,chair,cr,0082_cl_dnn_cr_chair_40_n04429376_16325.png,n04429376_16325.png,1.0,0.63359344,0.54747313,0.060896255
alexnet_w3_mlp_simclrhn_probe2,1,83,NaN,elephant,elephant,bw,0083_cl_dnn_bw_elephant_40_n02504458_6721.png,n02504458_6721.png,1.0,1.0537527,-0.009243071,0.75165147
alexnet_w3_mlp_simclrhn_probe2,1,84,NaN,truck,truck,cr,0084_cl_dnn_cr_truck_40_n03417042_6213.png,n03417042_6213.png,1.0,12.184668,3.517349,6.12872
alexnet_w3_mlp_simclrhn_probe2,1,85,NaN,cat,dog,bw,0085_cl_dnn_bw_dog_40_n02097130_8277.png,n02097130_8277.png,0.0,-0.3342626,-0.27568263,-0.041422304
alexnet_w3_mlp_simclrhn_probe2,1,86,NaN,knife,bottle,cr,0086_cl_dnn_cr_bottle_40_n04557648_1856.png,n04557648_1856.png,0.0,-1.3180192,0.781927,-1.484886
alexnet_w3_mlp_simclrhn_probe2,1,87,NaN,bird,bird,bw,0087_cl_dnn_bw_bird_40_n01531178_10905.png,n01531178_10905.png,1.0,1.837232,-3.109547,3.497901
alexnet_w3_mlp_simclrhn_probe2,1,88,NaN,bear,bear,cr,0088_cl_dnn_cr_bear_40_n02133161_2202.png,n02133161_2202.png,1.0,1.7501926,-0.14934307,1.3431746
alexnet_w3_mlp_simclrhn_probe2,1,89,NaN,elephant,elephant,cr,0089_cl_dnn_cr_elephant_40_n02504458_10439.png,n02504458_10439.png,1.0,4.5640903,-0.7113001,3.7302642
alexnet_w3_mlp_simclrhn_probe2,1,90,NaN,clock,clock,cr,0090_cl_dnn_cr_clock_40_n02708093_6766.png,n02708093_6766.png,1.0,0.22897027,-0.23672757,0.3292981
alexnet_w3_mlp_simclrhn_probe2,1,91,NaN,oven,bottle,bw,0091_cl_dnn_bw_bottle_40_n03983396_2057.png,n03983396_2057.png,0.0,0.34194326,2.1472578,-1.2765502
alexnet_w3_mlp_simclrhn_probe2,1,92,NaN,keyboard,knife,bw,0092_cl_dnn_bw_knife_40_n03041632_10000.png,n03041632_10000.png,0.0,1.248713,3.45815,-1.5623078
alexnet_w3_mlp_simclrhn_probe2,1,93,NaN,cat,cat,cr,0093_cl_dnn_cr_cat_40_n02125311_2959.png,n02125311_2959.png,1.0,5.911474,-0.46287656,4.5073466
alexnet_w3_mlp_simclrhn_probe2,1,94,NaN,car,car,bw,0094_cl_dnn_bw_car_40_n04285008_13759.png,n04285008_13759.png,1.0,10.248673,4.661075,3.9510288
alexnet_w3_mlp_simclrhn_probe2,1,95,NaN,keyboard,bottle,cr,0095_cl_dnn_cr_bottle_40_n03937543_396.png,n03937543_396.png,0.0,-1.3477786,-0.6435649,-0.49795428
alexnet_w3_mlp_simclrhn_probe2,1,96,NaN,boat,boat,bw,0096_cl_dnn_bw_boat_40_n03662601_3984.png,n03662601_3984.png,1.0,4.0724134,0.9656466,2.1968157
alexnet_w3_mlp_simclrhn_probe2,1,97,NaN,truck,truck,bw,0097_cl_dnn_bw_truck_40_n04467665_2230.png,n04467665_2230.png,1.0,3.5206256,0.87732375,1.8690968
alexnet_w3_mlp_simclrhn_probe2,1,98,NaN,boat,boat,cr,0098_cl_dnn_cr_boat_40_n03662601_28640.png,n03662601_28640.png,1.0,7.2526093,1.0600717,4.378785
alexnet_w3_mlp_simclrhn_probe2,1,99,NaN,cat,cat,cr,0099_cl_dnn_cr_cat_40_n02124075_11039.png,n02124075_11039.png,1.0,2.244195,-3.0739787,3.7605166
alexnet_w3_mlp_simclrhn_probe2,1,100,NaN,clock,knife,bw,0100_cl_dnn_bw_knife_40_n03041632_7380.png,n03041632_7380.png,0.0,0.6344857,2.1503296,-1.0718635
alexnet_w3_mlp_simclrhn_probe2,1,101,NaN,cat,cat,cr,0101_cl_dnn_cr_cat_40_n02123045_6607.png,n02123045_6607.png,1.0,12.301028,-4.0190825,11.540061
alexnet_w3_mlp_simclrhn_probe2,1,102,NaN,chair,chair,cr,0102_cl_dnn_cr_chair_40_n03376595_6704.png,n03376595_6704.png,1.0,1.1400262,0.385237,0.5337166
alexnet_w3_mlp_simclrhn_probe2,1,103,NaN,bear,bear,bw,0103_cl_dnn_bw_bear_40_n02133161_12187.png,n02133161_12187.png,1.0,6.507615,2.355222,2.9361856
alexnet_w3_mlp_simclrhn_probe2,1,104,NaN,dog,dog,cr,0104_cl_dnn_cr_dog_40_n02110958_2363.png,n02110958_2363.png,1.0,0.6287403,0.46968374,0.112469986
alexnet_w3_mlp_simclrhn_probe2,1,105,NaN,airplane,airplane,cr,0105_cl_dnn_cr_airplane_40_n02690373_19438.png,n02690373_19438.png,1.0,8.748348,-2.037581,7.6268034
alexnet_w3_mlp_simclrhn_probe2,1,106,NaN,bird,bird,cr,0106_cl_dnn_cr_bird_40_n01855032_5511.png,n01855032_5511.png,1.0,1.2191062,-3.0333593,3.006947
alexnet_w3_mlp_simclrhn_probe2,1,107,NaN,boat,boat,bw,0107_cl_dnn_bw_boat_40_n04273569_9821.png,n04273569_9821.png,1.0,9.835786,0.60654116,6.526061
alexnet_w3_mlp_simclrhn_probe2,1,108,NaN,elephant,bear,bw,0108_cl_dnn_bw_bear_40_n02133161_13461.png,n02133161_13461.png,0.0,-1.394952,-0.60964537,-0.5552957
alexnet_w3_mlp_simclrhn_probe2,1,109,NaN,knife,dog,cr,0109_cl_dnn_cr_dog_40_n02113023_8552.png,n02113023_8552.png,0.0,-2.508995,-0.2577708,-1.591856
alexnet_w3_mlp_simclrhn_probe2,1,110,NaN,elephant,elephant,cr,0110_cl_dnn_cr_elephant_40_n02504458_1600.png,n02504458_1600.png,1.0,12.146421,0.64444125,8.133128
alexnet_w3_mlp_simclrhn_probe2,1,111,NaN,chair,chair,cr,0111_cl_dnn_cr_chair_40_n04099969_4205.png,n04099969_4205.png,1.0,4.0806646,0.2540868,2.7057993
alexnet_w3_mlp_simclrhn_probe2,1,112,NaN,dog,dog,bw,0112_cl_dnn_bw_dog_40_n02105505_2121.png,n02105505_2121.png,1.0,1.8876514,-4.5923233,4.582034
alexnet_w3_mlp_simclrhn_probe2,1,113,NaN,chair,chair,cr,0113_cl_dnn_cr_chair_40_n02791124_4528.png,n02791124_4528.png,1.0,2.9315786,0.87800336,1.452097
alexnet_w3_mlp_simclrhn_probe2,1,114,NaN,truck,truck,bw,0114_cl_dnn_bw_truck_40_n03417042_5659.png,n03417042_5659.png,1.0,1.9292865,1.6797472,0.17645091
alexnet_w3_mlp_simclrhn_probe2,1,115,NaN,elephant,elephant,cr,0115_cl_dnn_cr_elephant_40_n02504013_10330.png,n02504013_10330.png,1.0,16.342827,1.8961172,10.215366
alexnet_w3_mlp_simclrhn_probe2,1,116,NaN,cat,cat,cr,0116_cl_dnn_cr_cat_40_n02123394_1594.png,n02123394_1594.png,1.0,3.2305233,-0.9172519,2.93292
alexnet_w3_mlp_simclrhn_probe2,1,117,NaN,bicycle,bear,bw,0117_cl_dnn_bw_bear_40_n02132136_10654.png,n02132136_10654.png,0.0,-1.6480509,0.5127089,-1.5278881
alexnet_w3_mlp_simclrhn_probe2,1,118,NaN,bottle,bottle,bw,0118_cl_dnn_bw_bottle_40_n02823428_5265.png,n02823428_5265.png,1.0,5.330285,-0.31484425,3.9917092
alexnet_w3_mlp_simclrhn_probe2,1,119,NaN,airplane,truck,cr,0119_cl_dnn_cr_truck_40_n04467665_3125.png,n04467665_3125.png,0.0,0.22107676,1.6595058,-1.017123
alexnet_w3_mlp_simclrhn_probe2,1,120,NaN,airplane,airplane,cr,0120_cl_dnn_cr_airplane_40_n02690373_60.png,n02690373_60.png,1.0,12.815243,2.1435094,7.5460553
alexnet_w3_mlp_simclrhn_probe2,1,121,NaN,keyboard,keyboard,cr,0121_cl_dnn_cr_keyboard_40_n03085013_21645.png,n03085013_21645.png,1.0,0.8565459,0.65047115,0.14571688
alexnet_w3_mlp_simclrhn_probe2,1,122,NaN,car,car,bw,0122_cl_dnn_bw_car_40_n03100240_9471.png,n03100240_9471.png,1.0,1.2999599,1.1717714,0.09064295
alexnet_w3_mlp_simclrhn_probe2,1,123,NaN,boat,boat,cr,0123_cl_dnn_cr_boat_40_n03344393_9818.png,n03344393_9818.png,1.0,7.080654,4.446469,1.8626503
alexnet_w3_mlp_simclrhn_probe2,1,124,NaN,elephant,elephant,bw,0124_cl_dnn_bw_elephant_40_n02504458_5444.png,n02504458_5444.png,1.0,6.568822,0.49725038,4.293249
alexnet_w3_mlp_simclrhn_probe2,1,125,NaN,bottle,bottle,bw,0125_cl_dnn_bw_bottle_40_n04557648_26823.png,n04557648_26823.png,1.0,6.017284,-3.1985502,6.5165787
alexnet_w3_mlp_simclrhn_probe2,1,126,NaN,elephant,bottle,cr,0126_cl_dnn_cr_bottle_40_n02823428_765.png,n02823428_765.png,0.0,-2.2054617,-0.6526922,-1.097974
alexnet_w3_mlp_simclrhn_probe2,1,127,NaN,cat,cat,bw,0127_cl_dnn_bw_cat_40_n02123045_1787.png,n02123045_1787.png,1.0,6.3996406,-1.601682,5.6577897
alexnet_w3_mlp_simclrhn_probe2,1,128,NaN,car,car,bw,0128_cl_dnn_bw_car_40_n02814533_35863.png,n02814533_35863.png,1.0,5.946491,5.4858427,0.32572737
alexnet_w3_mlp_simclrhn_probe2,1,129,NaN,boat,boat,bw,0129_cl_dnn_bw_boat_40_n02951358_7944.png,n02951358_7944.png,1.0,-1.4940853,-1.826486,0.23504278
alexnet_w3_mlp_simclrhn_probe2,1,130,NaN,dog,dog,bw,0130_cl_dnn_bw_dog_40_n02091467_3727.png,n02091467_3727.png,1.0,2.378555,-0.56267375,2.079763
alexnet_w3_mlp_simclrhn_probe2,1,131,NaN,bicycle,bicycle,cr,0131_cl_dnn_cr_bicycle_40_n02835271_5886.png,n02835271_5886.png,1.0,0.5611854,-0.88735497,1.0242728
alexnet_w3_mlp_simclrhn_probe2,1,132,NaN,truck,truck,bw,0132_cl_dnn_bw_truck_40_n04467665_18234.png,n04467665_18234.png,1.0,7.2412214,2.8986847,3.0706375
alexnet_w3_mlp_simclrhn_probe2,1,133,NaN,elephant,elephant,cr,0133_cl_dnn_cr_elephant_40_n02504013_4892.png,n02504013_4892.png,1.0,14.215279,3.7548528,7.3966384
alexnet_w3_mlp_simclrhn_probe2,1,134,NaN,keyboard,keyboard,cr,0134_cl_dnn_cr_keyboard_40_n03085013_19618.png,n03085013_19618.png,1.0,11.323566,2.6706636,6.118526
alexnet_w3_mlp_simclrhn_probe2,1,135,NaN,clock,clock,cr,0135_cl_dnn_cr_clock_40_n03196217_3430.png,n03196217_3430.png,1.0,1.9401002,1.3667033,0.40545285
alexnet_w3_mlp_simclrhn_probe2,1,136,NaN,bicycle,bicycle,bw,0136_cl_dnn_bw_bicycle_40_n03792782_24591.png,n03792782_24591.png,1.0,13.246895,0.10613835,9.291918
alexnet_w3_mlp_simclrhn_probe2,1,137,NaN,oven,bird,cr,0137_cl_dnn_cr_bird_40_n02007558_2822.png,n02007558_2822.png,0.0,-2.8297472,-0.368079,-1.7406623
alexnet_w3_mlp_simclrhn_probe2,1,138,NaN,truck,truck,bw,0138_cl_dnn_bw_truck_40_n04467665_71126.png,n04467665_71126.png,1.0,10.1233225,4.5321755,3.953538
alexnet_w3_mlp_simclrhn_probe2,1,139,NaN,bicycle,bicycle,cr,0139_cl_dnn_cr_bicycle_40_n02835271_22263.png,n02835271_22263.png,1.0,12.24692,0.452501,8.339913
alexnet_w3_mlp_simclrhn_probe2,1,140,NaN,truck,car,bw,0140_cl_dnn_bw_car_40_n04285008_5548.png,n04285008_5548.png,0.0,5.4158883,5.74413,-0.23210202
alexnet_w3_mlp_simclrhn_probe2,1,141,NaN,oven,oven,bw,0141_cl_dnn_bw_oven_40_n04111531_13006.png,n04111531_13006.png,1.0,2.9777803,1.3741872,1.1339116
alexnet_w3_mlp_simclrhn_probe2,1,142,NaN,car,car,bw,0142_cl_dnn_bw_car_40_n04285008_11410.png,n04285008_11410.png,1.0,6.3612347,1.4542253,3.4697795
alexnet_w3_mlp_simclrhn_probe2,1,143,NaN,oven,chair,bw,0143_cl_dnn_bw_chair_40_n04429376_2304.png,n04429376_2304.png,0.0,0.16806614,4.869972,-3.3247497
alexnet_w3_mlp_simclrhn_probe2,1,144,NaN,boat,boat,cr,0144_cl_dnn_cr_boat_40_n03662601_27165.png,n03662601_27165.png,1.0,9.732009,3.6604404,4.293247
alexnet_w3_mlp_simclrhn_probe2,1,145,NaN,truck,truck,bw,0145_cl_dnn_bw_truck_40_n04467665_70308.png,n04467665_70308.png,1.0,1.9030347,-0.049396556,1.3805773
alexnet_w3_mlp_simclrhn_probe2,1,146,NaN,bicycle,bicycle,cr,0146_cl_dnn_cr_bicycle_40_n03792782_51414.png,n03792782_51414.png,1.0,4.492117,-0.11515677,3.2578344
alexnet_w3_mlp_simclrhn_probe2,1,147,NaN,knife,knife,cr,0147_cl_dnn_cr_knife_40_n03041632_44738.png,n03041632_44738.png,1.0,2.945777,0.18073893,1.9551772
alexnet_w3_mlp_simclrhn_probe2,1,148,NaN,elephant,elephant,bw,0148_cl_dnn_bw_elephant_40_n02504458_11363.png,n02504458_11363.png,1.0,7.9479313,-0.72741276,6.134395
alexnet_w3_mlp_simclrhn_probe2,1,149,NaN,truck,truck,cr,0149_cl_dnn_cr_truck_40_n04467665_4899.png,n04467665_4899.png,1.0,6.556256,2.3132803,3.0002365
alexnet_w3_mlp_simclrhn_probe2,1,150,NaN,bear,bear,cr,0150_cl_dnn_cr_bear_40_n02134418_685.png,n02134418_685.png,1.0,0.6672709,0.15804367,0.36007804
alexnet_w3_mlp_simclrhn_probe2,1,151,NaN,keyboard,keyboard,bw,0151_cl_dnn_bw_keyboard_40_n04505470_4363.png,n04505470_4363.png,1.0,5.7357264,0.08482467,3.995791
alexnet_w3_mlp_simclrhn_probe2,1,152,NaN,oven,oven,bw,0152_cl_dnn_bw_oven_40_n04111531_12468.png,n04111531_12468.png,1.0,6.581407,0.6151682,4.218768
alexnet_w3_mlp_simclrhn_probe2,1,153,NaN,oven,bottle,cr,0153_cl_dnn_cr_bottle_40_n04591713_5559.png,n04591713_5559.png,0.0,-1.9388895,0.08876553,-1.4337687
alexnet_w3_mlp_simclrhn_probe2,1,154,NaN,bicycle,elephant,cr,0154_cl_dnn_cr_elephant_40_n02504013_3197.png,n02504013_3197.png,0.0,1.0925021,1.5086373,-0.294252
alexnet_w3_mlp_simclrhn_probe2,1,155,NaN,oven,bird,bw,0155_cl_dnn_bw_bird_40_n01817953_5039.png,n01817953_5039.png,0.0,-1.3888528,-0.013190955,-0.9727398
alexnet_w3_mlp_simclrhn_probe2,1,156,NaN,bicycle,bicycle,cr,0156_cl_dnn_cr_bicycle_40_n03792782_3296.png,n03792782_3296.png,1.0,10.091009,-0.80408174,7.703993
alexnet_w3_mlp_simclrhn_probe2,1,157,NaN,oven,bird,cr,0157_cl_dnn_cr_bird_40_n01855672_5670.png,n01855672_5670.png,0.0,-4.2964063,-1.9775847,-1.6396544
alexnet_w3_mlp_simclrhn_probe2,1,158,NaN,oven,oven,cr,0158_cl_dnn_cr_oven_40_n04111531_2260.png,n04111531_2260.png,1.0,9.217625,0.70426476,6.0198545
alexnet_w3_mlp_simclrhn_probe2,1,159,NaN,cat,cat,cr,0159_cl_dnn_cr_cat_40_n02123045_5932.png,n02123045_5932.png,1.0,-0.3397318,-2.1499949,1.2800493
alexnet_w3_mlp_simclrhn_probe2,1,160,NaN,dog,dog,cr,0160_cl_dnn_cr_dog_40_n02100583_1267.png,n02100583_1267.png,1.0,-0.085519806,-3.344553,2.3044846
alexnet_w3_mlp_simclrhn_probe2,1,161,NaN,dog,dog,bw,0161_cl_dnn_bw_dog_40_n02099601_8005.png,n02099601_8005.png,1.0,2.7007399,0.21966493,1.7543849
alexnet_w3_mlp_simclrhn_probe2,1,162,NaN,bicycle,boat,cr,0162_cl_dnn_cr_boat_40_n02951358_12080.png,n02951358_12080.png,0.0,-2.7842934,-0.71571124,-1.4627085
alexnet_w3_mlp_simclrhn_probe2,1,163,NaN,oven,oven,cr,0163_cl_dnn_cr_oven_40_n04111531_20028.png,n04111531_20028.png,1.0,8.287428,-2.231154,7.4377604
alexnet_w3_mlp_simclrhn_probe2,1,164,NaN,cat,cat,bw,0164_cl_dnn_bw_cat_40_n02123159_2107.png,n02123159_2107.png,1.0,6.936569,-2.979885,7.011992
alexnet_w3_mlp_simclrhn_probe2,1,165,NaN,bear,bear,cr,0165_cl_dnn_cr_bear_40_n02134418_1351.png,n02134418_1351.png,1.0,4.6638966,1.0589379,2.5490906
alexnet_w3_mlp_simclrhn_probe2,1,166,NaN,oven,oven,cr,0166_cl_dnn_cr_oven_40_n04111531_6609.png,n04111531_6609.png,1.0,3.7503524,0.8773624,2.0315108
alexnet_w3_mlp_simclrhn_probe2,1,167,NaN,airplane,knife,bw,0167_cl_dnn_bw_knife_40_n03041632_21477.png,n03041632_21477.png,0.0,0.8911708,1.0484923,-0.111243114
alexnet_w3_mlp_simclrhn_probe2,1,168,NaN,cat,cat,cr,0168_cl_dnn_cr_cat_40_n02123394_238.png,n02123394_238.png,1.0,2.2108188,-0.44356224,1.8769308
alexnet_w3_mlp_simclrhn_probe2,1,169,NaN,elephant,elephant,cr,0169_cl_dnn_cr_elephant_40_n02504013_3141.png,n02504013_3141.png,1.0,1.1810813,0.08592218,0.7743944
alexnet_w3_mlp_simclrhn_probe2,1,170,NaN,elephant,elephant,cr,0170_cl_dnn_cr_elephant_40_n02504013_5035.png,n02504013_5035.png,1.0,6.7593083,-1.5886288,5.9028826
alexnet_w3_mlp_simclrhn_probe2,1,171,NaN,dog,dog,cr,0171_cl_dnn_cr_dog_40_n02089867_2298.png,n02089867_2298.png,1.0,3.8247697,-2.8142185,4.6944737
alexnet_w3_mlp_simclrhn_probe2,1,172,NaN,chair,bear,bw,0172_cl_dnn_bw_bear_40_n02134418_2503.png,n02134418_2503.png,0.0,-1.5120937,-0.38053888,-0.8001301
alexnet_w3_mlp_simclrhn_probe2,1,173,NaN,keyboard,keyboard,cr,0173_cl_dnn_cr_keyboard_40_n04505470_4878.png,n04505470_4878.png,1.0,1.3532957,-1.7002546,2.1591861
alexnet_w3_mlp_simclrhn_probe2,1,174,NaN,knife,knife,bw,0174_cl_dnn_bw_knife_40_n03041632_22734.png,n03041632_22734.png,1.0,-1.2656984,-1.6681787,0.2845965
alexnet_w3_mlp_simclrhn_probe2,1,175,NaN,bear,bear,cr,0175_cl_dnn_cr_bear_40_n02132136_8896.png,n02132136_8896.png,1.0,2.394068,1.0132324,0.9763983
alexnet_w3_mlp_simclrhn_probe2,1,176,NaN,bicycle,boat,bw,0176_cl_dnn_bw_boat_40_n02951358_5952.png,n02951358_5952.png,0.0,0.9584943,2.2307446,-0.89961684
alexnet_w3_mlp_simclrhn_probe2,1,177,NaN,keyboard,chair,bw,0177_cl_dnn_bw_chair_40_n04099969_1775.png,n04099969_1775.png,0.0,-1.0966127,0.7598078,-1.3126875
alexnet_w3_mlp_simclrhn_probe2,1,178,NaN,airplane,airplane,bw,0178_cl_dnn_bw_airplane_40_n02690373_6524.png,n02690373_6524.png,1.0,4.0289545,2.778442,0.88424593
alexnet_w3_mlp_simclrhn_probe2,1,179,NaN,bird,bear,cr,0179_cl_dnn_cr_bear_40_n02133161_1916.png,n02133161_1916.png,0.0,-1.1460005,0.78592986,-1.366081
alexnet_w3_mlp_simclrhn_probe2,1,180,NaN,keyboard,knife,bw,0180_cl_dnn_bw_knife_40_n03041632_96714.png,n03041632_96714.png,0.0,0.6594204,2.9908032,-1.6485366
alexnet_w3_mlp_simclrhn_probe2,1,181,NaN,truck,truck,bw,0181_cl_dnn_bw_truck_40_n03417042_13635.png,n03417042_13635.png,1.0,7.505492,3.0985138,3.1162045
alexnet_w3_mlp_simclrhn_probe2,1,182,NaN,boat,boat,bw,0182_cl_dnn_bw_boat_40_n04612504_1748.png,n04612504_1748.png,1.0,4.9863033,1.5925548,2.3997426
alexnet_w3_mlp_simclrhn_probe2,1,183,NaN,bird,bird,cr,0183_cl_dnn_cr_bird_40_n01592084_3341.png,n01592084_3341.png,1.0,5.190363,-4.0589905,6.540281
alexnet_w3_mlp_simclrhn_probe2,1,184,NaN,car,car,bw,0184_cl_dnn_bw_car_40_n02814533_12388.png,n02814533_12388.png,1.0,9.108704,2.4804726,4.686867
alexnet_w3_mlp_simclrhn_probe2,1,185,NaN,bicycle,bicycle,cr,0185_cl_dnn_cr_bicycle_40_n03792782_5864.png,n03792782_5864.png,1.0,9.355619,-1.8355482,7.9133506
alexnet_w3_mlp_simclrhn_probe2,1,186,NaN,elephant,bird,bw,0186_cl_dnn_bw_bird_40_n01514859_17156.png,n01514859_17156.png,0.0,-3.9229035,0.11337638,-2.8540807
alexnet_w3_mlp_simclrhn_probe2,1,187,NaN,car,car,cr,0187_cl_dnn_cr_car_40_n03100240_7737.png,n03100240_7737.png,1.0,5.959166,1.4194629,3.210055
alexnet_w3_mlp_simclrhn_probe2,1,188,NaN,bottle,bottle,bw,0188_cl_dnn_bw_bottle_40_n04579145_1829.png,n04579145_1829.png,1.0,-0.29887453,-1.177138,0.62102604
alexnet_w3_mlp_simclrhn_probe2,1,189,NaN,bear,elephant,bw,0189_cl_dnn_bw_elephant_40_n02504013_22388.png,n02504013_22388.png,0.0,0.91819406,2.3672678,-1.02465
alexnet_w3_mlp_simclrhn_probe2,1,190,NaN,airplane,airplane,bw,0190_cl_dnn_bw_airplane_40_n02690373_7107.png,n02690373_7107.png,1.0,5.486918,1.1567774,3.0618718
alexnet_w3_mlp_simclrhn_probe2,1,191,NaN,car,car,bw,0191_cl_dnn_bw_car_40_n02814533_45594.png,n02814533_45594.png,1.0,10.106731,8.17465,1.3661878
alexnet_w3_mlp_simclrhn_probe2,1,192,NaN,boat,boat,cr,0192_cl_dnn_cr_boat_40_n04612504_18536.png,n04612504_18536.png,1.0,3.4575768,0.99195194,1.74346
alexnet_w3_mlp_simclrhn_probe2,1,193,NaN,elephant,dog,cr,0193_cl_dnn_cr_dog_40_n02088466_6371.png,n02088466_6371.png,0.0,-0.81059897,2.1456423,-2.0903783
alexnet_w3_mlp_simclrhn_probe2,1,194,NaN,oven,bear,bw,0194_cl_dnn_bw_bear_40_n02133161_1003.png,n02133161_1003.png,0.0,0.07829079,0.4155694,-0.238492
alexnet_w3_mlp_simclrhn_probe2,1,195,NaN,knife,knife,bw,0195_cl_dnn_bw_knife_40_n03041632_29037.png,n03041632_29037.png,1.0,-0.028374624,-1.3166709,0.910963
alexnet_w3_mlp_simclrhn_probe2,1,196,NaN,airplane,airplane,cr,0196_cl_dnn_cr_airplane_40_n02690373_4015.png,n02690373_4015.png,1.0,1.9959965,0.96946955,0.7258642
alexnet_w3_mlp_simclrhn_probe2,1,197,NaN,knife,knife,bw,0197_cl_dnn_bw_knife_40_n03041632_28009.png,n03041632_28009.png,1.0,0.3493924,-1.850529,1.5555793
alexnet_w3_mlp_simclrhn_probe2,1,198,NaN,bird,bird,bw,0198_cl_dnn_bw_bird_40_n01560419_5714.png,n01560419_5714.png,1.0,3.4560347,-3.951277,5.23776
alexnet_w3_mlp_simclrhn_probe2,1,199,NaN,bird,cat,cr,0199_cl_dnn_cr_cat_40_n02125311_6429.png,n02125311_6429.png,0.0,-1.8669481,-0.48892903,-0.97440666
alexnet_w3_mlp_simclrhn_probe2,1,200,NaN,chair,chair,bw,0200_cl_dnn_bw_chair_40_n04099969_9847.png,n04099969_9847.png,1.0,1.5814177,-0.39995846,1.4010446
alexnet_w3_mlp_simclrhn_probe2,1,201,NaN,cat,cat,bw,0201_cl_dnn_bw_cat_40_n02123597_7142.png,n02123597_7142.png,1.0,1.7426156,0.044639472,1.2006505
alexnet_w3_mlp_simclrhn_probe2,1,202,NaN,bicycle,bicycle,cr,0202_cl_dnn_cr_bicycle_40_n02835271_8982.png,n02835271_8982.png,1.0,1.557585,0.83241594,0.51277196
alexnet_w3_mlp_simclrhn_probe2,1,203,NaN,bird,bird,bw,0203_cl_dnn_bw_bird_40_n01592084_19555.png,n01592084_19555.png,1.0,6.56082,0.7781867,4.088939
alexnet_w3_mlp_simclrhn_probe2,1,204,NaN,oven,knife,cr,0204_cl_dnn_cr_knife_40_n03041632_8618.png,n03041632_8618.png,0.0,0.38359562,1.9305736,-1.0938786
alexnet_w3_mlp_simclrhn_probe2,1,205,NaN,car,boat,bw,0205_cl_dnn_bw_boat_40_n03344393_547.png,n03344393_547.png,0.0,3.201685,3.2569542,-0.039081257
alexnet_w3_mlp_simclrhn_probe2,1,206,NaN,bird,bird,bw,0206_cl_dnn_bw_bird_40_n01843383_5962.png,n01843383_5962.png,1.0,-0.9652356,-3.4565814,1.7616476
alexnet_w3_mlp_simclrhn_probe2,1,207,NaN,keyboard,keyboard,cr,0207_cl_dnn_cr_keyboard_40_n04505470_213.png,n04505470_213.png,1.0,9.496015,1.2040281,5.86332
alexnet_w3_mlp_simclrhn_probe2,1,208,NaN,elephant,elephant,cr,0208_cl_dnn_cr_elephant_40_n02504458_2607.png,n02504458_2607.png,1.0,6.9642572,-0.58411974,5.3375087
alexnet_w3_mlp_simclrhn_probe2,1,209,NaN,bear,bear,bw,0209_cl_dnn_bw_bear_40_n02134418_4157.png,n02134418_4157.png,1.0,2.7310433,1.1963363,1.0852017
alexnet_w3_mlp_simclrhn_probe2,1,210,NaN,bottle,bottle,cr,0210_cl_dnn_cr_bottle_40_n03983396_11519.png,n03983396_11519.png,1.0,6.145183,-0.1077245,4.4214735
alexnet_w3_mlp_simclrhn_probe2,1,211,NaN,cat,cat,cr,0211_cl_dnn_cr_cat_40_n02124075_1999.png,n02124075_1999.png,1.0,5.4788,-2.2700262,5.4792476
alexnet_w3_mlp_simclrhn_probe2,1,212,NaN,cat,cat,bw,0212_cl_dnn_bw_cat_40_n02124075_11252.png,n02124075_11252.png,1.0,0.07857212,-1.9865801,1.4602832
alexnet_w3_mlp_simclrhn_probe2,1,213,NaN,airplane,airplane,bw,0213_cl_dnn_bw_airplane_40_n02690373_4195.png,n02690373_4195.png,1.0,5.741673,3.9486206,1.2678796
alexnet_w3_mlp_simclrhn_probe2,1,214,NaN,airplane,airplane,cr,0214_cl_dnn_cr_airplane_40_n02690373_2629.png,n02690373_2629.png,1.0,4.5717473,1.4176003,2.2303188
alexnet_w3_mlp_simclrhn_probe2,1,215,NaN,keyboard,keyboard,bw,0215_cl_dnn_bw_keyboard_40_n04505470_5060.png,n04505470_5060.png,1.0,3.8624485,0.25728583,2.5492349
alexnet_w3_mlp_simclrhn_probe2,1,216,NaN,bear,bear,cr,0216_cl_dnn_cr_bear_40_n02132136_10060.png,n02132136_10060.png,1.0,2.550242,0.74753726,1.2747047
alexnet_w3_mlp_simclrhn_probe2,1,217,NaN,airplane,airplane,bw,0217_cl_dnn_bw_airplane_40_n02690373_4150.png,n02690373_4150.png,1.0,7.940417,2.129551,4.108903
alexnet_w3_mlp_simclrhn_probe2,1,218,NaN,dog,dog,cr,0218_cl_dnn_cr_dog_40_n02102040_7465.png,n02102040_7465.png,1.0,2.3312874,-1.2192472,2.5106072
alexnet_w3_mlp_simclrhn_probe2,1,219,NaN,bird,bird,bw,0219_cl_dnn_bw_bird_40_n02009229_12179.png,n02009229_12179.png,1.0,1.7551751,-1.1980084,2.0882163
alexnet_w3_mlp_simclrhn_probe2,1,220,NaN,knife,knife,bw,0220_cl_dnn_bw_knife_40_n03041632_20413.png,n03041632_20413.png,1.0,2.2902346,1.6372648,0.46171933
alexnet_w3_mlp_simclrhn_probe2,1,221,NaN,truck,truck,bw,0221_cl_dnn_bw_truck_40_n03796401_13490.png,n03796401_13490.png,1.0,4.383462,-0.72751737,3.614008
alexnet_w3_mlp_simclrhn_probe2,1,222,NaN,oven,oven,cr,0222_cl_dnn_cr_oven_40_n04111531_584.png,n04111531_584.png,1.0,4.1411543,-1.146261,3.7387674
alexnet_w3_mlp_simclrhn_probe2,1,223,NaN,airplane,airplane,bw,0223_cl_dnn_bw_airplane_40_n02690373_3899.png,n02690373_3899.png,1.0,5.4894876,3.5070977,1.4017614
alexnet_w3_mlp_simclrhn_probe2,1,224,NaN,bird,bird,cr,0224_cl_dnn_cr_bird_40_n02027492_8707.png,n02027492_8707.png,1.0,3.3303711,-3.5293586,4.8505616
alexnet_w3_mlp_simclrhn_probe2,1,225,NaN,airplane,airplane,cr,0225_cl_dnn_cr_airplane_40_n02690373_2648.png,n02690373_2648.png,1.0,8.568824,2.7158222,4.138697
alexnet_w3_mlp_simclrhn_probe2,1,226,NaN,cat,cat,bw,0226_cl_dnn_bw_cat_40_n02123394_6598.png,n02123394_6598.png,1.0,2.9807475,0.07156256,2.0571043
alexnet_w3_mlp_simclrhn_probe2,1,227,NaN,bicycle,bicycle,bw,0227_cl_dnn_bw_bicycle_40_n02835271_17168.png,n02835271_17168.png,1.0,2.861129,-1.2116842,2.8799138
alexnet_w3_mlp_simclrhn_probe2,1,228,NaN,truck,truck,bw,0228_cl_dnn_bw_truck_40_n03417042_29849.png,n03417042_29849.png,1.0,6.843829,3.1724288,2.5960722
alexnet_w3_mlp_simclrhn_probe2,1,229,NaN,knife,knife,cr,0229_cl_dnn_cr_knife_40_n03041632_29125.png,n03041632_29125.png,1.0,0.22815016,-0.06496027,0.20726037
alexnet_w3_mlp_simclrhn_probe2,1,230,NaN,bottle,clock,bw,0230_cl_dnn_bw_clock_40_n04548280_5456.png,n04548280_5456.png,0.0,0.9277279,1.2642201,-0.23793595
alexnet_w3_mlp_simclrhn_probe2,1,231,NaN,truck,truck,bw,0231_cl_dnn_bw_truck_40_n03796401_8099.png,n03796401_8099.png,1.0,3.6146116,2.346708,0.8965432
alexnet_w3_mlp_simclrhn_probe2,1,232,NaN,bear,bear,cr,0232_cl_dnn_cr_bear_40_n02132136_860.png,n02132136_860.png,1.0,1.8829582,0.15706626,1.22039
alexnet_w3_mlp_simclrhn_probe2,1,233,NaN,truck,truck,bw,0233_cl_dnn_bw_truck_40_n03796401_4423.png,n03796401_4423.png,1.0,6.320348,2.4237561,2.7553065
alexnet_w3_mlp_simclrhn_probe2,1,234,NaN,elephant,elephant,bw,0234_cl_dnn_bw_elephant_40_n02504458_7871.png,n02504458_7871.png,1.0,12.620886,2.275903,7.3150077
alexnet_w3_mlp_simclrhn_probe2,1,235,NaN,oven,oven,cr,0235_cl_dnn_cr_oven_40_n04111531_14753.png,n04111531_14753.png,1.0,3.7208834,1.7802095,1.3722637
alexnet_w3_mlp_simclrhn_probe2,1,236,NaN,clock,clock,bw,0236_cl_dnn_bw_clock_40_n04548280_17198.png,n04548280_17198.png,1.0,5.1637034,1.464965,2.6154032
alexnet_w3_mlp_simclrhn_probe2,1,237,NaN,oven,oven,cr,0237_cl_dnn_cr_oven_40_n04111531_15947.png,n04111531_15947.png,1.0,7.7363667,-1.1596224,6.2904143
alexnet_w3_mlp_simclrhn_probe2,1,238,NaN,oven,elephant,bw,0238_cl_dnn_bw_elephant_40_n02504013_1103.png,n02504013_1103.png,0.0,-1.6800046,0.32607222,-1.4185106
alexnet_w3_mlp_simclrhn_probe2,1,239,NaN,bicycle,bicycle,cr,0239_cl_dnn_cr_bicycle_40_n03792782_33853.png,n03792782_33853.png,1.0,-0.3533886,-1.3948064,0.73639363
alexnet_w3_mlp_simclrhn_probe2,1,240,NaN,chair,bottle,bw,0240_cl_dnn_bw_bottle_40_n04557648_5665.png,n04557648_5665.png,0.0,-0.018443074,1.1704478,-0.84067285
alexnet_w3_mlp_simclrhn_probe2,1,241,NaN,bear,bear,bw,0241_cl_dnn_bw_bear_40_n02134418_5824.png,n02134418_5824.png,1.0,4.798652,-0.76596326,3.9347773
alexnet_w3_mlp_simclrhn_probe2,1,242,NaN,truck,truck,cr,0242_cl_dnn_cr_truck_40_n04467665_54349.png,n04467665_54349.png,1.0,8.24526,3.404587,3.422873
alexnet_w3_mlp_simclrhn_probe2,1,243,NaN,truck,truck,cr,0243_cl_dnn_cr_truck_40_n03796401_8100.png,n03796401_8100.png,1.0,9.304284,6.870665,1.7208285
alexnet_w3_mlp_simclrhn_probe2,1,244,NaN,elephant,elephant,cr,0244_cl_dnn_cr_elephant_40_n02504013_4288.png,n02504013_4288.png,1.0,11.461334,1.4475008,7.080849
alexnet_w3_mlp_simclrhn_probe2,1,245,NaN,boat,boat,cr,0245_cl_dnn_cr_boat_40_n03662601_4437.png,n03662601_4437.png,1.0,4.310195,1.8831205,1.7162008
alexnet_w3_mlp_simclrhn_probe2,1,246,NaN,bicycle,bicycle,cr,0246_cl_dnn_cr_bicycle_40_n02835271_7351.png,n02835271_7351.png,1.0,11.669786,-1.2986754,9.170088
alexnet_w3_mlp_simclrhn_probe2,1,247,NaN,elephant,elephant,bw,0247_cl_dnn_bw_elephant_40_n02504458_2556.png,n02504458_2556.png,1.0,2.5536685,0.59328085,1.3862034
alexnet_w3_mlp_simclrhn_probe2,1,248,NaN,airplane,airplane,cr,0248_cl_dnn_cr_airplane_40_n02690373_303.png,n02690373_303.png,1.0,8.492548,-0.9362769,6.6671863
alexnet_w3_mlp_simclrhn_probe2,1,249,NaN,elephant,elephant,bw,0249_cl_dnn_bw_elephant_40_n02504013_5503.png,n02504013_5503.png,1.0,6.9165983,-0.4980083,5.2429185
alexnet_w3_mlp_simclrhn_probe2,1,250,NaN,airplane,truck,cr,0250_cl_dnn_cr_truck_40_n04467665_68332.png,n04467665_68332.png,0.0,1.8010144,5.407699,-2.5503113
alexnet_w3_mlp_simclrhn_probe2,1,251,NaN,clock,clock,bw,0251_cl_dnn_bw_clock_40_n02708093_3079.png,n02708093_3079.png,1.0,3.9930685,0.016574934,2.8118057
alexnet_w3_mlp_simclrhn_probe2,1,252,NaN,cat,cat,cr,0252_cl_dnn_cr_cat_40_n02123394_2395.png,n02123394_2395.png,1.0,2.257166,-1.3502655,2.5508392
alexnet_w3_mlp_simclrhn_probe2,1,253,NaN,chair,chair,cr,0253_cl_dnn_cr_chair_40_n04429376_20906.png,n04429376_20906.png,1.0,2.5456336,1.6210289,0.6537942
alexnet_w3_mlp_simclrhn_probe2,1,254,NaN,boat,boat,cr,0254_cl_dnn_cr_boat_40_n03344393_8160.png,n03344393_8160.png,1.0,3.2589874,1.3910393,1.3208388
alexnet_w3_mlp_simclrhn_probe2,1,255,NaN,keyboard,keyboard,cr,0255_cl_dnn_cr_keyboard_40_n03085013_21325.png,n03085013_21325.png,1.0,7.1219215,1.2166718,4.175642
alexnet_w3_mlp_simclrhn_probe2,1,256,NaN,knife,knife,cr,0256_cl_dnn_cr_knife_40_n03041632_99875.png,n03041632_99875.png,1.0,2.2076335,-3.214241,3.8338444
alexnet_w3_mlp_simclrhn_probe2,1,257,NaN,knife,clock,bw,0257_cl_dnn_bw_clock_40_n04548280_7384.png,n04548280_7384.png,0.0,0.32552132,0.50932825,-0.12997113
alexnet_w3_mlp_simclrhn_probe2,1,258,NaN,keyboard,keyboard,bw,0258_cl_dnn_bw_keyboard_40_n03085013_23534.png,n03085013_23534.png,1.0,4.844246,1.1343141,2.623318
alexnet_w3_mlp_simclrhn_probe2,1,259,NaN,truck,truck,bw,0259_cl_dnn_bw_truck_40_n03417042_2383.png,n03417042_2383.png,1.0,4.540227,1.990447,1.8029667
alexnet_w3_mlp_simclrhn_probe2,1,260,NaN,clock,clock,bw,0260_cl_dnn_bw_clock_40_n03196217_711.png,n03196217_711.png,1.0,0.46033278,0.40869766,0.03651154
alexnet_w3_mlp_simclrhn_probe2,1,261,NaN,keyboard,keyboard,bw,0261_cl_dnn_bw_keyboard_40_n03085013_7992.png,n03085013_7992.png,1.0,3.6330848,0.39948225,2.2865024
alexnet_w3_mlp_simclrhn_probe2,1,262,NaN,cat,cat,bw,0262_cl_dnn_bw_cat_40_n02125311_75445.png,n02125311_75445.png,1.0,3.7360837,-1.251027,3.5264199
alexnet_w3_mlp_simclrhn_probe2,1,263,NaN,knife,knife,cr,0263_cl_dnn_cr_knife_40_n03041632_47410.png,n03041632_47410.png,1.0,0.4754309,-0.9355546,0.99771744
alexnet_w3_mlp_simclrhn_probe2,1,264,NaN,oven,oven,bw,0264_cl_dnn_bw_oven_40_n04111531_741.png,n04111531_741.png,1.0,6.168697,-1.0738615,5.121262
alexnet_w3_mlp_simclrhn_probe2,1,265,NaN,oven,oven,bw,0265_cl_dnn_bw_oven_40_n04111531_3181.png,n04111531_3181.png,1.0,-0.20896988,-1.0982845,0.6288404
alexnet_w3_mlp_simclrhn_probe2,1,266,NaN,truck,truck,bw,0266_cl_dnn_bw_truck_40_n03417042_17099.png,n03417042_17099.png,1.0,11.418404,5.2456837,4.3647723
alexnet_w3_mlp_simclrhn_probe2,1,267,NaN,boat,boat,cr,0267_cl_dnn_cr_boat_40_n03662601_15143.png,n03662601_15143.png,1.0,9.94543,4.3808455,3.9347553
alexnet_w3_mlp_simclrhn_probe2,1,268,NaN,keyboard,keyboard,bw,0268_cl_dnn_bw_keyboard_40_n03085013_19197.png,n03085013_19197.png,1.0,12.140282,4.2330213,5.5912776
alexnet_w3_mlp_simclrhn_probe2,1,269,NaN,airplane,airplane,cr,0269_cl_dnn_cr_airplane_40_n02690373_4202.png,n02690373_4202.png,1.0,11.525466,1.6242418,7.0012226
alexnet_w3_mlp_simclrhn_probe2,1,270,NaN,bear,bear,bw,0270_cl_dnn_bw_bear_40_n02132136_10134.png,n02132136_10134.png,1.0,3.7363493,-0.44968233,2.9599714
alexnet_w3_mlp_simclrhn_probe2,1,271,NaN,boat,boat,bw,0271_cl_dnn_bw_boat_40_n03344393_5296.png,n03344393_5296.png,1.0,4.839867,3.2238083,1.1427262
alexnet_w3_mlp_simclrhn_probe2,1,272,NaN,keyboard,keyboard,bw,0272_cl_dnn_bw_keyboard_40_n04505470_1600.png,n04505470_1600.png,1.0,5.236947,3.5083692,1.2222891
alexnet_w3_mlp_simclrhn_probe2,1,273,NaN,truck,truck,bw,0273_cl_dnn_bw_truck_40_n03417042_10043.png,n03417042_10043.png,1.0,8.416029,2.6172173,4.1003795
alexnet_w3_mlp_simclrhn_probe2,1,274,NaN,bird,bird,bw,0274_cl_dnn_bw_bird_40_n02007558_5525.png,n02007558_5525.png,1.0,2.6041124,-2.4614894,3.5819216
alexnet_w3_mlp_simclrhn_probe2,1,275,NaN,airplane,airplane,cr,0275_cl_dnn_cr_airplane_40_n02690373_6621.png,n02690373_6621.png,1.0,1.3614073,-0.13130799,1.0555091
alexnet_w3_mlp_simclrhn_probe2,1,276,NaN,keyboard,keyboard,bw,0276_cl_dnn_bw_keyboard_40_n04505470_6623.png,n04505470_6623.png,1.0,6.3874636,1.1269622,3.7197363
alexnet_w3_mlp_simclrhn_probe2,1,277,NaN,oven,dog,cr,0277_cl_dnn_cr_dog_40_n02113624_3403.png,n02113624_3403.png,0.0,-2.080367,-0.76027167,-0.93344843
alexnet_w3_mlp_simclrhn_probe2,1,278,NaN,dog,dog,bw,0278_cl_dnn_bw_dog_40_n02106550_12642.png,n02106550_12642.png,1.0,1.5126928,-1.6297503,2.222043
alexnet_w3_mlp_simclrhn_probe2,1,279,NaN,clock,clock,cr,0279_cl_dnn_cr_clock_40_n04548280_24041.png,n04548280_24041.png,1.0,5.36348,-0.12537856,3.8812094
alexnet_w3_mlp_simclrhn_probe2,1,280,NaN,truck,truck,bw,0280_cl_dnn_bw_truck_40_n03417042_3236.png,n03417042_3236.png,1.0,3.2069187,0.8550634,1.6630129
alexnet_w3_mlp_simclrhn_probe2,1,281,NaN,car,car,bw,0281_cl_dnn_bw_car_40_n03100240_2583.png,n03100240_2583.png,1.0,8.194759,7.704093,0.34695354
alexnet_w3_mlp_simclrhn_probe2,1,282,NaN,knife,knife,cr,0282_cl_dnn_cr_knife_40_n03041632_45090.png,n03041632_45090.png,1.0,2.636186,-0.38945162,2.139449
alexnet_w3_mlp_simclrhn_probe2,1,283,NaN,cat,cat,cr,0283_cl_dnn_cr_cat_40_n02123597_660.png,n02123597_660.png,1.0,1.6014148,-0.47107556,1.4654721
alexnet_w3_mlp_simclrhn_probe2,1,284,NaN,clock,clock,bw,0284_cl_dnn_bw_clock_40_n04548280_7813.png,n04548280_7813.png,1.0,1.4728504,0.3491093,0.794605
alexnet_w3_mlp_simclrhn_probe2,1,285,NaN,dog,dog,bw,0285_cl_dnn_bw_dog_40_n02111129_797.png,n02111129_797.png,1.0,4.1726017,-2.1220355,4.4509807
alexnet_w3_mlp_simclrhn_probe2,1,286,NaN,knife,knife,cr,0286_cl_dnn_cr_knife_40_n03041632_3717.png,n03041632_3717.png,1.0,3.8733258,-0.28618374,2.9412174
alexnet_w3_mlp_simclrhn_probe2,1,287,NaN,boat,boat,bw,0287_cl_dnn_bw_boat_40_n04273569_870.png,n04273569_870.png,1.0,3.784282,-0.38052595,2.944964
alexnet_w3_mlp_simclrhn_probe2,1,288,NaN,elephant,elephant,bw,0288_cl_dnn_bw_elephant_40_n02504013_720.png,n02504013_720.png,1.0,16.261703,4.9330506,8.010568
alexnet_w3_mlp_simclrhn_probe2,1,289,NaN,oven,oven,cr,0289_cl_dnn_cr_oven_40_n04111531_14876.png,n04111531_14876.png,1.0,4.60593,-0.2400012,3.4265907
alexnet_w3_mlp_simclrhn_probe2,1,290,NaN,cat,cat,bw,0290_cl_dnn_bw_cat_40_n02123045_569.png,n02123045_569.png,1.0,1.9541907,-0.5136297,1.7450125
alexnet_w3_mlp_simclrhn_probe2,1,291,NaN,keyboard,clock,bw,0291_cl_dnn_bw_clock_40_n03196217_5888.png,n03196217_5888.png,0.0,1.3457252,1.7254004,-0.26847097
alexnet_w3_mlp_simclrhn_probe2,1,292,NaN,keyboard,keyboard,cr,0292_cl_dnn_cr_keyboard_40_n04505470_4770.png,n04505470_4770.png,1.0,10.856242,2.071988,6.2114058
alexnet_w3_mlp_simclrhn_probe2,1,293,NaN,oven,knife,cr,0293_cl_dnn_cr_knife_40_n03041632_32292.png,n03041632_32292.png,0.0,-1.0367038,0.33104932,-0.9671475
alexnet_w3_mlp_simclrhn_probe2,1,294,NaN,elephant,elephant,cr,0294_cl_dnn_cr_elephant_40_n02504013_6672.png,n02504013_6672.png,1.0,2.834743,1.3043237,1.0821699
alexnet_w3_mlp_simclrhn_probe2,1,295,NaN,airplane,airplane,bw,0295_cl_dnn_bw_airplane_40_n02690373_5838.png,n02690373_5838.png,1.0,7.7733784,1.8694776,4.1746883
alexnet_w3_mlp_simclrhn_probe2,1,296,NaN,bird,bird,cr,0296_cl_dnn_cr_bird_40_n01796340_5508.png,n01796340_5508.png,1.0,1.7901739,-2.5254054,3.0515754
alexnet_w3_mlp_simclrhn_probe2,1,297,NaN,oven,clock,bw,0297_cl_dnn_bw_clock_40_n03196217_6477.png,n03196217_6477.png,0.0,1.2614473,3.3346128,-1.4659493
alexnet_w3_mlp_simclrhn_probe2,1,298,NaN,bird,bird,bw,0298_cl_dnn_bw_bird_40_n02011460_5075.png,n02011460_5075.png,1.0,1.3750708,-3.9572513,3.7705212
alexnet_w3_mlp_simclrhn_probe2,1,299,NaN,boat,boat,bw,0299_cl_dnn_bw_boat_40_n03344393_10284.png,n03344393_10284.png,1.0,6.23265,3.2075114,2.1390958
alexnet_w3_mlp_simclrhn_probe2,1,300,NaN,oven,oven,bw,0300_cl_dnn_bw_oven_40_n04111531_14559.png,n04111531_14559.png,1.0,4.086528,1.3998314,1.8997813
alexnet_w3_mlp_simclrhn_probe2,1,301,NaN,knife,knife,cr,0301_cl_dnn_cr_knife_40_n03041632_24060.png,n03041632_24060.png,1.0,0.68235797,-0.22977981,0.6449788
alexnet_w3_mlp_simclrhn_probe2,1,302,NaN,airplane,airplane,bw,0302_cl_dnn_bw_airplane_40_n02690373_4134.png,n02690373_4134.png,1.0,9.111372,-0.4655307,6.7718925
alexnet_w3_mlp_simclrhn_probe2,1,303,NaN,cat,bear,cr,0303_cl_dnn_cr_bear_40_n02134084_6669.png,n02134084_6669.png,0.0,-0.51244473,-0.18188252,-0.2337428
alexnet_w3_mlp_simclrhn_probe2,1,304,NaN,bird,bird,cr,0304_cl_dnn_cr_bird_40_n01558993_5744.png,n01558993_5744.png,1.0,3.058386,-4.4801345,5.330539
alexnet_w3_mlp_simclrhn_probe2,1,305,NaN,oven,bird,bw,0305_cl_dnn_bw_bird_40_n01818515_10536.png,n01818515_10536.png,0.0,-5.5362997,-0.23219973,-3.750565
alexnet_w3_mlp_simclrhn_probe2,1,306,NaN,bicycle,bottle,bw,0306_cl_dnn_bw_bottle_40_n04557648_20614.png,n04557648_20614.png,0.0,-4.3980246,4.095624,-6.0059166
alexnet_w3_mlp_simclrhn_probe2,1,307,NaN,clock,clock,cr,0307_cl_dnn_cr_clock_40_n04548280_3605.png,n04548280_3605.png,1.0,4.325199,0.0010381426,3.0576437
alexnet_w3_mlp_simclrhn_probe2,1,308,NaN,truck,truck,bw,0308_cl_dnn_bw_truck_40_n03796401_27288.png,n03796401_27288.png,1.0,6.51402,3.48295,2.1432903
alexnet_w3_mlp_simclrhn_probe2,1,309,NaN,bicycle,bicycle,cr,0309_cl_dnn_cr_bicycle_40_n02835271_18276.png,n02835271_18276.png,1.0,5.713484,1.5499284,2.9440782
alexnet_w3_mlp_simclrhn_probe2,1,310,NaN,bear,bear,cr,0310_cl_dnn_cr_bear_40_n02133161_12152.png,n02133161_12152.png,1.0,0.012946457,-0.8740488,0.6272004
alexnet_w3_mlp_simclrhn_probe2,1,311,NaN,elephant,elephant,cr,0311_cl_dnn_cr_elephant_40_n02504013_14918.png,n02504013_14918.png,1.0,11.804405,2.574325,6.526652
alexnet_w3_mlp_simclrhn_probe2,1,312,NaN,bicycle,bicycle,bw,0312_cl_dnn_bw_bicycle_40_n03792782_5323.png,n03792782_5323.png,1.0,9.584158,-3.4864879,9.242343
alexnet_w3_mlp_simclrhn_probe2,1,313,NaN,bicycle,truck,cr,0313_cl_dnn_cr_truck_40_n04467665_37066.png,n04467665_37066.png,0.0,0.09480411,2.114747,-1.4283154
alexnet_w3_mlp_simclrhn_probe2,1,314,NaN,bird,bird,bw,0314_cl_dnn_bw_bird_40_n02025239_2481.png,n02025239_2481.png,1.0,3.5444498,-5.0940447,6.1083384
alexnet_w3_mlp_simclrhn_probe2,1,315,NaN,bicycle,bicycle,bw,0315_cl_dnn_bw_bicycle_40_n02835271_5113.png,n02835271_5113.png,1.0,6.6962442,-2.848718,6.7493076
alexnet_w3_mlp_simclrhn_probe2,1,316,NaN,elephant,elephant,cr,0316_cl_dnn_cr_elephant_40_n02504458_6185.png,n02504458_6185.png,1.0,5.988765,-0.3115507,4.4549956
alexnet_w3_mlp_simclrhn_probe2,1,317,NaN,oven,knife,cr,0317_cl_dnn_cr_knife_40_n03041632_11475.png,n03041632_11475.png,0.0,-1.5479218,2.68753,-2.9949167
alexnet_w3_mlp_simclrhn_probe2,1,318,NaN,cat,cat,bw,0318_cl_dnn_bw_cat_40_n02125311_31318.png,n02125311_31318.png,1.0,5.1602554,-1.1879321,4.4888463
alexnet_w3_mlp_simclrhn_probe2,1,319,NaN,clock,clock,bw,0319_cl_dnn_bw_clock_40_n04548280_8585.png,n04548280_8585.png,1.0,0.68723243,-0.04941994,0.5208919
alexnet_w3_mlp_simclrhn_probe2,1,320,NaN,bear,bear,bw,0320_cl_dnn_bw_bear_40_n02134418_12628.png,n02134418_12628.png,1.0,4.854163,0.050647736,3.3965983
alexnet_w3_mlp_simclrhn_probe2,1,321,NaN,chair,chair,bw,0321_cl_dnn_bw_chair_40_n03376595_17859.png,n03376595_17859.png,1.0,1.9195132,0.18223116,1.228444
alexnet_w3_mlp_simclrhn_probe2,1,322,NaN,knife,knife,cr,0322_cl_dnn_cr_knife_40_n03041632_379.png,n03041632_379.png,1.0,0.3059345,-1.7826816,1.4768747
alexnet_w3_mlp_simclrhn_probe2,1,323,NaN,oven,bottle,bw,0323_cl_dnn_bw_bottle_40_n04557648_1293.png,n04557648_1293.png,0.0,0.49718994,1.2517933,-0.53358513
alexnet_w3_mlp_simclrhn_probe2,1,324,NaN,boat,boat,cr,0324_cl_dnn_cr_boat_40_n03662601_26298.png,n03662601_26298.png,1.0,14.840889,6.2556305,6.0706944
alexnet_w3_mlp_simclrhn_probe2,1,325,NaN,oven,oven,bw,0325_cl_dnn_bw_oven_40_n04111531_6120.png,n04111531_6120.png,1.0,6.6830273,-0.47541165,5.0617805
alexnet_w3_mlp_simclrhn_probe2,1,326,NaN,car,car,bw,0326_cl_dnn_bw_car_40_n02814533_92940.png,n02814533_92940.png,1.0,8.037276,3.9049542,2.9219933
alexnet_w3_mlp_simclrhn_probe2,1,327,NaN,chair,chair,cr,0327_cl_dnn_cr_chair_40_n02791124_392.png,n02791124_392.png,1.0,2.1100163,1.457448,0.4614355
alexnet_w3_mlp_simclrhn_probe2,1,328,NaN,clock,clock,bw,0328_cl_dnn_bw_clock_40_n04548280_3330.png,n04548280_3330.png,1.0,3.0122793,-0.4986431,2.482597
alexnet_w3_mlp_simclrhn_probe2,1,329,NaN,truck,car,cr,0329_cl_dnn_cr_car_40_n02814533_83614.png,n02814533_83614.png,0.0,7.490481,8.444386,-0.67451245
alexnet_w3_mlp_simclrhn_probe2,1,330,NaN,bear,bear,cr,0330_cl_dnn_cr_bear_40_n02134418_3846.png,n02134418_3846.png,1.0,5.13785,1.7128208,2.4218614
alexnet_w3_mlp_simclrhn_probe2,1,331,NaN,elephant,elephant,cr,0331_cl_dnn_cr_elephant_40_n02504013_811.png,n02504013_811.png,1.0,1.0878088,-0.029778749,0.79025376
alexnet_w3_mlp_simclrhn_probe2,1,332,NaN,airplane,airplane,bw,0332_cl_dnn_bw_airplane_40_n02690373_1442.png,n02690373_1442.png,1.0,6.835257,-0.12989424,4.9251056
alexnet_w3_mlp_simclrhn_probe2,1,333,NaN,chair,chair,cr,0333_cl_dnn_cr_chair_40_n03376595_6691.png,n03376595_6691.png,1.0,2.3133156,0.053788345,1.5977271
alexnet_w3_mlp_simclrhn_probe2,1,334,NaN,bear,bird,bw,0334_cl_dnn_bw_bird_40_n01616318_1071.png,n01616318_1071.png,0.0,-2.9134274,0.9400128,-2.724794
alexnet_w3_mlp_simclrhn_probe2,1,335,NaN,boat,boat,cr,0335_cl_dnn_cr_boat_40_n03662601_8333.png,n03662601_8333.png,1.0,0.1887958,-0.5971753,0.5557655
alexnet_w3_mlp_simclrhn_probe2,1,336,NaN,truck,truck,cr,0336_cl_dnn_cr_truck_40_n03796401_9384.png,n03796401_9384.png,1.0,1.8391244,0.89146197,0.67009854
alexnet_w3_mlp_simclrhn_probe2,1,337,NaN,bottle,bottle,cr,0337_cl_dnn_cr_bottle_40_n04560804_19001.png,n04560804_19001.png,1.0,1.4187472,0.75370884,0.47025314
alexnet_w3_mlp_simclrhn_probe2,1,338,NaN,cat,cat,cr,0338_cl_dnn_cr_cat_40_n02123045_7646.png,n02123045_7646.png,1.0,-0.5892702,-1.397675,0.5716286
alexnet_w3_mlp_simclrhn_probe2,1,339,NaN,elephant,elephant,cr,0339_cl_dnn_cr_elephant_40_n02504013_3599.png,n02504013_3599.png,1.0,16.132679,8.22323,5.592825
alexnet_w3_mlp_simclrhn_probe2,1,340,NaN,chair,clock,cr,0340_cl_dnn_cr_clock_40_n03196217_1109.png,n03196217_1109.png,0.0,0.29538834,0.9086732,-0.4336579
alexnet_w3_mlp_simclrhn_probe2,1,341,NaN,truck,boat,bw,0341_cl_dnn_bw_boat_40_n03344393_5322.png,n03344393_5322.png,0.0,1.9521303,2.8557916,-0.63898504
alexnet_w3_mlp_simclrhn_probe2,1,342,NaN,dog,dog,cr,0342_cl_dnn_cr_dog_40_n02090622_11748.png,n02090622_11748.png,1.0,1.1050189,-0.52907896,1.1554817
alexnet_w3_mlp_simclrhn_probe2,1,343,NaN,knife,knife,cr,0343_cl_dnn_cr_knife_40_n03041632_20707.png,n03041632_20707.png,1.0,0.9236573,-2.193651,2.2042696
alexnet_w3_mlp_simclrhn_probe2,1,344,NaN,keyboard,keyboard,cr,0344_cl_dnn_cr_keyboard_40_n03085013_8936.png,n03085013_8936.png,1.0,2.1346498,1.63782,0.35131168
alexnet_w3_mlp_simclrhn_probe2,1,345,NaN,airplane,airplane,cr,0345_cl_dnn_cr_airplane_40_n02690373_4695.png,n02690373_4695.png,1.0,5.2772675,3.3199902,1.3840041
alexnet_w3_mlp_simclrhn_probe2,1,346,NaN,oven,oven,bw,0346_cl_dnn_bw_oven_40_n04111531_16463.png,n04111531_16463.png,1.0,-0.20202431,-0.6396734,0.30946466
alexnet_w3_mlp_simclrhn_probe2,1,347,NaN,dog,dog,bw,0347_cl_dnn_bw_dog_40_n02099712_1234.png,n02099712_1234.png,1.0,1.9712927,-5.4541793,5.250602
alexnet_w3_mlp_simclrhn_probe2,1,348,NaN,boat,boat,bw,0348_cl_dnn_bw_boat_40_n03662601_17361.png,n03662601_17361.png,1.0,5.3099356,-0.68341076,4.237936
alexnet_w3_mlp_simclrhn_probe2,1,349,NaN,oven,oven,cr,0349_cl_dnn_cr_oven_40_n04111531_12929.png,n04111531_12929.png,1.0,2.516205,0.36306643,1.522499
alexnet_w3_mlp_simclrhn_probe2,1,350,NaN,keyboard,truck,bw,0350_cl_dnn_bw_truck_40_n03417042_2056.png,n03417042_2056.png,0.0,-0.1438401,2.759972,-2.0533054
alexnet_w3_mlp_simclrhn_probe2,1,351,NaN,oven,oven,cr,0351_cl_dnn_cr_oven_40_n04111531_2937.png,n04111531_2937.png,1.0,4.427945,1.3343067,2.1875327
alexnet_w3_mlp_simclrhn_probe2,1,352,NaN,boat,boat,bw,0352_cl_dnn_bw_boat_40_n04273569_23705.png,n04273569_23705.png,1.0,5.280362,1.1393334,2.9281497
alexnet_w3_mlp_simclrhn_probe2,1,353,NaN,elephant,boat,cr,0353_cl_dnn_cr_boat_40_n02951358_8456.png,n02951358_8456.png,0.0,0.25737244,0.33604926,-0.055632915
alexnet_w3_mlp_simclrhn_probe2,1,354,NaN,bottle,bottle,bw,0354_cl_dnn_bw_bottle_40_n03983396_11632.png,n03983396_11632.png,1.0,3.2932613,-0.53343576,2.7058835
alexnet_w3_mlp_simclrhn_probe2,1,355,NaN,bicycle,bicycle,bw,0355_cl_dnn_bw_bicycle_40_n02835271_506.png,n02835271_506.png,1.0,9.045141,-1.7401711,7.626368
alexnet_w3_mlp_simclrhn_probe2,1,356,NaN,keyboard,keyboard,cr,0356_cl_dnn_cr_keyboard_40_n04505470_665.png,n04505470_665.png,1.0,8.168427,2.6024044,3.9357727
alexnet_w3_mlp_simclrhn_probe2,1,357,NaN,bear,bear,bw,0357_cl_dnn_bw_bear_40_n02132136_390.png,n02132136_390.png,1.0,4.9703116,0.10145248,3.4428034
alexnet_w3_mlp_simclrhn_probe2,1,358,NaN,bear,bear,cr,0358_cl_dnn_cr_bear_40_n02134084_13663.png,n02134084_13663.png,1.0,1.3623564,0.39469758,0.6842382
alexnet_w3_mlp_simclrhn_probe2,1,359,NaN,airplane,airplane,cr,0359_cl_dnn_cr_airplane_40_n02690373_2837.png,n02690373_2837.png,1.0,8.474153,4.3720026,2.9006581
alexnet_w3_mlp_simclrhn_probe2,1,360,NaN,airplane,airplane,bw,0360_cl_dnn_bw_airplane_40_n02690373_1492.png,n02690373_1492.png,1.0,7.220493,1.4399166,4.087485
alexnet_w3_mlp_simclrhn_probe2,1,361,NaN,car,car,cr,0361_cl_dnn_cr_car_40_n03100240_14252.png,n03100240_14252.png,1.0,15.558255,9.939033,3.9733906
alexnet_w3_mlp_simclrhn_probe2,1,362,NaN,chair,elephant,bw,0362_cl_dnn_bw_elephant_40_n02504458_4908.png,n02504458_4908.png,0.0,-4.242796,-0.5074966,-2.6412556
alexnet_w3_mlp_simclrhn_probe2,1,363,NaN,bird,bird,bw,0363_cl_dnn_bw_bird_40_n01582220_5821.png,n01582220_5821.png,1.0,2.298101,-1.966281,3.0153735
alexnet_w3_mlp_simclrhn_probe2,1,364,NaN,cat,cat,cr,0364_cl_dnn_cr_cat_40_n02123045_2968.png,n02123045_2968.png,1.0,1.701938,-0.0034605265,1.2058989
alexnet_w3_mlp_simclrhn_probe2,1,365,NaN,dog,dog,cr,0365_cl_dnn_cr_dog_40_n02088466_1671.png,n02088466_1671.png,1.0,1.9548863,-2.0113845,2.804577
alexnet_w3_mlp_simclrhn_probe2,1,366,NaN,boat,boat,bw,0366_cl_dnn_bw_boat_40_n03344393_7659.png,n03344393_7659.png,1.0,9.9590645,4.9051647,3.5736468
alexnet_w3_mlp_simclrhn_probe2,1,367,NaN,bicycle,bicycle,bw,0367_cl_dnn_bw_bicycle_40_n03792782_3783.png,n03792782_3783.png,1.0,4.61488,-1.5161382,4.3352847
alexnet_w3_mlp_simclrhn_probe2,1,368,NaN,airplane,airplane,cr,0368_cl_dnn_cr_airplane_40_n02690373_2059.png,n02690373_2059.png,1.0,7.8175144,1.6220207,4.3808756
alexnet_w3_mlp_simclrhn_probe2,1,369,NaN,keyboard,keyboard,cr,0369_cl_dnn_cr_keyboard_40_n03085013_19483.png,n03085013_19483.png,1.0,4.5453043,1.3102311,2.287542
alexnet_w3_mlp_simclrhn_probe2,1,370,NaN,bicycle,bicycle,bw,0370_cl_dnn_bw_bicycle_40_n03792782_2960.png,n03792782_2960.png,1.0,10.685976,-1.6823852,8.745752
alexnet_w3_mlp_simclrhn_probe2,1,371,NaN,keyboard,keyboard,cr,0371_cl_dnn_cr_keyboard_40_n03085013_24538.png,n03085013_24538.png,1.0,3.6497953,2.7067306,0.66684747
alexnet_w3_mlp_simclrhn_probe2,1,372,NaN,elephant,cat,cr,0372_cl_dnn_cr_cat_40_n02123597_9656.png,n02123597_9656.png,0.0,-3.4543839,-0.9116777,-1.7979647
alexnet_w3_mlp_simclrhn_probe2,1,373,NaN,car,car,cr,0373_cl_dnn_cr_car_40_n04285008_1085.png,n04285008_1085.png,1.0,15.7302885,7.2188616,6.018488
alexnet_w3_mlp_simclrhn_probe2,1,374,NaN,dog,dog,cr,0374_cl_dnn_cr_dog_40_n02102177_5870.png,n02102177_5870.png,1.0,2.724141,-1.7425607,3.1584349
alexnet_w3_mlp_simclrhn_probe2,1,375,NaN,keyboard,boat,cr,0375_cl_dnn_cr_boat_40_n03662601_24852.png,n03662601_24852.png,0.0,-0.7464182,2.18125,-2.0701742
alexnet_w3_mlp_simclrhn_probe2,1,376,NaN,bicycle,bicycle,cr,0376_cl_dnn_cr_bicycle_40_n03792782_32379.png,n03792782_32379.png,1.0,9.227851,-1.3262188,7.4628544
alexnet_w3_mlp_simclrhn_probe2,1,377,NaN,knife,cat,cr,0377_cl_dnn_cr_cat_40_n02123597_12266.png,n02123597_12266.png,0.0,-3.5294085,-1.7047853,-1.2902035
alexnet_w3_mlp_simclrhn_probe2,1,378,NaN,airplane,airplane,cr,0378_cl_dnn_cr_airplane_40_n02690373_713.png,n02690373_713.png,1.0,14.580055,1.5088726,9.242722
alexnet_w3_mlp_simclrhn_probe2,1,379,NaN,airplane,airplane,cr,0379_cl_dnn_cr_airplane_40_n02690373_6543.png,n02690373_6543.png,1.0,7.1518135,3.1266167,2.846244
alexnet_w3_mlp_simclrhn_probe2,1,380,NaN,oven,oven,cr,0380_cl_dnn_cr_oven_40_n04111531_5888.png,n04111531_5888.png,1.0,4.598145,-1.2477546,4.133675
alexnet_w3_mlp_simclrhn_probe2,1,381,NaN,dog,dog,bw,0381_cl_dnn_bw_dog_40_n02099601_7304.png,n02099601_7304.png,1.0,1.4487265,-0.64164376,1.478115
alexnet_w3_mlp_simclrhn_probe2,1,382,NaN,bird,bird,bw,0382_cl_dnn_bw_bird_40_n01819313_146.png,n01819313_146.png,1.0,-0.8846067,-1.3104472,0.3011147
alexnet_w3_mlp_simclrhn_probe2,1,383,NaN,car,car,bw,0383_cl_dnn_bw_car_40_n03100240_18873.png,n03100240_18873.png,1.0,10.243022,6.6794567,2.5198212
alexnet_w3_mlp_simclrhn_probe2,1,384,NaN,dog,dog,bw,0384_cl_dnn_bw_dog_40_n02100583_2707.png,n02100583_2707.png,1.0,2.3858533,-1.1204312,2.4793177
alexnet_w3_mlp_simclrhn_probe2,1,385,NaN,bear,dog,bw,0385_cl_dnn_bw_dog_40_n02105056_15484.png,n02105056_15484.png,0.0,-0.26978663,1.4614396,-1.2241619
alexnet_w3_mlp_simclrhn_probe2,1,386,NaN,truck,truck,bw,0386_cl_dnn_bw_truck_40_n04467665_66535.png,n04467665_66535.png,1.0,6.5975523,2.6630924,2.7820833
alexnet_w3_mlp_simclrhn_probe2,1,387,NaN,elephant,elephant,bw,0387_cl_dnn_bw_elephant_40_n02504458_12303.png,n02504458_12303.png,1.0,8.445738,2.7714362,4.012337
alexnet_w3_mlp_simclrhn_probe2,1,388,NaN,bottle,bottle,cr,0388_cl_dnn_cr_bottle_40_n03937543_4586.png,n03937543_4586.png,1.0,3.814015,-1.0282422,3.4239929
alexnet_w3_mlp_simclrhn_probe2,1,389,NaN,cat,bird,cr,0389_cl_dnn_cr_bird_40_n02007558_19064.png,n02007558_19064.png,0.0,-0.7532961,-0.13986339,-0.43376243
alexnet_w3_mlp_simclrhn_probe2,1,390,NaN,oven,oven,bw,0390_cl_dnn_bw_oven_40_n04111531_5904.png,n04111531_5904.png,1.0,5.349654,-2.6636467,5.6662593
alexnet_w3_mlp_simclrhn_probe2,1,391,NaN,knife,keyboard,cr,0391_cl_dnn_cr_keyboard_40_n03085013_18625.png,n03085013_18625.png,0.0,-1.7296336,-0.88550293,-0.5968905
alexnet_w3_mlp_simclrhn_probe2,1,392,NaN,bottle,bottle,cr,0392_cl_dnn_cr_bottle_40_n04579145_445.png,n04579145_445.png,1.0,8.450442,-2.7355244,7.9096727
alexnet_w3_mlp_simclrhn_probe2,1,393,NaN,keyboard,keyboard,bw,0393_cl_dnn_bw_keyboard_40_n03085013_22820.png,n03085013_22820.png,1.0,4.460579,3.6014228,0.60751516
alexnet_w3_mlp_simclrhn_probe2,1,394,NaN,truck,truck,cr,0394_cl_dnn_cr_truck_40_n03417042_19479.png,n03417042_19479.png,1.0,7.433359,2.1402888,3.742766
alexnet_w3_mlp_simclrhn_probe2,1,395,NaN,bird,bird,bw,0395_cl_dnn_bw_bird_40_n01833805_28946.png,n01833805_28946.png,1.0,1.6107361,-2.5775912,2.9615946
alexnet_w3_mlp_simclrhn_probe2,1,396,NaN,keyboard,bottle,bw,0396_cl_dnn_bw_bottle_40_n04591713_3896.png,n04591713_3896.png,0.0,0.3168725,0.4692986,-0.10778153
alexnet_w3_mlp_simclrhn_probe2,1,397,NaN,cat,cat,cr,0397_cl_dnn_cr_cat_40_n02123159_782.png,n02123159_782.png,1.0,7.7107453,-3.6785402,8.053442
alexnet_w3_mlp_simclrhn_probe2,1,398,NaN,keyboard,keyboard,bw,0398_cl_dnn_bw_keyboard_40_n04505470_464.png,n04505470_464.png,1.0,1.664656,0.2946782,0.9687206
alexnet_w3_mlp_simclrhn_probe2,1,399,NaN,bird,bird,cr,0399_cl_dnn_cr_bird_40_n01558993_3939.png,n01558993_3939.png,1.0,6.9990463,-6.7470613,9.719966
alexnet_w3_mlp_simclrhn_probe2,1,400,NaN,boat,boat,cr,0400_cl_dnn_cr_boat_40_n04273569_3052.png,n04273569_3052.png,1.0,6.2768855,-0.013715297,4.4481263
alexnet_w3_mlp_simclrhn_probe2,1,401,NaN,knife,knife,bw,0401_cl_dnn_bw_knife_40_n03041632_85416.png,n03041632_85416.png,1.0,0.6144963,-1.2847975,1.3430036
alexnet_w3_mlp_simclrhn_probe2,1,402,NaN,car,car,bw,0402_cl_dnn_bw_car_40_n02814533_51154.png,n02814533_51154.png,1.0,12.156362,11.001809,0.8163919
alexnet_w3_mlp_simclrhn_probe2,1,403,NaN,airplane,airplane,bw,0403_cl_dnn_bw_airplane_40_n02690373_6516.png,n02690373_6516.png,1.0,7.8786,2.858633,3.5496528
alexnet_w3_mlp_simclrhn_probe2,1,404,NaN,airplane,airplane,cr,0404_cl_dnn_cr_airplane_40_n02690373_12813.png,n02690373_12813.png,1.0,14.6474,-0.21065947,10.506234
alexnet_w3_mlp_simclrhn_probe2,1,405,NaN,airplane,airplane,bw,0405_cl_dnn_bw_airplane_40_n02690373_6406.png,n02690373_6406.png,1.0,10.3256,1.6933911,6.1038933
alexnet_w3_mlp_simclrhn_probe2,1,406,NaN,chair,chair,cr,0406_cl_dnn_cr_chair_40_n03376595_8228.png,n03376595_8228.png,1.0,2.2802138,0.9911958,0.9114734
alexnet_w3_mlp_simclrhn_probe2,1,407,NaN,knife,chair,bw,0407_cl_dnn_bw_chair_40_n04099969_6309.png,n04099969_6309.png,0.0,-1.0697806,1.0634227,-1.5084025
alexnet_w3_mlp_simclrhn_probe2,1,408,NaN,elephant,elephant,cr,0408_cl_dnn_cr_elephant_40_n02504013_19831.png,n02504013_19831.png,1.0,15.565321,4.8886743,7.5495296
alexnet_w3_mlp_simclrhn_probe2,1,409,NaN,knife,bottle,bw,0409_cl_dnn_bw_bottle_40_n03937543_5088.png,n03937543_5088.png,0.0,-1.9584943,0.8439833,-1.981651
alexnet_w3_mlp_simclrhn_probe2,1,410,NaN,elephant,elephant,cr,0410_cl_dnn_cr_elephant_40_n02504458_2190.png,n02504458_2190.png,1.0,2.0901952,-0.71886146,1.9863031
alexnet_w3_mlp_simclrhn_probe2,1,411,NaN,car,car,bw,0411_cl_dnn_bw_car_40_n04285008_5997.png,n04285008_5997.png,1.0,8.979863,3.0811968,4.170987
alexnet_w3_mlp_simclrhn_probe2,1,412,NaN,bottle,knife,cr,0412_cl_dnn_cr_knife_40_n03041632_94620.png,n03041632_94620.png,0.0,-1.1007681,-0.020289514,-0.7640137
alexnet_w3_mlp_simclrhn_probe2,1,413,NaN,bicycle,bicycle,cr,0413_cl_dnn_cr_bicycle_40_n02835271_8125.png,n02835271_8125.png,1.0,9.36947,0.8935778,5.993361
alexnet_w3_mlp_simclrhn_probe2,1,414,NaN,oven,oven,cr,0414_cl_dnn_cr_oven_40_n04111531_4662.png,n04111531_4662.png,1.0,5.8697677,-1.5352712,5.236153
alexnet_w3_mlp_simclrhn_probe2,1,415,NaN,bicycle,dog,bw,0415_cl_dnn_bw_dog_40_n02110806_21755.png,n02110806_21755.png,0.0,-0.94945246,3.3564339,-3.0447214
alexnet_w3_mlp_simclrhn_probe2,1,416,NaN,bottle,bottle,bw,0416_cl_dnn_bw_bottle_40_n02823428_3505.png,n02823428_3505.png,1.0,1.1761415,-0.14363061,0.93321985
alexnet_w3_mlp_simclrhn_probe2,1,417,NaN,cat,cat,cr,0417_cl_dnn_cr_cat_40_n02123045_11472.png,n02123045_11472.png,1.0,6.439852,-2.010276,5.9751434
alexnet_w3_mlp_simclrhn_probe2,1,418,NaN,boat,boat,cr,0418_cl_dnn_cr_boat_40_n03662601_14818.png,n03662601_14818.png,1.0,10.099104,1.281411,6.2350507
alexnet_w3_mlp_simclrhn_probe2,1,419,NaN,bicycle,bicycle,cr,0419_cl_dnn_cr_bicycle_40_n02835271_8322.png,n02835271_8322.png,1.0,6.0087814,2.4730942,2.5001085
alexnet_w3_mlp_simclrhn_probe2,1,420,NaN,knife,knife,bw,0420_cl_dnn_bw_knife_40_n03041632_9580.png,n03041632_9580.png,1.0,0.9838334,-0.29117152,0.9015646
alexnet_w3_mlp_simclrhn_probe2,1,421,NaN,dog,dog,bw,0421_cl_dnn_bw_dog_40_n02088466_3052.png,n02088466_3052.png,1.0,-0.17608215,-3.7796407,2.5481007
alexnet_w3_mlp_simclrhn_probe2,1,422,NaN,keyboard,keyboard,cr,0422_cl_dnn_cr_keyboard_40_n04505470_7161.png,n04505470_7161.png,1.0,13.107798,0.8779958,8.647777
alexnet_w3_mlp_simclrhn_probe2,1,423,NaN,keyboard,keyboard,cr,0423_cl_dnn_cr_keyboard_40_n04505470_2321.png,n04505470_2321.png,1.0,5.8272104,1.144084,3.3114705
alexnet_w3_mlp_simclrhn_probe2,1,424,NaN,oven,knife,cr,0424_cl_dnn_cr_knife_40_n03041632_6708.png,n03041632_6708.png,0.0,-1.4575438,3.36054,-3.4068997
alexnet_w3_mlp_simclrhn_probe2,1,425,NaN,keyboard,keyboard,bw,0425_cl_dnn_bw_keyboard_40_n04505470_4965.png,n04505470_4965.png,1.0,10.984398,1.100881,6.9887023
alexnet_w3_mlp_simclrhn_probe2,1,426,NaN,cat,cat,bw,0426_cl_dnn_bw_cat_40_n02123597_11981.png,n02123597_11981.png,1.0,3.8985348,0.8815693,2.1333168
alexnet_w3_mlp_simclrhn_probe2,1,427,NaN,truck,truck,cr,0427_cl_dnn_cr_truck_40_n03417042_2778.png,n03417042_2778.png,1.0,6.2015038,2.0297148,2.9499004
alexnet_w3_mlp_simclrhn_probe2,1,428,NaN,car,car,cr,0428_cl_dnn_cr_car_40_n02814533_80049.png,n02814533_80049.png,1.0,7.6294036,7.227325,0.28431252
alexnet_w3_mlp_simclrhn_probe2,1,429,NaN,knife,keyboard,cr,0429_cl_dnn_cr_keyboard_40_n03085013_23561.png,n03085013_23561.png,0.0,-3.0947356,-0.40201885,-1.9040383
alexnet_w3_mlp_simclrhn_probe2,1,430,NaN,airplane,airplane,bw,0430_cl_dnn_bw_airplane_40_n02690373_1800.png,n02690373_1800.png,1.0,3.6236796,0.016017308,2.5510025
alexnet_w3_mlp_simclrhn_probe2,1,431,NaN,chair,chair,bw,0431_cl_dnn_bw_chair_40_n02791124_4306.png,n02791124_4306.png,1.0,0.21701515,-1.2405428,1.0306491
alexnet_w3_mlp_simclrhn_probe2,1,432,NaN,bicycle,knife,bw,0432_cl_dnn_bw_knife_40_n03041632_33424.png,n03041632_33424.png,0.0,-2.2522674,0.8711884,-2.2086167
alexnet_w3_mlp_simclrhn_probe2,1,433,NaN,boat,boat,cr,0433_cl_dnn_cr_boat_40_n04273569_111.png,n04273569_111.png,1.0,4.0001173,1.9452895,1.4529827
alexnet_w3_mlp_simclrhn_probe2,1,434,NaN,bear,bear,bw,0434_cl_dnn_bw_bear_40_n02132136_4403.png,n02132136_4403.png,1.0,2.5913815,1.4306728,0.82074505
alexnet_w3_mlp_simclrhn_probe2,1,435,NaN,bicycle,bicycle,bw,0435_cl_dnn_bw_bicycle_40_n03792782_49707.png,n03792782_49707.png,1.0,0.91214913,-0.5359106,1.0239329
alexnet_w3_mlp_simclrhn_probe2,1,436,NaN,bicycle,bicycle,cr,0436_cl_dnn_cr_bicycle_40_n02835271_3308.png,n02835271_3308.png,1.0,9.80994,-2.7457728,8.87823
alexnet_w3_mlp_simclrhn_probe2,1,437,NaN,clock,clock,bw,0437_cl_dnn_bw_clock_40_n04548280_3305.png,n04548280_3305.png,1.0,1.1820091,-0.6400861,1.2884159
alexnet_w3_mlp_simclrhn_probe2,1,438,NaN,boat,boat,bw,0438_cl_dnn_bw_boat_40_n03344393_7614.png,n03344393_7614.png,1.0,9.682486,4.3494644,3.7710154
alexnet_w3_mlp_simclrhn_probe2,1,439,NaN,chair,bicycle,bw,0439_cl_dnn_bw_bicycle_40_n02835271_9434.png,n02835271_9434.png,0.0,-0.62168556,1.5322235,-1.5230436
alexnet_w3_mlp_simclrhn_probe2,1,440,NaN,chair,truck,bw,0440_cl_dnn_bw_truck_40_n03417042_3039.png,n03417042_3039.png,0.0,-1.2502165,0.38485387,-1.1561693
alexnet_w3_mlp_simclrhn_probe2,1,441,NaN,oven,oven,cr,0441_cl_dnn_cr_oven_40_n04111531_5519.png,n04111531_5519.png,1.0,1.7183114,-3.8937156,3.9683025
alexnet_w3_mlp_simclrhn_probe2,1,442,NaN,bottle,bottle,cr,0442_cl_dnn_cr_bottle_40_n03983396_3702.png,n03983396_3702.png,1.0,2.189113,-1.1649487,2.3716798
alexnet_w3_mlp_simclrhn_probe2,1,443,NaN,bicycle,clock,cr,0443_cl_dnn_cr_clock_40_n04548280_2177.png,n04548280_2177.png,0.0,1.7498285,2.9797878,-0.86971265
alexnet_w3_mlp_simclrhn_probe2,1,444,NaN,bottle,bottle,cr,0444_cl_dnn_cr_bottle_40_n03983396_4132.png,n03983396_4132.png,1.0,8.232018,-2.6851919,7.7196336
alexnet_w3_mlp_simclrhn_probe2,1,445,NaN,bicycle,bicycle,cr,0445_cl_dnn_cr_bicycle_40_n02835271_17509.png,n02835271_17509.png,1.0,7.308795,-2.4469686,6.898367
alexnet_w3_mlp_simclrhn_probe2,1,446,NaN,airplane,airplane,bw,0446_cl_dnn_bw_airplane_40_n02690373_3090.png,n02690373_3090.png,1.0,6.159796,0.29234463,4.148915
alexnet_w3_mlp_simclrhn_probe2,1,447,NaN,chair,chair,cr,0447_cl_dnn_cr_chair_40_n03376595_1302.png,n03376595_1302.png,1.0,4.3039665,3.3354433,0.6848494
alexnet_w3_mlp_simclrhn_probe2,1,448,NaN,dog,dog,cr,0448_cl_dnn_cr_dog_40_n02107683_3640.png,n02107683_3640.png,1.0,3.4663758,-1.7146797,3.6635597
alexnet_w3_mlp_simclrhn_probe2,1,449,NaN,car,car,cr,0449_cl_dnn_cr_car_40_n03100240_770.png,n03100240_770.png,1.0,9.0912695,6.812772,1.6111412
alexnet_w3_mlp_simclrhn_probe2,1,450,NaN,knife,knife,cr,0450_cl_dnn_cr_knife_40_n03041632_4305.png,n03041632_4305.png,1.0,-0.60284483,-0.80112344,0.14020415
alexnet_w3_mlp_simclrhn_probe2,1,451,NaN,elephant,elephant,cr,0451_cl_dnn_cr_elephant_40_n02504013_4590.png,n02504013_4590.png,1.0,5.2320175,1.5348415,2.6142983
alexnet_w3_mlp_simclrhn_probe2,1,452,NaN,truck,truck,cr,0452_cl_dnn_cr_truck_40_n03417042_5752.png,n03417042_5752.png,1.0,1.918083,0.11537786,1.2747049
alexnet_w3_mlp_simclrhn_probe2,1,453,NaN,oven,oven,cr,0453_cl_dnn_cr_oven_40_n04111531_21931.png,n04111531_21931.png,1.0,5.3748646,0.33531705,3.5634983
alexnet_w3_mlp_simclrhn_probe2,1,454,NaN,elephant,elephant,bw,0454_cl_dnn_bw_elephant_40_n02504458_4711.png,n02504458_4711.png,1.0,5.8578153,-0.74451,4.668549
alexnet_w3_mlp_simclrhn_probe2,1,455,NaN,clock,clock,bw,0455_cl_dnn_bw_clock_40_n02708093_8033.png,n02708093_8033.png,1.0,3.334999,-1.0921617,3.1304755
alexnet_w3_mlp_simclrhn_probe2,1,456,NaN,bicycle,bicycle,bw,0456_cl_dnn_bw_bicycle_40_n03792782_41992.png,n03792782_41992.png,1.0,14.996281,-0.16836894,10.723027
alexnet_w3_mlp_simclrhn_probe2,1,457,NaN,keyboard,keyboard,cr,0457_cl_dnn_cr_keyboard_40_n03085013_5622.png,n03085013_5622.png,1.0,3.322303,2.727066,0.42089614
alexnet_w3_mlp_simclrhn_probe2,1,458,NaN,bird,bird,bw,0458_cl_dnn_bw_bird_40_n02009912_1919.png,n02009912_1919.png,1.0,2.0851603,-3.5194352,3.9630473
alexnet_w3_mlp_simclrhn_probe2,1,459,NaN,bottle,bottle,cr,0459_cl_dnn_cr_bottle_40_n03937543_4202.png,n03937543_4202.png,1.0,1.4437788,-1.0811447,1.7853904
alexnet_w3_mlp_simclrhn_probe2,1,460,NaN,bicycle,bicycle,bw,0460_cl_dnn_bw_bicycle_40_n02835271_4341.png,n02835271_4341.png,1.0,4.4117937,-0.24850264,3.2953272
alexnet_w3_mlp_simclrhn_probe2,1,461,NaN,bear,bear,bw,0461_cl_dnn_bw_bear_40_n02132136_18543.png,n02132136_18543.png,1.0,2.8598258,1.3535945,1.0650663
alexnet_w3_mlp_simclrhn_probe2,1,462,NaN,cat,cat,bw,0462_cl_dnn_bw_cat_40_n02124075_14425.png,n02124075_14425.png,1.0,9.036047,-1.8095125,7.6689687
alexnet_w3_mlp_simclrhn_probe2,1,463,NaN,clock,clock,bw,0463_cl_dnn_bw_clock_40_n02708093_544.png,n02708093_544.png,1.0,1.2947472,-0.22262563,1.0729446
alexnet_w3_mlp_simclrhn_probe2,1,464,NaN,bear,bear,cr,0464_cl_dnn_cr_bear_40_n02133161_7604.png,n02133161_7604.png,1.0,1.3414233,-0.701005,1.4442149
alexnet_w3_mlp_simclrhn_probe2,1,465,NaN,car,car,bw,0465_cl_dnn_bw_car_40_n03100240_15407.png,n03100240_15407.png,1.0,5.272453,3.032098,1.5841701
alexnet_w3_mlp_simclrhn_probe2,1,466,NaN,bicycle,bicycle,bw,0466_cl_dnn_bw_bicycle_40_n02835271_12926.png,n02835271_12926.png,1.0,6.1906123,-1.2811933,5.2833643
alexnet_w3_mlp_simclrhn_probe2,1,467,NaN,knife,chair,cr,0467_cl_dnn_cr_chair_40_n03376595_2056.png,n03376595_2056.png,0.0,0.13338679,0.6436843,-0.36083487
alexnet_w3_mlp_simclrhn_probe2,1,468,NaN,oven,oven,bw,0468_cl_dnn_bw_oven_40_n04111531_9762.png,n04111531_9762.png,1.0,4.1990542,0.6910496,2.4805338
alexnet_w3_mlp_simclrhn_probe2,1,469,NaN,bicycle,bicycle,bw,0469_cl_dnn_bw_bicycle_40_n03792782_25799.png,n03792782_25799.png,1.0,4.0155315,-1.2216578,3.703252
alexnet_w3_mlp_simclrhn_probe2,1,470,NaN,oven,oven,cr,0470_cl_dnn_cr_oven_40_n04111531_3570.png,n04111531_3570.png,1.0,4.3945417,-2.5237284,4.891956
alexnet_w3_mlp_simclrhn_probe2,1,471,NaN,car,car,cr,0471_cl_dnn_cr_car_40_n04285008_874.png,n04285008_874.png,1.0,9.123389,5.8601737,2.307442
alexnet_w3_mlp_simclrhn_probe2,1,472,NaN,bicycle,bottle,cr,0472_cl_dnn_cr_bottle_40_n04557648_364.png,n04557648_364.png,0.0,-6.1112084,2.5395808,-6.117032
alexnet_w3_mlp_simclrhn_probe2,1,473,NaN,airplane,airplane,bw,0473_cl_dnn_bw_airplane_40_n02690373_8461.png,n02690373_8461.png,1.0,7.3596616,-1.0949645,5.9783235
alexnet_w3_mlp_simclrhn_probe2,1,474,NaN,boat,boat,cr,0474_cl_dnn_cr_boat_40_n04273569_1087.png,n04273569_1087.png,1.0,10.120803,-0.39482784,7.4356737
alexnet_w3_mlp_simclrhn_probe2,1,475,NaN,chair,chair,cr,0475_cl_dnn_cr_chair_40_n03376595_1798.png,n03376595_1798.png,1.0,4.19669,-1.328686,3.907031
alexnet_w3_mlp_simclrhn_probe2,1,476,NaN,oven,oven,cr,0476_cl_dnn_cr_oven_40_n04111531_5290.png,n04111531_5290.png,1.0,4.933257,1.9903607,2.080942
alexnet_w3_mlp_simclrhn_probe2,1,477,NaN,cat,cat,bw,0477_cl_dnn_bw_cat_40_n02124075_12369.png,n02124075_12369.png,1.0,4.5527587,-0.67876965,3.6992493
alexnet_w3_mlp_simclrhn_probe2,1,478,NaN,elephant,elephant,bw,0478_cl_dnn_bw_elephant_40_n02504458_3714.png,n02504458_3714.png,1.0,5.54986,0.6071606,3.4950163
alexnet_w3_mlp_simclrhn_probe2,1,479,NaN,keyboard,bicycle,bw,0479_cl_dnn_bw_bicycle_40_n03792782_7388.png,n03792782_7388.png,0.0,-1.4893184,-0.41654706,-0.7585639
alexnet_w3_mlp_simclrhn_probe2,1,480,NaN,truck,truck,cr,0480_cl_dnn_cr_truck_40_n03796401_18240.png,n03796401_18240.png,1.0,3.5817952,0.074254,2.4802063
alexnet_w3_mlp_simclrhn_probe2,1,481,NaN,airplane,airplane,cr,0481_cl_dnn_cr_airplane_40_n02690373_610.png,n02690373_610.png,1.0,10.072599,2.7299118,5.1920643
alexnet_w3_mlp_simclrhn_probe2,1,482,NaN,airplane,airplane,bw,0482_cl_dnn_bw_airplane_40_n02690373_6046.png,n02690373_6046.png,1.0,15.802324,-1.5224942,12.250496
alexnet_w3_mlp_simclrhn_probe2,1,483,NaN,dog,dog,cr,0483_cl_dnn_cr_dog_40_n02105505_4069.png,n02105505_4069.png,1.0,0.6758138,0.040994704,0.4488849
alexnet_w3_mlp_simclrhn_probe2,1,484,NaN,oven,chair,bw,0484_cl_dnn_bw_chair_40_n04429376_1954.png,n04429376_1954.png,0.0,0.40631294,0.46599603,-0.042202316
alexnet_w3_mlp_simclrhn_probe2,1,485,NaN,oven,oven,bw,0485_cl_dnn_bw_oven_40_n04111531_7862.png,n04111531_7862.png,1.0,6.439002,-0.8233038,5.135226
alexnet_w3_mlp_simclrhn_probe2,1,486,NaN,chair,chair,cr,0486_cl_dnn_cr_chair_40_n02791124_7424.png,n02791124_7424.png,1.0,1.7709938,1.2903441,0.33987066
alexnet_w3_mlp_simclrhn_probe2,1,487,NaN,dog,dog,bw,0487_cl_dnn_bw_dog_40_n02088466_5521.png,n02088466_5521.png,1.0,0.66353446,0.046104044,0.43658927
alexnet_w3_mlp_simclrhn_probe2,1,488,NaN,elephant,bear,cr,0488_cl_dnn_cr_bear_40_n02133161_12868.png,n02133161_12868.png,0.0,-0.42898107,-0.40902036,-0.014114347
alexnet_w3_mlp_simclrhn_probe2,1,489,NaN,keyboard,keyboard,bw,0489_cl_dnn_bw_keyboard_40_n04505470_4107.png,n04505470_4107.png,1.0,6.7703176,5.339775,1.0115463
alexnet_w3_mlp_simclrhn_probe2,1,490,NaN,boat,boat,bw,0490_cl_dnn_bw_boat_40_n03662601_855.png,n03662601_855.png,1.0,11.929689,1.8156126,7.1517324
alexnet_w3_mlp_simclrhn_probe2,1,491,NaN,bird,bird,cr,0491_cl_dnn_cr_bird_40_n02017213_7558.png,n02017213_7558.png,1.0,2.478537,-3.2130764,4.0245786
alexnet_w3_mlp_simclrhn_probe2,1,492,NaN,airplane,bottle,bw,0492_cl_dnn_bw_bottle_40_n04557648_23801.png,n04557648_23801.png,0.0,-2.8785439,0.5978321,-2.4581692
alexnet_w3_mlp_simclrhn_probe2,1,493,NaN,bird,bird,bw,0493_cl_dnn_bw_bird_40_n01601694_13054.png,n01601694_13054.png,1.0,5.3346233,-5.6936398,7.7981596
alexnet_w3_mlp_simclrhn_probe2,1,494,NaN,oven,oven,bw,0494_cl_dnn_bw_oven_40_n04111531_2207.png,n04111531_2207.png,1.0,6.1102886,-2.7952232,6.2971478
alexnet_w3_mlp_simclrhn_probe2,1,495,NaN,bird,bird,bw,0495_cl_dnn_bw_bird_40_n02009912_9425.png,n02009912_9425.png,1.0,4.7789235,-3.8931339,6.1320705
alexnet_w3_mlp_simclrhn_probe2,1,496,NaN,clock,clock,cr,0496_cl_dnn_cr_clock_40_n03196217_6193.png,n03196217_6193.png,1.0,5.015902,4.852237,0.115728505
alexnet_w3_mlp_simclrhn_probe2,1,497,NaN,boat,boat,bw,0497_cl_dnn_bw_boat_40_n04273569_27625.png,n04273569_27625.png,1.0,7.274077,2.978054,3.037747
alexnet_w3_mlp_simclrhn_probe2,1,498,NaN,car,truck,bw,0498_cl_dnn_bw_truck_40_n03417042_29855.png,n03417042_29855.png,0.0,2.243326,2.3750477,-0.09314133
alexnet_w3_mlp_simclrhn_probe2,1,499,NaN,bottle,bottle,cr,0499_cl_dnn_cr_bottle_40_n03983396_4212.png,n03983396_4212.png,1.0,6.895611,-2.1379395,6.387685
alexnet_w3_mlp_simclrhn_probe2,1,500,NaN,cat,cat,bw,0500_cl_dnn_bw_cat_40_n02123597_11613.png,n02123597_11613.png,1.0,2.6927998,0.6664112,1.4328731
alexnet_w3_mlp_simclrhn_probe2,1,501,NaN,clock,clock,cr,0501_cl_dnn_cr_clock_40_n02708093_1559.png,n02708093_1559.png,1.0,0.5040058,-0.18684223,0.4885033
alexnet_w3_mlp_simclrhn_probe2,1,502,NaN,chair,chair,cr,0502_cl_dnn_cr_chair_40_n02791124_7031.png,n02791124_7031.png,1.0,0.68531287,0.17247722,0.36262956
alexnet_w3_mlp_simclrhn_probe2,1,503,NaN,bottle,bottle,cr,0503_cl_dnn_cr_bottle_40_n04560804_1703.png,n04560804_1703.png,1.0,2.5266163,1.1016122,1.0076301
alexnet_w3_mlp_simclrhn_probe2,1,504,NaN,bottle,bottle,bw,0504_cl_dnn_bw_bottle_40_n04560804_15679.png,n04560804_15679.png,1.0,3.7373664,0.052224874,2.6057887
alexnet_w3_mlp_simclrhn_probe2,1,505,NaN,bottle,bottle,bw,0505_cl_dnn_bw_bottle_40_n03983396_1006.png,n03983396_1006.png,1.0,3.1060927,0.37955603,1.9279526
alexnet_w3_mlp_simclrhn_probe2,1,506,NaN,knife,knife,bw,0506_cl_dnn_bw_knife_40_n03041632_100645.png,n03041632_100645.png,1.0,0.71955925,0.2321151,0.34467506
alexnet_w3_mlp_simclrhn_probe2,1,507,NaN,car,car,cr,0507_cl_dnn_cr_car_40_n02814533_54845.png,n02814533_54845.png,1.0,8.537243,6.8900404,1.1647481
alexnet_w3_mlp_simclrhn_probe2,1,508,NaN,keyboard,keyboard,cr,0508_cl_dnn_cr_keyboard_40_n03085013_20078.png,n03085013_20078.png,1.0,2.8646848,0.6550405,1.5624545
alexnet_w3_mlp_simclrhn_probe2,1,509,NaN,chair,chair,cr,0509_cl_dnn_cr_chair_40_n04099969_4543.png,n04099969_4543.png,1.0,-0.12994069,-1.2454813,0.78880626
alexnet_w3_mlp_simclrhn_probe2,1,510,NaN,bear,bear,cr,0510_cl_dnn_cr_bear_40_n02134418_1253.png,n02134418_1253.png,1.0,3.2535868,1.3489778,1.346762
alexnet_w3_mlp_simclrhn_probe2,1,511,NaN,bicycle,bicycle,bw,0511_cl_dnn_bw_bicycle_40_n02835271_8137.png,n02835271_8137.png,1.0,5.735674,-0.9594563,4.7341723
alexnet_w3_mlp_simclrhn_probe2,1,512,NaN,keyboard,keyboard,bw,0512_cl_dnn_bw_keyboard_40_n04505470_7312.png,n04505470_7312.png,1.0,6.9755707,1.0576029,4.184635
alexnet_w3_mlp_simclrhn_probe2,1,513,NaN,elephant,elephant,cr,0513_cl_dnn_cr_elephant_40_n02504013_2460.png,n02504013_2460.png,1.0,9.957174,-0.72513735,7.5535355
alexnet_w3_mlp_simclrhn_probe2,1,514,NaN,bicycle,clock,cr,0514_cl_dnn_cr_clock_40_n04548280_13469.png,n04548280_13469.png,0.0,-0.8195824,-0.67107475,-0.10501077
alexnet_w3_mlp_simclrhn_probe2,1,515,NaN,car,chair,cr,0515_cl_dnn_cr_chair_40_n02791124_3161.png,n02791124_3161.png,0.0,-0.56432486,0.59344894,-0.8186697
alexnet_w3_mlp_simclrhn_probe2,1,516,NaN,dog,dog,cr,0516_cl_dnn_cr_dog_40_n02093647_1818.png,n02093647_1818.png,1.0,-1.117175,-1.6772771,0.396052
alexnet_w3_mlp_simclrhn_probe2,1,517,NaN,oven,chair,cr,0517_cl_dnn_cr_chair_40_n02791124_4294.png,n02791124_4294.png,0.0,1.0636401,1.2893345,-0.15959005
alexnet_w3_mlp_simclrhn_probe2,1,518,NaN,cat,cat,cr,0518_cl_dnn_cr_cat_40_n02124075_3533.png,n02124075_3533.png,1.0,10.050644,-2.5408747,8.903548
alexnet_w3_mlp_simclrhn_probe2,1,519,NaN,boat,boat,cr,0519_cl_dnn_cr_boat_40_n03344393_2480.png,n03344393_2480.png,1.0,6.0169168,1.6959388,3.055393
alexnet_w3_mlp_simclrhn_probe2,1,520,NaN,car,car,bw,0520_cl_dnn_bw_car_40_n02814533_95054.png,n02814533_95054.png,1.0,3.1615322,0.7199824,1.7264364
alexnet_w3_mlp_simclrhn_probe2,1,521,NaN,bottle,bottle,cr,0521_cl_dnn_cr_bottle_40_n03937543_1808.png,n03937543_1808.png,1.0,7.823072,-0.7108627,6.0344033
alexnet_w3_mlp_simclrhn_probe2,1,522,NaN,car,car,cr,0522_cl_dnn_cr_car_40_n02814533_72213.png,n02814533_72213.png,1.0,9.826772,5.3149567,3.190335
alexnet_w3_mlp_simclrhn_probe2,1,523,NaN,keyboard,clock,cr,0523_cl_dnn_cr_clock_40_n03196217_1499.png,n03196217_1499.png,0.0,2.2309482,3.7949867,-1.1059422
alexnet_w3_mlp_simclrhn_probe2,1,524,NaN,cat,cat,cr,0524_cl_dnn_cr_cat_40_n02123045_5300.png,n02123045_5300.png,1.0,5.938086,0.056011926,4.1592546
alexnet_w3_mlp_simclrhn_probe2,1,525,NaN,bird,bird,bw,0525_cl_dnn_bw_bird_40_n02006656_3185.png,n02006656_3185.png,1.0,-0.7249569,-1.9990503,0.9009201
alexnet_w3_mlp_simclrhn_probe2,1,526,NaN,clock,clock,cr,0526_cl_dnn_cr_clock_40_n03196217_4541.png,n03196217_4541.png,1.0,2.8476107,1.5627427,0.9085389
alexnet_w3_mlp_simclrhn_probe2,1,527,NaN,cat,cat,cr,0527_cl_dnn_cr_cat_40_n02123159_2317.png,n02123159_2317.png,1.0,10.650577,-3.558957,10.047658
alexnet_w3_mlp_simclrhn_probe2,1,528,NaN,elephant,bear,cr,0528_cl_dnn_cr_bear_40_n02133161_1362.png,n02133161_1362.png,0.0,1.1909564,1.578218,-0.27383533
alexnet_w3_mlp_simclrhn_probe2,1,529,NaN,clock,clock,bw,0529_cl_dnn_bw_clock_40_n04548280_1202.png,n04548280_1202.png,1.0,2.0699508,0.093600355,1.3974909
alexnet_w3_mlp_simclrhn_probe2,1,530,NaN,dog,dog,bw,0530_cl_dnn_bw_dog_40_n02095570_6717.png,n02095570_6717.png,1.0,1.5379535,-0.72302324,1.598752
alexnet_w3_mlp_simclrhn_probe2,1,531,NaN,car,car,bw,0531_cl_dnn_bw_car_40_n03100240_15941.png,n03100240_15941.png,1.0,9.399143,7.2702913,1.5053257
alexnet_w3_mlp_simclrhn_probe2,1,532,NaN,chair,chair,bw,0532_cl_dnn_bw_chair_40_n02791124_1443.png,n02791124_1443.png,1.0,-0.6388024,-0.6587324,0.014092642
alexnet_w3_mlp_simclrhn_probe2,1,533,NaN,bottle,bottle,cr,0533_cl_dnn_cr_bottle_40_n04557648_830.png,n04557648_830.png,1.0,9.189627,-0.7422353,7.022887
alexnet_w3_mlp_simclrhn_probe2,1,534,NaN,truck,truck,cr,0534_cl_dnn_cr_truck_40_n03417042_8298.png,n03417042_8298.png,1.0,14.46805,8.265723,4.3857074
alexnet_w3_mlp_simclrhn_probe2,1,535,NaN,clock,clock,bw,0535_cl_dnn_bw_clock_40_n02708093_4569.png,n02708093_4569.png,1.0,7.443878,-0.02283058,5.2797604
alexnet_w3_mlp_simclrhn_probe2,1,536,NaN,keyboard,keyboard,cr,0536_cl_dnn_cr_keyboard_40_n03085013_7576.png,n03085013_7576.png,1.0,1.9937195,1.6319015,0.25584394
alexnet_w3_mlp_simclrhn_probe2,1,537,NaN,truck,truck,bw,0537_cl_dnn_bw_truck_40_n03417042_27093.png,n03417042_27093.png,1.0,6.323781,2.5563498,2.6639762
alexnet_w3_mlp_simclrhn_probe2,1,538,NaN,elephant,elephant,cr,0538_cl_dnn_cr_elephant_40_n02504013_13560.png,n02504013_13560.png,1.0,1.7271044,1.098804,0.4442755
alexnet_w3_mlp_simclrhn_probe2,1,539,NaN,car,car,bw,0539_cl_dnn_bw_car_40_n04285008_12045.png,n04285008_12045.png,1.0,9.562419,5.524304,2.8553786
alexnet_w3_mlp_simclrhn_probe2,1,540,NaN,airplane,airplane,cr,0540_cl_dnn_cr_airplane_40_n02690373_5176.png,n02690373_5176.png,1.0,16.361332,3.3248932,9.218155
alexnet_w3_mlp_simclrhn_probe2,1,541,NaN,bicycle,bicycle,bw,0541_cl_dnn_bw_bicycle_40_n03792782_6194.png,n03792782_6194.png,1.0,8.406016,-2.0725193,7.409444
alexnet_w3_mlp_simclrhn_probe2,1,542,NaN,oven,oven,cr,0542_cl_dnn_cr_oven_40_n04111531_15912.png,n04111531_15912.png,1.0,4.6961503,0.15985346,3.2076464
alexnet_w3_mlp_simclrhn_probe2,1,543,NaN,oven,oven,cr,0543_cl_dnn_cr_oven_40_n04111531_2592.png,n04111531_2592.png,1.0,2.7944438,0.64419246,1.5204574
alexnet_w3_mlp_simclrhn_probe2,1,544,NaN,bird,bird,cr,0544_cl_dnn_cr_bird_40_n02011460_2435.png,n02011460_2435.png,1.0,-1.2918216,-2.309144,0.7193556
alexnet_w3_mlp_simclrhn_probe2,1,545,NaN,truck,car,cr,0545_cl_dnn_cr_car_40_n02814533_33205.png,n02814533_33205.png,0.0,6.922113,8.615675,-1.1975292
alexnet_w3_mlp_simclrhn_probe2,1,546,NaN,chair,oven,bw,0546_cl_dnn_bw_oven_40_n04111531_14959.png,n04111531_14959.png,0.0,1.1657073,1.3594544,-0.13699985
alexnet_w3_mlp_simclrhn_probe2,1,547,NaN,clock,clock,cr,0547_cl_dnn_cr_clock_40_n04548280_6743.png,n04548280_6743.png,1.0,6.965402,-1.1938032,5.7694297
alexnet_w3_mlp_simclrhn_probe2,1,548,NaN,knife,knife,bw,0548_cl_dnn_bw_knife_40_n03041632_15299.png,n03041632_15299.png,1.0,-0.5327166,-1.0089631,0.33675715
alexnet_w3_mlp_simclrhn_probe2,1,549,NaN,knife,clock,bw,0549_cl_dnn_bw_clock_40_n03196217_127.png,n03196217_127.png,0.0,-1.5760674,-0.15367448,-1.0057837
alexnet_w3_mlp_simclrhn_probe2,1,550,NaN,boat,boat,bw,0550_cl_dnn_bw_boat_40_n04273569_12917.png,n04273569_12917.png,1.0,5.893612,2.7660437,2.2115247
alexnet_w3_mlp_simclrhn_probe2,1,551,NaN,airplane,airplane,cr,0551_cl_dnn_cr_airplane_40_n02690373_9626.png,n02690373_9626.png,1.0,10.069851,3.9242404,4.345603
alexnet_w3_mlp_simclrhn_probe2,1,552,NaN,dog,bear,cr,0552_cl_dnn_cr_bear_40_n02134084_20500.png,n02134084_20500.png,0.0,-0.08177757,0.032311473,-0.080673136
alexnet_w3_mlp_simclrhn_probe2,1,553,NaN,elephant,bear,bw,0553_cl_dnn_bw_bear_40_n02132136_6890.png,n02132136_6890.png,0.0,2.4512715,2.6518176,-0.14180745
alexnet_w3_mlp_simclrhn_probe2,1,554,NaN,bottle,bottle,bw,0554_cl_dnn_bw_bottle_40_n02823428_3049.png,n02823428_3049.png,1.0,5.45569,-0.20100711,3.9998887
alexnet_w3_mlp_simclrhn_probe2,1,555,NaN,keyboard,keyboard,cr,0555_cl_dnn_cr_keyboard_40_n03085013_22837.png,n03085013_22837.png,1.0,2.0057435,1.8077483,0.14000374
alexnet_w3_mlp_simclrhn_probe2,1,556,NaN,keyboard,keyboard,bw,0556_cl_dnn_bw_keyboard_40_n03085013_3264.png,n03085013_3264.png,1.0,6.5039454,0.42170072,4.3007965
alexnet_w3_mlp_simclrhn_probe2,1,557,NaN,bear,bear,bw,0557_cl_dnn_bw_bear_40_n02134418_7795.png,n02134418_7795.png,1.0,4.983373,2.5815134,1.6983714
alexnet_w3_mlp_simclrhn_probe2,1,558,NaN,bear,boat,bw,0558_cl_dnn_bw_boat_40_n02951358_34163.png,n02951358_34163.png,0.0,-4.2671547,0.46232173,-3.344245
alexnet_w3_mlp_simclrhn_probe2,1,559,NaN,bear,bear,cr,0559_cl_dnn_cr_bear_40_n02132136_8637.png,n02132136_8637.png,1.0,3.5455449,-0.80920976,3.0792766
alexnet_w3_mlp_simclrhn_probe2,1,560,NaN,truck,truck,cr,0560_cl_dnn_cr_truck_40_n03417042_4218.png,n03417042_4218.png,1.0,5.168194,0.34190798,3.4126995
alexnet_w3_mlp_simclrhn_probe2,1,561,NaN,chair,clock,bw,0561_cl_dnn_bw_clock_40_n04548280_4473.png,n04548280_4473.png,0.0,-0.84825104,1.6372496,-1.7575144
alexnet_w3_mlp_simclrhn_probe2,1,562,NaN,bear,bear,bw,0562_cl_dnn_bw_bear_40_n02132136_21799.png,n02132136_21799.png,1.0,1.7950032,0.057692617,1.2284641
alexnet_w3_mlp_simclrhn_probe2,1,563,NaN,bird,bird,cr,0563_cl_dnn_cr_bird_40_n01531178_5780.png,n01531178_5780.png,1.0,2.289087,-3.0382028,3.7669628
alexnet_w3_mlp_simclrhn_probe2,1,564,NaN,truck,truck,cr,0564_cl_dnn_cr_truck_40_n03796401_27184.png,n03796401_27184.png,1.0,9.407367,3.9231663,3.8779154
alexnet_w3_mlp_simclrhn_probe2,1,565,NaN,clock,clock,bw,0565_cl_dnn_bw_clock_40_n03196217_5258.png,n03196217_5258.png,1.0,1.0655199,1.0087682,0.04012953
alexnet_w3_mlp_simclrhn_probe2,1,566,NaN,airplane,bird,cr,0566_cl_dnn_cr_bird_40_n02002556_15337.png,n02002556_15337.png,0.0,-1.014874,2.022441,-2.147706
alexnet_w3_mlp_simclrhn_probe2,1,567,NaN,elephant,bottle,cr,0567_cl_dnn_cr_bottle_40_n04560804_3683.png,n04560804_3683.png,0.0,-3.0126517,-0.97544813,-1.4405205
alexnet_w3_mlp_simclrhn_probe2,1,568,NaN,bicycle,bicycle,cr,0568_cl_dnn_cr_bicycle_40_n02835271_8511.png,n02835271_8511.png,1.0,10.937567,-3.8914123,10.485672
alexnet_w3_mlp_simclrhn_probe2,1,569,NaN,elephant,bear,cr,0569_cl_dnn_cr_bear_40_n02134084_23974.png,n02134084_23974.png,0.0,1.0930896,1.2747118,-0.12842634
alexnet_w3_mlp_simclrhn_probe2,1,570,NaN,bicycle,dog,bw,0570_cl_dnn_bw_dog_40_n02091244_9271.png,n02091244_9271.png,0.0,-3.0345035,-1.7300569,-0.922383
alexnet_w3_mlp_simclrhn_probe2,1,571,NaN,bear,bear,cr,0571_cl_dnn_cr_bear_40_n02133161_6946.png,n02133161_6946.png,1.0,-0.5910453,-1.0521997,0.32608542
alexnet_w3_mlp_simclrhn_probe2,1,572,NaN,truck,truck,bw,0572_cl_dnn_bw_truck_40_n04467665_10060.png,n04467665_10060.png,1.0,2.6390376,0.43407193,1.5591462
alexnet_w3_mlp_simclrhn_probe2,1,573,NaN,oven,oven,bw,0573_cl_dnn_bw_oven_40_n04111531_5328.png,n04111531_5328.png,1.0,7.079641,2.8820777,2.9681253
alexnet_w3_mlp_simclrhn_probe2,1,574,NaN,bottle,bottle,cr,0574_cl_dnn_cr_bottle_40_n04560804_2005.png,n04560804_2005.png,1.0,-0.5844862,-0.796542,0.1499461
alexnet_w3_mlp_simclrhn_probe2,1,575,NaN,bear,bear,bw,0575_cl_dnn_bw_bear_40_n02134084_3695.png,n02134084_3695.png,1.0,-0.3973399,-0.5020213,0.07402093
alexnet_w3_mlp_simclrhn_probe2,1,576,NaN,cat,cat,bw,0576_cl_dnn_bw_cat_40_n02123597_2219.png,n02123597_2219.png,1.0,2.4260633,-0.29181737,1.921832
alexnet_w3_mlp_simclrhn_probe2,1,577,NaN,keyboard,chair,bw,0577_cl_dnn_bw_chair_40_n02791124_6077.png,n02791124_6077.png,0.0,-0.9868442,1.6839249,-1.888519
alexnet_w3_mlp_simclrhn_probe2,1,578,NaN,knife,bottle,cr,0578_cl_dnn_cr_bottle_40_n04579145_7431.png,n04579145_7431.png,0.0,-2.4682198,0.32801485,-1.9772365
alexnet_w3_mlp_simclrhn_probe2,1,579,NaN,keyboard,keyboard,bw,0579_cl_dnn_bw_keyboard_40_n04505470_510.png,n04505470_510.png,1.0,3.2778127,2.250803,0.7262055
alexnet_w3_mlp_simclrhn_probe2,1,580,NaN,oven,oven,cr,0580_cl_dnn_cr_oven_40_n04111531_4452.png,n04111531_4452.png,1.0,7.6065264,-2.4701524,7.1252885
alexnet_w3_mlp_simclrhn_probe2,1,581,NaN,elephant,elephant,bw,0581_cl_dnn_bw_elephant_40_n02504013_237.png,n02504013_237.png,1.0,7.0520067,-0.31463695,5.209004
alexnet_w3_mlp_simclrhn_probe2,1,582,NaN,elephant,elephant,cr,0582_cl_dnn_cr_elephant_40_n02504013_10351.png,n02504013_10351.png,1.0,3.026872,2.3008378,0.5133837
alexnet_w3_mlp_simclrhn_probe2,1,583,NaN,elephant,elephant,cr,0583_cl_dnn_cr_elephant_40_n02504458_1304.png,n02504458_1304.png,1.0,10.584696,3.3194244,5.1373224
alexnet_w3_mlp_simclrhn_probe2,1,584,NaN,dog,dog,bw,0584_cl_dnn_bw_dog_40_n02104365_9837.png,n02104365_9837.png,1.0,-0.38865378,-0.53737444,0.105161384
alexnet_w3_mlp_simclrhn_probe2,1,585,NaN,cat,cat,cr,0585_cl_dnn_cr_cat_40_n02123045_9661.png,n02123045_9661.png,1.0,1.610258,-0.88643515,1.7654287
alexnet_w3_mlp_simclrhn_probe2,1,586,NaN,knife,bottle,bw,0586_cl_dnn_bw_bottle_40_n02823428_5214.png,n02823428_5214.png,0.0,-1.8101598,-0.11537365,-1.1983948
alexnet_w3_mlp_simclrhn_probe2,1,587,NaN,bird,bird,bw,0587_cl_dnn_bw_bird_40_n01828970_5448.png,n01828970_5448.png,1.0,3.4625397,-1.141514,3.2555575
alexnet_w3_mlp_simclrhn_probe2,1,588,NaN,chair,car,cr,0588_cl_dnn_cr_car_40_n02814533_83874.png,n02814533_83874.png,0.0,-0.52956164,0.08448139,-0.43419397
alexnet_w3_mlp_simclrhn_probe2,1,589,NaN,oven,oven,bw,0589_cl_dnn_bw_oven_40_n04111531_8036.png,n04111531_8036.png,1.0,7.118519,-2.0162578,6.459263
alexnet_w3_mlp_simclrhn_probe2,1,590,NaN,oven,oven,cr,0590_cl_dnn_cr_oven_40_n04111531_7355.png,n04111531_7355.png,1.0,3.0625305,0.89983827,1.5292544
alexnet_w3_mlp_simclrhn_probe2,1,591,NaN,car,car,bw,0591_cl_dnn_bw_car_40_n04285008_13354.png,n04285008_13354.png,1.0,2.893667,2.2048635,0.4870576
alexnet_w3_mlp_simclrhn_probe2,1,592,NaN,keyboard,clock,cr,0592_cl_dnn_cr_clock_40_n02708093_8267.png,n02708093_8267.png,0.0,-0.2304488,1.6986675,-1.3640913
alexnet_w3_mlp_simclrhn_probe2,1,593,NaN,cat,cat,bw,0593_cl_dnn_bw_cat_40_n02124075_14242.png,n02124075_14242.png,1.0,4.2263756,-1.7284362,4.210688
alexnet_w3_mlp_simclrhn_probe2,1,594,NaN,knife,knife,cr,0594_cl_dnn_cr_knife_40_n03041632_4279.png,n03041632_4279.png,1.0,1.066573,-0.324515,0.98364776
alexnet_w3_mlp_simclrhn_probe2,1,595,NaN,oven,oven,cr,0595_cl_dnn_cr_oven_40_n04111531_2296.png,n04111531_2296.png,1.0,4.0492396,-0.19484074,3.0010183
alexnet_w3_mlp_simclrhn_probe2,1,596,NaN,boat,boat,cr,0596_cl_dnn_cr_boat_40_n03344393_5859.png,n03344393_5859.png,1.0,8.512426,3.12613,3.8086867
alexnet_w3_mlp_simclrhn_probe2,1,597,NaN,car,car,cr,0597_cl_dnn_cr_car_40_n02814533_57176.png,n02814533_57176.png,1.0,6.1255436,5.922854,0.14332323
alexnet_w3_mlp_simclrhn_probe2,1,598,NaN,elephant,cat,bw,0598_cl_dnn_bw_cat_40_n02123159_1769.png,n02123159_1769.png,0.0,-1.0836235,-0.48120514,-0.42597416
alexnet_w3_mlp_simclrhn_probe2,1,599,NaN,clock,clock,cr,0599_cl_dnn_cr_clock_40_n02708093_4976.png,n02708093_4976.png,1.0,8.011529,-0.124095194,5.752755
alexnet_w3_mlp_simclrhn_probe2,1,600,NaN,car,truck,cr,0600_cl_dnn_cr_truck_40_n03796401_8864.png,n03796401_8864.png,0.0,2.7301497,4.105128,-0.9722563
alexnet_w3_mlp_simclrhn_probe2,1,601,NaN,clock,clock,bw,0601_cl_dnn_bw_clock_40_n03196217_868.png,n03196217_868.png,1.0,4.106026,2.9166613,0.841008
alexnet_w3_mlp_simclrhn_probe2,1,602,NaN,cat,keyboard,bw,0602_cl_dnn_bw_keyboard_40_n03085013_3910.png,n03085013_3910.png,0.0,-5.46695,-0.8076752,-3.2946048
alexnet_w3_mlp_simclrhn_probe2,1,603,NaN,bicycle,bicycle,cr,0603_cl_dnn_cr_bicycle_40_n03792782_5466.png,n03792782_5466.png,1.0,9.211599,-1.4694645,7.552653
alexnet_w3_mlp_simclrhn_probe2,1,604,NaN,bear,bear,bw,0604_cl_dnn_bw_bear_40_n02132136_23248.png,n02132136_23248.png,1.0,3.7894623,0.5517588,2.2894022
alexnet_w3_mlp_simclrhn_probe2,1,605,NaN,truck,truck,bw,0605_cl_dnn_bw_truck_40_n03417042_2794.png,n03417042_2794.png,1.0,4.3806033,0.42607808,2.7962716
alexnet_w3_mlp_simclrhn_probe2,1,606,NaN,oven,chair,bw,0606_cl_dnn_bw_chair_40_n02791124_7324.png,n02791124_7324.png,0.0,0.76578724,1.2955493,-0.37459832
alexnet_w3_mlp_simclrhn_probe2,1,607,NaN,bicycle,bicycle,bw,0607_cl_dnn_bw_bicycle_40_n02835271_6736.png,n02835271_6736.png,1.0,5.896374,0.6246582,3.7276664
alexnet_w3_mlp_simclrhn_probe2,1,608,NaN,clock,clock,bw,0608_cl_dnn_bw_clock_40_n04548280_8990.png,n04548280_8990.png,1.0,10.81702,-3.1267207,9.859714
alexnet_w3_mlp_simclrhn_probe2,1,609,NaN,airplane,airplane,bw,0609_cl_dnn_bw_airplane_40_n02690373_971.png,n02690373_971.png,1.0,0.73476046,-0.75549847,1.0537722
alexnet_w3_mlp_simclrhn_probe2,1,610,NaN,dog,bear,bw,0610_cl_dnn_bw_bear_40_n02132136_23853.png,n02132136_23853.png,0.0,0.16510063,0.5815961,-0.29450676
alexnet_w3_mlp_simclrhn_probe2,1,611,NaN,clock,clock,cr,0611_cl_dnn_cr_clock_40_n03196217_3416.png,n03196217_3416.png,1.0,3.2588575,1.7243506,1.0850602
alexnet_w3_mlp_simclrhn_probe2,1,612,NaN,knife,clock,bw,0612_cl_dnn_bw_clock_40_n04548280_4346.png,n04548280_4346.png,0.0,-2.090573,-0.2313152,-1.3146939
alexnet_w3_mlp_simclrhn_probe2,1,613,NaN,oven,oven,cr,0613_cl_dnn_cr_oven_40_n04111531_2342.png,n04111531_2342.png,1.0,8.498744,0.29846588,5.7984724
alexnet_w3_mlp_simclrhn_probe2,1,614,NaN,chair,chair,bw,0614_cl_dnn_bw_chair_40_n04099969_8509.png,n04099969_8509.png,1.0,1.7445419,0.012484312,1.2247497
alexnet_w3_mlp_simclrhn_probe2,1,615,NaN,bottle,bottle,bw,0615_cl_dnn_bw_bottle_40_n03937543_4340.png,n03937543_4340.png,1.0,-0.37224802,-0.99372405,0.43944994
alexnet_w3_mlp_simclrhn_probe2,1,616,NaN,boat,clock,bw,0616_cl_dnn_bw_clock_40_n02708093_6655.png,n02708093_6655.png,0.0,-2.6601093,1.7491983,-3.1178513
alexnet_w3_mlp_simclrhn_probe2,1,617,NaN,cat,cat,cr,0617_cl_dnn_cr_cat_40_n02123159_1339.png,n02123159_1339.png,1.0,8.200499,-1.5282209,6.879244
alexnet_w3_mlp_simclrhn_probe2,1,618,NaN,knife,knife,bw,0618_cl_dnn_bw_knife_40_n03041632_30553.png,n03041632_30553.png,1.0,-0.04786988,-0.10481179,0.04026401
alexnet_w3_mlp_simclrhn_probe2,1,619,NaN,bicycle,bicycle,cr,0619_cl_dnn_cr_bicycle_40_n03792782_18707.png,n03792782_18707.png,1.0,8.438925,-0.88836956,6.595393
alexnet_w3_mlp_simclrhn_probe2,1,620,NaN,elephant,elephant,bw,0620_cl_dnn_bw_elephant_40_n02504458_3648.png,n02504458_3648.png,1.0,16.91099,2.6085136,10.113378
alexnet_w3_mlp_simclrhn_probe2,1,621,NaN,elephant,elephant,cr,0621_cl_dnn_cr_elephant_40_n02504458_1179.png,n02504458_1179.png,1.0,12.791208,4.4400105,5.905189
alexnet_w3_mlp_simclrhn_probe2,1,622,NaN,clock,clock,bw,0622_cl_dnn_bw_clock_40_n02708093_391.png,n02708093_391.png,1.0,4.6165843,0.97065204,2.5780635
alexnet_w3_mlp_simclrhn_probe2,1,623,NaN,airplane,car,cr,0623_cl_dnn_cr_car_40_n04285008_3453.png,n04285008_3453.png,0.0,-1.0265614,2.2888932,-2.3443804
alexnet_w3_mlp_simclrhn_probe2,1,624,NaN,airplane,airplane,bw,0624_cl_dnn_bw_airplane_40_n02690373_2800.png,n02690373_2800.png,1.0,7.8508887,-0.7723721,6.097566
alexnet_w3_mlp_simclrhn_probe2,1,625,NaN,cat,cat,cr,0625_cl_dnn_cr_cat_40_n02123394_979.png,n02123394_979.png,1.0,1.8361874,-0.00975821,1.3052807
alexnet_w3_mlp_simclrhn_probe2,1,626,NaN,bear,dog,cr,0626_cl_dnn_cr_dog_40_n02105641_4701.png,n02105641_4701.png,0.0,0.31772128,0.46819127,-0.10639835
alexnet_w3_mlp_simclrhn_probe2,1,627,NaN,boat,boat,cr,0627_cl_dnn_cr_boat_40_n04273569_13641.png,n04273569_13641.png,1.0,6.1849546,4.7291603,1.029402
alexnet_w3_mlp_simclrhn_probe2,1,628,NaN,airplane,car,cr,0628_cl_dnn_cr_car_40_n02814533_74825.png,n02814533_74825.png,0.0,-3.3461342,-0.9743725,-1.6770889
alexnet_w3_mlp_simclrhn_probe2,1,629,NaN,airplane,airplane,cr,0629_cl_dnn_cr_airplane_40_n02690373_6812.png,n02690373_6812.png,1.0,11.041586,1.6208855,6.661441
alexnet_w3_mlp_simclrhn_probe2,1,630,NaN,car,car,bw,0630_cl_dnn_bw_car_40_n03100240_19223.png,n03100240_19223.png,1.0,15.753493,10.149614,3.9625409
alexnet_w3_mlp_simclrhn_probe2,1,631,NaN,bottle,bottle,bw,0631_cl_dnn_bw_bottle_40_n03983396_3817.png,n03983396_3817.png,1.0,7.1537547,-1.5686321,6.1676593
alexnet_w3_mlp_simclrhn_probe2,1,632,NaN,elephant,elephant,bw,0632_cl_dnn_bw_elephant_40_n02504013_1432.png,n02504013_1432.png,1.0,5.674627,-0.9123058,4.657665
alexnet_w3_mlp_simclrhn_probe2,1,633,NaN,boat,boat,cr,0633_cl_dnn_cr_boat_40_n03662601_35008.png,n03662601_35008.png,1.0,6.448777,4.1218143,1.6454113
alexnet_w3_mlp_simclrhn_probe2,1,634,NaN,oven,oven,bw,0634_cl_dnn_bw_oven_40_n04111531_14055.png,n04111531_14055.png,1.0,5.216449,-0.6223683,4.1286674
alexnet_w3_mlp_simclrhn_probe2,1,635,NaN,airplane,airplane,bw,0635_cl_dnn_bw_airplane_40_n02690373_9812.png,n02690373_9812.png,1.0,9.170721,2.2801375,4.8723783
alexnet_w3_mlp_simclrhn_probe2,1,636,NaN,truck,car,cr,0636_cl_dnn_cr_car_40_n04285008_6200.png,n04285008_6200.png,0.0,3.6902335,4.688548,-0.70591503
alexnet_w3_mlp_simclrhn_probe2,1,637,NaN,clock,clock,cr,0637_cl_dnn_cr_clock_40_n04548280_5889.png,n04548280_5889.png,1.0,4.49415,-0.4268478,3.4796712
alexnet_w3_mlp_simclrhn_probe2,1,638,NaN,chair,chair,bw,0638_cl_dnn_bw_chair_40_n03376595_2924.png,n03376595_2924.png,1.0,0.13925275,-0.6382497,0.54977727
alexnet_w3_mlp_simclrhn_probe2,1,639,NaN,airplane,airplane,bw,0639_cl_dnn_bw_airplane_40_n02690373_693.png,n02690373_693.png,1.0,4.892829,2.4827924,1.7041532
alexnet_w3_mlp_simclrhn_probe2,1,640,NaN,bicycle,bicycle,bw,0640_cl_dnn_bw_bicycle_40_n03792782_1778.png,n03792782_1778.png,1.0,9.047234,0.91923285,5.747364
alexnet_w3_mlp_simclrhn_probe2,1,641,NaN,clock,clock,cr,0641_cl_dnn_cr_clock_40_n02708093_444.png,n02708093_444.png,1.0,3.8829556,0.26071596,2.5613103
alexnet_w3_mlp_simclrhn_probe2,1,642,NaN,clock,clock,cr,0642_cl_dnn_cr_clock_40_n02708093_3385.png,n02708093_3385.png,1.0,3.288824,-1.2328205,3.1972857
alexnet_w3_mlp_simclrhn_probe2,1,643,NaN,clock,clock,cr,0643_cl_dnn_cr_clock_40_n03196217_970.png,n03196217_970.png,1.0,2.626662,1.703511,0.65276635
alexnet_w3_mlp_simclrhn_probe2,1,644,NaN,clock,clock,bw,0644_cl_dnn_bw_clock_40_n04548280_4839.png,n04548280_4839.png,1.0,0.98087716,0.8236005,0.11121142
alexnet_w3_mlp_simclrhn_probe2,1,645,NaN,truck,truck,bw,0645_cl_dnn_bw_truck_40_n03796401_1853.png,n03796401_1853.png,1.0,3.7709064,1.5364462,1.5800021
alexnet_w3_mlp_simclrhn_probe2,1,646,NaN,oven,bottle,bw,0646_cl_dnn_bw_bottle_40_n04591713_2680.png,n04591713_2680.png,0.0,-1.4950436,0.35885763,-1.3109062
