subj,session,trial,rt,object_response,category,condition,imagename,filename,is_correct,targ_act,max_nontarg_act,decision_margin
bagnet33,1,1,NaN,oven,oven,cr,0001_cl_dnn_cr_oven_40_n04111531_14126.png,n04111531_14126.png,1.0,23.894955,6.1040773,12.58005
bagnet33,1,2,NaN,bear,bear,cr,0002_cl_dnn_cr_bear_40_n02134084_5274.png,n02134084_5274.png,1.0,13.146967,9.031344,2.9101846
bagnet33,1,3,NaN,cat,cat,cr,0003_cl_dnn_cr_cat_40_n02123394_133.png,n02123394_133.png,1.0,7.6020665,2.5474749,3.574136
bagnet33,1,4,NaN,car,car,cr,0004_cl_dnn_cr_car_40_n02814533_51190.png,n02814533_51190.png,1.0,15.307691,10.675583,3.275395
bagnet33,1,5,NaN,chair,chair,bw,0005_cl_dnn_bw_chair_40_n04099969_14986.png,n04099969_14986.png,1.0,9.561984,4.2796636,3.7351646
bagnet33,1,6,NaN,elephant,elephant,cr,0006_cl_dnn_cr_elephant_40_n02504013_6731.png,n02504013_6731.png,1.0,19.362682,3.4761882,11.233448
bagnet33,1,7,NaN,bottle,bottle,cr,0007_cl_dnn_cr_bottle_40_n02823428_987.png,n02823428_987.png,1.0,24.880083,7.217017,12.489675
bagnet33,1,8,NaN,truck,truck,cr,0008_cl_dnn_cr_truck_40_n03417042_7458.png,n03417042_7458.png,1.0,13.688175,7.326377,4.498471
bagnet33,1,9,NaN,chair,chair,bw,0009_cl_dnn_bw_chair_40_n04099969_4577.png,n04099969_4577.png,1.0,11.934582,2.899567,6.3887205
bagnet33,1,10,NaN,knife,knife,cr,0010_cl_dnn_cr_knife_40_n03041632_83472.png,n03041632_83472.png,1.0,2.656167,2.3913581,0.18724817
bagnet33,1,11,NaN,elephant,elephant,bw,0011_cl_dnn_bw_elephant_40_n02504458_3485.png,n02504458_3485.png,1.0,21.586178,2.3939,13.570991
bagnet33,1,12,NaN,bear,bear,bw,0012_cl_dnn_bw_bear_40_n02133161_1066.png,n02133161_1066.png,1.0,7.6991353,7.0434217,0.46365952
bagnet33,1,13,NaN,elephant,elephant,bw,0013_cl_dnn_bw_elephant_40_n02504013_1060.png,n02504013_1060.png,1.0,11.215941,2.4607954,6.190823
bagnet33,1,14,NaN,elephant,bear,bw,0014_cl_dnn_bw_bear_40_n02134084_1009.png,n02134084_1009.png,0.0,1.0382596,4.4370093,-2.403279
bagnet33,1,15,NaN,cat,cat,cr,0015_cl_dnn_cr_cat_40_n02125311_13383.png,n02125311_13383.png,1.0,17.477438,8.10397,6.628043
bagnet33,1,16,NaN,elephant,elephant,bw,0016_cl_dnn_bw_elephant_40_n02504013_257.png,n02504013_257.png,1.0,14.935562,3.757265,7.9042497
bagnet33,1,17,NaN,bottle,cat,bw,0017_cl_dnn_bw_cat_40_n02123045_6445.png,n02123045_6445.png,0.0,0.6319245,4.204211,-2.525988
bagnet33,1,18,NaN,airplane,airplane,bw,0018_cl_dnn_bw_airplane_40_n02690373_3493.png,n02690373_3493.png,1.0,30.131905,5.372557,17.507504
bagnet33,1,19,NaN,airplane,airplane,bw,0019_cl_dnn_bw_airplane_40_n02690373_5184.png,n02690373_5184.png,1.0,38.047993,9.939618,19.875624
bagnet33,1,20,NaN,truck,truck,bw,0020_cl_dnn_bw_truck_40_n04467665_22637.png,n04467665_22637.png,1.0,8.465715,7.8309436,0.44885147
bagnet33,1,21,NaN,cat,cat,cr,0021_cl_dnn_cr_cat_40_n02123159_10952.png,n02123159_10952.png,1.0,23.516027,6.656449,11.921523
bagnet33,1,22,NaN,airplane,airplane,bw,0022_cl_dnn_bw_airplane_40_n02690373_3620.png,n02690373_3620.png,1.0,13.864283,5.1520023,6.1605124
bagnet33,1,23,NaN,bottle,bottle,cr,0023_cl_dnn_cr_bottle_40_n04557648_10744.png,n04557648_10744.png,1.0,6.3796287,5.617091,0.5391954
bagnet33,1,24,NaN,oven,oven,bw,0024_cl_dnn_bw_oven_40_n04111531_12702.png,n04111531_12702.png,1.0,10.631724,4.294377,4.4811816
bagnet33,1,25,NaN,elephant,bear,cr,0025_cl_dnn_cr_bear_40_n02133161_9949.png,n02133161_9949.png,0.0,3.403655,7.0872474,-2.6046932
bagnet33,1,26,NaN,keyboard,keyboard,cr,0026_cl_dnn_cr_keyboard_40_n03085013_3489.png,n03085013_3489.png,1.0,4.7671165,3.024656,1.2321056
bagnet33,1,27,NaN,elephant,elephant,bw,0027_cl_dnn_bw_elephant_40_n02504458_4633.png,n02504458_4633.png,1.0,20.054281,3.492238,11.711133
bagnet33,1,28,NaN,clock,clock,cr,0028_cl_dnn_cr_clock_40_n04548280_7816.png,n04548280_7816.png,1.0,9.18772,4.303034,3.453995
bagnet33,1,29,NaN,dog,dog,bw,0029_cl_dnn_bw_dog_40_n02097474_1859.png,n02097474_1859.png,1.0,10.291215,2.4778016,5.524918
bagnet33,1,30,NaN,cat,cat,bw,0030_cl_dnn_bw_cat_40_n02123394_916.png,n02123394_916.png,1.0,10.476814,2.8948557,5.3612547
bagnet33,1,31,NaN,elephant,elephant,cr,0031_cl_dnn_cr_elephant_40_n02504458_3525.png,n02504458_3525.png,1.0,30.496729,6.268898,17.131664
bagnet33,1,32,NaN,bear,bear,bw,0032_cl_dnn_bw_bear_40_n02134418_4456.png,n02134418_4456.png,1.0,11.557559,7.5622234,2.825129
bagnet33,1,33,NaN,keyboard,keyboard,bw,0033_cl_dnn_bw_keyboard_40_n03085013_24045.png,n03085013_24045.png,1.0,15.282877,14.133029,0.81306535
bagnet33,1,34,NaN,knife,knife,bw,0034_cl_dnn_bw_knife_40_n03041632_49363.png,n03041632_49363.png,1.0,6.0504637,5.866265,0.13024826
bagnet33,1,35,NaN,cat,cat,bw,0035_cl_dnn_bw_cat_40_n02123159_7854.png,n02123159_7854.png,1.0,8.8624935,3.4449754,3.8307638
bagnet33,1,36,NaN,knife,knife,cr,0036_cl_dnn_cr_knife_40_n03041632_4708.png,n03041632_4708.png,1.0,9.343874,6.278219,2.1677454
bagnet33,1,37,NaN,chair,chair,cr,0037_cl_dnn_cr_chair_40_n04429376_7788.png,n04429376_7788.png,1.0,12.023788,5.123783,4.8790407
bagnet33,1,38,NaN,car,car,cr,0038_cl_dnn_cr_car_40_n03100240_9086.png,n03100240_9086.png,1.0,16.213486,7.5822096,6.103234
bagnet33,1,39,NaN,bicycle,chair,cr,0039_cl_dnn_cr_chair_40_n03376595_3038.png,n03376595_3038.png,0.0,4.5710063,5.3419743,-0.54515666
bagnet33,1,40,NaN,truck,truck,bw,0040_cl_dnn_bw_truck_40_n03796401_1758.png,n03796401_1758.png,1.0,7.0465946,6.8903008,0.11051646
bagnet33,1,41,NaN,boat,boat,cr,0041_cl_dnn_cr_boat_40_n04273569_4324.png,n04273569_4324.png,1.0,15.715238,4.138947,8.185674
bagnet33,1,42,NaN,elephant,bear,cr,0042_cl_dnn_cr_bear_40_n02134084_1090.png,n02134084_1090.png,0.0,4.98864,9.327881,-3.068307
bagnet33,1,43,NaN,elephant,bicycle,bw,0043_cl_dnn_bw_bicycle_40_n03792782_13665.png,n03792782_13665.png,0.0,1.9707683,5.576908,-2.5499258
bagnet33,1,44,NaN,knife,knife,bw,0044_cl_dnn_bw_knife_40_n03041632_36215.png,n03041632_36215.png,1.0,12.027609,4.843538,5.0799055
bagnet33,1,45,NaN,car,car,bw,0045_cl_dnn_bw_car_40_n04285008_7770.png,n04285008_7770.png,1.0,18.89673,11.328408,5.351612
bagnet33,1,46,NaN,bottle,bottle,cr,0046_cl_dnn_cr_bottle_40_n03983396_15260.png,n03983396_15260.png,1.0,14.701696,3.3841043,8.002747
bagnet33,1,47,NaN,dog,dog,cr,0047_cl_dnn_cr_dog_40_n02091635_6519.png,n02091635_6519.png,1.0,6.0425434,5.579832,0.32718632
bagnet33,1,48,NaN,elephant,elephant,cr,0048_cl_dnn_cr_elephant_40_n02504013_3485.png,n02504013_3485.png,1.0,29.231386,6.9525337,15.753528
bagnet33,1,49,NaN,oven,oven,cr,0049_cl_dnn_cr_oven_40_n04111531_807.png,n04111531_807.png,1.0,16.486572,7.3433332,6.465246
bagnet33,1,50,NaN,oven,oven,cr,0050_cl_dnn_cr_oven_40_n04111531_605.png,n04111531_605.png,1.0,13.369535,6.5377936,4.830771
bagnet33,1,51,NaN,elephant,dog,bw,0051_cl_dnn_bw_dog_40_n02109047_2662.png,n02109047_2662.png,0.0,1.240294,9.831919,-6.0751967
bagnet33,1,52,NaN,truck,truck,cr,0052_cl_dnn_cr_truck_40_n03417042_16038.png,n03417042_16038.png,1.0,12.642311,6.3910894,4.4202814
bagnet33,1,53,NaN,truck,truck,bw,0053_cl_dnn_bw_truck_40_n03796401_1710.png,n03796401_1710.png,1.0,9.56724,6.7115545,2.0192745
bagnet33,1,54,NaN,cat,cat,cr,0054_cl_dnn_cr_cat_40_n02125311_20921.png,n02125311_20921.png,1.0,18.638926,1.9806277,11.779196
bagnet33,1,55,NaN,bear,bear,cr,0055_cl_dnn_cr_bear_40_n02133161_575.png,n02133161_575.png,1.0,5.540433,2.7359705,1.9830544
bagnet33,1,56,NaN,chair,chair,bw,0056_cl_dnn_bw_chair_40_n04429376_21865.png,n04429376_21865.png,1.0,6.229543,4.366273,1.3175311
bagnet33,1,57,NaN,bicycle,bird,bw,0057_cl_dnn_bw_bird_40_n01616318_26436.png,n01616318_26436.png,0.0,2.809939,3.9427633,-0.80102783
bagnet33,1,58,NaN,oven,oven,cr,0058_cl_dnn_cr_oven_40_n04111531_9498.png,n04111531_9498.png,1.0,23.526575,6.1684623,12.274039
bagnet33,1,59,NaN,bear,bear,bw,0059_cl_dnn_bw_bear_40_n02134418_397.png,n02134418_397.png,1.0,8.3112,6.29473,1.4258596
bagnet33,1,60,NaN,chair,chair,cr,0060_cl_dnn_cr_chair_40_n04099969_23961.png,n04099969_23961.png,1.0,7.0772305,4.201145,2.0336995
bagnet33,1,61,NaN,elephant,dog,bw,0061_cl_dnn_bw_dog_40_n02093256_7181.png,n02093256_7181.png,0.0,1.3793191,4.404394,-2.139051
bagnet33,1,62,NaN,bicycle,bicycle,cr,0062_cl_dnn_cr_bicycle_40_n02835271_26731.png,n02835271_26731.png,1.0,21.148394,4.9272766,11.470062
bagnet33,1,63,NaN,cat,cat,cr,0063_cl_dnn_cr_cat_40_n02125311_12557.png,n02125311_12557.png,1.0,17.144678,2.9737253,10.020377
bagnet33,1,64,NaN,elephant,dog,cr,0064_cl_dnn_cr_dog_40_n02093647_2890.png,n02093647_2890.png,0.0,3.76366,5.7373605,-1.395617
bagnet33,1,65,NaN,oven,knife,cr,0065_cl_dnn_cr_knife_40_n03041632_14293.png,n03041632_14293.png,0.0,6.6157866,8.88837,-1.6069589
bagnet33,1,66,NaN,oven,oven,bw,0066_cl_dnn_bw_oven_40_n04111531_20359.png,n04111531_20359.png,1.0,16.313911,5.486433,7.6561837
bagnet33,1,67,NaN,truck,truck,bw,0067_cl_dnn_bw_truck_40_n04467665_12177.png,n04467665_12177.png,1.0,16.227064,11.234798,3.530065
bagnet33,1,68,NaN,bicycle,bicycle,cr,0068_cl_dnn_cr_bicycle_40_n02835271_19400.png,n02835271_19400.png,1.0,15.652569,5.537395,7.152508
bagnet33,1,69,NaN,truck,truck,cr,0069_cl_dnn_cr_truck_40_n03417042_1263.png,n03417042_1263.png,1.0,9.673689,8.176092,1.0589608
bagnet33,1,70,NaN,cat,cat,bw,0070_cl_dnn_bw_cat_40_n02123045_8336.png,n02123045_8336.png,1.0,14.082725,2.8414307,7.9487953
bagnet33,1,71,NaN,bear,bear,bw,0071_cl_dnn_bw_bear_40_n02134418_5405.png,n02134418_5405.png,1.0,14.039013,7.1960807,4.838684
bagnet33,1,72,NaN,car,car,bw,0072_cl_dnn_bw_car_40_n04285008_2906.png,n04285008_2906.png,1.0,14.4987335,8.708119,4.0945826
bagnet33,1,73,NaN,bird,bird,cr,0073_cl_dnn_cr_bird_40_n01818515_10517.png,n01818515_10517.png,1.0,12.061445,3.2734098,6.2140794
bagnet33,1,74,NaN,truck,truck,cr,0074_cl_dnn_cr_truck_40_n03796401_14203.png,n03796401_14203.png,1.0,11.986781,6.6439767,3.7779334
bagnet33,1,75,NaN,elephant,bird,bw,0075_cl_dnn_bw_bird_40_n02009229_2503.png,n02009229_2503.png,0.0,5.79232,6.8827734,-0.77106714
bagnet33,1,76,NaN,bottle,bottle,bw,0076_cl_dnn_bw_bottle_40_n02823428_6767.png,n02823428_6767.png,1.0,12.160995,2.7386653,6.662593
bagnet33,1,77,NaN,bicycle,bicycle,bw,0077_cl_dnn_bw_bicycle_40_n02835271_12847.png,n02835271_12847.png,1.0,8.672895,3.4019437,3.727126
bagnet33,1,78,NaN,bicycle,bicycle,cr,0078_cl_dnn_cr_bicycle_40_n02835271_24104.png,n02835271_24104.png,1.0,29.502165,4.006103,18.028439
bagnet33,1,79,NaN,clock,clock,cr,0079_cl_dnn_cr_clock_40_n04548280_77.png,n04548280_77.png,1.0,38.469593,8.317253,21.320925
bagnet33,1,80,NaN,cat,cat,bw,0080_cl_dnn_bw_cat_40_n02123394_6698.png,n02123394_6698.png,1.0,24.096743,6.3686056,12.5356865
bagnet33,1,81,NaN,keyboard,keyboard,cr,0081_cl_dnn_cr_keyboard_40_n04505470_4356.png,n04505470_4356.png,1.0,48.67521,14.614727,24.084398
bagnet33,1,82,NaN,chair,chair,cr,0082_cl_dnn_cr_chair_40_n04429376_16325.png,n04429376_16325.png,1.0,10.090486,7.9779496,1.4937885
bagnet33,1,83,NaN,elephant,elephant,bw,0083_cl_dnn_bw_elephant_40_n02504458_6721.png,n02504458_6721.png,1.0,9.446775,2.4960334,4.9149165
bagnet33,1,84,NaN,truck,truck,cr,0084_cl_dnn_cr_truck_40_n03417042_6213.png,n03417042_6213.png,1.0,23.608757,13.455897,7.179156
bagnet33,1,85,NaN,dog,dog,bw,0085_cl_dnn_bw_dog_40_n02097130_8277.png,n02097130_8277.png,1.0,5.4752927,4.4847326,0.70043176
bagnet33,1,86,NaN,bottle,bottle,cr,0086_cl_dnn_cr_bottle_40_n04557648_1856.png,n04557648_1856.png,1.0,4.05419,2.921658,0.8008212
bagnet33,1,87,NaN,bottle,bird,bw,0087_cl_dnn_bw_bird_40_n01531178_10905.png,n01531178_10905.png,0.0,-1.1938226,4.282429,-3.8722947
bagnet33,1,88,NaN,elephant,bear,cr,0088_cl_dnn_cr_bear_40_n02133161_2202.png,n02133161_2202.png,0.0,6.768244,7.5220923,-0.53305143
bagnet33,1,89,NaN,elephant,elephant,cr,0089_cl_dnn_cr_elephant_40_n02504458_10439.png,n02504458_10439.png,1.0,28.40969,2.088779,18.611694
bagnet33,1,90,NaN,clock,clock,cr,0090_cl_dnn_cr_clock_40_n02708093_6766.png,n02708093_6766.png,1.0,5.9225,3.752184,1.5346453
bagnet33,1,91,NaN,airplane,bottle,bw,0091_cl_dnn_bw_bottle_40_n03983396_2057.png,n03983396_2057.png,0.0,10.817737,13.874987,-2.1618023
bagnet33,1,92,NaN,knife,knife,bw,0092_cl_dnn_bw_knife_40_n03041632_10000.png,n03041632_10000.png,1.0,9.749626,7.2979407,1.7336035
bagnet33,1,93,NaN,cat,cat,cr,0093_cl_dnn_cr_cat_40_n02125311_2959.png,n02125311_2959.png,1.0,18.623154,6.0507154,8.890057
bagnet33,1,94,NaN,car,car,bw,0094_cl_dnn_bw_car_40_n04285008_13759.png,n04285008_13759.png,1.0,21.012613,10.380444,7.5180793
bagnet33,1,95,NaN,bottle,bottle,cr,0095_cl_dnn_cr_bottle_40_n03937543_396.png,n03937543_396.png,1.0,21.920744,12.185291,6.8840046
bagnet33,1,96,NaN,airplane,boat,bw,0096_cl_dnn_bw_boat_40_n03662601_3984.png,n03662601_3984.png,0.0,6.2882524,9.605118,-2.3453782
bagnet33,1,97,NaN,airplane,truck,bw,0097_cl_dnn_bw_truck_40_n04467665_2230.png,n04467665_2230.png,0.0,10.501244,11.584103,-0.765697
bagnet33,1,98,NaN,boat,boat,cr,0098_cl_dnn_cr_boat_40_n03662601_28640.png,n03662601_28640.png,1.0,16.254457,5.878759,7.3367267
bagnet33,1,99,NaN,cat,cat,cr,0099_cl_dnn_cr_cat_40_n02124075_11039.png,n02124075_11039.png,1.0,29.023909,5.694601,16.496311
bagnet33,1,100,NaN,knife,knife,bw,0100_cl_dnn_bw_knife_40_n03041632_7380.png,n03041632_7380.png,1.0,9.367493,7.6412563,1.2206334
bagnet33,1,101,NaN,cat,cat,cr,0101_cl_dnn_cr_cat_40_n02123045_6607.png,n02123045_6607.png,1.0,36.68102,12.499447,17.098953
bagnet33,1,102,NaN,truck,chair,cr,0102_cl_dnn_cr_chair_40_n03376595_6704.png,n03376595_6704.png,0.0,3.7570524,3.78223,-0.017803166
bagnet33,1,103,NaN,bear,bear,bw,0103_cl_dnn_bw_bear_40_n02133161_12187.png,n02133161_12187.png,1.0,16.11721,6.8589478,6.5465803
bagnet33,1,104,NaN,cat,dog,cr,0104_cl_dnn_cr_dog_40_n02110958_2363.png,n02110958_2363.png,0.0,5.2836003,5.450693,-0.118152454
bagnet33,1,105,NaN,airplane,airplane,cr,0105_cl_dnn_cr_airplane_40_n02690373_19438.png,n02690373_19438.png,1.0,22.021748,5.9130387,11.390578
bagnet33,1,106,NaN,bird,bird,cr,0106_cl_dnn_cr_bird_40_n01855032_5511.png,n01855032_5511.png,1.0,3.3999124,2.143641,0.888318
bagnet33,1,107,NaN,boat,boat,bw,0107_cl_dnn_bw_boat_40_n04273569_9821.png,n04273569_9821.png,1.0,16.382462,6.3974705,7.060455
bagnet33,1,108,NaN,truck,bear,bw,0108_cl_dnn_bw_bear_40_n02133161_13461.png,n02133161_13461.png,0.0,0.33222717,2.0506763,-1.215127
bagnet33,1,109,NaN,dog,dog,cr,0109_cl_dnn_cr_dog_40_n02113023_8552.png,n02113023_8552.png,1.0,1.6792692,1.4041349,0.19454935
bagnet33,1,110,NaN,elephant,elephant,cr,0110_cl_dnn_cr_elephant_40_n02504458_1600.png,n02504458_1600.png,1.0,30.176071,3.0563226,19.17656
bagnet33,1,111,NaN,chair,chair,cr,0111_cl_dnn_cr_chair_40_n04099969_4205.png,n04099969_4205.png,1.0,18.55966,3.605082,10.574484
bagnet33,1,112,NaN,bicycle,dog,bw,0112_cl_dnn_bw_dog_40_n02105505_2121.png,n02105505_2121.png,0.0,4.146406,4.3038516,-0.11133073
bagnet33,1,113,NaN,chair,chair,cr,0113_cl_dnn_cr_chair_40_n02791124_4528.png,n02791124_4528.png,1.0,10.353435,4.9909606,3.7918417
bagnet33,1,114,NaN,truck,truck,bw,0114_cl_dnn_bw_truck_40_n03417042_5659.png,n03417042_5659.png,1.0,11.391256,11.034091,0.25255403
bagnet33,1,115,NaN,elephant,elephant,cr,0115_cl_dnn_cr_elephant_40_n02504013_10330.png,n02504013_10330.png,1.0,34.14086,2.4920619,22.379082
bagnet33,1,116,NaN,cat,cat,cr,0116_cl_dnn_cr_cat_40_n02123394_1594.png,n02123394_1594.png,1.0,27.09152,12.3909,10.394909
bagnet33,1,117,NaN,chair,bear,bw,0117_cl_dnn_bw_bear_40_n02132136_10654.png,n02132136_10654.png,0.0,-0.780134,3.5516057,-3.0630028
bagnet33,1,118,NaN,bottle,bottle,bw,0118_cl_dnn_bw_bottle_40_n02823428_5265.png,n02823428_5265.png,1.0,9.365233,5.732094,2.5690176
bagnet33,1,119,NaN,airplane,truck,cr,0119_cl_dnn_cr_truck_40_n04467665_3125.png,n04467665_3125.png,0.0,3.0924911,3.3686304,-0.19525994
bagnet33,1,120,NaN,airplane,airplane,cr,0120_cl_dnn_cr_airplane_40_n02690373_60.png,n02690373_60.png,1.0,24.934542,7.3959823,12.401634
bagnet33,1,121,NaN,keyboard,keyboard,cr,0121_cl_dnn_cr_keyboard_40_n03085013_21645.png,n03085013_21645.png,1.0,10.673164,4.402982,4.433688
bagnet33,1,122,NaN,airplane,car,bw,0122_cl_dnn_bw_car_40_n03100240_9471.png,n03100240_9471.png,0.0,5.8530946,6.5570984,-0.49780586
bagnet33,1,123,NaN,boat,boat,cr,0123_cl_dnn_cr_boat_40_n03344393_9818.png,n03344393_9818.png,1.0,10.756735,7.500937,2.3021967
bagnet33,1,124,NaN,elephant,elephant,bw,0124_cl_dnn_bw_elephant_40_n02504458_5444.png,n02504458_5444.png,1.0,14.75731,2.1426353,8.919922
bagnet33,1,125,NaN,bottle,bottle,bw,0125_cl_dnn_bw_bottle_40_n04557648_26823.png,n04557648_26823.png,1.0,10.549408,3.6973877,4.84511
bagnet33,1,126,NaN,bottle,bottle,cr,0126_cl_dnn_cr_bottle_40_n02823428_765.png,n02823428_765.png,1.0,4.9405465,3.0756235,1.3186997
bagnet33,1,127,NaN,cat,cat,bw,0127_cl_dnn_bw_cat_40_n02123045_1787.png,n02123045_1787.png,1.0,15.658452,5.1412344,7.436796
bagnet33,1,128,NaN,car,car,bw,0128_cl_dnn_bw_car_40_n02814533_35863.png,n02814533_35863.png,1.0,12.129991,11.386238,0.5259124
bagnet33,1,129,NaN,airplane,boat,bw,0129_cl_dnn_bw_boat_40_n02951358_7944.png,n02951358_7944.png,0.0,2.733734,5.3388042,-1.842063
bagnet33,1,130,NaN,cat,dog,bw,0130_cl_dnn_bw_dog_40_n02091467_3727.png,n02091467_3727.png,0.0,4.379211,8.631313,-3.0066905
bagnet33,1,131,NaN,bicycle,bicycle,cr,0131_cl_dnn_cr_bicycle_40_n02835271_5886.png,n02835271_5886.png,1.0,10.676915,1.806889,6.272055
bagnet33,1,132,NaN,truck,truck,bw,0132_cl_dnn_bw_truck_40_n04467665_18234.png,n04467665_18234.png,1.0,19.169815,12.756508,4.534893
bagnet33,1,133,NaN,elephant,elephant,cr,0133_cl_dnn_cr_elephant_40_n02504013_4892.png,n02504013_4892.png,1.0,22.785416,5.0724053,12.52499
bagnet33,1,134,NaN,keyboard,keyboard,cr,0134_cl_dnn_cr_keyboard_40_n03085013_19618.png,n03085013_19618.png,1.0,30.053482,14.209621,11.203301
bagnet33,1,135,NaN,clock,clock,cr,0135_cl_dnn_cr_clock_40_n03196217_3430.png,n03196217_3430.png,1.0,19.359497,10.777842,6.0681467
bagnet33,1,136,NaN,bicycle,bicycle,bw,0136_cl_dnn_bw_bicycle_40_n03792782_24591.png,n03792782_24591.png,1.0,22.463724,7.4680686,10.60353
bagnet33,1,137,NaN,knife,bird,cr,0137_cl_dnn_cr_bird_40_n02007558_2822.png,n02007558_2822.png,0.0,2.4914834,2.8551729,-0.25716725
bagnet33,1,138,NaN,truck,truck,bw,0138_cl_dnn_bw_truck_40_n04467665_71126.png,n04467665_71126.png,1.0,24.96236,15.597832,6.6217217
bagnet33,1,139,NaN,bicycle,bicycle,cr,0139_cl_dnn_cr_bicycle_40_n02835271_22263.png,n02835271_22263.png,1.0,16.262632,3.8868685,8.750987
bagnet33,1,140,NaN,car,car,bw,0140_cl_dnn_bw_car_40_n04285008_5548.png,n04285008_5548.png,1.0,10.263993,8.173997,1.4778506
bagnet33,1,141,NaN,oven,oven,bw,0141_cl_dnn_bw_oven_40_n04111531_13006.png,n04111531_13006.png,1.0,7.3882217,5.760684,1.150843
bagnet33,1,142,NaN,car,car,bw,0142_cl_dnn_bw_car_40_n04285008_11410.png,n04285008_11410.png,1.0,14.27843,10.288301,2.821447
bagnet33,1,143,NaN,chair,chair,bw,0143_cl_dnn_bw_chair_40_n04429376_2304.png,n04429376_2304.png,1.0,7.253048,6.5822406,0.47433245
bagnet33,1,144,NaN,boat,boat,cr,0144_cl_dnn_cr_boat_40_n03662601_27165.png,n03662601_27165.png,1.0,16.786575,7.7817364,6.367383
bagnet33,1,145,NaN,airplane,truck,bw,0145_cl_dnn_bw_truck_40_n04467665_70308.png,n04467665_70308.png,0.0,8.659338,10.3991375,-1.230224
bagnet33,1,146,NaN,bicycle,bicycle,cr,0146_cl_dnn_cr_bicycle_40_n03792782_51414.png,n03792782_51414.png,1.0,13.944034,3.7902799,7.179788
bagnet33,1,147,NaN,knife,knife,cr,0147_cl_dnn_cr_knife_40_n03041632_44738.png,n03041632_44738.png,1.0,12.57675,3.7613208,6.2334495
bagnet33,1,148,NaN,elephant,elephant,bw,0148_cl_dnn_bw_elephant_40_n02504458_11363.png,n02504458_11363.png,1.0,14.766806,2.0673785,8.979851
bagnet33,1,149,NaN,truck,truck,cr,0149_cl_dnn_cr_truck_40_n04467665_4899.png,n04467665_4899.png,1.0,12.777395,10.84254,1.3681494
bagnet33,1,150,NaN,elephant,bear,cr,0150_cl_dnn_cr_bear_40_n02134418_685.png,n02134418_685.png,0.0,3.6295822,5.0258627,-0.98731947
bagnet33,1,151,NaN,keyboard,keyboard,bw,0151_cl_dnn_bw_keyboard_40_n04505470_4363.png,n04505470_4363.png,1.0,28.18105,10.808612,12.284168
bagnet33,1,152,NaN,oven,oven,bw,0152_cl_dnn_bw_oven_40_n04111531_12468.png,n04111531_12468.png,1.0,9.817408,5.9953303,2.7026167
bagnet33,1,153,NaN,bottle,bottle,cr,0153_cl_dnn_cr_bottle_40_n04591713_5559.png,n04591713_5559.png,1.0,9.138815,3.9868124,3.6430159
bagnet33,1,154,NaN,elephant,elephant,cr,0154_cl_dnn_cr_elephant_40_n02504013_3197.png,n02504013_3197.png,1.0,9.982264,4.2003613,4.0884223
bagnet33,1,155,NaN,bird,bird,bw,0155_cl_dnn_bw_bird_40_n01817953_5039.png,n01817953_5039.png,1.0,2.8204222,2.4977536,0.22816113
bagnet33,1,156,NaN,bicycle,bicycle,cr,0156_cl_dnn_cr_bicycle_40_n03792782_3296.png,n03792782_3296.png,1.0,14.103334,4.995705,6.440067
bagnet33,1,157,NaN,oven,bird,cr,0157_cl_dnn_cr_bird_40_n01855672_5670.png,n01855672_5670.png,0.0,0.2187906,3.5665057,-2.367192
bagnet33,1,158,NaN,oven,oven,cr,0158_cl_dnn_cr_oven_40_n04111531_2260.png,n04111531_2260.png,1.0,20.17104,5.390596,10.451352
bagnet33,1,159,NaN,cat,cat,cr,0159_cl_dnn_cr_cat_40_n02123045_5932.png,n02123045_5932.png,1.0,5.055614,4.5515246,0.356445
bagnet33,1,160,NaN,bicycle,dog,cr,0160_cl_dnn_cr_dog_40_n02100583_1267.png,n02100583_1267.png,0.0,4.0338492,5.990187,-1.3833399
bagnet33,1,161,NaN,dog,dog,bw,0161_cl_dnn_bw_dog_40_n02099601_8005.png,n02099601_8005.png,1.0,11.987309,5.660897,4.473449
bagnet33,1,162,NaN,boat,boat,cr,0162_cl_dnn_cr_boat_40_n02951358_12080.png,n02951358_12080.png,1.0,3.5540023,2.4941287,0.7494438
bagnet33,1,163,NaN,oven,oven,cr,0163_cl_dnn_cr_oven_40_n04111531_20028.png,n04111531_20028.png,1.0,14.943646,2.8837287,8.52765
bagnet33,1,164,NaN,cat,cat,bw,0164_cl_dnn_bw_cat_40_n02123159_2107.png,n02123159_2107.png,1.0,20.732807,8.277187,8.807453
bagnet33,1,165,NaN,elephant,bear,cr,0165_cl_dnn_cr_bear_40_n02134418_1351.png,n02134418_1351.png,0.0,11.22167,11.572444,-0.24803455
bagnet33,1,166,NaN,oven,oven,cr,0166_cl_dnn_cr_oven_40_n04111531_6609.png,n04111531_6609.png,1.0,13.029579,3.695631,6.600098
bagnet33,1,167,NaN,knife,knife,bw,0167_cl_dnn_bw_knife_40_n03041632_21477.png,n03041632_21477.png,1.0,12.416145,9.865295,1.8037233
bagnet33,1,168,NaN,cat,cat,cr,0168_cl_dnn_cr_cat_40_n02123394_238.png,n02123394_238.png,1.0,8.723281,2.6591856,4.287963
bagnet33,1,169,NaN,elephant,elephant,cr,0169_cl_dnn_cr_elephant_40_n02504013_3141.png,n02504013_3141.png,1.0,17.209978,4.360944,9.085639
bagnet33,1,170,NaN,elephant,elephant,cr,0170_cl_dnn_cr_elephant_40_n02504013_5035.png,n02504013_5035.png,1.0,29.262154,1.5444739,19.59936
bagnet33,1,171,NaN,dog,dog,cr,0171_cl_dnn_cr_dog_40_n02089867_2298.png,n02089867_2298.png,1.0,10.365625,5.957014,3.117359
bagnet33,1,172,NaN,chair,bear,bw,0172_cl_dnn_bw_bear_40_n02134418_2503.png,n02134418_2503.png,0.0,2.3761387,4.6591806,-1.6143545
bagnet33,1,173,NaN,keyboard,keyboard,cr,0173_cl_dnn_cr_keyboard_40_n04505470_4878.png,n04505470_4878.png,1.0,14.2883415,4.7385087,6.752752
bagnet33,1,174,NaN,clock,knife,bw,0174_cl_dnn_bw_knife_40_n03041632_22734.png,n03041632_22734.png,0.0,3.67716,7.8757553,-2.9688551
bagnet33,1,175,NaN,bear,bear,cr,0175_cl_dnn_cr_bear_40_n02132136_8896.png,n02132136_8896.png,1.0,6.824627,6.6845493,0.099049814
bagnet33,1,176,NaN,bicycle,boat,bw,0176_cl_dnn_bw_boat_40_n02951358_5952.png,n02951358_5952.png,0.0,2.3821695,5.940625,-2.5162082
bagnet33,1,177,NaN,knife,chair,bw,0177_cl_dnn_bw_chair_40_n04099969_1775.png,n04099969_1775.png,0.0,6.0075417,6.7930765,-0.55545706
bagnet33,1,178,NaN,airplane,airplane,bw,0178_cl_dnn_bw_airplane_40_n02690373_6524.png,n02690373_6524.png,1.0,8.288931,4.820427,2.4526026
bagnet33,1,179,NaN,bird,bear,cr,0179_cl_dnn_cr_bear_40_n02133161_1916.png,n02133161_1916.png,0.0,1.4880259,2.4788454,-0.70061517
bagnet33,1,180,NaN,knife,knife,bw,0180_cl_dnn_bw_knife_40_n03041632_96714.png,n03041632_96714.png,1.0,6.4433603,4.9433203,1.0606885
bagnet33,1,181,NaN,truck,truck,bw,0181_cl_dnn_bw_truck_40_n03417042_13635.png,n03417042_13635.png,1.0,14.169615,10.995443,2.2444782
bagnet33,1,182,NaN,airplane,boat,bw,0182_cl_dnn_bw_boat_40_n04612504_1748.png,n04612504_1748.png,0.0,8.500114,13.305929,-3.3982244
bagnet33,1,183,NaN,bird,bird,cr,0183_cl_dnn_cr_bird_40_n01592084_3341.png,n01592084_3341.png,1.0,11.198008,2.3726368,6.2404795
bagnet33,1,184,NaN,car,car,bw,0184_cl_dnn_bw_car_40_n02814533_12388.png,n02814533_12388.png,1.0,21.952837,12.300297,6.825377
bagnet33,1,185,NaN,bicycle,bicycle,cr,0185_cl_dnn_cr_bicycle_40_n03792782_5864.png,n03792782_5864.png,1.0,19.42208,4.2596283,10.721472
bagnet33,1,186,NaN,bird,bird,bw,0186_cl_dnn_bw_bird_40_n01514859_17156.png,n01514859_17156.png,1.0,9.5049,6.2301655,2.315587
bagnet33,1,187,NaN,car,car,cr,0187_cl_dnn_cr_car_40_n03100240_7737.png,n03100240_7737.png,1.0,17.687363,8.908625,6.207505
bagnet33,1,188,NaN,bottle,bottle,bw,0188_cl_dnn_bw_bottle_40_n04579145_1829.png,n04579145_1829.png,1.0,5.7093616,4.1688538,1.0893035
bagnet33,1,189,NaN,elephant,elephant,bw,0189_cl_dnn_bw_elephant_40_n02504013_22388.png,n02504013_22388.png,1.0,9.212706,5.916679,2.330643
bagnet33,1,190,NaN,airplane,airplane,bw,0190_cl_dnn_bw_airplane_40_n02690373_7107.png,n02690373_7107.png,1.0,18.284801,5.208879,9.246074
bagnet33,1,191,NaN,car,car,bw,0191_cl_dnn_bw_car_40_n02814533_45594.png,n02814533_45594.png,1.0,17.520113,16.002079,1.0734122
bagnet33,1,192,NaN,boat,boat,cr,0192_cl_dnn_cr_boat_40_n04612504_18536.png,n04612504_18536.png,1.0,8.516309,3.842754,3.3047025
bagnet33,1,193,NaN,elephant,dog,cr,0193_cl_dnn_cr_dog_40_n02088466_6371.png,n02088466_6371.png,0.0,10.499527,10.871571,-0.26307458
bagnet33,1,194,NaN,elephant,bear,bw,0194_cl_dnn_bw_bear_40_n02133161_1003.png,n02133161_1003.png,0.0,1.485358,2.5328875,-0.7407152
bagnet33,1,195,NaN,knife,knife,bw,0195_cl_dnn_bw_knife_40_n03041632_29037.png,n03041632_29037.png,1.0,6.0824723,5.0370364,0.7392348
bagnet33,1,196,NaN,airplane,airplane,cr,0196_cl_dnn_cr_airplane_40_n02690373_4015.png,n02690373_4015.png,1.0,7.3915668,4.055695,2.3588176
bagnet33,1,197,NaN,knife,knife,bw,0197_cl_dnn_bw_knife_40_n03041632_28009.png,n03041632_28009.png,1.0,6.391899,3.7145665,1.8931601
bagnet33,1,198,NaN,bird,bird,bw,0198_cl_dnn_bw_bird_40_n01560419_5714.png,n01560419_5714.png,1.0,2.1272876,1.5390645,0.41593656
bagnet33,1,199,NaN,bicycle,cat,cr,0199_cl_dnn_cr_cat_40_n02125311_6429.png,n02125311_6429.png,0.0,2.0376816,5.1600676,-2.2078602
bagnet33,1,200,NaN,chair,chair,bw,0200_cl_dnn_bw_chair_40_n04099969_9847.png,n04099969_9847.png,1.0,9.671332,4.312013,3.789611
bagnet33,1,201,NaN,cat,cat,bw,0201_cl_dnn_bw_cat_40_n02123597_7142.png,n02123597_7142.png,1.0,10.179231,2.9004004,5.1469107
bagnet33,1,202,NaN,bicycle,bicycle,cr,0202_cl_dnn_cr_bicycle_40_n02835271_8982.png,n02835271_8982.png,1.0,18.3125,6.018893,8.692894
bagnet33,1,203,NaN,airplane,bird,bw,0203_cl_dnn_bw_bird_40_n01592084_19555.png,n01592084_19555.png,0.0,5.6281996,6.77492,-0.8108538
bagnet33,1,204,NaN,oven,knife,cr,0204_cl_dnn_cr_knife_40_n03041632_8618.png,n03041632_8618.png,0.0,8.583031,11.707681,-2.2094612
bagnet33,1,205,NaN,truck,boat,bw,0205_cl_dnn_bw_boat_40_n03344393_547.png,n03344393_547.png,0.0,9.804619,10.623238,-0.5788509
bagnet33,1,206,NaN,knife,bird,bw,0206_cl_dnn_bw_bird_40_n01843383_5962.png,n01843383_5962.png,0.0,0.6358558,2.9985952,-1.6707093
bagnet33,1,207,NaN,keyboard,keyboard,cr,0207_cl_dnn_cr_keyboard_40_n04505470_213.png,n04505470_213.png,1.0,33.960716,12.935921,14.8667755
bagnet33,1,208,NaN,elephant,elephant,cr,0208_cl_dnn_cr_elephant_40_n02504458_2607.png,n02504458_2607.png,1.0,23.396381,2.6275516,14.685781
bagnet33,1,209,NaN,bear,bear,bw,0209_cl_dnn_bw_bear_40_n02134418_4157.png,n02134418_4157.png,1.0,4.503598,4.174515,0.23269714
bagnet33,1,210,NaN,bottle,bottle,cr,0210_cl_dnn_cr_bottle_40_n03983396_11519.png,n03983396_11519.png,1.0,22.213455,2.7433286,13.767459
bagnet33,1,211,NaN,cat,cat,cr,0211_cl_dnn_cr_cat_40_n02124075_1999.png,n02124075_1999.png,1.0,12.071269,4.1831055,5.577774
bagnet33,1,212,NaN,cat,cat,bw,0212_cl_dnn_bw_cat_40_n02124075_11252.png,n02124075_11252.png,1.0,11.816768,1.4859421,7.304997
bagnet33,1,213,NaN,airplane,airplane,bw,0213_cl_dnn_bw_airplane_40_n02690373_4195.png,n02690373_4195.png,1.0,16.539974,7.5511947,6.3560266
bagnet33,1,214,NaN,airplane,airplane,cr,0214_cl_dnn_cr_airplane_40_n02690373_2629.png,n02690373_2629.png,1.0,11.623928,4.9491014,4.7198153
bagnet33,1,215,NaN,keyboard,keyboard,bw,0215_cl_dnn_bw_keyboard_40_n04505470_5060.png,n04505470_5060.png,1.0,28.216356,9.409679,13.298329
bagnet33,1,216,NaN,bear,bear,cr,0216_cl_dnn_cr_bear_40_n02132136_10060.png,n02132136_10060.png,1.0,10.728106,10.381758,0.24490489
bagnet33,1,217,NaN,airplane,airplane,bw,0217_cl_dnn_bw_airplane_40_n02690373_4150.png,n02690373_4150.png,1.0,23.84816,5.4382,13.017808
bagnet33,1,218,NaN,dog,dog,cr,0218_cl_dnn_cr_dog_40_n02102040_7465.png,n02102040_7465.png,1.0,6.2904887,3.5468836,1.9400219
bagnet33,1,219,NaN,bird,bird,bw,0219_cl_dnn_bw_bird_40_n02009229_12179.png,n02009229_12179.png,1.0,4.4574513,3.9162898,0.382659
bagnet33,1,220,NaN,knife,knife,bw,0220_cl_dnn_bw_knife_40_n03041632_20413.png,n03041632_20413.png,1.0,5.9695263,4.3664827,1.133523
bagnet33,1,221,NaN,truck,truck,bw,0221_cl_dnn_bw_truck_40_n03796401_13490.png,n03796401_13490.png,1.0,10.695011,9.683304,0.7153851
bagnet33,1,222,NaN,oven,oven,cr,0222_cl_dnn_cr_oven_40_n04111531_584.png,n04111531_584.png,1.0,24.479542,5.4260674,13.472841
bagnet33,1,223,NaN,airplane,airplane,bw,0223_cl_dnn_bw_airplane_40_n02690373_3899.png,n02690373_3899.png,1.0,12.785402,4.8216715,5.631208
bagnet33,1,224,NaN,bird,bird,cr,0224_cl_dnn_cr_bird_40_n02027492_8707.png,n02027492_8707.png,1.0,15.042595,5.8977532,6.46638
bagnet33,1,225,NaN,airplane,airplane,cr,0225_cl_dnn_cr_airplane_40_n02690373_2648.png,n02690373_2648.png,1.0,18.56556,11.157453,5.2383227
bagnet33,1,226,NaN,cat,cat,bw,0226_cl_dnn_bw_cat_40_n02123394_6598.png,n02123394_6598.png,1.0,18.161936,3.6806362,10.239825
bagnet33,1,227,NaN,bicycle,bicycle,bw,0227_cl_dnn_bw_bicycle_40_n02835271_17168.png,n02835271_17168.png,1.0,11.759705,4.3514376,5.2384357
bagnet33,1,228,NaN,truck,truck,bw,0228_cl_dnn_bw_truck_40_n03417042_29849.png,n03417042_29849.png,1.0,12.762428,9.308804,2.4420815
bagnet33,1,229,NaN,knife,knife,cr,0229_cl_dnn_cr_knife_40_n03041632_29125.png,n03041632_29125.png,1.0,6.4061832,3.6807437,1.9271768
bagnet33,1,230,NaN,clock,clock,bw,0230_cl_dnn_bw_clock_40_n04548280_5456.png,n04548280_5456.png,1.0,14.659114,3.8947916,7.6115255
bagnet33,1,231,NaN,truck,truck,bw,0231_cl_dnn_bw_truck_40_n03796401_8099.png,n03796401_8099.png,1.0,15.552601,11.273204,3.0259907
bagnet33,1,232,NaN,bear,bear,cr,0232_cl_dnn_cr_bear_40_n02132136_860.png,n02132136_860.png,1.0,7.758824,5.3998866,1.6680206
bagnet33,1,233,NaN,truck,truck,bw,0233_cl_dnn_bw_truck_40_n03796401_4423.png,n03796401_4423.png,1.0,13.73083,11.3437605,1.6879132
bagnet33,1,234,NaN,elephant,elephant,bw,0234_cl_dnn_bw_elephant_40_n02504458_7871.png,n02504458_7871.png,1.0,24.486694,3.3237567,14.964457
bagnet33,1,235,NaN,oven,oven,cr,0235_cl_dnn_cr_oven_40_n04111531_14753.png,n04111531_14753.png,1.0,20.331678,8.828999,8.133623
bagnet33,1,236,NaN,clock,clock,bw,0236_cl_dnn_bw_clock_40_n04548280_17198.png,n04548280_17198.png,1.0,31.964426,10.514447,15.167425
bagnet33,1,237,NaN,oven,oven,cr,0237_cl_dnn_cr_oven_40_n04111531_15947.png,n04111531_15947.png,1.0,30.419195,4.7495623,18.15117
bagnet33,1,238,NaN,elephant,elephant,bw,0238_cl_dnn_bw_elephant_40_n02504013_1103.png,n02504013_1103.png,1.0,5.445636,2.202138,2.2934995
bagnet33,1,239,NaN,bicycle,bicycle,cr,0239_cl_dnn_cr_bicycle_40_n03792782_33853.png,n03792782_33853.png,1.0,3.7783637,1.245181,1.7912307
bagnet33,1,240,NaN,bottle,bottle,bw,0240_cl_dnn_bw_bottle_40_n04557648_5665.png,n04557648_5665.png,1.0,16.846434,5.48102,8.036561
bagnet33,1,241,NaN,bear,bear,bw,0241_cl_dnn_bw_bear_40_n02134418_5824.png,n02134418_5824.png,1.0,10.315774,3.34901,4.926246
bagnet33,1,242,NaN,truck,truck,cr,0242_cl_dnn_cr_truck_40_n04467665_54349.png,n04467665_54349.png,1.0,18.358799,9.16699,6.4995904
bagnet33,1,243,NaN,truck,truck,cr,0243_cl_dnn_cr_truck_40_n03796401_8100.png,n03796401_8100.png,1.0,19.306126,10.648242,6.1220484
bagnet33,1,244,NaN,elephant,elephant,cr,0244_cl_dnn_cr_elephant_40_n02504013_4288.png,n02504013_4288.png,1.0,20.537022,2.5500588,12.718704
bagnet33,1,245,NaN,boat,boat,cr,0245_cl_dnn_cr_boat_40_n03662601_4437.png,n03662601_4437.png,1.0,14.155124,6.799238,5.2013965
bagnet33,1,246,NaN,bicycle,bicycle,cr,0246_cl_dnn_cr_bicycle_40_n02835271_7351.png,n02835271_7351.png,1.0,19.846518,5.0293818,10.477298
bagnet33,1,247,NaN,elephant,elephant,bw,0247_cl_dnn_bw_elephant_40_n02504458_2556.png,n02504458_2556.png,1.0,5.609866,4.022963,1.12211
bagnet33,1,248,NaN,airplane,airplane,cr,0248_cl_dnn_cr_airplane_40_n02690373_303.png,n02690373_303.png,1.0,21.937313,4.963151,12.002546
bagnet33,1,249,NaN,elephant,elephant,bw,0249_cl_dnn_bw_elephant_40_n02504013_5503.png,n02504013_5503.png,1.0,22.27607,3.059687,13.588035
bagnet33,1,250,NaN,airplane,truck,cr,0250_cl_dnn_cr_truck_40_n04467665_68332.png,n04467665_68332.png,0.0,12.8832445,14.480028,-1.1290965
bagnet33,1,251,NaN,clock,clock,bw,0251_cl_dnn_bw_clock_40_n02708093_3079.png,n02708093_3079.png,1.0,19.920858,7.7434926,8.610699
bagnet33,1,252,NaN,cat,cat,cr,0252_cl_dnn_cr_cat_40_n02123394_2395.png,n02123394_2395.png,1.0,14.914462,3.1027403,8.352149
bagnet33,1,253,NaN,chair,chair,cr,0253_cl_dnn_cr_chair_40_n04429376_20906.png,n04429376_20906.png,1.0,5.343087,3.5814424,1.245671
bagnet33,1,254,NaN,boat,boat,cr,0254_cl_dnn_cr_boat_40_n03344393_8160.png,n03344393_8160.png,1.0,8.501095,6.8957195,1.1351718
bagnet33,1,255,NaN,keyboard,keyboard,cr,0255_cl_dnn_cr_keyboard_40_n03085013_21325.png,n03085013_21325.png,1.0,18.455479,13.096077,3.7896693
bagnet33,1,256,NaN,knife,knife,cr,0256_cl_dnn_cr_knife_40_n03041632_99875.png,n03041632_99875.png,1.0,9.603708,2.5835764,4.963983
bagnet33,1,257,NaN,knife,clock,bw,0257_cl_dnn_bw_clock_40_n04548280_7384.png,n04548280_7384.png,0.0,3.0685852,3.9322639,-0.61071306
bagnet33,1,258,NaN,keyboard,keyboard,bw,0258_cl_dnn_bw_keyboard_40_n03085013_23534.png,n03085013_23534.png,1.0,24.572811,3.8010375,14.687862
bagnet33,1,259,NaN,truck,truck,bw,0259_cl_dnn_bw_truck_40_n03417042_2383.png,n03417042_2383.png,1.0,15.915943,11.956852,2.7995002
bagnet33,1,260,NaN,clock,clock,bw,0260_cl_dnn_bw_clock_40_n03196217_711.png,n03196217_711.png,1.0,5.5545597,4.370705,0.8371116
bagnet33,1,261,NaN,keyboard,keyboard,bw,0261_cl_dnn_bw_keyboard_40_n03085013_7992.png,n03085013_7992.png,1.0,24.493744,5.5677085,13.382728
bagnet33,1,262,NaN,cat,cat,bw,0262_cl_dnn_bw_cat_40_n02125311_75445.png,n02125311_75445.png,1.0,12.599179,5.179237,5.2466917
bagnet33,1,263,NaN,knife,knife,cr,0263_cl_dnn_cr_knife_40_n03041632_47410.png,n03041632_47410.png,1.0,17.276758,4.857463,8.781768
bagnet33,1,264,NaN,oven,oven,bw,0264_cl_dnn_bw_oven_40_n04111531_741.png,n04111531_741.png,1.0,17.743149,5.9920983,8.309248
bagnet33,1,265,NaN,oven,oven,bw,0265_cl_dnn_bw_oven_40_n04111531_3181.png,n04111531_3181.png,1.0,9.155919,4.7143335,3.1406753
bagnet33,1,266,NaN,truck,truck,bw,0266_cl_dnn_bw_truck_40_n03417042_17099.png,n03417042_17099.png,1.0,25.388062,10.067505,10.83327
bagnet33,1,267,NaN,boat,boat,cr,0267_cl_dnn_cr_boat_40_n03662601_15143.png,n03662601_15143.png,1.0,14.102542,6.019061,5.715884
bagnet33,1,268,NaN,keyboard,keyboard,bw,0268_cl_dnn_bw_keyboard_40_n03085013_19197.png,n03085013_19197.png,1.0,39.200314,8.055871,22.022448
bagnet33,1,269,NaN,airplane,airplane,cr,0269_cl_dnn_cr_airplane_40_n02690373_4202.png,n02690373_4202.png,1.0,30.087736,9.484459,14.568717
bagnet33,1,270,NaN,bear,bear,bw,0270_cl_dnn_bw_bear_40_n02132136_10134.png,n02132136_10134.png,1.0,16.667627,9.580228,5.0115485
bagnet33,1,271,NaN,boat,boat,bw,0271_cl_dnn_bw_boat_40_n03344393_5296.png,n03344393_5296.png,1.0,7.1581764,6.422477,0.5202182
bagnet33,1,272,NaN,keyboard,keyboard,bw,0272_cl_dnn_bw_keyboard_40_n04505470_1600.png,n04505470_1600.png,1.0,17.119995,13.315625,2.690096
bagnet33,1,273,NaN,truck,truck,bw,0273_cl_dnn_bw_truck_40_n03417042_10043.png,n03417042_10043.png,1.0,19.777832,12.798706,4.9349875
bagnet33,1,274,NaN,bicycle,bird,bw,0274_cl_dnn_bw_bird_40_n02007558_5525.png,n02007558_5525.png,0.0,1.521941,3.8405275,-1.6394883
bagnet33,1,275,NaN,airplane,airplane,cr,0275_cl_dnn_cr_airplane_40_n02690373_6621.png,n02690373_6621.png,1.0,19.288488,6.730887,8.879565
bagnet33,1,276,NaN,keyboard,keyboard,bw,0276_cl_dnn_bw_keyboard_40_n04505470_6623.png,n04505470_6623.png,1.0,19.064571,6.3726077,8.974573
bagnet33,1,277,NaN,dog,dog,cr,0277_cl_dnn_cr_dog_40_n02113624_3403.png,n02113624_3403.png,1.0,6.4138417,3.529501,2.039537
bagnet33,1,278,NaN,dog,dog,bw,0278_cl_dnn_bw_dog_40_n02106550_12642.png,n02106550_12642.png,1.0,7.6039963,3.9406292,2.5903916
bagnet33,1,279,NaN,clock,clock,cr,0279_cl_dnn_cr_clock_40_n04548280_24041.png,n04548280_24041.png,1.0,25.053268,5.84147,13.584794
bagnet33,1,280,NaN,truck,truck,bw,0280_cl_dnn_bw_truck_40_n03417042_3236.png,n03417042_3236.png,1.0,6.834225,5.2140694,1.1456232
bagnet33,1,281,NaN,car,car,bw,0281_cl_dnn_bw_car_40_n03100240_2583.png,n03100240_2583.png,1.0,19.368263,12.178955,5.0836086
bagnet33,1,282,NaN,knife,knife,cr,0282_cl_dnn_cr_knife_40_n03041632_45090.png,n03041632_45090.png,1.0,12.430701,3.2848837,6.46707
bagnet33,1,283,NaN,cat,cat,cr,0283_cl_dnn_cr_cat_40_n02123597_660.png,n02123597_660.png,1.0,6.2495923,3.2114255,2.1483083
bagnet33,1,284,NaN,clock,clock,bw,0284_cl_dnn_bw_clock_40_n04548280_7813.png,n04548280_7813.png,1.0,11.277951,7.9438434,2.3575704
bagnet33,1,285,NaN,dog,dog,bw,0285_cl_dnn_bw_dog_40_n02111129_797.png,n02111129_797.png,1.0,10.617164,8.435173,1.5429004
bagnet33,1,286,NaN,knife,knife,cr,0286_cl_dnn_cr_knife_40_n03041632_3717.png,n03041632_3717.png,1.0,21.30964,4.1479855,12.135123
bagnet33,1,287,NaN,boat,boat,bw,0287_cl_dnn_bw_boat_40_n04273569_870.png,n04273569_870.png,1.0,7.567378,4.6047926,2.0948644
bagnet33,1,288,NaN,elephant,elephant,bw,0288_cl_dnn_bw_elephant_40_n02504013_720.png,n02504013_720.png,1.0,29.168655,2.9929652,18.509008
bagnet33,1,289,NaN,oven,oven,cr,0289_cl_dnn_cr_oven_40_n04111531_14876.png,n04111531_14876.png,1.0,20.265167,3.6995811,11.713638
bagnet33,1,290,NaN,cat,cat,bw,0290_cl_dnn_bw_cat_40_n02123045_569.png,n02123045_569.png,1.0,8.942243,4.0555425,3.4554188
bagnet33,1,291,NaN,clock,clock,bw,0291_cl_dnn_bw_clock_40_n03196217_5888.png,n03196217_5888.png,1.0,4.500298,4.298712,0.142543
bagnet33,1,292,NaN,keyboard,keyboard,cr,0292_cl_dnn_cr_keyboard_40_n04505470_4770.png,n04505470_4770.png,1.0,32.825176,7.941836,17.595179
bagnet33,1,293,NaN,knife,knife,cr,0293_cl_dnn_cr_knife_40_n03041632_32292.png,n03041632_32292.png,1.0,12.694391,3.144184,6.7530165
bagnet33,1,294,NaN,elephant,elephant,cr,0294_cl_dnn_cr_elephant_40_n02504013_6672.png,n02504013_6672.png,1.0,15.628176,2.8798013,9.014462
bagnet33,1,295,NaN,airplane,airplane,bw,0295_cl_dnn_bw_airplane_40_n02690373_5838.png,n02690373_5838.png,1.0,27.598127,6.088709,15.2094555
bagnet33,1,296,NaN,bird,bird,cr,0296_cl_dnn_cr_bird_40_n01796340_5508.png,n01796340_5508.png,1.0,5.3216367,1.1562903,2.9453444
bagnet33,1,297,NaN,clock,clock,bw,0297_cl_dnn_bw_clock_40_n03196217_6477.png,n03196217_6477.png,1.0,9.141682,8.356352,0.55531204
bagnet33,1,298,NaN,oven,bird,bw,0298_cl_dnn_bw_bird_40_n02011460_5075.png,n02011460_5075.png,0.0,1.9634928,2.2895637,-0.23056695
bagnet33,1,299,NaN,boat,boat,bw,0299_cl_dnn_bw_boat_40_n03344393_10284.png,n03344393_10284.png,1.0,9.62093,7.5430603,1.4692756
bagnet33,1,300,NaN,oven,oven,bw,0300_cl_dnn_bw_oven_40_n04111531_14559.png,n04111531_14559.png,1.0,11.294254,6.734103,3.2245138
bagnet33,1,301,NaN,knife,knife,cr,0301_cl_dnn_cr_knife_40_n03041632_24060.png,n03041632_24060.png,1.0,4.758831,3.590149,0.82638305
bagnet33,1,302,NaN,airplane,airplane,bw,0302_cl_dnn_bw_airplane_40_n02690373_4134.png,n02690373_4134.png,1.0,13.340387,4.8104506,6.031576
bagnet33,1,303,NaN,bear,bear,cr,0303_cl_dnn_cr_bear_40_n02134084_6669.png,n02134084_6669.png,1.0,3.168051,2.8872914,0.19852701
bagnet33,1,304,NaN,bird,bird,cr,0304_cl_dnn_cr_bird_40_n01558993_5744.png,n01558993_5744.png,1.0,12.953844,1.9924357,7.7508864
bagnet33,1,305,NaN,chair,bird,bw,0305_cl_dnn_bw_bird_40_n01818515_10536.png,n01818515_10536.png,0.0,-2.4237885,4.241476,-4.7130537
bagnet33,1,306,NaN,bicycle,bottle,bw,0306_cl_dnn_bw_bottle_40_n04557648_20614.png,n04557648_20614.png,0.0,1.0411055,13.054298,-8.494611
bagnet33,1,307,NaN,clock,clock,cr,0307_cl_dnn_cr_clock_40_n04548280_3605.png,n04548280_3605.png,1.0,29.642893,5.1386833,17.327093
bagnet33,1,308,NaN,truck,truck,bw,0308_cl_dnn_bw_truck_40_n03796401_27288.png,n03796401_27288.png,1.0,15.883081,9.005683,4.863055
bagnet33,1,309,NaN,bicycle,bicycle,cr,0309_cl_dnn_cr_bicycle_40_n02835271_18276.png,n02835271_18276.png,1.0,18.836945,8.35085,7.4147887
bagnet33,1,310,NaN,elephant,bear,cr,0310_cl_dnn_cr_bear_40_n02133161_12152.png,n02133161_12152.png,0.0,5.351194,6.828265,-1.0444472
bagnet33,1,311,NaN,elephant,elephant,cr,0311_cl_dnn_cr_elephant_40_n02504013_14918.png,n02504013_14918.png,1.0,27.767172,4.634938,16.35696
bagnet33,1,312,NaN,bicycle,bicycle,bw,0312_cl_dnn_bw_bicycle_40_n03792782_5323.png,n03792782_5323.png,1.0,27.361404,2.6321075,17.486254
bagnet33,1,313,NaN,truck,truck,cr,0313_cl_dnn_cr_truck_40_n04467665_37066.png,n04467665_37066.png,1.0,5.8759265,5.5099173,0.25880763
bagnet33,1,314,NaN,bird,bird,bw,0314_cl_dnn_bw_bird_40_n02025239_2481.png,n02025239_2481.png,1.0,4.4244823,0.9474675,2.4586208
bagnet33,1,315,NaN,bicycle,bicycle,bw,0315_cl_dnn_bw_bicycle_40_n02835271_5113.png,n02835271_5113.png,1.0,12.26461,4.666751,5.372498
bagnet33,1,316,NaN,elephant,elephant,cr,0316_cl_dnn_cr_elephant_40_n02504458_6185.png,n02504458_6185.png,1.0,36.348064,1.8052044,24.425493
bagnet33,1,317,NaN,knife,knife,cr,0317_cl_dnn_cr_knife_40_n03041632_11475.png,n03041632_11475.png,1.0,10.956064,5.862343,3.601805
bagnet33,1,318,NaN,cat,cat,bw,0318_cl_dnn_bw_cat_40_n02125311_31318.png,n02125311_31318.png,1.0,18.26216,4.637061,9.634399
bagnet33,1,319,NaN,clock,clock,bw,0319_cl_dnn_bw_clock_40_n04548280_8585.png,n04548280_8585.png,1.0,3.9157956,3.4525852,0.32753918
bagnet33,1,320,NaN,bear,bear,bw,0320_cl_dnn_bw_bear_40_n02134418_12628.png,n02134418_12628.png,1.0,7.489017,4.6797667,1.9864401
bagnet33,1,321,NaN,chair,chair,bw,0321_cl_dnn_bw_chair_40_n03376595_17859.png,n03376595_17859.png,1.0,10.168594,5.7916536,3.0949645
bagnet33,1,322,NaN,knife,knife,cr,0322_cl_dnn_cr_knife_40_n03041632_379.png,n03041632_379.png,1.0,10.900286,6.435749,3.1569042
bagnet33,1,323,NaN,bottle,bottle,bw,0323_cl_dnn_bw_bottle_40_n04557648_1293.png,n04557648_1293.png,1.0,8.789741,6.1832094,1.8430959
bagnet33,1,324,NaN,boat,boat,cr,0324_cl_dnn_cr_boat_40_n03662601_26298.png,n03662601_26298.png,1.0,26.120945,10.160905,11.285453
bagnet33,1,325,NaN,oven,oven,bw,0325_cl_dnn_bw_oven_40_n04111531_6120.png,n04111531_6120.png,1.0,11.2929,4.3416433,4.915281
bagnet33,1,326,NaN,car,car,bw,0326_cl_dnn_bw_car_40_n02814533_92940.png,n02814533_92940.png,1.0,18.877298,11.88939,4.9411974
bagnet33,1,327,NaN,chair,chair,cr,0327_cl_dnn_cr_chair_40_n02791124_392.png,n02791124_392.png,1.0,8.366672,4.802207,2.520457
bagnet33,1,328,NaN,clock,clock,bw,0328_cl_dnn_bw_clock_40_n04548280_3330.png,n04548280_3330.png,1.0,15.598191,5.454342,7.172785
bagnet33,1,329,NaN,truck,car,cr,0329_cl_dnn_cr_car_40_n02814533_83614.png,n02814533_83614.png,0.0,13.850274,17.80218,-2.794419
bagnet33,1,330,NaN,bear,bear,cr,0330_cl_dnn_cr_bear_40_n02134418_3846.png,n02134418_3846.png,1.0,14.399168,8.154436,4.4156923
bagnet33,1,331,NaN,elephant,elephant,cr,0331_cl_dnn_cr_elephant_40_n02504013_811.png,n02504013_811.png,1.0,19.142653,6.0724683,9.242017
bagnet33,1,332,NaN,airplane,airplane,bw,0332_cl_dnn_bw_airplane_40_n02690373_1442.png,n02690373_1442.png,1.0,22.464931,7.376142,10.669385
bagnet33,1,333,NaN,chair,chair,cr,0333_cl_dnn_cr_chair_40_n03376595_6691.png,n03376595_6691.png,1.0,7.3770833,2.8235831,3.219811
bagnet33,1,334,NaN,elephant,bird,bw,0334_cl_dnn_bw_bird_40_n01616318_1071.png,n01616318_1071.png,0.0,5.1161103,7.8470526,-1.9310678
bagnet33,1,335,NaN,boat,boat,cr,0335_cl_dnn_cr_boat_40_n03662601_8333.png,n03662601_8333.png,1.0,6.478608,1.8714399,3.25776
bagnet33,1,336,NaN,truck,truck,cr,0336_cl_dnn_cr_truck_40_n03796401_9384.png,n03796401_9384.png,1.0,11.82666,8.2450905,2.5325522
bagnet33,1,337,NaN,bottle,bottle,cr,0337_cl_dnn_cr_bottle_40_n04560804_19001.png,n04560804_19001.png,1.0,11.701276,4.9813404,4.751712
bagnet33,1,338,NaN,cat,cat,cr,0338_cl_dnn_cr_cat_40_n02123045_7646.png,n02123045_7646.png,1.0,23.461565,9.285858,10.023739
bagnet33,1,339,NaN,elephant,elephant,cr,0339_cl_dnn_cr_elephant_40_n02504013_3599.png,n02504013_3599.png,1.0,23.142445,8.031738,10.684883
bagnet33,1,340,NaN,clock,clock,cr,0340_cl_dnn_cr_clock_40_n03196217_1109.png,n03196217_1109.png,1.0,10.4756365,4.133675,4.484444
bagnet33,1,341,NaN,airplane,boat,bw,0341_cl_dnn_bw_boat_40_n03344393_5322.png,n03344393_5322.png,0.0,6.1916704,6.5921803,-0.2832032
bagnet33,1,342,NaN,dog,dog,cr,0342_cl_dnn_cr_dog_40_n02090622_11748.png,n02090622_11748.png,1.0,9.083121,6.0430746,2.1496377
bagnet33,1,343,NaN,knife,knife,cr,0343_cl_dnn_cr_knife_40_n03041632_20707.png,n03041632_20707.png,1.0,8.863174,4.8277893,2.8534482
bagnet33,1,344,NaN,keyboard,keyboard,cr,0344_cl_dnn_cr_keyboard_40_n03085013_8936.png,n03085013_8936.png,1.0,27.591198,5.9317827,15.31552
bagnet33,1,345,NaN,airplane,airplane,cr,0345_cl_dnn_cr_airplane_40_n02690373_4695.png,n02690373_4695.png,1.0,23.942623,5.7544823,12.860958
bagnet33,1,346,NaN,oven,oven,bw,0346_cl_dnn_bw_oven_40_n04111531_16463.png,n04111531_16463.png,1.0,6.6023607,4.6808586,1.3587072
bagnet33,1,347,NaN,dog,dog,bw,0347_cl_dnn_bw_dog_40_n02099712_1234.png,n02099712_1234.png,1.0,7.5272694,3.0512223,3.1650434
bagnet33,1,348,NaN,boat,boat,bw,0348_cl_dnn_bw_boat_40_n03662601_17361.png,n03662601_17361.png,1.0,8.327634,3.6135306,3.3333745
bagnet33,1,349,NaN,oven,oven,cr,0349_cl_dnn_cr_oven_40_n04111531_12929.png,n04111531_12929.png,1.0,10.605652,7.2401743,2.3797522
bagnet33,1,350,NaN,airplane,truck,bw,0350_cl_dnn_bw_truck_40_n03417042_2056.png,n03417042_2056.png,0.0,6.6341844,8.434504,-1.2730179
bagnet33,1,351,NaN,oven,oven,cr,0351_cl_dnn_cr_oven_40_n04111531_2937.png,n04111531_2937.png,1.0,14.994514,5.3100023,6.8479843
bagnet33,1,352,NaN,boat,boat,bw,0352_cl_dnn_bw_boat_40_n04273569_23705.png,n04273569_23705.png,1.0,11.300666,7.8548007,2.4365947
bagnet33,1,353,NaN,boat,boat,cr,0353_cl_dnn_cr_boat_40_n02951358_8456.png,n02951358_8456.png,1.0,4.803209,3.5635877,0.87654454
bagnet33,1,354,NaN,bottle,bottle,bw,0354_cl_dnn_bw_bottle_40_n03983396_11632.png,n03983396_11632.png,1.0,28.8028,2.8102312,18.379522
bagnet33,1,355,NaN,bicycle,bicycle,bw,0355_cl_dnn_bw_bicycle_40_n02835271_506.png,n02835271_506.png,1.0,12.571563,4.494837,5.7111077
bagnet33,1,356,NaN,keyboard,keyboard,cr,0356_cl_dnn_cr_keyboard_40_n04505470_665.png,n04505470_665.png,1.0,30.381207,12.97065,12.311123
bagnet33,1,357,NaN,bear,bear,bw,0357_cl_dnn_bw_bear_40_n02132136_390.png,n02132136_390.png,1.0,9.709476,7.1730003,1.7935596
bagnet33,1,358,NaN,bear,bear,cr,0358_cl_dnn_cr_bear_40_n02134084_13663.png,n02134084_13663.png,1.0,11.785768,5.7089334,4.296971
bagnet33,1,359,NaN,airplane,airplane,cr,0359_cl_dnn_cr_airplane_40_n02690373_2837.png,n02690373_2837.png,1.0,16.971472,11.162605,4.107489
bagnet33,1,360,NaN,airplane,airplane,bw,0360_cl_dnn_bw_airplane_40_n02690373_1492.png,n02690373_1492.png,1.0,14.511593,4.4658833,7.1033897
bagnet33,1,361,NaN,car,car,cr,0361_cl_dnn_cr_car_40_n03100240_14252.png,n03100240_14252.png,1.0,20.763557,14.106893,4.706973
bagnet33,1,362,NaN,chair,elephant,bw,0362_cl_dnn_bw_elephant_40_n02504458_4908.png,n02504458_4908.png,0.0,3.878901,4.8453608,-0.68339026
bagnet33,1,363,NaN,bird,bird,bw,0363_cl_dnn_bw_bird_40_n01582220_5821.png,n01582220_5821.png,1.0,3.8393137,3.22021,0.43777242
bagnet33,1,364,NaN,cat,cat,cr,0364_cl_dnn_cr_cat_40_n02123045_2968.png,n02123045_2968.png,1.0,10.8166685,2.6473417,5.7765865
bagnet33,1,365,NaN,elephant,dog,cr,0365_cl_dnn_cr_dog_40_n02088466_1671.png,n02088466_1671.png,0.0,8.619216,9.9609,-0.94871414
bagnet33,1,366,NaN,boat,boat,bw,0366_cl_dnn_bw_boat_40_n03344393_7659.png,n03344393_7659.png,1.0,10.998705,5.501119,3.8873804
bagnet33,1,367,NaN,bicycle,bicycle,bw,0367_cl_dnn_bw_bicycle_40_n03792782_3783.png,n03792782_3783.png,1.0,14.565335,2.5090404,8.525088
bagnet33,1,368,NaN,airplane,airplane,cr,0368_cl_dnn_cr_airplane_40_n02690373_2059.png,n02690373_2059.png,1.0,16.434721,4.678046,8.313225
bagnet33,1,369,NaN,keyboard,keyboard,cr,0369_cl_dnn_cr_keyboard_40_n03085013_19483.png,n03085013_19483.png,1.0,24.757103,6.5243,12.892539
bagnet33,1,370,NaN,bicycle,bicycle,bw,0370_cl_dnn_bw_bicycle_40_n03792782_2960.png,n03792782_2960.png,1.0,17.006115,5.3578777,8.236547
bagnet33,1,371,NaN,keyboard,keyboard,cr,0371_cl_dnn_cr_keyboard_40_n03085013_24538.png,n03085013_24538.png,1.0,10.061424,7.8127794,1.590032
bagnet33,1,372,NaN,chair,cat,cr,0372_cl_dnn_cr_cat_40_n02123597_9656.png,n02123597_9656.png,0.0,2.1367235,4.326587,-1.5484675
bagnet33,1,373,NaN,car,car,cr,0373_cl_dnn_cr_car_40_n04285008_1085.png,n04285008_1085.png,1.0,27.501104,13.948506,9.583134
bagnet33,1,374,NaN,dog,dog,cr,0374_cl_dnn_cr_dog_40_n02102177_5870.png,n02102177_5870.png,1.0,11.027291,2.846709,5.784545
bagnet33,1,375,NaN,boat,boat,cr,0375_cl_dnn_cr_boat_40_n03662601_24852.png,n03662601_24852.png,1.0,12.353482,6.4728394,4.1582427
bagnet33,1,376,NaN,bicycle,bicycle,cr,0376_cl_dnn_cr_bicycle_40_n03792782_32379.png,n03792782_32379.png,1.0,19.993776,5.163612,10.486509
bagnet33,1,377,NaN,car,cat,cr,0377_cl_dnn_cr_cat_40_n02123597_12266.png,n02123597_12266.png,0.0,1.1257702,7.025383,-4.171656
bagnet33,1,378,NaN,airplane,airplane,cr,0378_cl_dnn_cr_airplane_40_n02690373_713.png,n02690373_713.png,1.0,38.653374,6.9541383,22.414745
bagnet33,1,379,NaN,airplane,airplane,cr,0379_cl_dnn_cr_airplane_40_n02690373_6543.png,n02690373_6543.png,1.0,23.982288,5.62096,12.983419
bagnet33,1,380,NaN,oven,oven,cr,0380_cl_dnn_cr_oven_40_n04111531_5888.png,n04111531_5888.png,1.0,16.68898,10.214152,4.578395
bagnet33,1,381,NaN,dog,dog,bw,0381_cl_dnn_bw_dog_40_n02099601_7304.png,n02099601_7304.png,1.0,10.234756,4.238825,4.239764
bagnet33,1,382,NaN,bird,bird,bw,0382_cl_dnn_bw_bird_40_n01819313_146.png,n01819313_146.png,1.0,10.019014,8.415422,1.1339108
bagnet33,1,383,NaN,car,car,bw,0383_cl_dnn_bw_car_40_n03100240_18873.png,n03100240_18873.png,1.0,18.88061,14.808518,2.8794034
bagnet33,1,384,NaN,elephant,dog,bw,0384_cl_dnn_bw_dog_40_n02100583_2707.png,n02100583_2707.png,0.0,6.80041,12.55085,-4.0661755
bagnet33,1,385,NaN,bear,dog,bw,0385_cl_dnn_bw_dog_40_n02105056_15484.png,n02105056_15484.png,0.0,5.1833596,6.028997,-0.5979559
bagnet33,1,386,NaN,truck,truck,bw,0386_cl_dnn_bw_truck_40_n04467665_66535.png,n04467665_66535.png,1.0,11.320024,10.468952,0.60179836
bagnet33,1,387,NaN,elephant,elephant,bw,0387_cl_dnn_bw_elephant_40_n02504458_12303.png,n02504458_12303.png,1.0,23.339071,4.7002,13.179672
bagnet33,1,388,NaN,bottle,bottle,cr,0388_cl_dnn_cr_bottle_40_n03937543_4586.png,n03937543_4586.png,1.0,7.8310046,5.434015,1.6949278
bagnet33,1,389,NaN,oven,bird,cr,0389_cl_dnn_cr_bird_40_n02007558_19064.png,n02007558_19064.png,0.0,3.4834573,9.700742,-4.396284
bagnet33,1,390,NaN,oven,oven,bw,0390_cl_dnn_bw_oven_40_n04111531_5904.png,n04111531_5904.png,1.0,10.372157,2.7351146,5.4002047
bagnet33,1,391,NaN,keyboard,keyboard,cr,0391_cl_dnn_cr_keyboard_40_n03085013_18625.png,n03085013_18625.png,1.0,10.918403,5.122065,4.0986295
bagnet33,1,392,NaN,bottle,bottle,cr,0392_cl_dnn_cr_bottle_40_n04579145_445.png,n04579145_445.png,1.0,15.639205,3.8217883,8.356176
bagnet33,1,393,NaN,keyboard,keyboard,bw,0393_cl_dnn_bw_keyboard_40_n03085013_22820.png,n03085013_22820.png,1.0,9.503983,9.500824,0.0022334459
bagnet33,1,394,NaN,truck,truck,cr,0394_cl_dnn_cr_truck_40_n03417042_19479.png,n03417042_19479.png,1.0,16.424753,7.797063,6.1006985
bagnet33,1,395,NaN,bird,bird,bw,0395_cl_dnn_bw_bird_40_n01833805_28946.png,n01833805_28946.png,1.0,3.8735676,3.0779884,0.5625594
bagnet33,1,396,NaN,bottle,bottle,bw,0396_cl_dnn_bw_bottle_40_n04591713_3896.png,n04591713_3896.png,1.0,10.955358,9.839755,0.7888501
bagnet33,1,397,NaN,cat,cat,cr,0397_cl_dnn_cr_cat_40_n02123159_782.png,n02123159_782.png,1.0,20.43524,4.5801077,11.211271
bagnet33,1,398,NaN,keyboard,keyboard,bw,0398_cl_dnn_bw_keyboard_40_n04505470_464.png,n04505470_464.png,1.0,8.314671,6.339314,1.396788
bagnet33,1,399,NaN,bird,bird,cr,0399_cl_dnn_cr_bird_40_n01558993_3939.png,n01558993_3939.png,1.0,21.428354,4.71823,11.815843
bagnet33,1,400,NaN,boat,boat,cr,0400_cl_dnn_cr_boat_40_n04273569_3052.png,n04273569_3052.png,1.0,11.883331,6.9378147,3.4970083
bagnet33,1,401,NaN,oven,knife,bw,0401_cl_dnn_bw_knife_40_n03041632_85416.png,n03041632_85416.png,0.0,2.5948303,3.3518884,-0.53532094
bagnet33,1,402,NaN,car,car,bw,0402_cl_dnn_bw_car_40_n02814533_51154.png,n02814533_51154.png,1.0,17.970606,15.293723,1.8928419
bagnet33,1,403,NaN,airplane,airplane,bw,0403_cl_dnn_bw_airplane_40_n02690373_6516.png,n02690373_6516.png,1.0,23.950575,8.802729,10.711145
bagnet33,1,404,NaN,airplane,airplane,cr,0404_cl_dnn_cr_airplane_40_n02690373_12813.png,n02690373_12813.png,1.0,25.34822,4.9170265,14.447037
bagnet33,1,405,NaN,airplane,airplane,bw,0405_cl_dnn_bw_airplane_40_n02690373_6406.png,n02690373_6406.png,1.0,20.664852,4.7720366,11.237918
bagnet33,1,406,NaN,chair,chair,cr,0406_cl_dnn_cr_chair_40_n03376595_8228.png,n03376595_8228.png,1.0,9.928719,5.304837,3.269578
bagnet33,1,407,NaN,knife,chair,bw,0407_cl_dnn_bw_chair_40_n04099969_6309.png,n04099969_6309.png,0.0,4.4596877,5.971936,-1.0693212
bagnet33,1,408,NaN,elephant,elephant,cr,0408_cl_dnn_cr_elephant_40_n02504013_19831.png,n02504013_19831.png,1.0,32.02944,3.4077702,20.238579
bagnet33,1,409,NaN,bottle,bottle,bw,0409_cl_dnn_bw_bottle_40_n03937543_5088.png,n03937543_5088.png,1.0,5.829533,2.4959831,2.3571758
bagnet33,1,410,NaN,elephant,elephant,cr,0410_cl_dnn_cr_elephant_40_n02504458_2190.png,n02504458_2190.png,1.0,16.1898,2.5869713,9.618652
bagnet33,1,411,NaN,car,car,bw,0411_cl_dnn_bw_car_40_n04285008_5997.png,n04285008_5997.png,1.0,23.139853,14.700953,5.9672036
bagnet33,1,412,NaN,knife,knife,cr,0412_cl_dnn_cr_knife_40_n03041632_94620.png,n03041632_94620.png,1.0,3.1852055,3.1230264,0.043967254
bagnet33,1,413,NaN,bicycle,bicycle,cr,0413_cl_dnn_cr_bicycle_40_n02835271_8125.png,n02835271_8125.png,1.0,12.70293,4.981391,5.459953
bagnet33,1,414,NaN,oven,oven,cr,0414_cl_dnn_cr_oven_40_n04111531_4662.png,n04111531_4662.png,1.0,18.519768,3.874435,10.355814
bagnet33,1,415,NaN,elephant,dog,bw,0415_cl_dnn_bw_dog_40_n02110806_21755.png,n02110806_21755.png,0.0,2.7070205,10.740129,-5.680266
bagnet33,1,416,NaN,bottle,bottle,bw,0416_cl_dnn_bw_bottle_40_n02823428_3505.png,n02823428_3505.png,1.0,10.455146,2.915861,5.3310795
bagnet33,1,417,NaN,cat,cat,cr,0417_cl_dnn_cr_cat_40_n02123045_11472.png,n02123045_11472.png,1.0,12.971627,3.3144462,6.828658
bagnet33,1,418,NaN,boat,boat,cr,0418_cl_dnn_cr_boat_40_n03662601_14818.png,n03662601_14818.png,1.0,24.507671,9.773708,10.418486
bagnet33,1,419,NaN,bicycle,bicycle,cr,0419_cl_dnn_cr_bicycle_40_n02835271_8322.png,n02835271_8322.png,1.0,13.803127,7.4990134,4.4576817
bagnet33,1,420,NaN,knife,knife,bw,0420_cl_dnn_bw_knife_40_n03041632_9580.png,n03041632_9580.png,1.0,8.316987,5.3941565,2.0667534
bagnet33,1,421,NaN,bicycle,dog,bw,0421_cl_dnn_bw_dog_40_n02088466_3052.png,n02088466_3052.png,0.0,2.1307652,5.3602595,-2.2835975
bagnet33,1,422,NaN,keyboard,keyboard,cr,0422_cl_dnn_cr_keyboard_40_n04505470_7161.png,n04505470_7161.png,1.0,41.294495,14.359734,19.045752
bagnet33,1,423,NaN,keyboard,keyboard,cr,0423_cl_dnn_cr_keyboard_40_n04505470_2321.png,n04505470_2321.png,1.0,15.187787,3.3281868,8.3860035
bagnet33,1,424,NaN,knife,knife,cr,0424_cl_dnn_cr_knife_40_n03041632_6708.png,n03041632_6708.png,1.0,12.501507,6.4637027,4.2693725
bagnet33,1,425,NaN,keyboard,keyboard,bw,0425_cl_dnn_bw_keyboard_40_n04505470_4965.png,n04505470_4965.png,1.0,45.20485,15.340691,21.11715
bagnet33,1,426,NaN,cat,cat,bw,0426_cl_dnn_bw_cat_40_n02123597_11981.png,n02123597_11981.png,1.0,9.152803,6.7694573,1.6852802
bagnet33,1,427,NaN,truck,truck,cr,0427_cl_dnn_cr_truck_40_n03417042_2778.png,n03417042_2778.png,1.0,10.419293,4.80783,3.967904
bagnet33,1,428,NaN,truck,car,cr,0428_cl_dnn_cr_car_40_n02814533_80049.png,n02814533_80049.png,0.0,13.168648,14.48992,-0.93428034
bagnet33,1,429,NaN,knife,keyboard,cr,0429_cl_dnn_cr_keyboard_40_n03085013_23561.png,n03085013_23561.png,0.0,1.6226902,6.693142,-3.5853508
bagnet33,1,430,NaN,airplane,airplane,bw,0430_cl_dnn_bw_airplane_40_n02690373_1800.png,n02690373_1800.png,1.0,12.770718,5.3540945,5.2443447
bagnet33,1,431,NaN,airplane,chair,bw,0431_cl_dnn_bw_chair_40_n02791124_4306.png,n02791124_4306.png,0.0,3.240964,5.9726806,-1.9316154
bagnet33,1,432,NaN,knife,knife,bw,0432_cl_dnn_bw_knife_40_n03041632_33424.png,n03041632_33424.png,1.0,5.5344486,5.32998,0.14458123
bagnet33,1,433,NaN,boat,boat,cr,0433_cl_dnn_cr_boat_40_n04273569_111.png,n04273569_111.png,1.0,10.493131,5.3041706,3.669149
bagnet33,1,434,NaN,bear,bear,bw,0434_cl_dnn_bw_bear_40_n02132136_4403.png,n02132136_4403.png,1.0,10.663284,8.795705,1.3205781
bagnet33,1,435,NaN,bicycle,bicycle,bw,0435_cl_dnn_bw_bicycle_40_n03792782_49707.png,n03792782_49707.png,1.0,6.8232427,3.997738,1.9979336
bagnet33,1,436,NaN,bicycle,bicycle,cr,0436_cl_dnn_cr_bicycle_40_n02835271_3308.png,n02835271_3308.png,1.0,24.641409,4.359685,14.341344
bagnet33,1,437,NaN,clock,clock,bw,0437_cl_dnn_bw_clock_40_n04548280_3305.png,n04548280_3305.png,1.0,9.9174185,7.0659933,2.016262
bagnet33,1,438,NaN,boat,boat,bw,0438_cl_dnn_bw_boat_40_n03344393_7614.png,n03344393_7614.png,1.0,11.8615055,6.5588884,3.7495165
bagnet33,1,439,NaN,chair,bicycle,bw,0439_cl_dnn_bw_bicycle_40_n02835271_9434.png,n02835271_9434.png,0.0,4.1286364,7.169294,-2.1500695
bagnet33,1,440,NaN,chair,truck,bw,0440_cl_dnn_bw_truck_40_n03417042_3039.png,n03417042_3039.png,0.0,3.9009852,6.9371014,-2.1468585
bagnet33,1,441,NaN,oven,oven,cr,0441_cl_dnn_cr_oven_40_n04111531_5519.png,n04111531_5519.png,1.0,13.1383705,3.2432623,6.996898
bagnet33,1,442,NaN,bottle,bottle,cr,0442_cl_dnn_cr_bottle_40_n03983396_3702.png,n03983396_3702.png,1.0,12.299789,3.74354,6.0501823
bagnet33,1,443,NaN,clock,clock,cr,0443_cl_dnn_cr_clock_40_n04548280_2177.png,n04548280_2177.png,1.0,19.076944,9.925802,6.4708347
bagnet33,1,444,NaN,bottle,bottle,cr,0444_cl_dnn_cr_bottle_40_n03983396_4132.png,n03983396_4132.png,1.0,19.120417,1.0796256,12.756765
bagnet33,1,445,NaN,bicycle,bicycle,cr,0445_cl_dnn_cr_bicycle_40_n02835271_17509.png,n02835271_17509.png,1.0,17.84018,5.6481786,8.621047
bagnet33,1,446,NaN,airplane,airplane,bw,0446_cl_dnn_bw_airplane_40_n02690373_3090.png,n02690373_3090.png,1.0,22.545364,5.681948,11.924236
bagnet33,1,447,NaN,chair,chair,cr,0447_cl_dnn_cr_chair_40_n03376595_1302.png,n03376595_1302.png,1.0,22.828756,4.932043,12.654887
bagnet33,1,448,NaN,dog,dog,cr,0448_cl_dnn_cr_dog_40_n02107683_3640.png,n02107683_3640.png,1.0,10.552374,1.5406675,6.3722386
bagnet33,1,449,NaN,car,car,cr,0449_cl_dnn_cr_car_40_n03100240_770.png,n03100240_770.png,1.0,19.36395,11.619167,5.476389
bagnet33,1,450,NaN,knife,knife,cr,0450_cl_dnn_cr_knife_40_n03041632_4305.png,n03041632_4305.png,1.0,5.763173,2.9235978,2.007883
bagnet33,1,451,NaN,elephant,elephant,cr,0451_cl_dnn_cr_elephant_40_n02504013_4590.png,n02504013_4590.png,1.0,31.836916,4.225954,19.5239
bagnet33,1,452,NaN,truck,truck,cr,0452_cl_dnn_cr_truck_40_n03417042_5752.png,n03417042_5752.png,1.0,5.040989,3.0017169,1.4419831
bagnet33,1,453,NaN,oven,oven,cr,0453_cl_dnn_cr_oven_40_n04111531_21931.png,n04111531_21931.png,1.0,22.372318,5.6101,11.852678
bagnet33,1,454,NaN,elephant,elephant,bw,0454_cl_dnn_bw_elephant_40_n02504458_4711.png,n02504458_4711.png,1.0,13.755022,6.411586,5.1925936
bagnet33,1,455,NaN,clock,clock,bw,0455_cl_dnn_bw_clock_40_n02708093_8033.png,n02708093_8033.png,1.0,27.525034,6.381892,14.9504595
bagnet33,1,456,NaN,bicycle,bicycle,bw,0456_cl_dnn_bw_bicycle_40_n03792782_41992.png,n03792782_41992.png,1.0,32.00584,7.2523637,17.503351
bagnet33,1,457,NaN,keyboard,keyboard,cr,0457_cl_dnn_cr_keyboard_40_n03085013_5622.png,n03085013_5622.png,1.0,19.16016,6.795235,8.743322
bagnet33,1,458,NaN,bicycle,bird,bw,0458_cl_dnn_bw_bird_40_n02009912_1919.png,n02009912_1919.png,0.0,1.6128958,2.1792436,-0.40046832
bagnet33,1,459,NaN,bottle,bottle,cr,0459_cl_dnn_cr_bottle_40_n03937543_4202.png,n03937543_4202.png,1.0,10.645607,5.0369215,3.9659395
bagnet33,1,460,NaN,bicycle,bicycle,bw,0460_cl_dnn_bw_bicycle_40_n02835271_4341.png,n02835271_4341.png,1.0,13.253725,4.141178,6.443544
bagnet33,1,461,NaN,elephant,bear,bw,0461_cl_dnn_bw_bear_40_n02132136_18543.png,n02132136_18543.png,0.0,4.7709947,9.619056,-3.428097
bagnet33,1,462,NaN,cat,cat,bw,0462_cl_dnn_bw_cat_40_n02124075_14425.png,n02124075_14425.png,1.0,21.128567,6.1289196,10.606353
bagnet33,1,463,NaN,clock,clock,bw,0463_cl_dnn_bw_clock_40_n02708093_544.png,n02708093_544.png,1.0,8.587716,6.235892,1.6629909
bagnet33,1,464,NaN,bear,bear,cr,0464_cl_dnn_cr_bear_40_n02133161_7604.png,n02133161_7604.png,1.0,5.1171713,4.906003,0.14931853
bagnet33,1,465,NaN,car,car,bw,0465_cl_dnn_bw_car_40_n03100240_15407.png,n03100240_15407.png,1.0,21.847734,13.497133,5.904767
bagnet33,1,466,NaN,bicycle,bicycle,bw,0466_cl_dnn_bw_bicycle_40_n02835271_12926.png,n02835271_12926.png,1.0,12.489391,4.4209747,5.705232
bagnet33,1,467,NaN,oven,chair,cr,0467_cl_dnn_cr_chair_40_n03376595_2056.png,n03376595_2056.png,0.0,4.290408,7.099928,-1.9866306
bagnet33,1,468,NaN,oven,oven,bw,0468_cl_dnn_bw_oven_40_n04111531_9762.png,n04111531_9762.png,1.0,16.480768,6.7194037,6.9023266
bagnet33,1,469,NaN,bicycle,bicycle,bw,0469_cl_dnn_bw_bicycle_40_n03792782_25799.png,n03792782_25799.png,1.0,13.815441,5.327932,6.001575
bagnet33,1,470,NaN,oven,oven,cr,0470_cl_dnn_cr_oven_40_n04111531_3570.png,n04111531_3570.png,1.0,22.316593,6.973908,10.848917
bagnet33,1,471,NaN,car,car,cr,0471_cl_dnn_cr_car_40_n04285008_874.png,n04285008_874.png,1.0,16.538475,12.105553,3.1345496
bagnet33,1,472,NaN,chair,bottle,cr,0472_cl_dnn_cr_bottle_40_n04557648_364.png,n04557648_364.png,0.0,1.055114,3.1615515,-1.4894762
bagnet33,1,473,NaN,airplane,airplane,bw,0473_cl_dnn_bw_airplane_40_n02690373_8461.png,n02690373_8461.png,1.0,23.411907,7.2424693,11.433519
bagnet33,1,474,NaN,boat,boat,cr,0474_cl_dnn_cr_boat_40_n04273569_1087.png,n04273569_1087.png,1.0,12.891294,6.173133,4.750457
bagnet33,1,475,NaN,chair,chair,cr,0475_cl_dnn_cr_chair_40_n03376595_1798.png,n03376595_1798.png,1.0,7.4460964,4.6615663,1.9689602
bagnet33,1,476,NaN,oven,oven,cr,0476_cl_dnn_cr_oven_40_n04111531_5290.png,n04111531_5290.png,1.0,20.553236,6.1988034,10.150117
bagnet33,1,477,NaN,cat,cat,bw,0477_cl_dnn_bw_cat_40_n02124075_12369.png,n02124075_12369.png,1.0,24.11086,7.229766,11.936738
bagnet33,1,478,NaN,elephant,elephant,bw,0478_cl_dnn_bw_elephant_40_n02504458_3714.png,n02504458_3714.png,1.0,8.902034,3.526051,3.801394
bagnet33,1,479,NaN,bottle,bicycle,bw,0479_cl_dnn_bw_bicycle_40_n03792782_7388.png,n03792782_7388.png,0.0,5.298864,6.7109632,-0.99850506
bagnet33,1,480,NaN,truck,truck,cr,0480_cl_dnn_cr_truck_40_n03796401_18240.png,n03796401_18240.png,1.0,12.487977,9.087688,2.4043672
bagnet33,1,481,NaN,airplane,airplane,cr,0481_cl_dnn_cr_airplane_40_n02690373_610.png,n02690373_610.png,1.0,34.387886,8.390022,18.383266
bagnet33,1,482,NaN,airplane,airplane,bw,0482_cl_dnn_bw_airplane_40_n02690373_6046.png,n02690373_6046.png,1.0,32.738716,8.072252,17.441824
bagnet33,1,483,NaN,dog,dog,cr,0483_cl_dnn_cr_dog_40_n02105505_4069.png,n02105505_4069.png,1.0,4.824132,4.2232122,0.42491442
bagnet33,1,484,NaN,clock,chair,bw,0484_cl_dnn_bw_chair_40_n04429376_1954.png,n04429376_1954.png,0.0,4.5154877,4.7997165,-0.20098011
bagnet33,1,485,NaN,oven,oven,bw,0485_cl_dnn_bw_oven_40_n04111531_7862.png,n04111531_7862.png,1.0,9.784622,4.9489946,3.419305
bagnet33,1,486,NaN,chair,chair,cr,0486_cl_dnn_cr_chair_40_n02791124_7424.png,n02791124_7424.png,1.0,8.254919,5.090161,2.237822
bagnet33,1,487,NaN,elephant,dog,bw,0487_cl_dnn_bw_dog_40_n02088466_5521.png,n02088466_5521.png,0.0,7.645142,11.676177,-2.850372
bagnet33,1,488,NaN,bear,bear,cr,0488_cl_dnn_cr_bear_40_n02133161_12868.png,n02133161_12868.png,1.0,7.094207,4.8253164,1.6043478
bagnet33,1,489,NaN,keyboard,keyboard,bw,0489_cl_dnn_bw_keyboard_40_n04505470_4107.png,n04505470_4107.png,1.0,22.33059,12.527189,6.9320507
bagnet33,1,490,NaN,boat,boat,bw,0490_cl_dnn_bw_boat_40_n03662601_855.png,n03662601_855.png,1.0,11.604021,6.635875,3.5130098
bagnet33,1,491,NaN,bird,bird,cr,0491_cl_dnn_cr_bird_40_n02017213_7558.png,n02017213_7558.png,1.0,8.145137,1.8314233,4.46447
bagnet33,1,492,NaN,knife,bottle,bw,0492_cl_dnn_bw_bottle_40_n04557648_23801.png,n04557648_23801.png,0.0,2.5695298,4.8458858,-1.6096268
bagnet33,1,493,NaN,bird,bird,bw,0493_cl_dnn_bw_bird_40_n01601694_13054.png,n01601694_13054.png,1.0,7.5503106,1.9134046,3.9858947
bagnet33,1,494,NaN,oven,oven,bw,0494_cl_dnn_bw_oven_40_n04111531_2207.png,n04111531_2207.png,1.0,13.821081,4.3032303,6.730137
bagnet33,1,495,NaN,bird,bird,bw,0495_cl_dnn_bw_bird_40_n02009912_9425.png,n02009912_9425.png,1.0,4.8057756,4.411867,0.27853537
bagnet33,1,496,NaN,clock,clock,cr,0496_cl_dnn_cr_clock_40_n03196217_6193.png,n03196217_6193.png,1.0,32.36147,3.318938,20.536171
bagnet33,1,497,NaN,airplane,boat,bw,0497_cl_dnn_bw_boat_40_n04273569_27625.png,n04273569_27625.png,0.0,7.4477816,11.39302,-2.7897046
bagnet33,1,498,NaN,truck,truck,bw,0498_cl_dnn_bw_truck_40_n03417042_29855.png,n03417042_29855.png,1.0,7.8598175,6.272688,1.1222701
bagnet33,1,499,NaN,bottle,bottle,cr,0499_cl_dnn_cr_bottle_40_n03983396_4212.png,n03983396_4212.png,1.0,26.532564,6.2627,14.332958
bagnet33,1,500,NaN,cat,cat,bw,0500_cl_dnn_bw_cat_40_n02123597_11613.png,n02123597_11613.png,1.0,11.47398,4.178442,5.1587243
bagnet33,1,501,NaN,clock,clock,cr,0501_cl_dnn_cr_clock_40_n02708093_1559.png,n02708093_1559.png,1.0,6.022844,2.879747,2.222505
bagnet33,1,502,NaN,chair,chair,cr,0502_cl_dnn_cr_chair_40_n02791124_7031.png,n02791124_7031.png,1.0,7.4256864,5.4012055,1.4315242
bagnet33,1,503,NaN,bottle,bottle,cr,0503_cl_dnn_cr_bottle_40_n04560804_1703.png,n04560804_1703.png,1.0,10.871118,6.7751245,2.8963046
bagnet33,1,504,NaN,bottle,bottle,bw,0504_cl_dnn_bw_bottle_40_n04560804_15679.png,n04560804_15679.png,1.0,13.367872,4.0120993,6.6155305
bagnet33,1,505,NaN,bottle,bottle,bw,0505_cl_dnn_bw_bottle_40_n03983396_1006.png,n03983396_1006.png,1.0,12.973284,4.1900234,6.210703
bagnet33,1,506,NaN,knife,knife,bw,0506_cl_dnn_bw_knife_40_n03041632_100645.png,n03041632_100645.png,1.0,9.15179,5.890033,2.3064106
bagnet33,1,507,NaN,car,car,cr,0507_cl_dnn_cr_car_40_n02814533_54845.png,n02814533_54845.png,1.0,15.858418,9.824056,4.2669387
bagnet33,1,508,NaN,keyboard,keyboard,cr,0508_cl_dnn_cr_keyboard_40_n03085013_20078.png,n03085013_20078.png,1.0,15.910322,2.5973063,9.413724
bagnet33,1,509,NaN,chair,chair,cr,0509_cl_dnn_cr_chair_40_n04099969_4543.png,n04099969_4543.png,1.0,8.286726,8.248843,0.026787188
bagnet33,1,510,NaN,bear,bear,cr,0510_cl_dnn_cr_bear_40_n02134418_1253.png,n02134418_1253.png,1.0,5.8132896,5.4275537,0.27275655
bagnet33,1,511,NaN,bicycle,bicycle,bw,0511_cl_dnn_bw_bicycle_40_n02835271_8137.png,n02835271_8137.png,1.0,9.770271,2.2855747,5.2924795
bagnet33,1,512,NaN,keyboard,keyboard,bw,0512_cl_dnn_bw_keyboard_40_n04505470_7312.png,n04505470_7312.png,1.0,18.778233,7.2648096,8.141219
bagnet33,1,513,NaN,elephant,elephant,cr,0513_cl_dnn_cr_elephant_40_n02504013_2460.png,n02504013_2460.png,1.0,16.796787,7.5112214,6.565887
bagnet33,1,514,NaN,clock,clock,cr,0514_cl_dnn_cr_clock_40_n04548280_13469.png,n04548280_13469.png,1.0,5.11729,3.1351879,1.4015579
bagnet33,1,515,NaN,chair,chair,cr,0515_cl_dnn_cr_chair_40_n02791124_3161.png,n02791124_3161.png,1.0,5.6588044,5.374075,0.20133415
bagnet33,1,516,NaN,elephant,dog,cr,0516_cl_dnn_cr_dog_40_n02093647_1818.png,n02093647_1818.png,0.0,4.8090296,4.8482733,-0.027749486
bagnet33,1,517,NaN,chair,chair,cr,0517_cl_dnn_cr_chair_40_n02791124_4294.png,n02791124_4294.png,1.0,7.4744005,5.193009,1.6131876
bagnet33,1,518,NaN,cat,cat,cr,0518_cl_dnn_cr_cat_40_n02124075_3533.png,n02124075_3533.png,1.0,28.732718,11.32436,12.309568
bagnet33,1,519,NaN,boat,boat,cr,0519_cl_dnn_cr_boat_40_n03344393_2480.png,n03344393_2480.png,1.0,12.067609,4.80971,5.1321096
bagnet33,1,520,NaN,airplane,car,bw,0520_cl_dnn_bw_car_40_n02814533_95054.png,n02814533_95054.png,0.0,11.76271,12.688852,-0.6548818
bagnet33,1,521,NaN,bottle,bottle,cr,0521_cl_dnn_cr_bottle_40_n03937543_1808.png,n03937543_1808.png,1.0,17.343119,4.641263,8.981568
bagnet33,1,522,NaN,car,car,cr,0522_cl_dnn_cr_car_40_n02814533_72213.png,n02814533_72213.png,1.0,20.896421,15.682609,3.6867225
bagnet33,1,523,NaN,clock,clock,cr,0523_cl_dnn_cr_clock_40_n03196217_1499.png,n03196217_1499.png,1.0,27.06887,7.7400026,13.667575
bagnet33,1,524,NaN,cat,cat,cr,0524_cl_dnn_cr_cat_40_n02123045_5300.png,n02123045_5300.png,1.0,17.292484,9.153711,5.7549815
bagnet33,1,525,NaN,bicycle,bird,bw,0525_cl_dnn_bw_bird_40_n02006656_3185.png,n02006656_3185.png,0.0,-2.312032,7.1840653,-6.714755
bagnet33,1,526,NaN,clock,clock,cr,0526_cl_dnn_cr_clock_40_n03196217_4541.png,n03196217_4541.png,1.0,14.36309,5.9254684,5.966299
bagnet33,1,527,NaN,cat,cat,cr,0527_cl_dnn_cr_cat_40_n02123159_2317.png,n02123159_2317.png,1.0,33.76376,10.927444,16.147713
bagnet33,1,528,NaN,bear,bear,cr,0528_cl_dnn_cr_bear_40_n02133161_1362.png,n02133161_1362.png,1.0,9.198559,7.9304867,0.8966624
bagnet33,1,529,NaN,clock,clock,bw,0529_cl_dnn_bw_clock_40_n04548280_1202.png,n04548280_1202.png,1.0,11.939876,4.58259,5.2023864
bagnet33,1,530,NaN,dog,dog,bw,0530_cl_dnn_bw_dog_40_n02095570_6717.png,n02095570_6717.png,1.0,9.951814,7.842137,1.4917668
bagnet33,1,531,NaN,car,car,bw,0531_cl_dnn_bw_car_40_n03100240_15941.png,n03100240_15941.png,1.0,15.649549,11.375488,3.022217
bagnet33,1,532,NaN,chair,chair,bw,0532_cl_dnn_bw_chair_40_n02791124_1443.png,n02791124_1443.png,1.0,8.093093,7.5946555,0.35244846
bagnet33,1,533,NaN,bottle,bottle,cr,0533_cl_dnn_cr_bottle_40_n04557648_830.png,n04557648_830.png,1.0,26.8589,3.439268,16.56018
bagnet33,1,534,NaN,truck,truck,cr,0534_cl_dnn_cr_truck_40_n03417042_8298.png,n03417042_8298.png,1.0,24.03695,10.909714,9.282357
bagnet33,1,535,NaN,clock,clock,bw,0535_cl_dnn_bw_clock_40_n02708093_4569.png,n02708093_4569.png,1.0,29.851889,9.979454,14.051933
bagnet33,1,536,NaN,keyboard,keyboard,cr,0536_cl_dnn_cr_keyboard_40_n03085013_7576.png,n03085013_7576.png,1.0,11.604001,7.644849,2.7995434
bagnet33,1,537,NaN,truck,truck,bw,0537_cl_dnn_bw_truck_40_n03417042_27093.png,n03417042_27093.png,1.0,14.947681,10.489109,3.1526868
bagnet33,1,538,NaN,elephant,elephant,cr,0538_cl_dnn_cr_elephant_40_n02504013_13560.png,n02504013_13560.png,1.0,10.999481,2.6863704,5.878257
bagnet33,1,539,NaN,car,car,bw,0539_cl_dnn_bw_car_40_n04285008_12045.png,n04285008_12045.png,1.0,17.4682,12.311302,3.646478
bagnet33,1,540,NaN,airplane,airplane,cr,0540_cl_dnn_cr_airplane_40_n02690373_5176.png,n02690373_5176.png,1.0,23.921227,7.8211336,11.384486
bagnet33,1,541,NaN,bicycle,bicycle,bw,0541_cl_dnn_bw_bicycle_40_n03792782_6194.png,n03792782_6194.png,1.0,16.58107,4.724689,8.383727
bagnet33,1,542,NaN,oven,oven,cr,0542_cl_dnn_cr_oven_40_n04111531_15912.png,n04111531_15912.png,1.0,21.470676,2.9733138,13.079611
bagnet33,1,543,NaN,oven,oven,cr,0543_cl_dnn_cr_oven_40_n04111531_2592.png,n04111531_2592.png,1.0,11.514697,4.6961503,4.8214407
bagnet33,1,544,NaN,bird,bird,cr,0544_cl_dnn_cr_bird_40_n02011460_2435.png,n02011460_2435.png,1.0,4.4332323,0.26534575,2.947141
bagnet33,1,545,NaN,car,car,cr,0545_cl_dnn_cr_car_40_n02814533_33205.png,n02814533_33205.png,1.0,10.6989565,8.597698,1.485814
bagnet33,1,546,NaN,oven,oven,bw,0546_cl_dnn_bw_oven_40_n04111531_14959.png,n04111531_14959.png,1.0,6.4455786,4.8052635,1.1598779
bagnet33,1,547,NaN,clock,clock,cr,0547_cl_dnn_cr_clock_40_n04548280_6743.png,n04548280_6743.png,1.0,29.909735,9.798855,14.22054
bagnet33,1,548,NaN,oven,knife,bw,0548_cl_dnn_bw_knife_40_n03041632_15299.png,n03041632_15299.png,0.0,2.7684443,7.265002,-3.179546
bagnet33,1,549,NaN,bicycle,clock,bw,0549_cl_dnn_bw_clock_40_n03196217_127.png,n03196217_127.png,0.0,1.9158996,4.004732,-1.4770275
bagnet33,1,550,NaN,boat,boat,bw,0550_cl_dnn_bw_boat_40_n04273569_12917.png,n04273569_12917.png,1.0,10.884184,8.932989,1.379703
bagnet33,1,551,NaN,airplane,airplane,cr,0551_cl_dnn_cr_airplane_40_n02690373_9626.png,n02690373_9626.png,1.0,35.230404,7.777963,19.411806
bagnet33,1,552,NaN,bear,bear,cr,0552_cl_dnn_cr_bear_40_n02134084_20500.png,n02134084_20500.png,1.0,9.319139,5.152378,2.9463446
bagnet33,1,553,NaN,elephant,bear,bw,0553_cl_dnn_bw_bear_40_n02132136_6890.png,n02132136_6890.png,0.0,2.4620228,3.5665565,-0.78102326
bagnet33,1,554,NaN,bottle,bottle,bw,0554_cl_dnn_bw_bottle_40_n02823428_3049.png,n02823428_3049.png,1.0,10.322691,4.0668855,4.4235225
bagnet33,1,555,NaN,clock,keyboard,cr,0555_cl_dnn_cr_keyboard_40_n03085013_22837.png,n03085013_22837.png,0.0,3.8060398,4.6331263,-0.58483845
bagnet33,1,556,NaN,keyboard,keyboard,bw,0556_cl_dnn_bw_keyboard_40_n03085013_3264.png,n03085013_3264.png,1.0,34.029938,5.6636004,20.05803
bagnet33,1,557,NaN,bear,bear,bw,0557_cl_dnn_bw_bear_40_n02134418_7795.png,n02134418_7795.png,1.0,8.934757,6.472663,1.7409636
bagnet33,1,558,NaN,boat,boat,bw,0558_cl_dnn_bw_boat_40_n02951358_34163.png,n02951358_34163.png,1.0,8.155184,2.2862608,4.1499553
bagnet33,1,559,NaN,elephant,bear,cr,0559_cl_dnn_cr_bear_40_n02132136_8637.png,n02132136_8637.png,0.0,13.190836,13.723684,-0.3767807
bagnet33,1,560,NaN,truck,truck,cr,0560_cl_dnn_cr_truck_40_n03417042_4218.png,n03417042_4218.png,1.0,20.251762,9.167183,7.837981
bagnet33,1,561,NaN,clock,clock,bw,0561_cl_dnn_bw_clock_40_n04548280_4473.png,n04548280_4473.png,1.0,11.631757,6.112724,3.9025457
bagnet33,1,562,NaN,bear,bear,bw,0562_cl_dnn_bw_bear_40_n02132136_21799.png,n02132136_21799.png,1.0,17.059265,7.56253,6.7152057
bagnet33,1,563,NaN,bird,bird,cr,0563_cl_dnn_cr_bird_40_n01531178_5780.png,n01531178_5780.png,1.0,9.609529,3.6009963,4.2486744
bagnet33,1,564,NaN,truck,truck,cr,0564_cl_dnn_cr_truck_40_n03796401_27184.png,n03796401_27184.png,1.0,17.407703,9.0545845,5.906547
bagnet33,1,565,NaN,clock,clock,bw,0565_cl_dnn_bw_clock_40_n03196217_5258.png,n03196217_5258.png,1.0,10.453933,8.435799,1.4270363
bagnet33,1,566,NaN,bird,bird,cr,0566_cl_dnn_cr_bird_40_n02002556_15337.png,n02002556_15337.png,1.0,4.002292,3.9584382,0.03100946
bagnet33,1,567,NaN,bottle,bottle,cr,0567_cl_dnn_cr_bottle_40_n04560804_3683.png,n04560804_3683.png,1.0,8.552999,7.4741516,0.76286
bagnet33,1,568,NaN,bicycle,bicycle,cr,0568_cl_dnn_cr_bicycle_40_n02835271_8511.png,n02835271_8511.png,1.0,24.479187,5.266299,13.585564
bagnet33,1,569,NaN,bear,bear,cr,0569_cl_dnn_cr_bear_40_n02134084_23974.png,n02134084_23974.png,1.0,6.384509,6.043846,0.2408851
bagnet33,1,570,NaN,chair,dog,bw,0570_cl_dnn_bw_dog_40_n02091244_9271.png,n02091244_9271.png,0.0,1.8900957,2.807065,-0.64839524
bagnet33,1,571,NaN,elephant,bear,cr,0571_cl_dnn_cr_bear_40_n02133161_6946.png,n02133161_6946.png,0.0,3.7415662,3.9128242,-0.12109768
bagnet33,1,572,NaN,airplane,truck,bw,0572_cl_dnn_bw_truck_40_n04467665_10060.png,n04467665_10060.png,0.0,12.467562,15.684929,-2.2750223
bagnet33,1,573,NaN,oven,oven,bw,0573_cl_dnn_bw_oven_40_n04111531_5328.png,n04111531_5328.png,1.0,16.698917,10.464798,4.4081883
bagnet33,1,574,NaN,bottle,bottle,cr,0574_cl_dnn_cr_bottle_40_n04560804_2005.png,n04560804_2005.png,1.0,5.833141,3.029981,1.9821334
bagnet33,1,575,NaN,bear,bear,bw,0575_cl_dnn_bw_bear_40_n02134084_3695.png,n02134084_3695.png,1.0,4.3867397,4.2489867,0.09740609
bagnet33,1,576,NaN,cat,cat,bw,0576_cl_dnn_bw_cat_40_n02123597_2219.png,n02123597_2219.png,1.0,20.537737,8.753315,8.332845
bagnet33,1,577,NaN,chair,chair,bw,0577_cl_dnn_bw_chair_40_n02791124_6077.png,n02791124_6077.png,1.0,8.910823,6.739026,1.5356922
bagnet33,1,578,NaN,knife,bottle,cr,0578_cl_dnn_cr_bottle_40_n04579145_7431.png,n04579145_7431.png,0.0,3.700746,4.564864,-0.6110238
bagnet33,1,579,NaN,keyboard,keyboard,bw,0579_cl_dnn_bw_keyboard_40_n04505470_510.png,n04505470_510.png,1.0,15.829645,6.8959603,6.3170695
bagnet33,1,580,NaN,oven,oven,cr,0580_cl_dnn_cr_oven_40_n04111531_4452.png,n04111531_4452.png,1.0,26.687801,8.466545,12.884374
bagnet33,1,581,NaN,elephant,elephant,bw,0581_cl_dnn_bw_elephant_40_n02504013_237.png,n02504013_237.png,1.0,21.799116,3.753508,12.760173
bagnet33,1,582,NaN,elephant,elephant,cr,0582_cl_dnn_cr_elephant_40_n02504013_10351.png,n02504013_10351.png,1.0,30.272255,4.9518566,17.904226
bagnet33,1,583,NaN,elephant,elephant,cr,0583_cl_dnn_cr_elephant_40_n02504458_1304.png,n02504458_1304.png,1.0,27.39885,4.725641,16.03238
bagnet33,1,584,NaN,dog,dog,bw,0584_cl_dnn_bw_dog_40_n02104365_9837.png,n02104365_9837.png,1.0,3.8230736,3.01279,0.5729571
bagnet33,1,585,NaN,cat,cat,cr,0585_cl_dnn_cr_cat_40_n02123045_9661.png,n02123045_9661.png,1.0,22.459091,4.9252563,12.3982935
bagnet33,1,586,NaN,bottle,bottle,bw,0586_cl_dnn_bw_bottle_40_n02823428_5214.png,n02823428_5214.png,1.0,5.527652,4.3377934,0.841357
bagnet33,1,587,NaN,bird,bird,bw,0587_cl_dnn_bw_bird_40_n01828970_5448.png,n01828970_5448.png,1.0,8.519874,2.9831977,3.9150212
bagnet33,1,588,NaN,car,car,cr,0588_cl_dnn_cr_car_40_n02814533_83874.png,n02814533_83874.png,1.0,5.3565164,4.9830904,0.26405203
bagnet33,1,589,NaN,oven,oven,bw,0589_cl_dnn_bw_oven_40_n04111531_8036.png,n04111531_8036.png,1.0,16.989077,5.2456274,8.303873
bagnet33,1,590,NaN,oven,oven,cr,0590_cl_dnn_cr_oven_40_n04111531_7355.png,n04111531_7355.png,1.0,9.704653,9.675847,0.020368729
bagnet33,1,591,NaN,car,car,bw,0591_cl_dnn_bw_car_40_n04285008_13354.png,n04285008_13354.png,1.0,8.528707,6.802143,1.2208648
bagnet33,1,592,NaN,clock,clock,cr,0592_cl_dnn_cr_clock_40_n02708093_8267.png,n02708093_8267.png,1.0,10.771665,6.383489,3.1029086
bagnet33,1,593,NaN,cat,cat,bw,0593_cl_dnn_bw_cat_40_n02124075_14242.png,n02124075_14242.png,1.0,20.938066,4.357019,11.724571
bagnet33,1,594,NaN,knife,knife,cr,0594_cl_dnn_cr_knife_40_n03041632_4279.png,n03041632_4279.png,1.0,9.462785,6.6447425,1.9926568
bagnet33,1,595,NaN,oven,oven,cr,0595_cl_dnn_cr_oven_40_n04111531_2296.png,n04111531_2296.png,1.0,12.348639,6.7528915,3.9567907
bagnet33,1,596,NaN,boat,boat,cr,0596_cl_dnn_cr_boat_40_n03344393_5859.png,n03344393_5859.png,1.0,18.28675,5.2326956,9.230611
bagnet33,1,597,NaN,truck,car,cr,0597_cl_dnn_cr_car_40_n02814533_57176.png,n02814533_57176.png,0.0,15.0034,18.478926,-2.457568
bagnet33,1,598,NaN,cat,cat,bw,0598_cl_dnn_bw_cat_40_n02123159_1769.png,n02123159_1769.png,1.0,5.9671726,4.5502596,1.0019088
bagnet33,1,599,NaN,clock,clock,cr,0599_cl_dnn_cr_clock_40_n02708093_4976.png,n02708093_4976.png,1.0,32.09625,6.2220635,18.295813
bagnet33,1,600,NaN,truck,truck,cr,0600_cl_dnn_cr_truck_40_n03796401_8864.png,n03796401_8864.png,1.0,9.576042,8.989465,0.41477287
bagnet33,1,601,NaN,clock,clock,bw,0601_cl_dnn_bw_clock_40_n03196217_868.png,n03196217_868.png,1.0,18.79291,8.5091095,7.2717447
bagnet33,1,602,NaN,cat,keyboard,bw,0602_cl_dnn_bw_keyboard_40_n03085013_3910.png,n03085013_3910.png,0.0,3.6274314,4.2465796,-0.43780392
bagnet33,1,603,NaN,bicycle,bicycle,cr,0603_cl_dnn_cr_bicycle_40_n03792782_5466.png,n03792782_5466.png,1.0,28.517616,2.9024327,18.112669
bagnet33,1,604,NaN,bear,bear,bw,0604_cl_dnn_bw_bear_40_n02132136_23248.png,n02132136_23248.png,1.0,14.877214,7.858409,4.963045
bagnet33,1,605,NaN,truck,truck,bw,0605_cl_dnn_bw_truck_40_n03417042_2794.png,n03417042_2794.png,1.0,12.892357,6.3955226,4.5939555
bagnet33,1,606,NaN,chair,chair,bw,0606_cl_dnn_bw_chair_40_n02791124_7324.png,n02791124_7324.png,1.0,7.2659435,5.580621,1.1917032
bagnet33,1,607,NaN,bicycle,bicycle,bw,0607_cl_dnn_bw_bicycle_40_n02835271_6736.png,n02835271_6736.png,1.0,23.251713,7.927562,10.835811
bagnet33,1,608,NaN,clock,clock,bw,0608_cl_dnn_bw_clock_40_n04548280_8990.png,n04548280_8990.png,1.0,42.389736,13.840946,20.187044
bagnet33,1,609,NaN,airplane,airplane,bw,0609_cl_dnn_bw_airplane_40_n02690373_971.png,n02690373_971.png,1.0,16.198517,5.9566956,7.2420616
bagnet33,1,610,NaN,bear,bear,bw,0610_cl_dnn_bw_bear_40_n02132136_23853.png,n02132136_23853.png,1.0,8.713099,6.8832707,1.2938837
bagnet33,1,611,NaN,clock,clock,cr,0611_cl_dnn_cr_clock_40_n03196217_3416.png,n03196217_3416.png,1.0,9.937549,6.063482,2.739379
bagnet33,1,612,NaN,clock,clock,bw,0612_cl_dnn_bw_clock_40_n04548280_4346.png,n04548280_4346.png,1.0,4.0460587,2.273281,1.253543
bagnet33,1,613,NaN,oven,oven,cr,0613_cl_dnn_cr_oven_40_n04111531_2342.png,n04111531_2342.png,1.0,31.260717,7.9379325,16.4917
bagnet33,1,614,NaN,chair,chair,bw,0614_cl_dnn_bw_chair_40_n04099969_8509.png,n04099969_8509.png,1.0,8.62998,4.8429675,2.6778224
bagnet33,1,615,NaN,clock,bottle,bw,0615_cl_dnn_bw_bottle_40_n03937543_4340.png,n03937543_4340.png,0.0,8.915036,10.011315,-0.7751864
bagnet33,1,616,NaN,airplane,clock,bw,0616_cl_dnn_bw_clock_40_n02708093_6655.png,n02708093_6655.png,0.0,2.3215964,6.865619,-3.2131093
bagnet33,1,617,NaN,cat,cat,cr,0617_cl_dnn_cr_cat_40_n02123159_1339.png,n02123159_1339.png,1.0,38.332317,13.2702465,17.721561
bagnet33,1,618,NaN,chair,knife,bw,0618_cl_dnn_bw_knife_40_n03041632_30553.png,n03041632_30553.png,0.0,4.2235007,5.022751,-0.5651552
bagnet33,1,619,NaN,bicycle,bicycle,cr,0619_cl_dnn_cr_bicycle_40_n03792782_18707.png,n03792782_18707.png,1.0,17.392393,3.3914351,9.900172
bagnet33,1,620,NaN,elephant,elephant,bw,0620_cl_dnn_bw_elephant_40_n02504458_3648.png,n02504458_3648.png,1.0,26.818478,4.499639,15.781802
bagnet33,1,621,NaN,elephant,elephant,cr,0621_cl_dnn_cr_elephant_40_n02504458_1179.png,n02504458_1179.png,1.0,34.51058,9.548617,17.650772
bagnet33,1,622,NaN,clock,clock,bw,0622_cl_dnn_bw_clock_40_n02708093_391.png,n02708093_391.png,1.0,16.733757,11.1544285,3.9451811
bagnet33,1,623,NaN,car,car,cr,0623_cl_dnn_cr_car_40_n04285008_3453.png,n04285008_3453.png,1.0,13.327916,11.111364,1.5673388
bagnet33,1,624,NaN,airplane,airplane,bw,0624_cl_dnn_bw_airplane_40_n02690373_2800.png,n02690373_2800.png,1.0,31.349201,6.03489,17.899921
bagnet33,1,625,NaN,cat,cat,cr,0625_cl_dnn_cr_cat_40_n02123394_979.png,n02123394_979.png,1.0,19.098314,7.7885103,7.997239
bagnet33,1,626,NaN,dog,dog,cr,0626_cl_dnn_cr_dog_40_n02105641_4701.png,n02105641_4701.png,1.0,5.8419485,5.5340605,0.21770972
bagnet33,1,627,NaN,airplane,boat,cr,0627_cl_dnn_cr_boat_40_n04273569_13641.png,n04273569_13641.png,0.0,11.321307,13.505698,-1.5445977
bagnet33,1,628,NaN,truck,car,cr,0628_cl_dnn_cr_car_40_n02814533_74825.png,n02814533_74825.png,0.0,8.296367,11.974186,-2.600611
bagnet33,1,629,NaN,airplane,airplane,cr,0629_cl_dnn_cr_airplane_40_n02690373_6812.png,n02690373_6812.png,1.0,23.44115,6.138924,12.234522
bagnet33,1,630,NaN,car,car,bw,0630_cl_dnn_bw_car_40_n03100240_19223.png,n03100240_19223.png,1.0,21.454231,13.918902,5.3282824
bagnet33,1,631,NaN,bottle,bottle,bw,0631_cl_dnn_bw_bottle_40_n03983396_3817.png,n03983396_3817.png,1.0,19.852112,3.4176652,11.620909
bagnet33,1,632,NaN,elephant,elephant,bw,0632_cl_dnn_bw_elephant_40_n02504013_1432.png,n02504013_1432.png,1.0,14.434034,3.513389,7.722062
bagnet33,1,633,NaN,boat,boat,cr,0633_cl_dnn_cr_boat_40_n03662601_35008.png,n03662601_35008.png,1.0,17.881031,12.045039,4.1266694
bagnet33,1,634,NaN,oven,oven,bw,0634_cl_dnn_bw_oven_40_n04111531_14055.png,n04111531_14055.png,1.0,13.4434595,3.709817,6.882725
bagnet33,1,635,NaN,airplane,airplane,bw,0635_cl_dnn_bw_airplane_40_n02690373_9812.png,n02690373_9812.png,1.0,24.723368,8.086801,11.763829
bagnet33,1,636,NaN,airplane,car,cr,0636_cl_dnn_cr_car_40_n04285008_6200.png,n04285008_6200.png,0.0,7.4019303,8.507002,-0.7814036
bagnet33,1,637,NaN,clock,clock,cr,0637_cl_dnn_cr_clock_40_n04548280_5889.png,n04548280_5889.png,1.0,8.649216,7.313526,0.9444752
bagnet33,1,638,NaN,chair,chair,bw,0638_cl_dnn_bw_chair_40_n03376595_2924.png,n03376595_2924.png,1.0,10.308861,5.163999,3.6379666
bagnet33,1,639,NaN,airplane,airplane,bw,0639_cl_dnn_bw_airplane_40_n02690373_693.png,n02690373_693.png,1.0,9.865562,2.9315488,4.903088
bagnet33,1,640,NaN,bicycle,bicycle,bw,0640_cl_dnn_bw_bicycle_40_n03792782_1778.png,n03792782_1778.png,1.0,17.621338,7.976728,6.819769
bagnet33,1,641,NaN,clock,clock,cr,0641_cl_dnn_cr_clock_40_n02708093_444.png,n02708093_444.png,1.0,13.935748,7.017971,4.8916073
bagnet33,1,642,NaN,clock,clock,cr,0642_cl_dnn_cr_clock_40_n02708093_3385.png,n02708093_3385.png,1.0,13.72527,4.410317,6.5866666
bagnet33,1,643,NaN,clock,clock,cr,0643_cl_dnn_cr_clock_40_n03196217_970.png,n03196217_970.png,1.0,21.03087,4.9154077,11.395353
bagnet33,1,644,NaN,clock,clock,bw,0644_cl_dnn_bw_clock_40_n04548280_4839.png,n04548280_4839.png,1.0,38.49322,14.842472,16.723606
bagnet33,1,645,NaN,truck,truck,bw,0645_cl_dnn_bw_truck_40_n03796401_1853.png,n03796401_1853.png,1.0,11.21777,6.517626,3.3235037
bagnet33,1,646,NaN,airplane,bottle,bw,0646_cl_dnn_bw_bottle_40_n04591713_2680.png,n04591713_2680.png,0.0,14.6079235,14.861431,-0.17925696
bagnet33,1,647,NaN,clock,clock,bw,0647_cl_dnn_bw_clock_40_n02708093_3691.png,n02708093_3691.png,1.0,23.195951,7.782015,10.8993
bagnet33,1,648,NaN,cat,cat,bw,0648_cl_dnn_bw_cat_40_n02123045_12762.png,n02123045_12762.png,1.0,24.40426,7.521946,11.937599
bagnet33,1,649,NaN,cat,cat,cr,0649_cl_dnn_cr_cat_40_n02124075_17464.png,n02124075_17464.png,1.0,22.663244,8.593364,9.948908
bagnet33,1,650,NaN,chair,chair,bw,0650_cl_dnn_bw_chair_40_n02791124_5690.png,n02791124_5690.png,1.0,5.2990513,5.0914917,0.1467668
bagnet33,1,651,NaN,bird,bird,bw,0651_cl_dnn_bw_bird_40_n01592084_5361.png,n01592084_5361.png,1.0,7.6018143,4.432519,2.2410302
bagnet33,1,652,NaN,truck,truck,cr,0652_cl_dnn_cr_truck_40_n04467665_34228.png,n04467665_34228.png,1.0,4.1202593,4.0996137,0.014598657
bagnet33,1,653,NaN,elephant,bear,cr,0653_cl_dnn_cr_bear_40_n02133161_4282.png,n02133161_4282.png,0.0,4.3148804,6.373247,-1.4554851
bagnet33,1,654,NaN,cat,cat,bw,0654_cl_dnn_bw_cat_40_n02125311_20219.png,n02125311_20219.png,1.0,9.739142,5.332732,3.1158025
bagnet33,1,655,NaN,bicycle,bicycle,cr,0655_cl_dnn_cr_bicycle_40_n02835271_8502.png,n02835271_8502.png,1.0,18.373766,6.70228,8.252987
bagnet33,1,656,NaN,dog,dog,bw,0656_cl_dnn_bw_dog_40_n02110958_5624.png,n02110958_5624.png,1.0,4.5417633,3.892574,0.45904613
bagnet33,1,657,NaN,knife,knife,bw,0657_cl_dnn_bw_knife_40_n03041632_35365.png,n03041632_35365.png,1.0,13.15878,3.2349222,7.017227
bagnet33,1,658,NaN,bear,bear,bw,0658_cl_dnn_bw_bear_40_n02134418_399.png,n02134418_399.png,1.0,10.739805,6.5596633,2.9558067
bagnet33,1,659,NaN,elephant,bear,cr,0659_cl_dnn_cr_bear_40_n02132136_4314.png,n02132136_4314.png,0.0,5.5313587,10.838379,-3.75263
bagnet33,1,660,NaN,keyboard,keyboard,cr,0660_cl_dnn_cr_keyboard_40_n04505470_996.png,n04505470_996.png,1.0,11.950046,7.078764,3.4445164
bagnet33,1,661,NaN,airplane,airplane,cr,0661_cl_dnn_cr_airplane_40_n02690373_3313.png,n02690373_3313.png,1.0,35.491325,6.51763,20.487497
bagnet33,1,662,NaN,knife,knife,bw,0662_cl_dnn_bw_knife_40_n03041632_9302.png,n03041632_9302.png,1.0,5.4671135,3.2271128,1.5839198
bagnet33,1,663,NaN,clock,clock,bw,0663_cl_dnn_bw_clock_40_n04548280_7211.png,n04548280_7211.png,1.0,45.491604,11.385311,24.11679
bagnet33,1,664,NaN,bird,bird,cr,0664_cl_dnn_cr_bird_40_n01829413_122.png,n01829413_122.png,1.0,7.869694,3.6825814,2.9607358
bagnet33,1,665,NaN,keyboard,keyboard,cr,0665_cl_dnn_cr_keyboard_40_n03085013_24001.png,n03085013_24001.png,1.0,23.221676,12.539477,7.5534554
bagnet33,1,666,NaN,keyboard,bottle,cr,0666_cl_dnn_cr_bottle_40_n03937543_3219.png,n03937543_3219.png,0.0,6.922521,8.384851,-1.0340238
bagnet33,1,667,NaN,keyboard,keyboard,bw,0667_cl_dnn_bw_keyboard_40_n03085013_19916.png,n03085013_19916.png,1.0,12.139442,7.691489,3.1451778
bagnet33,1,668,NaN,cat,cat,cr,0668_cl_dnn_cr_cat_40_n02123159_6609.png,n02123159_6609.png,1.0,33.475555,9.527343,16.933943
bagnet33,1,669,NaN,cat,cat,bw,0669_cl_dnn_bw_cat_40_n02125311_17543.png,n02125311_17543.png,1.0,12.799359,2.1435647,7.5347843
bagnet33,1,670,NaN,elephant,bear,bw,0670_cl_dnn_bw_bear_40_n02134418_1043.png,n02134418_1043.png,0.0,8.321426,9.830801,-1.067289
bagnet33,1,671,NaN,chair,chair,bw,0671_cl_dnn_bw_chair_40_n04099969_43.png,n04099969_43.png,1.0,4.856051,3.385673,1.0397142
bagnet33,1,672,NaN,knife,airplane,bw,0672_cl_dnn_bw_airplane_40_n02690373_1912.png,n02690373_1912.png,0.0,2.4274845,2.6892333,-0.18508434
bagnet33,1,673,NaN,bicycle,bicycle,cr,0673_cl_dnn_cr_bicycle_40_n02835271_1426.png,n02835271_1426.png,1.0,25.955597,3.9860318,15.534828
bagnet33,1,674,NaN,bicycle,bicycle,bw,0674_cl_dnn_bw_bicycle_40_n03792782_47426.png,n03792782_47426.png,1.0,20.358044,4.8021955,10.999646
bagnet33,1,675,NaN,truck,truck,cr,0675_cl_dnn_cr_truck_40_n03417042_27404.png,n03417042_27404.png,1.0,17.699986,9.387592,5.87775
bagnet33,1,676,NaN,bottle,clock,cr,0676_cl_dnn_cr_clock_40_n04548280_4349.png,n04548280_4349.png,0.0,7.169809,7.279723,-0.07772115
bagnet33,1,677,NaN,oven,oven,bw,0677_cl_dnn_bw_oven_40_n04111531_8193.png,n04111531_8193.png,1.0,13.289979,8.590052,3.3233504
bagnet33,1,678,NaN,airplane,boat,bw,0678_cl_dnn_bw_boat_40_n03344393_11855.png,n03344393_11855.png,0.0,7.6317916,8.103463,-0.33352217
bagnet33,1,679,NaN,bottle,bottle,bw,0679_cl_dnn_bw_bottle_40_n02823428_6830.png,n02823428_6830.png,1.0,23.09215,7.432272,11.073206
bagnet33,1,680,NaN,keyboard,bottle,bw,0680_cl_dnn_bw_bottle_40_n02823428_3298.png,n02823428_3298.png,0.0,3.2313888,9.9363985,-4.7411575
bagnet33,1,681,NaN,chair,oven,bw,0681_cl_dnn_bw_oven_40_n04111531_615.png,n04111531_615.png,0.0,4.5996623,7.1875005,-1.829878
bagnet33,1,682,NaN,clock,clock,cr,0682_cl_dnn_cr_clock_40_n03196217_9736.png,n03196217_9736.png,1.0,21.845718,6.0218115,11.189192
bagnet33,1,683,NaN,clock,clock,cr,0683_cl_dnn_cr_clock_40_n03196217_6293.png,n03196217_6293.png,1.0,27.086042,7.7447963,13.676326
bagnet33,1,684,NaN,bicycle,bicycle,cr,0684_cl_dnn_cr_bicycle_40_n02835271_15524.png,n02835271_15524.png,1.0,14.638296,4.502459,7.1671195
bagnet33,1,685,NaN,oven,oven,cr,0685_cl_dnn_cr_oven_40_n04111531_10749.png,n04111531_10749.png,1.0,23.023155,4.6668687,12.979856
bagnet33,1,686,NaN,car,car,cr,0686_cl_dnn_cr_car_40_n03100240_9354.png,n03100240_9354.png,1.0,16.370821,9.342436,4.969819
bagnet33,1,687,NaN,chair,chair,bw,0687_cl_dnn_bw_chair_40_n03376595_9695.png,n03376595_9695.png,1.0,10.300842,4.594494,4.034998
bagnet33,1,688,NaN,cat,cat,bw,0688_cl_dnn_bw_cat_40_n02125311_7729.png,n02125311_7729.png,1.0,9.864076,3.9264007,4.1985703
bagnet33,1,689,NaN,clock,clock,cr,0689_cl_dnn_cr_clock_40_n04548280_7153.png,n04548280_7153.png,1.0,6.74617,2.6314983,2.9095123
bagnet33,1,690,NaN,boat,boat,cr,0690_cl_dnn_cr_boat_40_n03344393_3355.png,n03344393_3355.png,1.0,13.244232,5.6259313,5.3869524
bagnet33,1,691,NaN,boat,boat,bw,0691_cl_dnn_bw_boat_40_n02951358_381.png,n02951358_381.png,1.0,12.822113,5.8692436,4.9164214
bagnet33,1,692,NaN,boat,boat,cr,0692_cl_dnn_cr_boat_40_n03344393_6226.png,n03344393_6226.png,1.0,9.476565,5.088161,3.1030705
bagnet33,1,693,NaN,car,car,bw,0693_cl_dnn_bw_car_40_n03100240_8206.png,n03100240_8206.png,1.0,18.835836,12.418072,4.538045
bagnet33,1,694,NaN,airplane,boat,bw,0694_cl_dnn_bw_boat_40_n04273569_4044.png,n04273569_4044.png,0.0,10.65434,12.646095,-1.4083838
bagnet33,1,695,NaN,bicycle,bicycle,cr,0695_cl_dnn_cr_bicycle_40_n02835271_8180.png,n02835271_8180.png,1.0,15.859098,3.7782192,8.542472
bagnet33,1,696,NaN,bear,bear,cr,0696_cl_dnn_cr_bear_40_n02134418_1063.png,n02134418_1063.png,1.0,3.1316614,1.9775505,0.8160797
bagnet33,1,697,NaN,truck,truck,bw,0697_cl_dnn_bw_truck_40_n03417042_265.png,n03417042_265.png,1.0,14.244442,12.092263,1.5218202
bagnet33,1,698,NaN,cat,cat,cr,0698_cl_dnn_cr_cat_40_n02124075_8351.png,n02124075_8351.png,1.0,9.321326,2.547676,4.789694
bagnet33,1,699,NaN,clock,clock,bw,0699_cl_dnn_bw_clock_40_n03196217_4004.png,n03196217_4004.png,1.0,7.9422107,4.0149274,2.7770088
bagnet33,1,700,NaN,car,car,cr,0700_cl_dnn_cr_car_40_n04285008_8093.png,n04285008_8093.png,1.0,20.53425,13.263777,5.141001
bagnet33,1,701,NaN,knife,knife,bw,0701_cl_dnn_bw_knife_40_n03041632_131.png,n03041632_131.png,1.0,10.874233,5.5929427,3.7344365
bagnet33,1,702,NaN,car,car,bw,0702_cl_dnn_bw_car_40_n03100240_6479.png,n03100240_6479.png,1.0,19.258476,14.708355,3.2174218
bagnet33,1,703,NaN,clock,clock,bw,0703_cl_dnn_bw_clock_40_n03196217_5365.png,n03196217_5365.png,1.0,11.872909,10.371369,1.0617486
bagnet33,1,704,NaN,bear,bear,bw,0704_cl_dnn_bw_bear_40_n02134418_6123.png,n02134418_6123.png,1.0,9.015175,6.0827675,2.0735252
bagnet33,1,705,NaN,bear,bear,cr,0705_cl_dnn_cr_bear_40_n02134418_5273.png,n02134418_5273.png,1.0,9.793048,5.1804066,3.26163
bagnet33,1,706,NaN,bird,bird,cr,0706_cl_dnn_cr_bird_40_n01558993_11456.png,n01558993_11456.png,1.0,13.607905,2.3009439,7.995229
bagnet33,1,707,NaN,oven,oven,cr,0707_cl_dnn_cr_oven_40_n04111531_6080.png,n04111531_6080.png,1.0,27.735771,8.971594,13.268277
bagnet33,1,708,NaN,knife,knife,bw,0708_cl_dnn_bw_knife_40_n03041632_101553.png,n03041632_101553.png,1.0,4.8897796,2.7541769,1.5100992
bagnet33,1,709,NaN,airplane,oven,bw,0709_cl_dnn_bw_oven_40_n04111531_10436.png,n04111531_10436.png,0.0,6.1749353,9.740212,-2.5210316
bagnet33,1,710,NaN,clock,clock,cr,0710_cl_dnn_cr_clock_40_n02708093_3621.png,n02708093_3621.png,1.0,14.180027,4.1996546,7.057189
bagnet33,1,711,NaN,knife,knife,cr,0711_cl_dnn_cr_knife_40_n03041632_14801.png,n03041632_14801.png,1.0,3.2942815,2.205796,0.7696755
bagnet33,1,712,NaN,bear,dog,cr,0712_cl_dnn_cr_dog_40_n02097130_456.png,n02097130_456.png,0.0,6.889098,8.4749565,-1.1213712
bagnet33,1,713,NaN,bicycle,chair,cr,0713_cl_dnn_cr_chair_40_n04429376_21081.png,n04429376_21081.png,0.0,4.063694,5.076429,-0.7161117
bagnet33,1,714,NaN,bicycle,bicycle,cr,0714_cl_dnn_cr_bicycle_40_n02835271_2068.png,n02835271_2068.png,1.0,7.0153294,2.0790238,3.4904952
bagnet33,1,715,NaN,chair,chair,cr,0715_cl_dnn_cr_chair_40_n03376595_1773.png,n03376595_1773.png,1.0,9.4974,8.442334,0.7460444
bagnet33,1,716,NaN,car,car,bw,0716_cl_dnn_bw_car_40_n03100240_23849.png,n03100240_23849.png,1.0,15.916992,12.433455,2.4632325
bagnet33,1,717,NaN,car,car,bw,0717_cl_dnn_bw_car_40_n04285008_4834.png,n04285008_4834.png,1.0,15.214702,13.33175,1.331448
bagnet33,1,718,NaN,oven,knife,cr,0718_cl_dnn_cr_knife_40_n03041632_18859.png,n03041632_18859.png,0.0,4.8356857,6.554158,-1.2151436
bagnet33,1,719,NaN,car,car,bw,0719_cl_dnn_bw_car_40_n03100240_7013.png,n03100240_7013.png,1.0,24.43688,19.469667,3.5123498
bagnet33,1,720,NaN,airplane,airplane,cr,0720_cl_dnn_cr_airplane_40_n02690373_1732.png,n02690373_1732.png,1.0,19.069035,6.7944016,8.679477
bagnet33,1,721,NaN,dog,dog,cr,0721_cl_dnn_cr_dog_40_n02100877_1107.png,n02100877_1107.png,1.0,12.223423,6.7541647,3.8673496
bagnet33,1,722,NaN,bear,dog,bw,0722_cl_dnn_bw_dog_40_n02106662_50272.png,n02106662_50272.png,0.0,12.127854,12.667729,-0.3817493
bagnet33,1,723,NaN,boat,boat,cr,0723_cl_dnn_cr_boat_40_n03344393_3337.png,n03344393_3337.png,1.0,5.580325,3.1586268,1.7123994
bagnet33,1,724,NaN,oven,oven,bw,0724_cl_dnn_bw_oven_40_n04111531_4939.png,n04111531_4939.png,1.0,16.101131,4.710162,8.054632
bagnet33,1,725,NaN,knife,knife,bw,0725_cl_dnn_bw_knife_40_n03041632_37513.png,n03041632_37513.png,1.0,18.84941,2.3637412,11.657128
bagnet33,1,726,NaN,chair,chair,cr,0726_cl_dnn_cr_chair_40_n04429376_7089.png,n04429376_7089.png,1.0,7.648716,7.008301,0.45284194
bagnet33,1,727,NaN,knife,knife,cr,0727_cl_dnn_cr_knife_40_n03041632_32048.png,n03041632_32048.png,1.0,7.358282,4.0500503,2.3392732
bagnet33,1,728,NaN,boat,boat,cr,0728_cl_dnn_cr_boat_40_n02951358_5355.png,n02951358_5355.png,1.0,5.492878,4.4690795,0.7239348
bagnet33,1,729,NaN,bird,bird,cr,0729_cl_dnn_cr_bird_40_n01797886_3876.png,n01797886_3876.png,1.0,4.60282,2.0688813,1.7917652
bagnet33,1,730,NaN,boat,boat,bw,0730_cl_dnn_bw_boat_40_n04273569_517.png,n04273569_517.png,1.0,7.0399084,5.5086823,1.0827404
bagnet33,1,731,NaN,chair,chair,cr,0731_cl_dnn_cr_chair_40_n04099969_17727.png,n04099969_17727.png,1.0,7.723617,4.250906,2.4555776
bagnet33,1,732,NaN,keyboard,keyboard,cr,0732_cl_dnn_cr_keyboard_40_n03085013_6644.png,n03085013_6644.png,1.0,19.765556,9.518778,7.245567
bagnet33,1,733,NaN,knife,knife,bw,0733_cl_dnn_bw_knife_40_n03041632_32177.png,n03041632_32177.png,1.0,4.9527206,4.38827,0.39912695
bagnet33,1,734,NaN,chair,chair,bw,0734_cl_dnn_bw_chair_40_n03376595_2420.png,n03376595_2420.png,1.0,3.9721026,2.6946154,0.90331995
bagnet33,1,735,NaN,clock,clock,bw,0735_cl_dnn_bw_clock_40_n02708093_1430.png,n02708093_1430.png,1.0,11.885602,7.5341744,3.076924
bagnet33,1,736,NaN,knife,knife,cr,0736_cl_dnn_cr_knife_40_n03041632_90125.png,n03041632_90125.png,1.0,4.746856,3.4351017,0.9275505
bagnet33,1,737,NaN,airplane,truck,cr,0737_cl_dnn_cr_truck_40_n04467665_67327.png,n04467665_67327.png,0.0,10.211147,13.980636,-2.6654308
bagnet33,1,738,NaN,dog,dog,bw,0738_cl_dnn_bw_dog_40_n02101556_8410.png,n02101556_8410.png,1.0,3.0639808,2.6090274,0.32170066
bagnet33,1,739,NaN,boat,boat,bw,0739_cl_dnn_bw_boat_40_n03662601_6340.png,n03662601_6340.png,1.0,9.534676,5.88653,2.5796287
bagnet33,1,740,NaN,elephant,bird,cr,0740_cl_dnn_cr_bird_40_n01860187_2825.png,n01860187_2825.png,0.0,2.7781847,5.27567,-1.765989
bagnet33,1,741,NaN,keyboard,keyboard,cr,0741_cl_dnn_cr_keyboard_40_n04505470_8575.png,n04505470_8575.png,1.0,25.302858,7.2778587,12.7456
bagnet33,1,742,NaN,boat,boat,bw,0742_cl_dnn_bw_boat_40_n03344393_3443.png,n03344393_3443.png,1.0,7.326761,2.74182,3.2420428
bagnet33,1,743,NaN,boat,boat,bw,0743_cl_dnn_bw_boat_40_n03344393_5066.png,n03344393_5066.png,1.0,13.509645,8.912835,3.2504358
bagnet33,1,744,NaN,elephant,elephant,bw,0744_cl_dnn_bw_elephant_40_n02504458_6995.png,n02504458_6995.png,1.0,19.037182,3.6278558,10.896039
bagnet33,1,745,NaN,dog,cat,bw,0745_cl_dnn_bw_cat_40_n02123394_5708.png,n02123394_5708.png,0.0,3.6956968,4.060863,-0.2582115
bagnet33,1,746,NaN,airplane,truck,bw,0746_cl_dnn_bw_truck_40_n04467665_68331.png,n04467665_68331.png,0.0,4.555422,7.121604,-1.8145648
bagnet33,1,747,NaN,keyboard,keyboard,cr,0747_cl_dnn_cr_keyboard_40_n04505470_2740.png,n04505470_2740.png,1.0,42.356476,14.681989,19.568819
bagnet33,1,748,NaN,oven,oven,bw,0748_cl_dnn_bw_oven_40_n04111531_12103.png,n04111531_12103.png,1.0,15.08237,3.422265,8.244939
bagnet33,1,749,NaN,bicycle,boat,bw,0749_cl_dnn_bw_boat_40_n02951358_30020.png,n02951358_30020.png,0.0,2.9972787,6.8290205,-2.7094507
bagnet33,1,750,NaN,bottle,bottle,bw,0750_cl_dnn_bw_bottle_40_n03983396_16300.png,n03983396_16300.png,1.0,14.680359,5.1492114,6.7395387
bagnet33,1,751,NaN,chair,chair,bw,0751_cl_dnn_bw_chair_40_n02791124_3926.png,n02791124_3926.png,1.0,14.765924,8.7540655,4.251026
bagnet33,1,752,NaN,knife,knife,bw,0752_cl_dnn_bw_knife_40_n03041632_5102.png,n03041632_5102.png,1.0,6.402707,2.7515314,2.5817711
bagnet33,1,753,NaN,keyboard,keyboard,bw,0753_cl_dnn_bw_keyboard_40_n03085013_20161.png,n03085013_20161.png,1.0,15.09189,9.417184,4.0126233
bagnet33,1,754,NaN,clock,bottle,bw,0754_cl_dnn_bw_bottle_40_n04591713_7959.png,n04591713_7959.png,0.0,4.231819,4.4075923,-0.124290384
bagnet33,1,755,NaN,car,car,cr,0755_cl_dnn_cr_car_40_n04285008_10901.png,n04285008_10901.png,1.0,29.210358,16.974648,8.651954
bagnet33,1,756,NaN,bear,bear,cr,0756_cl_dnn_cr_bear_40_n02134084_4490.png,n02134084_4490.png,1.0,9.553831,8.479971,0.75933385
bagnet33,1,757,NaN,truck,truck,cr,0757_cl_dnn_cr_truck_40_n03417042_8046.png,n03417042_8046.png,1.0,21.715096,7.519349,10.037909
bagnet33,1,758,NaN,bicycle,bicycle,bw,0758_cl_dnn_bw_bicycle_40_n03792782_13140.png,n03792782_13140.png,1.0,12.318657,4.5933757,5.462599
bagnet33,1,759,NaN,boat,boat,bw,0759_cl_dnn_bw_boat_40_n03662601_8283.png,n03662601_8283.png,1.0,6.8300505,4.960303,1.3221112
bagnet33,1,760,NaN,elephant,elephant,bw,0760_cl_dnn_bw_elephant_40_n02504458_6930.png,n02504458_6930.png,1.0,34.9456,5.7926483,20.614248
bagnet33,1,761,NaN,car,car,cr,0761_cl_dnn_cr_car_40_n03100240_3286.png,n03100240_3286.png,1.0,13.711513,9.44078,3.0198643
