subj,session,trial,rt,object_response,category,condition,imagename,filename,is_correct,targ_act,max_nontarg_act,decision_margin
alexnet_w1_mlp_simclrhn_probe2,1,1,NaN,oven,oven,cr,0001_cl_dnn_cr_oven_40_n04111531_14126.png,n04111531_14126.png,1.0,5.4249787,1.3384813,2.88959
alexnet_w1_mlp_simclrhn_probe2,1,2,NaN,bear,bear,cr,0002_cl_dnn_cr_bear_40_n02134084_5274.png,n02134084_5274.png,1.0,6.543426,4.392762,1.520749
alexnet_w1_mlp_simclrhn_probe2,1,3,NaN,dog,cat,cr,0003_cl_dnn_cr_cat_40_n02123394_133.png,n02123394_133.png,0.0,0.67700225,0.9768123,-0.21199772
alexnet_w1_mlp_simclrhn_probe2,1,4,NaN,car,car,cr,0004_cl_dnn_cr_car_40_n02814533_51190.png,n02814533_51190.png,1.0,9.905997,5.6664867,2.9977868
alexnet_w1_mlp_simclrhn_probe2,1,5,NaN,chair,chair,bw,0005_cl_dnn_bw_chair_40_n04099969_14986.png,n04099969_14986.png,1.0,3.0037947,0.8962057,1.4902905
alexnet_w1_mlp_simclrhn_probe2,1,6,NaN,elephant,elephant,cr,0006_cl_dnn_cr_elephant_40_n02504013_6731.png,n02504013_6731.png,1.0,3.1627526,0.8634663,1.625841
alexnet_w1_mlp_simclrhn_probe2,1,7,NaN,bottle,bottle,cr,0007_cl_dnn_cr_bottle_40_n02823428_987.png,n02823428_987.png,1.0,11.92891,5.300065,4.6873016
alexnet_w1_mlp_simclrhn_probe2,1,8,NaN,oven,truck,cr,0008_cl_dnn_cr_truck_40_n03417042_7458.png,n03417042_7458.png,0.0,1.6250174,2.2442496,-0.4378633
alexnet_w1_mlp_simclrhn_probe2,1,9,NaN,chair,chair,bw,0009_cl_dnn_bw_chair_40_n04099969_4577.png,n04099969_4577.png,1.0,2.0003295,0.5425329,1.0308179
alexnet_w1_mlp_simclrhn_probe2,1,10,NaN,bicycle,knife,cr,0010_cl_dnn_cr_knife_40_n03041632_83472.png,n03041632_83472.png,0.0,-1.054228,-0.13401137,-0.6506914
alexnet_w1_mlp_simclrhn_probe2,1,11,NaN,elephant,elephant,bw,0011_cl_dnn_bw_elephant_40_n02504458_3485.png,n02504458_3485.png,1.0,9.382126,0.5678299,6.2326484
alexnet_w1_mlp_simclrhn_probe2,1,12,NaN,elephant,bear,bw,0012_cl_dnn_bw_bear_40_n02133161_1066.png,n02133161_1066.png,0.0,0.94281393,1.7436482,-0.56627536
alexnet_w1_mlp_simclrhn_probe2,1,13,NaN,elephant,elephant,bw,0013_cl_dnn_bw_elephant_40_n02504013_1060.png,n02504013_1060.png,1.0,2.1938438,-0.17126277,1.672383
alexnet_w1_mlp_simclrhn_probe2,1,14,NaN,elephant,bear,bw,0014_cl_dnn_bw_bear_40_n02134084_1009.png,n02134084_1009.png,0.0,-0.2648537,0.7632204,-0.7269582
alexnet_w1_mlp_simclrhn_probe2,1,15,NaN,cat,cat,cr,0015_cl_dnn_cr_cat_40_n02125311_13383.png,n02125311_13383.png,1.0,5.015801,1.7613356,2.3012545
alexnet_w1_mlp_simclrhn_probe2,1,16,NaN,elephant,elephant,bw,0016_cl_dnn_bw_elephant_40_n02504013_257.png,n02504013_257.png,1.0,10.592028,0.7208341,6.979988
alexnet_w1_mlp_simclrhn_probe2,1,17,NaN,cat,cat,bw,0017_cl_dnn_bw_cat_40_n02123045_6445.png,n02123045_6445.png,1.0,1.1900736,-0.76082385,1.3794929
alexnet_w1_mlp_simclrhn_probe2,1,18,NaN,airplane,airplane,bw,0018_cl_dnn_bw_airplane_40_n02690373_3493.png,n02690373_3493.png,1.0,7.7851715,1.9746755,4.108641
alexnet_w1_mlp_simclrhn_probe2,1,19,NaN,airplane,airplane,bw,0019_cl_dnn_bw_airplane_40_n02690373_5184.png,n02690373_5184.png,1.0,3.9248402,0.0070607215,2.7702885
alexnet_w1_mlp_simclrhn_probe2,1,20,NaN,car,truck,bw,0020_cl_dnn_bw_truck_40_n04467665_22637.png,n04467665_22637.png,0.0,0.30606323,1.7261238,-1.0041345
alexnet_w1_mlp_simclrhn_probe2,1,21,NaN,cat,cat,cr,0021_cl_dnn_cr_cat_40_n02123159_10952.png,n02123159_10952.png,1.0,3.9447033,1.109352,2.0048964
alexnet_w1_mlp_simclrhn_probe2,1,22,NaN,airplane,airplane,bw,0022_cl_dnn_bw_airplane_40_n02690373_3620.png,n02690373_3620.png,1.0,6.6498003,3.0555222,2.5415385
alexnet_w1_mlp_simclrhn_probe2,1,23,NaN,oven,bottle,cr,0023_cl_dnn_cr_bottle_40_n04557648_10744.png,n04557648_10744.png,0.0,-1.5532922,-1.0760574,-0.3374559
alexnet_w1_mlp_simclrhn_probe2,1,24,NaN,oven,oven,bw,0024_cl_dnn_bw_oven_40_n04111531_12702.png,n04111531_12702.png,1.0,6.743749,0.20697308,4.6221986
alexnet_w1_mlp_simclrhn_probe2,1,25,NaN,truck,bear,cr,0025_cl_dnn_cr_bear_40_n02133161_9949.png,n02133161_9949.png,0.0,-1.11633,0.7617759,-1.3280214
alexnet_w1_mlp_simclrhn_probe2,1,26,NaN,oven,keyboard,cr,0026_cl_dnn_cr_keyboard_40_n03085013_3489.png,n03085013_3489.png,0.0,-0.78751945,1.2751793,-1.4585483
alexnet_w1_mlp_simclrhn_probe2,1,27,NaN,elephant,elephant,bw,0027_cl_dnn_bw_elephant_40_n02504458_4633.png,n02504458_4633.png,1.0,1.9045491,-0.5658407,1.7468294
alexnet_w1_mlp_simclrhn_probe2,1,28,NaN,clock,clock,cr,0028_cl_dnn_cr_clock_40_n04548280_7816.png,n04548280_7816.png,1.0,0.7772519,-0.2828243,0.7495871
alexnet_w1_mlp_simclrhn_probe2,1,29,NaN,dog,dog,bw,0029_cl_dnn_bw_dog_40_n02097474_1859.png,n02097474_1859.png,1.0,1.4819235,-0.25726748,1.2297937
alexnet_w1_mlp_simclrhn_probe2,1,30,NaN,cat,cat,bw,0030_cl_dnn_bw_cat_40_n02123394_916.png,n02123394_916.png,1.0,2.5977104,0.8821063,1.2131153
alexnet_w1_mlp_simclrhn_probe2,1,31,NaN,elephant,elephant,cr,0031_cl_dnn_cr_elephant_40_n02504458_3525.png,n02504458_3525.png,1.0,3.6538894,-2.1981566,4.1380215
alexnet_w1_mlp_simclrhn_probe2,1,32,NaN,bear,bear,bw,0032_cl_dnn_bw_bear_40_n02134418_4456.png,n02134418_4456.png,1.0,2.979618,0.5664271,1.7063836
alexnet_w1_mlp_simclrhn_probe2,1,33,NaN,keyboard,keyboard,bw,0033_cl_dnn_bw_keyboard_40_n03085013_24045.png,n03085013_24045.png,1.0,3.6407523,1.0845046,1.8075402
alexnet_w1_mlp_simclrhn_probe2,1,34,NaN,oven,knife,bw,0034_cl_dnn_bw_knife_40_n03041632_49363.png,n03041632_49363.png,0.0,-0.1741153,1.9365206,-1.4924449
alexnet_w1_mlp_simclrhn_probe2,1,35,NaN,cat,cat,bw,0035_cl_dnn_bw_cat_40_n02123159_7854.png,n02123159_7854.png,1.0,2.841503,0.7376838,1.4876248
alexnet_w1_mlp_simclrhn_probe2,1,36,NaN,oven,knife,cr,0036_cl_dnn_cr_knife_40_n03041632_4708.png,n03041632_4708.png,0.0,-1.1030626,3.4275098,-3.2035985
alexnet_w1_mlp_simclrhn_probe2,1,37,NaN,oven,chair,cr,0037_cl_dnn_cr_chair_40_n04429376_7788.png,n04429376_7788.png,0.0,0.9455715,1.6593518,-0.50471896
alexnet_w1_mlp_simclrhn_probe2,1,38,NaN,car,car,cr,0038_cl_dnn_cr_car_40_n03100240_9086.png,n03100240_9086.png,1.0,7.0086083,4.2282143,1.9660355
alexnet_w1_mlp_simclrhn_probe2,1,39,NaN,knife,chair,cr,0039_cl_dnn_cr_chair_40_n03376595_3038.png,n03376595_3038.png,0.0,-0.7754352,-0.30758506,-0.33082002
alexnet_w1_mlp_simclrhn_probe2,1,40,NaN,truck,truck,bw,0040_cl_dnn_bw_truck_40_n03796401_1758.png,n03796401_1758.png,1.0,1.7027625,1.0286264,0.47668618
alexnet_w1_mlp_simclrhn_probe2,1,41,NaN,boat,boat,cr,0041_cl_dnn_cr_boat_40_n04273569_4324.png,n04273569_4324.png,1.0,5.0848174,-0.37785468,3.8626926
alexnet_w1_mlp_simclrhn_probe2,1,42,NaN,elephant,bear,cr,0042_cl_dnn_cr_bear_40_n02134084_1090.png,n02134084_1090.png,0.0,1.5365387,2.1334984,-0.42211425
alexnet_w1_mlp_simclrhn_probe2,1,43,NaN,bicycle,bicycle,bw,0043_cl_dnn_bw_bicycle_40_n03792782_13665.png,n03792782_13665.png,1.0,0.34325063,-1.098463,1.0194455
alexnet_w1_mlp_simclrhn_probe2,1,44,NaN,knife,knife,bw,0044_cl_dnn_bw_knife_40_n03041632_36215.png,n03041632_36215.png,1.0,2.7070928,0.6577338,1.4491155
alexnet_w1_mlp_simclrhn_probe2,1,45,NaN,car,car,bw,0045_cl_dnn_bw_car_40_n04285008_7770.png,n04285008_7770.png,1.0,9.872933,5.884249,2.8204257
alexnet_w1_mlp_simclrhn_probe2,1,46,NaN,bottle,bottle,cr,0046_cl_dnn_cr_bottle_40_n03983396_15260.png,n03983396_15260.png,1.0,5.465754,1.1539485,3.048907
alexnet_w1_mlp_simclrhn_probe2,1,47,NaN,bear,dog,cr,0047_cl_dnn_cr_dog_40_n02091635_6519.png,n02091635_6519.png,0.0,0.24683972,0.96178395,-0.5055419
alexnet_w1_mlp_simclrhn_probe2,1,48,NaN,elephant,elephant,cr,0048_cl_dnn_cr_elephant_40_n02504013_3485.png,n02504013_3485.png,1.0,10.565603,3.3848584,5.0775537
alexnet_w1_mlp_simclrhn_probe2,1,49,NaN,oven,oven,cr,0049_cl_dnn_cr_oven_40_n04111531_807.png,n04111531_807.png,1.0,3.7922988,1.2602721,1.7904134
alexnet_w1_mlp_simclrhn_probe2,1,50,NaN,oven,oven,cr,0050_cl_dnn_cr_oven_40_n04111531_605.png,n04111531_605.png,1.0,4.0296707,-0.17044567,2.9699306
alexnet_w1_mlp_simclrhn_probe2,1,51,NaN,elephant,dog,bw,0051_cl_dnn_bw_dog_40_n02109047_2662.png,n02109047_2662.png,0.0,-0.10750237,3.6894512,-2.6848516
alexnet_w1_mlp_simclrhn_probe2,1,52,NaN,truck,truck,cr,0052_cl_dnn_cr_truck_40_n03417042_16038.png,n03417042_16038.png,1.0,3.3146749,-0.9337432,3.004085
alexnet_w1_mlp_simclrhn_probe2,1,53,NaN,truck,truck,bw,0053_cl_dnn_bw_truck_40_n03796401_1710.png,n03796401_1710.png,1.0,4.551708,0.32479295,2.9888806
alexnet_w1_mlp_simclrhn_probe2,1,54,NaN,cat,cat,cr,0054_cl_dnn_cr_cat_40_n02125311_20921.png,n02125311_20921.png,1.0,2.290993,-0.45608607,1.9424783
alexnet_w1_mlp_simclrhn_probe2,1,55,NaN,bird,bear,cr,0055_cl_dnn_cr_bear_40_n02133161_575.png,n02133161_575.png,0.0,-2.185502,-2.0854392,-0.07075512
alexnet_w1_mlp_simclrhn_probe2,1,56,NaN,chair,chair,bw,0056_cl_dnn_bw_chair_40_n04429376_21865.png,n04429376_21865.png,1.0,-1.3068128,-1.8235035,0.36535552
alexnet_w1_mlp_simclrhn_probe2,1,57,NaN,bicycle,bird,bw,0057_cl_dnn_bw_bird_40_n01616318_26436.png,n01616318_26436.png,0.0,-2.8059745,-0.8057529,-1.4143704
alexnet_w1_mlp_simclrhn_probe2,1,58,NaN,oven,oven,cr,0058_cl_dnn_cr_oven_40_n04111531_9498.png,n04111531_9498.png,1.0,3.0445154,0.8169253,1.575144
alexnet_w1_mlp_simclrhn_probe2,1,59,NaN,bear,bear,bw,0059_cl_dnn_bw_bear_40_n02134418_397.png,n02134418_397.png,1.0,4.6597557,2.7689333,1.3370134
alexnet_w1_mlp_simclrhn_probe2,1,60,NaN,chair,chair,cr,0060_cl_dnn_cr_chair_40_n04099969_23961.png,n04099969_23961.png,1.0,1.2817729,-0.71329653,1.4107271
alexnet_w1_mlp_simclrhn_probe2,1,61,NaN,bird,dog,bw,0061_cl_dnn_bw_dog_40_n02093256_7181.png,n02093256_7181.png,0.0,-2.644404,0.07411029,-1.9222798
alexnet_w1_mlp_simclrhn_probe2,1,62,NaN,bicycle,bicycle,cr,0062_cl_dnn_cr_bicycle_40_n02835271_26731.png,n02835271_26731.png,1.0,5.8248167,-0.3438452,4.3619027
alexnet_w1_mlp_simclrhn_probe2,1,63,NaN,cat,cat,cr,0063_cl_dnn_cr_cat_40_n02125311_12557.png,n02125311_12557.png,1.0,1.245509,-0.0060894564,0.88501376
alexnet_w1_mlp_simclrhn_probe2,1,64,NaN,dog,dog,cr,0064_cl_dnn_cr_dog_40_n02093647_2890.png,n02093647_2890.png,1.0,1.7253782,-3.8369906,3.933189
alexnet_w1_mlp_simclrhn_probe2,1,65,NaN,keyboard,knife,cr,0065_cl_dnn_cr_knife_40_n03041632_14293.png,n03041632_14293.png,0.0,-0.72699034,0.775876,-1.0626869
alexnet_w1_mlp_simclrhn_probe2,1,66,NaN,oven,oven,bw,0066_cl_dnn_bw_oven_40_n04111531_20359.png,n04111531_20359.png,1.0,5.946948,-4.5845,7.446859
alexnet_w1_mlp_simclrhn_probe2,1,67,NaN,truck,truck,bw,0067_cl_dnn_bw_truck_40_n04467665_12177.png,n04467665_12177.png,1.0,8.611462,3.9241276,3.3144457
alexnet_w1_mlp_simclrhn_probe2,1,68,NaN,bicycle,bicycle,cr,0068_cl_dnn_cr_bicycle_40_n02835271_19400.png,n02835271_19400.png,1.0,2.4195492,-0.7952912,2.2732356
alexnet_w1_mlp_simclrhn_probe2,1,69,NaN,truck,truck,cr,0069_cl_dnn_cr_truck_40_n03417042_1263.png,n03417042_1263.png,1.0,3.9398165,3.115867,0.5826203
alexnet_w1_mlp_simclrhn_probe2,1,70,NaN,cat,cat,bw,0070_cl_dnn_bw_cat_40_n02123045_8336.png,n02123045_8336.png,1.0,4.3326116,-0.49579233,3.4141972
alexnet_w1_mlp_simclrhn_probe2,1,71,NaN,bear,bear,bw,0071_cl_dnn_bw_bear_40_n02134418_5405.png,n02134418_5405.png,1.0,4.317643,1.1622369,2.2312093
alexnet_w1_mlp_simclrhn_probe2,1,72,NaN,car,car,bw,0072_cl_dnn_bw_car_40_n04285008_2906.png,n04285008_2906.png,1.0,6.578735,3.975049,1.841084
alexnet_w1_mlp_simclrhn_probe2,1,73,NaN,elephant,bird,cr,0073_cl_dnn_cr_bird_40_n01818515_10517.png,n01818515_10517.png,0.0,-1.4589685,0.5292781,-1.4059027
alexnet_w1_mlp_simclrhn_probe2,1,74,NaN,truck,truck,cr,0074_cl_dnn_cr_truck_40_n03796401_14203.png,n03796401_14203.png,1.0,1.65502,-0.47131264,1.5035443
alexnet_w1_mlp_simclrhn_probe2,1,75,NaN,bird,bird,bw,0075_cl_dnn_bw_bird_40_n02009229_2503.png,n02009229_2503.png,1.0,1.0847538,-2.3119392,2.4018247
alexnet_w1_mlp_simclrhn_probe2,1,76,NaN,bottle,bottle,bw,0076_cl_dnn_bw_bottle_40_n02823428_6767.png,n02823428_6767.png,1.0,6.472539,-1.6097112,5.7150145
alexnet_w1_mlp_simclrhn_probe2,1,77,NaN,bicycle,bicycle,bw,0077_cl_dnn_bw_bicycle_40_n02835271_12847.png,n02835271_12847.png,1.0,7.3670273,-2.4283013,6.926343
alexnet_w1_mlp_simclrhn_probe2,1,78,NaN,bicycle,bicycle,cr,0078_cl_dnn_cr_bicycle_40_n02835271_24104.png,n02835271_24104.png,1.0,13.522683,-0.09561213,9.629589
alexnet_w1_mlp_simclrhn_probe2,1,79,NaN,clock,clock,cr,0079_cl_dnn_cr_clock_40_n04548280_77.png,n04548280_77.png,1.0,2.5623178,-0.40005636,2.0947149
alexnet_w1_mlp_simclrhn_probe2,1,80,NaN,cat,cat,bw,0080_cl_dnn_bw_cat_40_n02123394_6698.png,n02123394_6698.png,1.0,4.802281,-0.7338185,3.9146135
alexnet_w1_mlp_simclrhn_probe2,1,81,NaN,keyboard,keyboard,cr,0081_cl_dnn_cr_keyboard_40_n04505470_4356.png,n04505470_4356.png,1.0,12.732452,0.600636,8.57849
alexnet_w1_mlp_simclrhn_probe2,1,82,NaN,chair,chair,cr,0082_cl_dnn_cr_chair_40_n04429376_16325.png,n04429376_16325.png,1.0,0.09672904,-0.3170166,0.29256237
alexnet_w1_mlp_simclrhn_probe2,1,83,NaN,elephant,elephant,bw,0083_cl_dnn_bw_elephant_40_n02504458_6721.png,n02504458_6721.png,1.0,0.7001997,-1.1730249,1.3245698
alexnet_w1_mlp_simclrhn_probe2,1,84,NaN,truck,truck,cr,0084_cl_dnn_cr_truck_40_n03417042_6213.png,n03417042_6213.png,1.0,12.791533,5.3949223,5.230194
alexnet_w1_mlp_simclrhn_probe2,1,85,NaN,cat,dog,bw,0085_cl_dnn_bw_dog_40_n02097130_8277.png,n02097130_8277.png,0.0,-0.62354565,0.8144707,-1.0168312
alexnet_w1_mlp_simclrhn_probe2,1,86,NaN,knife,bottle,cr,0086_cl_dnn_cr_bottle_40_n04557648_1856.png,n04557648_1856.png,0.0,-2.081877,0.23756078,-1.6400902
alexnet_w1_mlp_simclrhn_probe2,1,87,NaN,bird,bird,bw,0087_cl_dnn_bw_bird_40_n01531178_10905.png,n01531178_10905.png,1.0,0.4658185,-2.4339092,2.0504172
alexnet_w1_mlp_simclrhn_probe2,1,88,NaN,bear,bear,cr,0088_cl_dnn_cr_bear_40_n02133161_2202.png,n02133161_2202.png,1.0,0.63522553,-0.599537,0.873109
alexnet_w1_mlp_simclrhn_probe2,1,89,NaN,elephant,elephant,cr,0089_cl_dnn_cr_elephant_40_n02504458_10439.png,n02504458_10439.png,1.0,1.3533726,-1.8455971,2.2620132
alexnet_w1_mlp_simclrhn_probe2,1,90,NaN,knife,clock,cr,0090_cl_dnn_cr_clock_40_n02708093_6766.png,n02708093_6766.png,0.0,-0.82231575,-0.37552977,-0.31592542
alexnet_w1_mlp_simclrhn_probe2,1,91,NaN,oven,bottle,bw,0091_cl_dnn_bw_bottle_40_n03983396_2057.png,n03983396_2057.png,0.0,0.2160928,1.3049648,-0.7699488
alexnet_w1_mlp_simclrhn_probe2,1,92,NaN,keyboard,knife,bw,0092_cl_dnn_bw_knife_40_n03041632_10000.png,n03041632_10000.png,0.0,0.655132,3.3643098,-1.915678
alexnet_w1_mlp_simclrhn_probe2,1,93,NaN,cat,cat,cr,0093_cl_dnn_cr_cat_40_n02125311_2959.png,n02125311_2959.png,1.0,4.5067754,0.0143446475,3.1766284
alexnet_w1_mlp_simclrhn_probe2,1,94,NaN,car,car,bw,0094_cl_dnn_bw_car_40_n04285008_13759.png,n04285008_13759.png,1.0,10.14777,4.7688427,3.803476
alexnet_w1_mlp_simclrhn_probe2,1,95,NaN,keyboard,bottle,cr,0095_cl_dnn_cr_bottle_40_n03937543_396.png,n03937543_396.png,0.0,-1.3763211,-0.36617523,-0.714281
alexnet_w1_mlp_simclrhn_probe2,1,96,NaN,boat,boat,bw,0096_cl_dnn_bw_boat_40_n03662601_3984.png,n03662601_3984.png,1.0,2.4917843,1.0383134,1.0277592
alexnet_w1_mlp_simclrhn_probe2,1,97,NaN,truck,truck,bw,0097_cl_dnn_bw_truck_40_n04467665_2230.png,n04467665_2230.png,1.0,3.2257571,1.9526949,0.90019095
alexnet_w1_mlp_simclrhn_probe2,1,98,NaN,boat,boat,cr,0098_cl_dnn_cr_boat_40_n03662601_28640.png,n03662601_28640.png,1.0,5.864502,0.38388443,3.875382
alexnet_w1_mlp_simclrhn_probe2,1,99,NaN,cat,cat,cr,0099_cl_dnn_cr_cat_40_n02124075_11039.png,n02124075_11039.png,1.0,0.26160732,-1.2806517,1.0905418
alexnet_w1_mlp_simclrhn_probe2,1,100,NaN,clock,knife,bw,0100_cl_dnn_bw_knife_40_n03041632_7380.png,n03041632_7380.png,0.0,-0.05802706,2.3051732,-1.6710349
alexnet_w1_mlp_simclrhn_probe2,1,101,NaN,cat,cat,cr,0101_cl_dnn_cr_cat_40_n02123045_6607.png,n02123045_6607.png,1.0,9.085426,-3.759878,9.083002
alexnet_w1_mlp_simclrhn_probe2,1,102,NaN,chair,chair,cr,0102_cl_dnn_cr_chair_40_n03376595_6704.png,n03376595_6704.png,1.0,0.84272444,0.03862322,0.56858546
alexnet_w1_mlp_simclrhn_probe2,1,103,NaN,bear,bear,bw,0103_cl_dnn_bw_bear_40_n02133161_12187.png,n02133161_12187.png,1.0,6.5147586,2.2239501,3.03406
alexnet_w1_mlp_simclrhn_probe2,1,104,NaN,cat,dog,cr,0104_cl_dnn_cr_dog_40_n02110958_2363.png,n02110958_2363.png,0.0,0.26813924,1.1407965,-0.6170619
alexnet_w1_mlp_simclrhn_probe2,1,105,NaN,airplane,airplane,cr,0105_cl_dnn_cr_airplane_40_n02690373_19438.png,n02690373_19438.png,1.0,6.9274693,-1.8737948,6.2234335
alexnet_w1_mlp_simclrhn_probe2,1,106,NaN,bird,bird,cr,0106_cl_dnn_cr_bird_40_n01855032_5511.png,n01855032_5511.png,1.0,-0.15968305,-1.683917,1.0777962
alexnet_w1_mlp_simclrhn_probe2,1,107,NaN,boat,boat,bw,0107_cl_dnn_bw_boat_40_n04273569_9821.png,n04273569_9821.png,1.0,4.884572,-2.3768096,5.1345725
alexnet_w1_mlp_simclrhn_probe2,1,108,NaN,elephant,bear,bw,0108_cl_dnn_bw_bear_40_n02133161_13461.png,n02133161_13461.png,0.0,-1.5367256,-1.086613,-0.31827766
alexnet_w1_mlp_simclrhn_probe2,1,109,NaN,knife,dog,cr,0109_cl_dnn_cr_dog_40_n02113023_8552.png,n02113023_8552.png,0.0,-2.305837,-0.6800393,-1.1496125
alexnet_w1_mlp_simclrhn_probe2,1,110,NaN,elephant,elephant,cr,0110_cl_dnn_cr_elephant_40_n02504458_1600.png,n02504458_1600.png,1.0,9.801343,0.3883131,6.6560173
alexnet_w1_mlp_simclrhn_probe2,1,111,NaN,chair,chair,cr,0111_cl_dnn_cr_chair_40_n04099969_4205.png,n04099969_4205.png,1.0,3.48141,0.3584602,2.208259
alexnet_w1_mlp_simclrhn_probe2,1,112,NaN,dog,dog,bw,0112_cl_dnn_bw_dog_40_n02105505_2121.png,n02105505_2121.png,1.0,2.5309749,-3.5997782,4.3350973
alexnet_w1_mlp_simclrhn_probe2,1,113,NaN,chair,chair,cr,0113_cl_dnn_cr_chair_40_n02791124_4528.png,n02791124_4528.png,1.0,2.0551047,1.0854498,0.6856496
alexnet_w1_mlp_simclrhn_probe2,1,114,NaN,airplane,truck,bw,0114_cl_dnn_bw_truck_40_n03417042_5659.png,n03417042_5659.png,0.0,1.7729931,2.0025458,-0.1623183
alexnet_w1_mlp_simclrhn_probe2,1,115,NaN,elephant,elephant,cr,0115_cl_dnn_cr_elephant_40_n02504013_10330.png,n02504013_10330.png,1.0,13.958994,0.96309865,9.189486
alexnet_w1_mlp_simclrhn_probe2,1,116,NaN,cat,cat,cr,0116_cl_dnn_cr_cat_40_n02123394_1594.png,n02123394_1594.png,1.0,2.1996453,0.2566127,1.3739315
alexnet_w1_mlp_simclrhn_probe2,1,117,NaN,boat,bear,bw,0117_cl_dnn_bw_bear_40_n02132136_10654.png,n02132136_10654.png,0.0,-1.2913829,0.38877136,-1.1880485
alexnet_w1_mlp_simclrhn_probe2,1,118,NaN,bottle,bottle,bw,0118_cl_dnn_bw_bottle_40_n02823428_5265.png,n02823428_5265.png,1.0,3.668057,0.11335468,2.513554
alexnet_w1_mlp_simclrhn_probe2,1,119,NaN,airplane,truck,cr,0119_cl_dnn_cr_truck_40_n04467665_3125.png,n04467665_3125.png,0.0,-0.6580303,1.7566688,-1.7074502
alexnet_w1_mlp_simclrhn_probe2,1,120,NaN,airplane,airplane,cr,0120_cl_dnn_cr_airplane_40_n02690373_60.png,n02690373_60.png,1.0,6.987768,1.6506964,3.7738798
alexnet_w1_mlp_simclrhn_probe2,1,121,NaN,keyboard,keyboard,cr,0121_cl_dnn_cr_keyboard_40_n03085013_21645.png,n03085013_21645.png,1.0,1.1280158,0.59393847,0.37764966
alexnet_w1_mlp_simclrhn_probe2,1,122,NaN,car,car,bw,0122_cl_dnn_bw_car_40_n03100240_9471.png,n03100240_9471.png,1.0,0.7328848,0.3038224,0.30339295
alexnet_w1_mlp_simclrhn_probe2,1,123,NaN,boat,boat,cr,0123_cl_dnn_cr_boat_40_n03344393_9818.png,n03344393_9818.png,1.0,3.7579365,2.2437003,1.0707268
alexnet_w1_mlp_simclrhn_probe2,1,124,NaN,elephant,elephant,bw,0124_cl_dnn_bw_elephant_40_n02504458_5444.png,n02504458_5444.png,1.0,4.3266134,-0.49728167,3.4110088
alexnet_w1_mlp_simclrhn_probe2,1,125,NaN,bottle,bottle,bw,0125_cl_dnn_bw_bottle_40_n04557648_26823.png,n04557648_26823.png,1.0,5.1933637,-2.7124496,5.5902543
alexnet_w1_mlp_simclrhn_probe2,1,126,NaN,elephant,bottle,cr,0126_cl_dnn_cr_bottle_40_n02823428_765.png,n02823428_765.png,0.0,-2.592846,-0.50639695,-1.4753422
alexnet_w1_mlp_simclrhn_probe2,1,127,NaN,cat,cat,bw,0127_cl_dnn_bw_cat_40_n02123045_1787.png,n02123045_1787.png,1.0,4.6989326,-3.4246652,5.7442513
alexnet_w1_mlp_simclrhn_probe2,1,128,NaN,car,car,bw,0128_cl_dnn_bw_car_40_n02814533_35863.png,n02814533_35863.png,1.0,7.2547174,6.3858356,0.61439216
alexnet_w1_mlp_simclrhn_probe2,1,129,NaN,dog,boat,bw,0129_cl_dnn_bw_boat_40_n02951358_7944.png,n02951358_7944.png,0.0,-1.7491373,-1.4154525,-0.2359508
alexnet_w1_mlp_simclrhn_probe2,1,130,NaN,dog,dog,bw,0130_cl_dnn_bw_dog_40_n02091467_3727.png,n02091467_3727.png,1.0,2.1673386,-1.296757,2.4494855
alexnet_w1_mlp_simclrhn_probe2,1,131,NaN,bicycle,bicycle,cr,0131_cl_dnn_cr_bicycle_40_n02835271_5886.png,n02835271_5886.png,1.0,0.90257066,-1.6561599,1.8092958
alexnet_w1_mlp_simclrhn_probe2,1,132,NaN,truck,truck,bw,0132_cl_dnn_bw_truck_40_n04467665_18234.png,n04467665_18234.png,1.0,6.482223,2.9373121,2.5066307
alexnet_w1_mlp_simclrhn_probe2,1,133,NaN,elephant,elephant,cr,0133_cl_dnn_cr_elephant_40_n02504013_4892.png,n02504013_4892.png,1.0,12.372185,3.7053905,6.128349
alexnet_w1_mlp_simclrhn_probe2,1,134,NaN,keyboard,keyboard,cr,0134_cl_dnn_cr_keyboard_40_n03085013_19618.png,n03085013_19618.png,1.0,8.312028,1.8592138,4.5628285
alexnet_w1_mlp_simclrhn_probe2,1,135,NaN,clock,clock,cr,0135_cl_dnn_cr_clock_40_n03196217_3430.png,n03196217_3430.png,1.0,2.056167,1.0180111,0.734087
alexnet_w1_mlp_simclrhn_probe2,1,136,NaN,bicycle,bicycle,bw,0136_cl_dnn_bw_bicycle_40_n03792782_24591.png,n03792782_24591.png,1.0,9.613929,-0.84810627,7.397776
alexnet_w1_mlp_simclrhn_probe2,1,137,NaN,bicycle,bird,cr,0137_cl_dnn_cr_bird_40_n02007558_2822.png,n02007558_2822.png,0.0,-4.7247987,0.22219683,-3.4980543
alexnet_w1_mlp_simclrhn_probe2,1,138,NaN,truck,truck,bw,0138_cl_dnn_bw_truck_40_n04467665_71126.png,n04467665_71126.png,1.0,9.693697,5.0806003,3.261952
alexnet_w1_mlp_simclrhn_probe2,1,139,NaN,bicycle,bicycle,cr,0139_cl_dnn_cr_bicycle_40_n02835271_22263.png,n02835271_22263.png,1.0,10.808214,-0.7392479,8.165289
alexnet_w1_mlp_simclrhn_probe2,1,140,NaN,truck,car,bw,0140_cl_dnn_bw_car_40_n04285008_5548.png,n04285008_5548.png,0.0,4.76765,5.7523074,-0.6962578
alexnet_w1_mlp_simclrhn_probe2,1,141,NaN,oven,oven,bw,0141_cl_dnn_bw_oven_40_n04111531_13006.png,n04111531_13006.png,1.0,2.729814,-0.020609051,1.9448429
alexnet_w1_mlp_simclrhn_probe2,1,142,NaN,car,car,bw,0142_cl_dnn_bw_car_40_n04285008_11410.png,n04285008_11410.png,1.0,4.6089478,-0.25725752,3.4409268
alexnet_w1_mlp_simclrhn_probe2,1,143,NaN,oven,chair,bw,0143_cl_dnn_bw_chair_40_n04429376_2304.png,n04429376_2304.png,0.0,-0.9003538,4.450178,-3.7833977
alexnet_w1_mlp_simclrhn_probe2,1,144,NaN,boat,boat,cr,0144_cl_dnn_cr_boat_40_n03662601_27165.png,n03662601_27165.png,1.0,6.168793,3.5508928,1.8511351
alexnet_w1_mlp_simclrhn_probe2,1,145,NaN,truck,truck,bw,0145_cl_dnn_bw_truck_40_n04467665_70308.png,n04467665_70308.png,1.0,2.4785557,0.86904126,1.1380986
alexnet_w1_mlp_simclrhn_probe2,1,146,NaN,bicycle,bicycle,cr,0146_cl_dnn_cr_bicycle_40_n03792782_51414.png,n03792782_51414.png,1.0,2.9812858,-0.44007772,2.4192693
alexnet_w1_mlp_simclrhn_probe2,1,147,NaN,knife,knife,cr,0147_cl_dnn_cr_knife_40_n03041632_44738.png,n03041632_44738.png,1.0,1.9617412,0.626921,0.9438605
alexnet_w1_mlp_simclrhn_probe2,1,148,NaN,elephant,elephant,bw,0148_cl_dnn_bw_elephant_40_n02504458_11363.png,n02504458_11363.png,1.0,3.7565258,-1.3890008,3.6384368
alexnet_w1_mlp_simclrhn_probe2,1,149,NaN,truck,truck,cr,0149_cl_dnn_cr_truck_40_n04467665_4899.png,n04467665_4899.png,1.0,5.169042,1.6125035,2.5148525
alexnet_w1_mlp_simclrhn_probe2,1,150,NaN,bear,bear,cr,0150_cl_dnn_cr_bear_40_n02134418_685.png,n02134418_685.png,1.0,0.19099751,0.16758579,0.016554587
alexnet_w1_mlp_simclrhn_probe2,1,151,NaN,keyboard,keyboard,bw,0151_cl_dnn_bw_keyboard_40_n04505470_4363.png,n04505470_4363.png,1.0,4.295562,0.658934,2.571484
alexnet_w1_mlp_simclrhn_probe2,1,152,NaN,oven,oven,bw,0152_cl_dnn_bw_oven_40_n04111531_12468.png,n04111531_12468.png,1.0,6.182061,0.38388813,4.0999274
alexnet_w1_mlp_simclrhn_probe2,1,153,NaN,oven,bottle,cr,0153_cl_dnn_cr_bottle_40_n04591713_5559.png,n04591713_5559.png,0.0,-1.6618309,-0.17182547,-1.053593
alexnet_w1_mlp_simclrhn_probe2,1,154,NaN,elephant,elephant,cr,0154_cl_dnn_cr_elephant_40_n02504013_3197.png,n02504013_3197.png,1.0,2.1910415,0.87994134,0.9270878
alexnet_w1_mlp_simclrhn_probe2,1,155,NaN,cat,bird,bw,0155_cl_dnn_bw_bird_40_n01817953_5039.png,n01817953_5039.png,0.0,-2.7267475,-0.22004445,-1.7725068
alexnet_w1_mlp_simclrhn_probe2,1,156,NaN,bicycle,bicycle,cr,0156_cl_dnn_cr_bicycle_40_n03792782_3296.png,n03792782_3296.png,1.0,9.498358,-1.5118973,7.785426
alexnet_w1_mlp_simclrhn_probe2,1,157,NaN,oven,bird,cr,0157_cl_dnn_cr_bird_40_n01855672_5670.png,n01855672_5670.png,0.0,-5.536345,-0.75561833,-3.380484
alexnet_w1_mlp_simclrhn_probe2,1,158,NaN,oven,oven,cr,0158_cl_dnn_cr_oven_40_n04111531_2260.png,n04111531_2260.png,1.0,8.298693,0.21867791,5.7134337
alexnet_w1_mlp_simclrhn_probe2,1,159,NaN,cat,cat,cr,0159_cl_dnn_cr_cat_40_n02123045_5932.png,n02123045_5932.png,1.0,-0.07107159,-1.5296786,1.0313909
alexnet_w1_mlp_simclrhn_probe2,1,160,NaN,cat,dog,cr,0160_cl_dnn_cr_dog_40_n02100583_1267.png,n02100583_1267.png,0.0,-2.5916123,-1.802688,-0.55785376
alexnet_w1_mlp_simclrhn_probe2,1,161,NaN,dog,dog,bw,0161_cl_dnn_bw_dog_40_n02099601_8005.png,n02099601_8005.png,1.0,2.4077888,1.5490888,0.6071925
alexnet_w1_mlp_simclrhn_probe2,1,162,NaN,bird,boat,cr,0162_cl_dnn_cr_boat_40_n02951358_12080.png,n02951358_12080.png,0.0,-3.4245467,-1.627591,-1.2706395
alexnet_w1_mlp_simclrhn_probe2,1,163,NaN,oven,oven,cr,0163_cl_dnn_cr_oven_40_n04111531_20028.png,n04111531_20028.png,1.0,8.625255,-3.109137,8.297468
alexnet_w1_mlp_simclrhn_probe2,1,164,NaN,cat,cat,bw,0164_cl_dnn_bw_cat_40_n02123159_2107.png,n02123159_2107.png,1.0,5.780058,-2.583973,5.9142632
alexnet_w1_mlp_simclrhn_probe2,1,165,NaN,bear,bear,cr,0165_cl_dnn_cr_bear_40_n02134418_1351.png,n02134418_1351.png,1.0,3.8122761,1.7274835,1.474171
alexnet_w1_mlp_simclrhn_probe2,1,166,NaN,oven,oven,cr,0166_cl_dnn_cr_oven_40_n04111531_6609.png,n04111531_6609.png,1.0,3.5282364,0.49374497,2.1457095
alexnet_w1_mlp_simclrhn_probe2,1,167,NaN,knife,knife,bw,0167_cl_dnn_bw_knife_40_n03041632_21477.png,n03041632_21477.png,1.0,0.7961668,0.44994155,0.24481821
alexnet_w1_mlp_simclrhn_probe2,1,168,NaN,cat,cat,cr,0168_cl_dnn_cr_cat_40_n02123394_238.png,n02123394_238.png,1.0,3.0048637,0.38755056,1.8507199
alexnet_w1_mlp_simclrhn_probe2,1,169,NaN,elephant,elephant,cr,0169_cl_dnn_cr_elephant_40_n02504013_3141.png,n02504013_3141.png,1.0,1.6760037,-0.01887837,1.1984626
alexnet_w1_mlp_simclrhn_probe2,1,170,NaN,elephant,elephant,cr,0170_cl_dnn_cr_elephant_40_n02504013_5035.png,n02504013_5035.png,1.0,2.7533867,-2.2282283,3.522534
alexnet_w1_mlp_simclrhn_probe2,1,171,NaN,dog,dog,cr,0171_cl_dnn_cr_dog_40_n02089867_2298.png,n02089867_2298.png,1.0,2.505435,-0.71972066,2.2805295
alexnet_w1_mlp_simclrhn_probe2,1,172,NaN,chair,bear,bw,0172_cl_dnn_bw_bear_40_n02134418_2503.png,n02134418_2503.png,0.0,-2.0940032,-0.757856,-0.94479877
alexnet_w1_mlp_simclrhn_probe2,1,173,NaN,keyboard,keyboard,cr,0173_cl_dnn_cr_keyboard_40_n04505470_4878.png,n04505470_4878.png,1.0,0.5581745,-3.3328295,2.7513554
alexnet_w1_mlp_simclrhn_probe2,1,174,NaN,oven,knife,bw,0174_cl_dnn_bw_knife_40_n03041632_22734.png,n03041632_22734.png,0.0,-2.4547133,-1.4424984,-0.715744
alexnet_w1_mlp_simclrhn_probe2,1,175,NaN,bear,bear,cr,0175_cl_dnn_cr_bear_40_n02132136_8896.png,n02132136_8896.png,1.0,1.5493035,0.8494671,0.4948591
alexnet_w1_mlp_simclrhn_probe2,1,176,NaN,bicycle,boat,bw,0176_cl_dnn_bw_boat_40_n02951358_5952.png,n02951358_5952.png,0.0,-0.4423643,2.954871,-2.402208
alexnet_w1_mlp_simclrhn_probe2,1,177,NaN,car,chair,bw,0177_cl_dnn_bw_chair_40_n04099969_1775.png,n04099969_1775.png,0.0,-1.6294616,0.800494,-1.7182382
alexnet_w1_mlp_simclrhn_probe2,1,178,NaN,airplane,airplane,bw,0178_cl_dnn_bw_airplane_40_n02690373_6524.png,n02690373_6524.png,1.0,4.13407,2.2737727,1.3154287
alexnet_w1_mlp_simclrhn_probe2,1,179,NaN,bird,bear,cr,0179_cl_dnn_cr_bear_40_n02133161_1916.png,n02133161_1916.png,0.0,-2.568924,0.9237613,-2.4697015
alexnet_w1_mlp_simclrhn_probe2,1,180,NaN,keyboard,knife,bw,0180_cl_dnn_bw_knife_40_n03041632_96714.png,n03041632_96714.png,0.0,0.091005415,2.9363256,-2.0119452
alexnet_w1_mlp_simclrhn_probe2,1,181,NaN,truck,truck,bw,0181_cl_dnn_bw_truck_40_n03417042_13635.png,n03417042_13635.png,1.0,6.3268414,2.9506607,2.3873203
alexnet_w1_mlp_simclrhn_probe2,1,182,NaN,boat,boat,bw,0182_cl_dnn_bw_boat_40_n04612504_1748.png,n04612504_1748.png,1.0,3.0717008,-0.5633801,2.5703902
alexnet_w1_mlp_simclrhn_probe2,1,183,NaN,bird,bird,cr,0183_cl_dnn_cr_bird_40_n01592084_3341.png,n01592084_3341.png,1.0,3.5425403,-3.5065837,4.9844832
alexnet_w1_mlp_simclrhn_probe2,1,184,NaN,car,car,bw,0184_cl_dnn_bw_car_40_n02814533_12388.png,n02814533_12388.png,1.0,6.866354,-0.10854882,4.932001
alexnet_w1_mlp_simclrhn_probe2,1,185,NaN,bicycle,bicycle,cr,0185_cl_dnn_cr_bicycle_40_n03792782_5864.png,n03792782_5864.png,1.0,5.9423075,-0.25335756,4.3809967
alexnet_w1_mlp_simclrhn_probe2,1,186,NaN,elephant,bird,bw,0186_cl_dnn_bw_bird_40_n01514859_17156.png,n01514859_17156.png,0.0,-4.763571,1.0701125,-4.1250367
alexnet_w1_mlp_simclrhn_probe2,1,187,NaN,car,car,cr,0187_cl_dnn_cr_car_40_n03100240_7737.png,n03100240_7737.png,1.0,5.478746,1.7790482,2.6160815
alexnet_w1_mlp_simclrhn_probe2,1,188,NaN,bottle,bottle,bw,0188_cl_dnn_bw_bottle_40_n04579145_1829.png,n04579145_1829.png,1.0,-0.10157728,-1.7690043,1.179049
alexnet_w1_mlp_simclrhn_probe2,1,189,NaN,bear,elephant,bw,0189_cl_dnn_bw_elephant_40_n02504013_22388.png,n02504013_22388.png,0.0,0.40795642,2.204308,-1.2702124
alexnet_w1_mlp_simclrhn_probe2,1,190,NaN,airplane,airplane,bw,0190_cl_dnn_bw_airplane_40_n02690373_7107.png,n02690373_7107.png,1.0,4.2506156,1.275289,2.1038735
alexnet_w1_mlp_simclrhn_probe2,1,191,NaN,car,car,bw,0191_cl_dnn_bw_car_40_n02814533_45594.png,n02814533_45594.png,1.0,11.216312,8.398928,1.9921919
alexnet_w1_mlp_simclrhn_probe2,1,192,NaN,elephant,boat,cr,0192_cl_dnn_cr_boat_40_n04612504_18536.png,n04612504_18536.png,0.0,1.2373768,2.4261487,-0.8405886
alexnet_w1_mlp_simclrhn_probe2,1,193,NaN,elephant,dog,cr,0193_cl_dnn_cr_dog_40_n02088466_6371.png,n02088466_6371.png,0.0,-1.2510782,3.4044771,-3.2919748
alexnet_w1_mlp_simclrhn_probe2,1,194,NaN,oven,bear,bw,0194_cl_dnn_bw_bear_40_n02133161_1003.png,n02133161_1003.png,0.0,-1.2846524,0.5769894,-1.3163795
alexnet_w1_mlp_simclrhn_probe2,1,195,NaN,knife,knife,bw,0195_cl_dnn_bw_knife_40_n03041632_29037.png,n03041632_29037.png,1.0,0.031017981,-1.6627554,1.1976787
alexnet_w1_mlp_simclrhn_probe2,1,196,NaN,airplane,airplane,cr,0196_cl_dnn_cr_airplane_40_n02690373_4015.png,n02690373_4015.png,1.0,1.9186754,0.5428358,0.9728656
alexnet_w1_mlp_simclrhn_probe2,1,197,NaN,knife,knife,bw,0197_cl_dnn_bw_knife_40_n03041632_28009.png,n03041632_28009.png,1.0,-0.11701048,-2.3389864,1.5711741
alexnet_w1_mlp_simclrhn_probe2,1,198,NaN,bird,bird,bw,0198_cl_dnn_bw_bird_40_n01560419_5714.png,n01560419_5714.png,1.0,0.8051598,-2.249789,2.160175
alexnet_w1_mlp_simclrhn_probe2,1,199,NaN,bicycle,cat,cr,0199_cl_dnn_cr_cat_40_n02125311_6429.png,n02125311_6429.png,0.0,-2.6222374,-1.997251,-0.44193214
alexnet_w1_mlp_simclrhn_probe2,1,200,NaN,chair,chair,bw,0200_cl_dnn_bw_chair_40_n04099969_9847.png,n04099969_9847.png,1.0,0.99084985,-1.0910922,1.4721553
alexnet_w1_mlp_simclrhn_probe2,1,201,NaN,cat,cat,bw,0201_cl_dnn_bw_cat_40_n02123597_7142.png,n02123597_7142.png,1.0,1.4938545,0.5743675,0.6501755
alexnet_w1_mlp_simclrhn_probe2,1,202,NaN,truck,bicycle,cr,0202_cl_dnn_cr_bicycle_40_n02835271_8982.png,n02835271_8982.png,0.0,0.004431188,1.2138625,-0.8551972
alexnet_w1_mlp_simclrhn_probe2,1,203,NaN,bird,bird,bw,0203_cl_dnn_bw_bird_40_n01592084_19555.png,n01592084_19555.png,1.0,3.7896628,3.601256,0.13322383
alexnet_w1_mlp_simclrhn_probe2,1,204,NaN,chair,knife,cr,0204_cl_dnn_cr_knife_40_n03041632_8618.png,n03041632_8618.png,0.0,-0.5475348,-0.14535224,-0.28438604
alexnet_w1_mlp_simclrhn_probe2,1,205,NaN,truck,boat,bw,0205_cl_dnn_bw_boat_40_n03344393_547.png,n03344393_547.png,0.0,2.021884,3.5968137,-1.1136435
alexnet_w1_mlp_simclrhn_probe2,1,206,NaN,bird,bird,bw,0206_cl_dnn_bw_bird_40_n01843383_5962.png,n01843383_5962.png,1.0,-1.8603063,-2.9128962,0.74429345
alexnet_w1_mlp_simclrhn_probe2,1,207,NaN,keyboard,keyboard,cr,0207_cl_dnn_cr_keyboard_40_n04505470_213.png,n04505470_213.png,1.0,8.066862,1.2065433,4.850978
alexnet_w1_mlp_simclrhn_probe2,1,208,NaN,elephant,elephant,cr,0208_cl_dnn_cr_elephant_40_n02504458_2607.png,n02504458_2607.png,1.0,1.8523394,-2.1688275,2.8433943
alexnet_w1_mlp_simclrhn_probe2,1,209,NaN,bear,bear,bw,0209_cl_dnn_bw_bear_40_n02134418_4157.png,n02134418_4157.png,1.0,2.4916275,1.8520792,0.45222896
alexnet_w1_mlp_simclrhn_probe2,1,210,NaN,bottle,bottle,cr,0210_cl_dnn_cr_bottle_40_n03983396_11519.png,n03983396_11519.png,1.0,4.3886356,0.07891095,3.0474358
alexnet_w1_mlp_simclrhn_probe2,1,211,NaN,cat,cat,cr,0211_cl_dnn_cr_cat_40_n02124075_1999.png,n02124075_1999.png,1.0,4.449562,-2.2847424,4.7618723
alexnet_w1_mlp_simclrhn_probe2,1,212,NaN,cat,cat,bw,0212_cl_dnn_bw_cat_40_n02124075_11252.png,n02124075_11252.png,1.0,-0.14037754,-1.3203019,0.8343325
alexnet_w1_mlp_simclrhn_probe2,1,213,NaN,boat,airplane,bw,0213_cl_dnn_bw_airplane_40_n02690373_4195.png,n02690373_4195.png,0.0,2.7704363,2.796781,-0.01862857
alexnet_w1_mlp_simclrhn_probe2,1,214,NaN,airplane,airplane,cr,0214_cl_dnn_cr_airplane_40_n02690373_2629.png,n02690373_2629.png,1.0,2.8150916,-0.14702754,2.0945346
alexnet_w1_mlp_simclrhn_probe2,1,215,NaN,keyboard,keyboard,bw,0215_cl_dnn_bw_keyboard_40_n04505470_5060.png,n04505470_5060.png,1.0,3.857858,-0.5159526,3.0927513
alexnet_w1_mlp_simclrhn_probe2,1,216,NaN,bear,bear,cr,0216_cl_dnn_cr_bear_40_n02132136_10060.png,n02132136_10060.png,1.0,1.7020133,-0.26491582,1.390829
alexnet_w1_mlp_simclrhn_probe2,1,217,NaN,airplane,airplane,bw,0217_cl_dnn_bw_airplane_40_n02690373_4150.png,n02690373_4150.png,1.0,4.622164,1.5293218,2.1869698
alexnet_w1_mlp_simclrhn_probe2,1,218,NaN,dog,dog,cr,0218_cl_dnn_cr_dog_40_n02102040_7465.png,n02102040_7465.png,1.0,2.770389,-0.07331878,2.0108051
alexnet_w1_mlp_simclrhn_probe2,1,219,NaN,bird,bird,bw,0219_cl_dnn_bw_bird_40_n02009229_12179.png,n02009229_12179.png,1.0,1.1457437,-0.5693534,1.2127569
alexnet_w1_mlp_simclrhn_probe2,1,220,NaN,knife,knife,bw,0220_cl_dnn_bw_knife_40_n03041632_20413.png,n03041632_20413.png,1.0,2.3351257,1.7600161,0.4066639
alexnet_w1_mlp_simclrhn_probe2,1,221,NaN,truck,truck,bw,0221_cl_dnn_bw_truck_40_n03796401_13490.png,n03796401_13490.png,1.0,2.791524,-1.8463202,3.2794511
alexnet_w1_mlp_simclrhn_probe2,1,222,NaN,oven,oven,cr,0222_cl_dnn_cr_oven_40_n04111531_584.png,n04111531_584.png,1.0,4.3681955,-0.62220204,3.528744
alexnet_w1_mlp_simclrhn_probe2,1,223,NaN,airplane,airplane,bw,0223_cl_dnn_bw_airplane_40_n02690373_3899.png,n02690373_3899.png,1.0,5.63043,3.6706262,1.3857907
alexnet_w1_mlp_simclrhn_probe2,1,224,NaN,bird,bird,cr,0224_cl_dnn_cr_bird_40_n02027492_8707.png,n02027492_8707.png,1.0,0.5381649,-2.4977329,2.146704
alexnet_w1_mlp_simclrhn_probe2,1,225,NaN,airplane,airplane,cr,0225_cl_dnn_cr_airplane_40_n02690373_2648.png,n02690373_2648.png,1.0,8.168591,3.08874,3.5919967
alexnet_w1_mlp_simclrhn_probe2,1,226,NaN,cat,cat,bw,0226_cl_dnn_bw_cat_40_n02123394_6598.png,n02123394_6598.png,1.0,3.6883252,0.60235465,2.1821105
alexnet_w1_mlp_simclrhn_probe2,1,227,NaN,bicycle,bicycle,bw,0227_cl_dnn_bw_bicycle_40_n02835271_17168.png,n02835271_17168.png,1.0,1.4203767,-1.3265259,1.9423534
alexnet_w1_mlp_simclrhn_probe2,1,228,NaN,truck,truck,bw,0228_cl_dnn_bw_truck_40_n03417042_29849.png,n03417042_29849.png,1.0,6.829239,3.2435398,2.5354722
alexnet_w1_mlp_simclrhn_probe2,1,229,NaN,chair,knife,cr,0229_cl_dnn_cr_knife_40_n03041632_29125.png,n03041632_29125.png,0.0,-0.7354615,-0.5349179,-0.14180572
alexnet_w1_mlp_simclrhn_probe2,1,230,NaN,bottle,clock,bw,0230_cl_dnn_bw_clock_40_n04548280_5456.png,n04548280_5456.png,0.0,1.2203535,1.4079949,-0.1326825
alexnet_w1_mlp_simclrhn_probe2,1,231,NaN,truck,truck,bw,0231_cl_dnn_bw_truck_40_n03796401_8099.png,n03796401_8099.png,1.0,0.22294793,-1.0682341,0.91300356
alexnet_w1_mlp_simclrhn_probe2,1,232,NaN,bear,bear,cr,0232_cl_dnn_cr_bear_40_n02132136_860.png,n02132136_860.png,1.0,2.0894425,0.7246932,0.9650235
alexnet_w1_mlp_simclrhn_probe2,1,233,NaN,truck,truck,bw,0233_cl_dnn_bw_truck_40_n03796401_4423.png,n03796401_4423.png,1.0,6.1718063,2.500048,2.5963254
alexnet_w1_mlp_simclrhn_probe2,1,234,NaN,elephant,elephant,bw,0234_cl_dnn_bw_elephant_40_n02504458_7871.png,n02504458_7871.png,1.0,11.26847,1.5706755,6.857376
alexnet_w1_mlp_simclrhn_probe2,1,235,NaN,oven,oven,cr,0235_cl_dnn_cr_oven_40_n04111531_14753.png,n04111531_14753.png,1.0,2.6879659,0.8040619,1.3321213
alexnet_w1_mlp_simclrhn_probe2,1,236,NaN,clock,clock,bw,0236_cl_dnn_bw_clock_40_n04548280_17198.png,n04548280_17198.png,1.0,4.3592305,2.0838165,1.6089607
alexnet_w1_mlp_simclrhn_probe2,1,237,NaN,oven,oven,cr,0237_cl_dnn_cr_oven_40_n04111531_15947.png,n04111531_15947.png,1.0,6.7582517,-1.4187979,5.7820473
alexnet_w1_mlp_simclrhn_probe2,1,238,NaN,oven,elephant,bw,0238_cl_dnn_bw_elephant_40_n02504013_1103.png,n02504013_1103.png,0.0,-2.1667187,0.5792133,-1.9416672
alexnet_w1_mlp_simclrhn_probe2,1,239,NaN,bicycle,bicycle,cr,0239_cl_dnn_cr_bicycle_40_n03792782_33853.png,n03792782_33853.png,1.0,-0.40677723,-1.151943,0.52691174
alexnet_w1_mlp_simclrhn_probe2,1,240,NaN,chair,bottle,bw,0240_cl_dnn_bw_bottle_40_n04557648_5665.png,n04557648_5665.png,0.0,-0.30523443,0.3026886,-0.4298665
alexnet_w1_mlp_simclrhn_probe2,1,241,NaN,bear,bear,bw,0241_cl_dnn_bw_bear_40_n02134418_5824.png,n02134418_5824.png,1.0,4.0366435,-0.2020567,2.9972138
alexnet_w1_mlp_simclrhn_probe2,1,242,NaN,truck,truck,cr,0242_cl_dnn_cr_truck_40_n04467665_54349.png,n04467665_54349.png,1.0,6.9265985,3.1534033,2.668052
alexnet_w1_mlp_simclrhn_probe2,1,243,NaN,truck,truck,cr,0243_cl_dnn_cr_truck_40_n03796401_8100.png,n03796401_8100.png,1.0,8.570274,5.603225,2.0980206
alexnet_w1_mlp_simclrhn_probe2,1,244,NaN,elephant,elephant,cr,0244_cl_dnn_cr_elephant_40_n02504013_4288.png,n02504013_4288.png,1.0,10.791576,2.3908725,5.9401946
alexnet_w1_mlp_simclrhn_probe2,1,245,NaN,boat,boat,cr,0245_cl_dnn_cr_boat_40_n03662601_4437.png,n03662601_4437.png,1.0,3.495076,1.1986119,1.6238452
alexnet_w1_mlp_simclrhn_probe2,1,246,NaN,bicycle,bicycle,cr,0246_cl_dnn_cr_bicycle_40_n02835271_7351.png,n02835271_7351.png,1.0,9.469451,0.45406994,6.374837
alexnet_w1_mlp_simclrhn_probe2,1,247,NaN,elephant,elephant,bw,0247_cl_dnn_bw_elephant_40_n02504458_2556.png,n02504458_2556.png,1.0,1.8900598,0.82860047,0.7505651
alexnet_w1_mlp_simclrhn_probe2,1,248,NaN,airplane,airplane,cr,0248_cl_dnn_cr_airplane_40_n02690373_303.png,n02690373_303.png,1.0,7.2555737,-0.8713491,5.746602
alexnet_w1_mlp_simclrhn_probe2,1,249,NaN,elephant,elephant,bw,0249_cl_dnn_bw_elephant_40_n02504013_5503.png,n02504013_5503.png,1.0,3.7394369,-1.317382,3.575711
alexnet_w1_mlp_simclrhn_probe2,1,250,NaN,airplane,truck,cr,0250_cl_dnn_cr_truck_40_n04467665_68332.png,n04467665_68332.png,0.0,0.38046345,7.202133,-4.823649
alexnet_w1_mlp_simclrhn_probe2,1,251,NaN,clock,clock,bw,0251_cl_dnn_bw_clock_40_n02708093_3079.png,n02708093_3079.png,1.0,2.065818,0.22626752,1.3007586
alexnet_w1_mlp_simclrhn_probe2,1,252,NaN,cat,cat,cr,0252_cl_dnn_cr_cat_40_n02123394_2395.png,n02123394_2395.png,1.0,2.054592,-0.41059747,1.7431523
alexnet_w1_mlp_simclrhn_probe2,1,253,NaN,chair,chair,cr,0253_cl_dnn_cr_chair_40_n04429376_20906.png,n04429376_20906.png,1.0,1.8880372,1.5083408,0.26848587
alexnet_w1_mlp_simclrhn_probe2,1,254,NaN,boat,boat,cr,0254_cl_dnn_cr_boat_40_n03344393_8160.png,n03344393_8160.png,1.0,2.2452903,0.51178473,1.2257735
alexnet_w1_mlp_simclrhn_probe2,1,255,NaN,keyboard,keyboard,cr,0255_cl_dnn_cr_keyboard_40_n03085013_21325.png,n03085013_21325.png,1.0,6.3486676,-0.0002721747,4.4893785
alexnet_w1_mlp_simclrhn_probe2,1,256,NaN,knife,knife,cr,0256_cl_dnn_cr_knife_40_n03041632_99875.png,n03041632_99875.png,1.0,1.1706523,-1.7014999,2.0309184
alexnet_w1_mlp_simclrhn_probe2,1,257,NaN,knife,clock,bw,0257_cl_dnn_bw_clock_40_n04548280_7384.png,n04548280_7384.png,0.0,0.09808164,0.45594054,-0.25304446
alexnet_w1_mlp_simclrhn_probe2,1,258,NaN,keyboard,keyboard,bw,0258_cl_dnn_bw_keyboard_40_n03085013_23534.png,n03085013_23534.png,1.0,4.426484,-0.190593,3.2647665
alexnet_w1_mlp_simclrhn_probe2,1,259,NaN,truck,truck,bw,0259_cl_dnn_bw_truck_40_n03417042_2383.png,n03417042_2383.png,1.0,4.855621,2.2933626,1.8117902
alexnet_w1_mlp_simclrhn_probe2,1,260,NaN,clock,clock,bw,0260_cl_dnn_bw_clock_40_n03196217_711.png,n03196217_711.png,1.0,0.46158567,0.29618102,0.11695875
alexnet_w1_mlp_simclrhn_probe2,1,261,NaN,keyboard,keyboard,bw,0261_cl_dnn_bw_keyboard_40_n03085013_7992.png,n03085013_7992.png,1.0,3.1175704,0.03310056,2.1810496
alexnet_w1_mlp_simclrhn_probe2,1,262,NaN,cat,cat,bw,0262_cl_dnn_bw_cat_40_n02125311_75445.png,n02125311_75445.png,1.0,2.78703,-0.8794967,2.592626
alexnet_w1_mlp_simclrhn_probe2,1,263,NaN,knife,knife,cr,0263_cl_dnn_cr_knife_40_n03041632_47410.png,n03041632_47410.png,1.0,-0.057556923,-1.1674631,0.7848222
alexnet_w1_mlp_simclrhn_probe2,1,264,NaN,oven,oven,bw,0264_cl_dnn_bw_oven_40_n04111531_741.png,n04111531_741.png,1.0,6.5246754,-1.1948521,5.45853
alexnet_w1_mlp_simclrhn_probe2,1,265,NaN,oven,oven,bw,0265_cl_dnn_bw_oven_40_n04111531_3181.png,n04111531_3181.png,1.0,-0.6816951,-1.169118,0.34466007
alexnet_w1_mlp_simclrhn_probe2,1,266,NaN,truck,truck,bw,0266_cl_dnn_bw_truck_40_n03417042_17099.png,n03417042_17099.png,1.0,12.106068,6.438915,4.0072823
alexnet_w1_mlp_simclrhn_probe2,1,267,NaN,boat,boat,cr,0267_cl_dnn_cr_boat_40_n03662601_15143.png,n03662601_15143.png,1.0,5.6723094,2.5254624,2.2251568
alexnet_w1_mlp_simclrhn_probe2,1,268,NaN,keyboard,keyboard,bw,0268_cl_dnn_bw_keyboard_40_n03085013_19197.png,n03085013_19197.png,1.0,12.506867,2.8311622,6.841757
alexnet_w1_mlp_simclrhn_probe2,1,269,NaN,airplane,airplane,cr,0269_cl_dnn_cr_airplane_40_n02690373_4202.png,n02690373_4202.png,1.0,7.7819877,2.04303,4.058056
alexnet_w1_mlp_simclrhn_probe2,1,270,NaN,bear,bear,bw,0270_cl_dnn_bw_bear_40_n02132136_10134.png,n02132136_10134.png,1.0,3.9653707,0.28233278,2.604301
alexnet_w1_mlp_simclrhn_probe2,1,271,NaN,boat,boat,bw,0271_cl_dnn_bw_boat_40_n03344393_5296.png,n03344393_5296.png,1.0,3.2491965,2.4842236,0.5409176
alexnet_w1_mlp_simclrhn_probe2,1,272,NaN,keyboard,keyboard,bw,0272_cl_dnn_bw_keyboard_40_n04505470_1600.png,n04505470_1600.png,1.0,4.568673,3.6035044,0.68247736
alexnet_w1_mlp_simclrhn_probe2,1,273,NaN,truck,truck,bw,0273_cl_dnn_bw_truck_40_n03417042_10043.png,n03417042_10043.png,1.0,8.416224,2.9884837,3.837992
alexnet_w1_mlp_simclrhn_probe2,1,274,NaN,bird,bird,bw,0274_cl_dnn_bw_bird_40_n02007558_5525.png,n02007558_5525.png,1.0,0.83228433,-1.4606047,1.6213175
alexnet_w1_mlp_simclrhn_probe2,1,275,NaN,airplane,airplane,cr,0275_cl_dnn_cr_airplane_40_n02690373_6621.png,n02690373_6621.png,1.0,1.3204746,0.108729064,0.85683346
alexnet_w1_mlp_simclrhn_probe2,1,276,NaN,keyboard,keyboard,bw,0276_cl_dnn_bw_keyboard_40_n04505470_6623.png,n04505470_6623.png,1.0,4.4303627,0.5749502,2.7261884
alexnet_w1_mlp_simclrhn_probe2,1,277,NaN,oven,dog,cr,0277_cl_dnn_cr_dog_40_n02113624_3403.png,n02113624_3403.png,0.0,-2.2806816,0.12241739,-1.6992477
alexnet_w1_mlp_simclrhn_probe2,1,278,NaN,dog,dog,bw,0278_cl_dnn_bw_dog_40_n02106550_12642.png,n02106550_12642.png,1.0,0.5198208,-0.50016856,0.7212414
alexnet_w1_mlp_simclrhn_probe2,1,279,NaN,clock,clock,cr,0279_cl_dnn_cr_clock_40_n04548280_24041.png,n04548280_24041.png,1.0,4.0250683,0.22456887,2.6873589
alexnet_w1_mlp_simclrhn_probe2,1,280,NaN,truck,truck,bw,0280_cl_dnn_bw_truck_40_n03417042_3236.png,n03417042_3236.png,1.0,2.9156942,1.561992,0.95721203
alexnet_w1_mlp_simclrhn_probe2,1,281,NaN,car,car,bw,0281_cl_dnn_bw_car_40_n03100240_2583.png,n03100240_2583.png,1.0,8.041515,7.930783,0.07829974
alexnet_w1_mlp_simclrhn_probe2,1,282,NaN,knife,knife,cr,0282_cl_dnn_cr_knife_40_n03041632_45090.png,n03041632_45090.png,1.0,2.1134427,-1.2961754,2.410964
alexnet_w1_mlp_simclrhn_probe2,1,283,NaN,cat,cat,cr,0283_cl_dnn_cr_cat_40_n02123597_660.png,n02123597_660.png,1.0,1.2422453,0.17886417,0.75192404
alexnet_w1_mlp_simclrhn_probe2,1,284,NaN,clock,clock,bw,0284_cl_dnn_bw_clock_40_n04548280_7813.png,n04548280_7813.png,1.0,1.6033174,-0.2180816,1.2879236
alexnet_w1_mlp_simclrhn_probe2,1,285,NaN,dog,dog,bw,0285_cl_dnn_bw_dog_40_n02111129_797.png,n02111129_797.png,1.0,3.773724,-0.91432494,3.3149512
alexnet_w1_mlp_simclrhn_probe2,1,286,NaN,knife,knife,cr,0286_cl_dnn_cr_knife_40_n03041632_3717.png,n03041632_3717.png,1.0,2.8077154,0.050195068,1.9498614
alexnet_w1_mlp_simclrhn_probe2,1,287,NaN,boat,boat,bw,0287_cl_dnn_bw_boat_40_n04273569_870.png,n04273569_870.png,1.0,1.5215995,-1.6501617,2.242774
alexnet_w1_mlp_simclrhn_probe2,1,288,NaN,elephant,elephant,bw,0288_cl_dnn_bw_elephant_40_n02504013_720.png,n02504013_720.png,1.0,13.055478,4.943354,5.7361374
alexnet_w1_mlp_simclrhn_probe2,1,289,NaN,oven,oven,cr,0289_cl_dnn_cr_oven_40_n04111531_14876.png,n04111531_14876.png,1.0,5.670982,0.4970076,3.6585522
alexnet_w1_mlp_simclrhn_probe2,1,290,NaN,cat,cat,bw,0290_cl_dnn_bw_cat_40_n02123045_569.png,n02123045_569.png,1.0,1.3456563,-0.30695987,1.1685761
alexnet_w1_mlp_simclrhn_probe2,1,291,NaN,keyboard,clock,bw,0291_cl_dnn_bw_clock_40_n03196217_5888.png,n03196217_5888.png,0.0,1.0405866,1.5509768,-0.36090034
alexnet_w1_mlp_simclrhn_probe2,1,292,NaN,keyboard,keyboard,cr,0292_cl_dnn_cr_keyboard_40_n04505470_4770.png,n04505470_4770.png,1.0,8.696641,2.5566072,4.3416595
alexnet_w1_mlp_simclrhn_probe2,1,293,NaN,oven,knife,cr,0293_cl_dnn_cr_knife_40_n03041632_32292.png,n03041632_32292.png,0.0,-1.1926787,-0.35716617,-0.5907966
alexnet_w1_mlp_simclrhn_probe2,1,294,NaN,elephant,elephant,cr,0294_cl_dnn_cr_elephant_40_n02504013_6672.png,n02504013_6672.png,1.0,1.1979934,1.142468,0.039262403
alexnet_w1_mlp_simclrhn_probe2,1,295,NaN,airplane,airplane,bw,0295_cl_dnn_bw_airplane_40_n02690373_5838.png,n02690373_5838.png,1.0,6.4583793,2.2111459,3.0032475
alexnet_w1_mlp_simclrhn_probe2,1,296,NaN,bird,bird,cr,0296_cl_dnn_cr_bird_40_n01796340_5508.png,n01796340_5508.png,1.0,0.6501029,-2.592002,2.2925143
alexnet_w1_mlp_simclrhn_probe2,1,297,NaN,oven,clock,bw,0297_cl_dnn_bw_clock_40_n03196217_6477.png,n03196217_6477.png,0.0,0.7958093,3.6370935,-2.0090914
alexnet_w1_mlp_simclrhn_probe2,1,298,NaN,bird,bird,bw,0298_cl_dnn_bw_bird_40_n02011460_5075.png,n02011460_5075.png,1.0,0.40821537,-2.0162773,1.7143751
alexnet_w1_mlp_simclrhn_probe2,1,299,NaN,boat,boat,bw,0299_cl_dnn_bw_boat_40_n03344393_10284.png,n03344393_10284.png,1.0,4.0200367,1.9002695,1.4989017
alexnet_w1_mlp_simclrhn_probe2,1,300,NaN,oven,oven,bw,0300_cl_dnn_bw_oven_40_n04111531_14559.png,n04111531_14559.png,1.0,2.8832636,0.6335364,1.5907974
alexnet_w1_mlp_simclrhn_probe2,1,301,NaN,bottle,knife,cr,0301_cl_dnn_cr_knife_40_n03041632_24060.png,n03041632_24060.png,0.0,-0.12834245,0.9038256,-0.72985303
alexnet_w1_mlp_simclrhn_probe2,1,302,NaN,airplane,airplane,bw,0302_cl_dnn_bw_airplane_40_n02690373_4134.png,n02690373_4134.png,1.0,6.787655,-0.15347157,4.908118
alexnet_w1_mlp_simclrhn_probe2,1,303,NaN,cat,bear,cr,0303_cl_dnn_cr_bear_40_n02134084_6669.png,n02134084_6669.png,0.0,-0.6605487,-0.14542255,-0.36424917
alexnet_w1_mlp_simclrhn_probe2,1,304,NaN,bird,bird,cr,0304_cl_dnn_cr_bird_40_n01558993_5744.png,n01558993_5744.png,1.0,3.159007,-8.358979,8.144446
alexnet_w1_mlp_simclrhn_probe2,1,305,NaN,knife,bird,bw,0305_cl_dnn_bw_bird_40_n01818515_10536.png,n01818515_10536.png,0.0,-6.5472865,-0.58053666,-4.219129
alexnet_w1_mlp_simclrhn_probe2,1,306,NaN,bicycle,bottle,bw,0306_cl_dnn_bw_bottle_40_n04557648_20614.png,n04557648_20614.png,0.0,-4.564344,3.4308977,-5.6534896
alexnet_w1_mlp_simclrhn_probe2,1,307,NaN,clock,clock,cr,0307_cl_dnn_cr_clock_40_n04548280_3605.png,n04548280_3605.png,1.0,3.9165967,0.02182247,2.7540214
alexnet_w1_mlp_simclrhn_probe2,1,308,NaN,truck,truck,bw,0308_cl_dnn_bw_truck_40_n03796401_27288.png,n03796401_27288.png,1.0,7.570061,4.781029,1.9721434
alexnet_w1_mlp_simclrhn_probe2,1,309,NaN,bicycle,bicycle,cr,0309_cl_dnn_cr_bicycle_40_n02835271_18276.png,n02835271_18276.png,1.0,5.244834,1.3329482,2.766121
alexnet_w1_mlp_simclrhn_probe2,1,310,NaN,bear,bear,cr,0310_cl_dnn_cr_bear_40_n02133161_12152.png,n02133161_12152.png,1.0,-0.6460761,-0.7461387,0.07075495
alexnet_w1_mlp_simclrhn_probe2,1,311,NaN,elephant,elephant,cr,0311_cl_dnn_cr_elephant_40_n02504013_14918.png,n02504013_14918.png,1.0,8.88037,1.9132776,4.9264784
alexnet_w1_mlp_simclrhn_probe2,1,312,NaN,bicycle,bicycle,bw,0312_cl_dnn_bw_bicycle_40_n03792782_5323.png,n03792782_5323.png,1.0,6.806882,-3.1854746,7.065663
alexnet_w1_mlp_simclrhn_probe2,1,313,NaN,bicycle,truck,cr,0313_cl_dnn_cr_truck_40_n04467665_37066.png,n04467665_37066.png,0.0,-0.84898525,2.0717044,-2.0652394
alexnet_w1_mlp_simclrhn_probe2,1,314,NaN,bird,bird,bw,0314_cl_dnn_bw_bird_40_n02025239_2481.png,n02025239_2481.png,1.0,0.2887307,-3.5464046,2.7118502
alexnet_w1_mlp_simclrhn_probe2,1,315,NaN,bicycle,bicycle,bw,0315_cl_dnn_bw_bicycle_40_n02835271_5113.png,n02835271_5113.png,1.0,4.3412366,-1.2799962,3.974812
alexnet_w1_mlp_simclrhn_probe2,1,316,NaN,elephant,elephant,cr,0316_cl_dnn_cr_elephant_40_n02504458_6185.png,n02504458_6185.png,1.0,3.5534341,-1.0048785,3.2232137
alexnet_w1_mlp_simclrhn_probe2,1,317,NaN,oven,knife,cr,0317_cl_dnn_cr_knife_40_n03041632_11475.png,n03041632_11475.png,0.0,-1.6903245,1.3364635,-2.1402624
alexnet_w1_mlp_simclrhn_probe2,1,318,NaN,cat,cat,bw,0318_cl_dnn_bw_cat_40_n02125311_31318.png,n02125311_31318.png,1.0,4.626271,0.24530804,3.0978086
alexnet_w1_mlp_simclrhn_probe2,1,319,NaN,clock,clock,bw,0319_cl_dnn_bw_clock_40_n04548280_8585.png,n04548280_8585.png,1.0,0.37584987,-0.16911589,0.38534898
alexnet_w1_mlp_simclrhn_probe2,1,320,NaN,bear,bear,bw,0320_cl_dnn_bw_bear_40_n02134418_12628.png,n02134418_12628.png,1.0,4.337521,0.33017707,2.8336203
alexnet_w1_mlp_simclrhn_probe2,1,321,NaN,chair,chair,bw,0321_cl_dnn_bw_chair_40_n03376595_17859.png,n03376595_17859.png,1.0,1.5761347,0.53308016,0.737551
alexnet_w1_mlp_simclrhn_probe2,1,322,NaN,knife,knife,cr,0322_cl_dnn_cr_knife_40_n03041632_379.png,n03041632_379.png,1.0,0.33283734,-1.5128449,1.3050945
alexnet_w1_mlp_simclrhn_probe2,1,323,NaN,oven,bottle,bw,0323_cl_dnn_bw_bottle_40_n04557648_1293.png,n04557648_1293.png,0.0,-0.98310167,1.4408841,-1.7140168
alexnet_w1_mlp_simclrhn_probe2,1,324,NaN,boat,boat,cr,0324_cl_dnn_cr_boat_40_n03662601_26298.png,n03662601_26298.png,1.0,9.14213,4.2810283,3.437318
alexnet_w1_mlp_simclrhn_probe2,1,325,NaN,oven,oven,bw,0325_cl_dnn_bw_oven_40_n04111531_6120.png,n04111531_6120.png,1.0,5.4319134,-0.72482926,4.3534746
alexnet_w1_mlp_simclrhn_probe2,1,326,NaN,car,car,bw,0326_cl_dnn_bw_car_40_n02814533_92940.png,n02814533_92940.png,1.0,6.9279494,1.7662885,3.6498456
alexnet_w1_mlp_simclrhn_probe2,1,327,NaN,chair,chair,cr,0327_cl_dnn_cr_chair_40_n02791124_392.png,n02791124_392.png,1.0,0.9306741,0.6922901,0.1685629
alexnet_w1_mlp_simclrhn_probe2,1,328,NaN,clock,clock,bw,0328_cl_dnn_bw_clock_40_n04548280_3330.png,n04548280_3330.png,1.0,2.013056,-0.337893,1.662372
alexnet_w1_mlp_simclrhn_probe2,1,329,NaN,truck,car,cr,0329_cl_dnn_cr_car_40_n02814533_83614.png,n02814533_83614.png,0.0,6.631062,7.8284674,-0.84669346
alexnet_w1_mlp_simclrhn_probe2,1,330,NaN,bear,bear,cr,0330_cl_dnn_cr_bear_40_n02134418_3846.png,n02134418_3846.png,1.0,5.2125835,3.2582536,1.38192
alexnet_w1_mlp_simclrhn_probe2,1,331,NaN,elephant,elephant,cr,0331_cl_dnn_cr_elephant_40_n02504013_811.png,n02504013_811.png,1.0,0.549458,-0.64431834,0.84412736
alexnet_w1_mlp_simclrhn_probe2,1,332,NaN,airplane,airplane,bw,0332_cl_dnn_bw_airplane_40_n02690373_1442.png,n02690373_1442.png,1.0,5.421116,-0.46048233,4.158918
alexnet_w1_mlp_simclrhn_probe2,1,333,NaN,chair,chair,cr,0333_cl_dnn_cr_chair_40_n03376595_6691.png,n03376595_6691.png,1.0,1.9713995,0.24622586,1.219882
alexnet_w1_mlp_simclrhn_probe2,1,334,NaN,bear,bird,bw,0334_cl_dnn_bw_bird_40_n01616318_1071.png,n01616318_1071.png,0.0,-5.867537,0.88546383,-4.7750926
alexnet_w1_mlp_simclrhn_probe2,1,335,NaN,boat,boat,cr,0335_cl_dnn_cr_boat_40_n03662601_8333.png,n03662601_8333.png,1.0,0.13764615,-0.41817448,0.39302456
alexnet_w1_mlp_simclrhn_probe2,1,336,NaN,chair,truck,cr,0336_cl_dnn_cr_truck_40_n03796401_9384.png,n03796401_9384.png,0.0,1.090382,1.2826278,-0.13593835
alexnet_w1_mlp_simclrhn_probe2,1,337,NaN,bottle,bottle,cr,0337_cl_dnn_cr_bottle_40_n04560804_19001.png,n04560804_19001.png,1.0,0.8174382,0.5159865,0.21315853
alexnet_w1_mlp_simclrhn_probe2,1,338,NaN,cat,cat,cr,0338_cl_dnn_cr_cat_40_n02123045_7646.png,n02123045_7646.png,1.0,-0.85700315,-1.5540644,0.49289674
alexnet_w1_mlp_simclrhn_probe2,1,339,NaN,elephant,elephant,cr,0339_cl_dnn_cr_elephant_40_n02504013_3599.png,n02504013_3599.png,1.0,13.348256,7.2306256,4.325818
alexnet_w1_mlp_simclrhn_probe2,1,340,NaN,clock,clock,cr,0340_cl_dnn_cr_clock_40_n03196217_1109.png,n03196217_1109.png,1.0,1.0285299,0.37569472,0.46162415
alexnet_w1_mlp_simclrhn_probe2,1,341,NaN,truck,boat,bw,0341_cl_dnn_bw_boat_40_n03344393_5322.png,n03344393_5322.png,0.0,1.0128014,2.7422976,-1.2229385
alexnet_w1_mlp_simclrhn_probe2,1,342,NaN,elephant,dog,cr,0342_cl_dnn_cr_dog_40_n02090622_11748.png,n02090622_11748.png,0.0,0.9587886,1.4425002,-0.3420358
alexnet_w1_mlp_simclrhn_probe2,1,343,NaN,knife,knife,cr,0343_cl_dnn_cr_knife_40_n03041632_20707.png,n03041632_20707.png,1.0,-0.59259,-3.6065047,2.1311595
alexnet_w1_mlp_simclrhn_probe2,1,344,NaN,keyboard,keyboard,cr,0344_cl_dnn_cr_keyboard_40_n03085013_8936.png,n03085013_8936.png,1.0,1.7021565,1.4529907,0.17618689
alexnet_w1_mlp_simclrhn_probe2,1,345,NaN,airplane,airplane,cr,0345_cl_dnn_cr_airplane_40_n02690373_4695.png,n02690373_4695.png,1.0,4.3882866,2.1973777,1.5492066
alexnet_w1_mlp_simclrhn_probe2,1,346,NaN,bird,oven,bw,0346_cl_dnn_bw_oven_40_n04111531_16463.png,n04111531_16463.png,0.0,-1.3558257,-0.43610793,-0.65033865
alexnet_w1_mlp_simclrhn_probe2,1,347,NaN,dog,dog,bw,0347_cl_dnn_bw_dog_40_n02099712_1234.png,n02099712_1234.png,1.0,1.3929944,-4.4923673,4.161579
alexnet_w1_mlp_simclrhn_probe2,1,348,NaN,boat,boat,bw,0348_cl_dnn_bw_boat_40_n03662601_17361.png,n03662601_17361.png,1.0,3.344606,-1.633598,3.5201218
alexnet_w1_mlp_simclrhn_probe2,1,349,NaN,oven,oven,cr,0349_cl_dnn_cr_oven_40_n04111531_12929.png,n04111531_12929.png,1.0,1.7747033,-0.20638251,1.4008392
alexnet_w1_mlp_simclrhn_probe2,1,350,NaN,keyboard,truck,bw,0350_cl_dnn_bw_truck_40_n03417042_2056.png,n03417042_2056.png,0.0,-1.275865,3.1918876,-3.159178
alexnet_w1_mlp_simclrhn_probe2,1,351,NaN,oven,oven,cr,0351_cl_dnn_cr_oven_40_n04111531_2937.png,n04111531_2937.png,1.0,4.2513485,0.9002912,2.3695555
alexnet_w1_mlp_simclrhn_probe2,1,352,NaN,boat,boat,bw,0352_cl_dnn_bw_boat_40_n04273569_23705.png,n04273569_23705.png,1.0,2.4957714,0.6272633,1.3212348
alexnet_w1_mlp_simclrhn_probe2,1,353,NaN,elephant,boat,cr,0353_cl_dnn_cr_boat_40_n02951358_8456.png,n02951358_8456.png,0.0,-0.7732304,-0.71272475,-0.042783942
alexnet_w1_mlp_simclrhn_probe2,1,354,NaN,bottle,bottle,bw,0354_cl_dnn_bw_bottle_40_n03983396_11632.png,n03983396_11632.png,1.0,1.8778023,-0.5700362,1.7308831
alexnet_w1_mlp_simclrhn_probe2,1,355,NaN,bicycle,bicycle,bw,0355_cl_dnn_bw_bicycle_40_n02835271_506.png,n02835271_506.png,1.0,7.744669,-2.0423846,6.9204926
alexnet_w1_mlp_simclrhn_probe2,1,356,NaN,keyboard,keyboard,cr,0356_cl_dnn_cr_keyboard_40_n04505470_665.png,n04505470_665.png,1.0,6.5287676,3.1529508,2.387063
alexnet_w1_mlp_simclrhn_probe2,1,357,NaN,bear,bear,bw,0357_cl_dnn_bw_bear_40_n02132136_390.png,n02132136_390.png,1.0,3.9022899,0.50366306,2.403192
alexnet_w1_mlp_simclrhn_probe2,1,358,NaN,bear,bear,cr,0358_cl_dnn_cr_bear_40_n02134084_13663.png,n02134084_13663.png,1.0,1.5635297,0.42521536,0.8049098
alexnet_w1_mlp_simclrhn_probe2,1,359,NaN,airplane,airplane,cr,0359_cl_dnn_cr_airplane_40_n02690373_2837.png,n02690373_2837.png,1.0,7.659167,3.4422927,2.9817803
alexnet_w1_mlp_simclrhn_probe2,1,360,NaN,airplane,airplane,bw,0360_cl_dnn_bw_airplane_40_n02690373_1492.png,n02690373_1492.png,1.0,6.2499933,1.2357737,3.545589
alexnet_w1_mlp_simclrhn_probe2,1,361,NaN,car,car,cr,0361_cl_dnn_cr_car_40_n03100240_14252.png,n03100240_14252.png,1.0,13.905454,8.608414,3.745573
alexnet_w1_mlp_simclrhn_probe2,1,362,NaN,chair,elephant,bw,0362_cl_dnn_bw_elephant_40_n02504458_4908.png,n02504458_4908.png,0.0,-3.6444094,-0.730937,-2.060136
alexnet_w1_mlp_simclrhn_probe2,1,363,NaN,bird,bird,bw,0363_cl_dnn_bw_bird_40_n01582220_5821.png,n01582220_5821.png,1.0,0.5541497,-1.8639901,1.709883
alexnet_w1_mlp_simclrhn_probe2,1,364,NaN,cat,cat,cr,0364_cl_dnn_cr_cat_40_n02123045_2968.png,n02123045_2968.png,1.0,2.4755564,0.50351584,1.3944433
alexnet_w1_mlp_simclrhn_probe2,1,365,NaN,dog,dog,cr,0365_cl_dnn_cr_dog_40_n02088466_1671.png,n02088466_1671.png,1.0,1.7165545,-0.56410027,1.6126666
alexnet_w1_mlp_simclrhn_probe2,1,366,NaN,boat,boat,bw,0366_cl_dnn_bw_boat_40_n03344393_7659.png,n03344393_7659.png,1.0,6.446172,3.4984732,2.084338
alexnet_w1_mlp_simclrhn_probe2,1,367,NaN,bicycle,bicycle,bw,0367_cl_dnn_bw_bicycle_40_n03792782_3783.png,n03792782_3783.png,1.0,2.81909,-2.018891,3.4209695
alexnet_w1_mlp_simclrhn_probe2,1,368,NaN,airplane,airplane,cr,0368_cl_dnn_cr_airplane_40_n02690373_2059.png,n02690373_2059.png,1.0,6.3618264,1.3382738,3.5521884
alexnet_w1_mlp_simclrhn_probe2,1,369,NaN,keyboard,keyboard,cr,0369_cl_dnn_cr_keyboard_40_n03085013_19483.png,n03085013_19483.png,1.0,3.1212435,0.82617694,1.6228572
alexnet_w1_mlp_simclrhn_probe2,1,370,NaN,bicycle,bicycle,bw,0370_cl_dnn_bw_bicycle_40_n03792782_2960.png,n03792782_2960.png,1.0,7.7768497,-1.9374363,6.8690376
alexnet_w1_mlp_simclrhn_probe2,1,371,NaN,keyboard,keyboard,cr,0371_cl_dnn_cr_keyboard_40_n03085013_24538.png,n03085013_24538.png,1.0,2.4357848,2.4079924,0.019652233
alexnet_w1_mlp_simclrhn_probe2,1,372,NaN,elephant,cat,cr,0372_cl_dnn_cr_cat_40_n02123597_9656.png,n02123597_9656.png,0.0,-3.3220055,-0.8033927,-1.7809283
alexnet_w1_mlp_simclrhn_probe2,1,373,NaN,car,car,cr,0373_cl_dnn_cr_car_40_n04285008_1085.png,n04285008_1085.png,1.0,11.0649185,4.0991383,4.9255505
alexnet_w1_mlp_simclrhn_probe2,1,374,NaN,dog,dog,cr,0374_cl_dnn_cr_dog_40_n02102177_5870.png,n02102177_5870.png,1.0,2.764574,0.07561866,1.9013785
alexnet_w1_mlp_simclrhn_probe2,1,375,NaN,keyboard,boat,cr,0375_cl_dnn_cr_boat_40_n03662601_24852.png,n03662601_24852.png,0.0,-1.0163314,1.7434704,-1.9514747
alexnet_w1_mlp_simclrhn_probe2,1,376,NaN,bicycle,bicycle,cr,0376_cl_dnn_cr_bicycle_40_n03792782_32379.png,n03792782_32379.png,1.0,7.52643,-0.0268718,5.340991
alexnet_w1_mlp_simclrhn_probe2,1,377,NaN,knife,cat,cr,0377_cl_dnn_cr_cat_40_n02123597_12266.png,n02123597_12266.png,0.0,-4.22819,-1.1134881,-2.2024267
alexnet_w1_mlp_simclrhn_probe2,1,378,NaN,airplane,airplane,cr,0378_cl_dnn_cr_airplane_40_n02690373_713.png,n02690373_713.png,1.0,9.7149,2.134929,5.359849
alexnet_w1_mlp_simclrhn_probe2,1,379,NaN,airplane,airplane,cr,0379_cl_dnn_cr_airplane_40_n02690373_6543.png,n02690373_6543.png,1.0,5.9032345,3.479474,1.7138574
alexnet_w1_mlp_simclrhn_probe2,1,380,NaN,oven,oven,cr,0380_cl_dnn_cr_oven_40_n04111531_5888.png,n04111531_5888.png,1.0,3.4404738,-1.6327924,3.5873408
alexnet_w1_mlp_simclrhn_probe2,1,381,NaN,dog,dog,bw,0381_cl_dnn_bw_dog_40_n02099601_7304.png,n02099601_7304.png,1.0,2.0032327,0.31750464,1.1919898
alexnet_w1_mlp_simclrhn_probe2,1,382,NaN,elephant,bird,bw,0382_cl_dnn_bw_bird_40_n01819313_146.png,n01819313_146.png,0.0,-1.910906,-1.1689323,-0.5246546
alexnet_w1_mlp_simclrhn_probe2,1,383,NaN,car,car,bw,0383_cl_dnn_bw_car_40_n03100240_18873.png,n03100240_18873.png,1.0,9.173385,5.6479583,2.492853
alexnet_w1_mlp_simclrhn_probe2,1,384,NaN,dog,dog,bw,0384_cl_dnn_bw_dog_40_n02100583_2707.png,n02100583_2707.png,1.0,1.6012856,1.0442015,0.39391795
alexnet_w1_mlp_simclrhn_probe2,1,385,NaN,bear,dog,bw,0385_cl_dnn_bw_dog_40_n02105056_15484.png,n02105056_15484.png,0.0,-1.3056777,0.5977354,-1.3459163
alexnet_w1_mlp_simclrhn_probe2,1,386,NaN,truck,truck,bw,0386_cl_dnn_bw_truck_40_n04467665_66535.png,n04467665_66535.png,1.0,5.7073936,1.7848706,2.7736428
alexnet_w1_mlp_simclrhn_probe2,1,387,NaN,elephant,elephant,bw,0387_cl_dnn_bw_elephant_40_n02504458_12303.png,n02504458_12303.png,1.0,4.9991446,2.0017893,2.1194503
alexnet_w1_mlp_simclrhn_probe2,1,388,NaN,bottle,bottle,cr,0388_cl_dnn_cr_bottle_40_n03937543_4586.png,n03937543_4586.png,1.0,2.8328674,-0.55849665,2.3980565
alexnet_w1_mlp_simclrhn_probe2,1,389,NaN,cat,bird,cr,0389_cl_dnn_cr_bird_40_n02007558_19064.png,n02007558_19064.png,0.0,-1.172459,0.82020015,-1.4090228
alexnet_w1_mlp_simclrhn_probe2,1,390,NaN,oven,oven,bw,0390_cl_dnn_bw_oven_40_n04111531_5904.png,n04111531_5904.png,1.0,5.3651047,-2.6112041,5.6401024
alexnet_w1_mlp_simclrhn_probe2,1,391,NaN,knife,keyboard,cr,0391_cl_dnn_cr_keyboard_40_n03085013_18625.png,n03085013_18625.png,0.0,-2.2131863,-1.2492325,-0.6816182
alexnet_w1_mlp_simclrhn_probe2,1,392,NaN,bottle,bottle,cr,0392_cl_dnn_cr_bottle_40_n04579145_445.png,n04579145_445.png,1.0,4.5089555,0.23962013,3.018876
alexnet_w1_mlp_simclrhn_probe2,1,393,NaN,oven,keyboard,bw,0393_cl_dnn_bw_keyboard_40_n03085013_22820.png,n03085013_22820.png,0.0,3.464826,3.7235222,-0.18292576
alexnet_w1_mlp_simclrhn_probe2,1,394,NaN,truck,truck,cr,0394_cl_dnn_cr_truck_40_n03417042_19479.png,n03417042_19479.png,1.0,7.581268,2.9262571,3.2915897
alexnet_w1_mlp_simclrhn_probe2,1,395,NaN,bird,bird,bw,0395_cl_dnn_bw_bird_40_n01833805_28946.png,n01833805_28946.png,1.0,0.5780399,-2.5395982,2.204503
alexnet_w1_mlp_simclrhn_probe2,1,396,NaN,bottle,bottle,bw,0396_cl_dnn_bw_bottle_40_n04591713_3896.png,n04591713_3896.png,1.0,-0.65804386,-1.0782211,0.29711017
alexnet_w1_mlp_simclrhn_probe2,1,397,NaN,cat,cat,cr,0397_cl_dnn_cr_cat_40_n02123159_782.png,n02123159_782.png,1.0,4.7651944,-4.4911304,6.5452104
alexnet_w1_mlp_simclrhn_probe2,1,398,NaN,keyboard,keyboard,bw,0398_cl_dnn_bw_keyboard_40_n04505470_464.png,n04505470_464.png,1.0,1.1291224,-0.76053953,1.3361927
alexnet_w1_mlp_simclrhn_probe2,1,399,NaN,bird,bird,cr,0399_cl_dnn_cr_bird_40_n01558993_3939.png,n01558993_3939.png,1.0,3.4098966,-5.20328,6.0904355
alexnet_w1_mlp_simclrhn_probe2,1,400,NaN,boat,boat,cr,0400_cl_dnn_cr_boat_40_n04273569_3052.png,n04273569_3052.png,1.0,3.9341342,-1.7828841,4.0425425
alexnet_w1_mlp_simclrhn_probe2,1,401,NaN,knife,knife,bw,0401_cl_dnn_bw_knife_40_n03041632_85416.png,n03041632_85416.png,1.0,0.5865865,-1.2653538,1.3095195
alexnet_w1_mlp_simclrhn_probe2,1,402,NaN,car,car,bw,0402_cl_dnn_bw_car_40_n02814533_51154.png,n02814533_51154.png,1.0,13.700202,11.632553,1.4620485
alexnet_w1_mlp_simclrhn_probe2,1,403,NaN,airplane,airplane,bw,0403_cl_dnn_bw_airplane_40_n02690373_6516.png,n02690373_6516.png,1.0,7.1996374,4.053365,2.2247505
alexnet_w1_mlp_simclrhn_probe2,1,404,NaN,airplane,airplane,cr,0404_cl_dnn_cr_airplane_40_n02690373_12813.png,n02690373_12813.png,1.0,9.555399,-0.346156,7.0014567
alexnet_w1_mlp_simclrhn_probe2,1,405,NaN,airplane,airplane,bw,0405_cl_dnn_bw_airplane_40_n02690373_6406.png,n02690373_6406.png,1.0,7.109872,1.4432545,4.0069036
alexnet_w1_mlp_simclrhn_probe2,1,406,NaN,chair,chair,cr,0406_cl_dnn_cr_chair_40_n03376595_8228.png,n03376595_8228.png,1.0,1.752487,0.85350096,0.63567907
alexnet_w1_mlp_simclrhn_probe2,1,407,NaN,knife,chair,bw,0407_cl_dnn_bw_chair_40_n04099969_6309.png,n04099969_6309.png,0.0,-1.3553197,0.8233943,-1.5405835
alexnet_w1_mlp_simclrhn_probe2,1,408,NaN,elephant,elephant,cr,0408_cl_dnn_cr_elephant_40_n02504013_19831.png,n02504013_19831.png,1.0,12.447807,3.8399625,6.086666
alexnet_w1_mlp_simclrhn_probe2,1,409,NaN,knife,bottle,bw,0409_cl_dnn_bw_bottle_40_n03937543_5088.png,n03937543_5088.png,0.0,-1.780275,0.009397,-1.2654892
alexnet_w1_mlp_simclrhn_probe2,1,410,NaN,elephant,elephant,cr,0410_cl_dnn_cr_elephant_40_n02504458_2190.png,n02504458_2190.png,1.0,0.9701654,-0.74782264,1.214801
alexnet_w1_mlp_simclrhn_probe2,1,411,NaN,car,car,bw,0411_cl_dnn_bw_car_40_n04285008_5997.png,n04285008_5997.png,1.0,7.8732276,1.9945368,4.1568623
alexnet_w1_mlp_simclrhn_probe2,1,412,NaN,bottle,knife,cr,0412_cl_dnn_cr_knife_40_n03041632_94620.png,n03041632_94620.png,0.0,-1.847716,-0.2253671,-1.1471739
alexnet_w1_mlp_simclrhn_probe2,1,413,NaN,bicycle,bicycle,cr,0413_cl_dnn_cr_bicycle_40_n02835271_8125.png,n02835271_8125.png,1.0,6.455681,0.9308544,3.9066424
alexnet_w1_mlp_simclrhn_probe2,1,414,NaN,oven,oven,cr,0414_cl_dnn_cr_oven_40_n04111531_4662.png,n04111531_4662.png,1.0,4.943327,-2.8109632,5.4831114
alexnet_w1_mlp_simclrhn_probe2,1,415,NaN,bicycle,dog,bw,0415_cl_dnn_bw_dog_40_n02110806_21755.png,n02110806_21755.png,0.0,-1.1123064,3.9478698,-3.5780847
alexnet_w1_mlp_simclrhn_probe2,1,416,NaN,clock,bottle,bw,0416_cl_dnn_bw_bottle_40_n02823428_3505.png,n02823428_3505.png,0.0,-0.21148746,-0.11567219,-0.06775162
alexnet_w1_mlp_simclrhn_probe2,1,417,NaN,cat,cat,cr,0417_cl_dnn_cr_cat_40_n02123045_11472.png,n02123045_11472.png,1.0,5.796388,-0.823156,4.6807246
alexnet_w1_mlp_simclrhn_probe2,1,418,NaN,boat,boat,cr,0418_cl_dnn_cr_boat_40_n03662601_14818.png,n03662601_14818.png,1.0,5.2367797,1.5257287,2.6241093
alexnet_w1_mlp_simclrhn_probe2,1,419,NaN,bicycle,bicycle,cr,0419_cl_dnn_cr_bicycle_40_n02835271_8322.png,n02835271_8322.png,1.0,5.3695426,1.4837294,2.747685
alexnet_w1_mlp_simclrhn_probe2,1,420,NaN,knife,knife,bw,0420_cl_dnn_bw_knife_40_n03041632_9580.png,n03041632_9580.png,1.0,0.94201696,0.27715942,0.47012526
alexnet_w1_mlp_simclrhn_probe2,1,421,NaN,dog,dog,bw,0421_cl_dnn_bw_dog_40_n02088466_3052.png,n02088466_3052.png,1.0,-1.0768927,-3.722423,1.8706723
alexnet_w1_mlp_simclrhn_probe2,1,422,NaN,keyboard,keyboard,cr,0422_cl_dnn_cr_keyboard_40_n04505470_7161.png,n04505470_7161.png,1.0,13.063138,1.1832138,8.400374
alexnet_w1_mlp_simclrhn_probe2,1,423,NaN,keyboard,keyboard,cr,0423_cl_dnn_cr_keyboard_40_n04505470_2321.png,n04505470_2321.png,1.0,4.930423,0.42505243,3.185778
alexnet_w1_mlp_simclrhn_probe2,1,424,NaN,oven,knife,cr,0424_cl_dnn_cr_knife_40_n03041632_6708.png,n03041632_6708.png,0.0,-2.811074,3.0610397,-4.1522117
alexnet_w1_mlp_simclrhn_probe2,1,425,NaN,keyboard,keyboard,bw,0425_cl_dnn_bw_keyboard_40_n04505470_4965.png,n04505470_4965.png,1.0,10.188055,2.5600631,5.3938046
alexnet_w1_mlp_simclrhn_probe2,1,426,NaN,cat,cat,bw,0426_cl_dnn_bw_cat_40_n02123597_11981.png,n02123597_11981.png,1.0,3.1267138,1.7323713,0.985949
alexnet_w1_mlp_simclrhn_probe2,1,427,NaN,truck,truck,cr,0427_cl_dnn_cr_truck_40_n03417042_2778.png,n03417042_2778.png,1.0,5.8436294,2.0761316,2.6640232
alexnet_w1_mlp_simclrhn_probe2,1,428,NaN,car,car,cr,0428_cl_dnn_cr_car_40_n02814533_80049.png,n02814533_80049.png,1.0,9.898913,8.704149,0.84482586
alexnet_w1_mlp_simclrhn_probe2,1,429,NaN,knife,keyboard,cr,0429_cl_dnn_cr_keyboard_40_n03085013_23561.png,n03085013_23561.png,0.0,-3.4448524,-1.1813476,-1.6005396
alexnet_w1_mlp_simclrhn_probe2,1,430,NaN,airplane,airplane,bw,0430_cl_dnn_bw_airplane_40_n02690373_1800.png,n02690373_1800.png,1.0,3.6624825,0.9809127,1.8961562
alexnet_w1_mlp_simclrhn_probe2,1,431,NaN,chair,chair,bw,0431_cl_dnn_bw_chair_40_n02791124_4306.png,n02791124_4306.png,1.0,-0.18483812,-1.0381774,0.60340196
alexnet_w1_mlp_simclrhn_probe2,1,432,NaN,bicycle,knife,bw,0432_cl_dnn_bw_knife_40_n03041632_33424.png,n03041632_33424.png,0.0,-2.6969295,-1.2693198,-1.0094725
alexnet_w1_mlp_simclrhn_probe2,1,433,NaN,boat,boat,cr,0433_cl_dnn_cr_boat_40_n04273569_111.png,n04273569_111.png,1.0,2.0256565,1.5929985,0.30593538
alexnet_w1_mlp_simclrhn_probe2,1,434,NaN,bear,bear,bw,0434_cl_dnn_bw_bear_40_n02132136_4403.png,n02132136_4403.png,1.0,3.9425302,2.0586278,1.3321202
alexnet_w1_mlp_simclrhn_probe2,1,435,NaN,bicycle,bicycle,bw,0435_cl_dnn_bw_bicycle_40_n03792782_49707.png,n03792782_49707.png,1.0,0.1426838,-0.45436645,0.4221783
alexnet_w1_mlp_simclrhn_probe2,1,436,NaN,bicycle,bicycle,cr,0436_cl_dnn_cr_bicycle_40_n02835271_3308.png,n02835271_3308.png,1.0,5.4899373,-2.8159556,5.873153
alexnet_w1_mlp_simclrhn_probe2,1,437,NaN,clock,clock,bw,0437_cl_dnn_bw_clock_40_n04548280_3305.png,n04548280_3305.png,1.0,1.7720445,-0.14454758,1.3552353
alexnet_w1_mlp_simclrhn_probe2,1,438,NaN,boat,boat,bw,0438_cl_dnn_bw_boat_40_n03344393_7614.png,n03344393_7614.png,1.0,6.3771276,4.016171,1.6694485
alexnet_w1_mlp_simclrhn_probe2,1,439,NaN,chair,bicycle,bw,0439_cl_dnn_bw_bicycle_40_n02835271_9434.png,n02835271_9434.png,0.0,-0.9925288,0.92455655,-1.3555841
alexnet_w1_mlp_simclrhn_probe2,1,440,NaN,chair,truck,bw,0440_cl_dnn_bw_truck_40_n03417042_3039.png,n03417042_3039.png,0.0,-1.5809604,-0.14952591,-1.0121771
alexnet_w1_mlp_simclrhn_probe2,1,441,NaN,oven,oven,cr,0441_cl_dnn_cr_oven_40_n04111531_5519.png,n04111531_5519.png,1.0,0.9654051,-2.876158,2.7163954
alexnet_w1_mlp_simclrhn_probe2,1,442,NaN,bottle,bottle,cr,0442_cl_dnn_cr_bottle_40_n03983396_3702.png,n03983396_3702.png,1.0,1.263006,-1.8264887,2.1846027
alexnet_w1_mlp_simclrhn_probe2,1,443,NaN,bicycle,clock,cr,0443_cl_dnn_cr_clock_40_n04548280_2177.png,n04548280_2177.png,0.0,0.48892736,3.231059,-1.93898
alexnet_w1_mlp_simclrhn_probe2,1,444,NaN,bottle,bottle,cr,0444_cl_dnn_cr_bottle_40_n03983396_4132.png,n03983396_4132.png,1.0,7.43879,-2.917532,7.323025
alexnet_w1_mlp_simclrhn_probe2,1,445,NaN,bicycle,bicycle,cr,0445_cl_dnn_cr_bicycle_40_n02835271_17509.png,n02835271_17509.png,1.0,4.709265,-2.0724552,4.7954006
alexnet_w1_mlp_simclrhn_probe2,1,446,NaN,airplane,airplane,bw,0446_cl_dnn_bw_airplane_40_n02690373_3090.png,n02690373_3090.png,1.0,4.61418,0.1396728,3.1639545
alexnet_w1_mlp_simclrhn_probe2,1,447,NaN,chair,chair,cr,0447_cl_dnn_cr_chair_40_n03376595_1302.png,n03376595_1302.png,1.0,1.7530866,-0.14173643,1.3398422
alexnet_w1_mlp_simclrhn_probe2,1,448,NaN,dog,dog,cr,0448_cl_dnn_cr_dog_40_n02107683_3640.png,n02107683_3640.png,1.0,2.6197312,0.20346372,1.708559
alexnet_w1_mlp_simclrhn_probe2,1,449,NaN,car,car,cr,0449_cl_dnn_cr_car_40_n03100240_770.png,n03100240_770.png,1.0,10.0812235,6.999963,2.1787803
alexnet_w1_mlp_simclrhn_probe2,1,450,NaN,knife,knife,cr,0450_cl_dnn_cr_knife_40_n03041632_4305.png,n03041632_4305.png,1.0,-1.1950487,-1.2094672,0.010195407
alexnet_w1_mlp_simclrhn_probe2,1,451,NaN,elephant,elephant,cr,0451_cl_dnn_cr_elephant_40_n02504013_4590.png,n02504013_4590.png,1.0,3.2137017,1.1547465,1.4559011
alexnet_w1_mlp_simclrhn_probe2,1,452,NaN,truck,truck,cr,0452_cl_dnn_cr_truck_40_n03417042_5752.png,n03417042_5752.png,1.0,1.401454,0.44297105,0.6777498
alexnet_w1_mlp_simclrhn_probe2,1,453,NaN,oven,oven,cr,0453_cl_dnn_cr_oven_40_n04111531_21931.png,n04111531_21931.png,1.0,4.895273,-0.49886155,3.8142292
alexnet_w1_mlp_simclrhn_probe2,1,454,NaN,elephant,elephant,bw,0454_cl_dnn_bw_elephant_40_n02504458_4711.png,n02504458_4711.png,1.0,3.5273073,0.14034915,2.394941
alexnet_w1_mlp_simclrhn_probe2,1,455,NaN,clock,clock,bw,0455_cl_dnn_bw_clock_40_n02708093_8033.png,n02708093_8033.png,1.0,1.8253741,-1.5111244,2.3592608
alexnet_w1_mlp_simclrhn_probe2,1,456,NaN,bicycle,bicycle,bw,0456_cl_dnn_bw_bicycle_40_n03792782_41992.png,n03792782_41992.png,1.0,12.609483,-0.8505863,9.517706
alexnet_w1_mlp_simclrhn_probe2,1,457,NaN,knife,keyboard,cr,0457_cl_dnn_cr_keyboard_40_n03085013_5622.png,n03085013_5622.png,0.0,0.97892165,1.812962,-0.58975565
alexnet_w1_mlp_simclrhn_probe2,1,458,NaN,bird,bird,bw,0458_cl_dnn_bw_bird_40_n02009912_1919.png,n02009912_1919.png,1.0,1.5880859,-3.5253448,3.6157417
alexnet_w1_mlp_simclrhn_probe2,1,459,NaN,bottle,bottle,cr,0459_cl_dnn_cr_bottle_40_n03937543_4202.png,n03937543_4202.png,1.0,1.3654262,-1.1313162,1.7654634
alexnet_w1_mlp_simclrhn_probe2,1,460,NaN,bicycle,bicycle,bw,0460_cl_dnn_bw_bicycle_40_n02835271_4341.png,n02835271_4341.png,1.0,3.6342678,-0.91461074,3.216543
alexnet_w1_mlp_simclrhn_probe2,1,461,NaN,bear,bear,bw,0461_cl_dnn_bw_bear_40_n02132136_18543.png,n02132136_18543.png,1.0,2.9967659,0.44372615,1.8052717
alexnet_w1_mlp_simclrhn_probe2,1,462,NaN,cat,cat,bw,0462_cl_dnn_bw_cat_40_n02124075_14425.png,n02124075_14425.png,1.0,6.0834293,-0.5745555,4.7079062
alexnet_w1_mlp_simclrhn_probe2,1,463,NaN,clock,clock,bw,0463_cl_dnn_bw_clock_40_n02708093_544.png,n02708093_544.png,1.0,1.0325545,-0.28092292,0.9287688
alexnet_w1_mlp_simclrhn_probe2,1,464,NaN,bear,bear,cr,0464_cl_dnn_cr_bear_40_n02133161_7604.png,n02133161_7604.png,1.0,0.9919455,0.17364053,0.578629
alexnet_w1_mlp_simclrhn_probe2,1,465,NaN,car,car,bw,0465_cl_dnn_bw_car_40_n03100240_15407.png,n03100240_15407.png,1.0,5.597712,3.49505,1.4868066
alexnet_w1_mlp_simclrhn_probe2,1,466,NaN,bicycle,bicycle,bw,0466_cl_dnn_bw_bicycle_40_n02835271_12926.png,n02835271_12926.png,1.0,5.4859776,-1.7083744,5.0871754
alexnet_w1_mlp_simclrhn_probe2,1,467,NaN,knife,chair,cr,0467_cl_dnn_cr_chair_40_n03376595_2056.png,n03376595_2056.png,0.0,-0.8042882,0.245453,-0.7422792
alexnet_w1_mlp_simclrhn_probe2,1,468,NaN,oven,oven,bw,0468_cl_dnn_bw_oven_40_n04111531_9762.png,n04111531_9762.png,1.0,4.355363,0.1067864,3.0041974
alexnet_w1_mlp_simclrhn_probe2,1,469,NaN,bicycle,bicycle,bw,0469_cl_dnn_bw_bicycle_40_n03792782_25799.png,n03792782_25799.png,1.0,3.252919,-1.9122331,3.6523142
alexnet_w1_mlp_simclrhn_probe2,1,470,NaN,oven,oven,cr,0470_cl_dnn_cr_oven_40_n04111531_3570.png,n04111531_3570.png,1.0,4.1035175,-3.1225052,5.1095695
alexnet_w1_mlp_simclrhn_probe2,1,471,NaN,car,car,cr,0471_cl_dnn_cr_car_40_n04285008_874.png,n04285008_874.png,1.0,6.4324455,3.8596923,1.8192112
alexnet_w1_mlp_simclrhn_probe2,1,472,NaN,bicycle,bottle,cr,0472_cl_dnn_cr_bottle_40_n04557648_364.png,n04557648_364.png,0.0,-6.4739037,2.1396377,-6.090694
alexnet_w1_mlp_simclrhn_probe2,1,473,NaN,airplane,airplane,bw,0473_cl_dnn_bw_airplane_40_n02690373_8461.png,n02690373_8461.png,1.0,5.8260603,-0.5085192,4.479224
alexnet_w1_mlp_simclrhn_probe2,1,474,NaN,boat,boat,cr,0474_cl_dnn_cr_boat_40_n04273569_1087.png,n04273569_1087.png,1.0,7.4844146,0.61250913,4.859171
alexnet_w1_mlp_simclrhn_probe2,1,475,NaN,chair,chair,cr,0475_cl_dnn_cr_chair_40_n03376595_1798.png,n03376595_1798.png,1.0,2.46659,-0.6190247,2.181859
alexnet_w1_mlp_simclrhn_probe2,1,476,NaN,oven,oven,cr,0476_cl_dnn_cr_oven_40_n04111531_5290.png,n04111531_5290.png,1.0,4.7831426,1.4268897,2.3732293
alexnet_w1_mlp_simclrhn_probe2,1,477,NaN,cat,cat,bw,0477_cl_dnn_bw_cat_40_n02124075_12369.png,n02124075_12369.png,1.0,2.8382187,0.8076725,1.435813
alexnet_w1_mlp_simclrhn_probe2,1,478,NaN,elephant,elephant,bw,0478_cl_dnn_bw_elephant_40_n02504458_3714.png,n02504458_3714.png,1.0,3.7130456,-0.09560919,2.6931257
alexnet_w1_mlp_simclrhn_probe2,1,479,NaN,bicycle,bicycle,bw,0479_cl_dnn_bw_bicycle_40_n03792782_7388.png,n03792782_7388.png,1.0,-0.6662351,-1.3911217,0.5125723
alexnet_w1_mlp_simclrhn_probe2,1,480,NaN,truck,truck,cr,0480_cl_dnn_cr_truck_40_n03796401_18240.png,n03796401_18240.png,1.0,3.2906375,0.507316,1.9681054
alexnet_w1_mlp_simclrhn_probe2,1,481,NaN,airplane,airplane,cr,0481_cl_dnn_cr_airplane_40_n02690373_610.png,n02690373_610.png,1.0,7.5962167,2.3790748,3.6890767
alexnet_w1_mlp_simclrhn_probe2,1,482,NaN,airplane,airplane,bw,0482_cl_dnn_bw_airplane_40_n02690373_6046.png,n02690373_6046.png,1.0,11.732408,-1.1166501,9.085656
alexnet_w1_mlp_simclrhn_probe2,1,483,NaN,bear,dog,cr,0483_cl_dnn_cr_dog_40_n02105505_4069.png,n02105505_4069.png,0.0,0.41759324,0.80480886,-0.2738028
alexnet_w1_mlp_simclrhn_probe2,1,484,NaN,oven,chair,bw,0484_cl_dnn_bw_chair_40_n04429376_1954.png,n04429376_1954.png,0.0,-0.6602458,0.6078627,-0.8966881
alexnet_w1_mlp_simclrhn_probe2,1,485,NaN,oven,oven,bw,0485_cl_dnn_bw_oven_40_n04111531_7862.png,n04111531_7862.png,1.0,6.1685066,-1.4453671,5.3838215
alexnet_w1_mlp_simclrhn_probe2,1,486,NaN,car,chair,cr,0486_cl_dnn_cr_chair_40_n02791124_7424.png,n02791124_7424.png,0.0,0.32528746,1.8679938,-1.0908581
alexnet_w1_mlp_simclrhn_probe2,1,487,NaN,elephant,dog,bw,0487_cl_dnn_bw_dog_40_n02088466_5521.png,n02088466_5521.png,0.0,0.44608533,1.0258287,-0.40994048
alexnet_w1_mlp_simclrhn_probe2,1,488,NaN,elephant,bear,cr,0488_cl_dnn_cr_bear_40_n02133161_12868.png,n02133161_12868.png,0.0,-1.3736087,-0.89787936,-0.33639145
alexnet_w1_mlp_simclrhn_probe2,1,489,NaN,keyboard,keyboard,bw,0489_cl_dnn_bw_keyboard_40_n04505470_4107.png,n04505470_4107.png,1.0,5.538306,4.9492917,0.4164962
alexnet_w1_mlp_simclrhn_probe2,1,490,NaN,boat,boat,bw,0490_cl_dnn_bw_boat_40_n03662601_855.png,n03662601_855.png,1.0,7.2161856,1.1443133,4.2934623
alexnet_w1_mlp_simclrhn_probe2,1,491,NaN,bird,bird,cr,0491_cl_dnn_cr_bird_40_n02017213_7558.png,n02017213_7558.png,1.0,1.8112133,-3.9005888,4.038854
alexnet_w1_mlp_simclrhn_probe2,1,492,NaN,airplane,bottle,bw,0492_cl_dnn_bw_bottle_40_n04557648_23801.png,n04557648_23801.png,0.0,-3.2691662,1.5370681,-3.398521
alexnet_w1_mlp_simclrhn_probe2,1,493,NaN,bird,bird,bw,0493_cl_dnn_bw_bird_40_n01601694_13054.png,n01601694_13054.png,1.0,2.4061098,-3.7511444,4.353836
alexnet_w1_mlp_simclrhn_probe2,1,494,NaN,oven,oven,bw,0494_cl_dnn_bw_oven_40_n04111531_2207.png,n04111531_2207.png,1.0,5.4135804,-2.423073,5.541351
alexnet_w1_mlp_simclrhn_probe2,1,495,NaN,bird,bird,bw,0495_cl_dnn_bw_bird_40_n02009912_9425.png,n02009912_9425.png,1.0,2.0338545,-2.3475199,3.0980995
alexnet_w1_mlp_simclrhn_probe2,1,496,NaN,keyboard,clock,cr,0496_cl_dnn_cr_clock_40_n03196217_6193.png,n03196217_6193.png,0.0,3.4130528,4.484315,-0.7574967
alexnet_w1_mlp_simclrhn_probe2,1,497,NaN,boat,boat,bw,0497_cl_dnn_bw_boat_40_n04273569_27625.png,n04273569_27625.png,1.0,5.8472576,1.1112107,3.3488908
alexnet_w1_mlp_simclrhn_probe2,1,498,NaN,chair,truck,bw,0498_cl_dnn_bw_truck_40_n03417042_29855.png,n03417042_29855.png,0.0,1.2756188,1.7390041,-0.32766291
alexnet_w1_mlp_simclrhn_probe2,1,499,NaN,bottle,bottle,cr,0499_cl_dnn_cr_bottle_40_n03983396_4212.png,n03983396_4212.png,1.0,2.9407787,-1.3643726,3.0442019
alexnet_w1_mlp_simclrhn_probe2,1,500,NaN,cat,cat,bw,0500_cl_dnn_bw_cat_40_n02123597_11613.png,n02123597_11613.png,1.0,1.7173766,1.2595167,0.32375583
alexnet_w1_mlp_simclrhn_probe2,1,501,NaN,clock,clock,cr,0501_cl_dnn_cr_clock_40_n02708093_1559.png,n02708093_1559.png,1.0,0.025962949,-0.63638735,0.4683524
alexnet_w1_mlp_simclrhn_probe2,1,502,NaN,chair,chair,cr,0502_cl_dnn_cr_chair_40_n02791124_7031.png,n02791124_7031.png,1.0,0.43716884,-0.00022554398,0.30928454
alexnet_w1_mlp_simclrhn_probe2,1,503,NaN,bottle,bottle,cr,0503_cl_dnn_cr_bottle_40_n04560804_1703.png,n04560804_1703.png,1.0,1.7187954,0.7909863,0.65606016
alexnet_w1_mlp_simclrhn_probe2,1,504,NaN,bottle,bottle,bw,0504_cl_dnn_bw_bottle_40_n04560804_15679.png,n04560804_15679.png,1.0,3.68928,-0.6848115,3.0929499
alexnet_w1_mlp_simclrhn_probe2,1,505,NaN,bottle,bottle,bw,0505_cl_dnn_bw_bottle_40_n03983396_1006.png,n03983396_1006.png,1.0,2.0910432,0.37899715,1.2105994
alexnet_w1_mlp_simclrhn_probe2,1,506,NaN,knife,knife,bw,0506_cl_dnn_bw_knife_40_n03041632_100645.png,n03041632_100645.png,1.0,0.26442322,-0.13645235,0.28346184
alexnet_w1_mlp_simclrhn_probe2,1,507,NaN,car,car,cr,0507_cl_dnn_cr_car_40_n02814533_54845.png,n02814533_54845.png,1.0,9.117043,7.6282883,1.0527083
alexnet_w1_mlp_simclrhn_probe2,1,508,NaN,keyboard,keyboard,cr,0508_cl_dnn_cr_keyboard_40_n03085013_20078.png,n03085013_20078.png,1.0,1.944408,0.3100249,1.1556835
alexnet_w1_mlp_simclrhn_probe2,1,509,NaN,elephant,chair,cr,0509_cl_dnn_cr_chair_40_n04099969_4543.png,n04099969_4543.png,0.0,-0.9278506,-0.5580549,-0.26148504
alexnet_w1_mlp_simclrhn_probe2,1,510,NaN,bear,bear,cr,0510_cl_dnn_cr_bear_40_n02134418_1253.png,n02134418_1253.png,1.0,2.0011773,0.33674338,1.1769326
alexnet_w1_mlp_simclrhn_probe2,1,511,NaN,bicycle,bicycle,bw,0511_cl_dnn_bw_bicycle_40_n02835271_8137.png,n02835271_8137.png,1.0,5.5004373,-1.3166258,4.8203917
alexnet_w1_mlp_simclrhn_probe2,1,512,NaN,keyboard,keyboard,bw,0512_cl_dnn_bw_keyboard_40_n04505470_7312.png,n04505470_7312.png,1.0,4.518558,0.17865126,3.0687776
alexnet_w1_mlp_simclrhn_probe2,1,513,NaN,elephant,elephant,cr,0513_cl_dnn_cr_elephant_40_n02504013_2460.png,n02504013_2460.png,1.0,7.719001,-2.2038987,7.0165496
alexnet_w1_mlp_simclrhn_probe2,1,514,NaN,bicycle,clock,cr,0514_cl_dnn_cr_clock_40_n04548280_13469.png,n04548280_13469.png,0.0,-1.6586794,-0.13516769,-1.0772854
alexnet_w1_mlp_simclrhn_probe2,1,515,NaN,car,chair,cr,0515_cl_dnn_cr_chair_40_n02791124_3161.png,n02791124_3161.png,0.0,-0.4401936,1.3643678,-1.2760177
alexnet_w1_mlp_simclrhn_probe2,1,516,NaN,elephant,dog,cr,0516_cl_dnn_cr_dog_40_n02093647_1818.png,n02093647_1818.png,0.0,-1.8433616,1.7899369,-2.56913
alexnet_w1_mlp_simclrhn_probe2,1,517,NaN,chair,chair,cr,0517_cl_dnn_cr_chair_40_n02791124_4294.png,n02791124_4294.png,1.0,1.0019207,0.92960334,0.0511361
alexnet_w1_mlp_simclrhn_probe2,1,518,NaN,cat,cat,cr,0518_cl_dnn_cr_cat_40_n02124075_3533.png,n02124075_3533.png,1.0,7.8613343,-0.73234344,6.0766478
alexnet_w1_mlp_simclrhn_probe2,1,519,NaN,boat,boat,cr,0519_cl_dnn_cr_boat_40_n03344393_2480.png,n03344393_2480.png,1.0,4.196908,0.55407697,2.5758705
alexnet_w1_mlp_simclrhn_probe2,1,520,NaN,car,car,bw,0520_cl_dnn_bw_car_40_n02814533_95054.png,n02814533_95054.png,1.0,3.3798954,1.1685712,1.5636424
alexnet_w1_mlp_simclrhn_probe2,1,521,NaN,bottle,bottle,cr,0521_cl_dnn_cr_bottle_40_n03937543_1808.png,n03937543_1808.png,1.0,5.722215,-0.63565,4.49569
alexnet_w1_mlp_simclrhn_probe2,1,522,NaN,car,car,cr,0522_cl_dnn_cr_car_40_n02814533_72213.png,n02814533_72213.png,1.0,9.371396,4.475377,3.4620082
alexnet_w1_mlp_simclrhn_probe2,1,523,NaN,keyboard,clock,cr,0523_cl_dnn_cr_clock_40_n03196217_1499.png,n03196217_1499.png,0.0,0.7608654,2.2473776,-1.0511229
alexnet_w1_mlp_simclrhn_probe2,1,524,NaN,cat,cat,cr,0524_cl_dnn_cr_cat_40_n02123045_5300.png,n02123045_5300.png,1.0,5.6379056,1.0282468,3.259521
alexnet_w1_mlp_simclrhn_probe2,1,525,NaN,bicycle,bird,bw,0525_cl_dnn_bw_bird_40_n02006656_3185.png,n02006656_3185.png,0.0,-1.8201747,-1.4497681,-0.26191705
alexnet_w1_mlp_simclrhn_probe2,1,526,NaN,clock,clock,cr,0526_cl_dnn_cr_clock_40_n03196217_4541.png,n03196217_4541.png,1.0,2.6567817,1.9547305,0.49642515
alexnet_w1_mlp_simclrhn_probe2,1,527,NaN,cat,cat,cr,0527_cl_dnn_cr_cat_40_n02123159_2317.png,n02123159_2317.png,1.0,7.462972,-3.926927,8.053875
alexnet_w1_mlp_simclrhn_probe2,1,528,NaN,elephant,bear,cr,0528_cl_dnn_cr_bear_40_n02133161_1362.png,n02133161_1362.png,0.0,1.4408355,2.236193,-0.56240267
alexnet_w1_mlp_simclrhn_probe2,1,529,NaN,clock,clock,bw,0529_cl_dnn_bw_clock_40_n04548280_1202.png,n04548280_1202.png,1.0,2.5305307,-0.18472935,1.9199789
alexnet_w1_mlp_simclrhn_probe2,1,530,NaN,dog,dog,bw,0530_cl_dnn_bw_dog_40_n02095570_6717.png,n02095570_6717.png,1.0,1.5163476,1.3827745,0.094450496
alexnet_w1_mlp_simclrhn_probe2,1,531,NaN,car,car,bw,0531_cl_dnn_bw_car_40_n03100240_15941.png,n03100240_15941.png,1.0,6.6211333,4.955877,1.1775142
alexnet_w1_mlp_simclrhn_probe2,1,532,NaN,chair,chair,bw,0532_cl_dnn_bw_chair_40_n02791124_1443.png,n02791124_1443.png,1.0,-0.98733646,-1.0404351,0.037546393
alexnet_w1_mlp_simclrhn_probe2,1,533,NaN,bottle,bottle,cr,0533_cl_dnn_cr_bottle_40_n04557648_830.png,n04557648_830.png,1.0,6.7943735,0.05906892,4.76258
alexnet_w1_mlp_simclrhn_probe2,1,534,NaN,truck,truck,cr,0534_cl_dnn_cr_truck_40_n03417042_8298.png,n03417042_8298.png,1.0,13.896851,9.107211,3.3867867
alexnet_w1_mlp_simclrhn_probe2,1,535,NaN,clock,clock,bw,0535_cl_dnn_bw_clock_40_n02708093_4569.png,n02708093_4569.png,1.0,7.2592397,0.32426515,4.9037676
alexnet_w1_mlp_simclrhn_probe2,1,536,NaN,keyboard,keyboard,cr,0536_cl_dnn_cr_keyboard_40_n03085013_7576.png,n03085013_7576.png,1.0,2.5472412,1.6779251,0.6146993
alexnet_w1_mlp_simclrhn_probe2,1,537,NaN,truck,truck,bw,0537_cl_dnn_bw_truck_40_n03417042_27093.png,n03417042_27093.png,1.0,5.934823,2.2705257,2.5910494
alexnet_w1_mlp_simclrhn_probe2,1,538,NaN,elephant,elephant,cr,0538_cl_dnn_cr_elephant_40_n02504013_13560.png,n02504013_13560.png,1.0,1.2523483,0.811913,0.31143478
alexnet_w1_mlp_simclrhn_probe2,1,539,NaN,car,car,bw,0539_cl_dnn_bw_car_40_n04285008_12045.png,n04285008_12045.png,1.0,9.593076,6.2118597,2.3908808
alexnet_w1_mlp_simclrhn_probe2,1,540,NaN,airplane,airplane,cr,0540_cl_dnn_cr_airplane_40_n02690373_5176.png,n02690373_5176.png,1.0,12.137796,3.0534139,6.423629
alexnet_w1_mlp_simclrhn_probe2,1,541,NaN,bicycle,bicycle,bw,0541_cl_dnn_bw_bicycle_40_n03792782_6194.png,n03792782_6194.png,1.0,3.6251063,-2.963678,4.658974
alexnet_w1_mlp_simclrhn_probe2,1,542,NaN,oven,oven,cr,0542_cl_dnn_cr_oven_40_n04111531_15912.png,n04111531_15912.png,1.0,4.040664,0.07614449,2.8033388
alexnet_w1_mlp_simclrhn_probe2,1,543,NaN,oven,oven,cr,0543_cl_dnn_cr_oven_40_n04111531_2592.png,n04111531_2592.png,1.0,1.7665728,0.09053904,1.1851349
alexnet_w1_mlp_simclrhn_probe2,1,544,NaN,bird,bird,cr,0544_cl_dnn_cr_bird_40_n02011460_2435.png,n02011460_2435.png,1.0,-0.95677054,-2.4010258,1.0212427
alexnet_w1_mlp_simclrhn_probe2,1,545,NaN,truck,car,cr,0545_cl_dnn_cr_car_40_n02814533_33205.png,n02814533_33205.png,0.0,7.1622796,8.034424,-0.6166991
alexnet_w1_mlp_simclrhn_probe2,1,546,NaN,chair,oven,bw,0546_cl_dnn_bw_oven_40_n04111531_14959.png,n04111531_14959.png,0.0,0.59476113,1.2657903,-0.4744893
alexnet_w1_mlp_simclrhn_probe2,1,547,NaN,clock,clock,cr,0547_cl_dnn_cr_clock_40_n04548280_6743.png,n04548280_6743.png,1.0,6.0488334,-1.5750622,5.3909082
alexnet_w1_mlp_simclrhn_probe2,1,548,NaN,knife,knife,bw,0548_cl_dnn_bw_knife_40_n03041632_15299.png,n03041632_15299.png,1.0,-0.9081756,-1.9910163,0.765684
alexnet_w1_mlp_simclrhn_probe2,1,549,NaN,knife,clock,bw,0549_cl_dnn_bw_clock_40_n03196217_127.png,n03196217_127.png,0.0,-1.9763302,-0.5470025,-1.0106874
alexnet_w1_mlp_simclrhn_probe2,1,550,NaN,boat,boat,bw,0550_cl_dnn_bw_boat_40_n04273569_12917.png,n04273569_12917.png,1.0,6.0121336,0.94600195,3.5822961
alexnet_w1_mlp_simclrhn_probe2,1,551,NaN,airplane,airplane,cr,0551_cl_dnn_cr_airplane_40_n02690373_9626.png,n02690373_9626.png,1.0,6.7545357,3.4843628,2.3123615
alexnet_w1_mlp_simclrhn_probe2,1,552,NaN,bear,bear,cr,0552_cl_dnn_cr_bear_40_n02134084_20500.png,n02134084_20500.png,1.0,1.0469325,0.34907573,0.49345922
alexnet_w1_mlp_simclrhn_probe2,1,553,NaN,bear,bear,bw,0553_cl_dnn_bw_bear_40_n02132136_6890.png,n02132136_6890.png,1.0,2.9419894,2.7053308,0.16734289
alexnet_w1_mlp_simclrhn_probe2,1,554,NaN,bottle,bottle,bw,0554_cl_dnn_bw_bottle_40_n02823428_3049.png,n02823428_3049.png,1.0,4.1434493,0.6675904,2.4578035
alexnet_w1_mlp_simclrhn_probe2,1,555,NaN,knife,keyboard,cr,0555_cl_dnn_cr_keyboard_40_n03085013_22837.png,n03085013_22837.png,0.0,1.2965829,1.3014855,-0.0034666627
alexnet_w1_mlp_simclrhn_probe2,1,556,NaN,keyboard,keyboard,bw,0556_cl_dnn_bw_keyboard_40_n03085013_3264.png,n03085013_3264.png,1.0,5.3465667,0.2478153,3.605362
alexnet_w1_mlp_simclrhn_probe2,1,557,NaN,bear,bear,bw,0557_cl_dnn_bw_bear_40_n02134418_7795.png,n02134418_7795.png,1.0,5.184799,2.941002,1.5866044
alexnet_w1_mlp_simclrhn_probe2,1,558,NaN,bear,boat,bw,0558_cl_dnn_bw_boat_40_n02951358_34163.png,n02951358_34163.png,0.0,-5.6545916,0.33398166,-4.2345605
alexnet_w1_mlp_simclrhn_probe2,1,559,NaN,bear,bear,cr,0559_cl_dnn_cr_bear_40_n02132136_8637.png,n02132136_8637.png,1.0,2.8711648,-0.5680653,2.431903
alexnet_w1_mlp_simclrhn_probe2,1,560,NaN,truck,truck,cr,0560_cl_dnn_cr_truck_40_n03417042_4218.png,n03417042_4218.png,1.0,4.042905,0.69100136,2.3701537
alexnet_w1_mlp_simclrhn_probe2,1,561,NaN,chair,clock,bw,0561_cl_dnn_bw_clock_40_n04548280_4473.png,n04548280_4473.png,0.0,-2.4813964,1.6944811,-2.9527915
alexnet_w1_mlp_simclrhn_probe2,1,562,NaN,bear,bear,bw,0562_cl_dnn_bw_bear_40_n02132136_21799.png,n02132136_21799.png,1.0,1.6561716,0.5262665,0.7989635
alexnet_w1_mlp_simclrhn_probe2,1,563,NaN,bird,bird,cr,0563_cl_dnn_cr_bird_40_n01531178_5780.png,n01531178_5780.png,1.0,1.4420842,-3.0582726,3.1822329
alexnet_w1_mlp_simclrhn_probe2,1,564,NaN,truck,truck,cr,0564_cl_dnn_cr_truck_40_n03796401_27184.png,n03796401_27184.png,1.0,10.817628,5.994807,3.4102497
alexnet_w1_mlp_simclrhn_probe2,1,565,NaN,keyboard,clock,bw,0565_cl_dnn_bw_clock_40_n03196217_5258.png,n03196217_5258.png,0.0,0.49604547,0.72144383,-0.15938072
alexnet_w1_mlp_simclrhn_probe2,1,566,NaN,airplane,bird,cr,0566_cl_dnn_cr_bird_40_n02002556_15337.png,n02002556_15337.png,0.0,-2.7043846,1.3105943,-2.8390188
alexnet_w1_mlp_simclrhn_probe2,1,567,NaN,elephant,bottle,cr,0567_cl_dnn_cr_bottle_40_n04560804_3683.png,n04560804_3683.png,0.0,-3.3414052,-0.87354106,-1.7450434
alexnet_w1_mlp_simclrhn_probe2,1,568,NaN,bicycle,bicycle,cr,0568_cl_dnn_cr_bicycle_40_n02835271_8511.png,n02835271_8511.png,1.0,6.269246,-2.6271822,6.2907248
alexnet_w1_mlp_simclrhn_probe2,1,569,NaN,bear,bear,cr,0569_cl_dnn_cr_bear_40_n02134084_23974.png,n02134084_23974.png,1.0,1.6024773,1.3931729,0.1480006
alexnet_w1_mlp_simclrhn_probe2,1,570,NaN,bicycle,dog,bw,0570_cl_dnn_bw_dog_40_n02091244_9271.png,n02091244_9271.png,0.0,-4.0610957,-1.0641196,-2.119182
alexnet_w1_mlp_simclrhn_probe2,1,571,NaN,bear,bear,cr,0571_cl_dnn_cr_bear_40_n02133161_6946.png,n02133161_6946.png,1.0,-0.7814094,-1.3730874,0.41837955
alexnet_w1_mlp_simclrhn_probe2,1,572,NaN,truck,truck,bw,0572_cl_dnn_bw_truck_40_n04467665_10060.png,n04467665_10060.png,1.0,1.9946251,1.1146194,0.622258
alexnet_w1_mlp_simclrhn_probe2,1,573,NaN,oven,oven,bw,0573_cl_dnn_bw_oven_40_n04111531_5328.png,n04111531_5328.png,1.0,6.6703672,2.9574869,2.625403
alexnet_w1_mlp_simclrhn_probe2,1,574,NaN,airplane,bottle,cr,0574_cl_dnn_cr_bottle_40_n04560804_2005.png,n04560804_2005.png,0.0,-1.3278639,-0.23114179,-0.77549964
alexnet_w1_mlp_simclrhn_probe2,1,575,NaN,bear,bear,bw,0575_cl_dnn_bw_bear_40_n02134084_3695.png,n02134084_3695.png,1.0,0.03293121,-0.1230801,0.11031666
alexnet_w1_mlp_simclrhn_probe2,1,576,NaN,cat,cat,bw,0576_cl_dnn_bw_cat_40_n02123597_2219.png,n02123597_2219.png,1.0,2.2749794,0.5611224,1.2118798
alexnet_w1_mlp_simclrhn_probe2,1,577,NaN,keyboard,chair,bw,0577_cl_dnn_bw_chair_40_n02791124_6077.png,n02791124_6077.png,0.0,-2.13124,0.26118782,-1.6917019
alexnet_w1_mlp_simclrhn_probe2,1,578,NaN,knife,bottle,cr,0578_cl_dnn_cr_bottle_40_n04579145_7431.png,n04579145_7431.png,0.0,-2.6849315,-0.002610162,-1.8966876
alexnet_w1_mlp_simclrhn_probe2,1,579,NaN,keyboard,keyboard,bw,0579_cl_dnn_bw_keyboard_40_n04505470_510.png,n04505470_510.png,1.0,2.8117697,2.0351653,0.54914224
alexnet_w1_mlp_simclrhn_probe2,1,580,NaN,oven,oven,cr,0580_cl_dnn_cr_oven_40_n04111531_4452.png,n04111531_4452.png,1.0,7.515964,-3.1145356,7.5168986
alexnet_w1_mlp_simclrhn_probe2,1,581,NaN,elephant,elephant,bw,0581_cl_dnn_bw_elephant_40_n02504013_237.png,n02504013_237.png,1.0,2.9784064,0.32164025,1.8786174
alexnet_w1_mlp_simclrhn_probe2,1,582,NaN,elephant,elephant,cr,0582_cl_dnn_cr_elephant_40_n02504013_10351.png,n02504013_10351.png,1.0,2.209219,1.9616432,0.1750625
alexnet_w1_mlp_simclrhn_probe2,1,583,NaN,elephant,elephant,cr,0583_cl_dnn_cr_elephant_40_n02504458_1304.png,n02504458_1304.png,1.0,8.524934,3.202787,3.7633262
alexnet_w1_mlp_simclrhn_probe2,1,584,NaN,dog,dog,bw,0584_cl_dnn_bw_dog_40_n02104365_9837.png,n02104365_9837.png,1.0,-0.07611703,-0.20041978,0.08789532
alexnet_w1_mlp_simclrhn_probe2,1,585,NaN,cat,cat,cr,0585_cl_dnn_cr_cat_40_n02123045_9661.png,n02123045_9661.png,1.0,0.34427583,-0.53259206,0.6200392
alexnet_w1_mlp_simclrhn_probe2,1,586,NaN,knife,bottle,bw,0586_cl_dnn_bw_bottle_40_n02823428_5214.png,n02823428_5214.png,0.0,-2.0222402,-0.32813,-1.1979167
alexnet_w1_mlp_simclrhn_probe2,1,587,NaN,bird,bird,bw,0587_cl_dnn_bw_bird_40_n01828970_5448.png,n01828970_5448.png,1.0,2.5783083,0.3674428,1.563318
alexnet_w1_mlp_simclrhn_probe2,1,588,NaN,bottle,car,cr,0588_cl_dnn_cr_car_40_n02814533_83874.png,n02814533_83874.png,0.0,-1.7106638,-0.2114251,-1.0601219
alexnet_w1_mlp_simclrhn_probe2,1,589,NaN,oven,oven,bw,0589_cl_dnn_bw_oven_40_n04111531_8036.png,n04111531_8036.png,1.0,5.1478844,-2.45987,5.379495
alexnet_w1_mlp_simclrhn_probe2,1,590,NaN,oven,oven,cr,0590_cl_dnn_cr_oven_40_n04111531_7355.png,n04111531_7355.png,1.0,3.0204473,0.29762805,1.9253241
alexnet_w1_mlp_simclrhn_probe2,1,591,NaN,car,car,bw,0591_cl_dnn_bw_car_40_n04285008_13354.png,n04285008_13354.png,1.0,1.9307407,1.5335945,0.28082478
alexnet_w1_mlp_simclrhn_probe2,1,592,NaN,keyboard,clock,cr,0592_cl_dnn_cr_clock_40_n02708093_8267.png,n02708093_8267.png,0.0,-1.1764237,1.9598267,-2.217664
alexnet_w1_mlp_simclrhn_probe2,1,593,NaN,cat,cat,bw,0593_cl_dnn_bw_cat_40_n02124075_14242.png,n02124075_14242.png,1.0,2.7383182,-1.5570866,3.03731
alexnet_w1_mlp_simclrhn_probe2,1,594,NaN,knife,knife,cr,0594_cl_dnn_cr_knife_40_n03041632_4279.png,n03041632_4279.png,1.0,0.4790018,-0.5476925,0.7259825
alexnet_w1_mlp_simclrhn_probe2,1,595,NaN,oven,oven,cr,0595_cl_dnn_cr_oven_40_n04111531_2296.png,n04111531_2296.png,1.0,1.7925576,-0.77851015,1.8180195
alexnet_w1_mlp_simclrhn_probe2,1,596,NaN,boat,boat,cr,0596_cl_dnn_cr_boat_40_n03344393_5859.png,n03344393_5859.png,1.0,5.130436,2.2235456,2.055482
alexnet_w1_mlp_simclrhn_probe2,1,597,NaN,car,car,cr,0597_cl_dnn_cr_car_40_n02814533_57176.png,n02814533_57176.png,1.0,4.6723304,4.2491255,0.29925105
alexnet_w1_mlp_simclrhn_probe2,1,598,NaN,elephant,cat,bw,0598_cl_dnn_bw_cat_40_n02123159_1769.png,n02123159_1769.png,0.0,-1.6200525,-0.21877867,-0.99085015
alexnet_w1_mlp_simclrhn_probe2,1,599,NaN,clock,clock,cr,0599_cl_dnn_cr_clock_40_n02708093_4976.png,n02708093_4976.png,1.0,6.7770576,-0.28791183,4.995688
alexnet_w1_mlp_simclrhn_probe2,1,600,NaN,car,truck,cr,0600_cl_dnn_cr_truck_40_n03796401_8864.png,n03796401_8864.png,0.0,0.55490136,1.5548134,-0.7070446
alexnet_w1_mlp_simclrhn_probe2,1,601,NaN,clock,clock,bw,0601_cl_dnn_bw_clock_40_n03196217_868.png,n03196217_868.png,1.0,4.1796336,2.5030527,1.1855217
alexnet_w1_mlp_simclrhn_probe2,1,602,NaN,cat,keyboard,bw,0602_cl_dnn_bw_keyboard_40_n03085013_3910.png,n03085013_3910.png,0.0,-1.9995468,-1.60017,-0.282402
alexnet_w1_mlp_simclrhn_probe2,1,603,NaN,bicycle,bicycle,cr,0603_cl_dnn_cr_bicycle_40_n03792782_5466.png,n03792782_5466.png,1.0,9.602526,-2.2845635,8.405441
alexnet_w1_mlp_simclrhn_probe2,1,604,NaN,bear,bear,bw,0604_cl_dnn_bw_bear_40_n02132136_23248.png,n02132136_23248.png,1.0,3.6725273,1.4262774,1.5883386
alexnet_w1_mlp_simclrhn_probe2,1,605,NaN,truck,truck,bw,0605_cl_dnn_bw_truck_40_n03417042_2794.png,n03417042_2794.png,1.0,5.5538588,1.3317591,2.9854755
alexnet_w1_mlp_simclrhn_probe2,1,606,NaN,oven,chair,bw,0606_cl_dnn_bw_chair_40_n02791124_7324.png,n02791124_7324.png,0.0,0.3264492,1.0105051,-0.4837006
alexnet_w1_mlp_simclrhn_probe2,1,607,NaN,bicycle,bicycle,bw,0607_cl_dnn_bw_bicycle_40_n02835271_6736.png,n02835271_6736.png,1.0,3.6517613,-0.68537825,3.0668209
alexnet_w1_mlp_simclrhn_probe2,1,608,NaN,clock,clock,bw,0608_cl_dnn_bw_clock_40_n04548280_8990.png,n04548280_8990.png,1.0,7.5772934,-2.9461238,7.4411798
alexnet_w1_mlp_simclrhn_probe2,1,609,NaN,airplane,airplane,bw,0609_cl_dnn_bw_airplane_40_n02690373_971.png,n02690373_971.png,1.0,-0.39020616,-1.161823,0.54561555
alexnet_w1_mlp_simclrhn_probe2,1,610,NaN,dog,bear,bw,0610_cl_dnn_bw_bear_40_n02132136_23853.png,n02132136_23853.png,0.0,-0.2879306,0.7212975,-0.71363205
alexnet_w1_mlp_simclrhn_probe2,1,611,NaN,clock,clock,cr,0611_cl_dnn_cr_clock_40_n03196217_3416.png,n03196217_3416.png,1.0,2.8852074,1.4413369,1.0209707
alexnet_w1_mlp_simclrhn_probe2,1,612,NaN,knife,clock,bw,0612_cl_dnn_bw_clock_40_n04548280_4346.png,n04548280_4346.png,0.0,-2.1324866,-0.6682874,-1.0353452
alexnet_w1_mlp_simclrhn_probe2,1,613,NaN,oven,oven,cr,0613_cl_dnn_cr_oven_40_n04111531_2342.png,n04111531_2342.png,1.0,8.563261,-0.045964867,6.087642
alexnet_w1_mlp_simclrhn_probe2,1,614,NaN,chair,chair,bw,0614_cl_dnn_bw_chair_40_n04099969_8509.png,n04099969_8509.png,1.0,1.6435851,-0.073629685,1.2142543
alexnet_w1_mlp_simclrhn_probe2,1,615,NaN,bottle,bottle,bw,0615_cl_dnn_bw_bottle_40_n03937543_4340.png,n03937543_4340.png,1.0,-0.7955979,-1.1568185,0.25542155
alexnet_w1_mlp_simclrhn_probe2,1,616,NaN,boat,clock,bw,0616_cl_dnn_bw_clock_40_n02708093_6655.png,n02708093_6655.png,0.0,-3.370267,1.0696194,-3.1394737
alexnet_w1_mlp_simclrhn_probe2,1,617,NaN,cat,cat,cr,0617_cl_dnn_cr_cat_40_n02123159_1339.png,n02123159_1339.png,1.0,5.0694957,-0.45891327,3.9091756
alexnet_w1_mlp_simclrhn_probe2,1,618,NaN,chair,knife,bw,0618_cl_dnn_bw_knife_40_n03041632_30553.png,n03041632_30553.png,0.0,-0.603704,-0.3444739,-0.18330334
alexnet_w1_mlp_simclrhn_probe2,1,619,NaN,bicycle,bicycle,cr,0619_cl_dnn_cr_bicycle_40_n03792782_18707.png,n03792782_18707.png,1.0,6.7952056,-0.93810105,5.4682736
alexnet_w1_mlp_simclrhn_probe2,1,620,NaN,elephant,elephant,bw,0620_cl_dnn_bw_elephant_40_n02504458_3648.png,n02504458_3648.png,1.0,10.822625,-0.91659826,8.300884
alexnet_w1_mlp_simclrhn_probe2,1,621,NaN,elephant,elephant,cr,0621_cl_dnn_cr_elephant_40_n02504458_1179.png,n02504458_1179.png,1.0,11.531763,4.5484676,4.937936
alexnet_w1_mlp_simclrhn_probe2,1,622,NaN,clock,clock,bw,0622_cl_dnn_bw_clock_40_n02708093_391.png,n02708093_391.png,1.0,4.2274876,0.44849724,2.6721497
alexnet_w1_mlp_simclrhn_probe2,1,623,NaN,bicycle,car,cr,0623_cl_dnn_cr_car_40_n04285008_3453.png,n04285008_3453.png,0.0,-2.1248605,1.9514803,-2.8824081
alexnet_w1_mlp_simclrhn_probe2,1,624,NaN,airplane,airplane,bw,0624_cl_dnn_bw_airplane_40_n02690373_2800.png,n02690373_2800.png,1.0,4.6800404,-0.86548847,3.921281
alexnet_w1_mlp_simclrhn_probe2,1,625,NaN,cat,cat,cr,0625_cl_dnn_cr_cat_40_n02123394_979.png,n02123394_979.png,1.0,2.064739,0.9657913,0.77707344
alexnet_w1_mlp_simclrhn_probe2,1,626,NaN,bear,dog,cr,0626_cl_dnn_cr_dog_40_n02105641_4701.png,n02105641_4701.png,0.0,0.28282997,1.6402749,-0.9598585
alexnet_w1_mlp_simclrhn_probe2,1,627,NaN,boat,boat,cr,0627_cl_dnn_cr_boat_40_n04273569_13641.png,n04273569_13641.png,1.0,4.516443,3.2092447,0.9243286
alexnet_w1_mlp_simclrhn_probe2,1,628,NaN,truck,car,cr,0628_cl_dnn_cr_car_40_n02814533_74825.png,n02814533_74825.png,0.0,-4.009474,-1.8490968,-1.5276172
alexnet_w1_mlp_simclrhn_probe2,1,629,NaN,airplane,airplane,cr,0629_cl_dnn_cr_airplane_40_n02690373_6812.png,n02690373_6812.png,1.0,6.138818,0.8949722,3.7079587
alexnet_w1_mlp_simclrhn_probe2,1,630,NaN,car,car,bw,0630_cl_dnn_bw_car_40_n03100240_19223.png,n03100240_19223.png,1.0,14.483306,9.727604,3.3627892
alexnet_w1_mlp_simclrhn_probe2,1,631,NaN,bottle,bottle,bw,0631_cl_dnn_bw_bottle_40_n03983396_3817.png,n03983396_3817.png,1.0,4.1677103,-1.3606403,3.9091344
alexnet_w1_mlp_simclrhn_probe2,1,632,NaN,elephant,elephant,bw,0632_cl_dnn_bw_elephant_40_n02504013_1432.png,n02504013_1432.png,1.0,5.6326823,-0.8790258,4.604473
alexnet_w1_mlp_simclrhn_probe2,1,633,NaN,airplane,boat,cr,0633_cl_dnn_cr_boat_40_n03662601_35008.png,n03662601_35008.png,0.0,2.5819585,4.764163,-1.5430516
alexnet_w1_mlp_simclrhn_probe2,1,634,NaN,oven,oven,bw,0634_cl_dnn_bw_oven_40_n04111531_14055.png,n04111531_14055.png,1.0,3.829296,-1.418397,3.7106795
alexnet_w1_mlp_simclrhn_probe2,1,635,NaN,airplane,airplane,bw,0635_cl_dnn_bw_airplane_40_n02690373_9812.png,n02690373_9812.png,1.0,6.450761,2.6839325,2.66355
alexnet_w1_mlp_simclrhn_probe2,1,636,NaN,truck,car,cr,0636_cl_dnn_cr_car_40_n04285008_6200.png,n04285008_6200.png,0.0,3.3798323,4.6393213,-0.8905933
alexnet_w1_mlp_simclrhn_probe2,1,637,NaN,clock,clock,cr,0637_cl_dnn_cr_clock_40_n04548280_5889.png,n04548280_5889.png,1.0,4.4484477,-0.4267671,3.4472973
alexnet_w1_mlp_simclrhn_probe2,1,638,NaN,chair,chair,bw,0638_cl_dnn_bw_chair_40_n03376595_2924.png,n03376595_2924.png,1.0,-0.43519837,-0.74727297,0.22067007
alexnet_w1_mlp_simclrhn_probe2,1,639,NaN,airplane,airplane,bw,0639_cl_dnn_bw_airplane_40_n02690373_693.png,n02690373_693.png,1.0,4.5388193,2.3647594,1.5372925
alexnet_w1_mlp_simclrhn_probe2,1,640,NaN,bicycle,bicycle,bw,0640_cl_dnn_bw_bicycle_40_n03792782_1778.png,n03792782_1778.png,1.0,7.1415114,0.5079664,4.6906247
alexnet_w1_mlp_simclrhn_probe2,1,641,NaN,clock,clock,cr,0641_cl_dnn_cr_clock_40_n02708093_444.png,n02708093_444.png,1.0,3.9499815,-0.079463005,2.8492477
alexnet_w1_mlp_simclrhn_probe2,1,642,NaN,clock,clock,cr,0642_cl_dnn_cr_clock_40_n02708093_3385.png,n02708093_3385.png,1.0,2.2859583,-1.1584495,2.4355643
alexnet_w1_mlp_simclrhn_probe2,1,643,NaN,clock,clock,cr,0643_cl_dnn_cr_clock_40_n03196217_970.png,n03196217_970.png,1.0,2.003161,1.6043305,0.28201568
alexnet_w1_mlp_simclrhn_probe2,1,644,NaN,keyboard,clock,bw,0644_cl_dnn_bw_clock_40_n04548280_4839.png,n04548280_4839.png,0.0,0.5133763,1.3073438,-0.56141984
alexnet_w1_mlp_simclrhn_probe2,1,645,NaN,truck,truck,bw,0645_cl_dnn_bw_truck_40_n03796401_1853.png,n03796401_1853.png,1.0,4.16995,2.1820004,1.4056927
