subj,session,trial,rt,object_response,category,condition,imagename,filename,is_correct,targ_act,max_nontarg_act,decision_margin
alexnet_w1_mlp_simclrhn_probe3,1,1,NaN,oven,oven,cr,0001_cl_dnn_cr_oven_40_n04111531_14126.png,n04111531_14126.png,1.0,4.559923,3.084093,1.0435694
alexnet_w1_mlp_simclrhn_probe3,1,2,NaN,bear,bear,cr,0002_cl_dnn_cr_bear_40_n02134084_5274.png,n02134084_5274.png,1.0,7.0094967,5.371694,1.1581013
alexnet_w1_mlp_simclrhn_probe3,1,3,NaN,dog,cat,cr,0003_cl_dnn_cr_cat_40_n02123394_133.png,n02123394_133.png,0.0,0.9283185,1.2125444,-0.2009781
alexnet_w1_mlp_simclrhn_probe3,1,4,NaN,car,car,cr,0004_cl_dnn_cr_car_40_n02814533_51190.png,n02814533_51190.png,1.0,12.573658,5.310754,5.1356487
alexnet_w1_mlp_simclrhn_probe3,1,5,NaN,chair,chair,bw,0005_cl_dnn_bw_chair_40_n04099969_14986.png,n04099969_14986.png,1.0,3.8239257,1.0053127,1.9930605
alexnet_w1_mlp_simclrhn_probe3,1,6,NaN,elephant,elephant,cr,0006_cl_dnn_cr_elephant_40_n02504013_6731.png,n02504013_6731.png,1.0,5.1685166,2.8508997,1.6388026
alexnet_w1_mlp_simclrhn_probe3,1,7,NaN,bottle,bottle,cr,0007_cl_dnn_cr_bottle_40_n02823428_987.png,n02823428_987.png,1.0,12.8896265,7.7132025,3.6602845
alexnet_w1_mlp_simclrhn_probe3,1,8,NaN,chair,truck,cr,0008_cl_dnn_cr_truck_40_n03417042_7458.png,n03417042_7458.png,0.0,3.4005475,3.5967712,-0.13875113
alexnet_w1_mlp_simclrhn_probe3,1,9,NaN,chair,chair,bw,0009_cl_dnn_bw_chair_40_n04099969_4577.png,n04099969_4577.png,1.0,3.263306,1.5125086,1.2380006
alexnet_w1_mlp_simclrhn_probe3,1,10,NaN,bicycle,knife,cr,0010_cl_dnn_cr_knife_40_n03041632_83472.png,n03041632_83472.png,0.0,0.37812346,0.7724085,-0.27880162
alexnet_w1_mlp_simclrhn_probe3,1,11,NaN,elephant,elephant,bw,0011_cl_dnn_bw_elephant_40_n02504458_3485.png,n02504458_3485.png,1.0,16.306684,4.72763,8.187628
alexnet_w1_mlp_simclrhn_probe3,1,12,NaN,elephant,bear,bw,0012_cl_dnn_bw_bear_40_n02133161_1066.png,n02133161_1066.png,0.0,2.3637638,3.855355,-1.0547143
alexnet_w1_mlp_simclrhn_probe3,1,13,NaN,elephant,elephant,bw,0013_cl_dnn_bw_elephant_40_n02504013_1060.png,n02504013_1060.png,1.0,6.205273,2.7818418,2.4207315
alexnet_w1_mlp_simclrhn_probe3,1,14,NaN,elephant,bear,bw,0014_cl_dnn_bw_bear_40_n02134084_1009.png,n02134084_1009.png,0.0,1.0964518,1.3112261,-0.15186842
alexnet_w1_mlp_simclrhn_probe3,1,15,NaN,cat,cat,cr,0015_cl_dnn_cr_cat_40_n02125311_13383.png,n02125311_13383.png,1.0,5.7435055,2.2657304,2.4591584
alexnet_w1_mlp_simclrhn_probe3,1,16,NaN,elephant,elephant,bw,0016_cl_dnn_bw_elephant_40_n02504013_257.png,n02504013_257.png,1.0,18.58116,5.3023496,9.389537
alexnet_w1_mlp_simclrhn_probe3,1,17,NaN,cat,cat,bw,0017_cl_dnn_bw_cat_40_n02123045_6445.png,n02123045_6445.png,1.0,2.9790049,1.3270687,1.1680952
alexnet_w1_mlp_simclrhn_probe3,1,18,NaN,airplane,airplane,bw,0018_cl_dnn_bw_airplane_40_n02690373_3493.png,n02690373_3493.png,1.0,12.973916,2.7121983,7.25613
alexnet_w1_mlp_simclrhn_probe3,1,19,NaN,airplane,airplane,bw,0019_cl_dnn_bw_airplane_40_n02690373_5184.png,n02690373_5184.png,1.0,7.5056057,2.1048162,3.8189347
alexnet_w1_mlp_simclrhn_probe3,1,20,NaN,car,truck,bw,0020_cl_dnn_bw_truck_40_n04467665_22637.png,n04467665_22637.png,0.0,1.3181458,2.4624543,-0.8091484
alexnet_w1_mlp_simclrhn_probe3,1,21,NaN,cat,cat,cr,0021_cl_dnn_cr_cat_40_n02123159_10952.png,n02123159_10952.png,1.0,6.569258,0.7950758,4.0829635
alexnet_w1_mlp_simclrhn_probe3,1,22,NaN,airplane,airplane,bw,0022_cl_dnn_bw_airplane_40_n02690373_3620.png,n02690373_3620.png,1.0,7.8712425,2.2897892,3.9466836
alexnet_w1_mlp_simclrhn_probe3,1,23,NaN,oven,bottle,cr,0023_cl_dnn_cr_bottle_40_n04557648_10744.png,n04557648_10744.png,0.0,1.3562495,3.2655234,-1.3500606
alexnet_w1_mlp_simclrhn_probe3,1,24,NaN,oven,oven,bw,0024_cl_dnn_bw_oven_40_n04111531_12702.png,n04111531_12702.png,1.0,7.752868,1.8687994,4.160665
alexnet_w1_mlp_simclrhn_probe3,1,25,NaN,oven,bear,cr,0025_cl_dnn_cr_bear_40_n02133161_9949.png,n02133161_9949.png,0.0,1.4779192,1.7656081,-0.20342675
alexnet_w1_mlp_simclrhn_probe3,1,26,NaN,oven,keyboard,cr,0026_cl_dnn_cr_keyboard_40_n03085013_3489.png,n03085013_3489.png,0.0,0.74198055,2.54486,-1.2748282
alexnet_w1_mlp_simclrhn_probe3,1,27,NaN,elephant,elephant,bw,0027_cl_dnn_bw_elephant_40_n02504458_4633.png,n02504458_4633.png,1.0,5.5795493,1.585325,2.8243432
alexnet_w1_mlp_simclrhn_probe3,1,28,NaN,clock,clock,cr,0028_cl_dnn_cr_clock_40_n04548280_7816.png,n04548280_7816.png,1.0,1.6605215,0.7814562,0.62159306
alexnet_w1_mlp_simclrhn_probe3,1,29,NaN,dog,dog,bw,0029_cl_dnn_bw_dog_40_n02097474_1859.png,n02097474_1859.png,1.0,2.1237867,0.39132634,1.2250345
alexnet_w1_mlp_simclrhn_probe3,1,30,NaN,cat,cat,bw,0030_cl_dnn_bw_cat_40_n02123394_916.png,n02123394_916.png,1.0,3.7096348,0.63174516,2.1763966
alexnet_w1_mlp_simclrhn_probe3,1,31,NaN,elephant,elephant,cr,0031_cl_dnn_cr_elephant_40_n02504458_3525.png,n02504458_3525.png,1.0,13.626255,3.8813252,6.8907065
alexnet_w1_mlp_simclrhn_probe3,1,32,NaN,bear,bear,bw,0032_cl_dnn_bw_bear_40_n02134418_4456.png,n02134418_4456.png,1.0,6.869307,1.8965031,3.5163035
alexnet_w1_mlp_simclrhn_probe3,1,33,NaN,keyboard,keyboard,bw,0033_cl_dnn_bw_keyboard_40_n03085013_24045.png,n03085013_24045.png,1.0,6.5953226,1.4710121,3.6234348
alexnet_w1_mlp_simclrhn_probe3,1,34,NaN,oven,knife,bw,0034_cl_dnn_bw_knife_40_n03041632_49363.png,n03041632_49363.png,0.0,1.1679164,1.5019784,-0.2362175
alexnet_w1_mlp_simclrhn_probe3,1,35,NaN,cat,cat,bw,0035_cl_dnn_bw_cat_40_n02123159_7854.png,n02123159_7854.png,1.0,3.0644817,0.9408534,1.5016321
alexnet_w1_mlp_simclrhn_probe3,1,36,NaN,oven,knife,cr,0036_cl_dnn_cr_knife_40_n03041632_4708.png,n03041632_4708.png,0.0,0.3110779,3.1477158,-2.005806
alexnet_w1_mlp_simclrhn_probe3,1,37,NaN,oven,chair,cr,0037_cl_dnn_cr_chair_40_n04429376_7788.png,n04429376_7788.png,0.0,2.8768384,3.426751,-0.38884684
alexnet_w1_mlp_simclrhn_probe3,1,38,NaN,car,car,cr,0038_cl_dnn_cr_car_40_n03100240_9086.png,n03100240_9086.png,1.0,7.6016984,5.460837,1.5138177
alexnet_w1_mlp_simclrhn_probe3,1,39,NaN,chair,chair,cr,0039_cl_dnn_cr_chair_40_n03376595_3038.png,n03376595_3038.png,1.0,1.0847919,1.0149381,0.049394086
alexnet_w1_mlp_simclrhn_probe3,1,40,NaN,truck,truck,bw,0040_cl_dnn_bw_truck_40_n03796401_1758.png,n03796401_1758.png,1.0,2.444211,1.5676216,0.61984235
alexnet_w1_mlp_simclrhn_probe3,1,41,NaN,boat,boat,cr,0041_cl_dnn_cr_boat_40_n04273569_4324.png,n04273569_4324.png,1.0,10.177115,2.4799604,5.4427104
alexnet_w1_mlp_simclrhn_probe3,1,42,NaN,bear,bear,cr,0042_cl_dnn_cr_bear_40_n02134084_1090.png,n02134084_1090.png,1.0,3.8845704,3.213509,0.47451198
alexnet_w1_mlp_simclrhn_probe3,1,43,NaN,bicycle,bicycle,bw,0043_cl_dnn_bw_bicycle_40_n03792782_13665.png,n03792782_13665.png,1.0,2.9580283,0.24821083,1.9161303
alexnet_w1_mlp_simclrhn_probe3,1,44,NaN,knife,knife,bw,0044_cl_dnn_bw_knife_40_n03041632_36215.png,n03041632_36215.png,1.0,3.0185015,1.9933242,0.7249099
alexnet_w1_mlp_simclrhn_probe3,1,45,NaN,car,car,bw,0045_cl_dnn_bw_car_40_n04285008_7770.png,n04285008_7770.png,1.0,13.100081,5.4620104,5.400932
alexnet_w1_mlp_simclrhn_probe3,1,46,NaN,bottle,bottle,cr,0046_cl_dnn_cr_bottle_40_n03983396_15260.png,n03983396_15260.png,1.0,7.752578,3.4892716,3.0146127
alexnet_w1_mlp_simclrhn_probe3,1,47,NaN,dog,dog,cr,0047_cl_dnn_cr_dog_40_n02091635_6519.png,n02091635_6519.png,1.0,0.9184682,0.84230953,0.053852294
alexnet_w1_mlp_simclrhn_probe3,1,48,NaN,elephant,elephant,cr,0048_cl_dnn_cr_elephant_40_n02504013_3485.png,n02504013_3485.png,1.0,19.342155,6.7690916,8.890499
alexnet_w1_mlp_simclrhn_probe3,1,49,NaN,oven,oven,cr,0049_cl_dnn_cr_oven_40_n04111531_807.png,n04111531_807.png,1.0,4.1350827,1.3446681,1.973121
alexnet_w1_mlp_simclrhn_probe3,1,50,NaN,oven,oven,cr,0050_cl_dnn_cr_oven_40_n04111531_605.png,n04111531_605.png,1.0,4.144026,1.3091265,2.0045767
alexnet_w1_mlp_simclrhn_probe3,1,51,NaN,elephant,dog,bw,0051_cl_dnn_bw_dog_40_n02109047_2662.png,n02109047_2662.png,0.0,0.9397933,5.8408437,-3.4655662
alexnet_w1_mlp_simclrhn_probe3,1,52,NaN,truck,truck,cr,0052_cl_dnn_cr_truck_40_n03417042_16038.png,n03417042_16038.png,1.0,3.9991555,0.54044425,2.4456782
alexnet_w1_mlp_simclrhn_probe3,1,53,NaN,truck,truck,bw,0053_cl_dnn_bw_truck_40_n03796401_1710.png,n03796401_1710.png,1.0,5.161871,1.0461098,2.9102829
alexnet_w1_mlp_simclrhn_probe3,1,54,NaN,cat,cat,cr,0054_cl_dnn_cr_cat_40_n02125311_20921.png,n02125311_20921.png,1.0,5.1791325,1.9335517,2.2949722
alexnet_w1_mlp_simclrhn_probe3,1,55,NaN,bird,bear,cr,0055_cl_dnn_cr_bear_40_n02133161_575.png,n02133161_575.png,0.0,0.93981034,1.1235914,-0.12995285
alexnet_w1_mlp_simclrhn_probe3,1,56,NaN,chair,chair,bw,0056_cl_dnn_bw_chair_40_n04429376_21865.png,n04429376_21865.png,1.0,1.9302573,0.8183006,0.78627217
alexnet_w1_mlp_simclrhn_probe3,1,57,NaN,bird,bird,bw,0057_cl_dnn_bw_bird_40_n01616318_26436.png,n01616318_26436.png,1.0,0.9739293,-0.077087864,0.74318135
alexnet_w1_mlp_simclrhn_probe3,1,58,NaN,oven,oven,cr,0058_cl_dnn_cr_oven_40_n04111531_9498.png,n04111531_9498.png,1.0,3.081665,2.930098,0.10717405
alexnet_w1_mlp_simclrhn_probe3,1,59,NaN,bear,bear,bw,0059_cl_dnn_bw_bear_40_n02134418_397.png,n02134418_397.png,1.0,8.128295,4.8822026,2.2953339
alexnet_w1_mlp_simclrhn_probe3,1,60,NaN,chair,chair,cr,0060_cl_dnn_cr_chair_40_n04099969_23961.png,n04099969_23961.png,1.0,3.710803,2.0728304,1.1582216
alexnet_w1_mlp_simclrhn_probe3,1,61,NaN,bird,dog,bw,0061_cl_dnn_bw_dog_40_n02093256_7181.png,n02093256_7181.png,0.0,-0.27035484,1.1481259,-1.0030174
alexnet_w1_mlp_simclrhn_probe3,1,62,NaN,bicycle,bicycle,cr,0062_cl_dnn_cr_bicycle_40_n02835271_26731.png,n02835271_26731.png,1.0,9.521225,2.400168,5.035348
alexnet_w1_mlp_simclrhn_probe3,1,63,NaN,cat,cat,cr,0063_cl_dnn_cr_cat_40_n02125311_12557.png,n02125311_12557.png,1.0,3.0022247,0.952391,1.4494514
alexnet_w1_mlp_simclrhn_probe3,1,64,NaN,dog,dog,cr,0064_cl_dnn_cr_dog_40_n02093647_2890.png,n02093647_2890.png,1.0,1.1900761,0.78029424,0.28975955
alexnet_w1_mlp_simclrhn_probe3,1,65,NaN,keyboard,knife,cr,0065_cl_dnn_cr_knife_40_n03041632_14293.png,n03041632_14293.png,0.0,1.1221648,2.4449992,-0.93538517
alexnet_w1_mlp_simclrhn_probe3,1,66,NaN,oven,oven,bw,0066_cl_dnn_bw_oven_40_n04111531_20359.png,n04111531_20359.png,1.0,4.499662,0.6064918,2.752887
alexnet_w1_mlp_simclrhn_probe3,1,67,NaN,truck,truck,bw,0067_cl_dnn_bw_truck_40_n04467665_12177.png,n04467665_12177.png,1.0,9.673847,1.2687927,5.9432707
alexnet_w1_mlp_simclrhn_probe3,1,68,NaN,bicycle,bicycle,cr,0068_cl_dnn_cr_bicycle_40_n02835271_19400.png,n02835271_19400.png,1.0,4.8331604,0.9915912,2.7163997
alexnet_w1_mlp_simclrhn_probe3,1,69,NaN,truck,truck,cr,0069_cl_dnn_cr_truck_40_n03417042_1263.png,n03417042_1263.png,1.0,4.7299633,4.3261642,0.28552905
alexnet_w1_mlp_simclrhn_probe3,1,70,NaN,cat,cat,bw,0070_cl_dnn_bw_cat_40_n02123045_8336.png,n02123045_8336.png,1.0,5.64856,0.9077004,3.352294
alexnet_w1_mlp_simclrhn_probe3,1,71,NaN,bear,bear,bw,0071_cl_dnn_bw_bear_40_n02134418_5405.png,n02134418_5405.png,1.0,5.54026,3.7635944,1.2562922
alexnet_w1_mlp_simclrhn_probe3,1,72,NaN,car,car,bw,0072_cl_dnn_bw_car_40_n04285008_2906.png,n04285008_2906.png,1.0,9.377764,4.025798,3.7844114
alexnet_w1_mlp_simclrhn_probe3,1,73,NaN,bird,bird,cr,0073_cl_dnn_cr_bird_40_n01818515_10517.png,n01818515_10517.png,1.0,4.3251605,3.2311246,0.7736002
alexnet_w1_mlp_simclrhn_probe3,1,74,NaN,truck,truck,cr,0074_cl_dnn_cr_truck_40_n03796401_14203.png,n03796401_14203.png,1.0,2.9090157,1.5248055,0.9787844
alexnet_w1_mlp_simclrhn_probe3,1,75,NaN,bird,bird,bw,0075_cl_dnn_bw_bird_40_n02009229_2503.png,n02009229_2503.png,1.0,3.19127,0.26982793,2.0657716
alexnet_w1_mlp_simclrhn_probe3,1,76,NaN,bottle,bottle,bw,0076_cl_dnn_bw_bottle_40_n02823428_6767.png,n02823428_6767.png,1.0,8.837061,1.2613752,5.3568187
alexnet_w1_mlp_simclrhn_probe3,1,77,NaN,bicycle,bicycle,bw,0077_cl_dnn_bw_bicycle_40_n02835271_12847.png,n02835271_12847.png,1.0,11.415667,1.8399513,6.7710533
alexnet_w1_mlp_simclrhn_probe3,1,78,NaN,bicycle,bicycle,cr,0078_cl_dnn_cr_bicycle_40_n02835271_24104.png,n02835271_24104.png,1.0,19.962215,0.88378036,13.490492
alexnet_w1_mlp_simclrhn_probe3,1,79,NaN,clock,clock,cr,0079_cl_dnn_cr_clock_40_n04548280_77.png,n04548280_77.png,1.0,3.1061933,0.43789905,1.8867689
alexnet_w1_mlp_simclrhn_probe3,1,80,NaN,cat,cat,bw,0080_cl_dnn_bw_cat_40_n02123394_6698.png,n02123394_6698.png,1.0,4.7644153,0.15248752,3.2611256
alexnet_w1_mlp_simclrhn_probe3,1,81,NaN,keyboard,keyboard,cr,0081_cl_dnn_cr_keyboard_40_n04505470_4356.png,n04505470_4356.png,1.0,15.463694,2.162263,9.405532
alexnet_w1_mlp_simclrhn_probe3,1,82,NaN,oven,chair,cr,0082_cl_dnn_cr_chair_40_n04429376_16325.png,n04429376_16325.png,0.0,2.9763598,3.0095,-0.023433648
alexnet_w1_mlp_simclrhn_probe3,1,83,NaN,elephant,elephant,bw,0083_cl_dnn_bw_elephant_40_n02504458_6721.png,n02504458_6721.png,1.0,2.5408897,1.9596602,0.41099137
alexnet_w1_mlp_simclrhn_probe3,1,84,NaN,truck,truck,cr,0084_cl_dnn_cr_truck_40_n03417042_6213.png,n03417042_6213.png,1.0,12.157872,0.7639944,8.056688
alexnet_w1_mlp_simclrhn_probe3,1,85,NaN,dog,dog,bw,0085_cl_dnn_bw_dog_40_n02097130_8277.png,n02097130_8277.png,1.0,1.514018,1.3303542,0.12986995
alexnet_w1_mlp_simclrhn_probe3,1,86,NaN,knife,bottle,cr,0086_cl_dnn_cr_bottle_40_n04557648_1856.png,n04557648_1856.png,0.0,0.45298284,1.9111025,-1.0310463
alexnet_w1_mlp_simclrhn_probe3,1,87,NaN,bird,bird,bw,0087_cl_dnn_bw_bird_40_n01531178_10905.png,n01531178_10905.png,1.0,2.695645,0.06315826,1.8614494
alexnet_w1_mlp_simclrhn_probe3,1,88,NaN,bear,bear,cr,0088_cl_dnn_cr_bear_40_n02133161_2202.png,n02133161_2202.png,1.0,3.3412895,0.69205314,1.873293
alexnet_w1_mlp_simclrhn_probe3,1,89,NaN,elephant,elephant,cr,0089_cl_dnn_cr_elephant_40_n02504458_10439.png,n02504458_10439.png,1.0,6.9001884,1.577236,3.7638958
alexnet_w1_mlp_simclrhn_probe3,1,90,NaN,clock,clock,cr,0090_cl_dnn_cr_clock_40_n02708093_6766.png,n02708093_6766.png,1.0,1.8927017,1.657855,0.1660617
alexnet_w1_mlp_simclrhn_probe3,1,91,NaN,oven,bottle,bw,0091_cl_dnn_bw_bottle_40_n03983396_2057.png,n03983396_2057.png,0.0,1.6269867,3.8591886,-1.578405
alexnet_w1_mlp_simclrhn_probe3,1,92,NaN,keyboard,knife,bw,0092_cl_dnn_bw_knife_40_n03041632_10000.png,n03041632_10000.png,0.0,1.8769118,4.025421,-1.5192257
alexnet_w1_mlp_simclrhn_probe3,1,93,NaN,cat,cat,cr,0093_cl_dnn_cr_cat_40_n02125311_2959.png,n02125311_2959.png,1.0,6.210388,0.72870386,3.876136
alexnet_w1_mlp_simclrhn_probe3,1,94,NaN,car,car,bw,0094_cl_dnn_bw_car_40_n04285008_13759.png,n04285008_13759.png,1.0,11.803067,3.029478,6.2038646
alexnet_w1_mlp_simclrhn_probe3,1,95,NaN,bicycle,bottle,cr,0095_cl_dnn_cr_bottle_40_n03937543_396.png,n03937543_396.png,0.0,0.32179826,1.2304535,-0.64251626
alexnet_w1_mlp_simclrhn_probe3,1,96,NaN,boat,boat,bw,0096_cl_dnn_bw_boat_40_n03662601_3984.png,n03662601_3984.png,1.0,5.626113,2.4420018,2.2515066
alexnet_w1_mlp_simclrhn_probe3,1,97,NaN,truck,truck,bw,0097_cl_dnn_bw_truck_40_n04467665_2230.png,n04467665_2230.png,1.0,3.870076,2.0018277,1.321051
alexnet_w1_mlp_simclrhn_probe3,1,98,NaN,boat,boat,cr,0098_cl_dnn_cr_boat_40_n03662601_28640.png,n03662601_28640.png,1.0,8.332234,1.3399839,4.9442677
alexnet_w1_mlp_simclrhn_probe3,1,99,NaN,cat,cat,cr,0099_cl_dnn_cr_cat_40_n02124075_11039.png,n02124075_11039.png,1.0,6.253041,0.5422701,4.0381246
alexnet_w1_mlp_simclrhn_probe3,1,100,NaN,clock,knife,bw,0100_cl_dnn_bw_knife_40_n03041632_7380.png,n03041632_7380.png,0.0,1.232789,2.756262,-1.0772581
alexnet_w1_mlp_simclrhn_probe3,1,101,NaN,cat,cat,cr,0101_cl_dnn_cr_cat_40_n02123045_6607.png,n02123045_6607.png,1.0,16.470335,1.2692679,10.748777
alexnet_w1_mlp_simclrhn_probe3,1,102,NaN,chair,chair,cr,0102_cl_dnn_cr_chair_40_n03376595_6704.png,n03376595_6704.png,1.0,1.9217424,1.5766423,0.24402267
alexnet_w1_mlp_simclrhn_probe3,1,103,NaN,bear,bear,bw,0103_cl_dnn_bw_bear_40_n02133161_12187.png,n02133161_12187.png,1.0,7.194684,3.2566466,2.784613
alexnet_w1_mlp_simclrhn_probe3,1,104,NaN,cat,dog,cr,0104_cl_dnn_cr_dog_40_n02110958_2363.png,n02110958_2363.png,0.0,1.7785782,2.5323143,-0.5329719
alexnet_w1_mlp_simclrhn_probe3,1,105,NaN,airplane,airplane,cr,0105_cl_dnn_cr_airplane_40_n02690373_19438.png,n02690373_19438.png,1.0,9.505268,0.8101144,6.1484027
alexnet_w1_mlp_simclrhn_probe3,1,106,NaN,bird,bird,cr,0106_cl_dnn_cr_bird_40_n01855032_5511.png,n01855032_5511.png,1.0,3.0165484,0.779345,1.5819417
alexnet_w1_mlp_simclrhn_probe3,1,107,NaN,boat,boat,bw,0107_cl_dnn_bw_boat_40_n04273569_9821.png,n04273569_9821.png,1.0,11.617871,2.7528293,6.2685313
alexnet_w1_mlp_simclrhn_probe3,1,108,NaN,oven,bear,bw,0108_cl_dnn_bw_bear_40_n02133161_13461.png,n02133161_13461.png,0.0,0.08513365,0.85043484,-0.5411497
alexnet_w1_mlp_simclrhn_probe3,1,109,NaN,knife,dog,cr,0109_cl_dnn_cr_dog_40_n02113023_8552.png,n02113023_8552.png,0.0,-0.008523322,1.1554252,-0.8230359
alexnet_w1_mlp_simclrhn_probe3,1,110,NaN,elephant,elephant,cr,0110_cl_dnn_cr_elephant_40_n02504458_1600.png,n02504458_1600.png,1.0,15.721358,3.445422,8.680398
alexnet_w1_mlp_simclrhn_probe3,1,111,NaN,chair,chair,cr,0111_cl_dnn_cr_chair_40_n04099969_4205.png,n04099969_4205.png,1.0,5.1185727,2.5573013,1.8110924
alexnet_w1_mlp_simclrhn_probe3,1,112,NaN,dog,dog,bw,0112_cl_dnn_bw_dog_40_n02105505_2121.png,n02105505_2121.png,1.0,2.5859857,0.82731456,1.2435683
alexnet_w1_mlp_simclrhn_probe3,1,113,NaN,chair,chair,cr,0113_cl_dnn_cr_chair_40_n02791124_4528.png,n02791124_4528.png,1.0,3.860211,2.0887213,1.2526324
alexnet_w1_mlp_simclrhn_probe3,1,114,NaN,truck,truck,bw,0114_cl_dnn_bw_truck_40_n03417042_5659.png,n03417042_5659.png,1.0,2.8135962,1.9233199,0.6295204
alexnet_w1_mlp_simclrhn_probe3,1,115,NaN,elephant,elephant,cr,0115_cl_dnn_cr_elephant_40_n02504013_10330.png,n02504013_10330.png,1.0,21.215412,4.9363384,11.511044
alexnet_w1_mlp_simclrhn_probe3,1,116,NaN,cat,cat,cr,0116_cl_dnn_cr_cat_40_n02123394_1594.png,n02123394_1594.png,1.0,3.413976,0.68057764,1.9328046
alexnet_w1_mlp_simclrhn_probe3,1,117,NaN,bicycle,bear,bw,0117_cl_dnn_bw_bear_40_n02132136_10654.png,n02132136_10654.png,0.0,0.28282246,1.3079078,-0.7248448
alexnet_w1_mlp_simclrhn_probe3,1,118,NaN,bottle,bottle,bw,0118_cl_dnn_bw_bottle_40_n02823428_5265.png,n02823428_5265.png,1.0,5.8107486,1.7216206,2.8914502
alexnet_w1_mlp_simclrhn_probe3,1,119,NaN,airplane,truck,cr,0119_cl_dnn_cr_truck_40_n04467665_3125.png,n04467665_3125.png,0.0,0.68338907,1.6310015,-0.6700632
alexnet_w1_mlp_simclrhn_probe3,1,120,NaN,airplane,airplane,cr,0120_cl_dnn_cr_airplane_40_n02690373_60.png,n02690373_60.png,1.0,13.982203,3.6630845,7.2967186
alexnet_w1_mlp_simclrhn_probe3,1,121,NaN,keyboard,keyboard,cr,0121_cl_dnn_cr_keyboard_40_n03085013_21645.png,n03085013_21645.png,1.0,2.9728022,2.0536537,0.6499361
alexnet_w1_mlp_simclrhn_probe3,1,122,NaN,car,car,bw,0122_cl_dnn_bw_car_40_n03100240_9471.png,n03100240_9471.png,1.0,2.653024,2.4130907,0.16965844
alexnet_w1_mlp_simclrhn_probe3,1,123,NaN,boat,boat,cr,0123_cl_dnn_cr_boat_40_n03344393_9818.png,n03344393_9818.png,1.0,8.873358,4.9430776,2.7791278
alexnet_w1_mlp_simclrhn_probe3,1,124,NaN,elephant,elephant,bw,0124_cl_dnn_bw_elephant_40_n02504458_5444.png,n02504458_5444.png,1.0,9.460226,3.0727825,4.516605
alexnet_w1_mlp_simclrhn_probe3,1,125,NaN,bottle,bottle,bw,0125_cl_dnn_bw_bottle_40_n04557648_26823.png,n04557648_26823.png,1.0,6.6207514,0.23258324,4.517117
alexnet_w1_mlp_simclrhn_probe3,1,126,NaN,elephant,bottle,cr,0126_cl_dnn_cr_bottle_40_n02823428_765.png,n02823428_765.png,0.0,0.12612261,1.0633237,-0.6627013
alexnet_w1_mlp_simclrhn_probe3,1,127,NaN,cat,cat,bw,0127_cl_dnn_bw_cat_40_n02123045_1787.png,n02123045_1787.png,1.0,8.892862,0.8041199,5.7196045
alexnet_w1_mlp_simclrhn_probe3,1,128,NaN,car,car,bw,0128_cl_dnn_bw_car_40_n02814533_35863.png,n02814533_35863.png,1.0,6.480314,3.794043,1.8994802
alexnet_w1_mlp_simclrhn_probe3,1,129,NaN,boat,boat,bw,0129_cl_dnn_bw_boat_40_n02951358_7944.png,n02951358_7944.png,1.0,1.1854147,0.81295866,0.2633662
alexnet_w1_mlp_simclrhn_probe3,1,130,NaN,cat,dog,bw,0130_cl_dnn_bw_dog_40_n02091467_3727.png,n02091467_3727.png,0.0,0.93871146,1.089499,-0.10662289
alexnet_w1_mlp_simclrhn_probe3,1,131,NaN,bicycle,bicycle,cr,0131_cl_dnn_cr_bicycle_40_n02835271_5886.png,n02835271_5886.png,1.0,1.6895989,0.31434977,0.972448
alexnet_w1_mlp_simclrhn_probe3,1,132,NaN,truck,truck,bw,0132_cl_dnn_bw_truck_40_n04467665_18234.png,n04467665_18234.png,1.0,8.537755,1.4308628,5.0253315
alexnet_w1_mlp_simclrhn_probe3,1,133,NaN,elephant,elephant,cr,0133_cl_dnn_cr_elephant_40_n02504013_4892.png,n02504013_4892.png,1.0,17.609266,5.979594,8.22342
alexnet_w1_mlp_simclrhn_probe3,1,134,NaN,keyboard,keyboard,cr,0134_cl_dnn_cr_keyboard_40_n03085013_19618.png,n03085013_19618.png,1.0,9.934633,1.7476767,5.7890525
alexnet_w1_mlp_simclrhn_probe3,1,135,NaN,clock,clock,cr,0135_cl_dnn_cr_clock_40_n03196217_3430.png,n03196217_3430.png,1.0,2.4460618,1.7525337,0.4903985
alexnet_w1_mlp_simclrhn_probe3,1,136,NaN,bicycle,bicycle,bw,0136_cl_dnn_bw_bicycle_40_n03792782_24591.png,n03792782_24591.png,1.0,15.842846,4.0296664,8.353179
alexnet_w1_mlp_simclrhn_probe3,1,137,NaN,bird,bird,cr,0137_cl_dnn_cr_bird_40_n02007558_2822.png,n02007558_2822.png,1.0,1.6710224,1.5547979,0.08218315
alexnet_w1_mlp_simclrhn_probe3,1,138,NaN,truck,truck,bw,0138_cl_dnn_bw_truck_40_n04467665_71126.png,n04467665_71126.png,1.0,12.112591,3.4463503,6.127958
alexnet_w1_mlp_simclrhn_probe3,1,139,NaN,bicycle,bicycle,cr,0139_cl_dnn_cr_bicycle_40_n02835271_22263.png,n02835271_22263.png,1.0,14.370864,4.0894914,7.270028
alexnet_w1_mlp_simclrhn_probe3,1,140,NaN,truck,car,bw,0140_cl_dnn_bw_car_40_n04285008_5548.png,n04285008_5548.png,0.0,5.0360055,6.1321917,-0.7751207
alexnet_w1_mlp_simclrhn_probe3,1,141,NaN,oven,oven,bw,0141_cl_dnn_bw_oven_40_n04111531_13006.png,n04111531_13006.png,1.0,3.2642808,2.973565,0.20556705
alexnet_w1_mlp_simclrhn_probe3,1,142,NaN,car,car,bw,0142_cl_dnn_bw_car_40_n04285008_11410.png,n04285008_11410.png,1.0,7.3128524,0.9688464,4.48589
alexnet_w1_mlp_simclrhn_probe3,1,143,NaN,oven,chair,bw,0143_cl_dnn_bw_chair_40_n04429376_2304.png,n04429376_2304.png,0.0,1.3969927,5.057059,-2.5880575
alexnet_w1_mlp_simclrhn_probe3,1,144,NaN,boat,boat,cr,0144_cl_dnn_cr_boat_40_n03662601_27165.png,n03662601_27165.png,1.0,11.093406,4.0524483,4.9787087
alexnet_w1_mlp_simclrhn_probe3,1,145,NaN,truck,truck,bw,0145_cl_dnn_bw_truck_40_n04467665_70308.png,n04467665_70308.png,1.0,3.606482,1.6833601,1.3598526
alexnet_w1_mlp_simclrhn_probe3,1,146,NaN,bicycle,bicycle,cr,0146_cl_dnn_cr_bicycle_40_n03792782_51414.png,n03792782_51414.png,1.0,5.536194,1.3190708,2.9819562
alexnet_w1_mlp_simclrhn_probe3,1,147,NaN,knife,knife,cr,0147_cl_dnn_cr_knife_40_n03041632_44738.png,n03041632_44738.png,1.0,2.4499807,0.27233514,1.5398281
alexnet_w1_mlp_simclrhn_probe3,1,148,NaN,elephant,elephant,bw,0148_cl_dnn_bw_elephant_40_n02504458_11363.png,n02504458_11363.png,1.0,10.43041,2.159189,5.8486366
alexnet_w1_mlp_simclrhn_probe3,1,149,NaN,truck,truck,cr,0149_cl_dnn_cr_truck_40_n04467665_4899.png,n04467665_4899.png,1.0,7.821105,2.5837128,3.7033958
alexnet_w1_mlp_simclrhn_probe3,1,150,NaN,bear,bear,cr,0150_cl_dnn_cr_bear_40_n02134418_685.png,n02134418_685.png,1.0,2.023024,1.6183556,0.2861438
alexnet_w1_mlp_simclrhn_probe3,1,151,NaN,keyboard,keyboard,bw,0151_cl_dnn_bw_keyboard_40_n04505470_4363.png,n04505470_4363.png,1.0,6.7730346,1.3840803,3.8105662
alexnet_w1_mlp_simclrhn_probe3,1,152,NaN,oven,oven,bw,0152_cl_dnn_bw_oven_40_n04111531_12468.png,n04111531_12468.png,1.0,6.981078,1.7013929,3.7333012
alexnet_w1_mlp_simclrhn_probe3,1,153,NaN,oven,bottle,cr,0153_cl_dnn_cr_bottle_40_n04591713_5559.png,n04591713_5559.png,0.0,0.6630874,1.4954396,-0.5885619
alexnet_w1_mlp_simclrhn_probe3,1,154,NaN,car,elephant,cr,0154_cl_dnn_cr_elephant_40_n02504013_3197.png,n02504013_3197.png,0.0,1.8460071,1.8973383,-0.036296614
alexnet_w1_mlp_simclrhn_probe3,1,155,NaN,bird,bird,bw,0155_cl_dnn_bw_bird_40_n01817953_5039.png,n01817953_5039.png,1.0,2.3290458,1.8368794,0.3480142
alexnet_w1_mlp_simclrhn_probe3,1,156,NaN,bicycle,bicycle,cr,0156_cl_dnn_cr_bicycle_40_n03792782_3296.png,n03792782_3296.png,1.0,12.522663,1.6163714,7.711913
alexnet_w1_mlp_simclrhn_probe3,1,157,NaN,oven,bird,cr,0157_cl_dnn_cr_bird_40_n01855672_5670.png,n01855672_5670.png,0.0,0.39730382,1.0008812,-0.42679366
alexnet_w1_mlp_simclrhn_probe3,1,158,NaN,oven,oven,cr,0158_cl_dnn_cr_oven_40_n04111531_2260.png,n04111531_2260.png,1.0,10.202511,2.532033,5.423847
alexnet_w1_mlp_simclrhn_probe3,1,159,NaN,cat,cat,cr,0159_cl_dnn_cr_cat_40_n02123045_5932.png,n02123045_5932.png,1.0,2.4920237,1.495559,0.70460695
alexnet_w1_mlp_simclrhn_probe3,1,160,NaN,dog,dog,cr,0160_cl_dnn_cr_dog_40_n02100583_1267.png,n02100583_1267.png,1.0,1.9744397,1.3661027,0.43015927
alexnet_w1_mlp_simclrhn_probe3,1,161,NaN,dog,dog,bw,0161_cl_dnn_bw_dog_40_n02099601_8005.png,n02099601_8005.png,1.0,2.7882411,2.2181582,0.4031095
alexnet_w1_mlp_simclrhn_probe3,1,162,NaN,bicycle,boat,cr,0162_cl_dnn_cr_boat_40_n02951358_12080.png,n02951358_12080.png,0.0,0.087553866,1.2146406,-0.7969707
alexnet_w1_mlp_simclrhn_probe3,1,163,NaN,oven,oven,cr,0163_cl_dnn_cr_oven_40_n04111531_20028.png,n04111531_20028.png,1.0,7.3118634,0.96678925,4.486645
alexnet_w1_mlp_simclrhn_probe3,1,164,NaN,cat,cat,bw,0164_cl_dnn_bw_cat_40_n02123159_2107.png,n02123159_2107.png,1.0,10.453695,0.85797095,6.7852015
alexnet_w1_mlp_simclrhn_probe3,1,165,NaN,bear,bear,cr,0165_cl_dnn_cr_bear_40_n02134418_1351.png,n02134418_1351.png,1.0,6.2550316,2.7177343,2.501247
alexnet_w1_mlp_simclrhn_probe3,1,166,NaN,oven,oven,cr,0166_cl_dnn_cr_oven_40_n04111531_6609.png,n04111531_6609.png,1.0,3.540369,1.2854052,1.5945003
alexnet_w1_mlp_simclrhn_probe3,1,167,NaN,airplane,knife,bw,0167_cl_dnn_bw_knife_40_n03041632_21477.png,n03041632_21477.png,0.0,1.3156984,2.4094343,-0.7733881
alexnet_w1_mlp_simclrhn_probe3,1,168,NaN,cat,cat,cr,0168_cl_dnn_cr_cat_40_n02123394_238.png,n02123394_238.png,1.0,2.7769623,0.41997382,1.6666425
alexnet_w1_mlp_simclrhn_probe3,1,169,NaN,elephant,elephant,cr,0169_cl_dnn_cr_elephant_40_n02504013_3141.png,n02504013_3141.png,1.0,1.352525,1.3440131,0.006018823
alexnet_w1_mlp_simclrhn_probe3,1,170,NaN,elephant,elephant,cr,0170_cl_dnn_cr_elephant_40_n02504013_5035.png,n02504013_5035.png,1.0,8.932474,1.3755232,5.343571
alexnet_w1_mlp_simclrhn_probe3,1,171,NaN,dog,dog,cr,0171_cl_dnn_cr_dog_40_n02089867_2298.png,n02089867_2298.png,1.0,3.7772853,0.9345438,2.0101218
alexnet_w1_mlp_simclrhn_probe3,1,172,NaN,chair,bear,bw,0172_cl_dnn_bw_bear_40_n02134418_2503.png,n02134418_2503.png,0.0,0.09545719,1.1190524,-0.7237911
alexnet_w1_mlp_simclrhn_probe3,1,173,NaN,keyboard,keyboard,cr,0173_cl_dnn_cr_keyboard_40_n04505470_4878.png,n04505470_4878.png,1.0,4.086521,0.30612198,2.6731458
alexnet_w1_mlp_simclrhn_probe3,1,174,NaN,airplane,knife,bw,0174_cl_dnn_bw_knife_40_n03041632_22734.png,n03041632_22734.png,0.0,0.48353556,0.98214626,-0.352571
alexnet_w1_mlp_simclrhn_probe3,1,175,NaN,bear,bear,cr,0175_cl_dnn_cr_bear_40_n02132136_8896.png,n02132136_8896.png,1.0,4.4127536,2.2958508,1.4968764
alexnet_w1_mlp_simclrhn_probe3,1,176,NaN,boat,boat,bw,0176_cl_dnn_bw_boat_40_n02951358_5952.png,n02951358_5952.png,1.0,4.247864,4.2377586,0.007145408
alexnet_w1_mlp_simclrhn_probe3,1,177,NaN,keyboard,chair,bw,0177_cl_dnn_bw_chair_40_n04099969_1775.png,n04099969_1775.png,0.0,0.7144203,1.6496598,-0.66131413
alexnet_w1_mlp_simclrhn_probe3,1,178,NaN,airplane,airplane,bw,0178_cl_dnn_bw_airplane_40_n02690373_6524.png,n02690373_6524.png,1.0,3.8890822,2.9080477,0.6936962
alexnet_w1_mlp_simclrhn_probe3,1,179,NaN,bird,bear,cr,0179_cl_dnn_cr_bear_40_n02133161_1916.png,n02133161_1916.png,0.0,0.74778026,1.8569195,-0.7842799
alexnet_w1_mlp_simclrhn_probe3,1,180,NaN,keyboard,knife,bw,0180_cl_dnn_bw_knife_40_n03041632_96714.png,n03041632_96714.png,0.0,1.4204249,3.8976228,-1.7516434
alexnet_w1_mlp_simclrhn_probe3,1,181,NaN,truck,truck,bw,0181_cl_dnn_bw_truck_40_n03417042_13635.png,n03417042_13635.png,1.0,7.35973,2.6209917,3.3507938
alexnet_w1_mlp_simclrhn_probe3,1,182,NaN,boat,boat,bw,0182_cl_dnn_bw_boat_40_n04612504_1748.png,n04612504_1748.png,1.0,8.036639,4.323683,2.6254568
alexnet_w1_mlp_simclrhn_probe3,1,183,NaN,bird,bird,cr,0183_cl_dnn_cr_bird_40_n01592084_3341.png,n01592084_3341.png,1.0,3.853307,1.1225301,1.9309508
alexnet_w1_mlp_simclrhn_probe3,1,184,NaN,car,car,bw,0184_cl_dnn_bw_car_40_n02814533_12388.png,n02814533_12388.png,1.0,8.418469,1.7261217,4.7322044
alexnet_w1_mlp_simclrhn_probe3,1,185,NaN,bicycle,bicycle,cr,0185_cl_dnn_cr_bicycle_40_n03792782_5864.png,n03792782_5864.png,1.0,11.408921,1.4842818,7.0177803
alexnet_w1_mlp_simclrhn_probe3,1,186,NaN,elephant,bird,bw,0186_cl_dnn_bw_bird_40_n01514859_17156.png,n01514859_17156.png,0.0,0.16513291,1.9205298,-1.2412531
alexnet_w1_mlp_simclrhn_probe3,1,187,NaN,car,car,cr,0187_cl_dnn_cr_car_40_n03100240_7737.png,n03100240_7737.png,1.0,5.937183,3.1086612,2.000067
alexnet_w1_mlp_simclrhn_probe3,1,188,NaN,bottle,bottle,bw,0188_cl_dnn_bw_bottle_40_n04579145_1829.png,n04579145_1829.png,1.0,0.596694,0.114542335,0.34093273
alexnet_w1_mlp_simclrhn_probe3,1,189,NaN,bear,elephant,bw,0189_cl_dnn_bw_elephant_40_n02504013_22388.png,n02504013_22388.png,0.0,2.474936,4.4646807,-1.4069619
alexnet_w1_mlp_simclrhn_probe3,1,190,NaN,airplane,airplane,bw,0190_cl_dnn_bw_airplane_40_n02690373_7107.png,n02690373_7107.png,1.0,6.5276985,1.2060407,3.7629802
alexnet_w1_mlp_simclrhn_probe3,1,191,NaN,car,car,bw,0191_cl_dnn_bw_car_40_n02814533_45594.png,n02814533_45594.png,1.0,11.068879,6.7327642,3.0660963
alexnet_w1_mlp_simclrhn_probe3,1,192,NaN,boat,boat,cr,0192_cl_dnn_cr_boat_40_n04612504_18536.png,n04612504_18536.png,1.0,5.4780335,2.4108655,2.1688154
alexnet_w1_mlp_simclrhn_probe3,1,193,NaN,elephant,dog,cr,0193_cl_dnn_cr_dog_40_n02088466_6371.png,n02088466_6371.png,0.0,0.7458196,2.8204768,-1.4670042
alexnet_w1_mlp_simclrhn_probe3,1,194,NaN,bear,bear,bw,0194_cl_dnn_bw_bear_40_n02133161_1003.png,n02133161_1003.png,1.0,1.9744565,1.7688763,0.14536718
alexnet_w1_mlp_simclrhn_probe3,1,195,NaN,knife,knife,bw,0195_cl_dnn_bw_knife_40_n03041632_29037.png,n03041632_29037.png,1.0,1.5650434,1.3567495,0.14728604
alexnet_w1_mlp_simclrhn_probe3,1,196,NaN,airplane,airplane,cr,0196_cl_dnn_cr_airplane_40_n02690373_4015.png,n02690373_4015.png,1.0,1.2464908,1.0839118,0.11496076
alexnet_w1_mlp_simclrhn_probe3,1,197,NaN,knife,knife,bw,0197_cl_dnn_bw_knife_40_n03041632_28009.png,n03041632_28009.png,1.0,1.6965307,0.713473,0.6951268
alexnet_w1_mlp_simclrhn_probe3,1,198,NaN,bird,bird,bw,0198_cl_dnn_bw_bird_40_n01560419_5714.png,n01560419_5714.png,1.0,3.5239613,0.8305211,1.9045498
alexnet_w1_mlp_simclrhn_probe3,1,199,NaN,bird,cat,cr,0199_cl_dnn_cr_cat_40_n02125311_6429.png,n02125311_6429.png,0.0,0.4411664,0.48768604,-0.03289435
alexnet_w1_mlp_simclrhn_probe3,1,200,NaN,chair,chair,bw,0200_cl_dnn_bw_chair_40_n04099969_9847.png,n04099969_9847.png,1.0,2.5040655,0.47204164,1.4368579
alexnet_w1_mlp_simclrhn_probe3,1,201,NaN,cat,cat,bw,0201_cl_dnn_bw_cat_40_n02123597_7142.png,n02123597_7142.png,1.0,2.9742231,1.4692566,1.064172
alexnet_w1_mlp_simclrhn_probe3,1,202,NaN,bicycle,bicycle,cr,0202_cl_dnn_cr_bicycle_40_n02835271_8982.png,n02835271_8982.png,1.0,3.4887495,2.383809,0.78131086
alexnet_w1_mlp_simclrhn_probe3,1,203,NaN,airplane,bird,bw,0203_cl_dnn_bw_bird_40_n01592084_19555.png,n01592084_19555.png,0.0,4.2192755,4.2492747,-0.021212678
alexnet_w1_mlp_simclrhn_probe3,1,204,NaN,oven,knife,cr,0204_cl_dnn_cr_knife_40_n03041632_8618.png,n03041632_8618.png,0.0,2.2813492,3.4620705,-0.834896
alexnet_w1_mlp_simclrhn_probe3,1,205,NaN,car,boat,bw,0205_cl_dnn_bw_boat_40_n03344393_547.png,n03344393_547.png,0.0,3.9148526,4.275991,-0.25536337
alexnet_w1_mlp_simclrhn_probe3,1,206,NaN,bird,bird,bw,0206_cl_dnn_bw_bird_40_n01843383_5962.png,n01843383_5962.png,1.0,1.5251267,0.1218718,0.99225104
alexnet_w1_mlp_simclrhn_probe3,1,207,NaN,keyboard,keyboard,cr,0207_cl_dnn_cr_keyboard_40_n04505470_213.png,n04505470_213.png,1.0,9.074787,1.6150686,5.274818
alexnet_w1_mlp_simclrhn_probe3,1,208,NaN,elephant,elephant,cr,0208_cl_dnn_cr_elephant_40_n02504458_2607.png,n02504458_2607.png,1.0,9.288425,1.6253313,5.418626
alexnet_w1_mlp_simclrhn_probe3,1,209,NaN,bear,bear,bw,0209_cl_dnn_bw_bear_40_n02134418_4157.png,n02134418_4157.png,1.0,4.084306,2.4666958,1.143823
alexnet_w1_mlp_simclrhn_probe3,1,210,NaN,bottle,bottle,cr,0210_cl_dnn_cr_bottle_40_n03983396_11519.png,n03983396_11519.png,1.0,5.991078,3.3643007,1.857412
alexnet_w1_mlp_simclrhn_probe3,1,211,NaN,cat,cat,cr,0211_cl_dnn_cr_cat_40_n02124075_1999.png,n02124075_1999.png,1.0,8.7269335,0.91394323,5.5246186
alexnet_w1_mlp_simclrhn_probe3,1,212,NaN,cat,cat,bw,0212_cl_dnn_bw_cat_40_n02124075_11252.png,n02124075_11252.png,1.0,1.1928617,0.06137144,0.8000844
alexnet_w1_mlp_simclrhn_probe3,1,213,NaN,airplane,airplane,bw,0213_cl_dnn_bw_airplane_40_n02690373_4195.png,n02690373_4195.png,1.0,5.8076906,5.0851398,0.51092064
alexnet_w1_mlp_simclrhn_probe3,1,214,NaN,airplane,airplane,cr,0214_cl_dnn_cr_airplane_40_n02690373_2629.png,n02690373_2629.png,1.0,4.14537,1.817803,1.6458385
alexnet_w1_mlp_simclrhn_probe3,1,215,NaN,keyboard,keyboard,bw,0215_cl_dnn_bw_keyboard_40_n04505470_5060.png,n04505470_5060.png,1.0,4.6110477,1.4908893,2.2062852
alexnet_w1_mlp_simclrhn_probe3,1,216,NaN,bear,bear,cr,0216_cl_dnn_cr_bear_40_n02132136_10060.png,n02132136_10060.png,1.0,4.1140842,3.5675006,0.38649303
alexnet_w1_mlp_simclrhn_probe3,1,217,NaN,airplane,airplane,bw,0217_cl_dnn_bw_airplane_40_n02690373_4150.png,n02690373_4150.png,1.0,7.5927563,2.8725176,3.3377128
alexnet_w1_mlp_simclrhn_probe3,1,218,NaN,dog,dog,cr,0218_cl_dnn_cr_dog_40_n02102040_7465.png,n02102040_7465.png,1.0,3.0976605,1.1732074,1.3607938
alexnet_w1_mlp_simclrhn_probe3,1,219,NaN,bird,bird,bw,0219_cl_dnn_bw_bird_40_n02009229_12179.png,n02009229_12179.png,1.0,2.187822,0.6765833,1.0686072
alexnet_w1_mlp_simclrhn_probe3,1,220,NaN,keyboard,knife,bw,0220_cl_dnn_bw_knife_40_n03041632_20413.png,n03041632_20413.png,0.0,2.103508,2.3629982,-0.18348733
alexnet_w1_mlp_simclrhn_probe3,1,221,NaN,truck,truck,bw,0221_cl_dnn_bw_truck_40_n03796401_13490.png,n03796401_13490.png,1.0,6.640591,1.9811783,3.2947025
alexnet_w1_mlp_simclrhn_probe3,1,222,NaN,oven,oven,cr,0222_cl_dnn_cr_oven_40_n04111531_584.png,n04111531_584.png,1.0,2.9171848,1.0306528,1.3339796
alexnet_w1_mlp_simclrhn_probe3,1,223,NaN,airplane,airplane,bw,0223_cl_dnn_bw_airplane_40_n02690373_3899.png,n02690373_3899.png,1.0,5.478729,3.8001504,1.1869342
alexnet_w1_mlp_simclrhn_probe3,1,224,NaN,bird,bird,cr,0224_cl_dnn_cr_bird_40_n02027492_8707.png,n02027492_8707.png,1.0,2.8522463,0.26885942,1.8267304
alexnet_w1_mlp_simclrhn_probe3,1,225,NaN,airplane,airplane,cr,0225_cl_dnn_cr_airplane_40_n02690373_2648.png,n02690373_2648.png,1.0,10.529599,4.6546183,4.1542387
alexnet_w1_mlp_simclrhn_probe3,1,226,NaN,cat,cat,bw,0226_cl_dnn_bw_cat_40_n02123394_6598.png,n02123394_6598.png,1.0,4.747992,1.3712806,2.3876956
alexnet_w1_mlp_simclrhn_probe3,1,227,NaN,bicycle,bicycle,bw,0227_cl_dnn_bw_bicycle_40_n02835271_17168.png,n02835271_17168.png,1.0,4.2952585,1.9656473,1.647284
alexnet_w1_mlp_simclrhn_probe3,1,228,NaN,truck,truck,bw,0228_cl_dnn_bw_truck_40_n03417042_29849.png,n03417042_29849.png,1.0,6.5435715,1.201347,3.7775233
alexnet_w1_mlp_simclrhn_probe3,1,229,NaN,knife,knife,cr,0229_cl_dnn_cr_knife_40_n03041632_29125.png,n03041632_29125.png,1.0,0.8723501,0.86523867,0.0050285407
alexnet_w1_mlp_simclrhn_probe3,1,230,NaN,oven,clock,bw,0230_cl_dnn_bw_clock_40_n04548280_5456.png,n04548280_5456.png,0.0,1.6000857,2.404932,-0.5691123
alexnet_w1_mlp_simclrhn_probe3,1,231,NaN,truck,truck,bw,0231_cl_dnn_bw_truck_40_n03796401_8099.png,n03796401_8099.png,1.0,6.4487104,5.1873546,0.8919133
alexnet_w1_mlp_simclrhn_probe3,1,232,NaN,bear,bear,cr,0232_cl_dnn_cr_bear_40_n02132136_860.png,n02132136_860.png,1.0,3.3245168,1.8044099,1.074878
alexnet_w1_mlp_simclrhn_probe3,1,233,NaN,truck,truck,bw,0233_cl_dnn_bw_truck_40_n03796401_4423.png,n03796401_4423.png,1.0,7.2668233,2.3016753,3.5108898
alexnet_w1_mlp_simclrhn_probe3,1,234,NaN,elephant,elephant,bw,0234_cl_dnn_bw_elephant_40_n02504458_7871.png,n02504458_7871.png,1.0,16.49702,4.375723,8.571052
alexnet_w1_mlp_simclrhn_probe3,1,235,NaN,oven,oven,cr,0235_cl_dnn_cr_oven_40_n04111531_14753.png,n04111531_14753.png,1.0,5.016368,2.8980713,1.497862
alexnet_w1_mlp_simclrhn_probe3,1,236,NaN,clock,clock,bw,0236_cl_dnn_bw_clock_40_n04548280_17198.png,n04548280_17198.png,1.0,5.297177,1.3682334,2.7781825
alexnet_w1_mlp_simclrhn_probe3,1,237,NaN,oven,oven,cr,0237_cl_dnn_cr_oven_40_n04111531_15947.png,n04111531_15947.png,1.0,6.683306,1.2546476,3.8386414
alexnet_w1_mlp_simclrhn_probe3,1,238,NaN,oven,elephant,bw,0238_cl_dnn_bw_elephant_40_n02504013_1103.png,n02504013_1103.png,0.0,-0.3676124,1.1411943,-1.0668875
alexnet_w1_mlp_simclrhn_probe3,1,239,NaN,bicycle,bicycle,cr,0239_cl_dnn_cr_bicycle_40_n03792782_33853.png,n03792782_33853.png,1.0,1.2843877,0.4844688,0.56562805
alexnet_w1_mlp_simclrhn_probe3,1,240,NaN,chair,bottle,bw,0240_cl_dnn_bw_bottle_40_n04557648_5665.png,n04557648_5665.png,0.0,1.1322057,1.9048369,-0.5463328
alexnet_w1_mlp_simclrhn_probe3,1,241,NaN,bear,bear,bw,0241_cl_dnn_bw_bear_40_n02134418_5824.png,n02134418_5824.png,1.0,5.9041867,0.24437095,4.0020943
alexnet_w1_mlp_simclrhn_probe3,1,242,NaN,truck,truck,cr,0242_cl_dnn_cr_truck_40_n04467665_54349.png,n04467665_54349.png,1.0,8.342584,1.9786215,4.500001
alexnet_w1_mlp_simclrhn_probe3,1,243,NaN,truck,truck,cr,0243_cl_dnn_cr_truck_40_n03796401_8100.png,n03796401_8100.png,1.0,14.3024845,10.092498,2.97691
alexnet_w1_mlp_simclrhn_probe3,1,244,NaN,elephant,elephant,cr,0244_cl_dnn_cr_elephant_40_n02504013_4288.png,n02504013_4288.png,1.0,14.173878,4.491605,6.8464007
alexnet_w1_mlp_simclrhn_probe3,1,245,NaN,boat,boat,cr,0245_cl_dnn_cr_boat_40_n03662601_4437.png,n03662601_4437.png,1.0,5.5956073,0.96702206,3.2729042
alexnet_w1_mlp_simclrhn_probe3,1,246,NaN,bicycle,bicycle,cr,0246_cl_dnn_cr_bicycle_40_n02835271_7351.png,n02835271_7351.png,1.0,13.183132,0.6488612,8.863069
alexnet_w1_mlp_simclrhn_probe3,1,247,NaN,elephant,elephant,bw,0247_cl_dnn_bw_elephant_40_n02504458_2556.png,n02504458_2556.png,1.0,3.1983676,1.491273,1.2070981
alexnet_w1_mlp_simclrhn_probe3,1,248,NaN,airplane,airplane,cr,0248_cl_dnn_cr_airplane_40_n02690373_303.png,n02690373_303.png,1.0,9.497753,0.74407184,6.1897874
alexnet_w1_mlp_simclrhn_probe3,1,249,NaN,elephant,elephant,bw,0249_cl_dnn_bw_elephant_40_n02504013_5503.png,n02504013_5503.png,1.0,10.120071,2.8229995,5.159809
alexnet_w1_mlp_simclrhn_probe3,1,250,NaN,airplane,truck,cr,0250_cl_dnn_cr_truck_40_n04467665_68332.png,n04467665_68332.png,0.0,2.903914,6.7272553,-2.7035108
alexnet_w1_mlp_simclrhn_probe3,1,251,NaN,clock,clock,bw,0251_cl_dnn_bw_clock_40_n02708093_3079.png,n02708093_3079.png,1.0,5.691073,1.1520121,3.2096007
alexnet_w1_mlp_simclrhn_probe3,1,252,NaN,cat,cat,cr,0252_cl_dnn_cr_cat_40_n02123394_2395.png,n02123394_2395.png,1.0,3.141017,1.5594792,1.118316
alexnet_w1_mlp_simclrhn_probe3,1,253,NaN,chair,chair,cr,0253_cl_dnn_cr_chair_40_n04429376_20906.png,n04429376_20906.png,1.0,3.633974,2.5202856,0.7874967
alexnet_w1_mlp_simclrhn_probe3,1,254,NaN,boat,boat,cr,0254_cl_dnn_cr_boat_40_n03344393_8160.png,n03344393_8160.png,1.0,3.9111915,2.34298,1.108893
alexnet_w1_mlp_simclrhn_probe3,1,255,NaN,keyboard,keyboard,cr,0255_cl_dnn_cr_keyboard_40_n03085013_21325.png,n03085013_21325.png,1.0,6.667046,1.6290784,3.5623813
alexnet_w1_mlp_simclrhn_probe3,1,256,NaN,knife,knife,cr,0256_cl_dnn_cr_knife_40_n03041632_99875.png,n03041632_99875.png,1.0,3.1280367,1.1800815,1.3774124
alexnet_w1_mlp_simclrhn_probe3,1,257,NaN,knife,clock,bw,0257_cl_dnn_bw_clock_40_n04548280_7384.png,n04548280_7384.png,0.0,0.5474135,0.7220719,-0.12350211
alexnet_w1_mlp_simclrhn_probe3,1,258,NaN,keyboard,keyboard,bw,0258_cl_dnn_bw_keyboard_40_n03085013_23534.png,n03085013_23534.png,1.0,5.171081,1.3682345,2.6890185
alexnet_w1_mlp_simclrhn_probe3,1,259,NaN,truck,truck,bw,0259_cl_dnn_bw_truck_40_n03417042_2383.png,n03417042_2383.png,1.0,5.3164434,2.7402775,1.8216244
alexnet_w1_mlp_simclrhn_probe3,1,260,NaN,clock,clock,bw,0260_cl_dnn_bw_clock_40_n03196217_711.png,n03196217_711.png,1.0,0.732651,0.67416084,0.041358788
alexnet_w1_mlp_simclrhn_probe3,1,261,NaN,keyboard,keyboard,bw,0261_cl_dnn_bw_keyboard_40_n03085013_7992.png,n03085013_7992.png,1.0,3.4757183,0.7859492,1.9019539
alexnet_w1_mlp_simclrhn_probe3,1,262,NaN,cat,cat,bw,0262_cl_dnn_bw_cat_40_n02125311_75445.png,n02125311_75445.png,1.0,4.857837,1.887811,2.1001258
alexnet_w1_mlp_simclrhn_probe3,1,263,NaN,knife,knife,cr,0263_cl_dnn_cr_knife_40_n03041632_47410.png,n03041632_47410.png,1.0,1.049505,0.38410515,0.47050875
alexnet_w1_mlp_simclrhn_probe3,1,264,NaN,oven,oven,bw,0264_cl_dnn_bw_oven_40_n04111531_741.png,n04111531_741.png,1.0,6.350255,0.64391196,4.034994
alexnet_w1_mlp_simclrhn_probe3,1,265,NaN,oven,oven,bw,0265_cl_dnn_bw_oven_40_n04111531_3181.png,n04111531_3181.png,1.0,1.4272733,1.2307755,0.13894492
alexnet_w1_mlp_simclrhn_probe3,1,266,NaN,truck,truck,bw,0266_cl_dnn_bw_truck_40_n03417042_17099.png,n03417042_17099.png,1.0,11.078048,2.1336048,6.324676
alexnet_w1_mlp_simclrhn_probe3,1,267,NaN,boat,boat,cr,0267_cl_dnn_cr_boat_40_n03662601_15143.png,n03662601_15143.png,1.0,10.786364,3.2842925,5.3047657
alexnet_w1_mlp_simclrhn_probe3,1,268,NaN,keyboard,keyboard,bw,0268_cl_dnn_bw_keyboard_40_n03085013_19197.png,n03085013_19197.png,1.0,13.255797,4.7372556,6.0235186
alexnet_w1_mlp_simclrhn_probe3,1,269,NaN,airplane,airplane,cr,0269_cl_dnn_cr_airplane_40_n02690373_4202.png,n02690373_4202.png,1.0,14.118073,5.12054,6.3622174
alexnet_w1_mlp_simclrhn_probe3,1,270,NaN,bear,bear,bw,0270_cl_dnn_bw_bear_40_n02132136_10134.png,n02132136_10134.png,1.0,4.0781918,0.8759589,2.2643206
alexnet_w1_mlp_simclrhn_probe3,1,271,NaN,boat,boat,bw,0271_cl_dnn_bw_boat_40_n03344393_5296.png,n03344393_5296.png,1.0,5.2746353,2.9007168,1.6786139
alexnet_w1_mlp_simclrhn_probe3,1,272,NaN,keyboard,keyboard,bw,0272_cl_dnn_bw_keyboard_40_n04505470_1600.png,n04505470_1600.png,1.0,6.276883,1.5224744,3.3618748
alexnet_w1_mlp_simclrhn_probe3,1,273,NaN,truck,truck,bw,0273_cl_dnn_bw_truck_40_n03417042_10043.png,n03417042_10043.png,1.0,8.594891,0.5072069,5.718856
alexnet_w1_mlp_simclrhn_probe3,1,274,NaN,bird,bird,bw,0274_cl_dnn_bw_bird_40_n02007558_5525.png,n02007558_5525.png,1.0,4.6481705,1.2909939,2.3738823
alexnet_w1_mlp_simclrhn_probe3,1,275,NaN,airplane,airplane,cr,0275_cl_dnn_cr_airplane_40_n02690373_6621.png,n02690373_6621.png,1.0,1.7808785,1.0834719,0.49314097
alexnet_w1_mlp_simclrhn_probe3,1,276,NaN,keyboard,keyboard,bw,0276_cl_dnn_bw_keyboard_40_n04505470_6623.png,n04505470_6623.png,1.0,6.8559985,1.8846377,3.5152829
alexnet_w1_mlp_simclrhn_probe3,1,277,NaN,oven,dog,cr,0277_cl_dnn_cr_dog_40_n02113624_3403.png,n02113624_3403.png,0.0,-0.033268202,1.3799896,-0.9993242
alexnet_w1_mlp_simclrhn_probe3,1,278,NaN,dog,dog,bw,0278_cl_dnn_bw_dog_40_n02106550_12642.png,n02106550_12642.png,1.0,1.2961335,0.5348573,0.5383036
alexnet_w1_mlp_simclrhn_probe3,1,279,NaN,clock,clock,cr,0279_cl_dnn_cr_clock_40_n04548280_24041.png,n04548280_24041.png,1.0,6.1181145,0.30726457,4.1088915
alexnet_w1_mlp_simclrhn_probe3,1,280,NaN,truck,truck,bw,0280_cl_dnn_bw_truck_40_n03417042_3236.png,n03417042_3236.png,1.0,4.728554,1.6183008,2.199281
alexnet_w1_mlp_simclrhn_probe3,1,281,NaN,car,car,bw,0281_cl_dnn_bw_car_40_n03100240_2583.png,n03100240_2583.png,1.0,8.666856,7.2021728,1.0356873
alexnet_w1_mlp_simclrhn_probe3,1,282,NaN,knife,knife,cr,0282_cl_dnn_cr_knife_40_n03041632_45090.png,n03041632_45090.png,1.0,2.526571,0.63298273,1.3389691
alexnet_w1_mlp_simclrhn_probe3,1,283,NaN,cat,cat,cr,0283_cl_dnn_cr_cat_40_n02123597_660.png,n02123597_660.png,1.0,3.2949085,1.3871332,1.3490008
alexnet_w1_mlp_simclrhn_probe3,1,284,NaN,chair,clock,bw,0284_cl_dnn_bw_clock_40_n04548280_7813.png,n04548280_7813.png,0.0,1.5574387,1.7684889,-0.149235
alexnet_w1_mlp_simclrhn_probe3,1,285,NaN,dog,dog,bw,0285_cl_dnn_bw_dog_40_n02111129_797.png,n02111129_797.png,1.0,3.027664,1.0403,1.4052786
alexnet_w1_mlp_simclrhn_probe3,1,286,NaN,knife,knife,cr,0286_cl_dnn_cr_knife_40_n03041632_3717.png,n03041632_3717.png,1.0,3.319626,0.25505406,2.1669798
alexnet_w1_mlp_simclrhn_probe3,1,287,NaN,boat,boat,bw,0287_cl_dnn_bw_boat_40_n04273569_870.png,n04273569_870.png,1.0,5.0723786,1.6538676,2.4172523
alexnet_w1_mlp_simclrhn_probe3,1,288,NaN,elephant,elephant,bw,0288_cl_dnn_bw_elephant_40_n02504013_720.png,n02504013_720.png,1.0,20.603338,7.0020504,9.617563
alexnet_w1_mlp_simclrhn_probe3,1,289,NaN,oven,oven,cr,0289_cl_dnn_cr_oven_40_n04111531_14876.png,n04111531_14876.png,1.0,5.5568185,1.2186277,3.0675642
alexnet_w1_mlp_simclrhn_probe3,1,290,NaN,cat,cat,bw,0290_cl_dnn_bw_cat_40_n02123045_569.png,n02123045_569.png,1.0,3.58132,1.2796729,1.6275103
alexnet_w1_mlp_simclrhn_probe3,1,291,NaN,clock,clock,bw,0291_cl_dnn_bw_clock_40_n03196217_5888.png,n03196217_5888.png,1.0,1.5090574,0.9702458,0.38099736
alexnet_w1_mlp_simclrhn_probe3,1,292,NaN,keyboard,keyboard,cr,0292_cl_dnn_cr_keyboard_40_n04505470_4770.png,n04505470_4770.png,1.0,11.66777,2.1486604,6.731027
alexnet_w1_mlp_simclrhn_probe3,1,293,NaN,oven,knife,cr,0293_cl_dnn_cr_knife_40_n03041632_32292.png,n03041632_32292.png,0.0,0.5243603,1.5441154,-0.7210758
alexnet_w1_mlp_simclrhn_probe3,1,294,NaN,elephant,elephant,cr,0294_cl_dnn_cr_elephant_40_n02504013_6672.png,n02504013_6672.png,1.0,4.2996006,3.621404,0.47955748
alexnet_w1_mlp_simclrhn_probe3,1,295,NaN,airplane,airplane,bw,0295_cl_dnn_bw_airplane_40_n02690373_5838.png,n02690373_5838.png,1.0,8.335198,1.7732046,4.6400304
alexnet_w1_mlp_simclrhn_probe3,1,296,NaN,bird,bird,cr,0296_cl_dnn_cr_bird_40_n01796340_5508.png,n01796340_5508.png,1.0,2.9397063,0.5604921,1.6823586
alexnet_w1_mlp_simclrhn_probe3,1,297,NaN,oven,clock,bw,0297_cl_dnn_bw_clock_40_n03196217_6477.png,n03196217_6477.png,0.0,1.3035938,2.765675,-1.0338476
alexnet_w1_mlp_simclrhn_probe3,1,298,NaN,bird,bird,bw,0298_cl_dnn_bw_bird_40_n02011460_5075.png,n02011460_5075.png,1.0,2.7214205,0.39966688,1.6417278
alexnet_w1_mlp_simclrhn_probe3,1,299,NaN,boat,boat,bw,0299_cl_dnn_bw_boat_40_n03344393_10284.png,n03344393_10284.png,1.0,7.132196,3.7234035,2.4103804
alexnet_w1_mlp_simclrhn_probe3,1,300,NaN,oven,oven,bw,0300_cl_dnn_bw_oven_40_n04111531_14559.png,n04111531_14559.png,1.0,3.1846094,2.2070022,0.69127274
alexnet_w1_mlp_simclrhn_probe3,1,301,NaN,knife,knife,cr,0301_cl_dnn_cr_knife_40_n03041632_24060.png,n03041632_24060.png,1.0,2.0809765,1.5062373,0.406402
alexnet_w1_mlp_simclrhn_probe3,1,302,NaN,airplane,airplane,bw,0302_cl_dnn_bw_airplane_40_n02690373_4134.png,n02690373_4134.png,1.0,10.6761,0.87411076,6.9310527
alexnet_w1_mlp_simclrhn_probe3,1,303,NaN,knife,bear,cr,0303_cl_dnn_cr_bear_40_n02134084_6669.png,n02134084_6669.png,0.0,0.40247923,0.547347,-0.10243699
alexnet_w1_mlp_simclrhn_probe3,1,304,NaN,bird,bird,cr,0304_cl_dnn_cr_bird_40_n01558993_5744.png,n01558993_5744.png,1.0,3.3028443,0.52955407,1.9610124
alexnet_w1_mlp_simclrhn_probe3,1,305,NaN,oven,bird,bw,0305_cl_dnn_bw_bird_40_n01818515_10536.png,n01818515_10536.png,0.0,0.008188732,1.4907712,-1.0483441
alexnet_w1_mlp_simclrhn_probe3,1,306,NaN,bicycle,bottle,bw,0306_cl_dnn_bw_bottle_40_n04557648_20614.png,n04557648_20614.png,0.0,-0.36519882,4.980493,-3.779975
alexnet_w1_mlp_simclrhn_probe3,1,307,NaN,clock,clock,cr,0307_cl_dnn_cr_clock_40_n04548280_3605.png,n04548280_3605.png,1.0,5.2786,0.18880086,3.5990317
alexnet_w1_mlp_simclrhn_probe3,1,308,NaN,truck,truck,bw,0308_cl_dnn_bw_truck_40_n03796401_27288.png,n03796401_27288.png,1.0,6.21085,3.0152328,2.2596424
alexnet_w1_mlp_simclrhn_probe3,1,309,NaN,bicycle,bicycle,cr,0309_cl_dnn_cr_bicycle_40_n02835271_18276.png,n02835271_18276.png,1.0,7.4710507,3.38104,2.8920743
alexnet_w1_mlp_simclrhn_probe3,1,310,NaN,bear,bear,cr,0310_cl_dnn_cr_bear_40_n02133161_12152.png,n02133161_12152.png,1.0,1.4131778,0.83928835,0.40580115
alexnet_w1_mlp_simclrhn_probe3,1,311,NaN,elephant,elephant,cr,0311_cl_dnn_cr_elephant_40_n02504013_14918.png,n02504013_14918.png,1.0,15.348707,5.0906763,7.2535233
alexnet_w1_mlp_simclrhn_probe3,1,312,NaN,bicycle,bicycle,bw,0312_cl_dnn_bw_bicycle_40_n03792782_5323.png,n03792782_5323.png,1.0,11.977029,1.1934438,7.625146
alexnet_w1_mlp_simclrhn_probe3,1,313,NaN,bicycle,truck,cr,0313_cl_dnn_cr_truck_40_n04467665_37066.png,n04467665_37066.png,0.0,1.3020012,2.9864192,-1.1910634
alexnet_w1_mlp_simclrhn_probe3,1,314,NaN,bird,bird,bw,0314_cl_dnn_bw_bird_40_n02025239_2481.png,n02025239_2481.png,1.0,3.6505601,0.5282775,2.2077873
alexnet_w1_mlp_simclrhn_probe3,1,315,NaN,bicycle,bicycle,bw,0315_cl_dnn_bw_bicycle_40_n02835271_5113.png,n02835271_5113.png,1.0,9.20945,1.2965958,5.595233
alexnet_w1_mlp_simclrhn_probe3,1,316,NaN,elephant,elephant,cr,0316_cl_dnn_cr_elephant_40_n02504458_6185.png,n02504458_6185.png,1.0,7.257661,1.9273765,3.7690802
alexnet_w1_mlp_simclrhn_probe3,1,317,NaN,oven,knife,cr,0317_cl_dnn_cr_knife_40_n03041632_11475.png,n03041632_11475.png,0.0,0.47456497,4.529268,-2.8671079
alexnet_w1_mlp_simclrhn_probe3,1,318,NaN,cat,cat,bw,0318_cl_dnn_bw_cat_40_n02125311_31318.png,n02125311_31318.png,1.0,5.5146356,0.961848,3.2193072
alexnet_w1_mlp_simclrhn_probe3,1,319,NaN,clock,clock,bw,0319_cl_dnn_bw_clock_40_n04548280_8585.png,n04548280_8585.png,1.0,0.921127,0.54777664,0.2639986
alexnet_w1_mlp_simclrhn_probe3,1,320,NaN,bear,bear,bw,0320_cl_dnn_bw_bear_40_n02134418_12628.png,n02134418_12628.png,1.0,6.565851,1.2718439,3.7434285
alexnet_w1_mlp_simclrhn_probe3,1,321,NaN,chair,chair,bw,0321_cl_dnn_bw_chair_40_n03376595_17859.png,n03376595_17859.png,1.0,2.6022255,1.090267,1.0691162
alexnet_w1_mlp_simclrhn_probe3,1,322,NaN,knife,knife,cr,0322_cl_dnn_cr_knife_40_n03041632_379.png,n03041632_379.png,1.0,0.7313595,0.5484098,0.12936495
alexnet_w1_mlp_simclrhn_probe3,1,323,NaN,oven,bottle,bw,0323_cl_dnn_bw_bottle_40_n04557648_1293.png,n04557648_1293.png,0.0,2.1099799,3.0107713,-0.63695574
alexnet_w1_mlp_simclrhn_probe3,1,324,NaN,boat,boat,cr,0324_cl_dnn_cr_boat_40_n03662601_26298.png,n03662601_26298.png,1.0,16.516714,6.105538,7.3618135
alexnet_w1_mlp_simclrhn_probe3,1,325,NaN,oven,oven,bw,0325_cl_dnn_bw_oven_40_n04111531_6120.png,n04111531_6120.png,1.0,7.361619,1.2215086,4.341714
alexnet_w1_mlp_simclrhn_probe3,1,326,NaN,car,car,bw,0326_cl_dnn_bw_car_40_n02814533_92940.png,n02814533_92940.png,1.0,9.562513,3.12496,4.5520377
alexnet_w1_mlp_simclrhn_probe3,1,327,NaN,chair,chair,cr,0327_cl_dnn_cr_chair_40_n02791124_392.png,n02791124_392.png,1.0,3.4951925,2.7701633,0.5126731
alexnet_w1_mlp_simclrhn_probe3,1,328,NaN,clock,clock,bw,0328_cl_dnn_bw_clock_40_n04548280_3330.png,n04548280_3330.png,1.0,3.4334342,1.021505,1.7054914
alexnet_w1_mlp_simclrhn_probe3,1,329,NaN,truck,car,cr,0329_cl_dnn_cr_car_40_n02814533_83614.png,n02814533_83614.png,0.0,9.733028,12.77741,-2.1527026
alexnet_w1_mlp_simclrhn_probe3,1,330,NaN,bear,bear,cr,0330_cl_dnn_cr_bear_40_n02134418_3846.png,n02134418_3846.png,1.0,6.4461265,2.1374097,3.046723
alexnet_w1_mlp_simclrhn_probe3,1,331,NaN,elephant,elephant,cr,0331_cl_dnn_cr_elephant_40_n02504013_811.png,n02504013_811.png,1.0,1.6475972,1.5844744,0.044634525
alexnet_w1_mlp_simclrhn_probe3,1,332,NaN,airplane,airplane,bw,0332_cl_dnn_bw_airplane_40_n02690373_1442.png,n02690373_1442.png,1.0,8.591213,1.633206,4.9200544
alexnet_w1_mlp_simclrhn_probe3,1,333,NaN,chair,chair,cr,0333_cl_dnn_cr_chair_40_n03376595_6691.png,n03376595_6691.png,1.0,3.6217597,1.7396177,1.3308754
alexnet_w1_mlp_simclrhn_probe3,1,334,NaN,bear,bird,bw,0334_cl_dnn_bw_bird_40_n01616318_1071.png,n01616318_1071.png,0.0,0.33951247,2.373862,-1.4385023
alexnet_w1_mlp_simclrhn_probe3,1,335,NaN,boat,boat,cr,0335_cl_dnn_cr_boat_40_n03662601_8333.png,n03662601_8333.png,1.0,0.83956337,0.60666996,0.16468051
alexnet_w1_mlp_simclrhn_probe3,1,336,NaN,truck,truck,cr,0336_cl_dnn_cr_truck_40_n03796401_9384.png,n03796401_9384.png,1.0,4.0331216,2.7995324,0.8722793
alexnet_w1_mlp_simclrhn_probe3,1,337,NaN,bottle,bottle,cr,0337_cl_dnn_cr_bottle_40_n04560804_19001.png,n04560804_19001.png,1.0,2.4558613,2.0325465,0.29932877
alexnet_w1_mlp_simclrhn_probe3,1,338,NaN,cat,cat,cr,0338_cl_dnn_cr_cat_40_n02123045_7646.png,n02123045_7646.png,1.0,1.9709969,1.5119294,0.32460973
alexnet_w1_mlp_simclrhn_probe3,1,339,NaN,elephant,elephant,cr,0339_cl_dnn_cr_elephant_40_n02504013_3599.png,n02504013_3599.png,1.0,19.407347,10.501463,6.297411
alexnet_w1_mlp_simclrhn_probe3,1,340,NaN,chair,clock,cr,0340_cl_dnn_cr_clock_40_n03196217_1109.png,n03196217_1109.png,0.0,1.6952225,2.874705,-0.83402014
alexnet_w1_mlp_simclrhn_probe3,1,341,NaN,truck,boat,bw,0341_cl_dnn_bw_boat_40_n03344393_5322.png,n03344393_5322.png,0.0,3.789884,4.9163246,-0.79651374
alexnet_w1_mlp_simclrhn_probe3,1,342,NaN,elephant,dog,cr,0342_cl_dnn_cr_dog_40_n02090622_11748.png,n02090622_11748.png,0.0,2.286778,2.3780215,-0.064518906
alexnet_w1_mlp_simclrhn_probe3,1,343,NaN,knife,knife,cr,0343_cl_dnn_cr_knife_40_n03041632_20707.png,n03041632_20707.png,1.0,2.6300197,1.5019286,0.79768085
alexnet_w1_mlp_simclrhn_probe3,1,344,NaN,keyboard,keyboard,cr,0344_cl_dnn_cr_keyboard_40_n03085013_8936.png,n03085013_8936.png,1.0,3.086014,2.1635253,0.65229803
alexnet_w1_mlp_simclrhn_probe3,1,345,NaN,airplane,airplane,cr,0345_cl_dnn_cr_airplane_40_n02690373_4695.png,n02690373_4695.png,1.0,4.7241964,4.2493286,0.33578226
alexnet_w1_mlp_simclrhn_probe3,1,346,NaN,bird,oven,bw,0346_cl_dnn_bw_oven_40_n04111531_16463.png,n04111531_16463.png,0.0,1.2555684,1.4134897,-0.11166723
alexnet_w1_mlp_simclrhn_probe3,1,347,NaN,dog,dog,bw,0347_cl_dnn_bw_dog_40_n02099712_1234.png,n02099712_1234.png,1.0,1.1503149,0.4645852,0.48488417
alexnet_w1_mlp_simclrhn_probe3,1,348,NaN,boat,boat,bw,0348_cl_dnn_bw_boat_40_n03662601_17361.png,n03662601_17361.png,1.0,6.8854203,1.1726983,4.0395045
alexnet_w1_mlp_simclrhn_probe3,1,349,NaN,oven,oven,cr,0349_cl_dnn_cr_oven_40_n04111531_12929.png,n04111531_12929.png,1.0,3.8988652,1.767385,1.5071841
alexnet_w1_mlp_simclrhn_probe3,1,350,NaN,keyboard,truck,bw,0350_cl_dnn_bw_truck_40_n03417042_2056.png,n03417042_2056.png,0.0,0.16595691,3.365303,-2.2622793
alexnet_w1_mlp_simclrhn_probe3,1,351,NaN,oven,oven,cr,0351_cl_dnn_cr_oven_40_n04111531_2937.png,n04111531_2937.png,1.0,4.425057,1.9496062,1.750408
alexnet_w1_mlp_simclrhn_probe3,1,352,NaN,boat,boat,bw,0352_cl_dnn_bw_boat_40_n04273569_23705.png,n04273569_23705.png,1.0,6.7869806,2.5235054,3.0147324
alexnet_w1_mlp_simclrhn_probe3,1,353,NaN,boat,boat,cr,0353_cl_dnn_cr_boat_40_n02951358_8456.png,n02951358_8456.png,1.0,2.1068573,1.5564339,0.3892081
alexnet_w1_mlp_simclrhn_probe3,1,354,NaN,bottle,bottle,bw,0354_cl_dnn_bw_bottle_40_n03983396_11632.png,n03983396_11632.png,1.0,4.356379,1.6493587,1.9141524
alexnet_w1_mlp_simclrhn_probe3,1,355,NaN,bicycle,bicycle,bw,0355_cl_dnn_bw_bicycle_40_n02835271_506.png,n02835271_506.png,1.0,11.439844,1.3878438,7.1078377
alexnet_w1_mlp_simclrhn_probe3,1,356,NaN,keyboard,keyboard,cr,0356_cl_dnn_cr_keyboard_40_n04505470_665.png,n04505470_665.png,1.0,10.352161,2.9653604,5.223257
alexnet_w1_mlp_simclrhn_probe3,1,357,NaN,bear,bear,bw,0357_cl_dnn_bw_bear_40_n02132136_390.png,n02132136_390.png,1.0,6.049034,3.7375584,1.6344602
alexnet_w1_mlp_simclrhn_probe3,1,358,NaN,bear,bear,cr,0358_cl_dnn_cr_bear_40_n02134084_13663.png,n02134084_13663.png,1.0,2.7048297,1.8292329,0.61914045
alexnet_w1_mlp_simclrhn_probe3,1,359,NaN,airplane,airplane,cr,0359_cl_dnn_cr_airplane_40_n02690373_2837.png,n02690373_2837.png,1.0,8.690393,4.7918386,2.7566946
alexnet_w1_mlp_simclrhn_probe3,1,360,NaN,airplane,airplane,bw,0360_cl_dnn_bw_airplane_40_n02690373_1492.png,n02690373_1492.png,1.0,8.115784,1.236557,4.864348
alexnet_w1_mlp_simclrhn_probe3,1,361,NaN,car,car,cr,0361_cl_dnn_cr_car_40_n03100240_14252.png,n03100240_14252.png,1.0,15.375239,4.6977124,7.5501513
alexnet_w1_mlp_simclrhn_probe3,1,362,NaN,chair,elephant,bw,0362_cl_dnn_bw_elephant_40_n02504458_4908.png,n02504458_4908.png,0.0,0.099627696,1.9170094,-1.2850829
alexnet_w1_mlp_simclrhn_probe3,1,363,NaN,bird,bird,bw,0363_cl_dnn_bw_bird_40_n01582220_5821.png,n01582220_5821.png,1.0,3.1117606,0.45938137,1.8755155
alexnet_w1_mlp_simclrhn_probe3,1,364,NaN,cat,cat,cr,0364_cl_dnn_cr_cat_40_n02123045_2968.png,n02123045_2968.png,1.0,2.0573215,0.65371394,0.9925005
alexnet_w1_mlp_simclrhn_probe3,1,365,NaN,dog,dog,cr,0365_cl_dnn_cr_dog_40_n02088466_1671.png,n02088466_1671.png,1.0,1.207174,0.43004087,0.5495161
alexnet_w1_mlp_simclrhn_probe3,1,366,NaN,boat,boat,bw,0366_cl_dnn_bw_boat_40_n03344393_7659.png,n03344393_7659.png,1.0,11.367514,5.1442575,4.4005065
alexnet_w1_mlp_simclrhn_probe3,1,367,NaN,bicycle,bicycle,bw,0367_cl_dnn_bw_bicycle_40_n03792782_3783.png,n03792782_3783.png,1.0,6.252533,0.3861971,4.148126
alexnet_w1_mlp_simclrhn_probe3,1,368,NaN,airplane,airplane,cr,0368_cl_dnn_cr_airplane_40_n02690373_2059.png,n02690373_2059.png,1.0,8.12814,2.451537,4.0139647
alexnet_w1_mlp_simclrhn_probe3,1,369,NaN,keyboard,keyboard,cr,0369_cl_dnn_cr_keyboard_40_n03085013_19483.png,n03085013_19483.png,1.0,4.865534,1.772332,2.1872241
alexnet_w1_mlp_simclrhn_probe3,1,370,NaN,bicycle,bicycle,bw,0370_cl_dnn_bw_bicycle_40_n03792782_2960.png,n03792782_2960.png,1.0,12.618019,0.77367353,8.3752165
alexnet_w1_mlp_simclrhn_probe3,1,371,NaN,keyboard,keyboard,cr,0371_cl_dnn_cr_keyboard_40_n03085013_24538.png,n03085013_24538.png,1.0,2.9279504,1.8703889,0.74780893
alexnet_w1_mlp_simclrhn_probe3,1,372,NaN,chair,cat,cr,0372_cl_dnn_cr_cat_40_n02123597_9656.png,n02123597_9656.png,0.0,-0.79696006,1.3723519,-1.5339353
alexnet_w1_mlp_simclrhn_probe3,1,373,NaN,car,car,cr,0373_cl_dnn_cr_car_40_n04285008_1085.png,n04285008_1085.png,1.0,16.997057,2.7763524,10.055557
alexnet_w1_mlp_simclrhn_probe3,1,374,NaN,dog,dog,cr,0374_cl_dnn_cr_dog_40_n02102177_5870.png,n02102177_5870.png,1.0,3.608855,1.0115073,1.8366022
alexnet_w1_mlp_simclrhn_probe3,1,375,NaN,keyboard,boat,cr,0375_cl_dnn_cr_boat_40_n03662601_24852.png,n03662601_24852.png,0.0,1.3852794,2.8506503,-1.0361737
alexnet_w1_mlp_simclrhn_probe3,1,376,NaN,bicycle,bicycle,cr,0376_cl_dnn_cr_bicycle_40_n03792782_32379.png,n03792782_32379.png,1.0,9.900845,0.7783526,6.450576
alexnet_w1_mlp_simclrhn_probe3,1,377,NaN,knife,cat,cr,0377_cl_dnn_cr_cat_40_n02123597_12266.png,n02123597_12266.png,0.0,-0.7651618,0.625046,-0.9830254
alexnet_w1_mlp_simclrhn_probe3,1,378,NaN,airplane,airplane,cr,0378_cl_dnn_cr_airplane_40_n02690373_713.png,n02690373_713.png,1.0,17.088614,2.9004345,10.0325575
alexnet_w1_mlp_simclrhn_probe3,1,379,NaN,airplane,airplane,cr,0379_cl_dnn_cr_airplane_40_n02690373_6543.png,n02690373_6543.png,1.0,7.4583464,4.190001,2.3110693
alexnet_w1_mlp_simclrhn_probe3,1,380,NaN,oven,oven,cr,0380_cl_dnn_cr_oven_40_n04111531_5888.png,n04111531_5888.png,1.0,4.810027,1.2441517,2.5214548
alexnet_w1_mlp_simclrhn_probe3,1,381,NaN,elephant,dog,bw,0381_cl_dnn_bw_dog_40_n02099601_7304.png,n02099601_7304.png,0.0,0.2774436,3.018506,-1.9382238
alexnet_w1_mlp_simclrhn_probe3,1,382,NaN,bird,bird,bw,0382_cl_dnn_bw_bird_40_n01819313_146.png,n01819313_146.png,1.0,1.9565896,0.54933107,0.9950821
alexnet_w1_mlp_simclrhn_probe3,1,383,NaN,car,car,bw,0383_cl_dnn_bw_car_40_n03100240_18873.png,n03100240_18873.png,1.0,11.722554,5.5075645,4.3946614
alexnet_w1_mlp_simclrhn_probe3,1,384,NaN,elephant,dog,bw,0384_cl_dnn_bw_dog_40_n02100583_2707.png,n02100583_2707.png,0.0,1.3650475,2.7287254,-0.96426594
alexnet_w1_mlp_simclrhn_probe3,1,385,NaN,cat,dog,bw,0385_cl_dnn_bw_dog_40_n02105056_15484.png,n02105056_15484.png,0.0,1.1677014,1.8203264,-0.46147564
alexnet_w1_mlp_simclrhn_probe3,1,386,NaN,truck,truck,bw,0386_cl_dnn_bw_truck_40_n04467665_66535.png,n04467665_66535.png,1.0,7.297869,2.238206,3.5777223
alexnet_w1_mlp_simclrhn_probe3,1,387,NaN,elephant,elephant,bw,0387_cl_dnn_bw_elephant_40_n02504458_12303.png,n02504458_12303.png,1.0,11.80895,4.8643928,4.910544
alexnet_w1_mlp_simclrhn_probe3,1,388,NaN,bottle,bottle,cr,0388_cl_dnn_cr_bottle_40_n03937543_4586.png,n03937543_4586.png,1.0,4.82677,1.2022638,2.5629127
alexnet_w1_mlp_simclrhn_probe3,1,389,NaN,bird,bird,cr,0389_cl_dnn_cr_bird_40_n02007558_19064.png,n02007558_19064.png,1.0,2.6081905,2.3152332,0.2071521
alexnet_w1_mlp_simclrhn_probe3,1,390,NaN,oven,oven,bw,0390_cl_dnn_bw_oven_40_n04111531_5904.png,n04111531_5904.png,1.0,4.0544796,0.8665407,2.2542133
alexnet_w1_mlp_simclrhn_probe3,1,391,NaN,airplane,keyboard,cr,0391_cl_dnn_cr_keyboard_40_n03085013_18625.png,n03085013_18625.png,0.0,0.49960053,1.1470762,-0.45783448
alexnet_w1_mlp_simclrhn_probe3,1,392,NaN,bottle,bottle,cr,0392_cl_dnn_cr_bottle_40_n04579145_445.png,n04579145_445.png,1.0,8.195543,1.4030513,4.803017
alexnet_w1_mlp_simclrhn_probe3,1,393,NaN,keyboard,keyboard,bw,0393_cl_dnn_bw_keyboard_40_n03085013_22820.png,n03085013_22820.png,1.0,5.149785,3.921115,0.868801
alexnet_w1_mlp_simclrhn_probe3,1,394,NaN,truck,truck,cr,0394_cl_dnn_cr_truck_40_n03417042_19479.png,n03417042_19479.png,1.0,7.2827272,0.48520318,4.8065753
alexnet_w1_mlp_simclrhn_probe3,1,395,NaN,bird,bird,bw,0395_cl_dnn_bw_bird_40_n01833805_28946.png,n01833805_28946.png,1.0,2.1745455,0.18225212,1.4087641
alexnet_w1_mlp_simclrhn_probe3,1,396,NaN,keyboard,bottle,bw,0396_cl_dnn_bw_bottle_40_n04591713_3896.png,n04591713_3896.png,0.0,1.7347785,2.1845994,-0.3180714
alexnet_w1_mlp_simclrhn_probe3,1,397,NaN,cat,cat,cr,0397_cl_dnn_cr_cat_40_n02123159_782.png,n02123159_782.png,1.0,15.117954,1.262607,9.797211
alexnet_w1_mlp_simclrhn_probe3,1,398,NaN,keyboard,keyboard,bw,0398_cl_dnn_bw_keyboard_40_n04505470_464.png,n04505470_464.png,1.0,2.9034219,1.5959775,0.9245028
alexnet_w1_mlp_simclrhn_probe3,1,399,NaN,bird,bird,cr,0399_cl_dnn_cr_bird_40_n01558993_3939.png,n01558993_3939.png,1.0,4.8897333,0.16896068,3.3380904
alexnet_w1_mlp_simclrhn_probe3,1,400,NaN,boat,boat,cr,0400_cl_dnn_cr_boat_40_n04273569_3052.png,n04273569_3052.png,1.0,8.089891,1.5917687,4.5948668
alexnet_w1_mlp_simclrhn_probe3,1,401,NaN,knife,knife,bw,0401_cl_dnn_bw_knife_40_n03041632_85416.png,n03041632_85416.png,1.0,2.0408425,1.3327515,0.50069594
alexnet_w1_mlp_simclrhn_probe3,1,402,NaN,car,car,bw,0402_cl_dnn_bw_car_40_n02814533_51154.png,n02814533_51154.png,1.0,11.952016,9.269212,1.897029
alexnet_w1_mlp_simclrhn_probe3,1,403,NaN,airplane,airplane,bw,0403_cl_dnn_bw_airplane_40_n02690373_6516.png,n02690373_6516.png,1.0,10.216581,4.465095,4.066915
alexnet_w1_mlp_simclrhn_probe3,1,404,NaN,airplane,airplane,cr,0404_cl_dnn_cr_airplane_40_n02690373_12813.png,n02690373_12813.png,1.0,17.246895,1.5816722,11.076985
alexnet_w1_mlp_simclrhn_probe3,1,405,NaN,airplane,airplane,bw,0405_cl_dnn_bw_airplane_40_n02690373_6406.png,n02690373_6406.png,1.0,11.969636,1.5559862,7.3635626
alexnet_w1_mlp_simclrhn_probe3,1,406,NaN,chair,chair,cr,0406_cl_dnn_cr_chair_40_n03376595_8228.png,n03376595_8228.png,1.0,2.4957294,2.0198975,0.33646402
alexnet_w1_mlp_simclrhn_probe3,1,407,NaN,knife,chair,bw,0407_cl_dnn_bw_chair_40_n04099969_6309.png,n04099969_6309.png,0.0,0.58360445,1.7367082,-0.81536746
alexnet_w1_mlp_simclrhn_probe3,1,408,NaN,elephant,elephant,cr,0408_cl_dnn_cr_elephant_40_n02504013_19831.png,n02504013_19831.png,1.0,19.800106,7.791278,8.491524
alexnet_w1_mlp_simclrhn_probe3,1,409,NaN,knife,bottle,bw,0409_cl_dnn_bw_bottle_40_n03937543_5088.png,n03937543_5088.png,0.0,0.70614463,2.131332,-1.0077597
alexnet_w1_mlp_simclrhn_probe3,1,410,NaN,elephant,elephant,cr,0410_cl_dnn_cr_elephant_40_n02504458_2190.png,n02504458_2190.png,1.0,3.0086899,0.8263441,1.5431516
alexnet_w1_mlp_simclrhn_probe3,1,411,NaN,car,car,bw,0411_cl_dnn_bw_car_40_n04285008_5997.png,n04285008_5997.png,1.0,9.052571,1.6850268,5.209641
alexnet_w1_mlp_simclrhn_probe3,1,412,NaN,bottle,knife,cr,0412_cl_dnn_cr_knife_40_n03041632_94620.png,n03041632_94620.png,0.0,0.36036405,2.015568,-1.170406
alexnet_w1_mlp_simclrhn_probe3,1,413,NaN,bicycle,bicycle,cr,0413_cl_dnn_cr_bicycle_40_n02835271_8125.png,n02835271_8125.png,1.0,11.318002,3.423443,5.5822964
alexnet_w1_mlp_simclrhn_probe3,1,414,NaN,oven,oven,cr,0414_cl_dnn_cr_oven_40_n04111531_4662.png,n04111531_4662.png,1.0,4.114689,0.43948773,2.5987597
alexnet_w1_mlp_simclrhn_probe3,1,415,NaN,bicycle,dog,bw,0415_cl_dnn_bw_dog_40_n02110806_21755.png,n02110806_21755.png,0.0,0.9715957,5.550084,-3.2374802
alexnet_w1_mlp_simclrhn_probe3,1,416,NaN,bottle,bottle,bw,0416_cl_dnn_bw_bottle_40_n02823428_3505.png,n02823428_3505.png,1.0,2.1747725,0.81273955,0.9631027
alexnet_w1_mlp_simclrhn_probe3,1,417,NaN,cat,cat,cr,0417_cl_dnn_cr_cat_40_n02123045_11472.png,n02123045_11472.png,1.0,8.018653,0.5209188,5.3016987
alexnet_w1_mlp_simclrhn_probe3,1,418,NaN,boat,boat,cr,0418_cl_dnn_cr_boat_40_n03662601_14818.png,n03662601_14818.png,1.0,12.302763,4.0269804,5.851862
alexnet_w1_mlp_simclrhn_probe3,1,419,NaN,bicycle,bicycle,cr,0419_cl_dnn_cr_bicycle_40_n02835271_8322.png,n02835271_8322.png,1.0,8.390451,4.009076,3.0981002
alexnet_w1_mlp_simclrhn_probe3,1,420,NaN,knife,knife,bw,0420_cl_dnn_bw_knife_40_n03041632_9580.png,n03041632_9580.png,1.0,2.029761,1.2952284,0.5193931
alexnet_w1_mlp_simclrhn_probe3,1,421,NaN,dog,dog,bw,0421_cl_dnn_bw_dog_40_n02088466_3052.png,n02088466_3052.png,1.0,1.4745499,0.20285669,0.8992229
alexnet_w1_mlp_simclrhn_probe3,1,422,NaN,keyboard,keyboard,cr,0422_cl_dnn_cr_keyboard_40_n04505470_7161.png,n04505470_7161.png,1.0,14.311534,1.5228893,9.042937
alexnet_w1_mlp_simclrhn_probe3,1,423,NaN,keyboard,keyboard,cr,0423_cl_dnn_cr_keyboard_40_n04505470_2321.png,n04505470_2321.png,1.0,6.1865544,2.425733,2.6593022
alexnet_w1_mlp_simclrhn_probe3,1,424,NaN,oven,knife,cr,0424_cl_dnn_cr_knife_40_n03041632_6708.png,n03041632_6708.png,0.0,1.7091656,3.4519317,-1.2323217
alexnet_w1_mlp_simclrhn_probe3,1,425,NaN,keyboard,keyboard,bw,0425_cl_dnn_bw_keyboard_40_n04505470_4965.png,n04505470_4965.png,1.0,12.249161,2.2712657,7.055437
alexnet_w1_mlp_simclrhn_probe3,1,426,NaN,cat,cat,bw,0426_cl_dnn_bw_cat_40_n02123597_11981.png,n02123597_11981.png,1.0,4.9088645,2.0375445,2.03033
alexnet_w1_mlp_simclrhn_probe3,1,427,NaN,truck,truck,cr,0427_cl_dnn_cr_truck_40_n03417042_2778.png,n03417042_2778.png,1.0,6.216552,1.1297319,3.5969248
alexnet_w1_mlp_simclrhn_probe3,1,428,NaN,car,car,cr,0428_cl_dnn_cr_car_40_n02814533_80049.png,n02814533_80049.png,1.0,8.8491125,6.572119,1.6100774
alexnet_w1_mlp_simclrhn_probe3,1,429,NaN,cat,keyboard,cr,0429_cl_dnn_cr_keyboard_40_n03085013_23561.png,n03085013_23561.png,0.0,-0.19492719,1.2270436,-1.0054853
alexnet_w1_mlp_simclrhn_probe3,1,430,NaN,airplane,airplane,bw,0430_cl_dnn_bw_airplane_40_n02690373_1800.png,n02690373_1800.png,1.0,4.1061463,1.3708986,1.9341122
alexnet_w1_mlp_simclrhn_probe3,1,431,NaN,chair,chair,bw,0431_cl_dnn_bw_chair_40_n02791124_4306.png,n02791124_4306.png,1.0,1.524421,0.781897,0.5250437
alexnet_w1_mlp_simclrhn_probe3,1,432,NaN,bicycle,knife,bw,0432_cl_dnn_bw_knife_40_n03041632_33424.png,n03041632_33424.png,0.0,1.2694958,2.8260174,-1.100627
alexnet_w1_mlp_simclrhn_probe3,1,433,NaN,boat,boat,cr,0433_cl_dnn_cr_boat_40_n04273569_111.png,n04273569_111.png,1.0,7.607825,4.332006,2.3163538
alexnet_w1_mlp_simclrhn_probe3,1,434,NaN,bear,bear,bw,0434_cl_dnn_bw_bear_40_n02132136_4403.png,n02132136_4403.png,1.0,4.5262017,0.70925057,2.6989923
alexnet_w1_mlp_simclrhn_probe3,1,435,NaN,bicycle,bicycle,bw,0435_cl_dnn_bw_bicycle_40_n03792782_49707.png,n03792782_49707.png,1.0,2.0347319,0.92556447,0.78429973
alexnet_w1_mlp_simclrhn_probe3,1,436,NaN,bicycle,bicycle,cr,0436_cl_dnn_cr_bicycle_40_n02835271_3308.png,n02835271_3308.png,1.0,12.448366,2.3413165,7.146764
alexnet_w1_mlp_simclrhn_probe3,1,437,NaN,clock,clock,bw,0437_cl_dnn_bw_clock_40_n04548280_3305.png,n04548280_3305.png,1.0,2.2238767,0.9315517,0.9138118
alexnet_w1_mlp_simclrhn_probe3,1,438,NaN,boat,boat,bw,0438_cl_dnn_bw_boat_40_n03344393_7614.png,n03344393_7614.png,1.0,11.17096,5.776016,3.8148017
alexnet_w1_mlp_simclrhn_probe3,1,439,NaN,chair,bicycle,bw,0439_cl_dnn_bw_bicycle_40_n02835271_9434.png,n02835271_9434.png,0.0,1.9750733,3.7690144,-1.2685078
alexnet_w1_mlp_simclrhn_probe3,1,440,NaN,chair,truck,bw,0440_cl_dnn_bw_truck_40_n03417042_3039.png,n03417042_3039.png,0.0,0.6228807,1.3203427,-0.4931801
alexnet_w1_mlp_simclrhn_probe3,1,441,NaN,oven,oven,cr,0441_cl_dnn_cr_oven_40_n04111531_5519.png,n04111531_5519.png,1.0,2.6371415,0.15542573,1.754838
alexnet_w1_mlp_simclrhn_probe3,1,442,NaN,bottle,bottle,cr,0442_cl_dnn_cr_bottle_40_n03983396_3702.png,n03983396_3702.png,1.0,2.9285579,0.6809017,1.5893329
alexnet_w1_mlp_simclrhn_probe3,1,443,NaN,bicycle,clock,cr,0443_cl_dnn_cr_clock_40_n04548280_2177.png,n04548280_2177.png,0.0,4.5178075,5.4487224,-0.65825623
alexnet_w1_mlp_simclrhn_probe3,1,444,NaN,bottle,bottle,cr,0444_cl_dnn_cr_bottle_40_n03983396_4132.png,n03983396_4132.png,1.0,8.984961,1.6470673,5.1886744
alexnet_w1_mlp_simclrhn_probe3,1,445,NaN,bicycle,bicycle,cr,0445_cl_dnn_cr_bicycle_40_n02835271_17509.png,n02835271_17509.png,1.0,10.14452,2.732608,5.2410135
alexnet_w1_mlp_simclrhn_probe3,1,446,NaN,airplane,airplane,bw,0446_cl_dnn_bw_airplane_40_n02690373_3090.png,n02690373_3090.png,1.0,7.391882,0.8879436,4.598979
alexnet_w1_mlp_simclrhn_probe3,1,447,NaN,bicycle,chair,cr,0447_cl_dnn_cr_chair_40_n03376595_1302.png,n03376595_1302.png,0.0,5.908506,6.075433,-0.118035115
alexnet_w1_mlp_simclrhn_probe3,1,448,NaN,dog,dog,cr,0448_cl_dnn_cr_dog_40_n02107683_3640.png,n02107683_3640.png,1.0,3.3473704,1.1388439,1.5616642
alexnet_w1_mlp_simclrhn_probe3,1,449,NaN,car,car,cr,0449_cl_dnn_cr_car_40_n03100240_770.png,n03100240_770.png,1.0,10.517249,7.009491,2.4803596
alexnet_w1_mlp_simclrhn_probe3,1,450,NaN,bottle,knife,cr,0450_cl_dnn_cr_knife_40_n03041632_4305.png,n03041632_4305.png,0.0,0.8749523,1.1109561,-0.16687986
alexnet_w1_mlp_simclrhn_probe3,1,451,NaN,elephant,elephant,cr,0451_cl_dnn_cr_elephant_40_n02504013_4590.png,n02504013_4590.png,1.0,6.6120777,2.9924927,2.5594332
alexnet_w1_mlp_simclrhn_probe3,1,452,NaN,truck,truck,cr,0452_cl_dnn_cr_truck_40_n03417042_5752.png,n03417042_5752.png,1.0,2.3504276,1.4866315,0.6107961
alexnet_w1_mlp_simclrhn_probe3,1,453,NaN,oven,oven,cr,0453_cl_dnn_cr_oven_40_n04111531_21931.png,n04111531_21931.png,1.0,5.661953,1.4944284,2.9468849
alexnet_w1_mlp_simclrhn_probe3,1,454,NaN,elephant,elephant,bw,0454_cl_dnn_bw_elephant_40_n02504458_4711.png,n02504458_4711.png,1.0,8.461059,1.99038,4.5754604
alexnet_w1_mlp_simclrhn_probe3,1,455,NaN,chair,clock,bw,0455_cl_dnn_bw_clock_40_n02708093_8033.png,n02708093_8033.png,0.0,3.2636998,4.0234566,-0.5372292
alexnet_w1_mlp_simclrhn_probe3,1,456,NaN,bicycle,bicycle,bw,0456_cl_dnn_bw_bicycle_40_n03792782_41992.png,n03792782_41992.png,1.0,17.855831,4.410158,9.507526
alexnet_w1_mlp_simclrhn_probe3,1,457,NaN,keyboard,keyboard,cr,0457_cl_dnn_cr_keyboard_40_n03085013_5622.png,n03085013_5622.png,1.0,5.0328307,3.54952,1.0488591
alexnet_w1_mlp_simclrhn_probe3,1,458,NaN,bird,bird,bw,0458_cl_dnn_bw_bird_40_n02009912_1919.png,n02009912_1919.png,1.0,3.5252652,0.42202836,2.19432
alexnet_w1_mlp_simclrhn_probe3,1,459,NaN,bottle,bottle,cr,0459_cl_dnn_cr_bottle_40_n03937543_4202.png,n03937543_4202.png,1.0,2.3109975,0.6427916,1.1795996
alexnet_w1_mlp_simclrhn_probe3,1,460,NaN,bicycle,bicycle,bw,0460_cl_dnn_bw_bicycle_40_n02835271_4341.png,n02835271_4341.png,1.0,5.755621,1.083224,3.3038833
alexnet_w1_mlp_simclrhn_probe3,1,461,NaN,bear,bear,bw,0461_cl_dnn_bw_bear_40_n02132136_18543.png,n02132136_18543.png,1.0,4.637977,2.3808866,1.5960041
alexnet_w1_mlp_simclrhn_probe3,1,462,NaN,cat,cat,bw,0462_cl_dnn_bw_cat_40_n02124075_14425.png,n02124075_14425.png,1.0,13.26382,2.631073,7.5184875
alexnet_w1_mlp_simclrhn_probe3,1,463,NaN,clock,clock,bw,0463_cl_dnn_bw_clock_40_n02708093_544.png,n02708093_544.png,1.0,1.7422867,0.73576075,0.71172136
alexnet_w1_mlp_simclrhn_probe3,1,464,NaN,bear,bear,cr,0464_cl_dnn_cr_bear_40_n02133161_7604.png,n02133161_7604.png,1.0,2.674714,0.55695933,1.4974787
alexnet_w1_mlp_simclrhn_probe3,1,465,NaN,car,car,bw,0465_cl_dnn_bw_car_40_n03100240_15407.png,n03100240_15407.png,1.0,7.172123,4.7131205,1.7387774
alexnet_w1_mlp_simclrhn_probe3,1,466,NaN,bicycle,bicycle,bw,0466_cl_dnn_bw_bicycle_40_n02835271_12926.png,n02835271_12926.png,1.0,8.199156,0.8210414,5.217115
alexnet_w1_mlp_simclrhn_probe3,1,467,NaN,knife,chair,cr,0467_cl_dnn_cr_chair_40_n03376595_2056.png,n03376595_2056.png,0.0,1.172866,1.3638531,-0.13504829
alexnet_w1_mlp_simclrhn_probe3,1,468,NaN,oven,oven,bw,0468_cl_dnn_bw_oven_40_n04111531_9762.png,n04111531_9762.png,1.0,4.374157,1.1583769,2.2738998
alexnet_w1_mlp_simclrhn_probe3,1,469,NaN,bicycle,bicycle,bw,0469_cl_dnn_bw_bicycle_40_n03792782_25799.png,n03792782_25799.png,1.0,6.1519547,1.5360323,3.26395
alexnet_w1_mlp_simclrhn_probe3,1,470,NaN,oven,oven,cr,0470_cl_dnn_cr_oven_40_n04111531_3570.png,n04111531_3570.png,1.0,3.355812,0.15842353,2.2608953
alexnet_w1_mlp_simclrhn_probe3,1,471,NaN,car,car,cr,0471_cl_dnn_cr_car_40_n04285008_874.png,n04285008_874.png,1.0,9.990051,4.53257,3.8590221
alexnet_w1_mlp_simclrhn_probe3,1,472,NaN,bicycle,bottle,cr,0472_cl_dnn_cr_bottle_40_n04557648_364.png,n04557648_364.png,0.0,-0.6389882,3.345937,-2.8177676
alexnet_w1_mlp_simclrhn_probe3,1,473,NaN,airplane,airplane,bw,0473_cl_dnn_bw_airplane_40_n02690373_8461.png,n02690373_8461.png,1.0,8.950413,1.6826372,5.1390934
alexnet_w1_mlp_simclrhn_probe3,1,474,NaN,boat,boat,cr,0474_cl_dnn_cr_boat_40_n04273569_1087.png,n04273569_1087.png,1.0,13.535581,3.7769423,6.9003997
alexnet_w1_mlp_simclrhn_probe3,1,475,NaN,chair,chair,cr,0475_cl_dnn_cr_chair_40_n03376595_1798.png,n03376595_1798.png,1.0,5.1670966,0.55773896,3.2593083
alexnet_w1_mlp_simclrhn_probe3,1,476,NaN,oven,oven,cr,0476_cl_dnn_cr_oven_40_n04111531_5290.png,n04111531_5290.png,1.0,5.0614142,2.206317,2.0188587
alexnet_w1_mlp_simclrhn_probe3,1,477,NaN,cat,cat,bw,0477_cl_dnn_bw_cat_40_n02124075_12369.png,n02124075_12369.png,1.0,5.0902686,0.18156093,3.4709804
alexnet_w1_mlp_simclrhn_probe3,1,478,NaN,elephant,elephant,bw,0478_cl_dnn_bw_elephant_40_n02504458_3714.png,n02504458_3714.png,1.0,7.4866886,2.137004,3.7827983
alexnet_w1_mlp_simclrhn_probe3,1,479,NaN,keyboard,bicycle,bw,0479_cl_dnn_bw_bicycle_40_n03792782_7388.png,n03792782_7388.png,0.0,0.60881895,1.4276817,-0.5790234
alexnet_w1_mlp_simclrhn_probe3,1,480,NaN,truck,truck,cr,0480_cl_dnn_cr_truck_40_n03796401_18240.png,n03796401_18240.png,1.0,3.9917755,0.69042885,2.3344047
alexnet_w1_mlp_simclrhn_probe3,1,481,NaN,airplane,airplane,cr,0481_cl_dnn_cr_airplane_40_n02690373_610.png,n02690373_610.png,1.0,10.96862,2.8988955,5.706157
alexnet_w1_mlp_simclrhn_probe3,1,482,NaN,airplane,airplane,bw,0482_cl_dnn_bw_airplane_40_n02690373_6046.png,n02690373_6046.png,1.0,18.768833,1.3343534,12.328038
alexnet_w1_mlp_simclrhn_probe3,1,483,NaN,bear,dog,cr,0483_cl_dnn_cr_dog_40_n02105505_4069.png,n02105505_4069.png,0.0,1.9254503,3.1656442,-0.8769495
alexnet_w1_mlp_simclrhn_probe3,1,484,NaN,oven,chair,bw,0484_cl_dnn_bw_chair_40_n04429376_1954.png,n04429376_1954.png,0.0,2.1179688,2.7277246,-0.43116245
alexnet_w1_mlp_simclrhn_probe3,1,485,NaN,oven,oven,bw,0485_cl_dnn_bw_oven_40_n04111531_7862.png,n04111531_7862.png,1.0,5.737897,1.0091548,3.3437257
alexnet_w1_mlp_simclrhn_probe3,1,486,NaN,chair,chair,cr,0486_cl_dnn_cr_chair_40_n02791124_7424.png,n02791124_7424.png,1.0,3.0897105,2.2586524,0.5876468
alexnet_w1_mlp_simclrhn_probe3,1,487,NaN,elephant,dog,bw,0487_cl_dnn_bw_dog_40_n02088466_5521.png,n02088466_5521.png,0.0,1.9604478,2.1011443,-0.09948747
alexnet_w1_mlp_simclrhn_probe3,1,488,NaN,bird,bear,cr,0488_cl_dnn_cr_bear_40_n02133161_12868.png,n02133161_12868.png,0.0,1.0541282,1.3168818,-0.18579486
alexnet_w1_mlp_simclrhn_probe3,1,489,NaN,keyboard,keyboard,bw,0489_cl_dnn_bw_keyboard_40_n04505470_4107.png,n04505470_4107.png,1.0,8.904666,4.2434587,3.2959714
alexnet_w1_mlp_simclrhn_probe3,1,490,NaN,boat,boat,bw,0490_cl_dnn_bw_boat_40_n03662601_855.png,n03662601_855.png,1.0,13.811275,2.382875,8.0810995
alexnet_w1_mlp_simclrhn_probe3,1,491,NaN,bird,bird,cr,0491_cl_dnn_cr_bird_40_n02017213_7558.png,n02017213_7558.png,1.0,3.9085248,0.5862522,2.3492014
alexnet_w1_mlp_simclrhn_probe3,1,492,NaN,airplane,bottle,bw,0492_cl_dnn_bw_bottle_40_n04557648_23801.png,n04557648_23801.png,0.0,-0.30785888,2.5964355,-2.0536463
alexnet_w1_mlp_simclrhn_probe3,1,493,NaN,bird,bird,bw,0493_cl_dnn_bw_bird_40_n01601694_13054.png,n01601694_13054.png,1.0,3.9028714,0.75836563,2.2235014
alexnet_w1_mlp_simclrhn_probe3,1,494,NaN,oven,oven,bw,0494_cl_dnn_bw_oven_40_n04111531_2207.png,n04111531_2207.png,1.0,6.2630315,0.9504321,3.7565749
alexnet_w1_mlp_simclrhn_probe3,1,495,NaN,bird,bird,bw,0495_cl_dnn_bw_bird_40_n02009912_9425.png,n02009912_9425.png,1.0,5.04562,1.7506716,2.3298802
alexnet_w1_mlp_simclrhn_probe3,1,496,NaN,clock,clock,cr,0496_cl_dnn_cr_clock_40_n03196217_6193.png,n03196217_6193.png,1.0,5.030396,4.3645883,0.47079715
alexnet_w1_mlp_simclrhn_probe3,1,497,NaN,boat,boat,bw,0497_cl_dnn_bw_boat_40_n04273569_27625.png,n04273569_27625.png,1.0,7.2687974,1.9388442,3.768846
alexnet_w1_mlp_simclrhn_probe3,1,498,NaN,car,truck,bw,0498_cl_dnn_bw_truck_40_n03417042_29855.png,n03417042_29855.png,0.0,3.6269307,3.702906,-0.053722564
alexnet_w1_mlp_simclrhn_probe3,1,499,NaN,bottle,bottle,cr,0499_cl_dnn_cr_bottle_40_n03983396_4212.png,n03983396_4212.png,1.0,7.5129967,1.986505,3.9078197
alexnet_w1_mlp_simclrhn_probe3,1,500,NaN,cat,cat,bw,0500_cl_dnn_bw_cat_40_n02123597_11613.png,n02123597_11613.png,1.0,3.9033337,2.024466,1.3285601
alexnet_w1_mlp_simclrhn_probe3,1,501,NaN,clock,clock,cr,0501_cl_dnn_cr_clock_40_n02708093_1559.png,n02708093_1559.png,1.0,1.6491562,1.2537503,0.27959418
alexnet_w1_mlp_simclrhn_probe3,1,502,NaN,chair,chair,cr,0502_cl_dnn_cr_chair_40_n02791124_7031.png,n02791124_7031.png,1.0,2.1491785,1.7016358,0.31646046
alexnet_w1_mlp_simclrhn_probe3,1,503,NaN,bottle,bottle,cr,0503_cl_dnn_cr_bottle_40_n04560804_1703.png,n04560804_1703.png,1.0,3.928011,2.385088,1.0910113
alexnet_w1_mlp_simclrhn_probe3,1,504,NaN,bottle,bottle,bw,0504_cl_dnn_bw_bottle_40_n04560804_15679.png,n04560804_15679.png,1.0,4.640115,2.3369746,1.628566
alexnet_w1_mlp_simclrhn_probe3,1,505,NaN,bottle,bottle,bw,0505_cl_dnn_bw_bottle_40_n03983396_1006.png,n03983396_1006.png,1.0,4.2989473,1.8687086,1.7184383
alexnet_w1_mlp_simclrhn_probe3,1,506,NaN,chair,knife,bw,0506_cl_dnn_bw_knife_40_n03041632_100645.png,n03041632_100645.png,0.0,1.1706619,1.2520574,-0.057555314
alexnet_w1_mlp_simclrhn_probe3,1,507,NaN,car,car,cr,0507_cl_dnn_cr_car_40_n02814533_54845.png,n02814533_54845.png,1.0,8.737588,6.2335978,1.7705885
alexnet_w1_mlp_simclrhn_probe3,1,508,NaN,keyboard,keyboard,cr,0508_cl_dnn_cr_keyboard_40_n03085013_20078.png,n03085013_20078.png,1.0,3.857761,1.6903791,1.5325704
alexnet_w1_mlp_simclrhn_probe3,1,509,NaN,chair,chair,cr,0509_cl_dnn_cr_chair_40_n04099969_4543.png,n04099969_4543.png,1.0,2.7144148,1.2914537,1.0061854
alexnet_w1_mlp_simclrhn_probe3,1,510,NaN,bear,bear,cr,0510_cl_dnn_cr_bear_40_n02134418_1253.png,n02134418_1253.png,1.0,5.500778,3.5269704,1.395693
alexnet_w1_mlp_simclrhn_probe3,1,511,NaN,bicycle,bicycle,bw,0511_cl_dnn_bw_bicycle_40_n02835271_8137.png,n02835271_8137.png,1.0,6.3627567,1.2260138,3.632226
alexnet_w1_mlp_simclrhn_probe3,1,512,NaN,keyboard,keyboard,bw,0512_cl_dnn_bw_keyboard_40_n04505470_7312.png,n04505470_7312.png,1.0,8.023381,2.0234456,4.242595
alexnet_w1_mlp_simclrhn_probe3,1,513,NaN,elephant,elephant,cr,0513_cl_dnn_cr_elephant_40_n02504013_2460.png,n02504013_2460.png,1.0,13.4419,3.378562,7.1158547
alexnet_w1_mlp_simclrhn_probe3,1,514,NaN,clock,clock,cr,0514_cl_dnn_cr_clock_40_n04548280_13469.png,n04548280_13469.png,1.0,0.56211877,0.2622924,0.21200927
alexnet_w1_mlp_simclrhn_probe3,1,515,NaN,car,chair,cr,0515_cl_dnn_cr_chair_40_n02791124_3161.png,n02791124_3161.png,0.0,1.1873667,2.2719173,-0.7668931
alexnet_w1_mlp_simclrhn_probe3,1,516,NaN,elephant,dog,cr,0516_cl_dnn_cr_dog_40_n02093647_1818.png,n02093647_1818.png,0.0,1.3888279,1.536062,-0.10411022
alexnet_w1_mlp_simclrhn_probe3,1,517,NaN,oven,chair,cr,0517_cl_dnn_cr_chair_40_n02791124_4294.png,n02791124_4294.png,0.0,2.2259262,2.2995284,-0.052044615
alexnet_w1_mlp_simclrhn_probe3,1,518,NaN,cat,cat,cr,0518_cl_dnn_cr_cat_40_n02124075_3533.png,n02124075_3533.png,1.0,13.993397,1.6047132,8.760122
alexnet_w1_mlp_simclrhn_probe3,1,519,NaN,boat,boat,cr,0519_cl_dnn_cr_boat_40_n03344393_2480.png,n03344393_2480.png,1.0,6.137421,2.8778532,2.3048627
alexnet_w1_mlp_simclrhn_probe3,1,520,NaN,car,car,bw,0520_cl_dnn_bw_car_40_n02814533_95054.png,n02814533_95054.png,1.0,3.3995807,1.1603882,1.5833483
alexnet_w1_mlp_simclrhn_probe3,1,521,NaN,bottle,bottle,cr,0521_cl_dnn_cr_bottle_40_n03937543_1808.png,n03937543_1808.png,1.0,8.731595,1.7202569,4.957765
alexnet_w1_mlp_simclrhn_probe3,1,522,NaN,car,car,cr,0522_cl_dnn_cr_car_40_n02814533_72213.png,n02814533_72213.png,1.0,10.203343,1.3832691,6.2367344
alexnet_w1_mlp_simclrhn_probe3,1,523,NaN,keyboard,clock,cr,0523_cl_dnn_cr_clock_40_n03196217_1499.png,n03196217_1499.png,0.0,3.290161,4.7557197,-1.0363066
alexnet_w1_mlp_simclrhn_probe3,1,524,NaN,cat,cat,cr,0524_cl_dnn_cr_cat_40_n02123045_5300.png,n02123045_5300.png,1.0,6.265869,0.72940034,3.9148748
alexnet_w1_mlp_simclrhn_probe3,1,525,NaN,bird,bird,bw,0525_cl_dnn_bw_bird_40_n02006656_3185.png,n02006656_3185.png,1.0,1.2874252,0.487983,0.565291
alexnet_w1_mlp_simclrhn_probe3,1,526,NaN,clock,clock,cr,0526_cl_dnn_cr_clock_40_n03196217_4541.png,n03196217_4541.png,1.0,3.0884132,1.5629404,1.0786723
alexnet_w1_mlp_simclrhn_probe3,1,527,NaN,cat,cat,cr,0527_cl_dnn_cr_cat_40_n02123159_2317.png,n02123159_2317.png,1.0,12.747279,1.5051475,7.949388
alexnet_w1_mlp_simclrhn_probe3,1,528,NaN,bear,bear,cr,0528_cl_dnn_cr_bear_40_n02133161_1362.png,n02133161_1362.png,1.0,3.7153769,3.3481038,0.2597013
alexnet_w1_mlp_simclrhn_probe3,1,529,NaN,clock,clock,bw,0529_cl_dnn_bw_clock_40_n04548280_1202.png,n04548280_1202.png,1.0,3.059831,1.3194861,1.2306097
alexnet_w1_mlp_simclrhn_probe3,1,530,NaN,dog,dog,bw,0530_cl_dnn_bw_dog_40_n02095570_6717.png,n02095570_6717.png,1.0,1.7217457,1.3694654,0.24909985
alexnet_w1_mlp_simclrhn_probe3,1,531,NaN,car,car,bw,0531_cl_dnn_bw_car_40_n03100240_15941.png,n03100240_15941.png,1.0,12.066188,9.5225315,1.7986367
alexnet_w1_mlp_simclrhn_probe3,1,532,NaN,oven,chair,bw,0532_cl_dnn_bw_chair_40_n02791124_1443.png,n02791124_1443.png,0.0,0.9486829,1.339573,-0.27640107
alexnet_w1_mlp_simclrhn_probe3,1,533,NaN,bottle,bottle,cr,0533_cl_dnn_cr_bottle_40_n04557648_830.png,n04557648_830.png,1.0,7.48829,4.3099146,2.2474508
alexnet_w1_mlp_simclrhn_probe3,1,534,NaN,truck,truck,cr,0534_cl_dnn_cr_truck_40_n03417042_8298.png,n03417042_8298.png,1.0,13.1931305,4.945189,5.8321757
alexnet_w1_mlp_simclrhn_probe3,1,535,NaN,clock,clock,bw,0535_cl_dnn_bw_clock_40_n02708093_4569.png,n02708093_4569.png,1.0,8.724307,0.43009555,5.8648934
alexnet_w1_mlp_simclrhn_probe3,1,536,NaN,keyboard,keyboard,cr,0536_cl_dnn_cr_keyboard_40_n03085013_7576.png,n03085013_7576.png,1.0,2.242134,1.1370012,0.781447
alexnet_w1_mlp_simclrhn_probe3,1,537,NaN,truck,truck,bw,0537_cl_dnn_bw_truck_40_n03417042_27093.png,n03417042_27093.png,1.0,8.367044,1.7384915,4.6870947
alexnet_w1_mlp_simclrhn_probe3,1,538,NaN,elephant,elephant,cr,0538_cl_dnn_cr_elephant_40_n02504013_13560.png,n02504013_13560.png,1.0,2.177929,1.5585034,0.438
alexnet_w1_mlp_simclrhn_probe3,1,539,NaN,car,car,bw,0539_cl_dnn_bw_car_40_n04285008_12045.png,n04285008_12045.png,1.0,10.455981,4.3302135,4.331572
alexnet_w1_mlp_simclrhn_probe3,1,540,NaN,airplane,airplane,cr,0540_cl_dnn_cr_airplane_40_n02690373_5176.png,n02690373_5176.png,1.0,19.72625,3.684968,11.3429
alexnet_w1_mlp_simclrhn_probe3,1,541,NaN,bicycle,bicycle,bw,0541_cl_dnn_bw_bicycle_40_n03792782_6194.png,n03792782_6194.png,1.0,10.6092825,2.2780719,5.891056
alexnet_w1_mlp_simclrhn_probe3,1,542,NaN,oven,oven,cr,0542_cl_dnn_cr_oven_40_n04111531_15912.png,n04111531_15912.png,1.0,5.392011,1.326675,2.8746269
alexnet_w1_mlp_simclrhn_probe3,1,543,NaN,oven,oven,cr,0543_cl_dnn_cr_oven_40_n04111531_2592.png,n04111531_2592.png,1.0,3.7780845,1.029031,1.9438744
alexnet_w1_mlp_simclrhn_probe3,1,544,NaN,bird,bird,cr,0544_cl_dnn_cr_bird_40_n02011460_2435.png,n02011460_2435.png,1.0,0.93473154,0.7717446,0.11524917
alexnet_w1_mlp_simclrhn_probe3,1,545,NaN,truck,car,cr,0545_cl_dnn_cr_car_40_n02814533_33205.png,n02814533_33205.png,0.0,5.5010796,8.062708,-1.8113447
alexnet_w1_mlp_simclrhn_probe3,1,546,NaN,chair,oven,bw,0546_cl_dnn_bw_oven_40_n04111531_14959.png,n04111531_14959.png,0.0,1.5212383,2.4851398,-0.6815813
alexnet_w1_mlp_simclrhn_probe3,1,547,NaN,clock,clock,cr,0547_cl_dnn_cr_clock_40_n04548280_6743.png,n04548280_6743.png,1.0,8.866639,0.45451272,5.9482718
alexnet_w1_mlp_simclrhn_probe3,1,548,NaN,knife,knife,bw,0548_cl_dnn_bw_knife_40_n03041632_15299.png,n03041632_15299.png,1.0,0.9716197,0.67126006,0.21238635
alexnet_w1_mlp_simclrhn_probe3,1,549,NaN,knife,clock,bw,0549_cl_dnn_bw_clock_40_n03196217_127.png,n03196217_127.png,0.0,0.5234006,1.1201601,-0.4219727
alexnet_w1_mlp_simclrhn_probe3,1,550,NaN,boat,boat,bw,0550_cl_dnn_bw_boat_40_n04273569_12917.png,n04273569_12917.png,1.0,6.553492,3.6565423,2.0484529
alexnet_w1_mlp_simclrhn_probe3,1,551,NaN,airplane,airplane,cr,0551_cl_dnn_cr_airplane_40_n02690373_9626.png,n02690373_9626.png,1.0,11.199352,6.3568673,3.424154
alexnet_w1_mlp_simclrhn_probe3,1,552,NaN,bear,bear,cr,0552_cl_dnn_cr_bear_40_n02134084_20500.png,n02134084_20500.png,1.0,1.8252459,1.4476187,0.2670227
alexnet_w1_mlp_simclrhn_probe3,1,553,NaN,elephant,bear,bw,0553_cl_dnn_bw_bear_40_n02132136_6890.png,n02132136_6890.png,0.0,3.3457081,3.4625149,-0.08259484
alexnet_w1_mlp_simclrhn_probe3,1,554,NaN,bottle,bottle,bw,0554_cl_dnn_bw_bottle_40_n02823428_3049.png,n02823428_3049.png,1.0,6.284724,1.7525553,3.2047274
alexnet_w1_mlp_simclrhn_probe3,1,555,NaN,knife,keyboard,cr,0555_cl_dnn_cr_keyboard_40_n03085013_22837.png,n03085013_22837.png,0.0,2.3861659,2.462034,-0.05364687
alexnet_w1_mlp_simclrhn_probe3,1,556,NaN,keyboard,keyboard,bw,0556_cl_dnn_bw_keyboard_40_n03085013_3264.png,n03085013_3264.png,1.0,6.8533278,0.37389028,4.581654
alexnet_w1_mlp_simclrhn_probe3,1,557,NaN,bear,bear,bw,0557_cl_dnn_bw_bear_40_n02134418_7795.png,n02134418_7795.png,1.0,5.4796762,3.0306056,1.7317545
alexnet_w1_mlp_simclrhn_probe3,1,558,NaN,bear,boat,bw,0558_cl_dnn_bw_boat_40_n02951358_34163.png,n02951358_34163.png,0.0,-1.3607899,2.2506647,-2.553684
alexnet_w1_mlp_simclrhn_probe3,1,559,NaN,bear,bear,cr,0559_cl_dnn_cr_bear_40_n02132136_8637.png,n02132136_8637.png,1.0,5.9888124,2.2270205,2.6599886
alexnet_w1_mlp_simclrhn_probe3,1,560,NaN,truck,truck,cr,0560_cl_dnn_cr_truck_40_n03417042_4218.png,n03417042_4218.png,1.0,5.995424,3.0902665,2.0542564
alexnet_w1_mlp_simclrhn_probe3,1,561,NaN,chair,clock,bw,0561_cl_dnn_bw_clock_40_n04548280_4473.png,n04548280_4473.png,0.0,0.7401288,2.7962017,-1.4538631
alexnet_w1_mlp_simclrhn_probe3,1,562,NaN,bear,bear,bw,0562_cl_dnn_bw_bear_40_n02132136_21799.png,n02132136_21799.png,1.0,3.0295906,1.5681548,1.0333912
alexnet_w1_mlp_simclrhn_probe3,1,563,NaN,bird,bird,cr,0563_cl_dnn_cr_bird_40_n01531178_5780.png,n01531178_5780.png,1.0,3.458972,0.40654567,2.1583915
alexnet_w1_mlp_simclrhn_probe3,1,564,NaN,truck,truck,cr,0564_cl_dnn_cr_truck_40_n03796401_27184.png,n03796401_27184.png,1.0,9.195489,1.2561533,5.6139584
alexnet_w1_mlp_simclrhn_probe3,1,565,NaN,clock,clock,bw,0565_cl_dnn_bw_clock_40_n03196217_5258.png,n03196217_5258.png,1.0,2.1586103,1.9098849,0.17587543
alexnet_w1_mlp_simclrhn_probe3,1,566,NaN,airplane,bird,cr,0566_cl_dnn_cr_bird_40_n02002556_15337.png,n02002556_15337.png,0.0,1.4981263,3.9618838,-1.7421397
alexnet_w1_mlp_simclrhn_probe3,1,567,NaN,elephant,bottle,cr,0567_cl_dnn_cr_bottle_40_n04560804_3683.png,n04560804_3683.png,0.0,0.32492,1.9700232,-1.1632637
alexnet_w1_mlp_simclrhn_probe3,1,568,NaN,bicycle,bicycle,cr,0568_cl_dnn_cr_bicycle_40_n02835271_8511.png,n02835271_8511.png,1.0,14.065703,1.8540657,8.634932
alexnet_w1_mlp_simclrhn_probe3,1,569,NaN,elephant,bear,cr,0569_cl_dnn_cr_bear_40_n02134084_23974.png,n02134084_23974.png,0.0,2.5142863,2.9317749,-0.29520902
alexnet_w1_mlp_simclrhn_probe3,1,570,NaN,bicycle,dog,bw,0570_cl_dnn_bw_dog_40_n02091244_9271.png,n02091244_9271.png,0.0,0.3189195,1.9007943,-1.1185544
alexnet_w1_mlp_simclrhn_probe3,1,571,NaN,bear,bear,cr,0571_cl_dnn_cr_bear_40_n02133161_6946.png,n02133161_6946.png,1.0,0.60034907,0.38015667,0.15569955
alexnet_w1_mlp_simclrhn_probe3,1,572,NaN,truck,truck,bw,0572_cl_dnn_bw_truck_40_n04467665_10060.png,n04467665_10060.png,1.0,3.1426268,1.7588215,0.9784981
alexnet_w1_mlp_simclrhn_probe3,1,573,NaN,oven,oven,bw,0573_cl_dnn_bw_oven_40_n04111531_5328.png,n04111531_5328.png,1.0,6.945072,1.9173789,3.5551162
alexnet_w1_mlp_simclrhn_probe3,1,574,NaN,bottle,bottle,cr,0574_cl_dnn_cr_bottle_40_n04560804_2005.png,n04560804_2005.png,1.0,0.5373865,0.36577198,0.121349774
alexnet_w1_mlp_simclrhn_probe3,1,575,NaN,bear,bear,bw,0575_cl_dnn_bw_bear_40_n02134084_3695.png,n02134084_3695.png,1.0,1.1178211,0.9380252,0.12713492
alexnet_w1_mlp_simclrhn_probe3,1,576,NaN,cat,cat,bw,0576_cl_dnn_bw_cat_40_n02123597_2219.png,n02123597_2219.png,1.0,2.8645668,0.6472674,1.5678675
alexnet_w1_mlp_simclrhn_probe3,1,577,NaN,keyboard,chair,bw,0577_cl_dnn_bw_chair_40_n02791124_6077.png,n02791124_6077.png,0.0,0.9045154,3.3246164,-1.71127
alexnet_w1_mlp_simclrhn_probe3,1,578,NaN,knife,bottle,cr,0578_cl_dnn_cr_bottle_40_n04579145_7431.png,n04579145_7431.png,0.0,0.17511317,1.2454774,-0.7568618
alexnet_w1_mlp_simclrhn_probe3,1,579,NaN,keyboard,keyboard,bw,0579_cl_dnn_bw_keyboard_40_n04505470_510.png,n04505470_510.png,1.0,3.4469485,2.7645643,0.48251855
alexnet_w1_mlp_simclrhn_probe3,1,580,NaN,oven,oven,cr,0580_cl_dnn_cr_oven_40_n04111531_4452.png,n04111531_4452.png,1.0,5.548008,0.6395507,3.4708035
alexnet_w1_mlp_simclrhn_probe3,1,581,NaN,elephant,elephant,bw,0581_cl_dnn_bw_elephant_40_n02504013_237.png,n02504013_237.png,1.0,9.91475,2.7507637,5.0657034
alexnet_w1_mlp_simclrhn_probe3,1,582,NaN,bear,elephant,cr,0582_cl_dnn_cr_elephant_40_n02504013_10351.png,n02504013_10351.png,0.0,4.356732,4.411905,-0.039013147
alexnet_w1_mlp_simclrhn_probe3,1,583,NaN,elephant,elephant,cr,0583_cl_dnn_cr_elephant_40_n02504458_1304.png,n02504458_1304.png,1.0,14.121744,5.676546,5.971657
alexnet_w1_mlp_simclrhn_probe3,1,584,NaN,cat,dog,bw,0584_cl_dnn_bw_dog_40_n02104365_9837.png,n02104365_9837.png,0.0,1.6404525,1.8645736,-0.15847754
alexnet_w1_mlp_simclrhn_probe3,1,585,NaN,cat,cat,cr,0585_cl_dnn_cr_cat_40_n02123045_9661.png,n02123045_9661.png,1.0,3.5853024,2.899578,0.48488027
alexnet_w1_mlp_simclrhn_probe3,1,586,NaN,knife,bottle,bw,0586_cl_dnn_bw_bottle_40_n02823428_5214.png,n02823428_5214.png,0.0,0.6248223,1.4072675,-0.55327225
alexnet_w1_mlp_simclrhn_probe3,1,587,NaN,bird,bird,bw,0587_cl_dnn_bw_bird_40_n01828970_5448.png,n01828970_5448.png,1.0,3.2470856,2.5454605,0.49612388
alexnet_w1_mlp_simclrhn_probe3,1,588,NaN,chair,car,cr,0588_cl_dnn_cr_car_40_n02814533_83874.png,n02814533_83874.png,0.0,1.0569304,1.9410129,-0.62514067
alexnet_w1_mlp_simclrhn_probe3,1,589,NaN,oven,oven,bw,0589_cl_dnn_bw_oven_40_n04111531_8036.png,n04111531_8036.png,1.0,5.9643626,0.3783248,3.9499252
alexnet_w1_mlp_simclrhn_probe3,1,590,NaN,oven,oven,cr,0590_cl_dnn_cr_oven_40_n04111531_7355.png,n04111531_7355.png,1.0,3.3551884,1.5406866,1.2830465
alexnet_w1_mlp_simclrhn_probe3,1,591,NaN,car,car,bw,0591_cl_dnn_bw_car_40_n04285008_13354.png,n04285008_13354.png,1.0,4.645381,4.1912546,0.32111582
alexnet_w1_mlp_simclrhn_probe3,1,592,NaN,keyboard,clock,cr,0592_cl_dnn_cr_clock_40_n02708093_8267.png,n02708093_8267.png,0.0,1.6694671,3.6465461,-1.398006
alexnet_w1_mlp_simclrhn_probe3,1,593,NaN,cat,cat,bw,0593_cl_dnn_bw_cat_40_n02124075_14242.png,n02124075_14242.png,1.0,5.9414897,0.519476,3.8339427
alexnet_w1_mlp_simclrhn_probe3,1,594,NaN,knife,knife,cr,0594_cl_dnn_cr_knife_40_n03041632_4279.png,n03041632_4279.png,1.0,1.9490142,0.9605082,0.69897926
alexnet_w1_mlp_simclrhn_probe3,1,595,NaN,oven,oven,cr,0595_cl_dnn_cr_oven_40_n04111531_2296.png,n04111531_2296.png,1.0,5.517767,1.8900121,2.5652099
alexnet_w1_mlp_simclrhn_probe3,1,596,NaN,boat,boat,cr,0596_cl_dnn_cr_boat_40_n03344393_5859.png,n03344393_5859.png,1.0,9.423597,1.6620932,5.488212
alexnet_w1_mlp_simclrhn_probe3,1,597,NaN,car,car,cr,0597_cl_dnn_cr_car_40_n02814533_57176.png,n02814533_57176.png,1.0,7.7971115,5.940239,1.3130072
alexnet_w1_mlp_simclrhn_probe3,1,598,NaN,cat,cat,bw,0598_cl_dnn_bw_cat_40_n02123159_1769.png,n02123159_1769.png,1.0,0.7518169,0.5088731,0.17178723
alexnet_w1_mlp_simclrhn_probe3,1,599,NaN,clock,clock,cr,0599_cl_dnn_cr_clock_40_n02708093_4976.png,n02708093_4976.png,1.0,9.368941,0.6548688,6.16178
alexnet_w1_mlp_simclrhn_probe3,1,600,NaN,car,truck,cr,0600_cl_dnn_cr_truck_40_n03796401_8864.png,n03796401_8864.png,0.0,3.8715549,5.855555,-1.4029
alexnet_w1_mlp_simclrhn_probe3,1,601,NaN,clock,clock,bw,0601_cl_dnn_bw_clock_40_n03196217_868.png,n03196217_868.png,1.0,3.89921,2.9383678,0.679418
alexnet_w1_mlp_simclrhn_probe3,1,602,NaN,cat,keyboard,bw,0602_cl_dnn_bw_keyboard_40_n03085013_3910.png,n03085013_3910.png,0.0,0.233223,2.2805688,-1.4476922
alexnet_w1_mlp_simclrhn_probe3,1,603,NaN,bicycle,bicycle,cr,0603_cl_dnn_cr_bicycle_40_n03792782_5466.png,n03792782_5466.png,1.0,11.073006,1.0564063,7.0828056
alexnet_w1_mlp_simclrhn_probe3,1,604,NaN,bear,bear,bw,0604_cl_dnn_bw_bear_40_n02132136_23248.png,n02132136_23248.png,1.0,5.4048653,0.86812156,3.2079623
alexnet_w1_mlp_simclrhn_probe3,1,605,NaN,truck,truck,bw,0605_cl_dnn_bw_truck_40_n03417042_2794.png,n03417042_2794.png,1.0,4.818383,0.8186498,2.8282387
alexnet_w1_mlp_simclrhn_probe3,1,606,NaN,oven,chair,bw,0606_cl_dnn_bw_chair_40_n02791124_7324.png,n02791124_7324.png,0.0,1.7785718,3.8979757,-1.4986448
alexnet_w1_mlp_simclrhn_probe3,1,607,NaN,bicycle,bicycle,bw,0607_cl_dnn_bw_bicycle_40_n02835271_6736.png,n02835271_6736.png,1.0,7.5065455,1.897388,3.9662733
alexnet_w1_mlp_simclrhn_probe3,1,608,NaN,clock,clock,bw,0608_cl_dnn_bw_clock_40_n04548280_8990.png,n04548280_8990.png,1.0,12.707881,1.6206187,7.8398786
alexnet_w1_mlp_simclrhn_probe3,1,609,NaN,airplane,airplane,bw,0609_cl_dnn_bw_airplane_40_n02690373_971.png,n02690373_971.png,1.0,3.067141,0.5906198,1.751165
alexnet_w1_mlp_simclrhn_probe3,1,610,NaN,bear,bear,bw,0610_cl_dnn_bw_bear_40_n02132136_23853.png,n02132136_23853.png,1.0,1.4652898,0.963747,0.35464433
alexnet_w1_mlp_simclrhn_probe3,1,611,NaN,clock,clock,cr,0611_cl_dnn_cr_clock_40_n03196217_3416.png,n03196217_3416.png,1.0,4.0912547,2.7249458,0.9661263
alexnet_w1_mlp_simclrhn_probe3,1,612,NaN,knife,clock,bw,0612_cl_dnn_bw_clock_40_n04548280_4346.png,n04548280_4346.png,0.0,0.41808662,0.74909866,-0.23406087
alexnet_w1_mlp_simclrhn_probe3,1,613,NaN,oven,oven,cr,0613_cl_dnn_cr_oven_40_n04111531_2342.png,n04111531_2342.png,1.0,8.3419075,1.7035261,4.6940446
alexnet_w1_mlp_simclrhn_probe3,1,614,NaN,chair,chair,bw,0614_cl_dnn_bw_chair_40_n04099969_8509.png,n04099969_8509.png,1.0,2.483018,1.1255693,0.9598611
alexnet_w1_mlp_simclrhn_probe3,1,615,NaN,bottle,bottle,bw,0615_cl_dnn_bw_bottle_40_n03937543_4340.png,n03937543_4340.png,1.0,0.7192339,0.6766202,0.030132426
alexnet_w1_mlp_simclrhn_probe3,1,616,NaN,boat,clock,bw,0616_cl_dnn_bw_clock_40_n02708093_6655.png,n02708093_6655.png,0.0,-0.07834663,2.6814232,-1.951452
alexnet_w1_mlp_simclrhn_probe3,1,617,NaN,cat,cat,cr,0617_cl_dnn_cr_cat_40_n02123159_1339.png,n02123159_1339.png,1.0,8.309075,0.5494847,5.4868593
alexnet_w1_mlp_simclrhn_probe3,1,618,NaN,chair,knife,bw,0618_cl_dnn_bw_knife_40_n03041632_30553.png,n03041632_30553.png,0.0,1.8484865,1.9541538,-0.07471802
alexnet_w1_mlp_simclrhn_probe3,1,619,NaN,bicycle,bicycle,cr,0619_cl_dnn_cr_bicycle_40_n03792782_18707.png,n03792782_18707.png,1.0,10.614069,2.3567042,5.8388386
alexnet_w1_mlp_simclrhn_probe3,1,620,NaN,elephant,elephant,bw,0620_cl_dnn_bw_elephant_40_n02504458_3648.png,n02504458_3648.png,1.0,22.381039,7.087429,10.814216
alexnet_w1_mlp_simclrhn_probe3,1,621,NaN,elephant,elephant,cr,0621_cl_dnn_cr_elephant_40_n02504458_1179.png,n02504458_1179.png,1.0,15.791165,6.4101844,6.6333556
alexnet_w1_mlp_simclrhn_probe3,1,622,NaN,clock,clock,bw,0622_cl_dnn_bw_clock_40_n02708093_391.png,n02708093_391.png,1.0,5.3202767,1.4335089,2.74836
alexnet_w1_mlp_simclrhn_probe3,1,623,NaN,airplane,car,cr,0623_cl_dnn_cr_car_40_n04285008_3453.png,n04285008_3453.png,0.0,0.5986786,3.9700658,-2.383931
alexnet_w1_mlp_simclrhn_probe3,1,624,NaN,airplane,airplane,bw,0624_cl_dnn_bw_airplane_40_n02690373_2800.png,n02690373_2800.png,1.0,8.545217,1.2499076,5.1585627
alexnet_w1_mlp_simclrhn_probe3,1,625,NaN,cat,cat,cr,0625_cl_dnn_cr_cat_40_n02123394_979.png,n02123394_979.png,1.0,3.392215,2.1210122,0.89887613
alexnet_w1_mlp_simclrhn_probe3,1,626,NaN,bear,dog,cr,0626_cl_dnn_cr_dog_40_n02105641_4701.png,n02105641_4701.png,0.0,1.1785487,2.9645905,-1.2629223
alexnet_w1_mlp_simclrhn_probe3,1,627,NaN,boat,boat,cr,0627_cl_dnn_cr_boat_40_n04273569_13641.png,n04273569_13641.png,1.0,6.904692,3.8815897,2.1376562
alexnet_w1_mlp_simclrhn_probe3,1,628,NaN,airplane,car,cr,0628_cl_dnn_cr_car_40_n02814533_74825.png,n02814533_74825.png,0.0,-0.5498657,2.1046095,-1.8769975
alexnet_w1_mlp_simclrhn_probe3,1,629,NaN,airplane,airplane,cr,0629_cl_dnn_cr_airplane_40_n02690373_6812.png,n02690373_6812.png,1.0,12.892025,1.7675432,7.866197
alexnet_w1_mlp_simclrhn_probe3,1,630,NaN,car,car,bw,0630_cl_dnn_bw_car_40_n03100240_19223.png,n03100240_19223.png,1.0,15.939971,4.2737913,8.249235
alexnet_w1_mlp_simclrhn_probe3,1,631,NaN,bottle,bottle,bw,0631_cl_dnn_bw_bottle_40_n03983396_3817.png,n03983396_3817.png,1.0,8.335118,2.6533551,4.0176134
alexnet_w1_mlp_simclrhn_probe3,1,632,NaN,elephant,elephant,bw,0632_cl_dnn_bw_elephant_40_n02504013_1432.png,n02504013_1432.png,1.0,8.037451,2.1656067,4.152021
alexnet_w1_mlp_simclrhn_probe3,1,633,NaN,boat,boat,cr,0633_cl_dnn_cr_boat_40_n03662601_35008.png,n03662601_35008.png,1.0,7.7896905,5.6213455,1.5332514
alexnet_w1_mlp_simclrhn_probe3,1,634,NaN,oven,oven,bw,0634_cl_dnn_bw_oven_40_n04111531_14055.png,n04111531_14055.png,1.0,5.769368,1.929559,2.7151551
alexnet_w1_mlp_simclrhn_probe3,1,635,NaN,airplane,airplane,bw,0635_cl_dnn_bw_airplane_40_n02690373_9812.png,n02690373_9812.png,1.0,10.558938,2.6144538,5.6175985
alexnet_w1_mlp_simclrhn_probe3,1,636,NaN,truck,car,cr,0636_cl_dnn_cr_car_40_n04285008_6200.png,n04285008_6200.png,0.0,5.220425,6.046262,-0.5839547
alexnet_w1_mlp_simclrhn_probe3,1,637,NaN,clock,clock,cr,0637_cl_dnn_cr_clock_40_n04548280_5889.png,n04548280_5889.png,1.0,5.4890137,1.2338552,3.0088515
alexnet_w1_mlp_simclrhn_probe3,1,638,NaN,chair,chair,bw,0638_cl_dnn_bw_chair_40_n03376595_2924.png,n03376595_2924.png,1.0,1.1464477,0.83547765,0.219889
alexnet_w1_mlp_simclrhn_probe3,1,639,NaN,airplane,airplane,bw,0639_cl_dnn_bw_airplane_40_n02690373_693.png,n02690373_693.png,1.0,5.231299,2.31037,2.0654087
alexnet_w1_mlp_simclrhn_probe3,1,640,NaN,bicycle,bicycle,bw,0640_cl_dnn_bw_bicycle_40_n03792782_1778.png,n03792782_1778.png,1.0,10.806588,3.368802,5.2593093
alexnet_w1_mlp_simclrhn_probe3,1,641,NaN,clock,clock,cr,0641_cl_dnn_cr_clock_40_n02708093_444.png,n02708093_444.png,1.0,5.2025447,1.8995202,2.335591
alexnet_w1_mlp_simclrhn_probe3,1,642,NaN,clock,clock,cr,0642_cl_dnn_cr_clock_40_n02708093_3385.png,n02708093_3385.png,1.0,3.7961452,0.89021814,2.0548007
alexnet_w1_mlp_simclrhn_probe3,1,643,NaN,clock,clock,cr,0643_cl_dnn_cr_clock_40_n03196217_970.png,n03196217_970.png,1.0,2.9520733,1.8666264,0.7675269
alexnet_w1_mlp_simclrhn_probe3,1,644,NaN,keyboard,clock,bw,0644_cl_dnn_bw_clock_40_n04548280_4839.png,n04548280_4839.png,0.0,0.58180356,2.2385764,-1.1715153
alexnet_w1_mlp_simclrhn_probe3,1,645,NaN,truck,truck,bw,0645_cl_dnn_bw_truck_40_n03796401_1853.png,n03796401_1853.png,1.0,6.138147,2.4923618,2.5779593
alexnet_w1_mlp_simclrhn_probe3,1,646,NaN,oven,bottle,bw,0646_cl_dnn_bw_bottle_40_n04591713_2680.png,n04591713_2680.png,0.0,0.73417026,1.8879799,-0.8158666
alexnet_w1_mlp_simclrhn_probe3,1,647,NaN,clock,clock,bw,0647_cl_dnn_bw_clock_40_n02708093_3691.png,n02708093_3691.png,1.0,12.004092,0.8650312,7.876506
alexnet_w1_mlp_simclrhn_probe3,1,648,NaN,cat,cat,bw,0648_cl_dnn_bw_cat_40_n02123045_12762.png,n02123045_12762.png,1.0,12.926834,0.33948472,8.9005995
alexnet_w1_mlp_simclrhn_probe3,1,649,NaN,cat,cat,cr,0649_cl_dnn_cr_cat_40_n02124075_17464.png,n02124075_17464.png,1.0,6.316894,0.84612453,3.8684182
