subj,session,trial,rt,object_response,category,condition,imagename,filename,is_correct,targ_act,max_nontarg_act,decision_margin
alexnet_w1_mlp_simclrhn_probe1,1,1,NaN,oven,oven,cr,0001_cl_dnn_cr_oven_40_n04111531_14126.png,n04111531_14126.png,1.0,8.451113,0.572646,5.570917
alexnet_w1_mlp_simclrhn_probe1,1,2,NaN,bear,bear,cr,0002_cl_dnn_cr_bear_40_n02134084_5274.png,n02134084_5274.png,1.0,7.013903,5.453619,1.1032875
alexnet_w1_mlp_simclrhn_probe1,1,3,NaN,cat,cat,cr,0003_cl_dnn_cr_cat_40_n02123394_133.png,n02123394_133.png,1.0,0.9530732,0.9310695,0.015558973
alexnet_w1_mlp_simclrhn_probe1,1,4,NaN,car,car,cr,0004_cl_dnn_cr_car_40_n02814533_51190.png,n02814533_51190.png,1.0,11.091775,6.794388,3.0387115
alexnet_w1_mlp_simclrhn_probe1,1,5,NaN,chair,chair,bw,0005_cl_dnn_bw_chair_40_n04099969_14986.png,n04099969_14986.png,1.0,2.4009454,-0.45112264,2.0167167
alexnet_w1_mlp_simclrhn_probe1,1,6,NaN,elephant,elephant,cr,0006_cl_dnn_cr_elephant_40_n02504013_6731.png,n02504013_6731.png,1.0,3.2510266,1.2056674,1.4462874
alexnet_w1_mlp_simclrhn_probe1,1,7,NaN,bottle,bottle,cr,0007_cl_dnn_cr_bottle_40_n02823428_987.png,n02823428_987.png,1.0,11.453339,6.3747225,3.591124
alexnet_w1_mlp_simclrhn_probe1,1,8,NaN,chair,truck,cr,0008_cl_dnn_cr_truck_40_n03417042_7458.png,n03417042_7458.png,0.0,0.06976658,1.8210957,-1.2383767
alexnet_w1_mlp_simclrhn_probe1,1,9,NaN,chair,chair,bw,0009_cl_dnn_bw_chair_40_n04099969_4577.png,n04099969_4577.png,1.0,1.4769477,-0.8879004,1.6722002
alexnet_w1_mlp_simclrhn_probe1,1,10,NaN,bicycle,knife,cr,0010_cl_dnn_cr_knife_40_n03041632_83472.png,n03041632_83472.png,0.0,-2.9022322,-0.942328,-1.3858615
alexnet_w1_mlp_simclrhn_probe1,1,11,NaN,elephant,elephant,bw,0011_cl_dnn_bw_elephant_40_n02504458_3485.png,n02504458_3485.png,1.0,9.545928,-0.2230744,6.9077277
alexnet_w1_mlp_simclrhn_probe1,1,12,NaN,elephant,bear,bw,0012_cl_dnn_bw_bear_40_n02133161_1066.png,n02133161_1066.png,0.0,-0.4190424,0.51277256,-0.6588927
alexnet_w1_mlp_simclrhn_probe1,1,13,NaN,elephant,elephant,bw,0013_cl_dnn_bw_elephant_40_n02504013_1060.png,n02504013_1060.png,1.0,2.574305,-0.5311661,2.1958997
alexnet_w1_mlp_simclrhn_probe1,1,14,NaN,elephant,bear,bw,0014_cl_dnn_bw_bear_40_n02134084_1009.png,n02134084_1009.png,0.0,0.1724632,0.5734568,-0.28354535
alexnet_w1_mlp_simclrhn_probe1,1,15,NaN,cat,cat,cr,0015_cl_dnn_cr_cat_40_n02125311_13383.png,n02125311_13383.png,1.0,5.332448,1.5877271,2.6479175
alexnet_w1_mlp_simclrhn_probe1,1,16,NaN,elephant,elephant,bw,0016_cl_dnn_bw_elephant_40_n02504013_257.png,n02504013_257.png,1.0,10.136982,-2.1727657,8.704307
alexnet_w1_mlp_simclrhn_probe1,1,17,NaN,oven,cat,bw,0017_cl_dnn_bw_cat_40_n02123045_6445.png,n02123045_6445.png,0.0,0.04904644,0.4979701,-0.317437
alexnet_w1_mlp_simclrhn_probe1,1,18,NaN,airplane,airplane,bw,0018_cl_dnn_bw_airplane_40_n02690373_3493.png,n02690373_3493.png,1.0,8.965326,0.8842274,5.7141995
alexnet_w1_mlp_simclrhn_probe1,1,19,NaN,airplane,airplane,bw,0019_cl_dnn_bw_airplane_40_n02690373_5184.png,n02690373_5184.png,1.0,4.5844774,-0.01710119,3.2538075
alexnet_w1_mlp_simclrhn_probe1,1,20,NaN,car,truck,bw,0020_cl_dnn_bw_truck_40_n04467665_22637.png,n04467665_22637.png,0.0,0.10440029,1.293413,-0.840759
alexnet_w1_mlp_simclrhn_probe1,1,21,NaN,cat,cat,cr,0021_cl_dnn_cr_cat_40_n02123159_10952.png,n02123159_10952.png,1.0,4.2545834,0.82430136,2.4255757
alexnet_w1_mlp_simclrhn_probe1,1,22,NaN,airplane,airplane,bw,0022_cl_dnn_bw_airplane_40_n02690373_3620.png,n02690373_3620.png,1.0,6.543931,2.7260325,2.699662
alexnet_w1_mlp_simclrhn_probe1,1,23,NaN,truck,bottle,cr,0023_cl_dnn_cr_bottle_40_n04557648_10744.png,n04557648_10744.png,0.0,-2.8441546,-2.4557176,-0.27466646
alexnet_w1_mlp_simclrhn_probe1,1,24,NaN,oven,oven,bw,0024_cl_dnn_bw_oven_40_n04111531_12702.png,n04111531_12702.png,1.0,7.1619244,-0.97040766,5.7504272
alexnet_w1_mlp_simclrhn_probe1,1,25,NaN,truck,bear,cr,0025_cl_dnn_cr_bear_40_n02133161_9949.png,n02133161_9949.png,0.0,-2.4050987,-0.5174799,-1.334748
alexnet_w1_mlp_simclrhn_probe1,1,26,NaN,oven,keyboard,cr,0026_cl_dnn_cr_keyboard_40_n03085013_3489.png,n03085013_3489.png,0.0,-2.1741648,-0.41573694,-1.2433963
alexnet_w1_mlp_simclrhn_probe1,1,27,NaN,elephant,elephant,bw,0027_cl_dnn_bw_elephant_40_n02504458_4633.png,n02504458_4633.png,1.0,2.3170974,-1.2683477,2.5352926
alexnet_w1_mlp_simclrhn_probe1,1,28,NaN,clock,clock,cr,0028_cl_dnn_cr_clock_40_n04548280_7816.png,n04548280_7816.png,1.0,0.14251256,-1.0094491,0.81455994
alexnet_w1_mlp_simclrhn_probe1,1,29,NaN,dog,dog,bw,0029_cl_dnn_bw_dog_40_n02097474_1859.png,n02097474_1859.png,1.0,1.5753915,-0.50819844,1.4733207
alexnet_w1_mlp_simclrhn_probe1,1,30,NaN,cat,cat,bw,0030_cl_dnn_bw_cat_40_n02123394_916.png,n02123394_916.png,1.0,2.7568061,1.2086934,1.094681
alexnet_w1_mlp_simclrhn_probe1,1,31,NaN,elephant,elephant,cr,0031_cl_dnn_cr_elephant_40_n02504458_3525.png,n02504458_3525.png,1.0,3.8847857,-2.4813318,4.501525
alexnet_w1_mlp_simclrhn_probe1,1,32,NaN,bear,bear,bw,0032_cl_dnn_bw_bear_40_n02134418_4456.png,n02134418_4456.png,1.0,1.916289,-0.18704976,1.4872851
alexnet_w1_mlp_simclrhn_probe1,1,33,NaN,keyboard,keyboard,bw,0033_cl_dnn_bw_keyboard_40_n03085013_24045.png,n03085013_24045.png,1.0,2.9104335,0.9698499,1.3721999
alexnet_w1_mlp_simclrhn_probe1,1,34,NaN,oven,knife,bw,0034_cl_dnn_bw_knife_40_n03041632_49363.png,n03041632_49363.png,0.0,-1.6678808,1.4570446,-2.209656
alexnet_w1_mlp_simclrhn_probe1,1,35,NaN,cat,cat,bw,0035_cl_dnn_bw_cat_40_n02123159_7854.png,n02123159_7854.png,1.0,2.6328597,-0.09925582,1.9318974
alexnet_w1_mlp_simclrhn_probe1,1,36,NaN,oven,knife,cr,0036_cl_dnn_cr_knife_40_n03041632_4708.png,n03041632_4708.png,0.0,-2.3076196,2.656968,-3.5104938
alexnet_w1_mlp_simclrhn_probe1,1,37,NaN,chair,chair,cr,0037_cl_dnn_cr_chair_40_n04429376_7788.png,n04429376_7788.png,1.0,0.65259635,-0.7512128,0.99264294
alexnet_w1_mlp_simclrhn_probe1,1,38,NaN,car,car,cr,0038_cl_dnn_cr_car_40_n03100240_9086.png,n03100240_9086.png,1.0,8.762535,4.658018,2.9023318
alexnet_w1_mlp_simclrhn_probe1,1,39,NaN,chair,chair,cr,0039_cl_dnn_cr_chair_40_n03376595_3038.png,n03376595_3038.png,1.0,-2.3721228,-2.961977,0.41708994
alexnet_w1_mlp_simclrhn_probe1,1,40,NaN,truck,truck,bw,0040_cl_dnn_bw_truck_40_n03796401_1758.png,n03796401_1758.png,1.0,2.5277073,1.3965987,0.7998146
alexnet_w1_mlp_simclrhn_probe1,1,41,NaN,boat,boat,cr,0041_cl_dnn_cr_boat_40_n04273569_4324.png,n04273569_4324.png,1.0,3.6899998,-0.46537557,2.9382942
alexnet_w1_mlp_simclrhn_probe1,1,42,NaN,elephant,bear,cr,0042_cl_dnn_cr_bear_40_n02134084_1090.png,n02134084_1090.png,0.0,0.51406884,1.7456905,-0.870888
alexnet_w1_mlp_simclrhn_probe1,1,43,NaN,bicycle,bicycle,bw,0043_cl_dnn_bw_bicycle_40_n03792782_13665.png,n03792782_13665.png,1.0,0.53755385,-3.7910933,3.0608158
alexnet_w1_mlp_simclrhn_probe1,1,44,NaN,knife,knife,bw,0044_cl_dnn_bw_knife_40_n03041632_36215.png,n03041632_36215.png,1.0,1.1005809,-1.484906,1.8282154
alexnet_w1_mlp_simclrhn_probe1,1,45,NaN,car,car,bw,0045_cl_dnn_bw_car_40_n04285008_7770.png,n04285008_7770.png,1.0,7.387392,3.7391076,2.5797267
alexnet_w1_mlp_simclrhn_probe1,1,46,NaN,bottle,bottle,cr,0046_cl_dnn_cr_bottle_40_n03983396_15260.png,n03983396_15260.png,1.0,4.8412027,1.6914041,2.227244
alexnet_w1_mlp_simclrhn_probe1,1,47,NaN,bear,dog,cr,0047_cl_dnn_cr_dog_40_n02091635_6519.png,n02091635_6519.png,0.0,0.45725775,1.6463717,-0.84083056
alexnet_w1_mlp_simclrhn_probe1,1,48,NaN,elephant,elephant,cr,0048_cl_dnn_cr_elephant_40_n02504013_3485.png,n02504013_3485.png,1.0,9.799473,3.4899042,4.461539
alexnet_w1_mlp_simclrhn_probe1,1,49,NaN,oven,oven,cr,0049_cl_dnn_cr_oven_40_n04111531_807.png,n04111531_807.png,1.0,1.2753053,-1.3660748,1.8677378
alexnet_w1_mlp_simclrhn_probe1,1,50,NaN,oven,oven,cr,0050_cl_dnn_cr_oven_40_n04111531_605.png,n04111531_605.png,1.0,4.631438,-0.64571315,3.7315094
alexnet_w1_mlp_simclrhn_probe1,1,51,NaN,elephant,dog,bw,0051_cl_dnn_bw_dog_40_n02109047_2662.png,n02109047_2662.png,0.0,-1.5198444,4.1574764,-4.014472
alexnet_w1_mlp_simclrhn_probe1,1,52,NaN,truck,truck,cr,0052_cl_dnn_cr_truck_40_n03417042_16038.png,n03417042_16038.png,1.0,2.412438,-2.2866454,3.3227537
alexnet_w1_mlp_simclrhn_probe1,1,53,NaN,truck,truck,bw,0053_cl_dnn_bw_truck_40_n03796401_1710.png,n03796401_1710.png,1.0,4.941599,0.35382903,3.2440434
alexnet_w1_mlp_simclrhn_probe1,1,54,NaN,cat,cat,cr,0054_cl_dnn_cr_cat_40_n02125311_20921.png,n02125311_20921.png,1.0,2.1620567,-1.2130687,2.386574
alexnet_w1_mlp_simclrhn_probe1,1,55,NaN,bird,bear,cr,0055_cl_dnn_cr_bear_40_n02133161_575.png,n02133161_575.png,0.0,-4.925618,-3.5928164,-0.94243324
alexnet_w1_mlp_simclrhn_probe1,1,56,NaN,knife,chair,bw,0056_cl_dnn_bw_chair_40_n04429376_21865.png,n04429376_21865.png,0.0,-2.6135902,-2.30727,-0.21660109
alexnet_w1_mlp_simclrhn_probe1,1,57,NaN,bicycle,bird,bw,0057_cl_dnn_bw_bird_40_n01616318_26436.png,n01616318_26436.png,0.0,-4.5330386,-2.2155223,-1.6387315
alexnet_w1_mlp_simclrhn_probe1,1,58,NaN,oven,oven,cr,0058_cl_dnn_cr_oven_40_n04111531_9498.png,n04111531_9498.png,1.0,3.7770176,-0.2747643,2.8650424
alexnet_w1_mlp_simclrhn_probe1,1,59,NaN,bear,bear,bw,0059_cl_dnn_bw_bear_40_n02134418_397.png,n02134418_397.png,1.0,3.6765895,2.1015897,1.1136931
alexnet_w1_mlp_simclrhn_probe1,1,60,NaN,chair,chair,cr,0060_cl_dnn_cr_chair_40_n04099969_23961.png,n04099969_23961.png,1.0,-0.28419304,-2.6667037,1.6846895
alexnet_w1_mlp_simclrhn_probe1,1,61,NaN,bird,dog,bw,0061_cl_dnn_bw_dog_40_n02093256_7181.png,n02093256_7181.png,0.0,-3.5451715,-0.57557446,-2.0998223
alexnet_w1_mlp_simclrhn_probe1,1,62,NaN,bicycle,bicycle,cr,0062_cl_dnn_cr_bicycle_40_n02835271_26731.png,n02835271_26731.png,1.0,4.733921,-0.89762807,3.9821064
alexnet_w1_mlp_simclrhn_probe1,1,63,NaN,cat,cat,cr,0063_cl_dnn_cr_cat_40_n02125311_12557.png,n02125311_12557.png,1.0,1.2225307,-0.91183126,1.5092219
alexnet_w1_mlp_simclrhn_probe1,1,64,NaN,dog,dog,cr,0064_cl_dnn_cr_dog_40_n02093647_2890.png,n02093647_2890.png,1.0,-0.39653945,-0.7416748,0.24404754
alexnet_w1_mlp_simclrhn_probe1,1,65,NaN,keyboard,knife,cr,0065_cl_dnn_cr_knife_40_n03041632_14293.png,n03041632_14293.png,0.0,-1.2236865,-0.23502445,-0.69908965
alexnet_w1_mlp_simclrhn_probe1,1,66,NaN,oven,oven,bw,0066_cl_dnn_bw_oven_40_n04111531_20359.png,n04111531_20359.png,1.0,6.5427027,-4.4734664,7.7896075
alexnet_w1_mlp_simclrhn_probe1,1,67,NaN,truck,truck,bw,0067_cl_dnn_bw_truck_40_n04467665_12177.png,n04467665_12177.png,1.0,9.545213,5.3410606,2.9727845
alexnet_w1_mlp_simclrhn_probe1,1,68,NaN,bicycle,bicycle,cr,0068_cl_dnn_cr_bicycle_40_n02835271_19400.png,n02835271_19400.png,1.0,1.3304031,-1.4357401,1.9559587
alexnet_w1_mlp_simclrhn_probe1,1,69,NaN,truck,truck,cr,0069_cl_dnn_cr_truck_40_n03417042_1263.png,n03417042_1263.png,1.0,3.7308865,1.7370546,1.409852
alexnet_w1_mlp_simclrhn_probe1,1,70,NaN,cat,cat,bw,0070_cl_dnn_bw_cat_40_n02123045_8336.png,n02123045_8336.png,1.0,4.446166,-1.4628612,4.1783133
alexnet_w1_mlp_simclrhn_probe1,1,71,NaN,bear,bear,bw,0071_cl_dnn_bw_bear_40_n02134418_5405.png,n02134418_5405.png,1.0,5.9926443,2.6938245,2.3326178
alexnet_w1_mlp_simclrhn_probe1,1,72,NaN,car,car,bw,0072_cl_dnn_bw_car_40_n04285008_2906.png,n04285008_2906.png,1.0,6.77342,4.1360784,1.8648821
alexnet_w1_mlp_simclrhn_probe1,1,73,NaN,elephant,bird,cr,0073_cl_dnn_cr_bird_40_n01818515_10517.png,n01818515_10517.png,0.0,-2.088121,1.0312505,-2.2057288
alexnet_w1_mlp_simclrhn_probe1,1,74,NaN,truck,truck,cr,0074_cl_dnn_cr_truck_40_n03796401_14203.png,n03796401_14203.png,1.0,0.9396595,-1.399193,1.6538184
alexnet_w1_mlp_simclrhn_probe1,1,75,NaN,bird,bird,bw,0075_cl_dnn_bw_bird_40_n02009229_2503.png,n02009229_2503.png,1.0,-0.17834729,-2.639984,1.7406399
alexnet_w1_mlp_simclrhn_probe1,1,76,NaN,bottle,bottle,bw,0076_cl_dnn_bw_bottle_40_n02823428_6767.png,n02823428_6767.png,1.0,6.2601585,-1.1054825,5.208295
alexnet_w1_mlp_simclrhn_probe1,1,77,NaN,bicycle,bicycle,bw,0077_cl_dnn_bw_bicycle_40_n02835271_12847.png,n02835271_12847.png,1.0,6.329031,-3.8872964,7.224035
alexnet_w1_mlp_simclrhn_probe1,1,78,NaN,bicycle,bicycle,cr,0078_cl_dnn_cr_bicycle_40_n02835271_24104.png,n02835271_24104.png,1.0,11.390963,-0.862751,8.664684
alexnet_w1_mlp_simclrhn_probe1,1,79,NaN,clock,clock,cr,0079_cl_dnn_cr_clock_40_n04548280_77.png,n04548280_77.png,1.0,5.073975,-0.10577965,3.6626399
alexnet_w1_mlp_simclrhn_probe1,1,80,NaN,cat,cat,bw,0080_cl_dnn_bw_cat_40_n02123394_6698.png,n02123394_6698.png,1.0,5.9011903,-1.2668184,5.0685477
alexnet_w1_mlp_simclrhn_probe1,1,81,NaN,keyboard,keyboard,cr,0081_cl_dnn_cr_keyboard_40_n04505470_4356.png,n04505470_4356.png,1.0,12.973415,-1.2598468,10.064436
alexnet_w1_mlp_simclrhn_probe1,1,82,NaN,chair,chair,cr,0082_cl_dnn_cr_chair_40_n04429376_16325.png,n04429376_16325.png,1.0,0.17917705,-0.32577604,0.35705575
alexnet_w1_mlp_simclrhn_probe1,1,83,NaN,elephant,elephant,bw,0083_cl_dnn_bw_elephant_40_n02504458_6721.png,n02504458_6721.png,1.0,0.34113646,-1.4891543,1.294211
alexnet_w1_mlp_simclrhn_probe1,1,84,NaN,truck,truck,cr,0084_cl_dnn_cr_truck_40_n03417042_6213.png,n03417042_6213.png,1.0,14.143183,8.073473,4.291933
alexnet_w1_mlp_simclrhn_probe1,1,85,NaN,cat,dog,bw,0085_cl_dnn_bw_dog_40_n02097130_8277.png,n02097130_8277.png,0.0,-1.4873884,0.78790313,-1.6088741
alexnet_w1_mlp_simclrhn_probe1,1,86,NaN,knife,bottle,cr,0086_cl_dnn_cr_bottle_40_n04557648_1856.png,n04557648_1856.png,0.0,-4.4650493,-0.66097593,-2.689886
alexnet_w1_mlp_simclrhn_probe1,1,87,NaN,bird,bird,bw,0087_cl_dnn_bw_bird_40_n01531178_10905.png,n01531178_10905.png,1.0,-0.84509885,-2.7179043,1.3242735
alexnet_w1_mlp_simclrhn_probe1,1,88,NaN,bear,bear,cr,0088_cl_dnn_cr_bear_40_n02133161_2202.png,n02133161_2202.png,1.0,0.09152163,-0.15955958,0.17754123
alexnet_w1_mlp_simclrhn_probe1,1,89,NaN,elephant,elephant,cr,0089_cl_dnn_cr_elephant_40_n02504458_10439.png,n02504458_10439.png,1.0,1.0797167,-1.9525728,2.1441524
alexnet_w1_mlp_simclrhn_probe1,1,90,NaN,clock,clock,cr,0090_cl_dnn_cr_clock_40_n02708093_6766.png,n02708093_6766.png,1.0,-1.5457472,-2.112396,0.40068126
alexnet_w1_mlp_simclrhn_probe1,1,91,NaN,clock,bottle,bw,0091_cl_dnn_bw_bottle_40_n03983396_2057.png,n03983396_2057.png,0.0,0.17966463,0.18607242,-0.004530997
alexnet_w1_mlp_simclrhn_probe1,1,92,NaN,keyboard,knife,bw,0092_cl_dnn_bw_knife_40_n03041632_10000.png,n03041632_10000.png,0.0,-1.4291552,0.68059707,-1.4918201
alexnet_w1_mlp_simclrhn_probe1,1,93,NaN,cat,cat,cr,0093_cl_dnn_cr_cat_40_n02125311_2959.png,n02125311_2959.png,1.0,4.2483363,-0.30234644,3.2178185
alexnet_w1_mlp_simclrhn_probe1,1,94,NaN,car,car,bw,0094_cl_dnn_bw_car_40_n04285008_13759.png,n04285008_13759.png,1.0,12.046375,6.044572,4.243916
alexnet_w1_mlp_simclrhn_probe1,1,95,NaN,knife,bottle,cr,0095_cl_dnn_cr_bottle_40_n03937543_396.png,n03937543_396.png,0.0,-4.9825583,-1.6668676,-2.3445473
alexnet_w1_mlp_simclrhn_probe1,1,96,NaN,boat,boat,bw,0096_cl_dnn_bw_boat_40_n03662601_3984.png,n03662601_3984.png,1.0,1.5093825,0.21799342,0.91315
alexnet_w1_mlp_simclrhn_probe1,1,97,NaN,truck,truck,bw,0097_cl_dnn_bw_truck_40_n04467665_2230.png,n04467665_2230.png,1.0,2.999858,1.4147961,1.120808
alexnet_w1_mlp_simclrhn_probe1,1,98,NaN,boat,boat,cr,0098_cl_dnn_cr_boat_40_n03662601_28640.png,n03662601_28640.png,1.0,5.777971,-0.20400298,4.229894
alexnet_w1_mlp_simclrhn_probe1,1,99,NaN,cat,cat,cr,0099_cl_dnn_cr_cat_40_n02124075_11039.png,n02124075_11039.png,1.0,-0.4767407,-2.8075447,1.6481274
alexnet_w1_mlp_simclrhn_probe1,1,100,NaN,clock,knife,bw,0100_cl_dnn_bw_knife_40_n03041632_7380.png,n03041632_7380.png,0.0,-0.6420273,1.9812913,-1.8549664
alexnet_w1_mlp_simclrhn_probe1,1,101,NaN,cat,cat,cr,0101_cl_dnn_cr_cat_40_n02123045_6607.png,n02123045_6607.png,1.0,9.647709,-1.6837336,8.01254
alexnet_w1_mlp_simclrhn_probe1,1,102,NaN,chair,chair,cr,0102_cl_dnn_cr_chair_40_n03376595_6704.png,n03376595_6704.png,1.0,0.8984622,-1.5243626,1.7131959
alexnet_w1_mlp_simclrhn_probe1,1,103,NaN,bear,bear,bw,0103_cl_dnn_bw_bear_40_n02133161_12187.png,n02133161_12187.png,1.0,7.6031666,3.1833878,3.1252556
alexnet_w1_mlp_simclrhn_probe1,1,104,NaN,cat,dog,cr,0104_cl_dnn_cr_dog_40_n02110958_2363.png,n02110958_2363.png,0.0,-0.54622686,0.4627601,-0.7134615
alexnet_w1_mlp_simclrhn_probe1,1,105,NaN,airplane,airplane,cr,0105_cl_dnn_cr_airplane_40_n02690373_19438.png,n02690373_19438.png,1.0,8.2859535,-1.0679713,6.614224
alexnet_w1_mlp_simclrhn_probe1,1,106,NaN,bird,bird,cr,0106_cl_dnn_cr_bird_40_n01855032_5511.png,n01855032_5511.png,1.0,-1.0506828,-1.3745896,0.22903669
alexnet_w1_mlp_simclrhn_probe1,1,107,NaN,boat,boat,bw,0107_cl_dnn_bw_boat_40_n04273569_9821.png,n04273569_9821.png,1.0,4.322932,-4.051402,5.921549
alexnet_w1_mlp_simclrhn_probe1,1,108,NaN,elephant,bear,bw,0108_cl_dnn_bw_bear_40_n02133161_13461.png,n02133161_13461.png,0.0,-3.549129,-2.621632,-0.6558394
alexnet_w1_mlp_simclrhn_probe1,1,109,NaN,knife,dog,cr,0109_cl_dnn_cr_dog_40_n02113023_8552.png,n02113023_8552.png,0.0,-3.22809,-2.1703804,-0.7479137
alexnet_w1_mlp_simclrhn_probe1,1,110,NaN,elephant,elephant,cr,0110_cl_dnn_cr_elephant_40_n02504458_1600.png,n02504458_1600.png,1.0,9.302073,-0.26702926,6.7663765
alexnet_w1_mlp_simclrhn_probe1,1,111,NaN,chair,chair,cr,0111_cl_dnn_cr_chair_40_n04099969_4205.png,n04099969_4205.png,1.0,3.9367514,-2.8127184,4.772596
alexnet_w1_mlp_simclrhn_probe1,1,112,NaN,dog,dog,bw,0112_cl_dnn_bw_dog_40_n02105505_2121.png,n02105505_2121.png,1.0,1.8817202,-3.7132905,3.9562702
alexnet_w1_mlp_simclrhn_probe1,1,113,NaN,chair,chair,cr,0113_cl_dnn_cr_chair_40_n02791124_4528.png,n02791124_4528.png,1.0,1.3394458,-0.08640194,1.0082266
alexnet_w1_mlp_simclrhn_probe1,1,114,NaN,airplane,truck,bw,0114_cl_dnn_bw_truck_40_n03417042_5659.png,n03417042_5659.png,0.0,0.9490372,3.345677,-1.6946803
alexnet_w1_mlp_simclrhn_probe1,1,115,NaN,elephant,elephant,cr,0115_cl_dnn_cr_elephant_40_n02504013_10330.png,n02504013_10330.png,1.0,12.657042,-1.5807264,10.067622
alexnet_w1_mlp_simclrhn_probe1,1,116,NaN,cat,cat,cr,0116_cl_dnn_cr_cat_40_n02123394_1594.png,n02123394_1594.png,1.0,2.107568,-0.5179743,1.8565389
alexnet_w1_mlp_simclrhn_probe1,1,117,NaN,boat,bear,bw,0117_cl_dnn_bw_bear_40_n02132136_10654.png,n02132136_10654.png,0.0,-2.0834002,-0.7160066,-0.9668934
alexnet_w1_mlp_simclrhn_probe1,1,118,NaN,bottle,bottle,bw,0118_cl_dnn_bw_bottle_40_n02823428_5265.png,n02823428_5265.png,1.0,2.7224765,0.2580598,1.7426058
alexnet_w1_mlp_simclrhn_probe1,1,119,NaN,airplane,truck,cr,0119_cl_dnn_cr_truck_40_n04467665_3125.png,n04467665_3125.png,0.0,-2.3147786,1.0170583,-2.3559644
alexnet_w1_mlp_simclrhn_probe1,1,120,NaN,airplane,airplane,cr,0120_cl_dnn_cr_airplane_40_n02690373_60.png,n02690373_60.png,1.0,8.565748,1.5833335,4.937313
alexnet_w1_mlp_simclrhn_probe1,1,121,NaN,keyboard,keyboard,cr,0121_cl_dnn_cr_keyboard_40_n03085013_21645.png,n03085013_21645.png,1.0,0.090928674,-0.9076041,0.7060693
alexnet_w1_mlp_simclrhn_probe1,1,122,NaN,car,car,bw,0122_cl_dnn_bw_car_40_n03100240_9471.png,n03100240_9471.png,1.0,0.3347435,-0.49661252,0.5878575
alexnet_w1_mlp_simclrhn_probe1,1,123,NaN,boat,boat,cr,0123_cl_dnn_cr_boat_40_n03344393_9818.png,n03344393_9818.png,1.0,3.733567,2.695834,0.73378813
alexnet_w1_mlp_simclrhn_probe1,1,124,NaN,elephant,elephant,bw,0124_cl_dnn_bw_elephant_40_n02504458_5444.png,n02504458_5444.png,1.0,4.77825,-1.0828485,4.1444225
alexnet_w1_mlp_simclrhn_probe1,1,125,NaN,bottle,bottle,bw,0125_cl_dnn_bw_bottle_40_n04557648_26823.png,n04557648_26823.png,1.0,4.2419257,-2.0954325,4.4811893
alexnet_w1_mlp_simclrhn_probe1,1,126,NaN,elephant,bottle,cr,0126_cl_dnn_cr_bottle_40_n02823428_765.png,n02823428_765.png,0.0,-3.3027637,-2.400022,-0.63833475
alexnet_w1_mlp_simclrhn_probe1,1,127,NaN,cat,cat,bw,0127_cl_dnn_bw_cat_40_n02123045_1787.png,n02123045_1787.png,1.0,4.511173,-4.0522127,6.0552278
alexnet_w1_mlp_simclrhn_probe1,1,128,NaN,car,car,bw,0128_cl_dnn_bw_car_40_n02814533_35863.png,n02814533_35863.png,1.0,6.481878,6.3593082,0.08666977
alexnet_w1_mlp_simclrhn_probe1,1,129,NaN,boat,boat,bw,0129_cl_dnn_bw_boat_40_n02951358_7944.png,n02951358_7944.png,1.0,-2.542879,-2.7913053,0.17566386
alexnet_w1_mlp_simclrhn_probe1,1,130,NaN,cat,dog,bw,0130_cl_dnn_bw_dog_40_n02091467_3727.png,n02091467_3727.png,0.0,1.6444346,1.7324523,-0.062237915
alexnet_w1_mlp_simclrhn_probe1,1,131,NaN,bicycle,bicycle,cr,0131_cl_dnn_cr_bicycle_40_n02835271_5886.png,n02835271_5886.png,1.0,0.48809665,-3.5035748,2.8225381
alexnet_w1_mlp_simclrhn_probe1,1,132,NaN,truck,truck,bw,0132_cl_dnn_bw_truck_40_n04467665_18234.png,n04467665_18234.png,1.0,6.7295046,3.1502392,2.530923
alexnet_w1_mlp_simclrhn_probe1,1,133,NaN,elephant,elephant,cr,0133_cl_dnn_cr_elephant_40_n02504013_4892.png,n02504013_4892.png,1.0,10.243914,2.2944224,5.6211395
alexnet_w1_mlp_simclrhn_probe1,1,134,NaN,keyboard,keyboard,cr,0134_cl_dnn_cr_keyboard_40_n03085013_19618.png,n03085013_19618.png,1.0,6.469471,0.32677698,4.3435407
alexnet_w1_mlp_simclrhn_probe1,1,135,NaN,clock,clock,cr,0135_cl_dnn_cr_clock_40_n03196217_3430.png,n03196217_3430.png,1.0,1.7309285,0.18413982,1.0937448
alexnet_w1_mlp_simclrhn_probe1,1,136,NaN,bicycle,bicycle,bw,0136_cl_dnn_bw_bicycle_40_n03792782_24591.png,n03792782_24591.png,1.0,8.6628895,-2.4717517,7.8733807
alexnet_w1_mlp_simclrhn_probe1,1,137,NaN,bicycle,bird,cr,0137_cl_dnn_cr_bird_40_n02007558_2822.png,n02007558_2822.png,0.0,-7.8016047,-1.6840787,-4.325744
alexnet_w1_mlp_simclrhn_probe1,1,138,NaN,truck,truck,bw,0138_cl_dnn_bw_truck_40_n04467665_71126.png,n04467665_71126.png,1.0,9.212862,5.1372175,2.8819158
alexnet_w1_mlp_simclrhn_probe1,1,139,NaN,bicycle,bicycle,cr,0139_cl_dnn_cr_bicycle_40_n02835271_22263.png,n02835271_22263.png,1.0,9.757729,-0.40284526,7.184611
alexnet_w1_mlp_simclrhn_probe1,1,140,NaN,car,car,bw,0140_cl_dnn_bw_car_40_n04285008_5548.png,n04285008_5548.png,1.0,5.3582077,5.3503714,0.0055411304
alexnet_w1_mlp_simclrhn_probe1,1,141,NaN,oven,oven,bw,0141_cl_dnn_bw_oven_40_n04111531_13006.png,n04111531_13006.png,1.0,1.9345982,0.5562655,0.97462845
alexnet_w1_mlp_simclrhn_probe1,1,142,NaN,car,car,bw,0142_cl_dnn_bw_car_40_n04285008_11410.png,n04285008_11410.png,1.0,5.75787,-0.56549954,4.4712977
alexnet_w1_mlp_simclrhn_probe1,1,143,NaN,oven,chair,bw,0143_cl_dnn_bw_chair_40_n04429376_2304.png,n04429376_2304.png,0.0,-2.2804546,4.213613,-4.5919995
alexnet_w1_mlp_simclrhn_probe1,1,144,NaN,boat,boat,cr,0144_cl_dnn_cr_boat_40_n03662601_27165.png,n03662601_27165.png,1.0,5.8003473,4.2539577,1.0934626
alexnet_w1_mlp_simclrhn_probe1,1,145,NaN,truck,truck,bw,0145_cl_dnn_bw_truck_40_n04467665_70308.png,n04467665_70308.png,1.0,3.4099193,1.2686819,1.5140834
alexnet_w1_mlp_simclrhn_probe1,1,146,NaN,bicycle,bicycle,cr,0146_cl_dnn_cr_bicycle_40_n03792782_51414.png,n03792782_51414.png,1.0,2.1312428,-1.242733,2.3857613
alexnet_w1_mlp_simclrhn_probe1,1,147,NaN,knife,knife,cr,0147_cl_dnn_cr_knife_40_n03041632_44738.png,n03041632_44738.png,1.0,2.0700235,-0.11597031,1.5457312
alexnet_w1_mlp_simclrhn_probe1,1,148,NaN,elephant,elephant,bw,0148_cl_dnn_bw_elephant_40_n02504458_11363.png,n02504458_11363.png,1.0,4.375359,-2.9243734,5.16169
alexnet_w1_mlp_simclrhn_probe1,1,149,NaN,truck,truck,cr,0149_cl_dnn_cr_truck_40_n04467665_4899.png,n04467665_4899.png,1.0,5.633891,2.0253568,2.551619
alexnet_w1_mlp_simclrhn_probe1,1,150,NaN,cat,bear,cr,0150_cl_dnn_cr_bear_40_n02134418_685.png,n02134418_685.png,0.0,-0.61040246,-0.49504733,-0.0815684
alexnet_w1_mlp_simclrhn_probe1,1,151,NaN,keyboard,keyboard,bw,0151_cl_dnn_bw_keyboard_40_n04505470_4363.png,n04505470_4363.png,1.0,3.5635817,-0.21860392,2.6744092
alexnet_w1_mlp_simclrhn_probe1,1,152,NaN,oven,oven,bw,0152_cl_dnn_bw_oven_40_n04111531_12468.png,n04111531_12468.png,1.0,6.009426,0.12527871,4.160721
alexnet_w1_mlp_simclrhn_probe1,1,153,NaN,oven,bottle,cr,0153_cl_dnn_cr_bottle_40_n04591713_5559.png,n04591713_5559.png,0.0,-4.067168,-1.57194,-1.7643929
alexnet_w1_mlp_simclrhn_probe1,1,154,NaN,elephant,elephant,cr,0154_cl_dnn_cr_elephant_40_n02504013_3197.png,n02504013_3197.png,1.0,3.053106,-0.9183405,2.8082368
alexnet_w1_mlp_simclrhn_probe1,1,155,NaN,oven,bird,bw,0155_cl_dnn_bw_bird_40_n01817953_5039.png,n01817953_5039.png,0.0,-3.775667,0.6670958,-3.1415079
alexnet_w1_mlp_simclrhn_probe1,1,156,NaN,bicycle,bicycle,cr,0156_cl_dnn_cr_bicycle_40_n03792782_3296.png,n03792782_3296.png,1.0,7.801067,-0.59843034,5.9393415
alexnet_w1_mlp_simclrhn_probe1,1,157,NaN,dog,bird,cr,0157_cl_dnn_cr_bird_40_n01855672_5670.png,n01855672_5670.png,0.0,-6.7317843,-3.4896047,-2.2925673
alexnet_w1_mlp_simclrhn_probe1,1,158,NaN,oven,oven,cr,0158_cl_dnn_cr_oven_40_n04111531_2260.png,n04111531_2260.png,1.0,7.9768996,-0.30572253,5.8566985
alexnet_w1_mlp_simclrhn_probe1,1,159,NaN,cat,cat,cr,0159_cl_dnn_cr_cat_40_n02123045_5932.png,n02123045_5932.png,1.0,-0.53426623,-1.7980672,0.89364225
alexnet_w1_mlp_simclrhn_probe1,1,160,NaN,cat,dog,cr,0160_cl_dnn_cr_dog_40_n02100583_1267.png,n02100583_1267.png,0.0,-4.1778255,-2.2139285,-1.3886849
alexnet_w1_mlp_simclrhn_probe1,1,161,NaN,dog,dog,bw,0161_cl_dnn_bw_dog_40_n02099601_8005.png,n02099601_8005.png,1.0,2.544027,1.7485352,0.56249774
alexnet_w1_mlp_simclrhn_probe1,1,162,NaN,bird,boat,cr,0162_cl_dnn_cr_boat_40_n02951358_12080.png,n02951358_12080.png,0.0,-5.6841927,-3.358554,-1.644475
alexnet_w1_mlp_simclrhn_probe1,1,163,NaN,oven,oven,cr,0163_cl_dnn_cr_oven_40_n04111531_20028.png,n04111531_20028.png,1.0,7.2884912,-3.7392485,7.7977896
alexnet_w1_mlp_simclrhn_probe1,1,164,NaN,cat,cat,bw,0164_cl_dnn_bw_cat_40_n02123159_2107.png,n02123159_2107.png,1.0,5.0339074,-2.182568,5.102819
alexnet_w1_mlp_simclrhn_probe1,1,165,NaN,bear,bear,cr,0165_cl_dnn_cr_bear_40_n02134418_1351.png,n02134418_1351.png,1.0,3.2725577,1.3674058,1.3471459
alexnet_w1_mlp_simclrhn_probe1,1,166,NaN,oven,oven,cr,0166_cl_dnn_cr_oven_40_n04111531_6609.png,n04111531_6609.png,1.0,5.2549634,0.40738618,3.4277546
alexnet_w1_mlp_simclrhn_probe1,1,167,NaN,airplane,knife,bw,0167_cl_dnn_bw_knife_40_n03041632_21477.png,n03041632_21477.png,0.0,0.28092515,0.9298702,-0.45887345
alexnet_w1_mlp_simclrhn_probe1,1,168,NaN,cat,cat,cr,0168_cl_dnn_cr_cat_40_n02123394_238.png,n02123394_238.png,1.0,3.419872,0.2146563,2.26643
alexnet_w1_mlp_simclrhn_probe1,1,169,NaN,elephant,elephant,cr,0169_cl_dnn_cr_elephant_40_n02504013_3141.png,n02504013_3141.png,1.0,2.1677015,-1.4332527,2.5462592
alexnet_w1_mlp_simclrhn_probe1,1,170,NaN,elephant,elephant,cr,0170_cl_dnn_cr_elephant_40_n02504013_5035.png,n02504013_5035.png,1.0,3.665719,-2.1627498,4.12135
alexnet_w1_mlp_simclrhn_probe1,1,171,NaN,dog,dog,cr,0171_cl_dnn_cr_dog_40_n02089867_2298.png,n02089867_2298.png,1.0,2.260096,0.28253266,1.3983485
alexnet_w1_mlp_simclrhn_probe1,1,172,NaN,chair,bear,bw,0172_cl_dnn_bw_bear_40_n02134418_2503.png,n02134418_2503.png,0.0,-4.1570926,-2.2921143,-1.3187388
alexnet_w1_mlp_simclrhn_probe1,1,173,NaN,keyboard,keyboard,cr,0173_cl_dnn_cr_keyboard_40_n04505470_4878.png,n04505470_4878.png,1.0,-0.6622888,-6.054054,3.8125536
alexnet_w1_mlp_simclrhn_probe1,1,174,NaN,bottle,knife,bw,0174_cl_dnn_bw_knife_40_n03041632_22734.png,n03041632_22734.png,0.0,-4.2526774,-1.3964233,-2.0196767
alexnet_w1_mlp_simclrhn_probe1,1,175,NaN,bear,bear,cr,0175_cl_dnn_cr_bear_40_n02132136_8896.png,n02132136_8896.png,1.0,1.0194448,0.8605522,0.11235406
alexnet_w1_mlp_simclrhn_probe1,1,176,NaN,bicycle,boat,bw,0176_cl_dnn_bw_boat_40_n02951358_5952.png,n02951358_5952.png,0.0,-1.5960344,2.3214443,-2.7700758
alexnet_w1_mlp_simclrhn_probe1,1,177,NaN,keyboard,chair,bw,0177_cl_dnn_bw_chair_40_n04099969_1775.png,n04099969_1775.png,0.0,-2.7588248,-0.51462615,-1.5868882
alexnet_w1_mlp_simclrhn_probe1,1,178,NaN,airplane,airplane,bw,0178_cl_dnn_bw_airplane_40_n02690373_6524.png,n02690373_6524.png,1.0,4.4312234,1.5857542,2.0120506
alexnet_w1_mlp_simclrhn_probe1,1,179,NaN,bird,bear,cr,0179_cl_dnn_cr_bear_40_n02133161_1916.png,n02133161_1916.png,0.0,-3.236084,0.084258325,-2.3478365
alexnet_w1_mlp_simclrhn_probe1,1,180,NaN,keyboard,knife,bw,0180_cl_dnn_bw_knife_40_n03041632_96714.png,n03041632_96714.png,0.0,-0.38249305,1.5421919,-1.3609577
alexnet_w1_mlp_simclrhn_probe1,1,181,NaN,truck,truck,bw,0181_cl_dnn_bw_truck_40_n03417042_13635.png,n03417042_13635.png,1.0,6.7314014,3.8383625,2.0456874
alexnet_w1_mlp_simclrhn_probe1,1,182,NaN,boat,boat,bw,0182_cl_dnn_bw_boat_40_n04612504_1748.png,n04612504_1748.png,1.0,2.438549,-0.3856244,1.9969922
alexnet_w1_mlp_simclrhn_probe1,1,183,NaN,bird,bird,cr,0183_cl_dnn_cr_bird_40_n01592084_3341.png,n01592084_3341.png,1.0,2.5214417,-2.8584251,3.8041403
alexnet_w1_mlp_simclrhn_probe1,1,184,NaN,car,car,bw,0184_cl_dnn_bw_car_40_n02814533_12388.png,n02814533_12388.png,1.0,8.933741,0.17748529,6.1916075
alexnet_w1_mlp_simclrhn_probe1,1,185,NaN,bicycle,bicycle,cr,0185_cl_dnn_cr_bicycle_40_n03792782_5864.png,n03792782_5864.png,1.0,4.6407843,-0.46136883,3.6077673
alexnet_w1_mlp_simclrhn_probe1,1,186,NaN,elephant,bird,bw,0186_cl_dnn_bw_bird_40_n01514859_17156.png,n01514859_17156.png,0.0,-3.4783947,0.6998998,-2.9545004
alexnet_w1_mlp_simclrhn_probe1,1,187,NaN,car,car,cr,0187_cl_dnn_cr_car_40_n03100240_7737.png,n03100240_7737.png,1.0,6.488234,0.5519403,4.1975937
alexnet_w1_mlp_simclrhn_probe1,1,188,NaN,bottle,bottle,bw,0188_cl_dnn_bw_bottle_40_n04579145_1829.png,n04579145_1829.png,1.0,-0.8104191,-2.0611105,0.8843724
alexnet_w1_mlp_simclrhn_probe1,1,189,NaN,bear,elephant,bw,0189_cl_dnn_bw_elephant_40_n02504013_22388.png,n02504013_22388.png,0.0,0.48172814,2.0693886,-1.1226456
alexnet_w1_mlp_simclrhn_probe1,1,190,NaN,airplane,airplane,bw,0190_cl_dnn_bw_airplane_40_n02690373_7107.png,n02690373_7107.png,1.0,3.3875542,-0.38644737,2.6686223
alexnet_w1_mlp_simclrhn_probe1,1,191,NaN,car,car,bw,0191_cl_dnn_bw_car_40_n02814533_45594.png,n02814533_45594.png,1.0,11.955593,9.09053,2.0259054
alexnet_w1_mlp_simclrhn_probe1,1,192,NaN,elephant,boat,cr,0192_cl_dnn_cr_boat_40_n04612504_18536.png,n04612504_18536.png,0.0,-0.45730153,2.6736026,-2.2138836
alexnet_w1_mlp_simclrhn_probe1,1,193,NaN,elephant,dog,cr,0193_cl_dnn_cr_dog_40_n02088466_6371.png,n02088466_6371.png,0.0,-2.5429568,2.3042908,-3.4275217
alexnet_w1_mlp_simclrhn_probe1,1,194,NaN,oven,bear,bw,0194_cl_dnn_bw_bear_40_n02133161_1003.png,n02133161_1003.png,0.0,-1.7649376,-0.64395195,-0.79265666
alexnet_w1_mlp_simclrhn_probe1,1,195,NaN,knife,knife,bw,0195_cl_dnn_bw_knife_40_n03041632_29037.png,n03041632_29037.png,1.0,-1.1362926,-1.7233709,0.41512707
alexnet_w1_mlp_simclrhn_probe1,1,196,NaN,airplane,airplane,cr,0196_cl_dnn_cr_airplane_40_n02690373_4015.png,n02690373_4015.png,1.0,1.2194698,-0.892564,1.4934335
alexnet_w1_mlp_simclrhn_probe1,1,197,NaN,knife,knife,bw,0197_cl_dnn_bw_knife_40_n03041632_28009.png,n03041632_28009.png,1.0,-0.55121547,-2.7513068,1.5556996
alexnet_w1_mlp_simclrhn_probe1,1,198,NaN,bird,bird,bw,0198_cl_dnn_bw_bird_40_n01560419_5714.png,n01560419_5714.png,1.0,0.28037056,-3.018234,2.3324656
alexnet_w1_mlp_simclrhn_probe1,1,199,NaN,bicycle,cat,cr,0199_cl_dnn_cr_cat_40_n02125311_6429.png,n02125311_6429.png,0.0,-3.9342163,-1.9354353,-1.4133517
alexnet_w1_mlp_simclrhn_probe1,1,200,NaN,chair,chair,bw,0200_cl_dnn_bw_chair_40_n04099969_9847.png,n04099969_9847.png,1.0,1.0864434,-2.1307456,2.2748961
alexnet_w1_mlp_simclrhn_probe1,1,201,NaN,cat,cat,bw,0201_cl_dnn_bw_cat_40_n02123597_7142.png,n02123597_7142.png,1.0,1.289575,0.22860259,0.75022084
alexnet_w1_mlp_simclrhn_probe1,1,202,NaN,truck,bicycle,cr,0202_cl_dnn_cr_bicycle_40_n02835271_8982.png,n02835271_8982.png,0.0,-0.727515,0.9082161,-1.1566366
alexnet_w1_mlp_simclrhn_probe1,1,203,NaN,bird,bird,bw,0203_cl_dnn_bw_bird_40_n01592084_19555.png,n01592084_19555.png,1.0,3.1626244,2.8779807,0.20127346
alexnet_w1_mlp_simclrhn_probe1,1,204,NaN,knife,knife,cr,0204_cl_dnn_cr_knife_40_n03041632_8618.png,n03041632_8618.png,1.0,-0.68425107,-1.5926963,0.6423678
alexnet_w1_mlp_simclrhn_probe1,1,205,NaN,truck,boat,bw,0205_cl_dnn_bw_boat_40_n03344393_547.png,n03344393_547.png,0.0,2.558165,3.6021478,-0.7382073
alexnet_w1_mlp_simclrhn_probe1,1,206,NaN,bird,bird,bw,0206_cl_dnn_bw_bird_40_n01843383_5962.png,n01843383_5962.png,1.0,-2.7167253,-3.1605904,0.31386
alexnet_w1_mlp_simclrhn_probe1,1,207,NaN,keyboard,keyboard,cr,0207_cl_dnn_cr_keyboard_40_n04505470_213.png,n04505470_213.png,1.0,7.266845,1.511179,4.0698705
alexnet_w1_mlp_simclrhn_probe1,1,208,NaN,elephant,elephant,cr,0208_cl_dnn_cr_elephant_40_n02504458_2607.png,n02504458_2607.png,1.0,2.9231563,-3.2450345,4.36157
alexnet_w1_mlp_simclrhn_probe1,1,209,NaN,bear,bear,bw,0209_cl_dnn_bw_bear_40_n02134418_4157.png,n02134418_4157.png,1.0,1.7065694,0.9265557,0.551553
alexnet_w1_mlp_simclrhn_probe1,1,210,NaN,bottle,bottle,cr,0210_cl_dnn_cr_bottle_40_n03983396_11519.png,n03983396_11519.png,1.0,4.536485,-1.4160485,4.209077
alexnet_w1_mlp_simclrhn_probe1,1,211,NaN,cat,cat,cr,0211_cl_dnn_cr_cat_40_n02124075_1999.png,n02124075_1999.png,1.0,4.6647463,-2.23663,4.88001
alexnet_w1_mlp_simclrhn_probe1,1,212,NaN,cat,cat,bw,0212_cl_dnn_bw_cat_40_n02124075_11252.png,n02124075_11252.png,1.0,-1.0946002,-2.3798459,0.9088059
alexnet_w1_mlp_simclrhn_probe1,1,213,NaN,airplane,airplane,bw,0213_cl_dnn_bw_airplane_40_n02690373_4195.png,n02690373_4195.png,1.0,2.3450904,2.2590997,0.060804587
alexnet_w1_mlp_simclrhn_probe1,1,214,NaN,airplane,airplane,cr,0214_cl_dnn_cr_airplane_40_n02690373_2629.png,n02690373_2629.png,1.0,3.0924284,-0.08254452,2.245045
alexnet_w1_mlp_simclrhn_probe1,1,215,NaN,keyboard,keyboard,bw,0215_cl_dnn_bw_keyboard_40_n04505470_5060.png,n04505470_5060.png,1.0,4.4170623,-0.7264405,3.6370058
alexnet_w1_mlp_simclrhn_probe1,1,216,NaN,cat,bear,cr,0216_cl_dnn_cr_bear_40_n02132136_10060.png,n02132136_10060.png,0.0,0.7435735,1.3813096,-0.45094755
alexnet_w1_mlp_simclrhn_probe1,1,217,NaN,airplane,airplane,bw,0217_cl_dnn_bw_airplane_40_n02690373_4150.png,n02690373_4150.png,1.0,6.2056355,0.24713539,4.213296
alexnet_w1_mlp_simclrhn_probe1,1,218,NaN,dog,dog,cr,0218_cl_dnn_cr_dog_40_n02102040_7465.png,n02102040_7465.png,1.0,1.914504,-0.72609836,1.8671879
alexnet_w1_mlp_simclrhn_probe1,1,219,NaN,bird,bird,bw,0219_cl_dnn_bw_bird_40_n02009229_12179.png,n02009229_12179.png,1.0,0.38440093,-0.9857464,0.9688405
alexnet_w1_mlp_simclrhn_probe1,1,220,NaN,knife,knife,bw,0220_cl_dnn_bw_knife_40_n03041632_20413.png,n03041632_20413.png,1.0,1.660563,-0.31017423,1.3935217
alexnet_w1_mlp_simclrhn_probe1,1,221,NaN,truck,truck,bw,0221_cl_dnn_bw_truck_40_n03796401_13490.png,n03796401_13490.png,1.0,3.2980113,-2.3961864,4.026406
alexnet_w1_mlp_simclrhn_probe1,1,222,NaN,oven,oven,cr,0222_cl_dnn_cr_oven_40_n04111531_584.png,n04111531_584.png,1.0,4.548018,-2.7776818,5.1800523
alexnet_w1_mlp_simclrhn_probe1,1,223,NaN,airplane,airplane,bw,0223_cl_dnn_bw_airplane_40_n02690373_3899.png,n02690373_3899.png,1.0,5.155499,2.564218,1.8323123
alexnet_w1_mlp_simclrhn_probe1,1,224,NaN,bird,bird,cr,0224_cl_dnn_cr_bird_40_n02027492_8707.png,n02027492_8707.png,1.0,-0.06111153,-2.8294058,1.9574797
alexnet_w1_mlp_simclrhn_probe1,1,225,NaN,airplane,airplane,cr,0225_cl_dnn_cr_airplane_40_n02690373_2648.png,n02690373_2648.png,1.0,9.589934,4.029308,3.9319568
alexnet_w1_mlp_simclrhn_probe1,1,226,NaN,cat,cat,bw,0226_cl_dnn_bw_cat_40_n02123394_6598.png,n02123394_6598.png,1.0,2.4422605,0.17089391,1.6060988
alexnet_w1_mlp_simclrhn_probe1,1,227,NaN,bicycle,bicycle,bw,0227_cl_dnn_bw_bicycle_40_n02835271_17168.png,n02835271_17168.png,1.0,0.32284653,-0.90904105,0.87107605
alexnet_w1_mlp_simclrhn_probe1,1,228,NaN,truck,truck,bw,0228_cl_dnn_bw_truck_40_n03417042_29849.png,n03417042_29849.png,1.0,7.8348427,3.7696736,2.8745089
alexnet_w1_mlp_simclrhn_probe1,1,229,NaN,knife,knife,cr,0229_cl_dnn_cr_knife_40_n03041632_29125.png,n03041632_29125.png,1.0,-0.41676706,-1.2895526,0.6171526
alexnet_w1_mlp_simclrhn_probe1,1,230,NaN,clock,clock,bw,0230_cl_dnn_bw_clock_40_n04548280_5456.png,n04548280_5456.png,1.0,1.4269918,0.66102016,0.5416238
alexnet_w1_mlp_simclrhn_probe1,1,231,NaN,truck,truck,bw,0231_cl_dnn_bw_truck_40_n03796401_8099.png,n03796401_8099.png,1.0,0.40705433,-0.6190614,0.7255734
alexnet_w1_mlp_simclrhn_probe1,1,232,NaN,bear,bear,cr,0232_cl_dnn_cr_bear_40_n02132136_860.png,n02132136_860.png,1.0,1.5595088,-0.6527857,1.5643286
alexnet_w1_mlp_simclrhn_probe1,1,233,NaN,truck,truck,bw,0233_cl_dnn_bw_truck_40_n03796401_4423.png,n03796401_4423.png,1.0,6.2048235,2.4066284,2.6857295
alexnet_w1_mlp_simclrhn_probe1,1,234,NaN,elephant,elephant,bw,0234_cl_dnn_bw_elephant_40_n02504458_7871.png,n02504458_7871.png,1.0,10.688638,1.1883655,6.7177076
alexnet_w1_mlp_simclrhn_probe1,1,235,NaN,oven,oven,cr,0235_cl_dnn_cr_oven_40_n04111531_14753.png,n04111531_14753.png,1.0,2.938438,0.08411796,2.018309
alexnet_w1_mlp_simclrhn_probe1,1,236,NaN,clock,clock,bw,0236_cl_dnn_bw_clock_40_n04548280_17198.png,n04548280_17198.png,1.0,4.146591,2.4737458,1.1828803
alexnet_w1_mlp_simclrhn_probe1,1,237,NaN,oven,oven,cr,0237_cl_dnn_cr_oven_40_n04111531_15947.png,n04111531_15947.png,1.0,7.525707,-2.1278806,6.826117
alexnet_w1_mlp_simclrhn_probe1,1,238,NaN,bear,elephant,bw,0238_cl_dnn_bw_elephant_40_n02504013_1103.png,n02504013_1103.png,0.0,-4.487276,-0.7697083,-2.6287174
alexnet_w1_mlp_simclrhn_probe1,1,239,NaN,bicycle,bicycle,cr,0239_cl_dnn_cr_bicycle_40_n03792782_33853.png,n03792782_33853.png,1.0,-1.229977,-3.8747573,1.870142
alexnet_w1_mlp_simclrhn_probe1,1,240,NaN,oven,bottle,bw,0240_cl_dnn_bw_bottle_40_n04557648_5665.png,n04557648_5665.png,0.0,-1.0123285,-0.08590232,-0.6550822
alexnet_w1_mlp_simclrhn_probe1,1,241,NaN,bear,bear,bw,0241_cl_dnn_bw_bear_40_n02134418_5824.png,n02134418_5824.png,1.0,5.1940775,-0.041026544,3.7017777
alexnet_w1_mlp_simclrhn_probe1,1,242,NaN,truck,truck,cr,0242_cl_dnn_cr_truck_40_n04467665_54349.png,n04467665_54349.png,1.0,8.133129,4.631496,2.4760287
alexnet_w1_mlp_simclrhn_probe1,1,243,NaN,truck,truck,cr,0243_cl_dnn_cr_truck_40_n03796401_8100.png,n03796401_8100.png,1.0,7.69864,5.259848,1.7244862
alexnet_w1_mlp_simclrhn_probe1,1,244,NaN,elephant,elephant,cr,0244_cl_dnn_cr_elephant_40_n02504013_4288.png,n02504013_4288.png,1.0,10.560265,2.075596,5.999567
alexnet_w1_mlp_simclrhn_probe1,1,245,NaN,boat,boat,cr,0245_cl_dnn_cr_boat_40_n03662601_4437.png,n03662601_4437.png,1.0,2.4671495,1.9301335,0.3797277
alexnet_w1_mlp_simclrhn_probe1,1,246,NaN,bicycle,bicycle,cr,0246_cl_dnn_cr_bicycle_40_n02835271_7351.png,n02835271_7351.png,1.0,8.680294,0.012983481,6.128714
alexnet_w1_mlp_simclrhn_probe1,1,247,NaN,elephant,elephant,bw,0247_cl_dnn_bw_elephant_40_n02504458_2556.png,n02504458_2556.png,1.0,1.0701941,0.22439677,0.5980691
alexnet_w1_mlp_simclrhn_probe1,1,248,NaN,airplane,airplane,cr,0248_cl_dnn_cr_airplane_40_n02690373_303.png,n02690373_303.png,1.0,8.197703,-2.4159925,7.505017
alexnet_w1_mlp_simclrhn_probe1,1,249,NaN,elephant,elephant,bw,0249_cl_dnn_bw_elephant_40_n02504013_5503.png,n02504013_5503.png,1.0,3.5873413,-2.750329,4.4814095
alexnet_w1_mlp_simclrhn_probe1,1,250,NaN,airplane,truck,cr,0250_cl_dnn_cr_truck_40_n04467665_68332.png,n04467665_68332.png,0.0,0.25365484,5.2530665,-3.5351179
alexnet_w1_mlp_simclrhn_probe1,1,251,NaN,clock,clock,bw,0251_cl_dnn_bw_clock_40_n02708093_3079.png,n02708093_3079.png,1.0,2.0696936,-1.2898422,2.3755505
alexnet_w1_mlp_simclrhn_probe1,1,252,NaN,cat,cat,cr,0252_cl_dnn_cr_cat_40_n02123394_2395.png,n02123394_2395.png,1.0,2.8793147,-1.1555642,2.85309
alexnet_w1_mlp_simclrhn_probe1,1,253,NaN,chair,chair,cr,0253_cl_dnn_cr_chair_40_n04429376_20906.png,n04429376_20906.png,1.0,1.5390334,0.71544564,0.5823645
alexnet_w1_mlp_simclrhn_probe1,1,254,NaN,boat,boat,cr,0254_cl_dnn_cr_boat_40_n03344393_8160.png,n03344393_8160.png,1.0,1.1727318,0.5048963,0.472231
alexnet_w1_mlp_simclrhn_probe1,1,255,NaN,keyboard,keyboard,cr,0255_cl_dnn_cr_keyboard_40_n03085013_21325.png,n03085013_21325.png,1.0,5.311721,0.039197434,3.7282372
alexnet_w1_mlp_simclrhn_probe1,1,256,NaN,knife,knife,cr,0256_cl_dnn_cr_knife_40_n03041632_99875.png,n03041632_99875.png,1.0,-0.015766263,-3.51291,2.4728541
alexnet_w1_mlp_simclrhn_probe1,1,257,NaN,knife,clock,bw,0257_cl_dnn_bw_clock_40_n04548280_7384.png,n04548280_7384.png,0.0,-0.75789565,-0.21397401,-0.38461068
alexnet_w1_mlp_simclrhn_probe1,1,258,NaN,keyboard,keyboard,bw,0258_cl_dnn_bw_keyboard_40_n03085013_23534.png,n03085013_23534.png,1.0,3.4314158,-1.2320677,3.297581
alexnet_w1_mlp_simclrhn_probe1,1,259,NaN,truck,truck,bw,0259_cl_dnn_bw_truck_40_n03417042_2383.png,n03417042_2383.png,1.0,4.462592,2.4588435,1.4168643
alexnet_w1_mlp_simclrhn_probe1,1,260,NaN,clock,clock,bw,0260_cl_dnn_bw_clock_40_n03196217_711.png,n03196217_711.png,1.0,0.3277642,0.1079697,0.15541819
alexnet_w1_mlp_simclrhn_probe1,1,261,NaN,keyboard,keyboard,bw,0261_cl_dnn_bw_keyboard_40_n03085013_7992.png,n03085013_7992.png,1.0,2.5972254,-1.2405329,2.713705
alexnet_w1_mlp_simclrhn_probe1,1,262,NaN,cat,cat,bw,0262_cl_dnn_bw_cat_40_n02125311_75445.png,n02125311_75445.png,1.0,2.306238,-1.3449907,2.5818086
alexnet_w1_mlp_simclrhn_probe1,1,263,NaN,knife,knife,cr,0263_cl_dnn_cr_knife_40_n03041632_47410.png,n03041632_47410.png,1.0,0.54857785,-2.8574657,2.4084365
alexnet_w1_mlp_simclrhn_probe1,1,264,NaN,oven,oven,bw,0264_cl_dnn_bw_oven_40_n04111531_741.png,n04111531_741.png,1.0,7.3121104,-1.6838307,6.361091
alexnet_w1_mlp_simclrhn_probe1,1,265,NaN,oven,oven,bw,0265_cl_dnn_bw_oven_40_n04111531_3181.png,n04111531_3181.png,1.0,-1.1599902,-1.9408864,0.552177
alexnet_w1_mlp_simclrhn_probe1,1,266,NaN,truck,truck,bw,0266_cl_dnn_bw_truck_40_n03417042_17099.png,n03417042_17099.png,1.0,13.5766115,8.600066,3.518949
alexnet_w1_mlp_simclrhn_probe1,1,267,NaN,boat,boat,cr,0267_cl_dnn_cr_boat_40_n03662601_15143.png,n03662601_15143.png,1.0,4.3382263,2.0715373,1.6027912
alexnet_w1_mlp_simclrhn_probe1,1,268,NaN,keyboard,keyboard,bw,0268_cl_dnn_bw_keyboard_40_n03085013_19197.png,n03085013_19197.png,1.0,11.517874,3.6018848,5.59745
alexnet_w1_mlp_simclrhn_probe1,1,269,NaN,airplane,airplane,cr,0269_cl_dnn_cr_airplane_40_n02690373_4202.png,n02690373_4202.png,1.0,7.5492296,1.9666401,3.947487
alexnet_w1_mlp_simclrhn_probe1,1,270,NaN,bear,bear,bw,0270_cl_dnn_bw_bear_40_n02132136_10134.png,n02132136_10134.png,1.0,4.294351,0.16500323,2.91989
alexnet_w1_mlp_simclrhn_probe1,1,271,NaN,boat,boat,bw,0271_cl_dnn_bw_boat_40_n03344393_5296.png,n03344393_5296.png,1.0,3.371458,3.3098152,0.043588102
alexnet_w1_mlp_simclrhn_probe1,1,272,NaN,keyboard,keyboard,bw,0272_cl_dnn_bw_keyboard_40_n04505470_1600.png,n04505470_1600.png,1.0,4.0959244,3.6301239,0.3293707
alexnet_w1_mlp_simclrhn_probe1,1,273,NaN,truck,truck,bw,0273_cl_dnn_bw_truck_40_n03417042_10043.png,n03417042_10043.png,1.0,8.366052,4.261353,2.9024603
alexnet_w1_mlp_simclrhn_probe1,1,274,NaN,bird,bird,bw,0274_cl_dnn_bw_bird_40_n02007558_5525.png,n02007558_5525.png,1.0,-0.34830636,-1.8759372,1.0801982
alexnet_w1_mlp_simclrhn_probe1,1,275,NaN,airplane,airplane,cr,0275_cl_dnn_cr_airplane_40_n02690373_6621.png,n02690373_6621.png,1.0,1.5618039,-0.8846048,1.7298722
alexnet_w1_mlp_simclrhn_probe1,1,276,NaN,keyboard,keyboard,bw,0276_cl_dnn_bw_keyboard_40_n04505470_6623.png,n04505470_6623.png,1.0,2.8469203,-0.65588003,2.4768538
alexnet_w1_mlp_simclrhn_probe1,1,277,NaN,oven,dog,cr,0277_cl_dnn_cr_dog_40_n02113624_3403.png,n02113624_3403.png,0.0,-3.8097596,0.5218381,-3.0629022
alexnet_w1_mlp_simclrhn_probe1,1,278,NaN,dog,dog,bw,0278_cl_dnn_bw_dog_40_n02106550_12642.png,n02106550_12642.png,1.0,-0.65036774,-1.8785576,0.8684614
alexnet_w1_mlp_simclrhn_probe1,1,279,NaN,clock,clock,cr,0279_cl_dnn_cr_clock_40_n04548280_24041.png,n04548280_24041.png,1.0,4.670877,-0.09065652,3.3669128
alexnet_w1_mlp_simclrhn_probe1,1,280,NaN,truck,truck,bw,0280_cl_dnn_bw_truck_40_n03417042_3236.png,n03417042_3236.png,1.0,2.552958,0.28988773,1.6002324
alexnet_w1_mlp_simclrhn_probe1,1,281,NaN,car,car,bw,0281_cl_dnn_bw_car_40_n03100240_2583.png,n03100240_2583.png,1.0,9.999053,9.555969,0.31330755
alexnet_w1_mlp_simclrhn_probe1,1,282,NaN,knife,knife,cr,0282_cl_dnn_cr_knife_40_n03041632_45090.png,n03041632_45090.png,1.0,2.1506178,-2.8839622,3.5599859
alexnet_w1_mlp_simclrhn_probe1,1,283,NaN,cat,cat,cr,0283_cl_dnn_cr_cat_40_n02123597_660.png,n02123597_660.png,1.0,1.0844392,0.22325562,0.6089487
alexnet_w1_mlp_simclrhn_probe1,1,284,NaN,clock,clock,bw,0284_cl_dnn_bw_clock_40_n04548280_7813.png,n04548280_7813.png,1.0,1.2925326,0.43953514,0.60316026
alexnet_w1_mlp_simclrhn_probe1,1,285,NaN,dog,dog,bw,0285_cl_dnn_bw_dog_40_n02111129_797.png,n02111129_797.png,1.0,3.879437,0.5204217,2.3751824
alexnet_w1_mlp_simclrhn_probe1,1,286,NaN,knife,knife,cr,0286_cl_dnn_cr_knife_40_n03041632_3717.png,n03041632_3717.png,1.0,2.9481153,0.1864191,1.9528142
alexnet_w1_mlp_simclrhn_probe1,1,287,NaN,boat,boat,bw,0287_cl_dnn_bw_boat_40_n04273569_870.png,n04273569_870.png,1.0,0.19639984,-2.3241694,1.7823117
alexnet_w1_mlp_simclrhn_probe1,1,288,NaN,elephant,elephant,bw,0288_cl_dnn_bw_elephant_40_n02504013_720.png,n02504013_720.png,1.0,12.292892,4.0868483,5.8025494
alexnet_w1_mlp_simclrhn_probe1,1,289,NaN,oven,oven,cr,0289_cl_dnn_cr_oven_40_n04111531_14876.png,n04111531_14876.png,1.0,5.1176677,-1.3334947,4.561661
alexnet_w1_mlp_simclrhn_probe1,1,290,NaN,cat,cat,bw,0290_cl_dnn_bw_cat_40_n02123045_569.png,n02123045_569.png,1.0,1.5472802,-1.0013831,1.8021771
alexnet_w1_mlp_simclrhn_probe1,1,291,NaN,clock,clock,bw,0291_cl_dnn_bw_clock_40_n03196217_5888.png,n03196217_5888.png,1.0,0.42657757,-0.34262484,0.54390824
alexnet_w1_mlp_simclrhn_probe1,1,292,NaN,keyboard,keyboard,cr,0292_cl_dnn_cr_keyboard_40_n04505470_4770.png,n04505470_4770.png,1.0,8.118336,1.8402321,4.43929
alexnet_w1_mlp_simclrhn_probe1,1,293,NaN,knife,knife,cr,0293_cl_dnn_cr_knife_40_n03041632_32292.png,n03041632_32292.png,1.0,-1.1109232,-2.1545155,0.73793125
alexnet_w1_mlp_simclrhn_probe1,1,294,NaN,bear,elephant,cr,0294_cl_dnn_cr_elephant_40_n02504013_6672.png,n02504013_6672.png,0.0,0.30660707,0.9889785,-0.4825095
alexnet_w1_mlp_simclrhn_probe1,1,295,NaN,airplane,airplane,bw,0295_cl_dnn_bw_airplane_40_n02690373_5838.png,n02690373_5838.png,1.0,6.756571,1.4895055,3.7243774
alexnet_w1_mlp_simclrhn_probe1,1,296,NaN,bird,bird,cr,0296_cl_dnn_cr_bird_40_n01796340_5508.png,n01796340_5508.png,1.0,-0.9956909,-4.74531,2.651381
alexnet_w1_mlp_simclrhn_probe1,1,297,NaN,keyboard,clock,bw,0297_cl_dnn_bw_clock_40_n03196217_6477.png,n03196217_6477.png,0.0,0.09946426,2.054408,-1.382354
alexnet_w1_mlp_simclrhn_probe1,1,298,NaN,bird,bird,bw,0298_cl_dnn_bw_bird_40_n02011460_5075.png,n02011460_5075.png,1.0,-2.117528,-2.2279012,0.07804568
alexnet_w1_mlp_simclrhn_probe1,1,299,NaN,boat,boat,bw,0299_cl_dnn_bw_boat_40_n03344393_10284.png,n03344393_10284.png,1.0,3.0688004,2.0277638,0.73612404
alexnet_w1_mlp_simclrhn_probe1,1,300,NaN,oven,oven,bw,0300_cl_dnn_bw_oven_40_n04111531_14559.png,n04111531_14559.png,1.0,2.9870274,-1.6834705,3.3025408
alexnet_w1_mlp_simclrhn_probe1,1,301,NaN,bottle,knife,cr,0301_cl_dnn_cr_knife_40_n03041632_24060.png,n03041632_24060.png,0.0,-0.092259526,0.49731436,-0.4168917
alexnet_w1_mlp_simclrhn_probe1,1,302,NaN,airplane,airplane,bw,0302_cl_dnn_bw_airplane_40_n02690373_4134.png,n02690373_4134.png,1.0,6.07156,-0.9077046,4.9350853
alexnet_w1_mlp_simclrhn_probe1,1,303,NaN,elephant,bear,cr,0303_cl_dnn_cr_bear_40_n02134084_6669.png,n02134084_6669.png,0.0,-0.83151543,-0.008072659,-0.582262
alexnet_w1_mlp_simclrhn_probe1,1,304,NaN,bird,bird,cr,0304_cl_dnn_cr_bird_40_n01558993_5744.png,n01558993_5744.png,1.0,0.71521103,-9.434306,7.1767926
alexnet_w1_mlp_simclrhn_probe1,1,305,NaN,knife,bird,bw,0305_cl_dnn_bw_bird_40_n01818515_10536.png,n01818515_10536.png,0.0,-6.027206,-1.9311677,-2.8963366
alexnet_w1_mlp_simclrhn_probe1,1,306,NaN,bicycle,bottle,bw,0306_cl_dnn_bw_bottle_40_n04557648_20614.png,n04557648_20614.png,0.0,-4.7170615,3.220221,-5.6125064
alexnet_w1_mlp_simclrhn_probe1,1,307,NaN,clock,clock,cr,0307_cl_dnn_cr_clock_40_n04548280_3605.png,n04548280_3605.png,1.0,4.7559886,0.19596802,3.2244215
alexnet_w1_mlp_simclrhn_probe1,1,308,NaN,truck,truck,bw,0308_cl_dnn_bw_truck_40_n03796401_27288.png,n03796401_27288.png,1.0,8.423796,5.3207417,2.1941905
alexnet_w1_mlp_simclrhn_probe1,1,309,NaN,bicycle,bicycle,cr,0309_cl_dnn_cr_bicycle_40_n02835271_18276.png,n02835271_18276.png,1.0,6.2164154,0.55283576,4.0047555
alexnet_w1_mlp_simclrhn_probe1,1,310,NaN,bear,bear,cr,0310_cl_dnn_cr_bear_40_n02133161_12152.png,n02133161_12152.png,1.0,-1.2042491,-1.8338615,0.44520316
alexnet_w1_mlp_simclrhn_probe1,1,311,NaN,elephant,elephant,cr,0311_cl_dnn_cr_elephant_40_n02504013_14918.png,n02504013_14918.png,1.0,7.346137,0.85453206,4.5902576
alexnet_w1_mlp_simclrhn_probe1,1,312,NaN,bicycle,bicycle,bw,0312_cl_dnn_bw_bicycle_40_n03792782_5323.png,n03792782_5323.png,1.0,7.1904354,-2.9893975,7.198229
alexnet_w1_mlp_simclrhn_probe1,1,313,NaN,bicycle,truck,cr,0313_cl_dnn_cr_truck_40_n04467665_37066.png,n04467665_37066.png,0.0,-1.3037384,1.1314553,-1.721942
alexnet_w1_mlp_simclrhn_probe1,1,314,NaN,bird,bird,bw,0314_cl_dnn_bw_bird_40_n02025239_2481.png,n02025239_2481.png,1.0,-0.7909482,-1.6785561,0.6276336
alexnet_w1_mlp_simclrhn_probe1,1,315,NaN,bicycle,bicycle,bw,0315_cl_dnn_bw_bicycle_40_n02835271_5113.png,n02835271_5113.png,1.0,2.6785202,-2.4913623,3.6556592
alexnet_w1_mlp_simclrhn_probe1,1,316,NaN,elephant,elephant,cr,0316_cl_dnn_cr_elephant_40_n02504458_6185.png,n02504458_6185.png,1.0,3.496334,-1.2337314,3.3446612
alexnet_w1_mlp_simclrhn_probe1,1,317,NaN,clock,knife,cr,0317_cl_dnn_cr_knife_40_n03041632_11475.png,n03041632_11475.png,0.0,-2.7187452,0.40339074,-2.2076836
alexnet_w1_mlp_simclrhn_probe1,1,318,NaN,cat,cat,bw,0318_cl_dnn_bw_cat_40_n02125311_31318.png,n02125311_31318.png,1.0,3.2721338,-0.3206282,2.5404663
alexnet_w1_mlp_simclrhn_probe1,1,319,NaN,clock,clock,bw,0319_cl_dnn_bw_clock_40_n04548280_8585.png,n04548280_8585.png,1.0,-0.11904273,-1.061943,0.6667312
alexnet_w1_mlp_simclrhn_probe1,1,320,NaN,bear,bear,bw,0320_cl_dnn_bw_bear_40_n02134418_12628.png,n02134418_12628.png,1.0,3.9788299,0.16354881,2.6978111
alexnet_w1_mlp_simclrhn_probe1,1,321,NaN,chair,chair,bw,0321_cl_dnn_bw_chair_40_n03376595_17859.png,n03376595_17859.png,1.0,1.2298565,-0.32962638,1.1027209
alexnet_w1_mlp_simclrhn_probe1,1,322,NaN,knife,knife,cr,0322_cl_dnn_cr_knife_40_n03041632_379.png,n03041632_379.png,1.0,0.25799733,-2.0308983,1.6184937
alexnet_w1_mlp_simclrhn_probe1,1,323,NaN,oven,bottle,bw,0323_cl_dnn_bw_bottle_40_n04557648_1293.png,n04557648_1293.png,0.0,-1.3554248,-0.08627714,-0.8974229
alexnet_w1_mlp_simclrhn_probe1,1,324,NaN,boat,boat,cr,0324_cl_dnn_cr_boat_40_n03662601_26298.png,n03662601_26298.png,1.0,9.366724,5.0886,3.0250905
alexnet_w1_mlp_simclrhn_probe1,1,325,NaN,oven,oven,bw,0325_cl_dnn_bw_oven_40_n04111531_6120.png,n04111531_6120.png,1.0,5.701013,-2.2047842,5.590243
alexnet_w1_mlp_simclrhn_probe1,1,326,NaN,car,car,bw,0326_cl_dnn_bw_car_40_n02814533_92940.png,n02814533_92940.png,1.0,7.5248017,1.1336136,4.519253
alexnet_w1_mlp_simclrhn_probe1,1,327,NaN,chair,chair,cr,0327_cl_dnn_cr_chair_40_n02791124_392.png,n02791124_392.png,1.0,0.29322207,-1.5588921,1.3096426
alexnet_w1_mlp_simclrhn_probe1,1,328,NaN,clock,clock,bw,0328_cl_dnn_bw_clock_40_n04548280_3330.png,n04548280_3330.png,1.0,2.0305226,-0.65613496,1.8997537
alexnet_w1_mlp_simclrhn_probe1,1,329,NaN,truck,car,cr,0329_cl_dnn_cr_car_40_n02814533_83614.png,n02814533_83614.png,0.0,7.950861,8.671936,-0.5098771
alexnet_w1_mlp_simclrhn_probe1,1,330,NaN,bear,bear,cr,0330_cl_dnn_cr_bear_40_n02134418_3846.png,n02134418_3846.png,1.0,5.7948112,4.219905,1.113627
alexnet_w1_mlp_simclrhn_probe1,1,331,NaN,elephant,elephant,cr,0331_cl_dnn_cr_elephant_40_n02504013_811.png,n02504013_811.png,1.0,-0.5712646,-1.4532869,0.6236839
alexnet_w1_mlp_simclrhn_probe1,1,332,NaN,airplane,airplane,bw,0332_cl_dnn_bw_airplane_40_n02690373_1442.png,n02690373_1442.png,1.0,3.9942875,-0.60306746,3.2508209
alexnet_w1_mlp_simclrhn_probe1,1,333,NaN,chair,chair,cr,0333_cl_dnn_cr_chair_40_n03376595_6691.png,n03376595_6691.png,1.0,0.7408086,-0.7431079,1.0492874
alexnet_w1_mlp_simclrhn_probe1,1,334,NaN,bear,bird,bw,0334_cl_dnn_bw_bird_40_n01616318_1071.png,n01616318_1071.png,0.0,-5.4289665,0.20401375,-3.9831188
alexnet_w1_mlp_simclrhn_probe1,1,335,NaN,boat,boat,cr,0335_cl_dnn_cr_boat_40_n03662601_8333.png,n03662601_8333.png,1.0,-0.08369343,-1.187241,0.780326
alexnet_w1_mlp_simclrhn_probe1,1,336,NaN,truck,truck,cr,0336_cl_dnn_cr_truck_40_n03796401_9384.png,n03796401_9384.png,1.0,1.2528536,0.5279343,0.51259536
alexnet_w1_mlp_simclrhn_probe1,1,337,NaN,bottle,bottle,cr,0337_cl_dnn_cr_bottle_40_n04560804_19001.png,n04560804_19001.png,1.0,1.8443099,0.40182105,1.0199937
alexnet_w1_mlp_simclrhn_probe1,1,338,NaN,elephant,cat,cr,0338_cl_dnn_cr_cat_40_n02123045_7646.png,n02123045_7646.png,0.0,-0.66573185,-0.3516479,-0.22209089
alexnet_w1_mlp_simclrhn_probe1,1,339,NaN,elephant,elephant,cr,0339_cl_dnn_cr_elephant_40_n02504013_3599.png,n02504013_3599.png,1.0,11.520814,6.3100066,3.6845973
alexnet_w1_mlp_simclrhn_probe1,1,340,NaN,bottle,clock,cr,0340_cl_dnn_cr_clock_40_n03196217_1109.png,n03196217_1109.png,0.0,-0.06894926,-0.019239562,-0.035150066
alexnet_w1_mlp_simclrhn_probe1,1,341,NaN,truck,boat,bw,0341_cl_dnn_bw_boat_40_n03344393_5322.png,n03344393_5322.png,0.0,0.7037095,2.0858958,-0.97735333
alexnet_w1_mlp_simclrhn_probe1,1,342,NaN,elephant,dog,cr,0342_cl_dnn_cr_dog_40_n02090622_11748.png,n02090622_11748.png,0.0,0.3917474,3.3948226,-2.1234949
alexnet_w1_mlp_simclrhn_probe1,1,343,NaN,knife,knife,cr,0343_cl_dnn_cr_knife_40_n03041632_20707.png,n03041632_20707.png,1.0,-1.4581567,-3.578579,1.4993651
alexnet_w1_mlp_simclrhn_probe1,1,344,NaN,keyboard,keyboard,cr,0344_cl_dnn_cr_keyboard_40_n03085013_8936.png,n03085013_8936.png,1.0,0.5060735,-0.13408627,0.4526613
alexnet_w1_mlp_simclrhn_probe1,1,345,NaN,airplane,airplane,cr,0345_cl_dnn_cr_airplane_40_n02690373_4695.png,n02690373_4695.png,1.0,5.166993,1.7418354,2.4219522
alexnet_w1_mlp_simclrhn_probe1,1,346,NaN,oven,oven,bw,0346_cl_dnn_bw_oven_40_n04111531_16463.png,n04111531_16463.png,1.0,0.3225755,-1.1542665,1.0442849
alexnet_w1_mlp_simclrhn_probe1,1,347,NaN,dog,dog,bw,0347_cl_dnn_bw_dog_40_n02099712_1234.png,n02099712_1234.png,1.0,0.2584866,-6.789396,4.983606
alexnet_w1_mlp_simclrhn_probe1,1,348,NaN,boat,boat,bw,0348_cl_dnn_bw_boat_40_n03662601_17361.png,n03662601_17361.png,1.0,2.9900923,-2.3026683,3.742547
alexnet_w1_mlp_simclrhn_probe1,1,349,NaN,oven,oven,cr,0349_cl_dnn_cr_oven_40_n04111531_12929.png,n04111531_12929.png,1.0,1.5056404,-2.0094938,2.4855754
alexnet_w1_mlp_simclrhn_probe1,1,350,NaN,car,truck,bw,0350_cl_dnn_bw_truck_40_n03417042_2056.png,n03417042_2056.png,0.0,-2.872611,1.2819837,-2.9377422
alexnet_w1_mlp_simclrhn_probe1,1,351,NaN,oven,oven,cr,0351_cl_dnn_cr_oven_40_n04111531_2937.png,n04111531_2937.png,1.0,4.553636,-0.043824285,3.2508955
alexnet_w1_mlp_simclrhn_probe1,1,352,NaN,boat,boat,bw,0352_cl_dnn_bw_boat_40_n04273569_23705.png,n04273569_23705.png,1.0,1.4536718,0.31128737,0.8077878
alexnet_w1_mlp_simclrhn_probe1,1,353,NaN,boat,boat,cr,0353_cl_dnn_cr_boat_40_n02951358_8456.png,n02951358_8456.png,1.0,-1.2669197,-1.7760706,0.36002403
alexnet_w1_mlp_simclrhn_probe1,1,354,NaN,bottle,bottle,bw,0354_cl_dnn_bw_bottle_40_n03983396_11632.png,n03983396_11632.png,1.0,0.91093206,-1.7840486,1.905639
alexnet_w1_mlp_simclrhn_probe1,1,355,NaN,bicycle,bicycle,bw,0355_cl_dnn_bw_bicycle_40_n02835271_506.png,n02835271_506.png,1.0,7.189165,-2.727849,7.012388
alexnet_w1_mlp_simclrhn_probe1,1,356,NaN,keyboard,keyboard,cr,0356_cl_dnn_cr_keyboard_40_n04505470_665.png,n04505470_665.png,1.0,4.711815,3.0008113,1.2098622
alexnet_w1_mlp_simclrhn_probe1,1,357,NaN,bear,bear,bw,0357_cl_dnn_bw_bear_40_n02132136_390.png,n02132136_390.png,1.0,4.45316,1.254821,2.261567
alexnet_w1_mlp_simclrhn_probe1,1,358,NaN,bear,bear,cr,0358_cl_dnn_cr_bear_40_n02134084_13663.png,n02134084_13663.png,1.0,2.277555,-0.011283696,1.6184534
alexnet_w1_mlp_simclrhn_probe1,1,359,NaN,airplane,airplane,cr,0359_cl_dnn_cr_airplane_40_n02690373_2837.png,n02690373_2837.png,1.0,7.7674522,3.4232502,3.0718148
alexnet_w1_mlp_simclrhn_probe1,1,360,NaN,airplane,airplane,bw,0360_cl_dnn_bw_airplane_40_n02690373_1492.png,n02690373_1492.png,1.0,7.0231705,1.0380515,4.232118
alexnet_w1_mlp_simclrhn_probe1,1,361,NaN,car,car,cr,0361_cl_dnn_cr_car_40_n03100240_14252.png,n03100240_14252.png,1.0,15.693978,9.754412,4.199908
alexnet_w1_mlp_simclrhn_probe1,1,362,NaN,chair,elephant,bw,0362_cl_dnn_bw_elephant_40_n02504458_4908.png,n02504458_4908.png,0.0,-3.8069782,-2.0431466,-1.2472173
alexnet_w1_mlp_simclrhn_probe1,1,363,NaN,bird,bird,bw,0363_cl_dnn_bw_bird_40_n01582220_5821.png,n01582220_5821.png,1.0,-1.0849853,-3.4657092,1.683426
alexnet_w1_mlp_simclrhn_probe1,1,364,NaN,cat,cat,cr,0364_cl_dnn_cr_cat_40_n02123045_2968.png,n02123045_2968.png,1.0,2.6702719,0.08631331,1.8271347
alexnet_w1_mlp_simclrhn_probe1,1,365,NaN,dog,dog,cr,0365_cl_dnn_cr_dog_40_n02088466_1671.png,n02088466_1671.png,1.0,0.9882146,-0.39054558,0.9749307
alexnet_w1_mlp_simclrhn_probe1,1,366,NaN,boat,boat,bw,0366_cl_dnn_bw_boat_40_n03344393_7659.png,n03344393_7659.png,1.0,6.6474075,4.4564667,1.5492291
alexnet_w1_mlp_simclrhn_probe1,1,367,NaN,bicycle,bicycle,bw,0367_cl_dnn_bw_bicycle_40_n03792782_3783.png,n03792782_3783.png,1.0,1.5152767,-3.6417751,3.6465864
alexnet_w1_mlp_simclrhn_probe1,1,368,NaN,airplane,airplane,cr,0368_cl_dnn_cr_airplane_40_n02690373_2059.png,n02690373_2059.png,1.0,5.316624,-0.049502086,3.7944243
alexnet_w1_mlp_simclrhn_probe1,1,369,NaN,keyboard,keyboard,cr,0369_cl_dnn_cr_keyboard_40_n03085013_19483.png,n03085013_19483.png,1.0,2.5474324,-0.22343974,1.9593025
alexnet_w1_mlp_simclrhn_probe1,1,370,NaN,bicycle,bicycle,bw,0370_cl_dnn_bw_bicycle_40_n03792782_2960.png,n03792782_2960.png,1.0,7.1180778,-2.8494534,7.048109
alexnet_w1_mlp_simclrhn_probe1,1,371,NaN,oven,keyboard,cr,0371_cl_dnn_cr_keyboard_40_n03085013_24538.png,n03085013_24538.png,0.0,1.1256423,1.8646224,-0.5225378
alexnet_w1_mlp_simclrhn_probe1,1,372,NaN,chair,cat,cr,0372_cl_dnn_cr_cat_40_n02123597_9656.png,n02123597_9656.png,0.0,-4.4738703,-1.3434982,-2.2135074
alexnet_w1_mlp_simclrhn_probe1,1,373,NaN,car,car,cr,0373_cl_dnn_cr_car_40_n04285008_1085.png,n04285008_1085.png,1.0,12.055179,4.082869,5.6372743
alexnet_w1_mlp_simclrhn_probe1,1,374,NaN,dog,dog,cr,0374_cl_dnn_cr_dog_40_n02102177_5870.png,n02102177_5870.png,1.0,2.6033762,-0.26199257,2.0261219
alexnet_w1_mlp_simclrhn_probe1,1,375,NaN,car,boat,cr,0375_cl_dnn_cr_boat_40_n03662601_24852.png,n03662601_24852.png,0.0,-1.9428517,-0.01087743,-1.3661121
alexnet_w1_mlp_simclrhn_probe1,1,376,NaN,bicycle,bicycle,cr,0376_cl_dnn_cr_bicycle_40_n03792782_32379.png,n03792782_32379.png,1.0,7.6927996,-1.1021185,6.2189465
alexnet_w1_mlp_simclrhn_probe1,1,377,NaN,dog,cat,cr,0377_cl_dnn_cr_cat_40_n02123597_12266.png,n02123597_12266.png,0.0,-6.296841,-3.0210752,-2.3163164
alexnet_w1_mlp_simclrhn_probe1,1,378,NaN,airplane,airplane,cr,0378_cl_dnn_cr_airplane_40_n02690373_713.png,n02690373_713.png,1.0,10.228277,1.6006311,6.1006675
alexnet_w1_mlp_simclrhn_probe1,1,379,NaN,airplane,airplane,cr,0379_cl_dnn_cr_airplane_40_n02690373_6543.png,n02690373_6543.png,1.0,5.7344747,2.129091,2.5493913
alexnet_w1_mlp_simclrhn_probe1,1,380,NaN,oven,oven,cr,0380_cl_dnn_cr_oven_40_n04111531_5888.png,n04111531_5888.png,1.0,5.3047104,-1.2557466,4.6389437
alexnet_w1_mlp_simclrhn_probe1,1,381,NaN,dog,dog,bw,0381_cl_dnn_bw_dog_40_n02099601_7304.png,n02099601_7304.png,1.0,2.0242276,0.097917475,1.362107
alexnet_w1_mlp_simclrhn_probe1,1,382,NaN,elephant,bird,bw,0382_cl_dnn_bw_bird_40_n01819313_146.png,n01819313_146.png,0.0,-2.1479428,-1.9838812,-0.116009034
alexnet_w1_mlp_simclrhn_probe1,1,383,NaN,car,car,bw,0383_cl_dnn_bw_car_40_n03100240_18873.png,n03100240_18873.png,1.0,10.966869,6.964351,2.8302078
alexnet_w1_mlp_simclrhn_probe1,1,384,NaN,cat,dog,bw,0384_cl_dnn_bw_dog_40_n02100583_2707.png,n02100583_2707.png,0.0,0.7352744,1.1505574,-0.29364944
alexnet_w1_mlp_simclrhn_probe1,1,385,NaN,cat,dog,bw,0385_cl_dnn_bw_dog_40_n02105056_15484.png,n02105056_15484.png,0.0,-2.887349,-0.2882177,-1.8378632
alexnet_w1_mlp_simclrhn_probe1,1,386,NaN,truck,truck,bw,0386_cl_dnn_bw_truck_40_n04467665_66535.png,n04467665_66535.png,1.0,7.0948286,2.3411524,3.361357
alexnet_w1_mlp_simclrhn_probe1,1,387,NaN,elephant,elephant,bw,0387_cl_dnn_bw_elephant_40_n02504458_12303.png,n02504458_12303.png,1.0,4.439728,1.0205537,2.4177213
alexnet_w1_mlp_simclrhn_probe1,1,388,NaN,bottle,bottle,cr,0388_cl_dnn_cr_bottle_40_n03937543_4586.png,n03937543_4586.png,1.0,1.6479542,-0.9753682,1.8549691
alexnet_w1_mlp_simclrhn_probe1,1,389,NaN,cat,bird,cr,0389_cl_dnn_cr_bird_40_n02007558_19064.png,n02007558_19064.png,0.0,-2.2979503,-1.2324687,-0.75340927
alexnet_w1_mlp_simclrhn_probe1,1,390,NaN,oven,oven,bw,0390_cl_dnn_bw_oven_40_n04111531_5904.png,n04111531_5904.png,1.0,5.956459,-2.5697887,6.028968
alexnet_w1_mlp_simclrhn_probe1,1,391,NaN,airplane,keyboard,cr,0391_cl_dnn_cr_keyboard_40_n03085013_18625.png,n03085013_18625.png,0.0,-3.5765722,0.59575415,-2.9502802
alexnet_w1_mlp_simclrhn_probe1,1,392,NaN,bottle,bottle,cr,0392_cl_dnn_cr_bottle_40_n04579145_445.png,n04579145_445.png,1.0,1.88003,-0.49585262,1.6800027
alexnet_w1_mlp_simclrhn_probe1,1,393,NaN,keyboard,keyboard,bw,0393_cl_dnn_bw_keyboard_40_n03085013_22820.png,n03085013_22820.png,1.0,2.4653943,2.3156505,0.10588486
alexnet_w1_mlp_simclrhn_probe1,1,394,NaN,truck,truck,cr,0394_cl_dnn_cr_truck_40_n03417042_19479.png,n03417042_19479.png,1.0,9.427939,4.7161317,3.3317513
alexnet_w1_mlp_simclrhn_probe1,1,395,NaN,bird,bird,bw,0395_cl_dnn_bw_bird_40_n01833805_28946.png,n01833805_28946.png,1.0,-0.54620385,-2.4668496,1.3581016
alexnet_w1_mlp_simclrhn_probe1,1,396,NaN,bottle,bottle,bw,0396_cl_dnn_bw_bottle_40_n04591713_3896.png,n04591713_3896.png,1.0,-1.7496835,-2.3736286,0.44119585
alexnet_w1_mlp_simclrhn_probe1,1,397,NaN,cat,cat,cr,0397_cl_dnn_cr_cat_40_n02123159_782.png,n02123159_782.png,1.0,4.394156,-4.5226526,6.305136
alexnet_w1_mlp_simclrhn_probe1,1,398,NaN,keyboard,keyboard,bw,0398_cl_dnn_bw_keyboard_40_n04505470_464.png,n04505470_464.png,1.0,0.44315892,-1.7210304,1.530313
alexnet_w1_mlp_simclrhn_probe1,1,399,NaN,bird,bird,cr,0399_cl_dnn_cr_bird_40_n01558993_3939.png,n01558993_3939.png,1.0,1.6357148,-3.9160755,3.9257085
alexnet_w1_mlp_simclrhn_probe1,1,400,NaN,boat,boat,cr,0400_cl_dnn_cr_boat_40_n04273569_3052.png,n04273569_3052.png,1.0,3.0517235,-2.327913,3.8039777
alexnet_w1_mlp_simclrhn_probe1,1,401,NaN,knife,knife,bw,0401_cl_dnn_bw_knife_40_n03041632_85416.png,n03041632_85416.png,1.0,-0.5452411,-2.726883,1.5426538
alexnet_w1_mlp_simclrhn_probe1,1,402,NaN,car,car,bw,0402_cl_dnn_bw_car_40_n02814533_51154.png,n02814533_51154.png,1.0,16.939056,13.915028,2.1383114
alexnet_w1_mlp_simclrhn_probe1,1,403,NaN,airplane,airplane,bw,0403_cl_dnn_bw_airplane_40_n02690373_6516.png,n02690373_6516.png,1.0,10.408367,4.7367024,4.010473
alexnet_w1_mlp_simclrhn_probe1,1,404,NaN,airplane,airplane,cr,0404_cl_dnn_cr_airplane_40_n02690373_12813.png,n02690373_12813.png,1.0,9.654668,0.18932806,6.693006
alexnet_w1_mlp_simclrhn_probe1,1,405,NaN,airplane,airplane,bw,0405_cl_dnn_bw_airplane_40_n02690373_6406.png,n02690373_6406.png,1.0,7.096528,0.9858799,4.320881
alexnet_w1_mlp_simclrhn_probe1,1,406,NaN,chair,chair,cr,0406_cl_dnn_cr_chair_40_n03376595_8228.png,n03376595_8228.png,1.0,2.7903938,-0.80460066,2.542045
alexnet_w1_mlp_simclrhn_probe1,1,407,NaN,knife,chair,bw,0407_cl_dnn_bw_chair_40_n04099969_6309.png,n04099969_6309.png,0.0,-2.4297137,0.40059018,-2.001327
alexnet_w1_mlp_simclrhn_probe1,1,408,NaN,elephant,elephant,cr,0408_cl_dnn_cr_elephant_40_n02504013_19831.png,n02504013_19831.png,1.0,10.34823,1.3625125,6.3538623
alexnet_w1_mlp_simclrhn_probe1,1,409,NaN,knife,bottle,bw,0409_cl_dnn_bw_bottle_40_n03937543_5088.png,n03937543_5088.png,0.0,-2.9915118,-1.3411236,-1.1670008
alexnet_w1_mlp_simclrhn_probe1,1,410,NaN,elephant,elephant,cr,0410_cl_dnn_cr_elephant_40_n02504458_2190.png,n02504458_2190.png,1.0,0.86118746,-1.422558,1.6148518
alexnet_w1_mlp_simclrhn_probe1,1,411,NaN,car,car,bw,0411_cl_dnn_bw_car_40_n04285008_5997.png,n04285008_5997.png,1.0,9.570199,2.654204,4.890347
alexnet_w1_mlp_simclrhn_probe1,1,412,NaN,bottle,knife,cr,0412_cl_dnn_cr_knife_40_n03041632_94620.png,n03041632_94620.png,0.0,-2.7048192,-1.2055514,-1.0601425
alexnet_w1_mlp_simclrhn_probe1,1,413,NaN,bicycle,bicycle,cr,0413_cl_dnn_cr_bicycle_40_n02835271_8125.png,n02835271_8125.png,1.0,6.2088037,-0.3161285,4.613824
alexnet_w1_mlp_simclrhn_probe1,1,414,NaN,oven,oven,cr,0414_cl_dnn_cr_oven_40_n04111531_4662.png,n04111531_4662.png,1.0,6.97791,-3.128632,7.1464047
alexnet_w1_mlp_simclrhn_probe1,1,415,NaN,elephant,dog,bw,0415_cl_dnn_bw_dog_40_n02110806_21755.png,n02110806_21755.png,0.0,-2.9388788,3.067934,-4.2474585
alexnet_w1_mlp_simclrhn_probe1,1,416,NaN,bottle,bottle,bw,0416_cl_dnn_bw_bottle_40_n02823428_3505.png,n02823428_3505.png,1.0,-0.4133148,-1.1240348,0.5025549
alexnet_w1_mlp_simclrhn_probe1,1,417,NaN,cat,cat,cr,0417_cl_dnn_cr_cat_40_n02123045_11472.png,n02123045_11472.png,1.0,6.738035,-0.7781823,5.314769
alexnet_w1_mlp_simclrhn_probe1,1,418,NaN,boat,boat,cr,0418_cl_dnn_cr_boat_40_n03662601_14818.png,n03662601_14818.png,1.0,5.596355,0.2103836,3.8084571
alexnet_w1_mlp_simclrhn_probe1,1,419,NaN,bicycle,bicycle,cr,0419_cl_dnn_cr_bicycle_40_n02835271_8322.png,n02835271_8322.png,1.0,3.8346741,0.3137142,2.4896946
alexnet_w1_mlp_simclrhn_probe1,1,420,NaN,knife,knife,bw,0420_cl_dnn_bw_knife_40_n03041632_9580.png,n03041632_9580.png,1.0,0.48051345,-2.2422574,1.9252896
alexnet_w1_mlp_simclrhn_probe1,1,421,NaN,bicycle,dog,bw,0421_cl_dnn_bw_dog_40_n02088466_3052.png,n02088466_3052.png,0.0,-3.9760017,-2.9469914,-0.7276202
alexnet_w1_mlp_simclrhn_probe1,1,422,NaN,keyboard,keyboard,cr,0422_cl_dnn_cr_keyboard_40_n04505470_7161.png,n04505470_7161.png,1.0,13.229459,-0.42952845,9.658362
alexnet_w1_mlp_simclrhn_probe1,1,423,NaN,keyboard,keyboard,cr,0423_cl_dnn_cr_keyboard_40_n04505470_2321.png,n04505470_2321.png,1.0,5.9755855,-1.3702177,5.1942673
alexnet_w1_mlp_simclrhn_probe1,1,424,NaN,oven,knife,cr,0424_cl_dnn_cr_knife_40_n03041632_6708.png,n03041632_6708.png,0.0,-3.6180398,3.5705278,-5.083085
alexnet_w1_mlp_simclrhn_probe1,1,425,NaN,keyboard,keyboard,bw,0425_cl_dnn_bw_keyboard_40_n04505470_4965.png,n04505470_4965.png,1.0,9.330027,1.2437502,5.7178607
alexnet_w1_mlp_simclrhn_probe1,1,426,NaN,cat,cat,bw,0426_cl_dnn_bw_cat_40_n02123597_11981.png,n02123597_11981.png,1.0,2.6910937,1.1744908,1.0724002
alexnet_w1_mlp_simclrhn_probe1,1,427,NaN,truck,truck,cr,0427_cl_dnn_cr_truck_40_n03417042_2778.png,n03417042_2778.png,1.0,5.1502256,1.3890921,2.6595232
alexnet_w1_mlp_simclrhn_probe1,1,428,NaN,car,car,cr,0428_cl_dnn_cr_car_40_n02814533_80049.png,n02814533_80049.png,1.0,11.916115,10.929433,0.6976895
alexnet_w1_mlp_simclrhn_probe1,1,429,NaN,cat,keyboard,cr,0429_cl_dnn_cr_keyboard_40_n03085013_23561.png,n03085013_23561.png,0.0,-3.817976,-1.2434732,-1.8204485
alexnet_w1_mlp_simclrhn_probe1,1,430,NaN,airplane,airplane,bw,0430_cl_dnn_bw_airplane_40_n02690373_1800.png,n02690373_1800.png,1.0,3.6252937,0.7692726,2.019512
alexnet_w1_mlp_simclrhn_probe1,1,431,NaN,chair,chair,bw,0431_cl_dnn_bw_chair_40_n02791124_4306.png,n02791124_4306.png,1.0,-1.7882167,-2.4012578,0.43348548
alexnet_w1_mlp_simclrhn_probe1,1,432,NaN,bicycle,knife,bw,0432_cl_dnn_bw_knife_40_n03041632_33424.png,n03041632_33424.png,0.0,-3.8682187,-2.7538128,-0.788004
alexnet_w1_mlp_simclrhn_probe1,1,433,NaN,boat,boat,cr,0433_cl_dnn_cr_boat_40_n04273569_111.png,n04273569_111.png,1.0,-0.20182972,-0.81538045,0.43384588
alexnet_w1_mlp_simclrhn_probe1,1,434,NaN,bear,bear,bw,0434_cl_dnn_bw_bear_40_n02132136_4403.png,n02132136_4403.png,1.0,2.1723576,1.1578704,0.7173508
alexnet_w1_mlp_simclrhn_probe1,1,435,NaN,bicycle,bicycle,bw,0435_cl_dnn_bw_bicycle_40_n03792782_49707.png,n03792782_49707.png,1.0,-0.81163245,-1.5722853,0.5378628
alexnet_w1_mlp_simclrhn_probe1,1,436,NaN,bicycle,bicycle,cr,0436_cl_dnn_cr_bicycle_40_n02835271_3308.png,n02835271_3308.png,1.0,3.3215585,-4.061637,5.2207074
alexnet_w1_mlp_simclrhn_probe1,1,437,NaN,car,clock,bw,0437_cl_dnn_bw_clock_40_n04548280_3305.png,n04548280_3305.png,0.0,0.66282886,1.4037653,-0.5239212
alexnet_w1_mlp_simclrhn_probe1,1,438,NaN,boat,boat,bw,0438_cl_dnn_bw_boat_40_n03344393_7614.png,n03344393_7614.png,1.0,5.7635922,4.436499,0.9383966
alexnet_w1_mlp_simclrhn_probe1,1,439,NaN,car,bicycle,bw,0439_cl_dnn_bw_bicycle_40_n02835271_9434.png,n02835271_9434.png,0.0,-2.0811465,-0.58280843,-1.059485
alexnet_w1_mlp_simclrhn_probe1,1,440,NaN,bicycle,truck,bw,0440_cl_dnn_bw_truck_40_n03417042_3039.png,n03417042_3039.png,0.0,-2.232068,-1.4622122,-0.5443703
alexnet_w1_mlp_simclrhn_probe1,1,441,NaN,oven,oven,cr,0441_cl_dnn_cr_oven_40_n04111531_5519.png,n04111531_5519.png,1.0,1.8592467,-3.5829945,3.8482456
alexnet_w1_mlp_simclrhn_probe1,1,442,NaN,bottle,bottle,cr,0442_cl_dnn_cr_bottle_40_n03983396_3702.png,n03983396_3702.png,1.0,1.0038263,-2.2360487,2.2909374
alexnet_w1_mlp_simclrhn_probe1,1,443,NaN,bicycle,clock,cr,0443_cl_dnn_cr_clock_40_n04548280_2177.png,n04548280_2177.png,0.0,-0.9952968,2.0725696,-2.1693091
alexnet_w1_mlp_simclrhn_probe1,1,444,NaN,bottle,bottle,cr,0444_cl_dnn_cr_bottle_40_n03983396_4132.png,n03983396_4132.png,1.0,6.397126,-2.5016963,6.292418
alexnet_w1_mlp_simclrhn_probe1,1,445,NaN,bicycle,bicycle,cr,0445_cl_dnn_cr_bicycle_40_n02835271_17509.png,n02835271_17509.png,1.0,3.605763,-4.1434064,5.4794903
alexnet_w1_mlp_simclrhn_probe1,1,446,NaN,airplane,airplane,bw,0446_cl_dnn_bw_airplane_40_n02690373_3090.png,n02690373_3090.png,1.0,4.345437,-0.43103114,3.377473
alexnet_w1_mlp_simclrhn_probe1,1,447,NaN,chair,chair,cr,0447_cl_dnn_cr_chair_40_n03376595_1302.png,n03376595_1302.png,1.0,0.66872954,-0.52945757,0.8472462
alexnet_w1_mlp_simclrhn_probe1,1,448,NaN,dog,dog,cr,0448_cl_dnn_cr_dog_40_n02107683_3640.png,n02107683_3640.png,1.0,3.256131,2.0456295,0.8559538
alexnet_w1_mlp_simclrhn_probe1,1,449,NaN,car,car,cr,0449_cl_dnn_cr_car_40_n03100240_770.png,n03100240_770.png,1.0,10.290486,6.495356,2.6835623
alexnet_w1_mlp_simclrhn_probe1,1,450,NaN,knife,knife,cr,0450_cl_dnn_cr_knife_40_n03041632_4305.png,n03041632_4305.png,1.0,-1.9405248,-2.4000866,0.32495928
alexnet_w1_mlp_simclrhn_probe1,1,451,NaN,elephant,elephant,cr,0451_cl_dnn_cr_elephant_40_n02504013_4590.png,n02504013_4590.png,1.0,3.90558,0.5141929,2.398073
alexnet_w1_mlp_simclrhn_probe1,1,452,NaN,truck,truck,cr,0452_cl_dnn_cr_truck_40_n03417042_5752.png,n03417042_5752.png,1.0,0.89171803,-0.9896145,1.330303
alexnet_w1_mlp_simclrhn_probe1,1,453,NaN,oven,oven,cr,0453_cl_dnn_cr_oven_40_n04111531_21931.png,n04111531_21931.png,1.0,4.855323,-0.91711813,4.0817323
alexnet_w1_mlp_simclrhn_probe1,1,454,NaN,elephant,elephant,bw,0454_cl_dnn_bw_elephant_40_n02504458_4711.png,n02504458_4711.png,1.0,3.2339795,-0.49091482,2.633898
alexnet_w1_mlp_simclrhn_probe1,1,455,NaN,clock,clock,bw,0455_cl_dnn_bw_clock_40_n02708093_8033.png,n02708093_8033.png,1.0,2.3349402,-1.6951978,2.849738
alexnet_w1_mlp_simclrhn_probe1,1,456,NaN,bicycle,bicycle,bw,0456_cl_dnn_bw_bicycle_40_n03792782_41992.png,n03792782_41992.png,1.0,12.0343895,-2.3016524,10.137113
alexnet_w1_mlp_simclrhn_probe1,1,457,NaN,knife,keyboard,cr,0457_cl_dnn_cr_keyboard_40_n03085013_5622.png,n03085013_5622.png,0.0,0.516804,2.0851874,-1.1090146
alexnet_w1_mlp_simclrhn_probe1,1,458,NaN,bird,bird,bw,0458_cl_dnn_bw_bird_40_n02009912_1919.png,n02009912_1919.png,1.0,0.31578064,-4.5098114,3.4122088
alexnet_w1_mlp_simclrhn_probe1,1,459,NaN,bottle,bottle,cr,0459_cl_dnn_cr_bottle_40_n03937543_4202.png,n03937543_4202.png,1.0,0.84786975,-1.9929781,2.0087829
alexnet_w1_mlp_simclrhn_probe1,1,460,NaN,bicycle,bicycle,bw,0460_cl_dnn_bw_bicycle_40_n02835271_4341.png,n02835271_4341.png,1.0,3.3426032,-2.1261027,3.8669593
alexnet_w1_mlp_simclrhn_probe1,1,461,NaN,bear,bear,bw,0461_cl_dnn_bw_bear_40_n02132136_18543.png,n02132136_18543.png,1.0,1.3103544,-1.520216,2.0015154
alexnet_w1_mlp_simclrhn_probe1,1,462,NaN,cat,cat,bw,0462_cl_dnn_bw_cat_40_n02124075_14425.png,n02124075_14425.png,1.0,4.7724404,-0.87708735,3.9948194
alexnet_w1_mlp_simclrhn_probe1,1,463,NaN,clock,clock,bw,0463_cl_dnn_bw_clock_40_n02708093_544.png,n02708093_544.png,1.0,1.6449327,-0.023117397,1.1794896
alexnet_w1_mlp_simclrhn_probe1,1,464,NaN,bear,bear,cr,0464_cl_dnn_cr_bear_40_n02133161_7604.png,n02133161_7604.png,1.0,0.5938495,-0.26068878,0.60424984
alexnet_w1_mlp_simclrhn_probe1,1,465,NaN,car,car,bw,0465_cl_dnn_bw_car_40_n03100240_15407.png,n03100240_15407.png,1.0,6.3018794,3.412632,2.0430064
alexnet_w1_mlp_simclrhn_probe1,1,466,NaN,bicycle,bicycle,bw,0466_cl_dnn_bw_bicycle_40_n02835271_12926.png,n02835271_12926.png,1.0,6.3365192,-2.8493276,6.495374
alexnet_w1_mlp_simclrhn_probe1,1,467,NaN,knife,chair,cr,0467_cl_dnn_cr_chair_40_n03376595_2056.png,n03376595_2056.png,0.0,-2.3552346,-1.1038764,-0.88484395
alexnet_w1_mlp_simclrhn_probe1,1,468,NaN,oven,oven,bw,0468_cl_dnn_bw_oven_40_n04111531_9762.png,n04111531_9762.png,1.0,3.3989758,-0.23775673,2.5715582
alexnet_w1_mlp_simclrhn_probe1,1,469,NaN,bicycle,bicycle,bw,0469_cl_dnn_bw_bicycle_40_n03792782_25799.png,n03792782_25799.png,1.0,2.5812995,-3.8796217,4.5685616
alexnet_w1_mlp_simclrhn_probe1,1,470,NaN,oven,oven,cr,0470_cl_dnn_cr_oven_40_n04111531_3570.png,n04111531_3570.png,1.0,4.8552427,-3.7585487,6.0908704
alexnet_w1_mlp_simclrhn_probe1,1,471,NaN,car,car,cr,0471_cl_dnn_cr_car_40_n04285008_874.png,n04285008_874.png,1.0,6.038976,2.7372918,2.3346434
alexnet_w1_mlp_simclrhn_probe1,1,472,NaN,bicycle,bottle,cr,0472_cl_dnn_cr_bottle_40_n04557648_364.png,n04557648_364.png,0.0,-8.867963,0.89514345,-6.9035587
alexnet_w1_mlp_simclrhn_probe1,1,473,NaN,airplane,airplane,bw,0473_cl_dnn_bw_airplane_40_n02690373_8461.png,n02690373_8461.png,1.0,7.954671,0.99999,4.917702
alexnet_w1_mlp_simclrhn_probe1,1,474,NaN,boat,boat,cr,0474_cl_dnn_cr_boat_40_n04273569_1087.png,n04273569_1087.png,1.0,6.2224913,0.40684617,4.1122823
alexnet_w1_mlp_simclrhn_probe1,1,475,NaN,chair,chair,cr,0475_cl_dnn_cr_chair_40_n03376595_1798.png,n03376595_1798.png,1.0,1.1187909,-1.5693644,1.9008127
alexnet_w1_mlp_simclrhn_probe1,1,476,NaN,oven,oven,cr,0476_cl_dnn_cr_oven_40_n04111531_5290.png,n04111531_5290.png,1.0,5.038697,-0.21901312,3.7177625
alexnet_w1_mlp_simclrhn_probe1,1,477,NaN,cat,cat,bw,0477_cl_dnn_bw_cat_40_n02124075_12369.png,n02124075_12369.png,1.0,3.2882595,1.1768801,1.4929707
alexnet_w1_mlp_simclrhn_probe1,1,478,NaN,elephant,elephant,bw,0478_cl_dnn_bw_elephant_40_n02504458_3714.png,n02504458_3714.png,1.0,3.1194618,-0.91094106,2.849925
alexnet_w1_mlp_simclrhn_probe1,1,479,NaN,bicycle,bicycle,bw,0479_cl_dnn_bw_bicycle_40_n03792782_7388.png,n03792782_7388.png,1.0,-1.038313,-1.2347087,0.13887268
alexnet_w1_mlp_simclrhn_probe1,1,480,NaN,truck,truck,cr,0480_cl_dnn_cr_truck_40_n03796401_18240.png,n03796401_18240.png,1.0,4.834261,2.3907232,1.7278421
alexnet_w1_mlp_simclrhn_probe1,1,481,NaN,airplane,airplane,cr,0481_cl_dnn_cr_airplane_40_n02690373_610.png,n02690373_610.png,1.0,8.921606,2.0655658,4.8479524
alexnet_w1_mlp_simclrhn_probe1,1,482,NaN,airplane,airplane,bw,0482_cl_dnn_bw_airplane_40_n02690373_6046.png,n02690373_6046.png,1.0,13.587688,-0.86949885,10.222775
alexnet_w1_mlp_simclrhn_probe1,1,483,NaN,bear,dog,cr,0483_cl_dnn_cr_dog_40_n02105505_4069.png,n02105505_4069.png,0.0,0.077489056,1.8937609,-1.2842982
alexnet_w1_mlp_simclrhn_probe1,1,484,NaN,chair,chair,bw,0484_cl_dnn_bw_chair_40_n04429376_1954.png,n04429376_1954.png,1.0,-0.9293504,-1.1123904,0.12942885
alexnet_w1_mlp_simclrhn_probe1,1,485,NaN,oven,oven,bw,0485_cl_dnn_bw_oven_40_n04111531_7862.png,n04111531_7862.png,1.0,6.716576,-1.2819178,5.6557894
alexnet_w1_mlp_simclrhn_probe1,1,486,NaN,car,chair,cr,0486_cl_dnn_cr_chair_40_n02791124_7424.png,n02791124_7424.png,0.0,-0.8994838,0.95183593,-1.3090808
alexnet_w1_mlp_simclrhn_probe1,1,487,NaN,elephant,dog,bw,0487_cl_dnn_bw_dog_40_n02088466_5521.png,n02088466_5521.png,0.0,-0.46193668,0.7965226,-0.88986516
alexnet_w1_mlp_simclrhn_probe1,1,488,NaN,bicycle,bear,cr,0488_cl_dnn_cr_bear_40_n02133161_12868.png,n02133161_12868.png,0.0,-2.6369061,-1.5991263,-0.73382115
alexnet_w1_mlp_simclrhn_probe1,1,489,NaN,keyboard,keyboard,bw,0489_cl_dnn_bw_keyboard_40_n04505470_4107.png,n04505470_4107.png,1.0,5.6876235,4.4062114,0.9060952
alexnet_w1_mlp_simclrhn_probe1,1,490,NaN,boat,boat,bw,0490_cl_dnn_bw_boat_40_n03662601_855.png,n03662601_855.png,1.0,6.8293405,2.7731154,2.868184
alexnet_w1_mlp_simclrhn_probe1,1,491,NaN,bird,bird,cr,0491_cl_dnn_cr_bird_40_n02017213_7558.png,n02017213_7558.png,1.0,0.2051962,-5.118696,3.7645607
alexnet_w1_mlp_simclrhn_probe1,1,492,NaN,airplane,bottle,bw,0492_cl_dnn_bw_bottle_40_n04557648_23801.png,n04557648_23801.png,0.0,-4.2449102,0.109107465,-3.0787556
alexnet_w1_mlp_simclrhn_probe1,1,493,NaN,bird,bird,bw,0493_cl_dnn_bw_bird_40_n01601694_13054.png,n01601694_13054.png,1.0,2.6324344,-4.119918,4.7746344
alexnet_w1_mlp_simclrhn_probe1,1,494,NaN,oven,oven,bw,0494_cl_dnn_bw_oven_40_n04111531_2207.png,n04111531_2207.png,1.0,4.6601543,-5.162576,6.9457197
alexnet_w1_mlp_simclrhn_probe1,1,495,NaN,bird,bird,bw,0495_cl_dnn_bw_bird_40_n02009912_9425.png,n02009912_9425.png,1.0,1.5318954,-3.4011092,3.4881608
alexnet_w1_mlp_simclrhn_probe1,1,496,NaN,clock,clock,cr,0496_cl_dnn_cr_clock_40_n03196217_6193.png,n03196217_6193.png,1.0,3.8504727,3.816043,0.024345538
alexnet_w1_mlp_simclrhn_probe1,1,497,NaN,boat,boat,bw,0497_cl_dnn_bw_boat_40_n04273569_27625.png,n04273569_27625.png,1.0,4.9627275,1.1967366,2.662958
alexnet_w1_mlp_simclrhn_probe1,1,498,NaN,chair,truck,bw,0498_cl_dnn_bw_truck_40_n03417042_29855.png,n03417042_29855.png,0.0,0.6131098,1.804907,-0.84272784
alexnet_w1_mlp_simclrhn_probe1,1,499,NaN,bottle,bottle,cr,0499_cl_dnn_cr_bottle_40_n03983396_4212.png,n03983396_4212.png,1.0,1.7799988,-3.4053292,3.6665807
alexnet_w1_mlp_simclrhn_probe1,1,500,NaN,cat,cat,bw,0500_cl_dnn_bw_cat_40_n02123597_11613.png,n02123597_11613.png,1.0,1.8795624,0.90336895,0.690273
alexnet_w1_mlp_simclrhn_probe1,1,501,NaN,clock,clock,cr,0501_cl_dnn_cr_clock_40_n02708093_1559.png,n02708093_1559.png,1.0,-0.32656956,-1.370169,0.73793626
alexnet_w1_mlp_simclrhn_probe1,1,502,NaN,chair,chair,cr,0502_cl_dnn_cr_chair_40_n02791124_7031.png,n02791124_7031.png,1.0,0.6777141,-1.5990465,1.6099129
alexnet_w1_mlp_simclrhn_probe1,1,503,NaN,bottle,bottle,cr,0503_cl_dnn_cr_bottle_40_n04560804_1703.png,n04560804_1703.png,1.0,1.6722295,0.5022071,0.8273308
alexnet_w1_mlp_simclrhn_probe1,1,504,NaN,bottle,bottle,bw,0504_cl_dnn_bw_bottle_40_n04560804_15679.png,n04560804_15679.png,1.0,3.410754,-1.8252912,3.702443
alexnet_w1_mlp_simclrhn_probe1,1,505,NaN,bottle,bottle,bw,0505_cl_dnn_bw_bottle_40_n03983396_1006.png,n03983396_1006.png,1.0,2.1086593,-1.5710267,2.601931
alexnet_w1_mlp_simclrhn_probe1,1,506,NaN,knife,knife,bw,0506_cl_dnn_bw_knife_40_n03041632_100645.png,n03041632_100645.png,1.0,1.3191127,-2.2832534,2.5472574
alexnet_w1_mlp_simclrhn_probe1,1,507,NaN,car,car,cr,0507_cl_dnn_cr_car_40_n02814533_54845.png,n02814533_54845.png,1.0,10.041073,8.478394,1.1049812
alexnet_w1_mlp_simclrhn_probe1,1,508,NaN,keyboard,keyboard,cr,0508_cl_dnn_cr_keyboard_40_n03085013_20078.png,n03085013_20078.png,1.0,2.1972852,0.06392674,1.5085123
alexnet_w1_mlp_simclrhn_probe1,1,509,NaN,elephant,chair,cr,0509_cl_dnn_cr_chair_40_n04099969_4543.png,n04099969_4543.png,0.0,-1.0991175,-0.16928616,-0.6574901
alexnet_w1_mlp_simclrhn_probe1,1,510,NaN,bear,bear,cr,0510_cl_dnn_cr_bear_40_n02134418_1253.png,n02134418_1253.png,1.0,1.6545287,-0.66128427,1.6375271
alexnet_w1_mlp_simclrhn_probe1,1,511,NaN,bicycle,bicycle,bw,0511_cl_dnn_bw_bicycle_40_n02835271_8137.png,n02835271_8137.png,1.0,3.7188332,-1.7350286,3.8564627
alexnet_w1_mlp_simclrhn_probe1,1,512,NaN,keyboard,keyboard,bw,0512_cl_dnn_bw_keyboard_40_n04505470_7312.png,n04505470_7312.png,1.0,2.8743825,-1.348484,2.9860177
alexnet_w1_mlp_simclrhn_probe1,1,513,NaN,elephant,elephant,cr,0513_cl_dnn_cr_elephant_40_n02504013_2460.png,n02504013_2460.png,1.0,7.1528096,-2.8850062,7.097808
alexnet_w1_mlp_simclrhn_probe1,1,514,NaN,bicycle,clock,cr,0514_cl_dnn_cr_clock_40_n04548280_13469.png,n04548280_13469.png,0.0,-2.6257355,-2.3892465,-0.16722302
alexnet_w1_mlp_simclrhn_probe1,1,515,NaN,car,chair,cr,0515_cl_dnn_cr_chair_40_n02791124_3161.png,n02791124_3161.png,0.0,-2.7083611,0.75352484,-2.447923
alexnet_w1_mlp_simclrhn_probe1,1,516,NaN,elephant,dog,cr,0516_cl_dnn_cr_dog_40_n02093647_1818.png,n02093647_1818.png,0.0,-2.981864,2.7280288,-4.0375037
alexnet_w1_mlp_simclrhn_probe1,1,517,NaN,chair,chair,cr,0517_cl_dnn_cr_chair_40_n02791124_4294.png,n02791124_4294.png,1.0,0.5079731,-0.5318203,0.7352449
alexnet_w1_mlp_simclrhn_probe1,1,518,NaN,cat,cat,cr,0518_cl_dnn_cr_cat_40_n02124075_3533.png,n02124075_3533.png,1.0,7.422094,-0.06665495,5.2953453
alexnet_w1_mlp_simclrhn_probe1,1,519,NaN,boat,boat,cr,0519_cl_dnn_cr_boat_40_n03344393_2480.png,n03344393_2480.png,1.0,3.8034997,-0.17193681,2.811058
alexnet_w1_mlp_simclrhn_probe1,1,520,NaN,car,car,bw,0520_cl_dnn_bw_car_40_n02814533_95054.png,n02814533_95054.png,1.0,3.9073324,1.5996372,1.6317871
alexnet_w1_mlp_simclrhn_probe1,1,521,NaN,bottle,bottle,cr,0521_cl_dnn_cr_bottle_40_n03937543_1808.png,n03937543_1808.png,1.0,5.5991735,-1.3205165,4.89296
alexnet_w1_mlp_simclrhn_probe1,1,522,NaN,car,car,cr,0522_cl_dnn_cr_car_40_n02814533_72213.png,n02814533_72213.png,1.0,9.737719,4.7043066,3.5591598
alexnet_w1_mlp_simclrhn_probe1,1,523,NaN,keyboard,clock,cr,0523_cl_dnn_cr_clock_40_n03196217_1499.png,n03196217_1499.png,0.0,1.4707607,3.0348034,-1.1059452
alexnet_w1_mlp_simclrhn_probe1,1,524,NaN,cat,cat,cr,0524_cl_dnn_cr_cat_40_n02123045_5300.png,n02123045_5300.png,1.0,5.9854846,0.7375914,3.710821
alexnet_w1_mlp_simclrhn_probe1,1,525,NaN,bicycle,bird,bw,0525_cl_dnn_bw_bird_40_n02006656_3185.png,n02006656_3185.png,0.0,-4.7021728,-3.6276295,-0.7598168
alexnet_w1_mlp_simclrhn_probe1,1,526,NaN,clock,clock,cr,0526_cl_dnn_cr_clock_40_n03196217_4541.png,n03196217_4541.png,1.0,2.6002924,1.0977259,1.0624751
alexnet_w1_mlp_simclrhn_probe1,1,527,NaN,cat,cat,cr,0527_cl_dnn_cr_cat_40_n02123159_2317.png,n02123159_2317.png,1.0,7.6028,-2.7041082,7.2880845
alexnet_w1_mlp_simclrhn_probe1,1,528,NaN,elephant,bear,cr,0528_cl_dnn_cr_bear_40_n02133161_1362.png,n02133161_1362.png,0.0,1.0806205,2.4149184,-0.9434911
alexnet_w1_mlp_simclrhn_probe1,1,529,NaN,clock,clock,bw,0529_cl_dnn_bw_clock_40_n04548280_1202.png,n04548280_1202.png,1.0,2.8348875,-0.416504,2.2990808
alexnet_w1_mlp_simclrhn_probe1,1,530,NaN,bear,dog,bw,0530_cl_dnn_bw_dog_40_n02095570_6717.png,n02095570_6717.png,0.0,1.9097376,3.207879,-0.91792464
alexnet_w1_mlp_simclrhn_probe1,1,531,NaN,car,car,bw,0531_cl_dnn_bw_car_40_n03100240_15941.png,n03100240_15941.png,1.0,6.4246554,3.7044837,1.9234519
alexnet_w1_mlp_simclrhn_probe1,1,532,NaN,bottle,chair,bw,0532_cl_dnn_bw_chair_40_n02791124_1443.png,n02791124_1443.png,0.0,-2.1221006,-1.0024837,-0.7916887
alexnet_w1_mlp_simclrhn_probe1,1,533,NaN,bottle,bottle,cr,0533_cl_dnn_cr_bottle_40_n04557648_830.png,n04557648_830.png,1.0,6.032665,-0.48226672,4.6067524
alexnet_w1_mlp_simclrhn_probe1,1,534,NaN,truck,truck,cr,0534_cl_dnn_cr_truck_40_n03417042_8298.png,n03417042_8298.png,1.0,16.592974,12.197896,3.1077893
alexnet_w1_mlp_simclrhn_probe1,1,535,NaN,clock,clock,bw,0535_cl_dnn_bw_clock_40_n02708093_4569.png,n02708093_4569.png,1.0,8.28492,1.2844384,4.950088
alexnet_w1_mlp_simclrhn_probe1,1,536,NaN,knife,keyboard,cr,0536_cl_dnn_cr_keyboard_40_n03085013_7576.png,n03085013_7576.png,0.0,-0.6412969,0.5929872,-0.8727707
alexnet_w1_mlp_simclrhn_probe1,1,537,NaN,truck,truck,bw,0537_cl_dnn_bw_truck_40_n03417042_27093.png,n03417042_27093.png,1.0,4.973608,2.5811803,1.6917019
alexnet_w1_mlp_simclrhn_probe1,1,538,NaN,elephant,elephant,cr,0538_cl_dnn_cr_elephant_40_n02504013_13560.png,n02504013_13560.png,1.0,1.3016526,0.3455845,0.6760422
alexnet_w1_mlp_simclrhn_probe1,1,539,NaN,car,car,bw,0539_cl_dnn_bw_car_40_n04285008_12045.png,n04285008_12045.png,1.0,10.518657,6.680905,2.7137005
alexnet_w1_mlp_simclrhn_probe1,1,540,NaN,airplane,airplane,cr,0540_cl_dnn_cr_airplane_40_n02690373_5176.png,n02690373_5176.png,1.0,10.495977,2.276148,5.8122973
alexnet_w1_mlp_simclrhn_probe1,1,541,NaN,bicycle,bicycle,bw,0541_cl_dnn_bw_bicycle_40_n03792782_6194.png,n03792782_6194.png,1.0,3.351255,-3.790565,5.0500293
alexnet_w1_mlp_simclrhn_probe1,1,542,NaN,oven,oven,cr,0542_cl_dnn_cr_oven_40_n04111531_15912.png,n04111531_15912.png,1.0,4.359871,-0.70967144,3.584708
alexnet_w1_mlp_simclrhn_probe1,1,543,NaN,oven,oven,cr,0543_cl_dnn_cr_oven_40_n04111531_2592.png,n04111531_2592.png,1.0,0.86009717,-1.6235266,1.7561872
alexnet_w1_mlp_simclrhn_probe1,1,544,NaN,bird,bird,cr,0544_cl_dnn_cr_bird_40_n02011460_2435.png,n02011460_2435.png,1.0,-2.739632,-3.7515497,0.715534
alexnet_w1_mlp_simclrhn_probe1,1,545,NaN,car,car,cr,0545_cl_dnn_cr_car_40_n02814533_33205.png,n02814533_33205.png,1.0,7.406349,7.37583,0.021580199
alexnet_w1_mlp_simclrhn_probe1,1,546,NaN,chair,oven,bw,0546_cl_dnn_bw_oven_40_n04111531_14959.png,n04111531_14959.png,0.0,0.18175836,0.7775014,-0.42125398
alexnet_w1_mlp_simclrhn_probe1,1,547,NaN,clock,clock,cr,0547_cl_dnn_cr_clock_40_n04548280_6743.png,n04548280_6743.png,1.0,5.8545666,-0.66217786,4.6080346
alexnet_w1_mlp_simclrhn_probe1,1,548,NaN,bicycle,knife,bw,0548_cl_dnn_bw_knife_40_n03041632_15299.png,n03041632_15299.png,0.0,-2.5326216,-1.1013446,-1.0120658
alexnet_w1_mlp_simclrhn_probe1,1,549,NaN,chair,clock,bw,0549_cl_dnn_bw_clock_40_n03196217_127.png,n03196217_127.png,0.0,-4.7677155,-2.280383,-1.7588096
alexnet_w1_mlp_simclrhn_probe1,1,550,NaN,boat,boat,bw,0550_cl_dnn_bw_boat_40_n04273569_12917.png,n04273569_12917.png,1.0,5.2192645,-0.44148985,4.0027575
alexnet_w1_mlp_simclrhn_probe1,1,551,NaN,airplane,airplane,cr,0551_cl_dnn_cr_airplane_40_n02690373_9626.png,n02690373_9626.png,1.0,8.062779,2.6868732,3.8013396
alexnet_w1_mlp_simclrhn_probe1,1,552,NaN,bear,bear,cr,0552_cl_dnn_cr_bear_40_n02134084_20500.png,n02134084_20500.png,1.0,1.3942027,-0.28567168,1.1878506
alexnet_w1_mlp_simclrhn_probe1,1,553,NaN,bear,bear,bw,0553_cl_dnn_bw_bear_40_n02132136_6890.png,n02132136_6890.png,1.0,2.562317,1.5746206,0.69840676
alexnet_w1_mlp_simclrhn_probe1,1,554,NaN,bottle,bottle,bw,0554_cl_dnn_bw_bottle_40_n02823428_3049.png,n02823428_3049.png,1.0,4.1858263,0.5725863,2.5549467
alexnet_w1_mlp_simclrhn_probe1,1,555,NaN,knife,keyboard,cr,0555_cl_dnn_cr_keyboard_40_n03085013_22837.png,n03085013_22837.png,0.0,-0.035393,1.2244694,-0.8908573
alexnet_w1_mlp_simclrhn_probe1,1,556,NaN,keyboard,keyboard,bw,0556_cl_dnn_bw_keyboard_40_n03085013_3264.png,n03085013_3264.png,1.0,5.354466,-0.3867018,4.0596185
alexnet_w1_mlp_simclrhn_probe1,1,557,NaN,bear,bear,bw,0557_cl_dnn_bw_bear_40_n02134418_7795.png,n02134418_7795.png,1.0,5.545567,2.8985963,1.871691
alexnet_w1_mlp_simclrhn_probe1,1,558,NaN,bear,boat,bw,0558_cl_dnn_bw_boat_40_n02951358_34163.png,n02951358_34163.png,0.0,-6.2210593,-0.26025784,-4.2149234
alexnet_w1_mlp_simclrhn_probe1,1,559,NaN,bear,bear,cr,0559_cl_dnn_cr_bear_40_n02132136_8637.png,n02132136_8637.png,1.0,2.72344,-0.6311344,2.3720422
alexnet_w1_mlp_simclrhn_probe1,1,560,NaN,truck,truck,cr,0560_cl_dnn_cr_truck_40_n03417042_4218.png,n03417042_4218.png,1.0,6.3106923,1.8798321,3.1330912
alexnet_w1_mlp_simclrhn_probe1,1,561,NaN,chair,clock,bw,0561_cl_dnn_bw_clock_40_n04548280_4473.png,n04548280_4473.png,0.0,-2.8758614,0.20718637,-2.1800442
alexnet_w1_mlp_simclrhn_probe1,1,562,NaN,bear,bear,bw,0562_cl_dnn_bw_bear_40_n02132136_21799.png,n02132136_21799.png,1.0,2.1745143,0.43467638,1.2302512
alexnet_w1_mlp_simclrhn_probe1,1,563,NaN,bird,bird,cr,0563_cl_dnn_cr_bird_40_n01531178_5780.png,n01531178_5780.png,1.0,-0.21267948,-5.030949,3.4070313
alexnet_w1_mlp_simclrhn_probe1,1,564,NaN,truck,truck,cr,0564_cl_dnn_cr_truck_40_n03796401_27184.png,n03796401_27184.png,1.0,11.000293,6.8721747,2.9190204
alexnet_w1_mlp_simclrhn_probe1,1,565,NaN,keyboard,clock,bw,0565_cl_dnn_bw_clock_40_n03196217_5258.png,n03196217_5258.png,0.0,0.029688597,0.033821642,-0.0029225047
alexnet_w1_mlp_simclrhn_probe1,1,566,NaN,airplane,bird,cr,0566_cl_dnn_cr_bird_40_n02002556_15337.png,n02002556_15337.png,0.0,-3.169807,0.7570778,-2.7767267
alexnet_w1_mlp_simclrhn_probe1,1,567,NaN,elephant,bottle,cr,0567_cl_dnn_cr_bottle_40_n04560804_3683.png,n04560804_3683.png,0.0,-3.4870207,-1.014503,-1.748334
alexnet_w1_mlp_simclrhn_probe1,1,568,NaN,bicycle,bicycle,cr,0568_cl_dnn_cr_bicycle_40_n02835271_8511.png,n02835271_8511.png,1.0,5.4431353,-4.3590517,6.931193
alexnet_w1_mlp_simclrhn_probe1,1,569,NaN,cat,bear,cr,0569_cl_dnn_cr_bear_40_n02134084_23974.png,n02134084_23974.png,0.0,1.5626376,1.7266035,-0.11594143
alexnet_w1_mlp_simclrhn_probe1,1,570,NaN,bicycle,dog,bw,0570_cl_dnn_bw_dog_40_n02091244_9271.png,n02091244_9271.png,0.0,-5.779907,-2.76999,-2.1283329
alexnet_w1_mlp_simclrhn_probe1,1,571,NaN,bear,bear,cr,0571_cl_dnn_cr_bear_40_n02133161_6946.png,n02133161_6946.png,1.0,-1.3915043,-2.530618,0.805475
alexnet_w1_mlp_simclrhn_probe1,1,572,NaN,truck,truck,bw,0572_cl_dnn_bw_truck_40_n04467665_10060.png,n04467665_10060.png,1.0,2.8544114,2.6110759,0.17206417
alexnet_w1_mlp_simclrhn_probe1,1,573,NaN,oven,oven,bw,0573_cl_dnn_bw_oven_40_n04111531_5328.png,n04111531_5328.png,1.0,6.8231587,1.428503,3.8145976
alexnet_w1_mlp_simclrhn_probe1,1,574,NaN,bird,bottle,cr,0574_cl_dnn_cr_bottle_40_n04560804_2005.png,n04560804_2005.png,0.0,-2.2752135,-1.7993683,-0.33647338
alexnet_w1_mlp_simclrhn_probe1,1,575,NaN,bear,bear,bw,0575_cl_dnn_bw_bear_40_n02134084_3695.png,n02134084_3695.png,1.0,-0.4463774,-0.46468124,0.0129427705
alexnet_w1_mlp_simclrhn_probe1,1,576,NaN,cat,cat,bw,0576_cl_dnn_bw_cat_40_n02123597_2219.png,n02123597_2219.png,1.0,2.2547197,0.20585804,1.4487641
alexnet_w1_mlp_simclrhn_probe1,1,577,NaN,keyboard,chair,bw,0577_cl_dnn_bw_chair_40_n02791124_6077.png,n02791124_6077.png,0.0,-1.19449,0.43556324,-1.1526216
alexnet_w1_mlp_simclrhn_probe1,1,578,NaN,knife,bottle,cr,0578_cl_dnn_cr_bottle_40_n04579145_7431.png,n04579145_7431.png,0.0,-3.1941533,-0.57223904,-1.8539735
alexnet_w1_mlp_simclrhn_probe1,1,579,NaN,keyboard,keyboard,bw,0579_cl_dnn_bw_keyboard_40_n04505470_510.png,n04505470_510.png,1.0,3.9536424,0.40997523,2.5057511
alexnet_w1_mlp_simclrhn_probe1,1,580,NaN,oven,oven,cr,0580_cl_dnn_cr_oven_40_n04111531_4452.png,n04111531_4452.png,1.0,8.879942,-3.1289427,8.491564
alexnet_w1_mlp_simclrhn_probe1,1,581,NaN,elephant,elephant,bw,0581_cl_dnn_bw_elephant_40_n02504013_237.png,n02504013_237.png,1.0,5.042408,-0.80590487,4.1353817
alexnet_w1_mlp_simclrhn_probe1,1,582,NaN,elephant,elephant,cr,0582_cl_dnn_cr_elephant_40_n02504013_10351.png,n02504013_10351.png,1.0,3.5882096,0.91413534,1.890856
alexnet_w1_mlp_simclrhn_probe1,1,583,NaN,elephant,elephant,cr,0583_cl_dnn_cr_elephant_40_n02504458_1304.png,n02504458_1304.png,1.0,8.073352,2.0498123,4.259286
alexnet_w1_mlp_simclrhn_probe1,1,584,NaN,cat,dog,bw,0584_cl_dnn_bw_dog_40_n02104365_9837.png,n02104365_9837.png,0.0,-1.4374222,-0.9491499,-0.34526062
alexnet_w1_mlp_simclrhn_probe1,1,585,NaN,cat,cat,cr,0585_cl_dnn_cr_cat_40_n02123045_9661.png,n02123045_9661.png,1.0,-0.50044626,-1.942757,1.0198678
alexnet_w1_mlp_simclrhn_probe1,1,586,NaN,knife,bottle,bw,0586_cl_dnn_bw_bottle_40_n02823428_5214.png,n02823428_5214.png,0.0,-2.9996068,-1.5091547,-1.0539088
alexnet_w1_mlp_simclrhn_probe1,1,587,NaN,bird,bird,bw,0587_cl_dnn_bw_bird_40_n01828970_5448.png,n01828970_5448.png,1.0,0.8829077,0.46559885,0.2950819
alexnet_w1_mlp_simclrhn_probe1,1,588,NaN,bottle,car,cr,0588_cl_dnn_cr_car_40_n02814533_83874.png,n02814533_83874.png,0.0,-2.3112428,-1.1349276,-0.83178043
alexnet_w1_mlp_simclrhn_probe1,1,589,NaN,oven,oven,bw,0589_cl_dnn_bw_oven_40_n04111531_8036.png,n04111531_8036.png,1.0,5.7340007,-3.5887845,6.592205
alexnet_w1_mlp_simclrhn_probe1,1,590,NaN,oven,oven,cr,0590_cl_dnn_cr_oven_40_n04111531_7355.png,n04111531_7355.png,1.0,1.7403138,-0.45824024,1.5546125
alexnet_w1_mlp_simclrhn_probe1,1,591,NaN,car,car,bw,0591_cl_dnn_bw_car_40_n04285008_13354.png,n04285008_13354.png,1.0,3.1938555,1.7472653,1.0228938
alexnet_w1_mlp_simclrhn_probe1,1,592,NaN,keyboard,clock,cr,0592_cl_dnn_cr_clock_40_n02708093_8267.png,n02708093_8267.png,0.0,-2.1431592,2.0459418,-2.962142
alexnet_w1_mlp_simclrhn_probe1,1,593,NaN,cat,cat,bw,0593_cl_dnn_bw_cat_40_n02124075_14242.png,n02124075_14242.png,1.0,4.4493575,-0.317425,3.3706245
alexnet_w1_mlp_simclrhn_probe1,1,594,NaN,knife,knife,cr,0594_cl_dnn_cr_knife_40_n03041632_4279.png,n03041632_4279.png,1.0,0.21894687,-1.4048407,1.1481912
alexnet_w1_mlp_simclrhn_probe1,1,595,NaN,oven,oven,cr,0595_cl_dnn_cr_oven_40_n04111531_2296.png,n04111531_2296.png,1.0,2.7415874,-1.5793527,3.055366
alexnet_w1_mlp_simclrhn_probe1,1,596,NaN,boat,boat,cr,0596_cl_dnn_cr_boat_40_n03344393_5859.png,n03344393_5859.png,1.0,5.260024,2.654953,1.8420634
alexnet_w1_mlp_simclrhn_probe1,1,597,NaN,truck,car,cr,0597_cl_dnn_cr_car_40_n02814533_57176.png,n02814533_57176.png,0.0,4.526861,4.7915726,-0.18717921
alexnet_w1_mlp_simclrhn_probe1,1,598,NaN,cat,cat,bw,0598_cl_dnn_bw_cat_40_n02123159_1769.png,n02123159_1769.png,1.0,-0.65260357,-1.0030078,0.24777319
alexnet_w1_mlp_simclrhn_probe1,1,599,NaN,clock,clock,cr,0599_cl_dnn_cr_clock_40_n02708093_4976.png,n02708093_4976.png,1.0,6.178129,1.4914273,3.3139987
alexnet_w1_mlp_simclrhn_probe1,1,600,NaN,car,truck,cr,0600_cl_dnn_cr_truck_40_n03796401_8864.png,n03796401_8864.png,0.0,-0.4428416,1.1902267,-1.1547537
alexnet_w1_mlp_simclrhn_probe1,1,601,NaN,clock,clock,bw,0601_cl_dnn_bw_clock_40_n03196217_868.png,n03196217_868.png,1.0,5.067717,1.3330748,2.640791
alexnet_w1_mlp_simclrhn_probe1,1,602,NaN,keyboard,keyboard,bw,0602_cl_dnn_bw_keyboard_40_n03085013_3910.png,n03085013_3910.png,1.0,-1.7193322,-2.0791368,0.2544203
alexnet_w1_mlp_simclrhn_probe1,1,603,NaN,bicycle,bicycle,cr,0603_cl_dnn_cr_bicycle_40_n03792782_5466.png,n03792782_5466.png,1.0,9.322185,-4.303198,9.634601
alexnet_w1_mlp_simclrhn_probe1,1,604,NaN,bear,bear,bw,0604_cl_dnn_bw_bear_40_n02132136_23248.png,n02132136_23248.png,1.0,2.678875,0.7459617,1.3667761
alexnet_w1_mlp_simclrhn_probe1,1,605,NaN,truck,truck,bw,0605_cl_dnn_bw_truck_40_n03417042_2794.png,n03417042_2794.png,1.0,4.894018,0.11128008,3.3819067
alexnet_w1_mlp_simclrhn_probe1,1,606,NaN,chair,chair,bw,0606_cl_dnn_bw_chair_40_n02791124_7324.png,n02791124_7324.png,1.0,0.40764886,-0.19182605,0.42389277
alexnet_w1_mlp_simclrhn_probe1,1,607,NaN,bicycle,bicycle,bw,0607_cl_dnn_bw_bicycle_40_n02835271_6736.png,n02835271_6736.png,1.0,3.9720242,-0.975369,3.4983356
alexnet_w1_mlp_simclrhn_probe1,1,608,NaN,clock,clock,bw,0608_cl_dnn_bw_clock_40_n04548280_8990.png,n04548280_8990.png,1.0,8.1884575,-0.9444124,6.4579144
alexnet_w1_mlp_simclrhn_probe1,1,609,NaN,airplane,airplane,bw,0609_cl_dnn_bw_airplane_40_n02690373_971.png,n02690373_971.png,1.0,0.071057126,-1.5142744,1.1209986
alexnet_w1_mlp_simclrhn_probe1,1,610,NaN,dog,bear,bw,0610_cl_dnn_bw_bear_40_n02132136_23853.png,n02132136_23853.png,0.0,-0.0051133633,1.185107,-0.8416129
alexnet_w1_mlp_simclrhn_probe1,1,611,NaN,clock,clock,cr,0611_cl_dnn_cr_clock_40_n03196217_3416.png,n03196217_3416.png,1.0,2.618654,2.0915496,0.37271908
alexnet_w1_mlp_simclrhn_probe1,1,612,NaN,bicycle,clock,bw,0612_cl_dnn_bw_clock_40_n04548280_4346.png,n04548280_4346.png,0.0,-3.5008307,-1.3636587,-1.5112088
alexnet_w1_mlp_simclrhn_probe1,1,613,NaN,oven,oven,cr,0613_cl_dnn_cr_oven_40_n04111531_2342.png,n04111531_2342.png,1.0,8.904625,0.8552966,5.6917343
alexnet_w1_mlp_simclrhn_probe1,1,614,NaN,chair,chair,bw,0614_cl_dnn_bw_chair_40_n04099969_8509.png,n04099969_8509.png,1.0,0.5103715,-0.4773132,0.6983986
alexnet_w1_mlp_simclrhn_probe1,1,615,NaN,bottle,bottle,bw,0615_cl_dnn_bw_bottle_40_n03937543_4340.png,n03937543_4340.png,1.0,-1.3108137,-1.4349765,0.08779635
alexnet_w1_mlp_simclrhn_probe1,1,616,NaN,truck,clock,bw,0616_cl_dnn_bw_clock_40_n02708093_6655.png,n02708093_6655.png,0.0,-4.4835076,-0.2854213,-2.9684954
alexnet_w1_mlp_simclrhn_probe1,1,617,NaN,cat,cat,cr,0617_cl_dnn_cr_cat_40_n02123159_1339.png,n02123159_1339.png,1.0,7.0355186,1.0590806,4.22598
alexnet_w1_mlp_simclrhn_probe1,1,618,NaN,chair,knife,bw,0618_cl_dnn_bw_knife_40_n03041632_30553.png,n03041632_30553.png,0.0,-2.2180767,-1.7416315,-0.33689764
alexnet_w1_mlp_simclrhn_probe1,1,619,NaN,bicycle,bicycle,cr,0619_cl_dnn_cr_bicycle_40_n03792782_18707.png,n03792782_18707.png,1.0,7.2221403,-1.0677075,5.8618083
alexnet_w1_mlp_simclrhn_probe1,1,620,NaN,elephant,elephant,bw,0620_cl_dnn_bw_elephant_40_n02504458_3648.png,n02504458_3648.png,1.0,9.438238,-1.5835658,7.7935925
alexnet_w1_mlp_simclrhn_probe1,1,621,NaN,elephant,elephant,cr,0621_cl_dnn_cr_elephant_40_n02504458_1179.png,n02504458_1179.png,1.0,11.668531,4.178345,5.2963614
alexnet_w1_mlp_simclrhn_probe1,1,622,NaN,clock,clock,bw,0622_cl_dnn_bw_clock_40_n02708093_391.png,n02708093_391.png,1.0,4.0473456,0.1659734,2.7445447
alexnet_w1_mlp_simclrhn_probe1,1,623,NaN,airplane,car,cr,0623_cl_dnn_cr_car_40_n04285008_3453.png,n04285008_3453.png,0.0,-1.8583832,2.4886494,-3.0738163
alexnet_w1_mlp_simclrhn_probe1,1,624,NaN,airplane,airplane,bw,0624_cl_dnn_bw_airplane_40_n02690373_2800.png,n02690373_2800.png,1.0,5.2420573,-1.9623758,5.0943036
alexnet_w1_mlp_simclrhn_probe1,1,625,NaN,cat,cat,cr,0625_cl_dnn_cr_cat_40_n02123394_979.png,n02123394_979.png,1.0,2.2671716,1.3916957,0.619055
alexnet_w1_mlp_simclrhn_probe1,1,626,NaN,bear,dog,cr,0626_cl_dnn_cr_dog_40_n02105641_4701.png,n02105641_4701.png,0.0,0.34668082,1.8032836,-1.0299737
alexnet_w1_mlp_simclrhn_probe1,1,627,NaN,airplane,boat,cr,0627_cl_dnn_cr_boat_40_n04273569_13641.png,n04273569_13641.png,0.0,3.506141,3.9408257,-0.30736855
alexnet_w1_mlp_simclrhn_probe1,1,628,NaN,truck,car,cr,0628_cl_dnn_cr_car_40_n02814533_74825.png,n02814533_74825.png,0.0,-3.8063138,-1.1718895,-1.8628193
alexnet_w1_mlp_simclrhn_probe1,1,629,NaN,airplane,airplane,cr,0629_cl_dnn_cr_airplane_40_n02690373_6812.png,n02690373_6812.png,1.0,5.9394426,-0.98431224,4.895834
alexnet_w1_mlp_simclrhn_probe1,1,630,NaN,car,car,bw,0630_cl_dnn_bw_car_40_n03100240_19223.png,n03100240_19223.png,1.0,16.902102,12.056401,3.4264276
alexnet_w1_mlp_simclrhn_probe1,1,631,NaN,bottle,bottle,bw,0631_cl_dnn_bw_bottle_40_n03983396_3817.png,n03983396_3817.png,1.0,3.5730777,-3.3051991,4.863676
alexnet_w1_mlp_simclrhn_probe1,1,632,NaN,elephant,elephant,bw,0632_cl_dnn_bw_elephant_40_n02504013_1432.png,n02504013_1432.png,1.0,5.50851,-0.7809623,4.4473286
alexnet_w1_mlp_simclrhn_probe1,1,633,NaN,airplane,boat,cr,0633_cl_dnn_cr_boat_40_n03662601_35008.png,n03662601_35008.png,0.0,1.916474,4.081608,-1.530981
alexnet_w1_mlp_simclrhn_probe1,1,634,NaN,oven,oven,bw,0634_cl_dnn_bw_oven_40_n04111531_14055.png,n04111531_14055.png,1.0,3.0415356,-1.566091,3.258084
alexnet_w1_mlp_simclrhn_probe1,1,635,NaN,airplane,airplane,bw,0635_cl_dnn_bw_airplane_40_n02690373_9812.png,n02690373_9812.png,1.0,7.771086,3.6920836,2.8842902
alexnet_w1_mlp_simclrhn_probe1,1,636,NaN,truck,car,cr,0636_cl_dnn_cr_car_40_n04285008_6200.png,n04285008_6200.png,0.0,2.5781944,3.6474485,-0.7560769
alexnet_w1_mlp_simclrhn_probe1,1,637,NaN,clock,clock,cr,0637_cl_dnn_cr_clock_40_n04548280_5889.png,n04548280_5889.png,1.0,4.4943547,0.23672445,3.0105994
alexnet_w1_mlp_simclrhn_probe1,1,638,NaN,chair,chair,bw,0638_cl_dnn_bw_chair_40_n03376595_2924.png,n03376595_2924.png,1.0,-1.2835157,-2.9368932,1.1691145
alexnet_w1_mlp_simclrhn_probe1,1,639,NaN,airplane,airplane,bw,0639_cl_dnn_bw_airplane_40_n02690373_693.png,n02690373_693.png,1.0,5.298013,2.3545415,2.081349
alexnet_w1_mlp_simclrhn_probe1,1,640,NaN,bicycle,bicycle,bw,0640_cl_dnn_bw_bicycle_40_n03792782_1778.png,n03792782_1778.png,1.0,7.3896275,-1.2530422,6.1112905
alexnet_w1_mlp_simclrhn_probe1,1,641,NaN,clock,clock,cr,0641_cl_dnn_cr_clock_40_n02708093_444.png,n02708093_444.png,1.0,4.7389684,-1.2396417,4.2275157
alexnet_w1_mlp_simclrhn_probe1,1,642,NaN,clock,clock,cr,0642_cl_dnn_cr_clock_40_n02708093_3385.png,n02708093_3385.png,1.0,2.6632252,-1.1126226,2.6699276
alexnet_w1_mlp_simclrhn_probe1,1,643,NaN,keyboard,clock,cr,0643_cl_dnn_cr_clock_40_n03196217_970.png,n03196217_970.png,0.0,1.5688363,1.9923484,-0.29946828
alexnet_w1_mlp_simclrhn_probe1,1,644,NaN,bottle,clock,bw,0644_cl_dnn_bw_clock_40_n04548280_4839.png,n04548280_4839.png,0.0,1.0743977,1.9726299,-0.6351461
alexnet_w1_mlp_simclrhn_probe1,1,645,NaN,truck,truck,bw,0645_cl_dnn_bw_truck_40_n03796401_1853.png,n03796401_1853.png,1.0,3.3853567,0.8001065,1.828048
