subj,session,trial,rt,object_response,category,condition,imagename,filename,is_correct,targ_act,max_nontarg_act,decision_margin
convnext_large,1,1,NaN,oven,oven,cr,0001_cl_dnn_cr_oven_40_n04111531_14126.png,n04111531_14126.png,1.0,8.732846,0.37779754,5.907912
convnext_large,1,2,NaN,bear,bear,cr,0002_cl_dnn_cr_bear_40_n02134084_5274.png,n02134084_5274.png,1.0,2.943804,0.6105031,1.649893
convnext_large,1,3,NaN,cat,cat,cr,0003_cl_dnn_cr_cat_40_n02123394_133.png,n02123394_133.png,1.0,2.211451,0.9496515,0.89222705
convnext_large,1,4,NaN,car,car,cr,0004_cl_dnn_cr_car_40_n02814533_51190.png,n02814533_51190.png,1.0,4.4959426,0.8925002,2.5480187
convnext_large,1,5,NaN,chair,chair,bw,0005_cl_dnn_bw_chair_40_n04099969_14986.png,n04099969_14986.png,1.0,3.5720663,0.3713696,2.2632344
convnext_large,1,6,NaN,elephant,elephant,cr,0006_cl_dnn_cr_elephant_40_n02504013_6731.png,n02504013_6731.png,1.0,6.815295,0.35392493,4.568879
convnext_large,1,7,NaN,bottle,bottle,cr,0007_cl_dnn_cr_bottle_40_n02823428_987.png,n02823428_987.png,1.0,2.3603237,0.37414452,1.4044408
convnext_large,1,8,NaN,truck,truck,cr,0008_cl_dnn_cr_truck_40_n03417042_7458.png,n03417042_7458.png,1.0,2.0264137,0.8043231,0.86414856
convnext_large,1,9,NaN,chair,chair,bw,0009_cl_dnn_bw_chair_40_n04099969_4577.png,n04099969_4577.png,1.0,2.9075077,0.35341772,1.8060144
convnext_large,1,10,NaN,knife,knife,cr,0010_cl_dnn_cr_knife_40_n03041632_83472.png,n03041632_83472.png,1.0,3.4458904,1.389407,1.4541533
convnext_large,1,11,NaN,elephant,elephant,bw,0011_cl_dnn_bw_elephant_40_n02504458_3485.png,n02504458_3485.png,1.0,6.965771,0.3530968,4.675867
convnext_large,1,12,NaN,bear,bear,bw,0012_cl_dnn_bw_bear_40_n02133161_1066.png,n02133161_1066.png,1.0,4.1536374,2.0066426,1.5181546
convnext_large,1,13,NaN,elephant,elephant,bw,0013_cl_dnn_bw_elephant_40_n02504013_1060.png,n02504013_1060.png,1.0,5.938188,0.23798497,4.030652
convnext_large,1,14,NaN,bear,bear,bw,0014_cl_dnn_bw_bear_40_n02134084_1009.png,n02134084_1009.png,1.0,3.0463676,1.0043005,1.4439595
convnext_large,1,15,NaN,cat,cat,cr,0015_cl_dnn_cr_cat_40_n02125311_13383.png,n02125311_13383.png,1.0,1.7845904,0.38381326,0.990499
convnext_large,1,16,NaN,elephant,elephant,bw,0016_cl_dnn_bw_elephant_40_n02504013_257.png,n02504013_257.png,1.0,5.825068,0.30066344,3.906344
convnext_large,1,17,NaN,cat,cat,bw,0017_cl_dnn_bw_cat_40_n02123045_6445.png,n02123045_6445.png,1.0,3.8010595,1.467674,1.6499528
convnext_large,1,18,NaN,airplane,airplane,bw,0018_cl_dnn_bw_airplane_40_n02690373_3493.png,n02690373_3493.png,1.0,8.233913,0.27032694,5.631106
convnext_large,1,19,NaN,airplane,airplane,bw,0019_cl_dnn_bw_airplane_40_n02690373_5184.png,n02690373_5184.png,1.0,8.965232,0.35850373,6.0858765
convnext_large,1,20,NaN,truck,truck,bw,0020_cl_dnn_bw_truck_40_n04467665_22637.png,n04467665_22637.png,1.0,3.3497458,1.5403808,1.2794142
convnext_large,1,21,NaN,cat,cat,cr,0021_cl_dnn_cr_cat_40_n02123159_10952.png,n02123159_10952.png,1.0,4.046308,3.2359586,0.5730036
convnext_large,1,22,NaN,airplane,airplane,bw,0022_cl_dnn_bw_airplane_40_n02690373_3620.png,n02690373_3620.png,1.0,8.675606,0.62736124,5.6909685
convnext_large,1,23,NaN,bottle,bottle,cr,0023_cl_dnn_cr_bottle_40_n04557648_10744.png,n04557648_10744.png,1.0,4.148534,0.7040425,2.4356232
convnext_large,1,24,NaN,oven,oven,bw,0024_cl_dnn_bw_oven_40_n04111531_12702.png,n04111531_12702.png,1.0,8.559346,1.5510602,4.9556065
convnext_large,1,25,NaN,bear,bear,cr,0025_cl_dnn_cr_bear_40_n02133161_9949.png,n02133161_9949.png,1.0,3.5752363,0.97623247,1.8377732
convnext_large,1,26,NaN,keyboard,keyboard,cr,0026_cl_dnn_cr_keyboard_40_n03085013_3489.png,n03085013_3489.png,1.0,5.619972,1.010959,3.2590644
convnext_large,1,27,NaN,elephant,elephant,bw,0027_cl_dnn_bw_elephant_40_n02504458_4633.png,n02504458_4633.png,1.0,6.3159013,0.34931,4.2190175
convnext_large,1,28,NaN,clock,clock,cr,0028_cl_dnn_cr_clock_40_n04548280_7816.png,n04548280_7816.png,1.0,3.3870924,0.77554125,1.8466455
convnext_large,1,29,NaN,dog,dog,bw,0029_cl_dnn_bw_dog_40_n02097474_1859.png,n02097474_1859.png,1.0,0.9655454,0.21381477,0.53155386
convnext_large,1,30,NaN,cat,cat,bw,0030_cl_dnn_bw_cat_40_n02123394_916.png,n02123394_916.png,1.0,2.428834,0.2636825,1.5309932
convnext_large,1,31,NaN,elephant,elephant,cr,0031_cl_dnn_cr_elephant_40_n02504458_3525.png,n02504458_3525.png,1.0,7.577479,0.36027166,5.1033363
convnext_large,1,32,NaN,bear,bear,bw,0032_cl_dnn_bw_bear_40_n02134418_4456.png,n02134418_4456.png,1.0,2.8443046,0.21352707,1.8602407
convnext_large,1,33,NaN,keyboard,keyboard,bw,0033_cl_dnn_bw_keyboard_40_n03085013_24045.png,n03085013_24045.png,1.0,6.9079714,0.3691536,4.6236424
convnext_large,1,34,NaN,knife,knife,bw,0034_cl_dnn_bw_knife_40_n03041632_49363.png,n03041632_49363.png,1.0,8.834541,2.436648,4.523994
convnext_large,1,35,NaN,cat,cat,bw,0035_cl_dnn_bw_cat_40_n02123159_7854.png,n02123159_7854.png,1.0,3.6062658,0.98584414,1.8529179
convnext_large,1,36,NaN,knife,knife,cr,0036_cl_dnn_cr_knife_40_n03041632_4708.png,n03041632_4708.png,1.0,8.8105345,0.43278208,5.9239655
convnext_large,1,37,NaN,chair,chair,cr,0037_cl_dnn_cr_chair_40_n04429376_7788.png,n04429376_7788.png,1.0,4.2638874,0.7003127,2.5198278
convnext_large,1,38,NaN,car,car,cr,0038_cl_dnn_cr_car_40_n03100240_9086.png,n03100240_9086.png,1.0,5.267717,0.33578306,3.4874039
convnext_large,1,39,NaN,chair,chair,cr,0039_cl_dnn_cr_chair_40_n03376595_3038.png,n03376595_3038.png,1.0,2.1392143,0.33136505,1.2783425
convnext_large,1,40,NaN,truck,truck,bw,0040_cl_dnn_bw_truck_40_n03796401_1758.png,n03796401_1758.png,1.0,3.2437406,1.0066457,1.581865
convnext_large,1,41,NaN,boat,boat,cr,0041_cl_dnn_cr_boat_40_n04273569_4324.png,n04273569_4324.png,1.0,4.1320653,0.5572951,2.5277443
convnext_large,1,42,NaN,bear,bear,cr,0042_cl_dnn_cr_bear_40_n02134084_1090.png,n02134084_1090.png,1.0,2.7810123,1.7917085,0.6995435
convnext_large,1,43,NaN,bicycle,bicycle,bw,0043_cl_dnn_bw_bicycle_40_n03792782_13665.png,n03792782_13665.png,1.0,5.43768,0.40013316,3.5620835
convnext_large,1,44,NaN,knife,knife,bw,0044_cl_dnn_bw_knife_40_n03041632_36215.png,n03041632_36215.png,1.0,7.663475,0.4129673,5.1268835
convnext_large,1,45,NaN,car,car,bw,0045_cl_dnn_bw_car_40_n04285008_7770.png,n04285008_7770.png,1.0,5.2967076,0.8897012,3.116224
convnext_large,1,46,NaN,bottle,bottle,cr,0046_cl_dnn_cr_bottle_40_n03983396_15260.png,n03983396_15260.png,1.0,2.5404248,0.59335583,1.3767856
convnext_large,1,47,NaN,bicycle,dog,cr,0047_cl_dnn_cr_dog_40_n02091635_6519.png,n02091635_6519.png,0.0,0.248151,0.26731384,-0.01355017
convnext_large,1,48,NaN,elephant,elephant,cr,0048_cl_dnn_cr_elephant_40_n02504013_3485.png,n02504013_3485.png,1.0,5.9411454,0.29495984,3.992456
convnext_large,1,49,NaN,oven,oven,cr,0049_cl_dnn_cr_oven_40_n04111531_807.png,n04111531_807.png,1.0,8.708669,0.56650704,5.7573776
convnext_large,1,50,NaN,oven,oven,cr,0050_cl_dnn_cr_oven_40_n04111531_605.png,n04111531_605.png,1.0,8.432015,0.46356732,5.634544
convnext_large,1,51,NaN,elephant,dog,bw,0051_cl_dnn_bw_dog_40_n02109047_2662.png,n02109047_2662.png,0.0,0.2563444,0.91034585,-0.4624489
convnext_large,1,52,NaN,truck,truck,cr,0052_cl_dnn_cr_truck_40_n03417042_16038.png,n03417042_16038.png,1.0,2.5261765,0.27621347,1.5909642
convnext_large,1,53,NaN,truck,truck,bw,0053_cl_dnn_bw_truck_40_n03796401_1710.png,n03796401_1710.png,1.0,3.1448848,0.635989,1.7740573
convnext_large,1,54,NaN,cat,cat,cr,0054_cl_dnn_cr_cat_40_n02125311_20921.png,n02125311_20921.png,1.0,1.5459112,0.3264845,0.8622649
convnext_large,1,55,NaN,bear,bear,cr,0055_cl_dnn_cr_bear_40_n02133161_575.png,n02133161_575.png,1.0,4.722866,0.28192085,3.1402225
convnext_large,1,56,NaN,chair,chair,bw,0056_cl_dnn_bw_chair_40_n04429376_21865.png,n04429376_21865.png,1.0,2.9650686,0.8887632,1.4681697
convnext_large,1,57,NaN,bicycle,bird,bw,0057_cl_dnn_bw_bird_40_n01616318_26436.png,n01616318_26436.png,0.0,0.05633013,1.0551962,-0.70630497
convnext_large,1,58,NaN,oven,oven,cr,0058_cl_dnn_cr_oven_40_n04111531_9498.png,n04111531_9498.png,1.0,8.857357,0.22911707,6.101087
convnext_large,1,59,NaN,bear,bear,bw,0059_cl_dnn_bw_bear_40_n02134418_397.png,n02134418_397.png,1.0,2.8983355,0.33106875,1.8153317
convnext_large,1,60,NaN,chair,chair,cr,0060_cl_dnn_cr_chair_40_n04099969_23961.png,n04099969_23961.png,1.0,2.635618,1.045556,1.1243436
convnext_large,1,61,NaN,elephant,dog,bw,0061_cl_dnn_bw_dog_40_n02093256_7181.png,n02093256_7181.png,0.0,0.2379899,0.9911033,-0.5325316
convnext_large,1,62,NaN,bicycle,bicycle,cr,0062_cl_dnn_cr_bicycle_40_n02835271_26731.png,n02835271_26731.png,1.0,4.803138,0.5739282,2.9905026
convnext_large,1,63,NaN,cat,cat,cr,0063_cl_dnn_cr_cat_40_n02125311_12557.png,n02125311_12557.png,1.0,1.7737918,0.1809191,1.1263311
convnext_large,1,64,NaN,keyboard,dog,cr,0064_cl_dnn_cr_dog_40_n02093647_2890.png,n02093647_2890.png,0.0,0.29420453,0.33893675,-0.031630453
convnext_large,1,65,NaN,knife,knife,cr,0065_cl_dnn_cr_knife_40_n03041632_14293.png,n03041632_14293.png,1.0,7.855401,0.8069955,4.9839754
convnext_large,1,66,NaN,oven,oven,bw,0066_cl_dnn_bw_oven_40_n04111531_20359.png,n04111531_20359.png,1.0,8.54974,0.8481439,5.445851
convnext_large,1,67,NaN,truck,truck,bw,0067_cl_dnn_bw_truck_40_n04467665_12177.png,n04467665_12177.png,1.0,3.0045376,0.5060033,1.7667305
convnext_large,1,68,NaN,bicycle,bicycle,cr,0068_cl_dnn_cr_bicycle_40_n02835271_19400.png,n02835271_19400.png,1.0,7.44708,0.41701,4.9710107
convnext_large,1,69,NaN,truck,truck,cr,0069_cl_dnn_cr_truck_40_n03417042_1263.png,n03417042_1263.png,1.0,1.924504,0.20458208,1.2161685
convnext_large,1,70,NaN,cat,cat,bw,0070_cl_dnn_bw_cat_40_n02123045_8336.png,n02123045_8336.png,1.0,5.2268214,0.8598465,3.0879176
convnext_large,1,71,NaN,bear,bear,bw,0071_cl_dnn_bw_bear_40_n02134418_5405.png,n02134418_5405.png,1.0,3.6007051,0.7919177,1.9861126
convnext_large,1,72,NaN,car,car,bw,0072_cl_dnn_bw_car_40_n04285008_2906.png,n04285008_2906.png,1.0,4.823925,0.7290299,2.8955283
convnext_large,1,73,NaN,bird,bird,cr,0073_cl_dnn_cr_bird_40_n01818515_10517.png,n01818515_10517.png,1.0,0.33082178,0.14728636,0.12977915
convnext_large,1,74,NaN,truck,truck,cr,0074_cl_dnn_cr_truck_40_n03796401_14203.png,n03796401_14203.png,1.0,1.8364108,0.62264454,0.85826236
convnext_large,1,75,NaN,bird,bird,bw,0075_cl_dnn_bw_bird_40_n02009229_2503.png,n02009229_2503.png,1.0,0.42244288,0.11287767,0.21889567
convnext_large,1,76,NaN,bottle,bottle,bw,0076_cl_dnn_bw_bottle_40_n02823428_6767.png,n02823428_6767.png,1.0,3.5867426,0.36839032,2.2757187
convnext_large,1,77,NaN,bicycle,bicycle,bw,0077_cl_dnn_bw_bicycle_40_n02835271_12847.png,n02835271_12847.png,1.0,5.833896,0.41483685,3.8318536
convnext_large,1,78,NaN,bicycle,bicycle,cr,0078_cl_dnn_cr_bicycle_40_n02835271_24104.png,n02835271_24104.png,1.0,4.9079766,0.42070448,3.1729808
convnext_large,1,79,NaN,clock,clock,cr,0079_cl_dnn_cr_clock_40_n04548280_77.png,n04548280_77.png,1.0,4.8900666,0.21835552,3.3033986
convnext_large,1,80,NaN,cat,cat,bw,0080_cl_dnn_bw_cat_40_n02123394_6698.png,n02123394_6698.png,1.0,2.3869927,0.38470763,1.4158293
convnext_large,1,81,NaN,keyboard,keyboard,cr,0081_cl_dnn_cr_keyboard_40_n04505470_4356.png,n04505470_4356.png,1.0,6.5040846,0.6971204,4.1061435
convnext_large,1,82,NaN,chair,chair,cr,0082_cl_dnn_cr_chair_40_n04429376_16325.png,n04429376_16325.png,1.0,2.7766159,0.5961434,1.5418268
convnext_large,1,83,NaN,elephant,elephant,bw,0083_cl_dnn_bw_elephant_40_n02504458_6721.png,n02504458_6721.png,1.0,5.9690022,0.47002044,3.8883674
convnext_large,1,84,NaN,truck,truck,cr,0084_cl_dnn_cr_truck_40_n03417042_6213.png,n03417042_6213.png,1.0,2.0835922,0.26175064,1.2882365
convnext_large,1,85,NaN,oven,dog,bw,0085_cl_dnn_bw_dog_40_n02097130_8277.png,n02097130_8277.png,0.0,0.16739136,0.56703526,-0.28259093
convnext_large,1,86,NaN,bottle,bottle,cr,0086_cl_dnn_cr_bottle_40_n04557648_1856.png,n04557648_1856.png,1.0,3.438227,1.266204,1.5358521
convnext_large,1,87,NaN,bird,bird,bw,0087_cl_dnn_bw_bird_40_n01531178_10905.png,n01531178_10905.png,1.0,1.1084962,1.1064011,0.0014814618
convnext_large,1,88,NaN,bear,bear,cr,0088_cl_dnn_cr_bear_40_n02133161_2202.png,n02133161_2202.png,1.0,3.0914314,0.321998,1.9582852
convnext_large,1,89,NaN,elephant,elephant,cr,0089_cl_dnn_cr_elephant_40_n02504458_10439.png,n02504458_10439.png,1.0,6.5774164,0.26715696,4.462027
convnext_large,1,90,NaN,clock,clock,cr,0090_cl_dnn_cr_clock_40_n02708093_6766.png,n02708093_6766.png,1.0,4.936438,0.33541435,3.253415
convnext_large,1,91,NaN,bottle,bottle,bw,0091_cl_dnn_bw_bottle_40_n03983396_2057.png,n03983396_2057.png,1.0,3.4638524,0.66405356,1.9797568
convnext_large,1,92,NaN,knife,knife,bw,0092_cl_dnn_bw_knife_40_n03041632_10000.png,n03041632_10000.png,1.0,9.275148,0.6217648,6.118866
convnext_large,1,93,NaN,cat,cat,cr,0093_cl_dnn_cr_cat_40_n02125311_2959.png,n02125311_2959.png,1.0,1.7324816,0.45142853,0.90584135
convnext_large,1,94,NaN,car,car,bw,0094_cl_dnn_bw_car_40_n04285008_13759.png,n04285008_13759.png,1.0,4.7016463,0.25415605,3.1448505
convnext_large,1,95,NaN,bottle,bottle,cr,0095_cl_dnn_cr_bottle_40_n03937543_396.png,n03937543_396.png,1.0,1.4903458,0.546325,0.6675235
convnext_large,1,96,NaN,boat,boat,bw,0096_cl_dnn_bw_boat_40_n03662601_3984.png,n03662601_3984.png,1.0,2.8131752,0.41822413,1.6934862
convnext_large,1,97,NaN,truck,truck,bw,0097_cl_dnn_bw_truck_40_n04467665_2230.png,n04467665_2230.png,1.0,2.4751623,1.642549,0.5887465
convnext_large,1,98,NaN,boat,boat,cr,0098_cl_dnn_cr_boat_40_n03662601_28640.png,n03662601_28640.png,1.0,2.3443108,0.45742494,1.3342298
convnext_large,1,99,NaN,cat,cat,cr,0099_cl_dnn_cr_cat_40_n02124075_11039.png,n02124075_11039.png,1.0,3.540901,0.5162489,2.138752
convnext_large,1,100,NaN,knife,knife,bw,0100_cl_dnn_bw_knife_40_n03041632_7380.png,n03041632_7380.png,1.0,7.868062,0.8158972,4.986634
convnext_large,1,101,NaN,cat,cat,cr,0101_cl_dnn_cr_cat_40_n02123045_6607.png,n02123045_6607.png,1.0,3.948061,0.47286862,2.4573321
convnext_large,1,102,NaN,chair,chair,cr,0102_cl_dnn_cr_chair_40_n03376595_6704.png,n03376595_6704.png,1.0,3.5367854,0.3616475,2.2451615
convnext_large,1,103,NaN,bear,bear,bw,0103_cl_dnn_bw_bear_40_n02133161_12187.png,n02133161_12187.png,1.0,5.687663,0.5454415,3.6360998
convnext_large,1,104,NaN,oven,dog,cr,0104_cl_dnn_cr_dog_40_n02110958_2363.png,n02110958_2363.png,0.0,0.41730875,1.0204715,-0.42650044
convnext_large,1,105,NaN,airplane,airplane,cr,0105_cl_dnn_cr_airplane_40_n02690373_19438.png,n02690373_19438.png,1.0,8.843966,0.2637292,6.0671434
convnext_large,1,106,NaN,airplane,bird,cr,0106_cl_dnn_cr_bird_40_n01855032_5511.png,n01855032_5511.png,0.0,0.16079856,0.4490623,-0.20383325
convnext_large,1,107,NaN,boat,boat,bw,0107_cl_dnn_bw_boat_40_n04273569_9821.png,n04273569_9821.png,1.0,3.2564633,0.18822451,2.1695724
convnext_large,1,108,NaN,bear,bear,bw,0108_cl_dnn_bw_bear_40_n02133161_13461.png,n02133161_13461.png,1.0,4.593977,0.45676035,2.925454
convnext_large,1,109,NaN,dog,dog,cr,0109_cl_dnn_cr_dog_40_n02113023_8552.png,n02113023_8552.png,1.0,1.2183242,-0.0022608836,0.863084
convnext_large,1,110,NaN,elephant,elephant,cr,0110_cl_dnn_cr_elephant_40_n02504458_1600.png,n02504458_1600.png,1.0,5.661235,0.27078697,3.8116224
convnext_large,1,111,NaN,chair,chair,cr,0111_cl_dnn_cr_chair_40_n04099969_4205.png,n04099969_4205.png,1.0,3.4714983,0.33401394,2.2185364
convnext_large,1,112,NaN,car,dog,bw,0112_cl_dnn_bw_dog_40_n02105505_2121.png,n02105505_2121.png,0.0,0.21555826,0.3639262,-0.104911976
convnext_large,1,113,NaN,chair,chair,cr,0113_cl_dnn_cr_chair_40_n02791124_4528.png,n02791124_4528.png,1.0,4.0053244,0.32204148,2.6044743
convnext_large,1,114,NaN,truck,truck,bw,0114_cl_dnn_bw_truck_40_n03417042_5659.png,n03417042_5659.png,1.0,2.1841028,0.77664644,0.995222
convnext_large,1,115,NaN,elephant,elephant,cr,0115_cl_dnn_cr_elephant_40_n02504013_10330.png,n02504013_10330.png,1.0,5.8573647,0.11905698,4.057596
convnext_large,1,116,NaN,keyboard,cat,cr,0116_cl_dnn_cr_cat_40_n02123394_1594.png,n02123394_1594.png,0.0,2.3050683,2.6187325,-0.22179408
convnext_large,1,117,NaN,bicycle,bear,bw,0117_cl_dnn_bw_bear_40_n02132136_10654.png,n02132136_10654.png,0.0,0.28603357,2.45384,-1.5328707
convnext_large,1,118,NaN,bottle,bottle,bw,0118_cl_dnn_bw_bottle_40_n02823428_5265.png,n02823428_5265.png,1.0,4.995987,1.2694793,2.6350389
convnext_large,1,119,NaN,airplane,truck,cr,0119_cl_dnn_cr_truck_40_n04467665_3125.png,n04467665_3125.png,0.0,2.1328015,4.163012,-1.4355756
convnext_large,1,120,NaN,airplane,airplane,cr,0120_cl_dnn_cr_airplane_40_n02690373_60.png,n02690373_60.png,1.0,8.83221,0.726688,5.731469
convnext_large,1,121,NaN,keyboard,keyboard,cr,0121_cl_dnn_cr_keyboard_40_n03085013_21645.png,n03085013_21645.png,1.0,6.880323,1.8575972,3.5516033
convnext_large,1,122,NaN,car,car,bw,0122_cl_dnn_bw_car_40_n03100240_9471.png,n03100240_9471.png,1.0,4.765248,2.336013,1.7177284
convnext_large,1,123,NaN,boat,boat,cr,0123_cl_dnn_cr_boat_40_n03344393_9818.png,n03344393_9818.png,1.0,2.1201363,0.6140164,1.0649875
convnext_large,1,124,NaN,elephant,elephant,bw,0124_cl_dnn_bw_elephant_40_n02504458_5444.png,n02504458_5444.png,1.0,6.456214,0.21471171,4.4134088
convnext_large,1,125,NaN,bottle,bottle,bw,0125_cl_dnn_bw_bottle_40_n04557648_26823.png,n04557648_26823.png,1.0,2.402199,0.66421115,1.228943
convnext_large,1,126,NaN,bottle,bottle,cr,0126_cl_dnn_cr_bottle_40_n02823428_765.png,n02823428_765.png,1.0,3.8425205,0.6293818,2.272032
convnext_large,1,127,NaN,cat,cat,bw,0127_cl_dnn_bw_cat_40_n02123045_1787.png,n02123045_1787.png,1.0,4.853235,0.6416009,2.9780748
convnext_large,1,128,NaN,car,car,bw,0128_cl_dnn_bw_car_40_n02814533_35863.png,n02814533_35863.png,1.0,3.1585343,1.2017889,1.383628
convnext_large,1,129,NaN,boat,boat,bw,0129_cl_dnn_bw_boat_40_n02951358_7944.png,n02951358_7944.png,1.0,2.8747506,0.7575594,1.4970803
convnext_large,1,130,NaN,car,dog,bw,0130_cl_dnn_bw_dog_40_n02091467_3727.png,n02091467_3727.png,0.0,0.13534048,0.23296414,-0.06903035
convnext_large,1,131,NaN,bicycle,bicycle,cr,0131_cl_dnn_cr_bicycle_40_n02835271_5886.png,n02835271_5886.png,1.0,5.4834113,0.37484583,3.6123013
convnext_large,1,132,NaN,truck,truck,bw,0132_cl_dnn_bw_truck_40_n04467665_18234.png,n04467665_18234.png,1.0,4.0954485,1.1629746,2.0735722
convnext_large,1,133,NaN,elephant,elephant,cr,0133_cl_dnn_cr_elephant_40_n02504013_4892.png,n02504013_4892.png,1.0,6.299769,0.45020002,4.13627
convnext_large,1,134,NaN,keyboard,keyboard,cr,0134_cl_dnn_cr_keyboard_40_n03085013_19618.png,n03085013_19618.png,1.0,7.0982747,0.26950762,4.8286676
convnext_large,1,135,NaN,clock,clock,cr,0135_cl_dnn_cr_clock_40_n03196217_3430.png,n03196217_3430.png,1.0,4.0552692,1.873876,1.542478
convnext_large,1,136,NaN,bicycle,bicycle,bw,0136_cl_dnn_bw_bicycle_40_n03792782_24591.png,n03792782_24591.png,1.0,7.394262,0.6964589,4.736062
convnext_large,1,137,NaN,knife,bird,cr,0137_cl_dnn_cr_bird_40_n02007558_2822.png,n02007558_2822.png,0.0,0.2065371,0.21997839,-0.009504431
convnext_large,1,138,NaN,truck,truck,bw,0138_cl_dnn_bw_truck_40_n04467665_71126.png,n04467665_71126.png,1.0,2.4247866,0.5149628,1.3504493
convnext_large,1,139,NaN,bicycle,bicycle,cr,0139_cl_dnn_cr_bicycle_40_n02835271_22263.png,n02835271_22263.png,1.0,5.8136687,0.45033252,3.7924514
convnext_large,1,140,NaN,car,car,bw,0140_cl_dnn_bw_car_40_n04285008_5548.png,n04285008_5548.png,1.0,4.672926,1.6263543,2.1542516
convnext_large,1,141,NaN,oven,oven,bw,0141_cl_dnn_bw_oven_40_n04111531_13006.png,n04111531_13006.png,1.0,8.23728,2.1356227,4.314523
convnext_large,1,142,NaN,car,car,bw,0142_cl_dnn_bw_car_40_n04285008_11410.png,n04285008_11410.png,1.0,4.298008,0.799514,2.4738088
convnext_large,1,143,NaN,chair,chair,bw,0143_cl_dnn_bw_chair_40_n04429376_2304.png,n04429376_2304.png,1.0,2.7158349,0.81850076,1.3416178
convnext_large,1,144,NaN,boat,boat,cr,0144_cl_dnn_cr_boat_40_n03662601_27165.png,n03662601_27165.png,1.0,2.5400503,0.48740652,1.4514383
convnext_large,1,145,NaN,truck,truck,bw,0145_cl_dnn_bw_truck_40_n04467665_70308.png,n04467665_70308.png,1.0,2.2471173,0.40276924,1.304151
convnext_large,1,146,NaN,bicycle,bicycle,cr,0146_cl_dnn_cr_bicycle_40_n03792782_51414.png,n03792782_51414.png,1.0,5.6720366,0.35144097,3.7622294
convnext_large,1,147,NaN,knife,knife,cr,0147_cl_dnn_cr_knife_40_n03041632_44738.png,n03041632_44738.png,1.0,8.361624,0.26067513,5.7282357
convnext_large,1,148,NaN,elephant,elephant,bw,0148_cl_dnn_bw_elephant_40_n02504458_11363.png,n02504458_11363.png,1.0,6.0781374,0.28140694,4.0989075
convnext_large,1,149,NaN,truck,truck,cr,0149_cl_dnn_cr_truck_40_n04467665_4899.png,n04467665_4899.png,1.0,2.8592997,1.9370984,0.6520948
convnext_large,1,150,NaN,bear,bear,cr,0150_cl_dnn_cr_bear_40_n02134418_685.png,n02134418_685.png,1.0,3.2445204,1.8216076,1.0061513
convnext_large,1,151,NaN,keyboard,keyboard,bw,0151_cl_dnn_bw_keyboard_40_n04505470_4363.png,n04505470_4363.png,1.0,5.032678,0.81115574,2.9850671
convnext_large,1,152,NaN,oven,oven,bw,0152_cl_dnn_bw_oven_40_n04111531_12468.png,n04111531_12468.png,1.0,8.263612,0.25604796,5.662203
convnext_large,1,153,NaN,bottle,bottle,cr,0153_cl_dnn_cr_bottle_40_n04591713_5559.png,n04591713_5559.png,1.0,3.4355683,0.46200785,2.102625
convnext_large,1,154,NaN,elephant,elephant,cr,0154_cl_dnn_cr_elephant_40_n02504013_3197.png,n02504013_3197.png,1.0,4.812784,2.3518438,1.7401476
convnext_large,1,155,NaN,oven,bird,bw,0155_cl_dnn_bw_bird_40_n01817953_5039.png,n01817953_5039.png,0.0,0.26679793,0.42256662,-0.1101451
convnext_large,1,156,NaN,bicycle,bicycle,cr,0156_cl_dnn_cr_bicycle_40_n03792782_3296.png,n03792782_3296.png,1.0,4.9996486,1.7009442,2.3325362
convnext_large,1,157,NaN,dog,bird,cr,0157_cl_dnn_cr_bird_40_n01855672_5670.png,n01855672_5670.png,0.0,0.28241667,0.59704727,-0.22247744
convnext_large,1,158,NaN,oven,oven,cr,0158_cl_dnn_cr_oven_40_n04111531_2260.png,n04111531_2260.png,1.0,8.927192,0.31031317,6.0930533
convnext_large,1,159,NaN,cat,cat,cr,0159_cl_dnn_cr_cat_40_n02123045_5932.png,n02123045_5932.png,1.0,3.9120188,0.75064886,2.235426
convnext_large,1,160,NaN,dog,dog,cr,0160_cl_dnn_cr_dog_40_n02100583_1267.png,n02100583_1267.png,1.0,0.33402714,0.32418674,0.006958213
convnext_large,1,161,NaN,dog,dog,bw,0161_cl_dnn_bw_dog_40_n02099601_8005.png,n02099601_8005.png,1.0,0.78619176,0.34190178,0.31416047
convnext_large,1,162,NaN,boat,boat,cr,0162_cl_dnn_cr_boat_40_n02951358_12080.png,n02951358_12080.png,1.0,1.8007368,0.37842324,1.0057275
convnext_large,1,163,NaN,oven,oven,cr,0163_cl_dnn_cr_oven_40_n04111531_20028.png,n04111531_20028.png,1.0,7.8716707,0.27133524,5.374249
convnext_large,1,164,NaN,cat,cat,bw,0164_cl_dnn_bw_cat_40_n02123159_2107.png,n02123159_2107.png,1.0,2.1991222,0.3319971,1.3202568
convnext_large,1,165,NaN,bear,bear,cr,0165_cl_dnn_cr_bear_40_n02134418_1351.png,n02134418_1351.png,1.0,3.3989282,0.24746318,2.2284222
convnext_large,1,166,NaN,oven,oven,cr,0166_cl_dnn_cr_oven_40_n04111531_6609.png,n04111531_6609.png,1.0,8.142223,0.15732238,5.646178
convnext_large,1,167,NaN,knife,knife,bw,0167_cl_dnn_bw_knife_40_n03041632_21477.png,n03041632_21477.png,1.0,8.761747,0.34429702,5.952036
convnext_large,1,168,NaN,cat,cat,cr,0168_cl_dnn_cr_cat_40_n02123394_238.png,n02123394_238.png,1.0,1.9223999,0.40598795,1.0722651
convnext_large,1,169,NaN,elephant,elephant,cr,0169_cl_dnn_cr_elephant_40_n02504013_3141.png,n02504013_3141.png,1.0,6.340228,0.29172936,4.2769346
convnext_large,1,170,NaN,elephant,elephant,cr,0170_cl_dnn_cr_elephant_40_n02504013_5035.png,n02504013_5035.png,1.0,6.8570743,0.11467029,4.7675996
convnext_large,1,171,NaN,dog,dog,cr,0171_cl_dnn_cr_dog_40_n02089867_2298.png,n02089867_2298.png,1.0,0.62130725,0.20452888,0.29470682
convnext_large,1,172,NaN,bear,bear,bw,0172_cl_dnn_bw_bear_40_n02134418_2503.png,n02134418_2503.png,1.0,2.425665,0.82849246,1.1293715
convnext_large,1,173,NaN,keyboard,keyboard,cr,0173_cl_dnn_cr_keyboard_40_n04505470_4878.png,n04505470_4878.png,1.0,5.6603775,0.33455768,3.7659235
convnext_large,1,174,NaN,knife,knife,bw,0174_cl_dnn_bw_knife_40_n03041632_22734.png,n03041632_22734.png,1.0,8.746075,0.3659557,5.925639
convnext_large,1,175,NaN,bear,bear,cr,0175_cl_dnn_cr_bear_40_n02132136_8896.png,n02132136_8896.png,1.0,3.5063114,0.69163233,1.9902787
convnext_large,1,176,NaN,boat,boat,bw,0176_cl_dnn_bw_boat_40_n02951358_5952.png,n02951358_5952.png,1.0,2.2891803,0.21001303,1.4701934
convnext_large,1,177,NaN,chair,chair,bw,0177_cl_dnn_bw_chair_40_n04099969_1775.png,n04099969_1775.png,1.0,2.843291,0.53499043,1.6322149
convnext_large,1,178,NaN,airplane,airplane,bw,0178_cl_dnn_bw_airplane_40_n02690373_6524.png,n02690373_6524.png,1.0,5.5575814,2.1782935,2.3895175
convnext_large,1,179,NaN,bear,bear,cr,0179_cl_dnn_cr_bear_40_n02133161_1916.png,n02133161_1916.png,1.0,4.137855,0.5059279,2.5681603
convnext_large,1,180,NaN,knife,knife,bw,0180_cl_dnn_bw_knife_40_n03041632_96714.png,n03041632_96714.png,1.0,9.081781,0.28070408,6.2233014
convnext_large,1,181,NaN,truck,truck,bw,0181_cl_dnn_bw_truck_40_n03417042_13635.png,n03417042_13635.png,1.0,1.7364635,0.32533014,0.99782205
convnext_large,1,182,NaN,boat,boat,bw,0182_cl_dnn_bw_boat_40_n04612504_1748.png,n04612504_1748.png,1.0,2.1783917,0.57550144,1.1334146
convnext_large,1,183,NaN,bird,bird,cr,0183_cl_dnn_cr_bird_40_n01592084_3341.png,n01592084_3341.png,1.0,0.41298446,0.29705656,0.08197341
convnext_large,1,184,NaN,car,car,bw,0184_cl_dnn_bw_car_40_n02814533_12388.png,n02814533_12388.png,1.0,4.383668,0.8497502,2.4988573
convnext_large,1,185,NaN,bicycle,bicycle,cr,0185_cl_dnn_cr_bicycle_40_n03792782_5864.png,n03792782_5864.png,1.0,6.0102806,0.40801895,3.9613972
convnext_large,1,186,NaN,airplane,bird,bw,0186_cl_dnn_bw_bird_40_n01514859_17156.png,n01514859_17156.png,0.0,0.15764008,0.30023718,-0.100831375
convnext_large,1,187,NaN,car,car,cr,0187_cl_dnn_cr_car_40_n03100240_7737.png,n03100240_7737.png,1.0,6.3953304,0.5564518,4.1287107
convnext_large,1,188,NaN,bottle,bottle,bw,0188_cl_dnn_bw_bottle_40_n04579145_1829.png,n04579145_1829.png,1.0,1.9243507,0.6121404,0.92787284
convnext_large,1,189,NaN,elephant,elephant,bw,0189_cl_dnn_bw_elephant_40_n02504013_22388.png,n02504013_22388.png,1.0,5.366126,0.39961302,3.5118551
convnext_large,1,190,NaN,airplane,airplane,bw,0190_cl_dnn_bw_airplane_40_n02690373_7107.png,n02690373_7107.png,1.0,8.251617,0.36610264,5.575901
convnext_large,1,191,NaN,car,car,bw,0191_cl_dnn_bw_car_40_n02814533_45594.png,n02814533_45594.png,1.0,2.4691892,1.311564,0.81856465
convnext_large,1,192,NaN,boat,boat,cr,0192_cl_dnn_cr_boat_40_n04612504_18536.png,n04612504_18536.png,1.0,2.9302635,0.5865464,1.6572583
convnext_large,1,193,NaN,knife,dog,cr,0193_cl_dnn_cr_dog_40_n02088466_6371.png,n02088466_6371.png,0.0,0.41443285,0.66161656,-0.17478529
convnext_large,1,194,NaN,bear,bear,bw,0194_cl_dnn_bw_bear_40_n02133161_1003.png,n02133161_1003.png,1.0,3.5455966,1.5082172,1.4406447
convnext_large,1,195,NaN,knife,knife,bw,0195_cl_dnn_bw_knife_40_n03041632_29037.png,n03041632_29037.png,1.0,8.076735,0.308456,5.4930024
convnext_large,1,196,NaN,airplane,airplane,cr,0196_cl_dnn_cr_airplane_40_n02690373_4015.png,n02690373_4015.png,1.0,9.645068,1.1532351,6.0046325
convnext_large,1,197,NaN,knife,knife,bw,0197_cl_dnn_bw_knife_40_n03041632_28009.png,n03041632_28009.png,1.0,7.7428966,0.2989503,5.263665
convnext_large,1,198,NaN,bird,bird,bw,0198_cl_dnn_bw_bird_40_n01560419_5714.png,n01560419_5714.png,1.0,0.65438503,0.3266031,0.23177682
convnext_large,1,199,NaN,cat,cat,cr,0199_cl_dnn_cr_cat_40_n02125311_6429.png,n02125311_6429.png,1.0,1.5798793,0.4030766,0.8321251
convnext_large,1,200,NaN,chair,chair,bw,0200_cl_dnn_bw_chair_40_n04099969_9847.png,n04099969_9847.png,1.0,3.0980692,0.8574631,1.5843477
convnext_large,1,201,NaN,cat,cat,bw,0201_cl_dnn_bw_cat_40_n02123597_7142.png,n02123597_7142.png,1.0,2.539017,0.8252551,1.2118126
convnext_large,1,202,NaN,bicycle,bicycle,cr,0202_cl_dnn_cr_bicycle_40_n02835271_8982.png,n02835271_8982.png,1.0,4.5633774,1.0490254,2.485022
convnext_large,1,203,NaN,airplane,bird,bw,0203_cl_dnn_bw_bird_40_n01592084_19555.png,n01592084_19555.png,0.0,0.5575383,0.86456716,-0.21710221
convnext_large,1,204,NaN,knife,knife,cr,0204_cl_dnn_cr_knife_40_n03041632_8618.png,n03041632_8618.png,1.0,8.730276,1.6095314,5.035127
convnext_large,1,205,NaN,boat,boat,bw,0205_cl_dnn_bw_boat_40_n03344393_547.png,n03344393_547.png,1.0,3.6789925,0.45269924,2.281334
convnext_large,1,206,NaN,bird,bird,bw,0206_cl_dnn_bw_bird_40_n01843383_5962.png,n01843383_5962.png,1.0,0.44625953,0.3540313,0.06521521
convnext_large,1,207,NaN,keyboard,keyboard,cr,0207_cl_dnn_cr_keyboard_40_n04505470_213.png,n04505470_213.png,1.0,5.205411,0.40205094,3.3964884
convnext_large,1,208,NaN,elephant,elephant,cr,0208_cl_dnn_cr_elephant_40_n02504458_2607.png,n02504458_2607.png,1.0,7.139939,0.1352055,4.9530945
convnext_large,1,209,NaN,bear,bear,bw,0209_cl_dnn_bw_bear_40_n02134418_4157.png,n02134418_4157.png,1.0,4.1727905,0.3240861,2.721445
convnext_large,1,210,NaN,bottle,bottle,cr,0210_cl_dnn_cr_bottle_40_n03983396_11519.png,n03983396_11519.png,1.0,4.0117,0.16258979,2.7217321
convnext_large,1,211,NaN,cat,cat,cr,0211_cl_dnn_cr_cat_40_n02124075_1999.png,n02124075_1999.png,1.0,4.449507,0.7360684,2.6257977
convnext_large,1,212,NaN,cat,cat,bw,0212_cl_dnn_bw_cat_40_n02124075_11252.png,n02124075_11252.png,1.0,3.8259451,0.787315,2.1486359
convnext_large,1,213,NaN,airplane,airplane,bw,0213_cl_dnn_bw_airplane_40_n02690373_4195.png,n02690373_4195.png,1.0,8.088275,1.3530136,4.762549
convnext_large,1,214,NaN,airplane,airplane,cr,0214_cl_dnn_cr_airplane_40_n02690373_2629.png,n02690373_2629.png,1.0,8.259966,0.33303034,5.6051903
convnext_large,1,215,NaN,keyboard,keyboard,bw,0215_cl_dnn_bw_keyboard_40_n04505470_5060.png,n04505470_5060.png,1.0,5.588656,0.34115323,3.7105448
convnext_large,1,216,NaN,bear,bear,cr,0216_cl_dnn_cr_bear_40_n02132136_10060.png,n02132136_10060.png,1.0,4.456173,0.53357387,2.7736964
convnext_large,1,217,NaN,airplane,airplane,bw,0217_cl_dnn_bw_airplane_40_n02690373_4150.png,n02690373_4150.png,1.0,8.732119,0.6373276,5.723882
convnext_large,1,218,NaN,dog,dog,cr,0218_cl_dnn_cr_dog_40_n02102040_7465.png,n02102040_7465.png,1.0,0.71043044,0.39736545,0.22137038
convnext_large,1,219,NaN,bird,bird,bw,0219_cl_dnn_bw_bird_40_n02009229_12179.png,n02009229_12179.png,1.0,0.47819954,0.27972272,0.1403443
convnext_large,1,220,NaN,knife,knife,bw,0220_cl_dnn_bw_knife_40_n03041632_20413.png,n03041632_20413.png,1.0,8.982533,0.28210136,6.1521344
convnext_large,1,221,NaN,truck,truck,bw,0221_cl_dnn_bw_truck_40_n03796401_13490.png,n03796401_13490.png,1.0,3.0187957,0.31426638,1.9123911
convnext_large,1,222,NaN,oven,oven,cr,0222_cl_dnn_cr_oven_40_n04111531_584.png,n04111531_584.png,1.0,9.365301,0.57241595,6.217509
convnext_large,1,223,NaN,airplane,airplane,bw,0223_cl_dnn_bw_airplane_40_n02690373_3899.png,n02690373_3899.png,1.0,8.273824,0.56492215,5.4510164
convnext_large,1,224,NaN,bird,bird,cr,0224_cl_dnn_cr_bird_40_n02027492_8707.png,n02027492_8707.png,1.0,0.49277195,0.45493603,0.02675404
convnext_large,1,225,NaN,airplane,airplane,cr,0225_cl_dnn_cr_airplane_40_n02690373_2648.png,n02690373_2648.png,1.0,8.939983,1.3082161,5.3964744
convnext_large,1,226,NaN,cat,cat,bw,0226_cl_dnn_bw_cat_40_n02123394_6598.png,n02123394_6598.png,1.0,3.6344612,1.0162008,1.8513896
convnext_large,1,227,NaN,bicycle,bicycle,bw,0227_cl_dnn_bw_bicycle_40_n02835271_17168.png,n02835271_17168.png,1.0,6.3757415,1.0049648,3.7977126
convnext_large,1,228,NaN,truck,truck,bw,0228_cl_dnn_bw_truck_40_n03417042_29849.png,n03417042_29849.png,1.0,3.8326566,1.5495944,1.6143688
convnext_large,1,229,NaN,knife,knife,cr,0229_cl_dnn_cr_knife_40_n03041632_29125.png,n03041632_29125.png,1.0,7.850013,0.20459615,5.406126
convnext_large,1,230,NaN,clock,clock,bw,0230_cl_dnn_bw_clock_40_n04548280_5456.png,n04548280_5456.png,1.0,4.558079,0.25570405,3.0422385
convnext_large,1,231,NaN,truck,truck,bw,0231_cl_dnn_bw_truck_40_n03796401_8099.png,n03796401_8099.png,1.0,2.518517,0.4540369,1.4598079
convnext_large,1,232,NaN,bear,bear,cr,0232_cl_dnn_cr_bear_40_n02132136_860.png,n02132136_860.png,1.0,3.7526321,1.3050842,1.7306777
convnext_large,1,233,NaN,truck,truck,bw,0233_cl_dnn_bw_truck_40_n03796401_4423.png,n03796401_4423.png,1.0,2.9528944,0.45021033,1.7696649
convnext_large,1,234,NaN,elephant,elephant,bw,0234_cl_dnn_bw_elephant_40_n02504458_7871.png,n02504458_7871.png,1.0,6.8224535,0.4489623,4.506739
convnext_large,1,235,NaN,oven,oven,cr,0235_cl_dnn_cr_oven_40_n04111531_14753.png,n04111531_14753.png,1.0,8.501361,0.673175,5.5353637
convnext_large,1,236,NaN,clock,clock,bw,0236_cl_dnn_bw_clock_40_n04548280_17198.png,n04548280_17198.png,1.0,4.944057,0.23602302,3.329083
convnext_large,1,237,NaN,oven,oven,cr,0237_cl_dnn_cr_oven_40_n04111531_15947.png,n04111531_15947.png,1.0,8.413147,0.23999001,5.7792945
convnext_large,1,238,NaN,elephant,elephant,bw,0238_cl_dnn_bw_elephant_40_n02504013_1103.png,n02504013_1103.png,1.0,6.0111,0.9041639,3.611149
convnext_large,1,239,NaN,bicycle,bicycle,cr,0239_cl_dnn_cr_bicycle_40_n03792782_33853.png,n03792782_33853.png,1.0,5.299138,0.31687292,3.5229933
convnext_large,1,240,NaN,bottle,bottle,bw,0240_cl_dnn_bw_bottle_40_n04557648_5665.png,n04557648_5665.png,1.0,2.6726112,1.0045077,1.1795274
convnext_large,1,241,NaN,bear,bear,bw,0241_cl_dnn_bw_bear_40_n02134418_5824.png,n02134418_5824.png,1.0,3.096208,0.36575013,1.9307255
convnext_large,1,242,NaN,truck,truck,cr,0242_cl_dnn_cr_truck_40_n04467665_54349.png,n04467665_54349.png,1.0,2.8488579,0.48314297,1.6728132
convnext_large,1,243,NaN,truck,truck,cr,0243_cl_dnn_cr_truck_40_n03796401_8100.png,n03796401_8100.png,1.0,3.7109966,0.7952833,2.0617206
convnext_large,1,244,NaN,elephant,elephant,cr,0244_cl_dnn_cr_elephant_40_n02504013_4288.png,n02504013_4288.png,1.0,6.2180204,0.24415752,4.2241592
convnext_large,1,245,NaN,boat,boat,cr,0245_cl_dnn_cr_boat_40_n03662601_4437.png,n03662601_4437.png,1.0,2.413145,0.44268405,1.3933264
convnext_large,1,246,NaN,bicycle,bicycle,cr,0246_cl_dnn_cr_bicycle_40_n02835271_7351.png,n02835271_7351.png,1.0,4.401238,1.3586388,2.1514425
convnext_large,1,247,NaN,elephant,elephant,bw,0247_cl_dnn_bw_elephant_40_n02504458_2556.png,n02504458_2556.png,1.0,5.077076,0.85980695,2.9820595
convnext_large,1,248,NaN,airplane,airplane,cr,0248_cl_dnn_cr_airplane_40_n02690373_303.png,n02690373_303.png,1.0,8.163354,0.47035456,5.439772
convnext_large,1,249,NaN,elephant,elephant,bw,0249_cl_dnn_bw_elephant_40_n02504013_5503.png,n02504013_5503.png,1.0,6.610762,0.19331634,4.5378194
convnext_large,1,250,NaN,truck,truck,cr,0250_cl_dnn_cr_truck_40_n04467665_68332.png,n04467665_68332.png,1.0,2.3288074,0.9762229,0.9564217
convnext_large,1,251,NaN,clock,clock,bw,0251_cl_dnn_bw_clock_40_n02708093_3079.png,n02708093_3079.png,1.0,5.7078285,0.102249704,3.963743
convnext_large,1,252,NaN,cat,cat,cr,0252_cl_dnn_cr_cat_40_n02123394_2395.png,n02123394_2395.png,1.0,1.8731165,0.339878,1.0841634
convnext_large,1,253,NaN,chair,chair,cr,0253_cl_dnn_cr_chair_40_n04429376_20906.png,n04429376_20906.png,1.0,2.384818,0.7420379,1.161621
convnext_large,1,254,NaN,boat,boat,cr,0254_cl_dnn_cr_boat_40_n03344393_8160.png,n03344393_8160.png,1.0,3.4131744,0.85795367,1.8068138
convnext_large,1,255,NaN,keyboard,keyboard,cr,0255_cl_dnn_cr_keyboard_40_n03085013_21325.png,n03085013_21325.png,1.0,7.520845,0.45736456,4.994635
convnext_large,1,256,NaN,knife,knife,cr,0256_cl_dnn_cr_knife_40_n03041632_99875.png,n03041632_99875.png,1.0,8.179052,2.312074,4.1485806
convnext_large,1,257,NaN,clock,clock,bw,0257_cl_dnn_bw_clock_40_n04548280_7384.png,n04548280_7384.png,1.0,3.7266815,1.9758298,1.2380391
convnext_large,1,258,NaN,keyboard,keyboard,bw,0258_cl_dnn_bw_keyboard_40_n03085013_23534.png,n03085013_23534.png,1.0,6.487529,1.0857216,3.8196547
convnext_large,1,259,NaN,truck,truck,bw,0259_cl_dnn_bw_truck_40_n03417042_2383.png,n03417042_2383.png,1.0,2.9941192,0.5985028,1.6939566
convnext_large,1,260,NaN,clock,clock,bw,0260_cl_dnn_bw_clock_40_n03196217_711.png,n03196217_711.png,1.0,4.2005587,1.950356,1.5911336
convnext_large,1,261,NaN,keyboard,keyboard,bw,0261_cl_dnn_bw_keyboard_40_n03085013_7992.png,n03085013_7992.png,1.0,6.543925,0.45428568,4.306025
convnext_large,1,262,NaN,cat,cat,bw,0262_cl_dnn_bw_cat_40_n02125311_75445.png,n02125311_75445.png,1.0,1.7696052,0.54317325,0.8672183
convnext_large,1,263,NaN,knife,knife,cr,0263_cl_dnn_cr_knife_40_n03041632_47410.png,n03041632_47410.png,1.0,7.911003,0.34642822,5.3489623
convnext_large,1,264,NaN,oven,oven,bw,0264_cl_dnn_bw_oven_40_n04111531_741.png,n04111531_741.png,1.0,8.807613,0.4614098,5.9016576
convnext_large,1,265,NaN,oven,oven,bw,0265_cl_dnn_bw_oven_40_n04111531_3181.png,n04111531_3181.png,1.0,8.185234,1.7303064,4.564323
convnext_large,1,266,NaN,truck,truck,bw,0266_cl_dnn_bw_truck_40_n03417042_17099.png,n03417042_17099.png,1.0,2.1907618,0.47680816,1.2119483
convnext_large,1,267,NaN,boat,boat,cr,0267_cl_dnn_cr_boat_40_n03662601_15143.png,n03662601_15143.png,1.0,2.3375947,0.53508526,1.2745668
convnext_large,1,268,NaN,keyboard,keyboard,bw,0268_cl_dnn_bw_keyboard_40_n03085013_19197.png,n03085013_19197.png,1.0,7.7745748,0.4356212,5.189424
convnext_large,1,269,NaN,airplane,airplane,cr,0269_cl_dnn_cr_airplane_40_n02690373_4202.png,n02690373_4202.png,1.0,8.771762,0.34888953,5.9558706
convnext_large,1,270,NaN,bear,bear,bw,0270_cl_dnn_bw_bear_40_n02132136_10134.png,n02132136_10134.png,1.0,4.0287843,0.5435513,2.4644318
convnext_large,1,271,NaN,boat,boat,bw,0271_cl_dnn_bw_boat_40_n03344393_5296.png,n03344393_5296.png,1.0,2.541247,0.47557336,1.4606519
convnext_large,1,272,NaN,keyboard,keyboard,bw,0272_cl_dnn_bw_keyboard_40_n04505470_1600.png,n04505470_1600.png,1.0,5.5813355,0.56796736,3.5449867
convnext_large,1,273,NaN,truck,truck,bw,0273_cl_dnn_bw_truck_40_n03417042_10043.png,n03417042_10043.png,1.0,1.682234,0.32269776,0.9613373
convnext_large,1,274,NaN,bird,bird,bw,0274_cl_dnn_bw_bird_40_n02007558_5525.png,n02007558_5525.png,1.0,0.43027216,0.2481466,0.12878223
convnext_large,1,275,NaN,airplane,airplane,cr,0275_cl_dnn_cr_airplane_40_n02690373_6621.png,n02690373_6621.png,1.0,8.231515,0.22960289,5.6582065
convnext_large,1,276,NaN,keyboard,keyboard,bw,0276_cl_dnn_bw_keyboard_40_n04505470_6623.png,n04505470_6623.png,1.0,5.085413,0.47957855,3.2568169
convnext_large,1,277,NaN,elephant,dog,cr,0277_cl_dnn_cr_dog_40_n02113624_3403.png,n02113624_3403.png,0.0,0.039159313,0.34919143,-0.21922582
convnext_large,1,278,NaN,airplane,dog,bw,0278_cl_dnn_bw_dog_40_n02106550_12642.png,n02106550_12642.png,0.0,0.1810653,0.25603515,-0.053011686
convnext_large,1,279,NaN,clock,clock,cr,0279_cl_dnn_cr_clock_40_n04548280_24041.png,n04548280_24041.png,1.0,4.667089,0.17029652,3.1797123
convnext_large,1,280,NaN,truck,truck,bw,0280_cl_dnn_bw_truck_40_n03417042_3236.png,n03417042_3236.png,1.0,3.806439,1.1904721,1.8497679
convnext_large,1,281,NaN,car,car,bw,0281_cl_dnn_bw_car_40_n03100240_2583.png,n03100240_2583.png,1.0,5.323507,1.4514382,2.737966
convnext_large,1,282,NaN,knife,knife,cr,0282_cl_dnn_cr_knife_40_n03041632_45090.png,n03041632_45090.png,1.0,8.580586,0.33390835,5.831282
convnext_large,1,283,NaN,cat,cat,cr,0283_cl_dnn_cr_cat_40_n02123597_660.png,n02123597_660.png,1.0,1.9326459,0.4192091,1.0701615
convnext_large,1,284,NaN,clock,clock,bw,0284_cl_dnn_bw_clock_40_n04548280_7813.png,n04548280_7813.png,1.0,4.6414933,0.6964623,2.7895584
convnext_large,1,285,NaN,dog,dog,bw,0285_cl_dnn_bw_dog_40_n02111129_797.png,n02111129_797.png,1.0,0.22677334,0.19073229,0.025484873
convnext_large,1,286,NaN,knife,knife,cr,0286_cl_dnn_cr_knife_40_n03041632_3717.png,n03041632_3717.png,1.0,8.6381445,0.28496358,5.906591
convnext_large,1,287,NaN,boat,boat,bw,0287_cl_dnn_bw_boat_40_n04273569_870.png,n04273569_870.png,1.0,2.7143762,0.8657296,1.3071907
convnext_large,1,288,NaN,elephant,elephant,bw,0288_cl_dnn_bw_elephant_40_n02504013_720.png,n02504013_720.png,1.0,6.90572,0.17112333,4.7620792
convnext_large,1,289,NaN,oven,oven,cr,0289_cl_dnn_cr_oven_40_n04111531_14876.png,n04111531_14876.png,1.0,8.333923,0.22710826,5.732384
convnext_large,1,290,NaN,cat,cat,bw,0290_cl_dnn_bw_cat_40_n02123045_569.png,n02123045_569.png,1.0,4.46773,1.3682958,2.191631
convnext_large,1,291,NaN,clock,clock,bw,0291_cl_dnn_bw_clock_40_n03196217_5888.png,n03196217_5888.png,1.0,3.9360912,0.7678625,2.240276
convnext_large,1,292,NaN,keyboard,keyboard,cr,0292_cl_dnn_cr_keyboard_40_n04505470_4770.png,n04505470_4770.png,1.0,5.984555,0.80783165,3.660496
convnext_large,1,293,NaN,knife,knife,cr,0293_cl_dnn_cr_knife_40_n03041632_32292.png,n03041632_32292.png,1.0,8.237075,0.27964896,5.62675
convnext_large,1,294,NaN,elephant,elephant,cr,0294_cl_dnn_cr_elephant_40_n02504013_6672.png,n02504013_6672.png,1.0,6.2386227,0.3995477,4.1288495
convnext_large,1,295,NaN,airplane,airplane,bw,0295_cl_dnn_bw_airplane_40_n02690373_5838.png,n02690373_5838.png,1.0,8.331838,0.26923028,5.7011247
convnext_large,1,296,NaN,bird,bird,cr,0296_cl_dnn_cr_bird_40_n01796340_5508.png,n01796340_5508.png,1.0,0.533958,0.32524925,0.14757939
convnext_large,1,297,NaN,clock,clock,bw,0297_cl_dnn_bw_clock_40_n03196217_6477.png,n03196217_6477.png,1.0,4.068505,0.7064053,2.3773634
convnext_large,1,298,NaN,cat,bird,bw,0298_cl_dnn_bw_bird_40_n02011460_5075.png,n02011460_5075.png,0.0,0.14892541,0.15744288,-0.006022764
convnext_large,1,299,NaN,boat,boat,bw,0299_cl_dnn_bw_boat_40_n03344393_10284.png,n03344393_10284.png,1.0,2.265061,0.5840354,1.1886646
convnext_large,1,300,NaN,oven,oven,bw,0300_cl_dnn_bw_oven_40_n04111531_14559.png,n04111531_14559.png,1.0,8.71178,0.31862676,5.9348555
convnext_large,1,301,NaN,knife,knife,cr,0301_cl_dnn_cr_knife_40_n03041632_24060.png,n03041632_24060.png,1.0,8.77612,0.67827386,5.726042
convnext_large,1,302,NaN,airplane,airplane,bw,0302_cl_dnn_bw_airplane_40_n02690373_4134.png,n02690373_4134.png,1.0,7.8193693,0.4076861,5.2408514
convnext_large,1,303,NaN,bear,bear,cr,0303_cl_dnn_cr_bear_40_n02134084_6669.png,n02134084_6669.png,1.0,2.400261,0.20430905,1.5527725
convnext_large,1,304,NaN,bird,bird,cr,0304_cl_dnn_cr_bird_40_n01558993_5744.png,n01558993_5744.png,1.0,0.45380872,0.29782772,0.11029523
convnext_large,1,305,NaN,bird,bird,bw,0305_cl_dnn_bw_bird_40_n01818515_10536.png,n01818515_10536.png,1.0,0.76284605,0.5496559,0.1507482
convnext_large,1,306,NaN,bicycle,bottle,bw,0306_cl_dnn_bw_bottle_40_n04557648_20614.png,n04557648_20614.png,0.0,0.38119125,6.1890545,-4.1067796
convnext_large,1,307,NaN,clock,clock,cr,0307_cl_dnn_cr_clock_40_n04548280_3605.png,n04548280_3605.png,1.0,4.463199,0.46719027,2.825605
convnext_large,1,308,NaN,truck,truck,bw,0308_cl_dnn_bw_truck_40_n03796401_27288.png,n03796401_27288.png,1.0,2.6665783,0.49994704,1.5320396
convnext_large,1,309,NaN,bicycle,bicycle,cr,0309_cl_dnn_cr_bicycle_40_n02835271_18276.png,n02835271_18276.png,1.0,5.04634,2.4244382,1.8539646
convnext_large,1,310,NaN,bear,bear,cr,0310_cl_dnn_cr_bear_40_n02133161_12152.png,n02133161_12152.png,1.0,3.1560955,0.70998454,1.7296617
convnext_large,1,311,NaN,elephant,elephant,cr,0311_cl_dnn_cr_elephant_40_n02504013_14918.png,n02504013_14918.png,1.0,6.796573,0.20649858,4.6598864
convnext_large,1,312,NaN,bicycle,bicycle,bw,0312_cl_dnn_bw_bicycle_40_n03792782_5323.png,n03792782_5323.png,1.0,6.598811,0.6972778,4.173014
convnext_large,1,313,NaN,truck,truck,cr,0313_cl_dnn_cr_truck_40_n04467665_37066.png,n04467665_37066.png,1.0,2.8634858,1.2395651,1.1482854
convnext_large,1,314,NaN,bird,bird,bw,0314_cl_dnn_bw_bird_40_n02025239_2481.png,n02025239_2481.png,1.0,0.34614122,0.109729566,0.16716829
convnext_large,1,315,NaN,bicycle,bicycle,bw,0315_cl_dnn_bw_bicycle_40_n02835271_5113.png,n02835271_5113.png,1.0,4.883047,0.7583354,2.9166114
convnext_large,1,316,NaN,elephant,elephant,cr,0316_cl_dnn_cr_elephant_40_n02504458_6185.png,n02504458_6185.png,1.0,7.808951,0.17842457,5.395597
convnext_large,1,317,NaN,knife,knife,cr,0317_cl_dnn_cr_knife_40_n03041632_11475.png,n03041632_11475.png,1.0,7.588482,1.0731267,4.607052
convnext_large,1,318,NaN,cat,cat,bw,0318_cl_dnn_bw_cat_40_n02125311_31318.png,n02125311_31318.png,1.0,1.4612404,0.1896377,0.89915895
convnext_large,1,319,NaN,clock,clock,bw,0319_cl_dnn_bw_clock_40_n04548280_8585.png,n04548280_8585.png,1.0,4.754412,0.53908616,2.9806855
convnext_large,1,320,NaN,bear,bear,bw,0320_cl_dnn_bw_bear_40_n02134418_12628.png,n02134418_12628.png,1.0,2.8592515,0.42736238,1.7196053
convnext_large,1,321,NaN,chair,chair,bw,0321_cl_dnn_bw_chair_40_n03376595_17859.png,n03376595_17859.png,1.0,4.0844507,0.46179125,2.5616071
convnext_large,1,322,NaN,knife,knife,cr,0322_cl_dnn_cr_knife_40_n03041632_379.png,n03041632_379.png,1.0,9.046717,0.22457084,6.2381988
convnext_large,1,323,NaN,bottle,bottle,bw,0323_cl_dnn_bw_bottle_40_n04557648_1293.png,n04557648_1293.png,1.0,2.9291928,0.9260955,1.4164037
convnext_large,1,324,NaN,boat,boat,cr,0324_cl_dnn_cr_boat_40_n03662601_26298.png,n03662601_26298.png,1.0,2.540222,0.4493965,1.478437
convnext_large,1,325,NaN,oven,oven,bw,0325_cl_dnn_bw_oven_40_n04111531_6120.png,n04111531_6120.png,1.0,8.333033,1.0800352,5.1286435
convnext_large,1,326,NaN,car,car,bw,0326_cl_dnn_bw_car_40_n02814533_92940.png,n02814533_92940.png,1.0,6.7243905,0.9055641,4.1145315
convnext_large,1,327,NaN,chair,chair,cr,0327_cl_dnn_cr_chair_40_n02791124_392.png,n02791124_392.png,1.0,3.0382419,0.33790794,1.9094244
convnext_large,1,328,NaN,clock,clock,bw,0328_cl_dnn_bw_clock_40_n04548280_3330.png,n04548280_3330.png,1.0,4.6772265,1.0996058,2.52976
convnext_large,1,329,NaN,car,car,cr,0329_cl_dnn_cr_car_40_n02814533_83614.png,n02814533_83614.png,1.0,3.4278915,1.5238581,1.346355
convnext_large,1,330,NaN,bear,bear,cr,0330_cl_dnn_cr_bear_40_n02134418_3846.png,n02134418_3846.png,1.0,3.47438,0.43860632,2.1466162
convnext_large,1,331,NaN,elephant,elephant,cr,0331_cl_dnn_cr_elephant_40_n02504013_811.png,n02504013_811.png,1.0,6.3525634,0.25158334,4.3140445
convnext_large,1,332,NaN,airplane,airplane,bw,0332_cl_dnn_bw_airplane_40_n02690373_1442.png,n02690373_1442.png,1.0,8.405291,0.2821281,5.743943
convnext_large,1,333,NaN,chair,chair,cr,0333_cl_dnn_cr_chair_40_n03376595_6691.png,n03376595_6691.png,1.0,2.8942428,0.6260857,1.6038293
convnext_large,1,334,NaN,knife,bird,bw,0334_cl_dnn_bw_bird_40_n01616318_1071.png,n01616318_1071.png,0.0,0.35877168,0.4769174,-0.08354163
convnext_large,1,335,NaN,boat,boat,cr,0335_cl_dnn_cr_boat_40_n03662601_8333.png,n03662601_8333.png,1.0,4.0502615,0.48300475,2.5224314
convnext_large,1,336,NaN,truck,truck,cr,0336_cl_dnn_cr_truck_40_n03796401_9384.png,n03796401_9384.png,1.0,1.4291115,0.78793824,0.45337796
convnext_large,1,337,NaN,bottle,bottle,cr,0337_cl_dnn_cr_bottle_40_n04560804_19001.png,n04560804_19001.png,1.0,2.1394596,0.36281753,1.2562757
convnext_large,1,338,NaN,cat,cat,cr,0338_cl_dnn_cr_cat_40_n02123045_7646.png,n02123045_7646.png,1.0,3.77536,1.2331605,1.7976066
convnext_large,1,339,NaN,elephant,elephant,cr,0339_cl_dnn_cr_elephant_40_n02504013_3599.png,n02504013_3599.png,1.0,6.4636617,0.23006581,4.407818
convnext_large,1,340,NaN,clock,clock,cr,0340_cl_dnn_cr_clock_40_n03196217_1109.png,n03196217_1109.png,1.0,5.0312667,0.9045503,2.9180293
convnext_large,1,341,NaN,boat,boat,bw,0341_cl_dnn_bw_boat_40_n03344393_5322.png,n03344393_5322.png,1.0,2.668174,0.5186162,1.519967
convnext_large,1,342,NaN,elephant,dog,cr,0342_cl_dnn_cr_dog_40_n02090622_11748.png,n02090622_11748.png,0.0,0.34663624,0.4169767,-0.049738213
convnext_large,1,343,NaN,knife,knife,cr,0343_cl_dnn_cr_knife_40_n03041632_20707.png,n03041632_20707.png,1.0,9.071394,0.6705512,5.940293
convnext_large,1,344,NaN,keyboard,keyboard,cr,0344_cl_dnn_cr_keyboard_40_n03085013_8936.png,n03085013_8936.png,1.0,7.4398346,0.5993123,4.83698
convnext_large,1,345,NaN,airplane,airplane,cr,0345_cl_dnn_cr_airplane_40_n02690373_4695.png,n02690373_4695.png,1.0,8.475916,0.44298705,5.680138
convnext_large,1,346,NaN,oven,oven,bw,0346_cl_dnn_bw_oven_40_n04111531_16463.png,n04111531_16463.png,1.0,9.143034,1.4005367,5.4747725
convnext_large,1,347,NaN,dog,dog,bw,0347_cl_dnn_bw_dog_40_n02099712_1234.png,n02099712_1234.png,1.0,0.77711976,-0.023411592,0.56606114
convnext_large,1,348,NaN,boat,boat,bw,0348_cl_dnn_bw_boat_40_n03662601_17361.png,n03662601_17361.png,1.0,3.490089,0.3683883,2.2073758
convnext_large,1,349,NaN,oven,oven,cr,0349_cl_dnn_cr_oven_40_n04111531_12929.png,n04111531_12929.png,1.0,7.974897,0.52963877,5.2645926
convnext_large,1,350,NaN,truck,truck,bw,0350_cl_dnn_bw_truck_40_n03417042_2056.png,n03417042_2056.png,1.0,2.582602,0.46832445,1.49502
convnext_large,1,351,NaN,oven,oven,cr,0351_cl_dnn_cr_oven_40_n04111531_2937.png,n04111531_2937.png,1.0,8.784446,0.20036383,6.0698624
convnext_large,1,352,NaN,boat,boat,bw,0352_cl_dnn_bw_boat_40_n04273569_23705.png,n04273569_23705.png,1.0,2.513672,0.58276886,1.3653548
convnext_large,1,353,NaN,boat,boat,cr,0353_cl_dnn_cr_boat_40_n02951358_8456.png,n02951358_8456.png,1.0,4.132068,0.6433242,2.4669147
convnext_large,1,354,NaN,bottle,bottle,bw,0354_cl_dnn_bw_bottle_40_n03983396_11632.png,n03983396_11632.png,1.0,3.2261212,0.18924408,2.1473966
convnext_large,1,355,NaN,bicycle,bicycle,bw,0355_cl_dnn_bw_bicycle_40_n02835271_506.png,n02835271_506.png,1.0,4.6631384,0.48638082,2.9534137
convnext_large,1,356,NaN,keyboard,keyboard,cr,0356_cl_dnn_cr_keyboard_40_n04505470_665.png,n04505470_665.png,1.0,4.8724737,0.4392447,3.1347663
convnext_large,1,357,NaN,bear,bear,bw,0357_cl_dnn_bw_bear_40_n02132136_390.png,n02132136_390.png,1.0,4.4146113,0.46296787,2.794234
convnext_large,1,358,NaN,bear,bear,cr,0358_cl_dnn_cr_bear_40_n02134084_13663.png,n02134084_13663.png,1.0,2.7898962,0.23083083,1.8095325
convnext_large,1,359,NaN,airplane,airplane,cr,0359_cl_dnn_cr_airplane_40_n02690373_2837.png,n02690373_2837.png,1.0,8.813891,0.8861208,5.6057806
convnext_large,1,360,NaN,airplane,airplane,bw,0360_cl_dnn_bw_airplane_40_n02690373_1492.png,n02690373_1492.png,1.0,8.691308,0.39239624,5.868217
convnext_large,1,361,NaN,car,car,cr,0361_cl_dnn_cr_car_40_n03100240_14252.png,n03100240_14252.png,1.0,5.6452518,0.50893956,3.631921
convnext_large,1,362,NaN,elephant,elephant,bw,0362_cl_dnn_bw_elephant_40_n02504458_4908.png,n02504458_4908.png,1.0,7.2938967,0.5533044,4.766319
convnext_large,1,363,NaN,oven,bird,bw,0363_cl_dnn_bw_bird_40_n01582220_5821.png,n01582220_5821.png,0.0,0.32650033,0.5136486,-0.13233383
convnext_large,1,364,NaN,cat,cat,cr,0364_cl_dnn_cr_cat_40_n02123045_2968.png,n02123045_2968.png,1.0,5.4958434,1.5436597,2.794616
convnext_large,1,365,NaN,boat,dog,cr,0365_cl_dnn_cr_dog_40_n02088466_1671.png,n02088466_1671.png,0.0,0.33745494,0.3871296,-0.03512529
convnext_large,1,366,NaN,boat,boat,bw,0366_cl_dnn_bw_boat_40_n03344393_7659.png,n03344393_7659.png,1.0,2.7678616,0.17528993,1.8332251
convnext_large,1,367,NaN,bicycle,bicycle,bw,0367_cl_dnn_bw_bicycle_40_n03792782_3783.png,n03792782_3783.png,1.0,5.986929,0.654117,3.7708676
convnext_large,1,368,NaN,airplane,airplane,cr,0368_cl_dnn_cr_airplane_40_n02690373_2059.png,n02690373_2059.png,1.0,8.645093,0.7841263,5.5585427
convnext_large,1,369,NaN,keyboard,keyboard,cr,0369_cl_dnn_cr_keyboard_40_n03085013_19483.png,n03085013_19483.png,1.0,7.2723,0.20506628,4.9972887
convnext_large,1,370,NaN,bicycle,bicycle,bw,0370_cl_dnn_bw_bicycle_40_n03792782_2960.png,n03792782_2960.png,1.0,7.6685467,0.93135875,4.7639112
convnext_large,1,371,NaN,keyboard,keyboard,cr,0371_cl_dnn_cr_keyboard_40_n03085013_24538.png,n03085013_24538.png,1.0,3.6052105,0.5670197,2.1483254
convnext_large,1,372,NaN,cat,cat,cr,0372_cl_dnn_cr_cat_40_n02123597_9656.png,n02123597_9656.png,1.0,1.8210526,0.8887768,0.65921855
convnext_large,1,373,NaN,car,car,cr,0373_cl_dnn_cr_car_40_n04285008_1085.png,n04285008_1085.png,1.0,5.9048533,0.1496267,4.06956
convnext_large,1,374,NaN,dog,dog,cr,0374_cl_dnn_cr_dog_40_n02102177_5870.png,n02102177_5870.png,1.0,0.3681668,0.334359,0.023905735
convnext_large,1,375,NaN,boat,boat,cr,0375_cl_dnn_cr_boat_40_n03662601_24852.png,n03662601_24852.png,1.0,2.2614787,0.32696012,1.3679112
convnext_large,1,376,NaN,bicycle,bicycle,cr,0376_cl_dnn_cr_bicycle_40_n03792782_32379.png,n03792782_32379.png,1.0,6.26979,0.4772162,4.0959682
convnext_large,1,377,NaN,car,cat,cr,0377_cl_dnn_cr_cat_40_n02123597_12266.png,n02123597_12266.png,0.0,1.0640401,3.3427331,-1.6112795
convnext_large,1,378,NaN,airplane,airplane,cr,0378_cl_dnn_cr_airplane_40_n02690373_713.png,n02690373_713.png,1.0,8.314046,0.35808492,5.6257143
convnext_large,1,379,NaN,airplane,airplane,cr,0379_cl_dnn_cr_airplane_40_n02690373_6543.png,n02690373_6543.png,1.0,8.317936,1.063681,5.129533
convnext_large,1,380,NaN,oven,oven,cr,0380_cl_dnn_cr_oven_40_n04111531_5888.png,n04111531_5888.png,1.0,8.733093,1.1451561,5.365482
convnext_large,1,381,NaN,dog,dog,bw,0381_cl_dnn_bw_dog_40_n02099601_7304.png,n02099601_7304.png,1.0,0.66058165,0.4726572,0.13288265
convnext_large,1,382,NaN,airplane,bird,bw,0382_cl_dnn_bw_bird_40_n01819313_146.png,n01819313_146.png,0.0,0.2410596,0.28636754,-0.03203755
convnext_large,1,383,NaN,car,car,bw,0383_cl_dnn_bw_car_40_n03100240_18873.png,n03100240_18873.png,1.0,6.7246404,1.9124267,3.402749
convnext_large,1,384,NaN,keyboard,dog,bw,0384_cl_dnn_bw_dog_40_n02100583_2707.png,n02100583_2707.png,0.0,0.2527162,0.39026403,-0.097261
convnext_large,1,385,NaN,knife,dog,bw,0385_cl_dnn_bw_dog_40_n02105056_15484.png,n02105056_15484.png,0.0,0.31416294,0.40381163,-0.0633912
convnext_large,1,386,NaN,truck,truck,bw,0386_cl_dnn_bw_truck_40_n04467665_66535.png,n04467665_66535.png,1.0,2.096519,1.0592283,0.73347527
convnext_large,1,387,NaN,elephant,elephant,bw,0387_cl_dnn_bw_elephant_40_n02504458_12303.png,n02504458_12303.png,1.0,6.3718677,0.23234862,4.3412957
convnext_large,1,388,NaN,bottle,bottle,cr,0388_cl_dnn_cr_bottle_40_n03937543_4586.png,n03937543_4586.png,1.0,1.7242168,0.3023563,1.0054072
convnext_large,1,389,NaN,oven,bird,cr,0389_cl_dnn_cr_bird_40_n02007558_19064.png,n02007558_19064.png,0.0,0.2320261,0.35551006,-0.08731634
convnext_large,1,390,NaN,oven,oven,bw,0390_cl_dnn_bw_oven_40_n04111531_5904.png,n04111531_5904.png,1.0,9.00986,0.4332351,6.0645895
convnext_large,1,391,NaN,keyboard,keyboard,cr,0391_cl_dnn_cr_keyboard_40_n03085013_18625.png,n03085013_18625.png,1.0,7.3921423,0.39597207,4.947039
convnext_large,1,392,NaN,bottle,bottle,cr,0392_cl_dnn_cr_bottle_40_n04579145_445.png,n04579145_445.png,1.0,1.9771144,0.19196928,1.2622882
convnext_large,1,393,NaN,keyboard,keyboard,bw,0393_cl_dnn_bw_keyboard_40_n03085013_22820.png,n03085013_22820.png,1.0,4.3972187,0.6640506,2.6397486
convnext_large,1,394,NaN,truck,truck,cr,0394_cl_dnn_cr_truck_40_n03417042_19479.png,n03417042_19479.png,1.0,2.6689866,0.23746961,1.7193421
convnext_large,1,395,NaN,bird,bird,bw,0395_cl_dnn_bw_bird_40_n01833805_28946.png,n01833805_28946.png,1.0,0.48511544,0.47066176,0.010220295
convnext_large,1,396,NaN,bottle,bottle,bw,0396_cl_dnn_bw_bottle_40_n04591713_3896.png,n04591713_3896.png,1.0,2.2577045,1.0326875,0.8662178
convnext_large,1,397,NaN,cat,cat,cr,0397_cl_dnn_cr_cat_40_n02123159_782.png,n02123159_782.png,1.0,1.7536272,0.17222391,1.1182209
convnext_large,1,398,NaN,keyboard,keyboard,bw,0398_cl_dnn_bw_keyboard_40_n04505470_464.png,n04505470_464.png,1.0,5.397914,0.52912056,3.442757
convnext_large,1,399,NaN,bird,bird,cr,0399_cl_dnn_cr_bird_40_n01558993_3939.png,n01558993_3939.png,1.0,0.43996543,0.25962034,0.12752324
convnext_large,1,400,NaN,boat,boat,cr,0400_cl_dnn_cr_boat_40_n04273569_3052.png,n04273569_3052.png,1.0,3.618133,0.6657385,2.0876582
convnext_large,1,401,NaN,knife,knife,bw,0401_cl_dnn_bw_knife_40_n03041632_85416.png,n03041632_85416.png,1.0,8.095592,0.57449615,5.3182178
convnext_large,1,402,NaN,car,car,bw,0402_cl_dnn_bw_car_40_n02814533_51154.png,n02814533_51154.png,1.0,3.4068375,1.8690647,1.0873696
convnext_large,1,403,NaN,airplane,airplane,bw,0403_cl_dnn_bw_airplane_40_n02690373_6516.png,n02690373_6516.png,1.0,8.921192,0.40158942,6.024269
convnext_large,1,404,NaN,airplane,airplane,cr,0404_cl_dnn_cr_airplane_40_n02690373_12813.png,n02690373_12813.png,1.0,8.476765,0.37443885,5.7292094
convnext_large,1,405,NaN,airplane,airplane,bw,0405_cl_dnn_bw_airplane_40_n02690373_6406.png,n02690373_6406.png,1.0,8.419459,0.28301662,5.753334
convnext_large,1,406,NaN,chair,chair,cr,0406_cl_dnn_cr_chair_40_n03376595_8228.png,n03376595_8228.png,1.0,2.5459545,0.3342587,1.563905
convnext_large,1,407,NaN,chair,chair,bw,0407_cl_dnn_bw_chair_40_n04099969_6309.png,n04099969_6309.png,1.0,2.2950296,0.823958,1.0402048
convnext_large,1,408,NaN,elephant,elephant,cr,0408_cl_dnn_cr_elephant_40_n02504013_19831.png,n02504013_19831.png,1.0,6.1747465,0.116364226,4.2839236
convnext_large,1,409,NaN,bottle,bottle,bw,0409_cl_dnn_bw_bottle_40_n03937543_5088.png,n03937543_5088.png,1.0,1.1686699,0.53103733,0.45087436
convnext_large,1,410,NaN,elephant,elephant,cr,0410_cl_dnn_cr_elephant_40_n02504458_2190.png,n02504458_2190.png,1.0,7.3552203,0.50196254,4.845985
convnext_large,1,411,NaN,car,car,bw,0411_cl_dnn_bw_car_40_n04285008_5997.png,n04285008_5997.png,1.0,4.1049905,0.30206817,2.6890721
convnext_large,1,412,NaN,knife,knife,cr,0412_cl_dnn_cr_knife_40_n03041632_94620.png,n03041632_94620.png,1.0,8.175551,0.7626588,5.241707
convnext_large,1,413,NaN,bicycle,bicycle,cr,0413_cl_dnn_cr_bicycle_40_n02835271_8125.png,n02835271_8125.png,1.0,4.660258,0.70219374,2.798774
convnext_large,1,414,NaN,oven,oven,cr,0414_cl_dnn_cr_oven_40_n04111531_4662.png,n04111531_4662.png,1.0,8.871502,0.4465562,5.9573364
convnext_large,1,415,NaN,dog,dog,bw,0415_cl_dnn_bw_dog_40_n02110806_21755.png,n02110806_21755.png,1.0,2.0088859,0.3376166,1.1817659
convnext_large,1,416,NaN,bottle,bottle,bw,0416_cl_dnn_bw_bottle_40_n02823428_3505.png,n02823428_3505.png,1.0,2.8840163,1.0813421,1.2746831
convnext_large,1,417,NaN,cat,cat,cr,0417_cl_dnn_cr_cat_40_n02123045_11472.png,n02123045_11472.png,1.0,4.1072283,0.48849028,2.558834
convnext_large,1,418,NaN,boat,boat,cr,0418_cl_dnn_cr_boat_40_n03662601_14818.png,n03662601_14818.png,1.0,2.706643,0.268381,1.7241116
convnext_large,1,419,NaN,bicycle,bicycle,cr,0419_cl_dnn_cr_bicycle_40_n02835271_8322.png,n02835271_8322.png,1.0,5.1551967,0.587373,3.229939
convnext_large,1,420,NaN,knife,knife,bw,0420_cl_dnn_bw_knife_40_n03041632_9580.png,n03041632_9580.png,1.0,7.995692,0.67774355,5.174571
convnext_large,1,421,NaN,knife,dog,bw,0421_cl_dnn_bw_dog_40_n02088466_3052.png,n02088466_3052.png,0.0,0.80958533,0.8107142,-0.0007982192
convnext_large,1,422,NaN,keyboard,keyboard,cr,0422_cl_dnn_cr_keyboard_40_n04505470_7161.png,n04505470_7161.png,1.0,5.652178,0.6521629,3.5355444
convnext_large,1,423,NaN,keyboard,keyboard,cr,0423_cl_dnn_cr_keyboard_40_n04505470_2321.png,n04505470_2321.png,1.0,5.424605,0.5691827,3.433302
convnext_large,1,424,NaN,knife,knife,cr,0424_cl_dnn_cr_knife_40_n03041632_6708.png,n03041632_6708.png,1.0,9.071337,0.8478415,5.8148894
convnext_large,1,425,NaN,keyboard,keyboard,bw,0425_cl_dnn_bw_keyboard_40_n04505470_4965.png,n04505470_4965.png,1.0,5.2961745,0.48145854,3.4045184
convnext_large,1,426,NaN,cat,cat,bw,0426_cl_dnn_bw_cat_40_n02123597_11981.png,n02123597_11981.png,1.0,2.588668,0.5916941,1.4120739
convnext_large,1,427,NaN,truck,truck,cr,0427_cl_dnn_cr_truck_40_n03417042_2778.png,n03417042_2778.png,1.0,1.856485,0.5848902,0.8991533
convnext_large,1,428,NaN,car,car,cr,0428_cl_dnn_cr_car_40_n02814533_80049.png,n02814533_80049.png,1.0,3.4137352,1.5083745,1.3472935
convnext_large,1,429,NaN,keyboard,keyboard,cr,0429_cl_dnn_cr_keyboard_40_n03085013_23561.png,n03085013_23561.png,1.0,6.0346937,0.8821543,3.6433954
convnext_large,1,430,NaN,airplane,airplane,bw,0430_cl_dnn_bw_airplane_40_n02690373_1800.png,n02690373_1800.png,1.0,9.187411,0.77503335,5.94845
convnext_large,1,431,NaN,chair,chair,bw,0431_cl_dnn_bw_chair_40_n02791124_4306.png,n02791124_4306.png,1.0,2.4194155,0.43516698,1.4030756
convnext_large,1,432,NaN,knife,knife,bw,0432_cl_dnn_bw_knife_40_n03041632_33424.png,n03041632_33424.png,1.0,5.1963854,1.0725931,2.9159615
convnext_large,1,433,NaN,boat,boat,cr,0433_cl_dnn_cr_boat_40_n04273569_111.png,n04273569_111.png,1.0,2.5170362,0.56975704,1.3769344
convnext_large,1,434,NaN,bear,bear,bw,0434_cl_dnn_bw_bear_40_n02132136_4403.png,n02132136_4403.png,1.0,4.4075093,0.38706994,2.8428798
convnext_large,1,435,NaN,bicycle,bicycle,bw,0435_cl_dnn_bw_bicycle_40_n03792782_49707.png,n03792782_49707.png,1.0,5.9243937,0.22768329,4.028183
convnext_large,1,436,NaN,bicycle,bicycle,cr,0436_cl_dnn_cr_bicycle_40_n02835271_3308.png,n02835271_3308.png,1.0,5.8229704,0.44852698,3.8003056
convnext_large,1,437,NaN,clock,clock,bw,0437_cl_dnn_bw_clock_40_n04548280_3305.png,n04548280_3305.png,1.0,4.044136,1.5654479,1.7526973
convnext_large,1,438,NaN,boat,boat,bw,0438_cl_dnn_bw_boat_40_n03344393_7614.png,n03344393_7614.png,1.0,2.632517,0.98061955,1.1680679
convnext_large,1,439,NaN,bicycle,bicycle,bw,0439_cl_dnn_bw_bicycle_40_n02835271_9434.png,n02835271_9434.png,1.0,3.7668865,0.9630693,1.9825982
convnext_large,1,440,NaN,truck,truck,bw,0440_cl_dnn_bw_truck_40_n03417042_3039.png,n03417042_3039.png,1.0,2.5546296,0.9154038,1.1591077
convnext_large,1,441,NaN,oven,oven,cr,0441_cl_dnn_cr_oven_40_n04111531_5519.png,n04111531_5519.png,1.0,8.724925,0.30094945,5.9566507
convnext_large,1,442,NaN,bottle,bottle,cr,0442_cl_dnn_cr_bottle_40_n03983396_3702.png,n03983396_3702.png,1.0,2.9669232,1.1866367,1.2588527
convnext_large,1,443,NaN,clock,clock,cr,0443_cl_dnn_cr_clock_40_n04548280_2177.png,n04548280_2177.png,1.0,4.569952,0.72436225,2.7192426
convnext_large,1,444,NaN,bottle,bottle,cr,0444_cl_dnn_cr_bottle_40_n03983396_4132.png,n03983396_4132.png,1.0,2.7945855,0.36415967,1.7185707
convnext_large,1,445,NaN,bicycle,bicycle,cr,0445_cl_dnn_cr_bicycle_40_n02835271_17509.png,n02835271_17509.png,1.0,5.915208,0.40897357,3.8934956
convnext_large,1,446,NaN,airplane,airplane,bw,0446_cl_dnn_bw_airplane_40_n02690373_3090.png,n02690373_3090.png,1.0,8.758039,0.7017223,5.6966767
convnext_large,1,447,NaN,chair,chair,cr,0447_cl_dnn_cr_chair_40_n03376595_1302.png,n03376595_1302.png,1.0,2.7405815,0.2284151,1.77637
convnext_large,1,448,NaN,knife,dog,cr,0448_cl_dnn_cr_dog_40_n02107683_3640.png,n02107683_3640.png,0.0,0.3176121,0.5790584,-0.18487045
convnext_large,1,449,NaN,car,car,cr,0449_cl_dnn_cr_car_40_n03100240_770.png,n03100240_770.png,1.0,5.6155205,1.0724106,3.2124639
convnext_large,1,450,NaN,knife,knife,cr,0450_cl_dnn_cr_knife_40_n03041632_4305.png,n03041632_4305.png,1.0,9.013233,0.18447456,6.242875
convnext_large,1,451,NaN,elephant,elephant,cr,0451_cl_dnn_cr_elephant_40_n02504013_4590.png,n02504013_4590.png,1.0,6.9630537,0.2631696,4.7375336
convnext_large,1,452,NaN,truck,truck,cr,0452_cl_dnn_cr_truck_40_n03417042_5752.png,n03417042_5752.png,1.0,2.1130605,0.31385234,1.2722323
convnext_large,1,453,NaN,oven,oven,cr,0453_cl_dnn_cr_oven_40_n04111531_21931.png,n04111531_21931.png,1.0,8.624772,0.4565936,5.7757745
convnext_large,1,454,NaN,elephant,elephant,bw,0454_cl_dnn_bw_elephant_40_n02504458_4711.png,n02504458_4711.png,1.0,6.0337515,0.5151615,3.9022324
convnext_large,1,455,NaN,clock,clock,bw,0455_cl_dnn_bw_clock_40_n02708093_8033.png,n02708093_8033.png,1.0,4.9210954,0.65479803,3.016728
convnext_large,1,456,NaN,bicycle,bicycle,bw,0456_cl_dnn_bw_bicycle_40_n03792782_41992.png,n03792782_41992.png,1.0,6.715111,0.42606854,4.447025
convnext_large,1,457,NaN,keyboard,keyboard,cr,0457_cl_dnn_cr_keyboard_40_n03085013_5622.png,n03085013_5622.png,1.0,6.806202,0.24937356,4.636378
convnext_large,1,458,NaN,bird,bird,bw,0458_cl_dnn_bw_bird_40_n02009912_1919.png,n02009912_1919.png,1.0,0.33120596,0.25609785,0.053109456
convnext_large,1,459,NaN,bottle,bottle,cr,0459_cl_dnn_cr_bottle_40_n03937543_4202.png,n03937543_4202.png,1.0,1.2028672,0.57782626,0.44197065
convnext_large,1,460,NaN,bicycle,bicycle,bw,0460_cl_dnn_bw_bicycle_40_n02835271_4341.png,n02835271_4341.png,1.0,4.6581063,0.28601864,3.0915327
convnext_large,1,461,NaN,bear,bear,bw,0461_cl_dnn_bw_bear_40_n02132136_18543.png,n02132136_18543.png,1.0,4.693725,1.0849575,2.551784
convnext_large,1,462,NaN,cat,cat,bw,0462_cl_dnn_bw_cat_40_n02124075_14425.png,n02124075_14425.png,1.0,2.9861453,0.43580258,1.8033645
convnext_large,1,463,NaN,clock,clock,bw,0463_cl_dnn_bw_clock_40_n02708093_544.png,n02708093_544.png,1.0,5.3918095,0.46329182,3.4849885
convnext_large,1,464,NaN,bear,bear,cr,0464_cl_dnn_cr_bear_40_n02133161_7604.png,n02133161_7604.png,1.0,4.3645983,0.765272,2.5451078
convnext_large,1,465,NaN,car,car,bw,0465_cl_dnn_bw_car_40_n03100240_15407.png,n03100240_15407.png,1.0,7.013624,0.7132114,4.455065
convnext_large,1,466,NaN,bicycle,bicycle,bw,0466_cl_dnn_bw_bicycle_40_n02835271_12926.png,n02835271_12926.png,1.0,5.318343,0.27749667,3.5644166
convnext_large,1,467,NaN,chair,chair,cr,0467_cl_dnn_cr_chair_40_n03376595_2056.png,n03376595_2056.png,1.0,2.2673464,1.4950054,0.54612756
convnext_large,1,468,NaN,oven,oven,bw,0468_cl_dnn_bw_oven_40_n04111531_9762.png,n04111531_9762.png,1.0,7.4386344,0.44506893,4.9451976
convnext_large,1,469,NaN,bicycle,bicycle,bw,0469_cl_dnn_bw_bicycle_40_n03792782_25799.png,n03792782_25799.png,1.0,7.2237325,0.38561207,4.8352814
convnext_large,1,470,NaN,oven,oven,cr,0470_cl_dnn_cr_oven_40_n04111531_3570.png,n04111531_3570.png,1.0,8.63496,0.52319366,5.7358856
convnext_large,1,471,NaN,car,car,cr,0471_cl_dnn_cr_car_40_n04285008_874.png,n04285008_874.png,1.0,4.4627843,0.45207402,2.8360004
convnext_large,1,472,NaN,bottle,bottle,cr,0472_cl_dnn_cr_bottle_40_n04557648_364.png,n04557648_364.png,1.0,1.9120665,1.0061753,0.6405618
convnext_large,1,473,NaN,airplane,airplane,bw,0473_cl_dnn_bw_airplane_40_n02690373_8461.png,n02690373_8461.png,1.0,8.872109,0.23088536,6.110268
convnext_large,1,474,NaN,boat,boat,cr,0474_cl_dnn_cr_boat_40_n04273569_1087.png,n04273569_1087.png,1.0,3.069078,0.5587768,1.775051
convnext_large,1,475,NaN,chair,chair,cr,0475_cl_dnn_cr_chair_40_n03376595_1798.png,n03376595_1798.png,1.0,1.9087781,0.20727134,1.2031469
convnext_large,1,476,NaN,oven,oven,cr,0476_cl_dnn_cr_oven_40_n04111531_5290.png,n04111531_5290.png,1.0,8.8631115,0.20903452,6.119356
convnext_large,1,477,NaN,cat,cat,bw,0477_cl_dnn_bw_cat_40_n02124075_12369.png,n02124075_12369.png,1.0,4.794024,0.7833088,2.8360038
convnext_large,1,478,NaN,elephant,elephant,bw,0478_cl_dnn_bw_elephant_40_n02504458_3714.png,n02504458_3714.png,1.0,6.950577,0.39737165,4.633816
convnext_large,1,479,NaN,bicycle,bicycle,bw,0479_cl_dnn_bw_bicycle_40_n03792782_7388.png,n03792782_7388.png,1.0,2.9767678,0.8860088,1.47839
convnext_large,1,480,NaN,truck,truck,cr,0480_cl_dnn_cr_truck_40_n03796401_18240.png,n03796401_18240.png,1.0,2.0001502,0.42472425,1.1139944
convnext_large,1,481,NaN,airplane,airplane,cr,0481_cl_dnn_cr_airplane_40_n02690373_610.png,n02690373_610.png,1.0,8.466452,0.47550568,5.650452
convnext_large,1,482,NaN,airplane,airplane,bw,0482_cl_dnn_bw_airplane_40_n02690373_6046.png,n02690373_6046.png,1.0,8.590485,0.5755197,5.667436
convnext_large,1,483,NaN,airplane,dog,cr,0483_cl_dnn_cr_dog_40_n02105505_4069.png,n02105505_4069.png,0.0,0.283418,0.32774344,-0.03134282
convnext_large,1,484,NaN,chair,chair,bw,0484_cl_dnn_bw_chair_40_n04429376_1954.png,n04429376_1954.png,1.0,2.4305885,0.66641116,1.2474618
convnext_large,1,485,NaN,oven,oven,bw,0485_cl_dnn_bw_oven_40_n04111531_7862.png,n04111531_7862.png,1.0,9.448427,1.0146574,5.9635763
convnext_large,1,486,NaN,chair,chair,cr,0486_cl_dnn_cr_chair_40_n02791124_7424.png,n02791124_7424.png,1.0,3.092313,0.6597029,1.7201151
convnext_large,1,487,NaN,airplane,dog,bw,0487_cl_dnn_bw_dog_40_n02088466_5521.png,n02088466_5521.png,0.0,0.0864327,0.44820717,-0.25581318
convnext_large,1,488,NaN,bear,bear,cr,0488_cl_dnn_cr_bear_40_n02133161_12868.png,n02133161_12868.png,1.0,4.1533794,0.7106837,2.4343534
convnext_large,1,489,NaN,keyboard,keyboard,bw,0489_cl_dnn_bw_keyboard_40_n04505470_4107.png,n04505470_4107.png,1.0,5.4351034,0.6368772,3.3928585
convnext_large,1,490,NaN,boat,boat,bw,0490_cl_dnn_bw_boat_40_n03662601_855.png,n03662601_855.png,1.0,3.4020467,0.41727266,2.110554
convnext_large,1,491,NaN,bird,bird,cr,0491_cl_dnn_cr_bird_40_n02017213_7558.png,n02017213_7558.png,1.0,0.32215238,0.2694523,0.037264578
convnext_large,1,492,NaN,bottle,bottle,bw,0492_cl_dnn_bw_bottle_40_n04557648_23801.png,n04557648_23801.png,1.0,3.2260764,0.79009205,1.722501
convnext_large,1,493,NaN,bird,bird,bw,0493_cl_dnn_bw_bird_40_n01601694_13054.png,n01601694_13054.png,1.0,0.24959728,0.21081159,0.02742563
convnext_large,1,494,NaN,oven,oven,bw,0494_cl_dnn_bw_oven_40_n04111531_2207.png,n04111531_2207.png,1.0,8.524918,0.31425563,5.8058147
convnext_large,1,495,NaN,bird,bird,bw,0495_cl_dnn_bw_bird_40_n02009912_9425.png,n02009912_9425.png,1.0,0.41368827,0.14749621,0.18822622
convnext_large,1,496,NaN,clock,clock,cr,0496_cl_dnn_cr_clock_40_n03196217_6193.png,n03196217_6193.png,1.0,4.7392697,0.0842811,3.2915742
convnext_large,1,497,NaN,boat,boat,bw,0497_cl_dnn_bw_boat_40_n04273569_27625.png,n04273569_27625.png,1.0,2.099452,0.77646893,0.9354903
convnext_large,1,498,NaN,truck,truck,bw,0498_cl_dnn_bw_truck_40_n03417042_29855.png,n03417042_29855.png,1.0,4.4871454,1.0062939,2.4613338
convnext_large,1,499,NaN,bottle,bottle,cr,0499_cl_dnn_cr_bottle_40_n03983396_4212.png,n03983396_4212.png,1.0,1.9047925,0.5449488,0.96155477
convnext_large,1,500,NaN,cat,cat,bw,0500_cl_dnn_bw_cat_40_n02123597_11613.png,n02123597_11613.png,1.0,3.5891361,0.44254273,2.2249775
convnext_large,1,501,NaN,clock,clock,cr,0501_cl_dnn_cr_clock_40_n02708093_1559.png,n02708093_1559.png,1.0,5.312653,0.43366334,3.4499667
convnext_large,1,502,NaN,chair,chair,cr,0502_cl_dnn_cr_chair_40_n02791124_7031.png,n02791124_7031.png,1.0,3.4898798,0.46862116,2.1363525
convnext_large,1,503,NaN,bottle,bottle,cr,0503_cl_dnn_cr_bottle_40_n04560804_1703.png,n04560804_1703.png,1.0,2.4558928,0.1319192,1.6432976
convnext_large,1,504,NaN,bicycle,bottle,bw,0504_cl_dnn_bw_bottle_40_n04560804_15679.png,n04560804_15679.png,0.0,2.4134696,2.9351306,-0.36887008
convnext_large,1,505,NaN,bottle,bottle,bw,0505_cl_dnn_bw_bottle_40_n03983396_1006.png,n03983396_1006.png,1.0,2.5862625,0.2752945,1.6341012
convnext_large,1,506,NaN,knife,knife,bw,0506_cl_dnn_bw_knife_40_n03041632_100645.png,n03041632_100645.png,1.0,7.680117,0.49044168,5.0838685
convnext_large,1,507,NaN,car,car,cr,0507_cl_dnn_cr_car_40_n02814533_54845.png,n02814533_54845.png,1.0,3.469905,0.9341877,1.7930229
convnext_large,1,508,NaN,keyboard,keyboard,cr,0508_cl_dnn_cr_keyboard_40_n03085013_20078.png,n03085013_20078.png,1.0,5.9512615,0.89259064,3.5770206
convnext_large,1,509,NaN,chair,chair,cr,0509_cl_dnn_cr_chair_40_n04099969_4543.png,n04099969_4543.png,1.0,3.0419827,0.49144682,1.8035012
convnext_large,1,510,NaN,bear,bear,cr,0510_cl_dnn_cr_bear_40_n02134418_1253.png,n02134418_1253.png,1.0,2.822771,0.3466901,1.7508537
convnext_large,1,511,NaN,bicycle,bicycle,bw,0511_cl_dnn_bw_bicycle_40_n02835271_8137.png,n02835271_8137.png,1.0,5.9190054,0.3777467,3.9182618
convnext_large,1,512,NaN,keyboard,keyboard,bw,0512_cl_dnn_bw_keyboard_40_n04505470_7312.png,n04505470_7312.png,1.0,5.7227197,0.8964847,3.4126635
convnext_large,1,513,NaN,elephant,elephant,cr,0513_cl_dnn_cr_elephant_40_n02504013_2460.png,n02504013_2460.png,1.0,5.9884624,0.62522066,3.7923846
convnext_large,1,514,NaN,clock,clock,cr,0514_cl_dnn_cr_clock_40_n04548280_13469.png,n04548280_13469.png,1.0,4.4679804,0.4591285,2.8346865
convnext_large,1,515,NaN,chair,chair,cr,0515_cl_dnn_cr_chair_40_n02791124_3161.png,n02791124_3161.png,1.0,2.9318469,0.4836078,1.7311665
convnext_large,1,516,NaN,elephant,dog,cr,0516_cl_dnn_cr_dog_40_n02093647_1818.png,n02093647_1818.png,0.0,0.25698164,0.4941821,-0.16772607
convnext_large,1,517,NaN,chair,chair,cr,0517_cl_dnn_cr_chair_40_n02791124_4294.png,n02791124_4294.png,1.0,3.1628723,0.80992067,1.663788
convnext_large,1,518,NaN,cat,cat,cr,0518_cl_dnn_cr_cat_40_n02124075_3533.png,n02124075_3533.png,1.0,4.103962,0.5749933,2.4953578
convnext_large,1,519,NaN,boat,boat,cr,0519_cl_dnn_cr_boat_40_n03344393_2480.png,n03344393_2480.png,1.0,2.2008624,0.78599733,1.0004606
convnext_large,1,520,NaN,car,car,bw,0520_cl_dnn_bw_car_40_n02814533_95054.png,n02814533_95054.png,1.0,3.6431134,1.8955233,1.2357328
convnext_large,1,521,NaN,bottle,bottle,cr,0521_cl_dnn_cr_bottle_40_n03937543_1808.png,n03937543_1808.png,1.0,1.2395204,0.57340515,0.47101465
convnext_large,1,522,NaN,car,car,cr,0522_cl_dnn_cr_car_40_n02814533_72213.png,n02814533_72213.png,1.0,4.751949,0.7550983,2.8262002
convnext_large,1,523,NaN,clock,clock,cr,0523_cl_dnn_cr_clock_40_n03196217_1499.png,n03196217_1499.png,1.0,4.252107,1.1792929,2.172808
convnext_large,1,524,NaN,cat,cat,cr,0524_cl_dnn_cr_cat_40_n02123045_5300.png,n02123045_5300.png,1.0,4.473195,0.8099434,2.59031
convnext_large,1,525,NaN,bird,bird,bw,0525_cl_dnn_bw_bird_40_n02006656_3185.png,n02006656_3185.png,1.0,0.60511315,0.12789744,0.33744246
convnext_large,1,526,NaN,clock,clock,cr,0526_cl_dnn_cr_clock_40_n03196217_4541.png,n03196217_4541.png,1.0,3.8909342,0.5466304,2.36478
convnext_large,1,527,NaN,cat,cat,cr,0527_cl_dnn_cr_cat_40_n02123159_2317.png,n02123159_2317.png,1.0,4.4887166,0.5172546,2.8082478
convnext_large,1,528,NaN,bear,bear,cr,0528_cl_dnn_cr_bear_40_n02133161_1362.png,n02133161_1362.png,1.0,4.6262555,0.5164677,2.906059
convnext_large,1,529,NaN,clock,clock,bw,0529_cl_dnn_bw_clock_40_n04548280_1202.png,n04548280_1202.png,1.0,3.984335,0.3367379,2.5792406
convnext_large,1,530,NaN,oven,dog,bw,0530_cl_dnn_bw_dog_40_n02095570_6717.png,n02095570_6717.png,0.0,0.37010506,0.44451165,-0.052613407
convnext_large,1,531,NaN,car,car,bw,0531_cl_dnn_bw_car_40_n03100240_15941.png,n03100240_15941.png,1.0,5.464212,0.9876628,3.1653984
convnext_large,1,532,NaN,chair,chair,bw,0532_cl_dnn_bw_chair_40_n02791124_1443.png,n02791124_1443.png,1.0,2.6773124,0.5168719,1.5276622
convnext_large,1,533,NaN,bottle,bottle,cr,0533_cl_dnn_cr_bottle_40_n04557648_830.png,n04557648_830.png,1.0,2.377634,0.37614468,1.4152668
convnext_large,1,534,NaN,truck,truck,cr,0534_cl_dnn_cr_truck_40_n03417042_8298.png,n03417042_8298.png,1.0,2.3694313,0.6049446,1.2476805
convnext_large,1,535,NaN,clock,clock,bw,0535_cl_dnn_bw_clock_40_n02708093_4569.png,n02708093_4569.png,1.0,5.6291656,0.29573697,3.771304
convnext_large,1,536,NaN,keyboard,keyboard,cr,0536_cl_dnn_cr_keyboard_40_n03085013_7576.png,n03085013_7576.png,1.0,7.3550344,1.2327116,4.3291364
convnext_large,1,537,NaN,truck,truck,bw,0537_cl_dnn_bw_truck_40_n03417042_27093.png,n03417042_27093.png,1.0,2.4936132,0.38682133,1.4897269
convnext_large,1,538,NaN,elephant,elephant,cr,0538_cl_dnn_cr_elephant_40_n02504013_13560.png,n02504013_13560.png,1.0,5.896616,0.44609326,3.8541017
convnext_large,1,539,NaN,car,car,bw,0539_cl_dnn_bw_car_40_n04285008_12045.png,n04285008_12045.png,1.0,4.1829915,0.66679585,2.486326
convnext_large,1,540,NaN,airplane,airplane,cr,0540_cl_dnn_cr_airplane_40_n02690373_5176.png,n02690373_5176.png,1.0,8.363771,0.64778805,5.456024
convnext_large,1,541,NaN,bicycle,bicycle,bw,0541_cl_dnn_bw_bicycle_40_n03792782_6194.png,n03792782_6194.png,1.0,7.004945,0.33050585,4.719541
convnext_large,1,542,NaN,oven,oven,cr,0542_cl_dnn_cr_oven_40_n04111531_15912.png,n04111531_15912.png,1.0,7.7391696,0.79948235,4.9071
convnext_large,1,543,NaN,oven,oven,cr,0543_cl_dnn_cr_oven_40_n04111531_2592.png,n04111531_2592.png,1.0,7.8593345,0.55715203,5.1634226
convnext_large,1,544,NaN,clock,bird,cr,0544_cl_dnn_cr_bird_40_n02011460_2435.png,n02011460_2435.png,0.0,0.16597435,0.22757716,-0.04355977
convnext_large,1,545,NaN,car,car,cr,0545_cl_dnn_cr_car_40_n02814533_33205.png,n02814533_33205.png,1.0,4.0187707,1.2706332,1.9432267
convnext_large,1,546,NaN,oven,oven,bw,0546_cl_dnn_bw_oven_40_n04111531_14959.png,n04111531_14959.png,1.0,8.866263,0.43457723,5.962103
convnext_large,1,547,NaN,clock,clock,cr,0547_cl_dnn_cr_clock_40_n04548280_6743.png,n04548280_6743.png,1.0,5.652477,0.36744803,3.7370799
convnext_large,1,548,NaN,knife,knife,bw,0548_cl_dnn_bw_knife_40_n03041632_15299.png,n03041632_15299.png,1.0,6.159174,1.2098056,3.499732
convnext_large,1,549,NaN,clock,clock,bw,0549_cl_dnn_bw_clock_40_n03196217_127.png,n03196217_127.png,1.0,4.6033044,0.4746508,2.919399
convnext_large,1,550,NaN,boat,boat,bw,0550_cl_dnn_bw_boat_40_n04273569_12917.png,n04273569_12917.png,1.0,2.8636174,1.5687371,0.91561866
convnext_large,1,551,NaN,airplane,airplane,cr,0551_cl_dnn_cr_airplane_40_n02690373_9626.png,n02690373_9626.png,1.0,8.843491,0.5849354,5.8396807
convnext_large,1,552,NaN,bear,bear,cr,0552_cl_dnn_cr_bear_40_n02134084_20500.png,n02134084_20500.png,1.0,2.4747365,0.29262155,1.5429882
convnext_large,1,553,NaN,elephant,bear,bw,0553_cl_dnn_bw_bear_40_n02132136_6890.png,n02132136_6890.png,0.0,2.9741998,5.482876,-1.7739018
convnext_large,1,554,NaN,bottle,bottle,bw,0554_cl_dnn_bw_bottle_40_n02823428_3049.png,n02823428_3049.png,1.0,2.6396065,1.1254022,1.0707041
convnext_large,1,555,NaN,keyboard,keyboard,cr,0555_cl_dnn_cr_keyboard_40_n03085013_22837.png,n03085013_22837.png,1.0,3.1680946,2.356062,0.57419384
convnext_large,1,556,NaN,keyboard,keyboard,bw,0556_cl_dnn_bw_keyboard_40_n03085013_3264.png,n03085013_3264.png,1.0,7.3598266,1.0662804,4.450209
convnext_large,1,557,NaN,bear,bear,bw,0557_cl_dnn_bw_bear_40_n02134418_7795.png,n02134418_7795.png,1.0,3.1268334,0.275869,2.0159364
convnext_large,1,558,NaN,boat,boat,bw,0558_cl_dnn_bw_boat_40_n02951358_34163.png,n02951358_34163.png,1.0,3.233046,0.6086081,1.8557578
convnext_large,1,559,NaN,bear,bear,cr,0559_cl_dnn_cr_bear_40_n02132136_8637.png,n02132136_8637.png,1.0,3.8325968,0.6354785,2.260704
convnext_large,1,560,NaN,truck,truck,cr,0560_cl_dnn_cr_truck_40_n03417042_4218.png,n03417042_4218.png,1.0,1.8292612,0.21398515,1.1421727
convnext_large,1,561,NaN,clock,clock,bw,0561_cl_dnn_bw_clock_40_n04548280_4473.png,n04548280_4473.png,1.0,4.4408712,1.3905396,2.1569102
convnext_large,1,562,NaN,bear,bear,bw,0562_cl_dnn_bw_bear_40_n02132136_21799.png,n02132136_21799.png,1.0,3.9415843,0.45734537,2.4637291
convnext_large,1,563,NaN,bird,bird,cr,0563_cl_dnn_cr_bird_40_n01531178_5780.png,n01531178_5780.png,1.0,0.67469513,0.48245245,0.13593611
convnext_large,1,564,NaN,truck,truck,cr,0564_cl_dnn_cr_truck_40_n03796401_27184.png,n03796401_27184.png,1.0,2.52599,0.42841214,1.4832115
convnext_large,1,565,NaN,clock,clock,bw,0565_cl_dnn_bw_clock_40_n03196217_5258.png,n03196217_5258.png,1.0,4.338095,0.24042001,2.897494
convnext_large,1,566,NaN,airplane,bird,cr,0566_cl_dnn_cr_bird_40_n02002556_15337.png,n02002556_15337.png,0.0,-0.016268149,1.3855324,-0.9912227
convnext_large,1,567,NaN,bottle,bottle,cr,0567_cl_dnn_cr_bottle_40_n04560804_3683.png,n04560804_3683.png,1.0,2.723324,0.4012231,1.6419733
convnext_large,1,568,NaN,bicycle,bicycle,cr,0568_cl_dnn_cr_bicycle_40_n02835271_8511.png,n02835271_8511.png,1.0,5.0927796,0.5086257,3.2414865
convnext_large,1,569,NaN,bear,bear,cr,0569_cl_dnn_cr_bear_40_n02134084_23974.png,n02134084_23974.png,1.0,2.3302526,0.683212,1.1646336
convnext_large,1,570,NaN,dog,dog,bw,0570_cl_dnn_bw_dog_40_n02091244_9271.png,n02091244_9271.png,1.0,0.37544858,0.2036152,0.12150455
convnext_large,1,571,NaN,bear,bear,cr,0571_cl_dnn_cr_bear_40_n02133161_6946.png,n02133161_6946.png,1.0,2.9388638,2.0982804,0.59438217
convnext_large,1,572,NaN,truck,truck,bw,0572_cl_dnn_bw_truck_40_n04467665_10060.png,n04467665_10060.png,1.0,2.2017283,0.5334351,1.1796615
convnext_large,1,573,NaN,oven,oven,bw,0573_cl_dnn_bw_oven_40_n04111531_5328.png,n04111531_5328.png,1.0,8.586496,0.28193814,5.872209
convnext_large,1,574,NaN,bottle,bottle,cr,0574_cl_dnn_cr_bottle_40_n04560804_2005.png,n04560804_2005.png,1.0,2.4297676,0.5293027,1.3438317
convnext_large,1,575,NaN,bear,bear,bw,0575_cl_dnn_bw_bear_40_n02134084_3695.png,n02134084_3695.png,1.0,2.2701983,0.39879742,1.3232803
convnext_large,1,576,NaN,cat,cat,bw,0576_cl_dnn_bw_cat_40_n02123597_2219.png,n02123597_2219.png,1.0,2.279237,0.4170177,1.316788
convnext_large,1,577,NaN,chair,chair,bw,0577_cl_dnn_bw_chair_40_n02791124_6077.png,n02791124_6077.png,1.0,3.2134256,0.21206355,2.1222835
convnext_large,1,578,NaN,bottle,bottle,cr,0578_cl_dnn_cr_bottle_40_n04579145_7431.png,n04579145_7431.png,1.0,1.5454246,0.46634012,0.7630279
convnext_large,1,579,NaN,keyboard,keyboard,bw,0579_cl_dnn_bw_keyboard_40_n04505470_510.png,n04505470_510.png,1.0,5.2691116,0.5784768,3.3167796
convnext_large,1,580,NaN,oven,oven,cr,0580_cl_dnn_cr_oven_40_n04111531_4452.png,n04111531_4452.png,1.0,8.648137,0.5212903,5.746548
convnext_large,1,581,NaN,elephant,elephant,bw,0581_cl_dnn_bw_elephant_40_n02504013_237.png,n02504013_237.png,1.0,7.387352,0.2715307,5.031646
convnext_large,1,582,NaN,elephant,elephant,cr,0582_cl_dnn_cr_elephant_40_n02504013_10351.png,n02504013_10351.png,1.0,5.9954925,0.21930075,4.0843844
convnext_large,1,583,NaN,elephant,elephant,cr,0583_cl_dnn_cr_elephant_40_n02504458_1304.png,n02504458_1304.png,1.0,5.808979,0.4345316,3.8003082
convnext_large,1,584,NaN,bicycle,dog,bw,0584_cl_dnn_bw_dog_40_n02104365_9837.png,n02104365_9837.png,0.0,0.025216421,0.3929744,-0.26004416
convnext_large,1,585,NaN,cat,cat,cr,0585_cl_dnn_cr_cat_40_n02123045_9661.png,n02123045_9661.png,1.0,3.8120687,1.0288653,1.968022
convnext_large,1,586,NaN,bottle,bottle,bw,0586_cl_dnn_bw_bottle_40_n02823428_5214.png,n02823428_5214.png,1.0,3.2950006,1.1642928,1.5066379
convnext_large,1,587,NaN,airplane,bird,bw,0587_cl_dnn_bw_bird_40_n01828970_5448.png,n01828970_5448.png,0.0,0.43788657,0.7693824,-0.23440297
convnext_large,1,588,NaN,car,car,cr,0588_cl_dnn_cr_car_40_n02814533_83874.png,n02814533_83874.png,1.0,5.5193257,1.8915834,2.5652013
convnext_large,1,589,NaN,oven,oven,bw,0589_cl_dnn_bw_oven_40_n04111531_8036.png,n04111531_8036.png,1.0,8.628328,0.6304842,5.65533
convnext_large,1,590,NaN,oven,oven,cr,0590_cl_dnn_cr_oven_40_n04111531_7355.png,n04111531_7355.png,1.0,7.9518595,1.1195494,4.831173
convnext_large,1,591,NaN,car,car,bw,0591_cl_dnn_bw_car_40_n04285008_13354.png,n04285008_13354.png,1.0,6.2734857,0.9820014,3.7416446
convnext_large,1,592,NaN,clock,clock,cr,0592_cl_dnn_cr_clock_40_n02708093_8267.png,n02708093_8267.png,1.0,5.072355,0.17260168,3.4646487
convnext_large,1,593,NaN,cat,cat,bw,0593_cl_dnn_bw_cat_40_n02124075_14242.png,n02124075_14242.png,1.0,4.261037,0.33964205,2.772845
convnext_large,1,594,NaN,knife,knife,cr,0594_cl_dnn_cr_knife_40_n03041632_4279.png,n03041632_4279.png,1.0,5.8211083,0.12084129,4.0306973
convnext_large,1,595,NaN,oven,oven,cr,0595_cl_dnn_cr_oven_40_n04111531_2296.png,n04111531_2296.png,1.0,8.497641,0.2528999,5.829912
convnext_large,1,596,NaN,boat,boat,cr,0596_cl_dnn_cr_boat_40_n03344393_5859.png,n03344393_5859.png,1.0,2.4443202,0.7920165,1.1683552
convnext_large,1,597,NaN,car,car,cr,0597_cl_dnn_cr_car_40_n02814533_57176.png,n02814533_57176.png,1.0,2.9803388,1.9278499,0.74422204
convnext_large,1,598,NaN,cat,cat,bw,0598_cl_dnn_bw_cat_40_n02123159_1769.png,n02123159_1769.png,1.0,4.2147975,0.28388697,2.7795737
convnext_large,1,599,NaN,clock,clock,cr,0599_cl_dnn_cr_clock_40_n02708093_4976.png,n02708093_4976.png,1.0,5.3798575,0.3927165,3.5264413
convnext_large,1,600,NaN,truck,truck,cr,0600_cl_dnn_cr_truck_40_n03796401_8864.png,n03796401_8864.png,1.0,2.7507038,0.9887021,1.2459234
convnext_large,1,601,NaN,clock,clock,bw,0601_cl_dnn_bw_clock_40_n03196217_868.png,n03196217_868.png,1.0,5.0464883,0.6476046,3.1104805
convnext_large,1,602,NaN,keyboard,keyboard,bw,0602_cl_dnn_bw_keyboard_40_n03085013_3910.png,n03085013_3910.png,1.0,6.5961294,2.4097054,2.960249
convnext_large,1,603,NaN,bicycle,bicycle,cr,0603_cl_dnn_cr_bicycle_40_n03792782_5466.png,n03792782_5466.png,1.0,5.606347,0.23227212,3.800045
convnext_large,1,604,NaN,bear,bear,bw,0604_cl_dnn_bw_bear_40_n02132136_23248.png,n02132136_23248.png,1.0,5.9902573,0.66788685,3.7634842
convnext_large,1,605,NaN,truck,truck,bw,0605_cl_dnn_bw_truck_40_n03417042_2794.png,n03417042_2794.png,1.0,1.4835863,0.2585623,0.8662228
convnext_large,1,606,NaN,chair,chair,bw,0606_cl_dnn_bw_chair_40_n02791124_7324.png,n02791124_7324.png,1.0,3.1243017,0.26183635,2.0240688
convnext_large,1,607,NaN,bicycle,bicycle,bw,0607_cl_dnn_bw_bicycle_40_n02835271_6736.png,n02835271_6736.png,1.0,6.0284758,0.41656187,3.9682224
convnext_large,1,608,NaN,clock,clock,bw,0608_cl_dnn_bw_clock_40_n04548280_8990.png,n04548280_8990.png,1.0,5.8446746,0.754171,3.5995297
convnext_large,1,609,NaN,airplane,airplane,bw,0609_cl_dnn_bw_airplane_40_n02690373_971.png,n02690373_971.png,1.0,9.012814,0.5502763,5.9839177
convnext_large,1,610,NaN,bear,bear,bw,0610_cl_dnn_bw_bear_40_n02132136_23853.png,n02132136_23853.png,1.0,4.1416864,0.5063377,2.5705798
convnext_large,1,611,NaN,clock,clock,cr,0611_cl_dnn_cr_clock_40_n03196217_3416.png,n03196217_3416.png,1.0,4.5256023,0.544687,2.8149323
convnext_large,1,612,NaN,clock,clock,bw,0612_cl_dnn_bw_clock_40_n04548280_4346.png,n04548280_4346.png,1.0,4.3650002,1.3792834,2.1112206
convnext_large,1,613,NaN,oven,oven,cr,0613_cl_dnn_cr_oven_40_n04111531_2342.png,n04111531_2342.png,1.0,9.135168,0.30625194,6.2429867
convnext_large,1,614,NaN,chair,chair,bw,0614_cl_dnn_bw_chair_40_n04099969_8509.png,n04099969_8509.png,1.0,3.2733703,0.45166215,1.995249
convnext_large,1,615,NaN,bottle,bottle,bw,0615_cl_dnn_bw_bottle_40_n03937543_4340.png,n03937543_4340.png,1.0,2.8070645,0.6268545,1.5416414
convnext_large,1,616,NaN,clock,clock,bw,0616_cl_dnn_bw_clock_40_n02708093_6655.png,n02708093_6655.png,1.0,2.2333825,1.6781693,0.39259502
convnext_large,1,617,NaN,cat,cat,cr,0617_cl_dnn_cr_cat_40_n02123159_1339.png,n02123159_1339.png,1.0,4.7883363,0.39344367,3.1076584
convnext_large,1,618,NaN,knife,knife,bw,0618_cl_dnn_bw_knife_40_n03041632_30553.png,n03041632_30553.png,1.0,8.063298,0.23303747,5.5368304
convnext_large,1,619,NaN,bicycle,bicycle,cr,0619_cl_dnn_cr_bicycle_40_n03792782_18707.png,n03792782_18707.png,1.0,6.9065866,0.9239297,4.230377
convnext_large,1,620,NaN,elephant,elephant,bw,0620_cl_dnn_bw_elephant_40_n02504458_3648.png,n02504458_3648.png,1.0,6.305909,0.4111764,4.1682057
convnext_large,1,621,NaN,elephant,elephant,cr,0621_cl_dnn_cr_elephant_40_n02504458_1179.png,n02504458_1179.png,1.0,6.9073296,0.31257048,4.663199
convnext_large,1,622,NaN,clock,clock,bw,0622_cl_dnn_bw_clock_40_n02708093_391.png,n02708093_391.png,1.0,5.5862465,1.3230324,3.0145476
convnext_large,1,623,NaN,car,car,cr,0623_cl_dnn_cr_car_40_n04285008_3453.png,n04285008_3453.png,1.0,4.3987317,1.4560595,2.0807836
convnext_large,1,624,NaN,airplane,airplane,bw,0624_cl_dnn_bw_airplane_40_n02690373_2800.png,n02690373_2800.png,1.0,8.515248,0.33442184,5.7847176
convnext_large,1,625,NaN,cat,cat,cr,0625_cl_dnn_cr_cat_40_n02123394_979.png,n02123394_979.png,1.0,1.9836084,0.3096814,1.1836451
convnext_large,1,626,NaN,airplane,dog,cr,0626_cl_dnn_cr_dog_40_n02105641_4701.png,n02105641_4701.png,0.0,0.1529802,0.36196765,-0.14777645
convnext_large,1,627,NaN,boat,boat,cr,0627_cl_dnn_cr_boat_40_n04273569_13641.png,n04273569_13641.png,1.0,2.6825678,0.9941032,1.1939248
convnext_large,1,628,NaN,car,car,cr,0628_cl_dnn_cr_car_40_n02814533_74825.png,n02814533_74825.png,1.0,3.7859602,1.0831177,1.9111983
convnext_large,1,629,NaN,airplane,airplane,cr,0629_cl_dnn_cr_airplane_40_n02690373_6812.png,n02690373_6812.png,1.0,8.332415,0.510853,5.5306797
convnext_large,1,630,NaN,car,car,bw,0630_cl_dnn_bw_car_40_n03100240_19223.png,n03100240_19223.png,1.0,5.682087,0.19778904,3.8779843
convnext_large,1,631,NaN,bottle,bottle,bw,0631_cl_dnn_bw_bottle_40_n03983396_3817.png,n03983396_3817.png,1.0,2.7073627,0.36768368,1.654403
convnext_large,1,632,NaN,elephant,elephant,bw,0632_cl_dnn_bw_elephant_40_n02504013_1432.png,n02504013_1432.png,1.0,5.7336893,0.49071336,3.707344
convnext_large,1,633,NaN,boat,boat,cr,0633_cl_dnn_cr_boat_40_n03662601_35008.png,n03662601_35008.png,1.0,2.5590503,1.0095613,1.0956542
convnext_large,1,634,NaN,oven,oven,bw,0634_cl_dnn_bw_oven_40_n04111531_14055.png,n04111531_14055.png,1.0,8.837899,0.5851394,5.8355827
convnext_large,1,635,NaN,airplane,airplane,bw,0635_cl_dnn_bw_airplane_40_n02690373_9812.png,n02690373_9812.png,1.0,8.438894,0.3314994,5.7327943
convnext_large,1,636,NaN,car,car,cr,0636_cl_dnn_cr_car_40_n04285008_6200.png,n04285008_6200.png,1.0,4.150936,0.72485936,2.4226022
convnext_large,1,637,NaN,clock,clock,cr,0637_cl_dnn_cr_clock_40_n04548280_5889.png,n04548280_5889.png,1.0,4.2731023,0.16437493,2.9053092
convnext_large,1,638,NaN,chair,chair,bw,0638_cl_dnn_bw_chair_40_n03376595_2924.png,n03376595_2924.png,1.0,2.9347227,0.43994984,1.7640709
convnext_large,1,639,NaN,airplane,airplane,bw,0639_cl_dnn_bw_airplane_40_n02690373_693.png,n02690373_693.png,1.0,8.718681,0.981641,5.470914
convnext_large,1,640,NaN,bicycle,bicycle,bw,0640_cl_dnn_bw_bicycle_40_n03792782_1778.png,n03792782_1778.png,1.0,6.6453457,0.56677425,4.298199
convnext_large,1,641,NaN,clock,clock,cr,0641_cl_dnn_cr_clock_40_n02708093_444.png,n02708093_444.png,1.0,5.5784125,0.87523067,3.3256516
convnext_large,1,642,NaN,clock,clock,cr,0642_cl_dnn_cr_clock_40_n02708093_3385.png,n02708093_3385.png,1.0,5.6018767,0.770682,3.4161708
convnext_large,1,643,NaN,clock,clock,cr,0643_cl_dnn_cr_clock_40_n03196217_970.png,n03196217_970.png,1.0,6.2687173,0.61606693,3.9970274
convnext_large,1,644,NaN,clock,clock,bw,0644_cl_dnn_bw_clock_40_n04548280_4839.png,n04548280_4839.png,1.0,5.304211,0.19163348,3.6151383
convnext_large,1,645,NaN,truck,truck,bw,0645_cl_dnn_bw_truck_40_n03796401_1853.png,n03796401_1853.png,1.0,2.393474,0.3852831,1.4200056
convnext_large,1,646,NaN,bottle,bottle,bw,0646_cl_dnn_bw_bottle_40_n04591713_2680.png,n04591713_2680.png,1.0,2.9557407,0.33406904,1.8538018
convnext_large,1,647,NaN,clock,clock,bw,0647_cl_dnn_bw_clock_40_n02708093_3691.png,n02708093_3691.png,1.0,5.5502357,0.48993492,3.5781732
convnext_large,1,648,NaN,cat,cat,bw,0648_cl_dnn_bw_cat_40_n02123045_12762.png,n02123045_12762.png,1.0,4.70883,0.5535705,2.938212
convnext_large,1,649,NaN,cat,cat,cr,0649_cl_dnn_cr_cat_40_n02124075_17464.png,n02124075_17464.png,1.0,3.653818,0.55786467,2.1891696
convnext_large,1,650,NaN,chair,chair,bw,0650_cl_dnn_bw_chair_40_n02791124_5690.png,n02791124_5690.png,1.0,2.036933,0.5760711,1.0329853
convnext_large,1,651,NaN,airplane,bird,bw,0651_cl_dnn_bw_bird_40_n01592084_5361.png,n01592084_5361.png,0.0,0.57550526,0.6490414,-0.051997915
convnext_large,1,652,NaN,truck,truck,cr,0652_cl_dnn_cr_truck_40_n04467665_34228.png,n04467665_34228.png,1.0,2.3954477,2.0913618,0.21502125
convnext_large,1,653,NaN,bear,bear,cr,0653_cl_dnn_cr_bear_40_n02133161_4282.png,n02133161_4282.png,1.0,5.2961707,0.30787918,3.527255
convnext_large,1,654,NaN,cat,cat,bw,0654_cl_dnn_bw_cat_40_n02125311_20219.png,n02125311_20219.png,1.0,3.401324,0.16506064,2.2883837
convnext_large,1,655,NaN,bicycle,bicycle,cr,0655_cl_dnn_cr_bicycle_40_n02835271_8502.png,n02835271_8502.png,1.0,4.351923,1.010332,2.3628616
convnext_large,1,656,NaN,dog,dog,bw,0656_cl_dnn_bw_dog_40_n02110958_5624.png,n02110958_5624.png,1.0,0.61821496,0.3473532,0.1915282
convnext_large,1,657,NaN,knife,knife,bw,0657_cl_dnn_bw_knife_40_n03041632_35365.png,n03041632_35365.png,1.0,8.312094,0.33295575,5.6421027
convnext_large,1,658,NaN,bear,bear,bw,0658_cl_dnn_bw_bear_40_n02134418_399.png,n02134418_399.png,1.0,3.8755658,0.36595622,2.4816687
convnext_large,1,659,NaN,bear,bear,cr,0659_cl_dnn_cr_bear_40_n02132136_4314.png,n02132136_4314.png,1.0,3.4296541,0.5311706,2.0495374
convnext_large,1,660,NaN,keyboard,keyboard,cr,0660_cl_dnn_cr_keyboard_40_n04505470_996.png,n04505470_996.png,1.0,5.5570707,0.49044362,3.5826464
convnext_large,1,661,NaN,airplane,airplane,cr,0661_cl_dnn_cr_airplane_40_n02690373_3313.png,n02690373_3313.png,1.0,8.476232,0.7464994,5.465746
convnext_large,1,662,NaN,knife,knife,bw,0662_cl_dnn_bw_knife_40_n03041632_9302.png,n03041632_9302.png,1.0,6.7814465,0.25679433,4.6136255
convnext_large,1,663,NaN,clock,clock,bw,0663_cl_dnn_bw_clock_40_n04548280_7211.png,n04548280_7211.png,1.0,5.1332297,0.40185237,3.3455892
convnext_large,1,664,NaN,bird,bird,cr,0664_cl_dnn_cr_bird_40_n01829413_122.png,n01829413_122.png,1.0,0.5551127,0.52924865,0.018288655
convnext_large,1,665,NaN,keyboard,keyboard,cr,0665_cl_dnn_cr_keyboard_40_n03085013_24001.png,n03085013_24001.png,1.0,7.05198,1.0372645,4.2530465
convnext_large,1,666,NaN,bottle,bottle,cr,0666_cl_dnn_cr_bottle_40_n03937543_3219.png,n03937543_3219.png,1.0,1.1922303,0.33458543,0.60644656
convnext_large,1,667,NaN,keyboard,keyboard,bw,0667_cl_dnn_bw_keyboard_40_n03085013_19916.png,n03085013_19916.png,1.0,4.191684,1.5071882,1.898225
convnext_large,1,668,NaN,cat,cat,cr,0668_cl_dnn_cr_cat_40_n02123159_6609.png,n02123159_6609.png,1.0,4.547917,0.62870634,2.7713003
convnext_large,1,669,NaN,cat,cat,bw,0669_cl_dnn_bw_cat_40_n02125311_17543.png,n02125311_17543.png,1.0,1.674728,0.21882758,1.0294771
convnext_large,1,670,NaN,bear,bear,bw,0670_cl_dnn_bw_bear_40_n02134418_1043.png,n02134418_1043.png,1.0,2.8976417,0.52418685,1.6782861
convnext_large,1,671,NaN,chair,chair,bw,0671_cl_dnn_bw_chair_40_n04099969_43.png,n04099969_43.png,1.0,2.703504,0.53942025,1.5302385
convnext_large,1,672,NaN,airplane,airplane,bw,0672_cl_dnn_bw_airplane_40_n02690373_1912.png,n02690373_1912.png,1.0,6.222768,0.8091959,3.8279734
convnext_large,1,673,NaN,bicycle,bicycle,cr,0673_cl_dnn_cr_bicycle_40_n02835271_1426.png,n02835271_1426.png,1.0,5.0054646,0.5826475,3.1274042
convnext_large,1,674,NaN,bicycle,bicycle,bw,0674_cl_dnn_bw_bicycle_40_n03792782_47426.png,n03792782_47426.png,1.0,7.39054,0.9399354,4.5612664
convnext_large,1,675,NaN,truck,truck,cr,0675_cl_dnn_cr_truck_40_n03417042_27404.png,n03417042_27404.png,1.0,3.3803647,0.31432548,2.1680171
convnext_large,1,676,NaN,clock,clock,cr,0676_cl_dnn_cr_clock_40_n04548280_4349.png,n04548280_4349.png,1.0,3.1541035,1.8994853,0.88714904
convnext_large,1,677,NaN,oven,oven,bw,0677_cl_dnn_bw_oven_40_n04111531_8193.png,n04111531_8193.png,1.0,9.053642,0.09171841,6.337037
convnext_large,1,678,NaN,boat,boat,bw,0678_cl_dnn_bw_boat_40_n03344393_11855.png,n03344393_11855.png,1.0,3.0109167,0.5165564,1.7637792
convnext_large,1,679,NaN,bottle,bottle,bw,0679_cl_dnn_bw_bottle_40_n02823428_6830.png,n02823428_6830.png,1.0,2.567693,0.86698496,1.2025822
convnext_large,1,680,NaN,bottle,bottle,bw,0680_cl_dnn_bw_bottle_40_n02823428_3298.png,n02823428_3298.png,1.0,2.597374,0.82044154,1.256481
convnext_large,1,681,NaN,oven,oven,bw,0681_cl_dnn_bw_oven_40_n04111531_615.png,n04111531_615.png,1.0,5.5671835,1.6544355,2.7667305
convnext_large,1,682,NaN,clock,clock,cr,0682_cl_dnn_cr_clock_40_n03196217_9736.png,n03196217_9736.png,1.0,4.9634457,0.29755276,3.2992847
convnext_large,1,683,NaN,clock,clock,cr,0683_cl_dnn_cr_clock_40_n03196217_6293.png,n03196217_6293.png,1.0,4.077298,0.5545296,2.4909735
convnext_large,1,684,NaN,bicycle,bicycle,cr,0684_cl_dnn_cr_bicycle_40_n02835271_15524.png,n02835271_15524.png,1.0,5.1805882,0.63411766,3.2148402
convnext_large,1,685,NaN,oven,oven,cr,0685_cl_dnn_cr_oven_40_n04111531_10749.png,n04111531_10749.png,1.0,8.02413,0.62672806,5.230753
convnext_large,1,686,NaN,car,car,cr,0686_cl_dnn_cr_car_40_n03100240_9354.png,n03100240_9354.png,1.0,6.1585884,1.561796,3.250423
convnext_large,1,687,NaN,chair,chair,bw,0687_cl_dnn_bw_chair_40_n03376595_9695.png,n03376595_9695.png,1.0,3.2467968,0.39743727,2.0148015
convnext_large,1,688,NaN,cat,cat,bw,0688_cl_dnn_bw_cat_40_n02125311_7729.png,n02125311_7729.png,1.0,1.9257237,0.28915644,1.1572278
convnext_large,1,689,NaN,clock,clock,cr,0689_cl_dnn_cr_clock_40_n04548280_7153.png,n04548280_7153.png,1.0,4.5752025,0.12493652,3.1468132
convnext_large,1,690,NaN,boat,boat,cr,0690_cl_dnn_cr_boat_40_n03344393_3355.png,n03344393_3355.png,1.0,2.319616,0.86621267,1.0277115
convnext_large,1,691,NaN,boat,boat,bw,0691_cl_dnn_bw_boat_40_n02951358_381.png,n02951358_381.png,1.0,2.5856404,0.2843549,1.6272546
convnext_large,1,692,NaN,boat,boat,cr,0692_cl_dnn_cr_boat_40_n03344393_6226.png,n03344393_6226.png,1.0,2.1906524,0.7181665,1.0412048
convnext_large,1,693,NaN,car,car,bw,0693_cl_dnn_bw_car_40_n03100240_8206.png,n03100240_8206.png,1.0,5.954775,0.52667177,3.8382485
convnext_large,1,694,NaN,boat,boat,bw,0694_cl_dnn_bw_boat_40_n04273569_4044.png,n04273569_4044.png,1.0,2.8462212,1.3652008,1.0472397
convnext_large,1,695,NaN,bicycle,bicycle,cr,0695_cl_dnn_cr_bicycle_40_n02835271_8180.png,n02835271_8180.png,1.0,5.9628778,0.61639196,3.7805364
convnext_large,1,696,NaN,bear,bear,cr,0696_cl_dnn_cr_bear_40_n02134418_1063.png,n02134418_1063.png,1.0,3.4571822,0.45637292,2.1218925
convnext_large,1,697,NaN,truck,truck,bw,0697_cl_dnn_bw_truck_40_n03417042_265.png,n03417042_265.png,1.0,2.150826,0.503356,1.1649373
convnext_large,1,698,NaN,cat,cat,cr,0698_cl_dnn_cr_cat_40_n02124075_8351.png,n02124075_8351.png,1.0,3.2611551,0.50086486,1.9518199
convnext_large,1,699,NaN,clock,clock,bw,0699_cl_dnn_bw_clock_40_n03196217_4004.png,n03196217_4004.png,1.0,4.8490157,0.83878374,2.8356624
convnext_large,1,700,NaN,car,car,cr,0700_cl_dnn_cr_car_40_n04285008_8093.png,n04285008_8093.png,1.0,3.7852638,0.5073575,2.3178298
convnext_large,1,701,NaN,knife,knife,bw,0701_cl_dnn_bw_knife_40_n03041632_131.png,n03041632_131.png,1.0,8.461627,0.45429087,5.6620417
convnext_large,1,702,NaN,car,car,bw,0702_cl_dnn_bw_car_40_n03100240_6479.png,n03100240_6479.png,1.0,5.6289425,1.36289,3.0165546
convnext_large,1,703,NaN,clock,clock,bw,0703_cl_dnn_bw_clock_40_n03196217_5365.png,n03196217_5365.png,1.0,4.0554166,0.27666217,2.671983
convnext_large,1,704,NaN,bear,bear,bw,0704_cl_dnn_bw_bear_40_n02134418_6123.png,n02134418_6123.png,1.0,4.873159,0.25031582,3.268844
convnext_large,1,705,NaN,bear,bear,cr,0705_cl_dnn_cr_bear_40_n02134418_5273.png,n02134418_5273.png,1.0,2.8442702,0.54072356,1.6288534
convnext_large,1,706,NaN,bird,bird,cr,0706_cl_dnn_cr_bird_40_n01558993_11456.png,n01558993_11456.png,1.0,0.38280484,0.13768914,0.17332298
convnext_large,1,707,NaN,oven,oven,cr,0707_cl_dnn_cr_oven_40_n04111531_6080.png,n04111531_6080.png,1.0,8.542921,0.2704444,5.849524
convnext_large,1,708,NaN,knife,knife,bw,0708_cl_dnn_bw_knife_40_n03041632_101553.png,n03041632_101553.png,1.0,7.9832706,0.20997846,5.4965477
convnext_large,1,709,NaN,oven,oven,bw,0709_cl_dnn_bw_oven_40_n04111531_10436.png,n04111531_10436.png,1.0,9.17415,0.32167792,6.259643
convnext_large,1,710,NaN,clock,clock,cr,0710_cl_dnn_cr_clock_40_n02708093_3621.png,n02708093_3621.png,1.0,4.8286023,0.45840055,3.0901992
convnext_large,1,711,NaN,knife,knife,cr,0711_cl_dnn_cr_knife_40_n03041632_14801.png,n03041632_14801.png,1.0,7.509234,0.31994998,5.0835915
convnext_large,1,712,NaN,oven,dog,cr,0712_cl_dnn_cr_dog_40_n02097130_456.png,n02097130_456.png,0.0,0.162551,0.6243266,-0.32652467
convnext_large,1,713,NaN,chair,chair,cr,0713_cl_dnn_cr_chair_40_n04429376_21081.png,n04429376_21081.png,1.0,2.3416474,0.98283195,0.96082765
convnext_large,1,714,NaN,bicycle,bicycle,cr,0714_cl_dnn_cr_bicycle_40_n02835271_2068.png,n02835271_2068.png,1.0,5.606301,0.6832315,3.4811358
convnext_large,1,715,NaN,chair,chair,cr,0715_cl_dnn_cr_chair_40_n03376595_1773.png,n03376595_1773.png,1.0,2.5071032,0.5843201,1.3596131
convnext_large,1,716,NaN,car,car,bw,0716_cl_dnn_bw_car_40_n03100240_23849.png,n03100240_23849.png,1.0,4.954222,2.1618896,1.9744774
convnext_large,1,717,NaN,car,car,bw,0717_cl_dnn_bw_car_40_n04285008_4834.png,n04285008_4834.png,1.0,5.6664796,0.41397667,3.7140806
convnext_large,1,718,NaN,knife,knife,cr,0718_cl_dnn_cr_knife_40_n03041632_18859.png,n03041632_18859.png,1.0,7.664813,1.9315755,4.054011
convnext_large,1,719,NaN,car,car,bw,0719_cl_dnn_bw_car_40_n03100240_7013.png,n03100240_7013.png,1.0,7.1675267,1.9528778,3.6873138
convnext_large,1,720,NaN,airplane,airplane,cr,0720_cl_dnn_cr_airplane_40_n02690373_1732.png,n02690373_1732.png,1.0,8.693507,0.35602894,5.895488
convnext_large,1,721,NaN,dog,dog,cr,0721_cl_dnn_cr_dog_40_n02100877_1107.png,n02100877_1107.png,1.0,0.6629624,0.5031365,0.11301395
convnext_large,1,722,NaN,dog,dog,bw,0722_cl_dnn_bw_dog_40_n02106662_50272.png,n02106662_50272.png,1.0,0.49433672,0.27384272,0.1559128
convnext_large,1,723,NaN,boat,boat,cr,0723_cl_dnn_cr_boat_40_n03344393_3337.png,n03344393_3337.png,1.0,2.4495444,0.9291322,1.0750937
convnext_large,1,724,NaN,oven,oven,bw,0724_cl_dnn_bw_oven_40_n04111531_4939.png,n04111531_4939.png,1.0,8.947107,0.5775273,5.918187
