subj,session,trial,rt,object_response,category,condition,imagename,filename,is_correct,targ_act,max_nontarg_act,decision_margin
alexnet_w3_mlp_simclrhn_probe0,1,1,NaN,clock,knife,c30,0001_cop_dnn_c30_knife_10_n03041632_7380.png,n03041632_7380.png,0.0,-0.3650092,0.5047001,-0.61497736
alexnet_w3_mlp_simclrhn_probe0,1,2,NaN,bicycle,bicycle,c100,0002_cop_dnn_c100_bicycle_10_n03792782_5966.png,n03792782_5966.png,1.0,1.2499037,-1.8319438,2.1791952
alexnet_w3_mlp_simclrhn_probe0,1,3,NaN,boat,bird,c01,0003_cop_dnn_c01_bird_10_n01601694_10802.png,n01601694_10802.png,0.0,-0.27511826,-0.14420314,-0.09257097
alexnet_w3_mlp_simclrhn_probe0,1,4,NaN,airplane,airplane,c05,0004_cop_dnn_c05_airplane_10_n02690373_9759.png,n02690373_9759.png,1.0,1.1650673,0.13062285,0.7314627
alexnet_w3_mlp_simclrhn_probe0,1,5,NaN,airplane,car,c03,0005_cop_dnn_c03_car_10_n02814533_2236.png,n02814533_2236.png,0.0,-0.5215377,0.13224329,-0.462293
alexnet_w3_mlp_simclrhn_probe0,1,6,NaN,chair,chair,c30,0006_cop_dnn_c30_chair_10_n02791124_7207.png,n02791124_7207.png,1.0,-0.4261355,-0.9656783,0.38151437
alexnet_w3_mlp_simclrhn_probe0,1,7,NaN,knife,oven,c50,0007_cop_dnn_c50_oven_10_n04111531_7064.png,n04111531_7064.png,0.0,-2.2155287,-1.2849325,-0.6580309
alexnet_w3_mlp_simclrhn_probe0,1,8,NaN,bear,bird,c15,0008_cop_dnn_c15_bird_10_n01532829_2263.png,n01532829_2263.png,0.0,-1.2896583,-1.2812456,-0.0059486907
alexnet_w3_mlp_simclrhn_probe0,1,9,NaN,bicycle,bicycle,c50,0009_cop_dnn_c50_bicycle_10_n02835271_3383.png,n02835271_3383.png,1.0,4.181389,-0.14574373,3.0597448
alexnet_w3_mlp_simclrhn_probe0,1,10,NaN,airplane,bicycle,c03,0010_cop_dnn_c03_bicycle_10_n03792782_27510.png,n03792782_27510.png,0.0,-0.54175687,-0.3145337,-0.16067104
alexnet_w3_mlp_simclrhn_probe0,1,11,NaN,clock,bottle,c03,0011_cop_dnn_c03_bottle_10_n04557648_10944.png,n04557648_10944.png,0.0,-0.34706026,-0.13056628,-0.15308437
alexnet_w3_mlp_simclrhn_probe0,1,12,NaN,keyboard,keyboard,c15,0012_cop_dnn_c15_keyboard_10_n03085013_20891.png,n03085013_20891.png,1.0,-0.08159256,-0.47198385,0.27604833
alexnet_w3_mlp_simclrhn_probe0,1,13,NaN,elephant,elephant,c30,0013_cop_dnn_c30_elephant_10_n02504458_3225.png,n02504458_3225.png,1.0,1.7007587,-0.48287663,1.5440633
alexnet_w3_mlp_simclrhn_probe0,1,14,NaN,keyboard,keyboard,c10,0014_cop_dnn_c10_keyboard_10_n04505470_6638.png,n04505470_6638.png,1.0,1.0288266,-0.3140055,0.9495257
alexnet_w3_mlp_simclrhn_probe0,1,15,NaN,airplane,bird,c01,0015_cop_dnn_c01_bird_10_n01601694_11888.png,n01601694_11888.png,0.0,-0.30563563,-0.038607698,-0.18881728
alexnet_w3_mlp_simclrhn_probe0,1,16,NaN,airplane,airplane,c03,0016_cop_dnn_c03_airplane_10_n02690373_8743.png,n02690373_8743.png,1.0,0.8392762,-0.22712335,0.75405836
alexnet_w3_mlp_simclrhn_probe0,1,17,NaN,airplane,boat,c10,0017_cop_dnn_c10_boat_10_n03344393_8869.png,n03344393_8869.png,0.0,0.1366791,0.19074675,-0.038231608
alexnet_w3_mlp_simclrhn_probe0,1,18,NaN,bear,bear,c01,0018_cop_dnn_c01_bear_10_n02132136_27682.png,n02132136_27682.png,1.0,-0.004691247,-0.17417829,0.11984544
alexnet_w3_mlp_simclrhn_probe0,1,19,NaN,bicycle,clock,c50,0019_cop_dnn_c50_clock_10_n02708093_7081.png,n02708093_7081.png,0.0,-3.5099497,-1.2639043,-1.5881939
alexnet_w3_mlp_simclrhn_probe0,1,20,NaN,car,car,c10,0020_cop_dnn_c10_car_10_n03100240_12141.png,n03100240_12141.png,1.0,0.5310617,-0.3530948,0.62519306
alexnet_w3_mlp_simclrhn_probe0,1,21,NaN,airplane,car,c15,0021_cop_dnn_c15_car_10_n02814533_19287.png,n02814533_19287.png,0.0,-0.4868075,0.11730825,-0.42717433
alexnet_w3_mlp_simclrhn_probe0,1,22,NaN,bicycle,bicycle,c03,0022_cop_dnn_c03_bicycle_10_n02835271_3841.png,n02835271_3841.png,1.0,0.16490181,-0.43163183,0.421813
alexnet_w3_mlp_simclrhn_probe0,1,23,NaN,clock,clock,c15,0023_cop_dnn_c15_clock_10_n02708093_6696.png,n02708093_6696.png,1.0,1.3470663,-1.0360564,1.6851223
alexnet_w3_mlp_simclrhn_probe0,1,24,NaN,bear,bird,c01,0024_cop_dnn_c01_bird_10_n01829413_6393.png,n01829413_6393.png,0.0,-0.4037281,-0.27241233,-0.09285427
alexnet_w3_mlp_simclrhn_probe0,1,25,NaN,clock,clock,c01,0025_cop_dnn_c01_clock_10_n02708093_3484.png,n02708093_3484.png,1.0,-0.044246215,-0.25302622,0.14762977
alexnet_w3_mlp_simclrhn_probe0,1,26,NaN,chair,chair,c05,0026_cop_dnn_c05_chair_10_n04429376_55163.png,n04429376_55163.png,1.0,-0.25847656,-0.5391961,0.19849868
alexnet_w3_mlp_simclrhn_probe0,1,27,NaN,boat,boat,c100,0027_cop_dnn_c100_boat_10_n02951358_14528.png,n02951358_14528.png,1.0,-2.6410992,-3.3514729,0.50231004
alexnet_w3_mlp_simclrhn_probe0,1,28,NaN,airplane,chair,c01,0028_cop_dnn_c01_chair_10_n03376595_9603.png,n03376595_9603.png,0.0,-0.52354443,0.08086635,-0.42738295
alexnet_w3_mlp_simclrhn_probe0,1,29,NaN,knife,bottle,c03,0029_cop_dnn_c03_bottle_10_n03937543_1840.png,n03937543_1840.png,0.0,-0.60012007,-0.29837424,-0.21336652
alexnet_w3_mlp_simclrhn_probe0,1,30,NaN,airplane,car,c01,0030_cop_dnn_c01_car_10_n02814533_32835.png,n02814533_32835.png,0.0,-0.53262836,0.009649308,-0.38344824
alexnet_w3_mlp_simclrhn_probe0,1,31,NaN,elephant,bird,c15,0031_cop_dnn_c15_bird_10_n01860187_38598.png,n01860187_38598.png,0.0,-1.3152959,-0.7344389,-0.41072795
alexnet_w3_mlp_simclrhn_probe0,1,32,NaN,airplane,airplane,c100,0032_cop_dnn_c100_airplane_10_n02690373_9322.png,n02690373_9322.png,1.0,9.123869,0.8961498,5.8178763
alexnet_w3_mlp_simclrhn_probe0,1,33,NaN,airplane,bicycle,c01,0033_cop_dnn_c01_bicycle_10_n02835271_1505.png,n02835271_1505.png,0.0,-0.4694273,-0.093468964,-0.26584268
alexnet_w3_mlp_simclrhn_probe0,1,34,NaN,bicycle,bicycle,c50,0034_cop_dnn_c50_bicycle_10_n03792782_11023.png,n03792782_11023.png,1.0,-0.5575941,-1.3770757,0.579461
alexnet_w3_mlp_simclrhn_probe0,1,35,NaN,elephant,elephant,c50,0035_cop_dnn_c50_elephant_10_n02504458_4909.png,n02504458_4909.png,1.0,4.0448227,-0.46214965,3.1869106
alexnet_w3_mlp_simclrhn_probe0,1,36,NaN,boat,boat,c100,0036_cop_dnn_c100_boat_10_n03344393_646.png,n03344393_646.png,1.0,7.2597237,1.8052044,3.8569276
alexnet_w3_mlp_simclrhn_probe0,1,37,NaN,boat,boat,c10,0037_cop_dnn_c10_boat_10_n04612504_2472.png,n04612504_2472.png,1.0,0.18949942,-0.4699302,0.46628717
alexnet_w3_mlp_simclrhn_probe0,1,38,NaN,keyboard,keyboard,c03,0038_cop_dnn_c03_keyboard_10_n03085013_4673.png,n03085013_4673.png,1.0,-0.13090304,-0.31406835,0.12951744
alexnet_w3_mlp_simclrhn_probe0,1,39,NaN,elephant,elephant,c100,0039_cop_dnn_c100_elephant_10_n02504458_1138.png,n02504458_1138.png,1.0,4.4882755,-1.8686236,4.4950066
alexnet_w3_mlp_simclrhn_probe0,1,40,NaN,airplane,car,c100,0040_cop_dnn_c100_car_10_n03100240_5569.png,n03100240_5569.png,0.0,0.5827355,0.76694536,-0.13025606
alexnet_w3_mlp_simclrhn_probe0,1,41,NaN,elephant,dog,c100,0041_cop_dnn_c100_dog_10_n02107312_7422.png,n02107312_7422.png,0.0,-4.749177,-2.1686852,-1.8246833
alexnet_w3_mlp_simclrhn_probe0,1,42,NaN,oven,bear,c15,0042_cop_dnn_c15_bear_10_n02134084_24140.png,n02134084_24140.png,0.0,-0.7491456,-0.18200547,-0.40102866
alexnet_w3_mlp_simclrhn_probe0,1,43,NaN,bottle,bottle,c100,0043_cop_dnn_c100_bottle_10_n04560804_14130.png,n04560804_14130.png,1.0,-0.84051985,-2.1235614,0.90724736
alexnet_w3_mlp_simclrhn_probe0,1,44,NaN,cat,cat,c30,0044_cop_dnn_c30_cat_10_n02124075_11970.png,n02124075_11970.png,1.0,0.18264632,-2.5845568,1.9567081
alexnet_w3_mlp_simclrhn_probe0,1,45,NaN,bear,dog,c03,0045_cop_dnn_c03_dog_10_n02093991_247.png,n02093991_247.png,0.0,-0.7569704,-0.45836592,-0.21114527
alexnet_w3_mlp_simclrhn_probe0,1,46,NaN,keyboard,keyboard,c100,0046_cop_dnn_c100_keyboard_10_n04505470_375.png,n04505470_375.png,1.0,8.964428,-0.69726324,6.8318477
alexnet_w3_mlp_simclrhn_probe0,1,47,NaN,bear,bear,c100,0047_cop_dnn_c100_bear_10_n02134418_4372.png,n02134418_4372.png,1.0,2.7394338,-0.8252422,2.5206068
alexnet_w3_mlp_simclrhn_probe0,1,48,NaN,airplane,boat,c01,0048_cop_dnn_c01_boat_10_n03344393_2838.png,n03344393_2838.png,0.0,-0.08323179,-0.035993136,-0.033402774
alexnet_w3_mlp_simclrhn_probe0,1,49,NaN,bicycle,bicycle,c05,0049_cop_dnn_c05_bicycle_10_n02835271_4935.png,n02835271_4935.png,1.0,-0.3619334,-0.7689838,0.2878281
alexnet_w3_mlp_simclrhn_probe0,1,50,NaN,airplane,airplane,c50,0050_cop_dnn_c50_airplane_10_n02690373_5382.png,n02690373_5382.png,1.0,3.4113684,0.2890873,2.207786
alexnet_w3_mlp_simclrhn_probe0,1,51,NaN,bottle,bottle,c100,0051_cop_dnn_c100_bottle_10_n03937543_2123.png,n03937543_2123.png,1.0,-4.493909,-4.5922265,0.06952106
alexnet_w3_mlp_simclrhn_probe0,1,52,NaN,bear,dog,c30,0052_cop_dnn_c30_dog_10_n02097474_5234.png,n02097474_5234.png,0.0,-0.2443497,-0.11580145,-0.090897344
alexnet_w3_mlp_simclrhn_probe0,1,53,NaN,keyboard,bottle,c100,0053_cop_dnn_c100_bottle_10_n02823428_6050.png,n02823428_6050.png,0.0,-1.1594055,2.2777233,-2.430417
alexnet_w3_mlp_simclrhn_probe0,1,54,NaN,bottle,clock,c15,0054_cop_dnn_c15_clock_10_n02708093_3743.png,n02708093_3743.png,0.0,0.17116183,0.34197703,-0.12078459
alexnet_w3_mlp_simclrhn_probe0,1,55,NaN,airplane,knife,c03,0055_cop_dnn_c03_knife_10_n03041632_55083.png,n03041632_55083.png,0.0,-0.10774157,-0.07941103,-0.020032719
alexnet_w3_mlp_simclrhn_probe0,1,56,NaN,knife,knife,c50,0056_cop_dnn_c50_knife_10_n03041632_41310.png,n03041632_41310.png,1.0,2.1915798,-0.5478212,1.9370492
alexnet_w3_mlp_simclrhn_probe0,1,57,NaN,knife,knife,c03,0057_cop_dnn_c03_knife_10_n03041632_99799.png,n03041632_99799.png,1.0,-0.34219664,-0.52715206,0.13078323
alexnet_w3_mlp_simclrhn_probe0,1,58,NaN,bear,dog,c15,0058_cop_dnn_c15_dog_10_n02094114_8231.png,n02094114_8231.png,0.0,-0.44519082,-0.103697546,-0.24147221
alexnet_w3_mlp_simclrhn_probe0,1,59,NaN,airplane,chair,c01,0059_cop_dnn_c01_chair_10_n03376595_6173.png,n03376595_6173.png,0.0,-0.48473367,-0.066439025,-0.295779
alexnet_w3_mlp_simclrhn_probe0,1,60,NaN,airplane,oven,c05,0060_cop_dnn_c05_oven_10_n04111531_9297.png,n04111531_9297.png,0.0,-0.8497367,-0.17914331,-0.47418115
alexnet_w3_mlp_simclrhn_probe0,1,61,NaN,car,car,c10,0061_cop_dnn_c10_car_10_n03100240_24420.png,n03100240_24420.png,1.0,-0.25902525,-0.32906124,0.04952293
alexnet_w3_mlp_simclrhn_probe0,1,62,NaN,elephant,elephant,c100,0062_cop_dnn_c100_elephant_10_n02504013_2340.png,n02504013_2340.png,1.0,11.528711,-0.62981474,8.597377
alexnet_w3_mlp_simclrhn_probe0,1,63,NaN,bicycle,bicycle,c05,0063_cop_dnn_c05_bicycle_10_n02835271_10104.png,n02835271_10104.png,1.0,-0.27689344,-0.70679605,0.30398706
alexnet_w3_mlp_simclrhn_probe0,1,64,NaN,bicycle,bicycle,c15,0064_cop_dnn_c15_bicycle_10_n03792782_7165.png,n03792782_7165.png,1.0,-1.2682569,-1.4421234,0.122942194
alexnet_w3_mlp_simclrhn_probe0,1,65,NaN,knife,knife,c10,0065_cop_dnn_c10_knife_10_n03041632_14817.png,n03041632_14817.png,1.0,-0.7315092,-0.81720877,0.06059874
alexnet_w3_mlp_simclrhn_probe0,1,66,NaN,clock,clock,c15,0066_cop_dnn_c15_clock_10_n02708093_118.png,n02708093_118.png,1.0,0.68828624,-1.1982205,1.3339617
alexnet_w3_mlp_simclrhn_probe0,1,67,NaN,airplane,airplane,c10,0067_cop_dnn_c10_airplane_10_n02690373_4298.png,n02690373_4298.png,1.0,1.5011626,-0.415999,1.355638
alexnet_w3_mlp_simclrhn_probe0,1,68,NaN,knife,knife,c100,0068_cop_dnn_c100_knife_10_n03041632_50034.png,n03041632_50034.png,1.0,2.361448,-2.653719,3.546259
alexnet_w3_mlp_simclrhn_probe0,1,69,NaN,bottle,chair,c03,0069_cop_dnn_c03_chair_10_n02791124_1333.png,n02791124_1333.png,0.0,-0.89881814,-0.2213324,-0.47905475
alexnet_w3_mlp_simclrhn_probe0,1,70,NaN,clock,clock,c01,0070_cop_dnn_c01_clock_10_n02708093_2318.png,n02708093_2318.png,1.0,0.31216505,-0.2801629,0.41883913
alexnet_w3_mlp_simclrhn_probe0,1,71,NaN,airplane,elephant,c01,0071_cop_dnn_c01_elephant_10_n02504013_3864.png,n02504013_3864.png,0.0,-0.40481758,-0.043119367,-0.25575927
alexnet_w3_mlp_simclrhn_probe0,1,72,NaN,chair,chair,c10,0072_cop_dnn_c10_chair_10_n04429376_56624.png,n04429376_56624.png,1.0,-0.41648227,-0.5493317,0.09393875
alexnet_w3_mlp_simclrhn_probe0,1,73,NaN,airplane,airplane,c30,0073_cop_dnn_c30_airplane_10_n02690373_7004.png,n02690373_7004.png,1.0,1.7986001,-0.9480287,1.9421599
alexnet_w3_mlp_simclrhn_probe0,1,74,NaN,oven,oven,c30,0074_cop_dnn_c30_oven_10_n04111531_9692.png,n04111531_9692.png,1.0,0.46427488,-1.3484457,1.281787
alexnet_w3_mlp_simclrhn_probe0,1,75,NaN,car,truck,c50,0075_cop_dnn_c50_truck_10_n03796401_296.png,n03796401_296.png,0.0,0.25089902,0.99077773,-0.5231733
alexnet_w3_mlp_simclrhn_probe0,1,76,NaN,airplane,airplane,c15,0076_cop_dnn_c15_airplane_10_n02690373_1837.png,n02690373_1837.png,1.0,0.308318,-0.811325,0.79170716
alexnet_w3_mlp_simclrhn_probe0,1,77,NaN,airplane,airplane,c03,0077_cop_dnn_c03_airplane_10_n02690373_10203.png,n02690373_10203.png,1.0,0.24707809,0.07202013,0.123784676
alexnet_w3_mlp_simclrhn_probe0,1,78,NaN,boat,boat,c03,0078_cop_dnn_c03_boat_10_n02951358_34234.png,n02951358_34234.png,1.0,-0.08319624,-0.18807319,0.074159205
alexnet_w3_mlp_simclrhn_probe0,1,79,NaN,bicycle,bicycle,c100,0079_cop_dnn_c100_bicycle_10_n02835271_2885.png,n02835271_2885.png,1.0,1.9962322,0.5737531,1.0058446
alexnet_w3_mlp_simclrhn_probe0,1,80,NaN,airplane,airplane,c30,0080_cop_dnn_c30_airplane_10_n02690373_5247.png,n02690373_5247.png,1.0,2.7104688,-0.024671484,1.9340363
alexnet_w3_mlp_simclrhn_probe0,1,81,NaN,clock,clock,c50,0081_cop_dnn_c50_clock_10_n02708093_596.png,n02708093_596.png,1.0,2.8756936,-0.8898673,2.6626537
alexnet_w3_mlp_simclrhn_probe0,1,82,NaN,airplane,chair,c01,0082_cop_dnn_c01_chair_10_n03376595_1364.png,n03376595_1364.png,0.0,-0.45901296,-0.030951306,-0.30268532
alexnet_w3_mlp_simclrhn_probe0,1,83,NaN,clock,cat,c03,0083_cop_dnn_c03_cat_10_n02124075_12430.png,n02124075_12430.png,0.0,-0.50933254,-0.4423965,-0.047330935
alexnet_w3_mlp_simclrhn_probe0,1,84,NaN,cat,cat,c05,0084_cop_dnn_c05_cat_10_n02123159_5487.png,n02123159_5487.png,1.0,-0.7313215,-0.93075114,0.14101805
alexnet_w3_mlp_simclrhn_probe0,1,85,NaN,bicycle,bicycle,c50,0085_cop_dnn_c50_bicycle_10_n03792782_17571.png,n03792782_17571.png,1.0,0.5959736,-2.347652,2.0814576
alexnet_w3_mlp_simclrhn_probe0,1,86,NaN,cat,cat,c50,0086_cop_dnn_c50_cat_10_n02123159_6132.png,n02123159_6132.png,1.0,0.27059028,-3.7152138,2.8183892
alexnet_w3_mlp_simclrhn_probe0,1,87,NaN,airplane,bottle,c05,0087_cop_dnn_c05_bottle_10_n03937543_2873.png,n03937543_2873.png,0.0,-0.4887796,-0.2945607,-0.13733351
alexnet_w3_mlp_simclrhn_probe0,1,88,NaN,bottle,keyboard,c15,0088_cop_dnn_c15_keyboard_10_n04505470_1236.png,n04505470_1236.png,0.0,-1.1648165,-0.6213263,-0.3843056
alexnet_w3_mlp_simclrhn_probe0,1,89,NaN,airplane,airplane,c01,0089_cop_dnn_c01_airplane_10_n02690373_4243.png,n02690373_4243.png,1.0,0.25844607,-0.18333806,0.31238857
alexnet_w3_mlp_simclrhn_probe0,1,90,NaN,oven,oven,c30,0090_cop_dnn_c30_oven_10_n04111531_467.png,n04111531_467.png,1.0,-1.022387,-1.0935451,0.05031634
alexnet_w3_mlp_simclrhn_probe0,1,91,NaN,bear,cat,c03,0091_cop_dnn_c03_cat_10_n02123394_2632.png,n02123394_2632.png,0.0,-0.4782188,-0.26253083,-0.15251443
alexnet_w3_mlp_simclrhn_probe0,1,92,NaN,chair,chair,c15,0092_cop_dnn_c15_chair_10_n02791124_5268.png,n02791124_5268.png,1.0,-0.97791773,-0.9863766,0.005981312
alexnet_w3_mlp_simclrhn_probe0,1,93,NaN,bottle,knife,c100,0093_cop_dnn_c100_knife_10_n03041632_1143.png,n03041632_1143.png,0.0,-4.0481153,-2.899689,-0.81206006
alexnet_w3_mlp_simclrhn_probe0,1,94,NaN,bottle,chair,c10,0094_cop_dnn_c10_chair_10_n02791124_1018.png,n02791124_1018.png,0.0,-0.56400937,-0.55460805,-0.006647738
alexnet_w3_mlp_simclrhn_probe0,1,95,NaN,bottle,bicycle,c05,0095_cop_dnn_c05_bicycle_10_n03792782_8057.png,n03792782_8057.png,0.0,-1.0143743,-0.749957,-0.18697122
alexnet_w3_mlp_simclrhn_probe0,1,96,NaN,bear,bear,c30,0096_cop_dnn_c30_bear_10_n02132136_1338.png,n02132136_1338.png,1.0,0.72686756,-1.0526989,1.2583435
alexnet_w3_mlp_simclrhn_probe0,1,97,NaN,clock,clock,c05,0097_cop_dnn_c05_clock_10_n02708093_4798.png,n02708093_4798.png,1.0,1.6004306,-0.06456743,1.1773314
alexnet_w3_mlp_simclrhn_probe0,1,98,NaN,airplane,truck,c01,0098_cop_dnn_c01_truck_10_n03796401_15046.png,n03796401_15046.png,0.0,-0.53417236,0.047287814,-0.41115445
alexnet_w3_mlp_simclrhn_probe0,1,99,NaN,knife,knife,c50,0099_cop_dnn_c50_knife_10_n03041632_13612.png,n03041632_13612.png,1.0,-1.042516,-2.331823,0.91167784
alexnet_w3_mlp_simclrhn_probe0,1,100,NaN,oven,oven,c10,0100_cop_dnn_c10_oven_10_n04111531_1898.png,n04111531_1898.png,1.0,0.67437935,-0.06378958,0.5219643
alexnet_w3_mlp_simclrhn_probe0,1,101,NaN,truck,truck,c03,0101_cop_dnn_c03_truck_10_n04467665_28988.png,n04467665_28988.png,1.0,-0.45096514,-0.5427526,0.06490356
alexnet_w3_mlp_simclrhn_probe0,1,102,NaN,airplane,airplane,c100,0102_cop_dnn_c100_airplane_10_n02690373_736.png,n02690373_736.png,1.0,11.406592,1.0015514,7.357475
alexnet_w3_mlp_simclrhn_probe0,1,103,NaN,dog,dog,c50,0103_cop_dnn_c50_dog_10_n02111500_5154.png,n02111500_5154.png,1.0,-0.7169777,-0.9717914,0.18018048
alexnet_w3_mlp_simclrhn_probe0,1,104,NaN,bicycle,bear,c50,0104_cop_dnn_c50_bear_10_n02133161_13461.png,n02133161_13461.png,0.0,-2.2712426,-1.8449514,-0.3014334
alexnet_w3_mlp_simclrhn_probe0,1,105,NaN,bear,dog,c15,0105_cop_dnn_c15_dog_10_n02102318_11746.png,n02102318_11746.png,0.0,-0.9979836,-0.43723956,-0.39650592
alexnet_w3_mlp_simclrhn_probe0,1,106,NaN,boat,boat,c50,0106_cop_dnn_c50_boat_10_n03662601_12226.png,n03662601_12226.png,1.0,1.277367,-0.4009664,1.1867609
alexnet_w3_mlp_simclrhn_probe0,1,107,NaN,keyboard,keyboard,c05,0107_cop_dnn_c05_keyboard_10_n04505470_3207.png,n04505470_3207.png,1.0,-0.09859307,-0.6863569,0.4156118
alexnet_w3_mlp_simclrhn_probe0,1,108,NaN,bicycle,bicycle,c30,0108_cop_dnn_c30_bicycle_10_n03792782_2628.png,n03792782_2628.png,1.0,2.245834,-1.2249604,2.4542224
alexnet_w3_mlp_simclrhn_probe0,1,109,NaN,airplane,chair,c01,0109_cop_dnn_c01_chair_10_n02791124_3204.png,n02791124_3204.png,0.0,-0.26799124,0.053232748,-0.22713968
alexnet_w3_mlp_simclrhn_probe0,1,110,NaN,bottle,bottle,c03,0110_cop_dnn_c03_bottle_10_n04560804_722.png,n04560804_722.png,1.0,0.0035108414,-0.24888206,0.17846872
alexnet_w3_mlp_simclrhn_probe0,1,111,NaN,bicycle,bicycle,c30,0111_cop_dnn_c30_bicycle_10_n03792782_8847.png,n03792782_8847.png,1.0,-0.2546546,-2.0633292,1.2789261
alexnet_w3_mlp_simclrhn_probe0,1,112,NaN,bear,bear,c50,0112_cop_dnn_c50_bear_10_n02132136_1132.png,n02132136_1132.png,1.0,-0.35937756,-1.5216355,0.82184047
alexnet_w3_mlp_simclrhn_probe0,1,113,NaN,bottle,knife,c50,0113_cop_dnn_c50_knife_10_n03041632_6557.png,n03041632_6557.png,0.0,-2.4071734,-2.1370716,-0.1909908
alexnet_w3_mlp_simclrhn_probe0,1,114,NaN,oven,knife,c100,0114_cop_dnn_c100_knife_10_n03041632_35116.png,n03041632_35116.png,0.0,-1.8001397,-1.3790523,-0.29775375
alexnet_w3_mlp_simclrhn_probe0,1,115,NaN,car,car,c15,0115_cop_dnn_c15_car_10_n02814533_3117.png,n02814533_3117.png,1.0,0.447785,-0.055811103,0.3560962
alexnet_w3_mlp_simclrhn_probe0,1,116,NaN,bird,bird,c15,0116_cop_dnn_c15_bird_10_n02009229_4224.png,n02009229_4224.png,1.0,-0.9328735,-1.0430641,0.07791654
alexnet_w3_mlp_simclrhn_probe0,1,117,NaN,bicycle,chair,c50,0117_cop_dnn_c50_chair_10_n03376595_9247.png,n03376595_9247.png,0.0,-2.3419042,-1.106446,-0.87360084
alexnet_w3_mlp_simclrhn_probe0,1,118,NaN,airplane,boat,c01,0118_cop_dnn_c01_boat_10_n03662601_5639.png,n03662601_5639.png,0.0,0.04195234,0.1890441,-0.10400958
alexnet_w3_mlp_simclrhn_probe0,1,119,NaN,airplane,bicycle,c10,0119_cop_dnn_c10_bicycle_10_n02835271_13437.png,n02835271_13437.png,0.0,-0.59786093,-0.4256658,-0.12176035
alexnet_w3_mlp_simclrhn_probe0,1,120,NaN,bicycle,bicycle,c05,0120_cop_dnn_c05_bicycle_10_n03792782_18294.png,n03792782_18294.png,1.0,-0.38051274,-0.87702626,0.35108808
alexnet_w3_mlp_simclrhn_probe0,1,121,NaN,boat,boat,c03,0121_cop_dnn_c03_boat_10_n02951358_10488.png,n02951358_10488.png,1.0,0.034282826,-0.0702937,0.073946774
alexnet_w3_mlp_simclrhn_probe0,1,122,NaN,bird,bird,c50,0122_cop_dnn_c50_bird_10_n01829413_14594.png,n01829413_14594.png,1.0,0.13182105,-0.22682424,0.2536005
alexnet_w3_mlp_simclrhn_probe0,1,123,NaN,clock,clock,c100,0123_cop_dnn_c100_clock_10_n03196217_9197.png,n03196217_9197.png,1.0,-2.2111895,-3.3066678,0.7746201
alexnet_w3_mlp_simclrhn_probe0,1,124,NaN,boat,boat,c15,0124_cop_dnn_c15_boat_10_n03662601_1667.png,n03662601_1667.png,1.0,-0.47277564,-0.8577039,0.27218542
alexnet_w3_mlp_simclrhn_probe0,1,125,NaN,elephant,dog,c50,0125_cop_dnn_c50_dog_10_n02092339_6946.png,n02092339_6946.png,0.0,-1.7489408,-1.2129849,-0.37897807
alexnet_w3_mlp_simclrhn_probe0,1,126,NaN,airplane,airplane,c05,0126_cop_dnn_c05_airplane_10_n02690373_1773.png,n02690373_1773.png,1.0,0.47896335,-0.509236,0.6987625
alexnet_w3_mlp_simclrhn_probe0,1,127,NaN,bicycle,elephant,c50,0127_cop_dnn_c50_elephant_10_n02504013_4278.png,n02504013_4278.png,0.0,-3.24469,-2.1150415,-0.7987821
alexnet_w3_mlp_simclrhn_probe0,1,128,NaN,bird,bird,c100,0128_cop_dnn_c100_bird_10_n02025239_10194.png,n02025239_10194.png,1.0,1.8554826,-3.9112344,4.077685
alexnet_w3_mlp_simclrhn_probe0,1,129,NaN,oven,oven,c15,0129_cop_dnn_c15_oven_10_n04111531_1977.png,n04111531_1977.png,1.0,-0.27387154,-1.0893743,0.5766475
alexnet_w3_mlp_simclrhn_probe0,1,130,NaN,clock,clock,c50,0130_cop_dnn_c50_clock_10_n02708093_616.png,n02708093_616.png,1.0,-0.48382044,-0.5810869,0.068777755
alexnet_w3_mlp_simclrhn_probe0,1,131,NaN,airplane,boat,c10,0131_cop_dnn_c10_boat_10_n04273569_10292.png,n04273569_10292.png,0.0,0.39992177,0.5261524,-0.089258514
alexnet_w3_mlp_simclrhn_probe0,1,132,NaN,cat,cat,c50,0132_cop_dnn_c50_cat_10_n02123394_8592.png,n02123394_8592.png,1.0,1.3337013,-0.52747685,1.3160517
alexnet_w3_mlp_simclrhn_probe0,1,133,NaN,bottle,knife,c10,0133_cop_dnn_c10_knife_10_n03041632_16020.png,n03041632_16020.png,0.0,-0.8479742,-0.78664464,-0.043366536
alexnet_w3_mlp_simclrhn_probe0,1,134,NaN,cat,cat,c30,0134_cop_dnn_c30_cat_10_n02123394_5466.png,n02123394_5466.png,1.0,0.2300257,-0.7580514,0.69867605
alexnet_w3_mlp_simclrhn_probe0,1,135,NaN,airplane,elephant,c01,0135_cop_dnn_c01_elephant_10_n02504013_7351.png,n02504013_7351.png,0.0,-0.40654522,-0.05365245,-0.24953286
alexnet_w3_mlp_simclrhn_probe0,1,136,NaN,oven,oven,c50,0136_cop_dnn_c50_oven_10_n04111531_22388.png,n04111531_22388.png,1.0,-1.4681386,-2.5676284,0.7774567
alexnet_w3_mlp_simclrhn_probe0,1,137,NaN,bottle,chair,c100,0137_cop_dnn_c100_chair_10_n04429376_6308.png,n04429376_6308.png,0.0,-3.5439312,-2.9999542,-0.38464984
alexnet_w3_mlp_simclrhn_probe0,1,138,NaN,car,car,c10,0138_cop_dnn_c10_car_10_n03100240_8443.png,n03100240_8443.png,1.0,1.9210001,0.79272455,0.7978114
alexnet_w3_mlp_simclrhn_probe0,1,139,NaN,car,car,c100,0139_cop_dnn_c100_car_10_n04285008_12446.png,n04285008_12446.png,1.0,4.7119594,0.9817096,2.637685
alexnet_w3_mlp_simclrhn_probe0,1,140,NaN,keyboard,keyboard,c01,0140_cop_dnn_c01_keyboard_10_n04505470_4440.png,n04505470_4440.png,1.0,0.16766262,-0.10529531,0.1930104
alexnet_w3_mlp_simclrhn_probe0,1,141,NaN,car,car,c10,0141_cop_dnn_c10_car_10_n04285008_10073.png,n04285008_10073.png,1.0,0.21868177,-0.5037914,0.5108657
alexnet_w3_mlp_simclrhn_probe0,1,142,NaN,airplane,bottle,c03,0142_cop_dnn_c03_bottle_10_n03983396_7378.png,n03983396_7378.png,0.0,-0.5066253,-0.24972741,-0.18165423
alexnet_w3_mlp_simclrhn_probe0,1,143,NaN,chair,chair,c15,0143_cop_dnn_c15_chair_10_n02791124_5706.png,n02791124_5706.png,1.0,-0.9381912,-1.0520822,0.0805331
alexnet_w3_mlp_simclrhn_probe0,1,144,NaN,cat,cat,c15,0144_cop_dnn_c15_cat_10_n02123045_11224.png,n02123045_11224.png,1.0,0.17654729,-1.3291094,1.0646601
alexnet_w3_mlp_simclrhn_probe0,1,145,NaN,chair,chair,c05,0145_cop_dnn_c05_chair_10_n03376595_8953.png,n03376595_8953.png,1.0,-0.25935262,-0.46301708,0.14401251
alexnet_w3_mlp_simclrhn_probe0,1,146,NaN,bicycle,bicycle,c50,0146_cop_dnn_c50_bicycle_10_n03792782_66048.png,n03792782_66048.png,1.0,2.2858377,-1.9855223,3.0203075
alexnet_w3_mlp_simclrhn_probe0,1,147,NaN,airplane,dog,c01,0147_cop_dnn_c01_dog_10_n02104365_1123.png,n02104365_1123.png,0.0,-0.71554714,-0.10544445,-0.43140778
alexnet_w3_mlp_simclrhn_probe0,1,148,NaN,clock,clock,c05,0148_cop_dnn_c05_clock_10_n03196217_3605.png,n03196217_3605.png,1.0,0.085082255,0.053242125,0.022514373
alexnet_w3_mlp_simclrhn_probe0,1,149,NaN,knife,knife,c10,0149_cop_dnn_c10_knife_10_n03041632_14916.png,n03041632_14916.png,1.0,-0.53802615,-1.048267,0.36079478
alexnet_w3_mlp_simclrhn_probe0,1,150,NaN,bear,bear,c10,0150_cop_dnn_c10_bear_10_n02132136_4101.png,n02132136_4101.png,1.0,0.15592866,-0.56113964,0.5070439
alexnet_w3_mlp_simclrhn_probe0,1,151,NaN,clock,clock,c01,0151_cop_dnn_c01_clock_10_n02708093_7929.png,n02708093_7929.png,1.0,-0.24127436,-0.41854,0.12534574
alexnet_w3_mlp_simclrhn_probe0,1,152,NaN,chair,chair,c50,0152_cop_dnn_c50_chair_10_n02791124_7630.png,n02791124_7630.png,1.0,0.0033470988,-2.0451524,1.448508
alexnet_w3_mlp_simclrhn_probe0,1,153,NaN,clock,clock,c05,0153_cop_dnn_c05_clock_10_n02708093_3750.png,n02708093_3750.png,1.0,0.23925485,-0.60033035,0.5936764
alexnet_w3_mlp_simclrhn_probe0,1,154,NaN,airplane,bird,c01,0154_cop_dnn_c01_bird_10_n02037110_12288.png,n02037110_12288.png,0.0,-0.38945007,0.046125688,-0.30799857
alexnet_w3_mlp_simclrhn_probe0,1,155,NaN,keyboard,keyboard,c05,0155_cop_dnn_c05_keyboard_10_n04505470_6080.png,n04505470_6080.png,1.0,0.7319559,0.21530433,0.36532784
alexnet_w3_mlp_simclrhn_probe0,1,156,NaN,keyboard,keyboard,c100,0156_cop_dnn_c100_keyboard_10_n03085013_19065.png,n03085013_19065.png,1.0,8.573667,-1.1874007,6.9021173
alexnet_w3_mlp_simclrhn_probe0,1,157,NaN,cat,cat,c10,0157_cop_dnn_c10_cat_10_n02123159_4856.png,n02123159_4856.png,1.0,-0.4268577,-1.1588452,0.5175933
alexnet_w3_mlp_simclrhn_probe0,1,158,NaN,clock,chair,c01,0158_cop_dnn_c01_chair_10_n04099969_6913.png,n04099969_6913.png,0.0,-0.30446863,-0.026242077,-0.19673589
alexnet_w3_mlp_simclrhn_probe0,1,159,NaN,knife,knife,c30,0159_cop_dnn_c30_knife_10_n03041632_35764.png,n03041632_35764.png,1.0,-0.8051588,-1.9570585,0.8145162
alexnet_w3_mlp_simclrhn_probe0,1,160,NaN,truck,truck,c30,0160_cop_dnn_c30_truck_10_n03796401_3012.png,n03796401_3012.png,1.0,2.3017886,2.0881283,0.15108061
alexnet_w3_mlp_simclrhn_probe0,1,161,NaN,elephant,elephant,c10,0161_cop_dnn_c10_elephant_10_n02504013_3821.png,n02504013_3821.png,1.0,0.686367,-0.93406457,1.1458181
alexnet_w3_mlp_simclrhn_probe0,1,162,NaN,truck,truck,c100,0162_cop_dnn_c100_truck_10_n03796401_3608.png,n03796401_3608.png,1.0,-2.5149636,-2.5262313,0.00796744
alexnet_w3_mlp_simclrhn_probe0,1,163,NaN,chair,chair,c15,0163_cop_dnn_c15_chair_10_n04099969_13811.png,n04099969_13811.png,1.0,0.6938441,-0.73338187,1.0092012
alexnet_w3_mlp_simclrhn_probe0,1,164,NaN,bear,bear,c50,0164_cop_dnn_c50_bear_10_n02133161_4954.png,n02133161_4954.png,1.0,0.8591454,-0.46978503,0.9396957
alexnet_w3_mlp_simclrhn_probe0,1,165,NaN,dog,dog,c15,0165_cop_dnn_c15_dog_10_n02085782_6792.png,n02085782_6792.png,1.0,-0.4539817,-0.8631564,0.28933018
alexnet_w3_mlp_simclrhn_probe0,1,166,NaN,bottle,oven,c05,0166_cop_dnn_c05_oven_10_n04111531_22886.png,n04111531_22886.png,0.0,-0.7072203,-0.6916773,-0.010990592
alexnet_w3_mlp_simclrhn_probe0,1,167,NaN,bear,dog,c05,0167_cop_dnn_c05_dog_10_n02091831_510.png,n02091831_510.png,0.0,-0.9935464,-0.62452996,-0.26093405
alexnet_w3_mlp_simclrhn_probe0,1,168,NaN,bear,bear,c15,0168_cop_dnn_c15_bear_10_n02132136_11339.png,n02132136_11339.png,1.0,-0.25156474,-0.76373744,0.3621608
alexnet_w3_mlp_simclrhn_probe0,1,169,NaN,keyboard,bottle,c15,0169_cop_dnn_c15_bottle_10_n04557648_2709.png,n04557648_2709.png,0.0,-0.48598978,0.31622207,-0.5672495
alexnet_w3_mlp_simclrhn_probe0,1,170,NaN,keyboard,keyboard,c03,0170_cop_dnn_c03_keyboard_10_n03085013_21447.png,n03085013_21447.png,1.0,-0.0484394,-0.10234391,0.038116246
alexnet_w3_mlp_simclrhn_probe0,1,171,NaN,airplane,airplane,c30,0171_cop_dnn_c30_airplane_10_n02690373_7676.png,n02690373_7676.png,1.0,3.5627277,0.34185317,2.2775023
alexnet_w3_mlp_simclrhn_probe0,1,172,NaN,elephant,dog,c100,0172_cop_dnn_c100_dog_10_n02091831_4110.png,n02091831_4110.png,0.0,-2.3739698,-1.5374587,-0.5915027
alexnet_w3_mlp_simclrhn_probe0,1,173,NaN,elephant,bird,c10,0173_cop_dnn_c10_bird_10_n02007558_16029.png,n02007558_16029.png,0.0,-0.94238865,-0.48028657,-0.32675552
alexnet_w3_mlp_simclrhn_probe0,1,174,NaN,knife,truck,c30,0174_cop_dnn_c30_truck_10_n03796401_15097.png,n03796401_15097.png,0.0,-2.3273706,-1.7418253,-0.41404307
alexnet_w3_mlp_simclrhn_probe0,1,175,NaN,airplane,airplane,c30,0175_cop_dnn_c30_airplane_10_n02690373_7401.png,n02690373_7401.png,1.0,4.376484,-0.024305522,3.111828
alexnet_w3_mlp_simclrhn_probe0,1,176,NaN,dog,dog,c05,0176_cop_dnn_c05_dog_10_n02108422_4529.png,n02108422_4529.png,1.0,-0.6232821,-0.6302872,0.0049533504
alexnet_w3_mlp_simclrhn_probe0,1,177,NaN,bear,bear,c10,0177_cop_dnn_c10_bear_10_n02132136_10514.png,n02132136_10514.png,1.0,0.02774354,-0.48780346,0.36454678
alexnet_w3_mlp_simclrhn_probe0,1,178,NaN,airplane,airplane,c03,0178_cop_dnn_c03_airplane_10_n02690373_5524.png,n02690373_5524.png,1.0,0.03122548,-0.21422735,0.17356136
alexnet_w3_mlp_simclrhn_probe0,1,179,NaN,chair,chair,c100,0179_cop_dnn_c100_chair_10_n04429376_5965.png,n04429376_5965.png,1.0,-1.725824,-4.574284,2.0141656
alexnet_w3_mlp_simclrhn_probe0,1,180,NaN,airplane,airplane,c15,0180_cop_dnn_c15_airplane_10_n02690373_9712.png,n02690373_9712.png,1.0,1.0286875,-0.7327253,1.245507
alexnet_w3_mlp_simclrhn_probe0,1,181,NaN,boat,boat,c30,0181_cop_dnn_c30_boat_10_n02951358_29825.png,n02951358_29825.png,1.0,0.6682297,-0.41493607,0.76591384
alexnet_w3_mlp_simclrhn_probe0,1,182,NaN,keyboard,keyboard,c03,0182_cop_dnn_c03_keyboard_10_n04505470_4887.png,n04505470_4887.png,1.0,0.21835078,-0.37653798,0.4206499
alexnet_w3_mlp_simclrhn_probe0,1,183,NaN,airplane,truck,c01,0183_cop_dnn_c01_truck_10_n04467665_32090.png,n04467665_32090.png,0.0,-0.48518562,0.075465225,-0.39644
alexnet_w3_mlp_simclrhn_probe0,1,184,NaN,chair,chair,c05,0184_cop_dnn_c05_chair_10_n02791124_4296.png,n02791124_4296.png,1.0,-0.33669433,-0.3599577,0.016449684
alexnet_w3_mlp_simclrhn_probe0,1,185,NaN,boat,boat,c30,0185_cop_dnn_c30_boat_10_n04612504_14669.png,n04612504_14669.png,1.0,0.30795375,-1.0151732,0.93559206
alexnet_w3_mlp_simclrhn_probe0,1,186,NaN,airplane,airplane,c03,0186_cop_dnn_c03_airplane_10_n02690373_891.png,n02690373_891.png,1.0,0.36533204,-0.2148016,0.41021642
alexnet_w3_mlp_simclrhn_probe0,1,187,NaN,clock,clock,c100,0187_cop_dnn_c100_clock_10_n04548280_7539.png,n04548280_7539.png,1.0,1.3288984,-0.9962966,1.6441612
alexnet_w3_mlp_simclrhn_probe0,1,188,NaN,bear,bear,c30,0188_cop_dnn_c30_bear_10_n02134418_4717.png,n02134418_4717.png,1.0,0.8831618,-0.6354555,1.0738246
alexnet_w3_mlp_simclrhn_probe0,1,189,NaN,bear,bird,c03,0189_cop_dnn_c03_bird_10_n02002724_13195.png,n02002724_13195.png,0.0,-0.640581,-0.42458075,-0.15273525
alexnet_w3_mlp_simclrhn_probe0,1,190,NaN,bottle,bottle,c10,0190_cop_dnn_c10_bottle_10_n03937543_2494.png,n03937543_2494.png,1.0,-0.68410045,-1.0566882,0.26345932
alexnet_w3_mlp_simclrhn_probe0,1,191,NaN,clock,clock,c30,0191_cop_dnn_c30_clock_10_n03196217_2307.png,n03196217_2307.png,1.0,1.6185269,0.48767295,0.7996346
alexnet_w3_mlp_simclrhn_probe0,1,192,NaN,bottle,clock,c15,0192_cop_dnn_c15_clock_10_n04548280_17907.png,n04548280_17907.png,0.0,-0.7423565,-0.44163033,-0.2126455
alexnet_w3_mlp_simclrhn_probe0,1,193,NaN,clock,chair,c03,0193_cop_dnn_c03_chair_10_n03376595_6540.png,n03376595_6540.png,0.0,-0.23787975,0.018665554,-0.18140493
alexnet_w3_mlp_simclrhn_probe0,1,194,NaN,cat,cat,c30,0194_cop_dnn_c30_cat_10_n02123045_1484.png,n02123045_1484.png,1.0,-0.35371232,-1.484052,0.7992708
alexnet_w3_mlp_simclrhn_probe0,1,195,NaN,airplane,knife,c03,0195_cop_dnn_c03_knife_10_n03041632_89912.png,n03041632_89912.png,0.0,-0.13938051,0.0058560586,-0.10269776
alexnet_w3_mlp_simclrhn_probe0,1,196,NaN,bottle,bottle,c05,0196_cop_dnn_c05_bottle_10_n04591713_6975.png,n04591713_6975.png,1.0,0.5490545,-0.15375939,0.49696445
alexnet_w3_mlp_simclrhn_probe0,1,197,NaN,elephant,bird,c50,0197_cop_dnn_c50_bird_10_n01860187_810.png,n01860187_810.png,0.0,-2.107734,-1.3447115,-0.5395383
alexnet_w3_mlp_simclrhn_probe0,1,198,NaN,knife,oven,c03,0198_cop_dnn_c03_oven_10_n04111531_5967.png,n04111531_5967.png,0.0,-0.91340846,-0.48442656,-0.30333602
alexnet_w3_mlp_simclrhn_probe0,1,199,NaN,boat,boat,c15,0199_cop_dnn_c15_boat_10_n04612504_18954.png,n04612504_18954.png,1.0,0.41201696,0.14187182,0.19102144
alexnet_w3_mlp_simclrhn_probe0,1,200,NaN,bicycle,bicycle,c10,0200_cop_dnn_c10_bicycle_10_n03792782_68259.png,n03792782_68259.png,1.0,0.27216166,-1.1703631,1.0200189
alexnet_w3_mlp_simclrhn_probe0,1,201,NaN,airplane,car,c03,0201_cop_dnn_c03_car_10_n04285008_296.png,n04285008_296.png,0.0,-0.5440366,-0.08095215,-0.32745016
alexnet_w3_mlp_simclrhn_probe0,1,202,NaN,airplane,airplane,c03,0202_cop_dnn_c03_airplane_10_n02690373_12929.png,n02690373_12929.png,1.0,0.6232997,-0.11904333,0.5249158
alexnet_w3_mlp_simclrhn_probe0,1,203,NaN,airplane,boat,c01,0203_cop_dnn_c01_boat_10_n03344393_8761.png,n03344393_8761.png,0.0,0.018590335,0.20116232,-0.1290979
alexnet_w3_mlp_simclrhn_probe0,1,204,NaN,clock,clock,c30,0204_cop_dnn_c30_clock_10_n03196217_3877.png,n03196217_3877.png,1.0,0.91893715,0.18824208,0.51667947
alexnet_w3_mlp_simclrhn_probe0,1,205,NaN,cat,bear,c10,0205_cop_dnn_c10_bear_10_n02134084_1346.png,n02134084_1346.png,0.0,-0.53167546,-0.48068997,-0.036052182
alexnet_w3_mlp_simclrhn_probe0,1,206,NaN,airplane,knife,c03,0206_cop_dnn_c03_knife_10_n03041632_48151.png,n03041632_48151.png,0.0,-0.1718103,-0.053101182,-0.08394002
alexnet_w3_mlp_simclrhn_probe0,1,207,NaN,airplane,airplane,c50,0207_cop_dnn_c50_airplane_10_n02690373_3589.png,n02690373_3589.png,1.0,2.8834956,0.28180686,1.8396717
alexnet_w3_mlp_simclrhn_probe0,1,208,NaN,airplane,bottle,c50,0208_cop_dnn_c50_bottle_10_n04560804_2942.png,n04560804_2942.png,0.0,-2.3563783,-0.88333756,-1.0415971
alexnet_w3_mlp_simclrhn_probe0,1,209,NaN,keyboard,keyboard,c03,0209_cop_dnn_c03_keyboard_10_n04505470_5022.png,n04505470_5022.png,1.0,0.2065785,-0.092005394,0.2111307
alexnet_w3_mlp_simclrhn_probe0,1,210,NaN,bear,dog,c10,0210_cop_dnn_c10_dog_10_n02096294_1043.png,n02096294_1043.png,0.0,-0.7935694,-0.35561958,-0.30967727
alexnet_w3_mlp_simclrhn_probe0,1,211,NaN,airplane,airplane,c50,0211_cop_dnn_c50_airplane_10_n02690373_1350.png,n02690373_1350.png,1.0,6.1855307,-0.24509235,4.5471373
alexnet_w3_mlp_simclrhn_probe0,1,212,NaN,chair,chair,c03,0212_cop_dnn_c03_chair_10_n04099969_27865.png,n04099969_27865.png,1.0,-0.1960274,-0.5618282,0.25866023
alexnet_w3_mlp_simclrhn_probe0,1,213,NaN,knife,oven,c01,0213_cop_dnn_c01_oven_10_n04111531_22120.png,n04111531_22120.png,0.0,-0.20794366,-0.0549204,-0.10820378
alexnet_w3_mlp_simclrhn_probe0,1,214,NaN,elephant,elephant,c50,0214_cop_dnn_c50_elephant_10_n02504458_5600.png,n02504458_5600.png,1.0,0.51349425,-2.161984,1.8918488
alexnet_w3_mlp_simclrhn_probe0,1,215,NaN,knife,cat,c03,0215_cop_dnn_c03_cat_10_n02123597_11138.png,n02123597_11138.png,0.0,-0.7074788,-0.5441675,-0.11547853
alexnet_w3_mlp_simclrhn_probe0,1,216,NaN,bear,cat,c30,0216_cop_dnn_c30_cat_10_n02125311_5717.png,n02125311_5717.png,0.0,-1.7839972,-0.79073715,-0.7023409
alexnet_w3_mlp_simclrhn_probe0,1,217,NaN,chair,chair,c15,0217_cop_dnn_c15_chair_10_n02791124_11404.png,n02791124_11404.png,1.0,-1.019028,-1.310079,0.20580415
alexnet_w3_mlp_simclrhn_probe0,1,218,NaN,cat,cat,c100,0218_cop_dnn_c100_cat_10_n02123394_2984.png,n02123394_2984.png,1.0,-0.74008137,-1.6182661,0.62097037
alexnet_w3_mlp_simclrhn_probe0,1,219,NaN,airplane,dog,c10,0219_cop_dnn_c10_dog_10_n02087394_9693.png,n02087394_9693.png,0.0,-1.4629164,-0.9286996,-0.3777483
alexnet_w3_mlp_simclrhn_probe0,1,220,NaN,airplane,dog,c01,0220_cop_dnn_c01_dog_10_n02098105_2086.png,n02098105_2086.png,0.0,-0.6404326,-0.17960313,-0.32585564
alexnet_w3_mlp_simclrhn_probe0,1,221,NaN,elephant,cat,c10,0221_cop_dnn_c10_cat_10_n02123159_6932.png,n02123159_6932.png,0.0,-1.0021101,-0.7411727,-0.18451065
alexnet_w3_mlp_simclrhn_probe0,1,222,NaN,car,car,c15,0222_cop_dnn_c15_car_10_n04285008_8323.png,n04285008_8323.png,1.0,1.1658348,0.51728207,0.45859602
alexnet_w3_mlp_simclrhn_probe0,1,223,NaN,clock,truck,c01,0223_cop_dnn_c01_truck_10_n03796401_2226.png,n03796401_2226.png,0.0,-0.4152875,-0.09764022,-0.22461055
alexnet_w3_mlp_simclrhn_probe0,1,224,NaN,elephant,bear,c05,0224_cop_dnn_c05_bear_10_n02134084_6223.png,n02134084_6223.png,0.0,-0.30746818,-0.101068094,-0.1459469
alexnet_w3_mlp_simclrhn_probe0,1,225,NaN,cat,cat,c05,0225_cop_dnn_c05_cat_10_n02125311_22459.png,n02125311_22459.png,1.0,-0.4861699,-0.80977625,0.22882424
alexnet_w3_mlp_simclrhn_probe0,1,226,NaN,bicycle,bicycle,c10,0226_cop_dnn_c10_bicycle_10_n02835271_19143.png,n02835271_19143.png,1.0,0.07073583,-1.1177462,0.8403837
alexnet_w3_mlp_simclrhn_probe0,1,227,NaN,cat,cat,c10,0227_cop_dnn_c10_cat_10_n02123597_4357.png,n02123597_4357.png,1.0,-0.46782127,-1.3258749,0.6067356
alexnet_w3_mlp_simclrhn_probe0,1,228,NaN,airplane,boat,c03,0228_cop_dnn_c03_boat_10_n04273569_6180.png,n04273569_6180.png,0.0,0.07975241,0.12253245,-0.030250058
alexnet_w3_mlp_simclrhn_probe0,1,229,NaN,airplane,airplane,c100,0229_cop_dnn_c100_airplane_10_n02690373_139.png,n02690373_139.png,1.0,7.193714,-0.67907405,5.566902
alexnet_w3_mlp_simclrhn_probe0,1,230,NaN,elephant,bottle,c10,0230_cop_dnn_c10_bottle_10_n04557648_4165.png,n04557648_4165.png,0.0,-1.4951109,-0.9540696,-0.38257393
alexnet_w3_mlp_simclrhn_probe0,1,231,NaN,airplane,bottle,c50,0231_cop_dnn_c50_bottle_10_n04560804_5756.png,n04560804_5756.png,0.0,-1.2794343,-0.23005687,-0.7420219
alexnet_w3_mlp_simclrhn_probe0,1,232,NaN,truck,truck,c15,0232_cop_dnn_c15_truck_10_n04467665_39477.png,n04467665_39477.png,1.0,1.5528924,1.068262,0.3426855
alexnet_w3_mlp_simclrhn_probe0,1,233,NaN,airplane,cat,c01,0233_cop_dnn_c01_cat_10_n02123159_386.png,n02123159_386.png,0.0,-0.3730115,-0.15546894,-0.15382582
alexnet_w3_mlp_simclrhn_probe0,1,234,NaN,bear,bear,c15,0234_cop_dnn_c15_bear_10_n02134084_4859.png,n02134084_4859.png,1.0,-0.6877173,-0.9236941,0.16686077
alexnet_w3_mlp_simclrhn_probe0,1,235,NaN,airplane,dog,c03,0235_cop_dnn_c03_dog_10_n02099429_1992.png,n02099429_1992.png,0.0,-0.8684059,-0.3035279,-0.39942905
alexnet_w3_mlp_simclrhn_probe0,1,236,NaN,bear,oven,c03,0236_cop_dnn_c03_oven_10_n04111531_584.png,n04111531_584.png,0.0,-0.9152211,-0.2137687,-0.49600175
alexnet_w3_mlp_simclrhn_probe0,1,237,NaN,bottle,bottle,c05,0237_cop_dnn_c05_bottle_10_n04591713_4019.png,n04591713_4019.png,1.0,-0.11662684,-0.262904,0.10343357
alexnet_w3_mlp_simclrhn_probe0,1,238,NaN,bear,dog,c03,0238_cop_dnn_c03_dog_10_n02113712_4486.png,n02113712_4486.png,0.0,-0.72739655,-0.17419574,-0.39117208
alexnet_w3_mlp_simclrhn_probe0,1,239,NaN,clock,chair,c50,0239_cop_dnn_c50_chair_10_n03376595_13018.png,n03376595_13018.png,0.0,-3.5786273,-0.41998306,-2.2334988
alexnet_w3_mlp_simclrhn_probe0,1,240,NaN,oven,oven,c50,0240_cop_dnn_c50_oven_10_n04111531_7421.png,n04111531_7421.png,1.0,-0.038927544,-2.4992907,1.7397395
alexnet_w3_mlp_simclrhn_probe0,1,241,NaN,airplane,cat,c01,0241_cop_dnn_c01_cat_10_n02123045_10689.png,n02123045_10689.png,0.0,-0.42853776,-0.111817524,-0.22395504
alexnet_w3_mlp_simclrhn_probe0,1,242,NaN,clock,clock,c05,0242_cop_dnn_c05_clock_10_n02708093_4391.png,n02708093_4391.png,1.0,0.013354763,-0.18501295,0.14026716
alexnet_w3_mlp_simclrhn_probe0,1,243,NaN,clock,clock,c50,0243_cop_dnn_c50_clock_10_n02708093_3759.png,n02708093_3759.png,1.0,2.053426,-0.69326895,1.9422067
alexnet_w3_mlp_simclrhn_probe0,1,244,NaN,elephant,elephant,c05,0244_cop_dnn_c05_elephant_10_n02504013_648.png,n02504013_648.png,1.0,0.35392615,-0.57718277,0.65839344
alexnet_w3_mlp_simclrhn_probe0,1,245,NaN,airplane,bottle,c01,0245_cop_dnn_c01_bottle_10_n04591713_1879.png,n04591713_1879.png,0.0,-0.39503077,-0.1899596,-0.14500721
alexnet_w3_mlp_simclrhn_probe0,1,246,NaN,bear,dog,c01,0246_cop_dnn_c01_dog_10_n02110627_20194.png,n02110627_20194.png,0.0,-0.6337823,-0.23019831,-0.285377
alexnet_w3_mlp_simclrhn_probe0,1,247,NaN,truck,truck,c50,0247_cop_dnn_c50_truck_10_n03796401_13298.png,n03796401_13298.png,1.0,0.9239038,-0.6310076,1.0994884
alexnet_w3_mlp_simclrhn_probe0,1,248,NaN,keyboard,chair,c100,0248_cop_dnn_c100_chair_10_n03376595_7824.png,n03376595_7824.png,0.0,-3.8804207,1.5309696,-3.8264308
alexnet_w3_mlp_simclrhn_probe0,1,249,NaN,airplane,bear,c05,0249_cop_dnn_c05_bear_10_n02134418_6252.png,n02134418_6252.png,0.0,-0.61319387,-0.32299525,-0.20520142
alexnet_w3_mlp_simclrhn_probe0,1,250,NaN,bird,bird,c50,0250_cop_dnn_c50_bird_10_n01855032_1815.png,n01855032_1815.png,1.0,-1.5400727,-2.309791,0.54427314
alexnet_w3_mlp_simclrhn_probe0,1,251,NaN,car,car,c100,0251_cop_dnn_c100_car_10_n03100240_6773.png,n03100240_6773.png,1.0,4.7549424,-0.42233786,3.66089
alexnet_w3_mlp_simclrhn_probe0,1,252,NaN,clock,keyboard,c03,0252_cop_dnn_c03_keyboard_10_n03085013_22438.png,n03085013_22438.png,0.0,-0.54389113,-0.17166395,-0.26320437
alexnet_w3_mlp_simclrhn_probe0,1,253,NaN,keyboard,keyboard,c01,0253_cop_dnn_c01_keyboard_10_n04505470_4950.png,n04505470_4950.png,1.0,0.13127086,-0.042395722,0.12280082
alexnet_w3_mlp_simclrhn_probe0,1,254,NaN,airplane,truck,c03,0254_cop_dnn_c03_truck_10_n04467665_22358.png,n04467665_22358.png,0.0,-0.27799243,-0.01886458,-0.18323107
alexnet_w3_mlp_simclrhn_probe0,1,255,NaN,airplane,truck,c15,0255_cop_dnn_c15_truck_10_n04467665_67969.png,n04467665_67969.png,0.0,-1.0758368,0.1422286,-0.8613023
alexnet_w3_mlp_simclrhn_probe0,1,256,NaN,elephant,elephant,c10,0256_cop_dnn_c10_elephant_10_n02504013_2128.png,n02504013_2128.png,1.0,-0.13042799,-0.4566562,0.23067817
alexnet_w3_mlp_simclrhn_probe0,1,257,NaN,car,car,c30,0257_cop_dnn_c30_car_10_n03100240_3499.png,n03100240_3499.png,1.0,3.3322878,1.8258828,1.0651892
alexnet_w3_mlp_simclrhn_probe0,1,258,NaN,bear,bear,c50,0258_cop_dnn_c50_bear_10_n02134084_7250.png,n02134084_7250.png,1.0,-0.1531061,-1.0193605,0.6125344
alexnet_w3_mlp_simclrhn_probe0,1,259,NaN,bicycle,bicycle,c15,0259_cop_dnn_c15_bicycle_10_n03792782_43279.png,n03792782_43279.png,1.0,-1.0232264,-1.2653368,0.17119789
alexnet_w3_mlp_simclrhn_probe0,1,260,NaN,cat,cat,c50,0260_cop_dnn_c50_cat_10_n02123045_1274.png,n02123045_1274.png,1.0,-1.4731585,-2.556186,0.7658161
alexnet_w3_mlp_simclrhn_probe0,1,261,NaN,oven,oven,c100,0261_cop_dnn_c100_oven_10_n04111531_6567.png,n04111531_6567.png,1.0,4.596512,-3.4580343,5.6954246
alexnet_w3_mlp_simclrhn_probe0,1,262,NaN,oven,knife,c100,0262_cop_dnn_c100_knife_10_n03041632_86338.png,n03041632_86338.png,0.0,-3.9415529,-0.44780353,-2.470454
alexnet_w3_mlp_simclrhn_probe0,1,263,NaN,knife,chair,c15,0263_cop_dnn_c15_chair_10_n02791124_9757.png,n02791124_9757.png,0.0,-0.71298015,-0.6367239,-0.05392133
alexnet_w3_mlp_simclrhn_probe0,1,264,NaN,knife,knife,c15,0264_cop_dnn_c15_knife_10_n03041632_45090.png,n03041632_45090.png,1.0,0.3301245,-0.70735765,0.7336107
alexnet_w3_mlp_simclrhn_probe0,1,265,NaN,airplane,bicycle,c01,0265_cop_dnn_c01_bicycle_10_n02835271_1436.png,n02835271_1436.png,0.0,-0.5053619,-0.015101924,-0.3466662
alexnet_w3_mlp_simclrhn_probe0,1,266,NaN,airplane,bird,c03,0266_cop_dnn_c03_bird_10_n01798484_8189.png,n01798484_8189.png,0.0,-0.44719607,-0.095555104,-0.24864772
alexnet_w3_mlp_simclrhn_probe0,1,267,NaN,elephant,bird,c15,0267_cop_dnn_c15_bird_10_n01819313_1282.png,n01819313_1282.png,0.0,-1.5694348,-1.0673844,-0.35500324
alexnet_w3_mlp_simclrhn_probe0,1,268,NaN,bottle,bottle,c100,0268_cop_dnn_c100_bottle_10_n03983396_11519.png,n03983396_11519.png,1.0,0.25544912,-3.364077,2.5593915
alexnet_w3_mlp_simclrhn_probe0,1,269,NaN,boat,boat,c05,0269_cop_dnn_c05_boat_10_n03344393_7735.png,n03344393_7735.png,1.0,0.17056648,-0.26488692,0.30791208
alexnet_w3_mlp_simclrhn_probe0,1,270,NaN,bottle,bottle,c05,0270_cop_dnn_c05_bottle_10_n04560804_21795.png,n04560804_21795.png,1.0,-0.21921638,-0.737754,0.3666615
alexnet_w3_mlp_simclrhn_probe0,1,271,NaN,chair,chair,c30,0271_cop_dnn_c30_chair_10_n02791124_4109.png,n02791124_4109.png,1.0,-0.53386474,-0.9822714,0.31707138
alexnet_w3_mlp_simclrhn_probe0,1,272,NaN,keyboard,keyboard,c03,0272_cop_dnn_c03_keyboard_10_n04505470_9663.png,n04505470_9663.png,1.0,0.17267399,-0.1241887,0.20991363
alexnet_w3_mlp_simclrhn_probe0,1,273,NaN,knife,knife,c15,0273_cop_dnn_c15_knife_10_n03041632_27709.png,n03041632_27709.png,1.0,-0.113409445,-0.78709006,0.47636414
alexnet_w3_mlp_simclrhn_probe0,1,274,NaN,airplane,airplane,c50,0274_cop_dnn_c50_airplane_10_n02690373_8539.png,n02690373_8539.png,1.0,1.6367345,-1.4644943,2.1929
alexnet_w3_mlp_simclrhn_probe0,1,275,NaN,bear,bear,c15,0275_cop_dnn_c15_bear_10_n02134418_2175.png,n02134418_2175.png,1.0,0.14782476,-0.67100585,0.5790007
alexnet_w3_mlp_simclrhn_probe0,1,276,NaN,elephant,elephant,c50,0276_cop_dnn_c50_elephant_10_n02504458_2875.png,n02504458_2875.png,1.0,2.4853797,-2.441885,3.4841022
alexnet_w3_mlp_simclrhn_probe0,1,277,NaN,clock,chair,c03,0277_cop_dnn_c03_chair_10_n02791124_5868.png,n02791124_5868.png,0.0,-0.39437428,-0.23472051,-0.11289226
alexnet_w3_mlp_simclrhn_probe0,1,278,NaN,cat,cat,c10,0278_cop_dnn_c10_cat_10_n02123597_488.png,n02123597_488.png,1.0,-0.6970945,-1.3087319,0.43249297
alexnet_w3_mlp_simclrhn_probe0,1,279,NaN,bicycle,oven,c30,0279_cop_dnn_c30_oven_10_n04111531_6500.png,n04111531_6500.png,0.0,-1.8374692,-0.51107144,-0.9379049
alexnet_w3_mlp_simclrhn_probe0,1,280,NaN,bicycle,bicycle,c15,0280_cop_dnn_c15_bicycle_10_n03792782_13002.png,n03792782_13002.png,1.0,0.38564357,-1.2302451,1.1426059
alexnet_w3_mlp_simclrhn_probe0,1,281,NaN,clock,clock,c05,0281_cop_dnn_c05_clock_10_n03196217_10641.png,n03196217_10641.png,1.0,0.2513279,-0.18123785,0.30587018
alexnet_w3_mlp_simclrhn_probe0,1,282,NaN,bicycle,bicycle,c15,0282_cop_dnn_c15_bicycle_10_n03792782_20193.png,n03792782_20193.png,1.0,2.7378354,-0.5382269,2.316526
alexnet_w3_mlp_simclrhn_probe0,1,283,NaN,truck,truck,c05,0283_cop_dnn_c05_truck_10_n03417042_13806.png,n03417042_13806.png,1.0,0.018612243,-0.27277026,0.20603853
alexnet_w3_mlp_simclrhn_probe0,1,284,NaN,truck,truck,c05,0284_cop_dnn_c05_truck_10_n04467665_70237.png,n04467665_70237.png,1.0,-0.5554466,-0.7429193,0.13256322
alexnet_w3_mlp_simclrhn_probe0,1,285,NaN,clock,truck,c01,0285_cop_dnn_c01_truck_10_n04467665_3720.png,n04467665_3720.png,0.0,-0.6869493,-0.16205914,-0.3711534
alexnet_w3_mlp_simclrhn_probe0,1,286,NaN,bear,bear,c10,0286_cop_dnn_c10_bear_10_n02132136_8975.png,n02132136_8975.png,1.0,1.1409543,0.33061528,0.5729962
alexnet_w3_mlp_simclrhn_probe0,1,287,NaN,cat,knife,c05,0287_cop_dnn_c05_knife_10_n03041632_18859.png,n03041632_18859.png,0.0,-0.83178276,-0.8238701,-0.0055950787
alexnet_w3_mlp_simclrhn_probe0,1,288,NaN,elephant,bear,c50,0288_cop_dnn_c50_bear_10_n02132136_29760.png,n02132136_29760.png,0.0,0.18689755,1.1027378,-0.6475969
alexnet_w3_mlp_simclrhn_probe0,1,289,NaN,airplane,boat,c05,0289_cop_dnn_c05_boat_10_n04273569_6586.png,n04273569_6586.png,0.0,0.14310975,0.17450328,-0.022198576
alexnet_w3_mlp_simclrhn_probe0,1,290,NaN,bottle,bottle,c05,0290_cop_dnn_c05_bottle_10_n03983396_11137.png,n03983396_11137.png,1.0,0.024627013,-0.2933203,0.2248227
alexnet_w3_mlp_simclrhn_probe0,1,291,NaN,clock,clock,c10,0291_cop_dnn_c10_clock_10_n03196217_4232.png,n03196217_4232.png,1.0,-0.15013511,-0.33352616,0.12967706
alexnet_w3_mlp_simclrhn_probe0,1,292,NaN,airplane,clock,c01,0292_cop_dnn_c01_clock_10_n04548280_1325.png,n04548280_1325.png,0.0,-0.2692115,-0.050289508,-0.15480122
alexnet_w3_mlp_simclrhn_probe0,1,293,NaN,airplane,airplane,c100,0293_cop_dnn_c100_airplane_10_n02690373_2268.png,n02690373_2268.png,1.0,3.7627962,-2.004757,4.078276
alexnet_w3_mlp_simclrhn_probe0,1,294,NaN,bear,bicycle,c10,0294_cop_dnn_c10_bicycle_10_n03792782_14557.png,n03792782_14557.png,0.0,-0.6769401,-0.5877842,-0.06304275
alexnet_w3_mlp_simclrhn_probe0,1,295,NaN,airplane,cat,c01,0295_cop_dnn_c01_cat_10_n02124075_13792.png,n02124075_13792.png,0.0,-0.5209811,-0.06262248,-0.32410848
alexnet_w3_mlp_simclrhn_probe0,1,296,NaN,boat,dog,c01,0296_cop_dnn_c01_dog_10_n02110185_14953.png,n02110185_14953.png,0.0,-0.7184751,-0.26053208,-0.32381463
alexnet_w3_mlp_simclrhn_probe0,1,297,NaN,bottle,bottle,c15,0297_cop_dnn_c15_bottle_10_n04557648_1634.png,n04557648_1634.png,1.0,-0.50569254,-0.9375761,0.3053878
alexnet_w3_mlp_simclrhn_probe0,1,298,NaN,bicycle,bicycle,c50,0298_cop_dnn_c50_bicycle_10_n02835271_1701.png,n02835271_1701.png,1.0,1.2413616,-2.4304392,2.5963554
alexnet_w3_mlp_simclrhn_probe0,1,299,NaN,boat,boat,c05,0299_cop_dnn_c05_boat_10_n04273569_7312.png,n04273569_7312.png,1.0,0.3976074,-0.17339724,0.40376124
alexnet_w3_mlp_simclrhn_probe0,1,300,NaN,bird,bird,c100,0300_cop_dnn_c100_bird_10_n01616318_5417.png,n01616318_5417.png,1.0,-1.047372,-2.6087472,1.1040591
alexnet_w3_mlp_simclrhn_probe0,1,301,NaN,cat,cat,c15,0301_cop_dnn_c15_cat_10_n02123045_12200.png,n02123045_12200.png,1.0,0.6620177,-2.2004235,2.0240514
alexnet_w3_mlp_simclrhn_probe0,1,302,NaN,bear,dog,c30,0302_cop_dnn_c30_dog_10_n02102480_8264.png,n02102480_8264.png,0.0,-0.6036364,-0.35487816,-0.17589863
alexnet_w3_mlp_simclrhn_probe0,1,303,NaN,bicycle,bicycle,c30,0303_cop_dnn_c30_bicycle_10_n03792782_5426.png,n03792782_5426.png,1.0,-0.18796217,-2.155189,1.3910395
alexnet_w3_mlp_simclrhn_probe0,1,304,NaN,bottle,clock,c05,0304_cop_dnn_c05_clock_10_n02708093_8038.png,n02708093_8038.png,0.0,-0.62951213,-0.55063426,-0.055775076
alexnet_w3_mlp_simclrhn_probe0,1,305,NaN,bicycle,bicycle,c30,0305_cop_dnn_c30_bicycle_10_n02835271_2764.png,n02835271_2764.png,1.0,2.0717797,-1.119488,2.256567
alexnet_w3_mlp_simclrhn_probe0,1,306,NaN,knife,knife,c50,0306_cop_dnn_c50_knife_10_n03041632_39836.png,n03041632_39836.png,1.0,0.7703483,-0.68358994,1.0280896
alexnet_w3_mlp_simclrhn_probe0,1,307,NaN,clock,bicycle,c01,0307_cop_dnn_c01_bicycle_10_n03792782_19040.png,n03792782_19040.png,0.0,-0.54907763,-0.24975108,-0.21165583
alexnet_w3_mlp_simclrhn_probe0,1,308,NaN,bear,cat,c01,0308_cop_dnn_c01_cat_10_n02125311_28331.png,n02125311_28331.png,0.0,-0.5437817,-0.19773707,-0.24469051
alexnet_w3_mlp_simclrhn_probe0,1,309,NaN,clock,knife,c01,0309_cop_dnn_c01_knife_10_n03041632_18126.png,n03041632_18126.png,0.0,-0.1823523,-0.124300815,-0.0410486
alexnet_w3_mlp_simclrhn_probe0,1,310,NaN,bicycle,bicycle,c30,0310_cop_dnn_c30_bicycle_10_n03792782_19253.png,n03792782_19253.png,1.0,0.53681666,-0.8215082,0.96048075
alexnet_w3_mlp_simclrhn_probe0,1,311,NaN,airplane,bottle,c01,0311_cop_dnn_c01_bottle_10_n03983396_751.png,n03983396_751.png,0.0,-0.23986758,-0.1374033,-0.07245319
alexnet_w3_mlp_simclrhn_probe0,1,312,NaN,car,car,c15,0312_cop_dnn_c15_car_10_n04285008_628.png,n04285008_628.png,1.0,0.97278184,0.0685416,0.6393944
alexnet_w3_mlp_simclrhn_probe0,1,313,NaN,chair,boat,c15,0313_cop_dnn_c15_boat_10_n03662601_3011.png,n03662601_3011.png,0.0,-1.4047037,-0.65612483,-0.52932525
alexnet_w3_mlp_simclrhn_probe0,1,314,NaN,bottle,bottle,c10,0314_cop_dnn_c10_bottle_10_n04557648_2904.png,n04557648_2904.png,1.0,-0.4622434,-0.7684105,0.21649283
alexnet_w3_mlp_simclrhn_probe0,1,315,NaN,knife,bird,c10,0315_cop_dnn_c10_bird_10_n02002556_9804.png,n02002556_9804.png,0.0,-0.77382934,-0.73250353,-0.02922176
alexnet_w3_mlp_simclrhn_probe0,1,316,NaN,clock,truck,c05,0316_cop_dnn_c05_truck_10_n04467665_8955.png,n04467665_8955.png,0.0,-0.35078537,-0.27888325,-0.050842483
alexnet_w3_mlp_simclrhn_probe0,1,317,NaN,boat,boat,c03,0317_cop_dnn_c03_boat_10_n04612504_15061.png,n04612504_15061.png,1.0,0.004183358,-0.247103,0.17768629
alexnet_w3_mlp_simclrhn_probe0,1,318,NaN,airplane,bird,c05,0318_cop_dnn_c05_bird_10_n02002556_1437.png,n02002556_1437.png,0.0,-0.53734446,-0.4696469,-0.0478694
alexnet_w3_mlp_simclrhn_probe0,1,319,NaN,bicycle,truck,c50,0319_cop_dnn_c50_truck_10_n03417042_10993.png,n03417042_10993.png,0.0,-3.0118103,-1.8512007,-0.82067496
alexnet_w3_mlp_simclrhn_probe0,1,320,NaN,airplane,chair,c10,0320_cop_dnn_c10_chair_10_n02791124_880.png,n02791124_880.png,0.0,-0.5145417,-0.26635173,-0.1754968
alexnet_w3_mlp_simclrhn_probe0,1,321,NaN,bicycle,bicycle,c50,0321_cop_dnn_c50_bicycle_10_n03792782_4826.png,n03792782_4826.png,1.0,2.6291878,-0.45514634,2.1809535
alexnet_w3_mlp_simclrhn_probe0,1,322,NaN,chair,chair,c03,0322_cop_dnn_c03_chair_10_n04099969_3804.png,n04099969_3804.png,1.0,-0.38038877,-0.4975441,0.08284134
alexnet_w3_mlp_simclrhn_probe0,1,323,NaN,bottle,bottle,c10,0323_cop_dnn_c10_bottle_10_n02823428_2504.png,n02823428_2504.png,1.0,0.9229837,-0.649513,1.1119231
alexnet_w3_mlp_simclrhn_probe0,1,324,NaN,cat,cat,c10,0324_cop_dnn_c10_cat_10_n02124075_9716.png,n02124075_9716.png,1.0,-0.13722037,-0.7822726,0.4561208
alexnet_w3_mlp_simclrhn_probe0,1,325,NaN,clock,knife,c01,0325_cop_dnn_c01_knife_10_n03041632_81630.png,n03041632_81630.png,0.0,-0.42201227,-0.30565748,-0.082275264
alexnet_w3_mlp_simclrhn_probe0,1,326,NaN,bottle,bottle,c30,0326_cop_dnn_c30_bottle_10_n04591713_457.png,n04591713_457.png,1.0,0.5464025,-0.083165154,0.4451716
alexnet_w3_mlp_simclrhn_probe0,1,327,NaN,elephant,elephant,c30,0327_cop_dnn_c30_elephant_10_n02504458_5337.png,n02504458_5337.png,1.0,-0.35132092,-0.8553379,0.35639384
alexnet_w3_mlp_simclrhn_probe0,1,328,NaN,clock,clock,c15,0328_cop_dnn_c15_clock_10_n02708093_5429.png,n02708093_5429.png,1.0,0.6126954,-0.3278738,0.6650829
alexnet_w3_mlp_simclrhn_probe0,1,329,NaN,oven,oven,c100,0329_cop_dnn_c100_oven_10_n04111531_9411.png,n04111531_9411.png,1.0,-1.1372209,-2.0217502,0.6254567
alexnet_w3_mlp_simclrhn_probe0,1,330,NaN,airplane,knife,c01,0330_cop_dnn_c01_knife_10_n03041632_2338.png,n03041632_2338.png,0.0,-0.027611,0.11389523,-0.100060016
alexnet_w3_mlp_simclrhn_probe0,1,331,NaN,cat,cat,c100,0331_cop_dnn_c100_cat_10_n02123394_2755.png,n02123394_2755.png,1.0,-0.41816285,-2.1350381,1.2140142
alexnet_w3_mlp_simclrhn_probe0,1,332,NaN,elephant,elephant,c05,0332_cop_dnn_c05_elephant_10_n02504458_10243.png,n02504458_10243.png,1.0,-0.06929769,-0.1318829,0.04425443
alexnet_w3_mlp_simclrhn_probe0,1,333,NaN,oven,oven,c15,0333_cop_dnn_c15_oven_10_n04111531_1752.png,n04111531_1752.png,1.0,0.019622527,-0.7902996,0.5727014
alexnet_w3_mlp_simclrhn_probe0,1,334,NaN,airplane,bird,c05,0334_cop_dnn_c05_bird_10_n02037110_6736.png,n02037110_6736.png,0.0,-0.13354784,-0.021737814,-0.07906163
alexnet_w3_mlp_simclrhn_probe0,1,335,NaN,airplane,airplane,c10,0335_cop_dnn_c10_airplane_10_n02690373_8804.png,n02690373_8804.png,1.0,1.8332644,-0.093353726,1.3623247
alexnet_w3_mlp_simclrhn_probe0,1,336,NaN,elephant,elephant,c100,0336_cop_dnn_c100_elephant_10_n02504458_12217.png,n02504458_12217.png,1.0,-0.024182737,-2.026093,1.4155643
alexnet_w3_mlp_simclrhn_probe0,1,337,NaN,chair,knife,c15,0337_cop_dnn_c15_knife_10_n03041632_84012.png,n03041632_84012.png,0.0,-2.068726,-1.8929993,-0.124257594
alexnet_w3_mlp_simclrhn_probe0,1,338,NaN,dog,dog,c50,0338_cop_dnn_c50_dog_10_n02093991_6192.png,n02093991_6192.png,1.0,-1.4912552,-2.1436098,0.46128437
alexnet_w3_mlp_simclrhn_probe0,1,339,NaN,bird,bird,c50,0339_cop_dnn_c50_bird_10_n02027492_6499.png,n02027492_6499.png,1.0,0.17302863,-3.1580386,2.3554204
alexnet_w3_mlp_simclrhn_probe0,1,340,NaN,clock,knife,c10,0340_cop_dnn_c10_knife_10_n03041632_46185.png,n03041632_46185.png,0.0,-0.38405177,0.057097208,-0.31193942
alexnet_w3_mlp_simclrhn_probe0,1,341,NaN,boat,bear,c30,0341_cop_dnn_c30_bear_10_n02134084_14775.png,n02134084_14775.png,0.0,-1.0829513,-0.09165798,-0.7009502
alexnet_w3_mlp_simclrhn_probe0,1,342,NaN,truck,truck,c30,0342_cop_dnn_c30_truck_10_n03417042_5346.png,n03417042_5346.png,1.0,1.2447612,-0.408728,1.1691935
alexnet_w3_mlp_simclrhn_probe0,1,343,NaN,bear,dog,c30,0343_cop_dnn_c30_dog_10_n02093991_9672.png,n02093991_9672.png,0.0,-1.0774426,-0.68638784,-0.2765175
alexnet_w3_mlp_simclrhn_probe0,1,344,NaN,elephant,elephant,c100,0344_cop_dnn_c100_elephant_10_n02504458_2031.png,n02504458_2031.png,1.0,7.121107,-0.9476752,5.705491
alexnet_w3_mlp_simclrhn_probe0,1,345,NaN,bird,bird,c03,0345_cop_dnn_c03_bird_10_n02025239_660.png,n02025239_660.png,1.0,-0.2764202,-0.356587,0.05668648
alexnet_w3_mlp_simclrhn_probe0,1,346,NaN,airplane,elephant,c01,0346_cop_dnn_c01_elephant_10_n02504458_4244.png,n02504458_4244.png,0.0,-0.3180307,-0.11558385,-0.14315154
alexnet_w3_mlp_simclrhn_probe0,1,347,NaN,elephant,elephant,c30,0347_cop_dnn_c30_elephant_10_n02504013_7539.png,n02504013_7539.png,1.0,-0.0156127885,-0.6663774,0.4601601
alexnet_w3_mlp_simclrhn_probe0,1,348,NaN,bear,bird,c03,0348_cop_dnn_c03_bird_10_n02002724_5876.png,n02002724_5876.png,0.0,-0.7049708,-0.57102317,-0.09471527
alexnet_w3_mlp_simclrhn_probe0,1,349,NaN,bird,bird,c10,0349_cop_dnn_c10_bird_10_n01532829_560.png,n01532829_560.png,1.0,-0.7867231,-1.1689526,0.27027708
alexnet_w3_mlp_simclrhn_probe0,1,350,NaN,boat,boat,c30,0350_cop_dnn_c30_boat_10_n04273569_1709.png,n04273569_1709.png,1.0,0.78078,-0.62294495,0.9925834
alexnet_w3_mlp_simclrhn_probe0,1,351,NaN,bicycle,bicycle,c50,0351_cop_dnn_c50_bicycle_10_n02835271_7958.png,n02835271_7958.png,1.0,-2.160078,-2.6508596,0.34703496
alexnet_w3_mlp_simclrhn_probe0,1,352,NaN,elephant,bear,c30,0352_cop_dnn_c30_bear_10_n02133161_12157.png,n02133161_12157.png,0.0,-0.6794769,-0.23198247,-0.31642637
alexnet_w3_mlp_simclrhn_probe0,1,353,NaN,clock,chair,c01,0353_cop_dnn_c01_chair_10_n04099969_4577.png,n04099969_4577.png,0.0,-0.26709652,-0.16257231,-0.07390978
alexnet_w3_mlp_simclrhn_probe0,1,354,NaN,airplane,bicycle,c01,0354_cop_dnn_c01_bicycle_10_n02835271_10283.png,n02835271_10283.png,0.0,-0.56158495,-0.12515078,-0.30860555
alexnet_w3_mlp_simclrhn_probe0,1,355,NaN,car,truck,c100,0355_cop_dnn_c100_truck_10_n03417042_23815.png,n03417042_23815.png,0.0,-2.5295134,-1.206477,-0.935528
alexnet_w3_mlp_simclrhn_probe0,1,356,NaN,bear,bear,c03,0356_cop_dnn_c03_bear_10_n02133161_1059.png,n02133161_1059.png,1.0,-0.063306764,-0.3682426,0.21562219
alexnet_w3_mlp_simclrhn_probe0,1,357,NaN,airplane,chair,c01,0357_cop_dnn_c01_chair_10_n02791124_5173.png,n02791124_5173.png,0.0,-0.22389852,-0.104475126,-0.08444509
alexnet_w3_mlp_simclrhn_probe0,1,358,NaN,bottle,bottle,c30,0358_cop_dnn_c30_bottle_10_n03983396_5545.png,n03983396_5545.png,1.0,-0.5766098,-1.6825892,0.7820456
alexnet_w3_mlp_simclrhn_probe0,1,359,NaN,airplane,airplane,c01,0359_cop_dnn_c01_airplane_10_n02690373_1797.png,n02690373_1797.png,1.0,0.27893737,0.013779769,0.18749475
alexnet_w3_mlp_simclrhn_probe0,1,360,NaN,boat,oven,c05,0360_cop_dnn_c05_oven_10_n04111531_6628.png,n04111531_6628.png,0.0,-1.1129491,-0.5820744,-0.37538514
alexnet_w3_mlp_simclrhn_probe0,1,361,NaN,bear,elephant,c10,0361_cop_dnn_c10_elephant_10_n02504458_7817.png,n02504458_7817.png,0.0,-0.66372377,-0.4564361,-0.14657451
alexnet_w3_mlp_simclrhn_probe0,1,362,NaN,knife,knife,c50,0362_cop_dnn_c50_knife_10_n03041632_4714.png,n03041632_4714.png,1.0,-1.4690777,-1.8343529,0.25828853
alexnet_w3_mlp_simclrhn_probe0,1,363,NaN,elephant,bear,c03,0363_cop_dnn_c03_bear_10_n02134084_169.png,n02134084_169.png,0.0,-0.53522944,-0.5061585,-0.020556282
alexnet_w3_mlp_simclrhn_probe0,1,364,NaN,bird,bird,c15,0364_cop_dnn_c15_bird_10_n02013706_8336.png,n02013706_8336.png,1.0,0.2984755,-1.3251382,1.1480683
alexnet_w3_mlp_simclrhn_probe0,1,365,NaN,bottle,bottle,c15,0365_cop_dnn_c15_bottle_10_n04579145_6880.png,n04579145_6880.png,1.0,0.95597154,-0.1095505,0.7534379
alexnet_w3_mlp_simclrhn_probe0,1,366,NaN,bear,dog,c05,0366_cop_dnn_c05_dog_10_n02105641_416.png,n02105641_416.png,0.0,-0.8426582,-0.5956774,-0.17464183
alexnet_w3_mlp_simclrhn_probe0,1,367,NaN,airplane,airplane,c10,0367_cop_dnn_c10_airplane_10_n02690373_6549.png,n02690373_6549.png,1.0,-0.5297371,-0.8186517,0.20429344
alexnet_w3_mlp_simclrhn_probe0,1,368,NaN,clock,clock,c01,0368_cop_dnn_c01_clock_10_n04548280_2374.png,n04548280_2374.png,1.0,0.16681917,-0.30574504,0.33415338
alexnet_w3_mlp_simclrhn_probe0,1,369,NaN,bottle,bottle,c30,0369_cop_dnn_c30_bottle_10_n03983396_6287.png,n03983396_6287.png,1.0,-0.11038567,-0.35588127,0.17359161
alexnet_w3_mlp_simclrhn_probe0,1,370,NaN,airplane,dog,c01,0370_cop_dnn_c01_dog_10_n02090622_1126.png,n02090622_1126.png,0.0,-0.6890278,-0.1612572,-0.37319016
alexnet_w3_mlp_simclrhn_probe0,1,371,NaN,truck,truck,c50,0371_cop_dnn_c50_truck_10_n03796401_1681.png,n03796401_1681.png,1.0,2.264893,1.257103,0.7126152
alexnet_w3_mlp_simclrhn_probe0,1,372,NaN,elephant,elephant,c30,0372_cop_dnn_c30_elephant_10_n02504013_5537.png,n02504013_5537.png,1.0,2.637752,-0.9881452,2.5638964
alexnet_w3_mlp_simclrhn_probe0,1,373,NaN,keyboard,keyboard,c05,0373_cop_dnn_c05_keyboard_10_n03085013_12399.png,n03085013_12399.png,1.0,0.39272085,0.055566967,0.2384038
alexnet_w3_mlp_simclrhn_probe0,1,374,NaN,bottle,oven,c15,0374_cop_dnn_c15_oven_10_n04111531_6094.png,n04111531_6094.png,0.0,-0.116628215,-0.10359393,-0.009216631
alexnet_w3_mlp_simclrhn_probe0,1,375,NaN,airplane,airplane,c03,0375_cop_dnn_c03_airplane_10_n02690373_13604.png,n02690373_13604.png,1.0,0.45556384,-0.15069386,0.4286889
alexnet_w3_mlp_simclrhn_probe0,1,376,NaN,bear,bear,c100,0376_cop_dnn_c100_bear_10_n02134084_16084.png,n02134084_16084.png,1.0,3.1435044,0.6191274,1.785004
alexnet_w3_mlp_simclrhn_probe0,1,377,NaN,airplane,boat,c01,0377_cop_dnn_c01_boat_10_n04273569_15906.png,n04273569_15906.png,0.0,0.053483605,0.06901884,-0.010985071
alexnet_w3_mlp_simclrhn_probe0,1,378,NaN,chair,dog,c05,0378_cop_dnn_c05_dog_10_n02105162_8899.png,n02105162_8899.png,0.0,-0.7494637,-0.6762797,-0.05174887
alexnet_w3_mlp_simclrhn_probe0,1,379,NaN,bottle,oven,c03,0379_cop_dnn_c03_oven_10_n04111531_7619.png,n04111531_7619.png,0.0,-0.7215845,-0.60344553,-0.08353687
alexnet_w3_mlp_simclrhn_probe0,1,380,NaN,elephant,elephant,c05,0380_cop_dnn_c05_elephant_10_n02504458_1816.png,n02504458_1816.png,1.0,0.17364988,-0.9276469,0.77873445
alexnet_w3_mlp_simclrhn_probe0,1,381,NaN,cat,cat,c30,0381_cop_dnn_c30_cat_10_n02123045_3575.png,n02123045_3575.png,1.0,-0.72382927,-1.2921796,0.40188438
alexnet_w3_mlp_simclrhn_probe0,1,382,NaN,airplane,truck,c01,0382_cop_dnn_c01_truck_10_n03417042_908.png,n03417042_908.png,0.0,-0.7561781,-0.12915087,-0.4433752
alexnet_w3_mlp_simclrhn_probe0,1,383,NaN,boat,boat,c03,0383_cop_dnn_c03_boat_10_n03344393_4213.png,n03344393_4213.png,1.0,0.39406973,0.38661075,0.005274299
alexnet_w3_mlp_simclrhn_probe0,1,384,NaN,airplane,knife,c01,0384_cop_dnn_c01_knife_10_n03041632_31483.png,n03041632_31483.png,0.0,-0.10775509,-0.06921671,-0.027250746
alexnet_w3_mlp_simclrhn_probe0,1,385,NaN,airplane,bottle,c01,0385_cop_dnn_c01_bottle_10_n03937543_986.png,n03937543_986.png,0.0,-0.44241142,0.0002821479,-0.3130316
alexnet_w3_mlp_simclrhn_probe0,1,386,NaN,truck,truck,c15,0386_cop_dnn_c15_truck_10_n03796401_7381.png,n03796401_7381.png,1.0,1.917619,0.7839098,0.80165344
alexnet_w3_mlp_simclrhn_probe0,1,387,NaN,bear,dog,c03,0387_cop_dnn_c03_dog_10_n02094433_9787.png,n02094433_9787.png,0.0,-0.7706906,-0.37312788,-0.28111932
alexnet_w3_mlp_simclrhn_probe0,1,388,NaN,bird,bird,c30,0388_cop_dnn_c30_bird_10_n02011460_11838.png,n02011460_11838.png,1.0,-0.90918016,-1.7100265,0.5662839
alexnet_w3_mlp_simclrhn_probe0,1,389,NaN,cat,cat,c30,0389_cop_dnn_c30_cat_10_n02123597_29513.png,n02123597_29513.png,1.0,-0.29038343,-1.2755287,0.6966029
alexnet_w3_mlp_simclrhn_probe0,1,390,NaN,chair,chair,c10,0390_cop_dnn_c10_chair_10_n04429376_5337.png,n04429376_5337.png,1.0,-0.654827,-1.0001106,0.2441524
alexnet_w3_mlp_simclrhn_probe0,1,391,NaN,airplane,knife,c03,0391_cop_dnn_c03_knife_10_n03041632_4260.png,n03041632_4260.png,0.0,-0.44195682,-0.4245148,-0.012333369
alexnet_w3_mlp_simclrhn_probe0,1,392,NaN,keyboard,keyboard,c10,0392_cop_dnn_c10_keyboard_10_n04505470_4061.png,n04505470_4061.png,1.0,0.417282,-0.5800524,0.7052219
alexnet_w3_mlp_simclrhn_probe0,1,393,NaN,boat,boat,c15,0393_cop_dnn_c15_boat_10_n03344393_6467.png,n03344393_6467.png,1.0,0.47082162,-0.33638385,0.57078046
alexnet_w3_mlp_simclrhn_probe0,1,394,NaN,bicycle,bicycle,c100,0394_cop_dnn_c100_bicycle_10_n03792782_11297.png,n03792782_11297.png,1.0,0.83765614,-4.6778655,3.9000628
alexnet_w3_mlp_simclrhn_probe0,1,395,NaN,bird,bicycle,c03,0395_cop_dnn_c03_bicycle_10_n03792782_8357.png,n03792782_8357.png,0.0,-0.6292289,-0.5453488,-0.059312165
alexnet_w3_mlp_simclrhn_probe0,1,396,NaN,elephant,dog,c10,0396_cop_dnn_c10_dog_10_n02108422_2739.png,n02108422_2739.png,0.0,-1.221235,-1.0635583,-0.111494265
alexnet_w3_mlp_simclrhn_probe0,1,397,NaN,bear,bear,c03,0397_cop_dnn_c03_bear_10_n02134084_6840.png,n02134084_6840.png,1.0,-0.23719689,-0.29870847,0.043495253
alexnet_w3_mlp_simclrhn_probe0,1,398,NaN,elephant,bear,c30,0398_cop_dnn_c30_bear_10_n02133161_5365.png,n02133161_5365.png,0.0,-0.27628118,-0.2404527,-0.025334556
alexnet_w3_mlp_simclrhn_probe0,1,399,NaN,bottle,bottle,c30,0399_cop_dnn_c30_bottle_10_n04560804_1010.png,n04560804_1010.png,1.0,-1.2995766,-2.2259157,0.6550206
alexnet_w3_mlp_simclrhn_probe0,1,400,NaN,clock,clock,c10,0400_cop_dnn_c10_clock_10_n04548280_183.png,n04548280_183.png,1.0,-0.44348678,-0.83224726,0.27489516
alexnet_w3_mlp_simclrhn_probe0,1,401,NaN,keyboard,keyboard,c100,0401_cop_dnn_c100_keyboard_10_n03085013_21534.png,n03085013_21534.png,1.0,5.642083,-0.36935577,4.250729
alexnet_w3_mlp_simclrhn_probe0,1,402,NaN,chair,keyboard,c50,0402_cop_dnn_c50_keyboard_10_n03085013_24111.png,n03085013_24111.png,0.0,-1.0884156,0.35828394,-1.0229712
alexnet_w3_mlp_simclrhn_probe0,1,403,NaN,knife,knife,c15,0403_cop_dnn_c15_knife_10_n03041632_28009.png,n03041632_28009.png,1.0,-0.646547,-1.0870975,0.31151626
alexnet_w3_mlp_simclrhn_probe0,1,404,NaN,cat,cat,c50,0404_cop_dnn_c50_cat_10_n02123159_7647.png,n02123159_7647.png,1.0,-0.75229543,-1.1342962,0.27011532
alexnet_w3_mlp_simclrhn_probe0,1,405,NaN,airplane,bottle,c01,0405_cop_dnn_c01_bottle_10_n02823428_8696.png,n02823428_8696.png,0.0,-0.2866783,0.04109785,-0.23177275
alexnet_w3_mlp_simclrhn_probe0,1,406,NaN,elephant,elephant,c15,0406_cop_dnn_c15_elephant_10_n02504458_8923.png,n02504458_8923.png,1.0,-0.40155572,-1.2487295,0.5990423
alexnet_w3_mlp_simclrhn_probe0,1,407,NaN,airplane,bear,c01,0407_cop_dnn_c01_bear_10_n02134084_5031.png,n02134084_5031.png,0.0,-0.21804324,0.013993958,-0.16407508
alexnet_w3_mlp_simclrhn_probe0,1,408,NaN,elephant,dog,c50,0408_cop_dnn_c50_dog_10_n02097209_1658.png,n02097209_1658.png,0.0,-2.6061065,-1.1542113,-1.026645
alexnet_w3_mlp_simclrhn_probe0,1,409,NaN,elephant,dog,c05,0409_cop_dnn_c05_dog_10_n02099849_6384.png,n02099849_6384.png,0.0,-0.8421164,-0.41731536,-0.30037972
alexnet_w3_mlp_simclrhn_probe0,1,410,NaN,elephant,elephant,c15,0410_cop_dnn_c15_elephant_10_n02504013_3459.png,n02504013_3459.png,1.0,-0.6282687,-1.4724807,0.59694797
alexnet_w3_mlp_simclrhn_probe0,1,411,NaN,bottle,knife,c03,0411_cop_dnn_c03_knife_10_n03041632_36390.png,n03041632_36390.png,0.0,-0.49965686,-0.43476477,-0.045885634
alexnet_w3_mlp_simclrhn_probe0,1,412,NaN,knife,knife,c100,0412_cop_dnn_c100_knife_10_n03041632_10263.png,n03041632_10263.png,1.0,-1.4010493,-5.7934985,3.1059308
alexnet_w3_mlp_simclrhn_probe0,1,413,NaN,cat,cat,c03,0413_cop_dnn_c03_cat_10_n02123045_840.png,n02123045_840.png,1.0,-0.17592704,-0.61077553,0.30748433
alexnet_w3_mlp_simclrhn_probe0,1,414,NaN,clock,clock,c05,0414_cop_dnn_c05_clock_10_n04548280_4758.png,n04548280_4758.png,1.0,0.35544857,-0.34550148,0.49564654
alexnet_w3_mlp_simclrhn_probe0,1,415,NaN,bear,bear,c50,0415_cop_dnn_c50_bear_10_n02133161_1247.png,n02133161_1247.png,1.0,-1.1848357,-1.9455043,0.537874
alexnet_w3_mlp_simclrhn_probe0,1,416,NaN,airplane,airplane,c10,0416_cop_dnn_c10_airplane_10_n02690373_6716.png,n02690373_6716.png,1.0,1.3324795,0.094096564,0.875669
alexnet_w3_mlp_simclrhn_probe0,1,417,NaN,keyboard,keyboard,c30,0417_cop_dnn_c30_keyboard_10_n04505470_4893.png,n04505470_4893.png,1.0,0.6173364,-0.77794856,0.9866154
alexnet_w3_mlp_simclrhn_probe0,1,418,NaN,chair,chair,c30,0418_cop_dnn_c30_chair_10_n04099969_34525.png,n04099969_34525.png,1.0,0.25489935,-0.8698413,0.79531175
alexnet_w3_mlp_simclrhn_probe0,1,419,NaN,airplane,airplane,c01,0419_cop_dnn_c01_airplane_10_n02690373_4793.png,n02690373_4793.png,1.0,0.2328727,-0.096867636,0.23316164
alexnet_w3_mlp_simclrhn_probe0,1,420,NaN,bottle,knife,c15,0420_cop_dnn_c15_knife_10_n03041632_4787.png,n03041632_4787.png,0.0,-0.64836574,-0.44037622,-0.1470708
alexnet_w3_mlp_simclrhn_probe0,1,421,NaN,boat,boat,c05,0421_cop_dnn_c05_boat_10_n04273569_20587.png,n04273569_20587.png,1.0,0.3334914,0.08185129,0.17793645
alexnet_w3_mlp_simclrhn_probe0,1,422,NaN,boat,bicycle,c03,0422_cop_dnn_c03_bicycle_10_n03792782_4844.png,n03792782_4844.png,0.0,-0.41773832,-0.057857227,-0.25447437
alexnet_w3_mlp_simclrhn_probe0,1,423,NaN,airplane,cat,c01,0423_cop_dnn_c01_cat_10_n02123045_6066.png,n02123045_6066.png,0.0,-0.44678208,-0.18333226,-0.18628715
alexnet_w3_mlp_simclrhn_probe0,1,424,NaN,boat,boat,c30,0424_cop_dnn_c30_boat_10_n04273569_17045.png,n04273569_17045.png,1.0,2.0827138,0.24148248,1.3019472
alexnet_w3_mlp_simclrhn_probe0,1,425,NaN,keyboard,keyboard,c100,0425_cop_dnn_c100_keyboard_10_n04505470_5068.png,n04505470_5068.png,1.0,5.901127,1.7360914,2.9451246
alexnet_w3_mlp_simclrhn_probe0,1,426,NaN,airplane,airplane,c10,0426_cop_dnn_c10_airplane_10_n02690373_2724.png,n02690373_2724.png,1.0,1.3575656,-0.24731259,1.1348202
alexnet_w3_mlp_simclrhn_probe0,1,427,NaN,boat,boat,c10,0427_cop_dnn_c10_boat_10_n03662601_4844.png,n03662601_4844.png,1.0,1.2748821,-0.16450667,1.0178015
alexnet_w3_mlp_simclrhn_probe0,1,428,NaN,chair,chair,c100,0428_cop_dnn_c100_chair_10_n04099969_3929.png,n04099969_3929.png,1.0,3.21783,-1.1708226,3.1032462
alexnet_w3_mlp_simclrhn_probe0,1,429,NaN,oven,oven,c10,0429_cop_dnn_c10_oven_10_n04111531_9026.png,n04111531_9026.png,1.0,-0.20490828,-0.35125524,0.103482924
alexnet_w3_mlp_simclrhn_probe0,1,430,NaN,knife,knife,c15,0430_cop_dnn_c15_knife_10_n03041632_51225.png,n03041632_51225.png,1.0,0.3809448,0.085945785,0.2085958
alexnet_w3_mlp_simclrhn_probe0,1,431,NaN,bottle,boat,c10,0431_cop_dnn_c10_boat_10_n03344393_6638.png,n03344393_6638.png,0.0,-1.3744363,-1.2382994,-0.09626332
alexnet_w3_mlp_simclrhn_probe0,1,432,NaN,keyboard,knife,c30,0432_cop_dnn_c30_knife_10_n03041632_4590.png,n03041632_4590.png,0.0,-0.46529227,-0.39346853,-0.050787058
alexnet_w3_mlp_simclrhn_probe0,1,433,NaN,clock,clock,c03,0433_cop_dnn_c03_clock_10_n02708093_3761.png,n02708093_3761.png,1.0,-0.25943518,-0.5502051,0.2056054
alexnet_w3_mlp_simclrhn_probe0,1,434,NaN,boat,car,c03,0434_cop_dnn_c03_car_10_n04285008_3193.png,n04285008_3193.png,0.0,-0.7259609,-0.36185354,-0.2574628
alexnet_w3_mlp_simclrhn_probe0,1,435,NaN,knife,keyboard,c50,0435_cop_dnn_c50_keyboard_10_n03085013_661.png,n03085013_661.png,0.0,-3.7409818,-2.7094197,-0.72942454
alexnet_w3_mlp_simclrhn_probe0,1,436,NaN,bear,bottle,c03,0436_cop_dnn_c03_bottle_10_n04557648_2355.png,n04557648_2355.png,0.0,-0.6619622,-0.5006228,-0.114084184
alexnet_w3_mlp_simclrhn_probe0,1,437,NaN,truck,dog,c30,0437_cop_dnn_c30_dog_10_n02107312_860.png,n02107312_860.png,0.0,-3.3308754,-1.6601309,-1.1813948
alexnet_w3_mlp_simclrhn_probe0,1,438,NaN,boat,boat,c100,0438_cop_dnn_c100_boat_10_n02951358_1541.png,n02951358_1541.png,1.0,1.4300576,-2.8071978,2.9961922
alexnet_w3_mlp_simclrhn_probe0,1,439,NaN,boat,boat,c15,0439_cop_dnn_c15_boat_10_n02951358_4972.png,n02951358_4972.png,1.0,0.2857713,-0.32363865,0.4309179
alexnet_w3_mlp_simclrhn_probe0,1,440,NaN,bear,bear,c15,0440_cop_dnn_c15_bear_10_n02132136_6352.png,n02132136_6352.png,1.0,0.5052918,-0.5513517,0.7471598
alexnet_w3_mlp_simclrhn_probe0,1,441,NaN,knife,knife,c05,0441_cop_dnn_c05_knife_10_n03041632_27022.png,n03041632_27022.png,1.0,-0.27022603,-0.38210145,0.079107866
alexnet_w3_mlp_simclrhn_probe0,1,442,NaN,airplane,airplane,c15,0442_cop_dnn_c15_airplane_10_n02690373_10399.png,n02690373_10399.png,1.0,1.1093202,0.32171217,0.556923
alexnet_w3_mlp_simclrhn_probe0,1,443,NaN,keyboard,keyboard,c30,0443_cop_dnn_c30_keyboard_10_n04505470_4803.png,n04505470_4803.png,1.0,1.154125,-1.0188525,1.5365272
alexnet_w3_mlp_simclrhn_probe0,1,444,NaN,bottle,bottle,c03,0444_cop_dnn_c03_bottle_10_n03937543_4916.png,n03937543_4916.png,1.0,0.12650457,-0.38946363,0.36484462
alexnet_w3_mlp_simclrhn_probe0,1,445,NaN,elephant,dog,c10,0445_cop_dnn_c10_dog_10_n02092339_2268.png,n02092339_2268.png,0.0,-0.9276458,-0.25402826,-0.47631955
alexnet_w3_mlp_simclrhn_probe0,1,446,NaN,cat,cat,c100,0446_cop_dnn_c100_cat_10_n02123394_2034.png,n02123394_2034.png,1.0,-0.7676304,-3.8979416,2.2134643
alexnet_w3_mlp_simclrhn_probe0,1,447,NaN,clock,keyboard,c01,0447_cop_dnn_c01_keyboard_10_n03085013_24442.png,n03085013_24442.png,0.0,-0.1492798,-0.06107968,-0.062366907
alexnet_w3_mlp_simclrhn_probe0,1,448,NaN,airplane,bicycle,c03,0448_cop_dnn_c03_bicycle_10_n03792782_12908.png,n03792782_12908.png,0.0,-0.5788593,-0.08888554,-0.3464638
alexnet_w3_mlp_simclrhn_probe0,1,449,NaN,cat,cat,c50,0449_cop_dnn_c50_cat_10_n02124075_10241.png,n02124075_10241.png,1.0,2.777914,-2.461206,3.7046173
alexnet_w3_mlp_simclrhn_probe0,1,450,NaN,knife,keyboard,c03,0450_cop_dnn_c03_keyboard_10_n03085013_29941.png,n03085013_29941.png,0.0,-0.34861585,-0.24975178,-0.069907464
alexnet_w3_mlp_simclrhn_probe0,1,451,NaN,clock,car,c05,0451_cop_dnn_c05_car_10_n03100240_5718.png,n03100240_5718.png,0.0,-0.69881696,-0.47773036,-0.15633184
alexnet_w3_mlp_simclrhn_probe0,1,452,NaN,airplane,bear,c01,0452_cop_dnn_c01_bear_10_n02133161_789.png,n02133161_789.png,0.0,-0.22677612,-0.08812655,-0.09804006
alexnet_w3_mlp_simclrhn_probe0,1,453,NaN,chair,chair,c30,0453_cop_dnn_c30_chair_10_n04099969_9891.png,n04099969_9891.png,1.0,-0.5024428,-1.8376329,0.94412196
alexnet_w3_mlp_simclrhn_probe0,1,454,NaN,airplane,knife,c01,0454_cop_dnn_c01_knife_10_n03041632_8666.png,n03041632_8666.png,0.0,-0.26964545,-0.08059427,-0.13367938
alexnet_w3_mlp_simclrhn_probe0,1,455,NaN,car,car,c10,0455_cop_dnn_c10_car_10_n03100240_52.png,n03100240_52.png,1.0,-0.25257042,-0.41572404,0.11536703
alexnet_w3_mlp_simclrhn_probe0,1,456,NaN,boat,bird,c10,0456_cop_dnn_c10_bird_10_n02007558_45529.png,n02007558_45529.png,0.0,-0.6161413,-0.5036351,-0.07955391
alexnet_w3_mlp_simclrhn_probe0,1,457,NaN,airplane,airplane,c15,0457_cop_dnn_c15_airplane_10_n02690373_1933.png,n02690373_1933.png,1.0,0.47512466,0.053990863,0.29778656
alexnet_w3_mlp_simclrhn_probe0,1,458,NaN,airplane,elephant,c03,0458_cop_dnn_c03_elephant_10_n02504013_1879.png,n02504013_1879.png,0.0,-0.05412449,0.030312005,-0.059705615
alexnet_w3_mlp_simclrhn_probe0,1,459,NaN,car,car,c10,0459_cop_dnn_c10_car_10_n03100240_3373.png,n03100240_3373.png,1.0,0.21103086,-0.28689304,0.35208538
alexnet_w3_mlp_simclrhn_probe0,1,460,NaN,elephant,bicycle,c15,0460_cop_dnn_c15_bicycle_10_n03792782_7331.png,n03792782_7331.png,0.0,-1.1384492,-0.70209754,-0.30854723
alexnet_w3_mlp_simclrhn_probe0,1,461,NaN,knife,chair,c100,0461_cop_dnn_c100_chair_10_n03376595_11049.png,n03376595_11049.png,0.0,-3.8596606,-2.9493432,-0.64369166
alexnet_w3_mlp_simclrhn_probe0,1,462,NaN,knife,knife,c50,0462_cop_dnn_c50_knife_10_n03041632_37274.png,n03041632_37274.png,1.0,-1.3030099,-1.7750341,0.33377153
alexnet_w3_mlp_simclrhn_probe0,1,463,NaN,bottle,bottle,c15,0463_cop_dnn_c15_bottle_10_n02823428_780.png,n02823428_780.png,1.0,-0.065870926,-1.2040151,0.80478954
alexnet_w3_mlp_simclrhn_probe0,1,464,NaN,elephant,cat,c05,0464_cop_dnn_c05_cat_10_n02123045_390.png,n02123045_390.png,0.0,-0.87608767,-0.72463167,-0.10709556
alexnet_w3_mlp_simclrhn_probe0,1,465,NaN,bird,bird,c30,0465_cop_dnn_c30_bird_10_n01796340_10024.png,n01796340_10024.png,1.0,-1.4831587,-1.6753579,0.13590539
alexnet_w3_mlp_simclrhn_probe0,1,466,NaN,knife,knife,c05,0466_cop_dnn_c05_knife_10_n03041632_13509.png,n03041632_13509.png,1.0,0.11895676,0.057661057,0.04334261
alexnet_w3_mlp_simclrhn_probe0,1,467,NaN,airplane,bird,c05,0467_cop_dnn_c05_bird_10_n01534433_14198.png,n01534433_14198.png,0.0,-0.49568444,-0.299787,-0.1385204
alexnet_w3_mlp_simclrhn_probe0,1,468,NaN,airplane,chair,c100,0468_cop_dnn_c100_chair_10_n04099969_2502.png,n04099969_2502.png,0.0,-3.0407224,-1.690939,-0.954441
alexnet_w3_mlp_simclrhn_probe0,1,469,NaN,cat,cat,c05,0469_cop_dnn_c05_cat_10_n02123045_15474.png,n02123045_15474.png,1.0,-0.40805689,-0.7965342,0.27469495
alexnet_w3_mlp_simclrhn_probe0,1,470,NaN,clock,clock,c30,0470_cop_dnn_c30_clock_10_n02708093_442.png,n02708093_442.png,1.0,-0.58525306,-0.8818462,0.20972301
alexnet_w3_mlp_simclrhn_probe0,1,471,NaN,keyboard,boat,c100,0471_cop_dnn_c100_boat_10_n02951358_12663.png,n02951358_12663.png,0.0,-3.148621,0.87218267,-2.8431377
alexnet_w3_mlp_simclrhn_probe0,1,472,NaN,clock,cat,c05,0472_cop_dnn_c05_cat_10_n02125311_37322.png,n02125311_37322.png,0.0,-0.60028374,-0.3573309,-0.17179361
alexnet_w3_mlp_simclrhn_probe0,1,473,NaN,bicycle,bird,c100,0473_cop_dnn_c100_bird_10_n01558993_5185.png,n01558993_5185.png,0.0,-2.3057864,0.0063449778,-1.6349238
alexnet_w3_mlp_simclrhn_probe0,1,474,NaN,elephant,elephant,c100,0474_cop_dnn_c100_elephant_10_n02504013_7248.png,n02504013_7248.png,1.0,4.554147,-3.1337333,5.436152
alexnet_w3_mlp_simclrhn_probe0,1,475,NaN,airplane,bottle,c01,0475_cop_dnn_c01_bottle_10_n02823428_4245.png,n02823428_4245.png,0.0,-0.23876582,0.08141417,-0.22640145
alexnet_w3_mlp_simclrhn_probe0,1,476,NaN,chair,chair,c10,0476_cop_dnn_c10_chair_10_n04099969_8993.png,n04099969_8993.png,1.0,0.22506906,-0.42232442,0.4577763
alexnet_w3_mlp_simclrhn_probe0,1,477,NaN,dog,dog,c30,0477_cop_dnn_c30_dog_10_n02101388_8775.png,n02101388_8775.png,1.0,-0.6751939,-1.8228731,0.8115318
alexnet_w3_mlp_simclrhn_probe0,1,478,NaN,airplane,car,c01,0478_cop_dnn_c01_car_10_n02814533_3590.png,n02814533_3590.png,0.0,-0.65780103,-0.2658568,-0.27714643
alexnet_w3_mlp_simclrhn_probe0,1,479,NaN,elephant,elephant,c05,0479_cop_dnn_c05_elephant_10_n02504458_6018.png,n02504458_6018.png,1.0,0.2675578,-0.2481713,0.36467552
alexnet_w3_mlp_simclrhn_probe0,1,480,NaN,keyboard,keyboard,c100,0480_cop_dnn_c100_keyboard_10_n03085013_11332.png,n03085013_11332.png,1.0,10.401714,1.4877167,6.3031483
alexnet_w3_mlp_simclrhn_probe0,1,481,NaN,oven,oven,c05,0481_cop_dnn_c05_oven_10_n04111531_6863.png,n04111531_6863.png,1.0,-0.38398054,-0.6135348,0.16231938
alexnet_w3_mlp_simclrhn_probe0,1,482,NaN,airplane,airplane,c50,0482_cop_dnn_c50_airplane_10_n02690373_2675.png,n02690373_2675.png,1.0,1.5107286,0.42935467,0.7646468
alexnet_w3_mlp_simclrhn_probe0,1,483,NaN,clock,dog,c01,0483_cop_dnn_c01_dog_10_n02106550_660.png,n02106550_660.png,0.0,-0.7164103,-0.19333851,-0.3698676
alexnet_w3_mlp_simclrhn_probe0,1,484,NaN,knife,knife,c15,0484_cop_dnn_c15_knife_10_n03041632_11700.png,n03041632_11700.png,1.0,-0.07786308,-0.08219392,0.0030623637
alexnet_w3_mlp_simclrhn_probe0,1,485,NaN,bird,bird,c15,0485_cop_dnn_c15_bird_10_n02009229_6149.png,n02009229_6149.png,1.0,-0.71127874,-1.5828471,0.61629194
alexnet_w3_mlp_simclrhn_probe0,1,486,NaN,keyboard,clock,c30,0486_cop_dnn_c30_clock_10_n03196217_3780.png,n03196217_3780.png,0.0,0.53509945,0.867399,-0.23497126
alexnet_w3_mlp_simclrhn_probe0,1,487,NaN,bird,bird,c100,0487_cop_dnn_c100_bird_10_n01530575_34173.png,n01530575_34173.png,1.0,0.37802243,-5.727263,4.317089
alexnet_w3_mlp_simclrhn_probe0,1,488,NaN,bottle,bottle,c100,0488_cop_dnn_c100_bottle_10_n03983396_17803.png,n03983396_17803.png,1.0,6.179833,-4.4563785,7.5209374
alexnet_w3_mlp_simclrhn_probe0,1,489,NaN,boat,oven,c05,0489_cop_dnn_c05_oven_10_n04111531_2156.png,n04111531_2156.png,0.0,-0.6470812,-0.27096534,-0.26595408
alexnet_w3_mlp_simclrhn_probe0,1,490,NaN,elephant,elephant,c10,0490_cop_dnn_c10_elephant_10_n02504013_14948.png,n02504013_14948.png,1.0,1.2748032,-0.5395098,1.282913
alexnet_w3_mlp_simclrhn_probe0,1,491,NaN,airplane,boat,c01,0491_cop_dnn_c01_boat_10_n04273569_3112.png,n04273569_3112.png,0.0,-0.011084141,0.16359186,-0.123514585
alexnet_w3_mlp_simclrhn_probe0,1,492,NaN,bird,bird,c50,0492_cop_dnn_c50_bird_10_n01560419_6583.png,n01560419_6583.png,1.0,-1.0590112,-3.3743646,1.6372021
alexnet_w3_mlp_simclrhn_probe0,1,493,NaN,keyboard,keyboard,c50,0493_cop_dnn_c50_keyboard_10_n03085013_19161.png,n03085013_19161.png,1.0,0.27914894,-0.801734,0.76429963
alexnet_w3_mlp_simclrhn_probe0,1,494,NaN,airplane,bird,c05,0494_cop_dnn_c05_bird_10_n01616318_57023.png,n01616318_57023.png,0.0,-0.8293557,-0.37731534,-0.31964082
alexnet_w3_mlp_simclrhn_probe0,1,495,NaN,truck,truck,c50,0495_cop_dnn_c50_truck_10_n04467665_69176.png,n04467665_69176.png,1.0,-0.73459136,-0.9261202,0.13543135
alexnet_w3_mlp_simclrhn_probe0,1,496,NaN,car,car,c50,0496_cop_dnn_c50_car_10_n03100240_4971.png,n03100240_4971.png,1.0,4.6220927,2.6672924,1.3822526
alexnet_w3_mlp_simclrhn_probe0,1,497,NaN,airplane,oven,c01,0497_cop_dnn_c01_oven_10_n04111531_4901.png,n04111531_4901.png,0.0,-0.75211054,0.0031461697,-0.5340471
alexnet_w3_mlp_simclrhn_probe0,1,498,NaN,bear,bear,c30,0498_cop_dnn_c30_bear_10_n02133161_4091.png,n02133161_4091.png,1.0,1.1650122,0.17881393,0.6973475
alexnet_w3_mlp_simclrhn_probe0,1,499,NaN,bear,cat,c03,0499_cop_dnn_c03_cat_10_n02123394_4164.png,n02123394_4164.png,0.0,-0.4375712,-0.25043884,-0.13232256
alexnet_w3_mlp_simclrhn_probe0,1,500,NaN,boat,bird,c03,0500_cop_dnn_c03_bird_10_n02017213_689.png,n02017213_689.png,0.0,-0.2376931,-0.027502323,-0.14862733
alexnet_w3_mlp_simclrhn_probe0,1,501,NaN,dog,dog,c100,0501_cop_dnn_c100_dog_10_n02109047_14207.png,n02109047_14207.png,1.0,-1.9057063,-3.1883001,0.9069308
alexnet_w3_mlp_simclrhn_probe0,1,502,NaN,elephant,elephant,c05,0502_cop_dnn_c05_elephant_10_n02504013_8347.png,n02504013_8347.png,1.0,0.237899,-0.3873574,0.44212306
alexnet_w3_mlp_simclrhn_probe0,1,503,NaN,bottle,bottle,c30,0503_cop_dnn_c30_bottle_10_n04591713_1652.png,n04591713_1652.png,1.0,-0.4443474,-1.2440856,0.5655003
alexnet_w3_mlp_simclrhn_probe0,1,504,NaN,oven,oven,c15,0504_cop_dnn_c15_oven_10_n04111531_22403.png,n04111531_22403.png,1.0,-0.6002285,-1.0776104,0.33755997
alexnet_w3_mlp_simclrhn_probe0,1,505,NaN,airplane,airplane,c100,0505_cop_dnn_c100_airplane_10_n02690373_6046.png,n02690373_6046.png,1.0,14.361391,-3.1066818,12.351793
alexnet_w3_mlp_simclrhn_probe0,1,506,NaN,bear,bear,c15,0506_cop_dnn_c15_bear_10_n02134084_1689.png,n02134084_1689.png,1.0,-0.4486988,-0.5005349,0.03665366
alexnet_w3_mlp_simclrhn_probe0,1,507,NaN,oven,oven,c30,0507_cop_dnn_c30_oven_10_n04111531_14269.png,n04111531_14269.png,1.0,1.506107,-0.38012946,1.3337706
alexnet_w3_mlp_simclrhn_probe0,1,508,NaN,cat,cat,c100,0508_cop_dnn_c100_cat_10_n02123597_9444.png,n02123597_9444.png,1.0,1.534728,-1.4114208,2.083242
alexnet_w3_mlp_simclrhn_probe0,1,509,NaN,bear,bear,c10,0509_cop_dnn_c10_bear_10_n02134418_128.png,n02134418_128.png,1.0,0.9114841,0.25129288,0.46682572
alexnet_w3_mlp_simclrhn_probe0,1,510,NaN,airplane,airplane,c30,0510_cop_dnn_c30_airplane_10_n02690373_8789.png,n02690373_8789.png,1.0,4.3598547,0.45740786,2.7594466
alexnet_w3_mlp_simclrhn_probe0,1,511,NaN,airplane,bottle,c01,0511_cop_dnn_c01_bottle_10_n03937543_10092.png,n03937543_10092.png,0.0,-0.42400032,0.011429634,-0.30789548
alexnet_w3_mlp_simclrhn_probe0,1,512,NaN,clock,clock,c03,0512_cop_dnn_c03_clock_10_n02708093_7257.png,n02708093_7257.png,1.0,0.3073825,-0.10865898,0.29418576
alexnet_w3_mlp_simclrhn_probe0,1,513,NaN,bear,bear,c100,0513_cop_dnn_c100_bear_10_n02134084_21207.png,n02134084_21207.png,1.0,-0.83962166,-2.051452,0.8568934
alexnet_w3_mlp_simclrhn_probe0,1,514,NaN,bird,bird,c05,0514_cop_dnn_c05_bird_10_n01797886_12811.png,n01797886_12811.png,1.0,-0.46594492,-0.8625554,0.28044596
alexnet_w3_mlp_simclrhn_probe0,1,515,NaN,airplane,oven,c01,0515_cop_dnn_c01_oven_10_n04111531_21248.png,n04111531_21248.png,0.0,-0.9111292,-0.09604497,-0.5763516
alexnet_w3_mlp_simclrhn_probe0,1,516,NaN,elephant,dog,c15,0516_cop_dnn_c15_dog_10_n02090379_5574.png,n02090379_5574.png,0.0,-1.3867286,-0.7864883,-0.42443404
alexnet_w3_mlp_simclrhn_probe0,1,517,NaN,car,car,c15,0517_cop_dnn_c15_car_10_n04285008_8443.png,n04285008_8443.png,1.0,1.2609992,0.06308305,0.84705466
alexnet_w3_mlp_simclrhn_probe0,1,518,NaN,car,car,c100,0518_cop_dnn_c100_car_10_n03100240_15647.png,n03100240_15647.png,1.0,4.1037617,2.7388377,0.965147
alexnet_w3_mlp_simclrhn_probe0,1,519,NaN,chair,chair,c50,0519_cop_dnn_c50_chair_10_n02791124_5824.png,n02791124_5824.png,1.0,-0.19939603,-1.4233145,0.865441
alexnet_w3_mlp_simclrhn_probe0,1,520,NaN,boat,bear,c05,0520_cop_dnn_c05_bear_10_n02133161_9949.png,n02133161_9949.png,0.0,-0.31526178,-0.24336031,-0.050842017
alexnet_w3_mlp_simclrhn_probe0,1,521,NaN,elephant,elephant,c03,0521_cop_dnn_c03_elephant_10_n02504458_5320.png,n02504458_5320.png,1.0,-0.38052166,-0.47186708,0.064590976
alexnet_w3_mlp_simclrhn_probe0,1,522,NaN,airplane,keyboard,c01,0522_cop_dnn_c01_keyboard_10_n04505470_1904.png,n04505470_1904.png,0.0,-0.3984055,-0.07726873,-0.22707799
alexnet_w3_mlp_simclrhn_probe0,1,523,NaN,oven,oven,c100,0523_cop_dnn_c100_oven_10_n04111531_4685.png,n04111531_4685.png,1.0,3.970882,-5.3685474,6.6039743
alexnet_w3_mlp_simclrhn_probe0,1,524,NaN,truck,truck,c05,0524_cop_dnn_c05_truck_10_n03417042_2230.png,n03417042_2230.png,1.0,0.0044295304,-0.33835387,0.24238446
alexnet_w3_mlp_simclrhn_probe0,1,525,NaN,knife,bottle,c15,0525_cop_dnn_c15_bottle_10_n04591713_6842.png,n04591713_6842.png,0.0,-0.77923954,-0.750895,-0.020042596
alexnet_w3_mlp_simclrhn_probe0,1,526,NaN,boat,boat,c50,0526_cop_dnn_c50_boat_10_n02951358_8285.png,n02951358_8285.png,1.0,-1.4647624,-1.7601027,0.20883714
alexnet_w3_mlp_simclrhn_probe0,1,527,NaN,airplane,knife,c01,0527_cop_dnn_c01_knife_10_n03041632_48675.png,n03041632_48675.png,0.0,-0.2035711,0.01471844,-0.15435402
alexnet_w3_mlp_simclrhn_probe0,1,528,NaN,airplane,oven,c01,0528_cop_dnn_c01_oven_10_n04111531_14435.png,n04111531_14435.png,0.0,-0.9029819,-0.18661943,-0.50654477
alexnet_w3_mlp_simclrhn_probe0,1,529,NaN,cat,cat,c50,0529_cop_dnn_c50_cat_10_n02123159_8273.png,n02123159_8273.png,1.0,-0.046000343,-3.4247198,2.3891156
alexnet_w3_mlp_simclrhn_probe0,1,530,NaN,bird,bird,c50,0530_cop_dnn_c50_bird_10_n01614925_1908.png,n01614925_1908.png,1.0,-1.7391982,-2.267523,0.3735821
alexnet_w3_mlp_simclrhn_probe0,1,531,NaN,knife,knife,c05,0531_cop_dnn_c05_knife_10_n03041632_96345.png,n03041632_96345.png,1.0,-0.7509738,-0.80886644,0.040936265
alexnet_w3_mlp_simclrhn_probe0,1,532,NaN,knife,knife,c10,0532_cop_dnn_c10_knife_10_n03041632_31037.png,n03041632_31037.png,1.0,-0.45668516,-1.0305952,0.40581566
alexnet_w3_mlp_simclrhn_probe0,1,533,NaN,airplane,airplane,c50,0533_cop_dnn_c50_airplane_10_n02690373_1436.png,n02690373_1436.png,1.0,2.3584816,-0.20796157,1.8147495
alexnet_w3_mlp_simclrhn_probe0,1,534,NaN,chair,chair,c100,0534_cop_dnn_c100_chair_10_n04099969_28072.png,n04099969_28072.png,1.0,0.78316027,-2.0084245,1.9739485
alexnet_w3_mlp_simclrhn_probe0,1,535,NaN,boat,boat,c01,0535_cop_dnn_c01_boat_10_n04612504_19983.png,n04612504_19983.png,1.0,-0.0680033,-0.10741123,0.027865617
alexnet_w3_mlp_simclrhn_probe0,1,536,NaN,oven,oven,c15,0536_cop_dnn_c15_oven_10_n04111531_8255.png,n04111531_8255.png,1.0,-0.60993433,-0.69515264,0.060258444
alexnet_w3_mlp_simclrhn_probe0,1,537,NaN,elephant,bear,c15,0537_cop_dnn_c15_bear_10_n02132136_1574.png,n02132136_1574.png,0.0,-0.34785068,-0.08069113,-0.18891034
alexnet_w3_mlp_simclrhn_probe0,1,538,NaN,boat,boat,c100,0538_cop_dnn_c100_boat_10_n04273569_24747.png,n04273569_24747.png,1.0,-1.2218151,-3.8013706,1.8240212
alexnet_w3_mlp_simclrhn_probe0,1,539,NaN,dog,dog,c30,0539_cop_dnn_c30_dog_10_n02113799_18413.png,n02113799_18413.png,1.0,-1.7684408,-2.1447208,0.2660701
alexnet_w3_mlp_simclrhn_probe0,1,540,NaN,boat,boat,c15,0540_cop_dnn_c15_boat_10_n04273569_28333.png,n04273569_28333.png,1.0,0.90476733,-0.6068823,1.0688977
alexnet_w3_mlp_simclrhn_probe0,1,541,NaN,clock,bird,c01,0541_cop_dnn_c01_bird_10_n02017213_2183.png,n02017213_2183.png,0.0,-0.36559576,-0.21522017,-0.1063316
alexnet_w3_mlp_simclrhn_probe0,1,542,NaN,boat,boat,c50,0542_cop_dnn_c50_boat_10_n04273569_26139.png,n04273569_26139.png,1.0,1.7409716,0.6733662,0.754911
alexnet_w3_mlp_simclrhn_probe0,1,543,NaN,knife,knife,c03,0543_cop_dnn_c03_knife_10_n03041632_29684.png,n03041632_29684.png,1.0,-0.040792212,-0.041638006,0.0005980664
alexnet_w3_mlp_simclrhn_probe0,1,544,NaN,boat,boat,c100,0544_cop_dnn_c100_boat_10_n02951358_3087.png,n02951358_3087.png,1.0,-2.602766,-2.8955817,0.20705196
alexnet_w3_mlp_simclrhn_probe0,1,545,NaN,keyboard,keyboard,c15,0545_cop_dnn_c15_keyboard_10_n03085013_13615.png,n03085013_13615.png,1.0,0.70151526,0.22047718,0.3401453
alexnet_w3_mlp_simclrhn_probe0,1,546,NaN,boat,oven,c03,0546_cop_dnn_c03_oven_10_n04111531_1778.png,n04111531_1778.png,0.0,-0.6518434,-0.41966915,-0.16417201
alexnet_w3_mlp_simclrhn_probe0,1,547,NaN,bear,dog,c03,0547_cop_dnn_c03_dog_10_n02097474_9129.png,n02097474_9129.png,0.0,-0.7326739,-0.36472952,-0.26017594
alexnet_w3_mlp_simclrhn_probe0,1,548,NaN,bird,bird,c30,0548_cop_dnn_c30_bird_10_n02013706_19220.png,n02013706_19220.png,1.0,0.52188337,-2.056719,1.8233472
alexnet_w3_mlp_simclrhn_probe0,1,549,NaN,clock,clock,c100,0549_cop_dnn_c100_clock_10_n03196217_7199.png,n03196217_7199.png,1.0,2.50447,2.2612789,0.17196219
alexnet_w3_mlp_simclrhn_probe0,1,550,NaN,bear,bear,c50,0550_cop_dnn_c50_bear_10_n02132136_27823.png,n02132136_27823.png,1.0,2.1433225,1.4065784,0.5209567
alexnet_w3_mlp_simclrhn_probe0,1,551,NaN,boat,boat,c03,0551_cop_dnn_c03_boat_10_n03662601_6462.png,n03662601_6462.png,1.0,-0.15303686,-0.38884076,0.16673854
alexnet_w3_mlp_simclrhn_probe0,1,552,NaN,bottle,knife,c15,0552_cop_dnn_c15_knife_10_n03041632_11773.png,n03041632_11773.png,0.0,-1.2182171,-0.8192287,-0.28212744
alexnet_w3_mlp_simclrhn_probe0,1,553,NaN,clock,clock,c01,0553_cop_dnn_c01_clock_10_n02708093_7998.png,n02708093_7998.png,1.0,0.10872519,-0.104907274,0.15106097
alexnet_w3_mlp_simclrhn_probe0,1,554,NaN,elephant,elephant,c30,0554_cop_dnn_c30_elephant_10_n02504458_3409.png,n02504458_3409.png,1.0,2.586731,-1.0530407,2.5737073
alexnet_w3_mlp_simclrhn_probe0,1,555,NaN,clock,bottle,c01,0555_cop_dnn_c01_bottle_10_n04560804_24166.png,n04560804_24166.png,0.0,-0.32500917,-0.24591912,-0.05592511
alexnet_w3_mlp_simclrhn_probe0,1,556,NaN,bear,cat,c15,0556_cop_dnn_c15_cat_10_n02125311_17613.png,n02125311_17613.png,0.0,-0.5423642,-0.33295357,-0.14807567
alexnet_w3_mlp_simclrhn_probe0,1,557,NaN,airplane,bicycle,c05,0557_cop_dnn_c05_bicycle_10_n03792782_5284.png,n03792782_5284.png,0.0,-0.56589204,-0.54379046,-0.015628178
alexnet_w3_mlp_simclrhn_probe0,1,558,NaN,chair,oven,c10,0558_cop_dnn_c10_oven_10_n04111531_13006.png,n04111531_13006.png,0.0,-0.565238,-0.54628724,-0.013400211
alexnet_w3_mlp_simclrhn_probe0,1,559,NaN,oven,oven,c10,0559_cop_dnn_c10_oven_10_n04111531_8309.png,n04111531_8309.png,1.0,-0.2314654,-0.60617197,0.26495755
alexnet_w3_mlp_simclrhn_probe0,1,560,NaN,clock,clock,c10,0560_cop_dnn_c10_clock_10_n04548280_8390.png,n04548280_8390.png,1.0,-0.8222186,-1.0037049,0.1283302
alexnet_w3_mlp_simclrhn_probe0,1,561,NaN,truck,truck,c50,0561_cop_dnn_c50_truck_10_n04467665_7110.png,n04467665_7110.png,1.0,1.2264451,-1.1558892,1.6845647
alexnet_w3_mlp_simclrhn_probe0,1,562,NaN,clock,clock,c10,0562_cop_dnn_c10_clock_10_n03196217_8020.png,n03196217_8020.png,1.0,-0.16762774,-0.24136436,0.052139666
alexnet_w3_mlp_simclrhn_probe0,1,563,NaN,elephant,elephant,c100,0563_cop_dnn_c100_elephant_10_n02504458_7955.png,n02504458_7955.png,1.0,7.813059,-0.71829426,6.0325775
alexnet_w3_mlp_simclrhn_probe0,1,564,NaN,airplane,elephant,c01,0564_cop_dnn_c01_elephant_10_n02504458_1022.png,n02504458_1022.png,0.0,-0.31178987,-0.12630081,-0.13116057
alexnet_w3_mlp_simclrhn_probe0,1,565,NaN,clock,clock,c100,0565_cop_dnn_c100_clock_10_n04548280_2383.png,n04548280_2383.png,1.0,1.8463463,-0.4180801,1.6011912
alexnet_w3_mlp_simclrhn_probe0,1,566,NaN,bird,bird,c50,0566_cop_dnn_c50_bird_10_n02002724_7019.png,n02002724_7019.png,1.0,0.62763065,-2.6132247,2.291631
alexnet_w3_mlp_simclrhn_probe0,1,567,NaN,cat,cat,c100,0567_cop_dnn_c100_cat_10_n02125311_1127.png,n02125311_1127.png,1.0,-1.6712223,-3.321194,1.1667061
alexnet_w3_mlp_simclrhn_probe0,1,568,NaN,bottle,bicycle,c05,0568_cop_dnn_c05_bicycle_10_n02835271_6481.png,n02835271_6481.png,0.0,-1.2068484,-0.8061174,-0.2833596
alexnet_w3_mlp_simclrhn_probe0,1,569,NaN,car,car,c15,0569_cop_dnn_c15_car_10_n04285008_5208.png,n04285008_5208.png,1.0,0.55777943,0.2756027,0.19952908
alexnet_w3_mlp_simclrhn_probe0,1,570,NaN,keyboard,oven,c50,0570_cop_dnn_c50_oven_10_n04111531_8658.png,n04111531_8658.png,0.0,-0.8074094,-0.52003336,-0.20320556
alexnet_w3_mlp_simclrhn_probe0,1,571,NaN,bottle,bottle,c05,0571_cop_dnn_c05_bottle_10_n04579145_2910.png,n04579145_2910.png,1.0,-0.41689986,-0.5595823,0.10089172
alexnet_w3_mlp_simclrhn_probe0,1,572,NaN,airplane,truck,c01,0572_cop_dnn_c01_truck_10_n04467665_22414.png,n04467665_22414.png,0.0,-0.5422181,-0.057825606,-0.34251723
alexnet_w3_mlp_simclrhn_probe0,1,573,NaN,elephant,elephant,c15,0573_cop_dnn_c15_elephant_10_n02504013_5439.png,n02504013_5439.png,1.0,0.05580376,-0.17908463,0.16609117
alexnet_w3_mlp_simclrhn_probe0,1,574,NaN,cat,cat,c10,0574_cop_dnn_c10_cat_10_n02123159_5945.png,n02123159_5945.png,1.0,-0.05744985,-1.3511811,0.9148062
alexnet_w3_mlp_simclrhn_probe0,1,575,NaN,bottle,bottle,c10,0575_cop_dnn_c10_bottle_10_n04557648_2426.png,n04557648_2426.png,1.0,0.015429969,-0.20526999,0.15605845
alexnet_w3_mlp_simclrhn_probe0,1,576,NaN,bicycle,bicycle,c05,0576_cop_dnn_c05_bicycle_10_n03792782_38641.png,n03792782_38641.png,1.0,0.007887527,-0.6944377,0.49661893
alexnet_w3_mlp_simclrhn_probe0,1,577,NaN,cat,dog,c30,0577_cop_dnn_c30_dog_10_n02110958_15843.png,n02110958_15843.png,0.0,-2.4514697,-1.973986,-0.3376319
alexnet_w3_mlp_simclrhn_probe0,1,578,NaN,keyboard,keyboard,c15,0578_cop_dnn_c15_keyboard_10_n04505470_5161.png,n04505470_5161.png,1.0,1.4033766,-0.6307474,1.4383428
alexnet_w3_mlp_simclrhn_probe0,1,579,NaN,airplane,airplane,c30,0579_cop_dnn_c30_airplane_10_n02690373_8350.png,n02690373_8350.png,1.0,2.3060231,0.026609922,1.6117886
alexnet_w3_mlp_simclrhn_probe0,1,580,NaN,airplane,bicycle,c05,0580_cop_dnn_c05_bicycle_10_n03792782_10129.png,n03792782_10129.png,0.0,-0.5627816,-0.23669097,-0.23058088
alexnet_w3_mlp_simclrhn_probe0,1,581,NaN,car,car,c100,0581_cop_dnn_c100_car_10_n02814533_26369.png,n02814533_26369.png,1.0,-1.9259068,-3.835274,1.3501265
alexnet_w3_mlp_simclrhn_probe0,1,582,NaN,oven,oven,c10,0582_cop_dnn_c10_oven_10_n04111531_10077.png,n04111531_10077.png,1.0,0.52353805,-0.48923627,0.7161396
alexnet_w3_mlp_simclrhn_probe0,1,583,NaN,airplane,oven,c01,0583_cop_dnn_c01_oven_10_n04111531_12702.png,n04111531_12702.png,0.0,-0.47915998,-0.17049907,-0.21825624
alexnet_w3_mlp_simclrhn_probe0,1,584,NaN,clock,clock,c100,0584_cop_dnn_c100_clock_10_n03196217_8618.png,n03196217_8618.png,1.0,-0.120447636,-0.6332618,0.3626144
alexnet_w3_mlp_simclrhn_probe0,1,585,NaN,bottle,bottle,c10,0585_cop_dnn_c10_bottle_10_n03983396_4227.png,n03983396_4227.png,1.0,-0.27134624,-0.68427193,0.29198256
alexnet_w3_mlp_simclrhn_probe0,1,586,NaN,bottle,bottle,c30,0586_cop_dnn_c30_bottle_10_n03983396_9090.png,n03983396_9090.png,1.0,-0.31060508,-0.7311411,0.29736388
alexnet_w3_mlp_simclrhn_probe0,1,587,NaN,bear,bear,c100,0587_cop_dnn_c100_bear_10_n02133161_223.png,n02133161_223.png,1.0,0.44193834,-0.8777241,0.9331423
alexnet_w3_mlp_simclrhn_probe0,1,588,NaN,keyboard,keyboard,c50,0588_cop_dnn_c50_keyboard_10_n04505470_1047.png,n04505470_1047.png,1.0,1.8900989,-1.5200125,2.411313
alexnet_w3_mlp_simclrhn_probe0,1,589,NaN,elephant,elephant,c03,0589_cop_dnn_c03_elephant_10_n02504013_7467.png,n02504013_7467.png,1.0,-0.40895805,-0.43228394,0.016493896
alexnet_w3_mlp_simclrhn_probe0,1,590,NaN,elephant,elephant,c30,0590_cop_dnn_c30_elephant_10_n02504013_476.png,n02504013_476.png,1.0,0.6134654,-1.0534039,1.1786546
alexnet_w3_mlp_simclrhn_probe0,1,591,NaN,chair,chair,c100,0591_cop_dnn_c100_chair_10_n02791124_12707.png,n02791124_12707.png,1.0,-0.5290673,-1.367049,0.5925425
alexnet_w3_mlp_simclrhn_probe0,1,592,NaN,airplane,bird,c01,0592_cop_dnn_c01_bird_10_n01537544_22049.png,n01537544_22049.png,0.0,-0.18020535,-0.1750764,-0.0036267154
alexnet_w3_mlp_simclrhn_probe0,1,593,NaN,bottle,bicycle,c05,0593_cop_dnn_c05_bicycle_10_n02835271_4220.png,n02835271_4220.png,0.0,-0.9027333,-0.7895132,-0.08005874
alexnet_w3_mlp_simclrhn_probe0,1,594,NaN,truck,truck,c10,0594_cop_dnn_c10_truck_10_n03417042_7530.png,n03417042_7530.png,1.0,-0.29545754,-0.48194128,0.13186392
alexnet_w3_mlp_simclrhn_probe0,1,595,NaN,bear,bear,c03,0595_cop_dnn_c03_bear_10_n02134418_12457.png,n02134418_12457.png,1.0,-0.41518885,-0.5313802,0.082159676
alexnet_w3_mlp_simclrhn_probe0,1,596,NaN,bottle,bottle,c50,0596_cop_dnn_c50_bottle_10_n04557648_10265.png,n04557648_10265.png,1.0,0.53217286,-1.2999538,1.2955092
alexnet_w3_mlp_simclrhn_probe0,1,597,NaN,clock,clock,c15,0597_cop_dnn_c15_clock_10_n02708093_2025.png,n02708093_2025.png,1.0,0.61080235,-0.055630073,0.4712389
alexnet_w3_mlp_simclrhn_probe0,1,598,NaN,bicycle,chair,c15,0598_cop_dnn_c15_chair_10_n03376595_1961.png,n03376595_1961.png,0.0,-0.7775321,-0.09471794,-0.48282254
alexnet_w3_mlp_simclrhn_probe0,1,599,NaN,bear,bear,c05,0599_cop_dnn_c05_bear_10_n02134084_67.png,n02134084_67.png,1.0,0.008633032,-0.33567432,0.24346207
alexnet_w3_mlp_simclrhn_probe0,1,600,NaN,cat,cat,c50,0600_cop_dnn_c50_cat_10_n02123045_455.png,n02123045_455.png,1.0,0.9190221,-4.4070945,3.7661333
alexnet_w3_mlp_simclrhn_probe0,1,601,NaN,car,car,c10,0601_cop_dnn_c10_car_10_n03100240_13929.png,n03100240_13929.png,1.0,-0.011530782,-0.37945306,0.26016033
alexnet_w3_mlp_simclrhn_probe0,1,602,NaN,elephant,elephant,c10,0602_cop_dnn_c10_elephant_10_n02504458_4997.png,n02504458_4997.png,1.0,0.19110271,-0.7737142,0.6822286
alexnet_w3_mlp_simclrhn_probe0,1,603,NaN,airplane,airplane,c10,0603_cop_dnn_c10_airplane_10_n02690373_5344.png,n02690373_5344.png,1.0,0.6334895,0.0023932867,0.4462524
alexnet_w3_mlp_simclrhn_probe0,1,604,NaN,airplane,oven,c01,0604_cop_dnn_c01_oven_10_n04111531_797.png,n04111531_797.png,0.0,-0.6338829,0.060780987,-0.49120155
alexnet_w3_mlp_simclrhn_probe0,1,605,NaN,boat,boat,c30,0605_cop_dnn_c30_boat_10_n04273569_3085.png,n04273569_3085.png,1.0,2.3321068,0.10481629,1.5749323
alexnet_w3_mlp_simclrhn_probe0,1,606,NaN,oven,oven,c100,0606_cop_dnn_c100_oven_10_n04111531_9113.png,n04111531_9113.png,1.0,3.4492877,-4.2117124,5.4171453
alexnet_w3_mlp_simclrhn_probe0,1,607,NaN,boat,boat,c03,0607_cop_dnn_c03_boat_10_n03662601_18803.png,n03662601_18803.png,1.0,0.123303734,-0.29213136,0.293757
alexnet_w3_mlp_simclrhn_probe0,1,608,NaN,airplane,truck,c03,0608_cop_dnn_c03_truck_10_n04467665_30581.png,n04467665_30581.png,0.0,-0.8731264,-0.21605583,-0.46461907
alexnet_w3_mlp_simclrhn_probe0,1,609,NaN,elephant,elephant,c30,0609_cop_dnn_c30_elephant_10_n02504013_5237.png,n02504013_5237.png,1.0,1.0839486,-1.1524296,1.5813582
alexnet_w3_mlp_simclrhn_probe0,1,610,NaN,keyboard,keyboard,c100,0610_cop_dnn_c100_keyboard_10_n03085013_12175.png,n03085013_12175.png,1.0,6.4498477,-0.5152954,4.9251
alexnet_w3_mlp_simclrhn_probe0,1,611,NaN,chair,chair,c30,0611_cop_dnn_c30_chair_10_n02791124_5401.png,n02791124_5401.png,1.0,0.9474719,-1.3696468,1.6384504
alexnet_w3_mlp_simclrhn_probe0,1,612,NaN,boat,boat,c50,0612_cop_dnn_c50_boat_10_n02951358_22332.png,n02951358_22332.png,1.0,1.812669,-0.63172615,1.7284484
alexnet_w3_mlp_simclrhn_probe0,1,613,NaN,airplane,knife,c03,0613_cop_dnn_c03_knife_10_n03041632_11932.png,n03041632_11932.png,0.0,-0.026878752,-0.0034877611,-0.016539928
alexnet_w3_mlp_simclrhn_probe0,1,614,NaN,cat,cat,c30,0614_cop_dnn_c30_cat_10_n02123159_5257.png,n02123159_5257.png,1.0,-0.9965415,-1.5947628,0.42300636
alexnet_w3_mlp_simclrhn_probe0,1,615,NaN,bottle,bottle,c50,0615_cop_dnn_c50_bottle_10_n03983396_105.png,n03983396_105.png,1.0,0.5199773,-1.9268643,1.7301782
alexnet_w3_mlp_simclrhn_probe0,1,616,NaN,boat,boat,c50,0616_cop_dnn_c50_boat_10_n04612504_11939.png,n04612504_11939.png,1.0,1.1417236,-1.5385467,1.8952372
alexnet_w3_mlp_simclrhn_probe0,1,617,NaN,boat,boat,c30,0617_cop_dnn_c30_boat_10_n03662601_5575.png,n03662601_5575.png,1.0,0.21760793,-0.7111516,0.65673214
alexnet_w3_mlp_simclrhn_probe0,1,618,NaN,bear,cat,c05,0618_cop_dnn_c05_cat_10_n02123159_6590.png,n02123159_6590.png,0.0,-0.408897,-0.21347548,-0.13818389
alexnet_w3_mlp_simclrhn_probe0,1,619,NaN,bear,bear,c50,0619_cop_dnn_c50_bear_10_n02134084_21462.png,n02134084_21462.png,1.0,-1.0828075,-2.164469,0.76485014
alexnet_w3_mlp_simclrhn_probe0,1,620,NaN,cat,cat,c05,0620_cop_dnn_c05_cat_10_n02125311_46330.png,n02125311_46330.png,1.0,-0.4861529,-0.49904197,0.009113961
