subj,session,trial,rt,object_response,category,condition,imagename,filename,is_correct,targ_act,max_nontarg_act,decision_margin
alexnet,1,1,NaN,knife,knife,c30,0001_cop_dnn_c30_knife_10_n03041632_7380.png,n03041632_7380.png,1.0,8.135416,7.5475287,0.4156991
alexnet,1,2,NaN,bicycle,bicycle,c100,0002_cop_dnn_c100_bicycle_10_n03792782_5966.png,n03792782_5966.png,1.0,8.2914915,6.225818,1.4606516
alexnet,1,3,NaN,airplane,bird,c01,0003_cop_dnn_c01_bird_10_n01601694_10802.png,n01601694_10802.png,0.0,1.0993123,2.984531,-1.3330508
alexnet,1,4,NaN,airplane,airplane,c05,0004_cop_dnn_c05_airplane_10_n02690373_9759.png,n02690373_9759.png,1.0,4.932296,3.2573204,1.1843865
alexnet,1,5,NaN,knife,car,c03,0005_cop_dnn_c03_car_10_n02814533_2236.png,n02814533_2236.png,0.0,0.54779065,3.1662688,-1.8515438
alexnet,1,6,NaN,chair,chair,c30,0006_cop_dnn_c30_chair_10_n02791124_7207.png,n02791124_7207.png,1.0,7.1630116,5.525237,1.1580814
alexnet,1,7,NaN,knife,oven,c50,0007_cop_dnn_c50_oven_10_n04111531_7064.png,n04111531_7064.png,0.0,1.9446553,5.6637745,-2.6298144
alexnet,1,8,NaN,bottle,bird,c15,0008_cop_dnn_c15_bird_10_n01532829_2263.png,n01532829_2263.png,0.0,-1.4288615,2.756771,-2.9596894
alexnet,1,9,NaN,bicycle,bicycle,c50,0009_cop_dnn_c50_bicycle_10_n02835271_3383.png,n02835271_3383.png,1.0,9.929364,4.2918124,3.9863513
alexnet,1,10,NaN,airplane,bicycle,c03,0010_cop_dnn_c03_bicycle_10_n03792782_27510.png,n03792782_27510.png,0.0,-1.1023381,3.5842576,-3.3139238
alexnet,1,11,NaN,knife,bottle,c03,0011_cop_dnn_c03_bottle_10_n04557648_10944.png,n04557648_10944.png,0.0,1.9466832,3.1448522,-0.8472334
alexnet,1,12,NaN,knife,keyboard,c15,0012_cop_dnn_c15_keyboard_10_n03085013_20891.png,n03085013_20891.png,0.0,0.8973962,4.1615505,-2.3081057
alexnet,1,13,NaN,elephant,elephant,c30,0013_cop_dnn_c30_elephant_10_n02504458_3225.png,n02504458_3225.png,1.0,6.7378445,4.2422853,1.7646269
alexnet,1,14,NaN,knife,keyboard,c10,0014_cop_dnn_c10_keyboard_10_n04505470_6638.png,n04505470_6638.png,0.0,4.6143694,4.646381,-0.022635555
alexnet,1,15,NaN,airplane,bird,c01,0015_cop_dnn_c01_bird_10_n01601694_11888.png,n01601694_11888.png,0.0,0.9636411,2.9886122,-1.4318707
alexnet,1,16,NaN,airplane,airplane,c03,0016_cop_dnn_c03_airplane_10_n02690373_8743.png,n02690373_8743.png,1.0,3.7227612,2.2966492,1.0084134
alexnet,1,17,NaN,airplane,boat,c10,0017_cop_dnn_c10_boat_10_n03344393_8869.png,n03344393_8869.png,0.0,3.5283222,4.0320015,-0.35615504
alexnet,1,18,NaN,airplane,bear,c01,0018_cop_dnn_c01_bear_10_n02132136_27682.png,n02132136_27682.png,0.0,-0.6098319,3.07233,-2.6036816
alexnet,1,19,NaN,clock,clock,c50,0019_cop_dnn_c50_clock_10_n02708093_7081.png,n02708093_7081.png,1.0,3.1038895,2.1553512,0.6707179
alexnet,1,20,NaN,bottle,car,c10,0020_cop_dnn_c10_car_10_n03100240_12141.png,n03100240_12141.png,0.0,0.7799248,3.9512975,-2.242499
alexnet,1,21,NaN,airplane,car,c15,0021_cop_dnn_c15_car_10_n02814533_19287.png,n02814533_19287.png,0.0,4.1129155,6.3802667,-1.6032594
alexnet,1,22,NaN,airplane,bicycle,c03,0022_cop_dnn_c03_bicycle_10_n02835271_3841.png,n02835271_3841.png,0.0,-1.7589993,2.5692143,-3.0605092
alexnet,1,23,NaN,clock,clock,c15,0023_cop_dnn_c15_clock_10_n02708093_6696.png,n02708093_6696.png,1.0,6.5467925,1.8523382,3.3194804
alexnet,1,24,NaN,airplane,bird,c01,0024_cop_dnn_c01_bird_10_n01829413_6393.png,n01829413_6393.png,0.0,1.2270623,3.0271351,-1.2728437
alexnet,1,25,NaN,airplane,clock,c01,0025_cop_dnn_c01_clock_10_n02708093_3484.png,n02708093_3484.png,0.0,1.6767327,3.026944,-0.95474356
alexnet,1,26,NaN,clock,chair,c05,0026_cop_dnn_c05_chair_10_n04429376_55163.png,n04429376_55163.png,0.0,1.0637006,2.7636902,-1.2020743
alexnet,1,27,NaN,boat,boat,c100,0027_cop_dnn_c100_boat_10_n02951358_14528.png,n02951358_14528.png,1.0,6.142376,3.7211142,1.7120906
alexnet,1,28,NaN,airplane,chair,c01,0028_cop_dnn_c01_chair_10_n03376595_9603.png,n03376595_9603.png,0.0,-0.1134686,2.9943514,-2.1975605
alexnet,1,29,NaN,knife,bottle,c03,0029_cop_dnn_c03_bottle_10_n03937543_1840.png,n03937543_1840.png,0.0,1.2901202,2.7382367,-1.023973
alexnet,1,30,NaN,airplane,car,c01,0030_cop_dnn_c01_car_10_n02814533_32835.png,n02814533_32835.png,0.0,-0.14633912,2.9860485,-2.2149327
alexnet,1,31,NaN,bottle,bird,c15,0031_cop_dnn_c15_bird_10_n01860187_38598.png,n01860187_38598.png,0.0,-0.78669834,2.6655347,-2.4410975
alexnet,1,32,NaN,airplane,airplane,c100,0032_cop_dnn_c100_airplane_10_n02690373_9322.png,n02690373_9322.png,1.0,22.555973,8.991339,9.591645
alexnet,1,33,NaN,airplane,bicycle,c01,0033_cop_dnn_c01_bicycle_10_n02835271_1505.png,n02835271_1505.png,0.0,-1.1566663,3.0268784,-2.9582129
alexnet,1,34,NaN,bottle,bicycle,c50,0034_cop_dnn_c50_bicycle_10_n03792782_11023.png,n03792782_11023.png,0.0,1.8457106,2.007568,-0.11445036
alexnet,1,35,NaN,elephant,elephant,c50,0035_cop_dnn_c50_elephant_10_n02504458_4909.png,n02504458_4909.png,1.0,14.575209,5.7664194,6.2287545
alexnet,1,36,NaN,boat,boat,c100,0036_cop_dnn_c100_boat_10_n03344393_646.png,n03344393_646.png,1.0,12.242548,7.3821807,3.4367988
alexnet,1,37,NaN,boat,boat,c10,0037_cop_dnn_c10_boat_10_n04612504_2472.png,n04612504_2472.png,1.0,6.727549,5.8579106,0.61492723
alexnet,1,38,NaN,airplane,keyboard,c03,0038_cop_dnn_c03_keyboard_10_n03085013_4673.png,n03085013_4673.png,0.0,-0.2658479,3.0139163,-2.3191435
alexnet,1,39,NaN,elephant,elephant,c100,0039_cop_dnn_c100_elephant_10_n02504458_1138.png,n02504458_1138.png,1.0,11.645248,3.4237447,5.8134813
alexnet,1,40,NaN,car,car,c100,0040_cop_dnn_c100_car_10_n03100240_5569.png,n03100240_5569.png,1.0,9.588295,5.350835,2.996337
alexnet,1,41,NaN,dog,dog,c100,0041_cop_dnn_c100_dog_10_n02107312_7422.png,n02107312_7422.png,1.0,5.188283,4.2083135,0.6929431
alexnet,1,42,NaN,knife,bear,c15,0042_cop_dnn_c15_bear_10_n02134084_24140.png,n02134084_24140.png,0.0,-0.6544939,4.062768,-3.3356078
alexnet,1,43,NaN,bottle,bottle,c100,0043_cop_dnn_c100_bottle_10_n04560804_14130.png,n04560804_14130.png,1.0,9.443391,3.2933202,4.348757
alexnet,1,44,NaN,cat,cat,c30,0044_cop_dnn_c30_cat_10_n02124075_11970.png,n02124075_11970.png,1.0,5.1865196,3.1388488,1.447922
alexnet,1,45,NaN,knife,dog,c03,0045_cop_dnn_c03_dog_10_n02093991_247.png,n02093991_247.png,0.0,-0.6536225,2.7184846,-2.3844397
alexnet,1,46,NaN,keyboard,keyboard,c100,0046_cop_dnn_c100_keyboard_10_n04505470_375.png,n04505470_375.png,1.0,21.193474,6.5481873,10.355782
alexnet,1,47,NaN,bear,bear,c100,0047_cop_dnn_c100_bear_10_n02134418_4372.png,n02134418_4372.png,1.0,11.167489,5.0273137,4.3417597
alexnet,1,48,NaN,airplane,boat,c01,0048_cop_dnn_c01_boat_10_n03344393_2838.png,n03344393_2838.png,0.0,1.2212565,3.0432155,-1.2883196
alexnet,1,49,NaN,bottle,bicycle,c05,0049_cop_dnn_c05_bicycle_10_n02835271_4935.png,n02835271_4935.png,0.0,-0.6766088,1.456798,-1.5085464
alexnet,1,50,NaN,airplane,airplane,c50,0050_cop_dnn_c50_airplane_10_n02690373_5382.png,n02690373_5382.png,1.0,11.908133,6.738954,3.6551611
alexnet,1,51,NaN,knife,bottle,c100,0051_cop_dnn_c100_bottle_10_n03937543_2123.png,n03937543_2123.png,0.0,3.5507634,4.2512608,-0.49532646
alexnet,1,52,NaN,dog,dog,c30,0052_cop_dnn_c30_dog_10_n02097474_5234.png,n02097474_5234.png,1.0,4.3261333,2.549484,1.2562808
alexnet,1,53,NaN,clock,bottle,c100,0053_cop_dnn_c100_bottle_10_n02823428_6050.png,n02823428_6050.png,0.0,4.9484105,6.776755,-1.2928348
alexnet,1,54,NaN,bottle,clock,c15,0054_cop_dnn_c15_clock_10_n02708093_3743.png,n02708093_3743.png,0.0,5.0636697,6.72706,-1.1761944
alexnet,1,55,NaN,airplane,knife,c03,0055_cop_dnn_c03_knife_10_n03041632_55083.png,n03041632_55083.png,0.0,2.5283492,3.354843,-0.5844193
alexnet,1,56,NaN,knife,knife,c50,0056_cop_dnn_c50_knife_10_n03041632_41310.png,n03041632_41310.png,1.0,9.882895,4.9267573,3.504519
alexnet,1,57,NaN,airplane,knife,c03,0057_cop_dnn_c03_knife_10_n03041632_99799.png,n03041632_99799.png,0.0,1.7564505,2.7621703,-0.7111513
alexnet,1,58,NaN,cat,dog,c15,0058_cop_dnn_c15_dog_10_n02094114_8231.png,n02094114_8231.png,0.0,3.3772054,4.8957467,-1.0737709
alexnet,1,59,NaN,airplane,chair,c01,0059_cop_dnn_c01_chair_10_n03376595_6173.png,n03376595_6173.png,0.0,-0.098581195,3.0721738,-2.2420623
alexnet,1,60,NaN,airplane,oven,c05,0060_cop_dnn_c05_oven_10_n04111531_9297.png,n04111531_9297.png,0.0,-1.7258723,3.338045,-3.5807302
alexnet,1,61,NaN,airplane,car,c10,0061_cop_dnn_c10_car_10_n03100240_24420.png,n03100240_24420.png,0.0,0.7920354,3.401168,-1.8449355
alexnet,1,62,NaN,elephant,elephant,c100,0062_cop_dnn_c100_elephant_10_n02504013_2340.png,n02504013_2340.png,1.0,25.975431,5.219345,14.676769
alexnet,1,63,NaN,airplane,bicycle,c05,0063_cop_dnn_c05_bicycle_10_n02835271_10104.png,n02835271_10104.png,0.0,-1.1918993,2.227102,-2.417599
alexnet,1,64,NaN,bottle,bicycle,c15,0064_cop_dnn_c15_bicycle_10_n03792782_7165.png,n03792782_7165.png,0.0,-0.8597296,3.2290053,-2.8911724
alexnet,1,65,NaN,chair,knife,c10,0065_cop_dnn_c10_knife_10_n03041632_14817.png,n03041632_14817.png,0.0,1.1233505,2.3546183,-0.87063783
alexnet,1,66,NaN,clock,clock,c15,0066_cop_dnn_c15_clock_10_n02708093_118.png,n02708093_118.png,1.0,6.459141,2.9347134,2.4921465
alexnet,1,67,NaN,airplane,airplane,c10,0067_cop_dnn_c10_airplane_10_n02690373_4298.png,n02690373_4298.png,1.0,7.000604,4.499397,1.7686207
alexnet,1,68,NaN,knife,knife,c100,0068_cop_dnn_c100_knife_10_n03041632_50034.png,n03041632_50034.png,1.0,9.419994,5.343275,2.882676
alexnet,1,69,NaN,bottle,chair,c03,0069_cop_dnn_c03_chair_10_n02791124_1333.png,n02791124_1333.png,0.0,-1.0261601,2.5826929,-2.5518444
alexnet,1,70,NaN,airplane,clock,c01,0070_cop_dnn_c01_clock_10_n02708093_2318.png,n02708093_2318.png,0.0,1.5756251,2.9329104,-0.9597457
alexnet,1,71,NaN,airplane,elephant,c01,0071_cop_dnn_c01_elephant_10_n02504013_3864.png,n02504013_3864.png,0.0,-0.57363975,3.070372,-2.5767057
alexnet,1,72,NaN,chair,chair,c10,0072_cop_dnn_c10_chair_10_n04429376_56624.png,n04429376_56624.png,1.0,2.8410964,2.0759416,0.5410462
alexnet,1,73,NaN,airplane,airplane,c30,0073_cop_dnn_c30_airplane_10_n02690373_7004.png,n02690373_7004.png,1.0,8.021375,5.9022193,1.4984692
alexnet,1,74,NaN,knife,oven,c30,0074_cop_dnn_c30_oven_10_n04111531_9692.png,n04111531_9692.png,0.0,3.626841,4.5072646,-0.62255347
alexnet,1,75,NaN,oven,truck,c50,0075_cop_dnn_c50_truck_10_n03796401_296.png,n03796401_296.png,0.0,4.329261,6.111643,-1.2603344
alexnet,1,76,NaN,airplane,airplane,c15,0076_cop_dnn_c15_airplane_10_n02690373_1837.png,n02690373_1837.png,1.0,4.146715,2.3844235,1.2461284
alexnet,1,77,NaN,airplane,airplane,c03,0077_cop_dnn_c03_airplane_10_n02690373_10203.png,n02690373_10203.png,1.0,3.2882857,2.249005,0.7348824
alexnet,1,78,NaN,airplane,boat,c03,0078_cop_dnn_c03_boat_10_n02951358_34234.png,n02951358_34234.png,0.0,2.1260142,2.7621665,-0.44982758
alexnet,1,79,NaN,bicycle,bicycle,c100,0079_cop_dnn_c100_bicycle_10_n02835271_2885.png,n02835271_2885.png,1.0,9.003616,5.751236,2.2997804
alexnet,1,80,NaN,airplane,airplane,c30,0080_cop_dnn_c30_airplane_10_n02690373_5247.png,n02690373_5247.png,1.0,9.590948,5.2333927,3.081257
alexnet,1,81,NaN,clock,clock,c50,0081_cop_dnn_c50_clock_10_n02708093_596.png,n02708093_596.png,1.0,8.221499,4.0318747,2.9625123
alexnet,1,82,NaN,airplane,chair,c01,0082_cop_dnn_c01_chair_10_n03376595_1364.png,n03376595_1364.png,0.0,-0.10875556,3.0211031,-2.2131443
alexnet,1,83,NaN,airplane,cat,c03,0083_cop_dnn_c03_cat_10_n02124075_12430.png,n02124075_12430.png,0.0,-0.6572056,3.0355558,-2.6111767
alexnet,1,84,NaN,bottle,cat,c05,0084_cop_dnn_c05_cat_10_n02123159_5487.png,n02123159_5487.png,0.0,-0.46144176,2.8083012,-2.3120575
alexnet,1,85,NaN,bicycle,bicycle,c50,0085_cop_dnn_c50_bicycle_10_n03792782_17571.png,n03792782_17571.png,1.0,8.588583,3.5899594,3.534561
alexnet,1,86,NaN,cat,cat,c50,0086_cop_dnn_c50_cat_10_n02123159_6132.png,n02123159_6132.png,1.0,5.3449936,1.5763648,2.664823
alexnet,1,87,NaN,knife,bottle,c05,0087_cop_dnn_c05_bottle_10_n03937543_2873.png,n03937543_2873.png,0.0,1.9935954,2.299164,-0.2160697
alexnet,1,88,NaN,bottle,keyboard,c15,0088_cop_dnn_c15_keyboard_10_n04505470_1236.png,n04505470_1236.png,0.0,-0.48867905,5.6777678,-4.3603363
alexnet,1,89,NaN,airplane,airplane,c01,0089_cop_dnn_c01_airplane_10_n02690373_4243.png,n02690373_4243.png,1.0,3.2506824,2.8769398,0.2642759
alexnet,1,90,NaN,airplane,oven,c30,0090_cop_dnn_c30_oven_10_n04111531_467.png,n04111531_467.png,0.0,2.0365481,2.159413,-0.08687865
alexnet,1,91,NaN,airplane,cat,c03,0091_cop_dnn_c03_cat_10_n02123394_2632.png,n02123394_2632.png,0.0,-0.7011668,2.8675466,-2.5234616
alexnet,1,92,NaN,bottle,chair,c15,0092_cop_dnn_c15_chair_10_n02791124_5268.png,n02791124_5268.png,0.0,2.8934002,2.98769,-0.06667294
alexnet,1,93,NaN,knife,knife,c100,0093_cop_dnn_c100_knife_10_n03041632_1143.png,n03041632_1143.png,1.0,5.607292,4.800681,0.5703602
alexnet,1,94,NaN,clock,chair,c10,0094_cop_dnn_c10_chair_10_n02791124_1018.png,n02791124_1018.png,0.0,2.2176273,2.9468176,-0.51561546
alexnet,1,95,NaN,cat,bicycle,c05,0095_cop_dnn_c05_bicycle_10_n03792782_8057.png,n03792782_8057.png,0.0,-1.3537081,0.99333715,-1.6596118
alexnet,1,96,NaN,bear,bear,c30,0096_cop_dnn_c30_bear_10_n02132136_1338.png,n02132136_1338.png,1.0,5.950706,5.4857664,0.32876194
alexnet,1,97,NaN,clock,clock,c05,0097_cop_dnn_c05_clock_10_n02708093_4798.png,n02708093_4798.png,1.0,7.130193,4.8479505,1.6137893
alexnet,1,98,NaN,airplane,truck,c01,0098_cop_dnn_c01_truck_10_n03796401_15046.png,n03796401_15046.png,0.0,-0.55820394,3.1566694,-2.6268122
alexnet,1,99,NaN,knife,knife,c50,0099_cop_dnn_c50_knife_10_n03041632_13612.png,n03041632_13612.png,1.0,5.557375,3.225913,1.6485926
alexnet,1,100,NaN,oven,oven,c10,0100_cop_dnn_c10_oven_10_n04111531_1898.png,n04111531_1898.png,1.0,5.0579653,4.1951933,0.61007196
alexnet,1,101,NaN,airplane,truck,c03,0101_cop_dnn_c03_truck_10_n04467665_28988.png,n04467665_28988.png,0.0,-0.11365414,2.91258,-2.1398706
alexnet,1,102,NaN,airplane,airplane,c100,0102_cop_dnn_c100_airplane_10_n02690373_736.png,n02690373_736.png,1.0,16.312958,7.312215,6.3644867
alexnet,1,103,NaN,dog,dog,c50,0103_cop_dnn_c50_dog_10_n02111500_5154.png,n02111500_5154.png,1.0,6.480443,4.760674,1.2160604
alexnet,1,104,NaN,truck,bear,c50,0104_cop_dnn_c50_bear_10_n02133161_13461.png,n02133161_13461.png,0.0,1.7987994,2.311133,-0.3622745
alexnet,1,105,NaN,bear,dog,c15,0105_cop_dnn_c15_dog_10_n02102318_11746.png,n02102318_11746.png,0.0,2.8936415,3.8409982,-0.66988236
alexnet,1,106,NaN,boat,boat,c50,0106_cop_dnn_c50_boat_10_n03662601_12226.png,n03662601_12226.png,1.0,7.099687,4.7871046,1.6352428
alexnet,1,107,NaN,bottle,keyboard,c05,0107_cop_dnn_c05_keyboard_10_n04505470_3207.png,n04505470_3207.png,0.0,0.1110152,3.5091856,-2.4028695
alexnet,1,108,NaN,bicycle,bicycle,c30,0108_cop_dnn_c30_bicycle_10_n03792782_2628.png,n03792782_2628.png,1.0,4.8380356,3.3066247,1.0828711
alexnet,1,109,NaN,airplane,chair,c01,0109_cop_dnn_c01_chair_10_n02791124_3204.png,n02791124_3204.png,0.0,-0.004042849,3.057193,-2.1646206
alexnet,1,110,NaN,knife,bottle,c03,0110_cop_dnn_c03_bottle_10_n04560804_722.png,n04560804_722.png,0.0,2.0750601,2.9050794,-0.5869122
alexnet,1,111,NaN,chair,bicycle,c30,0111_cop_dnn_c30_bicycle_10_n03792782_8847.png,n03792782_8847.png,0.0,0.69384235,4.7274036,-2.8521585
alexnet,1,112,NaN,bear,bear,c50,0112_cop_dnn_c50_bear_10_n02132136_1132.png,n02132136_1132.png,1.0,7.1634336,6.160555,0.7091423
alexnet,1,113,NaN,bottle,knife,c50,0113_cop_dnn_c50_knife_10_n03041632_6557.png,n03041632_6557.png,0.0,4.219932,5.8703017,-1.1669875
alexnet,1,114,NaN,knife,knife,c100,0114_cop_dnn_c100_knife_10_n03041632_35116.png,n03041632_35116.png,1.0,6.374963,4.5640526,1.280507
alexnet,1,115,NaN,clock,car,c15,0115_cop_dnn_c15_car_10_n02814533_3117.png,n02814533_3117.png,0.0,3.6439044,4.765641,-0.7931877
alexnet,1,116,NaN,bottle,bird,c15,0116_cop_dnn_c15_bird_10_n02009229_4224.png,n02009229_4224.png,0.0,-0.5858148,1.3850963,-1.3936446
alexnet,1,117,NaN,clock,chair,c50,0117_cop_dnn_c50_chair_10_n03376595_9247.png,n03376595_9247.png,0.0,4.5679893,4.735678,-0.11857392
alexnet,1,118,NaN,airplane,boat,c01,0118_cop_dnn_c01_boat_10_n03662601_5639.png,n03662601_5639.png,0.0,1.208116,3.0522008,-1.3039649
alexnet,1,119,NaN,airplane,bicycle,c10,0119_cop_dnn_c10_bicycle_10_n02835271_13437.png,n02835271_13437.png,0.0,0.6756812,4.062887,-2.3951163
alexnet,1,120,NaN,airplane,bicycle,c05,0120_cop_dnn_c05_bicycle_10_n03792782_18294.png,n03792782_18294.png,0.0,-0.9680232,1.9019775,-2.029397
alexnet,1,121,NaN,airplane,boat,c03,0121_cop_dnn_c03_boat_10_n02951358_10488.png,n02951358_10488.png,0.0,2.0226977,2.8517733,-0.586245
alexnet,1,122,NaN,knife,bird,c50,0122_cop_dnn_c50_bird_10_n01829413_14594.png,n01829413_14594.png,0.0,2.593996,5.5127015,-2.0638366
alexnet,1,123,NaN,keyboard,clock,c100,0123_cop_dnn_c100_clock_10_n03196217_9197.png,n03196217_9197.png,0.0,4.2657857,4.9668107,-0.49569955
alexnet,1,124,NaN,clock,boat,c15,0124_cop_dnn_c15_boat_10_n03662601_1667.png,n03662601_1667.png,0.0,1.3983233,2.2013779,-0.56784534
alexnet,1,125,NaN,knife,dog,c50,0125_cop_dnn_c50_dog_10_n02092339_6946.png,n02092339_6946.png,0.0,3.6839628,4.391975,-0.50064015
alexnet,1,126,NaN,airplane,airplane,c05,0126_cop_dnn_c05_airplane_10_n02690373_1773.png,n02690373_1773.png,1.0,4.3358355,3.2126555,0.79420817
alexnet,1,127,NaN,elephant,elephant,c50,0127_cop_dnn_c50_elephant_10_n02504013_4278.png,n02504013_4278.png,1.0,3.454269,3.0942898,0.2545437
alexnet,1,128,NaN,bird,bird,c100,0128_cop_dnn_c100_bird_10_n02025239_10194.png,n02025239_10194.png,1.0,7.6066837,2.6532753,3.5025885
alexnet,1,129,NaN,knife,oven,c15,0129_cop_dnn_c15_oven_10_n04111531_1977.png,n04111531_1977.png,0.0,0.11280778,1.5036712,-0.983489
alexnet,1,130,NaN,clock,clock,c50,0130_cop_dnn_c50_clock_10_n02708093_616.png,n02708093_616.png,1.0,6.784965,4.7975025,1.4053483
alexnet,1,131,NaN,airplane,boat,c10,0131_cop_dnn_c10_boat_10_n04273569_10292.png,n04273569_10292.png,0.0,4.1976886,4.2225776,-0.017599175
alexnet,1,132,NaN,cat,cat,c50,0132_cop_dnn_c50_cat_10_n02123394_8592.png,n02123394_8592.png,1.0,5.1896925,3.017341,1.5360845
alexnet,1,133,NaN,bottle,knife,c10,0133_cop_dnn_c10_knife_10_n03041632_16020.png,n03041632_16020.png,0.0,3.150058,3.445849,-0.20915577
alexnet,1,134,NaN,cat,cat,c30,0134_cop_dnn_c30_cat_10_n02123394_5466.png,n02123394_5466.png,1.0,4.6569543,3.0013862,1.1706635
alexnet,1,135,NaN,airplane,elephant,c01,0135_cop_dnn_c01_elephant_10_n02504013_7351.png,n02504013_7351.png,0.0,-0.7159184,2.9890285,-2.6197932
alexnet,1,136,NaN,knife,oven,c50,0136_cop_dnn_c50_oven_10_n04111531_22388.png,n04111531_22388.png,0.0,2.840058,3.9338255,-0.7734104
alexnet,1,137,NaN,bottle,chair,c100,0137_cop_dnn_c100_chair_10_n04429376_6308.png,n04429376_6308.png,0.0,4.3383455,7.948705,-2.5529099
alexnet,1,138,NaN,car,car,c10,0138_cop_dnn_c10_car_10_n03100240_8443.png,n03100240_8443.png,1.0,4.561613,4.559937,0.0011851694
alexnet,1,139,NaN,car,car,c100,0139_cop_dnn_c100_car_10_n04285008_12446.png,n04285008_12446.png,1.0,14.837982,8.6413965,4.3816476
alexnet,1,140,NaN,knife,keyboard,c01,0140_cop_dnn_c01_keyboard_10_n04505470_4440.png,n04505470_4440.png,0.0,-0.5024358,2.826006,-2.3535638
alexnet,1,141,NaN,clock,car,c10,0141_cop_dnn_c10_car_10_n04285008_10073.png,n04285008_10073.png,0.0,1.1137933,4.607226,-2.4702299
alexnet,1,142,NaN,knife,bottle,c03,0142_cop_dnn_c03_bottle_10_n03983396_7378.png,n03983396_7378.png,0.0,1.3042237,2.8819077,-1.115591
alexnet,1,143,NaN,clock,chair,c15,0143_cop_dnn_c15_chair_10_n02791124_5706.png,n02791124_5706.png,0.0,3.6313682,3.667477,-0.02553273
alexnet,1,144,NaN,cat,cat,c15,0144_cop_dnn_c15_cat_10_n02123045_11224.png,n02123045_11224.png,1.0,3.87123,3.831355,0.028195737
alexnet,1,145,NaN,clock,chair,c05,0145_cop_dnn_c05_chair_10_n03376595_8953.png,n03376595_8953.png,0.0,2.632566,3.7769203,-0.80918074
alexnet,1,146,NaN,bicycle,bicycle,c50,0146_cop_dnn_c50_bicycle_10_n03792782_66048.png,n03792782_66048.png,1.0,9.535039,4.3626027,3.6574647
alexnet,1,147,NaN,airplane,dog,c01,0147_cop_dnn_c01_dog_10_n02104365_1123.png,n02104365_1123.png,0.0,-0.78370214,2.9922206,-2.6699808
alexnet,1,148,NaN,knife,clock,c05,0148_cop_dnn_c05_clock_10_n03196217_3605.png,n03196217_3605.png,0.0,2.9801807,3.8298075,-0.60077685
alexnet,1,149,NaN,bottle,knife,c10,0149_cop_dnn_c10_knife_10_n03041632_14916.png,n03041632_14916.png,0.0,1.9140044,2.3670654,-0.3203625
alexnet,1,150,NaN,knife,bear,c10,0150_cop_dnn_c10_bear_10_n02132136_4101.png,n02132136_4101.png,0.0,1.5419614,2.134497,-0.41898587
alexnet,1,151,NaN,airplane,clock,c01,0151_cop_dnn_c01_clock_10_n02708093_7929.png,n02708093_7929.png,0.0,1.5589803,2.9272802,-0.9675341
alexnet,1,152,NaN,chair,chair,c50,0152_cop_dnn_c50_chair_10_n02791124_7630.png,n02791124_7630.png,1.0,7.0695605,4.160747,2.0568419
alexnet,1,153,NaN,clock,clock,c05,0153_cop_dnn_c05_clock_10_n02708093_3750.png,n02708093_3750.png,1.0,5.0939536,2.6983628,1.6939385
alexnet,1,154,NaN,airplane,bird,c01,0154_cop_dnn_c01_bird_10_n02037110_12288.png,n02037110_12288.png,0.0,0.9222544,3.053545,-1.5070502
alexnet,1,155,NaN,keyboard,keyboard,c05,0155_cop_dnn_c05_keyboard_10_n04505470_6080.png,n04505470_6080.png,1.0,4.193105,4.0660396,0.08984899
alexnet,1,156,NaN,keyboard,keyboard,c100,0156_cop_dnn_c100_keyboard_10_n03085013_19065.png,n03085013_19065.png,1.0,19.96917,5.8099957,10.012048
alexnet,1,157,NaN,knife,cat,c10,0157_cop_dnn_c10_cat_10_n02123159_4856.png,n02123159_4856.png,0.0,0.4076333,2.5417335,-1.5090368
alexnet,1,158,NaN,airplane,chair,c01,0158_cop_dnn_c01_chair_10_n04099969_6913.png,n04099969_6913.png,0.0,-0.16192247,3.2271323,-2.3964236
alexnet,1,159,NaN,knife,knife,c30,0159_cop_dnn_c30_knife_10_n03041632_35764.png,n03041632_35764.png,1.0,2.566333,2.3362985,0.16265902
alexnet,1,160,NaN,truck,truck,c30,0160_cop_dnn_c30_truck_10_n03796401_3012.png,n03796401_3012.png,1.0,8.400845,8.001701,0.28223687
alexnet,1,161,NaN,clock,elephant,c10,0161_cop_dnn_c10_elephant_10_n02504013_3821.png,n02504013_3821.png,0.0,1.8505654,3.8317869,-1.4009352
alexnet,1,162,NaN,truck,truck,c100,0162_cop_dnn_c100_truck_10_n03796401_3608.png,n03796401_3608.png,1.0,5.3720417,4.085322,0.90984833
alexnet,1,163,NaN,chair,chair,c15,0163_cop_dnn_c15_chair_10_n04099969_13811.png,n04099969_13811.png,1.0,4.5318694,3.501784,0.7283803
alexnet,1,164,NaN,bear,bear,c50,0164_cop_dnn_c50_bear_10_n02133161_4954.png,n02133161_4954.png,1.0,4.745137,3.1114054,1.1552229
alexnet,1,165,NaN,bottle,dog,c15,0165_cop_dnn_c15_dog_10_n02085782_6792.png,n02085782_6792.png,0.0,1.0149972,3.295093,-1.6122712
alexnet,1,166,NaN,airplane,oven,c05,0166_cop_dnn_c05_oven_10_n04111531_22886.png,n04111531_22886.png,0.0,0.14894238,2.9227192,-1.9613564
alexnet,1,167,NaN,bottle,dog,c05,0167_cop_dnn_c05_dog_10_n02091831_510.png,n02091831_510.png,0.0,0.030628243,2.0049624,-1.3960651
alexnet,1,168,NaN,cat,bear,c15,0168_cop_dnn_c15_bear_10_n02132136_11339.png,n02132136_11339.png,0.0,2.4384904,3.4210489,-0.6947738
alexnet,1,169,NaN,bottle,bottle,c15,0169_cop_dnn_c15_bottle_10_n04557648_2709.png,n04557648_2709.png,1.0,3.986026,3.9369068,0.034732543
alexnet,1,170,NaN,knife,keyboard,c03,0170_cop_dnn_c03_keyboard_10_n03085013_21447.png,n03085013_21447.png,0.0,-0.5153928,3.1809342,-2.613698
alexnet,1,171,NaN,airplane,airplane,c30,0171_cop_dnn_c30_airplane_10_n02690373_7676.png,n02690373_7676.png,1.0,6.517339,5.813637,0.49759278
alexnet,1,172,NaN,dog,dog,c100,0172_cop_dnn_c100_dog_10_n02091831_4110.png,n02091831_4110.png,1.0,6.185181,3.6991932,1.757859
alexnet,1,173,NaN,bottle,bird,c10,0173_cop_dnn_c10_bird_10_n02007558_16029.png,n02007558_16029.png,0.0,-0.9966346,3.2727885,-3.018938
alexnet,1,174,NaN,clock,truck,c30,0174_cop_dnn_c30_truck_10_n03796401_15097.png,n03796401_15097.png,0.0,0.4333486,3.3332832,-2.0505633
alexnet,1,175,NaN,airplane,airplane,c30,0175_cop_dnn_c30_airplane_10_n02690373_7401.png,n02690373_7401.png,1.0,11.363726,5.0946264,4.432923
alexnet,1,176,NaN,knife,dog,c05,0176_cop_dnn_c05_dog_10_n02108422_4529.png,n02108422_4529.png,0.0,-0.005767468,3.3067222,-2.342284
alexnet,1,177,NaN,bottle,bear,c10,0177_cop_dnn_c10_bear_10_n02132136_10514.png,n02132136_10514.png,0.0,0.015190929,3.4575274,-2.4340997
alexnet,1,178,NaN,airplane,airplane,c03,0178_cop_dnn_c03_airplane_10_n02690373_5524.png,n02690373_5524.png,1.0,3.2220924,2.7088952,0.3628852
alexnet,1,179,NaN,chair,chair,c100,0179_cop_dnn_c100_chair_10_n04429376_5965.png,n04429376_5965.png,1.0,9.123802,4.437241,3.3138993
alexnet,1,180,NaN,airplane,airplane,c15,0180_cop_dnn_c15_airplane_10_n02690373_9712.png,n02690373_9712.png,1.0,4.4435935,4.2388926,0.14474542
alexnet,1,181,NaN,boat,boat,c30,0181_cop_dnn_c30_boat_10_n02951358_29825.png,n02951358_29825.png,1.0,3.6187177,3.064619,0.3918069
alexnet,1,182,NaN,knife,keyboard,c03,0182_cop_dnn_c03_keyboard_10_n04505470_4887.png,n04505470_4887.png,0.0,-0.21888053,3.3607445,-2.5311773
alexnet,1,183,NaN,airplane,truck,c01,0183_cop_dnn_c01_truck_10_n04467665_32090.png,n04467665_32090.png,0.0,-0.6055138,3.0688214,-2.5981474
alexnet,1,184,NaN,clock,chair,c05,0184_cop_dnn_c05_chair_10_n02791124_4296.png,n02791124_4296.png,0.0,2.031572,3.9410198,-1.3501834
alexnet,1,185,NaN,knife,boat,c30,0185_cop_dnn_c30_boat_10_n04612504_14669.png,n04612504_14669.png,0.0,1.0756019,2.8397548,-1.2474445
alexnet,1,186,NaN,airplane,airplane,c03,0186_cop_dnn_c03_airplane_10_n02690373_891.png,n02690373_891.png,1.0,3.1849747,2.5162256,0.47287703
alexnet,1,187,NaN,clock,clock,c100,0187_cop_dnn_c100_clock_10_n04548280_7539.png,n04548280_7539.png,1.0,7.4544563,5.1416187,1.6354232
alexnet,1,188,NaN,cat,bear,c30,0188_cop_dnn_c30_bear_10_n02134418_4717.png,n02134418_4717.png,0.0,4.2509875,4.462183,-0.14933775
alexnet,1,189,NaN,knife,bird,c03,0189_cop_dnn_c03_bird_10_n02002724_13195.png,n02002724_13195.png,0.0,-0.066905476,1.9303195,-1.4122514
alexnet,1,190,NaN,bottle,bottle,c10,0190_cop_dnn_c10_bottle_10_n03937543_2494.png,n03937543_2494.png,1.0,3.3303647,2.0548146,0.9019502
alexnet,1,191,NaN,clock,clock,c30,0191_cop_dnn_c30_clock_10_n03196217_2307.png,n03196217_2307.png,1.0,8.757043,5.423728,2.3570096
alexnet,1,192,NaN,bottle,clock,c15,0192_cop_dnn_c15_clock_10_n04548280_17907.png,n04548280_17907.png,0.0,2.7333324,6.106453,-2.3851564
alexnet,1,193,NaN,airplane,chair,c03,0193_cop_dnn_c03_chair_10_n03376595_6540.png,n03376595_6540.png,0.0,0.58393633,4.033147,-2.4389603
alexnet,1,194,NaN,cat,cat,c30,0194_cop_dnn_c30_cat_10_n02123045_1484.png,n02123045_1484.png,1.0,3.4886124,2.78831,0.49518856
alexnet,1,195,NaN,airplane,knife,c03,0195_cop_dnn_c03_knife_10_n03041632_89912.png,n03041632_89912.png,0.0,2.6305346,3.2165751,-0.41439322
alexnet,1,196,NaN,bottle,bottle,c05,0196_cop_dnn_c05_bottle_10_n04591713_6975.png,n04591713_6975.png,1.0,7.3681836,5.269602,1.4839214
alexnet,1,197,NaN,elephant,bird,c50,0197_cop_dnn_c50_bird_10_n01860187_810.png,n01860187_810.png,0.0,0.16726919,5.082473,-3.4755738
alexnet,1,198,NaN,airplane,oven,c03,0198_cop_dnn_c03_oven_10_n04111531_5967.png,n04111531_5967.png,0.0,-1.8038044,3.020406,-3.4112318
alexnet,1,199,NaN,boat,boat,c15,0199_cop_dnn_c15_boat_10_n04612504_18954.png,n04612504_18954.png,1.0,3.40643,2.951367,0.3217782
alexnet,1,200,NaN,clock,bicycle,c10,0200_cop_dnn_c10_bicycle_10_n03792782_68259.png,n03792782_68259.png,0.0,0.67522204,1.7897614,-0.7880984
alexnet,1,201,NaN,airplane,car,c03,0201_cop_dnn_c03_car_10_n04285008_296.png,n04285008_296.png,0.0,0.14319757,2.7685196,-1.8563831
alexnet,1,202,NaN,airplane,airplane,c03,0202_cop_dnn_c03_airplane_10_n02690373_12929.png,n02690373_12929.png,1.0,3.6952877,2.2004335,1.0570216
alexnet,1,203,NaN,airplane,boat,c01,0203_cop_dnn_c01_boat_10_n03344393_8761.png,n03344393_8761.png,0.0,1.318292,3.0995126,-1.2595131
alexnet,1,204,NaN,clock,clock,c30,0204_cop_dnn_c30_clock_10_n03196217_3877.png,n03196217_3877.png,1.0,10.250281,5.399887,3.4297466
alexnet,1,205,NaN,knife,bear,c10,0205_cop_dnn_c10_bear_10_n02134084_1346.png,n02134084_1346.png,0.0,-1.0890837,2.60178,-2.6098347
alexnet,1,206,NaN,airplane,knife,c03,0206_cop_dnn_c03_knife_10_n03041632_48151.png,n03041632_48151.png,0.0,3.204814,3.5881155,-0.2710351
alexnet,1,207,NaN,airplane,airplane,c50,0207_cop_dnn_c50_airplane_10_n02690373_3589.png,n02690373_3589.png,1.0,8.700549,5.852492,2.0138807
alexnet,1,208,NaN,clock,bottle,c50,0208_cop_dnn_c50_bottle_10_n04560804_2942.png,n04560804_2942.png,0.0,3.9460444,5.769457,-1.2893473
alexnet,1,209,NaN,clock,keyboard,c03,0209_cop_dnn_c03_keyboard_10_n04505470_5022.png,n04505470_5022.png,0.0,0.39203385,3.1988065,-1.984688
alexnet,1,210,NaN,airplane,dog,c10,0210_cop_dnn_c10_dog_10_n02096294_1043.png,n02096294_1043.png,0.0,1.3330193,1.4158444,-0.05856625
alexnet,1,211,NaN,airplane,airplane,c50,0211_cop_dnn_c50_airplane_10_n02690373_1350.png,n02690373_1350.png,1.0,12.523626,5.176112,5.195477
alexnet,1,212,NaN,clock,chair,c03,0212_cop_dnn_c03_chair_10_n04099969_27865.png,n04099969_27865.png,0.0,0.20854855,1.9361602,-1.2216059
alexnet,1,213,NaN,airplane,oven,c01,0213_cop_dnn_c01_oven_10_n04111531_22120.png,n04111531_22120.png,0.0,-0.7487035,3.0704062,-2.7005184
alexnet,1,214,NaN,elephant,elephant,c50,0214_cop_dnn_c50_elephant_10_n02504458_5600.png,n02504458_5600.png,1.0,7.306067,3.3744254,2.7800906
alexnet,1,215,NaN,airplane,cat,c03,0215_cop_dnn_c03_cat_10_n02123597_11138.png,n02123597_11138.png,0.0,-0.26166943,2.4189274,-1.8954682
alexnet,1,216,NaN,bottle,cat,c30,0216_cop_dnn_c30_cat_10_n02125311_5717.png,n02125311_5717.png,0.0,0.8832228,3.555117,-1.8893144
alexnet,1,217,NaN,clock,chair,c15,0217_cop_dnn_c15_chair_10_n02791124_11404.png,n02791124_11404.png,0.0,3.1563985,4.0285215,-0.6166841
alexnet,1,218,NaN,cat,cat,c100,0218_cop_dnn_c100_cat_10_n02123394_2984.png,n02123394_2984.png,1.0,5.172831,3.9574313,0.85941744
alexnet,1,219,NaN,clock,dog,c10,0219_cop_dnn_c10_dog_10_n02087394_9693.png,n02087394_9693.png,0.0,-0.99699354,2.992876,-2.8212638
alexnet,1,220,NaN,airplane,dog,c01,0220_cop_dnn_c01_dog_10_n02098105_2086.png,n02098105_2086.png,0.0,-0.75167936,2.9805505,-2.639085
alexnet,1,221,NaN,cat,cat,c10,0221_cop_dnn_c10_cat_10_n02123159_6932.png,n02123159_6932.png,1.0,2.6333966,1.8982506,0.51982677
alexnet,1,222,NaN,clock,car,c15,0222_cop_dnn_c15_car_10_n04285008_8323.png,n04285008_8323.png,0.0,5.294655,6.9771667,-1.1897155
alexnet,1,223,NaN,knife,truck,c01,0223_cop_dnn_c01_truck_10_n03796401_2226.png,n03796401_2226.png,0.0,-0.6434126,3.089766,-2.639756
alexnet,1,224,NaN,boat,bear,c05,0224_cop_dnn_c05_bear_10_n02134084_6223.png,n02134084_6223.png,0.0,-0.84141874,2.5371535,-2.3890114
alexnet,1,225,NaN,clock,cat,c05,0225_cop_dnn_c05_cat_10_n02125311_22459.png,n02125311_22459.png,0.0,0.3169367,1.6831646,-0.966069
alexnet,1,226,NaN,bottle,bicycle,c10,0226_cop_dnn_c10_bicycle_10_n02835271_19143.png,n02835271_19143.png,0.0,1.3627108,2.6986537,-0.9446543
alexnet,1,227,NaN,clock,cat,c10,0227_cop_dnn_c10_cat_10_n02123597_4357.png,n02123597_4357.png,0.0,1.2284664,2.486883,-0.8898349
alexnet,1,228,NaN,airplane,boat,c03,0228_cop_dnn_c03_boat_10_n04273569_6180.png,n04273569_6180.png,0.0,1.8532206,3.259628,-0.99448025
alexnet,1,229,NaN,airplane,airplane,c100,0229_cop_dnn_c100_airplane_10_n02690373_139.png,n02690373_139.png,1.0,25.116528,7.345136,12.566271
alexnet,1,230,NaN,clock,bottle,c10,0230_cop_dnn_c10_bottle_10_n04557648_4165.png,n04557648_4165.png,0.0,1.6400152,2.6161005,-0.6901966
alexnet,1,231,NaN,bottle,bottle,c50,0231_cop_dnn_c50_bottle_10_n04560804_5756.png,n04560804_5756.png,1.0,6.6578674,6.382654,0.19460516
alexnet,1,232,NaN,truck,truck,c15,0232_cop_dnn_c15_truck_10_n04467665_39477.png,n04467665_39477.png,1.0,7.6737127,5.603565,1.4638153
alexnet,1,233,NaN,airplane,cat,c01,0233_cop_dnn_c01_cat_10_n02123159_386.png,n02123159_386.png,0.0,-0.8432762,2.9509678,-2.6829357
alexnet,1,234,NaN,knife,bear,c15,0234_cop_dnn_c15_bear_10_n02134084_4859.png,n02134084_4859.png,0.0,0.4137318,2.6533084,-1.5836198
alexnet,1,235,NaN,airplane,dog,c03,0235_cop_dnn_c03_dog_10_n02099429_1992.png,n02099429_1992.png,0.0,-0.20514189,2.5023825,-1.9145088
alexnet,1,236,NaN,airplane,oven,c03,0236_cop_dnn_c03_oven_10_n04111531_584.png,n04111531_584.png,0.0,-1.1533407,2.585192,-2.6435418
alexnet,1,237,NaN,knife,bottle,c05,0237_cop_dnn_c05_bottle_10_n04591713_4019.png,n04591713_4019.png,0.0,1.9460086,3.241427,-0.9159991
alexnet,1,238,NaN,knife,dog,c03,0238_cop_dnn_c03_dog_10_n02113712_4486.png,n02113712_4486.png,0.0,-0.6426331,2.710903,-2.371308
alexnet,1,239,NaN,bottle,chair,c50,0239_cop_dnn_c50_chair_10_n03376595_13018.png,n03376595_13018.png,0.0,0.98404634,5.7829795,-3.3933582
alexnet,1,240,NaN,oven,oven,c50,0240_cop_dnn_c50_oven_10_n04111531_7421.png,n04111531_7421.png,1.0,4.5128465,4.4664736,0.032790586
alexnet,1,241,NaN,airplane,cat,c01,0241_cop_dnn_c01_cat_10_n02123045_10689.png,n02123045_10689.png,0.0,-0.8042292,3.0129094,-2.6991246
alexnet,1,242,NaN,bottle,clock,c05,0242_cop_dnn_c05_clock_10_n02708093_4391.png,n02708093_4391.png,0.0,3.251613,3.7829852,-0.37573698
alexnet,1,243,NaN,clock,clock,c50,0243_cop_dnn_c50_clock_10_n02708093_3759.png,n02708093_3759.png,1.0,10.204663,3.8335052,4.5050893
alexnet,1,244,NaN,bottle,elephant,c05,0244_cop_dnn_c05_elephant_10_n02504013_648.png,n02504013_648.png,0.0,-0.80441946,1.9234499,-1.9288949
alexnet,1,245,NaN,airplane,bottle,c01,0245_cop_dnn_c01_bottle_10_n04591713_1879.png,n04591713_1879.png,0.0,1.3680456,2.9172807,-1.0954747
alexnet,1,246,NaN,airplane,dog,c01,0246_cop_dnn_c01_dog_10_n02110627_20194.png,n02110627_20194.png,0.0,-0.84831166,3.0274143,-2.7405522
alexnet,1,247,NaN,truck,truck,c50,0247_cop_dnn_c50_truck_10_n03796401_13298.png,n03796401_13298.png,1.0,5.034912,3.7104063,0.93656707
alexnet,1,248,NaN,keyboard,chair,c100,0248_cop_dnn_c100_chair_10_n03376595_7824.png,n03376595_7824.png,0.0,4.5133114,5.380204,-0.6129858
alexnet,1,249,NaN,airplane,bear,c05,0249_cop_dnn_c05_bear_10_n02134418_6252.png,n02134418_6252.png,0.0,-0.28195462,2.1643653,-1.7298094
alexnet,1,250,NaN,bird,bird,c50,0250_cop_dnn_c50_bird_10_n01855032_1815.png,n01855032_1815.png,1.0,6.4457946,3.4938397,2.0873473
alexnet,1,251,NaN,car,car,c100,0251_cop_dnn_c100_car_10_n03100240_6773.png,n03100240_6773.png,1.0,13.428111,6.916761,4.60422
alexnet,1,252,NaN,airplane,keyboard,c03,0252_cop_dnn_c03_keyboard_10_n03085013_22438.png,n03085013_22438.png,0.0,-0.66646874,3.1191587,-2.676843
alexnet,1,253,NaN,airplane,keyboard,c01,0253_cop_dnn_c01_keyboard_10_n04505470_4950.png,n04505470_4950.png,0.0,-0.63821816,2.9792962,-2.557969
alexnet,1,254,NaN,airplane,truck,c03,0254_cop_dnn_c03_truck_10_n04467665_22358.png,n04467665_22358.png,0.0,-0.4132539,2.645321,-2.162739
alexnet,1,255,NaN,airplane,truck,c15,0255_cop_dnn_c15_truck_10_n04467665_67969.png,n04467665_67969.png,0.0,2.7213051,4.7228165,-1.4152822
alexnet,1,256,NaN,knife,elephant,c10,0256_cop_dnn_c10_elephant_10_n02504013_2128.png,n02504013_2128.png,0.0,-1.0241592,1.7696711,-1.9755365
alexnet,1,257,NaN,car,car,c30,0257_cop_dnn_c30_car_10_n03100240_3499.png,n03100240_3499.png,1.0,6.0749016,3.8980336,1.5392781
alexnet,1,258,NaN,elephant,bear,c50,0258_cop_dnn_c50_bear_10_n02134084_7250.png,n02134084_7250.png,0.0,5.1275716,5.7918878,-0.46974248
alexnet,1,259,NaN,clock,bicycle,c15,0259_cop_dnn_c15_bicycle_10_n03792782_43279.png,n03792782_43279.png,0.0,-0.8113438,2.5324278,-2.3644035
alexnet,1,260,NaN,cat,cat,c50,0260_cop_dnn_c50_cat_10_n02123045_1274.png,n02123045_1274.png,1.0,4.5326037,1.9846115,1.8017026
alexnet,1,261,NaN,oven,oven,c100,0261_cop_dnn_c100_oven_10_n04111531_6567.png,n04111531_6567.png,1.0,8.609265,3.6554053,3.5029082
alexnet,1,262,NaN,knife,knife,c100,0262_cop_dnn_c100_knife_10_n03041632_86338.png,n03041632_86338.png,1.0,4.517454,3.3901815,0.7971021
alexnet,1,263,NaN,clock,chair,c15,0263_cop_dnn_c15_chair_10_n02791124_9757.png,n02791124_9757.png,0.0,4.3716073,5.0225167,-0.46026248
alexnet,1,264,NaN,knife,knife,c15,0264_cop_dnn_c15_knife_10_n03041632_45090.png,n03041632_45090.png,1.0,4.5987773,3.6136034,0.6966232
alexnet,1,265,NaN,airplane,bicycle,c01,0265_cop_dnn_c01_bicycle_10_n02835271_1436.png,n02835271_1436.png,0.0,-1.2094603,2.9758606,-2.9594688
alexnet,1,266,NaN,airplane,bird,c03,0266_cop_dnn_c03_bird_10_n01798484_8189.png,n01798484_8189.png,0.0,1.0517757,3.1465871,-1.4812554
alexnet,1,267,NaN,bottle,bird,c15,0267_cop_dnn_c15_bird_10_n01819313_1282.png,n01819313_1282.png,0.0,-1.9812179,3.3043437,-3.7374566
alexnet,1,268,NaN,bottle,bottle,c100,0268_cop_dnn_c100_bottle_10_n03983396_11519.png,n03983396_11519.png,1.0,11.545299,4.6479864,4.877136
alexnet,1,269,NaN,airplane,boat,c05,0269_cop_dnn_c05_boat_10_n03344393_7735.png,n03344393_7735.png,0.0,4.031568,4.4733706,-0.31240156
alexnet,1,270,NaN,knife,bottle,c05,0270_cop_dnn_c05_bottle_10_n04560804_21795.png,n04560804_21795.png,0.0,2.9083393,3.1409202,-0.16445954
alexnet,1,271,NaN,chair,chair,c30,0271_cop_dnn_c30_chair_10_n02791124_4109.png,n02791124_4109.png,1.0,7.1829305,5.125509,1.4548168
alexnet,1,272,NaN,airplane,keyboard,c03,0272_cop_dnn_c03_keyboard_10_n04505470_9663.png,n04505470_9663.png,0.0,-0.89553285,1.8541622,-1.9443281
alexnet,1,273,NaN,knife,knife,c15,0273_cop_dnn_c15_knife_10_n03041632_27709.png,n03041632_27709.png,1.0,3.8404133,2.8738809,0.6834417
alexnet,1,274,NaN,airplane,airplane,c50,0274_cop_dnn_c50_airplane_10_n02690373_8539.png,n02690373_8539.png,1.0,5.866989,4.367234,1.0604869
alexnet,1,275,NaN,bear,bear,c15,0275_cop_dnn_c15_bear_10_n02134418_2175.png,n02134418_2175.png,1.0,2.131478,1.7784307,0.2496422
alexnet,1,276,NaN,elephant,elephant,c50,0276_cop_dnn_c50_elephant_10_n02504458_2875.png,n02504458_2875.png,1.0,15.145803,3.3746357,8.323473
alexnet,1,277,NaN,airplane,chair,c03,0277_cop_dnn_c03_chair_10_n02791124_5868.png,n02791124_5868.png,0.0,-0.60809124,3.0488973,-2.5858815
alexnet,1,278,NaN,clock,cat,c10,0278_cop_dnn_c10_cat_10_n02123597_488.png,n02123597_488.png,0.0,1.6794853,1.8576063,-0.12595055
alexnet,1,279,NaN,chair,oven,c30,0279_cop_dnn_c30_oven_10_n04111531_6500.png,n04111531_6500.png,0.0,1.6095662,4.4404,-2.0017018
alexnet,1,280,NaN,clock,bicycle,c15,0280_cop_dnn_c15_bicycle_10_n03792782_13002.png,n03792782_13002.png,0.0,2.5603065,2.9632435,-0.28491944
alexnet,1,281,NaN,clock,clock,c05,0281_cop_dnn_c05_clock_10_n03196217_10641.png,n03196217_10641.png,1.0,5.140389,3.106104,1.4384568
alexnet,1,282,NaN,clock,bicycle,c15,0282_cop_dnn_c15_bicycle_10_n03792782_20193.png,n03792782_20193.png,0.0,2.8799424,6.097754,-2.2753365
alexnet,1,283,NaN,airplane,truck,c05,0283_cop_dnn_c05_truck_10_n03417042_13806.png,n03417042_13806.png,0.0,1.0082455,3.127818,-1.4987642
alexnet,1,284,NaN,bottle,truck,c05,0284_cop_dnn_c05_truck_10_n04467665_70237.png,n04467665_70237.png,0.0,0.20184103,3.1008048,-2.049877
alexnet,1,285,NaN,airplane,truck,c01,0285_cop_dnn_c01_truck_10_n04467665_3720.png,n04467665_3720.png,0.0,-0.7158667,2.885892,-2.5468278
alexnet,1,286,NaN,bear,bear,c10,0286_cop_dnn_c10_bear_10_n02132136_8975.png,n02132136_8975.png,1.0,4.4961658,4.0800962,0.29420558
alexnet,1,287,NaN,boat,knife,c05,0287_cop_dnn_c05_knife_10_n03041632_18859.png,n03041632_18859.png,0.0,1.3563733,1.6364797,-0.19806516
alexnet,1,288,NaN,elephant,bear,c50,0288_cop_dnn_c50_bear_10_n02132136_29760.png,n02132136_29760.png,0.0,4.829586,10.919098,-4.3059354
alexnet,1,289,NaN,airplane,boat,c05,0289_cop_dnn_c05_boat_10_n04273569_6586.png,n04273569_6586.png,0.0,2.1279867,3.835144,-1.2071426
alexnet,1,290,NaN,clock,bottle,c05,0290_cop_dnn_c05_bottle_10_n03983396_11137.png,n03983396_11137.png,0.0,1.6667302,2.9297512,-0.8930907
alexnet,1,291,NaN,airplane,clock,c10,0291_cop_dnn_c10_clock_10_n03196217_4232.png,n03196217_4232.png,0.0,3.5264351,4.4135933,-0.6273156
alexnet,1,292,NaN,airplane,clock,c01,0292_cop_dnn_c01_clock_10_n04548280_1325.png,n04548280_1325.png,0.0,1.5020229,3.1175227,-1.1423309
alexnet,1,293,NaN,airplane,airplane,c100,0293_cop_dnn_c100_airplane_10_n02690373_2268.png,n02690373_2268.png,1.0,17.151955,7.4010653,6.89492
alexnet,1,294,NaN,boat,bicycle,c10,0294_cop_dnn_c10_bicycle_10_n03792782_14557.png,n03792782_14557.png,0.0,0.89570457,1.8613676,-0.6828269
alexnet,1,295,NaN,airplane,cat,c01,0295_cop_dnn_c01_cat_10_n02124075_13792.png,n02124075_13792.png,0.0,-0.77228934,2.963498,-2.6416006
alexnet,1,296,NaN,airplane,dog,c01,0296_cop_dnn_c01_dog_10_n02110185_14953.png,n02110185_14953.png,0.0,-0.78367645,2.9254572,-2.6227536
alexnet,1,297,NaN,bottle,bottle,c15,0297_cop_dnn_c15_bottle_10_n04557648_1634.png,n04557648_1634.png,1.0,3.338285,2.5872757,0.5310437
alexnet,1,298,NaN,bicycle,bicycle,c50,0298_cop_dnn_c50_bicycle_10_n02835271_1701.png,n02835271_1701.png,1.0,6.776304,4.6229086,1.5226804
alexnet,1,299,NaN,airplane,boat,c05,0299_cop_dnn_c05_boat_10_n04273569_7312.png,n04273569_7312.png,0.0,3.4673526,4.318606,-0.601927
alexnet,1,300,NaN,elephant,bird,c100,0300_cop_dnn_c100_bird_10_n01616318_5417.png,n01616318_5417.png,0.0,1.6590353,3.491579,-1.2958041
alexnet,1,301,NaN,cat,cat,c15,0301_cop_dnn_c15_cat_10_n02123045_12200.png,n02123045_12200.png,1.0,5.905737,3.917593,1.40583
alexnet,1,302,NaN,bicycle,dog,c30,0302_cop_dnn_c30_dog_10_n02102480_8264.png,n02102480_8264.png,0.0,1.844877,2.0628843,-0.15415446
alexnet,1,303,NaN,clock,bicycle,c30,0303_cop_dnn_c30_bicycle_10_n03792782_5426.png,n03792782_5426.png,0.0,1.3337879,2.086191,-0.5320293
alexnet,1,304,NaN,airplane,clock,c05,0304_cop_dnn_c05_clock_10_n02708093_8038.png,n02708093_8038.png,0.0,1.6070814,2.9706225,-0.9641692
alexnet,1,305,NaN,chair,bicycle,c30,0305_cop_dnn_c30_bicycle_10_n02835271_2764.png,n02835271_2764.png,0.0,3.3387656,4.998569,-1.1736583
alexnet,1,306,NaN,knife,knife,c50,0306_cop_dnn_c50_knife_10_n03041632_39836.png,n03041632_39836.png,1.0,9.320272,4.14617,3.658643
alexnet,1,307,NaN,airplane,bicycle,c01,0307_cop_dnn_c01_bicycle_10_n03792782_19040.png,n03792782_19040.png,0.0,-1.2084587,2.9110277,-2.9129167
alexnet,1,308,NaN,airplane,cat,c01,0308_cop_dnn_c01_cat_10_n02125311_28331.png,n02125311_28331.png,0.0,-0.79700214,2.7777722,-2.5277472
alexnet,1,309,NaN,airplane,knife,c01,0309_cop_dnn_c01_knife_10_n03041632_18126.png,n03041632_18126.png,0.0,2.9059463,2.9696994,-0.04508027
alexnet,1,310,NaN,bicycle,bicycle,c30,0310_cop_dnn_c30_bicycle_10_n03792782_19253.png,n03792782_19253.png,1.0,3.596052,2.6853807,0.6439418
alexnet,1,311,NaN,airplane,bottle,c01,0311_cop_dnn_c01_bottle_10_n03983396_751.png,n03983396_751.png,0.0,1.3207686,3.0365252,-1.2132232
alexnet,1,312,NaN,clock,car,c15,0312_cop_dnn_c15_car_10_n04285008_628.png,n04285008_628.png,0.0,1.0653538,4.7303324,-2.5915313
alexnet,1,313,NaN,chair,boat,c15,0313_cop_dnn_c15_boat_10_n03662601_3011.png,n03662601_3011.png,0.0,0.87439805,4.1072288,-2.2859566
alexnet,1,314,NaN,clock,bottle,c10,0314_cop_dnn_c10_bottle_10_n04557648_2904.png,n04557648_2904.png,0.0,2.6135406,3.6842835,-0.75712955
alexnet,1,315,NaN,knife,bird,c10,0315_cop_dnn_c10_bird_10_n02002556_9804.png,n02002556_9804.png,0.0,-1.2401309,3.2953317,-3.2070563
alexnet,1,316,NaN,airplane,truck,c05,0316_cop_dnn_c05_truck_10_n04467665_8955.png,n04467665_8955.png,0.0,0.024833575,2.982726,-2.0915458
alexnet,1,317,NaN,airplane,boat,c03,0317_cop_dnn_c03_boat_10_n04612504_15061.png,n04612504_15061.png,0.0,1.8708375,3.1707656,-0.9191881
alexnet,1,318,NaN,airplane,bird,c05,0318_cop_dnn_c05_bird_10_n02002556_1437.png,n02002556_1437.png,0.0,0.8778132,4.0848503,-2.2677176
alexnet,1,319,NaN,oven,truck,c50,0319_cop_dnn_c50_truck_10_n03417042_10993.png,n03417042_10993.png,0.0,2.825017,3.5155866,-0.4883065
alexnet,1,320,NaN,airplane,chair,c10,0320_cop_dnn_c10_chair_10_n02791124_880.png,n02791124_880.png,0.0,2.017394,4.174075,-1.5250038
alexnet,1,321,NaN,bicycle,bicycle,c50,0321_cop_dnn_c50_bicycle_10_n03792782_4826.png,n03792782_4826.png,1.0,11.903002,3.5841193,5.882338
alexnet,1,322,NaN,airplane,chair,c03,0322_cop_dnn_c03_chair_10_n04099969_3804.png,n04099969_3804.png,0.0,-0.2886989,2.5530944,-2.0094514
alexnet,1,323,NaN,bottle,bottle,c10,0323_cop_dnn_c10_bottle_10_n02823428_2504.png,n02823428_2504.png,1.0,6.2500715,3.0209982,2.2832997
alexnet,1,324,NaN,knife,cat,c10,0324_cop_dnn_c10_cat_10_n02124075_9716.png,n02124075_9716.png,0.0,1.9299479,2.3083591,-0.2675772
alexnet,1,325,NaN,airplane,knife,c01,0325_cop_dnn_c01_knife_10_n03041632_81630.png,n03041632_81630.png,0.0,2.8144147,2.951661,-0.09704784
alexnet,1,326,NaN,bottle,bottle,c30,0326_cop_dnn_c30_bottle_10_n04591713_457.png,n04591713_457.png,1.0,8.371311,7.2538085,0.79019374
alexnet,1,327,NaN,airplane,elephant,c30,0327_cop_dnn_c30_elephant_10_n02504458_5337.png,n02504458_5337.png,0.0,3.0959406,3.8015523,-0.49894282
alexnet,1,328,NaN,clock,clock,c15,0328_cop_dnn_c15_clock_10_n02708093_5429.png,n02708093_5429.png,1.0,8.068554,6.520551,1.0946032
alexnet,1,329,NaN,oven,oven,c100,0329_cop_dnn_c100_oven_10_n04111531_9411.png,n04111531_9411.png,1.0,8.391464,4.887306,2.477814
alexnet,1,330,NaN,airplane,knife,c01,0330_cop_dnn_c01_knife_10_n03041632_2338.png,n03041632_2338.png,0.0,2.8305914,3.0800304,-0.17638001
alexnet,1,331,NaN,cat,cat,c100,0331_cop_dnn_c100_cat_10_n02123394_2755.png,n02123394_2755.png,1.0,9.835546,2.493142,5.1918635
alexnet,1,332,NaN,airplane,elephant,c05,0332_cop_dnn_c05_elephant_10_n02504458_10243.png,n02504458_10243.png,0.0,-1.2685627,3.1657858,-3.135558
alexnet,1,333,NaN,chair,oven,c15,0333_cop_dnn_c15_oven_10_n04111531_1752.png,n04111531_1752.png,0.0,1.0645372,4.940539,-2.7407472
alexnet,1,334,NaN,airplane,bird,c05,0334_cop_dnn_c05_bird_10_n02037110_6736.png,n02037110_6736.png,0.0,1.10686,4.0622344,-2.0897653
alexnet,1,335,NaN,airplane,airplane,c10,0335_cop_dnn_c10_airplane_10_n02690373_8804.png,n02690373_8804.png,1.0,6.458564,3.6306975,1.9996035
alexnet,1,336,NaN,elephant,elephant,c100,0336_cop_dnn_c100_elephant_10_n02504458_12217.png,n02504458_12217.png,1.0,6.602784,2.2612216,3.0699482
alexnet,1,337,NaN,clock,knife,c15,0337_cop_dnn_c15_knife_10_n03041632_84012.png,n03041632_84012.png,0.0,2.152385,3.6091187,-1.0300663
alexnet,1,338,NaN,dog,dog,c50,0338_cop_dnn_c50_dog_10_n02093991_6192.png,n02093991_6192.png,1.0,5.9938903,5.8830166,0.07839955
alexnet,1,339,NaN,bird,bird,c50,0339_cop_dnn_c50_bird_10_n02027492_6499.png,n02027492_6499.png,1.0,4.9474044,0.9680329,2.8138406
alexnet,1,340,NaN,clock,knife,c10,0340_cop_dnn_c10_knife_10_n03041632_46185.png,n03041632_46185.png,0.0,3.7647643,4.2519593,-0.3444989
alexnet,1,341,NaN,boat,bear,c30,0341_cop_dnn_c30_bear_10_n02134084_14775.png,n02134084_14775.png,0.0,-0.19640324,5.5743737,-4.0805554
alexnet,1,342,NaN,chair,truck,c30,0342_cop_dnn_c30_truck_10_n03417042_5346.png,n03417042_5346.png,0.0,5.727831,6.4481916,-0.509372
alexnet,1,343,NaN,dog,dog,c30,0343_cop_dnn_c30_dog_10_n02093991_9672.png,n02093991_9672.png,1.0,4.1895366,3.3120503,0.6204765
alexnet,1,344,NaN,elephant,elephant,c100,0344_cop_dnn_c100_elephant_10_n02504458_2031.png,n02504458_2031.png,1.0,16.300634,3.1182714,9.321339
alexnet,1,345,NaN,airplane,bird,c03,0345_cop_dnn_c03_bird_10_n02025239_660.png,n02025239_660.png,0.0,0.9139054,2.981092,-1.4617217
alexnet,1,346,NaN,airplane,elephant,c01,0346_cop_dnn_c01_elephant_10_n02504458_4244.png,n02504458_4244.png,0.0,-0.6816422,3.0285435,-2.6234975
alexnet,1,347,NaN,boat,elephant,c30,0347_cop_dnn_c30_elephant_10_n02504013_7539.png,n02504013_7539.png,0.0,2.6564817,4.5783653,-1.358977
alexnet,1,348,NaN,clock,bird,c03,0348_cop_dnn_c03_bird_10_n02002724_5876.png,n02002724_5876.png,0.0,0.14430878,2.229518,-1.4744655
alexnet,1,349,NaN,boat,bird,c10,0349_cop_dnn_c10_bird_10_n01532829_560.png,n01532829_560.png,0.0,0.11977583,2.480493,-1.6692792
alexnet,1,350,NaN,boat,boat,c30,0350_cop_dnn_c30_boat_10_n04273569_1709.png,n04273569_1709.png,1.0,5.7590566,1.961188,2.6854987
alexnet,1,351,NaN,chair,bicycle,c50,0351_cop_dnn_c50_bicycle_10_n02835271_7958.png,n02835271_7958.png,0.0,2.3067913,4.379575,-1.4656793
alexnet,1,352,NaN,elephant,bear,c30,0352_cop_dnn_c30_bear_10_n02133161_12157.png,n02133161_12157.png,0.0,2.7056515,4.1564875,-1.025896
alexnet,1,353,NaN,knife,chair,c01,0353_cop_dnn_c01_chair_10_n04099969_4577.png,n04099969_4577.png,0.0,-0.052954063,2.7958374,-2.0143998
alexnet,1,354,NaN,airplane,bicycle,c01,0354_cop_dnn_c01_bicycle_10_n02835271_10283.png,n02835271_10283.png,0.0,-1.1804168,3.0413592,-2.9852464
alexnet,1,355,NaN,car,truck,c100,0355_cop_dnn_c100_truck_10_n03417042_23815.png,n03417042_23815.png,0.0,7.861572,7.9274964,-0.046615764
alexnet,1,356,NaN,airplane,bear,c03,0356_cop_dnn_c03_bear_10_n02133161_1059.png,n02133161_1059.png,0.0,-0.7815879,3.2743003,-2.8679461
alexnet,1,357,NaN,airplane,chair,c01,0357_cop_dnn_c01_chair_10_n02791124_5173.png,n02791124_5173.png,0.0,-0.041108176,3.2257762,-2.3100362
alexnet,1,358,NaN,bottle,bottle,c30,0358_cop_dnn_c30_bottle_10_n03983396_5545.png,n03983396_5545.png,1.0,9.002962,5.0242114,2.8134017
alexnet,1,359,NaN,airplane,airplane,c01,0359_cop_dnn_c01_airplane_10_n02690373_1797.png,n02690373_1797.png,1.0,3.1001837,2.7373145,0.25658733
alexnet,1,360,NaN,airplane,oven,c05,0360_cop_dnn_c05_oven_10_n04111531_6628.png,n04111531_6628.png,0.0,-0.7483494,3.9670763,-3.3343093
alexnet,1,361,NaN,bottle,elephant,c10,0361_cop_dnn_c10_elephant_10_n02504458_7817.png,n02504458_7817.png,0.0,0.02714026,2.707084,-1.8950063
alexnet,1,362,NaN,knife,knife,c50,0362_cop_dnn_c50_knife_10_n03041632_4714.png,n03041632_4714.png,1.0,5.412463,2.6246924,1.9712516
alexnet,1,363,NaN,airplane,bear,c03,0363_cop_dnn_c03_bear_10_n02134084_169.png,n02134084_169.png,0.0,-1.6403997,2.3521383,-2.8231506
alexnet,1,364,NaN,bird,bird,c15,0364_cop_dnn_c15_bird_10_n02013706_8336.png,n02013706_8336.png,1.0,1.8847924,1.8680379,0.011847227
alexnet,1,365,NaN,bottle,bottle,c15,0365_cop_dnn_c15_bottle_10_n04579145_6880.png,n04579145_6880.png,1.0,8.990157,4.0770764,3.4740727
alexnet,1,366,NaN,bottle,dog,c05,0366_cop_dnn_c05_dog_10_n02105641_416.png,n02105641_416.png,0.0,-0.48833302,2.8599396,-2.3675864
alexnet,1,367,NaN,bottle,airplane,c10,0367_cop_dnn_c10_airplane_10_n02690373_6549.png,n02690373_6549.png,0.0,1.9177144,2.5416768,-0.44120806
alexnet,1,368,NaN,airplane,clock,c01,0368_cop_dnn_c01_clock_10_n04548280_2374.png,n04548280_2374.png,0.0,1.6041327,3.1305318,-1.0793272
alexnet,1,369,NaN,bottle,bottle,c30,0369_cop_dnn_c30_bottle_10_n03983396_6287.png,n03983396_6287.png,1.0,6.45298,5.1889195,0.89382577
alexnet,1,370,NaN,airplane,dog,c01,0370_cop_dnn_c01_dog_10_n02090622_1126.png,n02090622_1126.png,0.0,-0.75136566,2.9546862,-2.6205745
alexnet,1,371,NaN,truck,truck,c50,0371_cop_dnn_c50_truck_10_n03796401_1681.png,n03796401_1681.png,1.0,10.509055,7.6692185,2.0080678
alexnet,1,372,NaN,elephant,elephant,c30,0372_cop_dnn_c30_elephant_10_n02504013_5537.png,n02504013_5537.png,1.0,10.565405,2.9154403,5.409342
alexnet,1,373,NaN,knife,keyboard,c05,0373_cop_dnn_c05_keyboard_10_n03085013_12399.png,n03085013_12399.png,0.0,0.5162818,2.6399446,-1.5016563
alexnet,1,374,NaN,bottle,oven,c15,0374_cop_dnn_c15_oven_10_n04111531_6094.png,n04111531_6094.png,0.0,2.9642544,5.6330314,-1.8871104
alexnet,1,375,NaN,airplane,airplane,c03,0375_cop_dnn_c03_airplane_10_n02690373_13604.png,n02690373_13604.png,1.0,3.7048855,2.3668256,0.94615126
alexnet,1,376,NaN,bear,bear,c100,0376_cop_dnn_c100_bear_10_n02134084_16084.png,n02134084_16084.png,1.0,12.782191,5.1767964,5.377826
alexnet,1,377,NaN,airplane,boat,c01,0377_cop_dnn_c01_boat_10_n04273569_15906.png,n04273569_15906.png,0.0,1.4042476,3.1380482,-1.2259822
alexnet,1,378,NaN,knife,dog,c05,0378_cop_dnn_c05_dog_10_n02105162_8899.png,n02105162_8899.png,0.0,-0.34232792,2.768296,-2.1995432
alexnet,1,379,NaN,airplane,oven,c03,0379_cop_dnn_c03_oven_10_n04111531_7619.png,n04111531_7619.png,0.0,-2.4312067,2.0182185,-3.1462188
alexnet,1,380,NaN,boat,elephant,c05,0380_cop_dnn_c05_elephant_10_n02504458_1816.png,n02504458_1816.png,0.0,-1.5630579,2.196097,-2.658124
alexnet,1,381,NaN,clock,cat,c30,0381_cop_dnn_c30_cat_10_n02123045_3575.png,n02123045_3575.png,0.0,2.5910823,3.3291228,-0.5218734
alexnet,1,382,NaN,airplane,truck,c01,0382_cop_dnn_c01_truck_10_n03417042_908.png,n03417042_908.png,0.0,-0.60755646,2.988974,-2.543131
alexnet,1,383,NaN,airplane,boat,c03,0383_cop_dnn_c03_boat_10_n03344393_4213.png,n03344393_4213.png,0.0,3.9318924,4.7608056,-0.58613014
alexnet,1,384,NaN,airplane,knife,c01,0384_cop_dnn_c01_knife_10_n03041632_31483.png,n03041632_31483.png,0.0,2.8955364,3.123178,-0.1609669
alexnet,1,385,NaN,airplane,bottle,c01,0385_cop_dnn_c01_bottle_10_n03937543_986.png,n03937543_986.png,0.0,1.3680542,2.980453,-1.1401381
alexnet,1,386,NaN,truck,truck,c15,0386_cop_dnn_c15_truck_10_n03796401_7381.png,n03796401_7381.png,1.0,7.147368,5.0946054,1.4515224
alexnet,1,387,NaN,airplane,dog,c03,0387_cop_dnn_c03_dog_10_n02094433_9787.png,n02094433_9787.png,0.0,-0.68144,2.6792488,-2.376366
alexnet,1,388,NaN,boat,bird,c30,0388_cop_dnn_c30_bird_10_n02011460_11838.png,n02011460_11838.png,0.0,0.120865606,1.5266676,-0.9940522
alexnet,1,389,NaN,cat,cat,c30,0389_cop_dnn_c30_cat_10_n02123597_29513.png,n02123597_29513.png,1.0,5.013847,2.6034887,1.7043806
alexnet,1,390,NaN,chair,chair,c10,0390_cop_dnn_c10_chair_10_n04429376_5337.png,n04429376_5337.png,1.0,3.0101826,2.294265,0.5062302
alexnet,1,391,NaN,knife,knife,c03,0391_cop_dnn_c03_knife_10_n03041632_4260.png,n03041632_4260.png,1.0,3.2043366,3.0013347,0.14354408
alexnet,1,392,NaN,knife,keyboard,c10,0392_cop_dnn_c10_keyboard_10_n04505470_4061.png,n04505470_4061.png,0.0,0.77736944,3.0492806,-1.6064838
alexnet,1,393,NaN,airplane,boat,c15,0393_cop_dnn_c15_boat_10_n03344393_6467.png,n03344393_6467.png,0.0,4.195236,5.5261574,-0.9411034
alexnet,1,394,NaN,bicycle,bicycle,c100,0394_cop_dnn_c100_bicycle_10_n03792782_11297.png,n03792782_11297.png,1.0,9.990652,4.813728,3.6606383
alexnet,1,395,NaN,airplane,bicycle,c03,0395_cop_dnn_c03_bicycle_10_n03792782_8357.png,n03792782_8357.png,0.0,-1.4803431,3.276678,-3.3637218
alexnet,1,396,NaN,bottle,dog,c10,0396_cop_dnn_c10_dog_10_n02108422_2739.png,n02108422_2739.png,0.0,0.14203812,3.5178318,-2.3870466
alexnet,1,397,NaN,airplane,bear,c03,0397_cop_dnn_c03_bear_10_n02134084_6840.png,n02134084_6840.png,0.0,-0.8547697,2.9783087,-2.7103958
alexnet,1,398,NaN,bear,bear,c30,0398_cop_dnn_c30_bear_10_n02133161_5365.png,n02133161_5365.png,1.0,3.8131387,2.6037526,0.8551651
alexnet,1,399,NaN,bottle,bottle,c30,0399_cop_dnn_c30_bottle_10_n04560804_1010.png,n04560804_1010.png,1.0,5.1094437,4.5539246,0.39281133
alexnet,1,400,NaN,clock,clock,c10,0400_cop_dnn_c10_clock_10_n04548280_183.png,n04548280_183.png,1.0,4.42238,3.8744779,0.3874253
alexnet,1,401,NaN,keyboard,keyboard,c100,0401_cop_dnn_c100_keyboard_10_n03085013_21534.png,n03085013_21534.png,1.0,15.16578,5.7482977,6.659166
alexnet,1,402,NaN,chair,keyboard,c50,0402_cop_dnn_c50_keyboard_10_n03085013_24111.png,n03085013_24111.png,0.0,5.85913,6.6813745,-0.58141476
alexnet,1,403,NaN,knife,knife,c15,0403_cop_dnn_c15_knife_10_n03041632_28009.png,n03041632_28009.png,1.0,4.0513034,3.4048026,0.45714512
alexnet,1,404,NaN,cat,cat,c50,0404_cop_dnn_c50_cat_10_n02123159_7647.png,n02123159_7647.png,1.0,4.6122274,2.987931,1.148551
alexnet,1,405,NaN,knife,bottle,c01,0405_cop_dnn_c01_bottle_10_n02823428_8696.png,n02823428_8696.png,0.0,1.2709624,2.9643018,-1.1973718
alexnet,1,406,NaN,bottle,elephant,c15,0406_cop_dnn_c15_elephant_10_n02504458_8923.png,n02504458_8923.png,0.0,-0.20094493,3.885366,-2.8894582
alexnet,1,407,NaN,airplane,bear,c01,0407_cop_dnn_c01_bear_10_n02134084_5031.png,n02134084_5031.png,0.0,-0.65988564,2.8998768,-2.5171323
alexnet,1,408,NaN,chair,dog,c50,0408_cop_dnn_c50_dog_10_n02097209_1658.png,n02097209_1658.png,0.0,1.4208114,4.0657263,-1.8702372
alexnet,1,409,NaN,knife,dog,c05,0409_cop_dnn_c05_dog_10_n02099849_6384.png,n02099849_6384.png,0.0,-0.20108214,1.9118629,-1.4940778
alexnet,1,410,NaN,chair,elephant,c15,0410_cop_dnn_c15_elephant_10_n02504013_3459.png,n02504013_3459.png,0.0,-0.52941334,2.7225184,-2.299463
alexnet,1,411,NaN,airplane,knife,c03,0411_cop_dnn_c03_knife_10_n03041632_36390.png,n03041632_36390.png,0.0,1.8289685,2.7968938,-0.68442655
alexnet,1,412,NaN,knife,knife,c100,0412_cop_dnn_c100_knife_10_n03041632_10263.png,n03041632_10263.png,1.0,8.62488,2.7477381,4.155767
alexnet,1,413,NaN,clock,cat,c03,0413_cop_dnn_c03_cat_10_n02123045_840.png,n02123045_840.png,0.0,0.19686526,1.9405254,-1.232954
alexnet,1,414,NaN,airplane,clock,c05,0414_cop_dnn_c05_clock_10_n04548280_4758.png,n04548280_4758.png,0.0,2.656276,3.7014985,-0.73908395
alexnet,1,415,NaN,elephant,bear,c50,0415_cop_dnn_c50_bear_10_n02133161_1247.png,n02133161_1247.png,0.0,4.092021,6.3350897,-1.5860891
alexnet,1,416,NaN,airplane,airplane,c10,0416_cop_dnn_c10_airplane_10_n02690373_6716.png,n02690373_6716.png,1.0,2.8069308,2.6678,0.09838036
alexnet,1,417,NaN,keyboard,keyboard,c30,0417_cop_dnn_c30_keyboard_10_n04505470_4893.png,n04505470_4893.png,1.0,7.6273537,3.8392608,2.6785862
alexnet,1,418,NaN,bottle,chair,c30,0418_cop_dnn_c30_chair_10_n04099969_34525.png,n04099969_34525.png,0.0,3.3946257,3.9019704,-0.3587469
alexnet,1,419,NaN,airplane,airplane,c01,0419_cop_dnn_c01_airplane_10_n02690373_4793.png,n02690373_4793.png,1.0,3.1095722,2.8491013,0.18418072
alexnet,1,420,NaN,knife,knife,c15,0420_cop_dnn_c15_knife_10_n03041632_4787.png,n03041632_4787.png,1.0,4.1409626,4.0685163,0.051227305
alexnet,1,421,NaN,airplane,boat,c05,0421_cop_dnn_c05_boat_10_n04273569_20587.png,n04273569_20587.png,0.0,2.9195318,3.3908148,-0.3332474
alexnet,1,422,NaN,airplane,bicycle,c03,0422_cop_dnn_c03_bicycle_10_n03792782_4844.png,n03792782_4844.png,0.0,-1.0011411,2.6041934,-2.5493565
alexnet,1,423,NaN,airplane,cat,c01,0423_cop_dnn_c01_cat_10_n02123045_6066.png,n02123045_6066.png,0.0,-0.83664066,2.9568033,-2.68237
alexnet,1,424,NaN,boat,boat,c30,0424_cop_dnn_c30_boat_10_n04273569_17045.png,n04273569_17045.png,1.0,9.5020485,4.826006,3.3064616
alexnet,1,425,NaN,keyboard,keyboard,c100,0425_cop_dnn_c100_keyboard_10_n04505470_5068.png,n04505470_5068.png,1.0,22.491203,12.822792,6.8365993
alexnet,1,426,NaN,airplane,airplane,c10,0426_cop_dnn_c10_airplane_10_n02690373_2724.png,n02690373_2724.png,1.0,6.763468,4.042344,1.9241251
alexnet,1,427,NaN,boat,boat,c10,0427_cop_dnn_c10_boat_10_n03662601_4844.png,n03662601_4844.png,1.0,5.16326,4.6525674,0.3611142
alexnet,1,428,NaN,chair,chair,c100,0428_cop_dnn_c100_chair_10_n04099969_3929.png,n04099969_3929.png,1.0,8.964767,3.7905986,3.6586897
alexnet,1,429,NaN,bottle,oven,c10,0429_cop_dnn_c10_oven_10_n04111531_9026.png,n04111531_9026.png,0.0,2.165637,3.148596,-0.69505703
alexnet,1,430,NaN,knife,knife,c15,0430_cop_dnn_c15_knife_10_n03041632_51225.png,n03041632_51225.png,1.0,8.311701,3.8862824,3.1292434
alexnet,1,431,NaN,clock,boat,c10,0431_cop_dnn_c10_boat_10_n03344393_6638.png,n03344393_6638.png,0.0,0.50786096,3.5041587,-2.1187027
alexnet,1,432,NaN,keyboard,knife,c30,0432_cop_dnn_c30_knife_10_n03041632_4590.png,n03041632_4590.png,0.0,3.0173173,5.63113,-1.8482449
alexnet,1,433,NaN,airplane,clock,c03,0433_cop_dnn_c03_clock_10_n02708093_3761.png,n02708093_3761.png,0.0,1.1347138,2.2276413,-0.77281654
alexnet,1,434,NaN,airplane,car,c03,0434_cop_dnn_c03_car_10_n04285008_3193.png,n04285008_3193.png,0.0,-0.16554986,2.58674,-1.9461628
alexnet,1,435,NaN,knife,keyboard,c50,0435_cop_dnn_c50_keyboard_10_n03085013_661.png,n03085013_661.png,0.0,0.6787688,3.7240489,-2.1533382
alexnet,1,436,NaN,airplane,bottle,c03,0436_cop_dnn_c03_bottle_10_n04557648_2355.png,n04557648_2355.png,0.0,1.4505655,2.5235445,-0.7587108
alexnet,1,437,NaN,chair,dog,c30,0437_cop_dnn_c30_dog_10_n02107312_860.png,n02107312_860.png,0.0,0.5936175,3.3048549,-1.9171344
alexnet,1,438,NaN,boat,boat,c100,0438_cop_dnn_c100_boat_10_n02951358_1541.png,n02951358_1541.png,1.0,7.3282266,2.7716584,3.2219803
alexnet,1,439,NaN,knife,boat,c15,0439_cop_dnn_c15_boat_10_n02951358_4972.png,n02951358_4972.png,0.0,1.7285049,2.8456671,-0.789953
alexnet,1,440,NaN,cat,bear,c15,0440_cop_dnn_c15_bear_10_n02132136_6352.png,n02132136_6352.png,0.0,2.1260304,3.1193497,-0.7023828
alexnet,1,441,NaN,knife,knife,c05,0441_cop_dnn_c05_knife_10_n03041632_27022.png,n03041632_27022.png,1.0,2.2384143,1.7804922,0.32379982
alexnet,1,442,NaN,airplane,airplane,c15,0442_cop_dnn_c15_airplane_10_n02690373_10399.png,n02690373_10399.png,1.0,6.5307875,3.637115,2.0461354
alexnet,1,443,NaN,keyboard,keyboard,c30,0443_cop_dnn_c30_keyboard_10_n04505470_4803.png,n04505470_4803.png,1.0,3.4600124,2.4814591,0.6919417
alexnet,1,444,NaN,knife,bottle,c03,0444_cop_dnn_c03_bottle_10_n03937543_4916.png,n03937543_4916.png,0.0,1.6026462,3.1973615,-1.1276339
alexnet,1,445,NaN,bottle,dog,c10,0445_cop_dnn_c10_dog_10_n02092339_2268.png,n02092339_2268.png,0.0,0.724104,1.7066623,-0.6947737
alexnet,1,446,NaN,cat,cat,c100,0446_cop_dnn_c100_cat_10_n02123394_2034.png,n02123394_2034.png,1.0,6.7077503,2.882364,2.7049565
alexnet,1,447,NaN,knife,keyboard,c01,0447_cop_dnn_c01_keyboard_10_n03085013_24442.png,n03085013_24442.png,0.0,-0.5874166,2.9933949,-2.532016
alexnet,1,448,NaN,airplane,bicycle,c03,0448_cop_dnn_c03_bicycle_10_n03792782_12908.png,n03792782_12908.png,0.0,-1.258049,3.163928,-3.12681
alexnet,1,449,NaN,cat,cat,c50,0449_cop_dnn_c50_cat_10_n02124075_10241.png,n02124075_10241.png,1.0,9.054838,2.3307996,4.7546134
alexnet,1,450,NaN,airplane,keyboard,c03,0450_cop_dnn_c03_keyboard_10_n03085013_29941.png,n03085013_29941.png,0.0,-0.82782006,3.7934718,-3.2677472
alexnet,1,451,NaN,airplane,car,c05,0451_cop_dnn_c05_car_10_n03100240_5718.png,n03100240_5718.png,0.0,-1.1638106,3.5179873,-3.3105311
alexnet,1,452,NaN,airplane,bear,c01,0452_cop_dnn_c01_bear_10_n02133161_789.png,n02133161_789.png,0.0,-0.63982844,3.1443264,-2.6758015
alexnet,1,453,NaN,chair,chair,c30,0453_cop_dnn_c30_chair_10_n04099969_9891.png,n04099969_9891.png,1.0,6.0677257,1.8369935,2.9915793
alexnet,1,454,NaN,airplane,knife,c01,0454_cop_dnn_c01_knife_10_n03041632_8666.png,n03041632_8666.png,0.0,2.7216535,3.006415,-0.20135674
alexnet,1,455,NaN,clock,car,c10,0455_cop_dnn_c10_car_10_n03100240_52.png,n03100240_52.png,0.0,1.0538968,5.054892,-2.829131
alexnet,1,456,NaN,bird,bird,c10,0456_cop_dnn_c10_bird_10_n02007558_45529.png,n02007558_45529.png,1.0,1.8584534,1.7175655,0.09962276
alexnet,1,457,NaN,airplane,airplane,c15,0457_cop_dnn_c15_airplane_10_n02690373_1933.png,n02690373_1933.png,1.0,5.6527023,3.5649765,1.4762452
alexnet,1,458,NaN,airplane,elephant,c03,0458_cop_dnn_c03_elephant_10_n02504013_1879.png,n02504013_1879.png,0.0,0.060191765,3.7729187,-2.6252944
alexnet,1,459,NaN,clock,car,c10,0459_cop_dnn_c10_car_10_n03100240_3373.png,n03100240_3373.png,0.0,0.8317976,3.5507908,-1.9226185
alexnet,1,460,NaN,boat,bicycle,c15,0460_cop_dnn_c15_bicycle_10_n03792782_7331.png,n03792782_7331.png,0.0,-0.38425732,1.5935967,-1.398554
alexnet,1,461,NaN,knife,chair,c100,0461_cop_dnn_c100_chair_10_n03376595_11049.png,n03376595_11049.png,0.0,3.1018195,3.5530872,-0.31909448
alexnet,1,462,NaN,knife,knife,c50,0462_cop_dnn_c50_knife_10_n03041632_37274.png,n03041632_37274.png,1.0,4.3522587,2.449597,1.3453851
alexnet,1,463,NaN,bottle,bottle,c15,0463_cop_dnn_c15_bottle_10_n02823428_780.png,n02823428_780.png,1.0,4.463134,3.3246937,0.80499876
alexnet,1,464,NaN,airplane,cat,c05,0464_cop_dnn_c05_cat_10_n02123045_390.png,n02123045_390.png,0.0,-0.62776744,3.0672345,-2.612761
alexnet,1,465,NaN,bottle,bird,c30,0465_cop_dnn_c30_bird_10_n01796340_10024.png,n01796340_10024.png,0.0,-1.2727057,2.435434,-2.622051
alexnet,1,466,NaN,knife,knife,c05,0466_cop_dnn_c05_knife_10_n03041632_13509.png,n03041632_13509.png,1.0,5.027054,3.550785,1.0438796
alexnet,1,467,NaN,airplane,bird,c05,0467_cop_dnn_c05_bird_10_n01534433_14198.png,n01534433_14198.png,0.0,-0.37724963,3.8003292,-2.9539945
alexnet,1,468,NaN,truck,chair,c100,0468_cop_dnn_c100_chair_10_n04099969_2502.png,n04099969_2502.png,0.0,4.2995543,5.118372,-0.5789915
alexnet,1,469,NaN,bottle,cat,c05,0469_cop_dnn_c05_cat_10_n02123045_15474.png,n02123045_15474.png,0.0,0.18780462,1.8920535,-1.205086
alexnet,1,470,NaN,clock,clock,c30,0470_cop_dnn_c30_clock_10_n02708093_442.png,n02708093_442.png,1.0,6.9510994,4.3680964,1.826459
alexnet,1,471,NaN,keyboard,boat,c100,0471_cop_dnn_c100_boat_10_n02951358_12663.png,n02951358_12663.png,0.0,1.860706,5.388833,-2.4947627
alexnet,1,472,NaN,airplane,cat,c05,0472_cop_dnn_c05_cat_10_n02125311_37322.png,n02125311_37322.png,0.0,0.08719698,3.0313454,-2.0818272
alexnet,1,473,NaN,bicycle,bird,c100,0473_cop_dnn_c100_bird_10_n01558993_5185.png,n01558993_5185.png,0.0,0.6509277,2.70224,-1.4504968
alexnet,1,474,NaN,elephant,elephant,c100,0474_cop_dnn_c100_elephant_10_n02504013_7248.png,n02504013_7248.png,1.0,11.045941,2.2453275,6.2229733
alexnet,1,475,NaN,airplane,bottle,c01,0475_cop_dnn_c01_bottle_10_n02823428_4245.png,n02823428_4245.png,0.0,1.3501669,3.0220776,-1.1822194
alexnet,1,476,NaN,chair,chair,c10,0476_cop_dnn_c10_chair_10_n04099969_8993.png,n04099969_8993.png,1.0,3.3865032,2.0191672,0.9668526
alexnet,1,477,NaN,dog,dog,c30,0477_cop_dnn_c30_dog_10_n02101388_8775.png,n02101388_8775.png,1.0,5.112543,4.419835,0.48981854
alexnet,1,478,NaN,airplane,car,c01,0478_cop_dnn_c01_car_10_n02814533_3590.png,n02814533_3590.png,0.0,-0.16360687,3.099406,-2.3072987
alexnet,1,479,NaN,boat,elephant,c05,0479_cop_dnn_c05_elephant_10_n02504458_6018.png,n02504458_6018.png,0.0,-0.73331267,2.307205,-2.1499705
alexnet,1,480,NaN,keyboard,keyboard,c100,0480_cop_dnn_c100_keyboard_10_n03085013_11332.png,n03085013_11332.png,1.0,23.912094,6.0070252,12.660796
alexnet,1,481,NaN,knife,oven,c05,0481_cop_dnn_c05_oven_10_n04111531_6863.png,n04111531_6863.png,0.0,-1.6925633,2.6098137,-3.04224
alexnet,1,482,NaN,airplane,airplane,c50,0482_cop_dnn_c50_airplane_10_n02690373_2675.png,n02690373_2675.png,1.0,8.06489,4.6502194,2.4145367
alexnet,1,483,NaN,airplane,dog,c01,0483_cop_dnn_c01_dog_10_n02106550_660.png,n02106550_660.png,0.0,-0.82261544,3.0012667,-2.703893
alexnet,1,484,NaN,knife,knife,c15,0484_cop_dnn_c15_knife_10_n03041632_11700.png,n03041632_11700.png,1.0,4.89826,3.6488626,0.8834575
alexnet,1,485,NaN,knife,bird,c15,0485_cop_dnn_c15_bird_10_n02009229_6149.png,n02009229_6149.png,0.0,-0.046844754,5.525138,-3.939987
alexnet,1,486,NaN,knife,clock,c30,0486_cop_dnn_c30_clock_10_n03196217_3780.png,n03196217_3780.png,0.0,6.4164414,9.747118,-2.355144
alexnet,1,487,NaN,bird,bird,c100,0487_cop_dnn_c100_bird_10_n01530575_34173.png,n01530575_34173.png,1.0,6.2915726,3.6552124,1.8641882
alexnet,1,488,NaN,bottle,bottle,c100,0488_cop_dnn_c100_bottle_10_n03983396_17803.png,n03983396_17803.png,1.0,13.3523035,4.0941663,6.5464916
alexnet,1,489,NaN,boat,oven,c05,0489_cop_dnn_c05_oven_10_n04111531_2156.png,n04111531_2156.png,0.0,-2.3732734,2.3434877,-3.3352537
alexnet,1,490,NaN,knife,elephant,c10,0490_cop_dnn_c10_elephant_10_n02504013_14948.png,n02504013_14948.png,0.0,0.18504104,2.2704048,-1.4745749
alexnet,1,491,NaN,airplane,boat,c01,0491_cop_dnn_c01_boat_10_n04273569_3112.png,n04273569_3112.png,0.0,1.3269626,3.0973458,-1.25185
alexnet,1,492,NaN,bird,bird,c50,0492_cop_dnn_c50_bird_10_n01560419_6583.png,n01560419_6583.png,1.0,1.8012788,1.6622344,0.09831924
alexnet,1,493,NaN,keyboard,keyboard,c50,0493_cop_dnn_c50_keyboard_10_n03085013_19161.png,n03085013_19161.png,1.0,6.906172,3.7166321,2.255345
alexnet,1,494,NaN,airplane,bird,c05,0494_cop_dnn_c05_bird_10_n01616318_57023.png,n01616318_57023.png,0.0,-0.76777756,3.644264,-3.1197846
alexnet,1,495,NaN,truck,truck,c50,0495_cop_dnn_c50_truck_10_n04467665_69176.png,n04467665_69176.png,1.0,7.1814337,5.576473,1.1348784
alexnet,1,496,NaN,car,car,c50,0496_cop_dnn_c50_car_10_n03100240_4971.png,n03100240_4971.png,1.0,11.514981,6.401194,3.6159937
alexnet,1,497,NaN,airplane,oven,c01,0497_cop_dnn_c01_oven_10_n04111531_4901.png,n04111531_4901.png,0.0,-0.91279733,3.0138063,-2.7765281
alexnet,1,498,NaN,bear,bear,c30,0498_cop_dnn_c30_bear_10_n02133161_4091.png,n02133161_4091.png,1.0,7.351248,5.846386,1.064098
alexnet,1,499,NaN,airplane,cat,c03,0499_cop_dnn_c03_cat_10_n02123394_4164.png,n02123394_4164.png,0.0,-0.6687966,3.0311546,-2.6162605
alexnet,1,500,NaN,airplane,bird,c03,0500_cop_dnn_c03_bird_10_n02017213_689.png,n02017213_689.png,0.0,1.1850399,2.8049707,-1.1454641
alexnet,1,501,NaN,dog,dog,c100,0501_cop_dnn_c100_dog_10_n02109047_14207.png,n02109047_14207.png,1.0,5.7850637,2.7237997,2.1646407
alexnet,1,502,NaN,airplane,elephant,c05,0502_cop_dnn_c05_elephant_10_n02504013_8347.png,n02504013_8347.png,0.0,-1.2046502,2.6543126,-2.7286987
alexnet,1,503,NaN,bottle,bottle,c30,0503_cop_dnn_c30_bottle_10_n04591713_1652.png,n04591713_1652.png,1.0,5.877188,4.9096746,0.68413544
alexnet,1,504,NaN,clock,oven,c15,0504_cop_dnn_c15_oven_10_n04111531_22403.png,n04111531_22403.png,0.0,-0.07380664,3.0332975,-2.1970546
alexnet,1,505,NaN,airplane,airplane,c100,0505_cop_dnn_c100_airplane_10_n02690373_6046.png,n02690373_6046.png,1.0,30.580433,6.202689,17.237667
alexnet,1,506,NaN,bottle,bear,c15,0506_cop_dnn_c15_bear_10_n02134084_1689.png,n02134084_1689.png,0.0,1.1171104,2.9037821,-1.2633678
alexnet,1,507,NaN,oven,oven,c30,0507_cop_dnn_c30_oven_10_n04111531_14269.png,n04111531_14269.png,1.0,8.053955,5.4189134,1.8632559
alexnet,1,508,NaN,cat,cat,c100,0508_cop_dnn_c100_cat_10_n02123597_9444.png,n02123597_9444.png,1.0,7.6622925,3.751733,2.7651832
alexnet,1,509,NaN,boat,bear,c10,0509_cop_dnn_c10_bear_10_n02134418_128.png,n02134418_128.png,0.0,1.4946885,3.6861198,-1.5495759
alexnet,1,510,NaN,airplane,airplane,c30,0510_cop_dnn_c30_airplane_10_n02690373_8789.png,n02690373_8789.png,1.0,9.04646,3.6805096,3.7943
alexnet,1,511,NaN,airplane,bottle,c01,0511_cop_dnn_c01_bottle_10_n03937543_10092.png,n03937543_10092.png,0.0,1.4021991,2.903875,-1.0618453
alexnet,1,512,NaN,knife,clock,c03,0512_cop_dnn_c03_clock_10_n02708093_7257.png,n02708093_7257.png,0.0,2.7105548,2.9537234,-0.17194617
alexnet,1,513,NaN,bear,bear,c100,0513_cop_dnn_c100_bear_10_n02134084_21207.png,n02134084_21207.png,1.0,7.2424994,3.7147646,2.4944851
alexnet,1,514,NaN,airplane,bird,c05,0514_cop_dnn_c05_bird_10_n01797886_12811.png,n01797886_12811.png,0.0,0.4854912,2.494969,-1.4209152
alexnet,1,515,NaN,airplane,oven,c01,0515_cop_dnn_c01_oven_10_n04111531_21248.png,n04111531_21248.png,0.0,-0.9372329,2.9470496,-2.7466025
alexnet,1,516,NaN,bottle,dog,c15,0516_cop_dnn_c15_dog_10_n02090379_5574.png,n02090379_5574.png,0.0,0.61276096,3.8451195,-2.2856226
alexnet,1,517,NaN,clock,car,c15,0517_cop_dnn_c15_car_10_n04285008_8443.png,n04285008_8443.png,0.0,2.3445425,4.232886,-1.3352604
alexnet,1,518,NaN,car,car,c100,0518_cop_dnn_c100_car_10_n03100240_15647.png,n03100240_15647.png,1.0,7.4285626,6.379517,0.74178725
alexnet,1,519,NaN,chair,chair,c50,0519_cop_dnn_c50_chair_10_n02791124_5824.png,n02791124_5824.png,1.0,7.1502104,3.9440033,2.2671309
alexnet,1,520,NaN,boat,bear,c05,0520_cop_dnn_c05_bear_10_n02133161_9949.png,n02133161_9949.png,0.0,1.1172014,2.5831187,-1.03656
alexnet,1,521,NaN,airplane,elephant,c03,0521_cop_dnn_c03_elephant_10_n02504458_5320.png,n02504458_5320.png,0.0,-1.2648752,2.9737303,-2.9971468
alexnet,1,522,NaN,airplane,keyboard,c01,0522_cop_dnn_c01_keyboard_10_n04505470_1904.png,n04505470_1904.png,0.0,-0.66842717,3.3118114,-2.8144538
alexnet,1,523,NaN,oven,oven,c100,0523_cop_dnn_c100_oven_10_n04111531_4685.png,n04111531_4685.png,1.0,7.6889277,3.4279377,3.012975
alexnet,1,524,NaN,clock,truck,c05,0524_cop_dnn_c05_truck_10_n03417042_2230.png,n03417042_2230.png,0.0,0.023539186,2.710554,-1.9000063
alexnet,1,525,NaN,knife,bottle,c15,0525_cop_dnn_c15_bottle_10_n04591713_6842.png,n04591713_6842.png,0.0,2.4747868,2.6507514,-0.12442576
alexnet,1,526,NaN,boat,boat,c50,0526_cop_dnn_c50_boat_10_n02951358_8285.png,n02951358_8285.png,1.0,4.5305257,3.7042165,0.58428884
alexnet,1,527,NaN,airplane,knife,c01,0527_cop_dnn_c01_knife_10_n03041632_48675.png,n03041632_48675.png,0.0,2.7808104,3.0609565,-0.19809322
alexnet,1,528,NaN,airplane,oven,c01,0528_cop_dnn_c01_oven_10_n04111531_14435.png,n04111531_14435.png,0.0,-1.0039365,2.993406,-2.826548
alexnet,1,529,NaN,cat,cat,c50,0529_cop_dnn_c50_cat_10_n02123159_8273.png,n02123159_8273.png,1.0,6.9959893,5.189716,1.2772282
alexnet,1,530,NaN,cat,bird,c50,0530_cop_dnn_c50_bird_10_n01614925_1908.png,n01614925_1908.png,0.0,4.6587653,6.246607,-1.1227735
alexnet,1,531,NaN,boat,knife,c05,0531_cop_dnn_c05_knife_10_n03041632_96345.png,n03041632_96345.png,0.0,0.4765711,2.0938163,-1.143565
alexnet,1,532,NaN,bottle,knife,c10,0532_cop_dnn_c10_knife_10_n03041632_31037.png,n03041632_31037.png,0.0,2.8626256,2.988354,-0.08890338
alexnet,1,533,NaN,airplane,airplane,c50,0533_cop_dnn_c50_airplane_10_n02690373_1436.png,n02690373_1436.png,1.0,12.688797,4.077166,6.089343
alexnet,1,534,NaN,chair,chair,c100,0534_cop_dnn_c100_chair_10_n04099969_28072.png,n04099969_28072.png,1.0,8.983413,4.0592556,3.481905
alexnet,1,535,NaN,airplane,boat,c01,0535_cop_dnn_c01_boat_10_n04612504_19983.png,n04612504_19983.png,0.0,1.3690147,3.0738587,-1.2055068
alexnet,1,536,NaN,chair,oven,c15,0536_cop_dnn_c15_oven_10_n04111531_8255.png,n04111531_8255.png,0.0,1.9621104,4.356185,-1.6928663
alexnet,1,537,NaN,boat,bear,c15,0537_cop_dnn_c15_bear_10_n02132136_1574.png,n02132136_1574.png,0.0,1.9365674,4.8705206,-2.0746183
alexnet,1,538,NaN,boat,boat,c100,0538_cop_dnn_c100_boat_10_n04273569_24747.png,n04273569_24747.png,1.0,5.2539253,4.5540476,0.4948883
alexnet,1,539,NaN,bottle,dog,c30,0539_cop_dnn_c30_dog_10_n02113799_18413.png,n02113799_18413.png,0.0,-0.020745091,3.547147,-2.5228808
alexnet,1,540,NaN,boat,boat,c15,0540_cop_dnn_c15_boat_10_n04273569_28333.png,n04273569_28333.png,1.0,6.0583715,1.7344575,3.057469
alexnet,1,541,NaN,airplane,bird,c01,0541_cop_dnn_c01_bird_10_n02017213_2183.png,n02017213_2183.png,0.0,0.8879333,2.8355598,-1.37718
alexnet,1,542,NaN,boat,boat,c50,0542_cop_dnn_c50_boat_10_n04273569_26139.png,n04273569_26139.png,1.0,6.1530538,5.9086685,0.17280647
alexnet,1,543,NaN,knife,knife,c03,0543_cop_dnn_c03_knife_10_n03041632_29684.png,n03041632_29684.png,1.0,3.2029388,2.863914,0.23972672
alexnet,1,544,NaN,boat,boat,c100,0544_cop_dnn_c100_boat_10_n02951358_3087.png,n02951358_3087.png,1.0,3.4995239,2.8852313,0.4343705
alexnet,1,545,NaN,clock,keyboard,c15,0545_cop_dnn_c15_keyboard_10_n03085013_13615.png,n03085013_13615.png,0.0,4.364692,5.031324,-0.47137982
alexnet,1,546,NaN,airplane,oven,c03,0546_cop_dnn_c03_oven_10_n04111531_1778.png,n04111531_1778.png,0.0,-2.3059201,3.275577,-3.9467146
alexnet,1,547,NaN,airplane,dog,c03,0547_cop_dnn_c03_dog_10_n02097474_9129.png,n02097474_9129.png,0.0,-0.72796565,2.98051,-2.6222882
alexnet,1,548,NaN,bird,bird,c30,0548_cop_dnn_c30_bird_10_n02013706_19220.png,n02013706_19220.png,1.0,4.034321,0.8613255,2.2436466
alexnet,1,549,NaN,keyboard,clock,c100,0549_cop_dnn_c100_clock_10_n03196217_7199.png,n03196217_7199.png,0.0,8.87132,10.74988,-1.3283426
alexnet,1,550,NaN,bear,bear,c50,0550_cop_dnn_c50_bear_10_n02132136_27823.png,n02132136_27823.png,1.0,9.238167,7.9386272,0.91891325
alexnet,1,551,NaN,airplane,boat,c03,0551_cop_dnn_c03_boat_10_n03662601_6462.png,n03662601_6462.png,0.0,1.9025345,2.9782298,-0.76063144
alexnet,1,552,NaN,clock,knife,c15,0552_cop_dnn_c15_knife_10_n03041632_11773.png,n03041632_11773.png,0.0,2.8536851,3.9507866,-0.77576786
alexnet,1,553,NaN,airplane,clock,c01,0553_cop_dnn_c01_clock_10_n02708093_7998.png,n02708093_7998.png,0.0,1.504104,3.061071,-1.1009419
alexnet,1,554,NaN,elephant,elephant,c30,0554_cop_dnn_c30_elephant_10_n02504458_3409.png,n02504458_3409.png,1.0,10.16675,3.88502,4.4418535
alexnet,1,555,NaN,airplane,bottle,c01,0555_cop_dnn_c01_bottle_10_n04560804_24166.png,n04560804_24166.png,0.0,1.3497684,2.981292,-1.1536614
alexnet,1,556,NaN,cat,cat,c15,0556_cop_dnn_c15_cat_10_n02125311_17613.png,n02125311_17613.png,1.0,2.8443773,2.7894473,0.038841356
alexnet,1,557,NaN,airplane,bicycle,c05,0557_cop_dnn_c05_bicycle_10_n03792782_5284.png,n03792782_5284.png,0.0,-2.0165312,2.1942143,-2.977447
alexnet,1,558,NaN,chair,oven,c10,0558_cop_dnn_c10_oven_10_n04111531_13006.png,n04111531_13006.png,0.0,1.6863477,2.9465365,-0.89108807
alexnet,1,559,NaN,airplane,oven,c10,0559_cop_dnn_c10_oven_10_n04111531_8309.png,n04111531_8309.png,0.0,0.8789095,2.2903934,-0.99806976
alexnet,1,560,NaN,clock,clock,c10,0560_cop_dnn_c10_clock_10_n04548280_8390.png,n04548280_8390.png,1.0,1.6615515,1.2453992,0.29426408
alexnet,1,561,NaN,truck,truck,c50,0561_cop_dnn_c50_truck_10_n04467665_7110.png,n04467665_7110.png,1.0,12.03256,6.3901258,3.9898038
alexnet,1,562,NaN,knife,clock,c10,0562_cop_dnn_c10_clock_10_n03196217_8020.png,n03196217_8020.png,0.0,3.7238224,4.9666634,-0.8788213
alexnet,1,563,NaN,elephant,elephant,c100,0563_cop_dnn_c100_elephant_10_n02504458_7955.png,n02504458_7955.png,1.0,11.8192625,4.6755767,5.0513487
alexnet,1,564,NaN,airplane,elephant,c01,0564_cop_dnn_c01_elephant_10_n02504458_1022.png,n02504458_1022.png,0.0,-0.6611772,3.007794,-2.5943544
alexnet,1,565,NaN,clock,clock,c100,0565_cop_dnn_c100_clock_10_n04548280_2383.png,n04548280_2383.png,1.0,7.6275177,5.8080635,1.2865484
alexnet,1,566,NaN,cat,bird,c50,0566_cop_dnn_c50_bird_10_n02002724_7019.png,n02002724_7019.png,0.0,4.2630305,4.3507676,-0.062039487
alexnet,1,567,NaN,cat,cat,c100,0567_cop_dnn_c100_cat_10_n02125311_1127.png,n02125311_1127.png,1.0,8.197461,2.6415339,3.928634
alexnet,1,568,NaN,bottle,bicycle,c05,0568_cop_dnn_c05_bicycle_10_n02835271_6481.png,n02835271_6481.png,0.0,-2.1041646,2.650398,-3.3619833
alexnet,1,569,NaN,clock,car,c15,0569_cop_dnn_c15_car_10_n04285008_5208.png,n04285008_5208.png,0.0,0.72518283,4.617456,-2.7522528
alexnet,1,570,NaN,oven,oven,c50,0570_cop_dnn_c50_oven_10_n04111531_8658.png,n04111531_8658.png,1.0,5.8565474,3.5762181,1.6124363
alexnet,1,571,NaN,knife,bottle,c05,0571_cop_dnn_c05_bottle_10_n04579145_2910.png,n04579145_2910.png,0.0,3.1695485,3.5005023,-0.23401971
alexnet,1,572,NaN,airplane,truck,c01,0572_cop_dnn_c01_truck_10_n04467665_22414.png,n04467665_22414.png,0.0,-0.6479515,2.9684246,-2.557164
alexnet,1,573,NaN,elephant,elephant,c15,0573_cop_dnn_c15_elephant_10_n02504013_5439.png,n02504013_5439.png,1.0,4.010548,2.4460602,1.1062601
alexnet,1,574,NaN,bottle,cat,c10,0574_cop_dnn_c10_cat_10_n02123159_5945.png,n02123159_5945.png,0.0,1.0458814,2.9435802,-1.3418757
alexnet,1,575,NaN,bottle,bottle,c10,0575_cop_dnn_c10_bottle_10_n04557648_2426.png,n04557648_2426.png,1.0,4.948756,3.8774245,0.75754595
alexnet,1,576,NaN,airplane,bicycle,c05,0576_cop_dnn_c05_bicycle_10_n03792782_38641.png,n03792782_38641.png,0.0,-1.090181,2.0595984,-2.2272303
alexnet,1,577,NaN,bottle,dog,c30,0577_cop_dnn_c30_dog_10_n02110958_15843.png,n02110958_15843.png,0.0,1.910826,3.2756572,-0.9650814
alexnet,1,578,NaN,keyboard,keyboard,c15,0578_cop_dnn_c15_keyboard_10_n04505470_5161.png,n04505470_5161.png,1.0,4.30949,2.4219491,1.3346931
alexnet,1,579,NaN,airplane,airplane,c30,0579_cop_dnn_c30_airplane_10_n02690373_8350.png,n02690373_8350.png,1.0,10.147029,3.556952,4.6598883
alexnet,1,580,NaN,airplane,bicycle,c05,0580_cop_dnn_c05_bicycle_10_n03792782_10129.png,n03792782_10129.png,0.0,-1.0616089,3.995757,-3.5760977
alexnet,1,581,NaN,car,car,c100,0581_cop_dnn_c100_car_10_n02814533_26369.png,n02814533_26369.png,1.0,6.5429854,6.338389,0.14467159
alexnet,1,582,NaN,oven,oven,c10,0582_cop_dnn_c10_oven_10_n04111531_10077.png,n04111531_10077.png,1.0,4.1033945,4.059845,0.030794173
alexnet,1,583,NaN,airplane,oven,c01,0583_cop_dnn_c01_oven_10_n04111531_12702.png,n04111531_12702.png,0.0,-0.82844436,2.8703704,-2.615457
alexnet,1,584,NaN,clock,clock,c100,0584_cop_dnn_c100_clock_10_n03196217_8618.png,n03196217_8618.png,1.0,11.214885,6.733207,3.1690247
alexnet,1,585,NaN,bottle,bottle,c10,0585_cop_dnn_c10_bottle_10_n03983396_4227.png,n03983396_4227.png,1.0,4.3241735,3.4378505,0.626725
alexnet,1,586,NaN,keyboard,bottle,c30,0586_cop_dnn_c30_bottle_10_n03983396_9090.png,n03983396_9090.png,0.0,6.020888,7.0912275,-0.75684446
alexnet,1,587,NaN,bear,bear,c100,0587_cop_dnn_c100_bear_10_n02133161_223.png,n02133161_223.png,1.0,5.5981355,4.13405,1.0352648
alexnet,1,588,NaN,keyboard,keyboard,c50,0588_cop_dnn_c50_keyboard_10_n04505470_1047.png,n04505470_1047.png,1.0,13.106112,7.3410053,4.0765457
alexnet,1,589,NaN,airplane,elephant,c03,0589_cop_dnn_c03_elephant_10_n02504013_7467.png,n02504013_7467.png,0.0,-1.3936226,2.973268,-3.0878582
alexnet,1,590,NaN,knife,elephant,c30,0590_cop_dnn_c30_elephant_10_n02504013_476.png,n02504013_476.png,0.0,3.5683084,5.3373566,-1.250906
alexnet,1,591,NaN,chair,chair,c100,0591_cop_dnn_c100_chair_10_n02791124_12707.png,n02791124_12707.png,1.0,5.898057,4.400402,1.0590019
alexnet,1,592,NaN,airplane,bird,c01,0592_cop_dnn_c01_bird_10_n01537544_22049.png,n01537544_22049.png,0.0,1.2164667,3.0087724,-1.2673515
alexnet,1,593,NaN,clock,bicycle,c05,0593_cop_dnn_c05_bicycle_10_n02835271_4220.png,n02835271_4220.png,0.0,-1.747018,1.7278856,-2.457128
alexnet,1,594,NaN,chair,truck,c10,0594_cop_dnn_c10_truck_10_n03417042_7530.png,n03417042_7530.png,0.0,2.134567,3.6238115,-1.0530549
alexnet,1,595,NaN,airplane,bear,c03,0595_cop_dnn_c03_bear_10_n02134418_12457.png,n02134418_12457.png,0.0,-0.8181372,3.1228876,-2.7867253
alexnet,1,596,NaN,bottle,bottle,c50,0596_cop_dnn_c50_bottle_10_n04557648_10265.png,n04557648_10265.png,1.0,9.849948,5.5758677,3.022231
alexnet,1,597,NaN,clock,clock,c15,0597_cop_dnn_c15_clock_10_n02708093_2025.png,n02708093_2025.png,1.0,5.1936336,2.843156,1.6620386
alexnet,1,598,NaN,chair,chair,c15,0598_cop_dnn_c15_chair_10_n03376595_1961.png,n03376595_1961.png,1.0,3.8515894,2.403612,1.0238748
alexnet,1,599,NaN,boat,bear,c05,0599_cop_dnn_c05_bear_10_n02134084_67.png,n02134084_67.png,0.0,-0.360986,2.7712882,-2.2148523
alexnet,1,600,NaN,cat,cat,c50,0600_cop_dnn_c50_cat_10_n02123045_455.png,n02123045_455.png,1.0,14.61707,2.2039123,8.777429
alexnet,1,601,NaN,clock,car,c10,0601_cop_dnn_c10_car_10_n03100240_13929.png,n03100240_13929.png,0.0,-0.105345845,3.2848222,-2.397211
alexnet,1,602,NaN,boat,elephant,c10,0602_cop_dnn_c10_elephant_10_n02504458_4997.png,n02504458_4997.png,0.0,-0.9952383,4.4531093,-3.8525636
alexnet,1,603,NaN,airplane,airplane,c10,0603_cop_dnn_c10_airplane_10_n02690373_5344.png,n02690373_5344.png,1.0,3.9043584,2.191669,1.2110543
alexnet,1,604,NaN,airplane,oven,c01,0604_cop_dnn_c01_oven_10_n04111531_797.png,n04111531_797.png,0.0,-0.8461921,3.11687,-2.802308
alexnet,1,605,NaN,boat,boat,c30,0605_cop_dnn_c30_boat_10_n04273569_3085.png,n04273569_3085.png,1.0,7.986046,3.3061614,3.309178
alexnet,1,606,NaN,oven,oven,c100,0606_cop_dnn_c100_oven_10_n04111531_9113.png,n04111531_9113.png,1.0,8.541989,4.4736123,2.876777
alexnet,1,607,NaN,airplane,boat,c03,0607_cop_dnn_c03_boat_10_n03662601_18803.png,n03662601_18803.png,0.0,1.8792171,2.3942852,-0.36420813
alexnet,1,608,NaN,airplane,truck,c03,0608_cop_dnn_c03_truck_10_n04467665_30581.png,n04467665_30581.png,0.0,-0.6771531,2.2677505,-2.0823615
alexnet,1,609,NaN,elephant,elephant,c30,0609_cop_dnn_c30_elephant_10_n02504013_5237.png,n02504013_5237.png,1.0,8.419224,3.4454868,3.516963
alexnet,1,610,NaN,keyboard,keyboard,c100,0610_cop_dnn_c100_keyboard_10_n03085013_12175.png,n03085013_12175.png,1.0,17.92973,6.5700374,8.032516
alexnet,1,611,NaN,chair,chair,c30,0611_cop_dnn_c30_chair_10_n02791124_5401.png,n02791124_5401.png,1.0,7.666494,5.173355,1.7629154
alexnet,1,612,NaN,boat,boat,c50,0612_cop_dnn_c50_boat_10_n02951358_22332.png,n02951358_22332.png,1.0,6.734416,6.4920063,0.17140955
alexnet,1,613,NaN,airplane,knife,c03,0613_cop_dnn_c03_knife_10_n03041632_11932.png,n03041632_11932.png,0.0,2.8720636,3.2428594,-0.2621922
alexnet,1,614,NaN,cat,cat,c30,0614_cop_dnn_c30_cat_10_n02123159_5257.png,n02123159_5257.png,1.0,3.4098034,2.4588761,0.67240715
alexnet,1,615,NaN,bottle,bottle,c50,0615_cop_dnn_c50_bottle_10_n03983396_105.png,n03983396_105.png,1.0,9.612312,4.8096547,3.3959918
alexnet,1,616,NaN,boat,boat,c50,0616_cop_dnn_c50_boat_10_n04612504_11939.png,n04612504_11939.png,1.0,8.561274,2.599815,4.215388
alexnet,1,617,NaN,chair,boat,c30,0617_cop_dnn_c30_boat_10_n03662601_5575.png,n03662601_5575.png,0.0,2.8767524,3.6261883,-0.5299312
alexnet,1,618,NaN,airplane,cat,c05,0618_cop_dnn_c05_cat_10_n02123159_6590.png,n02123159_6590.png,0.0,-0.14470023,2.0803921,-1.573378
alexnet,1,619,NaN,knife,bear,c50,0619_cop_dnn_c50_bear_10_n02134084_21462.png,n02134084_21462.png,0.0,2.095019,3.6622639,-1.1082094
alexnet,1,620,NaN,airplane,cat,c05,0620_cop_dnn_c05_cat_10_n02125311_46330.png,n02125311_46330.png,0.0,-0.11437314,2.3174255,-1.7195414
alexnet,1,621,NaN,airplane,cat,c01,0621_cop_dnn_c01_cat_10_n02123394_4714.png,n02123394_4714.png,0.0,-0.8024704,3.0880435,-2.7510087
alexnet,1,622,NaN,knife,knife,c30,0622_cop_dnn_c30_knife_10_n03041632_1671.png,n03041632_1671.png,1.0,5.073272,4.575949,0.3516605
alexnet,1,623,NaN,truck,truck,c50,0623_cop_dnn_c50_truck_10_n04467665_30901.png,n04467665_30901.png,1.0,8.394238,7.9228,0.3333573
alexnet,1,624,NaN,dog,dog,c100,0624_cop_dnn_c100_dog_10_n02104029_4704.png,n02104029_4704.png,1.0,3.7833927,3.2432446,0.38194233
alexnet,1,625,NaN,keyboard,keyboard,c15,0625_cop_dnn_c15_keyboard_10_n03085013_3665.png,n03085013_3665.png,1.0,9.240974,5.9950967,2.2951822
alexnet,1,626,NaN,airplane,bird,c01,0626_cop_dnn_c01_bird_10_n01820546_1616.png,n01820546_1616.png,0.0,1.0593598,3.1912313,-1.5074608
alexnet,1,627,NaN,airplane,keyboard,c30,0627_cop_dnn_c30_keyboard_10_n04505470_8754.png,n04505470_8754.png,0.0,1.1785991,5.1382446,-2.7998922
alexnet,1,628,NaN,knife,oven,c05,0628_cop_dnn_c05_oven_10_n04111531_8688.png,n04111531_8688.png,0.0,1.8869971,4.694946,-1.9855195
alexnet,1,629,NaN,clock,oven,c10,0629_cop_dnn_c10_oven_10_n04111531_13862.png,n04111531_13862.png,0.0,-0.22272384,3.764507,-2.819398
alexnet,1,630,NaN,airplane,truck,c03,0630_cop_dnn_c03_truck_10_n04467665_9266.png,n04467665_9266.png,0.0,0.7799252,4.292206,-2.4835575
alexnet,1,631,NaN,chair,chair,c30,0631_cop_dnn_c30_chair_10_n03376595_1024.png,n03376595_1024.png,1.0,8.944898,2.0076194,4.9053965
alexnet,1,632,NaN,bottle,bottle,c30,0632_cop_dnn_c30_bottle_10_n02823428_4468.png,n02823428_4468.png,1.0,9.317453,3.6963809,3.9746988
alexnet,1,633,NaN,truck,truck,c15,0633_cop_dnn_c15_truck_10_n03796401_4154.png,n03796401_4154.png,1.0,5.39717,4.505152,0.63075185
alexnet,1,634,NaN,cat,dog,c50,0634_cop_dnn_c50_dog_10_n02087046_4421.png,n02087046_4421.png,0.0,2.5411496,2.7099812,-0.119381964
alexnet,1,635,NaN,bottle,car,c05,0635_cop_dnn_c05_car_10_n03100240_9011.png,n03100240_9011.png,0.0,-0.26553532,3.0142174,-2.3191354
alexnet,1,636,NaN,clock,bird,c15,0636_cop_dnn_c15_bird_10_n02011460_2417.png,n02011460_2417.png,0.0,-0.18864712,1.7659888,-1.3821363
alexnet,1,637,NaN,bottle,bottle,c100,0637_cop_dnn_c100_bottle_10_n04557648_988.png,n04557648_988.png,1.0,6.5153747,2.2813725,2.9938917
alexnet,1,638,NaN,airplane,cat,c05,0638_cop_dnn_c05_cat_10_n02123159_5205.png,n02123159_5205.png,0.0,-0.14730103,2.5441196,-1.9031217
alexnet,1,639,NaN,bottle,oven,c15,0639_cop_dnn_c15_oven_10_n04111531_23215.png,n04111531_23215.png,0.0,1.4920826,1.7150527,-0.15766369
alexnet,1,640,NaN,knife,truck,c05,0640_cop_dnn_c05_truck_10_n03796401_20641.png,n03796401_20641.png,0.0,1.8749865,5.7033224,-2.7070422
alexnet,1,641,NaN,airplane,boat,c15,0641_cop_dnn_c15_boat_10_n03662601_16412.png,n03662601_16412.png,0.0,3.6174045,6.0966587,-1.7530975
alexnet,1,642,NaN,bottle,airplane,c15,0642_cop_dnn_c15_airplane_10_n02690373_1952.png,n02690373_1952.png,0.0,3.4343872,3.8657546,-0.3050228
alexnet,1,643,NaN,knife,dog,c05,0643_cop_dnn_c05_dog_10_n02086079_37199.png,n02086079_37199.png,0.0,-0.9706083,3.6028016,-3.2338893
alexnet,1,644,NaN,airplane,airplane,c10,0644_cop_dnn_c10_airplane_10_n02690373_4375.png,n02690373_4375.png,1.0,5.385229,3.2803073,1.4884045
alexnet,1,645,NaN,bottle,bird,c15,0645_cop_dnn_c15_bird_10_n01592084_4764.png,n01592084_4764.png,0.0,-0.7274441,3.6690135,-3.1087651
alexnet,1,646,NaN,keyboard,knife,c30,0646_cop_dnn_c30_knife_10_n03041632_44269.png,n03041632_44269.png,0.0,6.039216,6.3437166,-0.21531443
alexnet,1,647,NaN,elephant,elephant,c30,0647_cop_dnn_c30_elephant_10_n02504013_1258.png,n02504013_1258.png,1.0,6.1110125,3.0250413,2.182111
alexnet,1,648,NaN,airplane,airplane,c30,0648_cop_dnn_c30_airplane_10_n02690373_6138.png,n02690373_6138.png,1.0,9.269421,5.4522085,2.6991765
alexnet,1,649,NaN,airplane,chair,c03,0649_cop_dnn_c03_chair_10_n04099969_9713.png,n04099969_9713.png,0.0,-0.21949267,3.0633545,-2.3213236
alexnet,1,650,NaN,airplane,bicycle,c01,0650_cop_dnn_c01_bicycle_10_n02835271_8212.png,n02835271_8212.png,0.0,-1.2284458,2.9369452,-2.9453762
alexnet,1,651,NaN,keyboard,keyboard,c50,0651_cop_dnn_c50_keyboard_10_n03085013_14279.png,n03085013_14279.png,1.0,12.884807,5.095254,5.5080457
alexnet,1,652,NaN,airplane,bottle,c01,0652_cop_dnn_c01_bottle_10_n04591713_5364.png,n04591713_5364.png,0.0,1.3720522,2.9162583,-1.0919187
alexnet,1,653,NaN,knife,bird,c15,0653_cop_dnn_c15_bird_10_n01819313_4045.png,n01819313_4045.png,0.0,-2.074955,4.904314,-4.9350886
alexnet,1,654,NaN,bottle,bird,c10,0654_cop_dnn_c10_bird_10_n02009229_263.png,n02009229_263.png,0.0,-0.4447619,2.5189247,-2.095643
alexnet,1,655,NaN,cat,cat,c30,0655_cop_dnn_c30_cat_10_n02123394_2285.png,n02123394_2285.png,1.0,3.0692894,2.1602454,0.6427912
alexnet,1,656,NaN,airplane,clock,c05,0656_cop_dnn_c05_clock_10_n04548280_2559.png,n04548280_2559.png,0.0,1.9607176,2.6410625,-0.48107654
alexnet,1,657,NaN,airplane,elephant,c01,0657_cop_dnn_c01_elephant_10_n02504458_4137.png,n02504458_4137.png,0.0,-0.6656389,2.9801502,-2.5779622
alexnet,1,658,NaN,airplane,knife,c01,0658_cop_dnn_c01_knife_10_n03041632_206.png,n03041632_206.png,0.0,2.8425028,2.9709477,-0.09082427
alexnet,1,659,NaN,clock,truck,c10,0659_cop_dnn_c10_truck_10_n03417042_5604.png,n03417042_5604.png,0.0,2.2012959,3.2171383,-0.7183091
alexnet,1,660,NaN,bottle,bottle,c15,0660_cop_dnn_c15_bottle_10_n03983396_1629.png,n03983396_1629.png,1.0,5.312896,5.1451144,0.118639335
alexnet,1,661,NaN,clock,keyboard,c10,0661_cop_dnn_c10_keyboard_10_n03085013_16359.png,n03085013_16359.png,0.0,0.60736066,3.8838642,-2.316838
alexnet,1,662,NaN,chair,oven,c15,0662_cop_dnn_c15_oven_10_n04111531_8305.png,n04111531_8305.png,0.0,2.5630755,4.7432456,-1.5416131
alexnet,1,663,NaN,airplane,truck,c03,0663_cop_dnn_c03_truck_10_n04467665_276.png,n04467665_276.png,0.0,0.32861543,3.343744,-2.1320179
alexnet,1,664,NaN,airplane,car,c03,0664_cop_dnn_c03_car_10_n04285008_7950.png,n04285008_7950.png,0.0,0.23781307,3.0200906,-1.9673674
alexnet,1,665,NaN,knife,dog,c30,0665_cop_dnn_c30_dog_10_n02108422_293.png,n02108422_293.png,0.0,-0.0030555031,3.257862,-2.3058171
alexnet,1,666,NaN,cat,bear,c15,0666_cop_dnn_c15_bear_10_n02132136_2451.png,n02132136_2451.png,0.0,0.32137114,2.396663,-1.467453
alexnet,1,667,NaN,car,car,c30,0667_cop_dnn_c30_car_10_n03100240_17245.png,n03100240_17245.png,1.0,10.398551,6.6597185,2.6437538
alexnet,1,668,NaN,bottle,knife,c05,0668_cop_dnn_c05_knife_10_n03041632_29886.png,n03041632_29886.png,0.0,1.2394702,1.782151,-0.38373324
alexnet,1,669,NaN,oven,truck,c50,0669_cop_dnn_c50_truck_10_n03417042_3952.png,n03417042_3952.png,0.0,1.098721,5.549931,-3.1474807
alexnet,1,670,NaN,airplane,truck,c01,0670_cop_dnn_c01_truck_10_n03417042_17645.png,n03417042_17645.png,0.0,-0.6211579,3.1262,-2.6497822
alexnet,1,671,NaN,clock,oven,c100,0671_cop_dnn_c100_oven_10_n04111531_23264.png,n04111531_23264.png,0.0,5.74869,6.543265,-0.5618492
alexnet,1,672,NaN,elephant,elephant,c50,0672_cop_dnn_c50_elephant_10_n02504458_4580.png,n02504458_4580.png,1.0,11.984666,4.2396693,5.4765396
alexnet,1,673,NaN,airplane,cat,c01,0673_cop_dnn_c01_cat_10_n02123597_8052.png,n02123597_8052.png,0.0,-0.8062163,3.0202482,-2.705719
alexnet,1,674,NaN,bear,bear,c100,0674_cop_dnn_c100_bear_10_n02134418_1218.png,n02134418_1218.png,1.0,2.343131,2.314721,0.020088874
alexnet,1,675,NaN,airplane,boat,c01,0675_cop_dnn_c01_boat_10_n04273569_661.png,n04273569_661.png,0.0,1.2986372,3.1061773,-1.278124
alexnet,1,676,NaN,airplane,airplane,c01,0676_cop_dnn_c01_airplane_10_n02690373_5266.png,n02690373_5266.png,1.0,3.0660255,2.8159165,0.17685375
alexnet,1,677,NaN,clock,keyboard,c15,0677_cop_dnn_c15_keyboard_10_n04505470_4761.png,n04505470_4761.png,0.0,3.733551,4.5343633,-0.5662598
alexnet,1,678,NaN,knife,oven,c10,0678_cop_dnn_c10_oven_10_n04111531_14279.png,n04111531_14279.png,0.0,-0.64553714,2.1514127,-1.9777422
alexnet,1,679,NaN,clock,clock,c50,0679_cop_dnn_c50_clock_10_n03196217_3006.png,n03196217_3006.png,1.0,9.661899,6.1655855,2.4722667
alexnet,1,680,NaN,clock,elephant,c15,0680_cop_dnn_c15_elephant_10_n02504458_2607.png,n02504458_2607.png,0.0,2.0313683,3.753086,-1.2174383
alexnet,1,681,NaN,truck,truck,c100,0681_cop_dnn_c100_truck_10_n03417042_3338.png,n03417042_3338.png,1.0,5.7395253,4.8259845,0.64597094
alexnet,1,682,NaN,car,car,c30,0682_cop_dnn_c30_car_10_n02814533_5183.png,n02814533_5183.png,1.0,9.016831,6.799609,1.5678129
alexnet,1,683,NaN,car,truck,c100,0683_cop_dnn_c100_truck_10_n03417042_7365.png,n03417042_7365.png,0.0,9.096334,9.870172,-0.5471855
alexnet,1,684,NaN,knife,knife,c100,0684_cop_dnn_c100_knife_10_n03041632_29037.png,n03041632_29037.png,1.0,9.151583,4.5435667,3.2583594
alexnet,1,685,NaN,clock,car,c15,0685_cop_dnn_c15_car_10_n03100240_10096.png,n03100240_10096.png,0.0,5.194609,5.709881,-0.3643521
alexnet,1,686,NaN,clock,keyboard,c05,0686_cop_dnn_c05_keyboard_10_n04505470_1929.png,n04505470_1929.png,0.0,0.3293717,3.6851127,-2.3728673
alexnet,1,687,NaN,airplane,chair,c01,0687_cop_dnn_c01_chair_10_n04099969_10266.png,n04099969_10266.png,0.0,-0.06848107,3.068976,-2.218517
alexnet,1,688,NaN,airplane,car,c01,0688_cop_dnn_c01_car_10_n02814533_83665.png,n02814533_83665.png,0.0,-0.11371374,3.0662127,-2.2485476
alexnet,1,689,NaN,airplane,truck,c03,0689_cop_dnn_c03_truck_10_n03417042_751.png,n03417042_751.png,0.0,-0.19627076,3.0341167,-2.2842288
alexnet,1,690,NaN,airplane,keyboard,c05,0690_cop_dnn_c05_keyboard_10_n03085013_2227.png,n03085013_2227.png,0.0,-0.39871284,3.2452407,-2.5766642
alexnet,1,691,NaN,car,car,c50,0691_cop_dnn_c50_car_10_n03100240_2528.png,n03100240_2528.png,1.0,4.804476,4.429477,0.26516405
alexnet,1,692,NaN,keyboard,bottle,c50,0692_cop_dnn_c50_bottle_10_n03937543_8197.png,n03937543_8197.png,0.0,5.030797,7.570081,-1.7955451
alexnet,1,693,NaN,boat,boat,c30,0693_cop_dnn_c30_boat_10_n04273569_10099.png,n04273569_10099.png,1.0,5.284441,2.7296474,1.8065119
alexnet,1,694,NaN,airplane,knife,c03,0694_cop_dnn_c03_knife_10_n03041632_25479.png,n03041632_25479.png,0.0,2.7782085,3.1873026,-0.2892732
alexnet,1,695,NaN,airplane,oven,c03,0695_cop_dnn_c03_oven_10_n04111531_13795.png,n04111531_13795.png,0.0,-2.002047,3.195058,-3.6749086
alexnet,1,696,NaN,bottle,bear,c05,0696_cop_dnn_c05_bear_10_n02132136_22835.png,n02132136_22835.png,0.0,-0.043893218,1.9920794,-1.43965
alexnet,1,697,NaN,bottle,dog,c15,0697_cop_dnn_c15_dog_10_n02090379_4952.png,n02090379_4952.png,0.0,0.161989,3.418071,-2.3023977
alexnet,1,698,NaN,airplane,boat,c03,0698_cop_dnn_c03_boat_10_n02951358_29817.png,n02951358_29817.png,0.0,1.2933272,2.787744,-1.0567123
alexnet,1,699,NaN,airplane,airplane,c10,0699_cop_dnn_c10_airplane_10_n02690373_4115.png,n02690373_4115.png,1.0,5.6246934,3.4158432,1.561893
alexnet,1,700,NaN,car,car,c100,0700_cop_dnn_c100_car_10_n03100240_13707.png,n03100240_13707.png,1.0,11.084038,6.4777803,3.2571158
alexnet,1,701,NaN,keyboard,keyboard,c50,0701_cop_dnn_c50_keyboard_10_n04505470_3117.png,n04505470_3117.png,1.0,8.4770155,5.7163105,1.9521133
alexnet,1,702,NaN,airplane,truck,c15,0702_cop_dnn_c15_truck_10_n04467665_66065.png,n04467665_66065.png,0.0,2.8982298,5.150894,-1.5928743
alexnet,1,703,NaN,knife,keyboard,c10,0703_cop_dnn_c10_keyboard_10_n03085013_8325.png,n03085013_8325.png,0.0,1.7298533,4.0916815,-1.6700648
alexnet,1,704,NaN,airplane,truck,c03,0704_cop_dnn_c03_truck_10_n04467665_52595.png,n04467665_52595.png,0.0,-0.14257221,3.5383737,-2.6028218
alexnet,1,705,NaN,airplane,bicycle,c100,0705_cop_dnn_c100_bicycle_10_n03792782_15557.png,n03792782_15557.png,0.0,3.8396833,7.02081,-2.2493963
alexnet,1,706,NaN,airplane,knife,c05,0706_cop_dnn_c05_knife_10_n03041632_34676.png,n03041632_34676.png,0.0,1.7467031,3.1911724,-1.021394
alexnet,1,707,NaN,airplane,airplane,c05,0707_cop_dnn_c05_airplane_10_n02690373_5729.png,n02690373_5729.png,1.0,3.1801128,2.2774808,0.6382572
alexnet,1,708,NaN,boat,boat,c100,0708_cop_dnn_c100_boat_10_n03662601_11901.png,n03662601_11901.png,1.0,5.304275,4.1643076,0.80607873
alexnet,1,709,NaN,bicycle,bicycle,c30,0709_cop_dnn_c30_bicycle_10_n03792782_10526.png,n03792782_10526.png,1.0,5.128106,3.5412881,1.1220498
alexnet,1,710,NaN,boat,truck,c10,0710_cop_dnn_c10_truck_10_n04467665_53339.png,n04467665_53339.png,0.0,3.616874,5.2572803,-1.1599425
alexnet,1,711,NaN,airplane,boat,c100,0711_cop_dnn_c100_boat_10_n04273569_12214.png,n04273569_12214.png,0.0,8.059938,10.639313,-1.8238931
alexnet,1,712,NaN,bottle,bottle,c05,0712_cop_dnn_c05_bottle_10_n04591713_105.png,n04591713_105.png,1.0,3.5597937,2.851303,0.5009785
alexnet,1,713,NaN,airplane,car,c01,0713_cop_dnn_c01_car_10_n04285008_7325.png,n04285008_7325.png,0.0,-0.14574005,3.0856209,-2.2849174
alexnet,1,714,NaN,airplane,clock,c03,0714_cop_dnn_c03_clock_10_n04548280_4582.png,n04548280_4582.png,0.0,1.6926975,3.0504742,-0.9600931
alexnet,1,715,NaN,oven,oven,c30,0715_cop_dnn_c30_oven_10_n04111531_8963.png,n04111531_8963.png,1.0,3.2192483,2.579209,0.45257607
alexnet,1,716,NaN,airplane,chair,c01,0716_cop_dnn_c01_chair_10_n03376595_16059.png,n03376595_16059.png,0.0,-0.07409012,3.099732,-2.244231
alexnet,1,717,NaN,bottle,knife,c30,0717_cop_dnn_c30_knife_10_n03041632_92637.png,n03041632_92637.png,0.0,1.9307542,1.9921615,-0.043421537
alexnet,1,718,NaN,airplane,bottle,c01,0718_cop_dnn_c01_bottle_10_n04591713_1126.png,n04591713_1126.png,0.0,1.31789,3.1702204,-1.3097954
alexnet,1,719,NaN,knife,keyboard,c01,0719_cop_dnn_c01_keyboard_10_n04505470_4400.png,n04505470_4400.png,0.0,-0.5522819,3.0786686,-2.5674698
alexnet,1,720,NaN,knife,keyboard,c10,0720_cop_dnn_c10_keyboard_10_n03085013_30073.png,n03085013_30073.png,0.0,2.3307767,5.070189,-1.937057
alexnet,1,721,NaN,knife,bird,c100,0721_cop_dnn_c100_bird_10_n01818515_2594.png,n01818515_2594.png,0.0,2.3371751,2.9482589,-0.43210146
alexnet,1,722,NaN,bear,bear,c50,0722_cop_dnn_c50_bear_10_n02132136_19512.png,n02132136_19512.png,1.0,8.271228,6.557716,1.211636
alexnet,1,723,NaN,airplane,airplane,c50,0723_cop_dnn_c50_airplane_10_n02690373_4964.png,n02690373_4964.png,1.0,12.629513,4.313027,5.880644
alexnet,1,724,NaN,airplane,oven,c03,0724_cop_dnn_c03_oven_10_n04111531_14611.png,n04111531_14611.png,0.0,-1.7262639,3.2344046,-3.5077224
alexnet,1,725,NaN,airplane,knife,c05,0725_cop_dnn_c05_knife_10_n03041632_9302.png,n03041632_9302.png,0.0,1.2166283,3.690333,-1.7491733
alexnet,1,726,NaN,chair,bottle,c15,0726_cop_dnn_c15_bottle_10_n04557648_6060.png,n04557648_6060.png,0.0,2.7150688,3.005229,-0.20517424
alexnet,1,727,NaN,cat,dog,c50,0727_cop_dnn_c50_dog_10_n02105056_951.png,n02105056_951.png,0.0,5.4187293,7.891764,-1.7486998
alexnet,1,728,NaN,airplane,truck,c100,0728_cop_dnn_c100_truck_10_n04467665_52762.png,n04467665_52762.png,0.0,6.874313,8.452736,-1.1161137
alexnet,1,729,NaN,cat,cat,c15,0729_cop_dnn_c15_cat_10_n02123159_7607.png,n02123159_7607.png,1.0,1.8709685,1.8127136,0.04119239
alexnet,1,730,NaN,truck,truck,c100,0730_cop_dnn_c100_truck_10_n03417042_4420.png,n03417042_4420.png,1.0,4.596232,4.469183,0.089837186
alexnet,1,731,NaN,knife,bicycle,c100,0731_cop_dnn_c100_bicycle_10_n03792782_4474.png,n03792782_4474.png,0.0,3.0596118,3.6429503,-0.41248262
alexnet,1,732,NaN,knife,bird,c10,0732_cop_dnn_c10_bird_10_n02018207_9697.png,n02018207_9697.png,0.0,-1.498961,4.8431005,-4.4845147
alexnet,1,733,NaN,knife,bird,c30,0733_cop_dnn_c30_bird_10_n02007558_2518.png,n02007558_2518.png,0.0,0.18362585,3.5120964,-2.353584
alexnet,1,734,NaN,knife,keyboard,c05,0734_cop_dnn_c05_keyboard_10_n03085013_1824.png,n03085013_1824.png,0.0,-0.60736966,2.3230026,-2.072086
alexnet,1,735,NaN,bottle,bird,c05,0735_cop_dnn_c05_bird_10_n02027492_3072.png,n02027492_3072.png,0.0,1.2715644,1.6092597,-0.23878668
alexnet,1,736,NaN,clock,car,c10,0736_cop_dnn_c10_car_10_n03100240_2108.png,n03100240_2108.png,0.0,-1.1976601,3.1968648,-3.1073985
alexnet,1,737,NaN,bottle,truck,c10,0737_cop_dnn_c10_truck_10_n03417042_14261.png,n03417042_14261.png,0.0,1.0830594,3.0570793,-1.3958429
