subj,session,trial,rt,object_response,category,condition,imagename,filename,is_correct,targ_act,max_nontarg_act,decision_margin
convnext_large,1,1,NaN,knife,knife,c30,0001_cop_dnn_c30_knife_10_n03041632_7380.png,n03041632_7380.png,1.0,7.880709,0.7726014,5.026191
convnext_large,1,2,NaN,bicycle,bicycle,c100,0002_cop_dnn_c100_bicycle_10_n03792782_5966.png,n03792782_5966.png,1.0,6.63552,0.46938562,4.3601155
convnext_large,1,3,NaN,bird,bird,c01,0003_cop_dnn_c01_bird_10_n01601694_10802.png,n01601694_10802.png,1.0,1.537441,0.70587105,0.58800876
convnext_large,1,4,NaN,airplane,airplane,c05,0004_cop_dnn_c05_airplane_10_n02690373_9759.png,n02690373_9759.png,1.0,8.153743,0.3833148,5.4945226
convnext_large,1,5,NaN,car,car,c03,0005_cop_dnn_c03_car_10_n02814533_2236.png,n02814533_2236.png,1.0,3.6236002,2.570343,0.74476534
convnext_large,1,6,NaN,chair,chair,c30,0006_cop_dnn_c30_chair_10_n02791124_7207.png,n02791124_7207.png,1.0,2.7194724,0.2590471,1.7397835
convnext_large,1,7,NaN,oven,oven,c50,0007_cop_dnn_c50_oven_10_n04111531_7064.png,n04111531_7064.png,1.0,8.474531,1.0848254,5.2253113
convnext_large,1,8,NaN,bird,bird,c15,0008_cop_dnn_c15_bird_10_n01532829_2263.png,n01532829_2263.png,1.0,0.85726553,0.21296637,0.4555883
convnext_large,1,9,NaN,bicycle,bicycle,c50,0009_cop_dnn_c50_bicycle_10_n02835271_3383.png,n02835271_3383.png,1.0,4.575081,0.33618605,2.9973514
convnext_large,1,10,NaN,bicycle,bicycle,c03,0010_cop_dnn_c03_bicycle_10_n03792782_27510.png,n03792782_27510.png,1.0,6.3245516,0.6885314,3.985268
convnext_large,1,11,NaN,chair,bottle,c03,0011_cop_dnn_c03_bottle_10_n04557648_10944.png,n04557648_10944.png,0.0,-0.011254945,1.02416,-0.73214895
convnext_large,1,12,NaN,keyboard,keyboard,c15,0012_cop_dnn_c15_keyboard_10_n03085013_20891.png,n03085013_20891.png,1.0,4.2320156,0.44847777,2.6753652
convnext_large,1,13,NaN,elephant,elephant,c30,0013_cop_dnn_c30_elephant_10_n02504458_3225.png,n02504458_3225.png,1.0,6.1106873,0.48168308,3.9803069
convnext_large,1,14,NaN,keyboard,keyboard,c10,0014_cop_dnn_c10_keyboard_10_n04505470_6638.png,n04505470_6638.png,1.0,6.4513984,0.8117054,3.987865
convnext_large,1,15,NaN,bear,bird,c01,0015_cop_dnn_c01_bird_10_n01601694_11888.png,n01601694_11888.png,0.0,0.29968596,1.1324995,-0.5888881
convnext_large,1,16,NaN,airplane,airplane,c03,0016_cop_dnn_c03_airplane_10_n02690373_8743.png,n02690373_8743.png,1.0,8.405602,0.21615559,5.7908134
convnext_large,1,17,NaN,boat,boat,c10,0017_cop_dnn_c10_boat_10_n03344393_8869.png,n03344393_8869.png,1.0,2.8468213,0.5745512,1.6067377
convnext_large,1,18,NaN,bear,bear,c01,0018_cop_dnn_c01_bear_10_n02132136_27682.png,n02132136_27682.png,1.0,5.3658032,0.7467814,3.2661417
convnext_large,1,19,NaN,clock,clock,c50,0019_cop_dnn_c50_clock_10_n02708093_7081.png,n02708093_7081.png,1.0,3.874466,0.9143824,2.093095
convnext_large,1,20,NaN,car,car,c10,0020_cop_dnn_c10_car_10_n03100240_12141.png,n03100240_12141.png,1.0,5.9841843,0.20143461,4.0890217
convnext_large,1,21,NaN,truck,car,c15,0021_cop_dnn_c15_car_10_n02814533_19287.png,n02814533_19287.png,0.0,2.9928796,3.2710304,-0.19668232
convnext_large,1,22,NaN,bicycle,bicycle,c03,0022_cop_dnn_c03_bicycle_10_n02835271_3841.png,n02835271_3841.png,1.0,5.071555,0.5553334,3.1934512
convnext_large,1,23,NaN,clock,clock,c15,0023_cop_dnn_c15_clock_10_n02708093_6696.png,n02708093_6696.png,1.0,5.6513634,0.32826215,3.764001
convnext_large,1,24,NaN,bird,bird,c01,0024_cop_dnn_c01_bird_10_n01829413_6393.png,n01829413_6393.png,1.0,0.9844113,0.32595992,0.46559545
convnext_large,1,25,NaN,clock,clock,c01,0025_cop_dnn_c01_clock_10_n02708093_3484.png,n02708093_3484.png,1.0,4.802716,1.2036469,2.5449262
convnext_large,1,26,NaN,chair,chair,c05,0026_cop_dnn_c05_chair_10_n04429376_55163.png,n04429376_55163.png,1.0,5.8070936,1.9945923,2.6958456
convnext_large,1,27,NaN,boat,boat,c100,0027_cop_dnn_c100_boat_10_n02951358_14528.png,n02951358_14528.png,1.0,1.9981962,0.18736987,1.2804477
convnext_large,1,28,NaN,chair,chair,c01,0028_cop_dnn_c01_chair_10_n03376595_9603.png,n03376595_9603.png,1.0,2.9509585,0.76317346,1.5469978
convnext_large,1,29,NaN,bottle,bottle,c03,0029_cop_dnn_c03_bottle_10_n03937543_1840.png,n03937543_1840.png,1.0,2.9107273,0.41810453,1.7625506
convnext_large,1,30,NaN,car,car,c01,0030_cop_dnn_c01_car_10_n02814533_32835.png,n02814533_32835.png,1.0,2.7375185,0.9425871,1.2692082
convnext_large,1,31,NaN,elephant,bird,c15,0031_cop_dnn_c15_bird_10_n01860187_38598.png,n01860187_38598.png,0.0,0.33455467,0.40984482,-0.053238172
convnext_large,1,32,NaN,airplane,airplane,c100,0032_cop_dnn_c100_airplane_10_n02690373_9322.png,n02690373_9322.png,1.0,8.450776,0.5171926,5.6098905
convnext_large,1,33,NaN,bicycle,bicycle,c01,0033_cop_dnn_c01_bicycle_10_n02835271_1505.png,n02835271_1505.png,1.0,6.811704,0.38480464,4.544504
convnext_large,1,34,NaN,bicycle,bicycle,c50,0034_cop_dnn_c50_bicycle_10_n03792782_11023.png,n03792782_11023.png,1.0,5.2517943,0.25751987,3.5314856
convnext_large,1,35,NaN,elephant,elephant,c50,0035_cop_dnn_c50_elephant_10_n02504458_4909.png,n02504458_4909.png,1.0,5.929235,0.47530454,3.856511
convnext_large,1,36,NaN,boat,boat,c100,0036_cop_dnn_c100_boat_10_n03344393_646.png,n03344393_646.png,1.0,3.3553848,0.59578097,1.9513347
convnext_large,1,37,NaN,boat,boat,c10,0037_cop_dnn_c10_boat_10_n04612504_2472.png,n04612504_2472.png,1.0,2.346246,0.618431,1.2217498
convnext_large,1,38,NaN,keyboard,keyboard,c03,0038_cop_dnn_c03_keyboard_10_n03085013_4673.png,n03085013_4673.png,1.0,6.688908,0.65467155,4.2668495
convnext_large,1,39,NaN,elephant,elephant,c100,0039_cop_dnn_c100_elephant_10_n02504458_1138.png,n02504458_1138.png,1.0,6.745713,0.3830015,4.499117
convnext_large,1,40,NaN,car,car,c100,0040_cop_dnn_c100_car_10_n03100240_5569.png,n03100240_5569.png,1.0,6.3185287,0.5583775,4.073042
convnext_large,1,41,NaN,dog,dog,c100,0041_cop_dnn_c100_dog_10_n02107312_7422.png,n02107312_7422.png,1.0,0.67492676,0.34224603,0.2352408
convnext_large,1,42,NaN,bear,bear,c15,0042_cop_dnn_c15_bear_10_n02134084_24140.png,n02134084_24140.png,1.0,2.733292,0.8422661,1.3371574
convnext_large,1,43,NaN,bottle,bottle,c100,0043_cop_dnn_c100_bottle_10_n04560804_14130.png,n04560804_14130.png,1.0,2.4761693,0.6098543,1.3196841
convnext_large,1,44,NaN,cat,cat,c30,0044_cop_dnn_c30_cat_10_n02124075_11970.png,n02124075_11970.png,1.0,3.077399,0.68496716,1.6917048
convnext_large,1,45,NaN,dog,dog,c03,0045_cop_dnn_c03_dog_10_n02093991_247.png,n02093991_247.png,1.0,0.39564884,0.37978214,0.011219449
convnext_large,1,46,NaN,keyboard,keyboard,c100,0046_cop_dnn_c100_keyboard_10_n04505470_375.png,n04505470_375.png,1.0,5.6719875,0.4771544,3.673302
convnext_large,1,47,NaN,bear,bear,c100,0047_cop_dnn_c100_bear_10_n02134418_4372.png,n02134418_4372.png,1.0,3.515936,0.3528427,2.2366445
convnext_large,1,48,NaN,boat,boat,c01,0048_cop_dnn_c01_boat_10_n03344393_2838.png,n03344393_2838.png,1.0,2.5113463,0.37841335,1.5082114
convnext_large,1,49,NaN,bicycle,bicycle,c05,0049_cop_dnn_c05_bicycle_10_n02835271_4935.png,n02835271_4935.png,1.0,5.4136033,0.34488258,3.584127
convnext_large,1,50,NaN,airplane,airplane,c50,0050_cop_dnn_c50_airplane_10_n02690373_5382.png,n02690373_5382.png,1.0,8.505964,0.3030225,5.800356
convnext_large,1,51,NaN,keyboard,bottle,c100,0051_cop_dnn_c100_bottle_10_n03937543_2123.png,n03937543_2123.png,0.0,1.0814459,1.3362466,-0.1801713
convnext_large,1,52,NaN,elephant,dog,c30,0052_cop_dnn_c30_dog_10_n02097474_5234.png,n02097474_5234.png,0.0,0.27070874,0.43074244,-0.113160916
convnext_large,1,53,NaN,bottle,bottle,c100,0053_cop_dnn_c100_bottle_10_n02823428_6050.png,n02823428_6050.png,1.0,3.2775407,0.7739427,1.7703111
convnext_large,1,54,NaN,clock,clock,c15,0054_cop_dnn_c15_clock_10_n02708093_3743.png,n02708093_3743.png,1.0,5.399943,0.6375605,3.367513
convnext_large,1,55,NaN,knife,knife,c03,0055_cop_dnn_c03_knife_10_n03041632_55083.png,n03041632_55083.png,1.0,8.011188,0.7238946,5.1528945
convnext_large,1,56,NaN,knife,knife,c50,0056_cop_dnn_c50_knife_10_n03041632_41310.png,n03041632_41310.png,1.0,8.462642,0.34380525,5.7408843
convnext_large,1,57,NaN,knife,knife,c03,0057_cop_dnn_c03_knife_10_n03041632_99799.png,n03041632_99799.png,1.0,5.6764083,1.7397143,2.7836633
convnext_large,1,58,NaN,dog,dog,c15,0058_cop_dnn_c15_dog_10_n02094114_8231.png,n02094114_8231.png,1.0,0.27256268,0.19725224,0.053252522
convnext_large,1,59,NaN,chair,chair,c01,0059_cop_dnn_c01_chair_10_n03376595_6173.png,n03376595_6173.png,1.0,2.0511067,1.6051545,0.3153358
convnext_large,1,60,NaN,oven,oven,c05,0060_cop_dnn_c05_oven_10_n04111531_9297.png,n04111531_9297.png,1.0,9.186684,0.676926,6.0173078
convnext_large,1,61,NaN,car,car,c10,0061_cop_dnn_c10_car_10_n03100240_24420.png,n03100240_24420.png,1.0,6.443972,1.8923087,3.218512
convnext_large,1,62,NaN,elephant,elephant,c100,0062_cop_dnn_c100_elephant_10_n02504013_2340.png,n02504013_2340.png,1.0,6.473563,0.16664101,4.459667
convnext_large,1,63,NaN,bicycle,bicycle,c05,0063_cop_dnn_c05_bicycle_10_n02835271_10104.png,n02835271_10104.png,1.0,4.851141,0.4117395,3.139131
convnext_large,1,64,NaN,bicycle,bicycle,c15,0064_cop_dnn_c15_bicycle_10_n03792782_7165.png,n03792782_7165.png,1.0,7.8637905,0.31721303,5.336236
convnext_large,1,65,NaN,knife,knife,c10,0065_cop_dnn_c10_knife_10_n03041632_14817.png,n03041632_14817.png,1.0,7.8801446,0.95507455,4.896764
convnext_large,1,66,NaN,clock,clock,c15,0066_cop_dnn_c15_clock_10_n02708093_118.png,n02708093_118.png,1.0,5.4101143,0.582958,3.4133148
convnext_large,1,67,NaN,airplane,airplane,c10,0067_cop_dnn_c10_airplane_10_n02690373_4298.png,n02690373_4298.png,1.0,8.128706,0.28716755,5.544805
convnext_large,1,68,NaN,knife,knife,c100,0068_cop_dnn_c100_knife_10_n03041632_50034.png,n03041632_50034.png,1.0,8.572931,0.2583953,5.879265
convnext_large,1,69,NaN,chair,chair,c03,0069_cop_dnn_c03_chair_10_n02791124_1333.png,n02791124_1333.png,1.0,2.5356681,0.4981699,1.4407289
convnext_large,1,70,NaN,clock,clock,c01,0070_cop_dnn_c01_clock_10_n02708093_2318.png,n02708093_2318.png,1.0,4.635222,0.5603156,2.881394
convnext_large,1,71,NaN,elephant,elephant,c01,0071_cop_dnn_c01_elephant_10_n02504013_3864.png,n02504013_3864.png,1.0,7.3988132,0.26676184,5.043122
convnext_large,1,72,NaN,chair,chair,c10,0072_cop_dnn_c10_chair_10_n04429376_56624.png,n04429376_56624.png,1.0,3.2030175,0.5426032,1.881197
convnext_large,1,73,NaN,airplane,airplane,c30,0073_cop_dnn_c30_airplane_10_n02690373_7004.png,n02690373_7004.png,1.0,8.249874,0.36256152,5.5771723
convnext_large,1,74,NaN,oven,oven,c30,0074_cop_dnn_c30_oven_10_n04111531_9692.png,n04111531_9692.png,1.0,9.324879,0.6029215,6.167355
convnext_large,1,75,NaN,truck,truck,c50,0075_cop_dnn_c50_truck_10_n03796401_296.png,n03796401_296.png,1.0,3.084426,0.9226655,1.5285954
convnext_large,1,76,NaN,airplane,airplane,c15,0076_cop_dnn_c15_airplane_10_n02690373_1837.png,n02690373_1837.png,1.0,8.5569515,0.55859303,5.655694
convnext_large,1,77,NaN,airplane,airplane,c03,0077_cop_dnn_c03_airplane_10_n02690373_10203.png,n02690373_10203.png,1.0,8.806437,0.50562143,5.869563
convnext_large,1,78,NaN,boat,boat,c03,0078_cop_dnn_c03_boat_10_n02951358_34234.png,n02951358_34234.png,1.0,2.0721645,0.3576325,1.2123573
convnext_large,1,79,NaN,bicycle,bicycle,c100,0079_cop_dnn_c100_bicycle_10_n02835271_2885.png,n02835271_2885.png,1.0,4.0093923,0.7353064,2.3151286
convnext_large,1,80,NaN,airplane,airplane,c30,0080_cop_dnn_c30_airplane_10_n02690373_5247.png,n02690373_5247.png,1.0,8.927005,0.35917795,6.0583687
convnext_large,1,81,NaN,clock,clock,c50,0081_cop_dnn_c50_clock_10_n02708093_596.png,n02708093_596.png,1.0,4.1713257,0.26081562,2.7651482
convnext_large,1,82,NaN,chair,chair,c01,0082_cop_dnn_c01_chair_10_n03376595_1364.png,n03376595_1364.png,1.0,4.3273115,1.2620581,2.1674614
convnext_large,1,83,NaN,cat,cat,c03,0083_cop_dnn_c03_cat_10_n02124075_12430.png,n02124075_12430.png,1.0,3.6744707,0.46017885,2.2728477
convnext_large,1,84,NaN,cat,cat,c05,0084_cop_dnn_c05_cat_10_n02123159_5487.png,n02123159_5487.png,1.0,3.4691308,0.13920882,2.3546104
convnext_large,1,85,NaN,bicycle,bicycle,c50,0085_cop_dnn_c50_bicycle_10_n03792782_17571.png,n03792782_17571.png,1.0,5.812849,0.34811887,3.864148
convnext_large,1,86,NaN,cat,cat,c50,0086_cop_dnn_c50_cat_10_n02123159_6132.png,n02123159_6132.png,1.0,1.9128026,0.34074947,1.1116095
convnext_large,1,87,NaN,bottle,bottle,c05,0087_cop_dnn_c05_bottle_10_n03937543_2873.png,n03937543_2873.png,1.0,1.4876038,0.41511878,0.7583614
convnext_large,1,88,NaN,keyboard,keyboard,c15,0088_cop_dnn_c15_keyboard_10_n04505470_1236.png,n04505470_1236.png,1.0,5.583275,0.6906386,3.4596164
convnext_large,1,89,NaN,airplane,airplane,c01,0089_cop_dnn_c01_airplane_10_n02690373_4243.png,n02690373_4243.png,1.0,8.42723,0.31397694,5.736936
convnext_large,1,90,NaN,oven,oven,c30,0090_cop_dnn_c30_oven_10_n04111531_467.png,n04111531_467.png,1.0,6.3868504,3.910112,1.7513186
convnext_large,1,91,NaN,cat,cat,c03,0091_cop_dnn_c03_cat_10_n02123394_2632.png,n02123394_2632.png,1.0,3.9952946,0.72172207,2.3147652
convnext_large,1,92,NaN,chair,chair,c15,0092_cop_dnn_c15_chair_10_n02791124_5268.png,n02791124_5268.png,1.0,3.1241362,0.28716794,2.0060394
convnext_large,1,93,NaN,chair,knife,c100,0093_cop_dnn_c100_knife_10_n03041632_1143.png,n03041632_1143.png,0.0,3.9266934,4.29998,-0.26395357
convnext_large,1,94,NaN,chair,chair,c10,0094_cop_dnn_c10_chair_10_n02791124_1018.png,n02791124_1018.png,1.0,2.4418173,1.0454068,0.9874113
convnext_large,1,95,NaN,bicycle,bicycle,c05,0095_cop_dnn_c05_bicycle_10_n03792782_8057.png,n03792782_8057.png,1.0,5.119336,0.872655,3.0028572
convnext_large,1,96,NaN,bear,bear,c30,0096_cop_dnn_c30_bear_10_n02132136_1338.png,n02132136_1338.png,1.0,4.068212,1.1793181,2.0427566
convnext_large,1,97,NaN,clock,clock,c05,0097_cop_dnn_c05_clock_10_n02708093_4798.png,n02708093_4798.png,1.0,5.669378,0.564893,3.6094158
convnext_large,1,98,NaN,truck,truck,c01,0098_cop_dnn_c01_truck_10_n03796401_15046.png,n03796401_15046.png,1.0,3.9061291,1.0247426,2.037448
convnext_large,1,99,NaN,knife,knife,c50,0099_cop_dnn_c50_knife_10_n03041632_13612.png,n03041632_13612.png,1.0,5.3529663,0.8391938,3.1917193
convnext_large,1,100,NaN,oven,oven,c10,0100_cop_dnn_c10_oven_10_n04111531_1898.png,n04111531_1898.png,1.0,8.516693,0.5576761,5.627875
convnext_large,1,101,NaN,truck,truck,c03,0101_cop_dnn_c03_truck_10_n04467665_28988.png,n04467665_28988.png,1.0,3.7208848,0.33674172,2.3929505
convnext_large,1,102,NaN,airplane,airplane,c100,0102_cop_dnn_c100_airplane_10_n02690373_736.png,n02690373_736.png,1.0,8.318642,0.9708657,5.1956625
convnext_large,1,103,NaN,airplane,dog,c50,0103_cop_dnn_c50_dog_10_n02111500_5154.png,n02111500_5154.png,0.0,0.44760954,0.5989472,-0.10701191
convnext_large,1,104,NaN,bear,bear,c50,0104_cop_dnn_c50_bear_10_n02133161_13461.png,n02133161_13461.png,1.0,4.451847,0.44200242,2.8353884
convnext_large,1,105,NaN,elephant,dog,c15,0105_cop_dnn_c15_dog_10_n02102318_11746.png,n02102318_11746.png,0.0,0.38159359,0.57844746,-0.13919671
convnext_large,1,106,NaN,boat,boat,c50,0106_cop_dnn_c50_boat_10_n03662601_12226.png,n03662601_12226.png,1.0,3.03101,0.5928663,1.724028
convnext_large,1,107,NaN,keyboard,keyboard,c05,0107_cop_dnn_c05_keyboard_10_n04505470_3207.png,n04505470_3207.png,1.0,5.1725197,0.5740846,3.2515845
convnext_large,1,108,NaN,bicycle,bicycle,c30,0108_cop_dnn_c30_bicycle_10_n03792782_2628.png,n03792782_2628.png,1.0,7.055555,0.5282992,4.6154666
convnext_large,1,109,NaN,chair,chair,c01,0109_cop_dnn_c01_chair_10_n02791124_3204.png,n02791124_3204.png,1.0,3.221096,1.2381374,1.4021635
convnext_large,1,110,NaN,bottle,bottle,c03,0110_cop_dnn_c03_bottle_10_n04560804_722.png,n04560804_722.png,1.0,1.1983163,0.76646286,0.30536652
convnext_large,1,111,NaN,bicycle,bicycle,c30,0111_cop_dnn_c30_bicycle_10_n03792782_8847.png,n03792782_8847.png,1.0,6.6103134,0.320282,4.447724
convnext_large,1,112,NaN,bear,bear,c50,0112_cop_dnn_c50_bear_10_n02132136_1132.png,n02132136_1132.png,1.0,3.8688505,0.6414,2.2821522
convnext_large,1,113,NaN,knife,knife,c50,0113_cop_dnn_c50_knife_10_n03041632_6557.png,n03041632_6557.png,1.0,9.022309,0.33499435,6.1428595
convnext_large,1,114,NaN,knife,knife,c100,0114_cop_dnn_c100_knife_10_n03041632_35116.png,n03041632_35116.png,1.0,8.491505,1.0465199,5.2643995
convnext_large,1,115,NaN,car,car,c15,0115_cop_dnn_c15_car_10_n02814533_3117.png,n02814533_3117.png,1.0,4.679916,0.81975144,2.7295485
convnext_large,1,116,NaN,cat,bird,c15,0116_cop_dnn_c15_bird_10_n02009229_4224.png,n02009229_4224.png,0.0,0.45769206,0.5838947,-0.08923877
convnext_large,1,117,NaN,chair,chair,c50,0117_cop_dnn_c50_chair_10_n03376595_9247.png,n03376595_9247.png,1.0,1.6445335,1.6148847,0.020964853
convnext_large,1,118,NaN,boat,boat,c01,0118_cop_dnn_c01_boat_10_n03662601_5639.png,n03662601_5639.png,1.0,4.72539,0.7651343,2.8003237
convnext_large,1,119,NaN,bicycle,bicycle,c10,0119_cop_dnn_c10_bicycle_10_n02835271_13437.png,n02835271_13437.png,1.0,5.9713974,0.3189114,3.996911
convnext_large,1,120,NaN,bicycle,bicycle,c05,0120_cop_dnn_c05_bicycle_10_n03792782_18294.png,n03792782_18294.png,1.0,6.9486027,0.6438985,4.4580994
convnext_large,1,121,NaN,boat,boat,c03,0121_cop_dnn_c03_boat_10_n02951358_10488.png,n02951358_10488.png,1.0,4.743521,0.51417905,2.9905965
convnext_large,1,122,NaN,bird,bird,c50,0122_cop_dnn_c50_bird_10_n01829413_14594.png,n01829413_14594.png,1.0,0.3262182,0.15045287,0.12428485
convnext_large,1,123,NaN,clock,clock,c100,0123_cop_dnn_c100_clock_10_n03196217_9197.png,n03196217_9197.png,1.0,3.740919,0.5522581,2.254724
convnext_large,1,124,NaN,boat,boat,c15,0124_cop_dnn_c15_boat_10_n03662601_1667.png,n03662601_1667.png,1.0,4.1471205,0.28064948,2.7340078
convnext_large,1,125,NaN,knife,dog,c50,0125_cop_dnn_c50_dog_10_n02092339_6946.png,n02092339_6946.png,0.0,0.14291115,0.3748817,-0.16402796
convnext_large,1,126,NaN,airplane,airplane,c05,0126_cop_dnn_c05_airplane_10_n02690373_1773.png,n02690373_1773.png,1.0,8.755049,0.57791185,5.7821093
convnext_large,1,127,NaN,elephant,elephant,c50,0127_cop_dnn_c50_elephant_10_n02504013_4278.png,n02504013_4278.png,1.0,5.5429707,0.8841044,3.294316
convnext_large,1,128,NaN,bird,bird,c100,0128_cop_dnn_c100_bird_10_n02025239_10194.png,n02025239_10194.png,1.0,0.4795251,0.11812875,0.2555458
convnext_large,1,129,NaN,oven,oven,c15,0129_cop_dnn_c15_oven_10_n04111531_1977.png,n04111531_1977.png,1.0,8.717173,0.38397604,5.89246
convnext_large,1,130,NaN,clock,clock,c50,0130_cop_dnn_c50_clock_10_n02708093_616.png,n02708093_616.png,1.0,4.4894185,2.202668,1.6169769
convnext_large,1,131,NaN,boat,boat,c10,0131_cop_dnn_c10_boat_10_n04273569_10292.png,n04273569_10292.png,1.0,3.00878,0.9102738,1.483868
convnext_large,1,132,NaN,cat,cat,c50,0132_cop_dnn_c50_cat_10_n02123394_8592.png,n02123394_8592.png,1.0,2.29448,0.50886464,1.2626208
convnext_large,1,133,NaN,knife,knife,c10,0133_cop_dnn_c10_knife_10_n03041632_16020.png,n03041632_16020.png,1.0,6.3812695,-0.0022483964,4.5138288
convnext_large,1,134,NaN,cat,cat,c30,0134_cop_dnn_c30_cat_10_n02123394_5466.png,n02123394_5466.png,1.0,2.4014194,0.29548737,1.4891188
convnext_large,1,135,NaN,elephant,elephant,c01,0135_cop_dnn_c01_elephant_10_n02504013_7351.png,n02504013_7351.png,1.0,6.5781527,0.39197809,4.374286
convnext_large,1,136,NaN,oven,oven,c50,0136_cop_dnn_c50_oven_10_n04111531_22388.png,n04111531_22388.png,1.0,8.329195,1.5347385,4.804406
convnext_large,1,137,NaN,chair,chair,c100,0137_cop_dnn_c100_chair_10_n04429376_6308.png,n04429376_6308.png,1.0,3.652138,0.43403393,2.2755432
convnext_large,1,138,NaN,car,car,c10,0138_cop_dnn_c10_car_10_n03100240_8443.png,n03100240_8443.png,1.0,5.955564,0.15837942,4.0992284
convnext_large,1,139,NaN,car,car,c100,0139_cop_dnn_c100_car_10_n04285008_12446.png,n04285008_12446.png,1.0,4.65324,1.6143005,2.148855
convnext_large,1,140,NaN,keyboard,keyboard,c01,0140_cop_dnn_c01_keyboard_10_n04505470_4440.png,n04505470_4440.png,1.0,6.6752234,0.42215782,4.421585
convnext_large,1,141,NaN,car,car,c10,0141_cop_dnn_c10_car_10_n04285008_10073.png,n04285008_10073.png,1.0,4.285246,0.4591481,2.7054596
convnext_large,1,142,NaN,bottle,bottle,c03,0142_cop_dnn_c03_bottle_10_n03983396_7378.png,n03983396_7378.png,1.0,2.892975,0.29586554,1.8364338
convnext_large,1,143,NaN,chair,chair,c15,0143_cop_dnn_c15_chair_10_n02791124_5706.png,n02791124_5706.png,1.0,2.8218732,0.6148777,1.5605814
convnext_large,1,144,NaN,cat,cat,c15,0144_cop_dnn_c15_cat_10_n02123045_11224.png,n02123045_11224.png,1.0,4.1420827,0.57444286,2.5227025
convnext_large,1,145,NaN,chair,chair,c05,0145_cop_dnn_c05_chair_10_n03376595_8953.png,n03376595_8953.png,1.0,3.2245913,0.43947518,1.9693745
convnext_large,1,146,NaN,bicycle,bicycle,c50,0146_cop_dnn_c50_bicycle_10_n03792782_66048.png,n03792782_66048.png,1.0,7.337654,0.77903926,4.637641
convnext_large,1,147,NaN,cat,dog,c01,0147_cop_dnn_c01_dog_10_n02104365_1123.png,n02104365_1123.png,0.0,0.8846838,1.916985,-0.7299472
convnext_large,1,148,NaN,clock,clock,c05,0148_cop_dnn_c05_clock_10_n03196217_3605.png,n03196217_3605.png,1.0,4.672941,0.6161829,2.8685615
convnext_large,1,149,NaN,knife,knife,c10,0149_cop_dnn_c10_knife_10_n03041632_14916.png,n03041632_14916.png,1.0,8.365908,0.567619,5.514223
convnext_large,1,150,NaN,bear,bear,c10,0150_cop_dnn_c10_bear_10_n02132136_4101.png,n02132136_4101.png,1.0,4.682786,0.8333341,2.7219737
convnext_large,1,151,NaN,clock,clock,c01,0151_cop_dnn_c01_clock_10_n02708093_7929.png,n02708093_7929.png,1.0,1.5622662,1.1118052,0.31852406
convnext_large,1,152,NaN,chair,chair,c50,0152_cop_dnn_c50_chair_10_n02791124_7630.png,n02791124_7630.png,1.0,2.896304,0.33502004,1.8111012
convnext_large,1,153,NaN,clock,clock,c05,0153_cop_dnn_c05_clock_10_n02708093_3750.png,n02708093_3750.png,1.0,5.7652335,1.0473334,3.3360593
convnext_large,1,154,NaN,bear,bird,c01,0154_cop_dnn_c01_bird_10_n02037110_12288.png,n02037110_12288.png,0.0,0.8402197,1.015087,-0.12364988
convnext_large,1,155,NaN,keyboard,keyboard,c05,0155_cop_dnn_c05_keyboard_10_n04505470_6080.png,n04505470_6080.png,1.0,5.790869,0.32833332,3.8625963
convnext_large,1,156,NaN,keyboard,keyboard,c100,0156_cop_dnn_c100_keyboard_10_n03085013_19065.png,n03085013_19065.png,1.0,7.034433,0.43360075,4.6674933
convnext_large,1,157,NaN,cat,cat,c10,0157_cop_dnn_c10_cat_10_n02123159_4856.png,n02123159_4856.png,1.0,1.7361102,0.29862478,1.0164558
convnext_large,1,158,NaN,chair,chair,c01,0158_cop_dnn_c01_chair_10_n04099969_6913.png,n04099969_6913.png,1.0,3.193124,1.5096685,1.1903828
convnext_large,1,159,NaN,knife,knife,c30,0159_cop_dnn_c30_knife_10_n03041632_35764.png,n03041632_35764.png,1.0,8.571231,3.2320771,3.775352
convnext_large,1,160,NaN,truck,truck,c30,0160_cop_dnn_c30_truck_10_n03796401_3012.png,n03796401_3012.png,1.0,3.0806732,0.7114221,1.6753137
convnext_large,1,161,NaN,elephant,elephant,c10,0161_cop_dnn_c10_elephant_10_n02504013_3821.png,n02504013_3821.png,1.0,6.973924,0.37796664,4.664047
convnext_large,1,162,NaN,truck,truck,c100,0162_cop_dnn_c100_truck_10_n03796401_3608.png,n03796401_3608.png,1.0,2.1252398,0.44215715,1.1901193
convnext_large,1,163,NaN,chair,chair,c15,0163_cop_dnn_c15_chair_10_n04099969_13811.png,n04099969_13811.png,1.0,2.9250283,0.5057508,1.7106876
convnext_large,1,164,NaN,bear,bear,c50,0164_cop_dnn_c50_bear_10_n02133161_4954.png,n02133161_4954.png,1.0,5.1617374,0.62429893,3.2084534
convnext_large,1,165,NaN,chair,dog,c15,0165_cop_dnn_c15_dog_10_n02085782_6792.png,n02085782_6792.png,0.0,0.3295682,0.42009035,-0.06400882
convnext_large,1,166,NaN,car,oven,c05,0166_cop_dnn_c05_oven_10_n04111531_22886.png,n04111531_22886.png,0.0,1.553024,2.505113,-0.6732285
convnext_large,1,167,NaN,elephant,dog,c05,0167_cop_dnn_c05_dog_10_n02091831_510.png,n02091831_510.png,0.0,0.3848779,0.5675675,-0.12918109
convnext_large,1,168,NaN,bear,bear,c15,0168_cop_dnn_c15_bear_10_n02132136_11339.png,n02132136_11339.png,1.0,4.835125,0.4054607,3.1322455
convnext_large,1,169,NaN,bottle,bottle,c15,0169_cop_dnn_c15_bottle_10_n04557648_2709.png,n04557648_2709.png,1.0,3.035055,1.367621,1.1790539
convnext_large,1,170,NaN,keyboard,keyboard,c03,0170_cop_dnn_c03_keyboard_10_n03085013_21447.png,n03085013_21447.png,1.0,7.1894608,0.41514024,4.7901683
convnext_large,1,171,NaN,airplane,airplane,c30,0171_cop_dnn_c30_airplane_10_n02690373_7676.png,n02690373_7676.png,1.0,8.387371,0.5891035,5.514208
convnext_large,1,172,NaN,boat,dog,c100,0172_cop_dnn_c100_dog_10_n02091831_4110.png,n02091831_4110.png,0.0,0.042270493,0.22977445,-0.13258532
convnext_large,1,173,NaN,bird,bird,c10,0173_cop_dnn_c10_bird_10_n02007558_16029.png,n02007558_16029.png,1.0,0.34099492,0.26009429,0.05720539
convnext_large,1,174,NaN,truck,truck,c30,0174_cop_dnn_c30_truck_10_n03796401_15097.png,n03796401_15097.png,1.0,1.7745751,0.8117057,0.6808515
convnext_large,1,175,NaN,airplane,airplane,c30,0175_cop_dnn_c30_airplane_10_n02690373_7401.png,n02690373_7401.png,1.0,8.509029,0.33525997,5.7797275
convnext_large,1,176,NaN,dog,dog,c05,0176_cop_dnn_c05_dog_10_n02108422_4529.png,n02108422_4529.png,1.0,0.5850488,0.30421516,0.19857937
convnext_large,1,177,NaN,bear,bear,c10,0177_cop_dnn_c10_bear_10_n02132136_10514.png,n02132136_10514.png,1.0,4.149128,0.638761,2.4822042
convnext_large,1,178,NaN,airplane,airplane,c03,0178_cop_dnn_c03_airplane_10_n02690373_5524.png,n02690373_5524.png,1.0,8.59667,1.6385928,4.920104
convnext_large,1,179,NaN,chair,chair,c100,0179_cop_dnn_c100_chair_10_n04429376_5965.png,n04429376_5965.png,1.0,3.1725733,0.41891652,1.9471295
convnext_large,1,180,NaN,airplane,airplane,c15,0180_cop_dnn_c15_airplane_10_n02690373_9712.png,n02690373_9712.png,1.0,9.041959,0.6242465,5.9522214
convnext_large,1,181,NaN,boat,boat,c30,0181_cop_dnn_c30_boat_10_n02951358_29825.png,n02951358_29825.png,1.0,2.2460704,0.36303863,1.3315046
convnext_large,1,182,NaN,keyboard,keyboard,c03,0182_cop_dnn_c03_keyboard_10_n04505470_4887.png,n04505470_4887.png,1.0,5.4059677,0.23653671,3.65534
convnext_large,1,183,NaN,truck,truck,c01,0183_cop_dnn_c01_truck_10_n04467665_32090.png,n04467665_32090.png,1.0,2.5210068,1.1933389,0.938803
convnext_large,1,184,NaN,chair,chair,c05,0184_cop_dnn_c05_chair_10_n02791124_4296.png,n02791124_4296.png,1.0,3.2246652,0.29479286,2.0717325
convnext_large,1,185,NaN,boat,boat,c30,0185_cop_dnn_c30_boat_10_n04612504_14669.png,n04612504_14669.png,1.0,2.4570785,0.8934643,1.1056422
convnext_large,1,186,NaN,airplane,airplane,c03,0186_cop_dnn_c03_airplane_10_n02690373_891.png,n02690373_891.png,1.0,7.9842267,0.36987433,5.38416
convnext_large,1,187,NaN,clock,clock,c100,0187_cop_dnn_c100_clock_10_n04548280_7539.png,n04548280_7539.png,1.0,4.2665544,0.3189901,2.7913494
convnext_large,1,188,NaN,bear,bear,c30,0188_cop_dnn_c30_bear_10_n02134418_4717.png,n02134418_4717.png,1.0,3.284532,0.606673,1.8935324
convnext_large,1,189,NaN,bird,bird,c03,0189_cop_dnn_c03_bird_10_n02002724_13195.png,n02002724_13195.png,1.0,0.7203447,0.366001,0.25055885
convnext_large,1,190,NaN,bottle,bottle,c10,0190_cop_dnn_c10_bottle_10_n03937543_2494.png,n03937543_2494.png,1.0,2.2038474,0.30227762,1.344613
convnext_large,1,191,NaN,clock,clock,c30,0191_cop_dnn_c30_clock_10_n03196217_2307.png,n03196217_2307.png,1.0,5.0428452,0.98107636,2.8721044
convnext_large,1,192,NaN,clock,clock,c15,0192_cop_dnn_c15_clock_10_n04548280_17907.png,n04548280_17907.png,1.0,3.1876783,0.5697926,1.8511246
convnext_large,1,193,NaN,chair,chair,c03,0193_cop_dnn_c03_chair_10_n03376595_6540.png,n03376595_6540.png,1.0,3.6304636,0.7168525,2.0602343
convnext_large,1,194,NaN,cat,cat,c30,0194_cop_dnn_c30_cat_10_n02123045_1484.png,n02123045_1484.png,1.0,3.7578728,0.4823981,2.3161104
convnext_large,1,195,NaN,knife,knife,c03,0195_cop_dnn_c03_knife_10_n03041632_89912.png,n03041632_89912.png,1.0,8.192669,0.15780446,5.681507
convnext_large,1,196,NaN,bottle,bottle,c05,0196_cop_dnn_c05_bottle_10_n04591713_6975.png,n04591713_6975.png,1.0,2.0716348,0.2692631,1.2744693
convnext_large,1,197,NaN,bird,bird,c50,0197_cop_dnn_c50_bird_10_n01860187_810.png,n01860187_810.png,1.0,0.33901837,0.3366836,0.0016509342
convnext_large,1,198,NaN,oven,oven,c03,0198_cop_dnn_c03_oven_10_n04111531_5967.png,n04111531_5967.png,1.0,8.767795,2.0021906,4.7840047
convnext_large,1,199,NaN,boat,boat,c15,0199_cop_dnn_c15_boat_10_n04612504_18954.png,n04612504_18954.png,1.0,2.5325418,0.27294326,1.5977775
convnext_large,1,200,NaN,bicycle,bicycle,c10,0200_cop_dnn_c10_bicycle_10_n03792782_68259.png,n03792782_68259.png,1.0,6.8629293,0.46306613,4.525387
convnext_large,1,201,NaN,car,car,c03,0201_cop_dnn_c03_car_10_n04285008_296.png,n04285008_296.png,1.0,4.2959876,1.0507638,2.2947197
convnext_large,1,202,NaN,airplane,airplane,c03,0202_cop_dnn_c03_airplane_10_n02690373_12929.png,n02690373_12929.png,1.0,8.252927,0.28462255,5.634442
convnext_large,1,203,NaN,boat,boat,c01,0203_cop_dnn_c01_boat_10_n03344393_8761.png,n03344393_8761.png,1.0,3.2198875,1.1289492,1.4785167
convnext_large,1,204,NaN,clock,clock,c30,0204_cop_dnn_c30_clock_10_n03196217_3877.png,n03196217_3877.png,1.0,4.526386,0.8112495,2.6269982
convnext_large,1,205,NaN,bear,bear,c10,0205_cop_dnn_c10_bear_10_n02134084_1346.png,n02134084_1346.png,1.0,2.4129136,0.4447476,1.3917035
convnext_large,1,206,NaN,knife,knife,c03,0206_cop_dnn_c03_knife_10_n03041632_48151.png,n03041632_48151.png,1.0,2.655264,1.5789732,0.7610525
convnext_large,1,207,NaN,airplane,airplane,c50,0207_cop_dnn_c50_airplane_10_n02690373_3589.png,n02690373_3589.png,1.0,8.510992,0.58916366,5.6015787
convnext_large,1,208,NaN,bottle,bottle,c50,0208_cop_dnn_c50_bottle_10_n04560804_2942.png,n04560804_2942.png,1.0,2.5208218,1.4436882,0.76164854
convnext_large,1,209,NaN,keyboard,keyboard,c03,0209_cop_dnn_c03_keyboard_10_n04505470_5022.png,n04505470_5022.png,1.0,6.714359,0.896007,4.114196
convnext_large,1,210,NaN,dog,dog,c10,0210_cop_dnn_c10_dog_10_n02096294_1043.png,n02096294_1043.png,1.0,1.0745491,0.2011766,0.6175676
convnext_large,1,211,NaN,airplane,airplane,c50,0211_cop_dnn_c50_airplane_10_n02690373_1350.png,n02690373_1350.png,1.0,8.1404505,0.18619782,5.624506
convnext_large,1,212,NaN,chair,chair,c03,0212_cop_dnn_c03_chair_10_n04099969_27865.png,n04099969_27865.png,1.0,4.580856,0.7910884,2.6797702
convnext_large,1,213,NaN,oven,oven,c01,0213_cop_dnn_c01_oven_10_n04111531_22120.png,n04111531_22120.png,1.0,7.9202785,1.4421302,4.580743
convnext_large,1,214,NaN,elephant,elephant,c50,0214_cop_dnn_c50_elephant_10_n02504458_5600.png,n02504458_5600.png,1.0,7.0510397,0.28984755,4.780885
convnext_large,1,215,NaN,cat,cat,c03,0215_cop_dnn_c03_cat_10_n02123597_11138.png,n02123597_11138.png,1.0,1.6145192,0.63167155,0.6949783
convnext_large,1,216,NaN,cat,cat,c30,0216_cop_dnn_c30_cat_10_n02125311_5717.png,n02125311_5717.png,1.0,1.3138415,1.2160405,0.06915573
convnext_large,1,217,NaN,chair,chair,c15,0217_cop_dnn_c15_chair_10_n02791124_11404.png,n02791124_11404.png,1.0,2.2777226,0.070911966,1.5604508
convnext_large,1,218,NaN,cat,cat,c100,0218_cop_dnn_c100_cat_10_n02123394_2984.png,n02123394_2984.png,1.0,2.5516708,0.5912549,1.3862233
convnext_large,1,219,NaN,dog,dog,c10,0219_cop_dnn_c10_dog_10_n02087394_9693.png,n02087394_9693.png,1.0,0.58959895,0.39363146,0.13856995
convnext_large,1,220,NaN,dog,dog,c01,0220_cop_dnn_c01_dog_10_n02098105_2086.png,n02098105_2086.png,1.0,1.3616751,0.58462375,0.5494583
convnext_large,1,221,NaN,cat,cat,c10,0221_cop_dnn_c10_cat_10_n02123159_6932.png,n02123159_6932.png,1.0,1.7369121,0.75124574,0.6969714
convnext_large,1,222,NaN,car,car,c15,0222_cop_dnn_c15_car_10_n04285008_8323.png,n04285008_8323.png,1.0,5.353815,0.21336405,3.6348479
convnext_large,1,223,NaN,truck,truck,c01,0223_cop_dnn_c01_truck_10_n03796401_2226.png,n03796401_2226.png,1.0,2.682861,0.26134664,1.7122693
convnext_large,1,224,NaN,bear,bear,c05,0224_cop_dnn_c05_bear_10_n02134084_6223.png,n02134084_6223.png,1.0,3.3117683,0.7465329,1.8138953
convnext_large,1,225,NaN,cat,cat,c05,0225_cop_dnn_c05_cat_10_n02125311_22459.png,n02125311_22459.png,1.0,2.1280901,0.38443372,1.2329513
convnext_large,1,226,NaN,bicycle,bicycle,c10,0226_cop_dnn_c10_bicycle_10_n02835271_19143.png,n02835271_19143.png,1.0,5.124861,0.82173145,3.0427718
convnext_large,1,227,NaN,cat,cat,c10,0227_cop_dnn_c10_cat_10_n02123597_4357.png,n02123597_4357.png,1.0,2.489505,0.44001293,1.4492098
convnext_large,1,228,NaN,boat,boat,c03,0228_cop_dnn_c03_boat_10_n04273569_6180.png,n04273569_6180.png,1.0,2.2379072,0.30168784,1.3691138
convnext_large,1,229,NaN,airplane,airplane,c100,0229_cop_dnn_c100_airplane_10_n02690373_139.png,n02690373_139.png,1.0,8.636312,0.40481222,5.8205495
convnext_large,1,230,NaN,bottle,bottle,c10,0230_cop_dnn_c10_bottle_10_n04557648_4165.png,n04557648_4165.png,1.0,2.616148,2.4734125,0.10092923
convnext_large,1,231,NaN,bottle,bottle,c50,0231_cop_dnn_c50_bottle_10_n04560804_5756.png,n04560804_5756.png,1.0,1.2118376,0.52738255,0.48398286
convnext_large,1,232,NaN,truck,truck,c15,0232_cop_dnn_c15_truck_10_n04467665_39477.png,n04467665_39477.png,1.0,4.2179728,0.5050648,2.6254225
convnext_large,1,233,NaN,cat,cat,c01,0233_cop_dnn_c01_cat_10_n02123159_386.png,n02123159_386.png,1.0,4.628525,1.1230322,2.4787576
convnext_large,1,234,NaN,bear,bear,c15,0234_cop_dnn_c15_bear_10_n02134084_4859.png,n02134084_4859.png,1.0,2.6591938,0.27795544,1.6837897
convnext_large,1,235,NaN,keyboard,dog,c03,0235_cop_dnn_c03_dog_10_n02099429_1992.png,n02099429_1992.png,0.0,0.3356948,0.49567997,-0.11312661
convnext_large,1,236,NaN,oven,oven,c03,0236_cop_dnn_c03_oven_10_n04111531_584.png,n04111531_584.png,1.0,7.660154,0.96800363,4.7320647
convnext_large,1,237,NaN,bottle,bottle,c05,0237_cop_dnn_c05_bottle_10_n04591713_4019.png,n04591713_4019.png,1.0,2.2025633,1.455622,0.5281673
convnext_large,1,238,NaN,bicycle,dog,c03,0238_cop_dnn_c03_dog_10_n02113712_4486.png,n02113712_4486.png,0.0,0.3189055,0.36065957,-0.029524585
convnext_large,1,239,NaN,chair,chair,c50,0239_cop_dnn_c50_chair_10_n03376595_13018.png,n03376595_13018.png,1.0,2.5108364,1.1483529,0.96342134
convnext_large,1,240,NaN,oven,oven,c50,0240_cop_dnn_c50_oven_10_n04111531_7421.png,n04111531_7421.png,1.0,9.763224,1.2956772,5.9874597
convnext_large,1,241,NaN,cat,cat,c01,0241_cop_dnn_c01_cat_10_n02123045_10689.png,n02123045_10689.png,1.0,5.315781,1.559749,2.6559157
convnext_large,1,242,NaN,clock,clock,c05,0242_cop_dnn_c05_clock_10_n02708093_4391.png,n02708093_4391.png,1.0,2.7584946,1.3678385,0.9833424
convnext_large,1,243,NaN,clock,clock,c50,0243_cop_dnn_c50_clock_10_n02708093_3759.png,n02708093_3759.png,1.0,5.197495,0.26155752,3.4902349
convnext_large,1,244,NaN,elephant,elephant,c05,0244_cop_dnn_c05_elephant_10_n02504013_648.png,n02504013_648.png,1.0,6.3598065,0.12974235,4.4053206
convnext_large,1,245,NaN,bottle,bottle,c01,0245_cop_dnn_c01_bottle_10_n04591713_1879.png,n04591713_1879.png,1.0,2.7201908,1.8388398,0.6232093
convnext_large,1,246,NaN,clock,dog,c01,0246_cop_dnn_c01_dog_10_n02110627_20194.png,n02110627_20194.png,0.0,0.060950816,0.47632226,-0.29371196
convnext_large,1,247,NaN,truck,truck,c50,0247_cop_dnn_c50_truck_10_n03796401_13298.png,n03796401_13298.png,1.0,1.9955306,0.90508187,0.7710637
convnext_large,1,248,NaN,chair,chair,c100,0248_cop_dnn_c100_chair_10_n03376595_7824.png,n03376595_7824.png,1.0,2.2400396,0.9860778,0.8866849
convnext_large,1,249,NaN,bear,bear,c05,0249_cop_dnn_c05_bear_10_n02134418_6252.png,n02134418_6252.png,1.0,2.4745903,1.856836,0.4368183
convnext_large,1,250,NaN,airplane,bird,c50,0250_cop_dnn_c50_bird_10_n01855032_1815.png,n01855032_1815.png,0.0,0.1315106,0.6438747,-0.36229613
convnext_large,1,251,NaN,car,car,c100,0251_cop_dnn_c100_car_10_n03100240_6773.png,n03100240_6773.png,1.0,6.5172,0.36572298,4.349751
convnext_large,1,252,NaN,keyboard,keyboard,c03,0252_cop_dnn_c03_keyboard_10_n03085013_22438.png,n03085013_22438.png,1.0,3.98646,1.4292995,1.8081855
convnext_large,1,253,NaN,keyboard,keyboard,c01,0253_cop_dnn_c01_keyboard_10_n04505470_4950.png,n04505470_4950.png,1.0,5.8789797,0.74228036,3.632195
convnext_large,1,254,NaN,truck,truck,c03,0254_cop_dnn_c03_truck_10_n04467665_22358.png,n04467665_22358.png,1.0,3.6891289,0.48661986,2.2645159
convnext_large,1,255,NaN,truck,truck,c15,0255_cop_dnn_c15_truck_10_n04467665_67969.png,n04467665_67969.png,1.0,1.7010801,0.44898862,0.8853623
convnext_large,1,256,NaN,elephant,elephant,c10,0256_cop_dnn_c10_elephant_10_n02504013_2128.png,n02504013_2128.png,1.0,7.8050556,0.1585784,5.406876
convnext_large,1,257,NaN,car,car,c30,0257_cop_dnn_c30_car_10_n03100240_3499.png,n03100240_3499.png,1.0,5.82422,0.5747824,3.711913
convnext_large,1,258,NaN,bear,bear,c50,0258_cop_dnn_c50_bear_10_n02134084_7250.png,n02134084_7250.png,1.0,2.5861788,0.47494042,1.492871
convnext_large,1,259,NaN,bicycle,bicycle,c15,0259_cop_dnn_c15_bicycle_10_n03792782_43279.png,n03792782_43279.png,1.0,4.5784473,0.4007885,2.954051
convnext_large,1,260,NaN,cat,cat,c50,0260_cop_dnn_c50_cat_10_n02123045_1274.png,n02123045_1274.png,1.0,4.5094857,0.46230084,2.8617918
convnext_large,1,261,NaN,oven,oven,c100,0261_cop_dnn_c100_oven_10_n04111531_6567.png,n04111531_6567.png,1.0,9.1064415,2.2703412,4.8338532
convnext_large,1,262,NaN,knife,knife,c100,0262_cop_dnn_c100_knife_10_n03041632_86338.png,n03041632_86338.png,1.0,9.338942,0.9252808,5.949357
convnext_large,1,263,NaN,chair,chair,c15,0263_cop_dnn_c15_chair_10_n02791124_9757.png,n02791124_9757.png,1.0,2.6861641,0.38951892,1.6239734
convnext_large,1,264,NaN,knife,knife,c15,0264_cop_dnn_c15_knife_10_n03041632_45090.png,n03041632_45090.png,1.0,8.333364,0.8826895,5.268422
convnext_large,1,265,NaN,bicycle,bicycle,c01,0265_cop_dnn_c01_bicycle_10_n02835271_1436.png,n02835271_1436.png,1.0,5.225421,0.9478433,3.024704
convnext_large,1,266,NaN,airplane,bird,c03,0266_cop_dnn_c03_bird_10_n01798484_8189.png,n01798484_8189.png,0.0,0.2661066,0.40028876,-0.09488111
convnext_large,1,267,NaN,knife,bird,c15,0267_cop_dnn_c15_bird_10_n01819313_1282.png,n01819313_1282.png,0.0,-0.1555467,1.5547178,-1.2093396
convnext_large,1,268,NaN,bottle,bottle,c100,0268_cop_dnn_c100_bottle_10_n03983396_11519.png,n03983396_11519.png,1.0,4.0685763,0.36437783,2.619264
convnext_large,1,269,NaN,boat,boat,c05,0269_cop_dnn_c05_boat_10_n03344393_7735.png,n03344393_7735.png,1.0,2.5669558,0.39685053,1.5344962
convnext_large,1,270,NaN,bottle,bottle,c05,0270_cop_dnn_c05_bottle_10_n04560804_21795.png,n04560804_21795.png,1.0,1.7441303,0.15285587,1.1252009
convnext_large,1,271,NaN,chair,chair,c30,0271_cop_dnn_c30_chair_10_n02791124_4109.png,n02791124_4109.png,1.0,2.8707013,0.2638775,1.8433028
convnext_large,1,272,NaN,keyboard,keyboard,c03,0272_cop_dnn_c03_keyboard_10_n04505470_9663.png,n04505470_9663.png,1.0,5.905184,0.44200373,3.8630517
convnext_large,1,273,NaN,knife,knife,c15,0273_cop_dnn_c15_knife_10_n03041632_27709.png,n03041632_27709.png,1.0,7.8103895,0.32297283,5.294403
convnext_large,1,274,NaN,airplane,airplane,c50,0274_cop_dnn_c50_airplane_10_n02690373_8539.png,n02690373_8539.png,1.0,8.54292,0.3391145,5.8009667
convnext_large,1,275,NaN,bear,bear,c15,0275_cop_dnn_c15_bear_10_n02134418_2175.png,n02134418_2175.png,1.0,3.1326241,0.23024413,2.0522926
convnext_large,1,276,NaN,elephant,elephant,c50,0276_cop_dnn_c50_elephant_10_n02504458_2875.png,n02504458_2875.png,1.0,6.900082,0.4449879,4.564441
convnext_large,1,277,NaN,chair,chair,c03,0277_cop_dnn_c03_chair_10_n02791124_5868.png,n02791124_5868.png,1.0,3.0300179,1.1619653,1.3209127
convnext_large,1,278,NaN,cat,cat,c10,0278_cop_dnn_c10_cat_10_n02123597_488.png,n02123597_488.png,1.0,2.7595022,0.7272504,1.4370191
convnext_large,1,279,NaN,oven,oven,c30,0279_cop_dnn_c30_oven_10_n04111531_6500.png,n04111531_6500.png,1.0,2.9643345,0.80804044,1.5247302
convnext_large,1,280,NaN,bicycle,bicycle,c15,0280_cop_dnn_c15_bicycle_10_n03792782_13002.png,n03792782_13002.png,1.0,6.0083184,0.5971422,3.8262794
convnext_large,1,281,NaN,clock,clock,c05,0281_cop_dnn_c05_clock_10_n03196217_10641.png,n03196217_10641.png,1.0,4.5916224,1.5899503,2.1225026
convnext_large,1,282,NaN,bicycle,bicycle,c15,0282_cop_dnn_c15_bicycle_10_n03792782_20193.png,n03792782_20193.png,1.0,6.975191,0.6211204,4.4930067
convnext_large,1,283,NaN,truck,truck,c05,0283_cop_dnn_c05_truck_10_n03417042_13806.png,n03417042_13806.png,1.0,4.14651,0.6294317,2.48695
convnext_large,1,284,NaN,truck,truck,c05,0284_cop_dnn_c05_truck_10_n04467665_70237.png,n04467665_70237.png,1.0,3.7056289,0.4987766,2.267587
convnext_large,1,285,NaN,bicycle,truck,c01,0285_cop_dnn_c01_truck_10_n04467665_3720.png,n04467665_3720.png,0.0,1.7941158,2.9163446,-0.79353565
convnext_large,1,286,NaN,bear,bear,c10,0286_cop_dnn_c10_bear_10_n02132136_8975.png,n02132136_8975.png,1.0,4.5804653,0.6632012,2.769924
convnext_large,1,287,NaN,knife,knife,c05,0287_cop_dnn_c05_knife_10_n03041632_18859.png,n03041632_18859.png,1.0,8.214402,2.1962173,4.2554994
convnext_large,1,288,NaN,bear,bear,c50,0288_cop_dnn_c50_bear_10_n02132136_29760.png,n02132136_29760.png,1.0,2.915194,0.7663375,1.5194712
convnext_large,1,289,NaN,boat,boat,c05,0289_cop_dnn_c05_boat_10_n04273569_6586.png,n04273569_6586.png,1.0,2.7514884,0.6759212,1.4676477
convnext_large,1,290,NaN,bottle,bottle,c05,0290_cop_dnn_c05_bottle_10_n03983396_11137.png,n03983396_11137.png,1.0,2.8578343,0.34838173,1.774451
convnext_large,1,291,NaN,clock,clock,c10,0291_cop_dnn_c10_clock_10_n03196217_4232.png,n03196217_4232.png,1.0,4.202429,0.5736075,2.5659642
convnext_large,1,292,NaN,clock,clock,c01,0292_cop_dnn_c01_clock_10_n04548280_1325.png,n04548280_1325.png,1.0,4.1730523,0.88370425,2.3259203
convnext_large,1,293,NaN,airplane,airplane,c100,0293_cop_dnn_c100_airplane_10_n02690373_2268.png,n02690373_2268.png,1.0,9.026373,0.27614614,6.187345
convnext_large,1,294,NaN,bicycle,bicycle,c10,0294_cop_dnn_c10_bicycle_10_n03792782_14557.png,n03792782_14557.png,1.0,7.1226377,0.67526513,4.558981
convnext_large,1,295,NaN,cat,cat,c01,0295_cop_dnn_c01_cat_10_n02124075_13792.png,n02124075_13792.png,1.0,3.8596675,0.7645652,2.1885679
convnext_large,1,296,NaN,cat,dog,c01,0296_cop_dnn_c01_dog_10_n02110185_14953.png,n02110185_14953.png,0.0,0.20695549,2.0381956,-1.2948824
convnext_large,1,297,NaN,bottle,bottle,c15,0297_cop_dnn_c15_bottle_10_n04557648_1634.png,n04557648_1634.png,1.0,2.8696578,0.50047326,1.6752665
convnext_large,1,298,NaN,bicycle,bicycle,c50,0298_cop_dnn_c50_bicycle_10_n02835271_1701.png,n02835271_1701.png,1.0,4.6102037,0.46343702,2.9322069
convnext_large,1,299,NaN,boat,boat,c05,0299_cop_dnn_c05_boat_10_n04273569_7312.png,n04273569_7312.png,1.0,3.871961,0.59990954,2.31369
convnext_large,1,300,NaN,bird,bird,c100,0300_cop_dnn_c100_bird_10_n01616318_5417.png,n01616318_5417.png,1.0,0.2820137,0.24189182,0.028370466
convnext_large,1,301,NaN,cat,cat,c15,0301_cop_dnn_c15_cat_10_n02123045_12200.png,n02123045_12200.png,1.0,4.426425,0.79569185,2.567316
convnext_large,1,302,NaN,elephant,dog,c30,0302_cop_dnn_c30_dog_10_n02102480_8264.png,n02102480_8264.png,0.0,1.0459238,1.4762667,-0.3042984
convnext_large,1,303,NaN,bicycle,bicycle,c30,0303_cop_dnn_c30_bicycle_10_n03792782_5426.png,n03792782_5426.png,1.0,5.480652,0.6991222,3.381052
convnext_large,1,304,NaN,clock,clock,c05,0304_cop_dnn_c05_clock_10_n02708093_8038.png,n02708093_8038.png,1.0,6.2052217,1.4529641,3.3603535
convnext_large,1,305,NaN,bicycle,bicycle,c30,0305_cop_dnn_c30_bicycle_10_n02835271_2764.png,n02835271_2764.png,1.0,4.912922,0.61073416,3.0421064
convnext_large,1,306,NaN,knife,knife,c50,0306_cop_dnn_c50_knife_10_n03041632_39836.png,n03041632_39836.png,1.0,8.868093,0.2811937,6.0718546
convnext_large,1,307,NaN,bicycle,bicycle,c01,0307_cop_dnn_c01_bicycle_10_n03792782_19040.png,n03792782_19040.png,1.0,6.226639,0.39473066,4.123782
convnext_large,1,308,NaN,cat,cat,c01,0308_cop_dnn_c01_cat_10_n02125311_28331.png,n02125311_28331.png,1.0,2.425113,0.76506406,1.1738319
convnext_large,1,309,NaN,chair,knife,c01,0309_cop_dnn_c01_knife_10_n03041632_18126.png,n03041632_18126.png,0.0,1.3332465,1.798777,-0.3291798
convnext_large,1,310,NaN,bicycle,bicycle,c30,0310_cop_dnn_c30_bicycle_10_n03792782_19253.png,n03792782_19253.png,1.0,4.755456,0.60224754,2.9367619
convnext_large,1,311,NaN,bottle,bottle,c01,0311_cop_dnn_c01_bottle_10_n03983396_751.png,n03983396_751.png,1.0,2.368397,0.86382616,1.0638922
convnext_large,1,312,NaN,car,car,c15,0312_cop_dnn_c15_car_10_n04285008_628.png,n04285008_628.png,1.0,3.9952614,0.4808033,2.4850972
convnext_large,1,313,NaN,boat,boat,c15,0313_cop_dnn_c15_boat_10_n03662601_3011.png,n03662601_3011.png,1.0,2.4373634,1.5165138,0.65113896
convnext_large,1,314,NaN,bottle,bottle,c10,0314_cop_dnn_c10_bottle_10_n04557648_2904.png,n04557648_2904.png,1.0,2.7813315,0.22764264,1.8057308
convnext_large,1,315,NaN,airplane,bird,c10,0315_cop_dnn_c10_bird_10_n02002556_9804.png,n02002556_9804.png,0.0,0.33068466,0.5458172,-0.15212168
convnext_large,1,316,NaN,truck,truck,c05,0316_cop_dnn_c05_truck_10_n04467665_8955.png,n04467665_8955.png,1.0,2.5193138,0.5828966,1.3692538
convnext_large,1,317,NaN,boat,boat,c03,0317_cop_dnn_c03_boat_10_n04612504_15061.png,n04612504_15061.png,1.0,2.5495415,0.51374096,1.4395283
convnext_large,1,318,NaN,airplane,bird,c05,0318_cop_dnn_c05_bird_10_n02002556_1437.png,n02002556_1437.png,0.0,0.25080687,1.373146,-0.79361373
convnext_large,1,319,NaN,truck,truck,c50,0319_cop_dnn_c50_truck_10_n03417042_10993.png,n03417042_10993.png,1.0,1.2658896,0.39488766,0.6158914
convnext_large,1,320,NaN,chair,chair,c10,0320_cop_dnn_c10_chair_10_n02791124_880.png,n02791124_880.png,1.0,2.2395985,0.47707632,1.2462914
convnext_large,1,321,NaN,bicycle,bicycle,c50,0321_cop_dnn_c50_bicycle_10_n03792782_4826.png,n03792782_4826.png,1.0,7.509937,0.5035184,4.954286
convnext_large,1,322,NaN,chair,chair,c03,0322_cop_dnn_c03_chair_10_n04099969_3804.png,n04099969_3804.png,1.0,3.5977123,0.92516714,1.8897749
convnext_large,1,323,NaN,bottle,bottle,c10,0323_cop_dnn_c10_bottle_10_n02823428_2504.png,n02823428_2504.png,1.0,2.5840094,0.4312975,1.5221971
convnext_large,1,324,NaN,cat,cat,c10,0324_cop_dnn_c10_cat_10_n02124075_9716.png,n02124075_9716.png,1.0,4.0661435,0.4227637,2.5762584
convnext_large,1,325,NaN,knife,knife,c01,0325_cop_dnn_c01_knife_10_n03041632_81630.png,n03041632_81630.png,1.0,3.0399432,0.42810136,1.8468511
convnext_large,1,326,NaN,bottle,bottle,c30,0326_cop_dnn_c30_bottle_10_n04591713_457.png,n04591713_457.png,1.0,1.6681851,0.42861164,0.8765108
convnext_large,1,327,NaN,elephant,elephant,c30,0327_cop_dnn_c30_elephant_10_n02504458_5337.png,n02504458_5337.png,1.0,6.2185006,0.4996137,4.043864
convnext_large,1,328,NaN,clock,clock,c15,0328_cop_dnn_c15_clock_10_n02708093_5429.png,n02708093_5429.png,1.0,4.6011863,0.10044276,3.1825063
convnext_large,1,329,NaN,oven,oven,c100,0329_cop_dnn_c100_oven_10_n04111531_9411.png,n04111531_9411.png,1.0,8.304459,0.27409467,5.678325
convnext_large,1,330,NaN,knife,knife,c01,0330_cop_dnn_c01_knife_10_n03041632_2338.png,n03041632_2338.png,1.0,7.451887,0.6473033,4.811568
convnext_large,1,331,NaN,cat,cat,c100,0331_cop_dnn_c100_cat_10_n02123394_2755.png,n02123394_2755.png,1.0,1.8155545,0.35056692,1.0359026
convnext_large,1,332,NaN,elephant,elephant,c05,0332_cop_dnn_c05_elephant_10_n02504458_10243.png,n02504458_10243.png,1.0,5.797594,0.74726486,3.5711222
convnext_large,1,333,NaN,oven,oven,c15,0333_cop_dnn_c15_oven_10_n04111531_1752.png,n04111531_1752.png,1.0,8.4553385,0.44618183,5.6633286
convnext_large,1,334,NaN,bird,bird,c05,0334_cop_dnn_c05_bird_10_n02037110_6736.png,n02037110_6736.png,1.0,0.6177018,0.32853687,0.20447052
convnext_large,1,335,NaN,airplane,airplane,c10,0335_cop_dnn_c10_airplane_10_n02690373_8804.png,n02690373_8804.png,1.0,8.245637,0.31937706,5.6047125
convnext_large,1,336,NaN,elephant,elephant,c100,0336_cop_dnn_c100_elephant_10_n02504458_12217.png,n02504458_12217.png,1.0,6.498111,0.31569684,4.371627
convnext_large,1,337,NaN,knife,knife,c15,0337_cop_dnn_c15_knife_10_n03041632_84012.png,n03041632_84012.png,1.0,5.2005415,1.1310678,2.8775525
convnext_large,1,338,NaN,clock,dog,c50,0338_cop_dnn_c50_dog_10_n02093991_6192.png,n02093991_6192.png,0.0,0.20312096,0.2517303,-0.034371987
convnext_large,1,339,NaN,bird,bird,c50,0339_cop_dnn_c50_bird_10_n02027492_6499.png,n02027492_6499.png,1.0,0.38145185,0.19977927,0.12846191
convnext_large,1,340,NaN,knife,knife,c10,0340_cop_dnn_c10_knife_10_n03041632_46185.png,n03041632_46185.png,1.0,8.9482355,0.6762497,5.8491774
convnext_large,1,341,NaN,chair,bear,c30,0341_cop_dnn_c30_bear_10_n02134084_14775.png,n02134084_14775.png,0.0,-0.6881353,1.1563883,-1.3042753
convnext_large,1,342,NaN,truck,truck,c30,0342_cop_dnn_c30_truck_10_n03417042_5346.png,n03417042_5346.png,1.0,1.9086822,0.3413455,1.1082745
convnext_large,1,343,NaN,dog,dog,c30,0343_cop_dnn_c30_dog_10_n02093991_9672.png,n02093991_9672.png,1.0,0.94187486,0.46582776,0.33661613
convnext_large,1,344,NaN,elephant,elephant,c100,0344_cop_dnn_c100_elephant_10_n02504458_2031.png,n02504458_2031.png,1.0,6.7627716,0.36269724,4.525536
convnext_large,1,345,NaN,bird,bird,c03,0345_cop_dnn_c03_bird_10_n02025239_660.png,n02025239_660.png,1.0,0.41983676,0.15533377,0.18703187
convnext_large,1,346,NaN,elephant,elephant,c01,0346_cop_dnn_c01_elephant_10_n02504458_4244.png,n02504458_4244.png,1.0,6.7605987,0.35256463,4.531164
convnext_large,1,347,NaN,elephant,elephant,c30,0347_cop_dnn_c30_elephant_10_n02504013_7539.png,n02504013_7539.png,1.0,6.3168097,0.74552095,3.939496
convnext_large,1,348,NaN,bird,bird,c03,0348_cop_dnn_c03_bird_10_n02002724_5876.png,n02002724_5876.png,1.0,0.40147668,0.32637075,0.053107917
convnext_large,1,349,NaN,bird,bird,c10,0349_cop_dnn_c10_bird_10_n01532829_560.png,n01532829_560.png,1.0,0.80913997,0.29999915,0.36001694
convnext_large,1,350,NaN,boat,boat,c30,0350_cop_dnn_c30_boat_10_n04273569_1709.png,n04273569_1709.png,1.0,3.0538447,0.33022848,1.9258875
convnext_large,1,351,NaN,bicycle,bicycle,c50,0351_cop_dnn_c50_bicycle_10_n02835271_7958.png,n02835271_7958.png,1.0,5.939886,0.37242743,3.9367878
convnext_large,1,352,NaN,bear,bear,c30,0352_cop_dnn_c30_bear_10_n02133161_12157.png,n02133161_12157.png,1.0,5.1802444,0.6284059,3.2186358
convnext_large,1,353,NaN,chair,chair,c01,0353_cop_dnn_c01_chair_10_n04099969_4577.png,n04099969_4577.png,1.0,3.1811368,0.2718356,2.0571866
convnext_large,1,354,NaN,bicycle,bicycle,c01,0354_cop_dnn_c01_bicycle_10_n02835271_10283.png,n02835271_10283.png,1.0,5.966678,0.5051099,3.861912
convnext_large,1,355,NaN,truck,truck,c100,0355_cop_dnn_c100_truck_10_n03417042_23815.png,n03417042_23815.png,1.0,1.9053557,1.1503524,0.533868
convnext_large,1,356,NaN,bear,bear,c03,0356_cop_dnn_c03_bear_10_n02133161_1059.png,n02133161_1059.png,1.0,5.4414577,0.48005888,3.508239
convnext_large,1,357,NaN,chair,chair,c01,0357_cop_dnn_c01_chair_10_n02791124_5173.png,n02791124_5173.png,1.0,3.7258606,0.37416816,2.3700044
convnext_large,1,358,NaN,bottle,bottle,c30,0358_cop_dnn_c30_bottle_10_n03983396_5545.png,n03983396_5545.png,1.0,4.1254478,0.44317883,2.6037574
convnext_large,1,359,NaN,airplane,airplane,c01,0359_cop_dnn_c01_airplane_10_n02690373_1797.png,n02690373_1797.png,1.0,8.143665,0.3298946,5.5251703
convnext_large,1,360,NaN,oven,oven,c05,0360_cop_dnn_c05_oven_10_n04111531_6628.png,n04111531_6628.png,1.0,7.669763,1.0449574,4.684445
convnext_large,1,361,NaN,elephant,elephant,c10,0361_cop_dnn_c10_elephant_10_n02504458_7817.png,n02504458_7817.png,1.0,6.010131,3.4563231,1.8058147
convnext_large,1,362,NaN,knife,knife,c50,0362_cop_dnn_c50_knife_10_n03041632_4714.png,n03041632_4714.png,1.0,7.402116,0.22875771,5.07233
convnext_large,1,363,NaN,bear,bear,c03,0363_cop_dnn_c03_bear_10_n02134084_169.png,n02134084_169.png,1.0,3.514467,0.3766098,2.2188
convnext_large,1,364,NaN,bird,bird,c15,0364_cop_dnn_c15_bird_10_n02013706_8336.png,n02013706_8336.png,1.0,0.34070703,0.18621366,0.10924332
convnext_large,1,365,NaN,bottle,bottle,c15,0365_cop_dnn_c15_bottle_10_n04579145_6880.png,n04579145_6880.png,1.0,2.4127483,0.46928138,1.3742386
convnext_large,1,366,NaN,dog,dog,c05,0366_cop_dnn_c05_dog_10_n02105641_416.png,n02105641_416.png,1.0,0.6037808,0.36322796,0.17009655
convnext_large,1,367,NaN,airplane,airplane,c10,0367_cop_dnn_c10_airplane_10_n02690373_6549.png,n02690373_6549.png,1.0,8.49498,0.6975445,5.5136194
convnext_large,1,368,NaN,clock,clock,c01,0368_cop_dnn_c01_clock_10_n04548280_2374.png,n04548280_2374.png,1.0,5.7252946,0.5661107,3.648094
convnext_large,1,369,NaN,bottle,bottle,c30,0369_cop_dnn_c30_bottle_10_n03983396_6287.png,n03983396_6287.png,1.0,3.142666,0.3059591,2.0058548
convnext_large,1,370,NaN,dog,dog,c01,0370_cop_dnn_c01_dog_10_n02090622_1126.png,n02090622_1126.png,1.0,1.2957106,0.6304028,0.47044364
convnext_large,1,371,NaN,truck,truck,c50,0371_cop_dnn_c50_truck_10_n03796401_1681.png,n03796401_1681.png,1.0,2.3429508,0.7317853,1.1392661
convnext_large,1,372,NaN,elephant,elephant,c30,0372_cop_dnn_c30_elephant_10_n02504013_5537.png,n02504013_5537.png,1.0,6.9413795,0.3870129,4.6346374
convnext_large,1,373,NaN,keyboard,keyboard,c05,0373_cop_dnn_c05_keyboard_10_n03085013_12399.png,n03085013_12399.png,1.0,7.551498,0.48419303,4.9973392
convnext_large,1,374,NaN,oven,oven,c15,0374_cop_dnn_c15_oven_10_n04111531_6094.png,n04111531_6094.png,1.0,3.1006494,2.1316411,0.6851923
convnext_large,1,375,NaN,airplane,airplane,c03,0375_cop_dnn_c03_airplane_10_n02690373_13604.png,n02690373_13604.png,1.0,8.254604,0.795825,5.2741537
convnext_large,1,376,NaN,bear,bear,c100,0376_cop_dnn_c100_bear_10_n02134084_16084.png,n02134084_16084.png,1.0,3.088314,0.41461524,1.8905907
convnext_large,1,377,NaN,boat,boat,c01,0377_cop_dnn_c01_boat_10_n04273569_15906.png,n04273569_15906.png,1.0,2.7353997,0.63923275,1.482214
convnext_large,1,378,NaN,dog,dog,c05,0378_cop_dnn_c05_dog_10_n02105162_8899.png,n02105162_8899.png,1.0,0.4659721,0.117390685,0.24648428
convnext_large,1,379,NaN,oven,oven,c03,0379_cop_dnn_c03_oven_10_n04111531_7619.png,n04111531_7619.png,1.0,8.817354,0.48101306,5.8946834
convnext_large,1,380,NaN,elephant,elephant,c05,0380_cop_dnn_c05_elephant_10_n02504458_1816.png,n02504458_1816.png,1.0,7.2218547,0.2705627,4.9153056
convnext_large,1,381,NaN,cat,cat,c30,0381_cop_dnn_c30_cat_10_n02123045_3575.png,n02123045_3575.png,1.0,3.0115154,1.6146069,0.9877635
convnext_large,1,382,NaN,truck,truck,c01,0382_cop_dnn_c01_truck_10_n03417042_908.png,n03417042_908.png,1.0,1.8971957,0.596809,0.9195123
convnext_large,1,383,NaN,boat,boat,c03,0383_cop_dnn_c03_boat_10_n03344393_4213.png,n03344393_4213.png,1.0,2.0694592,0.73381454,0.94444346
convnext_large,1,384,NaN,knife,knife,c01,0384_cop_dnn_c01_knife_10_n03041632_31483.png,n03041632_31483.png,1.0,3.3791404,1.432583,1.376424
convnext_large,1,385,NaN,bottle,bottle,c01,0385_cop_dnn_c01_bottle_10_n03937543_986.png,n03937543_986.png,1.0,1.5394982,1.2850931,0.1798916
convnext_large,1,386,NaN,truck,truck,c15,0386_cop_dnn_c15_truck_10_n03796401_7381.png,n03796401_7381.png,1.0,2.82941,0.4115065,1.7097161
convnext_large,1,387,NaN,dog,dog,c03,0387_cop_dnn_c03_dog_10_n02094433_9787.png,n02094433_9787.png,1.0,0.6884409,0.43799782,0.17709002
convnext_large,1,388,NaN,elephant,bird,c30,0388_cop_dnn_c30_bird_10_n02011460_11838.png,n02011460_11838.png,0.0,-0.040919542,0.2810897,-0.22769491
convnext_large,1,389,NaN,cat,cat,c30,0389_cop_dnn_c30_cat_10_n02123597_29513.png,n02123597_29513.png,1.0,2.744977,0.712461,1.4372059
convnext_large,1,390,NaN,chair,chair,c10,0390_cop_dnn_c10_chair_10_n04429376_5337.png,n04429376_5337.png,1.0,4.899458,0.47577024,3.1280198
convnext_large,1,391,NaN,knife,knife,c03,0391_cop_dnn_c03_knife_10_n03041632_4260.png,n03041632_4260.png,1.0,7.7935777,0.45358413,5.1901593
convnext_large,1,392,NaN,keyboard,keyboard,c10,0392_cop_dnn_c10_keyboard_10_n04505470_4061.png,n04505470_4061.png,1.0,5.4367323,0.25243846,3.6658492
convnext_large,1,393,NaN,boat,boat,c15,0393_cop_dnn_c15_boat_10_n03344393_6467.png,n03344393_6467.png,1.0,2.1063612,0.5870559,1.074311
convnext_large,1,394,NaN,bicycle,bicycle,c100,0394_cop_dnn_c100_bicycle_10_n03792782_11297.png,n03792782_11297.png,1.0,6.8484116,0.41098797,4.551946
convnext_large,1,395,NaN,bicycle,bicycle,c03,0395_cop_dnn_c03_bicycle_10_n03792782_8357.png,n03792782_8357.png,1.0,6.7348533,0.57740974,4.35397
convnext_large,1,396,NaN,dog,dog,c10,0396_cop_dnn_c10_dog_10_n02108422_2739.png,n02108422_2739.png,1.0,0.34885886,0.28456867,0.045460034
convnext_large,1,397,NaN,bear,bear,c03,0397_cop_dnn_c03_bear_10_n02134084_6840.png,n02134084_6840.png,1.0,2.2736301,1.2089624,0.7528338
convnext_large,1,398,NaN,bear,bear,c30,0398_cop_dnn_c30_bear_10_n02133161_5365.png,n02133161_5365.png,1.0,3.704436,1.2438416,1.739903
convnext_large,1,399,NaN,bottle,bottle,c30,0399_cop_dnn_c30_bottle_10_n04560804_1010.png,n04560804_1010.png,1.0,2.6674817,0.14306632,1.7850312
convnext_large,1,400,NaN,clock,clock,c10,0400_cop_dnn_c10_clock_10_n04548280_183.png,n04548280_183.png,1.0,5.3888526,0.32997054,3.57717
convnext_large,1,401,NaN,keyboard,keyboard,c100,0401_cop_dnn_c100_keyboard_10_n03085013_21534.png,n03085013_21534.png,1.0,6.18927,0.28539577,4.1746697
convnext_large,1,402,NaN,keyboard,keyboard,c50,0402_cop_dnn_c50_keyboard_10_n03085013_24111.png,n03085013_24111.png,1.0,2.6498365,0.7009287,1.378086
convnext_large,1,403,NaN,knife,knife,c15,0403_cop_dnn_c15_knife_10_n03041632_28009.png,n03041632_28009.png,1.0,7.853823,0.25214663,5.375197
convnext_large,1,404,NaN,cat,cat,c50,0404_cop_dnn_c50_cat_10_n02123159_7647.png,n02123159_7647.png,1.0,4.097829,0.7008869,2.4020007
convnext_large,1,405,NaN,bottle,bottle,c01,0405_cop_dnn_c01_bottle_10_n02823428_8696.png,n02823428_8696.png,1.0,2.953677,0.84065294,1.4941336
convnext_large,1,406,NaN,elephant,elephant,c15,0406_cop_dnn_c15_elephant_10_n02504458_8923.png,n02504458_8923.png,1.0,6.9212384,0.21491821,4.7420845
convnext_large,1,407,NaN,bear,bear,c01,0407_cop_dnn_c01_bear_10_n02134084_5031.png,n02134084_5031.png,1.0,3.3076742,1.3057199,1.4155955
convnext_large,1,408,NaN,clock,dog,c50,0408_cop_dnn_c50_dog_10_n02097209_1658.png,n02097209_1658.png,0.0,0.2090137,0.37145242,-0.114861526
convnext_large,1,409,NaN,dog,dog,c05,0409_cop_dnn_c05_dog_10_n02099849_6384.png,n02099849_6384.png,1.0,0.6029247,0.1750294,0.3025677
convnext_large,1,410,NaN,elephant,elephant,c15,0410_cop_dnn_c15_elephant_10_n02504013_3459.png,n02504013_3459.png,1.0,6.4797745,0.20671433,4.435724
convnext_large,1,411,NaN,knife,knife,c03,0411_cop_dnn_c03_knife_10_n03041632_36390.png,n03041632_36390.png,1.0,4.949206,0.99428284,2.7965531
convnext_large,1,412,NaN,knife,knife,c100,0412_cop_dnn_c100_knife_10_n03041632_10263.png,n03041632_10263.png,1.0,7.1291046,1.0277123,4.314336
convnext_large,1,413,NaN,cat,cat,c03,0413_cop_dnn_c03_cat_10_n02123045_840.png,n02123045_840.png,1.0,4.9525084,0.63770986,3.0510232
convnext_large,1,414,NaN,clock,clock,c05,0414_cop_dnn_c05_clock_10_n04548280_4758.png,n04548280_4758.png,1.0,4.4155726,0.45187318,2.8027587
convnext_large,1,415,NaN,bear,bear,c50,0415_cop_dnn_c50_bear_10_n02133161_1247.png,n02133161_1247.png,1.0,4.6593347,0.60732937,2.8652005
convnext_large,1,416,NaN,airplane,airplane,c10,0416_cop_dnn_c10_airplane_10_n02690373_6716.png,n02690373_6716.png,1.0,8.623645,0.5314484,5.7220473
convnext_large,1,417,NaN,keyboard,keyboard,c30,0417_cop_dnn_c30_keyboard_10_n04505470_4893.png,n04505470_4893.png,1.0,5.0785246,0.48523378,3.2479472
convnext_large,1,418,NaN,chair,chair,c30,0418_cop_dnn_c30_chair_10_n04099969_34525.png,n04099969_34525.png,1.0,3.254009,1.0985003,1.5241749
convnext_large,1,419,NaN,airplane,airplane,c01,0419_cop_dnn_c01_airplane_10_n02690373_4793.png,n02690373_4793.png,1.0,7.9626036,0.3732665,5.366472
convnext_large,1,420,NaN,knife,knife,c15,0420_cop_dnn_c15_knife_10_n03041632_4787.png,n03041632_4787.png,1.0,7.496934,1.0380096,4.567149
convnext_large,1,421,NaN,boat,boat,c05,0421_cop_dnn_c05_boat_10_n04273569_20587.png,n04273569_20587.png,1.0,2.9355226,2.4530563,0.34115514
convnext_large,1,422,NaN,bicycle,bicycle,c03,0422_cop_dnn_c03_bicycle_10_n03792782_4844.png,n03792782_4844.png,1.0,6.3068213,1.2114184,3.602994
convnext_large,1,423,NaN,cat,cat,c01,0423_cop_dnn_c01_cat_10_n02123045_6066.png,n02123045_6066.png,1.0,4.4688773,1.2892189,2.248358
convnext_large,1,424,NaN,boat,boat,c30,0424_cop_dnn_c30_boat_10_n04273569_17045.png,n04273569_17045.png,1.0,2.2366135,0.48476154,1.2387465
convnext_large,1,425,NaN,keyboard,keyboard,c100,0425_cop_dnn_c100_keyboard_10_n04505470_5068.png,n04505470_5068.png,1.0,5.4324703,0.6445445,3.3855748
convnext_large,1,426,NaN,airplane,airplane,c10,0426_cop_dnn_c10_airplane_10_n02690373_2724.png,n02690373_2724.png,1.0,8.593424,0.42306772,5.777314
convnext_large,1,427,NaN,boat,boat,c10,0427_cop_dnn_c10_boat_10_n03662601_4844.png,n03662601_4844.png,1.0,2.9600291,0.22432466,1.9344351
convnext_large,1,428,NaN,chair,chair,c100,0428_cop_dnn_c100_chair_10_n04099969_3929.png,n04099969_3929.png,1.0,2.8010974,0.35365498,1.7306032
convnext_large,1,429,NaN,oven,oven,c10,0429_cop_dnn_c10_oven_10_n04111531_9026.png,n04111531_9026.png,1.0,8.3912525,0.3423813,5.6914115
convnext_large,1,430,NaN,knife,knife,c15,0430_cop_dnn_c15_knife_10_n03041632_51225.png,n03041632_51225.png,1.0,7.9936843,0.16327456,5.536936
convnext_large,1,431,NaN,boat,boat,c10,0431_cop_dnn_c10_boat_10_n03344393_6638.png,n03344393_6638.png,1.0,2.0305805,1.4665587,0.39882368
convnext_large,1,432,NaN,knife,knife,c30,0432_cop_dnn_c30_knife_10_n03041632_4590.png,n03041632_4590.png,1.0,9.406211,0.8845959,6.025692
convnext_large,1,433,NaN,clock,clock,c03,0433_cop_dnn_c03_clock_10_n02708093_3761.png,n02708093_3761.png,1.0,3.6337898,3.3199396,0.22192559
convnext_large,1,434,NaN,car,car,c03,0434_cop_dnn_c03_car_10_n04285008_3193.png,n04285008_3193.png,1.0,4.8096733,0.31483236,3.1783326
convnext_large,1,435,NaN,keyboard,keyboard,c50,0435_cop_dnn_c50_keyboard_10_n03085013_661.png,n03085013_661.png,1.0,6.122219,0.9159671,3.6813762
convnext_large,1,436,NaN,bottle,bottle,c03,0436_cop_dnn_c03_bottle_10_n04557648_2355.png,n04557648_2355.png,1.0,1.7642031,0.382452,0.97704554
convnext_large,1,437,NaN,keyboard,dog,c30,0437_cop_dnn_c30_dog_10_n02107312_860.png,n02107312_860.png,0.0,-0.116412796,1.2854745,-0.991284
convnext_large,1,438,NaN,boat,boat,c100,0438_cop_dnn_c100_boat_10_n02951358_1541.png,n02951358_1541.png,1.0,2.53512,0.38744575,1.5186352
convnext_large,1,439,NaN,boat,boat,c15,0439_cop_dnn_c15_boat_10_n02951358_4972.png,n02951358_4972.png,1.0,4.199191,1.0284674,2.2420402
convnext_large,1,440,NaN,bear,bear,c15,0440_cop_dnn_c15_bear_10_n02132136_6352.png,n02132136_6352.png,1.0,5.2550564,0.58365065,3.3031828
convnext_large,1,441,NaN,knife,knife,c05,0441_cop_dnn_c05_knife_10_n03041632_27022.png,n03041632_27022.png,1.0,1.8136746,0.9838599,0.5867676
convnext_large,1,442,NaN,airplane,airplane,c15,0442_cop_dnn_c15_airplane_10_n02690373_10399.png,n02690373_10399.png,1.0,8.089567,1.0888262,4.9502716
convnext_large,1,443,NaN,keyboard,keyboard,c30,0443_cop_dnn_c30_keyboard_10_n04505470_4803.png,n04505470_4803.png,1.0,5.859927,1.2107549,3.2874613
convnext_large,1,444,NaN,bottle,bottle,c03,0444_cop_dnn_c03_bottle_10_n03937543_4916.png,n03937543_4916.png,1.0,2.5907176,0.18021086,1.7044857
convnext_large,1,445,NaN,knife,dog,c10,0445_cop_dnn_c10_dog_10_n02092339_2268.png,n02092339_2268.png,0.0,0.2746587,0.32105786,-0.032809153
convnext_large,1,446,NaN,cat,cat,c100,0446_cop_dnn_c100_cat_10_n02123394_2034.png,n02123394_2034.png,1.0,1.9183568,0.31342274,1.1348597
convnext_large,1,447,NaN,keyboard,keyboard,c01,0447_cop_dnn_c01_keyboard_10_n03085013_24442.png,n03085013_24442.png,1.0,4.992207,0.5403212,3.1479585
convnext_large,1,448,NaN,bicycle,bicycle,c03,0448_cop_dnn_c03_bicycle_10_n03792782_12908.png,n03792782_12908.png,1.0,5.6048026,0.4397064,3.6522746
convnext_large,1,449,NaN,cat,cat,c50,0449_cop_dnn_c50_cat_10_n02124075_10241.png,n02124075_10241.png,1.0,4.1194897,1.2863965,2.0032995
convnext_large,1,450,NaN,keyboard,keyboard,c03,0450_cop_dnn_c03_keyboard_10_n03085013_29941.png,n03085013_29941.png,1.0,5.3950887,1.2667047,2.9192085
convnext_large,1,451,NaN,car,car,c05,0451_cop_dnn_c05_car_10_n03100240_5718.png,n03100240_5718.png,1.0,4.791528,2.7705672,1.4290353
convnext_large,1,452,NaN,bear,bear,c01,0452_cop_dnn_c01_bear_10_n02133161_789.png,n02133161_789.png,1.0,5.1239076,0.5173521,3.2573266
convnext_large,1,453,NaN,chair,chair,c30,0453_cop_dnn_c30_chair_10_n04099969_9891.png,n04099969_9891.png,1.0,2.843994,0.516644,1.645685
convnext_large,1,454,NaN,knife,knife,c01,0454_cop_dnn_c01_knife_10_n03041632_8666.png,n03041632_8666.png,1.0,2.7703404,1.5176017,0.88582003
convnext_large,1,455,NaN,car,car,c10,0455_cop_dnn_c10_car_10_n03100240_52.png,n03100240_52.png,1.0,5.81513,1.9208865,2.7536461
convnext_large,1,456,NaN,dog,bird,c10,0456_cop_dnn_c10_bird_10_n02007558_45529.png,n02007558_45529.png,0.0,0.53477407,0.66645443,-0.09311208
convnext_large,1,457,NaN,airplane,airplane,c15,0457_cop_dnn_c15_airplane_10_n02690373_1933.png,n02690373_1933.png,1.0,9.141742,0.5885512,6.048019
convnext_large,1,458,NaN,elephant,elephant,c03,0458_cop_dnn_c03_elephant_10_n02504013_1879.png,n02504013_1879.png,1.0,7.448686,0.2577547,5.0847564
convnext_large,1,459,NaN,car,car,c10,0459_cop_dnn_c10_car_10_n03100240_3373.png,n03100240_3373.png,1.0,4.9060388,1.4877756,2.417077
convnext_large,1,460,NaN,bicycle,bicycle,c15,0460_cop_dnn_c15_bicycle_10_n03792782_7331.png,n03792782_7331.png,1.0,8.02809,0.28397474,5.4759164
convnext_large,1,461,NaN,chair,chair,c100,0461_cop_dnn_c100_chair_10_n03376595_11049.png,n03376595_11049.png,1.0,2.338065,1.4464468,0.63046926
convnext_large,1,462,NaN,knife,knife,c50,0462_cop_dnn_c50_knife_10_n03041632_37274.png,n03041632_37274.png,1.0,8.834435,0.48338878,5.9050817
convnext_large,1,463,NaN,bottle,bottle,c15,0463_cop_dnn_c15_bottle_10_n02823428_780.png,n02823428_780.png,1.0,3.6347158,0.40671977,2.282538
convnext_large,1,464,NaN,cat,cat,c05,0464_cop_dnn_c05_cat_10_n02123045_390.png,n02123045_390.png,1.0,3.0753076,1.4782199,1.1293116
convnext_large,1,465,NaN,bird,bird,c30,0465_cop_dnn_c30_bird_10_n01796340_10024.png,n01796340_10024.png,1.0,0.57975376,0.33321795,0.17432715
convnext_large,1,466,NaN,knife,knife,c05,0466_cop_dnn_c05_knife_10_n03041632_13509.png,n03041632_13509.png,1.0,8.768799,0.61888164,5.762862
convnext_large,1,467,NaN,bird,bird,c05,0467_cop_dnn_c05_bird_10_n01534433_14198.png,n01534433_14198.png,1.0,0.539251,0.5194677,0.013988919
convnext_large,1,468,NaN,chair,chair,c100,0468_cop_dnn_c100_chair_10_n04099969_2502.png,n04099969_2502.png,1.0,4.9513726,2.137731,1.9895451
convnext_large,1,469,NaN,cat,cat,c05,0469_cop_dnn_c05_cat_10_n02123045_15474.png,n02123045_15474.png,1.0,4.0158863,2.8190355,0.8463013
convnext_large,1,470,NaN,clock,clock,c30,0470_cop_dnn_c30_clock_10_n02708093_442.png,n02708093_442.png,1.0,5.3817763,1.0403464,3.0698545
convnext_large,1,471,NaN,boat,boat,c100,0471_cop_dnn_c100_boat_10_n02951358_12663.png,n02951358_12663.png,1.0,2.787582,2.235431,0.3904297
convnext_large,1,472,NaN,cat,cat,c05,0472_cop_dnn_c05_cat_10_n02125311_37322.png,n02125311_37322.png,1.0,1.8173345,0.29814425,1.0742298
convnext_large,1,473,NaN,dog,bird,c100,0473_cop_dnn_c100_bird_10_n01558993_5185.png,n01558993_5185.png,0.0,-0.9573926,0.7869235,-1.2334177
convnext_large,1,474,NaN,elephant,elephant,c100,0474_cop_dnn_c100_elephant_10_n02504013_7248.png,n02504013_7248.png,1.0,6.909978,0.41222784,4.5946035
convnext_large,1,475,NaN,knife,bottle,c01,0475_cop_dnn_c01_bottle_10_n02823428_4245.png,n02823428_4245.png,0.0,0.7321251,3.004977,-1.607149
convnext_large,1,476,NaN,chair,chair,c10,0476_cop_dnn_c10_chair_10_n04099969_8993.png,n04099969_8993.png,1.0,2.7787905,0.48852715,1.6194608
convnext_large,1,477,NaN,dog,dog,c30,0477_cop_dnn_c30_dog_10_n02101388_8775.png,n02101388_8775.png,1.0,0.50635564,0.3368785,0.11983843
convnext_large,1,478,NaN,car,car,c01,0478_cop_dnn_c01_car_10_n02814533_3590.png,n02814533_3590.png,1.0,4.8871746,0.6372547,3.0051472
convnext_large,1,479,NaN,elephant,elephant,c05,0479_cop_dnn_c05_elephant_10_n02504458_6018.png,n02504458_6018.png,1.0,7.007177,0.36394298,4.697476
convnext_large,1,480,NaN,keyboard,keyboard,c100,0480_cop_dnn_c100_keyboard_10_n03085013_11332.png,n03085013_11332.png,1.0,7.5058613,1.0745186,4.547646
convnext_large,1,481,NaN,oven,oven,c05,0481_cop_dnn_c05_oven_10_n04111531_6863.png,n04111531_6863.png,1.0,9.0729475,1.8036916,5.14014
convnext_large,1,482,NaN,airplane,airplane,c50,0482_cop_dnn_c50_airplane_10_n02690373_2675.png,n02690373_2675.png,1.0,8.84696,0.3855412,5.983127
convnext_large,1,483,NaN,dog,dog,c01,0483_cop_dnn_c01_dog_10_n02106550_660.png,n02106550_660.png,1.0,1.2691449,0.76281846,0.35802686
convnext_large,1,484,NaN,knife,knife,c15,0484_cop_dnn_c15_knife_10_n03041632_11700.png,n03041632_11700.png,1.0,4.673512,0.7739942,2.7573755
convnext_large,1,485,NaN,keyboard,bird,c15,0485_cop_dnn_c15_bird_10_n02009229_6149.png,n02009229_6149.png,0.0,0.08979196,0.4158745,-0.23057519
convnext_large,1,486,NaN,clock,clock,c30,0486_cop_dnn_c30_clock_10_n03196217_3780.png,n03196217_3780.png,1.0,4.0474725,0.60733736,2.4325428
convnext_large,1,487,NaN,bird,bird,c100,0487_cop_dnn_c100_bird_10_n01530575_34173.png,n01530575_34173.png,1.0,0.7130732,0.4625538,0.17714396
convnext_large,1,488,NaN,bottle,bottle,c100,0488_cop_dnn_c100_bottle_10_n03983396_17803.png,n03983396_17803.png,1.0,4.266262,0.3659956,2.7579048
convnext_large,1,489,NaN,oven,oven,c05,0489_cop_dnn_c05_oven_10_n04111531_2156.png,n04111531_2156.png,1.0,8.995447,0.88168097,5.737299
convnext_large,1,490,NaN,elephant,elephant,c10,0490_cop_dnn_c10_elephant_10_n02504013_14948.png,n02504013_14948.png,1.0,6.996173,0.17032382,4.8266044
convnext_large,1,491,NaN,boat,boat,c01,0491_cop_dnn_c01_boat_10_n04273569_3112.png,n04273569_3112.png,1.0,3.0666723,1.4649949,1.132557
convnext_large,1,492,NaN,bird,bird,c50,0492_cop_dnn_c50_bird_10_n01560419_6583.png,n01560419_6583.png,1.0,0.30198765,0.27286255,0.020594552
convnext_large,1,493,NaN,keyboard,keyboard,c50,0493_cop_dnn_c50_keyboard_10_n03085013_19161.png,n03085013_19161.png,1.0,6.6062865,0.37957978,4.4029465
convnext_large,1,494,NaN,bird,bird,c05,0494_cop_dnn_c05_bird_10_n01616318_57023.png,n01616318_57023.png,1.0,0.5525929,0.5115174,0.029044742
convnext_large,1,495,NaN,truck,truck,c50,0495_cop_dnn_c50_truck_10_n04467665_69176.png,n04467665_69176.png,1.0,2.9051976,1.1065066,1.2718667
convnext_large,1,496,NaN,car,car,c50,0496_cop_dnn_c50_car_10_n03100240_4971.png,n03100240_4971.png,1.0,6.925119,0.4028614,4.6119323
convnext_large,1,497,NaN,elephant,oven,c01,0497_cop_dnn_c01_oven_10_n04111531_4901.png,n04111531_4901.png,0.0,1.0859779,2.073919,-0.6985799
convnext_large,1,498,NaN,bear,bear,c30,0498_cop_dnn_c30_bear_10_n02133161_4091.png,n02133161_4091.png,1.0,4.536536,0.35712862,2.9552875
convnext_large,1,499,NaN,cat,cat,c03,0499_cop_dnn_c03_cat_10_n02123394_4164.png,n02123394_4164.png,1.0,3.0767832,0.66683006,1.7040942
convnext_large,1,500,NaN,bird,bird,c03,0500_cop_dnn_c03_bird_10_n02017213_689.png,n02017213_689.png,1.0,1.030626,0.7315262,0.21149555
convnext_large,1,501,NaN,dog,dog,c100,0501_cop_dnn_c100_dog_10_n02109047_14207.png,n02109047_14207.png,1.0,0.66280365,0.28626454,0.26625335
convnext_large,1,502,NaN,elephant,elephant,c05,0502_cop_dnn_c05_elephant_10_n02504013_8347.png,n02504013_8347.png,1.0,6.743697,0.43865687,4.458337
convnext_large,1,503,NaN,bottle,bottle,c30,0503_cop_dnn_c30_bottle_10_n04591713_1652.png,n04591713_1652.png,1.0,3.05819,0.48547372,1.8191853
convnext_large,1,504,NaN,oven,oven,c15,0504_cop_dnn_c15_oven_10_n04111531_22403.png,n04111531_22403.png,1.0,8.887485,0.36654344,6.025215
convnext_large,1,505,NaN,airplane,airplane,c100,0505_cop_dnn_c100_airplane_10_n02690373_6046.png,n02690373_6046.png,1.0,8.584131,0.5763359,5.6623664
convnext_large,1,506,NaN,bear,bear,c15,0506_cop_dnn_c15_bear_10_n02134084_1689.png,n02134084_1689.png,1.0,2.851771,0.3504306,1.7687148
convnext_large,1,507,NaN,oven,oven,c30,0507_cop_dnn_c30_oven_10_n04111531_14269.png,n04111531_14269.png,1.0,8.575937,0.30023032,5.851809
convnext_large,1,508,NaN,cat,cat,c100,0508_cop_dnn_c100_cat_10_n02123597_9444.png,n02123597_9444.png,1.0,6.3239098,0.6422209,4.017561
convnext_large,1,509,NaN,bear,bear,c10,0509_cop_dnn_c10_bear_10_n02134418_128.png,n02134418_128.png,1.0,2.688347,0.39852023,1.6191522
convnext_large,1,510,NaN,airplane,airplane,c30,0510_cop_dnn_c30_airplane_10_n02690373_8789.png,n02690373_8789.png,1.0,8.626982,0.4836913,5.758176
convnext_large,1,511,NaN,bottle,bottle,c01,0511_cop_dnn_c01_bottle_10_n03937543_10092.png,n03937543_10092.png,1.0,2.358749,1.2607677,0.77638996
convnext_large,1,512,NaN,clock,clock,c03,0512_cop_dnn_c03_clock_10_n02708093_7257.png,n02708093_7257.png,1.0,5.717751,1.5317061,2.9599807
convnext_large,1,513,NaN,bear,bear,c100,0513_cop_dnn_c100_bear_10_n02134084_21207.png,n02134084_21207.png,1.0,3.0926366,0.4593892,1.8619871
convnext_large,1,514,NaN,bird,bird,c05,0514_cop_dnn_c05_bird_10_n01797886_12811.png,n01797886_12811.png,1.0,0.5563204,0.25350168,0.21412519
convnext_large,1,515,NaN,oven,oven,c01,0515_cop_dnn_c01_oven_10_n04111531_21248.png,n04111531_21248.png,1.0,4.894236,0.91326785,2.8149698
convnext_large,1,516,NaN,dog,dog,c15,0516_cop_dnn_c15_dog_10_n02090379_5574.png,n02090379_5574.png,1.0,0.30150905,0.2216879,0.056442082
convnext_large,1,517,NaN,car,car,c15,0517_cop_dnn_c15_car_10_n04285008_8443.png,n04285008_8443.png,1.0,6.0950394,0.44823426,3.9928944
convnext_large,1,518,NaN,car,car,c100,0518_cop_dnn_c100_car_10_n03100240_15647.png,n03100240_15647.png,1.0,6.08888,1.3004484,3.3859324
convnext_large,1,519,NaN,chair,chair,c50,0519_cop_dnn_c50_chair_10_n02791124_5824.png,n02791124_5824.png,1.0,2.4071403,1.2540689,0.81534463
convnext_large,1,520,NaN,elephant,bear,c05,0520_cop_dnn_c05_bear_10_n02133161_9949.png,n02133161_9949.png,0.0,2.5892353,2.740275,-0.10680113
convnext_large,1,521,NaN,elephant,elephant,c03,0521_cop_dnn_c03_elephant_10_n02504458_5320.png,n02504458_5320.png,1.0,6.827606,0.38421142,4.556168
convnext_large,1,522,NaN,keyboard,keyboard,c01,0522_cop_dnn_c01_keyboard_10_n04505470_1904.png,n04505470_1904.png,1.0,5.2291207,0.5183518,3.3310165
convnext_large,1,523,NaN,oven,oven,c100,0523_cop_dnn_c100_oven_10_n04111531_4685.png,n04111531_4685.png,1.0,9.388527,0.55340135,6.2473774
convnext_large,1,524,NaN,truck,truck,c05,0524_cop_dnn_c05_truck_10_n03417042_2230.png,n03417042_2230.png,1.0,1.966874,0.37391496,1.1263921
convnext_large,1,525,NaN,bottle,bottle,c15,0525_cop_dnn_c15_bottle_10_n04591713_6842.png,n04591713_6842.png,1.0,1.3264797,0.94623804,0.26887143
convnext_large,1,526,NaN,boat,boat,c50,0526_cop_dnn_c50_boat_10_n02951358_8285.png,n02951358_8285.png,1.0,2.517748,0.43424925,1.4732562
convnext_large,1,527,NaN,knife,knife,c01,0527_cop_dnn_c01_knife_10_n03041632_48675.png,n03041632_48675.png,1.0,2.3796616,1.1969908,0.8362745
convnext_large,1,528,NaN,oven,oven,c01,0528_cop_dnn_c01_oven_10_n04111531_14435.png,n04111531_14435.png,1.0,3.4525766,1.9672451,1.050288
convnext_large,1,529,NaN,cat,cat,c50,0529_cop_dnn_c50_cat_10_n02123159_8273.png,n02123159_8273.png,1.0,1.7679874,0.2920114,1.0436727
convnext_large,1,530,NaN,bird,bird,c50,0530_cop_dnn_c50_bird_10_n01614925_1908.png,n01614925_1908.png,1.0,0.33921748,0.32601416,0.00933616
convnext_large,1,531,NaN,knife,knife,c05,0531_cop_dnn_c05_knife_10_n03041632_96345.png,n03041632_96345.png,1.0,8.617934,0.8714024,5.4776254
convnext_large,1,532,NaN,knife,knife,c10,0532_cop_dnn_c10_knife_10_n03041632_31037.png,n03041632_31037.png,1.0,9.049952,0.27663413,6.2036724
convnext_large,1,533,NaN,airplane,airplane,c50,0533_cop_dnn_c50_airplane_10_n02690373_1436.png,n02690373_1436.png,1.0,7.2466326,0.472753,4.7898564
convnext_large,1,534,NaN,chair,chair,c100,0534_cop_dnn_c100_chair_10_n04099969_28072.png,n04099969_28072.png,1.0,3.4804616,0.9495689,1.7896113
convnext_large,1,535,NaN,boat,boat,c01,0535_cop_dnn_c01_boat_10_n04612504_19983.png,n04612504_19983.png,1.0,1.9069798,1.4104301,0.35111368
convnext_large,1,536,NaN,oven,oven,c15,0536_cop_dnn_c15_oven_10_n04111531_8255.png,n04111531_8255.png,1.0,8.785816,0.20226018,6.069491
convnext_large,1,537,NaN,bear,bear,c15,0537_cop_dnn_c15_bear_10_n02132136_1574.png,n02132136_1574.png,1.0,4.62969,1.3189442,2.3410509
convnext_large,1,538,NaN,boat,boat,c100,0538_cop_dnn_c100_boat_10_n04273569_24747.png,n04273569_24747.png,1.0,4.655229,1.2482193,2.4091198
convnext_large,1,539,NaN,knife,dog,c30,0539_cop_dnn_c30_dog_10_n02113799_18413.png,n02113799_18413.png,0.0,0.27188107,0.47192383,-0.1414516
convnext_large,1,540,NaN,boat,boat,c15,0540_cop_dnn_c15_boat_10_n04273569_28333.png,n04273569_28333.png,1.0,3.2787232,0.211681,2.1687264
convnext_large,1,541,NaN,bird,bird,c01,0541_cop_dnn_c01_bird_10_n02017213_2183.png,n02017213_2183.png,1.0,2.122395,1.5423019,0.4101878
convnext_large,1,542,NaN,boat,boat,c50,0542_cop_dnn_c50_boat_10_n04273569_26139.png,n04273569_26139.png,1.0,2.9909806,0.7285551,1.5997764
convnext_large,1,543,NaN,knife,knife,c03,0543_cop_dnn_c03_knife_10_n03041632_29684.png,n03041632_29684.png,1.0,7.6952343,0.5204318,5.0733514
convnext_large,1,544,NaN,boat,boat,c100,0544_cop_dnn_c100_boat_10_n02951358_3087.png,n02951358_3087.png,1.0,1.8914864,1.0026852,0.6284774
convnext_large,1,545,NaN,keyboard,keyboard,c15,0545_cop_dnn_c15_keyboard_10_n03085013_13615.png,n03085013_13615.png,1.0,7.1098332,0.47423902,4.692074
convnext_large,1,546,NaN,oven,oven,c03,0546_cop_dnn_c03_oven_10_n04111531_1778.png,n04111531_1778.png,1.0,7.2134757,1.4282062,4.0908036
convnext_large,1,547,NaN,dog,dog,c03,0547_cop_dnn_c03_dog_10_n02097474_9129.png,n02097474_9129.png,1.0,0.6651112,0.41715664,0.17533034
convnext_large,1,548,NaN,car,bird,c30,0548_cop_dnn_c30_bird_10_n02013706_19220.png,n02013706_19220.png,0.0,0.2745256,0.43687937,-0.114801444
convnext_large,1,549,NaN,clock,clock,c100,0549_cop_dnn_c100_clock_10_n03196217_7199.png,n03196217_7199.png,1.0,4.52878,0.49231672,2.8542106
convnext_large,1,550,NaN,bear,bear,c50,0550_cop_dnn_c50_bear_10_n02132136_27823.png,n02132136_27823.png,1.0,4.636058,0.40617585,2.9909785
convnext_large,1,551,NaN,boat,boat,c03,0551_cop_dnn_c03_boat_10_n03662601_6462.png,n03662601_6462.png,1.0,3.7885375,0.41630903,2.3845255
convnext_large,1,552,NaN,knife,knife,c15,0552_cop_dnn_c15_knife_10_n03041632_11773.png,n03041632_11773.png,1.0,9.812148,0.2767952,6.7425127
convnext_large,1,553,NaN,clock,clock,c01,0553_cop_dnn_c01_clock_10_n02708093_7998.png,n02708093_7998.png,1.0,5.196945,0.55182326,3.2845974
convnext_large,1,554,NaN,elephant,elephant,c30,0554_cop_dnn_c30_elephant_10_n02504458_3409.png,n02504458_3409.png,1.0,6.4731417,0.49082154,4.2301393
convnext_large,1,555,NaN,bottle,bottle,c01,0555_cop_dnn_c01_bottle_10_n04560804_24166.png,n04560804_24166.png,1.0,2.9661026,0.70175755,1.6011338
convnext_large,1,556,NaN,cat,cat,c15,0556_cop_dnn_c15_cat_10_n02125311_17613.png,n02125311_17613.png,1.0,2.1610432,0.5252255,1.1566978
convnext_large,1,557,NaN,bicycle,bicycle,c05,0557_cop_dnn_c05_bicycle_10_n03792782_5284.png,n03792782_5284.png,1.0,7.314329,0.84896183,4.5717053
convnext_large,1,558,NaN,oven,oven,c10,0558_cop_dnn_c10_oven_10_n04111531_13006.png,n04111531_13006.png,1.0,8.077631,1.9523246,4.3312454
convnext_large,1,559,NaN,oven,oven,c10,0559_cop_dnn_c10_oven_10_n04111531_8309.png,n04111531_8309.png,1.0,8.81319,0.5867387,5.81698
convnext_large,1,560,NaN,clock,clock,c10,0560_cop_dnn_c10_clock_10_n04548280_8390.png,n04548280_8390.png,1.0,4.5909467,0.22146833,3.0896878
convnext_large,1,561,NaN,truck,truck,c50,0561_cop_dnn_c50_truck_10_n04467665_7110.png,n04467665_7110.png,1.0,2.6069012,0.9091315,1.2005044
convnext_large,1,562,NaN,boat,clock,c10,0562_cop_dnn_c10_clock_10_n03196217_8020.png,n03196217_8020.png,0.0,1.2919594,1.3661315,-0.052447625
convnext_large,1,563,NaN,elephant,elephant,c100,0563_cop_dnn_c100_elephant_10_n02504458_7955.png,n02504458_7955.png,1.0,6.4689403,0.22381069,4.4159737
convnext_large,1,564,NaN,elephant,elephant,c01,0564_cop_dnn_c01_elephant_10_n02504458_1022.png,n02504458_1022.png,1.0,5.879238,0.36745438,3.8974197
convnext_large,1,565,NaN,clock,clock,c100,0565_cop_dnn_c100_clock_10_n04548280_2383.png,n04548280_2383.png,1.0,6.165146,0.27595636,4.164286
convnext_large,1,566,NaN,airplane,bird,c50,0566_cop_dnn_c50_bird_10_n02002724_7019.png,n02002724_7019.png,0.0,0.36173972,0.4592179,-0.06892748
convnext_large,1,567,NaN,cat,cat,c100,0567_cop_dnn_c100_cat_10_n02125311_1127.png,n02125311_1127.png,1.0,1.8045832,0.40959665,0.9864044
convnext_large,1,568,NaN,bicycle,bicycle,c05,0568_cop_dnn_c05_bicycle_10_n02835271_6481.png,n02835271_6481.png,1.0,7.1345654,0.11834453,4.9612174
convnext_large,1,569,NaN,car,car,c15,0569_cop_dnn_c15_car_10_n04285008_5208.png,n04285008_5208.png,1.0,4.030418,1.5655726,1.7429087
convnext_large,1,570,NaN,oven,oven,c50,0570_cop_dnn_c50_oven_10_n04111531_8658.png,n04111531_8658.png,1.0,8.870544,0.2723422,6.079847
convnext_large,1,571,NaN,bottle,bottle,c05,0571_cop_dnn_c05_bottle_10_n04579145_2910.png,n04579145_2910.png,1.0,2.4398594,0.09845335,1.6556242
convnext_large,1,572,NaN,truck,truck,c01,0572_cop_dnn_c01_truck_10_n04467665_22414.png,n04467665_22414.png,1.0,3.1138237,2.2895226,0.5828688
convnext_large,1,573,NaN,elephant,elephant,c15,0573_cop_dnn_c15_elephant_10_n02504013_5439.png,n02504013_5439.png,1.0,6.110428,0.5860354,3.9063356
convnext_large,1,574,NaN,cat,cat,c10,0574_cop_dnn_c10_cat_10_n02123159_5945.png,n02123159_5945.png,1.0,2.173724,0.2938605,1.3292643
convnext_large,1,575,NaN,bottle,bottle,c10,0575_cop_dnn_c10_bottle_10_n04557648_2426.png,n04557648_2426.png,1.0,4.928038,0.5146024,3.1207705
convnext_large,1,576,NaN,bicycle,bicycle,c05,0576_cop_dnn_c05_bicycle_10_n03792782_38641.png,n03792782_38641.png,1.0,7.3275337,0.5402883,4.7993073
convnext_large,1,577,NaN,knife,dog,c30,0577_cop_dnn_c30_dog_10_n02110958_15843.png,n02110958_15843.png,0.0,0.2204102,0.81250894,-0.41867703
convnext_large,1,578,NaN,keyboard,keyboard,c15,0578_cop_dnn_c15_keyboard_10_n04505470_5161.png,n04505470_5161.png,1.0,6.8748345,0.5441318,4.476483
convnext_large,1,579,NaN,airplane,airplane,c30,0579_cop_dnn_c30_airplane_10_n02690373_8350.png,n02690373_8350.png,1.0,8.259117,0.46578994,5.5107145
convnext_large,1,580,NaN,bicycle,bicycle,c05,0580_cop_dnn_c05_bicycle_10_n03792782_10129.png,n03792782_10129.png,1.0,5.0031347,0.3717997,3.2748487
convnext_large,1,581,NaN,car,car,c100,0581_cop_dnn_c100_car_10_n02814533_26369.png,n02814533_26369.png,1.0,3.883998,1.9632373,1.3581829
convnext_large,1,582,NaN,oven,oven,c10,0582_cop_dnn_c10_oven_10_n04111531_10077.png,n04111531_10077.png,1.0,8.702092,0.34030566,5.9126763
convnext_large,1,583,NaN,oven,oven,c01,0583_cop_dnn_c01_oven_10_n04111531_12702.png,n04111531_12702.png,1.0,4.8035135,3.262125,1.0899262
convnext_large,1,584,NaN,clock,clock,c100,0584_cop_dnn_c100_clock_10_n03196217_8618.png,n03196217_8618.png,1.0,2.8026135,0.24791703,1.8064433
convnext_large,1,585,NaN,bottle,bottle,c10,0585_cop_dnn_c10_bottle_10_n03983396_4227.png,n03983396_4227.png,1.0,4.3767977,0.11599052,3.0128455
convnext_large,1,586,NaN,bottle,bottle,c30,0586_cop_dnn_c30_bottle_10_n03983396_9090.png,n03983396_9090.png,1.0,2.8936844,0.6962802,1.5537994
convnext_large,1,587,NaN,bear,bear,c100,0587_cop_dnn_c100_bear_10_n02133161_223.png,n02133161_223.png,1.0,4.398567,0.2795147,2.91261
convnext_large,1,588,NaN,keyboard,keyboard,c50,0588_cop_dnn_c50_keyboard_10_n04505470_1047.png,n04505470_1047.png,1.0,4.9649224,0.38829517,3.2361643
convnext_large,1,589,NaN,elephant,elephant,c03,0589_cop_dnn_c03_elephant_10_n02504013_7467.png,n02504013_7467.png,1.0,6.0239835,0.6292684,3.8146398
convnext_large,1,590,NaN,elephant,elephant,c30,0590_cop_dnn_c30_elephant_10_n02504013_476.png,n02504013_476.png,1.0,6.248033,0.3222443,4.1901655
convnext_large,1,591,NaN,chair,chair,c100,0591_cop_dnn_c100_chair_10_n02791124_12707.png,n02791124_12707.png,1.0,2.8569307,0.1850582,1.8892993
convnext_large,1,592,NaN,bird,bird,c01,0592_cop_dnn_c01_bird_10_n01537544_22049.png,n01537544_22049.png,1.0,2.4712439,1.444375,0.7261059
convnext_large,1,593,NaN,bicycle,bicycle,c05,0593_cop_dnn_c05_bicycle_10_n02835271_4220.png,n02835271_4220.png,1.0,6.039572,0.3070174,4.0535283
convnext_large,1,594,NaN,truck,truck,c10,0594_cop_dnn_c10_truck_10_n03417042_7530.png,n03417042_7530.png,1.0,1.6481004,0.399979,0.8825551
convnext_large,1,595,NaN,bear,bear,c03,0595_cop_dnn_c03_bear_10_n02134418_12457.png,n02134418_12457.png,1.0,3.0300376,0.39781296,1.8612639
convnext_large,1,596,NaN,bottle,bottle,c50,0596_cop_dnn_c50_bottle_10_n04557648_10265.png,n04557648_10265.png,1.0,3.0021212,0.636178,1.6729745
convnext_large,1,597,NaN,clock,clock,c15,0597_cop_dnn_c15_clock_10_n02708093_2025.png,n02708093_2025.png,1.0,5.2013335,0.37193778,3.4148986
convnext_large,1,598,NaN,chair,chair,c15,0598_cop_dnn_c15_chair_10_n03376595_1961.png,n03376595_1961.png,1.0,2.4533002,0.5057327,1.3771381
convnext_large,1,599,NaN,bear,bear,c05,0599_cop_dnn_c05_bear_10_n02134084_67.png,n02134084_67.png,1.0,3.2608147,0.40708402,2.0178924
convnext_large,1,600,NaN,cat,cat,c50,0600_cop_dnn_c50_cat_10_n02123045_455.png,n02123045_455.png,1.0,4.042092,0.60431755,2.4308734
convnext_large,1,601,NaN,car,car,c10,0601_cop_dnn_c10_car_10_n03100240_13929.png,n03100240_13929.png,1.0,5.035058,3.0659523,1.3923681
convnext_large,1,602,NaN,elephant,elephant,c10,0602_cop_dnn_c10_elephant_10_n02504458_4997.png,n02504458_4997.png,1.0,7.005453,0.36617723,4.6946774
convnext_large,1,603,NaN,airplane,airplane,c10,0603_cop_dnn_c10_airplane_10_n02690373_5344.png,n02690373_5344.png,1.0,8.291637,0.41340813,5.5707493
convnext_large,1,604,NaN,airplane,oven,c01,0604_cop_dnn_c01_oven_10_n04111531_797.png,n04111531_797.png,0.0,-0.7817465,1.4913175,-1.6072991
convnext_large,1,605,NaN,boat,boat,c30,0605_cop_dnn_c30_boat_10_n04273569_3085.png,n04273569_3085.png,1.0,2.8535683,0.36584258,1.7590878
convnext_large,1,606,NaN,oven,oven,c100,0606_cop_dnn_c100_oven_10_n04111531_9113.png,n04111531_9113.png,1.0,8.598597,0.36179534,5.824298
convnext_large,1,607,NaN,boat,boat,c03,0607_cop_dnn_c03_boat_10_n03662601_18803.png,n03662601_18803.png,1.0,4.3032627,0.18896247,2.9092495
convnext_large,1,608,NaN,truck,truck,c03,0608_cop_dnn_c03_truck_10_n04467665_30581.png,n04467665_30581.png,1.0,3.384509,1.5128709,1.3234481
convnext_large,1,609,NaN,elephant,elephant,c30,0609_cop_dnn_c30_elephant_10_n02504013_5237.png,n02504013_5237.png,1.0,6.37067,0.27838713,4.3078947
convnext_large,1,610,NaN,keyboard,keyboard,c100,0610_cop_dnn_c100_keyboard_10_n03085013_12175.png,n03085013_12175.png,1.0,6.8938627,0.6794269,4.3942695
convnext_large,1,611,NaN,chair,chair,c30,0611_cop_dnn_c30_chair_10_n02791124_5401.png,n02791124_5401.png,1.0,3.2258968,0.24504788,2.1077785
convnext_large,1,612,NaN,boat,boat,c50,0612_cop_dnn_c50_boat_10_n02951358_22332.png,n02951358_22332.png,1.0,2.058704,0.3346111,1.2191178
convnext_large,1,613,NaN,knife,knife,c03,0613_cop_dnn_c03_knife_10_n03041632_11932.png,n03041632_11932.png,1.0,7.9772024,0.33523092,5.40369
convnext_large,1,614,NaN,cat,cat,c30,0614_cop_dnn_c30_cat_10_n02123159_5257.png,n02123159_5257.png,1.0,4.250818,0.41483676,2.7124481
convnext_large,1,615,NaN,bottle,bottle,c50,0615_cop_dnn_c50_bottle_10_n03983396_105.png,n03983396_105.png,1.0,3.858465,0.36815572,2.4680214
convnext_large,1,616,NaN,boat,boat,c50,0616_cop_dnn_c50_boat_10_n04612504_11939.png,n04612504_11939.png,1.0,2.4231353,0.23785298,1.5452279
convnext_large,1,617,NaN,boat,boat,c30,0617_cop_dnn_c30_boat_10_n03662601_5575.png,n03662601_5575.png,1.0,3.6479683,0.2365352,2.4122474
convnext_large,1,618,NaN,cat,cat,c05,0618_cop_dnn_c05_cat_10_n02123159_6590.png,n02123159_6590.png,1.0,4.400495,0.660424,2.6446297
convnext_large,1,619,NaN,bear,bear,c50,0619_cop_dnn_c50_bear_10_n02134084_21462.png,n02134084_21462.png,1.0,2.7157273,0.464889,1.591583
convnext_large,1,620,NaN,cat,cat,c05,0620_cop_dnn_c05_cat_10_n02125311_46330.png,n02125311_46330.png,1.0,1.9151741,0.6222905,0.9142068
convnext_large,1,621,NaN,cat,cat,c01,0621_cop_dnn_c01_cat_10_n02123394_4714.png,n02123394_4714.png,1.0,1.5315677,0.5309015,0.7075778
convnext_large,1,622,NaN,knife,knife,c30,0622_cop_dnn_c30_knife_10_n03041632_1671.png,n03041632_1671.png,1.0,7.9181924,1.3651799,4.6336794
convnext_large,1,623,NaN,truck,truck,c50,0623_cop_dnn_c50_truck_10_n04467665_30901.png,n04467665_30901.png,1.0,1.949038,1.4543911,0.3497682
convnext_large,1,624,NaN,bicycle,dog,c100,0624_cop_dnn_c100_dog_10_n02104029_4704.png,n02104029_4704.png,0.0,0.11465333,0.47675678,-0.25604582
convnext_large,1,625,NaN,keyboard,keyboard,c15,0625_cop_dnn_c15_keyboard_10_n03085013_3665.png,n03085013_3665.png,1.0,7.2233706,0.35094595,4.859538
convnext_large,1,626,NaN,elephant,bird,c01,0626_cop_dnn_c01_bird_10_n01820546_1616.png,n01820546_1616.png,0.0,1.1907756,2.3619843,-0.8281696
convnext_large,1,627,NaN,keyboard,keyboard,c30,0627_cop_dnn_c30_keyboard_10_n04505470_8754.png,n04505470_8754.png,1.0,4.824015,0.8303069,2.8239782
convnext_large,1,628,NaN,oven,oven,c05,0628_cop_dnn_c05_oven_10_n04111531_8688.png,n04111531_8688.png,1.0,8.5588045,0.90747166,5.4103093
convnext_large,1,629,NaN,oven,oven,c10,0629_cop_dnn_c10_oven_10_n04111531_13862.png,n04111531_13862.png,1.0,7.9108753,0.13969201,5.4950566
convnext_large,1,630,NaN,truck,truck,c03,0630_cop_dnn_c03_truck_10_n04467665_9266.png,n04467665_9266.png,1.0,2.1273508,0.830509,0.9170057
convnext_large,1,631,NaN,chair,chair,c30,0631_cop_dnn_c30_chair_10_n03376595_1024.png,n03376595_1024.png,1.0,2.7612436,0.16948465,1.8326504
convnext_large,1,632,NaN,bottle,bottle,c30,0632_cop_dnn_c30_bottle_10_n02823428_4468.png,n02823428_4468.png,1.0,2.5560968,0.26593196,1.6193912
convnext_large,1,633,NaN,truck,truck,c15,0633_cop_dnn_c15_truck_10_n03796401_4154.png,n03796401_4154.png,1.0,2.912963,0.67116237,1.5851924
convnext_large,1,634,NaN,clock,dog,c50,0634_cop_dnn_c50_dog_10_n02087046_4421.png,n02087046_4421.png,0.0,0.1371038,0.44667086,-0.21889697
convnext_large,1,635,NaN,car,car,c05,0635_cop_dnn_c05_car_10_n03100240_9011.png,n03100240_9011.png,1.0,6.5289955,0.63507247,4.167633
convnext_large,1,636,NaN,elephant,bird,c15,0636_cop_dnn_c15_bird_10_n02011460_2417.png,n02011460_2417.png,0.0,-0.048463125,2.2134733,-1.5994306
convnext_large,1,637,NaN,bottle,bottle,c100,0637_cop_dnn_c100_bottle_10_n04557648_988.png,n04557648_988.png,1.0,3.0190308,0.77106,1.5895554
convnext_large,1,638,NaN,cat,cat,c05,0638_cop_dnn_c05_cat_10_n02123159_5205.png,n02123159_5205.png,1.0,4.741649,1.1466755,2.5420303
convnext_large,1,639,NaN,oven,oven,c15,0639_cop_dnn_c15_oven_10_n04111531_23215.png,n04111531_23215.png,1.0,7.720192,1.870787,4.1361537
convnext_large,1,640,NaN,truck,truck,c05,0640_cop_dnn_c05_truck_10_n03796401_20641.png,n03796401_20641.png,1.0,2.68081,0.9917938,1.1943147
convnext_large,1,641,NaN,boat,boat,c15,0641_cop_dnn_c15_boat_10_n03662601_16412.png,n03662601_16412.png,1.0,2.3943586,1.0101022,0.97881716
convnext_large,1,642,NaN,airplane,airplane,c15,0642_cop_dnn_c15_airplane_10_n02690373_1952.png,n02690373_1952.png,1.0,8.841286,0.302494,6.0378375
convnext_large,1,643,NaN,boat,dog,c05,0643_cop_dnn_c05_dog_10_n02086079_37199.png,n02086079_37199.png,0.0,0.061531242,0.42215332,-0.25499833
convnext_large,1,644,NaN,airplane,airplane,c10,0644_cop_dnn_c10_airplane_10_n02690373_4375.png,n02690373_4375.png,1.0,8.462639,0.39168644,5.707025
convnext_large,1,645,NaN,airplane,bird,c15,0645_cop_dnn_c15_bird_10_n01592084_4764.png,n01592084_4764.png,0.0,0.3205269,0.70288944,-0.27037114
convnext_large,1,646,NaN,knife,knife,c30,0646_cop_dnn_c30_knife_10_n03041632_44269.png,n03041632_44269.png,1.0,8.840962,0.6250487,5.8095284
convnext_large,1,647,NaN,elephant,elephant,c30,0647_cop_dnn_c30_elephant_10_n02504013_1258.png,n02504013_1258.png,1.0,5.8432264,0.24096933,3.961394
convnext_large,1,648,NaN,airplane,airplane,c30,0648_cop_dnn_c30_airplane_10_n02690373_6138.png,n02690373_6138.png,1.0,8.161517,0.35840532,5.5176334
convnext_large,1,649,NaN,chair,chair,c03,0649_cop_dnn_c03_chair_10_n04099969_9713.png,n04099969_9713.png,1.0,3.60489,0.778601,1.9984883
convnext_large,1,650,NaN,bicycle,bicycle,c01,0650_cop_dnn_c01_bicycle_10_n02835271_8212.png,n02835271_8212.png,1.0,5.016379,0.8184176,2.968407
convnext_large,1,651,NaN,keyboard,keyboard,c50,0651_cop_dnn_c50_keyboard_10_n03085013_14279.png,n03085013_14279.png,1.0,7.3446217,0.8682544,4.579483
convnext_large,1,652,NaN,bottle,bottle,c01,0652_cop_dnn_c01_bottle_10_n04591713_5364.png,n04591713_5364.png,1.0,3.360551,0.9127159,1.7308809
convnext_large,1,653,NaN,cat,bird,c15,0653_cop_dnn_c15_bird_10_n01819313_4045.png,n01819313_4045.png,0.0,0.2250056,0.34647045,-0.08588862
convnext_large,1,654,NaN,bird,bird,c10,0654_cop_dnn_c10_bird_10_n02009229_263.png,n02009229_263.png,1.0,0.84499186,0.21511053,0.44539335
convnext_large,1,655,NaN,cat,cat,c30,0655_cop_dnn_c30_cat_10_n02123394_2285.png,n02123394_2285.png,1.0,2.933647,0.48567152,1.73098
convnext_large,1,656,NaN,clock,clock,c05,0656_cop_dnn_c05_clock_10_n04548280_2559.png,n04548280_2559.png,1.0,3.9996493,0.042272817,2.7982879
convnext_large,1,657,NaN,elephant,elephant,c01,0657_cop_dnn_c01_elephant_10_n02504458_4137.png,n02504458_4137.png,1.0,3.117978,2.0067804,0.7857354
convnext_large,1,658,NaN,knife,knife,c01,0658_cop_dnn_c01_knife_10_n03041632_206.png,n03041632_206.png,1.0,6.989095,1.974636,3.545758
convnext_large,1,659,NaN,truck,truck,c10,0659_cop_dnn_c10_truck_10_n03417042_5604.png,n03417042_5604.png,1.0,1.8344615,0.46026036,0.9717069
convnext_large,1,660,NaN,bottle,bottle,c15,0660_cop_dnn_c15_bottle_10_n03983396_1629.png,n03983396_1629.png,1.0,2.2371469,0.61184216,1.149264
convnext_large,1,661,NaN,keyboard,keyboard,c10,0661_cop_dnn_c10_keyboard_10_n03085013_16359.png,n03085013_16359.png,1.0,4.2301674,0.42692342,2.6892996
convnext_large,1,662,NaN,oven,oven,c15,0662_cop_dnn_c15_oven_10_n04111531_8305.png,n04111531_8305.png,1.0,8.274357,0.71855575,5.342758
convnext_large,1,663,NaN,truck,truck,c03,0663_cop_dnn_c03_truck_10_n04467665_276.png,n04467665_276.png,1.0,2.7950706,0.19509703,1.838459
convnext_large,1,664,NaN,car,car,c03,0664_cop_dnn_c03_car_10_n04285008_7950.png,n04285008_7950.png,1.0,5.7906556,0.25331396,3.9154918
convnext_large,1,665,NaN,cat,dog,c30,0665_cop_dnn_c30_dog_10_n02108422_293.png,n02108422_293.png,0.0,0.33177722,0.40364358,-0.050817195
convnext_large,1,666,NaN,bear,bear,c15,0666_cop_dnn_c15_bear_10_n02132136_2451.png,n02132136_2451.png,1.0,4.9123735,0.33826903,3.2343802
convnext_large,1,667,NaN,car,car,c30,0667_cop_dnn_c30_car_10_n03100240_17245.png,n03100240_17245.png,1.0,5.6973267,0.32247075,3.8005972
convnext_large,1,668,NaN,knife,knife,c05,0668_cop_dnn_c05_knife_10_n03041632_29886.png,n03041632_29886.png,1.0,4.258685,0.43109167,2.7065172
convnext_large,1,669,NaN,truck,truck,c50,0669_cop_dnn_c50_truck_10_n03417042_3952.png,n03417042_3952.png,1.0,1.066002,0.76310253,0.21418227
convnext_large,1,670,NaN,truck,truck,c01,0670_cop_dnn_c01_truck_10_n03417042_17645.png,n03417042_17645.png,1.0,2.0766757,1.3039162,0.54642344
convnext_large,1,671,NaN,oven,oven,c100,0671_cop_dnn_c100_oven_10_n04111531_23264.png,n04111531_23264.png,1.0,8.976386,0.42436367,6.047193
convnext_large,1,672,NaN,elephant,elephant,c50,0672_cop_dnn_c50_elephant_10_n02504458_4580.png,n02504458_4580.png,1.0,6.990907,0.45291528,4.623059
convnext_large,1,673,NaN,cat,cat,c01,0673_cop_dnn_c01_cat_10_n02123597_8052.png,n02123597_8052.png,1.0,2.565176,0.7558037,1.2794194
convnext_large,1,674,NaN,bear,bear,c100,0674_cop_dnn_c100_bear_10_n02134418_1218.png,n02134418_1218.png,1.0,4.2969217,0.31775457,2.8136961
convnext_large,1,675,NaN,boat,boat,c01,0675_cop_dnn_c01_boat_10_n04273569_661.png,n04273569_661.png,1.0,3.4781373,1.0144453,1.7420933
convnext_large,1,676,NaN,airplane,airplane,c01,0676_cop_dnn_c01_airplane_10_n02690373_5266.png,n02690373_5266.png,1.0,2.452021,2.0682278,0.27138272
convnext_large,1,677,NaN,keyboard,keyboard,c15,0677_cop_dnn_c15_keyboard_10_n04505470_4761.png,n04505470_4761.png,1.0,6.0947604,1.4352634,3.2947621
convnext_large,1,678,NaN,oven,oven,c10,0678_cop_dnn_c10_oven_10_n04111531_14279.png,n04111531_14279.png,1.0,9.3820505,0.3448586,6.39026
convnext_large,1,679,NaN,clock,clock,c50,0679_cop_dnn_c50_clock_10_n03196217_3006.png,n03196217_3006.png,1.0,4.6171575,0.98932767,2.565263
convnext_large,1,680,NaN,elephant,elephant,c15,0680_cop_dnn_c15_elephant_10_n02504458_2607.png,n02504458_2607.png,1.0,6.8767223,0.26371974,4.6760993
convnext_large,1,681,NaN,truck,truck,c100,0681_cop_dnn_c100_truck_10_n03417042_3338.png,n03417042_3338.png,1.0,1.2065066,0.2488232,0.67718446
convnext_large,1,682,NaN,car,car,c30,0682_cop_dnn_c30_car_10_n02814533_5183.png,n02814533_5183.png,1.0,3.761387,0.88392735,2.0346713
convnext_large,1,683,NaN,truck,truck,c100,0683_cop_dnn_c100_truck_10_n03417042_7365.png,n03417042_7365.png,1.0,2.3409007,1.0195936,0.9343052
convnext_large,1,684,NaN,knife,knife,c100,0684_cop_dnn_c100_knife_10_n03041632_29037.png,n03041632_29037.png,1.0,8.027155,0.32289556,5.4477344
convnext_large,1,685,NaN,car,car,c15,0685_cop_dnn_c15_car_10_n03100240_10096.png,n03100240_10096.png,1.0,6.00618,0.0724864,4.195755
convnext_large,1,686,NaN,keyboard,keyboard,c05,0686_cop_dnn_c05_keyboard_10_n04505470_1929.png,n04505470_1929.png,1.0,5.4797688,0.6256667,3.4323685
convnext_large,1,687,NaN,chair,chair,c01,0687_cop_dnn_c01_chair_10_n04099969_10266.png,n04099969_10266.png,1.0,3.2228441,0.65275526,1.8173273
convnext_large,1,688,NaN,car,car,c01,0688_cop_dnn_c01_car_10_n02814533_83665.png,n02814533_83665.png,1.0,4.6004415,0.71419156,2.7479937
convnext_large,1,689,NaN,truck,truck,c03,0689_cop_dnn_c03_truck_10_n03417042_751.png,n03417042_751.png,1.0,2.9055922,0.97365314,1.3660873
convnext_large,1,690,NaN,keyboard,keyboard,c05,0690_cop_dnn_c05_keyboard_10_n03085013_2227.png,n03085013_2227.png,1.0,5.965438,0.5292166,3.843989
convnext_large,1,691,NaN,car,car,c50,0691_cop_dnn_c50_car_10_n03100240_2528.png,n03100240_2528.png,1.0,5.588875,0.40415716,3.6661491
convnext_large,1,692,NaN,bottle,bottle,c50,0692_cop_dnn_c50_bottle_10_n03937543_8197.png,n03937543_8197.png,1.0,1.6846733,0.5265218,0.8189368
convnext_large,1,693,NaN,boat,boat,c30,0693_cop_dnn_c30_boat_10_n04273569_10099.png,n04273569_10099.png,1.0,2.6397274,0.6357568,1.4170213
convnext_large,1,694,NaN,knife,knife,c03,0694_cop_dnn_c03_knife_10_n03041632_25479.png,n03041632_25479.png,1.0,7.4462795,0.97362834,4.5768557
convnext_large,1,695,NaN,oven,oven,c03,0695_cop_dnn_c03_oven_10_n04111531_13795.png,n04111531_13795.png,1.0,8.301173,0.43617564,5.5613933
convnext_large,1,696,NaN,bear,bear,c05,0696_cop_dnn_c05_bear_10_n02132136_22835.png,n02132136_22835.png,1.0,5.6116962,0.9443624,3.3003032
convnext_large,1,697,NaN,boat,dog,c15,0697_cop_dnn_c15_dog_10_n02090379_4952.png,n02090379_4952.png,0.0,0.2948392,0.34473324,-0.03528041
convnext_large,1,698,NaN,boat,boat,c03,0698_cop_dnn_c03_boat_10_n02951358_29817.png,n02951358_29817.png,1.0,2.8580785,0.98911786,1.3215548
convnext_large,1,699,NaN,airplane,airplane,c10,0699_cop_dnn_c10_airplane_10_n02690373_4115.png,n02690373_4115.png,1.0,8.449348,0.42358163,5.675074
convnext_large,1,700,NaN,car,car,c100,0700_cop_dnn_c100_car_10_n03100240_13707.png,n03100240_13707.png,1.0,5.5296435,0.5069362,3.5515907
convnext_large,1,701,NaN,keyboard,keyboard,c50,0701_cop_dnn_c50_keyboard_10_n04505470_3117.png,n04505470_3117.png,1.0,5.4093895,0.6642053,3.3553517
convnext_large,1,702,NaN,truck,truck,c15,0702_cop_dnn_c15_truck_10_n04467665_66065.png,n04467665_66065.png,1.0,1.8465947,0.48705834,0.96133745
convnext_large,1,703,NaN,keyboard,keyboard,c10,0703_cop_dnn_c10_keyboard_10_n03085013_8325.png,n03085013_8325.png,1.0,6.822983,0.56457573,4.425362
convnext_large,1,704,NaN,truck,truck,c03,0704_cop_dnn_c03_truck_10_n04467665_52595.png,n04467665_52595.png,1.0,1.9945016,1.0316737,0.68082213
convnext_large,1,705,NaN,bicycle,bicycle,c100,0705_cop_dnn_c100_bicycle_10_n03792782_15557.png,n03792782_15557.png,1.0,7.8252625,2.1210194,4.0335093
convnext_large,1,706,NaN,knife,knife,c05,0706_cop_dnn_c05_knife_10_n03041632_34676.png,n03041632_34676.png,1.0,7.9644036,0.55881625,5.236541
convnext_large,1,707,NaN,airplane,airplane,c05,0707_cop_dnn_c05_airplane_10_n02690373_5729.png,n02690373_5729.png,1.0,8.600238,0.45533085,5.7593193
