subj,session,trial,rt,object_response,category,condition,imagename,filename,is_correct,targ_act,max_nontarg_act,decision_margin
alexnet_w1_mlp_simclrhn_probe3,1,1,NaN,clock,knife,c30,0001_cop_dnn_c30_knife_10_n03041632_7380.png,n03041632_7380.png,0.0,0.7525462,1.2128028,-0.32545054
alexnet_w1_mlp_simclrhn_probe3,1,2,NaN,bicycle,bicycle,c100,0002_cop_dnn_c100_bicycle_10_n03792782_5966.png,n03792782_5966.png,1.0,4.830529,2.5799193,1.5914215
alexnet_w1_mlp_simclrhn_probe3,1,3,NaN,knife,bird,c01,0003_cop_dnn_c01_bird_10_n01601694_10802.png,n01601694_10802.png,0.0,-0.04906103,0.2810589,-0.23343006
alexnet_w1_mlp_simclrhn_probe3,1,4,NaN,airplane,airplane,c05,0004_cop_dnn_c05_airplane_10_n02690373_9759.png,n02690373_9759.png,1.0,0.8780348,0.30989006,0.40173897
alexnet_w1_mlp_simclrhn_probe3,1,5,NaN,knife,car,c03,0005_cop_dnn_c03_car_10_n02814533_2236.png,n02814533_2236.png,0.0,-0.22733523,0.45581716,-0.4830617
alexnet_w1_mlp_simclrhn_probe3,1,6,NaN,chair,chair,c30,0006_cop_dnn_c30_chair_10_n02791124_7207.png,n02791124_7207.png,1.0,0.87858063,0.37884006,0.35336995
alexnet_w1_mlp_simclrhn_probe3,1,7,NaN,keyboard,oven,c50,0007_cop_dnn_c50_oven_10_n04111531_7064.png,n04111531_7064.png,0.0,0.6617436,1.404294,-0.52506244
alexnet_w1_mlp_simclrhn_probe3,1,8,NaN,oven,bird,c15,0008_cop_dnn_c15_bird_10_n01532829_2263.png,n01532829_2263.png,0.0,0.12163737,0.21107851,-0.06324444
alexnet_w1_mlp_simclrhn_probe3,1,9,NaN,bicycle,bicycle,c50,0009_cop_dnn_c50_bicycle_10_n02835271_3383.png,n02835271_3383.png,1.0,7.3755693,1.3087041,4.2899213
alexnet_w1_mlp_simclrhn_probe3,1,10,NaN,knife,bicycle,c03,0010_cop_dnn_c03_bicycle_10_n03792782_27510.png,n03792782_27510.png,0.0,-0.25200334,0.27663234,-0.3738019
alexnet_w1_mlp_simclrhn_probe3,1,11,NaN,knife,bottle,c03,0011_cop_dnn_c03_bottle_10_n04557648_10944.png,n04557648_10944.png,0.0,0.22802112,0.5174314,-0.20464396
alexnet_w1_mlp_simclrhn_probe3,1,12,NaN,keyboard,keyboard,c15,0012_cop_dnn_c15_keyboard_10_n03085013_20891.png,n03085013_20891.png,1.0,0.6002585,0.5314486,0.04865597
alexnet_w1_mlp_simclrhn_probe3,1,13,NaN,elephant,elephant,c30,0013_cop_dnn_c30_elephant_10_n02504458_3225.png,n02504458_3225.png,1.0,4.352072,1.5519444,1.9799892
alexnet_w1_mlp_simclrhn_probe3,1,14,NaN,keyboard,keyboard,c10,0014_cop_dnn_c10_keyboard_10_n04505470_6638.png,n04505470_6638.png,1.0,1.461885,0.4818151,0.6930141
alexnet_w1_mlp_simclrhn_probe3,1,15,NaN,knife,bird,c01,0015_cop_dnn_c01_bird_10_n01601694_11888.png,n01601694_11888.png,0.0,-0.057679813,0.25660965,-0.2222362
alexnet_w1_mlp_simclrhn_probe3,1,16,NaN,airplane,airplane,c03,0016_cop_dnn_c03_airplane_10_n02690373_8743.png,n02690373_8743.png,1.0,0.4928748,0.32793853,0.11662756
alexnet_w1_mlp_simclrhn_probe3,1,17,NaN,boat,boat,c10,0017_cop_dnn_c10_boat_10_n03344393_8869.png,n03344393_8869.png,1.0,0.77649844,0.4763446,0.21224083
alexnet_w1_mlp_simclrhn_probe3,1,18,NaN,knife,bear,c01,0018_cop_dnn_c01_bear_10_n02132136_27682.png,n02132136_27682.png,0.0,-0.072286665,0.29289973,-0.25822577
alexnet_w1_mlp_simclrhn_probe3,1,19,NaN,clock,clock,c50,0019_cop_dnn_c50_clock_10_n02708093_7081.png,n02708093_7081.png,1.0,0.15905613,0.006772894,0.107680514
alexnet_w1_mlp_simclrhn_probe3,1,20,NaN,car,car,c10,0020_cop_dnn_c10_car_10_n03100240_12141.png,n03100240_12141.png,1.0,0.6199762,0.4210325,0.14067447
alexnet_w1_mlp_simclrhn_probe3,1,21,NaN,airplane,car,c15,0021_cop_dnn_c15_car_10_n02814533_19287.png,n02814533_19287.png,0.0,0.17857681,1.184819,-0.7115207
alexnet_w1_mlp_simclrhn_probe3,1,22,NaN,bicycle,bicycle,c03,0022_cop_dnn_c03_bicycle_10_n02835271_3841.png,n02835271_3841.png,1.0,0.5381205,0.28527227,0.1787907
alexnet_w1_mlp_simclrhn_probe3,1,23,NaN,clock,clock,c15,0023_cop_dnn_c15_clock_10_n02708093_6696.png,n02708093_6696.png,1.0,1.7447811,0.33090723,0.99975985
alexnet_w1_mlp_simclrhn_probe3,1,24,NaN,knife,bird,c01,0024_cop_dnn_c01_bird_10_n01829413_6393.png,n01829413_6393.png,0.0,-0.07031411,0.33251607,-0.28484395
alexnet_w1_mlp_simclrhn_probe3,1,25,NaN,clock,clock,c01,0025_cop_dnn_c01_clock_10_n02708093_3484.png,n02708093_3484.png,1.0,0.32631767,0.2890325,0.026364604
alexnet_w1_mlp_simclrhn_probe3,1,26,NaN,bottle,chair,c05,0026_cop_dnn_c05_chair_10_n04429376_55163.png,n04429376_55163.png,0.0,0.44936317,0.5376029,-0.062394913
alexnet_w1_mlp_simclrhn_probe3,1,27,NaN,boat,boat,c100,0027_cop_dnn_c100_boat_10_n02951358_14528.png,n02951358_14528.png,1.0,1.9523945,1.3056808,0.4572957
alexnet_w1_mlp_simclrhn_probe3,1,28,NaN,knife,chair,c01,0028_cop_dnn_c01_chair_10_n03376595_9603.png,n03376595_9603.png,0.0,-0.0034977943,0.3726563,-0.2659811
alexnet_w1_mlp_simclrhn_probe3,1,29,NaN,knife,bottle,c03,0029_cop_dnn_c03_bottle_10_n03937543_1840.png,n03937543_1840.png,0.0,0.10607071,0.37436134,-0.18971014
alexnet_w1_mlp_simclrhn_probe3,1,30,NaN,knife,car,c01,0030_cop_dnn_c01_car_10_n02814533_32835.png,n02814533_32835.png,0.0,-0.32075933,0.46554938,-0.5560042
alexnet_w1_mlp_simclrhn_probe3,1,31,NaN,bear,bird,c15,0031_cop_dnn_c15_bird_10_n01860187_38598.png,n01860187_38598.png,0.0,0.19959296,0.20183656,-0.00158646
alexnet_w1_mlp_simclrhn_probe3,1,32,NaN,airplane,airplane,c100,0032_cop_dnn_c100_airplane_10_n02690373_9322.png,n02690373_9322.png,1.0,8.589816,5.279163,2.3409853
alexnet_w1_mlp_simclrhn_probe3,1,33,NaN,knife,bicycle,c01,0033_cop_dnn_c01_bicycle_10_n02835271_1505.png,n02835271_1505.png,0.0,-0.2619363,0.32798302,-0.41713595
alexnet_w1_mlp_simclrhn_probe3,1,34,NaN,airplane,bicycle,c50,0034_cop_dnn_c50_bicycle_10_n03792782_11023.png,n03792782_11023.png,0.0,1.0027043,1.3309801,-0.23212604
alexnet_w1_mlp_simclrhn_probe3,1,35,NaN,elephant,elephant,c50,0035_cop_dnn_c50_elephant_10_n02504458_4909.png,n02504458_4909.png,1.0,7.316654,1.3462722,4.2216973
alexnet_w1_mlp_simclrhn_probe3,1,36,NaN,boat,boat,c100,0036_cop_dnn_c100_boat_10_n03344393_646.png,n03344393_646.png,1.0,7.890869,3.014492,3.4481194
alexnet_w1_mlp_simclrhn_probe3,1,37,NaN,boat,boat,c10,0037_cop_dnn_c10_boat_10_n04612504_2472.png,n04612504_2472.png,1.0,2.4562972,0.8628893,1.1267096
alexnet_w1_mlp_simclrhn_probe3,1,38,NaN,knife,keyboard,c03,0038_cop_dnn_c03_keyboard_10_n03085013_4673.png,n03085013_4673.png,0.0,0.23893256,0.49767208,-0.18295649
alexnet_w1_mlp_simclrhn_probe3,1,39,NaN,elephant,elephant,c100,0039_cop_dnn_c100_elephant_10_n02504458_1138.png,n02504458_1138.png,1.0,9.011597,3.7557137,3.7164707
alexnet_w1_mlp_simclrhn_probe3,1,40,NaN,car,car,c100,0040_cop_dnn_c100_car_10_n03100240_5569.png,n03100240_5569.png,1.0,4.930317,1.9277451,2.123139
alexnet_w1_mlp_simclrhn_probe3,1,41,NaN,dog,dog,c100,0041_cop_dnn_c100_dog_10_n02107312_7422.png,n02107312_7422.png,1.0,1.1934578,0.86978227,0.2288732
alexnet_w1_mlp_simclrhn_probe3,1,42,NaN,bear,bear,c15,0042_cop_dnn_c15_bear_10_n02134084_24140.png,n02134084_24140.png,1.0,0.5153845,0.4800321,0.02499793
alexnet_w1_mlp_simclrhn_probe3,1,43,NaN,bottle,bottle,c100,0043_cop_dnn_c100_bottle_10_n04560804_14130.png,n04560804_14130.png,1.0,4.764849,3.867,0.6348752
alexnet_w1_mlp_simclrhn_probe3,1,44,NaN,cat,cat,c30,0044_cop_dnn_c30_cat_10_n02124075_11970.png,n02124075_11970.png,1.0,2.6510208,0.3069843,1.6574842
alexnet_w1_mlp_simclrhn_probe3,1,45,NaN,knife,dog,c03,0045_cop_dnn_c03_dog_10_n02093991_247.png,n02093991_247.png,0.0,-0.038426995,0.28187695,-0.2264891
alexnet_w1_mlp_simclrhn_probe3,1,46,NaN,keyboard,keyboard,c100,0046_cop_dnn_c100_keyboard_10_n04505470_375.png,n04505470_375.png,1.0,11.656537,1.0129075,7.5261827
alexnet_w1_mlp_simclrhn_probe3,1,47,NaN,bear,bear,c100,0047_cop_dnn_c100_bear_10_n02134418_4372.png,n02134418_4372.png,1.0,4.607938,0.6514696,2.7976456
alexnet_w1_mlp_simclrhn_probe3,1,48,NaN,knife,boat,c01,0048_cop_dnn_c01_boat_10_n03344393_2838.png,n03344393_2838.png,0.0,-0.12955637,0.3878973,-0.365895
alexnet_w1_mlp_simclrhn_probe3,1,49,NaN,oven,bicycle,c05,0049_cop_dnn_c05_bicycle_10_n02835271_4935.png,n02835271_4935.png,0.0,-0.19343,0.32695282,-0.36796623
alexnet_w1_mlp_simclrhn_probe3,1,50,NaN,airplane,airplane,c50,0050_cop_dnn_c50_airplane_10_n02690373_5382.png,n02690373_5382.png,1.0,4.657058,0.73140323,2.775857
alexnet_w1_mlp_simclrhn_probe3,1,51,NaN,knife,bottle,c100,0051_cop_dnn_c100_bottle_10_n03937543_2123.png,n03937543_2123.png,0.0,0.4479548,1.3502536,-0.6380216
alexnet_w1_mlp_simclrhn_probe3,1,52,NaN,dog,dog,c30,0052_cop_dnn_c30_dog_10_n02097474_5234.png,n02097474_5234.png,1.0,0.69443077,0.67364347,0.01469884
alexnet_w1_mlp_simclrhn_probe3,1,53,NaN,keyboard,bottle,c100,0053_cop_dnn_c100_bottle_10_n02823428_6050.png,n02823428_6050.png,0.0,1.2042129,4.2527447,-2.1556375
alexnet_w1_mlp_simclrhn_probe3,1,54,NaN,bottle,clock,c15,0054_cop_dnn_c15_clock_10_n02708093_3743.png,n02708093_3743.png,0.0,0.3980467,0.4758504,-0.055015527
alexnet_w1_mlp_simclrhn_probe3,1,55,NaN,knife,knife,c03,0055_cop_dnn_c03_knife_10_n03041632_55083.png,n03041632_55083.png,1.0,0.47365642,0.21009849,0.1863636
alexnet_w1_mlp_simclrhn_probe3,1,56,NaN,knife,knife,c50,0056_cop_dnn_c50_knife_10_n03041632_41310.png,n03041632_41310.png,1.0,1.9857211,0.22845753,1.242573
alexnet_w1_mlp_simclrhn_probe3,1,57,NaN,knife,knife,c03,0057_cop_dnn_c03_knife_10_n03041632_99799.png,n03041632_99799.png,1.0,0.44990698,0.103945844,0.24463145
alexnet_w1_mlp_simclrhn_probe3,1,58,NaN,knife,dog,c15,0058_cop_dnn_c15_dog_10_n02094114_8231.png,n02094114_8231.png,0.0,-0.2525445,0.3839557,-0.4500736
alexnet_w1_mlp_simclrhn_probe3,1,59,NaN,knife,chair,c01,0059_cop_dnn_c01_chair_10_n03376595_6173.png,n03376595_6173.png,0.0,0.046017446,0.38158944,-0.23728524
alexnet_w1_mlp_simclrhn_probe3,1,60,NaN,knife,oven,c05,0060_cop_dnn_c05_oven_10_n04111531_9297.png,n04111531_9297.png,0.0,0.16745293,0.2293268,-0.043751433
alexnet_w1_mlp_simclrhn_probe3,1,61,NaN,knife,car,c10,0061_cop_dnn_c10_car_10_n03100240_24420.png,n03100240_24420.png,0.0,-0.0010020211,0.5706386,-0.40421095
alexnet_w1_mlp_simclrhn_probe3,1,62,NaN,elephant,elephant,c100,0062_cop_dnn_c100_elephant_10_n02504013_2340.png,n02504013_2340.png,1.0,24.931854,7.6294127,12.2346735
alexnet_w1_mlp_simclrhn_probe3,1,63,NaN,knife,bicycle,c05,0063_cop_dnn_c05_bicycle_10_n02835271_10104.png,n02835271_10104.png,0.0,-0.07569423,0.21728364,-0.20716664
alexnet_w1_mlp_simclrhn_probe3,1,64,NaN,knife,bicycle,c15,0064_cop_dnn_c15_bicycle_10_n03792782_7165.png,n03792782_7165.png,0.0,0.041109227,0.24159485,-0.14176475
alexnet_w1_mlp_simclrhn_probe3,1,65,NaN,knife,knife,c10,0065_cop_dnn_c10_knife_10_n03041632_14817.png,n03041632_14817.png,1.0,0.4727199,0.4166106,0.039675273
alexnet_w1_mlp_simclrhn_probe3,1,66,NaN,clock,clock,c15,0066_cop_dnn_c15_clock_10_n02708093_118.png,n02708093_118.png,1.0,1.0652442,0.44121706,0.4412538
alexnet_w1_mlp_simclrhn_probe3,1,67,NaN,airplane,airplane,c10,0067_cop_dnn_c10_airplane_10_n02690373_4298.png,n02690373_4298.png,1.0,1.9244467,0.3069387,1.1437509
alexnet_w1_mlp_simclrhn_probe3,1,68,NaN,knife,knife,c100,0068_cop_dnn_c100_knife_10_n03041632_50034.png,n03041632_50034.png,1.0,4.0688286,1.8525658,1.5671345
alexnet_w1_mlp_simclrhn_probe3,1,69,NaN,bottle,chair,c03,0069_cop_dnn_c03_chair_10_n02791124_1333.png,n02791124_1333.png,0.0,-0.070122115,0.3324232,-0.28464255
alexnet_w1_mlp_simclrhn_probe3,1,70,NaN,clock,clock,c01,0070_cop_dnn_c01_clock_10_n02708093_2318.png,n02708093_2318.png,1.0,0.60709476,0.31958407,0.20330076
alexnet_w1_mlp_simclrhn_probe3,1,71,NaN,knife,elephant,c01,0071_cop_dnn_c01_elephant_10_n02504013_3864.png,n02504013_3864.png,0.0,-0.16409603,0.34469846,-0.35977203
alexnet_w1_mlp_simclrhn_probe3,1,72,NaN,chair,chair,c10,0072_cop_dnn_c10_chair_10_n04429376_56624.png,n04429376_56624.png,1.0,0.51734954,0.3701788,0.10406544
alexnet_w1_mlp_simclrhn_probe3,1,73,NaN,airplane,airplane,c30,0073_cop_dnn_c30_airplane_10_n02690373_7004.png,n02690373_7004.png,1.0,2.4358344,0.79884994,1.1575228
alexnet_w1_mlp_simclrhn_probe3,1,74,NaN,oven,oven,c30,0074_cop_dnn_c30_oven_10_n04111531_9692.png,n04111531_9692.png,1.0,1.2032428,0.22358307,0.692724
alexnet_w1_mlp_simclrhn_probe3,1,75,NaN,truck,truck,c50,0075_cop_dnn_c50_truck_10_n03796401_296.png,n03796401_296.png,1.0,2.8249817,2.7010195,0.08765449
alexnet_w1_mlp_simclrhn_probe3,1,76,NaN,airplane,airplane,c15,0076_cop_dnn_c15_airplane_10_n02690373_1837.png,n02690373_1837.png,1.0,0.44361228,0.34610277,0.06894963
alexnet_w1_mlp_simclrhn_probe3,1,77,NaN,knife,airplane,c03,0077_cop_dnn_c03_airplane_10_n02690373_10203.png,n02690373_10203.png,0.0,0.15076429,0.24944699,-0.06977921
alexnet_w1_mlp_simclrhn_probe3,1,78,NaN,knife,boat,c03,0078_cop_dnn_c03_boat_10_n02951358_34234.png,n02951358_34234.png,0.0,-0.070103966,0.29564652,-0.25862464
alexnet_w1_mlp_simclrhn_probe3,1,79,NaN,bicycle,bicycle,c100,0079_cop_dnn_c100_bicycle_10_n02835271_2885.png,n02835271_2885.png,1.0,4.086913,1.1391529,2.084381
alexnet_w1_mlp_simclrhn_probe3,1,80,NaN,airplane,airplane,c30,0080_cop_dnn_c30_airplane_10_n02690373_5247.png,n02690373_5247.png,1.0,2.9215312,0.44927293,1.7481507
alexnet_w1_mlp_simclrhn_probe3,1,81,NaN,clock,clock,c50,0081_cop_dnn_c50_clock_10_n02708093_596.png,n02708093_596.png,1.0,4.468738,0.4860971,2.8161526
alexnet_w1_mlp_simclrhn_probe3,1,82,NaN,knife,chair,c01,0082_cop_dnn_c01_chair_10_n03376595_1364.png,n03376595_1364.png,0.0,0.009361908,0.39068943,-0.26963928
alexnet_w1_mlp_simclrhn_probe3,1,83,NaN,knife,cat,c03,0083_cop_dnn_c03_cat_10_n02124075_12430.png,n02124075_12430.png,0.0,-0.054623857,0.30566812,-0.25476488
alexnet_w1_mlp_simclrhn_probe3,1,84,NaN,knife,cat,c05,0084_cop_dnn_c05_cat_10_n02123159_5487.png,n02123159_5487.png,0.0,0.24880545,0.27237013,-0.016662747
alexnet_w1_mlp_simclrhn_probe3,1,85,NaN,bicycle,bicycle,c50,0085_cop_dnn_c50_bicycle_10_n03792782_17571.png,n03792782_17571.png,1.0,3.308614,0.7539743,1.8064032
alexnet_w1_mlp_simclrhn_probe3,1,86,NaN,cat,cat,c50,0086_cop_dnn_c50_cat_10_n02123159_6132.png,n02123159_6132.png,1.0,6.055374,0.71333706,3.7773907
alexnet_w1_mlp_simclrhn_probe3,1,87,NaN,knife,bottle,c05,0087_cop_dnn_c05_bottle_10_n03937543_2873.png,n03937543_2873.png,0.0,0.17239954,0.29301038,-0.08528475
alexnet_w1_mlp_simclrhn_probe3,1,88,NaN,bottle,keyboard,c15,0088_cop_dnn_c15_keyboard_10_n04505470_1236.png,n04505470_1236.png,0.0,0.12064941,0.8354289,-0.50542545
alexnet_w1_mlp_simclrhn_probe3,1,89,NaN,knife,airplane,c01,0089_cop_dnn_c01_airplane_10_n02690373_4243.png,n02690373_4243.png,0.0,0.15949485,0.40653604,-0.17468451
alexnet_w1_mlp_simclrhn_probe3,1,90,NaN,oven,oven,c30,0090_cop_dnn_c30_oven_10_n04111531_467.png,n04111531_467.png,1.0,1.1770195,0.4246608,0.5319979
alexnet_w1_mlp_simclrhn_probe3,1,91,NaN,knife,cat,c03,0091_cop_dnn_c03_cat_10_n02123394_2632.png,n02123394_2632.png,0.0,0.046869542,0.28900152,-0.17121316
alexnet_w1_mlp_simclrhn_probe3,1,92,NaN,oven,chair,c15,0092_cop_dnn_c15_chair_10_n02791124_5268.png,n02791124_5268.png,0.0,0.33285224,0.7236101,-0.27630752
alexnet_w1_mlp_simclrhn_probe3,1,93,NaN,oven,knife,c100,0093_cop_dnn_c100_knife_10_n03041632_1143.png,n03041632_1143.png,0.0,0.79139215,1.4694152,-0.4794347
alexnet_w1_mlp_simclrhn_probe3,1,94,NaN,bottle,chair,c10,0094_cop_dnn_c10_chair_10_n02791124_1018.png,n02791124_1018.png,0.0,0.30457246,0.43236202,-0.090360865
alexnet_w1_mlp_simclrhn_probe3,1,95,NaN,knife,bicycle,c05,0095_cop_dnn_c05_bicycle_10_n03792782_8057.png,n03792782_8057.png,0.0,-0.26246315,0.21994208,-0.34111202
alexnet_w1_mlp_simclrhn_probe3,1,96,NaN,bear,bear,c30,0096_cop_dnn_c30_bear_10_n02132136_1338.png,n02132136_1338.png,1.0,2.5211062,1.500128,0.72194064
alexnet_w1_mlp_simclrhn_probe3,1,97,NaN,clock,clock,c05,0097_cop_dnn_c05_clock_10_n02708093_4798.png,n02708093_4798.png,1.0,1.4043955,0.1241657,0.9052592
alexnet_w1_mlp_simclrhn_probe3,1,98,NaN,knife,truck,c01,0098_cop_dnn_c01_truck_10_n03796401_15046.png,n03796401_15046.png,0.0,-0.26198477,0.47521806,-0.5212811
alexnet_w1_mlp_simclrhn_probe3,1,99,NaN,knife,knife,c50,0099_cop_dnn_c50_knife_10_n03041632_13612.png,n03041632_13612.png,1.0,1.3503292,0.9402084,0.2899992
alexnet_w1_mlp_simclrhn_probe3,1,100,NaN,oven,oven,c10,0100_cop_dnn_c10_oven_10_n04111531_1898.png,n04111531_1898.png,1.0,1.0162121,0.3676675,0.4585903
alexnet_w1_mlp_simclrhn_probe3,1,101,NaN,bottle,truck,c03,0101_cop_dnn_c03_truck_10_n04467665_28988.png,n04467665_28988.png,0.0,0.006878324,0.26611394,-0.18330728
alexnet_w1_mlp_simclrhn_probe3,1,102,NaN,airplane,airplane,c100,0102_cop_dnn_c100_airplane_10_n02690373_736.png,n02690373_736.png,1.0,15.170418,3.2997975,8.393797
alexnet_w1_mlp_simclrhn_probe3,1,103,NaN,oven,dog,c50,0103_cop_dnn_c50_dog_10_n02111500_5154.png,n02111500_5154.png,0.0,0.7073811,0.71678936,-0.006652627
alexnet_w1_mlp_simclrhn_probe3,1,104,NaN,oven,bear,c50,0104_cop_dnn_c50_bear_10_n02133161_13461.png,n02133161_13461.png,0.0,-0.020658404,0.51648515,-0.37981787
alexnet_w1_mlp_simclrhn_probe3,1,105,NaN,oven,dog,c15,0105_cop_dnn_c15_dog_10_n02102318_11746.png,n02102318_11746.png,0.0,0.1703772,0.38433233,-0.15128914
alexnet_w1_mlp_simclrhn_probe3,1,106,NaN,boat,boat,c50,0106_cop_dnn_c50_boat_10_n03662601_12226.png,n03662601_12226.png,1.0,4.0029497,0.34191775,2.5887406
alexnet_w1_mlp_simclrhn_probe3,1,107,NaN,keyboard,keyboard,c05,0107_cop_dnn_c05_keyboard_10_n04505470_3207.png,n04505470_3207.png,1.0,0.54043764,0.403679,0.096702956
alexnet_w1_mlp_simclrhn_probe3,1,108,NaN,bicycle,bicycle,c30,0108_cop_dnn_c30_bicycle_10_n03792782_2628.png,n03792782_2628.png,1.0,3.8072643,1.1151203,1.9036332
alexnet_w1_mlp_simclrhn_probe3,1,109,NaN,knife,chair,c01,0109_cop_dnn_c01_chair_10_n02791124_3204.png,n02791124_3204.png,0.0,0.029595435,0.43706316,-0.2881232
alexnet_w1_mlp_simclrhn_probe3,1,110,NaN,bottle,bottle,c03,0110_cop_dnn_c03_bottle_10_n04560804_722.png,n04560804_722.png,1.0,0.4172938,0.2893963,0.09043719
alexnet_w1_mlp_simclrhn_probe3,1,111,NaN,bicycle,bicycle,c30,0111_cop_dnn_c30_bicycle_10_n03792782_8847.png,n03792782_8847.png,1.0,1.6344941,0.33870465,0.91626155
alexnet_w1_mlp_simclrhn_probe3,1,112,NaN,bear,bear,c50,0112_cop_dnn_c50_bear_10_n02132136_1132.png,n02132136_1132.png,1.0,2.2839077,1.4641806,0.57963455
alexnet_w1_mlp_simclrhn_probe3,1,113,NaN,knife,knife,c50,0113_cop_dnn_c50_knife_10_n03041632_6557.png,n03041632_6557.png,1.0,0.9829063,0.16883036,0.57563865
alexnet_w1_mlp_simclrhn_probe3,1,114,NaN,oven,knife,c100,0114_cop_dnn_c100_knife_10_n03041632_35116.png,n03041632_35116.png,0.0,1.1352751,2.6349623,-1.060439
alexnet_w1_mlp_simclrhn_probe3,1,115,NaN,car,car,c15,0115_cop_dnn_c15_car_10_n02814533_3117.png,n02814533_3117.png,1.0,1.0468143,0.61194855,0.30749655
alexnet_w1_mlp_simclrhn_probe3,1,116,NaN,oven,bird,c15,0116_cop_dnn_c15_bird_10_n02009229_4224.png,n02009229_4224.png,0.0,-0.06274202,0.1863201,-0.17611352
alexnet_w1_mlp_simclrhn_probe3,1,117,NaN,bicycle,chair,c50,0117_cop_dnn_c50_chair_10_n03376595_9247.png,n03376595_9247.png,0.0,0.69177794,1.0819316,-0.2758803
alexnet_w1_mlp_simclrhn_probe3,1,118,NaN,knife,boat,c01,0118_cop_dnn_c01_boat_10_n03662601_5639.png,n03662601_5639.png,0.0,0.01028164,0.3083871,-0.21079239
alexnet_w1_mlp_simclrhn_probe3,1,119,NaN,knife,bicycle,c10,0119_cop_dnn_c10_bicycle_10_n02835271_13437.png,n02835271_13437.png,0.0,0.13602102,0.21702512,-0.057278547
alexnet_w1_mlp_simclrhn_probe3,1,120,NaN,oven,bicycle,c05,0120_cop_dnn_c05_bicycle_10_n03792782_18294.png,n03792782_18294.png,0.0,-0.08239176,0.23363769,-0.22346658
alexnet_w1_mlp_simclrhn_probe3,1,121,NaN,knife,boat,c03,0121_cop_dnn_c03_boat_10_n02951358_10488.png,n02951358_10488.png,0.0,0.030993974,0.2950889,-0.1867433
alexnet_w1_mlp_simclrhn_probe3,1,122,NaN,airplane,bird,c50,0122_cop_dnn_c50_bird_10_n01829413_14594.png,n01829413_14594.png,0.0,0.53686816,0.68317705,-0.10345601
alexnet_w1_mlp_simclrhn_probe3,1,123,NaN,keyboard,clock,c100,0123_cop_dnn_c100_clock_10_n03196217_9197.png,n03196217_9197.png,0.0,0.6839861,3.1282816,-1.7283779
alexnet_w1_mlp_simclrhn_probe3,1,124,NaN,boat,boat,c15,0124_cop_dnn_c15_boat_10_n03662601_1667.png,n03662601_1667.png,1.0,0.52460486,0.51439387,0.0072202613
alexnet_w1_mlp_simclrhn_probe3,1,125,NaN,elephant,dog,c50,0125_cop_dnn_c50_dog_10_n02092339_6946.png,n02092339_6946.png,0.0,0.80598265,1.2532059,-0.3162346
alexnet_w1_mlp_simclrhn_probe3,1,126,NaN,airplane,airplane,c05,0126_cop_dnn_c05_airplane_10_n02690373_1773.png,n02690373_1773.png,1.0,0.34193414,0.30352357,0.027160378
alexnet_w1_mlp_simclrhn_probe3,1,127,NaN,bicycle,elephant,c50,0127_cop_dnn_c50_elephant_10_n02504013_4278.png,n02504013_4278.png,0.0,0.22327587,1.0943613,-0.6159504
alexnet_w1_mlp_simclrhn_probe3,1,128,NaN,bird,bird,c100,0128_cop_dnn_c100_bird_10_n02025239_10194.png,n02025239_10194.png,1.0,3.5503805,1.2920206,1.5969017
alexnet_w1_mlp_simclrhn_probe3,1,129,NaN,oven,oven,c15,0129_cop_dnn_c15_oven_10_n04111531_1977.png,n04111531_1977.png,1.0,0.8559561,0.27365848,0.41174656
alexnet_w1_mlp_simclrhn_probe3,1,130,NaN,airplane,clock,c50,0130_cop_dnn_c50_clock_10_n02708093_616.png,n02708093_616.png,0.0,0.41252515,1.2197559,-0.57079834
alexnet_w1_mlp_simclrhn_probe3,1,131,NaN,airplane,boat,c10,0131_cop_dnn_c10_boat_10_n04273569_10292.png,n04273569_10292.png,0.0,0.383996,0.637982,-0.17959523
alexnet_w1_mlp_simclrhn_probe3,1,132,NaN,cat,cat,c50,0132_cop_dnn_c50_cat_10_n02123394_8592.png,n02123394_8592.png,1.0,1.7151752,0.238667,1.0440489
alexnet_w1_mlp_simclrhn_probe3,1,133,NaN,knife,knife,c10,0133_cop_dnn_c10_knife_10_n03041632_16020.png,n03041632_16020.png,1.0,0.47220075,0.17375985,0.21102959
alexnet_w1_mlp_simclrhn_probe3,1,134,NaN,cat,cat,c30,0134_cop_dnn_c30_cat_10_n02123394_5466.png,n02123394_5466.png,1.0,1.1248816,0.23272233,0.63085186
alexnet_w1_mlp_simclrhn_probe3,1,135,NaN,knife,elephant,c01,0135_cop_dnn_c01_elephant_10_n02504013_7351.png,n02504013_7351.png,0.0,-0.1754113,0.30614752,-0.3405135
alexnet_w1_mlp_simclrhn_probe3,1,136,NaN,oven,oven,c50,0136_cop_dnn_c50_oven_10_n04111531_22388.png,n04111531_22388.png,1.0,1.1763731,0.1686185,0.7125901
alexnet_w1_mlp_simclrhn_probe3,1,137,NaN,bottle,chair,c100,0137_cop_dnn_c100_chair_10_n04429376_6308.png,n04429376_6308.png,0.0,0.9151331,2.7089252,-1.2684026
alexnet_w1_mlp_simclrhn_probe3,1,138,NaN,car,car,c10,0138_cop_dnn_c10_car_10_n03100240_8443.png,n03100240_8443.png,1.0,2.7288353,0.654457,1.4668071
alexnet_w1_mlp_simclrhn_probe3,1,139,NaN,car,car,c100,0139_cop_dnn_c100_car_10_n04285008_12446.png,n04285008_12446.png,1.0,7.7311454,3.0554142,3.3062413
alexnet_w1_mlp_simclrhn_probe3,1,140,NaN,knife,keyboard,c01,0140_cop_dnn_c01_keyboard_10_n04505470_4440.png,n04505470_4440.png,0.0,0.19436997,0.4409098,-0.17433
alexnet_w1_mlp_simclrhn_probe3,1,141,NaN,clock,car,c10,0141_cop_dnn_c10_car_10_n04285008_10073.png,n04285008_10073.png,0.0,0.34265593,0.3720354,-0.020774435
alexnet_w1_mlp_simclrhn_probe3,1,142,NaN,knife,bottle,c03,0142_cop_dnn_c03_bottle_10_n03983396_7378.png,n03983396_7378.png,0.0,0.15048206,0.3058038,-0.10982906
alexnet_w1_mlp_simclrhn_probe3,1,143,NaN,chair,chair,c15,0143_cop_dnn_c15_chair_10_n02791124_5706.png,n02791124_5706.png,1.0,0.478049,0.4612289,0.011893609
alexnet_w1_mlp_simclrhn_probe3,1,144,NaN,cat,cat,c15,0144_cop_dnn_c15_cat_10_n02123045_11224.png,n02123045_11224.png,1.0,2.3263006,0.26461476,1.457832
alexnet_w1_mlp_simclrhn_probe3,1,145,NaN,knife,chair,c05,0145_cop_dnn_c05_chair_10_n03376595_8953.png,n03376595_8953.png,0.0,0.53393096,0.5358379,-0.0013484041
alexnet_w1_mlp_simclrhn_probe3,1,146,NaN,bicycle,bicycle,c50,0146_cop_dnn_c50_bicycle_10_n03792782_66048.png,n03792782_66048.png,1.0,5.4156713,2.053931,2.3771095
alexnet_w1_mlp_simclrhn_probe3,1,147,NaN,knife,dog,c01,0147_cop_dnn_c01_dog_10_n02104365_1123.png,n02104365_1123.png,0.0,-0.116096094,0.30845496,-0.30020294
alexnet_w1_mlp_simclrhn_probe3,1,148,NaN,knife,clock,c05,0148_cop_dnn_c05_clock_10_n03196217_3605.png,n03196217_3605.png,0.0,0.48324832,0.57164407,-0.06250523
alexnet_w1_mlp_simclrhn_probe3,1,149,NaN,knife,knife,c10,0149_cop_dnn_c10_knife_10_n03041632_14916.png,n03041632_14916.png,1.0,0.66322815,0.17804728,0.34307468
alexnet_w1_mlp_simclrhn_probe3,1,150,NaN,bear,bear,c10,0150_cop_dnn_c10_bear_10_n02132136_4101.png,n02132136_4101.png,1.0,0.5450648,0.45317805,0.06497375
alexnet_w1_mlp_simclrhn_probe3,1,151,NaN,clock,clock,c01,0151_cop_dnn_c01_clock_10_n02708093_7929.png,n02708093_7929.png,1.0,0.28962255,0.2744361,0.010738448
alexnet_w1_mlp_simclrhn_probe3,1,152,NaN,chair,chair,c50,0152_cop_dnn_c50_chair_10_n02791124_7630.png,n02791124_7630.png,1.0,2.2054894,0.40549025,1.2727916
alexnet_w1_mlp_simclrhn_probe3,1,153,NaN,clock,clock,c05,0153_cop_dnn_c05_clock_10_n02708093_3750.png,n02708093_3750.png,1.0,0.575067,0.33783922,0.16774537
alexnet_w1_mlp_simclrhn_probe3,1,154,NaN,knife,bird,c01,0154_cop_dnn_c01_bird_10_n02037110_12288.png,n02037110_12288.png,0.0,-0.07484318,0.21076763,-0.20195733
alexnet_w1_mlp_simclrhn_probe3,1,155,NaN,keyboard,keyboard,c05,0155_cop_dnn_c05_keyboard_10_n04505470_6080.png,n04505470_6080.png,1.0,0.86445343,0.37534213,0.34585392
alexnet_w1_mlp_simclrhn_probe3,1,156,NaN,keyboard,keyboard,c100,0156_cop_dnn_c100_keyboard_10_n03085013_19065.png,n03085013_19065.png,1.0,9.434664,1.8997622,5.32798
alexnet_w1_mlp_simclrhn_probe3,1,157,NaN,cat,cat,c10,0157_cop_dnn_c10_cat_10_n02123159_4856.png,n02123159_4856.png,1.0,0.72980666,0.18982254,0.38182643
alexnet_w1_mlp_simclrhn_probe3,1,158,NaN,knife,chair,c01,0158_cop_dnn_c01_chair_10_n04099969_6913.png,n04099969_6913.png,0.0,0.092234366,0.40715176,-0.22268023
alexnet_w1_mlp_simclrhn_probe3,1,159,NaN,knife,knife,c30,0159_cop_dnn_c30_knife_10_n03041632_35764.png,n03041632_35764.png,1.0,0.5476533,0.44514745,0.07248259
alexnet_w1_mlp_simclrhn_probe3,1,160,NaN,truck,truck,c30,0160_cop_dnn_c30_truck_10_n03796401_3012.png,n03796401_3012.png,1.0,2.23588,1.7909254,0.31463036
alexnet_w1_mlp_simclrhn_probe3,1,161,NaN,elephant,elephant,c10,0161_cop_dnn_c10_elephant_10_n02504013_3821.png,n02504013_3821.png,1.0,1.1793809,0.33572784,0.59655285
alexnet_w1_mlp_simclrhn_probe3,1,162,NaN,truck,truck,c100,0162_cop_dnn_c100_truck_10_n03796401_3608.png,n03796401_3608.png,1.0,1.7668656,1.4216074,0.24413444
alexnet_w1_mlp_simclrhn_probe3,1,163,NaN,chair,chair,c15,0163_cop_dnn_c15_chair_10_n04099969_13811.png,n04099969_13811.png,1.0,1.5025281,0.29752636,0.8520649
alexnet_w1_mlp_simclrhn_probe3,1,164,NaN,bear,bear,c50,0164_cop_dnn_c50_bear_10_n02133161_4954.png,n02133161_4954.png,1.0,1.3949757,0.19202001,0.85061806
alexnet_w1_mlp_simclrhn_probe3,1,165,NaN,bottle,dog,c15,0165_cop_dnn_c15_dog_10_n02085782_6792.png,n02085782_6792.png,0.0,-0.023328396,0.1639867,-0.13245177
alexnet_w1_mlp_simclrhn_probe3,1,166,NaN,oven,oven,c05,0166_cop_dnn_c05_oven_10_n04111531_22886.png,n04111531_22886.png,1.0,0.39510274,0.23080264,0.116177715
alexnet_w1_mlp_simclrhn_probe3,1,167,NaN,oven,dog,c05,0167_cop_dnn_c05_dog_10_n02091831_510.png,n02091831_510.png,0.0,-0.06155542,0.33745998,-0.28214648
alexnet_w1_mlp_simclrhn_probe3,1,168,NaN,bear,bear,c15,0168_cop_dnn_c15_bear_10_n02132136_11339.png,n02132136_11339.png,1.0,0.38253686,0.2157387,0.117944114
alexnet_w1_mlp_simclrhn_probe3,1,169,NaN,keyboard,bottle,c15,0169_cop_dnn_c15_bottle_10_n04557648_2709.png,n04557648_2709.png,0.0,0.3315294,0.67466784,-0.24263552
alexnet_w1_mlp_simclrhn_probe3,1,170,NaN,knife,keyboard,c03,0170_cop_dnn_c03_keyboard_10_n03085013_21447.png,n03085013_21447.png,0.0,0.1711297,0.43903878,-0.18944032
alexnet_w1_mlp_simclrhn_probe3,1,171,NaN,airplane,airplane,c30,0171_cop_dnn_c30_airplane_10_n02690373_7676.png,n02690373_7676.png,1.0,4.121311,1.1158462,2.1251848
alexnet_w1_mlp_simclrhn_probe3,1,172,NaN,elephant,dog,c100,0172_cop_dnn_c100_dog_10_n02091831_4110.png,n02091831_4110.png,0.0,0.99877137,2.721439,-1.2181098
alexnet_w1_mlp_simclrhn_probe3,1,173,NaN,knife,bird,c10,0173_cop_dnn_c10_bird_10_n02007558_16029.png,n02007558_16029.png,0.0,0.13080175,0.2452453,-0.0809238
alexnet_w1_mlp_simclrhn_probe3,1,174,NaN,oven,truck,c30,0174_cop_dnn_c30_truck_10_n03796401_15097.png,n03796401_15097.png,0.0,0.054116998,0.53400815,-0.33933428
alexnet_w1_mlp_simclrhn_probe3,1,175,NaN,airplane,airplane,c30,0175_cop_dnn_c30_airplane_10_n02690373_7401.png,n02690373_7401.png,1.0,4.819188,0.47471488,3.0720067
alexnet_w1_mlp_simclrhn_probe3,1,176,NaN,knife,dog,c05,0176_cop_dnn_c05_dog_10_n02108422_4529.png,n02108422_4529.png,0.0,0.15932937,0.15968627,-0.00025236479
alexnet_w1_mlp_simclrhn_probe3,1,177,NaN,bear,bear,c10,0177_cop_dnn_c10_bear_10_n02132136_10514.png,n02132136_10514.png,1.0,0.58126056,0.56919295,0.008533093
alexnet_w1_mlp_simclrhn_probe3,1,178,NaN,knife,airplane,c03,0178_cop_dnn_c03_airplane_10_n02690373_5524.png,n02690373_5524.png,0.0,-0.08164367,0.39090613,-0.33414316
alexnet_w1_mlp_simclrhn_probe3,1,179,NaN,oven,chair,c100,0179_cop_dnn_c100_chair_10_n04429376_5965.png,n04429376_5965.png,0.0,3.5165,3.5930762,-0.054147575
alexnet_w1_mlp_simclrhn_probe3,1,180,NaN,airplane,airplane,c15,0180_cop_dnn_c15_airplane_10_n02690373_9712.png,n02690373_9712.png,1.0,1.6255329,0.39932314,0.86706126
alexnet_w1_mlp_simclrhn_probe3,1,181,NaN,boat,boat,c30,0181_cop_dnn_c30_boat_10_n02951358_29825.png,n02951358_29825.png,1.0,3.1373963,1.4674915,1.180801
alexnet_w1_mlp_simclrhn_probe3,1,182,NaN,keyboard,keyboard,c03,0182_cop_dnn_c03_keyboard_10_n04505470_4887.png,n04505470_4887.png,1.0,0.39789,0.3947727,0.0022042592
alexnet_w1_mlp_simclrhn_probe3,1,183,NaN,knife,truck,c01,0183_cop_dnn_c01_truck_10_n04467665_32090.png,n04467665_32090.png,0.0,-0.24101438,0.43413776,-0.47740465
alexnet_w1_mlp_simclrhn_probe3,1,184,NaN,bottle,chair,c05,0184_cop_dnn_c05_chair_10_n02791124_4296.png,n02791124_4296.png,0.0,0.18731391,0.58318794,-0.2799252
alexnet_w1_mlp_simclrhn_probe3,1,185,NaN,boat,boat,c30,0185_cop_dnn_c30_boat_10_n04612504_14669.png,n04612504_14669.png,1.0,3.0135162,0.4714328,1.7975243
alexnet_w1_mlp_simclrhn_probe3,1,186,NaN,knife,airplane,c03,0186_cop_dnn_c03_airplane_10_n02690373_891.png,n02690373_891.png,0.0,0.085109726,0.34965327,-0.18706053
alexnet_w1_mlp_simclrhn_probe3,1,187,NaN,knife,clock,c100,0187_cop_dnn_c100_clock_10_n04548280_7539.png,n04548280_7539.png,0.0,1.6484481,2.7169335,-0.7555333
alexnet_w1_mlp_simclrhn_probe3,1,188,NaN,bear,bear,c30,0188_cop_dnn_c30_bear_10_n02134418_4717.png,n02134418_4717.png,1.0,1.847502,0.2605792,1.1221238
alexnet_w1_mlp_simclrhn_probe3,1,189,NaN,knife,bird,c03,0189_cop_dnn_c03_bird_10_n02002724_13195.png,n02002724_13195.png,0.0,-0.06164435,0.22918457,-0.2056471
alexnet_w1_mlp_simclrhn_probe3,1,190,NaN,bottle,bottle,c10,0190_cop_dnn_c10_bottle_10_n03937543_2494.png,n03937543_2494.png,1.0,0.254654,0.14574814,0.07700807
alexnet_w1_mlp_simclrhn_probe3,1,191,NaN,clock,clock,c30,0191_cop_dnn_c30_clock_10_n03196217_2307.png,n03196217_2307.png,1.0,1.3267139,0.8995071,0.30208084
alexnet_w1_mlp_simclrhn_probe3,1,192,NaN,bottle,clock,c15,0192_cop_dnn_c15_clock_10_n04548280_17907.png,n04548280_17907.png,0.0,0.3035384,0.31127533,-0.0054708296
alexnet_w1_mlp_simclrhn_probe3,1,193,NaN,knife,chair,c03,0193_cop_dnn_c03_chair_10_n03376595_6540.png,n03376595_6540.png,0.0,0.09874198,0.33494598,-0.16702145
alexnet_w1_mlp_simclrhn_probe3,1,194,NaN,cat,cat,c30,0194_cop_dnn_c30_cat_10_n02123045_1484.png,n02123045_1484.png,1.0,2.11741,0.3981938,1.2156694
alexnet_w1_mlp_simclrhn_probe3,1,195,NaN,knife,knife,c03,0195_cop_dnn_c03_knife_10_n03041632_89912.png,n03041632_89912.png,1.0,0.43553883,0.13087773,0.21542794
alexnet_w1_mlp_simclrhn_probe3,1,196,NaN,bottle,bottle,c05,0196_cop_dnn_c05_bottle_10_n04591713_6975.png,n04591713_6975.png,1.0,1.5882391,0.24441361,0.9502281
alexnet_w1_mlp_simclrhn_probe3,1,197,NaN,bird,bird,c50,0197_cop_dnn_c50_bird_10_n01860187_810.png,n01860187_810.png,1.0,1.3260382,0.81666064,0.36018437
alexnet_w1_mlp_simclrhn_probe3,1,198,NaN,knife,oven,c03,0198_cop_dnn_c03_oven_10_n04111531_5967.png,n04111531_5967.png,0.0,0.2749602,0.34595385,-0.0502001
alexnet_w1_mlp_simclrhn_probe3,1,199,NaN,boat,boat,c15,0199_cop_dnn_c15_boat_10_n04612504_18954.png,n04612504_18954.png,1.0,1.0362232,0.579438,0.32299593
alexnet_w1_mlp_simclrhn_probe3,1,200,NaN,bicycle,bicycle,c10,0200_cop_dnn_c10_bicycle_10_n03792782_68259.png,n03792782_68259.png,1.0,0.61258554,0.15490662,0.32362786
alexnet_w1_mlp_simclrhn_probe3,1,201,NaN,knife,car,c03,0201_cop_dnn_c03_car_10_n04285008_296.png,n04285008_296.png,0.0,-0.27364656,0.4819892,-0.53431517
alexnet_w1_mlp_simclrhn_probe3,1,202,NaN,knife,airplane,c03,0202_cop_dnn_c03_airplane_10_n02690373_12929.png,n02690373_12929.png,0.0,0.28723764,0.32153508,-0.02425195
alexnet_w1_mlp_simclrhn_probe3,1,203,NaN,knife,boat,c01,0203_cop_dnn_c01_boat_10_n03344393_8761.png,n03344393_8761.png,0.0,-0.13914731,0.40278402,-0.38320333
alexnet_w1_mlp_simclrhn_probe3,1,204,NaN,clock,clock,c30,0204_cop_dnn_c30_clock_10_n03196217_3877.png,n03196217_3877.png,1.0,1.1704575,0.7256769,0.31450737
alexnet_w1_mlp_simclrhn_probe3,1,205,NaN,cat,bear,c10,0205_cop_dnn_c10_bear_10_n02134084_1346.png,n02134084_1346.png,0.0,0.46124798,0.46890986,-0.0054177665
alexnet_w1_mlp_simclrhn_probe3,1,206,NaN,knife,knife,c03,0206_cop_dnn_c03_knife_10_n03041632_48151.png,n03041632_48151.png,1.0,0.3654994,0.16421878,0.14232689
alexnet_w1_mlp_simclrhn_probe3,1,207,NaN,airplane,airplane,c50,0207_cop_dnn_c50_airplane_10_n02690373_3589.png,n02690373_3589.png,1.0,1.8848629,1.1430417,0.5245468
alexnet_w1_mlp_simclrhn_probe3,1,208,NaN,clock,bottle,c50,0208_cop_dnn_c50_bottle_10_n04560804_2942.png,n04560804_2942.png,0.0,0.59040654,1.3026696,-0.5036461
alexnet_w1_mlp_simclrhn_probe3,1,209,NaN,keyboard,keyboard,c03,0209_cop_dnn_c03_keyboard_10_n04505470_5022.png,n04505470_5022.png,1.0,0.55329275,0.45704913,0.06805452
alexnet_w1_mlp_simclrhn_probe3,1,210,NaN,knife,dog,c10,0210_cop_dnn_c10_dog_10_n02096294_1043.png,n02096294_1043.png,0.0,-0.007873213,0.1831992,-0.13510859
alexnet_w1_mlp_simclrhn_probe3,1,211,NaN,airplane,airplane,c50,0211_cop_dnn_c50_airplane_10_n02690373_1350.png,n02690373_1350.png,1.0,7.4970293,0.9149765,4.6542144
alexnet_w1_mlp_simclrhn_probe3,1,212,NaN,knife,chair,c03,0212_cop_dnn_c03_chair_10_n04099969_27865.png,n04099969_27865.png,0.0,0.123818085,0.39232683,-0.18986435
alexnet_w1_mlp_simclrhn_probe3,1,213,NaN,knife,oven,c01,0213_cop_dnn_c01_oven_10_n04111531_22120.png,n04111531_22120.png,0.0,0.23956822,0.46406803,-0.15874533
alexnet_w1_mlp_simclrhn_probe3,1,214,NaN,elephant,elephant,c50,0214_cop_dnn_c50_elephant_10_n02504458_5600.png,n02504458_5600.png,1.0,3.5846682,1.3930457,1.5497111
alexnet_w1_mlp_simclrhn_probe3,1,215,NaN,knife,cat,c03,0215_cop_dnn_c03_cat_10_n02123597_11138.png,n02123597_11138.png,0.0,-0.018641636,0.37130195,-0.27573177
alexnet_w1_mlp_simclrhn_probe3,1,216,NaN,bear,cat,c30,0216_cop_dnn_c30_cat_10_n02125311_5717.png,n02125311_5717.png,0.0,0.0764926,0.6201761,-0.38444227
alexnet_w1_mlp_simclrhn_probe3,1,217,NaN,oven,chair,c15,0217_cop_dnn_c15_chair_10_n02791124_11404.png,n02791124_11404.png,0.0,0.46336064,0.66134727,-0.13999769
alexnet_w1_mlp_simclrhn_probe3,1,218,NaN,cat,cat,c100,0218_cop_dnn_c100_cat_10_n02123394_2984.png,n02123394_2984.png,1.0,1.4360636,0.86573976,0.4032799
alexnet_w1_mlp_simclrhn_probe3,1,219,NaN,clock,dog,c10,0219_cop_dnn_c10_dog_10_n02087394_9693.png,n02087394_9693.png,0.0,0.14778872,0.16878074,-0.014843604
alexnet_w1_mlp_simclrhn_probe3,1,220,NaN,knife,dog,c01,0220_cop_dnn_c01_dog_10_n02098105_2086.png,n02098105_2086.png,0.0,-0.10950047,0.24914259,-0.25359893
alexnet_w1_mlp_simclrhn_probe3,1,221,NaN,cat,cat,c10,0221_cop_dnn_c10_cat_10_n02123159_6932.png,n02123159_6932.png,1.0,0.48494288,0.17883039,0.21645422
alexnet_w1_mlp_simclrhn_probe3,1,222,NaN,car,car,c15,0222_cop_dnn_c15_car_10_n04285008_8323.png,n04285008_8323.png,1.0,1.5392575,1.3236755,0.1524395
alexnet_w1_mlp_simclrhn_probe3,1,223,NaN,knife,truck,c01,0223_cop_dnn_c01_truck_10_n03796401_2226.png,n03796401_2226.png,0.0,-0.25521868,0.45624188,-0.50307864
alexnet_w1_mlp_simclrhn_probe3,1,224,NaN,knife,bear,c05,0224_cop_dnn_c05_bear_10_n02134084_6223.png,n02134084_6223.png,0.0,0.15978357,0.27795762,-0.083561674
alexnet_w1_mlp_simclrhn_probe3,1,225,NaN,knife,cat,c05,0225_cop_dnn_c05_cat_10_n02125311_22459.png,n02125311_22459.png,0.0,0.1759227,0.2572041,-0.057474617
alexnet_w1_mlp_simclrhn_probe3,1,226,NaN,bicycle,bicycle,c10,0226_cop_dnn_c10_bicycle_10_n02835271_19143.png,n02835271_19143.png,1.0,1.0811262,0.17049696,0.64391214
alexnet_w1_mlp_simclrhn_probe3,1,227,NaN,cat,cat,c10,0227_cop_dnn_c10_cat_10_n02123597_4357.png,n02123597_4357.png,1.0,1.1055114,0.20512265,0.636671
alexnet_w1_mlp_simclrhn_probe3,1,228,NaN,knife,boat,c03,0228_cop_dnn_c03_boat_10_n04273569_6180.png,n04273569_6180.png,0.0,0.11843673,0.25439,-0.096133485
alexnet_w1_mlp_simclrhn_probe3,1,229,NaN,airplane,airplane,c100,0229_cop_dnn_c100_airplane_10_n02690373_139.png,n02690373_139.png,1.0,9.048152,1.9182154,5.0416265
alexnet_w1_mlp_simclrhn_probe3,1,230,NaN,truck,bottle,c10,0230_cop_dnn_c10_bottle_10_n04557648_4165.png,n04557648_4165.png,0.0,0.06755721,0.30496752,-0.16787444
alexnet_w1_mlp_simclrhn_probe3,1,231,NaN,knife,bottle,c50,0231_cop_dnn_c50_bottle_10_n04560804_5756.png,n04560804_5756.png,0.0,0.05831632,0.8108171,-0.5320984
alexnet_w1_mlp_simclrhn_probe3,1,232,NaN,truck,truck,c15,0232_cop_dnn_c15_truck_10_n04467665_39477.png,n04467665_39477.png,1.0,2.6491628,1.3397423,0.9259001
alexnet_w1_mlp_simclrhn_probe3,1,233,NaN,knife,cat,c01,0233_cop_dnn_c01_cat_10_n02123159_386.png,n02123159_386.png,0.0,-0.06141008,0.34446263,-0.28699535
alexnet_w1_mlp_simclrhn_probe3,1,234,NaN,cat,bear,c15,0234_cop_dnn_c15_bear_10_n02134084_4859.png,n02134084_4859.png,0.0,0.21651769,0.39357558,-0.12519884
alexnet_w1_mlp_simclrhn_probe3,1,235,NaN,knife,dog,c03,0235_cop_dnn_c03_dog_10_n02099429_1992.png,n02099429_1992.png,0.0,-0.061512657,0.23153512,-0.20721608
alexnet_w1_mlp_simclrhn_probe3,1,236,NaN,knife,oven,c03,0236_cop_dnn_c03_oven_10_n04111531_584.png,n04111531_584.png,0.0,0.13045187,0.25347847,-0.08699294
alexnet_w1_mlp_simclrhn_probe3,1,237,NaN,bottle,bottle,c05,0237_cop_dnn_c05_bottle_10_n04591713_4019.png,n04591713_4019.png,1.0,0.542076,0.50031173,0.029531792
alexnet_w1_mlp_simclrhn_probe3,1,238,NaN,knife,dog,c03,0238_cop_dnn_c03_dog_10_n02113712_4486.png,n02113712_4486.png,0.0,-0.07927732,0.24118532,-0.22660132
alexnet_w1_mlp_simclrhn_probe3,1,239,NaN,clock,chair,c50,0239_cop_dnn_c50_chair_10_n03376595_13018.png,n03376595_13018.png,0.0,-0.713879,1.298767,-1.4231557
alexnet_w1_mlp_simclrhn_probe3,1,240,NaN,oven,oven,c50,0240_cop_dnn_c50_oven_10_n04111531_7421.png,n04111531_7421.png,1.0,1.7920462,0.46634626,0.9374114
alexnet_w1_mlp_simclrhn_probe3,1,241,NaN,knife,cat,c01,0241_cop_dnn_c01_cat_10_n02123045_10689.png,n02123045_10689.png,0.0,-0.08393671,0.26893643,-0.249519
alexnet_w1_mlp_simclrhn_probe3,1,242,NaN,oven,clock,c05,0242_cop_dnn_c05_clock_10_n02708093_4391.png,n02708093_4391.png,0.0,0.3104868,0.4808676,-0.12047742
alexnet_w1_mlp_simclrhn_probe3,1,243,NaN,clock,clock,c50,0243_cop_dnn_c50_clock_10_n02708093_3759.png,n02708093_3759.png,1.0,4.151773,0.33336917,2.7000191
alexnet_w1_mlp_simclrhn_probe3,1,244,NaN,elephant,elephant,c05,0244_cop_dnn_c05_elephant_10_n02504013_648.png,n02504013_648.png,1.0,0.38485134,0.26689345,0.083408825
alexnet_w1_mlp_simclrhn_probe3,1,245,NaN,knife,bottle,c01,0245_cop_dnn_c01_bottle_10_n04591713_1879.png,n04591713_1879.png,0.0,0.14958613,0.29837644,-0.10521064
alexnet_w1_mlp_simclrhn_probe3,1,246,NaN,knife,dog,c01,0246_cop_dnn_c01_dog_10_n02110627_20194.png,n02110627_20194.png,0.0,-0.09990736,0.2754602,-0.26542497
alexnet_w1_mlp_simclrhn_probe3,1,247,NaN,truck,truck,c50,0247_cop_dnn_c50_truck_10_n03796401_13298.png,n03796401_13298.png,1.0,2.401275,1.0629542,0.9463357
alexnet_w1_mlp_simclrhn_probe3,1,248,NaN,keyboard,chair,c100,0248_cop_dnn_c100_chair_10_n03376595_7824.png,n03376595_7824.png,0.0,0.58965874,5.3871384,-3.3923304
alexnet_w1_mlp_simclrhn_probe3,1,249,NaN,knife,bear,c05,0249_cop_dnn_c05_bear_10_n02134418_6252.png,n02134418_6252.png,0.0,-0.044712346,0.2845666,-0.23283538
alexnet_w1_mlp_simclrhn_probe3,1,250,NaN,bird,bird,c50,0250_cop_dnn_c50_bird_10_n01855032_1815.png,n01855032_1815.png,1.0,1.3680601,0.890802,0.33747244
alexnet_w1_mlp_simclrhn_probe3,1,251,NaN,car,car,c100,0251_cop_dnn_c100_car_10_n03100240_6773.png,n03100240_6773.png,1.0,7.292773,1.7903306,3.8908143
alexnet_w1_mlp_simclrhn_probe3,1,252,NaN,knife,keyboard,c03,0252_cop_dnn_c03_keyboard_10_n03085013_22438.png,n03085013_22438.png,0.0,-0.10730461,0.4489264,-0.39331475
alexnet_w1_mlp_simclrhn_probe3,1,253,NaN,knife,keyboard,c01,0253_cop_dnn_c01_keyboard_10_n04505470_4950.png,n04505470_4950.png,0.0,0.14440638,0.43086663,-0.202558
alexnet_w1_mlp_simclrhn_probe3,1,254,NaN,knife,truck,c03,0254_cop_dnn_c03_truck_10_n04467665_22358.png,n04467665_22358.png,0.0,-0.17991716,0.35850388,-0.38072118
alexnet_w1_mlp_simclrhn_probe3,1,255,NaN,airplane,truck,c15,0255_cop_dnn_c15_truck_10_n04467665_67969.png,n04467665_67969.png,0.0,0.095490746,0.70961624,-0.4342523
alexnet_w1_mlp_simclrhn_probe3,1,256,NaN,knife,elephant,c10,0256_cop_dnn_c10_elephant_10_n02504013_2128.png,n02504013_2128.png,0.0,-0.13024911,0.20653935,-0.23814543
alexnet_w1_mlp_simclrhn_probe3,1,257,NaN,car,car,c30,0257_cop_dnn_c30_car_10_n03100240_3499.png,n03100240_3499.png,1.0,4.248113,1.6961315,1.8045236
alexnet_w1_mlp_simclrhn_probe3,1,258,NaN,bear,bear,c50,0258_cop_dnn_c50_bear_10_n02134084_7250.png,n02134084_7250.png,1.0,1.6955897,1.626909,0.04856455
alexnet_w1_mlp_simclrhn_probe3,1,259,NaN,clock,bicycle,c15,0259_cop_dnn_c15_bicycle_10_n03792782_43279.png,n03792782_43279.png,0.0,0.08217229,0.17967767,-0.06894671
alexnet_w1_mlp_simclrhn_probe3,1,260,NaN,cat,cat,c50,0260_cop_dnn_c50_cat_10_n02123045_1274.png,n02123045_1274.png,1.0,1.4032804,0.5042112,0.63573796
alexnet_w1_mlp_simclrhn_probe3,1,261,NaN,oven,oven,c100,0261_cop_dnn_c100_oven_10_n04111531_6567.png,n04111531_6567.png,1.0,5.1567693,0.40951437,3.356816
alexnet_w1_mlp_simclrhn_probe3,1,262,NaN,oven,knife,c100,0262_cop_dnn_c100_knife_10_n03041632_86338.png,n03041632_86338.png,0.0,0.8103876,1.5816965,-0.54539776
alexnet_w1_mlp_simclrhn_probe3,1,263,NaN,knife,chair,c15,0263_cop_dnn_c15_chair_10_n02791124_9757.png,n02791124_9757.png,0.0,0.50998974,0.69048953,-0.12763263
alexnet_w1_mlp_simclrhn_probe3,1,264,NaN,knife,knife,c15,0264_cop_dnn_c15_knife_10_n03041632_45090.png,n03041632_45090.png,1.0,0.8728454,0.24277437,0.44552752
alexnet_w1_mlp_simclrhn_probe3,1,265,NaN,knife,bicycle,c01,0265_cop_dnn_c01_bicycle_10_n02835271_1436.png,n02835271_1436.png,0.0,-0.26825154,0.39903173,-0.47184056
alexnet_w1_mlp_simclrhn_probe3,1,266,NaN,knife,bird,c03,0266_cop_dnn_c03_bird_10_n01798484_8189.png,n01798484_8189.png,0.0,-0.069850296,0.34320763,-0.29207605
alexnet_w1_mlp_simclrhn_probe3,1,267,NaN,knife,bird,c15,0267_cop_dnn_c15_bird_10_n01819313_1282.png,n01819313_1282.png,0.0,0.099603154,0.35560104,-0.18101785
alexnet_w1_mlp_simclrhn_probe3,1,268,NaN,bottle,bottle,c100,0268_cop_dnn_c100_bottle_10_n03983396_11519.png,n03983396_11519.png,1.0,5.1446333,3.1938615,1.379404
alexnet_w1_mlp_simclrhn_probe3,1,269,NaN,boat,boat,c05,0269_cop_dnn_c05_boat_10_n03344393_7735.png,n03344393_7735.png,1.0,0.33503377,0.17007317,0.11664477
alexnet_w1_mlp_simclrhn_probe3,1,270,NaN,bottle,bottle,c05,0270_cop_dnn_c05_bottle_10_n04560804_21795.png,n04560804_21795.png,1.0,1.019286,0.43702316,0.41172203
alexnet_w1_mlp_simclrhn_probe3,1,271,NaN,chair,chair,c30,0271_cop_dnn_c30_chair_10_n02791124_4109.png,n02791124_4109.png,1.0,1.7203356,0.5176862,0.8504015
alexnet_w1_mlp_simclrhn_probe3,1,272,NaN,keyboard,keyboard,c03,0272_cop_dnn_c03_keyboard_10_n04505470_9663.png,n04505470_9663.png,1.0,0.5454942,0.27238652,0.19311629
alexnet_w1_mlp_simclrhn_probe3,1,273,NaN,knife,knife,c15,0273_cop_dnn_c15_knife_10_n03041632_27709.png,n03041632_27709.png,1.0,1.0207537,0.20307761,0.57818437
alexnet_w1_mlp_simclrhn_probe3,1,274,NaN,airplane,airplane,c50,0274_cop_dnn_c50_airplane_10_n02690373_8539.png,n02690373_8539.png,1.0,1.7749283,0.40359807,0.969677
alexnet_w1_mlp_simclrhn_probe3,1,275,NaN,bear,bear,c15,0275_cop_dnn_c15_bear_10_n02134418_2175.png,n02134418_2175.png,1.0,0.6778898,0.28985956,0.27437884
alexnet_w1_mlp_simclrhn_probe3,1,276,NaN,elephant,elephant,c50,0276_cop_dnn_c50_elephant_10_n02504458_2875.png,n02504458_2875.png,1.0,5.434687,1.4540007,2.8147705
alexnet_w1_mlp_simclrhn_probe3,1,277,NaN,knife,chair,c03,0277_cop_dnn_c03_chair_10_n02791124_5868.png,n02791124_5868.png,0.0,0.035901994,0.31473386,-0.19716391
alexnet_w1_mlp_simclrhn_probe3,1,278,NaN,knife,cat,c10,0278_cop_dnn_c10_cat_10_n02123597_488.png,n02123597_488.png,0.0,0.24415648,0.2958387,-0.03654486
alexnet_w1_mlp_simclrhn_probe3,1,279,NaN,chair,oven,c30,0279_cop_dnn_c30_oven_10_n04111531_6500.png,n04111531_6500.png,0.0,0.4063634,0.6450067,-0.16874631
alexnet_w1_mlp_simclrhn_probe3,1,280,NaN,bicycle,bicycle,c15,0280_cop_dnn_c15_bicycle_10_n03792782_13002.png,n03792782_13002.png,1.0,0.83870655,0.3512342,0.344695
alexnet_w1_mlp_simclrhn_probe3,1,281,NaN,clock,clock,c05,0281_cop_dnn_c05_clock_10_n03196217_10641.png,n03196217_10641.png,1.0,0.68267816,0.49498412,0.13271973
alexnet_w1_mlp_simclrhn_probe3,1,282,NaN,bicycle,bicycle,c15,0282_cop_dnn_c15_bicycle_10_n03792782_20193.png,n03792782_20193.png,1.0,3.4016232,1.2152913,1.5459702
alexnet_w1_mlp_simclrhn_probe3,1,283,NaN,truck,truck,c05,0283_cop_dnn_c05_truck_10_n03417042_13806.png,n03417042_13806.png,1.0,0.5707367,0.28758276,0.20022008
alexnet_w1_mlp_simclrhn_probe3,1,284,NaN,oven,truck,c05,0284_cop_dnn_c05_truck_10_n04467665_70237.png,n04467665_70237.png,0.0,0.047539596,0.2684536,-0.1562098
alexnet_w1_mlp_simclrhn_probe3,1,285,NaN,knife,truck,c01,0285_cop_dnn_c01_truck_10_n04467665_3720.png,n04467665_3720.png,0.0,-0.2857397,0.38164854,-0.47191474
alexnet_w1_mlp_simclrhn_probe3,1,286,NaN,bear,bear,c10,0286_cop_dnn_c10_bear_10_n02132136_8975.png,n02132136_8975.png,1.0,1.520252,1.1291945,0.27651942
alexnet_w1_mlp_simclrhn_probe3,1,287,NaN,oven,knife,c05,0287_cop_dnn_c05_knife_10_n03041632_18859.png,n03041632_18859.png,0.0,0.30673626,0.39505994,-0.062454276
alexnet_w1_mlp_simclrhn_probe3,1,288,NaN,bear,bear,c50,0288_cop_dnn_c50_bear_10_n02132136_29760.png,n02132136_29760.png,1.0,3.0474296,2.8616662,0.13135454
alexnet_w1_mlp_simclrhn_probe3,1,289,NaN,knife,boat,c05,0289_cop_dnn_c05_boat_10_n04273569_6586.png,n04273569_6586.png,0.0,0.22662,0.2774043,-0.03590993
alexnet_w1_mlp_simclrhn_probe3,1,290,NaN,bottle,bottle,c05,0290_cop_dnn_c05_bottle_10_n03983396_11137.png,n03983396_11137.png,1.0,0.8055802,0.36411458,0.31216332
alexnet_w1_mlp_simclrhn_probe3,1,291,NaN,knife,clock,c10,0291_cop_dnn_c10_clock_10_n03196217_4232.png,n03196217_4232.png,0.0,0.25068307,0.4837792,-0.16482385
alexnet_w1_mlp_simclrhn_probe3,1,292,NaN,knife,clock,c01,0292_cop_dnn_c01_clock_10_n04548280_1325.png,n04548280_1325.png,0.0,0.19852729,0.42604402,-0.16087863
alexnet_w1_mlp_simclrhn_probe3,1,293,NaN,airplane,airplane,c100,0293_cop_dnn_c100_airplane_10_n02690373_2268.png,n02690373_2268.png,1.0,7.3603725,2.2928612,3.5832717
alexnet_w1_mlp_simclrhn_probe3,1,294,NaN,bicycle,bicycle,c10,0294_cop_dnn_c10_bicycle_10_n03792782_14557.png,n03792782_14557.png,1.0,0.13686103,0.11094052,0.018328564
alexnet_w1_mlp_simclrhn_probe3,1,295,NaN,knife,cat,c01,0295_cop_dnn_c01_cat_10_n02124075_13792.png,n02124075_13792.png,0.0,-0.06884134,0.3229781,-0.27705818
alexnet_w1_mlp_simclrhn_probe3,1,296,NaN,knife,dog,c01,0296_cop_dnn_c01_dog_10_n02110185_14953.png,n02110185_14953.png,0.0,-0.114011556,0.2722528,-0.27313015
alexnet_w1_mlp_simclrhn_probe3,1,297,NaN,bottle,bottle,c15,0297_cop_dnn_c15_bottle_10_n04557648_1634.png,n04557648_1634.png,1.0,0.54074323,0.33307844,0.14684118
alexnet_w1_mlp_simclrhn_probe3,1,298,NaN,bicycle,bicycle,c50,0298_cop_dnn_c50_bicycle_10_n02835271_1701.png,n02835271_1701.png,1.0,3.3640456,0.54915786,1.9904263
alexnet_w1_mlp_simclrhn_probe3,1,299,NaN,boat,boat,c05,0299_cop_dnn_c05_boat_10_n04273569_7312.png,n04273569_7312.png,1.0,0.8820778,0.3189958,0.3981591
alexnet_w1_mlp_simclrhn_probe3,1,300,NaN,bird,bird,c100,0300_cop_dnn_c100_bird_10_n01616318_5417.png,n01616318_5417.png,1.0,2.220087,0.7301496,1.0535449
alexnet_w1_mlp_simclrhn_probe3,1,301,NaN,cat,cat,c15,0301_cop_dnn_c15_cat_10_n02123045_12200.png,n02123045_12200.png,1.0,2.9116404,0.22419178,1.9003131
alexnet_w1_mlp_simclrhn_probe3,1,302,NaN,dog,dog,c30,0302_cop_dnn_c30_dog_10_n02102480_8264.png,n02102480_8264.png,1.0,0.12709501,0.106558,0.0145218605
alexnet_w1_mlp_simclrhn_probe3,1,303,NaN,bicycle,bicycle,c30,0303_cop_dnn_c30_bicycle_10_n03792782_5426.png,n03792782_5426.png,1.0,1.2593931,0.31028858,0.67111826
alexnet_w1_mlp_simclrhn_probe3,1,304,NaN,bottle,clock,c05,0304_cop_dnn_c05_clock_10_n02708093_8038.png,n02708093_8038.png,0.0,0.23555304,0.47952303,-0.17251284
alexnet_w1_mlp_simclrhn_probe3,1,305,NaN,bicycle,bicycle,c30,0305_cop_dnn_c30_bicycle_10_n02835271_2764.png,n02835271_2764.png,1.0,4.3245044,1.5796854,1.9408801
alexnet_w1_mlp_simclrhn_probe3,1,306,NaN,knife,knife,c50,0306_cop_dnn_c50_knife_10_n03041632_39836.png,n03041632_39836.png,1.0,1.6263002,0.5492571,0.76158446
alexnet_w1_mlp_simclrhn_probe3,1,307,NaN,knife,bicycle,c01,0307_cop_dnn_c01_bicycle_10_n03792782_19040.png,n03792782_19040.png,0.0,-0.28828782,0.3772947,-0.47063795
alexnet_w1_mlp_simclrhn_probe3,1,308,NaN,knife,cat,c01,0308_cop_dnn_c01_cat_10_n02125311_28331.png,n02125311_28331.png,0.0,-0.06332149,0.31005347,-0.26401597
alexnet_w1_mlp_simclrhn_probe3,1,309,NaN,knife,knife,c01,0309_cop_dnn_c01_knife_10_n03041632_18126.png,n03041632_18126.png,1.0,0.38870972,0.26543292,0.08716986
alexnet_w1_mlp_simclrhn_probe3,1,310,NaN,bicycle,bicycle,c30,0310_cop_dnn_c30_bicycle_10_n03792782_19253.png,n03792782_19253.png,1.0,2.0123138,0.360977,1.1676716
alexnet_w1_mlp_simclrhn_probe3,1,311,NaN,knife,bottle,c01,0311_cop_dnn_c01_bottle_10_n03983396_751.png,n03983396_751.png,0.0,0.26641473,0.4031646,-0.09669676
alexnet_w1_mlp_simclrhn_probe3,1,312,NaN,car,car,c15,0312_cop_dnn_c15_car_10_n04285008_628.png,n04285008_628.png,1.0,1.8136921,0.7348356,0.76286674
alexnet_w1_mlp_simclrhn_probe3,1,313,NaN,chair,boat,c15,0313_cop_dnn_c15_boat_10_n03662601_3011.png,n03662601_3011.png,0.0,-0.026150888,0.44469506,-0.33293837
alexnet_w1_mlp_simclrhn_probe3,1,314,NaN,bottle,bottle,c10,0314_cop_dnn_c10_bottle_10_n04557648_2904.png,n04557648_2904.png,1.0,0.6023673,0.2873576,0.2227455
alexnet_w1_mlp_simclrhn_probe3,1,315,NaN,knife,bird,c10,0315_cop_dnn_c10_bird_10_n02002556_9804.png,n02002556_9804.png,0.0,0.24585411,0.3396539,-0.06632648
alexnet_w1_mlp_simclrhn_probe3,1,316,NaN,clock,truck,c05,0316_cop_dnn_c05_truck_10_n04467665_8955.png,n04467665_8955.png,0.0,0.019915365,0.34811082,-0.23206924
alexnet_w1_mlp_simclrhn_probe3,1,317,NaN,knife,boat,c03,0317_cop_dnn_c03_boat_10_n04612504_15061.png,n04612504_15061.png,0.0,0.01095773,0.3477304,-0.23813425
alexnet_w1_mlp_simclrhn_probe3,1,318,NaN,knife,bird,c05,0318_cop_dnn_c05_bird_10_n02002556_1437.png,n02002556_1437.png,0.0,-0.061327204,0.254346,-0.22321469
alexnet_w1_mlp_simclrhn_probe3,1,319,NaN,bicycle,truck,c50,0319_cop_dnn_c50_truck_10_n03417042_10993.png,n03417042_10993.png,0.0,0.08599365,1.3172603,-0.870637
alexnet_w1_mlp_simclrhn_probe3,1,320,NaN,chair,chair,c10,0320_cop_dnn_c10_chair_10_n02791124_880.png,n02791124_880.png,1.0,0.3505042,0.2907964,0.042219784
alexnet_w1_mlp_simclrhn_probe3,1,321,NaN,bicycle,bicycle,c50,0321_cop_dnn_c50_bicycle_10_n03792782_4826.png,n03792782_4826.png,1.0,4.654767,0.65662146,2.827116
alexnet_w1_mlp_simclrhn_probe3,1,322,NaN,knife,chair,c03,0322_cop_dnn_c03_chair_10_n04099969_3804.png,n04099969_3804.png,0.0,0.19167641,0.3592516,-0.11849355
alexnet_w1_mlp_simclrhn_probe3,1,323,NaN,bottle,bottle,c10,0323_cop_dnn_c10_bottle_10_n02823428_2504.png,n02823428_2504.png,1.0,1.7389994,0.19213629,1.0937974
alexnet_w1_mlp_simclrhn_probe3,1,324,NaN,cat,cat,c10,0324_cop_dnn_c10_cat_10_n02124075_9716.png,n02124075_9716.png,1.0,0.7594338,0.18152598,0.40864253
alexnet_w1_mlp_simclrhn_probe3,1,325,NaN,knife,knife,c01,0325_cop_dnn_c01_knife_10_n03041632_81630.png,n03041632_81630.png,1.0,0.28823853,0.19895457,0.06313329
alexnet_w1_mlp_simclrhn_probe3,1,326,NaN,bottle,bottle,c30,0326_cop_dnn_c30_bottle_10_n04591713_457.png,n04591713_457.png,1.0,2.1270797,0.61684203,1.0678993
alexnet_w1_mlp_simclrhn_probe3,1,327,NaN,oven,elephant,c30,0327_cop_dnn_c30_elephant_10_n02504458_5337.png,n02504458_5337.png,0.0,0.17914572,0.34220046,-0.11529711
alexnet_w1_mlp_simclrhn_probe3,1,328,NaN,clock,clock,c15,0328_cop_dnn_c15_clock_10_n02708093_5429.png,n02708093_5429.png,1.0,1.2413577,0.16444658,0.7614911
alexnet_w1_mlp_simclrhn_probe3,1,329,NaN,oven,oven,c100,0329_cop_dnn_c100_oven_10_n04111531_9411.png,n04111531_9411.png,1.0,1.8827655,1.1852518,0.49321666
alexnet_w1_mlp_simclrhn_probe3,1,330,NaN,knife,knife,c01,0330_cop_dnn_c01_knife_10_n03041632_2338.png,n03041632_2338.png,1.0,0.47097862,0.31106815,0.11307378
alexnet_w1_mlp_simclrhn_probe3,1,331,NaN,bicycle,cat,c100,0331_cop_dnn_c100_cat_10_n02123394_2755.png,n02123394_2755.png,0.0,1.0716048,1.5064752,-0.3074998
alexnet_w1_mlp_simclrhn_probe3,1,332,NaN,elephant,elephant,c05,0332_cop_dnn_c05_elephant_10_n02504458_10243.png,n02504458_10243.png,1.0,0.2774032,0.23329447,0.031189585
alexnet_w1_mlp_simclrhn_probe3,1,333,NaN,oven,oven,c15,0333_cop_dnn_c15_oven_10_n04111531_1752.png,n04111531_1752.png,1.0,1.0614338,0.36508316,0.49239427
alexnet_w1_mlp_simclrhn_probe3,1,334,NaN,bird,bird,c05,0334_cop_dnn_c05_bird_10_n02037110_6736.png,n02037110_6736.png,1.0,0.26614177,0.22634447,0.028140945
alexnet_w1_mlp_simclrhn_probe3,1,335,NaN,airplane,airplane,c10,0335_cop_dnn_c10_airplane_10_n02690373_8804.png,n02690373_8804.png,1.0,1.3483555,0.4573765,0.63001734
alexnet_w1_mlp_simclrhn_probe3,1,336,NaN,elephant,elephant,c100,0336_cop_dnn_c100_elephant_10_n02504458_12217.png,n02504458_12217.png,1.0,3.9916446,1.6817634,1.6333327
alexnet_w1_mlp_simclrhn_probe3,1,337,NaN,knife,knife,c15,0337_cop_dnn_c15_knife_10_n03041632_84012.png,n03041632_84012.png,1.0,0.41539276,0.15184496,0.18635643
alexnet_w1_mlp_simclrhn_probe3,1,338,NaN,bear,dog,c50,0338_cop_dnn_c50_dog_10_n02093991_6192.png,n02093991_6192.png,0.0,0.20961611,0.74437743,-0.37813336
alexnet_w1_mlp_simclrhn_probe3,1,339,NaN,bird,bird,c50,0339_cop_dnn_c50_bird_10_n02027492_6499.png,n02027492_6499.png,1.0,1.7684615,0.56415457,0.8515735
alexnet_w1_mlp_simclrhn_probe3,1,340,NaN,bottle,knife,c10,0340_cop_dnn_c10_knife_10_n03041632_46185.png,n03041632_46185.png,0.0,0.49542293,0.51713514,-0.015352854
alexnet_w1_mlp_simclrhn_probe3,1,341,NaN,boat,bear,c30,0341_cop_dnn_c30_bear_10_n02134084_14775.png,n02134084_14775.png,0.0,0.32618728,1.037227,-0.50278103
alexnet_w1_mlp_simclrhn_probe3,1,342,NaN,truck,truck,c30,0342_cop_dnn_c30_truck_10_n03417042_5346.png,n03417042_5346.png,1.0,2.840147,0.46308812,1.6808345
alexnet_w1_mlp_simclrhn_probe3,1,343,NaN,oven,dog,c30,0343_cop_dnn_c30_dog_10_n02093991_9672.png,n02093991_9672.png,0.0,-0.0064531714,0.7088758,-0.50581396
alexnet_w1_mlp_simclrhn_probe3,1,344,NaN,elephant,elephant,c100,0344_cop_dnn_c100_elephant_10_n02504458_2031.png,n02504458_2031.png,1.0,13.218224,4.217595,6.3644056
alexnet_w1_mlp_simclrhn_probe3,1,345,NaN,knife,bird,c03,0345_cop_dnn_c03_bird_10_n02025239_660.png,n02025239_660.png,0.0,0.007900382,0.20813245,-0.14158545
alexnet_w1_mlp_simclrhn_probe3,1,346,NaN,knife,elephant,c01,0346_cop_dnn_c01_elephant_10_n02504458_4244.png,n02504458_4244.png,0.0,-0.16659066,0.33136612,-0.35210863
alexnet_w1_mlp_simclrhn_probe3,1,347,NaN,bear,elephant,c30,0347_cop_dnn_c30_elephant_10_n02504013_7539.png,n02504013_7539.png,0.0,0.8022834,1.0747217,-0.19264296
alexnet_w1_mlp_simclrhn_probe3,1,348,NaN,knife,bird,c03,0348_cop_dnn_c03_bird_10_n02002724_5876.png,n02002724_5876.png,0.0,-0.083045505,0.17443009,-0.18206273
alexnet_w1_mlp_simclrhn_probe3,1,349,NaN,knife,bird,c10,0349_cop_dnn_c10_bird_10_n01532829_560.png,n01532829_560.png,0.0,-0.012358253,0.21434404,-0.16030273
alexnet_w1_mlp_simclrhn_probe3,1,350,NaN,boat,boat,c30,0350_cop_dnn_c30_boat_10_n04273569_1709.png,n04273569_1709.png,1.0,2.104041,0.31966114,1.2617472
alexnet_w1_mlp_simclrhn_probe3,1,351,NaN,bicycle,bicycle,c50,0351_cop_dnn_c50_bicycle_10_n02835271_7958.png,n02835271_7958.png,1.0,1.5227376,0.23847178,0.9081131
alexnet_w1_mlp_simclrhn_probe3,1,352,NaN,bear,bear,c30,0352_cop_dnn_c30_bear_10_n02133161_12157.png,n02133161_12157.png,1.0,1.1150329,0.90639293,0.14753075
alexnet_w1_mlp_simclrhn_probe3,1,353,NaN,knife,chair,c01,0353_cop_dnn_c01_chair_10_n04099969_4577.png,n04099969_4577.png,0.0,0.14132284,0.3708925,-0.16233027
alexnet_w1_mlp_simclrhn_probe3,1,354,NaN,knife,bicycle,c01,0354_cop_dnn_c01_bicycle_10_n02835271_10283.png,n02835271_10283.png,0.0,-0.25513157,0.25021067,-0.35733095
alexnet_w1_mlp_simclrhn_probe3,1,355,NaN,car,truck,c100,0355_cop_dnn_c100_truck_10_n03417042_23815.png,n03417042_23815.png,0.0,1.0934479,2.513272,-1.0039673
alexnet_w1_mlp_simclrhn_probe3,1,356,NaN,knife,bear,c03,0356_cop_dnn_c03_bear_10_n02133161_1059.png,n02133161_1059.png,0.0,0.07900247,0.23329516,-0.10910141
alexnet_w1_mlp_simclrhn_probe3,1,357,NaN,knife,chair,c01,0357_cop_dnn_c01_chair_10_n02791124_5173.png,n02791124_5173.png,0.0,0.21841839,0.3837871,-0.11693334
alexnet_w1_mlp_simclrhn_probe3,1,358,NaN,bottle,bottle,c30,0358_cop_dnn_c30_bottle_10_n03983396_5545.png,n03983396_5545.png,1.0,1.6763363,0.61978114,0.7470973
alexnet_w1_mlp_simclrhn_probe3,1,359,NaN,knife,airplane,c01,0359_cop_dnn_c01_airplane_10_n02690373_1797.png,n02690373_1797.png,0.0,0.14905834,0.4301345,-0.19875087
alexnet_w1_mlp_simclrhn_probe3,1,360,NaN,knife,oven,c05,0360_cop_dnn_c05_oven_10_n04111531_6628.png,n04111531_6628.png,0.0,0.20712173,0.30536184,-0.06946625
alexnet_w1_mlp_simclrhn_probe3,1,361,NaN,knife,elephant,c10,0361_cop_dnn_c10_elephant_10_n02504458_7817.png,n02504458_7817.png,0.0,-0.064602934,0.13674815,-0.14237672
alexnet_w1_mlp_simclrhn_probe3,1,362,NaN,knife,knife,c50,0362_cop_dnn_c50_knife_10_n03041632_4714.png,n03041632_4714.png,1.0,0.5815916,0.3928172,0.13348366
alexnet_w1_mlp_simclrhn_probe3,1,363,NaN,knife,bear,c03,0363_cop_dnn_c03_bear_10_n02134084_169.png,n02134084_169.png,0.0,-0.012405985,0.4596669,-0.33380595
alexnet_w1_mlp_simclrhn_probe3,1,364,NaN,bird,bird,c15,0364_cop_dnn_c15_bird_10_n02013706_8336.png,n02013706_8336.png,1.0,1.0902611,0.29652047,0.5612594
alexnet_w1_mlp_simclrhn_probe3,1,365,NaN,bottle,bottle,c15,0365_cop_dnn_c15_bottle_10_n04579145_6880.png,n04579145_6880.png,1.0,1.9447299,0.5885559,0.9589598
alexnet_w1_mlp_simclrhn_probe3,1,366,NaN,knife,dog,c05,0366_cop_dnn_c05_dog_10_n02105641_416.png,n02105641_416.png,0.0,-0.012421409,0.23534386,-0.17519651
alexnet_w1_mlp_simclrhn_probe3,1,367,NaN,oven,airplane,c10,0367_cop_dnn_c10_airplane_10_n02690373_6549.png,n02690373_6549.png,0.0,0.025536355,0.24783786,-0.1571909
alexnet_w1_mlp_simclrhn_probe3,1,368,NaN,clock,clock,c01,0368_cop_dnn_c01_clock_10_n04548280_2374.png,n04548280_2374.png,1.0,0.47313413,0.3705203,0.07255894
alexnet_w1_mlp_simclrhn_probe3,1,369,NaN,keyboard,bottle,c30,0369_cop_dnn_c30_bottle_10_n03983396_6287.png,n03983396_6287.png,0.0,0.7156669,1.8626738,-0.8110564
alexnet_w1_mlp_simclrhn_probe3,1,370,NaN,knife,dog,c01,0370_cop_dnn_c01_dog_10_n02090622_1126.png,n02090622_1126.png,0.0,-0.10862723,0.31269538,-0.29792008
alexnet_w1_mlp_simclrhn_probe3,1,371,NaN,truck,truck,c50,0371_cop_dnn_c50_truck_10_n03796401_1681.png,n03796401_1681.png,1.0,3.612952,2.8155174,0.5638714
alexnet_w1_mlp_simclrhn_probe3,1,372,NaN,elephant,elephant,c30,0372_cop_dnn_c30_elephant_10_n02504013_5537.png,n02504013_5537.png,1.0,5.733222,1.7017283,2.8506966
alexnet_w1_mlp_simclrhn_probe3,1,373,NaN,keyboard,keyboard,c05,0373_cop_dnn_c05_keyboard_10_n03085013_12399.png,n03085013_12399.png,1.0,0.5871927,0.47003198,0.08284515
alexnet_w1_mlp_simclrhn_probe3,1,374,NaN,bottle,oven,c15,0374_cop_dnn_c15_oven_10_n04111531_6094.png,n04111531_6094.png,0.0,0.93987316,1.5482368,-0.4301781
alexnet_w1_mlp_simclrhn_probe3,1,375,NaN,knife,airplane,c03,0375_cop_dnn_c03_airplane_10_n02690373_13604.png,n02690373_13604.png,0.0,0.1612275,0.47690004,-0.22321421
alexnet_w1_mlp_simclrhn_probe3,1,376,NaN,elephant,bear,c100,0376_cop_dnn_c100_bear_10_n02134084_16084.png,n02134084_16084.png,0.0,2.4358342,2.5993724,-0.115638986
alexnet_w1_mlp_simclrhn_probe3,1,377,NaN,knife,boat,c01,0377_cop_dnn_c01_boat_10_n04273569_15906.png,n04273569_15906.png,0.0,-0.06682111,0.3884451,-0.32192186
alexnet_w1_mlp_simclrhn_probe3,1,378,NaN,knife,dog,c05,0378_cop_dnn_c05_dog_10_n02105162_8899.png,n02105162_8899.png,0.0,0.00022305241,0.27601573,-0.19501488
alexnet_w1_mlp_simclrhn_probe3,1,379,NaN,oven,oven,c03,0379_cop_dnn_c03_oven_10_n04111531_7619.png,n04111531_7619.png,1.0,0.4028225,0.18435457,0.15448014
alexnet_w1_mlp_simclrhn_probe3,1,380,NaN,elephant,elephant,c05,0380_cop_dnn_c05_elephant_10_n02504458_1816.png,n02504458_1816.png,1.0,0.78985894,0.16687869,0.44051355
alexnet_w1_mlp_simclrhn_probe3,1,381,NaN,cat,cat,c30,0381_cop_dnn_c30_cat_10_n02123045_3575.png,n02123045_3575.png,1.0,0.9243944,0.69136584,0.1647761
alexnet_w1_mlp_simclrhn_probe3,1,382,NaN,knife,truck,c01,0382_cop_dnn_c01_truck_10_n03417042_908.png,n03417042_908.png,0.0,-0.2761169,0.31360692,-0.41699773
alexnet_w1_mlp_simclrhn_probe3,1,383,NaN,boat,boat,c03,0383_cop_dnn_c03_boat_10_n03344393_4213.png,n03344393_4213.png,1.0,0.5553612,0.37232578,0.1294256
alexnet_w1_mlp_simclrhn_probe3,1,384,NaN,knife,knife,c01,0384_cop_dnn_c01_knife_10_n03041632_31483.png,n03041632_31483.png,1.0,0.46061477,0.2437533,0.15334421
alexnet_w1_mlp_simclrhn_probe3,1,385,NaN,knife,bottle,c01,0385_cop_dnn_c01_bottle_10_n03937543_986.png,n03937543_986.png,0.0,0.12174017,0.3559947,-0.16564298
alexnet_w1_mlp_simclrhn_probe3,1,386,NaN,truck,truck,c15,0386_cop_dnn_c15_truck_10_n03796401_7381.png,n03796401_7381.png,1.0,3.0131316,0.3798374,1.8620201
alexnet_w1_mlp_simclrhn_probe3,1,387,NaN,knife,dog,c03,0387_cop_dnn_c03_dog_10_n02094433_9787.png,n02094433_9787.png,0.0,-0.071655735,0.14829692,-0.15553002
alexnet_w1_mlp_simclrhn_probe3,1,388,NaN,bird,bird,c30,0388_cop_dnn_c30_bird_10_n02011460_11838.png,n02011460_11838.png,1.0,0.19397259,0.070748284,0.087132744
alexnet_w1_mlp_simclrhn_probe3,1,389,NaN,cat,cat,c30,0389_cop_dnn_c30_cat_10_n02123597_29513.png,n02123597_29513.png,1.0,1.4372163,0.9701047,0.33029777
alexnet_w1_mlp_simclrhn_probe3,1,390,NaN,knife,chair,c10,0390_cop_dnn_c10_chair_10_n04429376_5337.png,n04429376_5337.png,0.0,0.058634903,0.3528185,-0.20801921
alexnet_w1_mlp_simclrhn_probe3,1,391,NaN,knife,knife,c03,0391_cop_dnn_c03_knife_10_n03041632_4260.png,n03041632_4260.png,1.0,0.39388746,0.2157145,0.1259873
alexnet_w1_mlp_simclrhn_probe3,1,392,NaN,keyboard,keyboard,c10,0392_cop_dnn_c10_keyboard_10_n04505470_4061.png,n04505470_4061.png,1.0,0.6520392,0.4853845,0.11784265
alexnet_w1_mlp_simclrhn_probe3,1,393,NaN,boat,boat,c15,0393_cop_dnn_c15_boat_10_n03344393_6467.png,n03344393_6467.png,1.0,1.8827645,0.6316521,0.88467
alexnet_w1_mlp_simclrhn_probe3,1,394,NaN,bicycle,bicycle,c100,0394_cop_dnn_c100_bicycle_10_n03792782_11297.png,n03792782_11297.png,1.0,5.4096813,0.59456515,3.4048011
alexnet_w1_mlp_simclrhn_probe3,1,395,NaN,knife,bicycle,c03,0395_cop_dnn_c03_bicycle_10_n03792782_8357.png,n03792782_8357.png,0.0,-0.23925987,0.23419459,-0.33478287
alexnet_w1_mlp_simclrhn_probe3,1,396,NaN,oven,dog,c10,0396_cop_dnn_c10_dog_10_n02108422_2739.png,n02108422_2739.png,0.0,0.026968593,0.23162171,-0.14471161
alexnet_w1_mlp_simclrhn_probe3,1,397,NaN,knife,bear,c03,0397_cop_dnn_c03_bear_10_n02134084_6840.png,n02134084_6840.png,0.0,-0.080750674,0.3189241,-0.28261274
alexnet_w1_mlp_simclrhn_probe3,1,398,NaN,bear,bear,c30,0398_cop_dnn_c30_bear_10_n02133161_5365.png,n02133161_5365.png,1.0,0.87668455,0.6695523,0.1464646
alexnet_w1_mlp_simclrhn_probe3,1,399,NaN,bottle,bottle,c30,0399_cop_dnn_c30_bottle_10_n04560804_1010.png,n04560804_1010.png,1.0,0.57257414,0.45929286,0.08010196
alexnet_w1_mlp_simclrhn_probe3,1,400,NaN,clock,clock,c10,0400_cop_dnn_c10_clock_10_n04548280_183.png,n04548280_183.png,1.0,0.56764865,0.2544128,0.2214912
alexnet_w1_mlp_simclrhn_probe3,1,401,NaN,keyboard,keyboard,c100,0401_cop_dnn_c100_keyboard_10_n03085013_21534.png,n03085013_21534.png,1.0,10.215193,2.9936802,5.106381
alexnet_w1_mlp_simclrhn_probe3,1,402,NaN,chair,keyboard,c50,0402_cop_dnn_c50_keyboard_10_n03085013_24111.png,n03085013_24111.png,0.0,1.7341619,2.1518474,-0.29534826
alexnet_w1_mlp_simclrhn_probe3,1,403,NaN,knife,knife,c15,0403_cop_dnn_c15_knife_10_n03041632_28009.png,n03041632_28009.png,1.0,0.5512478,0.22409493,0.231332
alexnet_w1_mlp_simclrhn_probe3,1,404,NaN,cat,cat,c50,0404_cop_dnn_c50_cat_10_n02123159_7647.png,n02123159_7647.png,1.0,1.6119872,0.6144672,0.7053532
alexnet_w1_mlp_simclrhn_probe3,1,405,NaN,knife,bottle,c01,0405_cop_dnn_c01_bottle_10_n02823428_8696.png,n02823428_8696.png,0.0,0.15403834,0.49887747,-0.24383809
alexnet_w1_mlp_simclrhn_probe3,1,406,NaN,elephant,elephant,c15,0406_cop_dnn_c15_elephant_10_n02504458_8923.png,n02504458_8923.png,1.0,0.77443576,0.2434955,0.37543148
alexnet_w1_mlp_simclrhn_probe3,1,407,NaN,knife,bear,c01,0407_cop_dnn_c01_bear_10_n02134084_5031.png,n02134084_5031.png,0.0,-0.076992616,0.29690093,-0.2643827
alexnet_w1_mlp_simclrhn_probe3,1,408,NaN,bear,dog,c50,0408_cop_dnn_c50_dog_10_n02097209_1658.png,n02097209_1658.png,0.0,1.0572698,1.6979654,-0.45304018
alexnet_w1_mlp_simclrhn_probe3,1,409,NaN,knife,dog,c05,0409_cop_dnn_c05_dog_10_n02099849_6384.png,n02099849_6384.png,0.0,-0.069511406,0.3130303,-0.27049786
alexnet_w1_mlp_simclrhn_probe3,1,410,NaN,elephant,elephant,c15,0410_cop_dnn_c15_elephant_10_n02504013_3459.png,n02504013_3459.png,1.0,0.859012,0.31115985,0.38739
alexnet_w1_mlp_simclrhn_probe3,1,411,NaN,knife,knife,c03,0411_cop_dnn_c03_knife_10_n03041632_36390.png,n03041632_36390.png,1.0,0.26073337,0.21867986,0.02973632
alexnet_w1_mlp_simclrhn_probe3,1,412,NaN,knife,knife,c100,0412_cop_dnn_c100_knife_10_n03041632_10263.png,n03041632_10263.png,1.0,2.7365925,0.5318219,1.5590082
alexnet_w1_mlp_simclrhn_probe3,1,413,NaN,cat,cat,c03,0413_cop_dnn_c03_cat_10_n02123045_840.png,n02123045_840.png,1.0,0.30601317,0.22179967,0.059547935
alexnet_w1_mlp_simclrhn_probe3,1,414,NaN,clock,clock,c05,0414_cop_dnn_c05_clock_10_n04548280_4758.png,n04548280_4758.png,1.0,0.70993257,0.5479085,0.11456833
alexnet_w1_mlp_simclrhn_probe3,1,415,NaN,bear,bear,c50,0415_cop_dnn_c50_bear_10_n02133161_1247.png,n02133161_1247.png,1.0,2.781606,1.7561495,0.7251072
alexnet_w1_mlp_simclrhn_probe3,1,416,NaN,airplane,airplane,c10,0416_cop_dnn_c10_airplane_10_n02690373_6716.png,n02690373_6716.png,1.0,0.94619167,0.6309776,0.22289003
alexnet_w1_mlp_simclrhn_probe3,1,417,NaN,keyboard,keyboard,c30,0417_cop_dnn_c30_keyboard_10_n04505470_4893.png,n04505470_4893.png,1.0,2.206418,0.37724224,1.2934227
alexnet_w1_mlp_simclrhn_probe3,1,418,NaN,chair,chair,c30,0418_cop_dnn_c30_chair_10_n04099969_34525.png,n04099969_34525.png,1.0,1.0164852,0.41602063,0.42459258
alexnet_w1_mlp_simclrhn_probe3,1,419,NaN,knife,airplane,c01,0419_cop_dnn_c01_airplane_10_n02690373_4793.png,n02690373_4793.png,0.0,0.048797682,0.39446634,-0.24442467
alexnet_w1_mlp_simclrhn_probe3,1,420,NaN,knife,knife,c15,0420_cop_dnn_c15_knife_10_n03041632_4787.png,n03041632_4787.png,1.0,0.51337945,0.32981387,0.12980047
alexnet_w1_mlp_simclrhn_probe3,1,421,NaN,boat,boat,c05,0421_cop_dnn_c05_boat_10_n04273569_20587.png,n04273569_20587.png,1.0,0.52832115,0.34496328,0.12965359
alexnet_w1_mlp_simclrhn_probe3,1,422,NaN,knife,bicycle,c03,0422_cop_dnn_c03_bicycle_10_n03792782_4844.png,n03792782_4844.png,0.0,-0.24222212,0.2072252,-0.31780726
alexnet_w1_mlp_simclrhn_probe3,1,423,NaN,knife,cat,c01,0423_cop_dnn_c01_cat_10_n02123045_6066.png,n02123045_6066.png,0.0,-0.070516266,0.32135782,-0.2770968
alexnet_w1_mlp_simclrhn_probe3,1,424,NaN,boat,boat,c30,0424_cop_dnn_c30_boat_10_n04273569_17045.png,n04273569_17045.png,1.0,2.7114844,1.2247566,1.0512754
alexnet_w1_mlp_simclrhn_probe3,1,425,NaN,keyboard,keyboard,c100,0425_cop_dnn_c100_keyboard_10_n04505470_5068.png,n04505470_5068.png,1.0,10.2420025,2.3758361,5.5622196
alexnet_w1_mlp_simclrhn_probe3,1,426,NaN,airplane,airplane,c10,0426_cop_dnn_c10_airplane_10_n02690373_2724.png,n02690373_2724.png,1.0,1.4699998,0.37302554,0.7756779
alexnet_w1_mlp_simclrhn_probe3,1,427,NaN,boat,boat,c10,0427_cop_dnn_c10_boat_10_n03662601_4844.png,n03662601_4844.png,1.0,2.5375006,0.3489719,1.5475236
alexnet_w1_mlp_simclrhn_probe3,1,428,NaN,chair,chair,c100,0428_cop_dnn_c100_chair_10_n04099969_3929.png,n04099969_3929.png,1.0,4.7751474,2.7427306,1.4371357
alexnet_w1_mlp_simclrhn_probe3,1,429,NaN,oven,oven,c10,0429_cop_dnn_c10_oven_10_n04111531_9026.png,n04111531_9026.png,1.0,0.7272609,0.6013957,0.08900011
alexnet_w1_mlp_simclrhn_probe3,1,430,NaN,knife,knife,c15,0430_cop_dnn_c15_knife_10_n03041632_51225.png,n03041632_51225.png,1.0,0.85621214,0.30637857,0.38879102
alexnet_w1_mlp_simclrhn_probe3,1,431,NaN,chair,boat,c10,0431_cop_dnn_c10_boat_10_n03344393_6638.png,n03344393_6638.png,0.0,-0.019960796,0.31708288,-0.23832586
alexnet_w1_mlp_simclrhn_probe3,1,432,NaN,knife,knife,c30,0432_cop_dnn_c30_knife_10_n03041632_4590.png,n03041632_4590.png,1.0,1.081522,0.4945743,0.41503468
alexnet_w1_mlp_simclrhn_probe3,1,433,NaN,clock,clock,c03,0433_cop_dnn_c03_clock_10_n02708093_3761.png,n02708093_3761.png,1.0,0.30153602,0.20548928,0.067915305
alexnet_w1_mlp_simclrhn_probe3,1,434,NaN,knife,car,c03,0434_cop_dnn_c03_car_10_n04285008_3193.png,n04285008_3193.png,0.0,-0.330121,0.31576234,-0.4567085
alexnet_w1_mlp_simclrhn_probe3,1,435,NaN,knife,keyboard,c50,0435_cop_dnn_c50_keyboard_10_n03085013_661.png,n03085013_661.png,0.0,0.11897045,1.1421428,-0.72349215
alexnet_w1_mlp_simclrhn_probe3,1,436,NaN,oven,bottle,c03,0436_cop_dnn_c03_bottle_10_n04557648_2355.png,n04557648_2355.png,0.0,0.12023789,0.25758693,-0.09712044
alexnet_w1_mlp_simclrhn_probe3,1,437,NaN,car,dog,c30,0437_cop_dnn_c30_dog_10_n02107312_860.png,n02107312_860.png,0.0,-0.15099917,0.47523686,-0.44281575
alexnet_w1_mlp_simclrhn_probe3,1,438,NaN,boat,boat,c100,0438_cop_dnn_c100_boat_10_n02951358_1541.png,n02951358_1541.png,1.0,4.7815065,1.3701329,2.4122055
alexnet_w1_mlp_simclrhn_probe3,1,439,NaN,boat,boat,c15,0439_cop_dnn_c15_boat_10_n02951358_4972.png,n02951358_4972.png,1.0,1.0458742,0.26286513,0.55367106
alexnet_w1_mlp_simclrhn_probe3,1,440,NaN,bear,bear,c15,0440_cop_dnn_c15_bear_10_n02132136_6352.png,n02132136_6352.png,1.0,0.44290093,0.17549466,0.1890848
alexnet_w1_mlp_simclrhn_probe3,1,441,NaN,knife,knife,c05,0441_cop_dnn_c05_knife_10_n03041632_27022.png,n03041632_27022.png,1.0,0.40923032,0.16230609,0.17460181
alexnet_w1_mlp_simclrhn_probe3,1,442,NaN,airplane,airplane,c15,0442_cop_dnn_c15_airplane_10_n02690373_10399.png,n02690373_10399.png,1.0,0.990337,0.23028521,0.5374378
alexnet_w1_mlp_simclrhn_probe3,1,443,NaN,keyboard,keyboard,c30,0443_cop_dnn_c30_keyboard_10_n04505470_4803.png,n04505470_4803.png,1.0,0.9688764,0.2700012,0.4941794
alexnet_w1_mlp_simclrhn_probe3,1,444,NaN,bottle,bottle,c03,0444_cop_dnn_c03_bottle_10_n03937543_4916.png,n03937543_4916.png,1.0,0.97336996,0.23811793,0.5199017
alexnet_w1_mlp_simclrhn_probe3,1,445,NaN,elephant,dog,c10,0445_cop_dnn_c10_dog_10_n02092339_2268.png,n02092339_2268.png,0.0,0.09812002,0.33270168,-0.16587429
alexnet_w1_mlp_simclrhn_probe3,1,446,NaN,cat,cat,c100,0446_cop_dnn_c100_cat_10_n02123394_2034.png,n02123394_2034.png,1.0,4.4696617,1.286003,2.2511866
alexnet_w1_mlp_simclrhn_probe3,1,447,NaN,knife,keyboard,c01,0447_cop_dnn_c01_keyboard_10_n03085013_24442.png,n03085013_24442.png,0.0,0.03334041,0.6048092,-0.40408948
alexnet_w1_mlp_simclrhn_probe3,1,448,NaN,knife,bicycle,c03,0448_cop_dnn_c03_bicycle_10_n03792782_12908.png,n03792782_12908.png,0.0,-0.28637677,0.2376228,-0.37052366
alexnet_w1_mlp_simclrhn_probe3,1,449,NaN,cat,cat,c50,0449_cop_dnn_c50_cat_10_n02124075_10241.png,n02124075_10241.png,1.0,5.6954703,0.5595156,3.6316686
alexnet_w1_mlp_simclrhn_probe3,1,450,NaN,knife,keyboard,c03,0450_cop_dnn_c03_keyboard_10_n03085013_29941.png,n03085013_29941.png,0.0,0.15482134,0.59792876,-0.31332427
alexnet_w1_mlp_simclrhn_probe3,1,451,NaN,clock,car,c05,0451_cop_dnn_c05_car_10_n03100240_5718.png,n03100240_5718.png,0.0,-0.20991671,0.40843096,-0.43723783
alexnet_w1_mlp_simclrhn_probe3,1,452,NaN,knife,bear,c01,0452_cop_dnn_c01_bear_10_n02133161_789.png,n02133161_789.png,0.0,-0.08153595,0.2657967,-0.24560128
alexnet_w1_mlp_simclrhn_probe3,1,453,NaN,chair,chair,c30,0453_cop_dnn_c30_chair_10_n04099969_9891.png,n04099969_9891.png,1.0,0.9034372,0.49513832,0.28871092
alexnet_w1_mlp_simclrhn_probe3,1,454,NaN,knife,knife,c01,0454_cop_dnn_c01_knife_10_n03041632_8666.png,n03041632_8666.png,1.0,0.3182673,0.19021904,0.090543784
alexnet_w1_mlp_simclrhn_probe3,1,455,NaN,clock,car,c10,0455_cop_dnn_c10_car_10_n03100240_52.png,n03100240_52.png,0.0,0.16176225,0.41431615,-0.17858256
alexnet_w1_mlp_simclrhn_probe3,1,456,NaN,knife,bird,c10,0456_cop_dnn_c10_bird_10_n02007558_45529.png,n02007558_45529.png,0.0,0.09239501,0.2039651,-0.07889197
alexnet_w1_mlp_simclrhn_probe3,1,457,NaN,knife,airplane,c15,0457_cop_dnn_c15_airplane_10_n02690373_1933.png,n02690373_1933.png,0.0,0.28423592,0.31983367,-0.025171405
alexnet_w1_mlp_simclrhn_probe3,1,458,NaN,knife,elephant,c03,0458_cop_dnn_c03_elephant_10_n02504013_1879.png,n02504013_1879.png,0.0,0.080745906,0.27476457,-0.1371919
alexnet_w1_mlp_simclrhn_probe3,1,459,NaN,car,car,c10,0459_cop_dnn_c10_car_10_n03100240_3373.png,n03100240_3373.png,1.0,1.3815836,0.41747922,0.6817247
alexnet_w1_mlp_simclrhn_probe3,1,460,NaN,cat,bicycle,c15,0460_cop_dnn_c15_bicycle_10_n03792782_7331.png,n03792782_7331.png,0.0,-0.28259307,0.16387922,-0.3157036
alexnet_w1_mlp_simclrhn_probe3,1,461,NaN,knife,chair,c100,0461_cop_dnn_c100_chair_10_n03376595_11049.png,n03376595_11049.png,0.0,0.21962205,0.9880459,-0.5433577
alexnet_w1_mlp_simclrhn_probe3,1,462,NaN,knife,knife,c50,0462_cop_dnn_c50_knife_10_n03041632_37274.png,n03041632_37274.png,1.0,0.5549445,0.53758264,0.012276703
alexnet_w1_mlp_simclrhn_probe3,1,463,NaN,bottle,bottle,c15,0463_cop_dnn_c15_bottle_10_n02823428_780.png,n02823428_780.png,1.0,1.1653215,0.3263567,0.5932377
alexnet_w1_mlp_simclrhn_probe3,1,464,NaN,knife,cat,c05,0464_cop_dnn_c05_cat_10_n02123045_390.png,n02123045_390.png,0.0,0.13112117,0.29393774,-0.1151287
alexnet_w1_mlp_simclrhn_probe3,1,465,NaN,bird,bird,c30,0465_cop_dnn_c30_bird_10_n01796340_10024.png,n01796340_10024.png,1.0,0.6415031,0.3395662,0.21350163
alexnet_w1_mlp_simclrhn_probe3,1,466,NaN,knife,knife,c05,0466_cop_dnn_c05_knife_10_n03041632_13509.png,n03041632_13509.png,1.0,0.85033053,0.27102092,0.40963376
alexnet_w1_mlp_simclrhn_probe3,1,467,NaN,knife,bird,c05,0467_cop_dnn_c05_bird_10_n01534433_14198.png,n01534433_14198.png,0.0,0.12962678,0.27198452,-0.10066212
alexnet_w1_mlp_simclrhn_probe3,1,468,NaN,chair,chair,c100,0468_cop_dnn_c100_chair_10_n04099969_2502.png,n04099969_2502.png,1.0,1.5885375,1.5878288,0.00050112605
alexnet_w1_mlp_simclrhn_probe3,1,469,NaN,knife,cat,c05,0469_cop_dnn_c05_cat_10_n02123045_15474.png,n02123045_15474.png,0.0,0.13668166,0.21371761,-0.054472644
alexnet_w1_mlp_simclrhn_probe3,1,470,NaN,clock,clock,c30,0470_cop_dnn_c30_clock_10_n02708093_442.png,n02708093_442.png,1.0,1.0708013,0.8119475,0.18303724
alexnet_w1_mlp_simclrhn_probe3,1,471,NaN,keyboard,boat,c100,0471_cop_dnn_c100_boat_10_n02951358_12663.png,n02951358_12663.png,0.0,-0.07676554,0.9965235,-0.75892997
alexnet_w1_mlp_simclrhn_probe3,1,472,NaN,oven,cat,c05,0472_cop_dnn_c05_cat_10_n02125311_37322.png,n02125311_37322.png,0.0,0.04817151,0.15826087,-0.07784493
alexnet_w1_mlp_simclrhn_probe3,1,473,NaN,bird,bird,c100,0473_cop_dnn_c100_bird_10_n01558993_5185.png,n01558993_5185.png,1.0,0.8921674,0.36593676,0.37210125
alexnet_w1_mlp_simclrhn_probe3,1,474,NaN,elephant,elephant,c100,0474_cop_dnn_c100_elephant_10_n02504013_7248.png,n02504013_7248.png,1.0,6.2027674,1.6345534,3.230215
alexnet_w1_mlp_simclrhn_probe3,1,475,NaN,knife,bottle,c01,0475_cop_dnn_c01_bottle_10_n02823428_4245.png,n02823428_4245.png,0.0,0.1911336,0.37482598,-0.12989013
alexnet_w1_mlp_simclrhn_probe3,1,476,NaN,chair,chair,c10,0476_cop_dnn_c10_chair_10_n04099969_8993.png,n04099969_8993.png,1.0,0.6745585,0.38560885,0.20431827
alexnet_w1_mlp_simclrhn_probe3,1,477,NaN,dog,dog,c30,0477_cop_dnn_c30_dog_10_n02101388_8775.png,n02101388_8775.png,1.0,1.3078843,0.25349376,0.7455667
alexnet_w1_mlp_simclrhn_probe3,1,478,NaN,knife,car,c01,0478_cop_dnn_c01_car_10_n02814533_3590.png,n02814533_3590.png,0.0,-0.34000668,0.34114948,-0.48165014
alexnet_w1_mlp_simclrhn_probe3,1,479,NaN,elephant,elephant,c05,0479_cop_dnn_c05_elephant_10_n02504458_6018.png,n02504458_6018.png,1.0,0.680187,0.27523935,0.28634122
alexnet_w1_mlp_simclrhn_probe3,1,480,NaN,keyboard,keyboard,c100,0480_cop_dnn_c100_keyboard_10_n03085013_11332.png,n03085013_11332.png,1.0,8.970964,1.8163723,5.0590606
alexnet_w1_mlp_simclrhn_probe3,1,481,NaN,oven,oven,c05,0481_cop_dnn_c05_oven_10_n04111531_6863.png,n04111531_6863.png,1.0,0.28400257,0.21917205,0.045842107
alexnet_w1_mlp_simclrhn_probe3,1,482,NaN,airplane,airplane,c50,0482_cop_dnn_c50_airplane_10_n02690373_2675.png,n02690373_2675.png,1.0,1.4913318,0.69911844,0.5601795
alexnet_w1_mlp_simclrhn_probe3,1,483,NaN,knife,dog,c01,0483_cop_dnn_c01_dog_10_n02106550_660.png,n02106550_660.png,0.0,-0.12635705,0.3102984,-0.30876204
alexnet_w1_mlp_simclrhn_probe3,1,484,NaN,knife,knife,c15,0484_cop_dnn_c15_knife_10_n03041632_11700.png,n03041632_11700.png,1.0,0.55756426,0.4688317,0.0627434
alexnet_w1_mlp_simclrhn_probe3,1,485,NaN,bird,bird,c15,0485_cop_dnn_c15_bird_10_n02009229_6149.png,n02009229_6149.png,1.0,1.0091166,0.17478317,0.5899629
alexnet_w1_mlp_simclrhn_probe3,1,486,NaN,keyboard,clock,c30,0486_cop_dnn_c30_clock_10_n03196217_3780.png,n03196217_3780.png,0.0,0.81626266,1.489881,-0.47632012
alexnet_w1_mlp_simclrhn_probe3,1,487,NaN,bird,bird,c100,0487_cop_dnn_c100_bird_10_n01530575_34173.png,n01530575_34173.png,1.0,4.613648,0.72990906,2.7462182
alexnet_w1_mlp_simclrhn_probe3,1,488,NaN,bottle,bottle,c100,0488_cop_dnn_c100_bottle_10_n03983396_17803.png,n03983396_17803.png,1.0,10.965841,2.2253752,6.180443
alexnet_w1_mlp_simclrhn_probe3,1,489,NaN,knife,oven,c05,0489_cop_dnn_c05_oven_10_n04111531_2156.png,n04111531_2156.png,0.0,0.19317831,0.32408533,-0.09256524
alexnet_w1_mlp_simclrhn_probe3,1,490,NaN,elephant,elephant,c10,0490_cop_dnn_c10_elephant_10_n02504013_14948.png,n02504013_14948.png,1.0,1.9833434,0.5068629,1.0440294
alexnet_w1_mlp_simclrhn_probe3,1,491,NaN,knife,boat,c01,0491_cop_dnn_c01_boat_10_n04273569_3112.png,n04273569_3112.png,0.0,-0.09193357,0.37334836,-0.32900402
alexnet_w1_mlp_simclrhn_probe3,1,492,NaN,bird,bird,c50,0492_cop_dnn_c50_bird_10_n01560419_6583.png,n01560419_6583.png,1.0,2.0420077,-0.016124493,1.4553193
alexnet_w1_mlp_simclrhn_probe3,1,493,NaN,keyboard,keyboard,c50,0493_cop_dnn_c50_keyboard_10_n03085013_19161.png,n03085013_19161.png,1.0,1.7593324,0.7326718,0.72595876
alexnet_w1_mlp_simclrhn_probe3,1,494,NaN,knife,bird,c05,0494_cop_dnn_c05_bird_10_n01616318_57023.png,n01616318_57023.png,0.0,-0.07095159,0.30947316,-0.26900092
alexnet_w1_mlp_simclrhn_probe3,1,495,NaN,truck,truck,c50,0495_cop_dnn_c50_truck_10_n04467665_69176.png,n04467665_69176.png,1.0,1.4566836,1.0554829,0.2836918
alexnet_w1_mlp_simclrhn_probe3,1,496,NaN,car,car,c50,0496_cop_dnn_c50_car_10_n03100240_4971.png,n03100240_4971.png,1.0,6.6209397,3.2118874,2.4105642
alexnet_w1_mlp_simclrhn_probe3,1,497,NaN,knife,oven,c01,0497_cop_dnn_c01_oven_10_n04111531_4901.png,n04111531_4901.png,0.0,0.0984052,0.30115125,-0.1433631
alexnet_w1_mlp_simclrhn_probe3,1,498,NaN,bear,bear,c30,0498_cop_dnn_c30_bear_10_n02133161_4091.png,n02133161_4091.png,1.0,1.252395,0.28033125,0.6873529
alexnet_w1_mlp_simclrhn_probe3,1,499,NaN,knife,cat,c03,0499_cop_dnn_c03_cat_10_n02123394_4164.png,n02123394_4164.png,0.0,0.011994491,0.21041405,-0.14030382
alexnet_w1_mlp_simclrhn_probe3,1,500,NaN,knife,bird,c03,0500_cop_dnn_c03_bird_10_n02017213_689.png,n02017213_689.png,0.0,0.06390595,0.23887613,-0.123722605
alexnet_w1_mlp_simclrhn_probe3,1,501,NaN,dog,dog,c100,0501_cop_dnn_c100_dog_10_n02109047_14207.png,n02109047_14207.png,1.0,0.9894747,0.26117885,0.51498294
alexnet_w1_mlp_simclrhn_probe3,1,502,NaN,bottle,elephant,c05,0502_cop_dnn_c05_elephant_10_n02504013_8347.png,n02504013_8347.png,0.0,0.14516251,0.20951477,-0.045503918
alexnet_w1_mlp_simclrhn_probe3,1,503,NaN,bottle,bottle,c30,0503_cop_dnn_c30_bottle_10_n04591713_1652.png,n04591713_1652.png,1.0,1.3593904,1.0337251,0.2302801
alexnet_w1_mlp_simclrhn_probe3,1,504,NaN,oven,oven,c15,0504_cop_dnn_c15_oven_10_n04111531_22403.png,n04111531_22403.png,1.0,1.1815728,0.17851688,0.7092677
alexnet_w1_mlp_simclrhn_probe3,1,505,NaN,airplane,airplane,c100,0505_cop_dnn_c100_airplane_10_n02690373_6046.png,n02690373_6046.png,1.0,18.800276,1.3340505,12.350486
alexnet_w1_mlp_simclrhn_probe3,1,506,NaN,bear,bear,c15,0506_cop_dnn_c15_bear_10_n02134084_1689.png,n02134084_1689.png,1.0,0.45252728,0.3730719,0.056183435
alexnet_w1_mlp_simclrhn_probe3,1,507,NaN,oven,oven,c30,0507_cop_dnn_c30_oven_10_n04111531_14269.png,n04111531_14269.png,1.0,1.9576172,0.7582613,0.84807265
alexnet_w1_mlp_simclrhn_probe3,1,508,NaN,cat,cat,c100,0508_cop_dnn_c100_cat_10_n02123597_9444.png,n02123597_9444.png,1.0,4.6096187,1.5634453,2.1539698
alexnet_w1_mlp_simclrhn_probe3,1,509,NaN,bear,bear,c10,0509_cop_dnn_c10_bear_10_n02134418_128.png,n02134418_128.png,1.0,0.9339305,0.37624395,0.39434397
alexnet_w1_mlp_simclrhn_probe3,1,510,NaN,airplane,airplane,c30,0510_cop_dnn_c30_airplane_10_n02690373_8789.png,n02690373_8789.png,1.0,5.1945095,1.1834804,2.836226
alexnet_w1_mlp_simclrhn_probe3,1,511,NaN,knife,bottle,c01,0511_cop_dnn_c01_bottle_10_n03937543_10092.png,n03937543_10092.png,0.0,0.12621236,0.36725986,-0.17044632
alexnet_w1_mlp_simclrhn_probe3,1,512,NaN,clock,clock,c03,0512_cop_dnn_c03_clock_10_n02708093_7257.png,n02708093_7257.png,1.0,0.830267,0.32949924,0.3540963
alexnet_w1_mlp_simclrhn_probe3,1,513,NaN,bear,bear,c100,0513_cop_dnn_c100_bear_10_n02134084_21207.png,n02134084_21207.png,1.0,4.634446,3.3142853,0.9334947
alexnet_w1_mlp_simclrhn_probe3,1,514,NaN,knife,bird,c05,0514_cop_dnn_c05_bird_10_n01797886_12811.png,n01797886_12811.png,0.0,0.08027856,0.18073021,-0.07103004
alexnet_w1_mlp_simclrhn_probe3,1,515,NaN,knife,oven,c01,0515_cop_dnn_c01_oven_10_n04111531_21248.png,n04111531_21248.png,0.0,0.09790664,0.27375486,-0.12434347
alexnet_w1_mlp_simclrhn_probe3,1,516,NaN,elephant,dog,c15,0516_cop_dnn_c15_dog_10_n02090379_5574.png,n02090379_5574.png,0.0,0.22795469,0.23492952,-0.0049319505
alexnet_w1_mlp_simclrhn_probe3,1,517,NaN,car,car,c15,0517_cop_dnn_c15_car_10_n04285008_8443.png,n04285008_8443.png,1.0,2.6540673,0.5731464,1.4714333
alexnet_w1_mlp_simclrhn_probe3,1,518,NaN,car,car,c100,0518_cop_dnn_c100_car_10_n03100240_15647.png,n03100240_15647.png,1.0,7.1341643,6.104492,0.72808814
alexnet_w1_mlp_simclrhn_probe3,1,519,NaN,chair,chair,c50,0519_cop_dnn_c50_chair_10_n02791124_5824.png,n02791124_5824.png,1.0,2.304355,0.70054346,1.134066
alexnet_w1_mlp_simclrhn_probe3,1,520,NaN,oven,bear,c05,0520_cop_dnn_c05_bear_10_n02133161_9949.png,n02133161_9949.png,0.0,0.022528937,0.22469959,-0.14295624
alexnet_w1_mlp_simclrhn_probe3,1,521,NaN,knife,elephant,c03,0521_cop_dnn_c03_elephant_10_n02504458_5320.png,n02504458_5320.png,0.0,-0.13579315,0.33318076,-0.33161464
alexnet_w1_mlp_simclrhn_probe3,1,522,NaN,knife,keyboard,c01,0522_cop_dnn_c01_keyboard_10_n04505470_1904.png,n04505470_1904.png,0.0,-0.07520138,0.40948233,-0.34272313
alexnet_w1_mlp_simclrhn_probe3,1,523,NaN,oven,oven,c100,0523_cop_dnn_c100_oven_10_n04111531_4685.png,n04111531_4685.png,1.0,3.1624856,0.4000218,1.953357
alexnet_w1_mlp_simclrhn_probe3,1,524,NaN,truck,truck,c05,0524_cop_dnn_c05_truck_10_n03417042_2230.png,n03417042_2230.png,1.0,0.34804177,0.24996996,0.06934725
alexnet_w1_mlp_simclrhn_probe3,1,525,NaN,bottle,bottle,c15,0525_cop_dnn_c15_bottle_10_n04591713_6842.png,n04591713_6842.png,1.0,0.30253854,0.22813009,0.052614726
alexnet_w1_mlp_simclrhn_probe3,1,526,NaN,boat,boat,c50,0526_cop_dnn_c50_boat_10_n02951358_8285.png,n02951358_8285.png,1.0,1.279364,0.89903396,0.26893395
alexnet_w1_mlp_simclrhn_probe3,1,527,NaN,knife,knife,c01,0527_cop_dnn_c01_knife_10_n03041632_48675.png,n03041632_48675.png,1.0,0.43438748,0.21309884,0.1564747
alexnet_w1_mlp_simclrhn_probe3,1,528,NaN,knife,oven,c01,0528_cop_dnn_c01_oven_10_n04111531_14435.png,n04111531_14435.png,0.0,0.09521952,0.30074394,-0.14532772
alexnet_w1_mlp_simclrhn_probe3,1,529,NaN,cat,cat,c50,0529_cop_dnn_c50_cat_10_n02123159_8273.png,n02123159_8273.png,1.0,8.309346,0.8849328,5.249853
alexnet_w1_mlp_simclrhn_probe3,1,530,NaN,bird,bird,c50,0530_cop_dnn_c50_bird_10_n01614925_1908.png,n01614925_1908.png,1.0,2.37912,0.9860967,0.98501635
alexnet_w1_mlp_simclrhn_probe3,1,531,NaN,knife,knife,c05,0531_cop_dnn_c05_knife_10_n03041632_96345.png,n03041632_96345.png,1.0,0.3959954,0.25073647,0.10271358
alexnet_w1_mlp_simclrhn_probe3,1,532,NaN,knife,knife,c10,0532_cop_dnn_c10_knife_10_n03041632_31037.png,n03041632_31037.png,1.0,0.48521903,0.13835934,0.24526684
alexnet_w1_mlp_simclrhn_probe3,1,533,NaN,airplane,airplane,c50,0533_cop_dnn_c50_airplane_10_n02690373_1436.png,n02690373_1436.png,1.0,2.3149796,0.6479724,1.1787521
alexnet_w1_mlp_simclrhn_probe3,1,534,NaN,chair,chair,c100,0534_cop_dnn_c100_chair_10_n04099969_28072.png,n04099969_28072.png,1.0,3.5776758,1.8033355,1.2546481
alexnet_w1_mlp_simclrhn_probe3,1,535,NaN,knife,boat,c01,0535_cop_dnn_c01_boat_10_n04612504_19983.png,n04612504_19983.png,0.0,-0.10954203,0.3866158,-0.35083658
alexnet_w1_mlp_simclrhn_probe3,1,536,NaN,oven,oven,c15,0536_cop_dnn_c15_oven_10_n04111531_8255.png,n04111531_8255.png,1.0,0.9808898,0.4409452,0.38179848
alexnet_w1_mlp_simclrhn_probe3,1,537,NaN,elephant,bear,c15,0537_cop_dnn_c15_bear_10_n02132136_1574.png,n02132136_1574.png,0.0,0.72071195,1.3978541,-0.4788118
alexnet_w1_mlp_simclrhn_probe3,1,538,NaN,boat,boat,c100,0538_cop_dnn_c100_boat_10_n04273569_24747.png,n04273569_24747.png,1.0,5.437122,0.89586556,3.2111533
alexnet_w1_mlp_simclrhn_probe3,1,539,NaN,oven,dog,c30,0539_cop_dnn_c30_dog_10_n02113799_18413.png,n02113799_18413.png,0.0,0.31265485,0.9963477,-0.4834439
alexnet_w1_mlp_simclrhn_probe3,1,540,NaN,boat,boat,c15,0540_cop_dnn_c15_boat_10_n04273569_28333.png,n04273569_28333.png,1.0,2.0020554,0.22630394,1.2556459
alexnet_w1_mlp_simclrhn_probe3,1,541,NaN,knife,bird,c01,0541_cop_dnn_c01_bird_10_n02017213_2183.png,n02017213_2183.png,0.0,-0.058453422,0.3203704,-0.2678689
alexnet_w1_mlp_simclrhn_probe3,1,542,NaN,boat,boat,c50,0542_cop_dnn_c50_boat_10_n04273569_26139.png,n04273569_26139.png,1.0,3.249651,1.419157,1.2943547
alexnet_w1_mlp_simclrhn_probe3,1,543,NaN,knife,knife,c03,0543_cop_dnn_c03_knife_10_n03041632_29684.png,n03041632_29684.png,1.0,0.43078232,0.36768612,0.04461575
alexnet_w1_mlp_simclrhn_probe3,1,544,NaN,bicycle,boat,c100,0544_cop_dnn_c100_boat_10_n02951358_3087.png,n02951358_3087.png,0.0,1.230219,1.3862971,-0.110363886
alexnet_w1_mlp_simclrhn_probe3,1,545,NaN,keyboard,keyboard,c15,0545_cop_dnn_c15_keyboard_10_n03085013_13615.png,n03085013_13615.png,1.0,0.98048735,0.59202665,0.2746832
alexnet_w1_mlp_simclrhn_probe3,1,546,NaN,knife,oven,c03,0546_cop_dnn_c03_oven_10_n04111531_1778.png,n04111531_1778.png,0.0,0.25845522,0.2656931,-0.005117955
alexnet_w1_mlp_simclrhn_probe3,1,547,NaN,knife,dog,c03,0547_cop_dnn_c03_dog_10_n02097474_9129.png,n02097474_9129.png,0.0,-0.08324301,0.27181742,-0.25106564
alexnet_w1_mlp_simclrhn_probe3,1,548,NaN,bird,bird,c30,0548_cop_dnn_c30_bird_10_n02013706_19220.png,n02013706_19220.png,1.0,1.5019069,0.13883139,0.96383995
alexnet_w1_mlp_simclrhn_probe3,1,549,NaN,keyboard,clock,c100,0549_cop_dnn_c100_clock_10_n03196217_7199.png,n03196217_7199.png,0.0,2.8555672,3.3030553,-0.31642187
alexnet_w1_mlp_simclrhn_probe3,1,550,NaN,bear,bear,c50,0550_cop_dnn_c50_bear_10_n02132136_27823.png,n02132136_27823.png,1.0,4.2823677,2.639623,1.161596
alexnet_w1_mlp_simclrhn_probe3,1,551,NaN,knife,boat,c03,0551_cop_dnn_c03_boat_10_n03662601_6462.png,n03662601_6462.png,0.0,-0.12421306,0.33074364,-0.321703
alexnet_w1_mlp_simclrhn_probe3,1,552,NaN,clock,knife,c15,0552_cop_dnn_c15_knife_10_n03041632_11773.png,n03041632_11773.png,0.0,0.22038665,0.22423899,-0.002724014
alexnet_w1_mlp_simclrhn_probe3,1,553,NaN,knife,clock,c01,0553_cop_dnn_c01_clock_10_n02708093_7998.png,n02708093_7998.png,0.0,0.39811063,0.45048314,-0.03703296
alexnet_w1_mlp_simclrhn_probe3,1,554,NaN,elephant,elephant,c30,0554_cop_dnn_c30_elephant_10_n02504458_3409.png,n02504458_3409.png,1.0,7.0821066,2.0658329,3.5470412
alexnet_w1_mlp_simclrhn_probe3,1,555,NaN,knife,bottle,c01,0555_cop_dnn_c01_bottle_10_n04560804_24166.png,n04560804_24166.png,0.0,0.20179753,0.26982936,-0.048105773
alexnet_w1_mlp_simclrhn_probe3,1,556,NaN,cat,cat,c15,0556_cop_dnn_c15_cat_10_n02125311_17613.png,n02125311_17613.png,1.0,0.45341828,0.3251657,0.09068828
alexnet_w1_mlp_simclrhn_probe3,1,557,NaN,knife,bicycle,c05,0557_cop_dnn_c05_bicycle_10_n03792782_5284.png,n03792782_5284.png,0.0,-0.20952737,0.28446132,-0.34930277
alexnet_w1_mlp_simclrhn_probe3,1,558,NaN,chair,oven,c10,0558_cop_dnn_c10_oven_10_n04111531_13006.png,n04111531_13006.png,0.0,0.5099842,0.5361642,-0.018512076
alexnet_w1_mlp_simclrhn_probe3,1,559,NaN,oven,oven,c10,0559_cop_dnn_c10_oven_10_n04111531_8309.png,n04111531_8309.png,1.0,0.38225847,0.28412715,0.06938933
alexnet_w1_mlp_simclrhn_probe3,1,560,NaN,clock,clock,c10,0560_cop_dnn_c10_clock_10_n04548280_8390.png,n04548280_8390.png,1.0,0.5683333,0.25698745,0.22015478
alexnet_w1_mlp_simclrhn_probe3,1,561,NaN,truck,truck,c50,0561_cop_dnn_c50_truck_10_n04467665_7110.png,n04467665_7110.png,1.0,3.7201447,0.22252567,2.4731903
alexnet_w1_mlp_simclrhn_probe3,1,562,NaN,knife,clock,c10,0562_cop_dnn_c10_clock_10_n03196217_8020.png,n03196217_8020.png,0.0,0.32844207,0.53143436,-0.14353722
alexnet_w1_mlp_simclrhn_probe3,1,563,NaN,elephant,elephant,c100,0563_cop_dnn_c100_elephant_10_n02504458_7955.png,n02504458_7955.png,1.0,16.607075,6.275132,7.3057866
alexnet_w1_mlp_simclrhn_probe3,1,564,NaN,knife,elephant,c01,0564_cop_dnn_c01_elephant_10_n02504458_1022.png,n02504458_1022.png,0.0,-0.2022734,0.37877676,-0.4108645
alexnet_w1_mlp_simclrhn_probe3,1,565,NaN,clock,clock,c100,0565_cop_dnn_c100_clock_10_n04548280_2383.png,n04548280_2383.png,1.0,4.8545017,1.8998507,2.0892537
alexnet_w1_mlp_simclrhn_probe3,1,566,NaN,bird,bird,c50,0566_cop_dnn_c50_bird_10_n02002724_7019.png,n02002724_7019.png,1.0,1.5838085,0.6055757,0.6917151
alexnet_w1_mlp_simclrhn_probe3,1,567,NaN,cat,cat,c100,0567_cop_dnn_c100_cat_10_n02125311_1127.png,n02125311_1127.png,1.0,3.5073948,1.7437147,1.2471101
alexnet_w1_mlp_simclrhn_probe3,1,568,NaN,knife,bicycle,c05,0568_cop_dnn_c05_bicycle_10_n02835271_6481.png,n02835271_6481.png,0.0,-0.24355304,0.2198637,-0.32768515
alexnet_w1_mlp_simclrhn_probe3,1,569,NaN,car,car,c15,0569_cop_dnn_c15_car_10_n04285008_5208.png,n04285008_5208.png,1.0,1.4129373,0.57640207,0.5915197
alexnet_w1_mlp_simclrhn_probe3,1,570,NaN,keyboard,oven,c50,0570_cop_dnn_c50_oven_10_n04111531_8658.png,n04111531_8658.png,0.0,0.9984087,1.5698804,-0.4040915
alexnet_w1_mlp_simclrhn_probe3,1,571,NaN,bottle,bottle,c05,0571_cop_dnn_c05_bottle_10_n04579145_2910.png,n04579145_2910.png,1.0,0.34582242,0.2512599,0.06686581
alexnet_w1_mlp_simclrhn_probe3,1,572,NaN,knife,truck,c01,0572_cop_dnn_c01_truck_10_n04467665_22414.png,n04467665_22414.png,0.0,-0.27271542,0.35412887,-0.44324586
alexnet_w1_mlp_simclrhn_probe3,1,573,NaN,elephant,elephant,c15,0573_cop_dnn_c15_elephant_10_n02504013_5439.png,n02504013_5439.png,1.0,0.7327043,0.54043555,0.13595453
alexnet_w1_mlp_simclrhn_probe3,1,574,NaN,cat,cat,c10,0574_cop_dnn_c10_cat_10_n02123159_5945.png,n02123159_5945.png,1.0,0.96171457,0.16662775,0.5622113
alexnet_w1_mlp_simclrhn_probe3,1,575,NaN,bottle,bottle,c10,0575_cop_dnn_c10_bottle_10_n04557648_2426.png,n04557648_2426.png,1.0,0.7444356,0.33317858,0.29080263
alexnet_w1_mlp_simclrhn_probe3,1,576,NaN,knife,bicycle,c05,0576_cop_dnn_c05_bicycle_10_n03792782_38641.png,n03792782_38641.png,0.0,0.23064277,0.47315508,-0.1714821
alexnet_w1_mlp_simclrhn_probe3,1,577,NaN,elephant,dog,c30,0577_cop_dnn_c30_dog_10_n02110958_15843.png,n02110958_15843.png,0.0,0.12911558,0.60175014,-0.3342031
alexnet_w1_mlp_simclrhn_probe3,1,578,NaN,keyboard,keyboard,c15,0578_cop_dnn_c15_keyboard_10_n04505470_5161.png,n04505470_5161.png,1.0,1.6540716,0.37254828,0.90617377
alexnet_w1_mlp_simclrhn_probe3,1,579,NaN,airplane,airplane,c30,0579_cop_dnn_c30_airplane_10_n02690373_8350.png,n02690373_8350.png,1.0,2.864864,1.0025237,1.3168736
alexnet_w1_mlp_simclrhn_probe3,1,580,NaN,knife,bicycle,c05,0580_cop_dnn_c05_bicycle_10_n03792782_10129.png,n03792782_10129.png,0.0,-0.17415948,0.20531254,-0.26832724
alexnet_w1_mlp_simclrhn_probe3,1,581,NaN,car,car,c100,0581_cop_dnn_c100_car_10_n02814533_26369.png,n02814533_26369.png,1.0,5.2742553,2.483848,1.9731159
alexnet_w1_mlp_simclrhn_probe3,1,582,NaN,oven,oven,c10,0582_cop_dnn_c10_oven_10_n04111531_10077.png,n04111531_10077.png,1.0,1.3850231,0.41815495,0.68367904
alexnet_w1_mlp_simclrhn_probe3,1,583,NaN,knife,oven,c01,0583_cop_dnn_c01_oven_10_n04111531_12702.png,n04111531_12702.png,0.0,0.13008495,0.39591044,-0.18796702
alexnet_w1_mlp_simclrhn_probe3,1,584,NaN,keyboard,clock,c100,0584_cop_dnn_c100_clock_10_n03196217_8618.png,n03196217_8618.png,0.0,2.0958014,2.5588815,-0.32744715
alexnet_w1_mlp_simclrhn_probe3,1,585,NaN,bottle,bottle,c10,0585_cop_dnn_c10_bottle_10_n03983396_4227.png,n03983396_4227.png,1.0,0.92885697,0.5267961,0.28429997
alexnet_w1_mlp_simclrhn_probe3,1,586,NaN,bottle,bottle,c30,0586_cop_dnn_c30_bottle_10_n03983396_9090.png,n03983396_9090.png,1.0,1.5402952,0.88379437,0.46421623
alexnet_w1_mlp_simclrhn_probe3,1,587,NaN,bear,bear,c100,0587_cop_dnn_c100_bear_10_n02133161_223.png,n02133161_223.png,1.0,3.2610655,1.2387187,1.4300151
alexnet_w1_mlp_simclrhn_probe3,1,588,NaN,keyboard,keyboard,c50,0588_cop_dnn_c50_keyboard_10_n04505470_1047.png,n04505470_1047.png,1.0,3.6454127,1.0240091,1.8536123
alexnet_w1_mlp_simclrhn_probe3,1,589,NaN,knife,elephant,c03,0589_cop_dnn_c03_elephant_10_n02504013_7467.png,n02504013_7467.png,0.0,-0.13962731,0.37603354,-0.3646273
alexnet_w1_mlp_simclrhn_probe3,1,590,NaN,elephant,elephant,c30,0590_cop_dnn_c30_elephant_10_n02504013_476.png,n02504013_476.png,1.0,1.852562,0.84321994,0.7137126
alexnet_w1_mlp_simclrhn_probe3,1,591,NaN,chair,chair,c100,0591_cop_dnn_c100_chair_10_n02791124_12707.png,n02791124_12707.png,1.0,3.1345022,1.5103782,1.148429
alexnet_w1_mlp_simclrhn_probe3,1,592,NaN,knife,bird,c01,0592_cop_dnn_c01_bird_10_n01537544_22049.png,n01537544_22049.png,0.0,-0.01670325,0.31389254,-0.23376653
alexnet_w1_mlp_simclrhn_probe3,1,593,NaN,bottle,bicycle,c05,0593_cop_dnn_c05_bicycle_10_n02835271_4220.png,n02835271_4220.png,0.0,-0.15054886,0.28930345,-0.31102255
alexnet_w1_mlp_simclrhn_probe3,1,594,NaN,truck,truck,c10,0594_cop_dnn_c10_truck_10_n03417042_7530.png,n03417042_7530.png,1.0,0.5719354,0.40862545,0.115477584
alexnet_w1_mlp_simclrhn_probe3,1,595,NaN,knife,bear,c03,0595_cop_dnn_c03_bear_10_n02134418_12457.png,n02134418_12457.png,0.0,0.024023496,0.26191917,-0.16821764
alexnet_w1_mlp_simclrhn_probe3,1,596,NaN,bottle,bottle,c50,0596_cop_dnn_c50_bottle_10_n04557648_10265.png,n04557648_10265.png,1.0,3.1399348,0.42716864,1.9182154
alexnet_w1_mlp_simclrhn_probe3,1,597,NaN,clock,clock,c15,0597_cop_dnn_c15_clock_10_n02708093_2025.png,n02708093_2025.png,1.0,0.85706455,0.6950472,0.11456356
alexnet_w1_mlp_simclrhn_probe3,1,598,NaN,bicycle,chair,c15,0598_cop_dnn_c15_chair_10_n03376595_1961.png,n03376595_1961.png,0.0,0.47538835,0.5954691,-0.08490993
alexnet_w1_mlp_simclrhn_probe3,1,599,NaN,knife,bear,c05,0599_cop_dnn_c05_bear_10_n02134084_67.png,n02134084_67.png,0.0,0.27809626,0.30371922,-0.018118171
alexnet_w1_mlp_simclrhn_probe3,1,600,NaN,cat,cat,c50,0600_cop_dnn_c50_cat_10_n02123045_455.png,n02123045_455.png,1.0,5.8068604,0.4937494,3.7569368
alexnet_w1_mlp_simclrhn_probe3,1,601,NaN,car,car,c10,0601_cop_dnn_c10_car_10_n03100240_13929.png,n03100240_13929.png,1.0,1.0094336,0.28902984,0.5094024
alexnet_w1_mlp_simclrhn_probe3,1,602,NaN,elephant,elephant,c10,0602_cop_dnn_c10_elephant_10_n02504458_4997.png,n02504458_4997.png,1.0,1.4043078,0.38230002,0.72266865
alexnet_w1_mlp_simclrhn_probe3,1,603,NaN,oven,airplane,c10,0603_cop_dnn_c10_airplane_10_n02690373_5344.png,n02690373_5344.png,0.0,0.13338606,0.26817477,-0.09531001
alexnet_w1_mlp_simclrhn_probe3,1,604,NaN,knife,oven,c01,0604_cop_dnn_c01_oven_10_n04111531_797.png,n04111531_797.png,0.0,0.086492255,0.36764398,-0.19880429
alexnet_w1_mlp_simclrhn_probe3,1,605,NaN,boat,boat,c30,0605_cop_dnn_c30_boat_10_n04273569_3085.png,n04273569_3085.png,1.0,4.1844115,1.4132025,1.9595407
alexnet_w1_mlp_simclrhn_probe3,1,606,NaN,oven,oven,c100,0606_cop_dnn_c100_oven_10_n04111531_9113.png,n04111531_9113.png,1.0,5.7081585,1.1018072,3.2571824
alexnet_w1_mlp_simclrhn_probe3,1,607,NaN,knife,boat,c03,0607_cop_dnn_c03_boat_10_n03662601_18803.png,n03662601_18803.png,0.0,0.06501664,0.23134959,-0.117615156
alexnet_w1_mlp_simclrhn_probe3,1,608,NaN,knife,truck,c03,0608_cop_dnn_c03_truck_10_n04467665_30581.png,n04467665_30581.png,0.0,-0.28774768,0.3517834,-0.45221677
alexnet_w1_mlp_simclrhn_probe3,1,609,NaN,elephant,elephant,c30,0609_cop_dnn_c30_elephant_10_n02504013_5237.png,n02504013_5237.png,1.0,3.0575523,1.1648455,1.3383459
alexnet_w1_mlp_simclrhn_probe3,1,610,NaN,keyboard,keyboard,c100,0610_cop_dnn_c100_keyboard_10_n03085013_12175.png,n03085013_12175.png,1.0,7.8509803,1.9793134,4.1518955
alexnet_w1_mlp_simclrhn_probe3,1,611,NaN,chair,chair,c30,0611_cop_dnn_c30_chair_10_n02791124_5401.png,n02791124_5401.png,1.0,1.8971477,0.3634109,1.0845157
alexnet_w1_mlp_simclrhn_probe3,1,612,NaN,boat,boat,c50,0612_cop_dnn_c50_boat_10_n02951358_22332.png,n02951358_22332.png,1.0,6.374599,1.8972406,3.1659706
alexnet_w1_mlp_simclrhn_probe3,1,613,NaN,knife,knife,c03,0613_cop_dnn_c03_knife_10_n03041632_11932.png,n03041632_11932.png,1.0,0.48741537,0.20426154,0.20022
alexnet_w1_mlp_simclrhn_probe3,1,614,NaN,cat,cat,c30,0614_cop_dnn_c30_cat_10_n02123159_5257.png,n02123159_5257.png,1.0,1.0578305,0.1815956,0.61959165
alexnet_w1_mlp_simclrhn_probe3,1,615,NaN,bottle,bottle,c50,0615_cop_dnn_c50_bottle_10_n03983396_105.png,n03983396_105.png,1.0,4.136885,0.8906908,2.295406
alexnet_w1_mlp_simclrhn_probe3,1,616,NaN,boat,boat,c50,0616_cop_dnn_c50_boat_10_n04612504_11939.png,n04612504_11939.png,1.0,5.273948,1.8328571,2.433219
alexnet_w1_mlp_simclrhn_probe3,1,617,NaN,boat,boat,c30,0617_cop_dnn_c30_boat_10_n03662601_5575.png,n03662601_5575.png,1.0,1.3334646,0.5142362,0.579282
alexnet_w1_mlp_simclrhn_probe3,1,618,NaN,knife,cat,c05,0618_cop_dnn_c05_cat_10_n02123159_6590.png,n02123159_6590.png,0.0,0.17072634,0.24799822,-0.05463947
alexnet_w1_mlp_simclrhn_probe3,1,619,NaN,bear,bear,c50,0619_cop_dnn_c50_bear_10_n02134084_21462.png,n02134084_21462.png,1.0,0.8653386,0.5159381,0.24706349
alexnet_w1_mlp_simclrhn_probe3,1,620,NaN,knife,cat,c05,0620_cop_dnn_c05_cat_10_n02125311_46330.png,n02125311_46330.png,0.0,0.0933645,0.2319263,-0.097978
alexnet_w1_mlp_simclrhn_probe3,1,621,NaN,knife,cat,c01,0621_cop_dnn_c01_cat_10_n02123394_4714.png,n02123394_4714.png,0.0,-0.101485275,0.40499404,-0.35813496
alexnet_w1_mlp_simclrhn_probe3,1,622,NaN,knife,knife,c30,0622_cop_dnn_c30_knife_10_n03041632_1671.png,n03041632_1671.png,1.0,0.8831481,0.15302205,0.5162771
alexnet_w1_mlp_simclrhn_probe3,1,623,NaN,truck,truck,c50,0623_cop_dnn_c50_truck_10_n04467665_30901.png,n04467665_30901.png,1.0,2.6827745,2.1088321,0.40583858
alexnet_w1_mlp_simclrhn_probe3,1,624,NaN,elephant,dog,c100,0624_cop_dnn_c100_dog_10_n02104029_4704.png,n02104029_4704.png,0.0,1.0506746,4.2644143,-2.2724574
alexnet_w1_mlp_simclrhn_probe3,1,625,NaN,keyboard,keyboard,c15,0625_cop_dnn_c15_keyboard_10_n03085013_3665.png,n03085013_3665.png,1.0,1.8268211,0.69116986,0.8030267
alexnet_w1_mlp_simclrhn_probe3,1,626,NaN,knife,bird,c01,0626_cop_dnn_c01_bird_10_n01820546_1616.png,n01820546_1616.png,0.0,-0.046991095,0.31940117,-0.25907844
alexnet_w1_mlp_simclrhn_probe3,1,627,NaN,oven,keyboard,c30,0627_cop_dnn_c30_keyboard_10_n04505470_8754.png,n04505470_8754.png,0.0,0.11509439,0.5951743,-0.33946776
