subj,session,trial,rt,object_response,category,condition,imagename,filename,is_correct,targ_act,max_nontarg_act,decision_margin
vit_b_16,1,1,NaN,knife,knife,c30,0001_cop_dnn_c30_knife_10_n03041632_7380.png,n03041632_7380.png,1.0,9.320878,1.7293745,5.368004
vit_b_16,1,2,NaN,bicycle,bicycle,c100,0002_cop_dnn_c100_bicycle_10_n03792782_5966.png,n03792782_5966.png,1.0,7.722901,0.4342967,5.1538215
vit_b_16,1,3,NaN,knife,bird,c01,0003_cop_dnn_c01_bird_10_n01601694_10802.png,n01601694_10802.png,0.0,-0.14150113,2.8838115,-2.139219
vit_b_16,1,4,NaN,airplane,airplane,c05,0004_cop_dnn_c05_airplane_10_n02690373_9759.png,n02690373_9759.png,1.0,5.179038,3.1988602,1.4001973
vit_b_16,1,5,NaN,knife,car,c03,0005_cop_dnn_c03_car_10_n02814533_2236.png,n02814533_2236.png,0.0,0.39463177,4.495198,-2.899538
vit_b_16,1,6,NaN,chair,chair,c30,0006_cop_dnn_c30_chair_10_n02791124_7207.png,n02791124_7207.png,1.0,2.624747,0.65402836,1.3935086
vit_b_16,1,7,NaN,oven,oven,c50,0007_cop_dnn_c50_oven_10_n04111531_7064.png,n04111531_7064.png,1.0,7.347028,1.1857275,4.356697
vit_b_16,1,8,NaN,knife,bird,c15,0008_cop_dnn_c15_bird_10_n01532829_2263.png,n01532829_2263.png,0.0,0.057062607,2.2202682,-1.5296174
vit_b_16,1,9,NaN,bicycle,bicycle,c50,0009_cop_dnn_c50_bicycle_10_n02835271_3383.png,n02835271_3383.png,1.0,5.9462147,0.45984486,3.8794491
vit_b_16,1,10,NaN,knife,bicycle,c03,0010_cop_dnn_c03_bicycle_10_n03792782_27510.png,n03792782_27510.png,0.0,-0.016154245,2.9082093,-2.0678375
vit_b_16,1,11,NaN,knife,bottle,c03,0011_cop_dnn_c03_bottle_10_n04557648_10944.png,n04557648_10944.png,0.0,0.81122464,3.2039194,-1.6918907
vit_b_16,1,12,NaN,knife,keyboard,c15,0012_cop_dnn_c15_keyboard_10_n03085013_20891.png,n03085013_20891.png,0.0,2.2955875,3.3673067,-0.7578199
vit_b_16,1,13,NaN,elephant,elephant,c30,0013_cop_dnn_c30_elephant_10_n02504458_3225.png,n02504458_3225.png,1.0,6.330219,0.33787993,4.237223
vit_b_16,1,14,NaN,keyboard,keyboard,c10,0014_cop_dnn_c10_keyboard_10_n04505470_6638.png,n04505470_6638.png,1.0,3.5523505,2.8571093,0.49160978
vit_b_16,1,15,NaN,knife,bird,c01,0015_cop_dnn_c01_bird_10_n01601694_11888.png,n01601694_11888.png,0.0,-0.46654564,3.4119377,-2.742502
vit_b_16,1,16,NaN,airplane,airplane,c03,0016_cop_dnn_c03_airplane_10_n02690373_8743.png,n02690373_8743.png,1.0,3.5693693,3.3497853,0.15526932
vit_b_16,1,17,NaN,knife,boat,c10,0017_cop_dnn_c10_boat_10_n03344393_8869.png,n03344393_8869.png,0.0,2.1049411,3.1602743,-0.7462332
vit_b_16,1,18,NaN,knife,bear,c01,0018_cop_dnn_c01_bear_10_n02132136_27682.png,n02132136_27682.png,0.0,-0.9343099,3.7965891,-3.3452506
vit_b_16,1,19,NaN,clock,clock,c50,0019_cop_dnn_c50_clock_10_n02708093_7081.png,n02708093_7081.png,1.0,5.3700356,0.40252188,3.5125625
vit_b_16,1,20,NaN,car,car,c10,0020_cop_dnn_c10_car_10_n03100240_12141.png,n03100240_12141.png,1.0,3.6188793,2.4094696,0.8551818
vit_b_16,1,21,NaN,knife,car,c15,0021_cop_dnn_c15_car_10_n02814533_19287.png,n02814533_19287.png,0.0,1.9289674,2.958552,-0.7280262
vit_b_16,1,22,NaN,knife,bicycle,c03,0022_cop_dnn_c03_bicycle_10_n02835271_3841.png,n02835271_3841.png,0.0,2.6983027,3.3194306,-0.4392037
vit_b_16,1,23,NaN,clock,clock,c15,0023_cop_dnn_c15_clock_10_n02708093_6696.png,n02708093_6696.png,1.0,6.6685414,0.24074407,4.5451393
vit_b_16,1,24,NaN,knife,bird,c01,0024_cop_dnn_c01_bird_10_n01829413_6393.png,n01829413_6393.png,0.0,-0.32244858,3.4557555,-2.6715937
vit_b_16,1,25,NaN,knife,clock,c01,0025_cop_dnn_c01_clock_10_n02708093_3484.png,n02708093_3484.png,0.0,1.9969212,2.618363,-0.43942568
vit_b_16,1,26,NaN,knife,chair,c05,0026_cop_dnn_c05_chair_10_n04429376_55163.png,n04429376_55163.png,0.0,1.4503903,3.0720992,-1.1467214
vit_b_16,1,27,NaN,boat,boat,c100,0027_cop_dnn_c100_boat_10_n02951358_14528.png,n02951358_14528.png,1.0,2.9875357,0.50293577,1.7568775
vit_b_16,1,28,NaN,knife,chair,c01,0028_cop_dnn_c01_chair_10_n03376595_9603.png,n03376595_9603.png,0.0,0.4078699,3.021366,-1.8480208
vit_b_16,1,29,NaN,knife,bottle,c03,0029_cop_dnn_c03_bottle_10_n03937543_1840.png,n03937543_1840.png,0.0,0.6373276,3.120872,-1.756131
vit_b_16,1,30,NaN,knife,car,c01,0030_cop_dnn_c01_car_10_n02814533_32835.png,n02814533_32835.png,0.0,-0.6891343,3.1828263,-2.7378898
vit_b_16,1,31,NaN,clock,bird,c15,0031_cop_dnn_c15_bird_10_n01860187_38598.png,n01860187_38598.png,0.0,0.48243254,2.280728,-1.271587
vit_b_16,1,32,NaN,airplane,airplane,c100,0032_cop_dnn_c100_airplane_10_n02690373_9322.png,n02690373_9322.png,1.0,8.705381,0.29299197,5.9484577
vit_b_16,1,33,NaN,knife,bicycle,c01,0033_cop_dnn_c01_bicycle_10_n02835271_1505.png,n02835271_1505.png,0.0,-0.93383133,2.7503433,-2.605105
vit_b_16,1,34,NaN,bicycle,bicycle,c50,0034_cop_dnn_c50_bicycle_10_n03792782_11023.png,n03792782_11023.png,1.0,5.3311977,0.43756738,3.4603193
vit_b_16,1,35,NaN,elephant,elephant,c50,0035_cop_dnn_c50_elephant_10_n02504458_4909.png,n02504458_4909.png,1.0,6.34739,0.20170031,4.3456593
vit_b_16,1,36,NaN,boat,boat,c100,0036_cop_dnn_c100_boat_10_n03344393_646.png,n03344393_646.png,1.0,4.177685,0.21077581,2.8050282
vit_b_16,1,37,NaN,knife,boat,c10,0037_cop_dnn_c10_boat_10_n04612504_2472.png,n04612504_2472.png,0.0,0.938632,3.338592,-1.697028
vit_b_16,1,38,NaN,knife,keyboard,c03,0038_cop_dnn_c03_keyboard_10_n03085013_4673.png,n03085013_4673.png,0.0,1.7866727,3.651057,-1.3183188
vit_b_16,1,39,NaN,elephant,elephant,c100,0039_cop_dnn_c100_elephant_10_n02504458_1138.png,n02504458_1138.png,1.0,7.530859,0.55638766,4.931696
vit_b_16,1,40,NaN,car,car,c100,0040_cop_dnn_c100_car_10_n03100240_5569.png,n03100240_5569.png,1.0,6.4121933,1.3931553,3.548996
vit_b_16,1,41,NaN,dog,dog,c100,0041_cop_dnn_c100_dog_10_n02107312_7422.png,n02107312_7422.png,1.0,0.36547205,-0.022117827,0.27406743
vit_b_16,1,42,NaN,bear,bear,c15,0042_cop_dnn_c15_bear_10_n02134084_24140.png,n02134084_24140.png,1.0,2.702074,1.4748864,0.86775273
vit_b_16,1,43,NaN,bottle,bottle,c100,0043_cop_dnn_c100_bottle_10_n04560804_14130.png,n04560804_14130.png,1.0,2.238477,0.6367111,1.1326195
vit_b_16,1,44,NaN,cat,cat,c30,0044_cop_dnn_c30_cat_10_n02124075_11970.png,n02124075_11970.png,1.0,3.3152206,0.43986854,2.033181
vit_b_16,1,45,NaN,knife,dog,c03,0045_cop_dnn_c03_dog_10_n02093991_247.png,n02093991_247.png,0.0,-0.30552366,3.42885,-2.640601
vit_b_16,1,46,NaN,keyboard,keyboard,c100,0046_cop_dnn_c100_keyboard_10_n04505470_375.png,n04505470_375.png,1.0,6.1233377,0.4320524,4.0243464
vit_b_16,1,47,NaN,bear,bear,c100,0047_cop_dnn_c100_bear_10_n02134418_4372.png,n02134418_4372.png,1.0,3.2209764,0.20161687,2.1350098
vit_b_16,1,48,NaN,knife,boat,c01,0048_cop_dnn_c01_boat_10_n03344393_2838.png,n03344393_2838.png,0.0,-0.43429884,3.650563,-2.8884335
vit_b_16,1,49,NaN,bicycle,bicycle,c05,0049_cop_dnn_c05_bicycle_10_n02835271_4935.png,n02835271_4935.png,1.0,3.185423,2.8807456,0.21543935
vit_b_16,1,50,NaN,airplane,airplane,c50,0050_cop_dnn_c50_airplane_10_n02690373_5382.png,n02690373_5382.png,1.0,8.922078,0.24670652,6.1344137
vit_b_16,1,51,NaN,knife,bottle,c100,0051_cop_dnn_c100_bottle_10_n03937543_2123.png,n03937543_2123.png,0.0,0.52790684,2.1435416,-1.1424263
vit_b_16,1,52,NaN,knife,dog,c30,0052_cop_dnn_c30_dog_10_n02097474_5234.png,n02097474_5234.png,0.0,-0.5932921,1.3575634,-1.3794632
vit_b_16,1,53,NaN,bottle,bottle,c100,0053_cop_dnn_c100_bottle_10_n02823428_6050.png,n02823428_6050.png,1.0,2.777683,0.7913868,1.4045235
vit_b_16,1,54,NaN,knife,clock,c15,0054_cop_dnn_c15_clock_10_n02708093_3743.png,n02708093_3743.png,0.0,4.2768483,4.318578,-0.029507177
vit_b_16,1,55,NaN,knife,knife,c03,0055_cop_dnn_c03_knife_10_n03041632_55083.png,n03041632_55083.png,1.0,4.1627955,1.5639669,1.8376495
vit_b_16,1,56,NaN,knife,knife,c50,0056_cop_dnn_c50_knife_10_n03041632_41310.png,n03041632_41310.png,1.0,9.771565,0.34789878,6.663539
vit_b_16,1,57,NaN,knife,knife,c03,0057_cop_dnn_c03_knife_10_n03041632_99799.png,n03041632_99799.png,1.0,2.322392,2.005575,0.22402349
vit_b_16,1,58,NaN,knife,dog,c15,0058_cop_dnn_c15_dog_10_n02094114_8231.png,n02094114_8231.png,0.0,-0.2591016,2.017336,-1.6096845
vit_b_16,1,59,NaN,knife,chair,c01,0059_cop_dnn_c01_chair_10_n03376595_6173.png,n03376595_6173.png,0.0,0.66699237,3.5772755,-2.0578809
vit_b_16,1,60,NaN,oven,oven,c05,0060_cop_dnn_c05_oven_10_n04111531_9297.png,n04111531_9297.png,1.0,4.9440494,3.8579314,0.7680014
vit_b_16,1,61,NaN,knife,car,c10,0061_cop_dnn_c10_car_10_n03100240_24420.png,n03100240_24420.png,0.0,1.5837382,2.3238678,-0.52335066
vit_b_16,1,62,NaN,elephant,elephant,c100,0062_cop_dnn_c100_elephant_10_n02504013_2340.png,n02504013_2340.png,1.0,5.6580486,0.34154987,3.7593324
vit_b_16,1,63,NaN,knife,bicycle,c05,0063_cop_dnn_c05_bicycle_10_n02835271_10104.png,n02835271_10104.png,0.0,2.8048286,3.6305702,-0.58388746
vit_b_16,1,64,NaN,bicycle,bicycle,c15,0064_cop_dnn_c15_bicycle_10_n03792782_7165.png,n03792782_7165.png,1.0,5.636157,2.1593287,2.458489
vit_b_16,1,65,NaN,knife,knife,c10,0065_cop_dnn_c10_knife_10_n03041632_14817.png,n03041632_14817.png,1.0,3.4544065,2.1640863,0.91239417
vit_b_16,1,66,NaN,knife,clock,c15,0066_cop_dnn_c15_clock_10_n02708093_118.png,n02708093_118.png,0.0,3.978028,4.097812,-0.08470016
vit_b_16,1,67,NaN,airplane,airplane,c10,0067_cop_dnn_c10_airplane_10_n02690373_4298.png,n02690373_4298.png,1.0,5.7805634,2.8223162,2.0917966
vit_b_16,1,68,NaN,knife,knife,c100,0068_cop_dnn_c100_knife_10_n03041632_50034.png,n03041632_50034.png,1.0,9.249444,0.56139725,6.143377
vit_b_16,1,69,NaN,knife,chair,c03,0069_cop_dnn_c03_chair_10_n02791124_1333.png,n02791124_1333.png,0.0,1.2305255,1.9068724,-0.4782495
vit_b_16,1,70,NaN,knife,clock,c01,0070_cop_dnn_c01_clock_10_n02708093_2318.png,n02708093_2318.png,0.0,2.0353038,4.0980015,-1.4585475
vit_b_16,1,71,NaN,knife,elephant,c01,0071_cop_dnn_c01_elephant_10_n02504013_3864.png,n02504013_3864.png,0.0,-1.1544389,3.6373665,-3.388318
vit_b_16,1,72,NaN,knife,chair,c10,0072_cop_dnn_c10_chair_10_n04429376_56624.png,n04429376_56624.png,0.0,1.0365269,2.7746196,-1.2290171
vit_b_16,1,73,NaN,airplane,airplane,c30,0073_cop_dnn_c30_airplane_10_n02690373_7004.png,n02690373_7004.png,1.0,8.605234,1.0954007,5.310254
vit_b_16,1,74,NaN,oven,oven,c30,0074_cop_dnn_c30_oven_10_n04111531_9692.png,n04111531_9692.png,1.0,8.082632,2.945272,3.6326623
vit_b_16,1,75,NaN,truck,truck,c50,0075_cop_dnn_c50_truck_10_n03796401_296.png,n03796401_296.png,1.0,4.290188,2.9763825,0.9290007
vit_b_16,1,76,NaN,airplane,airplane,c15,0076_cop_dnn_c15_airplane_10_n02690373_1837.png,n02690373_1837.png,1.0,6.243986,2.547591,2.6137462
vit_b_16,1,77,NaN,knife,airplane,c03,0077_cop_dnn_c03_airplane_10_n02690373_10203.png,n02690373_10203.png,0.0,1.5649931,2.9024918,-0.9457544
vit_b_16,1,78,NaN,knife,boat,c03,0078_cop_dnn_c03_boat_10_n02951358_34234.png,n02951358_34234.png,0.0,1.4533452,2.4059534,-0.6735957
vit_b_16,1,79,NaN,bicycle,bicycle,c100,0079_cop_dnn_c100_bicycle_10_n02835271_2885.png,n02835271_2885.png,1.0,5.024194,0.24393745,3.3801517
vit_b_16,1,80,NaN,airplane,airplane,c30,0080_cop_dnn_c30_airplane_10_n02690373_5247.png,n02690373_5247.png,1.0,8.828829,0.08313215,6.1841416
vit_b_16,1,81,NaN,clock,clock,c50,0081_cop_dnn_c50_clock_10_n02708093_596.png,n02708093_596.png,1.0,5.3743014,0.18441406,3.6698048
vit_b_16,1,82,NaN,knife,chair,c01,0082_cop_dnn_c01_chair_10_n03376595_1364.png,n03376595_1364.png,0.0,0.58074325,3.3533878,-1.9605558
vit_b_16,1,83,NaN,knife,cat,c03,0083_cop_dnn_c03_cat_10_n02124075_12430.png,n02124075_12430.png,0.0,1.0984046,3.2154691,-1.4969907
vit_b_16,1,84,NaN,knife,cat,c05,0084_cop_dnn_c05_cat_10_n02123159_5487.png,n02123159_5487.png,0.0,1.636402,2.9547958,-0.93224525
vit_b_16,1,85,NaN,bicycle,bicycle,c50,0085_cop_dnn_c50_bicycle_10_n03792782_17571.png,n03792782_17571.png,1.0,7.070055,0.73223746,4.481514
vit_b_16,1,86,NaN,cat,cat,c50,0086_cop_dnn_c50_cat_10_n02123159_6132.png,n02123159_6132.png,1.0,1.4823877,0.03937011,1.0203675
vit_b_16,1,87,NaN,clock,bottle,c05,0087_cop_dnn_c05_bottle_10_n03937543_2873.png,n03937543_2873.png,0.0,0.99397784,2.5699413,-1.1143745
vit_b_16,1,88,NaN,keyboard,keyboard,c15,0088_cop_dnn_c15_keyboard_10_n04505470_1236.png,n04505470_1236.png,1.0,3.7474904,2.920444,0.58481014
vit_b_16,1,89,NaN,knife,airplane,c01,0089_cop_dnn_c01_airplane_10_n02690373_4243.png,n02690373_4243.png,0.0,0.918712,3.489463,-1.8177956
vit_b_16,1,90,NaN,oven,oven,c30,0090_cop_dnn_c30_oven_10_n04111531_467.png,n04111531_467.png,1.0,8.019358,3.1498802,3.4432404
vit_b_16,1,91,NaN,knife,cat,c03,0091_cop_dnn_c03_cat_10_n02123394_2632.png,n02123394_2632.png,0.0,1.7532436,3.5336773,-1.2589568
vit_b_16,1,92,NaN,knife,chair,c15,0092_cop_dnn_c15_chair_10_n02791124_5268.png,n02791124_5268.png,0.0,2.4463694,3.1336255,-0.48596346
vit_b_16,1,93,NaN,knife,knife,c100,0093_cop_dnn_c100_knife_10_n03041632_1143.png,n03041632_1143.png,1.0,6.6720614,3.1779878,2.470683
vit_b_16,1,94,NaN,knife,chair,c10,0094_cop_dnn_c10_chair_10_n02791124_1018.png,n02791124_1018.png,0.0,1.1562138,2.6396794,-1.0489687
vit_b_16,1,95,NaN,knife,bicycle,c05,0095_cop_dnn_c05_bicycle_10_n03792782_8057.png,n03792782_8057.png,0.0,1.307801,2.8224206,-1.0709978
vit_b_16,1,96,NaN,bear,bear,c30,0096_cop_dnn_c30_bear_10_n02132136_1338.png,n02132136_1338.png,1.0,4.0921793,0.85710186,2.2875452
vit_b_16,1,97,NaN,clock,clock,c05,0097_cop_dnn_c05_clock_10_n02708093_4798.png,n02708093_4798.png,1.0,4.052105,2.8764334,0.83132535
vit_b_16,1,98,NaN,knife,truck,c01,0098_cop_dnn_c01_truck_10_n03796401_15046.png,n03796401_15046.png,0.0,-0.9963541,3.0841863,-2.8853781
vit_b_16,1,99,NaN,knife,knife,c50,0099_cop_dnn_c50_knife_10_n03041632_13612.png,n03041632_13612.png,1.0,4.7891555,0.90118766,2.7492085
vit_b_16,1,100,NaN,oven,oven,c10,0100_cop_dnn_c10_oven_10_n04111531_1898.png,n04111531_1898.png,1.0,5.73464,2.3871434,2.3670378
vit_b_16,1,101,NaN,knife,truck,c03,0101_cop_dnn_c03_truck_10_n04467665_28988.png,n04467665_28988.png,0.0,1.1313661,3.505112,-1.6784918
vit_b_16,1,102,NaN,airplane,airplane,c100,0102_cop_dnn_c100_airplane_10_n02690373_736.png,n02690373_736.png,1.0,8.592994,0.3407841,5.8351936
vit_b_16,1,103,NaN,knife,dog,c50,0103_cop_dnn_c50_dog_10_n02111500_5154.png,n02111500_5154.png,0.0,-0.0026566305,0.35286298,-0.25139034
vit_b_16,1,104,NaN,bear,bear,c50,0104_cop_dnn_c50_bear_10_n02133161_13461.png,n02133161_13461.png,1.0,5.140364,2.3947122,1.9414692
vit_b_16,1,105,NaN,knife,dog,c15,0105_cop_dnn_c15_dog_10_n02102318_11746.png,n02102318_11746.png,0.0,-0.7706979,2.522956,-2.328965
vit_b_16,1,106,NaN,boat,boat,c50,0106_cop_dnn_c50_boat_10_n03662601_12226.png,n03662601_12226.png,1.0,4.1227427,0.6132902,2.4815576
vit_b_16,1,107,NaN,keyboard,keyboard,c05,0107_cop_dnn_c05_keyboard_10_n04505470_3207.png,n04505470_3207.png,1.0,3.3941789,3.1214738,0.19283162
vit_b_16,1,108,NaN,bicycle,bicycle,c30,0108_cop_dnn_c30_bicycle_10_n03792782_2628.png,n03792782_2628.png,1.0,7.4756985,0.36801115,5.025894
vit_b_16,1,109,NaN,knife,chair,c01,0109_cop_dnn_c01_chair_10_n02791124_3204.png,n02791124_3204.png,0.0,0.73681426,3.6414485,-2.0538867
vit_b_16,1,110,NaN,knife,bottle,c03,0110_cop_dnn_c03_bottle_10_n04560804_722.png,n04560804_722.png,0.0,0.9445977,2.7367153,-1.2672185
vit_b_16,1,111,NaN,bicycle,bicycle,c30,0111_cop_dnn_c30_bicycle_10_n03792782_8847.png,n03792782_8847.png,1.0,5.840373,2.5575607,2.3212988
vit_b_16,1,112,NaN,bear,bear,c50,0112_cop_dnn_c50_bear_10_n02132136_1132.png,n02132136_1132.png,1.0,4.180654,0.9393287,2.291963
vit_b_16,1,113,NaN,knife,knife,c50,0113_cop_dnn_c50_knife_10_n03041632_6557.png,n03041632_6557.png,1.0,10.061338,0.23627634,6.947368
vit_b_16,1,114,NaN,knife,knife,c100,0114_cop_dnn_c100_knife_10_n03041632_35116.png,n03041632_35116.png,1.0,9.090547,0.49964172,6.0746875
vit_b_16,1,115,NaN,car,car,c15,0115_cop_dnn_c15_car_10_n02814533_3117.png,n02814533_3117.png,1.0,3.3802607,3.0015194,0.26781052
vit_b_16,1,116,NaN,airplane,bird,c15,0116_cop_dnn_c15_bird_10_n02009229_4224.png,n02009229_4224.png,0.0,0.54407984,1.6740576,-0.7990149
vit_b_16,1,117,NaN,chair,chair,c50,0117_cop_dnn_c50_chair_10_n03376595_9247.png,n03376595_9247.png,1.0,2.2977223,1.4655514,0.58843374
vit_b_16,1,118,NaN,knife,boat,c01,0118_cop_dnn_c01_boat_10_n03662601_5639.png,n03662601_5639.png,0.0,-0.19667628,3.7067194,-2.7601175
vit_b_16,1,119,NaN,bicycle,bicycle,c10,0119_cop_dnn_c10_bicycle_10_n02835271_13437.png,n02835271_13437.png,1.0,5.6995583,2.4749012,2.2801769
vit_b_16,1,120,NaN,knife,bicycle,c05,0120_cop_dnn_c05_bicycle_10_n03792782_18294.png,n03792782_18294.png,0.0,2.3551826,3.965251,-1.1384902
vit_b_16,1,121,NaN,boat,boat,c03,0121_cop_dnn_c03_boat_10_n02951358_10488.png,n02951358_10488.png,1.0,2.0662875,2.0261922,0.02835168
vit_b_16,1,122,NaN,knife,bird,c50,0122_cop_dnn_c50_bird_10_n01829413_14594.png,n01829413_14594.png,0.0,0.13038224,0.3070065,-0.12489222
vit_b_16,1,123,NaN,clock,clock,c100,0123_cop_dnn_c100_clock_10_n03196217_9197.png,n03196217_9197.png,1.0,2.1146686,0.49795404,1.1431899
vit_b_16,1,124,NaN,boat,boat,c15,0124_cop_dnn_c15_boat_10_n03662601_1667.png,n03662601_1667.png,1.0,2.7385755,2.1904104,0.38761124
vit_b_16,1,125,NaN,knife,dog,c50,0125_cop_dnn_c50_dog_10_n02092339_6946.png,n02092339_6946.png,0.0,-0.1951767,1.5127443,-1.2076826
vit_b_16,1,126,NaN,airplane,airplane,c05,0126_cop_dnn_c05_airplane_10_n02690373_1773.png,n02690373_1773.png,1.0,5.350315,3.289649,1.457111
vit_b_16,1,127,NaN,elephant,elephant,c50,0127_cop_dnn_c50_elephant_10_n02504013_4278.png,n02504013_4278.png,1.0,0.5657008,0.3416765,0.15840912
vit_b_16,1,128,NaN,bird,bird,c100,0128_cop_dnn_c100_bird_10_n02025239_10194.png,n02025239_10194.png,1.0,0.26259434,0.17064777,0.065016046
vit_b_16,1,129,NaN,oven,oven,c15,0129_cop_dnn_c15_oven_10_n04111531_1977.png,n04111531_1977.png,1.0,6.5154805,2.1450896,3.090333
vit_b_16,1,130,NaN,clock,clock,c50,0130_cop_dnn_c50_clock_10_n02708093_616.png,n02708093_616.png,1.0,5.906281,1.0799756,3.4127133
vit_b_16,1,131,NaN,knife,boat,c10,0131_cop_dnn_c10_boat_10_n04273569_10292.png,n04273569_10292.png,0.0,1.3651756,2.696447,-0.941351
vit_b_16,1,132,NaN,knife,cat,c50,0132_cop_dnn_c50_cat_10_n02123394_8592.png,n02123394_8592.png,0.0,1.5773898,2.104165,-0.37248635
vit_b_16,1,133,NaN,knife,knife,c10,0133_cop_dnn_c10_knife_10_n03041632_16020.png,n03041632_16020.png,1.0,2.8855364,2.1230218,0.53917927
vit_b_16,1,134,NaN,cat,cat,c30,0134_cop_dnn_c30_cat_10_n02123394_5466.png,n02123394_5466.png,1.0,2.5324876,0.4348639,1.4832441
vit_b_16,1,135,NaN,knife,elephant,c01,0135_cop_dnn_c01_elephant_10_n02504013_7351.png,n02504013_7351.png,0.0,-1.199909,3.4090252,-3.259009
vit_b_16,1,136,NaN,oven,oven,c50,0136_cop_dnn_c50_oven_10_n04111531_22388.png,n04111531_22388.png,1.0,9.871308,1.9288418,5.6161723
vit_b_16,1,137,NaN,chair,chair,c100,0137_cop_dnn_c100_chair_10_n04429376_6308.png,n04429376_6308.png,1.0,5.32512,1.1101433,2.9804387
vit_b_16,1,138,NaN,car,car,c10,0138_cop_dnn_c10_car_10_n03100240_8443.png,n03100240_8443.png,1.0,3.8612926,3.3176374,0.38442224
vit_b_16,1,139,NaN,car,car,c100,0139_cop_dnn_c100_car_10_n04285008_12446.png,n04285008_12446.png,1.0,3.0129116,0.44670004,1.8145856
vit_b_16,1,140,NaN,knife,keyboard,c01,0140_cop_dnn_c01_keyboard_10_n04505470_4440.png,n04505470_4440.png,0.0,0.05743617,3.384851,-2.3528376
vit_b_16,1,141,NaN,knife,car,c10,0141_cop_dnn_c10_car_10_n04285008_10073.png,n04285008_10073.png,0.0,1.4498879,2.9600873,-1.0678723
vit_b_16,1,142,NaN,knife,bottle,c03,0142_cop_dnn_c03_bottle_10_n03983396_7378.png,n03983396_7378.png,0.0,0.39279777,2.5408869,-1.5189284
vit_b_16,1,143,NaN,knife,chair,c15,0143_cop_dnn_c15_chair_10_n02791124_5706.png,n02791124_5706.png,0.0,1.8705186,2.691612,-0.58060074
vit_b_16,1,144,NaN,cat,cat,c15,0144_cop_dnn_c15_cat_10_n02123045_11224.png,n02123045_11224.png,1.0,2.4258192,1.7516687,0.47669637
vit_b_16,1,145,NaN,clock,chair,c05,0145_cop_dnn_c05_chair_10_n03376595_8953.png,n03376595_8953.png,0.0,1.3999004,2.3135595,-0.64605457
vit_b_16,1,146,NaN,bicycle,bicycle,c50,0146_cop_dnn_c50_bicycle_10_n03792782_66048.png,n03792782_66048.png,1.0,7.0962334,1.183247,4.181113
vit_b_16,1,147,NaN,knife,dog,c01,0147_cop_dnn_c01_dog_10_n02104365_1123.png,n02104365_1123.png,0.0,-0.8181965,3.7290673,-3.215401
vit_b_16,1,148,NaN,knife,clock,c05,0148_cop_dnn_c05_clock_10_n03196217_3605.png,n03196217_3605.png,0.0,3.3028634,3.6975253,-0.2790681
vit_b_16,1,149,NaN,knife,knife,c10,0149_cop_dnn_c10_knife_10_n03041632_14916.png,n03041632_14916.png,1.0,4.284991,1.8281965,1.7372159
vit_b_16,1,150,NaN,bear,bear,c10,0150_cop_dnn_c10_bear_10_n02132136_4101.png,n02132136_4101.png,1.0,2.8819766,2.8278446,0.038277093
vit_b_16,1,151,NaN,knife,clock,c01,0151_cop_dnn_c01_clock_10_n02708093_7929.png,n02708093_7929.png,0.0,1.955022,3.2594194,-0.9223483
vit_b_16,1,152,NaN,chair,chair,c50,0152_cop_dnn_c50_chair_10_n02791124_7630.png,n02791124_7630.png,1.0,2.5851264,0.8642124,1.21687
vit_b_16,1,153,NaN,clock,clock,c05,0153_cop_dnn_c05_clock_10_n02708093_3750.png,n02708093_3750.png,1.0,3.8722754,3.2637146,0.43031746
vit_b_16,1,154,NaN,knife,bird,c01,0154_cop_dnn_c01_bird_10_n02037110_12288.png,n02037110_12288.png,0.0,-0.2517848,3.1931934,-2.4359674
vit_b_16,1,155,NaN,knife,keyboard,c05,0155_cop_dnn_c05_keyboard_10_n04505470_6080.png,n04505470_6080.png,0.0,2.6644473,3.6995564,-0.73193264
vit_b_16,1,156,NaN,keyboard,keyboard,c100,0156_cop_dnn_c100_keyboard_10_n03085013_19065.png,n03085013_19065.png,1.0,7.5302515,0.50286573,4.9691124
vit_b_16,1,157,NaN,knife,cat,c10,0157_cop_dnn_c10_cat_10_n02123159_4856.png,n02123159_4856.png,0.0,0.8195395,2.3865638,-1.1080534
vit_b_16,1,158,NaN,knife,chair,c01,0158_cop_dnn_c01_chair_10_n04099969_6913.png,n04099969_6913.png,0.0,0.65524095,3.1217158,-1.7440611
vit_b_16,1,159,NaN,knife,knife,c30,0159_cop_dnn_c30_knife_10_n03041632_35764.png,n03041632_35764.png,1.0,6.214864,1.254309,3.5076418
vit_b_16,1,160,NaN,truck,truck,c30,0160_cop_dnn_c30_truck_10_n03796401_3012.png,n03796401_3012.png,1.0,3.4086432,0.52323616,2.0402908
vit_b_16,1,161,NaN,elephant,elephant,c10,0161_cop_dnn_c10_elephant_10_n02504013_3821.png,n02504013_3821.png,1.0,4.6229467,2.9805918,1.1613203
vit_b_16,1,162,NaN,truck,truck,c100,0162_cop_dnn_c100_truck_10_n03796401_3608.png,n03796401_3608.png,1.0,1.0994065,0.55945057,0.3818065
vit_b_16,1,163,NaN,knife,chair,c15,0163_cop_dnn_c15_chair_10_n04099969_13811.png,n04099969_13811.png,0.0,1.9209392,2.22458,-0.2147065
vit_b_16,1,164,NaN,bear,bear,c50,0164_cop_dnn_c50_bear_10_n02133161_4954.png,n02133161_4954.png,1.0,3.816434,1.0957373,1.923823
vit_b_16,1,165,NaN,airplane,dog,c15,0165_cop_dnn_c15_dog_10_n02085782_6792.png,n02085782_6792.png,0.0,-0.55275875,2.9745283,-2.4941685
vit_b_16,1,166,NaN,knife,oven,c05,0166_cop_dnn_c05_oven_10_n04111531_22886.png,n04111531_22886.png,0.0,0.7307541,2.9865496,-1.5950884
vit_b_16,1,167,NaN,knife,dog,c05,0167_cop_dnn_c05_dog_10_n02091831_510.png,n02091831_510.png,0.0,-0.32966793,2.5015688,-2.0019867
vit_b_16,1,168,NaN,bear,bear,c15,0168_cop_dnn_c15_bear_10_n02132136_11339.png,n02132136_11339.png,1.0,3.6943712,2.2120485,1.0481604
vit_b_16,1,169,NaN,clock,bottle,c15,0169_cop_dnn_c15_bottle_10_n04557648_2709.png,n04557648_2709.png,0.0,1.8304356,2.376196,-0.3859108
vit_b_16,1,170,NaN,knife,keyboard,c03,0170_cop_dnn_c03_keyboard_10_n03085013_21447.png,n03085013_21447.png,0.0,3.2118773,3.6207366,-0.28910714
vit_b_16,1,171,NaN,airplane,airplane,c30,0171_cop_dnn_c30_airplane_10_n02690373_7676.png,n02690373_7676.png,1.0,8.009538,0.7977943,5.0994725
vit_b_16,1,172,NaN,oven,dog,c100,0172_cop_dnn_c100_dog_10_n02091831_4110.png,n02091831_4110.png,0.0,-0.42985058,0.5360363,-0.6829852
vit_b_16,1,173,NaN,knife,bird,c10,0173_cop_dnn_c10_bird_10_n02007558_16029.png,n02007558_16029.png,0.0,-0.22171254,3.4428077,-2.5912073
vit_b_16,1,174,NaN,truck,truck,c30,0174_cop_dnn_c30_truck_10_n03796401_15097.png,n03796401_15097.png,1.0,2.4671378,1.7694167,0.49336335
vit_b_16,1,175,NaN,airplane,airplane,c30,0175_cop_dnn_c30_airplane_10_n02690373_7401.png,n02690373_7401.png,1.0,8.987472,0.199532,6.214012
vit_b_16,1,176,NaN,airplane,dog,c05,0176_cop_dnn_c05_dog_10_n02108422_4529.png,n02108422_4529.png,0.0,-0.7873334,2.7609649,-2.5090258
vit_b_16,1,177,NaN,bear,bear,c10,0177_cop_dnn_c10_bear_10_n02132136_10514.png,n02132136_10514.png,1.0,3.5733871,3.1420045,0.3050336
vit_b_16,1,178,NaN,knife,airplane,c03,0178_cop_dnn_c03_airplane_10_n02690373_5524.png,n02690373_5524.png,0.0,1.9348142,2.6173778,-0.48264533
vit_b_16,1,179,NaN,chair,chair,c100,0179_cop_dnn_c100_chair_10_n04429376_5965.png,n04429376_5965.png,1.0,3.9983454,0.6850033,2.3428867
vit_b_16,1,180,NaN,airplane,airplane,c15,0180_cop_dnn_c15_airplane_10_n02690373_9712.png,n02690373_9712.png,1.0,7.1967964,2.8105597,3.1015377
vit_b_16,1,181,NaN,clock,boat,c30,0181_cop_dnn_c30_boat_10_n02951358_29825.png,n02951358_29825.png,0.0,1.7727787,2.4347384,-0.46807617
vit_b_16,1,182,NaN,knife,keyboard,c03,0182_cop_dnn_c03_keyboard_10_n04505470_4887.png,n04505470_4887.png,0.0,3.0727654,3.1440673,-0.050418083
vit_b_16,1,183,NaN,knife,truck,c01,0183_cop_dnn_c01_truck_10_n04467665_32090.png,n04467665_32090.png,0.0,-0.9009656,3.6386974,-3.2100265
vit_b_16,1,184,NaN,knife,chair,c05,0184_cop_dnn_c05_chair_10_n02791124_4296.png,n02791124_4296.png,0.0,1.8570987,2.0173128,-0.113288455
vit_b_16,1,185,NaN,boat,boat,c30,0185_cop_dnn_c30_boat_10_n04612504_14669.png,n04612504_14669.png,1.0,2.3846955,1.6388735,0.5273759
vit_b_16,1,186,NaN,airplane,airplane,c03,0186_cop_dnn_c03_airplane_10_n02690373_891.png,n02690373_891.png,1.0,4.112007,2.8570347,0.88739955
vit_b_16,1,187,NaN,clock,clock,c100,0187_cop_dnn_c100_clock_10_n04548280_7539.png,n04548280_7539.png,1.0,5.703856,0.93111736,3.3748357
vit_b_16,1,188,NaN,bear,bear,c30,0188_cop_dnn_c30_bear_10_n02134418_4717.png,n02134418_4717.png,1.0,2.6892848,1.6096001,0.7634524
vit_b_16,1,189,NaN,knife,bird,c03,0189_cop_dnn_c03_bird_10_n02002724_13195.png,n02002724_13195.png,0.0,0.3078033,2.4660697,-1.5261247
vit_b_16,1,190,NaN,knife,bottle,c10,0190_cop_dnn_c10_bottle_10_n03937543_2494.png,n03937543_2494.png,0.0,1.4822388,3.40702,-1.3610259
vit_b_16,1,191,NaN,clock,clock,c30,0191_cop_dnn_c30_clock_10_n03196217_2307.png,n03196217_2307.png,1.0,5.2538643,0.3884305,3.4403813
vit_b_16,1,192,NaN,clock,clock,c15,0192_cop_dnn_c15_clock_10_n04548280_17907.png,n04548280_17907.png,1.0,2.8973129,2.36434,0.3768687
vit_b_16,1,193,NaN,knife,chair,c03,0193_cop_dnn_c03_chair_10_n03376595_6540.png,n03376595_6540.png,0.0,0.8872006,2.9442804,-1.4545751
vit_b_16,1,194,NaN,cat,cat,c30,0194_cop_dnn_c30_cat_10_n02123045_1484.png,n02123045_1484.png,1.0,3.5863163,0.46741104,2.205399
vit_b_16,1,195,NaN,knife,knife,c03,0195_cop_dnn_c03_knife_10_n03041632_89912.png,n03041632_89912.png,1.0,3.6143467,1.7820033,1.2956625
vit_b_16,1,196,NaN,bottle,bottle,c05,0196_cop_dnn_c05_bottle_10_n04591713_6975.png,n04591713_6975.png,1.0,2.2594192,2.1830006,0.054036137
vit_b_16,1,197,NaN,knife,bird,c50,0197_cop_dnn_c50_bird_10_n01860187_810.png,n01860187_810.png,0.0,0.5015376,0.7044513,-0.14348166
vit_b_16,1,198,NaN,knife,oven,c03,0198_cop_dnn_c03_oven_10_n04111531_5967.png,n04111531_5967.png,0.0,1.3482158,3.7774005,-1.717693
vit_b_16,1,199,NaN,knife,boat,c15,0199_cop_dnn_c15_boat_10_n04612504_18954.png,n04612504_18954.png,0.0,1.6825821,2.4468253,-0.5404015
vit_b_16,1,200,NaN,bicycle,bicycle,c10,0200_cop_dnn_c10_bicycle_10_n03792782_68259.png,n03792782_68259.png,1.0,4.8184433,2.9594269,1.3145231
vit_b_16,1,201,NaN,knife,car,c03,0201_cop_dnn_c03_car_10_n04285008_296.png,n04285008_296.png,0.0,1.9980688,3.608265,-1.1385806
vit_b_16,1,202,NaN,airplane,airplane,c03,0202_cop_dnn_c03_airplane_10_n02690373_12929.png,n02690373_12929.png,1.0,4.29346,2.9303107,0.96389204
vit_b_16,1,203,NaN,knife,boat,c01,0203_cop_dnn_c01_boat_10_n03344393_8761.png,n03344393_8761.png,0.0,-0.46487218,3.5176244,-2.8160503
vit_b_16,1,204,NaN,clock,clock,c30,0204_cop_dnn_c30_clock_10_n03196217_3877.png,n03196217_3877.png,1.0,5.8533235,0.5953409,3.7179554
vit_b_16,1,205,NaN,knife,bear,c10,0205_cop_dnn_c10_bear_10_n02134084_1346.png,n02134084_1346.png,0.0,0.028177053,2.8990223,-2.0299942
vit_b_16,1,206,NaN,knife,knife,c03,0206_cop_dnn_c03_knife_10_n03041632_48151.png,n03041632_48151.png,1.0,3.9010463,1.7645221,1.5107508
vit_b_16,1,207,NaN,airplane,airplane,c50,0207_cop_dnn_c50_airplane_10_n02690373_3589.png,n02690373_3589.png,1.0,9.1095915,0.15839775,6.32945
vit_b_16,1,208,NaN,bottle,bottle,c50,0208_cop_dnn_c50_bottle_10_n04560804_2942.png,n04560804_2942.png,1.0,3.9054835,1.0943904,1.987743
vit_b_16,1,209,NaN,keyboard,keyboard,c03,0209_cop_dnn_c03_keyboard_10_n04505470_5022.png,n04505470_5022.png,1.0,3.7674353,2.2443857,1.0769587
vit_b_16,1,210,NaN,knife,dog,c10,0210_cop_dnn_c10_dog_10_n02096294_1043.png,n02096294_1043.png,0.0,-0.47491896,2.6405478,-2.2029676
vit_b_16,1,211,NaN,airplane,airplane,c50,0211_cop_dnn_c50_airplane_10_n02690373_1350.png,n02690373_1350.png,1.0,8.794521,0.14798361,6.1140256
vit_b_16,1,212,NaN,knife,chair,c03,0212_cop_dnn_c03_chair_10_n04099969_27865.png,n04099969_27865.png,0.0,1.170535,2.868455,-1.2006108
vit_b_16,1,213,NaN,knife,oven,c01,0213_cop_dnn_c01_oven_10_n04111531_22120.png,n04111531_22120.png,0.0,0.6696441,3.630394,-2.0935664
vit_b_16,1,214,NaN,elephant,elephant,c50,0214_cop_dnn_c50_elephant_10_n02504458_5600.png,n02504458_5600.png,1.0,8.474932,0.661863,5.524674
vit_b_16,1,215,NaN,clock,cat,c03,0215_cop_dnn_c03_cat_10_n02123597_11138.png,n02123597_11138.png,0.0,0.6378327,2.2110114,-1.1124054
vit_b_16,1,216,NaN,knife,cat,c30,0216_cop_dnn_c30_cat_10_n02125311_5717.png,n02125311_5717.png,0.0,0.79152226,2.9037042,-1.4935381
vit_b_16,1,217,NaN,knife,chair,c15,0217_cop_dnn_c15_chair_10_n02791124_11404.png,n02791124_11404.png,0.0,1.2018577,2.3910975,-0.84091955
vit_b_16,1,218,NaN,cat,cat,c100,0218_cop_dnn_c100_cat_10_n02123394_2984.png,n02123394_2984.png,1.0,1.8191804,1.4806062,0.23940809
vit_b_16,1,219,NaN,knife,dog,c10,0219_cop_dnn_c10_dog_10_n02087394_9693.png,n02087394_9693.png,0.0,-0.46456283,3.8902445,-3.079314
vit_b_16,1,220,NaN,knife,dog,c01,0220_cop_dnn_c01_dog_10_n02098105_2086.png,n02098105_2086.png,0.0,-0.81657386,3.7224097,-3.2095459
vit_b_16,1,221,NaN,knife,cat,c10,0221_cop_dnn_c10_cat_10_n02123159_6932.png,n02123159_6932.png,0.0,0.4629419,2.5467691,-1.4734885
vit_b_16,1,222,NaN,car,car,c15,0222_cop_dnn_c15_car_10_n04285008_8323.png,n04285008_8323.png,1.0,3.8775327,3.2046604,0.4757926
vit_b_16,1,223,NaN,knife,truck,c01,0223_cop_dnn_c01_truck_10_n03796401_2226.png,n03796401_2226.png,0.0,-0.93766934,3.4755795,-3.1206384
vit_b_16,1,224,NaN,knife,bear,c05,0224_cop_dnn_c05_bear_10_n02134084_6223.png,n02134084_6223.png,0.0,1.3208022,2.8178856,-1.0585978
vit_b_16,1,225,NaN,knife,cat,c05,0225_cop_dnn_c05_cat_10_n02125311_22459.png,n02125311_22459.png,0.0,0.9915649,2.4053402,-0.99969006
vit_b_16,1,226,NaN,knife,bicycle,c10,0226_cop_dnn_c10_bicycle_10_n02835271_19143.png,n02835271_19143.png,0.0,3.6252785,4.9456534,-0.9336461
vit_b_16,1,227,NaN,knife,cat,c10,0227_cop_dnn_c10_cat_10_n02123597_4357.png,n02123597_4357.png,0.0,0.7438502,3.1368587,-1.6921126
vit_b_16,1,228,NaN,knife,boat,c03,0228_cop_dnn_c03_boat_10_n04273569_6180.png,n04273569_6180.png,0.0,0.6979132,2.9412394,-1.5862712
vit_b_16,1,229,NaN,airplane,airplane,c100,0229_cop_dnn_c100_airplane_10_n02690373_139.png,n02690373_139.png,1.0,8.741751,0.12142093,6.095494
vit_b_16,1,230,NaN,knife,bottle,c10,0230_cop_dnn_c10_bottle_10_n04557648_4165.png,n04557648_4165.png,0.0,1.1078434,2.322134,-0.85863316
vit_b_16,1,231,NaN,clock,bottle,c50,0231_cop_dnn_c50_bottle_10_n04560804_5756.png,n04560804_5756.png,0.0,0.8999277,1.0794154,-0.12691702
vit_b_16,1,232,NaN,knife,truck,c15,0232_cop_dnn_c15_truck_10_n04467665_39477.png,n04467665_39477.png,0.0,2.544291,3.4407291,-0.63387746
vit_b_16,1,233,NaN,knife,cat,c01,0233_cop_dnn_c01_cat_10_n02123159_386.png,n02123159_386.png,0.0,-0.73825496,3.4326189,-2.949253
vit_b_16,1,234,NaN,knife,bear,c15,0234_cop_dnn_c15_bear_10_n02134084_4859.png,n02134084_4859.png,0.0,1.6010253,2.6028636,-0.7084066
vit_b_16,1,235,NaN,knife,dog,c03,0235_cop_dnn_c03_dog_10_n02099429_1992.png,n02099429_1992.png,0.0,-0.35540774,3.2781196,-2.5692918
vit_b_16,1,236,NaN,knife,oven,c03,0236_cop_dnn_c03_oven_10_n04111531_584.png,n04111531_584.png,0.0,-0.3281586,2.4649882,-1.9750531
vit_b_16,1,237,NaN,knife,bottle,c05,0237_cop_dnn_c05_bottle_10_n04591713_4019.png,n04591713_4019.png,0.0,2.2938402,3.3524144,-0.748525
vit_b_16,1,238,NaN,knife,dog,c03,0238_cop_dnn_c03_dog_10_n02113712_4486.png,n02113712_4486.png,0.0,-0.8050548,2.9007177,-2.6203768
vit_b_16,1,239,NaN,chair,chair,c50,0239_cop_dnn_c50_chair_10_n03376595_13018.png,n03376595_13018.png,1.0,2.7046046,1.2445055,1.032446
vit_b_16,1,240,NaN,oven,oven,c50,0240_cop_dnn_c50_oven_10_n04111531_7421.png,n04111531_7421.png,1.0,9.018111,1.5306967,5.2944016
vit_b_16,1,241,NaN,knife,cat,c01,0241_cop_dnn_c01_cat_10_n02123045_10689.png,n02123045_10689.png,0.0,-0.7037249,3.5033488,-2.9748504
vit_b_16,1,242,NaN,knife,clock,c05,0242_cop_dnn_c05_clock_10_n02708093_4391.png,n02708093_4391.png,0.0,2.1317883,2.9996924,-0.6137009
vit_b_16,1,243,NaN,clock,clock,c50,0243_cop_dnn_c50_clock_10_n02708093_3759.png,n02708093_3759.png,1.0,6.2971816,0.6210526,4.0136294
vit_b_16,1,244,NaN,elephant,elephant,c05,0244_cop_dnn_c05_elephant_10_n02504013_648.png,n02504013_648.png,1.0,3.8892493,2.6683736,0.86328954
vit_b_16,1,245,NaN,knife,bottle,c01,0245_cop_dnn_c01_bottle_10_n04591713_1879.png,n04591713_1879.png,0.0,0.44068965,3.4675894,-2.1403415
vit_b_16,1,246,NaN,knife,dog,c01,0246_cop_dnn_c01_dog_10_n02110627_20194.png,n02110627_20194.png,0.0,-0.8036664,3.5463228,-3.075907
vit_b_16,1,247,NaN,truck,truck,c50,0247_cop_dnn_c50_truck_10_n03796401_13298.png,n03796401_13298.png,1.0,2.4127848,0.87969697,1.0840569
vit_b_16,1,248,NaN,airplane,chair,c100,0248_cop_dnn_c100_chair_10_n03376595_7824.png,n03376595_7824.png,0.0,2.501442,3.6756902,-0.83031887
vit_b_16,1,249,NaN,knife,bear,c05,0249_cop_dnn_c05_bear_10_n02134418_6252.png,n02134418_6252.png,0.0,-0.74426126,2.774483,-2.488128
vit_b_16,1,250,NaN,car,bird,c50,0250_cop_dnn_c50_bird_10_n01855032_1815.png,n01855032_1815.png,0.0,0.265012,0.33509827,-0.04955848
vit_b_16,1,251,NaN,car,car,c100,0251_cop_dnn_c100_car_10_n03100240_6773.png,n03100240_6773.png,1.0,5.9321084,0.3104284,3.975128
vit_b_16,1,252,NaN,knife,keyboard,c03,0252_cop_dnn_c03_keyboard_10_n03085013_22438.png,n03085013_22438.png,0.0,0.4326866,3.1840181,-1.9454852
vit_b_16,1,253,NaN,knife,keyboard,c01,0253_cop_dnn_c01_keyboard_10_n04505470_4950.png,n04505470_4950.png,0.0,0.058239043,4.6400867,-3.2398555
vit_b_16,1,254,NaN,knife,truck,c03,0254_cop_dnn_c03_truck_10_n04467665_22358.png,n04467665_22358.png,0.0,0.84482616,2.9824247,-1.5115104
vit_b_16,1,255,NaN,truck,truck,c15,0255_cop_dnn_c15_truck_10_n04467665_67969.png,n04467665_67969.png,1.0,1.2366238,1.0674136,0.11964968
vit_b_16,1,256,NaN,elephant,elephant,c10,0256_cop_dnn_c10_elephant_10_n02504013_2128.png,n02504013_2128.png,1.0,6.4469347,1.0999823,3.7808664
vit_b_16,1,257,NaN,car,car,c30,0257_cop_dnn_c30_car_10_n03100240_3499.png,n03100240_3499.png,1.0,5.5593114,1.0995753,3.1535096
vit_b_16,1,258,NaN,bear,bear,c50,0258_cop_dnn_c50_bear_10_n02134084_7250.png,n02134084_7250.png,1.0,3.235527,0.48408872,1.9455608
vit_b_16,1,259,NaN,bicycle,bicycle,c15,0259_cop_dnn_c15_bicycle_10_n03792782_43279.png,n03792782_43279.png,1.0,4.6020737,1.8098289,1.9744153
vit_b_16,1,260,NaN,cat,cat,c50,0260_cop_dnn_c50_cat_10_n02123045_1274.png,n02123045_1274.png,1.0,3.9496043,0.3229351,2.5644424
vit_b_16,1,261,NaN,oven,oven,c100,0261_cop_dnn_c100_oven_10_n04111531_6567.png,n04111531_6567.png,1.0,8.849929,0.4217717,5.959607
vit_b_16,1,262,NaN,knife,knife,c100,0262_cop_dnn_c100_knife_10_n03041632_86338.png,n03041632_86338.png,1.0,9.166381,2.1628618,4.9522357
vit_b_16,1,263,NaN,knife,chair,c15,0263_cop_dnn_c15_chair_10_n02791124_9757.png,n02791124_9757.png,0.0,1.8105644,2.950191,-0.80583775
vit_b_16,1,264,NaN,knife,knife,c15,0264_cop_dnn_c15_knife_10_n03041632_45090.png,n03041632_45090.png,1.0,6.8544207,2.480415,3.0928888
vit_b_16,1,265,NaN,knife,bicycle,c01,0265_cop_dnn_c01_bicycle_10_n02835271_1436.png,n02835271_1436.png,0.0,-1.0050622,3.1385922,-2.930006
vit_b_16,1,266,NaN,knife,bird,c03,0266_cop_dnn_c03_bird_10_n01798484_8189.png,n01798484_8189.png,0.0,-0.2880711,3.4882908,-2.6702912
vit_b_16,1,267,NaN,clock,bird,c15,0267_cop_dnn_c15_bird_10_n01819313_1282.png,n01819313_1282.png,0.0,-0.38565576,1.9902998,-1.6800543
vit_b_16,1,268,NaN,bottle,bottle,c100,0268_cop_dnn_c100_bottle_10_n03983396_11519.png,n03983396_11519.png,1.0,4.588062,0.5955114,2.8231595
vit_b_16,1,269,NaN,knife,boat,c05,0269_cop_dnn_c05_boat_10_n03344393_7735.png,n03344393_7735.png,0.0,1.5590125,3.3864477,-1.2921917
vit_b_16,1,270,NaN,knife,bottle,c05,0270_cop_dnn_c05_bottle_10_n04560804_21795.png,n04560804_21795.png,0.0,1.7116821,2.4900856,-0.55041444
vit_b_16,1,271,NaN,chair,chair,c30,0271_cop_dnn_c30_chair_10_n02791124_4109.png,n02791124_4109.png,1.0,2.2313242,1.6001946,0.44627604
vit_b_16,1,272,NaN,keyboard,keyboard,c03,0272_cop_dnn_c03_keyboard_10_n04505470_9663.png,n04505470_9663.png,1.0,3.061771,3.0387154,0.016302738
vit_b_16,1,273,NaN,knife,knife,c15,0273_cop_dnn_c15_knife_10_n03041632_27709.png,n03041632_27709.png,1.0,5.6193357,2.0376368,2.5326436
vit_b_16,1,274,NaN,airplane,airplane,c50,0274_cop_dnn_c50_airplane_10_n02690373_8539.png,n02690373_8539.png,1.0,7.5903583,0.027348774,5.347855
vit_b_16,1,275,NaN,knife,bear,c15,0275_cop_dnn_c15_bear_10_n02134418_2175.png,n02134418_2175.png,0.0,2.21916,3.3051977,-0.7679446
vit_b_16,1,276,NaN,elephant,elephant,c50,0276_cop_dnn_c50_elephant_10_n02504458_2875.png,n02504458_2875.png,1.0,7.182263,0.41177702,4.7874565
vit_b_16,1,277,NaN,knife,chair,c03,0277_cop_dnn_c03_chair_10_n02791124_5868.png,n02791124_5868.png,0.0,0.9677408,2.4629636,-1.0572822
vit_b_16,1,278,NaN,knife,cat,c10,0278_cop_dnn_c10_cat_10_n02123597_488.png,n02123597_488.png,0.0,0.90164775,2.835857,-1.3676924
vit_b_16,1,279,NaN,knife,oven,c30,0279_cop_dnn_c30_oven_10_n04111531_6500.png,n04111531_6500.png,0.0,5.137632,5.2441525,-0.07532148
vit_b_16,1,280,NaN,bicycle,bicycle,c15,0280_cop_dnn_c15_bicycle_10_n03792782_13002.png,n03792782_13002.png,1.0,5.565298,2.8226082,1.9393746
vit_b_16,1,281,NaN,knife,clock,c05,0281_cop_dnn_c05_clock_10_n03196217_10641.png,n03196217_10641.png,0.0,2.0800421,2.9246454,-0.5972247
vit_b_16,1,282,NaN,bicycle,bicycle,c15,0282_cop_dnn_c15_bicycle_10_n03792782_20193.png,n03792782_20193.png,1.0,6.7036653,1.5267125,3.6606586
vit_b_16,1,283,NaN,knife,truck,c05,0283_cop_dnn_c05_truck_10_n03417042_13806.png,n03417042_13806.png,0.0,1.2508528,2.7267723,-1.0436327
vit_b_16,1,284,NaN,knife,truck,c05,0284_cop_dnn_c05_truck_10_n04467665_70237.png,n04467665_70237.png,0.0,0.9595306,2.9208417,-1.3868564
vit_b_16,1,285,NaN,knife,truck,c01,0285_cop_dnn_c01_truck_10_n04467665_3720.png,n04467665_3720.png,0.0,-1.0870421,3.5118308,-3.2518945
vit_b_16,1,286,NaN,bear,bear,c10,0286_cop_dnn_c10_bear_10_n02132136_8975.png,n02132136_8975.png,1.0,3.2864819,2.9420915,0.24352078
vit_b_16,1,287,NaN,knife,knife,c05,0287_cop_dnn_c05_knife_10_n03041632_18859.png,n03041632_18859.png,1.0,3.2134337,1.9995546,0.8583422
vit_b_16,1,288,NaN,bear,bear,c50,0288_cop_dnn_c50_bear_10_n02132136_29760.png,n02132136_29760.png,1.0,2.2649446,0.89391994,0.9694608
vit_b_16,1,289,NaN,airplane,boat,c05,0289_cop_dnn_c05_boat_10_n04273569_6586.png,n04273569_6586.png,0.0,0.39227563,3.9625056,-2.524534
vit_b_16,1,290,NaN,knife,bottle,c05,0290_cop_dnn_c05_bottle_10_n03983396_11137.png,n03983396_11137.png,0.0,2.8332353,3.7470427,-0.6461594
vit_b_16,1,291,NaN,clock,clock,c10,0291_cop_dnn_c10_clock_10_n03196217_4232.png,n03196217_4232.png,1.0,4.7005157,2.8898623,1.2803254
vit_b_16,1,292,NaN,knife,clock,c01,0292_cop_dnn_c01_clock_10_n04548280_1325.png,n04548280_1325.png,0.0,1.9945103,3.7381196,-1.232918
vit_b_16,1,293,NaN,airplane,airplane,c100,0293_cop_dnn_c100_airplane_10_n02690373_2268.png,n02690373_2268.png,1.0,8.738192,0.2922044,5.9722147
vit_b_16,1,294,NaN,bicycle,bicycle,c10,0294_cop_dnn_c10_bicycle_10_n03792782_14557.png,n03792782_14557.png,1.0,4.408961,2.166017,1.5860008
vit_b_16,1,295,NaN,knife,cat,c01,0295_cop_dnn_c01_cat_10_n02124075_13792.png,n02124075_13792.png,0.0,-0.5912865,3.5768957,-2.94735
vit_b_16,1,296,NaN,knife,dog,c01,0296_cop_dnn_c01_dog_10_n02110185_14953.png,n02110185_14953.png,0.0,-0.8186553,3.0652752,-2.7463536
vit_b_16,1,297,NaN,bottle,bottle,c15,0297_cop_dnn_c15_bottle_10_n04557648_1634.png,n04557648_1634.png,1.0,3.6080186,2.7292438,0.62138766
vit_b_16,1,298,NaN,bicycle,bicycle,c50,0298_cop_dnn_c50_bicycle_10_n02835271_1701.png,n02835271_1701.png,1.0,5.994065,0.90014493,3.6019452
vit_b_16,1,299,NaN,knife,boat,c05,0299_cop_dnn_c05_boat_10_n04273569_7312.png,n04273569_7312.png,0.0,1.8985199,2.608822,-0.50225955
vit_b_16,1,300,NaN,bicycle,bird,c100,0300_cop_dnn_c100_bird_10_n01616318_5417.png,n01616318_5417.png,0.0,-0.29841444,0.24944682,-0.38739643
vit_b_16,1,301,NaN,knife,cat,c15,0301_cop_dnn_c15_cat_10_n02123045_12200.png,n02123045_12200.png,0.0,2.608668,3.2509966,-0.45419484
vit_b_16,1,302,NaN,dog,dog,c30,0302_cop_dnn_c30_dog_10_n02102480_8264.png,n02102480_8264.png,1.0,1.2542683,0.76342165,0.34708098
vit_b_16,1,303,NaN,bicycle,bicycle,c30,0303_cop_dnn_c30_bicycle_10_n03792782_5426.png,n03792782_5426.png,1.0,5.2926702,1.02107,3.0204775
vit_b_16,1,304,NaN,clock,clock,c05,0304_cop_dnn_c05_clock_10_n02708093_8038.png,n02708093_8038.png,1.0,3.8281872,2.5168204,0.9272764
vit_b_16,1,305,NaN,bicycle,bicycle,c30,0305_cop_dnn_c30_bicycle_10_n02835271_2764.png,n02835271_2764.png,1.0,5.2230167,1.291673,2.7798798
vit_b_16,1,306,NaN,knife,knife,c50,0306_cop_dnn_c50_knife_10_n03041632_39836.png,n03041632_39836.png,1.0,8.6788645,0.2873842,5.933673
vit_b_16,1,307,NaN,knife,bicycle,c01,0307_cop_dnn_c01_bicycle_10_n03792782_19040.png,n03792782_19040.png,0.0,-0.9184779,2.7674313,-2.6063316
vit_b_16,1,308,NaN,knife,cat,c01,0308_cop_dnn_c01_cat_10_n02125311_28331.png,n02125311_28331.png,0.0,-0.67625636,3.547701,-2.9867887
vit_b_16,1,309,NaN,knife,knife,c01,0309_cop_dnn_c01_knife_10_n03041632_18126.png,n03041632_18126.png,1.0,3.3521628,2.0848315,0.8961386
vit_b_16,1,310,NaN,bicycle,bicycle,c30,0310_cop_dnn_c30_bicycle_10_n03792782_19253.png,n03792782_19253.png,1.0,5.2195864,1.1806493,2.85596
vit_b_16,1,311,NaN,knife,bottle,c01,0311_cop_dnn_c01_bottle_10_n03983396_751.png,n03983396_751.png,0.0,0.5125752,3.6742692,-2.2356553
vit_b_16,1,312,NaN,knife,car,c15,0312_cop_dnn_c15_car_10_n04285008_628.png,n04285008_628.png,0.0,2.5822155,4.217834,-1.156557
vit_b_16,1,313,NaN,knife,boat,c15,0313_cop_dnn_c15_boat_10_n03662601_3011.png,n03662601_3011.png,0.0,2.4468727,2.5012178,-0.03842781
vit_b_16,1,314,NaN,knife,bottle,c10,0314_cop_dnn_c10_bottle_10_n04557648_2904.png,n04557648_2904.png,0.0,1.9938875,2.5255337,-0.37593058
vit_b_16,1,315,NaN,knife,bird,c10,0315_cop_dnn_c10_bird_10_n02002556_9804.png,n02002556_9804.png,0.0,-0.36273217,3.2406266,-2.5479596
vit_b_16,1,316,NaN,knife,truck,c05,0316_cop_dnn_c05_truck_10_n04467665_8955.png,n04467665_8955.png,0.0,1.3864956,3.3686156,-1.4015706
vit_b_16,1,317,NaN,knife,boat,c03,0317_cop_dnn_c03_boat_10_n04612504_15061.png,n04612504_15061.png,0.0,-0.37729245,2.8593607,-2.2886593
vit_b_16,1,318,NaN,knife,bird,c05,0318_cop_dnn_c05_bird_10_n02002556_1437.png,n02002556_1437.png,0.0,-0.2348814,3.1936028,-2.4243045
vit_b_16,1,319,NaN,truck,truck,c50,0319_cop_dnn_c50_truck_10_n03417042_10993.png,n03417042_10993.png,1.0,3.0593758,1.3031558,1.2418351
vit_b_16,1,320,NaN,knife,chair,c10,0320_cop_dnn_c10_chair_10_n02791124_880.png,n02791124_880.png,0.0,1.1936319,2.2964199,-0.77978885
vit_b_16,1,321,NaN,bicycle,bicycle,c50,0321_cop_dnn_c50_bicycle_10_n03792782_4826.png,n03792782_4826.png,1.0,6.600745,2.1667004,3.1353433
vit_b_16,1,322,NaN,knife,chair,c03,0322_cop_dnn_c03_chair_10_n04099969_3804.png,n04099969_3804.png,0.0,1.1111078,2.7601097,-1.1660204
vit_b_16,1,323,NaN,bottle,bottle,c10,0323_cop_dnn_c10_bottle_10_n02823428_2504.png,n02823428_2504.png,1.0,3.1276276,2.405971,0.51028824
vit_b_16,1,324,NaN,airplane,cat,c10,0324_cop_dnn_c10_cat_10_n02124075_9716.png,n02124075_9716.png,0.0,2.351043,2.6938047,-0.24236916
vit_b_16,1,325,NaN,knife,knife,c01,0325_cop_dnn_c01_knife_10_n03041632_81630.png,n03041632_81630.png,1.0,3.0956857,2.0311558,0.75273633
vit_b_16,1,326,NaN,bottle,bottle,c30,0326_cop_dnn_c30_bottle_10_n04591713_457.png,n04591713_457.png,1.0,1.453788,0.8403079,0.433796
vit_b_16,1,327,NaN,elephant,elephant,c30,0327_cop_dnn_c30_elephant_10_n02504458_5337.png,n02504458_5337.png,1.0,4.8882465,1.5842886,2.336251
vit_b_16,1,328,NaN,clock,clock,c15,0328_cop_dnn_c15_clock_10_n02708093_5429.png,n02708093_5429.png,1.0,4.3171325,2.646507,1.1813107
vit_b_16,1,329,NaN,oven,oven,c100,0329_cop_dnn_c100_oven_10_n04111531_9411.png,n04111531_9411.png,1.0,7.7288237,0.73574424,4.944854
vit_b_16,1,330,NaN,knife,knife,c01,0330_cop_dnn_c01_knife_10_n03041632_2338.png,n03041632_2338.png,1.0,3.9868293,2.145326,1.3021395
vit_b_16,1,331,NaN,cat,cat,c100,0331_cop_dnn_c100_cat_10_n02123394_2755.png,n02123394_2755.png,1.0,1.6921759,0.28408235,0.99567246
vit_b_16,1,332,NaN,elephant,elephant,c05,0332_cop_dnn_c05_elephant_10_n02504458_10243.png,n02504458_10243.png,1.0,3.0758176,2.8682199,0.14679377
vit_b_16,1,333,NaN,oven,oven,c15,0333_cop_dnn_c15_oven_10_n04111531_1752.png,n04111531_1752.png,1.0,5.9867516,2.8578613,2.2124596
vit_b_16,1,334,NaN,knife,bird,c05,0334_cop_dnn_c05_bird_10_n02037110_6736.png,n02037110_6736.png,0.0,0.20507017,3.8005204,-2.5423672
vit_b_16,1,335,NaN,airplane,airplane,c10,0335_cop_dnn_c10_airplane_10_n02690373_8804.png,n02690373_8804.png,1.0,6.7993784,2.459672,3.068636
vit_b_16,1,336,NaN,elephant,elephant,c100,0336_cop_dnn_c100_elephant_10_n02504458_12217.png,n02504458_12217.png,1.0,5.617143,0.21913576,3.8169677
vit_b_16,1,337,NaN,knife,knife,c15,0337_cop_dnn_c15_knife_10_n03041632_84012.png,n03041632_84012.png,1.0,5.1841745,1.8655127,2.3466482
vit_b_16,1,338,NaN,knife,dog,c50,0338_cop_dnn_c50_dog_10_n02093991_6192.png,n02093991_6192.png,0.0,-0.24219313,0.3765011,-0.4374829
vit_b_16,1,339,NaN,bird,bird,c50,0339_cop_dnn_c50_bird_10_n02027492_6499.png,n02027492_6499.png,1.0,0.58097625,0.071056865,0.36056748
vit_b_16,1,340,NaN,knife,knife,c10,0340_cop_dnn_c10_knife_10_n03041632_46185.png,n03041632_46185.png,1.0,7.921497,1.6062535,4.4655514
vit_b_16,1,341,NaN,clock,bear,c30,0341_cop_dnn_c30_bear_10_n02134084_14775.png,n02134084_14775.png,0.0,-0.015804268,1.1734265,-0.8409132
vit_b_16,1,342,NaN,knife,truck,c30,0342_cop_dnn_c30_truck_10_n03417042_5346.png,n03417042_5346.png,0.0,0.98880863,1.2979366,-0.21858646
vit_b_16,1,343,NaN,clock,dog,c30,0343_cop_dnn_c30_dog_10_n02093991_9672.png,n02093991_9672.png,0.0,0.4179206,0.44985533,-0.02258127
vit_b_16,1,344,NaN,elephant,elephant,c100,0344_cop_dnn_c100_elephant_10_n02504458_2031.png,n02504458_2031.png,1.0,7.1042023,0.36170182,4.767668
vit_b_16,1,345,NaN,knife,bird,c03,0345_cop_dnn_c03_bird_10_n02025239_660.png,n02025239_660.png,0.0,0.3967458,2.252243,-1.3120347
vit_b_16,1,346,NaN,knife,elephant,c01,0346_cop_dnn_c01_elephant_10_n02504458_4244.png,n02504458_4244.png,0.0,-1.26954,3.4770398,-3.3563387
vit_b_16,1,347,NaN,elephant,elephant,c30,0347_cop_dnn_c30_elephant_10_n02504013_7539.png,n02504013_7539.png,1.0,7.5945177,0.50734615,5.0113873
vit_b_16,1,348,NaN,clock,bird,c03,0348_cop_dnn_c03_bird_10_n02002724_5876.png,n02002724_5876.png,0.0,0.5981002,2.5704734,-1.3946785
vit_b_16,1,349,NaN,knife,bird,c10,0349_cop_dnn_c10_bird_10_n01532829_560.png,n01532829_560.png,0.0,0.58408934,2.4288962,-1.3044755
vit_b_16,1,350,NaN,boat,boat,c30,0350_cop_dnn_c30_boat_10_n04273569_1709.png,n04273569_1709.png,1.0,2.5093598,0.36572894,1.515776
vit_b_16,1,351,NaN,bicycle,bicycle,c50,0351_cop_dnn_c50_bicycle_10_n02835271_7958.png,n02835271_7958.png,1.0,5.6262016,0.7745857,3.4306107
vit_b_16,1,352,NaN,bear,bear,c30,0352_cop_dnn_c30_bear_10_n02133161_12157.png,n02133161_12157.png,1.0,4.318205,1.3479719,2.100272
vit_b_16,1,353,NaN,knife,chair,c01,0353_cop_dnn_c01_chair_10_n04099969_4577.png,n04099969_4577.png,0.0,0.6615942,3.538188,-2.034059
vit_b_16,1,354,NaN,knife,bicycle,c01,0354_cop_dnn_c01_bicycle_10_n02835271_10283.png,n02835271_10283.png,0.0,-0.76417214,2.7298942,-2.470678
vit_b_16,1,355,NaN,truck,truck,c100,0355_cop_dnn_c100_truck_10_n03417042_23815.png,n03417042_23815.png,1.0,3.2447343,0.8145784,1.7183796
vit_b_16,1,356,NaN,knife,bear,c03,0356_cop_dnn_c03_bear_10_n02133161_1059.png,n02133161_1059.png,0.0,2.0993323,2.550316,-0.31889367
vit_b_16,1,357,NaN,knife,chair,c01,0357_cop_dnn_c01_chair_10_n02791124_5173.png,n02791124_5173.png,0.0,1.4122983,2.5592813,-0.8110395
vit_b_16,1,358,NaN,bottle,bottle,c30,0358_cop_dnn_c30_bottle_10_n03983396_5545.png,n03983396_5545.png,1.0,3.617985,1.9753121,1.1615452
vit_b_16,1,359,NaN,knife,airplane,c01,0359_cop_dnn_c01_airplane_10_n02690373_1797.png,n02690373_1797.png,0.0,0.9957744,3.4649968,-1.746004
vit_b_16,1,360,NaN,knife,oven,c05,0360_cop_dnn_c05_oven_10_n04111531_6628.png,n04111531_6628.png,0.0,1.8626022,3.7544692,-1.337752
vit_b_16,1,361,NaN,knife,elephant,c10,0361_cop_dnn_c10_elephant_10_n02504458_7817.png,n02504458_7817.png,0.0,2.7379723,3.730078,-0.7015247
vit_b_16,1,362,NaN,knife,knife,c50,0362_cop_dnn_c50_knife_10_n03041632_4714.png,n03041632_4714.png,1.0,7.026054,0.42884517,4.6649313
vit_b_16,1,363,NaN,knife,bear,c03,0363_cop_dnn_c03_bear_10_n02134084_169.png,n02134084_169.png,0.0,0.33779806,2.8542662,-1.7794117
vit_b_16,1,364,NaN,bottle,bird,c15,0364_cop_dnn_c15_bird_10_n02013706_8336.png,n02013706_8336.png,0.0,0.49180582,1.0198663,-0.3733952
vit_b_16,1,365,NaN,knife,bottle,c15,0365_cop_dnn_c15_bottle_10_n04579145_6880.png,n04579145_6880.png,0.0,2.4314077,2.6037078,-0.12183457
vit_b_16,1,366,NaN,knife,dog,c05,0366_cop_dnn_c05_dog_10_n02105641_416.png,n02105641_416.png,0.0,-0.28639275,2.814703,-2.1928058
vit_b_16,1,367,NaN,airplane,airplane,c10,0367_cop_dnn_c10_airplane_10_n02690373_6549.png,n02690373_6549.png,1.0,5.3358335,3.6828246,1.1688539
vit_b_16,1,368,NaN,knife,clock,c01,0368_cop_dnn_c01_clock_10_n04548280_2374.png,n04548280_2374.png,0.0,2.0244842,2.4639645,-0.3107595
vit_b_16,1,369,NaN,bottle,bottle,c30,0369_cop_dnn_c30_bottle_10_n03983396_6287.png,n03983396_6287.png,1.0,2.4723153,0.7291424,1.2326094
vit_b_16,1,370,NaN,knife,dog,c01,0370_cop_dnn_c01_dog_10_n02090622_1126.png,n02090622_1126.png,0.0,-0.8088714,3.6999671,-3.1882305
vit_b_16,1,371,NaN,truck,truck,c50,0371_cop_dnn_c50_truck_10_n03796401_1681.png,n03796401_1681.png,1.0,2.0760052,0.5835648,1.0553148
vit_b_16,1,372,NaN,elephant,elephant,c30,0372_cop_dnn_c30_elephant_10_n02504013_5537.png,n02504013_5537.png,1.0,5.501092,2.7665753,1.9335953
vit_b_16,1,373,NaN,knife,keyboard,c05,0373_cop_dnn_c05_keyboard_10_n03085013_12399.png,n03085013_12399.png,0.0,2.4352288,2.9101002,-0.3357848
vit_b_16,1,374,NaN,knife,oven,c15,0374_cop_dnn_c15_oven_10_n04111531_6094.png,n04111531_6094.png,0.0,2.9842725,4.1273956,-0.80831015
vit_b_16,1,375,NaN,airplane,airplane,c03,0375_cop_dnn_c03_airplane_10_n02690373_13604.png,n02690373_13604.png,1.0,4.2607274,3.3844478,0.61962324
vit_b_16,1,376,NaN,bear,bear,c100,0376_cop_dnn_c100_bear_10_n02134084_16084.png,n02134084_16084.png,1.0,3.1349669,0.1822883,2.087859
vit_b_16,1,377,NaN,knife,boat,c01,0377_cop_dnn_c01_boat_10_n04273569_15906.png,n04273569_15906.png,0.0,-0.20734262,3.4213862,-2.565899
vit_b_16,1,378,NaN,knife,dog,c05,0378_cop_dnn_c05_dog_10_n02105162_8899.png,n02105162_8899.png,0.0,-0.44232732,2.678469,-2.206736
vit_b_16,1,379,NaN,knife,oven,c03,0379_cop_dnn_c03_oven_10_n04111531_7619.png,n04111531_7619.png,0.0,2.2065458,3.491639,-0.908698
vit_b_16,1,380,NaN,elephant,elephant,c05,0380_cop_dnn_c05_elephant_10_n02504458_1816.png,n02504458_1816.png,1.0,4.147731,2.432199,1.2130642
vit_b_16,1,381,NaN,cat,cat,c30,0381_cop_dnn_c30_cat_10_n02123045_3575.png,n02123045_3575.png,1.0,3.5373948,1.4623861,1.4672527
vit_b_16,1,382,NaN,knife,truck,c01,0382_cop_dnn_c01_truck_10_n03417042_908.png,n03417042_908.png,0.0,-0.9771699,2.8654647,-2.717153
vit_b_16,1,383,NaN,knife,boat,c03,0383_cop_dnn_c03_boat_10_n03344393_4213.png,n03344393_4213.png,0.0,1.1190039,3.2167816,-1.483353
vit_b_16,1,384,NaN,knife,knife,c01,0384_cop_dnn_c01_knife_10_n03041632_31483.png,n03041632_31483.png,1.0,4.341169,2.0548,1.616707
vit_b_16,1,385,NaN,knife,bottle,c01,0385_cop_dnn_c01_bottle_10_n03937543_986.png,n03937543_986.png,0.0,0.5759775,3.1224396,-1.8006207
vit_b_16,1,386,NaN,knife,truck,c15,0386_cop_dnn_c15_truck_10_n03796401_7381.png,n03796401_7381.png,0.0,1.0688491,3.108832,-1.4424857
vit_b_16,1,387,NaN,knife,dog,c03,0387_cop_dnn_c03_dog_10_n02094433_9787.png,n02094433_9787.png,0.0,-0.5116568,2.7585857,-2.3124106
vit_b_16,1,388,NaN,elephant,bird,c30,0388_cop_dnn_c30_bird_10_n02011460_11838.png,n02011460_11838.png,0.0,-0.13430133,0.38778225,-0.36916885
vit_b_16,1,389,NaN,cat,cat,c30,0389_cop_dnn_c30_cat_10_n02123597_29513.png,n02123597_29513.png,1.0,1.8384289,1.4496802,0.27488682
vit_b_16,1,390,NaN,chair,chair,c10,0390_cop_dnn_c10_chair_10_n04429376_5337.png,n04429376_5337.png,1.0,2.6615796,1.9748846,0.48556668
vit_b_16,1,391,NaN,knife,knife,c03,0391_cop_dnn_c03_knife_10_n03041632_4260.png,n03041632_4260.png,1.0,3.914697,1.8774353,1.4405614
vit_b_16,1,392,NaN,keyboard,keyboard,c10,0392_cop_dnn_c10_keyboard_10_n04505470_4061.png,n04505470_4061.png,1.0,3.6879005,3.09061,0.42234817
vit_b_16,1,393,NaN,boat,boat,c15,0393_cop_dnn_c15_boat_10_n03344393_6467.png,n03344393_6467.png,1.0,2.177581,0.37198177,1.2767515
vit_b_16,1,394,NaN,bicycle,bicycle,c100,0394_cop_dnn_c100_bicycle_10_n03792782_11297.png,n03792782_11297.png,1.0,7.5996857,0.34151474,5.1323023
vit_b_16,1,395,NaN,knife,bicycle,c03,0395_cop_dnn_c03_bicycle_10_n03792782_8357.png,n03792782_8357.png,0.0,0.270192,3.0777388,-1.9852355
vit_b_16,1,396,NaN,knife,dog,c10,0396_cop_dnn_c10_dog_10_n02108422_2739.png,n02108422_2739.png,0.0,-0.795032,3.2017395,-2.8261442
vit_b_16,1,397,NaN,knife,bear,c03,0397_cop_dnn_c03_bear_10_n02134084_6840.png,n02134084_6840.png,0.0,-0.9066117,2.70327,-2.5525718
vit_b_16,1,398,NaN,bear,bear,c30,0398_cop_dnn_c30_bear_10_n02133161_5365.png,n02133161_5365.png,1.0,3.5950236,1.9347638,1.1739811
vit_b_16,1,399,NaN,bottle,bottle,c30,0399_cop_dnn_c30_bottle_10_n04560804_1010.png,n04560804_1010.png,1.0,3.4289665,0.2933969,2.2171826
vit_b_16,1,400,NaN,clock,clock,c10,0400_cop_dnn_c10_clock_10_n04548280_183.png,n04548280_183.png,1.0,3.736365,2.0741649,1.175353
vit_b_16,1,401,NaN,keyboard,keyboard,c100,0401_cop_dnn_c100_keyboard_10_n03085013_21534.png,n03085013_21534.png,1.0,6.0940027,0.37387788,4.0447392
vit_b_16,1,402,NaN,keyboard,keyboard,c50,0402_cop_dnn_c50_keyboard_10_n03085013_24111.png,n03085013_24111.png,1.0,4.435197,1.3855748,2.1564085
vit_b_16,1,403,NaN,knife,knife,c15,0403_cop_dnn_c15_knife_10_n03041632_28009.png,n03041632_28009.png,1.0,6.039955,1.8550669,2.959163
vit_b_16,1,404,NaN,cat,cat,c50,0404_cop_dnn_c50_cat_10_n02123159_7647.png,n02123159_7647.png,1.0,2.4145658,1.2809441,0.8015916
vit_b_16,1,405,NaN,knife,bottle,c01,0405_cop_dnn_c01_bottle_10_n02823428_8696.png,n02823428_8696.png,0.0,0.5389079,3.4763267,-2.0770688
vit_b_16,1,406,NaN,elephant,elephant,c15,0406_cop_dnn_c15_elephant_10_n02504458_8923.png,n02504458_8923.png,1.0,4.5075855,2.815616,1.1964033
vit_b_16,1,407,NaN,knife,bear,c01,0407_cop_dnn_c01_bear_10_n02134084_5031.png,n02134084_5031.png,0.0,-1.0875728,3.2593548,-3.0737422
vit_b_16,1,408,NaN,clock,dog,c50,0408_cop_dnn_c50_dog_10_n02097209_1658.png,n02097209_1658.png,0.0,-0.17322029,0.74335694,-0.64811796
vit_b_16,1,409,NaN,knife,dog,c05,0409_cop_dnn_c05_dog_10_n02099849_6384.png,n02099849_6384.png,0.0,-0.42004296,2.2163498,-1.8642113
vit_b_16,1,410,NaN,elephant,elephant,c15,0410_cop_dnn_c15_elephant_10_n02504013_3459.png,n02504013_3459.png,1.0,4.336117,2.6046324,1.2243444
vit_b_16,1,411,NaN,knife,knife,c03,0411_cop_dnn_c03_knife_10_n03041632_36390.png,n03041632_36390.png,1.0,2.1085014,2.0166247,0.06496667
vit_b_16,1,412,NaN,knife,knife,c100,0412_cop_dnn_c100_knife_10_n03041632_10263.png,n03041632_10263.png,1.0,8.427911,0.56807613,5.5577426
vit_b_16,1,413,NaN,knife,cat,c03,0413_cop_dnn_c03_cat_10_n02123045_840.png,n02123045_840.png,0.0,2.4387627,2.877739,-0.3104031
vit_b_16,1,414,NaN,clock,clock,c05,0414_cop_dnn_c05_clock_10_n04548280_4758.png,n04548280_4758.png,1.0,4.3445864,2.7731674,1.111161
vit_b_16,1,415,NaN,bear,bear,c50,0415_cop_dnn_c50_bear_10_n02133161_1247.png,n02133161_1247.png,1.0,5.0505276,2.027666,2.137486
vit_b_16,1,416,NaN,airplane,airplane,c10,0416_cop_dnn_c10_airplane_10_n02690373_6716.png,n02690373_6716.png,1.0,6.086361,2.9941804,2.1865017
vit_b_16,1,417,NaN,keyboard,keyboard,c30,0417_cop_dnn_c30_keyboard_10_n04505470_4893.png,n04505470_4893.png,1.0,4.872686,1.3266251,2.5074437
vit_b_16,1,418,NaN,knife,chair,c30,0418_cop_dnn_c30_chair_10_n04099969_34525.png,n04099969_34525.png,0.0,1.899699,2.762332,-0.60997367
vit_b_16,1,419,NaN,knife,airplane,c01,0419_cop_dnn_c01_airplane_10_n02690373_4793.png,n02690373_4793.png,0.0,0.98855317,3.5856316,-1.8364117
vit_b_16,1,420,NaN,knife,knife,c15,0420_cop_dnn_c15_knife_10_n03041632_4787.png,n03041632_4787.png,1.0,4.949576,1.3720909,2.529664
vit_b_16,1,421,NaN,knife,boat,c05,0421_cop_dnn_c05_boat_10_n04273569_20587.png,n04273569_20587.png,0.0,1.669783,2.356463,-0.48555607
vit_b_16,1,422,NaN,airplane,bicycle,c03,0422_cop_dnn_c03_bicycle_10_n03792782_4844.png,n03792782_4844.png,0.0,1.0508748,1.5660415,-0.36427784
vit_b_16,1,423,NaN,knife,cat,c01,0423_cop_dnn_c01_cat_10_n02123045_6066.png,n02123045_6066.png,0.0,-0.6803215,3.419848,-2.899258
vit_b_16,1,424,NaN,boat,boat,c30,0424_cop_dnn_c30_boat_10_n04273569_17045.png,n04273569_17045.png,1.0,2.1580389,0.9107996,0.8819313
vit_b_16,1,425,NaN,keyboard,keyboard,c100,0425_cop_dnn_c100_keyboard_10_n04505470_5068.png,n04505470_5068.png,1.0,4.817943,0.5079698,3.0476115
vit_b_16,1,426,NaN,airplane,airplane,c10,0426_cop_dnn_c10_airplane_10_n02690373_2724.png,n02690373_2724.png,1.0,6.8610535,2.0338778,3.4133286
vit_b_16,1,427,NaN,knife,boat,c10,0427_cop_dnn_c10_boat_10_n03662601_4844.png,n03662601_4844.png,0.0,2.7195203,3.1674528,-0.3167361
vit_b_16,1,428,NaN,chair,chair,c100,0428_cop_dnn_c100_chair_10_n04099969_3929.png,n04099969_3929.png,1.0,2.3815527,0.44278255,1.3709176
vit_b_16,1,429,NaN,oven,oven,c10,0429_cop_dnn_c10_oven_10_n04111531_9026.png,n04111531_9026.png,1.0,4.806172,2.131685,1.8911479
vit_b_16,1,430,NaN,knife,knife,c15,0430_cop_dnn_c15_knife_10_n03041632_51225.png,n03041632_51225.png,1.0,8.3475065,1.5027233,4.839993
vit_b_16,1,431,NaN,clock,boat,c10,0431_cop_dnn_c10_boat_10_n03344393_6638.png,n03344393_6638.png,0.0,0.2148939,2.2149563,-1.4142578
vit_b_16,1,432,NaN,knife,knife,c30,0432_cop_dnn_c30_knife_10_n03041632_4590.png,n03041632_4590.png,1.0,5.933478,2.4821842,2.4404333
vit_b_16,1,433,NaN,knife,clock,c03,0433_cop_dnn_c03_clock_10_n02708093_3761.png,n02708093_3761.png,0.0,1.8347183,2.8367832,-0.70856684
vit_b_16,1,434,NaN,knife,car,c03,0434_cop_dnn_c03_car_10_n04285008_3193.png,n04285008_3193.png,0.0,0.5342554,2.6871502,-1.5223267
vit_b_16,1,435,NaN,keyboard,keyboard,c50,0435_cop_dnn_c50_keyboard_10_n03085013_661.png,n03085013_661.png,1.0,7.0560284,0.42423853,4.6893835
vit_b_16,1,436,NaN,knife,bottle,c03,0436_cop_dnn_c03_bottle_10_n04557648_2355.png,n04557648_2355.png,0.0,0.7145699,2.9711738,-1.5956599
vit_b_16,1,437,NaN,bottle,dog,c30,0437_cop_dnn_c30_dog_10_n02107312_860.png,n02107312_860.png,0.0,0.085766025,0.8268176,-0.5240026
vit_b_16,1,438,NaN,boat,boat,c100,0438_cop_dnn_c100_boat_10_n02951358_1541.png,n02951358_1541.png,1.0,2.2755034,0.43699628,1.3000209
vit_b_16,1,439,NaN,boat,boat,c15,0439_cop_dnn_c15_boat_10_n02951358_4972.png,n02951358_4972.png,1.0,3.9702466,2.8847024,0.7675956
vit_b_16,1,440,NaN,bear,bear,c15,0440_cop_dnn_c15_bear_10_n02132136_6352.png,n02132136_6352.png,1.0,3.9323525,2.375269,1.1010244
vit_b_16,1,441,NaN,knife,knife,c05,0441_cop_dnn_c05_knife_10_n03041632_27022.png,n03041632_27022.png,1.0,2.215764,1.8334433,0.2703416
vit_b_16,1,442,NaN,airplane,airplane,c15,0442_cop_dnn_c15_airplane_10_n02690373_10399.png,n02690373_10399.png,1.0,5.8097696,3.5318704,1.610718
vit_b_16,1,443,NaN,keyboard,keyboard,c30,0443_cop_dnn_c30_keyboard_10_n04505470_4803.png,n04505470_4803.png,1.0,5.176742,2.052406,2.2092392
vit_b_16,1,444,NaN,knife,bottle,c03,0444_cop_dnn_c03_bottle_10_n03937543_4916.png,n03937543_4916.png,0.0,2.017303,3.1108453,-0.77325124
vit_b_16,1,445,NaN,clock,dog,c10,0445_cop_dnn_c10_dog_10_n02092339_2268.png,n02092339_2268.png,0.0,-0.43232813,2.2599926,-1.9037583
vit_b_16,1,446,NaN,cat,cat,c100,0446_cop_dnn_c100_cat_10_n02123394_2034.png,n02123394_2034.png,1.0,2.8304336,0.53709435,1.6216358
vit_b_16,1,447,NaN,knife,keyboard,c01,0447_cop_dnn_c01_keyboard_10_n03085013_24442.png,n03085013_24442.png,0.0,-0.29758763,3.3790708,-2.59979
vit_b_16,1,448,NaN,knife,bicycle,c03,0448_cop_dnn_c03_bicycle_10_n03792782_12908.png,n03792782_12908.png,0.0,-0.39347914,3.2547631,-2.579697
vit_b_16,1,449,NaN,cat,cat,c50,0449_cop_dnn_c50_cat_10_n02124075_10241.png,n02124075_10241.png,1.0,3.276447,0.68214816,1.8344463
vit_b_16,1,450,NaN,knife,keyboard,c03,0450_cop_dnn_c03_keyboard_10_n03085013_29941.png,n03085013_29941.png,0.0,0.53679705,2.3697445,-1.2960896
vit_b_16,1,451,NaN,knife,car,c05,0451_cop_dnn_c05_car_10_n03100240_5718.png,n03100240_5718.png,0.0,1.3990821,3.196345,-1.2708569
vit_b_16,1,452,NaN,knife,bear,c01,0452_cop_dnn_c01_bear_10_n02133161_789.png,n02133161_789.png,0.0,-1.0093889,3.0393267,-2.8628743
vit_b_16,1,453,NaN,chair,chair,c30,0453_cop_dnn_c30_chair_10_n04099969_9891.png,n04099969_9891.png,1.0,2.2719991,0.9039301,0.9673708
vit_b_16,1,454,NaN,knife,knife,c01,0454_cop_dnn_c01_knife_10_n03041632_8666.png,n03041632_8666.png,1.0,3.3753386,2.1733382,0.8499426
vit_b_16,1,455,NaN,knife,car,c10,0455_cop_dnn_c10_car_10_n03100240_52.png,n03100240_52.png,0.0,2.0076978,3.7437563,-1.2275788
vit_b_16,1,456,NaN,clock,bird,c10,0456_cop_dnn_c10_bird_10_n02007558_45529.png,n02007558_45529.png,0.0,0.63626415,1.6014313,-0.6824762
vit_b_16,1,457,NaN,airplane,airplane,c15,0457_cop_dnn_c15_airplane_10_n02690373_1933.png,n02690373_1933.png,1.0,6.167939,2.6334553,2.4992576
vit_b_16,1,458,NaN,knife,elephant,c03,0458_cop_dnn_c03_elephant_10_n02504013_1879.png,n02504013_1879.png,0.0,0.9948039,3.0810294,-1.4751842
vit_b_16,1,459,NaN,car,car,c10,0459_cop_dnn_c10_car_10_n03100240_3373.png,n03100240_3373.png,1.0,3.0079882,2.0837257,0.6535523
vit_b_16,1,460,NaN,bicycle,bicycle,c15,0460_cop_dnn_c15_bicycle_10_n03792782_7331.png,n03792782_7331.png,1.0,4.8139944,3.4993231,0.929613
vit_b_16,1,461,NaN,chair,chair,c100,0461_cop_dnn_c100_chair_10_n03376595_11049.png,n03376595_11049.png,1.0,2.1324363,1.9566988,0.12426518
vit_b_16,1,462,NaN,knife,knife,c50,0462_cop_dnn_c50_knife_10_n03041632_37274.png,n03041632_37274.png,1.0,8.5528555,1.6992732,4.846215
vit_b_16,1,463,NaN,bottle,bottle,c15,0463_cop_dnn_c15_bottle_10_n02823428_780.png,n02823428_780.png,1.0,3.1341126,2.762132,0.26303005
vit_b_16,1,464,NaN,knife,cat,c05,0464_cop_dnn_c05_cat_10_n02123045_390.png,n02123045_390.png,0.0,1.7694631,2.8919454,-0.7937149
vit_b_16,1,465,NaN,knife,bird,c30,0465_cop_dnn_c30_bird_10_n01796340_10024.png,n01796340_10024.png,0.0,-0.30206335,1.947976,-1.5910181
vit_b_16,1,466,NaN,knife,knife,c05,0466_cop_dnn_c05_knife_10_n03041632_13509.png,n03041632_13509.png,1.0,3.9934473,1.0779649,2.0615575
vit_b_16,1,467,NaN,knife,bird,c05,0467_cop_dnn_c05_bird_10_n01534433_14198.png,n01534433_14198.png,0.0,0.072614506,3.1830146,-2.1993852
vit_b_16,1,468,NaN,chair,chair,c100,0468_cop_dnn_c100_chair_10_n04099969_2502.png,n04099969_2502.png,1.0,4.4812794,1.456932,2.1385365
vit_b_16,1,469,NaN,knife,cat,c05,0469_cop_dnn_c05_cat_10_n02123045_15474.png,n02123045_15474.png,0.0,1.7907192,3.0522704,-0.89205146
vit_b_16,1,470,NaN,clock,clock,c30,0470_cop_dnn_c30_clock_10_n02708093_442.png,n02708093_442.png,1.0,5.4717994,2.2205548,2.2989771
vit_b_16,1,471,NaN,boat,boat,c100,0471_cop_dnn_c100_boat_10_n02951358_12663.png,n02951358_12663.png,1.0,3.4729142,2.2231321,0.8837294
vit_b_16,1,472,NaN,knife,cat,c05,0472_cop_dnn_c05_cat_10_n02125311_37322.png,n02125311_37322.png,0.0,0.58573264,2.0954533,-1.0675336
vit_b_16,1,473,NaN,cat,bird,c100,0473_cop_dnn_c100_bird_10_n01558993_5185.png,n01558993_5185.png,0.0,0.64069897,0.75434774,-0.08036182
vit_b_16,1,474,NaN,elephant,elephant,c100,0474_cop_dnn_c100_elephant_10_n02504013_7248.png,n02504013_7248.png,1.0,7.5178494,0.47828245,4.9777255
vit_b_16,1,475,NaN,knife,bottle,c01,0475_cop_dnn_c01_bottle_10_n02823428_4245.png,n02823428_4245.png,0.0,0.56203455,3.8185525,-2.302706
vit_b_16,1,476,NaN,chair,chair,c10,0476_cop_dnn_c10_chair_10_n04099969_8993.png,n04099969_8993.png,1.0,2.3828495,2.14658,0.16706775
vit_b_16,1,477,NaN,knife,dog,c30,0477_cop_dnn_c30_dog_10_n02101388_8775.png,n02101388_8775.png,0.0,-0.013604018,2.511147,-1.7852685
vit_b_16,1,478,NaN,knife,car,c01,0478_cop_dnn_c01_car_10_n02814533_3590.png,n02814533_3590.png,0.0,-0.7191914,3.4738374,-2.9649193
vit_b_16,1,479,NaN,elephant,elephant,c05,0479_cop_dnn_c05_elephant_10_n02504458_6018.png,n02504458_6018.png,1.0,4.179941,2.3036675,1.3267258
vit_b_16,1,480,NaN,keyboard,keyboard,c100,0480_cop_dnn_c100_keyboard_10_n03085013_11332.png,n03085013_11332.png,1.0,7.9282618,0.69967574,5.1113825
vit_b_16,1,481,NaN,oven,oven,c05,0481_cop_dnn_c05_oven_10_n04111531_6863.png,n04111531_6863.png,1.0,4.8086767,3.2279785,1.1177225
vit_b_16,1,482,NaN,airplane,airplane,c50,0482_cop_dnn_c50_airplane_10_n02690373_2675.png,n02690373_2675.png,1.0,8.985328,0.5784398,5.9445677
vit_b_16,1,483,NaN,knife,dog,c01,0483_cop_dnn_c01_dog_10_n02106550_660.png,n02106550_660.png,0.0,-0.7981062,3.5920448,-3.1043055
vit_b_16,1,484,NaN,knife,knife,c15,0484_cop_dnn_c15_knife_10_n03041632_11700.png,n03041632_11700.png,1.0,6.965172,1.380023,3.9492967
vit_b_16,1,485,NaN,knife,bird,c15,0485_cop_dnn_c15_bird_10_n02009229_6149.png,n02009229_6149.png,0.0,-0.25073326,3.2337031,-2.4638686
vit_b_16,1,486,NaN,clock,clock,c30,0486_cop_dnn_c30_clock_10_n03196217_3780.png,n03196217_3780.png,1.0,3.871996,1.2543181,1.8509777
vit_b_16,1,487,NaN,bird,bird,c100,0487_cop_dnn_c100_bird_10_n01530575_34173.png,n01530575_34173.png,1.0,0.8661807,0.344469,0.3689059
vit_b_16,1,488,NaN,bottle,bottle,c100,0488_cop_dnn_c100_bottle_10_n03983396_17803.png,n03983396_17803.png,1.0,5.176378,0.5151419,3.2959914
vit_b_16,1,489,NaN,oven,oven,c05,0489_cop_dnn_c05_oven_10_n04111531_2156.png,n04111531_2156.png,1.0,5.215801,3.1285102,1.4759374
vit_b_16,1,490,NaN,elephant,elephant,c10,0490_cop_dnn_c10_elephant_10_n02504013_14948.png,n02504013_14948.png,1.0,4.639867,1.9020287,1.9359441
vit_b_16,1,491,NaN,knife,boat,c01,0491_cop_dnn_c01_boat_10_n04273569_3112.png,n04273569_3112.png,0.0,-0.024390053,4.2608953,-3.0301545
vit_b_16,1,492,NaN,airplane,bird,c50,0492_cop_dnn_c50_bird_10_n01560419_6583.png,n01560419_6583.png,0.0,0.14169128,0.41387308,-0.19246161
vit_b_16,1,493,NaN,keyboard,keyboard,c50,0493_cop_dnn_c50_keyboard_10_n03085013_19161.png,n03085013_19161.png,1.0,5.983728,0.23222224,4.066929
vit_b_16,1,494,NaN,knife,bird,c05,0494_cop_dnn_c05_bird_10_n01616318_57023.png,n01616318_57023.png,0.0,-0.11974564,3.1834035,-2.3356793
vit_b_16,1,495,NaN,truck,truck,c50,0495_cop_dnn_c50_truck_10_n04467665_69176.png,n04467665_69176.png,1.0,2.970009,0.5531966,1.7089444
vit_b_16,1,496,NaN,car,car,c50,0496_cop_dnn_c50_car_10_n03100240_4971.png,n03100240_4971.png,1.0,7.044304,0.08010159,4.9244347
vit_b_16,1,497,NaN,knife,oven,c01,0497_cop_dnn_c01_oven_10_n04111531_4901.png,n04111531_4901.png,0.0,0.46732017,3.3014383,-2.0040243
vit_b_16,1,498,NaN,bear,bear,c30,0498_cop_dnn_c30_bear_10_n02133161_4091.png,n02133161_4091.png,1.0,4.18184,1.1552788,2.140102
vit_b_16,1,499,NaN,knife,cat,c03,0499_cop_dnn_c03_cat_10_n02123394_4164.png,n02123394_4164.png,0.0,0.3997259,3.127067,-1.9285215
vit_b_16,1,500,NaN,knife,bird,c03,0500_cop_dnn_c03_bird_10_n02017213_689.png,n02017213_689.png,0.0,0.052599434,2.9641814,-2.0587995
vit_b_16,1,501,NaN,dog,dog,c100,0501_cop_dnn_c100_dog_10_n02109047_14207.png,n02109047_14207.png,1.0,0.8520352,0.52611095,0.23046327
vit_b_16,1,502,NaN,elephant,elephant,c05,0502_cop_dnn_c05_elephant_10_n02504013_8347.png,n02504013_8347.png,1.0,4.139756,2.8859246,0.88659286
vit_b_16,1,503,NaN,bottle,bottle,c30,0503_cop_dnn_c30_bottle_10_n04591713_1652.png,n04591713_1652.png,1.0,4.1871667,1.3437134,2.0106251
vit_b_16,1,504,NaN,oven,oven,c15,0504_cop_dnn_c15_oven_10_n04111531_22403.png,n04111531_22403.png,1.0,6.683144,2.5538874,2.9198256
vit_b_16,1,505,NaN,airplane,airplane,c100,0505_cop_dnn_c100_airplane_10_n02690373_6046.png,n02690373_6046.png,1.0,9.163242,0.19875681,6.3388486
vit_b_16,1,506,NaN,knife,bear,c15,0506_cop_dnn_c15_bear_10_n02134084_1689.png,n02134084_1689.png,0.0,1.7053988,2.0577245,-0.24913187
vit_b_16,1,507,NaN,oven,oven,c30,0507_cop_dnn_c30_oven_10_n04111531_14269.png,n04111531_14269.png,1.0,7.79745,2.395567,3.8197083
vit_b_16,1,508,NaN,cat,cat,c100,0508_cop_dnn_c100_cat_10_n02123597_9444.png,n02123597_9444.png,1.0,4.946509,0.27699193,3.3018472
vit_b_16,1,509,NaN,knife,bear,c10,0509_cop_dnn_c10_bear_10_n02134418_128.png,n02134418_128.png,0.0,1.7224827,2.8044772,-0.7650857
vit_b_16,1,510,NaN,airplane,airplane,c30,0510_cop_dnn_c30_airplane_10_n02690373_8789.png,n02690373_8789.png,1.0,9.157126,0.2340792,6.3095474
vit_b_16,1,511,NaN,knife,bottle,c01,0511_cop_dnn_c01_bottle_10_n03937543_10092.png,n03937543_10092.png,0.0,0.46908325,2.6256697,-1.5249369
vit_b_16,1,512,NaN,clock,clock,c03,0512_cop_dnn_c03_clock_10_n02708093_7257.png,n02708093_7257.png,1.0,3.7820787,2.9517431,0.587136
vit_b_16,1,513,NaN,bear,bear,c100,0513_cop_dnn_c100_bear_10_n02134084_21207.png,n02134084_21207.png,1.0,3.0142968,0.3372297,1.8929724
vit_b_16,1,514,NaN,knife,bird,c05,0514_cop_dnn_c05_bird_10_n01797886_12811.png,n01797886_12811.png,0.0,0.110119216,3.961598,-2.7234068
vit_b_16,1,515,NaN,knife,oven,c01,0515_cop_dnn_c01_oven_10_n04111531_21248.png,n04111531_21248.png,0.0,0.41502473,3.5654595,-2.2276938
vit_b_16,1,516,NaN,clock,dog,c15,0516_cop_dnn_c15_dog_10_n02090379_5574.png,n02090379_5574.png,0.0,-0.29172435,1.7997121,-1.4788688
vit_b_16,1,517,NaN,car,car,c15,0517_cop_dnn_c15_car_10_n04285008_8443.png,n04285008_8443.png,1.0,3.7693837,1.6716628,1.4833127
vit_b_16,1,518,NaN,car,car,c100,0518_cop_dnn_c100_car_10_n03100240_15647.png,n03100240_15647.png,1.0,5.604523,3.8081062,1.2702587
vit_b_16,1,519,NaN,chair,chair,c50,0519_cop_dnn_c50_chair_10_n02791124_5824.png,n02791124_5824.png,1.0,1.7086873,1.292981,0.29394874
vit_b_16,1,520,NaN,knife,bear,c05,0520_cop_dnn_c05_bear_10_n02133161_9949.png,n02133161_9949.png,0.0,-0.4957344,2.7812786,-2.3171983
vit_b_16,1,521,NaN,knife,elephant,c03,0521_cop_dnn_c03_elephant_10_n02504458_5320.png,n02504458_5320.png,0.0,-0.92595893,3.0271707,-2.7952847
vit_b_16,1,522,NaN,knife,keyboard,c01,0522_cop_dnn_c01_keyboard_10_n04505470_1904.png,n04505470_1904.png,0.0,0.15603839,3.3333006,-2.2466638
vit_b_16,1,523,NaN,oven,oven,c100,0523_cop_dnn_c100_oven_10_n04111531_4685.png,n04111531_4685.png,1.0,8.830074,0.54242885,5.8602505
vit_b_16,1,524,NaN,knife,truck,c05,0524_cop_dnn_c05_truck_10_n03417042_2230.png,n03417042_2230.png,0.0,0.8988697,3.3417397,-1.7273699
vit_b_16,1,525,NaN,knife,bottle,c15,0525_cop_dnn_c15_bottle_10_n04591713_6842.png,n04591713_6842.png,0.0,2.0626283,3.139504,-0.7614661
vit_b_16,1,526,NaN,boat,boat,c50,0526_cop_dnn_c50_boat_10_n02951358_8285.png,n02951358_8285.png,1.0,2.8059518,1.033208,1.2535192
vit_b_16,1,527,NaN,knife,knife,c01,0527_cop_dnn_c01_knife_10_n03041632_48675.png,n03041632_48675.png,1.0,3.9249642,1.769713,1.5239927
vit_b_16,1,528,NaN,knife,oven,c01,0528_cop_dnn_c01_oven_10_n04111531_14435.png,n04111531_14435.png,0.0,0.17361204,3.0909626,-2.0628784
vit_b_16,1,529,NaN,cat,cat,c50,0529_cop_dnn_c50_cat_10_n02123159_8273.png,n02123159_8273.png,1.0,1.2374178,0.17442913,0.75164646
vit_b_16,1,530,NaN,knife,bird,c50,0530_cop_dnn_c50_bird_10_n01614925_1908.png,n01614925_1908.png,0.0,0.12975812,0.31476703,-0.13082106
vit_b_16,1,531,NaN,knife,knife,c05,0531_cop_dnn_c05_knife_10_n03041632_96345.png,n03041632_96345.png,1.0,3.800201,1.7826328,1.4266361
vit_b_16,1,532,NaN,knife,knife,c10,0532_cop_dnn_c10_knife_10_n03041632_31037.png,n03041632_31037.png,1.0,4.8832083,1.9699354,2.059995
vit_b_16,1,533,NaN,airplane,airplane,c50,0533_cop_dnn_c50_airplane_10_n02690373_1436.png,n02690373_1436.png,1.0,9.270066,1.0169991,5.8357997
vit_b_16,1,534,NaN,chair,chair,c100,0534_cop_dnn_c100_chair_10_n04099969_28072.png,n04099969_28072.png,1.0,4.0420885,0.5265332,2.485873
vit_b_16,1,535,NaN,knife,boat,c01,0535_cop_dnn_c01_boat_10_n04612504_19983.png,n04612504_19983.png,0.0,-0.3162473,3.5323205,-2.7213483
vit_b_16,1,536,NaN,oven,oven,c15,0536_cop_dnn_c15_oven_10_n04111531_8255.png,n04111531_8255.png,1.0,5.451012,2.69808,1.946617
vit_b_16,1,537,NaN,bear,bear,c15,0537_cop_dnn_c15_bear_10_n02132136_1574.png,n02132136_1574.png,1.0,3.2020123,2.4061053,0.5627913
vit_b_16,1,538,NaN,boat,boat,c100,0538_cop_dnn_c100_boat_10_n04273569_24747.png,n04273569_24747.png,1.0,4.3879275,1.0368474,2.3695714
vit_b_16,1,539,NaN,knife,dog,c30,0539_cop_dnn_c30_dog_10_n02113799_18413.png,n02113799_18413.png,0.0,-0.53136766,1.8363158,-1.6742051
vit_b_16,1,540,NaN,boat,boat,c15,0540_cop_dnn_c15_boat_10_n04273569_28333.png,n04273569_28333.png,1.0,2.1718874,1.2905767,0.6231808
vit_b_16,1,541,NaN,knife,bird,c01,0541_cop_dnn_c01_bird_10_n02017213_2183.png,n02017213_2183.png,0.0,-0.31137052,3.3760145,-2.6073751
vit_b_16,1,542,NaN,boat,boat,c50,0542_cop_dnn_c50_boat_10_n04273569_26139.png,n04273569_26139.png,1.0,1.9632909,0.27442303,1.1942099
vit_b_16,1,543,NaN,knife,knife,c03,0543_cop_dnn_c03_knife_10_n03041632_29684.png,n03041632_29684.png,1.0,4.259131,2.047249,1.5640367
vit_b_16,1,544,NaN,boat,boat,c100,0544_cop_dnn_c100_boat_10_n02951358_3087.png,n02951358_3087.png,1.0,1.8797184,1.5512502,0.2322621
vit_b_16,1,545,NaN,keyboard,keyboard,c15,0545_cop_dnn_c15_keyboard_10_n03085013_13615.png,n03085013_13615.png,1.0,6.975962,0.3643595,4.6751094
vit_b_16,1,546,NaN,knife,oven,c03,0546_cop_dnn_c03_oven_10_n04111531_1778.png,n04111531_1778.png,0.0,-0.06276682,2.5826607,-1.8705997
vit_b_16,1,547,NaN,knife,dog,c03,0547_cop_dnn_c03_dog_10_n02097474_9129.png,n02097474_9129.png,0.0,-0.38512886,3.326304,-2.6243794
vit_b_16,1,548,NaN,knife,bird,c30,0548_cop_dnn_c30_bird_10_n02013706_19220.png,n02013706_19220.png,0.0,-0.35984662,1.7014341,-1.4575456
vit_b_16,1,549,NaN,clock,clock,c100,0549_cop_dnn_c100_clock_10_n03196217_7199.png,n03196217_7199.png,1.0,5.136975,0.2832723,3.432086
vit_b_16,1,550,NaN,bear,bear,c50,0550_cop_dnn_c50_bear_10_n02132136_27823.png,n02132136_27823.png,1.0,4.2925587,0.4266228,2.7336295
vit_b_16,1,551,NaN,knife,boat,c03,0551_cop_dnn_c03_boat_10_n03662601_6462.png,n03662601_6462.png,0.0,0.08202751,3.048355,-2.0975103
vit_b_16,1,552,NaN,knife,knife,c15,0552_cop_dnn_c15_knife_10_n03041632_11773.png,n03041632_11773.png,1.0,2.1395714,1.9837936,0.11015155
vit_b_16,1,553,NaN,knife,clock,c01,0553_cop_dnn_c01_clock_10_n02708093_7998.png,n02708093_7998.png,0.0,1.983437,3.2665124,-0.9072714
vit_b_16,1,554,NaN,elephant,elephant,c30,0554_cop_dnn_c30_elephant_10_n02504458_3409.png,n02504458_3409.png,1.0,5.671098,2.0406234,2.5671334
vit_b_16,1,555,NaN,knife,bottle,c01,0555_cop_dnn_c01_bottle_10_n04560804_24166.png,n04560804_24166.png,0.0,0.5712548,3.5886385,-2.1336126
vit_b_16,1,556,NaN,clock,cat,c15,0556_cop_dnn_c15_cat_10_n02125311_17613.png,n02125311_17613.png,0.0,1.0224427,1.7374204,-0.50556564
vit_b_16,1,557,NaN,knife,bicycle,c05,0557_cop_dnn_c05_bicycle_10_n03792782_5284.png,n03792782_5284.png,0.0,2.4869008,3.387937,-0.6371289
vit_b_16,1,558,NaN,oven,oven,c10,0558_cop_dnn_c10_oven_10_n04111531_13006.png,n04111531_13006.png,1.0,5.746703,3.1221263,1.8558561
vit_b_16,1,559,NaN,oven,oven,c10,0559_cop_dnn_c10_oven_10_n04111531_8309.png,n04111531_8309.png,1.0,5.8341355,2.9464135,2.0419278
vit_b_16,1,560,NaN,clock,clock,c10,0560_cop_dnn_c10_clock_10_n04548280_8390.png,n04548280_8390.png,1.0,3.3032455,3.2730632,0.021342153
vit_b_16,1,561,NaN,truck,truck,c50,0561_cop_dnn_c50_truck_10_n04467665_7110.png,n04467665_7110.png,1.0,2.641829,0.6114596,1.4356879
vit_b_16,1,562,NaN,clock,clock,c10,0562_cop_dnn_c10_clock_10_n03196217_8020.png,n03196217_8020.png,1.0,2.2221282,1.3686365,0.6035097
vit_b_16,1,563,NaN,elephant,elephant,c100,0563_cop_dnn_c100_elephant_10_n02504458_7955.png,n02504458_7955.png,1.0,7.301905,0.30846182,4.9451113
vit_b_16,1,564,NaN,knife,elephant,c01,0564_cop_dnn_c01_elephant_10_n02504458_1022.png,n02504458_1022.png,0.0,-1.2276886,3.5078864,-3.348557
vit_b_16,1,565,NaN,clock,clock,c100,0565_cop_dnn_c100_clock_10_n04548280_2383.png,n04548280_2383.png,1.0,5.763469,0.107662044,3.9992595
vit_b_16,1,566,NaN,oven,bird,c50,0566_cop_dnn_c50_bird_10_n02002724_7019.png,n02002724_7019.png,0.0,0.2423751,0.571117,-0.23245561
vit_b_16,1,567,NaN,cat,cat,c100,0567_cop_dnn_c100_cat_10_n02125311_1127.png,n02125311_1127.png,1.0,1.7774681,0.10840805,1.1802037
vit_b_16,1,568,NaN,bicycle,bicycle,c05,0568_cop_dnn_c05_bicycle_10_n02835271_6481.png,n02835271_6481.png,1.0,3.5044103,2.5641763,0.6648458
vit_b_16,1,569,NaN,knife,car,c15,0569_cop_dnn_c15_car_10_n04285008_5208.png,n04285008_5208.png,0.0,1.8820165,3.8338418,-1.3801489
vit_b_16,1,570,NaN,oven,oven,c50,0570_cop_dnn_c50_oven_10_n04111531_8658.png,n04111531_8658.png,1.0,8.617813,0.83009136,5.506751
vit_b_16,1,571,NaN,knife,bottle,c05,0571_cop_dnn_c05_bottle_10_n04579145_2910.png,n04579145_2910.png,0.0,1.4562334,2.8683481,-0.9985159
vit_b_16,1,572,NaN,knife,truck,c01,0572_cop_dnn_c01_truck_10_n04467665_22414.png,n04467665_22414.png,0.0,-1.0755143,3.2591681,-3.0650835
vit_b_16,1,573,NaN,elephant,elephant,c15,0573_cop_dnn_c15_elephant_10_n02504013_5439.png,n02504013_5439.png,1.0,4.804185,2.6375647,1.5320319
vit_b_16,1,574,NaN,airplane,cat,c10,0574_cop_dnn_c10_cat_10_n02123159_5945.png,n02123159_5945.png,0.0,1.032789,2.470571,-1.0166655
vit_b_16,1,575,NaN,bottle,bottle,c10,0575_cop_dnn_c10_bottle_10_n04557648_2426.png,n04557648_2426.png,1.0,2.3824666,2.2838912,0.0697033
vit_b_16,1,576,NaN,bicycle,bicycle,c05,0576_cop_dnn_c05_bicycle_10_n03792782_38641.png,n03792782_38641.png,1.0,3.9867153,2.1718626,1.2832947
vit_b_16,1,577,NaN,clock,dog,c30,0577_cop_dnn_c30_dog_10_n02110958_15843.png,n02110958_15843.png,0.0,-0.29272416,1.5116663,-1.2758968
vit_b_16,1,578,NaN,keyboard,keyboard,c15,0578_cop_dnn_c15_keyboard_10_n04505470_5161.png,n04505470_5161.png,1.0,5.2072597,2.294954,2.0593112
vit_b_16,1,579,NaN,airplane,airplane,c30,0579_cop_dnn_c30_airplane_10_n02690373_8350.png,n02690373_8350.png,1.0,8.96353,0.15725726,6.226975
vit_b_16,1,580,NaN,knife,bicycle,c05,0580_cop_dnn_c05_bicycle_10_n03792782_10129.png,n03792782_10129.png,0.0,0.16628091,2.4405184,-1.6081287
vit_b_16,1,581,NaN,truck,car,c100,0581_cop_dnn_c100_car_10_n02814533_26369.png,n02814533_26369.png,0.0,1.9958253,3.4685307,-1.04136
vit_b_16,1,582,NaN,oven,oven,c10,0582_cop_dnn_c10_oven_10_n04111531_10077.png,n04111531_10077.png,1.0,6.0869794,2.6040273,2.462819
vit_b_16,1,583,NaN,knife,oven,c01,0583_cop_dnn_c01_oven_10_n04111531_12702.png,n04111531_12702.png,0.0,0.45238003,3.41832,-2.0972364
vit_b_16,1,584,NaN,clock,clock,c100,0584_cop_dnn_c100_clock_10_n03196217_8618.png,n03196217_8618.png,1.0,2.8397532,0.16215491,1.8933479
vit_b_16,1,585,NaN,knife,bottle,c10,0585_cop_dnn_c10_bottle_10_n03983396_4227.png,n03983396_4227.png,0.0,3.1031241,3.2901545,-0.13225041
vit_b_16,1,586,NaN,bottle,bottle,c30,0586_cop_dnn_c30_bottle_10_n03983396_9090.png,n03983396_9090.png,1.0,3.606472,2.381416,0.8662454
vit_b_16,1,587,NaN,bear,bear,c100,0587_cop_dnn_c100_bear_10_n02133161_223.png,n02133161_223.png,1.0,3.784028,0.13279532,2.5818114
vit_b_16,1,588,NaN,keyboard,keyboard,c50,0588_cop_dnn_c50_keyboard_10_n04505470_1047.png,n04505470_1047.png,1.0,5.0012836,0.14487551,3.433999
vit_b_16,1,589,NaN,knife,elephant,c03,0589_cop_dnn_c03_elephant_10_n02504013_7467.png,n02504013_7467.png,0.0,-0.120854005,2.5509768,-1.8892696
vit_b_16,1,590,NaN,elephant,elephant,c30,0590_cop_dnn_c30_elephant_10_n02504013_476.png,n02504013_476.png,1.0,6.641083,2.2277448,3.120701
vit_b_16,1,591,NaN,chair,chair,c100,0591_cop_dnn_c100_chair_10_n02791124_12707.png,n02791124_12707.png,1.0,2.6776235,0.42070067,1.5958854
vit_b_16,1,592,NaN,knife,bird,c01,0592_cop_dnn_c01_bird_10_n01537544_22049.png,n01537544_22049.png,0.0,-0.21664722,2.8462884,-2.1658225
vit_b_16,1,593,NaN,knife,bicycle,c05,0593_cop_dnn_c05_bicycle_10_n02835271_4220.png,n02835271_4220.png,0.0,3.3025098,3.4923396,-0.13422996
vit_b_16,1,594,NaN,knife,truck,c10,0594_cop_dnn_c10_truck_10_n03417042_7530.png,n03417042_7530.png,0.0,1.4069884,2.5074787,-0.7781642
vit_b_16,1,595,NaN,knife,bear,c03,0595_cop_dnn_c03_bear_10_n02134418_12457.png,n02134418_12457.png,0.0,-0.96436834,2.858936,-2.7034845
vit_b_16,1,596,NaN,bottle,bottle,c50,0596_cop_dnn_c50_bottle_10_n04557648_10265.png,n04557648_10265.png,1.0,3.1611025,0.5130648,1.8724455
vit_b_16,1,597,NaN,clock,clock,c15,0597_cop_dnn_c15_clock_10_n02708093_2025.png,n02708093_2025.png,1.0,4.478311,2.2278197,1.5913378
vit_b_16,1,598,NaN,chair,chair,c15,0598_cop_dnn_c15_chair_10_n03376595_1961.png,n03376595_1961.png,1.0,2.444629,0.8602619,1.1203167
vit_b_16,1,599,NaN,knife,bear,c05,0599_cop_dnn_c05_bear_10_n02134084_67.png,n02134084_67.png,0.0,0.7351027,2.545467,-1.2801208
vit_b_16,1,600,NaN,cat,cat,c50,0600_cop_dnn_c50_cat_10_n02123045_455.png,n02123045_455.png,1.0,3.9775155,0.24913347,2.6363642
vit_b_16,1,601,NaN,airplane,car,c10,0601_cop_dnn_c10_car_10_n03100240_13929.png,n03100240_13929.png,0.0,2.2971215,2.6546035,-0.25277793
vit_b_16,1,602,NaN,elephant,elephant,c10,0602_cop_dnn_c10_elephant_10_n02504458_4997.png,n02504458_4997.png,1.0,4.85282,2.0995784,1.9468358
vit_b_16,1,603,NaN,airplane,airplane,c10,0603_cop_dnn_c10_airplane_10_n02690373_5344.png,n02690373_5344.png,1.0,6.2187357,2.3247433,2.7534685
vit_b_16,1,604,NaN,knife,oven,c01,0604_cop_dnn_c01_oven_10_n04111531_797.png,n04111531_797.png,0.0,0.7506928,3.7228804,-2.101654
vit_b_16,1,605,NaN,boat,boat,c30,0605_cop_dnn_c30_boat_10_n04273569_3085.png,n04273569_3085.png,1.0,2.3607235,0.9084418,1.0269183
vit_b_16,1,606,NaN,oven,oven,c100,0606_cop_dnn_c100_oven_10_n04111531_9113.png,n04111531_9113.png,1.0,9.404144,0.6119261,6.217037
vit_b_16,1,607,NaN,knife,boat,c03,0607_cop_dnn_c03_boat_10_n03662601_18803.png,n03662601_18803.png,0.0,2.3707635,3.423034,-0.74406755
vit_b_16,1,608,NaN,airplane,truck,c03,0608_cop_dnn_c03_truck_10_n04467665_30581.png,n04467665_30581.png,0.0,-0.7524067,2.873014,-2.5635595
vit_b_16,1,609,NaN,elephant,elephant,c30,0609_cop_dnn_c30_elephant_10_n02504013_5237.png,n02504013_5237.png,1.0,5.391954,1.9288479,2.4487858
vit_b_16,1,610,NaN,keyboard,keyboard,c100,0610_cop_dnn_c100_keyboard_10_n03085013_12175.png,n03085013_12175.png,1.0,7.2633476,0.33370444,4.8999977
vit_b_16,1,611,NaN,chair,chair,c30,0611_cop_dnn_c30_chair_10_n02791124_5401.png,n02791124_5401.png,1.0,3.5199912,0.18286313,2.359706
vit_b_16,1,612,NaN,boat,boat,c50,0612_cop_dnn_c50_boat_10_n02951358_22332.png,n02951358_22332.png,1.0,2.6419404,1.1049075,1.0868464
vit_b_16,1,613,NaN,knife,knife,c03,0613_cop_dnn_c03_knife_10_n03041632_11932.png,n03041632_11932.png,1.0,4.4316187,2.064655,1.673696
vit_b_16,1,614,NaN,cat,cat,c30,0614_cop_dnn_c30_cat_10_n02123159_5257.png,n02123159_5257.png,1.0,2.6789834,2.2064834,0.33410802
vit_b_16,1,615,NaN,bottle,bottle,c50,0615_cop_dnn_c50_bottle_10_n03983396_105.png,n03983396_105.png,1.0,3.96252,0.8412968,2.207038
vit_b_16,1,616,NaN,boat,boat,c50,0616_cop_dnn_c50_boat_10_n04612504_11939.png,n04612504_11939.png,1.0,2.7657757,0.23838393,1.7871358
vit_b_16,1,617,NaN,boat,boat,c30,0617_cop_dnn_c30_boat_10_n03662601_5575.png,n03662601_5575.png,1.0,3.0500958,1.845363,0.8518747
vit_b_16,1,618,NaN,airplane,cat,c05,0618_cop_dnn_c05_cat_10_n02123159_6590.png,n02123159_6590.png,0.0,2.6695948,2.7278006,-0.04115775
vit_b_16,1,619,NaN,bear,bear,c50,0619_cop_dnn_c50_bear_10_n02134084_21462.png,n02134084_21462.png,1.0,2.9235868,0.3694108,1.8060752
vit_b_16,1,620,NaN,clock,cat,c05,0620_cop_dnn_c05_cat_10_n02125311_46330.png,n02125311_46330.png,0.0,1.7850748,1.9910861,-0.145672
vit_b_16,1,621,NaN,knife,cat,c01,0621_cop_dnn_c01_cat_10_n02123394_4714.png,n02123394_4714.png,0.0,-0.6781626,3.598885,-3.0243294
vit_b_16,1,622,NaN,knife,knife,c30,0622_cop_dnn_c30_knife_10_n03041632_1671.png,n03041632_1671.png,1.0,4.8521657,0.17863838,3.304683
vit_b_16,1,623,NaN,truck,truck,c50,0623_cop_dnn_c50_truck_10_n04467665_30901.png,n04467665_30901.png,1.0,2.6268451,1.3878144,0.87612706
vit_b_16,1,624,NaN,elephant,dog,c100,0624_cop_dnn_c100_dog_10_n02104029_4704.png,n02104029_4704.png,0.0,-0.23501253,0.31651995,-0.3899924
vit_b_16,1,625,NaN,keyboard,keyboard,c15,0625_cop_dnn_c15_keyboard_10_n03085013_3665.png,n03085013_3665.png,1.0,4.5637007,3.8910382,0.47564423
vit_b_16,1,626,NaN,knife,bird,c01,0626_cop_dnn_c01_bird_10_n01820546_1616.png,n01820546_1616.png,0.0,-0.6365789,3.3344057,-2.8079102
vit_b_16,1,627,NaN,keyboard,keyboard,c30,0627_cop_dnn_c30_keyboard_10_n04505470_8754.png,n04505470_8754.png,1.0,5.3837285,0.6888152,3.3198051
vit_b_16,1,628,NaN,oven,oven,c05,0628_cop_dnn_c05_oven_10_n04111531_8688.png,n04111531_8688.png,1.0,4.0218325,2.5133526,1.0666564
vit_b_16,1,629,NaN,oven,oven,c10,0629_cop_dnn_c10_oven_10_n04111531_13862.png,n04111531_13862.png,1.0,4.6813254,3.739688,0.6658383
vit_b_16,1,630,NaN,knife,truck,c03,0630_cop_dnn_c03_truck_10_n04467665_9266.png,n04467665_9266.png,0.0,1.2429605,3.2681427,-1.4320201
vit_b_16,1,631,NaN,chair,chair,c30,0631_cop_dnn_c30_chair_10_n03376595_1024.png,n03376595_1024.png,1.0,3.3208869,0.6631847,1.8792793
vit_b_16,1,632,NaN,bottle,bottle,c30,0632_cop_dnn_c30_bottle_10_n02823428_4468.png,n02823428_4468.png,1.0,2.942681,1.1608989,1.2599102
vit_b_16,1,633,NaN,knife,truck,c15,0633_cop_dnn_c15_truck_10_n03796401_4154.png,n03796401_4154.png,0.0,1.1986718,2.3287787,-0.7991063
vit_b_16,1,634,NaN,knife,dog,c50,0634_cop_dnn_c50_dog_10_n02087046_4421.png,n02087046_4421.png,0.0,0.27261084,0.5068708,-0.1656468
vit_b_16,1,635,NaN,knife,car,c05,0635_cop_dnn_c05_car_10_n03100240_9011.png,n03100240_9011.png,0.0,3.4459774,3.776075,-0.23341414
vit_b_16,1,636,NaN,clock,bird,c15,0636_cop_dnn_c15_bird_10_n02011460_2417.png,n02011460_2417.png,0.0,-0.5085338,1.9911667,-1.7675552
vit_b_16,1,637,NaN,bottle,bottle,c100,0637_cop_dnn_c100_bottle_10_n04557648_988.png,n04557648_988.png,1.0,2.7517707,0.2787406,1.7486963
vit_b_16,1,638,NaN,knife,cat,c05,0638_cop_dnn_c05_cat_10_n02123159_5205.png,n02123159_5205.png,0.0,1.621994,3.0892549,-1.0375102
vit_b_16,1,639,NaN,oven,oven,c15,0639_cop_dnn_c15_oven_10_n04111531_23215.png,n04111531_23215.png,1.0,4.902901,4.1491866,0.53295666
vit_b_16,1,640,NaN,knife,truck,c05,0640_cop_dnn_c05_truck_10_n03796401_20641.png,n03796401_20641.png,0.0,1.0136868,3.8027043,-1.9721334
vit_b_16,1,641,NaN,knife,boat,c15,0641_cop_dnn_c15_boat_10_n03662601_16412.png,n03662601_16412.png,0.0,1.6994503,3.868047,-1.5334295
vit_b_16,1,642,NaN,airplane,airplane,c15,0642_cop_dnn_c15_airplane_10_n02690373_1952.png,n02690373_1952.png,1.0,7.4206977,1.4931408,4.191416
vit_b_16,1,643,NaN,clock,dog,c05,0643_cop_dnn_c05_dog_10_n02086079_37199.png,n02086079_37199.png,0.0,-0.72928715,2.469948,-2.2622008
vit_b_16,1,644,NaN,airplane,airplane,c10,0644_cop_dnn_c10_airplane_10_n02690373_4375.png,n02690373_4375.png,1.0,6.108139,2.2777267,2.7085106
vit_b_16,1,645,NaN,knife,bird,c15,0645_cop_dnn_c15_bird_10_n01592084_4764.png,n01592084_4764.png,0.0,-0.3499081,2.689723,-2.1493437
vit_b_16,1,646,NaN,knife,knife,c30,0646_cop_dnn_c30_knife_10_n03041632_44269.png,n03041632_44269.png,1.0,9.401931,0.91218066,6.00316
vit_b_16,1,647,NaN,elephant,elephant,c30,0647_cop_dnn_c30_elephant_10_n02504013_1258.png,n02504013_1258.png,1.0,5.197912,1.7775488,2.4185622
vit_b_16,1,648,NaN,airplane,airplane,c30,0648_cop_dnn_c30_airplane_10_n02690373_6138.png,n02690373_6138.png,1.0,9.098811,0.16411424,6.3177853
vit_b_16,1,649,NaN,knife,chair,c03,0649_cop_dnn_c03_chair_10_n04099969_9713.png,n04099969_9713.png,0.0,2.1182997,2.7262335,-0.4298741
vit_b_16,1,650,NaN,knife,bicycle,c01,0650_cop_dnn_c01_bicycle_10_n02835271_8212.png,n02835271_8212.png,0.0,-0.8973114,3.1691113,-2.875395
vit_b_16,1,651,NaN,keyboard,keyboard,c50,0651_cop_dnn_c50_keyboard_10_n03085013_14279.png,n03085013_14279.png,1.0,6.755351,1.2341632,3.9040694
vit_b_16,1,652,NaN,knife,bottle,c01,0652_cop_dnn_c01_bottle_10_n04591713_5364.png,n04591713_5364.png,0.0,0.66728914,3.472552,-1.9836205
vit_b_16,1,653,NaN,clock,bird,c15,0653_cop_dnn_c15_bird_10_n01819313_4045.png,n01819313_4045.png,0.0,-0.40545934,1.9973793,-1.6990635
vit_b_16,1,654,NaN,knife,bird,c10,0654_cop_dnn_c10_bird_10_n02009229_263.png,n02009229_263.png,0.0,-0.14613487,2.6143603,-1.9519649
vit_b_16,1,655,NaN,knife,cat,c30,0655_cop_dnn_c30_cat_10_n02123394_2285.png,n02123394_2285.png,0.0,2.4975073,2.5878792,-0.06390255
vit_b_16,1,656,NaN,knife,clock,c05,0656_cop_dnn_c05_clock_10_n04548280_2559.png,n04548280_2559.png,0.0,2.6129968,2.7672093,-0.109044686
vit_b_16,1,657,NaN,knife,elephant,c01,0657_cop_dnn_c01_elephant_10_n02504458_4137.png,n02504458_4137.png,0.0,-1.1801425,3.3244894,-3.185256
vit_b_16,1,658,NaN,knife,knife,c01,0658_cop_dnn_c01_knife_10_n03041632_206.png,n03041632_206.png,1.0,3.5774848,1.8285675,1.2366713
vit_b_16,1,659,NaN,knife,truck,c10,0659_cop_dnn_c10_truck_10_n03417042_5604.png,n03417042_5604.png,0.0,1.5909834,2.8180103,-0.86763906
vit_b_16,1,660,NaN,knife,bottle,c15,0660_cop_dnn_c15_bottle_10_n03983396_1629.png,n03983396_1629.png,0.0,2.7180018,3.2280438,-0.36065412
vit_b_16,1,661,NaN,knife,keyboard,c10,0661_cop_dnn_c10_keyboard_10_n03085013_16359.png,n03085013_16359.png,0.0,2.109335,2.4760053,-0.2592751
vit_b_16,1,662,NaN,oven,oven,c15,0662_cop_dnn_c15_oven_10_n04111531_8305.png,n04111531_8305.png,1.0,6.682156,3.459383,2.2788448
vit_b_16,1,663,NaN,knife,truck,c03,0663_cop_dnn_c03_truck_10_n04467665_276.png,n04467665_276.png,0.0,1.6959853,3.3173823,-1.1465008
vit_b_16,1,664,NaN,knife,car,c03,0664_cop_dnn_c03_car_10_n04285008_7950.png,n04285008_7950.png,0.0,2.9753513,3.2809548,-0.21609432
vit_b_16,1,665,NaN,clock,dog,c30,0665_cop_dnn_c30_dog_10_n02108422_293.png,n02108422_293.png,0.0,-0.69664997,0.7320774,-1.0102628
vit_b_16,1,666,NaN,bear,bear,c15,0666_cop_dnn_c15_bear_10_n02132136_2451.png,n02132136_2451.png,1.0,4.3794174,1.7927945,1.8290187
vit_b_16,1,667,NaN,car,car,c30,0667_cop_dnn_c30_car_10_n03100240_17245.png,n03100240_17245.png,1.0,4.7319455,2.7760403,1.3830339
vit_b_16,1,668,NaN,knife,knife,c05,0668_cop_dnn_c05_knife_10_n03041632_29886.png,n03041632_29886.png,1.0,2.3117661,1.7886767,0.36988008
vit_b_16,1,669,NaN,oven,truck,c50,0669_cop_dnn_c50_truck_10_n03417042_3952.png,n03417042_3952.png,0.0,0.74494064,1.2971991,-0.39050573
vit_b_16,1,670,NaN,knife,truck,c01,0670_cop_dnn_c01_truck_10_n03417042_17645.png,n03417042_17645.png,0.0,-1.0019078,3.5556269,-3.2226636
vit_b_16,1,671,NaN,oven,oven,c100,0671_cop_dnn_c100_oven_10_n04111531_23264.png,n04111531_23264.png,1.0,8.777134,0.79951704,5.641027
vit_b_16,1,672,NaN,elephant,elephant,c50,0672_cop_dnn_c50_elephant_10_n02504458_4580.png,n02504458_4580.png,1.0,7.3741813,0.31188694,4.9937963
vit_b_16,1,673,NaN,knife,cat,c01,0673_cop_dnn_c01_cat_10_n02123597_8052.png,n02123597_8052.png,0.0,-0.6615465,3.476792,-2.9262474
vit_b_16,1,674,NaN,bear,bear,c100,0674_cop_dnn_c100_bear_10_n02134418_1218.png,n02134418_1218.png,1.0,4.939701,0.21529832,3.3406575
vit_b_16,1,675,NaN,knife,boat,c01,0675_cop_dnn_c01_boat_10_n04273569_661.png,n04273569_661.png,0.0,-0.55055016,3.2701278,-2.7016273
vit_b_16,1,676,NaN,knife,airplane,c01,0676_cop_dnn_c01_airplane_10_n02690373_5266.png,n02690373_5266.png,0.0,0.8890989,3.1570444,-1.6036797
vit_b_16,1,677,NaN,keyboard,keyboard,c15,0677_cop_dnn_c15_keyboard_10_n04505470_4761.png,n04505470_4761.png,1.0,3.9511614,2.3843384,1.1079112
vit_b_16,1,678,NaN,oven,oven,c10,0678_cop_dnn_c10_oven_10_n04111531_14279.png,n04111531_14279.png,1.0,6.013436,2.6479354,2.3797681
vit_b_16,1,679,NaN,clock,clock,c50,0679_cop_dnn_c50_clock_10_n03196217_3006.png,n03196217_3006.png,1.0,4.3136973,0.68629014,2.5649643
vit_b_16,1,680,NaN,elephant,elephant,c15,0680_cop_dnn_c15_elephant_10_n02504458_2607.png,n02504458_2607.png,1.0,6.744203,1.8202089,3.4817896
vit_b_16,1,681,NaN,truck,truck,c100,0681_cop_dnn_c100_truck_10_n03417042_3338.png,n03417042_3338.png,1.0,1.4222956,0.12541138,0.91703564
vit_b_16,1,682,NaN,car,car,c30,0682_cop_dnn_c30_car_10_n02814533_5183.png,n02814533_5183.png,1.0,2.560641,1.7906226,0.5444853
vit_b_16,1,683,NaN,truck,truck,c100,0683_cop_dnn_c100_truck_10_n03417042_7365.png,n03417042_7365.png,1.0,4.00473,0.42563915,2.5307996
vit_b_16,1,684,NaN,knife,knife,c100,0684_cop_dnn_c100_knife_10_n03041632_29037.png,n03041632_29037.png,1.0,8.692248,0.45595616,5.823938
vit_b_16,1,685,NaN,car,car,c15,0685_cop_dnn_c15_car_10_n03100240_10096.png,n03100240_10096.png,1.0,4.2340875,3.1724272,0.7507072
vit_b_16,1,686,NaN,keyboard,keyboard,c05,0686_cop_dnn_c05_keyboard_10_n04505470_1929.png,n04505470_1929.png,1.0,3.2968242,3.266547,0.02140925
vit_b_16,1,687,NaN,knife,chair,c01,0687_cop_dnn_c01_chair_10_n04099969_10266.png,n04099969_10266.png,0.0,0.70185095,3.5439556,-2.0096714
vit_b_16,1,688,NaN,knife,car,c01,0688_cop_dnn_c01_car_10_n02814533_83665.png,n02814533_83665.png,0.0,-0.7570469,3.3750548,-2.921837
vit_b_16,1,689,NaN,knife,truck,c03,0689_cop_dnn_c03_truck_10_n03417042_751.png,n03417042_751.png,0.0,0.092603885,2.977247,-2.0397508
vit_b_16,1,690,NaN,knife,keyboard,c05,0690_cop_dnn_c05_keyboard_10_n03085013_2227.png,n03085013_2227.png,0.0,2.7381,3.6663837,-0.65639573
vit_b_16,1,691,NaN,car,car,c50,0691_cop_dnn_c50_car_10_n03100240_2528.png,n03100240_2528.png,1.0,5.6620445,1.3985102,3.0147743
vit_b_16,1,692,NaN,bottle,bottle,c50,0692_cop_dnn_c50_bottle_10_n03937543_8197.png,n03937543_8197.png,1.0,0.9434723,0.6444775,0.21142128
vit_b_16,1,693,NaN,boat,boat,c30,0693_cop_dnn_c30_boat_10_n04273569_10099.png,n04273569_10099.png,1.0,2.9631035,0.9152713,1.4480361
vit_b_16,1,694,NaN,knife,knife,c03,0694_cop_dnn_c03_knife_10_n03041632_25479.png,n03041632_25479.png,1.0,3.5191085,2.0095453,1.0674224
vit_b_16,1,695,NaN,clock,oven,c03,0695_cop_dnn_c03_oven_10_n04111531_13795.png,n04111531_13795.png,0.0,-0.63730794,2.0658085,-1.911392
vit_b_16,1,696,NaN,knife,bear,c05,0696_cop_dnn_c05_bear_10_n02132136_22835.png,n02132136_22835.png,0.0,2.2933292,3.3656309,-0.75823176
vit_b_16,1,697,NaN,knife,dog,c15,0697_cop_dnn_c15_dog_10_n02090379_4952.png,n02090379_4952.png,0.0,-0.38734058,2.9595363,-2.3665993
vit_b_16,1,698,NaN,clock,boat,c03,0698_cop_dnn_c03_boat_10_n02951358_29817.png,n02951358_29817.png,0.0,-0.41481036,2.1918843,-1.8432115
vit_b_16,1,699,NaN,airplane,airplane,c10,0699_cop_dnn_c10_airplane_10_n02690373_4115.png,n02690373_4115.png,1.0,7.311331,1.8089037,3.8908036
vit_b_16,1,700,NaN,car,car,c100,0700_cop_dnn_c100_car_10_n03100240_13707.png,n03100240_13707.png,1.0,5.7291713,0.5639346,3.6523738
vit_b_16,1,701,NaN,keyboard,keyboard,c50,0701_cop_dnn_c50_keyboard_10_n04505470_3117.png,n04505470_3117.png,1.0,5.279573,0.41188967,3.441972
vit_b_16,1,702,NaN,knife,truck,c15,0702_cop_dnn_c15_truck_10_n04467665_66065.png,n04467665_66065.png,0.0,0.5011003,2.1673927,-1.1782467
vit_b_16,1,703,NaN,knife,keyboard,c10,0703_cop_dnn_c10_keyboard_10_n03085013_8325.png,n03085013_8325.png,0.0,3.6251798,3.7578065,-0.09378129
vit_b_16,1,704,NaN,knife,truck,c03,0704_cop_dnn_c03_truck_10_n04467665_52595.png,n04467665_52595.png,0.0,-0.94219804,2.828608,-2.6663625
vit_b_16,1,705,NaN,bicycle,bicycle,c100,0705_cop_dnn_c100_bicycle_10_n03792782_15557.png,n03792782_15557.png,1.0,4.433003,2.9666069,1.0368986
vit_b_16,1,706,NaN,knife,knife,c05,0706_cop_dnn_c05_knife_10_n03041632_34676.png,n03041632_34676.png,1.0,3.82952,2.3638704,1.0363708
vit_b_16,1,707,NaN,airplane,airplane,c05,0707_cop_dnn_c05_airplane_10_n02690373_5729.png,n02690373_5729.png,1.0,5.201919,3.228527,1.3953989
vit_b_16,1,708,NaN,boat,boat,c100,0708_cop_dnn_c100_boat_10_n03662601_11901.png,n03662601_11901.png,1.0,3.6556957,0.23891515,2.4160287
vit_b_16,1,709,NaN,bicycle,bicycle,c30,0709_cop_dnn_c30_bicycle_10_n03792782_10526.png,n03792782_10526.png,1.0,7.5825195,0.41022712,5.0715766
vit_b_16,1,710,NaN,knife,truck,c10,0710_cop_dnn_c10_truck_10_n04467665_53339.png,n04467665_53339.png,0.0,1.7497523,3.0952218,-0.9513906
vit_b_16,1,711,NaN,boat,boat,c100,0711_cop_dnn_c100_boat_10_n04273569_12214.png,n04273569_12214.png,1.0,1.7716014,0.6283721,0.80838525
vit_b_16,1,712,NaN,knife,bottle,c05,0712_cop_dnn_c05_bottle_10_n04591713_105.png,n04591713_105.png,0.0,2.5774376,2.5834374,-0.0042425017
vit_b_16,1,713,NaN,knife,car,c01,0713_cop_dnn_c01_car_10_n04285008_7325.png,n04285008_7325.png,0.0,-0.59190387,2.9814095,-2.5267143
vit_b_16,1,714,NaN,knife,clock,c03,0714_cop_dnn_c03_clock_10_n04548280_4582.png,n04548280_4582.png,0.0,1.9687713,2.598649,-0.4453908
vit_b_16,1,715,NaN,oven,oven,c30,0715_cop_dnn_c30_oven_10_n04111531_8963.png,n04111531_8963.png,1.0,9.8210335,2.4815576,5.189793
vit_b_16,1,716,NaN,knife,chair,c01,0716_cop_dnn_c01_chair_10_n03376595_16059.png,n03376595_16059.png,0.0,0.4665392,3.5122268,-2.1536264
vit_b_16,1,717,NaN,knife,knife,c30,0717_cop_dnn_c30_knife_10_n03041632_92637.png,n03041632_92637.png,1.0,4.04076,0.9753928,2.167542
vit_b_16,1,718,NaN,knife,bottle,c01,0718_cop_dnn_c01_bottle_10_n04591713_1126.png,n04591713_1126.png,0.0,0.503562,3.5715373,-2.1693861
vit_b_16,1,719,NaN,knife,keyboard,c01,0719_cop_dnn_c01_keyboard_10_n04505470_4400.png,n04505470_4400.png,0.0,-0.11430445,3.954905,-2.8773658
vit_b_16,1,720,NaN,keyboard,keyboard,c10,0720_cop_dnn_c10_keyboard_10_n03085013_30073.png,n03085013_30073.png,1.0,3.2782683,2.3585835,0.6503154
vit_b_16,1,721,NaN,oven,bird,c100,0721_cop_dnn_c100_bird_10_n01818515_2594.png,n01818515_2594.png,0.0,0.16065565,0.16090368,-0.00017538358
vit_b_16,1,722,NaN,bear,bear,c50,0722_cop_dnn_c50_bear_10_n02132136_19512.png,n02132136_19512.png,1.0,3.8449364,0.48539948,2.3755515
vit_b_16,1,723,NaN,airplane,airplane,c50,0723_cop_dnn_c50_airplane_10_n02690373_4964.png,n02690373_4964.png,1.0,8.97326,0.3965425,6.0646553
vit_b_16,1,724,NaN,knife,oven,c03,0724_cop_dnn_c03_oven_10_n04111531_14611.png,n04111531_14611.png,0.0,-0.15471356,3.462315,-2.5576255
vit_b_16,1,725,NaN,knife,knife,c05,0725_cop_dnn_c05_knife_10_n03041632_9302.png,n03041632_9302.png,1.0,3.3095212,2.0346,0.9015054
vit_b_16,1,726,NaN,bottle,bottle,c15,0726_cop_dnn_c15_bottle_10_n04557648_6060.png,n04557648_6060.png,1.0,2.4599874,1.9112128,0.38804224
vit_b_16,1,727,NaN,clock,dog,c50,0727_cop_dnn_c50_dog_10_n02105056_951.png,n02105056_951.png,0.0,-0.34728473,0.73190355,-0.7631014
vit_b_16,1,728,NaN,truck,truck,c100,0728_cop_dnn_c100_truck_10_n04467665_52762.png,n04467665_52762.png,1.0,1.870889,0.80192566,0.7558712
vit_b_16,1,729,NaN,knife,cat,c15,0729_cop_dnn_c15_cat_10_n02123159_7607.png,n02123159_7607.png,0.0,1.5410954,3.7205424,-1.5411019
vit_b_16,1,730,NaN,truck,truck,c100,0730_cop_dnn_c100_truck_10_n03417042_4420.png,n03417042_4420.png,1.0,2.2324073,0.65851676,1.1129087
vit_b_16,1,731,NaN,bicycle,bicycle,c100,0731_cop_dnn_c100_bicycle_10_n03792782_4474.png,n03792782_4474.png,1.0,2.6896005,0.5033461,1.5459154
vit_b_16,1,732,NaN,knife,bird,c10,0732_cop_dnn_c10_bird_10_n02018207_9697.png,n02018207_9697.png,0.0,0.12682153,2.8649945,-1.9361807
vit_b_16,1,733,NaN,bird,bird,c30,0733_cop_dnn_c30_bird_10_n02007558_2518.png,n02007558_2518.png,1.0,1.1241481,0.6717544,0.31989068
vit_b_16,1,734,NaN,knife,keyboard,c05,0734_cop_dnn_c05_keyboard_10_n03085013_1824.png,n03085013_1824.png,0.0,2.5265434,2.6258316,-0.07020738
vit_b_16,1,735,NaN,airplane,bird,c05,0735_cop_dnn_c05_bird_10_n02027492_3072.png,n02027492_3072.png,0.0,0.7415422,2.0909035,-0.9541426
