subj,session,trial,rt,object_response,category,condition,imagename,filename,is_correct,targ_act,max_nontarg_act,decision_margin
alexnet2023_baseline_pgd,1,1,NaN,knife,knife,c30,0001_cop_dnn_c30_knife_10_n03041632_7380.png,n03041632_7380.png,1.0,9.01487,5.1645303,2.7226012
alexnet2023_baseline_pgd,1,2,NaN,bicycle,bicycle,c100,0002_cop_dnn_c100_bicycle_10_n03792782_5966.png,n03792782_5966.png,1.0,10.564815,3.7547557,4.8154387
alexnet2023_baseline_pgd,1,3,NaN,airplane,bird,c01,0003_cop_dnn_c01_bird_10_n01601694_10802.png,n01601694_10802.png,0.0,0.74208426,2.3600273,-1.1440585
alexnet2023_baseline_pgd,1,4,NaN,airplane,airplane,c05,0004_cop_dnn_c05_airplane_10_n02690373_9759.png,n02690373_9759.png,1.0,3.4467058,2.8177176,0.44476187
alexnet2023_baseline_pgd,1,5,NaN,knife,car,c03,0005_cop_dnn_c03_car_10_n02814533_2236.png,n02814533_2236.png,0.0,-0.9081273,4.0069747,-3.475502
alexnet2023_baseline_pgd,1,6,NaN,chair,chair,c30,0006_cop_dnn_c30_chair_10_n02791124_7207.png,n02791124_7207.png,1.0,5.9881263,3.984505,1.4167743
alexnet2023_baseline_pgd,1,7,NaN,knife,oven,c50,0007_cop_dnn_c50_oven_10_n04111531_7064.png,n04111531_7064.png,0.0,0.8434079,5.185337,-3.0702074
alexnet2023_baseline_pgd,1,8,NaN,knife,bird,c15,0008_cop_dnn_c15_bird_10_n01532829_2263.png,n01532829_2263.png,0.0,0.003804129,2.717653,-1.918981
alexnet2023_baseline_pgd,1,9,NaN,bicycle,bicycle,c50,0009_cop_dnn_c50_bicycle_10_n02835271_3383.png,n02835271_3383.png,1.0,11.367017,3.2295578,5.754052
alexnet2023_baseline_pgd,1,10,NaN,airplane,bicycle,c03,0010_cop_dnn_c03_bicycle_10_n03792782_27510.png,n03792782_27510.png,0.0,-0.6203648,2.4999802,-2.2064173
alexnet2023_baseline_pgd,1,11,NaN,airplane,bottle,c03,0011_cop_dnn_c03_bottle_10_n04557648_10944.png,n04557648_10944.png,0.0,0.50849354,1.996478,-1.0521638
alexnet2023_baseline_pgd,1,12,NaN,knife,keyboard,c15,0012_cop_dnn_c15_keyboard_10_n03085013_20891.png,n03085013_20891.png,0.0,1.0096793,3.039671,-1.4354209
alexnet2023_baseline_pgd,1,13,NaN,elephant,elephant,c30,0013_cop_dnn_c30_elephant_10_n02504458_3225.png,n02504458_3225.png,1.0,9.514407,4.000372,3.8990119
alexnet2023_baseline_pgd,1,14,NaN,knife,keyboard,c10,0014_cop_dnn_c10_keyboard_10_n04505470_6638.png,n04505470_6638.png,0.0,4.118913,5.1201696,-0.70799524
alexnet2023_baseline_pgd,1,15,NaN,airplane,bird,c01,0015_cop_dnn_c01_bird_10_n01601694_11888.png,n01601694_11888.png,0.0,0.7614171,2.4817507,-1.2164595
alexnet2023_baseline_pgd,1,16,NaN,airplane,airplane,c03,0016_cop_dnn_c03_airplane_10_n02690373_8743.png,n02690373_8743.png,1.0,3.1436424,2.0642903,0.7632172
alexnet2023_baseline_pgd,1,17,NaN,airplane,boat,c10,0017_cop_dnn_c10_boat_10_n03344393_8869.png,n03344393_8869.png,0.0,2.4416325,2.914721,-0.3345241
alexnet2023_baseline_pgd,1,18,NaN,airplane,bear,c01,0018_cop_dnn_c01_bear_10_n02132136_27682.png,n02132136_27682.png,0.0,-0.314229,2.4092333,-1.9257787
alexnet2023_baseline_pgd,1,19,NaN,boat,clock,c50,0019_cop_dnn_c50_clock_10_n02708093_7081.png,n02708093_7081.png,0.0,1.0953273,2.294881,-0.84821266
alexnet2023_baseline_pgd,1,20,NaN,car,car,c10,0020_cop_dnn_c10_car_10_n03100240_12141.png,n03100240_12141.png,1.0,3.439572,2.4093034,0.72850996
alexnet2023_baseline_pgd,1,21,NaN,airplane,car,c15,0021_cop_dnn_c15_car_10_n02814533_19287.png,n02814533_19287.png,0.0,2.1711638,6.0524063,-2.744453
alexnet2023_baseline_pgd,1,22,NaN,boat,bicycle,c03,0022_cop_dnn_c03_bicycle_10_n02835271_3841.png,n02835271_3841.png,0.0,-0.33751553,1.5450233,-1.331156
alexnet2023_baseline_pgd,1,23,NaN,clock,clock,c15,0023_cop_dnn_c15_clock_10_n02708093_6696.png,n02708093_6696.png,1.0,9.611014,1.9756525,5.399016
alexnet2023_baseline_pgd,1,24,NaN,airplane,bird,c01,0024_cop_dnn_c01_bird_10_n01829413_6393.png,n01829413_6393.png,0.0,0.8140025,2.339911,-1.0789802
alexnet2023_baseline_pgd,1,25,NaN,airplane,clock,c01,0025_cop_dnn_c01_clock_10_n02708093_3484.png,n02708093_3484.png,0.0,0.33000597,2.2300327,-1.3435217
alexnet2023_baseline_pgd,1,26,NaN,knife,chair,c05,0026_cop_dnn_c05_chair_10_n04429376_55163.png,n04429376_55163.png,0.0,1.030966,3.1427376,-1.493248
alexnet2023_baseline_pgd,1,27,NaN,boat,boat,c100,0027_cop_dnn_c100_boat_10_n02951358_14528.png,n02951358_14528.png,1.0,7.6144004,4.9108243,1.911717
alexnet2023_baseline_pgd,1,28,NaN,airplane,chair,c01,0028_cop_dnn_c01_chair_10_n03376595_9603.png,n03376595_9603.png,0.0,-0.6689529,2.4358335,-2.1954155
alexnet2023_baseline_pgd,1,29,NaN,airplane,bottle,c03,0029_cop_dnn_c03_bottle_10_n03937543_1840.png,n03937543_1840.png,0.0,0.24224289,1.5477226,-0.9231135
alexnet2023_baseline_pgd,1,30,NaN,airplane,car,c01,0030_cop_dnn_c01_car_10_n02814533_32835.png,n02814533_32835.png,0.0,-0.351548,2.448874,-1.9801974
alexnet2023_baseline_pgd,1,31,NaN,bear,bird,c15,0031_cop_dnn_c15_bird_10_n01860187_38598.png,n01860187_38598.png,0.0,0.06502537,1.4669799,-0.9913316
alexnet2023_baseline_pgd,1,32,NaN,airplane,airplane,c100,0032_cop_dnn_c100_airplane_10_n02690373_9322.png,n02690373_9322.png,1.0,22.982792,8.657303,10.129651
alexnet2023_baseline_pgd,1,33,NaN,airplane,bicycle,c01,0033_cop_dnn_c01_bicycle_10_n02835271_1505.png,n02835271_1505.png,0.0,-0.67521167,2.4551635,-2.2135096
alexnet2023_baseline_pgd,1,34,NaN,bicycle,bicycle,c50,0034_cop_dnn_c50_bicycle_10_n03792782_11023.png,n03792782_11023.png,1.0,2.830468,2.1375947,0.48993537
alexnet2023_baseline_pgd,1,35,NaN,elephant,elephant,c50,0035_cop_dnn_c50_elephant_10_n02504458_4909.png,n02504458_4909.png,1.0,15.271791,5.6104474,6.8316026
alexnet2023_baseline_pgd,1,36,NaN,boat,boat,c100,0036_cop_dnn_c100_boat_10_n03344393_646.png,n03344393_646.png,1.0,11.758383,8.535622,2.2788363
alexnet2023_baseline_pgd,1,37,NaN,boat,boat,c10,0037_cop_dnn_c10_boat_10_n04612504_2472.png,n04612504_2472.png,1.0,6.7103295,5.145588,1.1064395
alexnet2023_baseline_pgd,1,38,NaN,airplane,keyboard,c03,0038_cop_dnn_c03_keyboard_10_n03085013_4673.png,n03085013_4673.png,0.0,-0.16679803,2.073583,-1.5841886
alexnet2023_baseline_pgd,1,39,NaN,elephant,elephant,c100,0039_cop_dnn_c100_elephant_10_n02504458_1138.png,n02504458_1138.png,1.0,13.209679,3.3748212,6.9542947
alexnet2023_baseline_pgd,1,40,NaN,car,car,c100,0040_cop_dnn_c100_car_10_n03100240_5569.png,n03100240_5569.png,1.0,7.3096337,6.591962,0.50747067
alexnet2023_baseline_pgd,1,41,NaN,elephant,dog,c100,0041_cop_dnn_c100_dog_10_n02107312_7422.png,n02107312_7422.png,0.0,4.753147,6.4108214,-1.1721528
alexnet2023_baseline_pgd,1,42,NaN,knife,bear,c15,0042_cop_dnn_c15_bear_10_n02134084_24140.png,n02134084_24140.png,0.0,0.29364687,4.437396,-2.9300733
alexnet2023_baseline_pgd,1,43,NaN,bottle,bottle,c100,0043_cop_dnn_c100_bottle_10_n04560804_14130.png,n04560804_14130.png,1.0,11.189004,3.724739,5.2780323
alexnet2023_baseline_pgd,1,44,NaN,cat,cat,c30,0044_cop_dnn_c30_cat_10_n02124075_11970.png,n02124075_11970.png,1.0,2.2979543,1.9461637,0.24875358
alexnet2023_baseline_pgd,1,45,NaN,airplane,dog,c03,0045_cop_dnn_c03_dog_10_n02093991_247.png,n02093991_247.png,0.0,0.09338585,2.5203362,-1.716113
alexnet2023_baseline_pgd,1,46,NaN,keyboard,keyboard,c100,0046_cop_dnn_c100_keyboard_10_n04505470_375.png,n04505470_375.png,1.0,16.571579,5.776401,7.633343
alexnet2023_baseline_pgd,1,47,NaN,bear,bear,c100,0047_cop_dnn_c100_bear_10_n02134418_4372.png,n02134418_4372.png,1.0,11.150271,5.20346,4.2050304
alexnet2023_baseline_pgd,1,48,NaN,airplane,boat,c01,0048_cop_dnn_c01_boat_10_n03344393_2838.png,n03344393_2838.png,0.0,1.7606827,2.4867432,-0.51340234
alexnet2023_baseline_pgd,1,49,NaN,bear,bicycle,c05,0049_cop_dnn_c05_bicycle_10_n02835271_4935.png,n02835271_4935.png,0.0,-0.16751665,1.9791206,-1.5179018
alexnet2023_baseline_pgd,1,50,NaN,airplane,airplane,c50,0050_cop_dnn_c50_airplane_10_n02690373_5382.png,n02690373_5382.png,1.0,13.259508,6.921374,4.4817376
alexnet2023_baseline_pgd,1,51,NaN,knife,bottle,c100,0051_cop_dnn_c100_bottle_10_n03937543_2123.png,n03937543_2123.png,0.0,0.35639974,1.2327534,-0.6196756
alexnet2023_baseline_pgd,1,52,NaN,dog,dog,c30,0052_cop_dnn_c30_dog_10_n02097474_5234.png,n02097474_5234.png,1.0,5.0681243,2.5642056,1.7705379
alexnet2023_baseline_pgd,1,53,NaN,bottle,bottle,c100,0053_cop_dnn_c100_bottle_10_n02823428_6050.png,n02823428_6050.png,1.0,6.967191,4.4472637,1.7818578
alexnet2023_baseline_pgd,1,54,NaN,clock,clock,c15,0054_cop_dnn_c15_clock_10_n02708093_3743.png,n02708093_3743.png,1.0,3.2790349,3.126499,0.10785918
alexnet2023_baseline_pgd,1,55,NaN,airplane,knife,c03,0055_cop_dnn_c03_knife_10_n03041632_55083.png,n03041632_55083.png,0.0,1.592616,2.4727612,-0.62235665
alexnet2023_baseline_pgd,1,56,NaN,knife,knife,c50,0056_cop_dnn_c50_knife_10_n03041632_41310.png,n03041632_41310.png,1.0,11.682135,5.129474,4.633431
alexnet2023_baseline_pgd,1,57,NaN,airplane,knife,c03,0057_cop_dnn_c03_knife_10_n03041632_99799.png,n03041632_99799.png,0.0,1.0460985,2.1708207,-0.79529876
alexnet2023_baseline_pgd,1,58,NaN,bear,dog,c15,0058_cop_dnn_c15_dog_10_n02094114_8231.png,n02094114_8231.png,0.0,3.4733753,3.640664,-0.118291035
alexnet2023_baseline_pgd,1,59,NaN,airplane,chair,c01,0059_cop_dnn_c01_chair_10_n03376595_6173.png,n03376595_6173.png,0.0,-0.66550887,2.3403573,-2.1254683
alexnet2023_baseline_pgd,1,60,NaN,airplane,oven,c05,0060_cop_dnn_c05_oven_10_n04111531_9297.png,n04111531_9297.png,0.0,-0.6520437,3.2520304,-2.7605975
alexnet2023_baseline_pgd,1,61,NaN,knife,car,c10,0061_cop_dnn_c10_car_10_n03100240_24420.png,n03100240_24420.png,0.0,0.6333963,2.3999655,-1.249153
alexnet2023_baseline_pgd,1,62,NaN,elephant,elephant,c100,0062_cop_dnn_c100_elephant_10_n02504013_2340.png,n02504013_2340.png,1.0,25.59226,9.431802,11.42717
alexnet2023_baseline_pgd,1,63,NaN,knife,bicycle,c05,0063_cop_dnn_c05_bicycle_10_n02835271_10104.png,n02835271_10104.png,0.0,-0.30919826,1.792225,-1.4859307
alexnet2023_baseline_pgd,1,64,NaN,bottle,bicycle,c15,0064_cop_dnn_c15_bicycle_10_n03792782_7165.png,n03792782_7165.png,0.0,-1.2927817,1.9940472,-2.324139
alexnet2023_baseline_pgd,1,65,NaN,knife,knife,c10,0065_cop_dnn_c10_knife_10_n03041632_14817.png,n03041632_14817.png,1.0,2.860886,1.8094337,0.74348915
alexnet2023_baseline_pgd,1,66,NaN,clock,clock,c15,0066_cop_dnn_c15_clock_10_n02708093_118.png,n02708093_118.png,1.0,4.554733,2.2357905,1.6397399
alexnet2023_baseline_pgd,1,67,NaN,airplane,airplane,c10,0067_cop_dnn_c10_airplane_10_n02690373_4298.png,n02690373_4298.png,1.0,6.93581,2.9689603,2.8049865
alexnet2023_baseline_pgd,1,68,NaN,knife,knife,c100,0068_cop_dnn_c100_knife_10_n03041632_50034.png,n03041632_50034.png,1.0,9.3123455,3.54883,4.075421
alexnet2023_baseline_pgd,1,69,NaN,airplane,chair,c03,0069_cop_dnn_c03_chair_10_n02791124_1333.png,n02791124_1333.png,0.0,-1.0877908,2.6345584,-2.6320984
alexnet2023_baseline_pgd,1,70,NaN,airplane,clock,c01,0070_cop_dnn_c01_clock_10_n02708093_2318.png,n02708093_2318.png,0.0,0.45801648,2.2922764,-1.2970176
alexnet2023_baseline_pgd,1,71,NaN,airplane,elephant,c01,0071_cop_dnn_c01_elephant_10_n02504013_3864.png,n02504013_3864.png,0.0,-0.8587491,2.2725496,-2.2141626
alexnet2023_baseline_pgd,1,72,NaN,knife,chair,c10,0072_cop_dnn_c10_chair_10_n04429376_56624.png,n04429376_56624.png,0.0,2.2278311,2.8199017,-0.41865712
alexnet2023_baseline_pgd,1,73,NaN,airplane,airplane,c30,0073_cop_dnn_c30_airplane_10_n02690373_7004.png,n02690373_7004.png,1.0,8.325266,2.8337574,3.8830829
alexnet2023_baseline_pgd,1,74,NaN,knife,oven,c30,0074_cop_dnn_c30_oven_10_n04111531_9692.png,n04111531_9692.png,0.0,2.0323396,2.7624536,-0.51626855
alexnet2023_baseline_pgd,1,75,NaN,airplane,truck,c50,0075_cop_dnn_c50_truck_10_n03796401_296.png,n03796401_296.png,0.0,6.4548965,7.241493,-0.5562079
alexnet2023_baseline_pgd,1,76,NaN,airplane,airplane,c15,0076_cop_dnn_c15_airplane_10_n02690373_1837.png,n02690373_1837.png,1.0,2.7469501,2.4889994,0.18239875
alexnet2023_baseline_pgd,1,77,NaN,airplane,airplane,c03,0077_cop_dnn_c03_airplane_10_n02690373_10203.png,n02690373_10203.png,1.0,2.719791,2.147415,0.40473098
alexnet2023_baseline_pgd,1,78,NaN,airplane,boat,c03,0078_cop_dnn_c03_boat_10_n02951358_34234.png,n02951358_34234.png,0.0,2.2569873,2.833354,-0.40755278
alexnet2023_baseline_pgd,1,79,NaN,bicycle,bicycle,c100,0079_cop_dnn_c100_bicycle_10_n02835271_2885.png,n02835271_2885.png,1.0,9.756248,8.025789,1.2236195
alexnet2023_baseline_pgd,1,80,NaN,airplane,airplane,c30,0080_cop_dnn_c30_airplane_10_n02690373_5247.png,n02690373_5247.png,1.0,8.501691,4.076508,3.1290767
alexnet2023_baseline_pgd,1,81,NaN,clock,clock,c50,0081_cop_dnn_c50_clock_10_n02708093_596.png,n02708093_596.png,1.0,10.122645,4.285319,4.127613
alexnet2023_baseline_pgd,1,82,NaN,airplane,chair,c01,0082_cop_dnn_c01_chair_10_n03376595_1364.png,n03376595_1364.png,0.0,-0.58961236,2.4611914,-2.157244
alexnet2023_baseline_pgd,1,83,NaN,airplane,cat,c03,0083_cop_dnn_c03_cat_10_n02124075_12430.png,n02124075_12430.png,0.0,-1.4078757,2.2801862,-2.6078534
alexnet2023_baseline_pgd,1,84,NaN,knife,cat,c05,0084_cop_dnn_c05_cat_10_n02123159_5487.png,n02123159_5487.png,0.0,-1.1776936,2.1532788,-2.355353
alexnet2023_baseline_pgd,1,85,NaN,bicycle,bicycle,c50,0085_cop_dnn_c50_bicycle_10_n03792782_17571.png,n03792782_17571.png,1.0,6.625219,1.7070577,3.4776654
alexnet2023_baseline_pgd,1,86,NaN,cat,cat,c50,0086_cop_dnn_c50_cat_10_n02123159_6132.png,n02123159_6132.png,1.0,6.891022,1.7766813,3.6163852
alexnet2023_baseline_pgd,1,87,NaN,airplane,bottle,c05,0087_cop_dnn_c05_bottle_10_n03937543_2873.png,n03937543_2873.png,0.0,0.43630138,2.3220165,-1.3334019
alexnet2023_baseline_pgd,1,88,NaN,bottle,keyboard,c15,0088_cop_dnn_c15_keyboard_10_n04505470_1236.png,n04505470_1236.png,0.0,1.5593021,3.991238,-1.7196385
alexnet2023_baseline_pgd,1,89,NaN,airplane,airplane,c01,0089_cop_dnn_c01_airplane_10_n02690373_4243.png,n02690373_4243.png,1.0,2.5665417,1.9467049,0.4382908
alexnet2023_baseline_pgd,1,90,NaN,oven,oven,c30,0090_cop_dnn_c30_oven_10_n04111531_467.png,n04111531_467.png,1.0,3.092317,3.088534,0.0026749761
alexnet2023_baseline_pgd,1,91,NaN,airplane,cat,c03,0091_cop_dnn_c03_cat_10_n02123394_2632.png,n02123394_2632.png,0.0,-1.0737983,2.0900757,-2.237197
alexnet2023_baseline_pgd,1,92,NaN,bottle,chair,c15,0092_cop_dnn_c15_chair_10_n02791124_5268.png,n02791124_5268.png,0.0,1.5516601,3.9275532,-1.6800102
alexnet2023_baseline_pgd,1,93,NaN,knife,knife,c100,0093_cop_dnn_c100_knife_10_n03041632_1143.png,n03041632_1143.png,1.0,3.7028086,2.078112,1.1488341
alexnet2023_baseline_pgd,1,94,NaN,knife,chair,c10,0094_cop_dnn_c10_chair_10_n02791124_1018.png,n02791124_1018.png,0.0,1.3030725,2.9309528,-1.1510853
alexnet2023_baseline_pgd,1,95,NaN,knife,bicycle,c05,0095_cop_dnn_c05_bicycle_10_n03792782_8057.png,n03792782_8057.png,0.0,-0.0564618,1.0831017,-0.8057931
alexnet2023_baseline_pgd,1,96,NaN,bear,bear,c30,0096_cop_dnn_c30_bear_10_n02132136_1338.png,n02132136_1338.png,1.0,6.852917,5.948603,0.6394466
alexnet2023_baseline_pgd,1,97,NaN,clock,clock,c05,0097_cop_dnn_c05_clock_10_n02708093_4798.png,n02708093_4798.png,1.0,6.346119,3.9336889,1.7058457
alexnet2023_baseline_pgd,1,98,NaN,airplane,truck,c01,0098_cop_dnn_c01_truck_10_n03796401_15046.png,n03796401_15046.png,0.0,-0.48428473,2.476601,-2.0936623
alexnet2023_baseline_pgd,1,99,NaN,knife,knife,c50,0099_cop_dnn_c50_knife_10_n03041632_13612.png,n03041632_13612.png,1.0,5.46323,4.1930466,0.89815545
alexnet2023_baseline_pgd,1,100,NaN,knife,oven,c10,0100_cop_dnn_c10_oven_10_n04111531_1898.png,n04111531_1898.png,0.0,4.259103,5.2243547,-0.6825362
alexnet2023_baseline_pgd,1,101,NaN,knife,truck,c03,0101_cop_dnn_c03_truck_10_n04467665_28988.png,n04467665_28988.png,0.0,-0.80399644,3.3817246,-2.9597516
alexnet2023_baseline_pgd,1,102,NaN,airplane,airplane,c100,0102_cop_dnn_c100_airplane_10_n02690373_736.png,n02690373_736.png,1.0,18.637928,9.7984295,6.2504697
alexnet2023_baseline_pgd,1,103,NaN,elephant,dog,c50,0103_cop_dnn_c50_dog_10_n02111500_5154.png,n02111500_5154.png,0.0,7.505504,8.711033,-0.85243756
alexnet2023_baseline_pgd,1,104,NaN,elephant,bear,c50,0104_cop_dnn_c50_bear_10_n02133161_13461.png,n02133161_13461.png,0.0,1.4084927,2.280789,-0.61680657
alexnet2023_baseline_pgd,1,105,NaN,elephant,dog,c15,0105_cop_dnn_c15_dog_10_n02102318_11746.png,n02102318_11746.png,0.0,1.3492482,2.5933099,-0.8796845
alexnet2023_baseline_pgd,1,106,NaN,boat,boat,c50,0106_cop_dnn_c50_boat_10_n03662601_12226.png,n03662601_12226.png,1.0,9.723926,5.2318516,3.176376
alexnet2023_baseline_pgd,1,107,NaN,knife,keyboard,c05,0107_cop_dnn_c05_keyboard_10_n04505470_3207.png,n04505470_3207.png,0.0,0.30463958,2.7912843,-1.7583234
alexnet2023_baseline_pgd,1,108,NaN,bicycle,bicycle,c30,0108_cop_dnn_c30_bicycle_10_n03792782_2628.png,n03792782_2628.png,1.0,8.46026,2.6221368,4.1281767
alexnet2023_baseline_pgd,1,109,NaN,airplane,chair,c01,0109_cop_dnn_c01_chair_10_n02791124_3204.png,n02791124_3204.png,0.0,-0.6205884,2.4256449,-2.1540122
alexnet2023_baseline_pgd,1,110,NaN,knife,bottle,c03,0110_cop_dnn_c03_bottle_10_n04560804_722.png,n04560804_722.png,0.0,0.39525577,2.5748184,-1.5411835
alexnet2023_baseline_pgd,1,111,NaN,bicycle,bicycle,c30,0111_cop_dnn_c30_bicycle_10_n03792782_8847.png,n03792782_8847.png,1.0,3.7927074,2.7454088,0.740552
alexnet2023_baseline_pgd,1,112,NaN,bear,bear,c50,0112_cop_dnn_c50_bear_10_n02132136_1132.png,n02132136_1132.png,1.0,9.27605,5.6866508,2.5380883
alexnet2023_baseline_pgd,1,113,NaN,knife,knife,c50,0113_cop_dnn_c50_knife_10_n03041632_6557.png,n03041632_6557.png,1.0,4.2716594,3.8520029,0.29674196
alexnet2023_baseline_pgd,1,114,NaN,knife,knife,c100,0114_cop_dnn_c100_knife_10_n03041632_35116.png,n03041632_35116.png,1.0,6.4909654,3.9800136,1.775511
alexnet2023_baseline_pgd,1,115,NaN,knife,car,c15,0115_cop_dnn_c15_car_10_n02814533_3117.png,n02814533_3117.png,0.0,3.9289246,4.2238417,-0.20853789
alexnet2023_baseline_pgd,1,116,NaN,airplane,bird,c15,0116_cop_dnn_c15_bird_10_n02009229_4224.png,n02009229_4224.png,0.0,1.3500265,2.9109902,-1.1037681
alexnet2023_baseline_pgd,1,117,NaN,oven,chair,c50,0117_cop_dnn_c50_chair_10_n03376595_9247.png,n03376595_9247.png,0.0,2.543769,3.6939332,-0.81328905
alexnet2023_baseline_pgd,1,118,NaN,airplane,boat,c01,0118_cop_dnn_c01_boat_10_n03662601_5639.png,n03662601_5639.png,0.0,1.8634809,2.2646217,-0.28364938
alexnet2023_baseline_pgd,1,119,NaN,airplane,bicycle,c10,0119_cop_dnn_c10_bicycle_10_n02835271_13437.png,n02835271_13437.png,0.0,0.027350843,2.6451437,-1.8510591
alexnet2023_baseline_pgd,1,120,NaN,bear,bicycle,c05,0120_cop_dnn_c05_bicycle_10_n03792782_18294.png,n03792782_18294.png,0.0,-0.43716592,1.5973822,-1.4386427
alexnet2023_baseline_pgd,1,121,NaN,airplane,boat,c03,0121_cop_dnn_c03_boat_10_n02951358_10488.png,n02951358_10488.png,0.0,1.9230741,2.231048,-0.21777049
alexnet2023_baseline_pgd,1,122,NaN,bird,bird,c50,0122_cop_dnn_c50_bird_10_n01829413_14594.png,n01829413_14594.png,1.0,6.599792,3.0403304,2.5169194
alexnet2023_baseline_pgd,1,123,NaN,bottle,clock,c100,0123_cop_dnn_c100_clock_10_n03196217_9197.png,n03196217_9197.png,0.0,5.28368,5.9280047,-0.45560643
alexnet2023_baseline_pgd,1,124,NaN,boat,boat,c15,0124_cop_dnn_c15_boat_10_n03662601_1667.png,n03662601_1667.png,1.0,1.4794314,1.1991836,0.19816513
alexnet2023_baseline_pgd,1,125,NaN,elephant,dog,c50,0125_cop_dnn_c50_dog_10_n02092339_6946.png,n02092339_6946.png,0.0,2.9472883,6.704891,-2.6570265
alexnet2023_baseline_pgd,1,126,NaN,airplane,airplane,c05,0126_cop_dnn_c05_airplane_10_n02690373_1773.png,n02690373_1773.png,1.0,2.5033228,2.43249,0.050086305
alexnet2023_baseline_pgd,1,127,NaN,elephant,elephant,c50,0127_cop_dnn_c50_elephant_10_n02504013_4278.png,n02504013_4278.png,1.0,5.122465,2.4089813,1.9187229
alexnet2023_baseline_pgd,1,128,NaN,bird,bird,c100,0128_cop_dnn_c100_bird_10_n02025239_10194.png,n02025239_10194.png,1.0,11.477153,2.395535,6.4216733
alexnet2023_baseline_pgd,1,129,NaN,knife,oven,c15,0129_cop_dnn_c15_oven_10_n04111531_1977.png,n04111531_1977.png,0.0,-0.10803036,1.131026,-0.8761452
alexnet2023_baseline_pgd,1,130,NaN,truck,clock,c50,0130_cop_dnn_c50_clock_10_n02708093_616.png,n02708093_616.png,0.0,3.7694929,4.1881065,-0.29600456
alexnet2023_baseline_pgd,1,131,NaN,airplane,boat,c10,0131_cop_dnn_c10_boat_10_n04273569_10292.png,n04273569_10292.png,0.0,2.7901046,3.670308,-0.62239784
alexnet2023_baseline_pgd,1,132,NaN,cat,cat,c50,0132_cop_dnn_c50_cat_10_n02123394_8592.png,n02123394_8592.png,1.0,2.6976268,2.5138023,0.12998357
alexnet2023_baseline_pgd,1,133,NaN,knife,knife,c10,0133_cop_dnn_c10_knife_10_n03041632_16020.png,n03041632_16020.png,1.0,2.7673407,2.3730323,0.2788181
alexnet2023_baseline_pgd,1,134,NaN,cat,cat,c30,0134_cop_dnn_c30_cat_10_n02123394_5466.png,n02123394_5466.png,1.0,2.1057699,1.9824556,0.08719635
alexnet2023_baseline_pgd,1,135,NaN,airplane,elephant,c01,0135_cop_dnn_c01_elephant_10_n02504013_7351.png,n02504013_7351.png,0.0,-0.8856683,2.4645715,-2.3689773
alexnet2023_baseline_pgd,1,136,NaN,oven,oven,c50,0136_cop_dnn_c50_oven_10_n04111531_22388.png,n04111531_22388.png,1.0,5.304678,2.6710443,1.8622602
alexnet2023_baseline_pgd,1,137,NaN,bottle,chair,c100,0137_cop_dnn_c100_chair_10_n04429376_6308.png,n04429376_6308.png,0.0,2.9255648,3.4513128,-0.37175998
alexnet2023_baseline_pgd,1,138,NaN,car,car,c10,0138_cop_dnn_c10_car_10_n03100240_8443.png,n03100240_8443.png,1.0,7.7960587,4.091818,2.619294
alexnet2023_baseline_pgd,1,139,NaN,car,car,c100,0139_cop_dnn_c100_car_10_n04285008_12446.png,n04285008_12446.png,1.0,16.577805,9.685815,4.8733726
alexnet2023_baseline_pgd,1,140,NaN,airplane,keyboard,c01,0140_cop_dnn_c01_keyboard_10_n04505470_4440.png,n04505470_4440.png,0.0,0.23595595,2.323918,-1.4764122
alexnet2023_baseline_pgd,1,141,NaN,bottle,car,c10,0141_cop_dnn_c10_car_10_n04285008_10073.png,n04285008_10073.png,0.0,2.2931428,3.9344087,-1.1605502
alexnet2023_baseline_pgd,1,142,NaN,airplane,bottle,c03,0142_cop_dnn_c03_bottle_10_n03983396_7378.png,n03983396_7378.png,0.0,0.218927,2.4072986,-1.5474125
alexnet2023_baseline_pgd,1,143,NaN,airplane,chair,c15,0143_cop_dnn_c15_chair_10_n02791124_5706.png,n02791124_5706.png,0.0,3.1153393,3.770589,-0.4633316
alexnet2023_baseline_pgd,1,144,NaN,cat,cat,c15,0144_cop_dnn_c15_cat_10_n02123045_11224.png,n02123045_11224.png,1.0,2.8326647,1.1739724,1.1728727
alexnet2023_baseline_pgd,1,145,NaN,airplane,chair,c05,0145_cop_dnn_c05_chair_10_n03376595_8953.png,n03376595_8953.png,0.0,2.1659646,2.299063,-0.09411476
alexnet2023_baseline_pgd,1,146,NaN,bicycle,bicycle,c50,0146_cop_dnn_c50_bicycle_10_n03792782_66048.png,n03792782_66048.png,1.0,7.566205,3.2666633,3.040235
alexnet2023_baseline_pgd,1,147,NaN,airplane,dog,c01,0147_cop_dnn_c01_dog_10_n02104365_1123.png,n02104365_1123.png,0.0,-0.098412365,2.5465574,-1.8702761
alexnet2023_baseline_pgd,1,148,NaN,knife,clock,c05,0148_cop_dnn_c05_clock_10_n03196217_3605.png,n03196217_3605.png,0.0,2.2480013,5.282922,-2.1460128
alexnet2023_baseline_pgd,1,149,NaN,knife,knife,c10,0149_cop_dnn_c10_knife_10_n03041632_14916.png,n03041632_14916.png,1.0,0.78279364,0.7445226,0.027061732
alexnet2023_baseline_pgd,1,150,NaN,bear,bear,c10,0150_cop_dnn_c10_bear_10_n02132136_4101.png,n02132136_4101.png,1.0,3.1327124,2.2303205,0.63808745
alexnet2023_baseline_pgd,1,151,NaN,airplane,clock,c01,0151_cop_dnn_c01_clock_10_n02708093_7929.png,n02708093_7929.png,0.0,0.43829092,2.4715629,-1.4377404
alexnet2023_baseline_pgd,1,152,NaN,chair,chair,c50,0152_cop_dnn_c50_chair_10_n02791124_7630.png,n02791124_7630.png,1.0,7.7116184,1.192854,4.6094627
alexnet2023_baseline_pgd,1,153,NaN,knife,clock,c05,0153_cop_dnn_c05_clock_10_n02708093_3750.png,n02708093_3750.png,0.0,2.9789314,3.2761073,-0.21013509
alexnet2023_baseline_pgd,1,154,NaN,airplane,bird,c01,0154_cop_dnn_c01_bird_10_n02037110_12288.png,n02037110_12288.png,0.0,0.69448894,2.472016,-1.2569015
alexnet2023_baseline_pgd,1,155,NaN,keyboard,keyboard,c05,0155_cop_dnn_c05_keyboard_10_n04505470_6080.png,n04505470_6080.png,1.0,5.116396,3.0983868,1.426948
alexnet2023_baseline_pgd,1,156,NaN,keyboard,keyboard,c100,0156_cop_dnn_c100_keyboard_10_n03085013_19065.png,n03085013_19065.png,1.0,19.375633,5.5559587,9.771986
alexnet2023_baseline_pgd,1,157,NaN,knife,cat,c10,0157_cop_dnn_c10_cat_10_n02123159_4856.png,n02123159_4856.png,0.0,0.07161969,2.1233184,-1.45077
alexnet2023_baseline_pgd,1,158,NaN,airplane,chair,c01,0158_cop_dnn_c01_chair_10_n04099969_6913.png,n04099969_6913.png,0.0,-0.64628536,2.224207,-2.0297446
alexnet2023_baseline_pgd,1,159,NaN,airplane,knife,c30,0159_cop_dnn_c30_knife_10_n03041632_35764.png,n03041632_35764.png,0.0,2.867281,3.3424873,-0.33602166
alexnet2023_baseline_pgd,1,160,NaN,car,truck,c30,0160_cop_dnn_c30_truck_10_n03796401_3012.png,n03796401_3012.png,0.0,10.549644,11.590184,-0.7357727
alexnet2023_baseline_pgd,1,161,NaN,elephant,elephant,c10,0161_cop_dnn_c10_elephant_10_n02504013_3821.png,n02504013_3821.png,1.0,3.3442476,2.6808736,0.46907622
alexnet2023_baseline_pgd,1,162,NaN,truck,truck,c100,0162_cop_dnn_c100_truck_10_n03796401_3608.png,n03796401_3608.png,1.0,7.2606707,5.2553573,1.4179708
alexnet2023_baseline_pgd,1,163,NaN,chair,chair,c15,0163_cop_dnn_c15_chair_10_n04099969_13811.png,n04099969_13811.png,1.0,6.8631983,1.6534727,3.6838322
alexnet2023_baseline_pgd,1,164,NaN,elephant,bear,c50,0164_cop_dnn_c50_bear_10_n02133161_4954.png,n02133161_4954.png,0.0,4.536968,5.088058,-0.3896793
alexnet2023_baseline_pgd,1,165,NaN,cat,dog,c15,0165_cop_dnn_c15_dog_10_n02085782_6792.png,n02085782_6792.png,0.0,2.4539158,2.9979832,-0.38471374
alexnet2023_baseline_pgd,1,166,NaN,knife,oven,c05,0166_cop_dnn_c05_oven_10_n04111531_22886.png,n04111531_22886.png,0.0,-0.12531215,3.1805308,-2.337584
alexnet2023_baseline_pgd,1,167,NaN,knife,dog,c05,0167_cop_dnn_c05_dog_10_n02091831_510.png,n02091831_510.png,0.0,0.71889627,1.7224314,-0.7096065
alexnet2023_baseline_pgd,1,168,NaN,elephant,bear,c15,0168_cop_dnn_c15_bear_10_n02132136_11339.png,n02132136_11339.png,0.0,1.9206262,2.921587,-0.7077862
alexnet2023_baseline_pgd,1,169,NaN,keyboard,bottle,c15,0169_cop_dnn_c15_bottle_10_n04557648_2709.png,n04557648_2709.png,0.0,3.1090705,4.723652,-1.1416814
alexnet2023_baseline_pgd,1,170,NaN,airplane,keyboard,c03,0170_cop_dnn_c03_keyboard_10_n03085013_21447.png,n03085013_21447.png,0.0,-0.056534052,2.8632267,-2.0645826
alexnet2023_baseline_pgd,1,171,NaN,airplane,airplane,c30,0171_cop_dnn_c30_airplane_10_n02690373_7676.png,n02690373_7676.png,1.0,10.938515,4.207887,4.7592726
alexnet2023_baseline_pgd,1,172,NaN,elephant,dog,c100,0172_cop_dnn_c100_dog_10_n02091831_4110.png,n02091831_4110.png,0.0,7.1535287,7.8571577,-0.49754086
alexnet2023_baseline_pgd,1,173,NaN,airplane,bird,c10,0173_cop_dnn_c10_bird_10_n02007558_16029.png,n02007558_16029.png,0.0,1.2645109,1.5315739,-0.18884207
alexnet2023_baseline_pgd,1,174,NaN,boat,truck,c30,0174_cop_dnn_c30_truck_10_n03796401_15097.png,n03796401_15097.png,0.0,0.15220197,1.5676671,-1.000885
alexnet2023_baseline_pgd,1,175,NaN,airplane,airplane,c30,0175_cop_dnn_c30_airplane_10_n02690373_7401.png,n02690373_7401.png,1.0,16.215923,6.2539883,7.044152
alexnet2023_baseline_pgd,1,176,NaN,knife,dog,c05,0176_cop_dnn_c05_dog_10_n02108422_4529.png,n02108422_4529.png,0.0,0.016982187,1.3157029,-0.91833425
alexnet2023_baseline_pgd,1,177,NaN,knife,bear,c10,0177_cop_dnn_c10_bear_10_n02132136_10514.png,n02132136_10514.png,0.0,1.4618694,1.8927345,-0.30466768
alexnet2023_baseline_pgd,1,178,NaN,knife,airplane,c03,0178_cop_dnn_c03_airplane_10_n02690373_5524.png,n02690373_5524.png,0.0,1.9779044,2.4790304,-0.35434955
alexnet2023_baseline_pgd,1,179,NaN,chair,chair,c100,0179_cop_dnn_c100_chair_10_n04429376_5965.png,n04429376_5965.png,1.0,9.3907995,3.6957688,4.0269947
alexnet2023_baseline_pgd,1,180,NaN,knife,airplane,c15,0180_cop_dnn_c15_airplane_10_n02690373_9712.png,n02690373_9712.png,0.0,2.899095,3.2730606,-0.26443353
alexnet2023_baseline_pgd,1,181,NaN,boat,boat,c30,0181_cop_dnn_c30_boat_10_n02951358_29825.png,n02951358_29825.png,1.0,4.226361,3.7576864,0.33140287
alexnet2023_baseline_pgd,1,182,NaN,knife,keyboard,c03,0182_cop_dnn_c03_keyboard_10_n04505470_4887.png,n04505470_4887.png,0.0,-0.13430944,3.1329455,-2.3102982
alexnet2023_baseline_pgd,1,183,NaN,airplane,truck,c01,0183_cop_dnn_c01_truck_10_n04467665_32090.png,n04467665_32090.png,0.0,-0.6489365,2.571078,-2.276894
alexnet2023_baseline_pgd,1,184,NaN,airplane,chair,c05,0184_cop_dnn_c05_chair_10_n02791124_4296.png,n02791124_4296.png,0.0,0.8081683,2.0070832,-0.84776086
alexnet2023_baseline_pgd,1,185,NaN,boat,boat,c30,0185_cop_dnn_c30_boat_10_n04612504_14669.png,n04612504_14669.png,1.0,4.3393555,4.134529,0.1448341
alexnet2023_baseline_pgd,1,186,NaN,knife,airplane,c03,0186_cop_dnn_c03_airplane_10_n02690373_891.png,n02690373_891.png,0.0,1.7932358,3.1616135,-0.96758914
alexnet2023_baseline_pgd,1,187,NaN,clock,clock,c100,0187_cop_dnn_c100_clock_10_n04548280_7539.png,n04548280_7539.png,1.0,6.4009666,6.09139,0.21890366
alexnet2023_baseline_pgd,1,188,NaN,elephant,bear,c30,0188_cop_dnn_c30_bear_10_n02134418_4717.png,n02134418_4717.png,0.0,4.8993187,6.2603436,-0.96238995
alexnet2023_baseline_pgd,1,189,NaN,airplane,bird,c03,0189_cop_dnn_c03_bird_10_n02002724_13195.png,n02002724_13195.png,0.0,0.41265664,1.5748563,-0.8217992
alexnet2023_baseline_pgd,1,190,NaN,bird,bottle,c10,0190_cop_dnn_c10_bottle_10_n03937543_2494.png,n03937543_2494.png,0.0,0.46545193,1.3098583,-0.5970855
alexnet2023_baseline_pgd,1,191,NaN,clock,clock,c30,0191_cop_dnn_c30_clock_10_n03196217_2307.png,n03196217_2307.png,1.0,8.287807,3.9311905,3.0805933
alexnet2023_baseline_pgd,1,192,NaN,knife,clock,c15,0192_cop_dnn_c15_clock_10_n04548280_17907.png,n04548280_17907.png,0.0,2.5121145,5.0048437,-1.7626257
alexnet2023_baseline_pgd,1,193,NaN,knife,chair,c03,0193_cop_dnn_c03_chair_10_n03376595_6540.png,n03376595_6540.png,0.0,-0.08890247,2.9337807,-2.1373599
alexnet2023_baseline_pgd,1,194,NaN,cat,cat,c30,0194_cop_dnn_c30_cat_10_n02123045_1484.png,n02123045_1484.png,1.0,3.1858761,1.846593,0.9470162
alexnet2023_baseline_pgd,1,195,NaN,airplane,knife,c03,0195_cop_dnn_c03_knife_10_n03041632_89912.png,n03041632_89912.png,0.0,1.3692964,2.6448495,-0.90195227
alexnet2023_baseline_pgd,1,196,NaN,knife,bottle,c05,0196_cop_dnn_c05_bottle_10_n04591713_6975.png,n04591713_6975.png,0.0,3.4204848,4.0690513,-0.45860577
alexnet2023_baseline_pgd,1,197,NaN,elephant,bird,c50,0197_cop_dnn_c50_bird_10_n01860187_810.png,n01860187_810.png,0.0,2.274545,4.4823637,-1.5611637
alexnet2023_baseline_pgd,1,198,NaN,airplane,oven,c03,0198_cop_dnn_c03_oven_10_n04111531_5967.png,n04111531_5967.png,0.0,-0.94540226,1.9656427,-2.0584197
alexnet2023_baseline_pgd,1,199,NaN,boat,boat,c15,0199_cop_dnn_c15_boat_10_n04612504_18954.png,n04612504_18954.png,1.0,3.8904576,2.671172,0.8621652
alexnet2023_baseline_pgd,1,200,NaN,elephant,bicycle,c10,0200_cop_dnn_c10_bicycle_10_n03792782_68259.png,n03792782_68259.png,0.0,0.76192105,1.4289305,-0.47164693
alexnet2023_baseline_pgd,1,201,NaN,knife,car,c03,0201_cop_dnn_c03_car_10_n04285008_296.png,n04285008_296.png,0.0,-0.4025894,2.190806,-1.8338073
alexnet2023_baseline_pgd,1,202,NaN,airplane,airplane,c03,0202_cop_dnn_c03_airplane_10_n02690373_12929.png,n02690373_12929.png,1.0,3.0587301,1.8243763,0.87281996
alexnet2023_baseline_pgd,1,203,NaN,airplane,boat,c01,0203_cop_dnn_c01_boat_10_n03344393_8761.png,n03344393_8761.png,0.0,1.9091985,2.516305,-0.4292891
alexnet2023_baseline_pgd,1,204,NaN,clock,clock,c30,0204_cop_dnn_c30_clock_10_n03196217_3877.png,n03196217_3877.png,1.0,8.64837,6.542206,1.4892828
alexnet2023_baseline_pgd,1,205,NaN,airplane,bear,c10,0205_cop_dnn_c10_bear_10_n02134084_1346.png,n02134084_1346.png,0.0,0.8751727,2.3582485,-1.0486931
alexnet2023_baseline_pgd,1,206,NaN,airplane,knife,c03,0206_cop_dnn_c03_knife_10_n03041632_48151.png,n03041632_48151.png,0.0,1.8307117,2.8125362,-0.6942548
alexnet2023_baseline_pgd,1,207,NaN,airplane,airplane,c50,0207_cop_dnn_c50_airplane_10_n02690373_3589.png,n02690373_3589.png,1.0,9.776031,4.229658,3.9218776
alexnet2023_baseline_pgd,1,208,NaN,clock,bottle,c50,0208_cop_dnn_c50_bottle_10_n04560804_2942.png,n04560804_2942.png,0.0,5.0464144,5.567578,-0.36851823
alexnet2023_baseline_pgd,1,209,NaN,knife,keyboard,c03,0209_cop_dnn_c03_keyboard_10_n04505470_5022.png,n04505470_5022.png,0.0,-1.6231536,2.081598,-2.619655
alexnet2023_baseline_pgd,1,210,NaN,bear,dog,c10,0210_cop_dnn_c10_dog_10_n02096294_1043.png,n02096294_1043.png,0.0,1.540997,1.9721808,-0.30489302
alexnet2023_baseline_pgd,1,211,NaN,airplane,airplane,c50,0211_cop_dnn_c50_airplane_10_n02690373_1350.png,n02690373_1350.png,1.0,14.945406,4.75419,7.206278
alexnet2023_baseline_pgd,1,212,NaN,knife,chair,c03,0212_cop_dnn_c03_chair_10_n04099969_27865.png,n04099969_27865.png,0.0,0.31254345,2.42384,-1.4929122
alexnet2023_baseline_pgd,1,213,NaN,airplane,oven,c01,0213_cop_dnn_c01_oven_10_n04111531_22120.png,n04111531_22120.png,0.0,-0.09153603,2.2322235,-1.6431462
alexnet2023_baseline_pgd,1,214,NaN,elephant,elephant,c50,0214_cop_dnn_c50_elephant_10_n02504458_5600.png,n02504458_5600.png,1.0,11.035806,5.181611,4.1395407
alexnet2023_baseline_pgd,1,215,NaN,airplane,cat,c03,0215_cop_dnn_c03_cat_10_n02123597_11138.png,n02123597_11138.png,0.0,-1.0569824,2.4266884,-2.4633272
alexnet2023_baseline_pgd,1,216,NaN,elephant,cat,c30,0216_cop_dnn_c30_cat_10_n02125311_5717.png,n02125311_5717.png,0.0,-1.5929078,1.8037095,-2.4017713
alexnet2023_baseline_pgd,1,217,NaN,chair,chair,c15,0217_cop_dnn_c15_chair_10_n02791124_11404.png,n02791124_11404.png,1.0,2.9439626,1.2771326,1.1786268
alexnet2023_baseline_pgd,1,218,NaN,cat,cat,c100,0218_cop_dnn_c100_cat_10_n02123394_2984.png,n02123394_2984.png,1.0,5.5004935,3.6894977,1.2805674
alexnet2023_baseline_pgd,1,219,NaN,knife,dog,c10,0219_cop_dnn_c10_dog_10_n02087394_9693.png,n02087394_9693.png,0.0,-0.66855216,2.3541844,-2.1373975
alexnet2023_baseline_pgd,1,220,NaN,airplane,dog,c01,0220_cop_dnn_c01_dog_10_n02098105_2086.png,n02098105_2086.png,0.0,-0.015522757,2.4399574,-1.7362866
alexnet2023_baseline_pgd,1,221,NaN,elephant,cat,c10,0221_cop_dnn_c10_cat_10_n02123159_6932.png,n02123159_6932.png,0.0,0.6890051,4.6377673,-2.7921965
alexnet2023_baseline_pgd,1,222,NaN,car,car,c15,0222_cop_dnn_c15_car_10_n04285008_8323.png,n04285008_8323.png,1.0,8.901084,5.392597,2.4808748
alexnet2023_baseline_pgd,1,223,NaN,airplane,truck,c01,0223_cop_dnn_c01_truck_10_n03796401_2226.png,n03796401_2226.png,0.0,-0.449051,2.3405104,-1.9725177
alexnet2023_baseline_pgd,1,224,NaN,boat,bear,c05,0224_cop_dnn_c05_bear_10_n02134084_6223.png,n02134084_6223.png,0.0,0.19248793,2.3096097,-1.4970311
alexnet2023_baseline_pgd,1,225,NaN,knife,cat,c05,0225_cop_dnn_c05_cat_10_n02125311_22459.png,n02125311_22459.png,0.0,-1.0613111,1.4869474,-1.801891
alexnet2023_baseline_pgd,1,226,NaN,bicycle,bicycle,c10,0226_cop_dnn_c10_bicycle_10_n02835271_19143.png,n02835271_19143.png,1.0,4.2277045,3.3098106,0.649049
alexnet2023_baseline_pgd,1,227,NaN,bottle,cat,c10,0227_cop_dnn_c10_cat_10_n02123597_4357.png,n02123597_4357.png,0.0,0.3537233,1.5127971,-0.81958896
alexnet2023_baseline_pgd,1,228,NaN,airplane,boat,c03,0228_cop_dnn_c03_boat_10_n04273569_6180.png,n04273569_6180.png,0.0,2.2503343,2.5901263,-0.24026924
alexnet2023_baseline_pgd,1,229,NaN,airplane,airplane,c100,0229_cop_dnn_c100_airplane_10_n02690373_139.png,n02690373_139.png,1.0,20.354689,7.1803117,9.315692
alexnet2023_baseline_pgd,1,230,NaN,knife,bottle,c10,0230_cop_dnn_c10_bottle_10_n04557648_4165.png,n04557648_4165.png,0.0,1.0741135,1.7457311,-0.4749054
alexnet2023_baseline_pgd,1,231,NaN,knife,bottle,c50,0231_cop_dnn_c50_bottle_10_n04560804_5756.png,n04560804_5756.png,0.0,2.9350438,4.349704,-1.0003157
alexnet2023_baseline_pgd,1,232,NaN,truck,truck,c15,0232_cop_dnn_c15_truck_10_n04467665_39477.png,n04467665_39477.png,1.0,8.919505,7.85939,0.7496148
alexnet2023_baseline_pgd,1,233,NaN,airplane,cat,c01,0233_cop_dnn_c01_cat_10_n02123159_386.png,n02123159_386.png,0.0,-1.1637169,2.3492122,-2.484016
alexnet2023_baseline_pgd,1,234,NaN,bear,bear,c15,0234_cop_dnn_c15_bear_10_n02134084_4859.png,n02134084_4859.png,1.0,2.0740838,1.169988,0.63929224
alexnet2023_baseline_pgd,1,235,NaN,airplane,dog,c03,0235_cop_dnn_c03_dog_10_n02099429_1992.png,n02099429_1992.png,0.0,0.38800374,2.656141,-1.6038152
alexnet2023_baseline_pgd,1,236,NaN,airplane,oven,c03,0236_cop_dnn_c03_oven_10_n04111531_584.png,n04111531_584.png,0.0,-0.25311956,1.9615526,-1.5660096
alexnet2023_baseline_pgd,1,237,NaN,knife,bottle,c05,0237_cop_dnn_c05_bottle_10_n04591713_4019.png,n04591713_4019.png,0.0,0.5542916,4.5515585,-2.8264945
alexnet2023_baseline_pgd,1,238,NaN,airplane,dog,c03,0238_cop_dnn_c03_dog_10_n02113712_4486.png,n02113712_4486.png,0.0,0.062875606,2.110073,-1.4475874
alexnet2023_baseline_pgd,1,239,NaN,keyboard,chair,c50,0239_cop_dnn_c50_chair_10_n03376595_13018.png,n03376595_13018.png,0.0,0.70752925,2.5922263,-1.332682
alexnet2023_baseline_pgd,1,240,NaN,oven,oven,c50,0240_cop_dnn_c50_oven_10_n04111531_7421.png,n04111531_7421.png,1.0,6.3913746,3.3003273,2.1857004
alexnet2023_baseline_pgd,1,241,NaN,airplane,cat,c01,0241_cop_dnn_c01_cat_10_n02123045_10689.png,n02123045_10689.png,0.0,-1.2540209,2.4680483,-2.6319005
alexnet2023_baseline_pgd,1,242,NaN,knife,clock,c05,0242_cop_dnn_c05_clock_10_n02708093_4391.png,n02708093_4391.png,0.0,2.4273932,4.3258886,-1.342439
alexnet2023_baseline_pgd,1,243,NaN,clock,clock,c50,0243_cop_dnn_c50_clock_10_n02708093_3759.png,n02708093_3759.png,1.0,9.898677,2.686318,5.099908
alexnet2023_baseline_pgd,1,244,NaN,boat,elephant,c05,0244_cop_dnn_c05_elephant_10_n02504013_648.png,n02504013_648.png,0.0,1.314041,1.9217842,-0.4297393
alexnet2023_baseline_pgd,1,245,NaN,airplane,bottle,c01,0245_cop_dnn_c01_bottle_10_n04591713_1879.png,n04591713_1879.png,0.0,0.26004776,2.2276459,-1.391302
alexnet2023_baseline_pgd,1,246,NaN,airplane,dog,c01,0246_cop_dnn_c01_dog_10_n02110627_20194.png,n02110627_20194.png,0.0,-0.2032226,2.5494678,-1.9464461
alexnet2023_baseline_pgd,1,247,NaN,truck,truck,c50,0247_cop_dnn_c50_truck_10_n03796401_13298.png,n03796401_13298.png,1.0,6.9489803,3.2635899,2.6059647
alexnet2023_baseline_pgd,1,248,NaN,chair,chair,c100,0248_cop_dnn_c100_chair_10_n03376595_7824.png,n03376595_7824.png,1.0,3.44607,2.0405514,0.9938517
alexnet2023_baseline_pgd,1,249,NaN,knife,bear,c05,0249_cop_dnn_c05_bear_10_n02134418_6252.png,n02134418_6252.png,0.0,0.015323132,2.9173527,-2.0520449
alexnet2023_baseline_pgd,1,250,NaN,bird,bird,c50,0250_cop_dnn_c50_bird_10_n01855032_1815.png,n01855032_1815.png,1.0,6.7514744,3.934341,1.9920142
alexnet2023_baseline_pgd,1,251,NaN,car,car,c100,0251_cop_dnn_c100_car_10_n03100240_6773.png,n03100240_6773.png,1.0,16.071535,8.511787,5.345549
alexnet2023_baseline_pgd,1,252,NaN,knife,keyboard,c03,0252_cop_dnn_c03_keyboard_10_n03085013_22438.png,n03085013_22438.png,0.0,-0.008971065,3.0262885,-2.1462526
alexnet2023_baseline_pgd,1,253,NaN,airplane,keyboard,c01,0253_cop_dnn_c01_keyboard_10_n04505470_4950.png,n04505470_4950.png,0.0,-0.035507947,2.2197864,-1.594734
alexnet2023_baseline_pgd,1,254,NaN,knife,truck,c03,0254_cop_dnn_c03_truck_10_n04467665_22358.png,n04467665_22358.png,0.0,-0.55536234,2.8484647,-2.4068694
alexnet2023_baseline_pgd,1,255,NaN,airplane,truck,c15,0255_cop_dnn_c15_truck_10_n04467665_67969.png,n04467665_67969.png,0.0,2.3445632,6.0318856,-2.6073308
alexnet2023_baseline_pgd,1,256,NaN,elephant,elephant,c10,0256_cop_dnn_c10_elephant_10_n02504013_2128.png,n02504013_2128.png,1.0,1.0851911,1.013286,0.05084461
alexnet2023_baseline_pgd,1,257,NaN,car,car,c30,0257_cop_dnn_c30_car_10_n03100240_3499.png,n03100240_3499.png,1.0,10.6187725,8.897886,1.2168504
alexnet2023_baseline_pgd,1,258,NaN,elephant,bear,c50,0258_cop_dnn_c50_bear_10_n02134084_7250.png,n02134084_7250.png,0.0,5.096643,5.884885,-0.5573712
alexnet2023_baseline_pgd,1,259,NaN,bear,bicycle,c15,0259_cop_dnn_c15_bicycle_10_n03792782_43279.png,n03792782_43279.png,0.0,0.25054908,1.6490053,-0.98885787
alexnet2023_baseline_pgd,1,260,NaN,cat,cat,c50,0260_cop_dnn_c50_cat_10_n02123045_1274.png,n02123045_1274.png,1.0,3.1396406,2.512732,0.44329128
alexnet2023_baseline_pgd,1,261,NaN,oven,oven,c100,0261_cop_dnn_c100_oven_10_n04111531_6567.png,n04111531_6567.png,1.0,8.449007,2.4324372,4.254358
alexnet2023_baseline_pgd,1,262,NaN,knife,knife,c100,0262_cop_dnn_c100_knife_10_n03041632_86338.png,n03041632_86338.png,1.0,3.2982254,2.8358083,0.3269783
alexnet2023_baseline_pgd,1,263,NaN,clock,chair,c15,0263_cop_dnn_c15_chair_10_n02791124_9757.png,n02791124_9757.png,0.0,2.0939858,3.5215394,-1.0094329
alexnet2023_baseline_pgd,1,264,NaN,knife,knife,c15,0264_cop_dnn_c15_knife_10_n03041632_45090.png,n03041632_45090.png,1.0,5.5252714,4.469332,0.7466618
alexnet2023_baseline_pgd,1,265,NaN,airplane,bicycle,c01,0265_cop_dnn_c01_bicycle_10_n02835271_1436.png,n02835271_1436.png,0.0,-0.5045346,2.353402,-2.0208662
alexnet2023_baseline_pgd,1,266,NaN,airplane,bird,c03,0266_cop_dnn_c03_bird_10_n01798484_8189.png,n01798484_8189.png,0.0,1.0207434,2.7768397,-1.2417476
alexnet2023_baseline_pgd,1,267,NaN,knife,bird,c15,0267_cop_dnn_c15_bird_10_n01819313_1282.png,n01819313_1282.png,0.0,-1.0842079,4.2880526,-3.7987618
alexnet2023_baseline_pgd,1,268,NaN,bottle,bottle,c100,0268_cop_dnn_c100_bottle_10_n03983396_11519.png,n03983396_11519.png,1.0,10.518519,3.1699395,5.196231
alexnet2023_baseline_pgd,1,269,NaN,knife,boat,c05,0269_cop_dnn_c05_boat_10_n03344393_7735.png,n03344393_7735.png,0.0,2.436894,3.931939,-1.0571564
alexnet2023_baseline_pgd,1,270,NaN,knife,bottle,c05,0270_cop_dnn_c05_bottle_10_n04560804_21795.png,n04560804_21795.png,0.0,1.1909829,3.5846753,-1.6925962
alexnet2023_baseline_pgd,1,271,NaN,chair,chair,c30,0271_cop_dnn_c30_chair_10_n02791124_4109.png,n02791124_4109.png,1.0,5.5141025,3.9061894,1.1369662
alexnet2023_baseline_pgd,1,272,NaN,airplane,keyboard,c03,0272_cop_dnn_c03_keyboard_10_n04505470_9663.png,n04505470_9663.png,0.0,0.30067313,2.7278874,-1.7162997
alexnet2023_baseline_pgd,1,273,NaN,knife,knife,c15,0273_cop_dnn_c15_knife_10_n03041632_27709.png,n03041632_27709.png,1.0,4.760069,1.8384122,2.0659232
alexnet2023_baseline_pgd,1,274,NaN,airplane,airplane,c50,0274_cop_dnn_c50_airplane_10_n02690373_8539.png,n02690373_8539.png,1.0,6.0819187,3.6660087,1.7083064
alexnet2023_baseline_pgd,1,275,NaN,bear,bear,c15,0275_cop_dnn_c15_bear_10_n02134418_2175.png,n02134418_2175.png,1.0,2.7870219,1.1099124,1.1858956
alexnet2023_baseline_pgd,1,276,NaN,elephant,elephant,c50,0276_cop_dnn_c50_elephant_10_n02504458_2875.png,n02504458_2875.png,1.0,13.497604,4.383582,6.444587
alexnet2023_baseline_pgd,1,277,NaN,knife,chair,c03,0277_cop_dnn_c03_chair_10_n02791124_5868.png,n02791124_5868.png,0.0,-0.424186,2.3758197,-1.979903
alexnet2023_baseline_pgd,1,278,NaN,knife,cat,c10,0278_cop_dnn_c10_cat_10_n02123597_488.png,n02123597_488.png,0.0,-1.3847736,1.9534826,-2.3605037
alexnet2023_baseline_pgd,1,279,NaN,chair,oven,c30,0279_cop_dnn_c30_oven_10_n04111531_6500.png,n04111531_6500.png,0.0,1.8325378,3.4671164,-1.1558217
alexnet2023_baseline_pgd,1,280,NaN,bicycle,bicycle,c15,0280_cop_dnn_c15_bicycle_10_n03792782_13002.png,n03792782_13002.png,1.0,2.630809,1.4071549,0.86525416
alexnet2023_baseline_pgd,1,281,NaN,knife,clock,c05,0281_cop_dnn_c05_clock_10_n03196217_10641.png,n03196217_10641.png,0.0,3.8891265,4.1911364,-0.21355319
alexnet2023_baseline_pgd,1,282,NaN,bicycle,bicycle,c15,0282_cop_dnn_c15_bicycle_10_n03792782_20193.png,n03792782_20193.png,1.0,8.290016,3.084077,3.681155
alexnet2023_baseline_pgd,1,283,NaN,knife,truck,c05,0283_cop_dnn_c05_truck_10_n03417042_13806.png,n03417042_13806.png,0.0,0.21997212,3.0881553,-2.0281117
alexnet2023_baseline_pgd,1,284,NaN,knife,truck,c05,0284_cop_dnn_c05_truck_10_n04467665_70237.png,n04467665_70237.png,0.0,-0.12817594,3.825934,-2.795978
alexnet2023_baseline_pgd,1,285,NaN,airplane,truck,c01,0285_cop_dnn_c01_truck_10_n04467665_3720.png,n04467665_3720.png,0.0,-0.47159806,2.2472544,-1.9225191
alexnet2023_baseline_pgd,1,286,NaN,bear,bear,c10,0286_cop_dnn_c10_bear_10_n02132136_8975.png,n02132136_8975.png,1.0,4.12408,3.876605,0.17499135
alexnet2023_baseline_pgd,1,287,NaN,knife,knife,c05,0287_cop_dnn_c05_knife_10_n03041632_18859.png,n03041632_18859.png,1.0,1.9985023,1.6892203,0.21869536
alexnet2023_baseline_pgd,1,288,NaN,elephant,bear,c50,0288_cop_dnn_c50_bear_10_n02132136_29760.png,n02132136_29760.png,0.0,7.7764025,10.448908,-1.8897467
alexnet2023_baseline_pgd,1,289,NaN,airplane,boat,c05,0289_cop_dnn_c05_boat_10_n04273569_6586.png,n04273569_6586.png,0.0,2.1956196,2.4100606,-0.15163273
alexnet2023_baseline_pgd,1,290,NaN,knife,bottle,c05,0290_cop_dnn_c05_bottle_10_n03983396_11137.png,n03983396_11137.png,0.0,1.0258194,3.7703905,-1.940705
alexnet2023_baseline_pgd,1,291,NaN,knife,clock,c10,0291_cop_dnn_c10_clock_10_n03196217_4232.png,n03196217_4232.png,0.0,2.7226145,4.6362276,-1.3531288
alexnet2023_baseline_pgd,1,292,NaN,airplane,clock,c01,0292_cop_dnn_c01_clock_10_n04548280_1325.png,n04548280_1325.png,0.0,0.49512866,2.4098716,-1.3539277
alexnet2023_baseline_pgd,1,293,NaN,airplane,airplane,c100,0293_cop_dnn_c100_airplane_10_n02690373_2268.png,n02690373_2268.png,1.0,12.266061,5.96081,4.4584856
alexnet2023_baseline_pgd,1,294,NaN,bicycle,bicycle,c10,0294_cop_dnn_c10_bicycle_10_n03792782_14557.png,n03792782_14557.png,1.0,1.188345,0.9397775,0.17576374
alexnet2023_baseline_pgd,1,295,NaN,airplane,cat,c01,0295_cop_dnn_c01_cat_10_n02124075_13792.png,n02124075_13792.png,0.0,-1.2015872,2.6009803,-2.6888213
alexnet2023_baseline_pgd,1,296,NaN,airplane,dog,c01,0296_cop_dnn_c01_dog_10_n02110185_14953.png,n02110185_14953.png,0.0,-0.13662763,2.3518918,-1.759649
alexnet2023_baseline_pgd,1,297,NaN,airplane,bottle,c15,0297_cop_dnn_c15_bottle_10_n04557648_1634.png,n04557648_1634.png,0.0,1.9049034,2.2150338,-0.21929528
alexnet2023_baseline_pgd,1,298,NaN,bicycle,bicycle,c50,0298_cop_dnn_c50_bicycle_10_n02835271_1701.png,n02835271_1701.png,1.0,6.575634,1.7431262,3.4170992
alexnet2023_baseline_pgd,1,299,NaN,boat,boat,c05,0299_cop_dnn_c05_boat_10_n04273569_7312.png,n04273569_7312.png,1.0,2.5324495,1.9248326,0.42965004
alexnet2023_baseline_pgd,1,300,NaN,bird,bird,c100,0300_cop_dnn_c100_bird_10_n01616318_5417.png,n01616318_5417.png,1.0,7.1361957,4.0875745,2.1557007
alexnet2023_baseline_pgd,1,301,NaN,cat,cat,c15,0301_cop_dnn_c15_cat_10_n02123045_12200.png,n02123045_12200.png,1.0,6.223582,1.325022,3.4638047
alexnet2023_baseline_pgd,1,302,NaN,bird,dog,c30,0302_cop_dnn_c30_dog_10_n02102480_8264.png,n02102480_8264.png,0.0,1.8356398,2.2580204,-0.29866818
alexnet2023_baseline_pgd,1,303,NaN,bicycle,bicycle,c30,0303_cop_dnn_c30_bicycle_10_n03792782_5426.png,n03792782_5426.png,1.0,3.6384218,0.5504225,2.1835454
alexnet2023_baseline_pgd,1,304,NaN,knife,clock,c05,0304_cop_dnn_c05_clock_10_n02708093_8038.png,n02708093_8038.png,0.0,0.36996683,2.8675032,-1.766025
alexnet2023_baseline_pgd,1,305,NaN,bicycle,bicycle,c30,0305_cop_dnn_c30_bicycle_10_n02835271_2764.png,n02835271_2764.png,1.0,10.117307,3.3923094,4.7552915
alexnet2023_baseline_pgd,1,306,NaN,knife,knife,c50,0306_cop_dnn_c50_knife_10_n03041632_39836.png,n03041632_39836.png,1.0,9.132753,1.8912728,5.1205
alexnet2023_baseline_pgd,1,307,NaN,airplane,bicycle,c01,0307_cop_dnn_c01_bicycle_10_n03792782_19040.png,n03792782_19040.png,0.0,-0.60928977,2.263506,-2.0313733
alexnet2023_baseline_pgd,1,308,NaN,airplane,cat,c01,0308_cop_dnn_c01_cat_10_n02125311_28331.png,n02125311_28331.png,0.0,-1.2080885,2.3247004,-2.498059
alexnet2023_baseline_pgd,1,309,NaN,airplane,knife,c01,0309_cop_dnn_c01_knife_10_n03041632_18126.png,n03041632_18126.png,0.0,1.5708402,2.2272635,-0.4641613
alexnet2023_baseline_pgd,1,310,NaN,bicycle,bicycle,c30,0310_cop_dnn_c30_bicycle_10_n03792782_19253.png,n03792782_19253.png,1.0,3.412656,2.804851,0.42978305
alexnet2023_baseline_pgd,1,311,NaN,airplane,bottle,c01,0311_cop_dnn_c01_bottle_10_n03983396_751.png,n03983396_751.png,0.0,0.26584584,2.2134147,-1.3771392
alexnet2023_baseline_pgd,1,312,NaN,car,car,c15,0312_cop_dnn_c15_car_10_n04285008_628.png,n04285008_628.png,1.0,3.6089046,2.952986,0.46380448
alexnet2023_baseline_pgd,1,313,NaN,clock,boat,c15,0313_cop_dnn_c15_boat_10_n03662601_3011.png,n03662601_3011.png,0.0,0.19363156,2.7372453,-1.7986065
alexnet2023_baseline_pgd,1,314,NaN,keyboard,bottle,c10,0314_cop_dnn_c10_bottle_10_n04557648_2904.png,n04557648_2904.png,0.0,2.6412127,3.1429605,-0.35478932
alexnet2023_baseline_pgd,1,315,NaN,airplane,bird,c10,0315_cop_dnn_c10_bird_10_n02002556_9804.png,n02002556_9804.png,0.0,0.36455354,3.6273146,-2.3071206
alexnet2023_baseline_pgd,1,316,NaN,knife,truck,c05,0316_cop_dnn_c05_truck_10_n04467665_8955.png,n04467665_8955.png,0.0,-0.5852752,4.072597,-3.293613
alexnet2023_baseline_pgd,1,317,NaN,airplane,boat,c03,0317_cop_dnn_c03_boat_10_n04612504_15061.png,n04612504_15061.png,0.0,2.0218053,2.32669,-0.21558602
alexnet2023_baseline_pgd,1,318,NaN,airplane,bird,c05,0318_cop_dnn_c05_bird_10_n02002556_1437.png,n02002556_1437.png,0.0,1.3663423,2.9328418,-1.1076825
alexnet2023_baseline_pgd,1,319,NaN,oven,truck,c50,0319_cop_dnn_c50_truck_10_n03417042_10993.png,n03417042_10993.png,0.0,2.2214036,3.1795518,-0.6775131
alexnet2023_baseline_pgd,1,320,NaN,airplane,chair,c10,0320_cop_dnn_c10_chair_10_n02791124_880.png,n02791124_880.png,0.0,0.63950056,2.4854765,-1.305302
alexnet2023_baseline_pgd,1,321,NaN,bicycle,bicycle,c50,0321_cop_dnn_c50_bicycle_10_n03792782_4826.png,n03792782_4826.png,1.0,11.384623,4.2478056,5.0464916
alexnet2023_baseline_pgd,1,322,NaN,airplane,chair,c03,0322_cop_dnn_c03_chair_10_n04099969_3804.png,n04099969_3804.png,0.0,-0.5007241,1.3595988,-1.3154469
alexnet2023_baseline_pgd,1,323,NaN,bottle,bottle,c10,0323_cop_dnn_c10_bottle_10_n02823428_2504.png,n02823428_2504.png,1.0,6.3806443,3.133009,2.296425
alexnet2023_baseline_pgd,1,324,NaN,cat,cat,c10,0324_cop_dnn_c10_cat_10_n02124075_9716.png,n02124075_9716.png,1.0,0.8939932,0.86843014,0.018075814
alexnet2023_baseline_pgd,1,325,NaN,airplane,knife,c01,0325_cop_dnn_c01_knife_10_n03041632_81630.png,n03041632_81630.png,0.0,1.5609183,2.5780864,-0.71924645
alexnet2023_baseline_pgd,1,326,NaN,knife,bottle,c30,0326_cop_dnn_c30_bottle_10_n04591713_457.png,n04591713_457.png,0.0,5.0034914,6.3575673,-0.95747626
alexnet2023_baseline_pgd,1,327,NaN,boat,elephant,c30,0327_cop_dnn_c30_elephant_10_n02504458_5337.png,n02504458_5337.png,0.0,3.176507,3.6588783,-0.34108806
alexnet2023_baseline_pgd,1,328,NaN,clock,clock,c15,0328_cop_dnn_c15_clock_10_n02708093_5429.png,n02708093_5429.png,1.0,5.9599547,5.4031568,0.39371565
alexnet2023_baseline_pgd,1,329,NaN,oven,oven,c100,0329_cop_dnn_c100_oven_10_n04111531_9411.png,n04111531_9411.png,1.0,5.2548814,2.704998,1.8030399
alexnet2023_baseline_pgd,1,330,NaN,airplane,knife,c01,0330_cop_dnn_c01_knife_10_n03041632_2338.png,n03041632_2338.png,0.0,1.4325887,2.4448016,-0.7157426
alexnet2023_baseline_pgd,1,331,NaN,cat,cat,c100,0331_cop_dnn_c100_cat_10_n02123394_2755.png,n02123394_2755.png,1.0,8.377627,1.4514194,4.8975687
alexnet2023_baseline_pgd,1,332,NaN,airplane,elephant,c05,0332_cop_dnn_c05_elephant_10_n02504458_10243.png,n02504458_10243.png,0.0,-0.719995,2.7637284,-2.4633646
alexnet2023_baseline_pgd,1,333,NaN,bottle,oven,c15,0333_cop_dnn_c15_oven_10_n04111531_1752.png,n04111531_1752.png,0.0,1.1570791,2.1265755,-0.68553746
alexnet2023_baseline_pgd,1,334,NaN,airplane,bird,c05,0334_cop_dnn_c05_bird_10_n02037110_6736.png,n02037110_6736.png,0.0,1.439452,3.1319704,-1.1967912
alexnet2023_baseline_pgd,1,335,NaN,airplane,airplane,c10,0335_cop_dnn_c10_airplane_10_n02690373_8804.png,n02690373_8804.png,1.0,5.7038517,3.0552957,1.8728119
alexnet2023_baseline_pgd,1,336,NaN,bicycle,elephant,c100,0336_cop_dnn_c100_elephant_10_n02504458_12217.png,n02504458_12217.png,0.0,5.8565154,5.905928,-0.034940075
alexnet2023_baseline_pgd,1,337,NaN,knife,knife,c15,0337_cop_dnn_c15_knife_10_n03041632_84012.png,n03041632_84012.png,1.0,1.9648237,1.7273662,0.16790782
alexnet2023_baseline_pgd,1,338,NaN,elephant,dog,c50,0338_cop_dnn_c50_dog_10_n02093991_6192.png,n02093991_6192.png,0.0,4.581478,5.278911,-0.49315962
alexnet2023_baseline_pgd,1,339,NaN,bird,bird,c50,0339_cop_dnn_c50_bird_10_n02027492_6499.png,n02027492_6499.png,1.0,5.7168007,1.3794954,3.066938
alexnet2023_baseline_pgd,1,340,NaN,knife,knife,c10,0340_cop_dnn_c10_knife_10_n03041632_46185.png,n03041632_46185.png,1.0,3.3771434,1.750646,1.1501074
alexnet2023_baseline_pgd,1,341,NaN,boat,bear,c30,0341_cop_dnn_c30_bear_10_n02134084_14775.png,n02134084_14775.png,0.0,0.23895383,5.330928,-3.6005695
alexnet2023_baseline_pgd,1,342,NaN,truck,truck,c30,0342_cop_dnn_c30_truck_10_n03417042_5346.png,n03417042_5346.png,1.0,7.257382,5.2358637,1.4294293
alexnet2023_baseline_pgd,1,343,NaN,elephant,dog,c30,0343_cop_dnn_c30_dog_10_n02093991_9672.png,n02093991_9672.png,0.0,3.9008608,4.1593385,-0.18277133
alexnet2023_baseline_pgd,1,344,NaN,elephant,elephant,c100,0344_cop_dnn_c100_elephant_10_n02504458_2031.png,n02504458_2031.png,1.0,21.30944,5.117075,11.449732
alexnet2023_baseline_pgd,1,345,NaN,airplane,bird,c03,0345_cop_dnn_c03_bird_10_n02025239_660.png,n02025239_660.png,0.0,0.86180174,2.1146102,-0.8858694
alexnet2023_baseline_pgd,1,346,NaN,airplane,elephant,c01,0346_cop_dnn_c01_elephant_10_n02504458_4244.png,n02504458_4244.png,0.0,-0.86412287,2.3971481,-2.306067
alexnet2023_baseline_pgd,1,347,NaN,elephant,elephant,c30,0347_cop_dnn_c30_elephant_10_n02504013_7539.png,n02504013_7539.png,1.0,5.908499,4.063237,1.304797
alexnet2023_baseline_pgd,1,348,NaN,airplane,bird,c03,0348_cop_dnn_c03_bird_10_n02002724_5876.png,n02002724_5876.png,0.0,0.6684811,1.815473,-0.8110457
alexnet2023_baseline_pgd,1,349,NaN,airplane,bird,c10,0349_cop_dnn_c10_bird_10_n01532829_560.png,n01532829_560.png,0.0,1.7638228,2.2384183,-0.33558974
alexnet2023_baseline_pgd,1,350,NaN,boat,boat,c30,0350_cop_dnn_c30_boat_10_n04273569_1709.png,n04273569_1709.png,1.0,7.5088224,3.8732274,2.570754
alexnet2023_baseline_pgd,1,351,NaN,bicycle,bicycle,c50,0351_cop_dnn_c50_bicycle_10_n02835271_7958.png,n02835271_7958.png,1.0,2.9983249,1.2589586,1.2299178
alexnet2023_baseline_pgd,1,352,NaN,elephant,bear,c30,0352_cop_dnn_c30_bear_10_n02133161_12157.png,n02133161_12157.png,0.0,4.5043592,7.453532,-2.0853803
alexnet2023_baseline_pgd,1,353,NaN,airplane,chair,c01,0353_cop_dnn_c01_chair_10_n04099969_4577.png,n04099969_4577.png,0.0,-0.4098369,1.9745518,-1.6860174
alexnet2023_baseline_pgd,1,354,NaN,airplane,bicycle,c01,0354_cop_dnn_c01_bicycle_10_n02835271_10283.png,n02835271_10283.png,0.0,-0.7060121,2.4964592,-2.2644892
alexnet2023_baseline_pgd,1,355,NaN,truck,truck,c100,0355_cop_dnn_c100_truck_10_n03417042_23815.png,n03417042_23815.png,1.0,8.895702,7.9926624,0.6385457
alexnet2023_baseline_pgd,1,356,NaN,airplane,bear,c03,0356_cop_dnn_c03_bear_10_n02133161_1059.png,n02133161_1059.png,0.0,-0.17061213,2.762723,-2.074181
alexnet2023_baseline_pgd,1,357,NaN,airplane,chair,c01,0357_cop_dnn_c01_chair_10_n02791124_5173.png,n02791124_5173.png,0.0,-0.63268375,2.5421793,-2.2449672
alexnet2023_baseline_pgd,1,358,NaN,bottle,bottle,c30,0358_cop_dnn_c30_bottle_10_n03983396_5545.png,n03983396_5545.png,1.0,5.5631638,1.9962988,2.5221543
alexnet2023_baseline_pgd,1,359,NaN,airplane,airplane,c01,0359_cop_dnn_c01_airplane_10_n02690373_1797.png,n02690373_1797.png,1.0,2.5567355,1.9563833,0.4245131
alexnet2023_baseline_pgd,1,360,NaN,airplane,oven,c05,0360_cop_dnn_c05_oven_10_n04111531_6628.png,n04111531_6628.png,0.0,-0.9534075,4.5975947,-3.9251516
alexnet2023_baseline_pgd,1,361,NaN,knife,elephant,c10,0361_cop_dnn_c10_elephant_10_n02504458_7817.png,n02504458_7817.png,0.0,1.921046,2.4415123,-0.36802527
alexnet2023_baseline_pgd,1,362,NaN,knife,knife,c50,0362_cop_dnn_c50_knife_10_n03041632_4714.png,n03041632_4714.png,1.0,3.1305957,2.7994907,0.2341266
alexnet2023_baseline_pgd,1,363,NaN,knife,bear,c03,0363_cop_dnn_c03_bear_10_n02134084_169.png,n02134084_169.png,0.0,0.11348827,2.217254,-1.4875871
alexnet2023_baseline_pgd,1,364,NaN,bird,bird,c15,0364_cop_dnn_c15_bird_10_n02013706_8336.png,n02013706_8336.png,1.0,3.5662956,0.92729175,1.8660575
alexnet2023_baseline_pgd,1,365,NaN,bottle,bottle,c15,0365_cop_dnn_c15_bottle_10_n04579145_6880.png,n04579145_6880.png,1.0,6.663821,2.4772553,2.960349
alexnet2023_baseline_pgd,1,366,NaN,boat,dog,c05,0366_cop_dnn_c05_dog_10_n02105641_416.png,n02105641_416.png,0.0,0.92443496,2.4251802,-1.0611871
alexnet2023_baseline_pgd,1,367,NaN,boat,airplane,c10,0367_cop_dnn_c10_airplane_10_n02690373_6549.png,n02690373_6549.png,0.0,2.317066,2.4938416,-0.12499929
alexnet2023_baseline_pgd,1,368,NaN,airplane,clock,c01,0368_cop_dnn_c01_clock_10_n04548280_2374.png,n04548280_2374.png,0.0,0.5810721,2.7363563,-1.524016
alexnet2023_baseline_pgd,1,369,NaN,bottle,bottle,c30,0369_cop_dnn_c30_bottle_10_n03983396_6287.png,n03983396_6287.png,1.0,5.1252136,3.2336352,1.337548
alexnet2023_baseline_pgd,1,370,NaN,airplane,dog,c01,0370_cop_dnn_c01_dog_10_n02090622_1126.png,n02090622_1126.png,0.0,-0.02728491,2.407033,-1.7213227
alexnet2023_baseline_pgd,1,371,NaN,truck,truck,c50,0371_cop_dnn_c50_truck_10_n03796401_1681.png,n03796401_1681.png,1.0,9.84425,8.951856,0.6310179
alexnet2023_baseline_pgd,1,372,NaN,elephant,elephant,c30,0372_cop_dnn_c30_elephant_10_n02504013_5537.png,n02504013_5537.png,1.0,12.042452,2.5049658,6.7440214
alexnet2023_baseline_pgd,1,373,NaN,knife,keyboard,c05,0373_cop_dnn_c05_keyboard_10_n03085013_12399.png,n03085013_12399.png,0.0,0.07750901,3.900748,-2.7034383
alexnet2023_baseline_pgd,1,374,NaN,bottle,oven,c15,0374_cop_dnn_c15_oven_10_n04111531_6094.png,n04111531_6094.png,0.0,2.5005133,5.9292026,-2.4244494
alexnet2023_baseline_pgd,1,375,NaN,knife,airplane,c03,0375_cop_dnn_c03_airplane_10_n02690373_13604.png,n02690373_13604.png,0.0,2.3364615,3.1000094,-0.5399099
alexnet2023_baseline_pgd,1,376,NaN,bear,bear,c100,0376_cop_dnn_c100_bear_10_n02134084_16084.png,n02134084_16084.png,1.0,9.706682,7.185397,1.7828178
alexnet2023_baseline_pgd,1,377,NaN,airplane,boat,c01,0377_cop_dnn_c01_boat_10_n04273569_15906.png,n04273569_15906.png,0.0,2.0054739,2.253226,-0.17518726
alexnet2023_baseline_pgd,1,378,NaN,knife,dog,c05,0378_cop_dnn_c05_dog_10_n02105162_8899.png,n02105162_8899.png,0.0,0.06170148,1.9861801,-1.3608118
alexnet2023_baseline_pgd,1,379,NaN,airplane,oven,c03,0379_cop_dnn_c03_oven_10_n04111531_7619.png,n04111531_7619.png,0.0,-1.3150878,2.2423959,-2.5155208
alexnet2023_baseline_pgd,1,380,NaN,knife,elephant,c05,0380_cop_dnn_c05_elephant_10_n02504458_1816.png,n02504458_1816.png,0.0,0.41184592,2.0110843,-1.1308323
alexnet2023_baseline_pgd,1,381,NaN,elephant,cat,c30,0381_cop_dnn_c30_cat_10_n02123045_3575.png,n02123045_3575.png,0.0,-0.19066925,1.8635576,-1.4525578
alexnet2023_baseline_pgd,1,382,NaN,airplane,truck,c01,0382_cop_dnn_c01_truck_10_n03417042_908.png,n03417042_908.png,0.0,-0.55803585,2.6647508,-2.2788544
alexnet2023_baseline_pgd,1,383,NaN,airplane,boat,c03,0383_cop_dnn_c03_boat_10_n03344393_4213.png,n03344393_4213.png,0.0,2.1068454,2.8667932,-0.53736424
alexnet2023_baseline_pgd,1,384,NaN,airplane,knife,c01,0384_cop_dnn_c01_knife_10_n03041632_31483.png,n03041632_31483.png,0.0,1.4193751,2.494855,-0.7604791
alexnet2023_baseline_pgd,1,385,NaN,airplane,bottle,c01,0385_cop_dnn_c01_bottle_10_n03937543_986.png,n03937543_986.png,0.0,0.32077453,2.4725928,-1.5215653
alexnet2023_baseline_pgd,1,386,NaN,truck,truck,c15,0386_cop_dnn_c15_truck_10_n03796401_7381.png,n03796401_7381.png,1.0,7.8600783,4.470015,2.3971367
alexnet2023_baseline_pgd,1,387,NaN,airplane,dog,c03,0387_cop_dnn_c03_dog_10_n02094433_9787.png,n02094433_9787.png,0.0,0.38233688,2.2234743,-1.3018807
alexnet2023_baseline_pgd,1,388,NaN,boat,bird,c30,0388_cop_dnn_c30_bird_10_n02011460_11838.png,n02011460_11838.png,0.0,1.3104854,2.7403665,-1.0110786
alexnet2023_baseline_pgd,1,389,NaN,elephant,cat,c30,0389_cop_dnn_c30_cat_10_n02123597_29513.png,n02123597_29513.png,0.0,2.156907,2.3320098,-0.12381632
alexnet2023_baseline_pgd,1,390,NaN,knife,chair,c10,0390_cop_dnn_c10_chair_10_n04429376_5337.png,n04429376_5337.png,0.0,2.0525358,2.7672338,-0.5053679
alexnet2023_baseline_pgd,1,391,NaN,airplane,knife,c03,0391_cop_dnn_c03_knife_10_n03041632_4260.png,n03041632_4260.png,0.0,2.1390152,3.0683267,-0.6571225
alexnet2023_baseline_pgd,1,392,NaN,knife,keyboard,c10,0392_cop_dnn_c10_keyboard_10_n04505470_4061.png,n04505470_4061.png,0.0,0.45541275,2.52815,-1.4656466
alexnet2023_baseline_pgd,1,393,NaN,boat,boat,c15,0393_cop_dnn_c15_boat_10_n03344393_6467.png,n03344393_6467.png,1.0,3.2496781,2.723766,0.37187597
alexnet2023_baseline_pgd,1,394,NaN,bicycle,bicycle,c100,0394_cop_dnn_c100_bicycle_10_n03792782_11297.png,n03792782_11297.png,1.0,9.5721,2.6028645,4.927994
alexnet2023_baseline_pgd,1,395,NaN,airplane,bicycle,c03,0395_cop_dnn_c03_bicycle_10_n03792782_8357.png,n03792782_8357.png,0.0,-0.6169823,2.25723,-2.032375
alexnet2023_baseline_pgd,1,396,NaN,elephant,dog,c10,0396_cop_dnn_c10_dog_10_n02108422_2739.png,n02108422_2739.png,0.0,0.09802516,2.6453872,-1.801257
alexnet2023_baseline_pgd,1,397,NaN,airplane,bear,c03,0397_cop_dnn_c03_bear_10_n02134084_6840.png,n02134084_6840.png,0.0,-0.2607187,2.4628646,-1.9258642
alexnet2023_baseline_pgd,1,398,NaN,bear,bear,c30,0398_cop_dnn_c30_bear_10_n02133161_5365.png,n02133161_5365.png,1.0,4.889524,3.9818025,0.6418561
alexnet2023_baseline_pgd,1,399,NaN,chair,bottle,c30,0399_cop_dnn_c30_bottle_10_n04560804_1010.png,n04560804_1010.png,0.0,2.0522897,2.9863415,-0.66047436
alexnet2023_baseline_pgd,1,400,NaN,bottle,clock,c10,0400_cop_dnn_c10_clock_10_n04548280_183.png,n04548280_183.png,0.0,1.4685453,3.1245747,-1.1709896
alexnet2023_baseline_pgd,1,401,NaN,keyboard,keyboard,c100,0401_cop_dnn_c100_keyboard_10_n03085013_21534.png,n03085013_21534.png,1.0,17.650093,4.745285,9.125077
alexnet2023_baseline_pgd,1,402,NaN,chair,keyboard,c50,0402_cop_dnn_c50_keyboard_10_n03085013_24111.png,n03085013_24111.png,0.0,2.7500305,6.6387434,-2.7497354
alexnet2023_baseline_pgd,1,403,NaN,knife,knife,c15,0403_cop_dnn_c15_knife_10_n03041632_28009.png,n03041632_28009.png,1.0,3.5560262,2.684479,0.616277
alexnet2023_baseline_pgd,1,404,NaN,cat,cat,c50,0404_cop_dnn_c50_cat_10_n02123159_7647.png,n02123159_7647.png,1.0,6.349125,3.3753746,2.1027591
alexnet2023_baseline_pgd,1,405,NaN,airplane,bottle,c01,0405_cop_dnn_c01_bottle_10_n02823428_8696.png,n02823428_8696.png,0.0,0.27977294,2.324469,-1.4458185
alexnet2023_baseline_pgd,1,406,NaN,elephant,elephant,c15,0406_cop_dnn_c15_elephant_10_n02504458_8923.png,n02504458_8923.png,1.0,4.011614,2.803042,0.8545894
alexnet2023_baseline_pgd,1,407,NaN,airplane,bear,c01,0407_cop_dnn_c01_bear_10_n02134084_5031.png,n02134084_5031.png,0.0,-0.35669535,2.532776,-2.043165
alexnet2023_baseline_pgd,1,408,NaN,elephant,dog,c50,0408_cop_dnn_c50_dog_10_n02097209_1658.png,n02097209_1658.png,0.0,0.80473465,4.606023,-2.6879168
alexnet2023_baseline_pgd,1,409,NaN,airplane,dog,c05,0409_cop_dnn_c05_dog_10_n02099849_6384.png,n02099849_6384.png,0.0,0.2886908,1.9890007,-1.2023007
alexnet2023_baseline_pgd,1,410,NaN,elephant,elephant,c15,0410_cop_dnn_c15_elephant_10_n02504013_3459.png,n02504013_3459.png,1.0,1.9158417,1.3186868,0.42225227
alexnet2023_baseline_pgd,1,411,NaN,airplane,knife,c03,0411_cop_dnn_c03_knife_10_n03041632_36390.png,n03041632_36390.png,0.0,1.28943,1.9886634,-0.4944327
alexnet2023_baseline_pgd,1,412,NaN,knife,knife,c100,0412_cop_dnn_c100_knife_10_n03041632_10263.png,n03041632_10263.png,1.0,8.824263,1.8634728,4.922022
alexnet2023_baseline_pgd,1,413,NaN,airplane,cat,c03,0413_cop_dnn_c03_cat_10_n02123045_840.png,n02123045_840.png,0.0,-0.60240126,1.9732649,-1.8212711
alexnet2023_baseline_pgd,1,414,NaN,airplane,clock,c05,0414_cop_dnn_c05_clock_10_n04548280_4758.png,n04548280_4758.png,0.0,2.1280491,3.5057127,-0.9741553
alexnet2023_baseline_pgd,1,415,NaN,elephant,bear,c50,0415_cop_dnn_c50_bear_10_n02133161_1247.png,n02133161_1247.png,0.0,5.756673,8.39897,-1.868386
alexnet2023_baseline_pgd,1,416,NaN,knife,airplane,c10,0416_cop_dnn_c10_airplane_10_n02690373_6716.png,n02690373_6716.png,0.0,1.6140003,4.247403,-1.862097
alexnet2023_baseline_pgd,1,417,NaN,keyboard,keyboard,c30,0417_cop_dnn_c30_keyboard_10_n04505470_4893.png,n04505470_4893.png,1.0,8.411789,4.7695556,2.575448
alexnet2023_baseline_pgd,1,418,NaN,chair,chair,c30,0418_cop_dnn_c30_chair_10_n04099969_34525.png,n04099969_34525.png,1.0,3.9987087,2.8623798,0.8035059
alexnet2023_baseline_pgd,1,419,NaN,airplane,airplane,c01,0419_cop_dnn_c01_airplane_10_n02690373_4793.png,n02690373_4793.png,1.0,2.5161533,1.8597507,0.46414673
alexnet2023_baseline_pgd,1,420,NaN,knife,knife,c15,0420_cop_dnn_c15_knife_10_n03041632_4787.png,n03041632_4787.png,1.0,4.3342786,1.8548516,1.7532196
alexnet2023_baseline_pgd,1,421,NaN,airplane,boat,c05,0421_cop_dnn_c05_boat_10_n04273569_20587.png,n04273569_20587.png,0.0,2.1487625,2.6146288,-0.32941726
alexnet2023_baseline_pgd,1,422,NaN,boat,bicycle,c03,0422_cop_dnn_c03_bicycle_10_n03792782_4844.png,n03792782_4844.png,0.0,0.04241792,2.2290936,-1.5462132
alexnet2023_baseline_pgd,1,423,NaN,airplane,cat,c01,0423_cop_dnn_c01_cat_10_n02123045_6066.png,n02123045_6066.png,0.0,-1.2219527,2.3343444,-2.5146818
alexnet2023_baseline_pgd,1,424,NaN,boat,boat,c30,0424_cop_dnn_c30_boat_10_n04273569_17045.png,n04273569_17045.png,1.0,10.946707,10.235594,0.50283283
alexnet2023_baseline_pgd,1,425,NaN,keyboard,keyboard,c100,0425_cop_dnn_c100_keyboard_10_n04505470_5068.png,n04505470_5068.png,1.0,14.455692,8.630255,4.1192064
alexnet2023_baseline_pgd,1,426,NaN,airplane,airplane,c10,0426_cop_dnn_c10_airplane_10_n02690373_2724.png,n02690373_2724.png,1.0,5.7286887,3.683341,1.4462793
alexnet2023_baseline_pgd,1,427,NaN,boat,boat,c10,0427_cop_dnn_c10_boat_10_n03662601_4844.png,n03662601_4844.png,1.0,4.343474,2.976928,0.9662939
alexnet2023_baseline_pgd,1,428,NaN,chair,chair,c100,0428_cop_dnn_c100_chair_10_n04099969_3929.png,n04099969_3929.png,1.0,9.895656,1.3602825,6.03542
alexnet2023_baseline_pgd,1,429,NaN,oven,oven,c10,0429_cop_dnn_c10_oven_10_n04111531_9026.png,n04111531_9026.png,1.0,3.6384492,2.7632468,0.61886156
alexnet2023_baseline_pgd,1,430,NaN,knife,knife,c15,0430_cop_dnn_c15_knife_10_n03041632_51225.png,n03041632_51225.png,1.0,9.045144,3.4719112,3.9408708
alexnet2023_baseline_pgd,1,431,NaN,bottle,boat,c10,0431_cop_dnn_c10_boat_10_n03344393_6638.png,n03344393_6638.png,0.0,-0.77039135,1.2150983,-1.4039532
alexnet2023_baseline_pgd,1,432,NaN,knife,knife,c30,0432_cop_dnn_c30_knife_10_n03041632_4590.png,n03041632_4590.png,1.0,8.026688,4.4480953,2.530447
alexnet2023_baseline_pgd,1,433,NaN,airplane,clock,c03,0433_cop_dnn_c03_clock_10_n02708093_3761.png,n02708093_3761.png,0.0,0.23790233,1.853384,-1.1423181
alexnet2023_baseline_pgd,1,434,NaN,knife,car,c03,0434_cop_dnn_c03_car_10_n04285008_3193.png,n04285008_3193.png,0.0,-0.71877414,2.0947711,-1.9894769
alexnet2023_baseline_pgd,1,435,NaN,cat,keyboard,c50,0435_cop_dnn_c50_keyboard_10_n03085013_661.png,n03085013_661.png,0.0,0.37492722,2.9605083,-1.8282819
alexnet2023_baseline_pgd,1,436,NaN,airplane,bottle,c03,0436_cop_dnn_c03_bottle_10_n04557648_2355.png,n04557648_2355.png,0.0,0.17700465,2.108708,-1.3659204
alexnet2023_baseline_pgd,1,437,NaN,bicycle,dog,c30,0437_cop_dnn_c30_dog_10_n02107312_860.png,n02107312_860.png,0.0,-1.6908013,3.487872,-3.661875
alexnet2023_baseline_pgd,1,438,NaN,boat,boat,c100,0438_cop_dnn_c100_boat_10_n02951358_1541.png,n02951358_1541.png,1.0,11.932361,3.6641946,5.846476
alexnet2023_baseline_pgd,1,439,NaN,boat,boat,c15,0439_cop_dnn_c15_boat_10_n02951358_4972.png,n02951358_4972.png,1.0,3.190536,2.2965956,0.6321114
alexnet2023_baseline_pgd,1,440,NaN,bear,bear,c15,0440_cop_dnn_c15_bear_10_n02132136_6352.png,n02132136_6352.png,1.0,4.765259,3.5968957,0.8261575
alexnet2023_baseline_pgd,1,441,NaN,boat,knife,c05,0441_cop_dnn_c05_knife_10_n03041632_27022.png,n03041632_27022.png,0.0,0.91863936,1.8994148,-0.693513
alexnet2023_baseline_pgd,1,442,NaN,airplane,airplane,c15,0442_cop_dnn_c15_airplane_10_n02690373_10399.png,n02690373_10399.png,1.0,5.5077744,3.201947,1.6304662
alexnet2023_baseline_pgd,1,443,NaN,keyboard,keyboard,c30,0443_cop_dnn_c30_keyboard_10_n04505470_4803.png,n04505470_4803.png,1.0,2.2734065,2.0037625,0.19066712
alexnet2023_baseline_pgd,1,444,NaN,airplane,bottle,c03,0444_cop_dnn_c03_bottle_10_n03937543_4916.png,n03937543_4916.png,0.0,0.4299059,2.4165838,-1.4047934
alexnet2023_baseline_pgd,1,445,NaN,elephant,dog,c10,0445_cop_dnn_c10_dog_10_n02092339_2268.png,n02092339_2268.png,0.0,0.11315276,1.0408211,-0.65596056
alexnet2023_baseline_pgd,1,446,NaN,cat,cat,c100,0446_cop_dnn_c100_cat_10_n02123394_2034.png,n02123394_2034.png,1.0,6.5686088,2.9256725,2.575945
alexnet2023_baseline_pgd,1,447,NaN,airplane,keyboard,c01,0447_cop_dnn_c01_keyboard_10_n03085013_24442.png,n03085013_24442.png,0.0,0.16268785,2.1956615,-1.4375296
alexnet2023_baseline_pgd,1,448,NaN,airplane,bicycle,c03,0448_cop_dnn_c03_bicycle_10_n03792782_12908.png,n03792782_12908.png,0.0,-0.54701406,2.5953498,-2.2219868
alexnet2023_baseline_pgd,1,449,NaN,cat,cat,c50,0449_cop_dnn_c50_cat_10_n02124075_10241.png,n02124075_10241.png,1.0,8.305283,2.4409072,4.1467395
alexnet2023_baseline_pgd,1,450,NaN,airplane,keyboard,c03,0450_cop_dnn_c03_keyboard_10_n03085013_29941.png,n03085013_29941.png,0.0,-0.6125516,2.6576,-2.3123465
alexnet2023_baseline_pgd,1,451,NaN,knife,car,c05,0451_cop_dnn_c05_car_10_n03100240_5718.png,n03100240_5718.png,0.0,-1.040342,2.3345199,-2.3863876
alexnet2023_baseline_pgd,1,452,NaN,airplane,bear,c01,0452_cop_dnn_c01_bear_10_n02133161_789.png,n02133161_789.png,0.0,-0.16431692,2.4706836,-1.8632268
alexnet2023_baseline_pgd,1,453,NaN,chair,chair,c30,0453_cop_dnn_c30_chair_10_n04099969_9891.png,n04099969_9891.png,1.0,4.2456017,1.1162485,2.212787
alexnet2023_baseline_pgd,1,454,NaN,airplane,knife,c01,0454_cop_dnn_c01_knife_10_n03041632_8666.png,n03041632_8666.png,0.0,1.4766576,2.5391567,-0.7513003
alexnet2023_baseline_pgd,1,455,NaN,knife,car,c10,0455_cop_dnn_c10_car_10_n03100240_52.png,n03100240_52.png,0.0,2.2037115,4.429018,-1.5735294
alexnet2023_baseline_pgd,1,456,NaN,boat,bird,c10,0456_cop_dnn_c10_bird_10_n02007558_45529.png,n02007558_45529.png,0.0,1.4836,1.8123913,-0.23249054
alexnet2023_baseline_pgd,1,457,NaN,airplane,airplane,c15,0457_cop_dnn_c15_airplane_10_n02690373_1933.png,n02690373_1933.png,1.0,5.1973743,3.6707962,1.0794538
alexnet2023_baseline_pgd,1,458,NaN,airplane,elephant,c03,0458_cop_dnn_c03_elephant_10_n02504013_1879.png,n02504013_1879.png,0.0,-0.22729231,2.8389144,-2.1681356
alexnet2023_baseline_pgd,1,459,NaN,car,car,c10,0459_cop_dnn_c10_car_10_n03100240_3373.png,n03100240_3373.png,1.0,3.1978543,2.1991544,0.7061875
alexnet2023_baseline_pgd,1,460,NaN,boat,bicycle,c15,0460_cop_dnn_c15_bicycle_10_n03792782_7331.png,n03792782_7331.png,0.0,0.0021504164,2.8963332,-2.0464962
alexnet2023_baseline_pgd,1,461,NaN,knife,chair,c100,0461_cop_dnn_c100_chair_10_n03376595_11049.png,n03376595_11049.png,0.0,1.8267264,3.0026455,-0.83150035
alexnet2023_baseline_pgd,1,462,NaN,dog,knife,c50,0462_cop_dnn_c50_knife_10_n03041632_37274.png,n03041632_37274.png,0.0,1.8289436,1.8644915,-0.025136128
alexnet2023_baseline_pgd,1,463,NaN,bottle,bottle,c15,0463_cop_dnn_c15_bottle_10_n02823428_780.png,n02823428_780.png,1.0,5.1026645,1.1307807,2.808546
alexnet2023_baseline_pgd,1,464,NaN,airplane,cat,c05,0464_cop_dnn_c05_cat_10_n02123045_390.png,n02123045_390.png,0.0,-0.8705322,2.4050522,-2.316188
alexnet2023_baseline_pgd,1,465,NaN,bird,bird,c30,0465_cop_dnn_c30_bird_10_n01796340_10024.png,n01796340_10024.png,1.0,2.9817414,1.337473,1.1626734
alexnet2023_baseline_pgd,1,466,NaN,knife,knife,c05,0466_cop_dnn_c05_knife_10_n03041632_13509.png,n03041632_13509.png,1.0,4.912001,2.308682,1.8408247
alexnet2023_baseline_pgd,1,467,NaN,airplane,bird,c05,0467_cop_dnn_c05_bird_10_n01534433_14198.png,n01534433_14198.png,0.0,1.0745486,4.3616576,-2.324337
alexnet2023_baseline_pgd,1,468,NaN,truck,chair,c100,0468_cop_dnn_c100_chair_10_n04099969_2502.png,n04099969_2502.png,0.0,4.0557523,5.435568,-0.97567695
alexnet2023_baseline_pgd,1,469,NaN,airplane,cat,c05,0469_cop_dnn_c05_cat_10_n02123045_15474.png,n02123045_15474.png,0.0,-0.31486025,1.3742092,-1.1943524
alexnet2023_baseline_pgd,1,470,NaN,clock,clock,c30,0470_cop_dnn_c30_clock_10_n02708093_442.png,n02708093_442.png,1.0,3.2078476,3.1789322,0.02044628
alexnet2023_baseline_pgd,1,471,NaN,car,boat,c100,0471_cop_dnn_c100_boat_10_n02951358_12663.png,n02951358_12663.png,0.0,1.2663296,4.369866,-2.1945314
alexnet2023_baseline_pgd,1,472,NaN,airplane,cat,c05,0472_cop_dnn_c05_cat_10_n02125311_37322.png,n02125311_37322.png,0.0,-1.111658,2.3504646,-2.4480903
alexnet2023_baseline_pgd,1,473,NaN,bird,bird,c100,0473_cop_dnn_c100_bird_10_n01558993_5185.png,n01558993_5185.png,1.0,4.301778,2.141252,1.5277225
alexnet2023_baseline_pgd,1,474,NaN,elephant,elephant,c100,0474_cop_dnn_c100_elephant_10_n02504013_7248.png,n02504013_7248.png,1.0,14.969241,3.8332176,7.8743577
alexnet2023_baseline_pgd,1,475,NaN,airplane,bottle,c01,0475_cop_dnn_c01_bottle_10_n02823428_4245.png,n02823428_4245.png,0.0,0.39715645,2.4174356,-1.4285531
alexnet2023_baseline_pgd,1,476,NaN,chair,chair,c10,0476_cop_dnn_c10_chair_10_n04099969_8993.png,n04099969_8993.png,1.0,3.212459,3.0214071,0.13509414
alexnet2023_baseline_pgd,1,477,NaN,dog,dog,c30,0477_cop_dnn_c30_dog_10_n02101388_8775.png,n02101388_8775.png,1.0,4.8735905,2.270022,1.841001
alexnet2023_baseline_pgd,1,478,NaN,airplane,car,c01,0478_cop_dnn_c01_car_10_n02814533_3590.png,n02814533_3590.png,0.0,-0.43622306,2.3525217,-1.9719403
alexnet2023_baseline_pgd,1,479,NaN,boat,elephant,c05,0479_cop_dnn_c05_elephant_10_n02504458_6018.png,n02504458_6018.png,0.0,-0.22570705,2.224218,-1.7323586
alexnet2023_baseline_pgd,1,480,NaN,keyboard,keyboard,c100,0480_cop_dnn_c100_keyboard_10_n03085013_11332.png,n03085013_11332.png,1.0,21.418396,6.6120377,10.469677
alexnet2023_baseline_pgd,1,481,NaN,boat,oven,c05,0481_cop_dnn_c05_oven_10_n04111531_6863.png,n04111531_6863.png,0.0,-1.8272533,1.8835182,-2.6239119
alexnet2023_baseline_pgd,1,482,NaN,airplane,airplane,c50,0482_cop_dnn_c50_airplane_10_n02690373_2675.png,n02690373_2675.png,1.0,10.462814,5.0367527,3.836805
alexnet2023_baseline_pgd,1,483,NaN,airplane,dog,c01,0483_cop_dnn_c01_dog_10_n02106550_660.png,n02106550_660.png,0.0,-0.16978697,2.4656305,-1.8635216
alexnet2023_baseline_pgd,1,484,NaN,knife,knife,c15,0484_cop_dnn_c15_knife_10_n03041632_11700.png,n03041632_11700.png,1.0,4.927865,3.2157238,1.2106668
alexnet2023_baseline_pgd,1,485,NaN,bird,bird,c15,0485_cop_dnn_c15_bird_10_n02009229_6149.png,n02009229_6149.png,1.0,5.754466,1.604519,2.9344559
alexnet2023_baseline_pgd,1,486,NaN,keyboard,clock,c30,0486_cop_dnn_c30_clock_10_n03196217_3780.png,n03196217_3780.png,0.0,4.7729754,5.6461496,-0.6174274
alexnet2023_baseline_pgd,1,487,NaN,bird,bird,c100,0487_cop_dnn_c100_bird_10_n01530575_34173.png,n01530575_34173.png,1.0,11.218907,5.1006045,4.3262935
alexnet2023_baseline_pgd,1,488,NaN,bottle,bottle,c100,0488_cop_dnn_c100_bottle_10_n03983396_17803.png,n03983396_17803.png,1.0,13.671071,5.7415466,5.6070204
alexnet2023_baseline_pgd,1,489,NaN,boat,oven,c05,0489_cop_dnn_c05_oven_10_n04111531_2156.png,n04111531_2156.png,0.0,-1.0854077,2.503636,-2.537837
alexnet2023_baseline_pgd,1,490,NaN,elephant,elephant,c10,0490_cop_dnn_c10_elephant_10_n02504013_14948.png,n02504013_14948.png,1.0,2.9927583,2.4569361,0.37888348
alexnet2023_baseline_pgd,1,491,NaN,airplane,boat,c01,0491_cop_dnn_c01_boat_10_n04273569_3112.png,n04273569_3112.png,0.0,1.9523361,2.5611877,-0.43052316
alexnet2023_baseline_pgd,1,492,NaN,bird,bird,c50,0492_cop_dnn_c50_bird_10_n01560419_6583.png,n01560419_6583.png,1.0,6.2380223,1.2925173,3.4970002
alexnet2023_baseline_pgd,1,493,NaN,keyboard,keyboard,c50,0493_cop_dnn_c50_keyboard_10_n03085013_19161.png,n03085013_19161.png,1.0,7.031133,2.4591973,3.2328467
alexnet2023_baseline_pgd,1,494,NaN,knife,bird,c05,0494_cop_dnn_c05_bird_10_n01616318_57023.png,n01616318_57023.png,0.0,0.31036854,3.9796097,-2.5945454
alexnet2023_baseline_pgd,1,495,NaN,truck,truck,c50,0495_cop_dnn_c50_truck_10_n04467665_69176.png,n04467665_69176.png,1.0,4.872014,3.192156,1.187839
alexnet2023_baseline_pgd,1,496,NaN,car,car,c50,0496_cop_dnn_c50_car_10_n03100240_4971.png,n03100240_4971.png,1.0,13.983439,9.720194,3.01457
alexnet2023_baseline_pgd,1,497,NaN,airplane,oven,c01,0497_cop_dnn_c01_oven_10_n04111531_4901.png,n04111531_4901.png,0.0,-0.12791237,2.5652838,-1.9043772
alexnet2023_baseline_pgd,1,498,NaN,bear,bear,c30,0498_cop_dnn_c30_bear_10_n02133161_4091.png,n02133161_4091.png,1.0,4.503443,3.2849078,0.8616343
alexnet2023_baseline_pgd,1,499,NaN,airplane,cat,c03,0499_cop_dnn_c03_cat_10_n02123394_4164.png,n02123394_4164.png,0.0,-1.339848,2.401507,-2.6455376
alexnet2023_baseline_pgd,1,500,NaN,boat,bird,c03,0500_cop_dnn_c03_bird_10_n02017213_689.png,n02017213_689.png,0.0,1.0968028,2.3212917,-0.86584437
alexnet2023_baseline_pgd,1,501,NaN,elephant,dog,c100,0501_cop_dnn_c100_dog_10_n02109047_14207.png,n02109047_14207.png,0.0,5.344625,5.704316,-0.25434005
alexnet2023_baseline_pgd,1,502,NaN,airplane,elephant,c05,0502_cop_dnn_c05_elephant_10_n02504013_8347.png,n02504013_8347.png,0.0,0.6146384,2.7393582,-1.5024039
alexnet2023_baseline_pgd,1,503,NaN,bottle,bottle,c30,0503_cop_dnn_c30_bottle_10_n04591713_1652.png,n04591713_1652.png,1.0,4.38014,2.9031692,1.044376
alexnet2023_baseline_pgd,1,504,NaN,airplane,oven,c15,0504_cop_dnn_c15_oven_10_n04111531_22403.png,n04111531_22403.png,0.0,-0.09373164,2.4493005,-1.7981954
alexnet2023_baseline_pgd,1,505,NaN,airplane,airplane,c100,0505_cop_dnn_c100_airplane_10_n02690373_6046.png,n02690373_6046.png,1.0,23.36145,3.6923747,13.908136
alexnet2023_baseline_pgd,1,506,NaN,elephant,bear,c15,0506_cop_dnn_c15_bear_10_n02134084_1689.png,n02134084_1689.png,0.0,1.4595094,2.254442,-0.56210226
alexnet2023_baseline_pgd,1,507,NaN,oven,oven,c30,0507_cop_dnn_c30_oven_10_n04111531_14269.png,n04111531_14269.png,1.0,5.0382986,2.4980772,1.7962079
alexnet2023_baseline_pgd,1,508,NaN,elephant,cat,c100,0508_cop_dnn_c100_cat_10_n02123597_9444.png,n02123597_9444.png,0.0,6.897596,7.2046814,-0.21714225
alexnet2023_baseline_pgd,1,509,NaN,bear,bear,c10,0509_cop_dnn_c10_bear_10_n02134418_128.png,n02134418_128.png,1.0,3.0690322,2.4834538,0.4140665
alexnet2023_baseline_pgd,1,510,NaN,airplane,airplane,c30,0510_cop_dnn_c30_airplane_10_n02690373_8789.png,n02690373_8789.png,1.0,13.004804,5.7619686,5.121458
alexnet2023_baseline_pgd,1,511,NaN,airplane,bottle,c01,0511_cop_dnn_c01_bottle_10_n03937543_10092.png,n03937543_10092.png,0.0,0.33363035,2.2119696,-1.3281865
alexnet2023_baseline_pgd,1,512,NaN,knife,clock,c03,0512_cop_dnn_c03_clock_10_n02708093_7257.png,n02708093_7257.png,0.0,1.3391871,2.6434088,-0.922224
alexnet2023_baseline_pgd,1,513,NaN,bear,bear,c100,0513_cop_dnn_c100_bear_10_n02134084_21207.png,n02134084_21207.png,1.0,10.016637,4.920784,3.6033123
alexnet2023_baseline_pgd,1,514,NaN,airplane,bird,c05,0514_cop_dnn_c05_bird_10_n01797886_12811.png,n01797886_12811.png,0.0,0.86971694,1.9437575,-0.75946146
alexnet2023_baseline_pgd,1,515,NaN,airplane,oven,c01,0515_cop_dnn_c01_oven_10_n04111531_21248.png,n04111531_21248.png,0.0,-0.246168,2.4868534,-1.9325379
alexnet2023_baseline_pgd,1,516,NaN,elephant,dog,c15,0516_cop_dnn_c15_dog_10_n02090379_5574.png,n02090379_5574.png,0.0,0.9517767,3.4999318,-1.8018178
alexnet2023_baseline_pgd,1,517,NaN,car,car,c15,0517_cop_dnn_c15_car_10_n04285008_8443.png,n04285008_8443.png,1.0,7.305878,3.4954283,2.694395
alexnet2023_baseline_pgd,1,518,NaN,car,car,c100,0518_cop_dnn_c100_car_10_n03100240_15647.png,n03100240_15647.png,1.0,12.330539,9.591532,1.9367704
alexnet2023_baseline_pgd,1,519,NaN,chair,chair,c50,0519_cop_dnn_c50_chair_10_n02791124_5824.png,n02791124_5824.png,1.0,4.7606926,3.1989822,1.104296
alexnet2023_baseline_pgd,1,520,NaN,boat,bear,c05,0520_cop_dnn_c05_bear_10_n02133161_9949.png,n02133161_9949.png,0.0,1.0056067,1.9588668,-0.67405677
alexnet2023_baseline_pgd,1,521,NaN,airplane,elephant,c03,0521_cop_dnn_c03_elephant_10_n02504458_5320.png,n02504458_5320.png,0.0,-0.8210434,2.3624485,-2.2510686
alexnet2023_baseline_pgd,1,522,NaN,airplane,keyboard,c01,0522_cop_dnn_c01_keyboard_10_n04505470_1904.png,n04505470_1904.png,0.0,0.031452313,2.510496,-1.7529485
alexnet2023_baseline_pgd,1,523,NaN,oven,oven,c100,0523_cop_dnn_c100_oven_10_n04111531_4685.png,n04111531_4685.png,1.0,12.7841,5.8663974,4.8915544
alexnet2023_baseline_pgd,1,524,NaN,knife,truck,c05,0524_cop_dnn_c05_truck_10_n03417042_2230.png,n03417042_2230.png,0.0,-0.40646368,4.5789666,-3.5252316
alexnet2023_baseline_pgd,1,525,NaN,knife,bottle,c15,0525_cop_dnn_c15_bottle_10_n04591713_6842.png,n04591713_6842.png,0.0,0.8495984,2.813475,-1.3886704
alexnet2023_baseline_pgd,1,526,NaN,boat,boat,c50,0526_cop_dnn_c50_boat_10_n02951358_8285.png,n02951358_8285.png,1.0,6.6739273,2.8884292,2.6767514
alexnet2023_baseline_pgd,1,527,NaN,airplane,knife,c01,0527_cop_dnn_c01_knife_10_n03041632_48675.png,n03041632_48675.png,0.0,1.4427725,2.6432965,-0.84889865
alexnet2023_baseline_pgd,1,528,NaN,airplane,oven,c01,0528_cop_dnn_c01_oven_10_n04111531_14435.png,n04111531_14435.png,0.0,-0.15053691,2.4443693,-1.834876
alexnet2023_baseline_pgd,1,529,NaN,cat,cat,c50,0529_cop_dnn_c50_cat_10_n02123159_8273.png,n02123159_8273.png,1.0,6.692558,2.7393777,2.7953205
alexnet2023_baseline_pgd,1,530,NaN,bird,bird,c50,0530_cop_dnn_c50_bird_10_n01614925_1908.png,n01614925_1908.png,1.0,10.089803,4.417073,4.0112257
alexnet2023_baseline_pgd,1,531,NaN,airplane,knife,c05,0531_cop_dnn_c05_knife_10_n03041632_96345.png,n03041632_96345.png,0.0,1.2676811,2.0641317,-0.5631756
alexnet2023_baseline_pgd,1,532,NaN,airplane,knife,c10,0532_cop_dnn_c10_knife_10_n03041632_31037.png,n03041632_31037.png,0.0,1.9346671,2.6628578,-0.51490855
alexnet2023_baseline_pgd,1,533,NaN,airplane,airplane,c50,0533_cop_dnn_c50_airplane_10_n02690373_1436.png,n02690373_1436.png,1.0,13.051484,4.188375,6.267165
alexnet2023_baseline_pgd,1,534,NaN,chair,chair,c100,0534_cop_dnn_c100_chair_10_n04099969_28072.png,n04099969_28072.png,1.0,7.828226,3.3472908,3.1684997
alexnet2023_baseline_pgd,1,535,NaN,airplane,boat,c01,0535_cop_dnn_c01_boat_10_n04612504_19983.png,n04612504_19983.png,0.0,1.7232277,2.4160502,-0.48989946
alexnet2023_baseline_pgd,1,536,NaN,knife,oven,c15,0536_cop_dnn_c15_oven_10_n04111531_8255.png,n04111531_8255.png,0.0,-0.23839861,2.8490229,-2.1831367
alexnet2023_baseline_pgd,1,537,NaN,boat,bear,c15,0537_cop_dnn_c15_bear_10_n02132136_1574.png,n02132136_1574.png,0.0,3.3058822,4.489969,-0.8372756
alexnet2023_baseline_pgd,1,538,NaN,boat,boat,c100,0538_cop_dnn_c100_boat_10_n04273569_24747.png,n04273569_24747.png,1.0,8.907401,6.795914,1.4930468
alexnet2023_baseline_pgd,1,539,NaN,bottle,dog,c30,0539_cop_dnn_c30_dog_10_n02113799_18413.png,n02113799_18413.png,0.0,-0.019570423,2.4283252,-1.7309235
alexnet2023_baseline_pgd,1,540,NaN,boat,boat,c15,0540_cop_dnn_c15_boat_10_n04273569_28333.png,n04273569_28333.png,1.0,4.505032,2.084652,1.7114673
alexnet2023_baseline_pgd,1,541,NaN,airplane,bird,c01,0541_cop_dnn_c01_bird_10_n02017213_2183.png,n02017213_2183.png,0.0,0.69039494,2.2421079,-1.0972267
alexnet2023_baseline_pgd,1,542,NaN,boat,boat,c50,0542_cop_dnn_c50_boat_10_n04273569_26139.png,n04273569_26139.png,1.0,5.3091106,3.0417495,1.6032665
alexnet2023_baseline_pgd,1,543,NaN,airplane,knife,c03,0543_cop_dnn_c03_knife_10_n03041632_29684.png,n03041632_29684.png,0.0,1.8949474,2.4669042,-0.4044345
alexnet2023_baseline_pgd,1,544,NaN,boat,boat,c100,0544_cop_dnn_c100_boat_10_n02951358_3087.png,n02951358_3087.png,1.0,4.2935557,3.4503443,0.5962405
alexnet2023_baseline_pgd,1,545,NaN,keyboard,keyboard,c15,0545_cop_dnn_c15_keyboard_10_n03085013_13615.png,n03085013_13615.png,1.0,4.834737,4.1241612,0.5024528
alexnet2023_baseline_pgd,1,546,NaN,airplane,oven,c03,0546_cop_dnn_c03_oven_10_n04111531_1778.png,n04111531_1778.png,0.0,-0.63327426,2.409566,-2.151613
alexnet2023_baseline_pgd,1,547,NaN,airplane,dog,c03,0547_cop_dnn_c03_dog_10_n02097474_9129.png,n02097474_9129.png,0.0,0.031135533,2.6742399,-1.868957
alexnet2023_baseline_pgd,1,548,NaN,bird,bird,c30,0548_cop_dnn_c30_bird_10_n02013706_19220.png,n02013706_19220.png,1.0,8.901081,2.0633597,4.834999
alexnet2023_baseline_pgd,1,549,NaN,clock,clock,c100,0549_cop_dnn_c100_clock_10_n03196217_7199.png,n03196217_7199.png,1.0,6.534797,5.481323,0.74491894
alexnet2023_baseline_pgd,1,550,NaN,bear,bear,c50,0550_cop_dnn_c50_bear_10_n02132136_27823.png,n02132136_27823.png,1.0,9.778751,8.819671,0.67817247
alexnet2023_baseline_pgd,1,551,NaN,knife,boat,c03,0551_cop_dnn_c03_boat_10_n03662601_6462.png,n03662601_6462.png,0.0,1.6146933,2.4516635,-0.59182733
alexnet2023_baseline_pgd,1,552,NaN,clock,knife,c15,0552_cop_dnn_c15_knife_10_n03041632_11773.png,n03041632_11773.png,0.0,0.5994018,1.5849767,-0.6969067
alexnet2023_baseline_pgd,1,553,NaN,airplane,clock,c01,0553_cop_dnn_c01_clock_10_n02708093_7998.png,n02708093_7998.png,0.0,0.66208744,2.4353158,-1.2538619
alexnet2023_baseline_pgd,1,554,NaN,elephant,elephant,c30,0554_cop_dnn_c30_elephant_10_n02504458_3409.png,n02504458_3409.png,1.0,13.843964,5.5749216,5.847096
alexnet2023_baseline_pgd,1,555,NaN,airplane,bottle,c01,0555_cop_dnn_c01_bottle_10_n04560804_24166.png,n04560804_24166.png,0.0,0.37462595,2.3574464,-1.4020659
alexnet2023_baseline_pgd,1,556,NaN,airplane,cat,c15,0556_cop_dnn_c15_cat_10_n02125311_17613.png,n02125311_17613.png,0.0,0.8249259,1.729827,-0.63986176
alexnet2023_baseline_pgd,1,557,NaN,knife,bicycle,c05,0557_cop_dnn_c05_bicycle_10_n03792782_5284.png,n03792782_5284.png,0.0,-0.7823062,2.0475564,-2.001015
alexnet2023_baseline_pgd,1,558,NaN,chair,oven,c10,0558_cop_dnn_c10_oven_10_n04111531_13006.png,n04111531_13006.png,0.0,1.4798126,1.7758512,-0.20933093
alexnet2023_baseline_pgd,1,559,NaN,knife,oven,c10,0559_cop_dnn_c10_oven_10_n04111531_8309.png,n04111531_8309.png,0.0,-0.055119555,3.1184814,-2.2440748
alexnet2023_baseline_pgd,1,560,NaN,clock,clock,c10,0560_cop_dnn_c10_clock_10_n04548280_8390.png,n04548280_8390.png,1.0,2.9697378,1.4683671,1.0616294
alexnet2023_baseline_pgd,1,561,NaN,truck,truck,c50,0561_cop_dnn_c50_truck_10_n04467665_7110.png,n04467665_7110.png,1.0,10.391721,3.9692078,4.5414023
alexnet2023_baseline_pgd,1,562,NaN,knife,clock,c10,0562_cop_dnn_c10_clock_10_n03196217_8020.png,n03196217_8020.png,0.0,3.24115,4.813843,-1.1120619
alexnet2023_baseline_pgd,1,563,NaN,elephant,elephant,c100,0563_cop_dnn_c100_elephant_10_n02504458_7955.png,n02504458_7955.png,1.0,17.850391,5.365962,8.827825
alexnet2023_baseline_pgd,1,564,NaN,airplane,elephant,c01,0564_cop_dnn_c01_elephant_10_n02504458_1022.png,n02504458_1022.png,0.0,-0.89339626,2.346448,-2.290916
alexnet2023_baseline_pgd,1,565,NaN,clock,clock,c100,0565_cop_dnn_c100_clock_10_n04548280_2383.png,n04548280_2383.png,1.0,7.6531334,3.3892517,3.0150197
alexnet2023_baseline_pgd,1,566,NaN,bird,bird,c50,0566_cop_dnn_c50_bird_10_n02002724_7019.png,n02002724_7019.png,1.0,7.547593,1.5197595,4.262322
alexnet2023_baseline_pgd,1,567,NaN,cat,cat,c100,0567_cop_dnn_c100_cat_10_n02125311_1127.png,n02125311_1127.png,1.0,7.861824,4.909835,2.0873716
alexnet2023_baseline_pgd,1,568,NaN,knife,bicycle,c05,0568_cop_dnn_c05_bicycle_10_n02835271_6481.png,n02835271_6481.png,0.0,-1.2309533,1.5275127,-1.95053
alexnet2023_baseline_pgd,1,569,NaN,car,car,c15,0569_cop_dnn_c15_car_10_n04285008_5208.png,n04285008_5208.png,1.0,4.052548,3.03557,0.7191121
alexnet2023_baseline_pgd,1,570,NaN,oven,oven,c50,0570_cop_dnn_c50_oven_10_n04111531_8658.png,n04111531_8658.png,1.0,4.1556625,3.389015,0.5421017
alexnet2023_baseline_pgd,1,571,NaN,knife,bottle,c05,0571_cop_dnn_c05_bottle_10_n04579145_2910.png,n04579145_2910.png,0.0,1.3577635,2.8152347,-1.0305878
alexnet2023_baseline_pgd,1,572,NaN,airplane,truck,c01,0572_cop_dnn_c01_truck_10_n04467665_22414.png,n04467665_22414.png,0.0,-0.52790046,2.2330015,-1.9522525
alexnet2023_baseline_pgd,1,573,NaN,elephant,elephant,c15,0573_cop_dnn_c15_elephant_10_n02504013_5439.png,n02504013_5439.png,1.0,4.6351094,2.5679507,1.461702
alexnet2023_baseline_pgd,1,574,NaN,knife,cat,c10,0574_cop_dnn_c10_cat_10_n02123159_5945.png,n02123159_5945.png,0.0,1.2267636,2.2987733,-0.75802535
alexnet2023_baseline_pgd,1,575,NaN,knife,bottle,c10,0575_cop_dnn_c10_bottle_10_n04557648_2426.png,n04557648_2426.png,0.0,4.2235646,5.6740084,-1.0256187
alexnet2023_baseline_pgd,1,576,NaN,airplane,bicycle,c05,0576_cop_dnn_c05_bicycle_10_n03792782_38641.png,n03792782_38641.png,0.0,-0.5468667,2.661083,-2.268363
alexnet2023_baseline_pgd,1,577,NaN,oven,dog,c30,0577_cop_dnn_c30_dog_10_n02110958_15843.png,n02110958_15843.png,0.0,1.5784981,3.353347,-1.2550077
alexnet2023_baseline_pgd,1,578,NaN,keyboard,keyboard,c15,0578_cop_dnn_c15_keyboard_10_n04505470_5161.png,n04505470_5161.png,1.0,4.8928833,2.2464545,1.8713078
alexnet2023_baseline_pgd,1,579,NaN,airplane,airplane,c30,0579_cop_dnn_c30_airplane_10_n02690373_8350.png,n02690373_8350.png,1.0,10.654866,4.372099,4.4425874
alexnet2023_baseline_pgd,1,580,NaN,airplane,bicycle,c05,0580_cop_dnn_c05_bicycle_10_n03792782_10129.png,n03792782_10129.png,0.0,-0.40460774,2.852244,-2.302942
alexnet2023_baseline_pgd,1,581,NaN,car,car,c100,0581_cop_dnn_c100_car_10_n02814533_26369.png,n02814533_26369.png,1.0,5.5500445,4.1814437,0.967747
alexnet2023_baseline_pgd,1,582,NaN,knife,oven,c10,0582_cop_dnn_c10_oven_10_n04111531_10077.png,n04111531_10077.png,0.0,2.8226876,5.110783,-1.6179279
alexnet2023_baseline_pgd,1,583,NaN,airplane,oven,c01,0583_cop_dnn_c01_oven_10_n04111531_12702.png,n04111531_12702.png,0.0,0.044258952,2.3213851,-1.6101714
alexnet2023_baseline_pgd,1,584,NaN,clock,clock,c100,0584_cop_dnn_c100_clock_10_n03196217_8618.png,n03196217_8618.png,1.0,10.303972,7.76473,1.7955154
alexnet2023_baseline_pgd,1,585,NaN,knife,bottle,c10,0585_cop_dnn_c10_bottle_10_n03983396_4227.png,n03983396_4227.png,0.0,3.4172337,3.4352822,-0.012762235
alexnet2023_baseline_pgd,1,586,NaN,bottle,bottle,c30,0586_cop_dnn_c30_bottle_10_n03983396_9090.png,n03983396_9090.png,1.0,4.079697,4.0786777,0.0007208797
alexnet2023_baseline_pgd,1,587,NaN,elephant,bear,c100,0587_cop_dnn_c100_bear_10_n02133161_223.png,n02133161_223.png,0.0,8.756126,10.085424,-0.93995565
alexnet2023_baseline_pgd,1,588,NaN,keyboard,keyboard,c50,0588_cop_dnn_c50_keyboard_10_n04505470_1047.png,n04505470_1047.png,1.0,9.13227,2.7923253,4.483018
alexnet2023_baseline_pgd,1,589,NaN,airplane,elephant,c03,0589_cop_dnn_c03_elephant_10_n02504013_7467.png,n02504013_7467.png,0.0,-0.86033607,2.0944228,-2.0893302
alexnet2023_baseline_pgd,1,590,NaN,elephant,elephant,c30,0590_cop_dnn_c30_elephant_10_n02504013_476.png,n02504013_476.png,1.0,3.2756438,2.7827923,0.34849864
alexnet2023_baseline_pgd,1,591,NaN,oven,chair,c100,0591_cop_dnn_c100_chair_10_n02791124_12707.png,n02791124_12707.png,0.0,4.0445857,4.212556,-0.11877286
alexnet2023_baseline_pgd,1,592,NaN,airplane,bird,c01,0592_cop_dnn_c01_bird_10_n01537544_22049.png,n01537544_22049.png,0.0,0.87248987,2.3246682,-1.0268451
alexnet2023_baseline_pgd,1,593,NaN,knife,bicycle,c05,0593_cop_dnn_c05_bicycle_10_n02835271_4220.png,n02835271_4220.png,0.0,-0.041079674,2.4165428,-1.7378016
alexnet2023_baseline_pgd,1,594,NaN,bottle,truck,c10,0594_cop_dnn_c10_truck_10_n03417042_7530.png,n03417042_7530.png,0.0,2.5243888,3.3216894,-0.5637767
alexnet2023_baseline_pgd,1,595,NaN,airplane,bear,c03,0595_cop_dnn_c03_bear_10_n02134418_12457.png,n02134418_12457.png,0.0,-0.10561429,3.0316553,-2.2183845
alexnet2023_baseline_pgd,1,596,NaN,bottle,bottle,c50,0596_cop_dnn_c50_bottle_10_n04557648_10265.png,n04557648_10265.png,1.0,8.532652,3.4200547,3.6151524
alexnet2023_baseline_pgd,1,597,NaN,clock,clock,c15,0597_cop_dnn_c15_clock_10_n02708093_2025.png,n02708093_2025.png,1.0,6.7654805,3.314855,2.4399607
alexnet2023_baseline_pgd,1,598,NaN,airplane,chair,c15,0598_cop_dnn_c15_chair_10_n03376595_1961.png,n03376595_1961.png,0.0,2.2120528,3.0310755,-0.5791365
alexnet2023_baseline_pgd,1,599,NaN,boat,bear,c05,0599_cop_dnn_c05_bear_10_n02134084_67.png,n02134084_67.png,0.0,0.4009061,2.1048737,-1.204887
alexnet2023_baseline_pgd,1,600,NaN,cat,cat,c50,0600_cop_dnn_c50_cat_10_n02123045_455.png,n02123045_455.png,1.0,7.383772,3.824417,2.516844
alexnet2023_baseline_pgd,1,601,NaN,bottle,car,c10,0601_cop_dnn_c10_car_10_n03100240_13929.png,n03100240_13929.png,0.0,1.4712499,2.0117905,-0.3822199
alexnet2023_baseline_pgd,1,602,NaN,boat,elephant,c10,0602_cop_dnn_c10_elephant_10_n02504458_4997.png,n02504458_4997.png,0.0,1.4165894,3.0140457,-1.1295723
alexnet2023_baseline_pgd,1,603,NaN,knife,airplane,c10,0603_cop_dnn_c10_airplane_10_n02690373_5344.png,n02690373_5344.png,0.0,2.4269328,3.79263,-0.9656937
alexnet2023_baseline_pgd,1,604,NaN,airplane,oven,c01,0604_cop_dnn_c01_oven_10_n04111531_797.png,n04111531_797.png,0.0,-0.20647177,2.4173026,-1.8552886
alexnet2023_baseline_pgd,1,605,NaN,boat,boat,c30,0605_cop_dnn_c30_boat_10_n04273569_3085.png,n04273569_3085.png,1.0,6.3760505,2.3443348,2.8508534
alexnet2023_baseline_pgd,1,606,NaN,oven,oven,c100,0606_cop_dnn_c100_oven_10_n04111531_9113.png,n04111531_9113.png,1.0,8.837329,2.0744681,4.782065
alexnet2023_baseline_pgd,1,607,NaN,boat,boat,c03,0607_cop_dnn_c03_boat_10_n03662601_18803.png,n03662601_18803.png,1.0,2.5102253,1.8446084,0.4706622
alexnet2023_baseline_pgd,1,608,NaN,knife,truck,c03,0608_cop_dnn_c03_truck_10_n04467665_30581.png,n04467665_30581.png,0.0,-0.87559825,1.9711223,-2.0129354
alexnet2023_baseline_pgd,1,609,NaN,elephant,elephant,c30,0609_cop_dnn_c30_elephant_10_n02504013_5237.png,n02504013_5237.png,1.0,7.802192,3.7071757,2.895614
alexnet2023_baseline_pgd,1,610,NaN,keyboard,keyboard,c100,0610_cop_dnn_c100_keyboard_10_n03085013_12175.png,n03085013_12175.png,1.0,14.48233,5.952318,6.0316296
alexnet2023_baseline_pgd,1,611,NaN,chair,chair,c30,0611_cop_dnn_c30_chair_10_n02791124_5401.png,n02791124_5401.png,1.0,9.829705,4.2253237,3.9628963
alexnet2023_baseline_pgd,1,612,NaN,boat,boat,c50,0612_cop_dnn_c50_boat_10_n02951358_22332.png,n02951358_22332.png,1.0,7.838791,6.0932026,1.2343173
alexnet2023_baseline_pgd,1,613,NaN,airplane,knife,c03,0613_cop_dnn_c03_knife_10_n03041632_11932.png,n03041632_11932.png,0.0,1.6134486,2.7373242,-0.7947001
alexnet2023_baseline_pgd,1,614,NaN,cat,cat,c30,0614_cop_dnn_c30_cat_10_n02123159_5257.png,n02123159_5257.png,1.0,2.902442,1.7024479,0.848524
alexnet2023_baseline_pgd,1,615,NaN,bottle,bottle,c50,0615_cop_dnn_c50_bottle_10_n03983396_105.png,n03983396_105.png,1.0,10.283839,6.0768113,2.974818
alexnet2023_baseline_pgd,1,616,NaN,boat,boat,c50,0616_cop_dnn_c50_boat_10_n04612504_11939.png,n04612504_11939.png,1.0,11.183893,3.8709083,5.1710615
alexnet2023_baseline_pgd,1,617,NaN,boat,boat,c30,0617_cop_dnn_c30_boat_10_n03662601_5575.png,n03662601_5575.png,1.0,5.0284376,3.894886,0.80154204
alexnet2023_baseline_pgd,1,618,NaN,boat,cat,c05,0618_cop_dnn_c05_cat_10_n02123159_6590.png,n02123159_6590.png,0.0,-0.93364906,1.9153435,-2.014542
alexnet2023_baseline_pgd,1,619,NaN,bear,bear,c50,0619_cop_dnn_c50_bear_10_n02134084_21462.png,n02134084_21462.png,1.0,3.0752919,2.7228131,0.24924012
alexnet2023_baseline_pgd,1,620,NaN,airplane,cat,c05,0620_cop_dnn_c05_cat_10_n02125311_46330.png,n02125311_46330.png,0.0,-1.0390186,2.0107026,-2.1564786
alexnet2023_baseline_pgd,1,621,NaN,airplane,cat,c01,0621_cop_dnn_c01_cat_10_n02123394_4714.png,n02123394_4714.png,0.0,-1.2213134,2.37664,-2.5441372
alexnet2023_baseline_pgd,1,622,NaN,knife,knife,c30,0622_cop_dnn_c30_knife_10_n03041632_1671.png,n03041632_1671.png,1.0,7.9902534,3.547135,3.141759
alexnet2023_baseline_pgd,1,623,NaN,truck,truck,c50,0623_cop_dnn_c50_truck_10_n04467665_30901.png,n04467665_30901.png,1.0,8.860213,8.452755,0.28811654
alexnet2023_baseline_pgd,1,624,NaN,elephant,dog,c100,0624_cop_dnn_c100_dog_10_n02104029_4704.png,n02104029_4704.png,0.0,3.820048,5.9497714,-1.5059419
alexnet2023_baseline_pgd,1,625,NaN,keyboard,keyboard,c15,0625_cop_dnn_c15_keyboard_10_n03085013_3665.png,n03085013_3665.png,1.0,10.327132,4.244807,4.3008537
alexnet2023_baseline_pgd,1,626,NaN,airplane,bird,c01,0626_cop_dnn_c01_bird_10_n01820546_1616.png,n01820546_1616.png,0.0,0.78702646,2.4663348,-1.1874504
alexnet2023_baseline_pgd,1,627,NaN,car,keyboard,c30,0627_cop_dnn_c30_keyboard_10_n04505470_8754.png,n04505470_8754.png,0.0,2.42115,3.9697926,-1.0950557
alexnet2023_baseline_pgd,1,628,NaN,knife,oven,c05,0628_cop_dnn_c05_oven_10_n04111531_8688.png,n04111531_8688.png,0.0,2.2972186,5.993595,-2.613733
alexnet2023_baseline_pgd,1,629,NaN,bottle,oven,c10,0629_cop_dnn_c10_oven_10_n04111531_13862.png,n04111531_13862.png,0.0,0.19051887,2.3919284,-1.5566317
alexnet2023_baseline_pgd,1,630,NaN,knife,truck,c03,0630_cop_dnn_c03_truck_10_n04467665_9266.png,n04467665_9266.png,0.0,-0.39283836,4.635844,-3.5558157
alexnet2023_baseline_pgd,1,631,NaN,chair,chair,c30,0631_cop_dnn_c30_chair_10_n03376595_1024.png,n03376595_1024.png,1.0,5.8721504,0.3802134,3.8833861
alexnet2023_baseline_pgd,1,632,NaN,bottle,bottle,c30,0632_cop_dnn_c30_bottle_10_n02823428_4468.png,n02823428_4468.png,1.0,10.694325,3.9060457,4.8000383
alexnet2023_baseline_pgd,1,633,NaN,truck,truck,c15,0633_cop_dnn_c15_truck_10_n03796401_4154.png,n03796401_4154.png,1.0,6.111228,4.743995,0.9667796
alexnet2023_baseline_pgd,1,634,NaN,dog,dog,c50,0634_cop_dnn_c50_dog_10_n02087046_4421.png,n02087046_4421.png,1.0,4.384578,3.6439164,0.52372706
alexnet2023_baseline_pgd,1,635,NaN,knife,car,c05,0635_cop_dnn_c05_car_10_n03100240_9011.png,n03100240_9011.png,0.0,1.0441921,3.950705,-2.0552151
alexnet2023_baseline_pgd,1,636,NaN,airplane,bird,c15,0636_cop_dnn_c15_bird_10_n02011460_2417.png,n02011460_2417.png,0.0,0.81247693,1.0447063,-0.16421099
alexnet2023_baseline_pgd,1,637,NaN,bottle,bottle,c100,0637_cop_dnn_c100_bottle_10_n04557648_988.png,n04557648_988.png,1.0,6.157903,-0.06597704,4.400948
alexnet2023_baseline_pgd,1,638,NaN,airplane,cat,c05,0638_cop_dnn_c05_cat_10_n02123159_5205.png,n02123159_5205.png,0.0,-0.9144125,2.078105,-2.1160295
alexnet2023_baseline_pgd,1,639,NaN,oven,oven,c15,0639_cop_dnn_c15_oven_10_n04111531_23215.png,n04111531_23215.png,1.0,4.3309364,1.7894418,1.797108
alexnet2023_baseline_pgd,1,640,NaN,knife,truck,c05,0640_cop_dnn_c05_truck_10_n03796401_20641.png,n03796401_20641.png,0.0,1.4128346,6.2524447,-3.4221213
alexnet2023_baseline_pgd,1,641,NaN,truck,boat,c15,0641_cop_dnn_c15_boat_10_n03662601_16412.png,n03662601_16412.png,0.0,2.9779034,3.8877194,-0.6433371
alexnet2023_baseline_pgd,1,642,NaN,airplane,airplane,c15,0642_cop_dnn_c15_airplane_10_n02690373_1952.png,n02690373_1952.png,1.0,4.30544,3.2619548,0.73785543
alexnet2023_baseline_pgd,1,643,NaN,airplane,dog,c05,0643_cop_dnn_c05_dog_10_n02086079_37199.png,n02086079_37199.png,0.0,0.27904728,2.4496412,-1.5348418
alexnet2023_baseline_pgd,1,644,NaN,airplane,airplane,c10,0644_cop_dnn_c10_airplane_10_n02690373_4375.png,n02690373_4375.png,1.0,4.176259,3.9098628,0.18837062
alexnet2023_baseline_pgd,1,645,NaN,bird,bird,c15,0645_cop_dnn_c15_bird_10_n01592084_4764.png,n01592084_4764.png,1.0,2.6582537,2.1795049,0.33852652
alexnet2023_baseline_pgd,1,646,NaN,knife,knife,c30,0646_cop_dnn_c30_knife_10_n03041632_44269.png,n03041632_44269.png,1.0,8.443915,4.92467,2.4884822
alexnet2023_baseline_pgd,1,647,NaN,elephant,elephant,c30,0647_cop_dnn_c30_elephant_10_n02504013_1258.png,n02504013_1258.png,1.0,8.278477,5.3748503,2.053174
alexnet2023_baseline_pgd,1,648,NaN,airplane,airplane,c30,0648_cop_dnn_c30_airplane_10_n02690373_6138.png,n02690373_6138.png,1.0,13.178769,6.654601,4.6132836
alexnet2023_baseline_pgd,1,649,NaN,airplane,chair,c03,0649_cop_dnn_c03_chair_10_n04099969_9713.png,n04099969_9713.png,0.0,-0.41149145,2.403745,-1.9906727
alexnet2023_baseline_pgd,1,650,NaN,airplane,bicycle,c01,0650_cop_dnn_c01_bicycle_10_n02835271_8212.png,n02835271_8212.png,0.0,-0.5611403,2.2842581,-2.0120006
alexnet2023_baseline_pgd,1,651,NaN,keyboard,keyboard,c50,0651_cop_dnn_c50_keyboard_10_n03085013_14279.png,n03085013_14279.png,1.0,12.402546,3.6585124,6.1829658
alexnet2023_baseline_pgd,1,652,NaN,airplane,bottle,c01,0652_cop_dnn_c01_bottle_10_n04591713_5364.png,n04591713_5364.png,0.0,0.36237764,2.4627595,-1.4851943
alexnet2023_baseline_pgd,1,653,NaN,knife,bird,c15,0653_cop_dnn_c15_bird_10_n01819313_4045.png,n01819313_4045.png,0.0,-0.6312831,2.801382,-2.4272609
alexnet2023_baseline_pgd,1,654,NaN,bear,bird,c10,0654_cop_dnn_c10_bird_10_n02009229_263.png,n02009229_263.png,0.0,1.4301295,1.6083415,-0.12601486
alexnet2023_baseline_pgd,1,655,NaN,elephant,cat,c30,0655_cop_dnn_c30_cat_10_n02123394_2285.png,n02123394_2285.png,0.0,1.7093401,2.5469608,-0.5922873
