subj,session,trial,rt,object_response,category,condition,imagename,filename,is_correct,targ_act,max_nontarg_act,decision_margin
alexnet_w1_mlp_simclrhn_probe1,1,1,NaN,clock,knife,c30,0001_cop_dnn_c30_knife_10_n03041632_7380.png,n03041632_7380.png,0.0,-0.27275696,0.74612087,-0.72045547
alexnet_w1_mlp_simclrhn_probe1,1,2,NaN,bicycle,bicycle,c100,0002_cop_dnn_c100_bicycle_10_n03792782_5966.png,n03792782_5966.png,1.0,1.9820366,0.6217191,0.96188974
alexnet_w1_mlp_simclrhn_probe1,1,3,NaN,airplane,bird,c01,0003_cop_dnn_c01_bird_10_n01601694_10802.png,n01601694_10802.png,0.0,-0.68048376,-0.5470203,-0.094372906
alexnet_w1_mlp_simclrhn_probe1,1,4,NaN,airplane,airplane,c05,0004_cop_dnn_c05_airplane_10_n02690373_9759.png,n02690373_9759.png,1.0,0.9837618,-0.13443021,0.7906811
alexnet_w1_mlp_simclrhn_probe1,1,5,NaN,clock,car,c03,0005_cop_dnn_c03_car_10_n02814533_2236.png,n02814533_2236.png,0.0,-1.3778477,-0.19516723,-0.8362814
alexnet_w1_mlp_simclrhn_probe1,1,6,NaN,chair,chair,c30,0006_cop_dnn_c30_chair_10_n02791124_7207.png,n02791124_7207.png,1.0,0.39639345,-0.64072293,0.73335207
alexnet_w1_mlp_simclrhn_probe1,1,7,NaN,knife,oven,c50,0007_cop_dnn_c50_oven_10_n04111531_7064.png,n04111531_7064.png,0.0,-1.9321849,-0.9061482,-0.7255176
alexnet_w1_mlp_simclrhn_probe1,1,8,NaN,chair,bird,c15,0008_cop_dnn_c15_bird_10_n01532829_2263.png,n01532829_2263.png,0.0,-0.9942976,-0.87820697,-0.08208849
alexnet_w1_mlp_simclrhn_probe1,1,9,NaN,bicycle,bicycle,c50,0009_cop_dnn_c50_bicycle_10_n02835271_3383.png,n02835271_3383.png,1.0,5.3362255,0.60766935,3.343594
alexnet_w1_mlp_simclrhn_probe1,1,10,NaN,clock,bicycle,c03,0010_cop_dnn_c03_bicycle_10_n03792782_27510.png,n03792782_27510.png,0.0,-1.0952933,-0.6912349,-0.28571245
alexnet_w1_mlp_simclrhn_probe1,1,11,NaN,knife,bottle,c03,0011_cop_dnn_c03_bottle_10_n04557648_10944.png,n04557648_10944.png,0.0,-0.6240301,-0.37868536,-0.17348495
alexnet_w1_mlp_simclrhn_probe1,1,12,NaN,keyboard,keyboard,c15,0012_cop_dnn_c15_keyboard_10_n03085013_20891.png,n03085013_20891.png,1.0,-0.19710554,-0.41817722,0.15632129
alexnet_w1_mlp_simclrhn_probe1,1,13,NaN,elephant,elephant,c30,0013_cop_dnn_c30_elephant_10_n02504458_3225.png,n02504458_3225.png,1.0,2.1821725,0.038670987,1.5156845
alexnet_w1_mlp_simclrhn_probe1,1,14,NaN,keyboard,keyboard,c10,0014_cop_dnn_c10_keyboard_10_n04505470_6638.png,n04505470_6638.png,1.0,0.754896,-0.23768638,0.70186174
alexnet_w1_mlp_simclrhn_probe1,1,15,NaN,airplane,bird,c01,0015_cop_dnn_c01_bird_10_n01601694_11888.png,n01601694_11888.png,0.0,-0.9714111,-0.5780397,-0.2781556
alexnet_w1_mlp_simclrhn_probe1,1,16,NaN,airplane,airplane,c03,0016_cop_dnn_c03_airplane_10_n02690373_8743.png,n02690373_8743.png,1.0,0.44892913,-0.7219354,0.8279263
alexnet_w1_mlp_simclrhn_probe1,1,17,NaN,airplane,boat,c10,0017_cop_dnn_c10_boat_10_n03344393_8869.png,n03344393_8869.png,0.0,-0.020967862,0.39189875,-0.29194078
alexnet_w1_mlp_simclrhn_probe1,1,18,NaN,bear,bear,c01,0018_cop_dnn_c01_bear_10_n02132136_27682.png,n02132136_27682.png,1.0,-0.71270764,-0.73360103,0.0147738615
alexnet_w1_mlp_simclrhn_probe1,1,19,NaN,bicycle,clock,c50,0019_cop_dnn_c50_clock_10_n02708093_7081.png,n02708093_7081.png,0.0,-4.094212,-1.208528,-2.0404868
alexnet_w1_mlp_simclrhn_probe1,1,20,NaN,car,car,c10,0020_cop_dnn_c10_car_10_n03100240_12141.png,n03100240_12141.png,1.0,0.3784615,-0.04030618,0.2961135
alexnet_w1_mlp_simclrhn_probe1,1,21,NaN,airplane,car,c15,0021_cop_dnn_c15_car_10_n02814533_19287.png,n02814533_19287.png,0.0,-0.81308335,0.34152263,-0.81642973
alexnet_w1_mlp_simclrhn_probe1,1,22,NaN,bicycle,bicycle,c03,0022_cop_dnn_c03_bicycle_10_n02835271_3841.png,n02835271_3841.png,1.0,-0.27614015,-0.53823143,0.18532652
alexnet_w1_mlp_simclrhn_probe1,1,23,NaN,clock,clock,c15,0023_cop_dnn_c15_clock_10_n02708093_6696.png,n02708093_6696.png,1.0,1.4471866,-0.9182636,1.6726259
alexnet_w1_mlp_simclrhn_probe1,1,24,NaN,knife,bird,c01,0024_cop_dnn_c01_bird_10_n01829413_6393.png,n01829413_6393.png,0.0,-0.91926855,-0.70789945,-0.14946052
alexnet_w1_mlp_simclrhn_probe1,1,25,NaN,clock,clock,c01,0025_cop_dnn_c01_clock_10_n02708093_3484.png,n02708093_3484.png,1.0,-0.33887324,-0.69714546,0.25333673
alexnet_w1_mlp_simclrhn_probe1,1,26,NaN,chair,chair,c05,0026_cop_dnn_c05_chair_10_n04429376_55163.png,n04429376_55163.png,1.0,-0.13632128,-0.39714098,0.18442738
alexnet_w1_mlp_simclrhn_probe1,1,27,NaN,boat,boat,c100,0027_cop_dnn_c100_boat_10_n02951358_14528.png,n02951358_14528.png,1.0,-1.912096,-2.1991076,0.20294787
alexnet_w1_mlp_simclrhn_probe1,1,28,NaN,airplane,chair,c01,0028_cop_dnn_c01_chair_10_n03376595_9603.png,n03376595_9603.png,0.0,-1.1958344,-0.54154795,-0.4626504
alexnet_w1_mlp_simclrhn_probe1,1,29,NaN,knife,bottle,c03,0029_cop_dnn_c03_bottle_10_n03937543_1840.png,n03937543_1840.png,0.0,-0.88719463,-0.45922887,-0.3026175
alexnet_w1_mlp_simclrhn_probe1,1,30,NaN,clock,car,c01,0030_cop_dnn_c01_car_10_n02814533_32835.png,n02814533_32835.png,0.0,-1.6618409,-0.45825922,-0.8510608
alexnet_w1_mlp_simclrhn_probe1,1,31,NaN,elephant,bird,c15,0031_cop_dnn_c15_bird_10_n01860187_38598.png,n01860187_38598.png,0.0,-0.8957598,-0.38655114,-0.36006492
alexnet_w1_mlp_simclrhn_probe1,1,32,NaN,airplane,airplane,c100,0032_cop_dnn_c100_airplane_10_n02690373_9322.png,n02690373_9322.png,1.0,8.202533,3.3702748,3.4169226
alexnet_w1_mlp_simclrhn_probe1,1,33,NaN,clock,bicycle,c01,0033_cop_dnn_c01_bicycle_10_n02835271_1505.png,n02835271_1505.png,0.0,-1.4158623,-0.5582805,-0.6064019
alexnet_w1_mlp_simclrhn_probe1,1,34,NaN,bicycle,bicycle,c50,0034_cop_dnn_c50_bicycle_10_n03792782_11023.png,n03792782_11023.png,1.0,0.63883364,-0.69623005,0.9440326
alexnet_w1_mlp_simclrhn_probe1,1,35,NaN,elephant,elephant,c50,0035_cop_dnn_c50_elephant_10_n02504458_4909.png,n02504458_4909.png,1.0,4.840397,0.20855832,3.2752047
alexnet_w1_mlp_simclrhn_probe1,1,36,NaN,boat,boat,c100,0036_cop_dnn_c100_boat_10_n03344393_646.png,n03344393_646.png,1.0,7.9259734,2.5874128,3.7749324
alexnet_w1_mlp_simclrhn_probe1,1,37,NaN,boat,boat,c10,0037_cop_dnn_c10_boat_10_n04612504_2472.png,n04612504_2472.png,1.0,0.16111967,-0.5320902,0.49017343
alexnet_w1_mlp_simclrhn_probe1,1,38,NaN,clock,keyboard,c03,0038_cop_dnn_c03_keyboard_10_n03085013_4673.png,n03085013_4673.png,0.0,-0.50822777,-0.4521098,-0.039681386
alexnet_w1_mlp_simclrhn_probe1,1,39,NaN,elephant,elephant,c100,0039_cop_dnn_c100_elephant_10_n02504458_1138.png,n02504458_1138.png,1.0,5.1016335,-1.2246104,4.47333
alexnet_w1_mlp_simclrhn_probe1,1,40,NaN,car,car,c100,0040_cop_dnn_c100_car_10_n03100240_5569.png,n03100240_5569.png,1.0,3.6339252,0.34143633,2.3281412
alexnet_w1_mlp_simclrhn_probe1,1,41,NaN,elephant,dog,c100,0041_cop_dnn_c100_dog_10_n02107312_7422.png,n02107312_7422.png,0.0,-1.5675704,-1.2212701,-0.24487133
alexnet_w1_mlp_simclrhn_probe1,1,42,NaN,oven,bear,c15,0042_cop_dnn_c15_bear_10_n02134084_24140.png,n02134084_24140.png,0.0,-1.0252205,-0.32695115,-0.49375102
alexnet_w1_mlp_simclrhn_probe1,1,43,NaN,bottle,bottle,c100,0043_cop_dnn_c100_bottle_10_n04560804_14130.png,n04560804_14130.png,1.0,1.0116491,-0.25503594,0.89568156
alexnet_w1_mlp_simclrhn_probe1,1,44,NaN,cat,cat,c30,0044_cop_dnn_c30_cat_10_n02124075_11970.png,n02124075_11970.png,1.0,0.8512581,-1.6270789,1.7524489
alexnet_w1_mlp_simclrhn_probe1,1,45,NaN,cat,dog,c03,0045_cop_dnn_c03_dog_10_n02093991_247.png,n02093991_247.png,0.0,-1.14445,-0.38887456,-0.5342725
alexnet_w1_mlp_simclrhn_probe1,1,46,NaN,keyboard,keyboard,c100,0046_cop_dnn_c100_keyboard_10_n04505470_375.png,n04505470_375.png,1.0,10.089457,-1.0454277,7.873552
alexnet_w1_mlp_simclrhn_probe1,1,47,NaN,bear,bear,c100,0047_cop_dnn_c100_bear_10_n02134418_4372.png,n02134418_4372.png,1.0,4.602188,1.276255,2.3517897
alexnet_w1_mlp_simclrhn_probe1,1,48,NaN,airplane,boat,c01,0048_cop_dnn_c01_boat_10_n03344393_2838.png,n03344393_2838.png,0.0,-0.680024,-0.38437858,-0.2090529
alexnet_w1_mlp_simclrhn_probe1,1,49,NaN,clock,bicycle,c05,0049_cop_dnn_c05_bicycle_10_n02835271_4935.png,n02835271_4935.png,0.0,-0.96673715,-0.7544436,-0.15011422
alexnet_w1_mlp_simclrhn_probe1,1,50,NaN,airplane,airplane,c50,0050_cop_dnn_c50_airplane_10_n02690373_5382.png,n02690373_5382.png,1.0,4.061106,0.69990647,2.3767273
alexnet_w1_mlp_simclrhn_probe1,1,51,NaN,cat,bottle,c100,0051_cop_dnn_c100_bottle_10_n03937543_2123.png,n03937543_2123.png,0.0,-2.9909916,-2.4417777,-0.38835287
alexnet_w1_mlp_simclrhn_probe1,1,52,NaN,dog,dog,c30,0052_cop_dnn_c30_dog_10_n02097474_5234.png,n02097474_5234.png,1.0,0.7224998,0.5597404,0.115088254
alexnet_w1_mlp_simclrhn_probe1,1,53,NaN,keyboard,bottle,c100,0053_cop_dnn_c100_bottle_10_n02823428_6050.png,n02823428_6050.png,0.0,0.05774624,3.680634,-2.5617685
alexnet_w1_mlp_simclrhn_probe1,1,54,NaN,bottle,clock,c15,0054_cop_dnn_c15_clock_10_n02708093_3743.png,n02708093_3743.png,0.0,0.10857701,0.17607318,-0.047726996
alexnet_w1_mlp_simclrhn_probe1,1,55,NaN,knife,knife,c03,0055_cop_dnn_c03_knife_10_n03041632_55083.png,n03041632_55083.png,1.0,-0.4534003,-0.55789196,0.07388676
alexnet_w1_mlp_simclrhn_probe1,1,56,NaN,knife,knife,c50,0056_cop_dnn_c50_knife_10_n03041632_41310.png,n03041632_41310.png,1.0,1.4692092,0.12068671,0.9535494
alexnet_w1_mlp_simclrhn_probe1,1,57,NaN,knife,knife,c03,0057_cop_dnn_c03_knife_10_n03041632_99799.png,n03041632_99799.png,1.0,-0.46313146,-0.8290408,0.258737
alexnet_w1_mlp_simclrhn_probe1,1,58,NaN,cat,dog,c15,0058_cop_dnn_c15_dog_10_n02094114_8231.png,n02094114_8231.png,0.0,-0.18912101,0.320147,-0.3601069
alexnet_w1_mlp_simclrhn_probe1,1,59,NaN,airplane,chair,c01,0059_cop_dnn_c01_chair_10_n03376595_6173.png,n03376595_6173.png,0.0,-0.97791845,-0.5415519,-0.30855775
alexnet_w1_mlp_simclrhn_probe1,1,60,NaN,airplane,oven,c05,0060_cop_dnn_c05_oven_10_n04111531_9297.png,n04111531_9297.png,0.0,-1.2817862,-0.59830797,-0.4832921
alexnet_w1_mlp_simclrhn_probe1,1,61,NaN,airplane,car,c10,0061_cop_dnn_c10_car_10_n03100240_24420.png,n03100240_24420.png,0.0,-0.7273138,-0.3814132,-0.24458869
alexnet_w1_mlp_simclrhn_probe1,1,62,NaN,elephant,elephant,c100,0062_cop_dnn_c100_elephant_10_n02504013_2340.png,n02504013_2340.png,1.0,13.298996,3.4731402,6.947929
alexnet_w1_mlp_simclrhn_probe1,1,63,NaN,bicycle,bicycle,c05,0063_cop_dnn_c05_bicycle_10_n02835271_10104.png,n02835271_10104.png,1.0,-0.617624,-0.77232677,0.10939139
alexnet_w1_mlp_simclrhn_probe1,1,64,NaN,elephant,bicycle,c15,0064_cop_dnn_c15_bicycle_10_n03792782_7165.png,n03792782_7165.png,0.0,-0.93108153,-0.63721216,-0.20779704
alexnet_w1_mlp_simclrhn_probe1,1,65,NaN,chair,knife,c10,0065_cop_dnn_c10_knife_10_n03041632_14817.png,n03041632_14817.png,0.0,-0.4984135,-0.25725228,-0.17052674
alexnet_w1_mlp_simclrhn_probe1,1,66,NaN,clock,clock,c15,0066_cop_dnn_c15_clock_10_n02708093_118.png,n02708093_118.png,1.0,0.6841588,-0.85910946,1.0912554
alexnet_w1_mlp_simclrhn_probe1,1,67,NaN,airplane,airplane,c10,0067_cop_dnn_c10_airplane_10_n02690373_4298.png,n02690373_4298.png,1.0,1.8909948,-0.38102788,1.6065627
alexnet_w1_mlp_simclrhn_probe1,1,68,NaN,knife,knife,c100,0068_cop_dnn_c100_knife_10_n03041632_50034.png,n03041632_50034.png,1.0,3.0780077,-0.5212536,2.545062
alexnet_w1_mlp_simclrhn_probe1,1,69,NaN,bottle,chair,c03,0069_cop_dnn_c03_chair_10_n02791124_1333.png,n02791124_1333.png,0.0,-1.2829554,-0.45966592,-0.5821536
alexnet_w1_mlp_simclrhn_probe1,1,70,NaN,clock,clock,c01,0070_cop_dnn_c01_clock_10_n02708093_2318.png,n02708093_2318.png,1.0,-0.08774248,-0.6759745,0.41594288
alexnet_w1_mlp_simclrhn_probe1,1,71,NaN,knife,elephant,c01,0071_cop_dnn_c01_elephant_10_n02504013_3864.png,n02504013_3864.png,0.0,-1.0780491,-0.5003754,-0.40847698
alexnet_w1_mlp_simclrhn_probe1,1,72,NaN,chair,chair,c10,0072_cop_dnn_c10_chair_10_n04429376_56624.png,n04429376_56624.png,1.0,-0.4629883,-0.66482997,0.14272362
alexnet_w1_mlp_simclrhn_probe1,1,73,NaN,airplane,airplane,c30,0073_cop_dnn_c30_airplane_10_n02690373_7004.png,n02690373_7004.png,1.0,1.897574,-0.82247126,1.9233624
alexnet_w1_mlp_simclrhn_probe1,1,74,NaN,oven,oven,c30,0074_cop_dnn_c30_oven_10_n04111531_9692.png,n04111531_9692.png,1.0,0.63348293,-1.293564,1.362628
alexnet_w1_mlp_simclrhn_probe1,1,75,NaN,car,truck,c50,0075_cop_dnn_c50_truck_10_n03796401_296.png,n03796401_296.png,0.0,0.3447315,1.0480533,-0.4973236
alexnet_w1_mlp_simclrhn_probe1,1,76,NaN,airplane,airplane,c15,0076_cop_dnn_c15_airplane_10_n02690373_1837.png,n02690373_1837.png,1.0,0.6155297,-0.31176466,0.65569615
alexnet_w1_mlp_simclrhn_probe1,1,77,NaN,airplane,airplane,c03,0077_cop_dnn_c03_airplane_10_n02690373_10203.png,n02690373_10203.png,1.0,-0.28630927,-0.6108966,0.22951789
alexnet_w1_mlp_simclrhn_probe1,1,78,NaN,airplane,boat,c03,0078_cop_dnn_c03_boat_10_n02951358_34234.png,n02951358_34234.png,0.0,-0.5361674,-0.4307285,-0.07455655
alexnet_w1_mlp_simclrhn_probe1,1,79,NaN,bicycle,bicycle,c100,0079_cop_dnn_c100_bicycle_10_n02835271_2885.png,n02835271_2885.png,1.0,2.6378002,1.0720327,1.1071649
alexnet_w1_mlp_simclrhn_probe1,1,80,NaN,airplane,airplane,c30,0080_cop_dnn_c30_airplane_10_n02690373_5247.png,n02690373_5247.png,1.0,2.5403082,-0.13228217,1.8898069
alexnet_w1_mlp_simclrhn_probe1,1,81,NaN,clock,clock,c50,0081_cop_dnn_c50_clock_10_n02708093_596.png,n02708093_596.png,1.0,3.951208,-0.22016509,2.9496064
alexnet_w1_mlp_simclrhn_probe1,1,82,NaN,knife,chair,c01,0082_cop_dnn_c01_chair_10_n03376595_1364.png,n03376595_1364.png,0.0,-1.0831118,-0.57260853,-0.3609803
alexnet_w1_mlp_simclrhn_probe1,1,83,NaN,clock,cat,c03,0083_cop_dnn_c03_cat_10_n02124075_12430.png,n02124075_12430.png,0.0,-0.84281224,-0.5508023,-0.20648222
alexnet_w1_mlp_simclrhn_probe1,1,84,NaN,cat,cat,c05,0084_cop_dnn_c05_cat_10_n02123159_5487.png,n02123159_5487.png,1.0,-0.7091217,-0.75527227,0.03263338
alexnet_w1_mlp_simclrhn_probe1,1,85,NaN,bicycle,bicycle,c50,0085_cop_dnn_c50_bicycle_10_n03792782_17571.png,n03792782_17571.png,1.0,1.6930231,-0.7759058,1.7457963
alexnet_w1_mlp_simclrhn_probe1,1,86,NaN,cat,cat,c50,0086_cop_dnn_c50_cat_10_n02123159_6132.png,n02123159_6132.png,1.0,1.9252471,-2.9969294,3.4805043
alexnet_w1_mlp_simclrhn_probe1,1,87,NaN,knife,bottle,c05,0087_cop_dnn_c05_bottle_10_n03937543_2873.png,n03937543_2873.png,0.0,-0.6861917,-0.6367574,-0.034955334
alexnet_w1_mlp_simclrhn_probe1,1,88,NaN,chair,keyboard,c15,0088_cop_dnn_c15_keyboard_10_n04505470_1236.png,n04505470_1236.png,0.0,-0.9582413,-0.24821374,-0.5020653
alexnet_w1_mlp_simclrhn_probe1,1,89,NaN,airplane,airplane,c01,0089_cop_dnn_c01_airplane_10_n02690373_4243.png,n02690373_4243.png,1.0,-0.06895753,-0.5839431,0.36414984
alexnet_w1_mlp_simclrhn_probe1,1,90,NaN,oven,oven,c30,0090_cop_dnn_c30_oven_10_n04111531_467.png,n04111531_467.png,1.0,-0.6634032,-1.1669781,0.35608125
alexnet_w1_mlp_simclrhn_probe1,1,91,NaN,cat,cat,c03,0091_cop_dnn_c03_cat_10_n02123394_2632.png,n02123394_2632.png,1.0,-0.4328288,-0.6814872,0.17582804
alexnet_w1_mlp_simclrhn_probe1,1,92,NaN,elephant,chair,c15,0092_cop_dnn_c15_chair_10_n02791124_5268.png,n02791124_5268.png,0.0,-0.44543272,-0.2507461,-0.13766423
alexnet_w1_mlp_simclrhn_probe1,1,93,NaN,knife,knife,c100,0093_cop_dnn_c100_knife_10_n03041632_1143.png,n03041632_1143.png,1.0,-0.9019424,-1.2829007,0.26937822
alexnet_w1_mlp_simclrhn_probe1,1,94,NaN,chair,chair,c10,0094_cop_dnn_c10_chair_10_n02791124_1018.png,n02791124_1018.png,1.0,-0.5129584,-0.59075063,0.055007413
alexnet_w1_mlp_simclrhn_probe1,1,95,NaN,bottle,bicycle,c05,0095_cop_dnn_c05_bicycle_10_n03792782_8057.png,n03792782_8057.png,0.0,-1.3644483,-0.9569201,-0.288166
alexnet_w1_mlp_simclrhn_probe1,1,96,NaN,bear,bear,c30,0096_cop_dnn_c30_bear_10_n02132136_1338.png,n02132136_1338.png,1.0,1.8488822,0.103188574,1.2343918
alexnet_w1_mlp_simclrhn_probe1,1,97,NaN,clock,clock,c05,0097_cop_dnn_c05_clock_10_n02708093_4798.png,n02708093_4798.png,1.0,1.2315046,-0.11598216,0.952817
alexnet_w1_mlp_simclrhn_probe1,1,98,NaN,airplane,truck,c01,0098_cop_dnn_c01_truck_10_n03796401_15046.png,n03796401_15046.png,0.0,-1.8110846,-0.41473043,-0.98737156
alexnet_w1_mlp_simclrhn_probe1,1,99,NaN,knife,knife,c50,0099_cop_dnn_c50_knife_10_n03041632_13612.png,n03041632_13612.png,1.0,-0.3224632,-1.2413422,0.6497456
alexnet_w1_mlp_simclrhn_probe1,1,100,NaN,oven,oven,c10,0100_cop_dnn_c10_oven_10_n04111531_1898.png,n04111531_1898.png,1.0,0.40191805,-0.077772334,0.33919233
alexnet_w1_mlp_simclrhn_probe1,1,101,NaN,clock,truck,c03,0101_cop_dnn_c03_truck_10_n04467665_28988.png,n04467665_28988.png,0.0,-1.1735809,-0.46677932,-0.49978417
alexnet_w1_mlp_simclrhn_probe1,1,102,NaN,airplane,airplane,c100,0102_cop_dnn_c100_airplane_10_n02690373_736.png,n02690373_736.png,1.0,9.070299,2.0926576,4.9339375
alexnet_w1_mlp_simclrhn_probe1,1,103,NaN,dog,dog,c50,0103_cop_dnn_c50_dog_10_n02111500_5154.png,n02111500_5154.png,1.0,0.8815297,-0.18254226,0.75241244
alexnet_w1_mlp_simclrhn_probe1,1,104,NaN,elephant,bear,c50,0104_cop_dnn_c50_bear_10_n02133161_13461.png,n02133161_13461.png,0.0,-1.9794604,-1.4642775,-0.36428928
alexnet_w1_mlp_simclrhn_probe1,1,105,NaN,bear,dog,c15,0105_cop_dnn_c15_dog_10_n02102318_11746.png,n02102318_11746.png,0.0,-0.5720501,0.11121333,-0.4831402
alexnet_w1_mlp_simclrhn_probe1,1,106,NaN,boat,boat,c50,0106_cop_dnn_c50_boat_10_n03662601_12226.png,n03662601_12226.png,1.0,1.8430166,0.7493824,0.7733162
alexnet_w1_mlp_simclrhn_probe1,1,107,NaN,keyboard,keyboard,c05,0107_cop_dnn_c05_keyboard_10_n04505470_3207.png,n04505470_3207.png,1.0,-0.6471114,-0.7124148,0.046176467
alexnet_w1_mlp_simclrhn_probe1,1,108,NaN,bicycle,bicycle,c30,0108_cop_dnn_c30_bicycle_10_n03792782_2628.png,n03792782_2628.png,1.0,2.6990705,-1.181619,2.744062
alexnet_w1_mlp_simclrhn_probe1,1,109,NaN,knife,chair,c01,0109_cop_dnn_c01_chair_10_n02791124_3204.png,n02791124_3204.png,0.0,-0.98088765,-0.47116548,-0.360428
alexnet_w1_mlp_simclrhn_probe1,1,110,NaN,clock,bottle,c03,0110_cop_dnn_c03_bottle_10_n04560804_722.png,n04560804_722.png,0.0,-0.4012732,-0.3605571,-0.028790617
alexnet_w1_mlp_simclrhn_probe1,1,111,NaN,bicycle,bicycle,c30,0111_cop_dnn_c30_bicycle_10_n03792782_8847.png,n03792782_8847.png,1.0,0.55742323,-1.0991167,1.1713506
alexnet_w1_mlp_simclrhn_probe1,1,112,NaN,bear,bear,c50,0112_cop_dnn_c50_bear_10_n02132136_1132.png,n02132136_1132.png,1.0,0.5149904,0.14266878,0.26327112
alexnet_w1_mlp_simclrhn_probe1,1,113,NaN,knife,knife,c50,0113_cop_dnn_c50_knife_10_n03041632_6557.png,n03041632_6557.png,1.0,-1.0135744,-1.4991909,0.34338278
alexnet_w1_mlp_simclrhn_probe1,1,114,NaN,oven,knife,c100,0114_cop_dnn_c100_knife_10_n03041632_35116.png,n03041632_35116.png,0.0,-0.5039569,0.7715797,-0.9019405
alexnet_w1_mlp_simclrhn_probe1,1,115,NaN,car,car,c15,0115_cop_dnn_c15_car_10_n02814533_3117.png,n02814533_3117.png,1.0,0.10944298,0.07039455,0.027611407
alexnet_w1_mlp_simclrhn_probe1,1,116,NaN,bird,bird,c15,0116_cop_dnn_c15_bird_10_n02009229_4224.png,n02009229_4224.png,1.0,-1.0712745,-1.4627669,0.27682692
alexnet_w1_mlp_simclrhn_probe1,1,117,NaN,bicycle,chair,c50,0117_cop_dnn_c50_chair_10_n03376595_9247.png,n03376595_9247.png,0.0,-0.8107151,-0.5048704,-0.21626484
alexnet_w1_mlp_simclrhn_probe1,1,118,NaN,airplane,boat,c01,0118_cop_dnn_c01_boat_10_n03662601_5639.png,n03662601_5639.png,0.0,-0.586417,-0.34472558,-0.17090166
alexnet_w1_mlp_simclrhn_probe1,1,119,NaN,airplane,bicycle,c10,0119_cop_dnn_c10_bicycle_10_n02835271_13437.png,n02835271_13437.png,0.0,-0.7093206,-0.24668853,-0.32713026
alexnet_w1_mlp_simclrhn_probe1,1,120,NaN,clock,bicycle,c05,0120_cop_dnn_c05_bicycle_10_n03792782_18294.png,n03792782_18294.png,0.0,-0.9235573,-0.8497486,-0.052190613
alexnet_w1_mlp_simclrhn_probe1,1,121,NaN,airplane,boat,c03,0121_cop_dnn_c03_boat_10_n02951358_10488.png,n02951358_10488.png,0.0,-0.265199,-0.25971273,-0.0038793858
alexnet_w1_mlp_simclrhn_probe1,1,122,NaN,bird,bird,c50,0122_cop_dnn_c50_bird_10_n01829413_14594.png,n01829413_14594.png,1.0,0.60518396,0.030379254,0.40644833
alexnet_w1_mlp_simclrhn_probe1,1,123,NaN,clock,clock,c100,0123_cop_dnn_c100_clock_10_n03196217_9197.png,n03196217_9197.png,1.0,0.9866953,0.1265178,0.6082374
alexnet_w1_mlp_simclrhn_probe1,1,124,NaN,boat,boat,c15,0124_cop_dnn_c15_boat_10_n03662601_1667.png,n03662601_1667.png,1.0,-0.25099766,-0.33311412,0.0580651
alexnet_w1_mlp_simclrhn_probe1,1,125,NaN,dog,dog,c50,0125_cop_dnn_c50_dog_10_n02092339_6946.png,n02092339_6946.png,1.0,-1.106206,-1.7217683,0.43526822
alexnet_w1_mlp_simclrhn_probe1,1,126,NaN,airplane,airplane,c05,0126_cop_dnn_c05_airplane_10_n02690373_1773.png,n02690373_1773.png,1.0,0.34210995,-0.71814144,0.7497109
alexnet_w1_mlp_simclrhn_probe1,1,127,NaN,oven,elephant,c50,0127_cop_dnn_c50_elephant_10_n02504013_4278.png,n02504013_4278.png,0.0,-2.522575,-0.70123434,-1.2878823
alexnet_w1_mlp_simclrhn_probe1,1,128,NaN,bird,bird,c100,0128_cop_dnn_c100_bird_10_n02025239_10194.png,n02025239_10194.png,1.0,2.088471,-4.794427,4.866944
alexnet_w1_mlp_simclrhn_probe1,1,129,NaN,oven,oven,c15,0129_cop_dnn_c15_oven_10_n04111531_1977.png,n04111531_1977.png,1.0,-0.06745052,-0.71587044,0.4585021
alexnet_w1_mlp_simclrhn_probe1,1,130,NaN,airplane,clock,c50,0130_cop_dnn_c50_clock_10_n02708093_616.png,n02708093_616.png,0.0,0.12155312,0.856519,-0.51969934
alexnet_w1_mlp_simclrhn_probe1,1,131,NaN,airplane,boat,c10,0131_cop_dnn_c10_boat_10_n04273569_10292.png,n04273569_10292.png,0.0,0.07368148,0.51669097,-0.313255
alexnet_w1_mlp_simclrhn_probe1,1,132,NaN,cat,cat,c50,0132_cop_dnn_c50_cat_10_n02123394_8592.png,n02123394_8592.png,1.0,2.5156062,0.2515384,1.6009376
alexnet_w1_mlp_simclrhn_probe1,1,133,NaN,knife,knife,c10,0133_cop_dnn_c10_knife_10_n03041632_16020.png,n03041632_16020.png,1.0,-0.61808336,-0.66652596,0.034254093
alexnet_w1_mlp_simclrhn_probe1,1,134,NaN,cat,cat,c30,0134_cop_dnn_c30_cat_10_n02123394_5466.png,n02123394_5466.png,1.0,1.1367017,-0.09611431,0.87173253
alexnet_w1_mlp_simclrhn_probe1,1,135,NaN,knife,elephant,c01,0135_cop_dnn_c01_elephant_10_n02504013_7351.png,n02504013_7351.png,0.0,-1.0446923,-0.6666865,-0.26729047
alexnet_w1_mlp_simclrhn_probe1,1,136,NaN,oven,oven,c50,0136_cop_dnn_c50_oven_10_n04111531_22388.png,n04111531_22388.png,1.0,-1.397364,-1.8110675,0.2925325
alexnet_w1_mlp_simclrhn_probe1,1,137,NaN,bottle,chair,c100,0137_cop_dnn_c100_chair_10_n04429376_6308.png,n04429376_6308.png,0.0,-1.538177,0.18906204,-1.2213424
alexnet_w1_mlp_simclrhn_probe1,1,138,NaN,car,car,c10,0138_cop_dnn_c10_car_10_n03100240_8443.png,n03100240_8443.png,1.0,2.1933308,0.9137102,0.9048284
alexnet_w1_mlp_simclrhn_probe1,1,139,NaN,car,car,c100,0139_cop_dnn_c100_car_10_n04285008_12446.png,n04285008_12446.png,1.0,5.5964165,1.7609904,2.712056
alexnet_w1_mlp_simclrhn_probe1,1,140,NaN,knife,keyboard,c01,0140_cop_dnn_c01_keyboard_10_n04505470_4440.png,n04505470_4440.png,0.0,-0.5427638,-0.31629905,-0.16013478
alexnet_w1_mlp_simclrhn_probe1,1,141,NaN,car,car,c10,0141_cop_dnn_c10_car_10_n04285008_10073.png,n04285008_10073.png,1.0,-0.14430976,-0.24047066,0.067996025
alexnet_w1_mlp_simclrhn_probe1,1,142,NaN,knife,bottle,c03,0142_cop_dnn_c03_bottle_10_n03983396_7378.png,n03983396_7378.png,0.0,-0.9119001,-0.6941328,-0.15398474
alexnet_w1_mlp_simclrhn_probe1,1,143,NaN,chair,chair,c15,0143_cop_dnn_c15_chair_10_n02791124_5706.png,n02791124_5706.png,1.0,-0.25721115,-0.4890022,0.16390103
alexnet_w1_mlp_simclrhn_probe1,1,144,NaN,cat,cat,c15,0144_cop_dnn_c15_cat_10_n02123045_11224.png,n02123045_11224.png,1.0,1.1641102,-0.28989235,1.0281351
alexnet_w1_mlp_simclrhn_probe1,1,145,NaN,chair,chair,c05,0145_cop_dnn_c05_chair_10_n03376595_8953.png,n03376595_8953.png,1.0,-0.22453415,-0.5415142,0.22413875
alexnet_w1_mlp_simclrhn_probe1,1,146,NaN,bicycle,bicycle,c50,0146_cop_dnn_c50_bicycle_10_n03792782_66048.png,n03792782_66048.png,1.0,3.7659416,-0.93212914,3.3220377
alexnet_w1_mlp_simclrhn_probe1,1,147,NaN,knife,dog,c01,0147_cop_dnn_c01_dog_10_n02104365_1123.png,n02104365_1123.png,0.0,-1.642947,-0.60293126,-0.73540217
alexnet_w1_mlp_simclrhn_probe1,1,148,NaN,knife,clock,c05,0148_cop_dnn_c05_clock_10_n03196217_3605.png,n03196217_3605.png,0.0,-0.18016692,-0.08698124,-0.06589223
alexnet_w1_mlp_simclrhn_probe1,1,149,NaN,knife,knife,c10,0149_cop_dnn_c10_knife_10_n03041632_14916.png,n03041632_14916.png,1.0,-0.38653737,-0.8728943,0.34390628
alexnet_w1_mlp_simclrhn_probe1,1,150,NaN,bear,bear,c10,0150_cop_dnn_c10_bear_10_n02132136_4101.png,n02132136_4101.png,1.0,0.2962024,-0.05135189,0.24575798
alexnet_w1_mlp_simclrhn_probe1,1,151,NaN,clock,clock,c01,0151_cop_dnn_c01_clock_10_n02708093_7929.png,n02708093_7929.png,1.0,-0.39296493,-0.74314374,0.24761382
alexnet_w1_mlp_simclrhn_probe1,1,152,NaN,chair,chair,c50,0152_cop_dnn_c50_chair_10_n02791124_7630.png,n02791124_7630.png,1.0,1.3363613,-1.0619811,1.6958842
alexnet_w1_mlp_simclrhn_probe1,1,153,NaN,clock,clock,c05,0153_cop_dnn_c05_clock_10_n02708093_3750.png,n02708093_3750.png,1.0,0.06191184,-0.9332983,0.70371985
alexnet_w1_mlp_simclrhn_probe1,1,154,NaN,airplane,bird,c01,0154_cop_dnn_c01_bird_10_n02037110_12288.png,n02037110_12288.png,0.0,-1.0123588,-0.58168256,-0.30453408
alexnet_w1_mlp_simclrhn_probe1,1,155,NaN,keyboard,keyboard,c05,0155_cop_dnn_c05_keyboard_10_n04505470_6080.png,n04505470_6080.png,1.0,0.5663463,0.06778868,0.35253346
alexnet_w1_mlp_simclrhn_probe1,1,156,NaN,keyboard,keyboard,c100,0156_cop_dnn_c100_keyboard_10_n03085013_19065.png,n03085013_19065.png,1.0,7.1031528,-0.47190616,5.3563757
alexnet_w1_mlp_simclrhn_probe1,1,157,NaN,cat,cat,c10,0157_cop_dnn_c10_cat_10_n02123159_4856.png,n02123159_4856.png,1.0,-0.42827916,-0.97051007,0.38341516
alexnet_w1_mlp_simclrhn_probe1,1,158,NaN,clock,chair,c01,0158_cop_dnn_c01_chair_10_n04099969_6913.png,n04099969_6913.png,0.0,-0.62613094,-0.2281121,-0.28144184
alexnet_w1_mlp_simclrhn_probe1,1,159,NaN,knife,knife,c30,0159_cop_dnn_c30_knife_10_n03041632_35764.png,n03041632_35764.png,1.0,-0.80459327,-1.1513743,0.24521126
alexnet_w1_mlp_simclrhn_probe1,1,160,NaN,car,truck,c30,0160_cop_dnn_c30_truck_10_n03796401_3012.png,n03796401_3012.png,0.0,2.7588747,2.8406246,-0.057805922
alexnet_w1_mlp_simclrhn_probe1,1,161,NaN,elephant,elephant,c10,0161_cop_dnn_c10_elephant_10_n02504013_3821.png,n02504013_3821.png,1.0,0.46210116,-0.8883109,0.9548856
alexnet_w1_mlp_simclrhn_probe1,1,162,NaN,truck,truck,c100,0162_cop_dnn_c100_truck_10_n03796401_3608.png,n03796401_3608.png,1.0,0.36536133,-0.5872261,0.67358106
alexnet_w1_mlp_simclrhn_probe1,1,163,NaN,chair,chair,c15,0163_cop_dnn_c15_chair_10_n04099969_13811.png,n04099969_13811.png,1.0,0.7895981,-0.7343936,1.0776249
alexnet_w1_mlp_simclrhn_probe1,1,164,NaN,bear,bear,c50,0164_cop_dnn_c50_bear_10_n02133161_4954.png,n02133161_4954.png,1.0,1.4288578,0.09075521,0.9461814
alexnet_w1_mlp_simclrhn_probe1,1,165,NaN,dog,dog,c15,0165_cop_dnn_c15_dog_10_n02085782_6792.png,n02085782_6792.png,1.0,0.20504332,-0.4842154,0.4873795
alexnet_w1_mlp_simclrhn_probe1,1,166,NaN,chair,oven,c05,0166_cop_dnn_c05_oven_10_n04111531_22886.png,n04111531_22886.png,0.0,-0.75297076,-0.5818377,-0.121009335
alexnet_w1_mlp_simclrhn_probe1,1,167,NaN,elephant,dog,c05,0167_cop_dnn_c05_dog_10_n02091831_510.png,n02091831_510.png,0.0,-1.290745,-0.755831,-0.37824133
alexnet_w1_mlp_simclrhn_probe1,1,168,NaN,cat,bear,c15,0168_cop_dnn_c15_bear_10_n02132136_11339.png,n02132136_11339.png,0.0,-0.22920625,-0.105303906,-0.08761219
alexnet_w1_mlp_simclrhn_probe1,1,169,NaN,keyboard,bottle,c15,0169_cop_dnn_c15_bottle_10_n04557648_2709.png,n04557648_2709.png,0.0,-0.74022967,0.27200443,-0.7157576
alexnet_w1_mlp_simclrhn_probe1,1,170,NaN,knife,keyboard,c03,0170_cop_dnn_c03_keyboard_10_n03085013_21447.png,n03085013_21447.png,0.0,-0.43313664,-0.41083673,-0.015768422
alexnet_w1_mlp_simclrhn_probe1,1,171,NaN,airplane,airplane,c30,0171_cop_dnn_c30_airplane_10_n02690373_7676.png,n02690373_7676.png,1.0,3.201973,0.97943723,1.57157
alexnet_w1_mlp_simclrhn_probe1,1,172,NaN,elephant,dog,c100,0172_cop_dnn_c100_dog_10_n02091831_4110.png,n02091831_4110.png,0.0,-2.454103,-0.6093191,-1.3044592
alexnet_w1_mlp_simclrhn_probe1,1,173,NaN,elephant,bird,c10,0173_cop_dnn_c10_bird_10_n02007558_16029.png,n02007558_16029.png,0.0,-0.79118824,-0.5392593,-0.17814066
alexnet_w1_mlp_simclrhn_probe1,1,174,NaN,oven,truck,c30,0174_cop_dnn_c30_truck_10_n03796401_15097.png,n03796401_15097.png,0.0,-1.189317,-0.8590473,-0.23353595
alexnet_w1_mlp_simclrhn_probe1,1,175,NaN,airplane,airplane,c30,0175_cop_dnn_c30_airplane_10_n02690373_7401.png,n02690373_7401.png,1.0,3.7928216,0.12975645,2.5901783
alexnet_w1_mlp_simclrhn_probe1,1,176,NaN,elephant,dog,c05,0176_cop_dnn_c05_dog_10_n02108422_4529.png,n02108422_4529.png,0.0,-0.7934222,-0.29911065,-0.34953108
alexnet_w1_mlp_simclrhn_probe1,1,177,NaN,bear,bear,c10,0177_cop_dnn_c10_bear_10_n02132136_10514.png,n02132136_10514.png,1.0,-0.10486398,-0.1689916,0.04534507
alexnet_w1_mlp_simclrhn_probe1,1,178,NaN,airplane,airplane,c03,0178_cop_dnn_c03_airplane_10_n02690373_5524.png,n02690373_5524.png,1.0,-0.35585892,-0.5430304,0.1323502
alexnet_w1_mlp_simclrhn_probe1,1,179,NaN,chair,chair,c100,0179_cop_dnn_c100_chair_10_n04429376_5965.png,n04429376_5965.png,1.0,0.1583885,-0.41609654,0.40622228
alexnet_w1_mlp_simclrhn_probe1,1,180,NaN,airplane,airplane,c15,0180_cop_dnn_c15_airplane_10_n02690373_9712.png,n02690373_9712.png,1.0,1.1021867,-0.57994866,1.1894493
alexnet_w1_mlp_simclrhn_probe1,1,181,NaN,boat,boat,c30,0181_cop_dnn_c30_boat_10_n02951358_29825.png,n02951358_29825.png,1.0,0.92824286,0.27800468,0.45978782
alexnet_w1_mlp_simclrhn_probe1,1,182,NaN,keyboard,keyboard,c03,0182_cop_dnn_c03_keyboard_10_n04505470_4887.png,n04505470_4887.png,1.0,-0.21973138,-0.53161037,0.22053175
alexnet_w1_mlp_simclrhn_probe1,1,183,NaN,airplane,truck,c01,0183_cop_dnn_c01_truck_10_n04467665_32090.png,n04467665_32090.png,0.0,-1.5790875,-0.26313442,-0.93051934
alexnet_w1_mlp_simclrhn_probe1,1,184,NaN,bottle,chair,c05,0184_cop_dnn_c05_chair_10_n02791124_4296.png,n02791124_4296.png,0.0,-0.4003604,-0.23607238,-0.116169184
alexnet_w1_mlp_simclrhn_probe1,1,185,NaN,boat,boat,c30,0185_cop_dnn_c30_boat_10_n04612504_14669.png,n04612504_14669.png,1.0,0.2987467,-0.6440811,0.66668
alexnet_w1_mlp_simclrhn_probe1,1,186,NaN,airplane,airplane,c03,0186_cop_dnn_c03_airplane_10_n02690373_891.png,n02690373_891.png,1.0,0.3299006,-0.3623311,0.48948172
alexnet_w1_mlp_simclrhn_probe1,1,187,NaN,clock,clock,c100,0187_cop_dnn_c100_clock_10_n04548280_7539.png,n04548280_7539.png,1.0,0.65176636,0.091337934,0.39628276
alexnet_w1_mlp_simclrhn_probe1,1,188,NaN,bear,bear,c30,0188_cop_dnn_c30_bear_10_n02134418_4717.png,n02134418_4717.png,1.0,1.6787295,0.15336648,1.0785946
alexnet_w1_mlp_simclrhn_probe1,1,189,NaN,elephant,bird,c03,0189_cop_dnn_c03_bird_10_n02002724_13195.png,n02002724_13195.png,0.0,-0.75825876,-0.56495416,-0.136687
alexnet_w1_mlp_simclrhn_probe1,1,190,NaN,bottle,bottle,c10,0190_cop_dnn_c10_bottle_10_n03937543_2494.png,n03937543_2494.png,1.0,-0.6660287,-0.84114146,0.12382344
alexnet_w1_mlp_simclrhn_probe1,1,191,NaN,clock,clock,c30,0191_cop_dnn_c30_clock_10_n03196217_2307.png,n03196217_2307.png,1.0,1.1953808,-0.159432,0.9579974
alexnet_w1_mlp_simclrhn_probe1,1,192,NaN,bottle,clock,c15,0192_cop_dnn_c15_clock_10_n04548280_17907.png,n04548280_17907.png,0.0,-0.6056419,-0.54345495,-0.04397282
alexnet_w1_mlp_simclrhn_probe1,1,193,NaN,clock,chair,c03,0193_cop_dnn_c03_chair_10_n03376595_6540.png,n03376595_6540.png,0.0,-0.59679466,-0.26016727,-0.23803152
alexnet_w1_mlp_simclrhn_probe1,1,194,NaN,cat,cat,c30,0194_cop_dnn_c30_cat_10_n02123045_1484.png,n02123045_1484.png,1.0,0.26929793,-1.0880622,0.9597986
alexnet_w1_mlp_simclrhn_probe1,1,195,NaN,knife,knife,c03,0195_cop_dnn_c03_knife_10_n03041632_89912.png,n03041632_89912.png,1.0,-0.47854444,-0.49550134,0.011990336
alexnet_w1_mlp_simclrhn_probe1,1,196,NaN,bottle,bottle,c05,0196_cop_dnn_c05_bottle_10_n04591713_6975.png,n04591713_6975.png,1.0,0.6623791,-0.26171657,0.6534343
alexnet_w1_mlp_simclrhn_probe1,1,197,NaN,elephant,bird,c50,0197_cop_dnn_c50_bird_10_n01860187_810.png,n01860187_810.png,0.0,-1.0674152,-0.1975215,-0.6151078
alexnet_w1_mlp_simclrhn_probe1,1,198,NaN,knife,oven,c03,0198_cop_dnn_c03_oven_10_n04111531_5967.png,n04111531_5967.png,0.0,-1.3075212,-0.74635065,-0.39680752
alexnet_w1_mlp_simclrhn_probe1,1,199,NaN,airplane,boat,c15,0199_cop_dnn_c15_boat_10_n04612504_18954.png,n04612504_18954.png,0.0,0.67463624,0.811417,-0.09671859
alexnet_w1_mlp_simclrhn_probe1,1,200,NaN,bicycle,bicycle,c10,0200_cop_dnn_c10_bicycle_10_n03792782_68259.png,n03792782_68259.png,1.0,0.16414388,-0.8919808,0.7467929
alexnet_w1_mlp_simclrhn_probe1,1,201,NaN,airplane,car,c03,0201_cop_dnn_c03_car_10_n04285008_296.png,n04285008_296.png,0.0,-1.6537719,-0.4475066,-0.8529583
alexnet_w1_mlp_simclrhn_probe1,1,202,NaN,airplane,airplane,c03,0202_cop_dnn_c03_airplane_10_n02690373_12929.png,n02690373_12929.png,1.0,0.3897593,-0.62316793,0.7162478
alexnet_w1_mlp_simclrhn_probe1,1,203,NaN,airplane,boat,c01,0203_cop_dnn_c01_boat_10_n03344393_8761.png,n03344393_8761.png,0.0,-0.7701235,-0.32062778,-0.31784147
alexnet_w1_mlp_simclrhn_probe1,1,204,NaN,clock,clock,c30,0204_cop_dnn_c30_clock_10_n03196217_3877.png,n03196217_3877.png,1.0,0.6496491,0.04247749,0.42933515
alexnet_w1_mlp_simclrhn_probe1,1,205,NaN,cat,bear,c10,0205_cop_dnn_c10_bear_10_n02134084_1346.png,n02134084_1346.png,0.0,-0.47335106,0.03472325,-0.35926276
alexnet_w1_mlp_simclrhn_probe1,1,206,NaN,airplane,knife,c03,0206_cop_dnn_c03_knife_10_n03041632_48151.png,n03041632_48151.png,0.0,-0.42669788,-0.311302,-0.08159721
alexnet_w1_mlp_simclrhn_probe1,1,207,NaN,airplane,airplane,c50,0207_cop_dnn_c50_airplane_10_n02690373_3589.png,n02690373_3589.png,1.0,2.8324254,0.7083048,1.5019801
alexnet_w1_mlp_simclrhn_probe1,1,208,NaN,clock,bottle,c50,0208_cop_dnn_c50_bottle_10_n04560804_2942.png,n04560804_2942.png,0.0,-1.2219151,0.05705722,-0.90437007
alexnet_w1_mlp_simclrhn_probe1,1,209,NaN,keyboard,keyboard,c03,0209_cop_dnn_c03_keyboard_10_n04505470_5022.png,n04505470_5022.png,1.0,-0.14443514,-0.34577754,0.14237058
alexnet_w1_mlp_simclrhn_probe1,1,210,NaN,cat,dog,c10,0210_cop_dnn_c10_dog_10_n02096294_1043.png,n02096294_1043.png,0.0,-0.5874593,-0.3764874,-0.14917968
alexnet_w1_mlp_simclrhn_probe1,1,211,NaN,airplane,airplane,c50,0211_cop_dnn_c50_airplane_10_n02690373_1350.png,n02690373_1350.png,1.0,4.7358165,0.56213695,2.951237
alexnet_w1_mlp_simclrhn_probe1,1,212,NaN,chair,chair,c03,0212_cop_dnn_c03_chair_10_n04099969_27865.png,n04099969_27865.png,1.0,-0.5467169,-0.72274244,0.12446883
alexnet_w1_mlp_simclrhn_probe1,1,213,NaN,knife,oven,c01,0213_cop_dnn_c01_oven_10_n04111531_22120.png,n04111531_22120.png,0.0,-1.1476662,-0.44566268,-0.49639148
alexnet_w1_mlp_simclrhn_probe1,1,214,NaN,elephant,elephant,c50,0214_cop_dnn_c50_elephant_10_n02504458_5600.png,n02504458_5600.png,1.0,1.7796414,0.25174662,1.0803847
alexnet_w1_mlp_simclrhn_probe1,1,215,NaN,knife,cat,c03,0215_cop_dnn_c03_cat_10_n02123597_11138.png,n02123597_11138.png,0.0,-0.9898531,-0.5871556,-0.28475013
alexnet_w1_mlp_simclrhn_probe1,1,216,NaN,bear,cat,c30,0216_cop_dnn_c30_cat_10_n02125311_5717.png,n02125311_5717.png,0.0,-1.2792628,-0.46442202,-0.57617944
alexnet_w1_mlp_simclrhn_probe1,1,217,NaN,chair,chair,c15,0217_cop_dnn_c15_chair_10_n02791124_11404.png,n02791124_11404.png,1.0,-0.32391882,-0.7149706,0.27651536
alexnet_w1_mlp_simclrhn_probe1,1,218,NaN,cat,cat,c100,0218_cop_dnn_c100_cat_10_n02123394_2984.png,n02123394_2984.png,1.0,0.69411206,-0.22905196,0.6527755
alexnet_w1_mlp_simclrhn_probe1,1,219,NaN,airplane,dog,c10,0219_cop_dnn_c10_dog_10_n02087394_9693.png,n02087394_9693.png,0.0,-1.3280977,-0.53921306,-0.5578257
alexnet_w1_mlp_simclrhn_probe1,1,220,NaN,clock,dog,c01,0220_cop_dnn_c01_dog_10_n02098105_2086.png,n02098105_2086.png,0.0,-1.5949227,-0.8397739,-0.53397083
alexnet_w1_mlp_simclrhn_probe1,1,221,NaN,elephant,cat,c10,0221_cop_dnn_c10_cat_10_n02123159_6932.png,n02123159_6932.png,0.0,-0.45677897,-0.23968382,-0.15350945
alexnet_w1_mlp_simclrhn_probe1,1,222,NaN,car,car,c15,0222_cop_dnn_c15_car_10_n04285008_8323.png,n04285008_8323.png,1.0,1.0605258,1.0351698,0.017929355
alexnet_w1_mlp_simclrhn_probe1,1,223,NaN,clock,truck,c01,0223_cop_dnn_c01_truck_10_n03796401_2226.png,n03796401_2226.png,0.0,-1.3704877,-0.35163757,-0.7204358
alexnet_w1_mlp_simclrhn_probe1,1,224,NaN,elephant,bear,c05,0224_cop_dnn_c05_bear_10_n02134084_6223.png,n02134084_6223.png,0.0,-0.5820979,-0.20559742,-0.26622605
alexnet_w1_mlp_simclrhn_probe1,1,225,NaN,cat,cat,c05,0225_cop_dnn_c05_cat_10_n02125311_22459.png,n02125311_22459.png,1.0,-0.19386661,-0.7215846,0.373153
alexnet_w1_mlp_simclrhn_probe1,1,226,NaN,bicycle,bicycle,c10,0226_cop_dnn_c10_bicycle_10_n02835271_19143.png,n02835271_19143.png,1.0,0.040022433,-0.96345085,0.7095628
alexnet_w1_mlp_simclrhn_probe1,1,227,NaN,cat,cat,c10,0227_cop_dnn_c10_cat_10_n02123597_4357.png,n02123597_4357.png,1.0,0.16462824,-0.7974481,0.6802907
alexnet_w1_mlp_simclrhn_probe1,1,228,NaN,airplane,boat,c03,0228_cop_dnn_c03_boat_10_n04273569_6180.png,n04273569_6180.png,0.0,-0.454951,-0.2558157,-0.14080991
alexnet_w1_mlp_simclrhn_probe1,1,229,NaN,airplane,airplane,c100,0229_cop_dnn_c100_airplane_10_n02690373_139.png,n02690373_139.png,1.0,5.2404337,-0.40100497,3.9890995
alexnet_w1_mlp_simclrhn_probe1,1,230,NaN,elephant,bottle,c10,0230_cop_dnn_c10_bottle_10_n04557648_4165.png,n04557648_4165.png,0.0,-1.3050464,-0.59898764,-0.49925897
alexnet_w1_mlp_simclrhn_probe1,1,231,NaN,airplane,bottle,c50,0231_cop_dnn_c50_bottle_10_n04560804_5756.png,n04560804_5756.png,0.0,-1.382424,-0.15113635,-0.87065184
alexnet_w1_mlp_simclrhn_probe1,1,232,NaN,truck,truck,c15,0232_cop_dnn_c15_truck_10_n04467665_39477.png,n04467665_39477.png,1.0,2.3230038,1.7962586,0.3724651
alexnet_w1_mlp_simclrhn_probe1,1,233,NaN,knife,cat,c01,0233_cop_dnn_c01_cat_10_n02123159_386.png,n02123159_386.png,0.0,-0.92830235,-0.7039615,-0.15863295
alexnet_w1_mlp_simclrhn_probe1,1,234,NaN,cat,bear,c15,0234_cop_dnn_c15_bear_10_n02134084_4859.png,n02134084_4859.png,0.0,-0.22394702,0.030321984,-0.17979534
alexnet_w1_mlp_simclrhn_probe1,1,235,NaN,airplane,dog,c03,0235_cop_dnn_c03_dog_10_n02099429_1992.png,n02099429_1992.png,0.0,-1.4483764,-0.45853084,-0.69992656
alexnet_w1_mlp_simclrhn_probe1,1,236,NaN,bear,oven,c03,0236_cop_dnn_c03_oven_10_n04111531_584.png,n04111531_584.png,0.0,-1.4314699,-0.81468594,-0.43613213
alexnet_w1_mlp_simclrhn_probe1,1,237,NaN,knife,bottle,c05,0237_cop_dnn_c05_bottle_10_n04591713_4019.png,n04591713_4019.png,0.0,-0.5047247,-0.42229345,-0.05828768
alexnet_w1_mlp_simclrhn_probe1,1,238,NaN,bear,dog,c03,0238_cop_dnn_c03_dog_10_n02113712_4486.png,n02113712_4486.png,0.0,-1.1884797,-0.6275186,-0.39665937
alexnet_w1_mlp_simclrhn_probe1,1,239,NaN,clock,chair,c50,0239_cop_dnn_c50_chair_10_n03376595_13018.png,n03376595_13018.png,0.0,-3.406249,0.021782458,-2.4239843
alexnet_w1_mlp_simclrhn_probe1,1,240,NaN,oven,oven,c50,0240_cop_dnn_c50_oven_10_n04111531_7421.png,n04111531_7421.png,1.0,1.6913869,-1.6183418,2.3403316
alexnet_w1_mlp_simclrhn_probe1,1,241,NaN,clock,cat,c01,0241_cop_dnn_c01_cat_10_n02123045_10689.png,n02123045_10689.png,0.0,-1.1287061,-0.739386,-0.27529088
alexnet_w1_mlp_simclrhn_probe1,1,242,NaN,clock,clock,c05,0242_cop_dnn_c05_clock_10_n02708093_4391.png,n02708093_4391.png,1.0,-0.031020314,-0.46356997,0.3058588
alexnet_w1_mlp_simclrhn_probe1,1,243,NaN,clock,clock,c50,0243_cop_dnn_c50_clock_10_n02708093_3759.png,n02708093_3759.png,1.0,2.7458255,-0.116207145,2.0237627
alexnet_w1_mlp_simclrhn_probe1,1,244,NaN,elephant,elephant,c05,0244_cop_dnn_c05_elephant_10_n02504013_648.png,n02504013_648.png,1.0,-0.12680444,-0.622053,0.35019365
alexnet_w1_mlp_simclrhn_probe1,1,245,NaN,clock,bottle,c01,0245_cop_dnn_c01_bottle_10_n04591713_1879.png,n04591713_1879.png,0.0,-0.89081955,-0.7073396,-0.12973993
alexnet_w1_mlp_simclrhn_probe1,1,246,NaN,bird,dog,c01,0246_cop_dnn_c01_dog_10_n02110627_20194.png,n02110627_20194.png,0.0,-1.4603745,-0.80218655,-0.46540916
alexnet_w1_mlp_simclrhn_probe1,1,247,NaN,truck,truck,c50,0247_cop_dnn_c50_truck_10_n03796401_13298.png,n03796401_13298.png,1.0,2.144543,0.8417894,0.9211858
alexnet_w1_mlp_simclrhn_probe1,1,248,NaN,keyboard,chair,c100,0248_cop_dnn_c100_chair_10_n03376595_7824.png,n03376595_7824.png,0.0,-5.5973616,0.2738942,-4.151605
alexnet_w1_mlp_simclrhn_probe1,1,249,NaN,airplane,bear,c05,0249_cop_dnn_c05_bear_10_n02134418_6252.png,n02134418_6252.png,0.0,-1.0099598,-0.54333055,-0.3299567
alexnet_w1_mlp_simclrhn_probe1,1,250,NaN,bird,bird,c50,0250_cop_dnn_c50_bird_10_n01855032_1815.png,n01855032_1815.png,1.0,-1.4016103,-2.3618712,0.67900705
alexnet_w1_mlp_simclrhn_probe1,1,251,NaN,car,car,c100,0251_cop_dnn_c100_car_10_n03100240_6773.png,n03100240_6773.png,1.0,6.6325793,1.1017249,3.9109046
alexnet_w1_mlp_simclrhn_probe1,1,252,NaN,clock,keyboard,c03,0252_cop_dnn_c03_keyboard_10_n03085013_22438.png,n03085013_22438.png,0.0,-0.95768696,-0.3660777,-0.4183309
alexnet_w1_mlp_simclrhn_probe1,1,253,NaN,knife,keyboard,c01,0253_cop_dnn_c01_keyboard_10_n04505470_4950.png,n04505470_4950.png,0.0,-0.50552887,-0.24603362,-0.18349086
alexnet_w1_mlp_simclrhn_probe1,1,254,NaN,clock,truck,c03,0254_cop_dnn_c03_truck_10_n04467665_22358.png,n04467665_22358.png,0.0,-1.1158699,-0.2823594,-0.5893809
alexnet_w1_mlp_simclrhn_probe1,1,255,NaN,airplane,truck,c15,0255_cop_dnn_c15_truck_10_n04467665_67969.png,n04467665_67969.png,0.0,-1.2972448,0.2073976,-1.0639428
alexnet_w1_mlp_simclrhn_probe1,1,256,NaN,elephant,elephant,c10,0256_cop_dnn_c10_elephant_10_n02504013_2128.png,n02504013_2128.png,1.0,-0.044540897,-0.40629336,0.25579762
alexnet_w1_mlp_simclrhn_probe1,1,257,NaN,car,car,c30,0257_cop_dnn_c30_car_10_n03100240_3499.png,n03100240_3499.png,1.0,4.19712,2.7841783,0.99910086
alexnet_w1_mlp_simclrhn_probe1,1,258,NaN,bear,bear,c50,0258_cop_dnn_c50_bear_10_n02134084_7250.png,n02134084_7250.png,1.0,-0.0581851,-0.25577748,0.13971892
alexnet_w1_mlp_simclrhn_probe1,1,259,NaN,bicycle,bicycle,c15,0259_cop_dnn_c15_bicycle_10_n03792782_43279.png,n03792782_43279.png,1.0,-0.96943486,-1.0652732,0.06776792
alexnet_w1_mlp_simclrhn_probe1,1,260,NaN,cat,cat,c50,0260_cop_dnn_c50_cat_10_n02123045_1274.png,n02123045_1274.png,1.0,-0.4098535,-1.3312371,0.6515166
alexnet_w1_mlp_simclrhn_probe1,1,261,NaN,oven,oven,c100,0261_cop_dnn_c100_oven_10_n04111531_6567.png,n04111531_6567.png,1.0,5.0005903,-2.4803197,5.2898026
alexnet_w1_mlp_simclrhn_probe1,1,262,NaN,oven,knife,c100,0262_cop_dnn_c100_knife_10_n03041632_86338.png,n03041632_86338.png,0.0,-1.9849234,1.1823548,-2.239604
alexnet_w1_mlp_simclrhn_probe1,1,263,NaN,knife,chair,c15,0263_cop_dnn_c15_chair_10_n02791124_9757.png,n02791124_9757.png,0.0,-0.74740094,-0.40664122,-0.24095352
alexnet_w1_mlp_simclrhn_probe1,1,264,NaN,knife,knife,c15,0264_cop_dnn_c15_knife_10_n03041632_45090.png,n03041632_45090.png,1.0,0.32403517,-0.92938644,0.8863029
alexnet_w1_mlp_simclrhn_probe1,1,265,NaN,knife,bicycle,c01,0265_cop_dnn_c01_bicycle_10_n02835271_1436.png,n02835271_1436.png,0.0,-1.3340706,-0.5486922,-0.55534637
alexnet_w1_mlp_simclrhn_probe1,1,266,NaN,airplane,bird,c03,0266_cop_dnn_c03_bird_10_n01798484_8189.png,n01798484_8189.png,0.0,-0.79003674,-0.41554326,-0.2648069
alexnet_w1_mlp_simclrhn_probe1,1,267,NaN,knife,bird,c15,0267_cop_dnn_c15_bird_10_n01819313_1282.png,n01819313_1282.png,0.0,-1.1211498,-0.6505487,-0.33276522
alexnet_w1_mlp_simclrhn_probe1,1,268,NaN,bottle,bottle,c100,0268_cop_dnn_c100_bottle_10_n03983396_11519.png,n03983396_11519.png,1.0,4.402789,-0.63706255,3.5637133
alexnet_w1_mlp_simclrhn_probe1,1,269,NaN,airplane,boat,c05,0269_cop_dnn_c05_boat_10_n03344393_7735.png,n03344393_7735.png,0.0,0.030468643,0.05361401,-0.016366245
alexnet_w1_mlp_simclrhn_probe1,1,270,NaN,bottle,bottle,c05,0270_cop_dnn_c05_bottle_10_n04560804_21795.png,n04560804_21795.png,1.0,-0.118911095,-0.5932028,0.33537492
alexnet_w1_mlp_simclrhn_probe1,1,271,NaN,chair,chair,c30,0271_cop_dnn_c30_chair_10_n02791124_4109.png,n02791124_4109.png,1.0,0.43988985,0.05031853,0.27546853
alexnet_w1_mlp_simclrhn_probe1,1,272,NaN,keyboard,keyboard,c03,0272_cop_dnn_c03_keyboard_10_n04505470_9663.png,n04505470_9663.png,1.0,-0.30917537,-0.5028923,0.13697857
alexnet_w1_mlp_simclrhn_probe1,1,273,NaN,knife,knife,c15,0273_cop_dnn_c15_knife_10_n03041632_27709.png,n03041632_27709.png,1.0,-0.097141154,-0.857843,0.5378974
alexnet_w1_mlp_simclrhn_probe1,1,274,NaN,airplane,airplane,c50,0274_cop_dnn_c50_airplane_10_n02690373_8539.png,n02690373_8539.png,1.0,1.1708826,-0.8195855,1.4074734
alexnet_w1_mlp_simclrhn_probe1,1,275,NaN,bear,bear,c15,0275_cop_dnn_c15_bear_10_n02134418_2175.png,n02134418_2175.png,1.0,0.31030053,-0.18227763,0.34830534
alexnet_w1_mlp_simclrhn_probe1,1,276,NaN,elephant,elephant,c50,0276_cop_dnn_c50_elephant_10_n02504458_2875.png,n02504458_2875.png,1.0,4.186721,-1.0151076,3.6782482
alexnet_w1_mlp_simclrhn_probe1,1,277,NaN,clock,chair,c03,0277_cop_dnn_c03_chair_10_n02791124_5868.png,n02791124_5868.png,0.0,-0.70457214,-0.4526751,-0.17811811
alexnet_w1_mlp_simclrhn_probe1,1,278,NaN,cat,cat,c10,0278_cop_dnn_c10_cat_10_n02123597_488.png,n02123597_488.png,1.0,-0.21450138,-1.0043674,0.5585196
alexnet_w1_mlp_simclrhn_probe1,1,279,NaN,bicycle,oven,c30,0279_cop_dnn_c30_oven_10_n04111531_6500.png,n04111531_6500.png,0.0,-1.1445549,-0.18342873,-0.6796188
alexnet_w1_mlp_simclrhn_probe1,1,280,NaN,bicycle,bicycle,c15,0280_cop_dnn_c15_bicycle_10_n03792782_13002.png,n03792782_13002.png,1.0,0.5835452,-1.067392,1.1673889
alexnet_w1_mlp_simclrhn_probe1,1,281,NaN,clock,clock,c05,0281_cop_dnn_c05_clock_10_n03196217_10641.png,n03196217_10641.png,1.0,0.3228589,-0.25862482,0.41117108
alexnet_w1_mlp_simclrhn_probe1,1,282,NaN,bicycle,bicycle,c15,0282_cop_dnn_c15_bicycle_10_n03792782_20193.png,n03792782_20193.png,1.0,2.462296,-0.30665812,1.9579462
alexnet_w1_mlp_simclrhn_probe1,1,283,NaN,clock,truck,c05,0283_cop_dnn_c05_truck_10_n03417042_13806.png,n03417042_13806.png,0.0,-0.45731908,-0.2501432,-0.14649548
alexnet_w1_mlp_simclrhn_probe1,1,284,NaN,chair,truck,c05,0284_cop_dnn_c05_truck_10_n04467665_70237.png,n04467665_70237.png,0.0,-1.269959,-0.69551444,-0.40619364
alexnet_w1_mlp_simclrhn_probe1,1,285,NaN,clock,truck,c01,0285_cop_dnn_c01_truck_10_n04467665_3720.png,n04467665_3720.png,0.0,-1.9198068,-0.45501354,-1.0357653
alexnet_w1_mlp_simclrhn_probe1,1,286,NaN,bear,bear,c10,0286_cop_dnn_c10_bear_10_n02132136_8975.png,n02132136_8975.png,1.0,1.0056746,0.63794005,0.2600276
alexnet_w1_mlp_simclrhn_probe1,1,287,NaN,cat,knife,c05,0287_cop_dnn_c05_knife_10_n03041632_18859.png,n03041632_18859.png,0.0,-0.8981966,-0.66877985,-0.16222213
alexnet_w1_mlp_simclrhn_probe1,1,288,NaN,elephant,bear,c50,0288_cop_dnn_c50_bear_10_n02132136_29760.png,n02132136_29760.png,0.0,0.1269379,1.3969553,-0.8980379
alexnet_w1_mlp_simclrhn_probe1,1,289,NaN,airplane,boat,c05,0289_cop_dnn_c05_boat_10_n04273569_6586.png,n04273569_6586.png,0.0,-0.3974041,-0.0775213,-0.22619131
alexnet_w1_mlp_simclrhn_probe1,1,290,NaN,bottle,bottle,c05,0290_cop_dnn_c05_bottle_10_n03983396_11137.png,n03983396_11137.png,1.0,-0.37032437,-0.39065793,0.014377997
alexnet_w1_mlp_simclrhn_probe1,1,291,NaN,airplane,clock,c10,0291_cop_dnn_c10_clock_10_n03196217_4232.png,n03196217_4232.png,0.0,-0.26159027,-0.016133403,-0.17356423
alexnet_w1_mlp_simclrhn_probe1,1,292,NaN,airplane,clock,c01,0292_cop_dnn_c01_clock_10_n04548280_1325.png,n04548280_1325.png,0.0,-0.7030408,-0.4372874,-0.18791603
alexnet_w1_mlp_simclrhn_probe1,1,293,NaN,airplane,airplane,c100,0293_cop_dnn_c100_airplane_10_n02690373_2268.png,n02690373_2268.png,1.0,6.5022726,0.83702564,4.0059347
alexnet_w1_mlp_simclrhn_probe1,1,294,NaN,bicycle,bicycle,c10,0294_cop_dnn_c10_bicycle_10_n03792782_14557.png,n03792782_14557.png,1.0,-0.73891807,-0.7498397,0.007722778
alexnet_w1_mlp_simclrhn_probe1,1,295,NaN,clock,cat,c01,0295_cop_dnn_c01_cat_10_n02124075_13792.png,n02124075_13792.png,0.0,-1.1288841,-0.62095636,-0.35915914
alexnet_w1_mlp_simclrhn_probe1,1,296,NaN,clock,dog,c01,0296_cop_dnn_c01_dog_10_n02110185_14953.png,n02110185_14953.png,0.0,-1.5823146,-0.71827644,-0.6109673
alexnet_w1_mlp_simclrhn_probe1,1,297,NaN,bottle,bottle,c15,0297_cop_dnn_c15_bottle_10_n04557648_1634.png,n04557648_1634.png,1.0,-0.43212774,-0.70760375,0.19479096
alexnet_w1_mlp_simclrhn_probe1,1,298,NaN,bicycle,bicycle,c50,0298_cop_dnn_c50_bicycle_10_n02835271_1701.png,n02835271_1701.png,1.0,1.6934903,-1.870178,2.5198941
alexnet_w1_mlp_simclrhn_probe1,1,299,NaN,boat,boat,c05,0299_cop_dnn_c05_boat_10_n04273569_7312.png,n04273569_7312.png,1.0,-0.08278515,-0.23105273,0.104841
alexnet_w1_mlp_simclrhn_probe1,1,300,NaN,bird,bird,c100,0300_cop_dnn_c100_bird_10_n01616318_5417.png,n01616318_5417.png,1.0,-0.0061174994,-1.0224221,0.7186359
alexnet_w1_mlp_simclrhn_probe1,1,301,NaN,cat,cat,c15,0301_cop_dnn_c15_cat_10_n02123045_12200.png,n02123045_12200.png,1.0,1.3557863,-1.4293083,1.9693594
alexnet_w1_mlp_simclrhn_probe1,1,302,NaN,elephant,dog,c30,0302_cop_dnn_c30_dog_10_n02102480_8264.png,n02102480_8264.png,0.0,-0.6396656,-0.4296145,-0.14852855
alexnet_w1_mlp_simclrhn_probe1,1,303,NaN,bicycle,bicycle,c30,0303_cop_dnn_c30_bicycle_10_n03792782_5426.png,n03792782_5426.png,1.0,0.49718618,-1.5317574,1.4346797
alexnet_w1_mlp_simclrhn_probe1,1,304,NaN,bottle,clock,c05,0304_cop_dnn_c05_clock_10_n02708093_8038.png,n02708093_8038.png,0.0,-0.49328104,-0.26878878,-0.15874
alexnet_w1_mlp_simclrhn_probe1,1,305,NaN,bicycle,bicycle,c30,0305_cop_dnn_c30_bicycle_10_n02835271_2764.png,n02835271_2764.png,1.0,2.0098186,-0.60830283,1.8512914
alexnet_w1_mlp_simclrhn_probe1,1,306,NaN,knife,knife,c50,0306_cop_dnn_c50_knife_10_n03041632_39836.png,n03041632_39836.png,1.0,1.1231244,-0.6709938,1.2686331
alexnet_w1_mlp_simclrhn_probe1,1,307,NaN,knife,bicycle,c01,0307_cop_dnn_c01_bicycle_10_n03792782_19040.png,n03792782_19040.png,0.0,-1.3106681,-0.5905105,-0.50922835
alexnet_w1_mlp_simclrhn_probe1,1,308,NaN,knife,cat,c01,0308_cop_dnn_c01_cat_10_n02125311_28331.png,n02125311_28331.png,0.0,-1.0210125,-0.6400505,-0.26938087
alexnet_w1_mlp_simclrhn_probe1,1,309,NaN,clock,knife,c01,0309_cop_dnn_c01_knife_10_n03041632_18126.png,n03041632_18126.png,0.0,-0.50570023,-0.3569554,-0.105178475
alexnet_w1_mlp_simclrhn_probe1,1,310,NaN,bicycle,bicycle,c30,0310_cop_dnn_c30_bicycle_10_n03792782_19253.png,n03792782_19253.png,1.0,1.2066483,-0.5640874,1.2520993
alexnet_w1_mlp_simclrhn_probe1,1,311,NaN,knife,bottle,c01,0311_cop_dnn_c01_bottle_10_n03983396_751.png,n03983396_751.png,0.0,-0.72728294,-0.4946431,-0.16450122
alexnet_w1_mlp_simclrhn_probe1,1,312,NaN,car,car,c15,0312_cop_dnn_c15_car_10_n04285008_628.png,n04285008_628.png,1.0,1.4065781,0.5055222,0.6371427
alexnet_w1_mlp_simclrhn_probe1,1,313,NaN,chair,boat,c15,0313_cop_dnn_c15_boat_10_n03662601_3011.png,n03662601_3011.png,0.0,-0.9622321,-0.06346522,-0.63552415
alexnet_w1_mlp_simclrhn_probe1,1,314,NaN,clock,bottle,c10,0314_cop_dnn_c10_bottle_10_n04557648_2904.png,n04557648_2904.png,0.0,-0.356189,-0.24292529,-0.08008955
alexnet_w1_mlp_simclrhn_probe1,1,315,NaN,bird,bird,c10,0315_cop_dnn_c10_bird_10_n02002556_9804.png,n02002556_9804.png,1.0,-0.35370526,-0.61808014,0.18694128
alexnet_w1_mlp_simclrhn_probe1,1,316,NaN,clock,truck,c05,0316_cop_dnn_c05_truck_10_n04467665_8955.png,n04467665_8955.png,0.0,-0.9578239,-0.20751584,-0.5305479
alexnet_w1_mlp_simclrhn_probe1,1,317,NaN,boat,boat,c03,0317_cop_dnn_c03_boat_10_n04612504_15061.png,n04612504_15061.png,1.0,-0.37472633,-0.4611811,0.061132763
alexnet_w1_mlp_simclrhn_probe1,1,318,NaN,airplane,bird,c05,0318_cop_dnn_c05_bird_10_n02002556_1437.png,n02002556_1437.png,0.0,-0.73972785,-0.6741184,-0.04639289
alexnet_w1_mlp_simclrhn_probe1,1,319,NaN,car,truck,c50,0319_cop_dnn_c50_truck_10_n03417042_10993.png,n03417042_10993.png,0.0,-1.9394464,-0.048038486,-1.3374274
alexnet_w1_mlp_simclrhn_probe1,1,320,NaN,airplane,chair,c10,0320_cop_dnn_c10_chair_10_n02791124_880.png,n02791124_880.png,0.0,-0.39643824,0.069097795,-0.3291837
alexnet_w1_mlp_simclrhn_probe1,1,321,NaN,bicycle,bicycle,c50,0321_cop_dnn_c50_bicycle_10_n03792782_4826.png,n03792782_4826.png,1.0,2.8788896,1.4886125,0.9830743
alexnet_w1_mlp_simclrhn_probe1,1,322,NaN,chair,chair,c03,0322_cop_dnn_c03_chair_10_n04099969_3804.png,n04099969_3804.png,1.0,-0.5785476,-0.6294106,0.03596559
alexnet_w1_mlp_simclrhn_probe1,1,323,NaN,bottle,bottle,c10,0323_cop_dnn_c10_bottle_10_n02823428_2504.png,n02823428_2504.png,1.0,1.336551,-0.29394782,1.1529367
alexnet_w1_mlp_simclrhn_probe1,1,324,NaN,cat,cat,c10,0324_cop_dnn_c10_cat_10_n02124075_9716.png,n02124075_9716.png,1.0,0.25504127,-0.26422644,0.3671777
alexnet_w1_mlp_simclrhn_probe1,1,325,NaN,clock,knife,c01,0325_cop_dnn_c01_knife_10_n03041632_81630.png,n03041632_81630.png,0.0,-0.7083201,-0.5476889,-0.1135834
alexnet_w1_mlp_simclrhn_probe1,1,326,NaN,bottle,bottle,c30,0326_cop_dnn_c30_bottle_10_n04591713_457.png,n04591713_457.png,1.0,0.6798849,0.3648406,0.22276998
alexnet_w1_mlp_simclrhn_probe1,1,327,NaN,elephant,elephant,c30,0327_cop_dnn_c30_elephant_10_n02504458_5337.png,n02504458_5337.png,1.0,0.0030686036,-0.64955103,0.4614718
alexnet_w1_mlp_simclrhn_probe1,1,328,NaN,clock,clock,c15,0328_cop_dnn_c15_clock_10_n02708093_5429.png,n02708093_5429.png,1.0,0.7248582,-0.17053114,0.6331359
alexnet_w1_mlp_simclrhn_probe1,1,329,NaN,keyboard,oven,c100,0329_cop_dnn_c100_oven_10_n04111531_9411.png,n04111531_9411.png,0.0,-0.84745497,-0.57074046,-0.1956667
alexnet_w1_mlp_simclrhn_probe1,1,330,NaN,airplane,knife,c01,0330_cop_dnn_c01_knife_10_n03041632_2338.png,n03041632_2338.png,0.0,-0.34491968,-0.32065493,-0.01715777
alexnet_w1_mlp_simclrhn_probe1,1,331,NaN,cat,cat,c100,0331_cop_dnn_c100_cat_10_n02123394_2755.png,n02123394_2755.png,1.0,0.79040784,-0.29346192,0.7664116
alexnet_w1_mlp_simclrhn_probe1,1,332,NaN,elephant,elephant,c05,0332_cop_dnn_c05_elephant_10_n02504458_10243.png,n02504458_10243.png,1.0,-0.1528041,-0.3853635,0.16444431
alexnet_w1_mlp_simclrhn_probe1,1,333,NaN,oven,oven,c15,0333_cop_dnn_c15_oven_10_n04111531_1752.png,n04111531_1752.png,1.0,-0.19937448,-0.5646116,0.25826165
alexnet_w1_mlp_simclrhn_probe1,1,334,NaN,airplane,bird,c05,0334_cop_dnn_c05_bird_10_n02037110_6736.png,n02037110_6736.png,0.0,-0.32176518,-0.3085036,-0.009377358
alexnet_w1_mlp_simclrhn_probe1,1,335,NaN,airplane,airplane,c10,0335_cop_dnn_c10_airplane_10_n02690373_8804.png,n02690373_8804.png,1.0,1.3831177,-0.22669764,1.1383114
alexnet_w1_mlp_simclrhn_probe1,1,336,NaN,elephant,elephant,c100,0336_cop_dnn_c100_elephant_10_n02504458_12217.png,n02504458_12217.png,1.0,1.663602,-0.0077135265,1.1817986
alexnet_w1_mlp_simclrhn_probe1,1,337,NaN,chair,knife,c15,0337_cop_dnn_c15_knife_10_n03041632_84012.png,n03041632_84012.png,0.0,-1.154186,-0.8605058,-0.20766325
alexnet_w1_mlp_simclrhn_probe1,1,338,NaN,cat,dog,c50,0338_cop_dnn_c50_dog_10_n02093991_6192.png,n02093991_6192.png,0.0,-0.15773776,1.3189769,-1.0441949
alexnet_w1_mlp_simclrhn_probe1,1,339,NaN,bird,bird,c50,0339_cop_dnn_c50_bird_10_n02027492_6499.png,n02027492_6499.png,1.0,0.6116931,-3.217833,2.707884
alexnet_w1_mlp_simclrhn_probe1,1,340,NaN,clock,knife,c10,0340_cop_dnn_c10_knife_10_n03041632_46185.png,n03041632_46185.png,0.0,-0.4115537,-0.076940395,-0.23660736
alexnet_w1_mlp_simclrhn_probe1,1,341,NaN,boat,bear,c30,0341_cop_dnn_c30_bear_10_n02134084_14775.png,n02134084_14775.png,0.0,-0.6708803,0.41250086,-0.7660662
alexnet_w1_mlp_simclrhn_probe1,1,342,NaN,truck,truck,c30,0342_cop_dnn_c30_truck_10_n03417042_5346.png,n03417042_5346.png,1.0,2.2440429,0.65750116,1.1218544
alexnet_w1_mlp_simclrhn_probe1,1,343,NaN,cat,dog,c30,0343_cop_dnn_c30_dog_10_n02093991_9672.png,n02093991_9672.png,0.0,-0.75320506,0.3551422,-0.7837199
alexnet_w1_mlp_simclrhn_probe1,1,344,NaN,elephant,elephant,c100,0344_cop_dnn_c100_elephant_10_n02504458_2031.png,n02504458_2031.png,1.0,9.820694,1.3311565,6.0030093
alexnet_w1_mlp_simclrhn_probe1,1,345,NaN,bird,bird,c03,0345_cop_dnn_c03_bird_10_n02025239_660.png,n02025239_660.png,1.0,-0.6635521,-0.73156595,0.048093054
alexnet_w1_mlp_simclrhn_probe1,1,346,NaN,airplane,elephant,c01,0346_cop_dnn_c01_elephant_10_n02504458_4244.png,n02504458_4244.png,0.0,-0.83809197,-0.5267062,-0.22018299
alexnet_w1_mlp_simclrhn_probe1,1,347,NaN,elephant,elephant,c30,0347_cop_dnn_c30_elephant_10_n02504013_7539.png,n02504013_7539.png,1.0,0.20000868,0.021416128,0.126284
alexnet_w1_mlp_simclrhn_probe1,1,348,NaN,cat,bird,c03,0348_cop_dnn_c03_bird_10_n02002724_5876.png,n02002724_5876.png,0.0,-0.96663004,-0.7998335,-0.11794298
alexnet_w1_mlp_simclrhn_probe1,1,349,NaN,bird,bird,c10,0349_cop_dnn_c10_bird_10_n01532829_560.png,n01532829_560.png,1.0,-0.89105356,-1.0971806,0.14575383
alexnet_w1_mlp_simclrhn_probe1,1,350,NaN,boat,boat,c30,0350_cop_dnn_c30_boat_10_n04273569_1709.png,n04273569_1709.png,1.0,0.8996353,-1.013099,1.3525074
alexnet_w1_mlp_simclrhn_probe1,1,351,NaN,bicycle,bicycle,c50,0351_cop_dnn_c50_bicycle_10_n02835271_7958.png,n02835271_7958.png,1.0,-0.3195961,-1.513545,0.8442494
alexnet_w1_mlp_simclrhn_probe1,1,352,NaN,elephant,bear,c30,0352_cop_dnn_c30_bear_10_n02133161_12157.png,n02133161_12157.png,0.0,-0.23694599,0.41312814,-0.45967183
alexnet_w1_mlp_simclrhn_probe1,1,353,NaN,clock,chair,c01,0353_cop_dnn_c01_chair_10_n04099969_4577.png,n04099969_4577.png,0.0,-0.6454558,-0.5159052,-0.091606095
alexnet_w1_mlp_simclrhn_probe1,1,354,NaN,airplane,bicycle,c01,0354_cop_dnn_c01_bicycle_10_n02835271_10283.png,n02835271_10283.png,0.0,-1.4263769,-0.6476846,-0.55061865
alexnet_w1_mlp_simclrhn_probe1,1,355,NaN,car,truck,c100,0355_cop_dnn_c100_truck_10_n03417042_23815.png,n03417042_23815.png,0.0,-0.64300406,0.6390526,-0.906551
alexnet_w1_mlp_simclrhn_probe1,1,356,NaN,bear,bear,c03,0356_cop_dnn_c03_bear_10_n02133161_1059.png,n02133161_1059.png,1.0,-0.43848157,-0.61513996,0.12491635
alexnet_w1_mlp_simclrhn_probe1,1,357,NaN,knife,chair,c01,0357_cop_dnn_c01_chair_10_n02791124_5173.png,n02791124_5173.png,0.0,-0.4681214,-0.42826492,-0.028182797
alexnet_w1_mlp_simclrhn_probe1,1,358,NaN,bottle,bottle,c30,0358_cop_dnn_c30_bottle_10_n03983396_5545.png,n03983396_5545.png,1.0,0.17826615,-1.011064,0.84098345
alexnet_w1_mlp_simclrhn_probe1,1,359,NaN,airplane,airplane,c01,0359_cop_dnn_c01_airplane_10_n02690373_1797.png,n02690373_1797.png,1.0,-0.33347195,-0.48367566,0.10621006
alexnet_w1_mlp_simclrhn_probe1,1,360,NaN,knife,oven,c05,0360_cop_dnn_c05_oven_10_n04111531_6628.png,n04111531_6628.png,0.0,-1.4524186,-0.9199222,-0.3765318
alexnet_w1_mlp_simclrhn_probe1,1,361,NaN,elephant,elephant,c10,0361_cop_dnn_c10_elephant_10_n02504458_7817.png,n02504458_7817.png,1.0,-0.53420717,-0.54046535,0.0044252085
alexnet_w1_mlp_simclrhn_probe1,1,362,NaN,knife,knife,c50,0362_cop_dnn_c50_knife_10_n03041632_4714.png,n03041632_4714.png,1.0,-0.91342044,-1.7836821,0.61536795
alexnet_w1_mlp_simclrhn_probe1,1,363,NaN,knife,bear,c03,0363_cop_dnn_c03_bear_10_n02134084_169.png,n02134084_169.png,0.0,-1.0947282,-0.5378193,-0.39379406
alexnet_w1_mlp_simclrhn_probe1,1,364,NaN,bird,bird,c15,0364_cop_dnn_c15_bird_10_n02013706_8336.png,n02013706_8336.png,1.0,0.5033888,-1.1899803,1.1973928
alexnet_w1_mlp_simclrhn_probe1,1,365,NaN,bottle,bottle,c15,0365_cop_dnn_c15_bottle_10_n04579145_6880.png,n04579145_6880.png,1.0,0.98351115,-0.06746333,0.7431512
alexnet_w1_mlp_simclrhn_probe1,1,366,NaN,cat,dog,c05,0366_cop_dnn_c05_dog_10_n02105641_416.png,n02105641_416.png,0.0,-0.7055344,-0.46178493,-0.1723569
alexnet_w1_mlp_simclrhn_probe1,1,367,NaN,airplane,airplane,c10,0367_cop_dnn_c10_airplane_10_n02690373_6549.png,n02690373_6549.png,1.0,-0.11761029,-0.6103315,0.3484065
alexnet_w1_mlp_simclrhn_probe1,1,368,NaN,clock,clock,c01,0368_cop_dnn_c01_clock_10_n04548280_2374.png,n04548280_2374.png,1.0,-0.20930822,-0.7742219,0.3994543
alexnet_w1_mlp_simclrhn_probe1,1,369,NaN,bottle,bottle,c30,0369_cop_dnn_c30_bottle_10_n03983396_6287.png,n03983396_6287.png,1.0,0.9741936,0.94894004,0.017856946
alexnet_w1_mlp_simclrhn_probe1,1,370,NaN,knife,dog,c01,0370_cop_dnn_c01_dog_10_n02090622_1126.png,n02090622_1126.png,0.0,-1.4997554,-0.7079019,-0.55992496
alexnet_w1_mlp_simclrhn_probe1,1,371,NaN,truck,truck,c50,0371_cop_dnn_c50_truck_10_n03796401_1681.png,n03796401_1681.png,1.0,4.0441265,3.368329,0.477861
alexnet_w1_mlp_simclrhn_probe1,1,372,NaN,elephant,elephant,c30,0372_cop_dnn_c30_elephant_10_n02504013_5537.png,n02504013_5537.png,1.0,3.4766662,-0.20547211,2.603665
alexnet_w1_mlp_simclrhn_probe1,1,373,NaN,keyboard,keyboard,c05,0373_cop_dnn_c05_keyboard_10_n03085013_12399.png,n03085013_12399.png,1.0,0.16014418,-0.080049634,0.16984268
alexnet_w1_mlp_simclrhn_probe1,1,374,NaN,bottle,oven,c15,0374_cop_dnn_c15_oven_10_n04111531_6094.png,n04111531_6094.png,0.0,-0.1731325,0.3620443,-0.37842715
alexnet_w1_mlp_simclrhn_probe1,1,375,NaN,airplane,airplane,c03,0375_cop_dnn_c03_airplane_10_n02690373_13604.png,n02690373_13604.png,1.0,0.15327805,-0.3547545,0.35923326
alexnet_w1_mlp_simclrhn_probe1,1,376,NaN,bear,bear,c100,0376_cop_dnn_c100_bear_10_n02134084_16084.png,n02134084_16084.png,1.0,3.1617239,2.205076,0.6764522
alexnet_w1_mlp_simclrhn_probe1,1,377,NaN,airplane,boat,c01,0377_cop_dnn_c01_boat_10_n04273569_15906.png,n04273569_15906.png,0.0,-0.6362756,-0.42160112,-0.15179777
alexnet_w1_mlp_simclrhn_probe1,1,378,NaN,cat,dog,c05,0378_cop_dnn_c05_dog_10_n02105162_8899.png,n02105162_8899.png,0.0,-0.91692483,-0.50802356,-0.28913686
alexnet_w1_mlp_simclrhn_probe1,1,379,NaN,bottle,oven,c03,0379_cop_dnn_c03_oven_10_n04111531_7619.png,n04111531_7619.png,0.0,-0.80128115,-0.77403575,-0.01926541
alexnet_w1_mlp_simclrhn_probe1,1,380,NaN,elephant,elephant,c05,0380_cop_dnn_c05_elephant_10_n02504458_1816.png,n02504458_1816.png,1.0,0.19643272,-0.6550726,0.6021052
alexnet_w1_mlp_simclrhn_probe1,1,381,NaN,cat,cat,c30,0381_cop_dnn_c30_cat_10_n02123045_3575.png,n02123045_3575.png,1.0,-0.22005914,-0.8691924,0.45900655
alexnet_w1_mlp_simclrhn_probe1,1,382,NaN,airplane,truck,c01,0382_cop_dnn_c01_truck_10_n03417042_908.png,n03417042_908.png,0.0,-1.86547,-0.52010095,-0.95131963
alexnet_w1_mlp_simclrhn_probe1,1,383,NaN,airplane,boat,c03,0383_cop_dnn_c03_boat_10_n03344393_4213.png,n03344393_4213.png,0.0,-0.102868184,0.1651958,-0.18954985
alexnet_w1_mlp_simclrhn_probe1,1,384,NaN,airplane,knife,c01,0384_cop_dnn_c01_knife_10_n03041632_31483.png,n03041632_31483.png,0.0,-0.42000163,-0.38623983,-0.023873197
alexnet_w1_mlp_simclrhn_probe1,1,385,NaN,clock,bottle,c01,0385_cop_dnn_c01_bottle_10_n03937543_986.png,n03937543_986.png,0.0,-0.8613392,-0.4952705,-0.25884968
alexnet_w1_mlp_simclrhn_probe1,1,386,NaN,truck,truck,c15,0386_cop_dnn_c15_truck_10_n03796401_7381.png,n03796401_7381.png,1.0,2.3476257,1.2564048,0.7716098
alexnet_w1_mlp_simclrhn_probe1,1,387,NaN,cat,dog,c03,0387_cop_dnn_c03_dog_10_n02094433_9787.png,n02094433_9787.png,0.0,-1.2340641,-0.57946163,-0.46287385
alexnet_w1_mlp_simclrhn_probe1,1,388,NaN,bird,bird,c30,0388_cop_dnn_c30_bird_10_n02011460_11838.png,n02011460_11838.png,1.0,-0.7278971,-1.5680792,0.5940985
alexnet_w1_mlp_simclrhn_probe1,1,389,NaN,cat,cat,c30,0389_cop_dnn_c30_cat_10_n02123597_29513.png,n02123597_29513.png,1.0,0.76604325,0.029098451,0.5210987
alexnet_w1_mlp_simclrhn_probe1,1,390,NaN,chair,chair,c10,0390_cop_dnn_c10_chair_10_n04429376_5337.png,n04429376_5337.png,1.0,-0.34381518,-0.71189857,0.26027426
alexnet_w1_mlp_simclrhn_probe1,1,391,NaN,knife,knife,c03,0391_cop_dnn_c03_knife_10_n03041632_4260.png,n03041632_4260.png,1.0,-0.37273785,-0.6366034,0.18658113
alexnet_w1_mlp_simclrhn_probe1,1,392,NaN,keyboard,keyboard,c10,0392_cop_dnn_c10_keyboard_10_n04505470_4061.png,n04505470_4061.png,1.0,0.1939148,-0.45449227,0.45849305
alexnet_w1_mlp_simclrhn_probe1,1,393,NaN,boat,boat,c15,0393_cop_dnn_c15_boat_10_n03344393_6467.png,n03344393_6467.png,1.0,0.6063334,0.19462821,0.29111952
alexnet_w1_mlp_simclrhn_probe1,1,394,NaN,bicycle,bicycle,c100,0394_cop_dnn_c100_bicycle_10_n03792782_11297.png,n03792782_11297.png,1.0,2.334536,-2.404302,3.3508646
alexnet_w1_mlp_simclrhn_probe1,1,395,NaN,elephant,bicycle,c03,0395_cop_dnn_c03_bicycle_10_n03792782_8357.png,n03792782_8357.png,0.0,-1.1499074,-0.78495514,-0.2580602
alexnet_w1_mlp_simclrhn_probe1,1,396,NaN,elephant,dog,c10,0396_cop_dnn_c10_dog_10_n02108422_2739.png,n02108422_2739.png,0.0,-1.2755009,-0.8352171,-0.31132764
alexnet_w1_mlp_simclrhn_probe1,1,397,NaN,knife,bear,c03,0397_cop_dnn_c03_bear_10_n02134084_6840.png,n02134084_6840.png,0.0,-0.9440594,-0.50558,-0.31005174
alexnet_w1_mlp_simclrhn_probe1,1,398,NaN,bear,bear,c30,0398_cop_dnn_c30_bear_10_n02133161_5365.png,n02133161_5365.png,1.0,0.32616645,0.29096472,0.024891382
alexnet_w1_mlp_simclrhn_probe1,1,399,NaN,bottle,bottle,c30,0399_cop_dnn_c30_bottle_10_n04560804_1010.png,n04560804_1010.png,1.0,-1.0108705,-1.1914082,0.12765944
alexnet_w1_mlp_simclrhn_probe1,1,400,NaN,clock,clock,c10,0400_cop_dnn_c10_clock_10_n04548280_183.png,n04548280_183.png,1.0,0.008271992,-0.2818372,0.20513818
alexnet_w1_mlp_simclrhn_probe1,1,401,NaN,keyboard,keyboard,c100,0401_cop_dnn_c100_keyboard_10_n03085013_21534.png,n03085013_21534.png,1.0,4.7661138,-1.749558,4.607276
alexnet_w1_mlp_simclrhn_probe1,1,402,NaN,chair,keyboard,c50,0402_cop_dnn_c50_keyboard_10_n03085013_24111.png,n03085013_24111.png,0.0,-0.8704606,0.75166684,-1.1470174
alexnet_w1_mlp_simclrhn_probe1,1,403,NaN,knife,knife,c15,0403_cop_dnn_c15_knife_10_n03041632_28009.png,n03041632_28009.png,1.0,-0.5003189,-0.82577693,0.2301336
alexnet_w1_mlp_simclrhn_probe1,1,404,NaN,cat,cat,c50,0404_cop_dnn_c50_cat_10_n02123159_7647.png,n02123159_7647.png,1.0,-0.4201242,-0.6784297,0.18264958
alexnet_w1_mlp_simclrhn_probe1,1,405,NaN,knife,bottle,c01,0405_cop_dnn_c01_bottle_10_n02823428_8696.png,n02823428_8696.png,0.0,-0.7178205,-0.30112806,-0.29464608
alexnet_w1_mlp_simclrhn_probe1,1,406,NaN,elephant,elephant,c15,0406_cop_dnn_c15_elephant_10_n02504458_8923.png,n02504458_8923.png,1.0,-0.042231366,-0.87130135,0.586241
alexnet_w1_mlp_simclrhn_probe1,1,407,NaN,airplane,bear,c01,0407_cop_dnn_c01_bear_10_n02134084_5031.png,n02134084_5031.png,0.0,-1.0804107,-0.5315827,-0.38808
alexnet_w1_mlp_simclrhn_probe1,1,408,NaN,elephant,dog,c50,0408_cop_dnn_c50_dog_10_n02097209_1658.png,n02097209_1658.png,0.0,-1.6837848,0.5968974,-1.6126859
alexnet_w1_mlp_simclrhn_probe1,1,409,NaN,elephant,dog,c05,0409_cop_dnn_c05_dog_10_n02099849_6384.png,n02099849_6384.png,0.0,-1.1082922,-0.3695482,-0.52237093
alexnet_w1_mlp_simclrhn_probe1,1,410,NaN,elephant,elephant,c15,0410_cop_dnn_c15_elephant_10_n02504013_3459.png,n02504013_3459.png,1.0,-0.0531686,-0.9190168,0.6122471
alexnet_w1_mlp_simclrhn_probe1,1,411,NaN,bottle,knife,c03,0411_cop_dnn_c03_knife_10_n03041632_36390.png,n03041632_36390.png,0.0,-0.66774297,-0.6342338,-0.023694579
alexnet_w1_mlp_simclrhn_probe1,1,412,NaN,knife,knife,c100,0412_cop_dnn_c100_knife_10_n03041632_10263.png,n03041632_10263.png,1.0,1.0269473,-2.9849696,2.8368537
alexnet_w1_mlp_simclrhn_probe1,1,413,NaN,cat,cat,c03,0413_cop_dnn_c03_cat_10_n02123045_840.png,n02123045_840.png,1.0,-0.04075111,-0.6115992,0.40365058
alexnet_w1_mlp_simclrhn_probe1,1,414,NaN,clock,clock,c05,0414_cop_dnn_c05_clock_10_n04548280_4758.png,n04548280_4758.png,1.0,0.28778094,-0.5511266,0.5931972
alexnet_w1_mlp_simclrhn_probe1,1,415,NaN,bear,bear,c50,0415_cop_dnn_c50_bear_10_n02133161_1247.png,n02133161_1247.png,1.0,0.91924644,-0.8133559,1.2251348
alexnet_w1_mlp_simclrhn_probe1,1,416,NaN,airplane,airplane,c10,0416_cop_dnn_c10_airplane_10_n02690373_6716.png,n02690373_6716.png,1.0,1.2231433,0.14319779,0.7636368
alexnet_w1_mlp_simclrhn_probe1,1,417,NaN,keyboard,keyboard,c30,0417_cop_dnn_c30_keyboard_10_n04505470_4893.png,n04505470_4893.png,1.0,1.1922998,-0.9000912,1.4795439
alexnet_w1_mlp_simclrhn_probe1,1,418,NaN,chair,chair,c30,0418_cop_dnn_c30_chair_10_n04099969_34525.png,n04099969_34525.png,1.0,0.8295395,-0.22313006,0.7443498
alexnet_w1_mlp_simclrhn_probe1,1,419,NaN,airplane,airplane,c01,0419_cop_dnn_c01_airplane_10_n02690373_4793.png,n02690373_4793.png,1.0,-0.32198003,-0.5533676,0.16361573
alexnet_w1_mlp_simclrhn_probe1,1,420,NaN,bottle,knife,c15,0420_cop_dnn_c15_knife_10_n03041632_4787.png,n03041632_4787.png,0.0,-0.7445831,-0.55691797,-0.13269927
alexnet_w1_mlp_simclrhn_probe1,1,421,NaN,airplane,boat,c05,0421_cop_dnn_c05_boat_10_n04273569_20587.png,n04273569_20587.png,0.0,-0.004708306,0.020531163,-0.017847
alexnet_w1_mlp_simclrhn_probe1,1,422,NaN,boat,bicycle,c03,0422_cop_dnn_c03_bicycle_10_n03792782_4844.png,n03792782_4844.png,0.0,-0.76240295,-0.4471271,-0.2229337
alexnet_w1_mlp_simclrhn_probe1,1,423,NaN,clock,cat,c01,0423_cop_dnn_c01_cat_10_n02123045_6066.png,n02123045_6066.png,0.0,-1.0505825,-0.721152,-0.23294257
alexnet_w1_mlp_simclrhn_probe1,1,424,NaN,boat,boat,c30,0424_cop_dnn_c30_boat_10_n04273569_17045.png,n04273569_17045.png,1.0,1.6139972,0.39366895,0.86290246
alexnet_w1_mlp_simclrhn_probe1,1,425,NaN,keyboard,keyboard,c100,0425_cop_dnn_c100_keyboard_10_n04505470_5068.png,n04505470_5068.png,1.0,9.87306,3.0625818,4.8157353
alexnet_w1_mlp_simclrhn_probe1,1,426,NaN,airplane,airplane,c10,0426_cop_dnn_c10_airplane_10_n02690373_2724.png,n02690373_2724.png,1.0,1.4166307,-0.5068017,1.3600721
alexnet_w1_mlp_simclrhn_probe1,1,427,NaN,boat,boat,c10,0427_cop_dnn_c10_boat_10_n03662601_4844.png,n03662601_4844.png,1.0,0.8336914,-0.38034403,0.85845274
alexnet_w1_mlp_simclrhn_probe1,1,428,NaN,chair,chair,c100,0428_cop_dnn_c100_chair_10_n04099969_3929.png,n04099969_3929.png,1.0,3.6447654,-2.0146055,4.0017796
alexnet_w1_mlp_simclrhn_probe1,1,429,NaN,chair,oven,c10,0429_cop_dnn_c10_oven_10_n04111531_9026.png,n04111531_9026.png,0.0,-0.08263349,-0.00770827,-0.05298013
alexnet_w1_mlp_simclrhn_probe1,1,430,NaN,knife,knife,c15,0430_cop_dnn_c15_knife_10_n03041632_51225.png,n03041632_51225.png,1.0,0.29491776,-0.13798285,0.30610695
alexnet_w1_mlp_simclrhn_probe1,1,431,NaN,chair,boat,c10,0431_cop_dnn_c10_boat_10_n03344393_6638.png,n03344393_6638.png,0.0,-1.2196113,-0.6773057,-0.38346797
alexnet_w1_mlp_simclrhn_probe1,1,432,NaN,knife,knife,c30,0432_cop_dnn_c30_knife_10_n03041632_4590.png,n03041632_4590.png,1.0,-0.18798763,-0.31338108,0.08866656
alexnet_w1_mlp_simclrhn_probe1,1,433,NaN,clock,clock,c03,0433_cop_dnn_c03_clock_10_n02708093_3761.png,n02708093_3761.png,1.0,-0.35191944,-0.74894506,0.28073952
alexnet_w1_mlp_simclrhn_probe1,1,434,NaN,clock,car,c03,0434_cop_dnn_c03_car_10_n04285008_3193.png,n04285008_3193.png,0.0,-1.9382629,-0.69936305,-0.87603456
alexnet_w1_mlp_simclrhn_probe1,1,435,NaN,knife,keyboard,c50,0435_cop_dnn_c50_keyboard_10_n03085013_661.png,n03085013_661.png,0.0,-2.8501253,-1.4525632,-0.9882257
alexnet_w1_mlp_simclrhn_probe1,1,436,NaN,knife,bottle,c03,0436_cop_dnn_c03_bottle_10_n04557648_2355.png,n04557648_2355.png,0.0,-0.9187873,-0.8240253,-0.06700687
alexnet_w1_mlp_simclrhn_probe1,1,437,NaN,airplane,dog,c30,0437_cop_dnn_c30_dog_10_n02107312_860.png,n02107312_860.png,0.0,-2.3998773,-0.571132,-1.2931182
alexnet_w1_mlp_simclrhn_probe1,1,438,NaN,boat,boat,c100,0438_cop_dnn_c100_boat_10_n02951358_1541.png,n02951358_1541.png,1.0,2.4647498,-2.2313735,3.3206606
alexnet_w1_mlp_simclrhn_probe1,1,439,NaN,boat,boat,c15,0439_cop_dnn_c15_boat_10_n02951358_4972.png,n02951358_4972.png,1.0,0.3617342,-0.11705728,0.3385567
alexnet_w1_mlp_simclrhn_probe1,1,440,NaN,bear,bear,c15,0440_cop_dnn_c15_bear_10_n02132136_6352.png,n02132136_6352.png,1.0,0.41523948,-0.2872999,0.49677038
alexnet_w1_mlp_simclrhn_probe1,1,441,NaN,knife,knife,c05,0441_cop_dnn_c05_knife_10_n03041632_27022.png,n03041632_27022.png,1.0,-0.29518402,-0.75787956,0.32717517
alexnet_w1_mlp_simclrhn_probe1,1,442,NaN,airplane,airplane,c15,0442_cop_dnn_c15_airplane_10_n02690373_10399.png,n02690373_10399.png,1.0,1.1801436,0.13044426,0.7422495
alexnet_w1_mlp_simclrhn_probe1,1,443,NaN,keyboard,keyboard,c30,0443_cop_dnn_c30_keyboard_10_n04505470_4803.png,n04505470_4803.png,1.0,-1.5081792,-2.5769365,0.75572556
alexnet_w1_mlp_simclrhn_probe1,1,444,NaN,bottle,bottle,c03,0444_cop_dnn_c03_bottle_10_n03937543_4916.png,n03937543_4916.png,1.0,0.11300797,-0.51115304,0.4413485
alexnet_w1_mlp_simclrhn_probe1,1,445,NaN,elephant,dog,c10,0445_cop_dnn_c10_dog_10_n02092339_2268.png,n02092339_2268.png,0.0,-0.7689573,-0.03266626,-0.5206364
alexnet_w1_mlp_simclrhn_probe1,1,446,NaN,cat,cat,c100,0446_cop_dnn_c100_cat_10_n02123394_2034.png,n02123394_2034.png,1.0,1.5294552,-1.0121326,1.797174
alexnet_w1_mlp_simclrhn_probe1,1,447,NaN,clock,keyboard,c01,0447_cop_dnn_c01_keyboard_10_n03085013_24442.png,n03085013_24442.png,0.0,-0.5648974,-0.25608,-0.21836689
alexnet_w1_mlp_simclrhn_probe1,1,448,NaN,airplane,bicycle,c03,0448_cop_dnn_c03_bicycle_10_n03792782_12908.png,n03792782_12908.png,0.0,-1.4372175,-0.511592,-0.6545161
alexnet_w1_mlp_simclrhn_probe1,1,449,NaN,cat,cat,c50,0449_cop_dnn_c50_cat_10_n02124075_10241.png,n02124075_10241.png,1.0,3.9311726,-0.41510874,3.073285
alexnet_w1_mlp_simclrhn_probe1,1,450,NaN,knife,keyboard,c03,0450_cop_dnn_c03_keyboard_10_n03085013_29941.png,n03085013_29941.png,0.0,-0.70242393,-0.3701067,-0.23498377
alexnet_w1_mlp_simclrhn_probe1,1,451,NaN,clock,car,c05,0451_cop_dnn_c05_car_10_n03100240_5718.png,n03100240_5718.png,0.0,-1.1403663,-0.2390811,-0.6373049
alexnet_w1_mlp_simclrhn_probe1,1,452,NaN,airplane,bear,c01,0452_cop_dnn_c01_bear_10_n02133161_789.png,n02133161_789.png,0.0,-0.9835346,-0.65729284,-0.23068774
alexnet_w1_mlp_simclrhn_probe1,1,453,NaN,chair,chair,c30,0453_cop_dnn_c30_chair_10_n04099969_9891.png,n04099969_9891.png,1.0,-0.040481098,-1.0767027,0.73271936
alexnet_w1_mlp_simclrhn_probe1,1,454,NaN,knife,knife,c01,0454_cop_dnn_c01_knife_10_n03041632_8666.png,n03041632_8666.png,1.0,-0.69831896,-0.7209008,0.015967755
alexnet_w1_mlp_simclrhn_probe1,1,455,NaN,clock,car,c10,0455_cop_dnn_c10_car_10_n03100240_52.png,n03100240_52.png,0.0,-0.6471703,-0.28465763,-0.25633517
alexnet_w1_mlp_simclrhn_probe1,1,456,NaN,bird,bird,c10,0456_cop_dnn_c10_bird_10_n02007558_45529.png,n02007558_45529.png,1.0,-0.7053138,-0.7195812,0.010088565
alexnet_w1_mlp_simclrhn_probe1,1,457,NaN,airplane,airplane,c15,0457_cop_dnn_c15_airplane_10_n02690373_1933.png,n02690373_1933.png,1.0,0.3120169,-0.13541639,0.31638312
alexnet_w1_mlp_simclrhn_probe1,1,458,NaN,airplane,elephant,c03,0458_cop_dnn_c03_elephant_10_n02504013_1879.png,n02504013_1879.png,0.0,-0.5137588,-0.28065738,-0.16482759
alexnet_w1_mlp_simclrhn_probe1,1,459,NaN,car,car,c10,0459_cop_dnn_c10_car_10_n03100240_3373.png,n03100240_3373.png,1.0,0.4458544,0.21402548,0.1639278
alexnet_w1_mlp_simclrhn_probe1,1,460,NaN,elephant,bicycle,c15,0460_cop_dnn_c15_bicycle_10_n03792782_7331.png,n03792782_7331.png,0.0,-1.3169372,-0.40699396,-0.643427
alexnet_w1_mlp_simclrhn_probe1,1,461,NaN,knife,chair,c100,0461_cop_dnn_c100_chair_10_n03376595_11049.png,n03376595_11049.png,0.0,-2.95857,-1.4025422,-1.1002778
alexnet_w1_mlp_simclrhn_probe1,1,462,NaN,knife,knife,c50,0462_cop_dnn_c50_knife_10_n03041632_37274.png,n03041632_37274.png,1.0,-0.5968337,-1.0101336,0.29224718
alexnet_w1_mlp_simclrhn_probe1,1,463,NaN,bottle,bottle,c15,0463_cop_dnn_c15_bottle_10_n02823428_780.png,n02823428_780.png,1.0,0.06782393,-0.7821317,0.60100937
alexnet_w1_mlp_simclrhn_probe1,1,464,NaN,cat,cat,c05,0464_cop_dnn_c05_cat_10_n02123045_390.png,n02123045_390.png,1.0,-0.9290908,-1.0049173,0.05361741
alexnet_w1_mlp_simclrhn_probe1,1,465,NaN,bird,bird,c30,0465_cop_dnn_c30_bird_10_n01796340_10024.png,n01796340_10024.png,1.0,-0.8063433,-0.95871687,0.10774437
alexnet_w1_mlp_simclrhn_probe1,1,466,NaN,knife,knife,c05,0466_cop_dnn_c05_knife_10_n03041632_13509.png,n03041632_13509.png,1.0,0.13300666,-0.08585907,0.15476143
alexnet_w1_mlp_simclrhn_probe1,1,467,NaN,airplane,bird,c05,0467_cop_dnn_c05_bird_10_n01534433_14198.png,n01534433_14198.png,0.0,-0.805644,-0.34513122,-0.3256317
alexnet_w1_mlp_simclrhn_probe1,1,468,NaN,truck,chair,c100,0468_cop_dnn_c100_chair_10_n04099969_2502.png,n04099969_2502.png,0.0,-1.0030901,0.4950434,-1.0593404
alexnet_w1_mlp_simclrhn_probe1,1,469,NaN,cat,cat,c05,0469_cop_dnn_c05_cat_10_n02123045_15474.png,n02123045_15474.png,1.0,-0.30563983,-0.8645229,0.39519003
alexnet_w1_mlp_simclrhn_probe1,1,470,NaN,clock,clock,c30,0470_cop_dnn_c30_clock_10_n02708093_442.png,n02708093_442.png,1.0,-0.064589106,-0.33574942,0.19173929
alexnet_w1_mlp_simclrhn_probe1,1,471,NaN,keyboard,boat,c100,0471_cop_dnn_c100_boat_10_n02951358_12663.png,n02951358_12663.png,0.0,-5.5896263,-0.06560403,-3.9060736
alexnet_w1_mlp_simclrhn_probe1,1,472,NaN,clock,cat,c05,0472_cop_dnn_c05_cat_10_n02125311_37322.png,n02125311_37322.png,0.0,-1.219419,-0.71490836,-0.3567429
alexnet_w1_mlp_simclrhn_probe1,1,473,NaN,bird,bird,c100,0473_cop_dnn_c100_bird_10_n01558993_5185.png,n01558993_5185.png,1.0,-2.4575624,-2.6382313,0.12775216
alexnet_w1_mlp_simclrhn_probe1,1,474,NaN,elephant,elephant,c100,0474_cop_dnn_c100_elephant_10_n02504013_7248.png,n02504013_7248.png,1.0,5.2373705,-0.7599823,4.240769
alexnet_w1_mlp_simclrhn_probe1,1,475,NaN,airplane,bottle,c01,0475_cop_dnn_c01_bottle_10_n02823428_4245.png,n02823428_4245.png,0.0,-0.86275834,-0.52073395,-0.24184777
alexnet_w1_mlp_simclrhn_probe1,1,476,NaN,chair,chair,c10,0476_cop_dnn_c10_chair_10_n04099969_8993.png,n04099969_8993.png,1.0,0.12408179,-0.7057229,0.5867606
alexnet_w1_mlp_simclrhn_probe1,1,477,NaN,dog,dog,c30,0477_cop_dnn_c30_dog_10_n02101388_8775.png,n02101388_8775.png,1.0,1.0593204,-0.76120865,1.2873085
alexnet_w1_mlp_simclrhn_probe1,1,478,NaN,clock,car,c01,0478_cop_dnn_c01_car_10_n02814533_3590.png,n02814533_3590.png,0.0,-2.0907834,-0.74728495,-0.9499969
alexnet_w1_mlp_simclrhn_probe1,1,479,NaN,elephant,elephant,c05,0479_cop_dnn_c05_elephant_10_n02504458_6018.png,n02504458_6018.png,1.0,0.26951116,-0.543403,0.5748171
alexnet_w1_mlp_simclrhn_probe1,1,480,NaN,keyboard,keyboard,c100,0480_cop_dnn_c100_keyboard_10_n03085013_11332.png,n03085013_11332.png,1.0,8.222576,0.79895324,5.2492943
alexnet_w1_mlp_simclrhn_probe1,1,481,NaN,oven,oven,c05,0481_cop_dnn_c05_oven_10_n04111531_6863.png,n04111531_6863.png,1.0,-0.687516,-0.7475929,0.042480823
alexnet_w1_mlp_simclrhn_probe1,1,482,NaN,airplane,airplane,c50,0482_cop_dnn_c50_airplane_10_n02690373_2675.png,n02690373_2675.png,1.0,1.318089,0.45897347,0.6074864
alexnet_w1_mlp_simclrhn_probe1,1,483,NaN,clock,dog,c01,0483_cop_dnn_c01_dog_10_n02106550_660.png,n02106550_660.png,0.0,-1.5588276,-0.5205375,-0.734182
alexnet_w1_mlp_simclrhn_probe1,1,484,NaN,knife,knife,c15,0484_cop_dnn_c15_knife_10_n03041632_11700.png,n03041632_11700.png,1.0,-0.07722378,-0.28800717,0.14904636
alexnet_w1_mlp_simclrhn_probe1,1,485,NaN,bird,bird,c15,0485_cop_dnn_c15_bird_10_n02009229_6149.png,n02009229_6149.png,1.0,-0.3144712,-1.4191631,0.7811352
alexnet_w1_mlp_simclrhn_probe1,1,486,NaN,keyboard,clock,c30,0486_cop_dnn_c30_clock_10_n03196217_3780.png,n03196217_3780.png,0.0,0.51809794,1.2099323,-0.4892008
alexnet_w1_mlp_simclrhn_probe1,1,487,NaN,bird,bird,c100,0487_cop_dnn_c100_bird_10_n01530575_34173.png,n01530575_34173.png,1.0,2.7875679,-4.9254484,5.4539266
alexnet_w1_mlp_simclrhn_probe1,1,488,NaN,bottle,bottle,c100,0488_cop_dnn_c100_bottle_10_n03983396_17803.png,n03983396_17803.png,1.0,7.4878507,-1.9103221,6.6455116
alexnet_w1_mlp_simclrhn_probe1,1,489,NaN,boat,oven,c05,0489_cop_dnn_c05_oven_10_n04111531_2156.png,n04111531_2156.png,0.0,-1.0680908,-0.5808972,-0.3444979
alexnet_w1_mlp_simclrhn_probe1,1,490,NaN,elephant,elephant,c10,0490_cop_dnn_c10_elephant_10_n02504013_14948.png,n02504013_14948.png,1.0,1.5148534,-0.5257845,1.4429489
alexnet_w1_mlp_simclrhn_probe1,1,491,NaN,knife,boat,c01,0491_cop_dnn_c01_boat_10_n04273569_3112.png,n04273569_3112.png,0.0,-0.72934175,-0.5140491,-0.15223488
alexnet_w1_mlp_simclrhn_probe1,1,492,NaN,bird,bird,c50,0492_cop_dnn_c50_bird_10_n01560419_6583.png,n01560419_6583.png,1.0,0.8941834,-2.5091946,2.4065516
alexnet_w1_mlp_simclrhn_probe1,1,493,NaN,keyboard,keyboard,c50,0493_cop_dnn_c50_keyboard_10_n03085013_19161.png,n03085013_19161.png,1.0,0.32513875,-0.53686684,0.60953003
alexnet_w1_mlp_simclrhn_probe1,1,494,NaN,airplane,bird,c05,0494_cop_dnn_c05_bird_10_n01616318_57023.png,n01616318_57023.png,0.0,-1.1661998,-0.5534735,-0.43326294
alexnet_w1_mlp_simclrhn_probe1,1,495,NaN,airplane,truck,c50,0495_cop_dnn_c50_truck_10_n04467665_69176.png,n04467665_69176.png,0.0,0.3747784,0.55503964,-0.12746395
alexnet_w1_mlp_simclrhn_probe1,1,496,NaN,car,car,c50,0496_cop_dnn_c50_car_10_n03100240_4971.png,n03100240_4971.png,1.0,5.39943,3.2184393,1.5421932
alexnet_w1_mlp_simclrhn_probe1,1,497,NaN,airplane,oven,c01,0497_cop_dnn_c01_oven_10_n04111531_4901.png,n04111531_4901.png,0.0,-1.5731565,-0.5803501,-0.7020201
alexnet_w1_mlp_simclrhn_probe1,1,498,NaN,bear,bear,c30,0498_cop_dnn_c30_bear_10_n02133161_4091.png,n02133161_4091.png,1.0,1.0856439,0.5434228,0.3834082
alexnet_w1_mlp_simclrhn_probe1,1,499,NaN,cat,cat,c03,0499_cop_dnn_c03_cat_10_n02123394_4164.png,n02123394_4164.png,1.0,-0.7192576,-0.7676544,0.034221724
alexnet_w1_mlp_simclrhn_probe1,1,500,NaN,boat,bird,c03,0500_cop_dnn_c03_bird_10_n02017213_689.png,n02017213_689.png,0.0,-0.64387155,-0.59567803,-0.03407796
alexnet_w1_mlp_simclrhn_probe1,1,501,NaN,dog,dog,c100,0501_cop_dnn_c100_dog_10_n02109047_14207.png,n02109047_14207.png,1.0,-1.141589,-3.8245764,1.8971585
alexnet_w1_mlp_simclrhn_probe1,1,502,NaN,elephant,elephant,c05,0502_cop_dnn_c05_elephant_10_n02504013_8347.png,n02504013_8347.png,1.0,-0.1853528,-0.83159596,0.4569629
alexnet_w1_mlp_simclrhn_probe1,1,503,NaN,bottle,bottle,c30,0503_cop_dnn_c30_bottle_10_n04591713_1652.png,n04591713_1652.png,1.0,0.141506,0.017488956,0.0876933
alexnet_w1_mlp_simclrhn_probe1,1,504,NaN,oven,oven,c15,0504_cop_dnn_c15_oven_10_n04111531_22403.png,n04111531_22403.png,1.0,-0.05190508,-1.0828621,0.72899675
alexnet_w1_mlp_simclrhn_probe1,1,505,NaN,airplane,airplane,c100,0505_cop_dnn_c100_airplane_10_n02690373_6046.png,n02690373_6046.png,1.0,13.593732,-0.9248128,10.266162
alexnet_w1_mlp_simclrhn_probe1,1,506,NaN,elephant,bear,c15,0506_cop_dnn_c15_bear_10_n02134084_1689.png,n02134084_1689.png,0.0,-0.2369296,-0.18115294,-0.03944005
alexnet_w1_mlp_simclrhn_probe1,1,507,NaN,oven,oven,c30,0507_cop_dnn_c30_oven_10_n04111531_14269.png,n04111531_14269.png,1.0,2.0715184,0.116073355,1.3827084
alexnet_w1_mlp_simclrhn_probe1,1,508,NaN,cat,cat,c100,0508_cop_dnn_c100_cat_10_n02123597_9444.png,n02123597_9444.png,1.0,2.8685844,0.97238046,1.3408188
alexnet_w1_mlp_simclrhn_probe1,1,509,NaN,bear,bear,c10,0509_cop_dnn_c10_bear_10_n02134418_128.png,n02134418_128.png,1.0,0.9938451,0.518518,0.33610705
alexnet_w1_mlp_simclrhn_probe1,1,510,NaN,airplane,airplane,c30,0510_cop_dnn_c30_airplane_10_n02690373_8789.png,n02690373_8789.png,1.0,3.77893,0.9706438,1.9857582
alexnet_w1_mlp_simclrhn_probe1,1,511,NaN,knife,bottle,c01,0511_cop_dnn_c01_bottle_10_n03937543_10092.png,n03937543_10092.png,0.0,-0.94993013,-0.4852085,-0.32860783
alexnet_w1_mlp_simclrhn_probe1,1,512,NaN,clock,clock,c03,0512_cop_dnn_c03_clock_10_n02708093_7257.png,n02708093_7257.png,1.0,0.262413,-0.26248607,0.3711597
alexnet_w1_mlp_simclrhn_probe1,1,513,NaN,elephant,bear,c100,0513_cop_dnn_c100_bear_10_n02134084_21207.png,n02134084_21207.png,0.0,0.63183284,2.3079457,-1.1851908
alexnet_w1_mlp_simclrhn_probe1,1,514,NaN,bird,bird,c05,0514_cop_dnn_c05_bird_10_n01797886_12811.png,n01797886_12811.png,1.0,-0.8269386,-1.0285527,0.14256264
alexnet_w1_mlp_simclrhn_probe1,1,515,NaN,airplane,oven,c01,0515_cop_dnn_c01_oven_10_n04111531_21248.png,n04111531_21248.png,0.0,-1.6531312,-0.66024464,-0.70207685
alexnet_w1_mlp_simclrhn_probe1,1,516,NaN,elephant,dog,c15,0516_cop_dnn_c15_dog_10_n02090379_5574.png,n02090379_5574.png,0.0,-1.0613949,-0.67668617,-0.27203017
alexnet_w1_mlp_simclrhn_probe1,1,517,NaN,car,car,c15,0517_cop_dnn_c15_car_10_n04285008_8443.png,n04285008_8443.png,1.0,1.6685616,0.39240295,0.9023804
alexnet_w1_mlp_simclrhn_probe1,1,518,NaN,car,car,c100,0518_cop_dnn_c100_car_10_n03100240_15647.png,n03100240_15647.png,1.0,5.6357903,3.8330479,1.2747314
alexnet_w1_mlp_simclrhn_probe1,1,519,NaN,chair,chair,c50,0519_cop_dnn_c50_chair_10_n02791124_5824.png,n02791124_5824.png,1.0,0.39747158,-1.3114991,1.2084248
alexnet_w1_mlp_simclrhn_probe1,1,520,NaN,boat,bear,c05,0520_cop_dnn_c05_bear_10_n02133161_9949.png,n02133161_9949.png,0.0,-0.84425,-0.5914747,-0.17873915
alexnet_w1_mlp_simclrhn_probe1,1,521,NaN,elephant,elephant,c03,0521_cop_dnn_c03_elephant_10_n02504458_5320.png,n02504458_5320.png,1.0,-0.6014404,-0.6594838,0.041042853
alexnet_w1_mlp_simclrhn_probe1,1,522,NaN,airplane,keyboard,c01,0522_cop_dnn_c01_keyboard_10_n04505470_1904.png,n04505470_1904.png,0.0,-0.9509996,-0.43220875,-0.36684054
alexnet_w1_mlp_simclrhn_probe1,1,523,NaN,oven,oven,c100,0523_cop_dnn_c100_oven_10_n04111531_4685.png,n04111531_4685.png,1.0,6.162656,-3.6667843,6.950464
alexnet_w1_mlp_simclrhn_probe1,1,524,NaN,airplane,truck,c05,0524_cop_dnn_c05_truck_10_n03417042_2230.png,n03417042_2230.png,0.0,-0.30424994,-0.20994203,-0.066685766
alexnet_w1_mlp_simclrhn_probe1,1,525,NaN,bottle,bottle,c15,0525_cop_dnn_c15_bottle_10_n04591713_6842.png,n04591713_6842.png,1.0,-0.6554822,-0.7363088,0.057153065
alexnet_w1_mlp_simclrhn_probe1,1,526,NaN,boat,boat,c50,0526_cop_dnn_c50_boat_10_n02951358_8285.png,n02951358_8285.png,1.0,-0.6734065,-1.0370926,0.2571649
alexnet_w1_mlp_simclrhn_probe1,1,527,NaN,airplane,knife,c01,0527_cop_dnn_c01_knife_10_n03041632_48675.png,n03041632_48675.png,0.0,-0.4540115,-0.41438115,-0.028022893
alexnet_w1_mlp_simclrhn_probe1,1,528,NaN,clock,oven,c01,0528_cop_dnn_c01_oven_10_n04111531_14435.png,n04111531_14435.png,0.0,-1.7351471,-0.67690355,-0.7482912
alexnet_w1_mlp_simclrhn_probe1,1,529,NaN,cat,cat,c50,0529_cop_dnn_c50_cat_10_n02123159_8273.png,n02123159_8273.png,1.0,1.6198173,-1.8382757,2.445241
alexnet_w1_mlp_simclrhn_probe1,1,530,NaN,cat,bird,c50,0530_cop_dnn_c50_bird_10_n01614925_1908.png,n01614925_1908.png,0.0,-1.4640664,-1.367602,-0.06821063
alexnet_w1_mlp_simclrhn_probe1,1,531,NaN,bottle,knife,c05,0531_cop_dnn_c05_knife_10_n03041632_96345.png,n03041632_96345.png,0.0,-0.76923543,-0.68026245,-0.0629134
alexnet_w1_mlp_simclrhn_probe1,1,532,NaN,knife,knife,c10,0532_cop_dnn_c10_knife_10_n03041632_31037.png,n03041632_31037.png,1.0,-0.34624815,-1.0765407,0.51639485
alexnet_w1_mlp_simclrhn_probe1,1,533,NaN,airplane,airplane,c50,0533_cop_dnn_c50_airplane_10_n02690373_1436.png,n02690373_1436.png,1.0,2.3757012,-0.74686337,2.2079866
alexnet_w1_mlp_simclrhn_probe1,1,534,NaN,chair,chair,c100,0534_cop_dnn_c100_chair_10_n04099969_28072.png,n04099969_28072.png,1.0,1.5298682,-0.3331287,1.3173378
alexnet_w1_mlp_simclrhn_probe1,1,535,NaN,knife,boat,c01,0535_cop_dnn_c01_boat_10_n04612504_19983.png,n04612504_19983.png,0.0,-0.7397478,-0.43420255,-0.21605314
alexnet_w1_mlp_simclrhn_probe1,1,536,NaN,oven,oven,c15,0536_cop_dnn_c15_oven_10_n04111531_8255.png,n04111531_8255.png,1.0,-0.17481227,-0.24024543,0.046268232
alexnet_w1_mlp_simclrhn_probe1,1,537,NaN,elephant,bear,c15,0537_cop_dnn_c15_bear_10_n02132136_1574.png,n02132136_1574.png,0.0,0.021439403,0.7932632,-0.5457618
alexnet_w1_mlp_simclrhn_probe1,1,538,NaN,boat,boat,c100,0538_cop_dnn_c100_boat_10_n04273569_24747.png,n04273569_24747.png,1.0,0.7285689,-0.32841992,0.747404
alexnet_w1_mlp_simclrhn_probe1,1,539,NaN,dog,dog,c30,0539_cop_dnn_c30_dog_10_n02113799_18413.png,n02113799_18413.png,1.0,-0.6807612,-0.8408513,0.11320079
alexnet_w1_mlp_simclrhn_probe1,1,540,NaN,boat,boat,c15,0540_cop_dnn_c15_boat_10_n04273569_28333.png,n04273569_28333.png,1.0,0.73550546,-1.137913,1.3247069
alexnet_w1_mlp_simclrhn_probe1,1,541,NaN,clock,bird,c01,0541_cop_dnn_c01_bird_10_n02017213_2183.png,n02017213_2183.png,0.0,-0.8011538,-0.6981296,-0.0728491
alexnet_w1_mlp_simclrhn_probe1,1,542,NaN,boat,boat,c50,0542_cop_dnn_c50_boat_10_n04273569_26139.png,n04273569_26139.png,1.0,2.3766172,1.9004092,0.33672988
alexnet_w1_mlp_simclrhn_probe1,1,543,NaN,knife,knife,c03,0543_cop_dnn_c03_knife_10_n03041632_29684.png,n03041632_29684.png,1.0,-0.21246833,-0.39133283,0.1264763
alexnet_w1_mlp_simclrhn_probe1,1,544,NaN,boat,boat,c100,0544_cop_dnn_c100_boat_10_n02951358_3087.png,n02951358_3087.png,1.0,-1.183983,-1.2863829,0.0724077
alexnet_w1_mlp_simclrhn_probe1,1,545,NaN,keyboard,keyboard,c15,0545_cop_dnn_c15_keyboard_10_n03085013_13615.png,n03085013_13615.png,1.0,0.15482366,-0.08607914,0.17034401
alexnet_w1_mlp_simclrhn_probe1,1,546,NaN,knife,oven,c03,0546_cop_dnn_c03_oven_10_n04111531_1778.png,n04111531_1778.png,0.0,-1.209121,-0.8860452,-0.22844908
alexnet_w1_mlp_simclrhn_probe1,1,547,NaN,knife,dog,c03,0547_cop_dnn_c03_dog_10_n02097474_9129.png,n02097474_9129.png,0.0,-1.3615692,-0.63579667,-0.5131987
alexnet_w1_mlp_simclrhn_probe1,1,548,NaN,bird,bird,c30,0548_cop_dnn_c30_bird_10_n02013706_19220.png,n02013706_19220.png,1.0,0.7657921,-2.2886631,2.159826
alexnet_w1_mlp_simclrhn_probe1,1,549,NaN,keyboard,clock,c100,0549_cop_dnn_c100_clock_10_n03196217_7199.png,n03196217_7199.png,0.0,1.8843364,2.4515023,-0.4010469
alexnet_w1_mlp_simclrhn_probe1,1,550,NaN,bear,bear,c50,0550_cop_dnn_c50_bear_10_n02132136_27823.png,n02132136_27823.png,1.0,3.2851505,2.5141888,0.5451523
alexnet_w1_mlp_simclrhn_probe1,1,551,NaN,bottle,boat,c03,0551_cop_dnn_c03_boat_10_n03662601_6462.png,n03662601_6462.png,0.0,-0.8040497,-0.7319606,-0.050974675
alexnet_w1_mlp_simclrhn_probe1,1,552,NaN,clock,knife,c15,0552_cop_dnn_c15_knife_10_n03041632_11773.png,n03041632_11773.png,0.0,-1.0058922,-0.6795617,-0.2307505
alexnet_w1_mlp_simclrhn_probe1,1,553,NaN,clock,clock,c01,0553_cop_dnn_c01_clock_10_n02708093_7998.png,n02708093_7998.png,1.0,-0.34835723,-0.46750402,0.084249504
alexnet_w1_mlp_simclrhn_probe1,1,554,NaN,elephant,elephant,c30,0554_cop_dnn_c30_elephant_10_n02504458_3409.png,n02504458_3409.png,1.0,4.151516,-0.1794934,3.0624862
alexnet_w1_mlp_simclrhn_probe1,1,555,NaN,clock,bottle,c01,0555_cop_dnn_c01_bottle_10_n04560804_24166.png,n04560804_24166.png,0.0,-0.80129814,-0.6267421,-0.123429745
alexnet_w1_mlp_simclrhn_probe1,1,556,NaN,elephant,cat,c15,0556_cop_dnn_c15_cat_10_n02125311_17613.png,n02125311_17613.png,0.0,-0.063167624,0.03150379,-0.066942796
alexnet_w1_mlp_simclrhn_probe1,1,557,NaN,airplane,bicycle,c05,0557_cop_dnn_c05_bicycle_10_n03792782_5284.png,n03792782_5284.png,0.0,-0.94378483,-0.3857963,-0.39455748
alexnet_w1_mlp_simclrhn_probe1,1,558,NaN,chair,oven,c10,0558_cop_dnn_c10_oven_10_n04111531_13006.png,n04111531_13006.png,0.0,-0.690523,-0.24546258,-0.31470525
alexnet_w1_mlp_simclrhn_probe1,1,559,NaN,oven,oven,c10,0559_cop_dnn_c10_oven_10_n04111531_8309.png,n04111531_8309.png,1.0,-0.59753627,-0.66416615,0.047114447
alexnet_w1_mlp_simclrhn_probe1,1,560,NaN,clock,clock,c10,0560_cop_dnn_c10_clock_10_n04548280_8390.png,n04548280_8390.png,1.0,-0.64791375,-0.98128575,0.2357296
alexnet_w1_mlp_simclrhn_probe1,1,561,NaN,truck,truck,c50,0561_cop_dnn_c50_truck_10_n04467665_7110.png,n04467665_7110.png,1.0,2.0493634,-0.46000636,1.7743925
alexnet_w1_mlp_simclrhn_probe1,1,562,NaN,airplane,clock,c10,0562_cop_dnn_c10_clock_10_n03196217_8020.png,n03196217_8020.png,0.0,-0.43325675,-0.15740472,-0.19505684
alexnet_w1_mlp_simclrhn_probe1,1,563,NaN,elephant,elephant,c100,0563_cop_dnn_c100_elephant_10_n02504458_7955.png,n02504458_7955.png,1.0,9.075785,1.1133697,5.6302776
alexnet_w1_mlp_simclrhn_probe1,1,564,NaN,knife,elephant,c01,0564_cop_dnn_c01_elephant_10_n02504458_1022.png,n02504458_1022.png,0.0,-0.88347226,-0.50321025,-0.26888585
alexnet_w1_mlp_simclrhn_probe1,1,565,NaN,bottle,clock,c100,0565_cop_dnn_c100_clock_10_n04548280_2383.png,n04548280_2383.png,0.0,2.018233,2.4743707,-0.32253805
alexnet_w1_mlp_simclrhn_probe1,1,566,NaN,bird,bird,c50,0566_cop_dnn_c50_bird_10_n02002724_7019.png,n02002724_7019.png,1.0,1.0087577,-3.2297063,2.9970467
alexnet_w1_mlp_simclrhn_probe1,1,567,NaN,bear,cat,c100,0567_cop_dnn_c100_cat_10_n02125311_1127.png,n02125311_1127.png,0.0,-0.09922067,0.14215168,-0.17067602
alexnet_w1_mlp_simclrhn_probe1,1,568,NaN,bottle,bicycle,c05,0568_cop_dnn_c05_bicycle_10_n02835271_6481.png,n02835271_6481.png,0.0,-1.5837975,-0.76630634,-0.57805353
alexnet_w1_mlp_simclrhn_probe1,1,569,NaN,car,car,c15,0569_cop_dnn_c15_car_10_n04285008_5208.png,n04285008_5208.png,1.0,0.96517324,0.7323395,0.16463833
alexnet_w1_mlp_simclrhn_probe1,1,570,NaN,keyboard,oven,c50,0570_cop_dnn_c50_oven_10_n04111531_8658.png,n04111531_8658.png,0.0,-1.1101744,-0.82557786,-0.20124017
alexnet_w1_mlp_simclrhn_probe1,1,571,NaN,bottle,bottle,c05,0571_cop_dnn_c05_bottle_10_n04579145_2910.png,n04579145_2910.png,1.0,-0.47103786,-0.5644967,0.066085376
alexnet_w1_mlp_simclrhn_probe1,1,572,NaN,clock,truck,c01,0572_cop_dnn_c01_truck_10_n04467665_22414.png,n04467665_22414.png,0.0,-1.8340225,-0.48331675,-0.9550932
alexnet_w1_mlp_simclrhn_probe1,1,573,NaN,elephant,elephant,c15,0573_cop_dnn_c15_elephant_10_n02504013_5439.png,n02504013_5439.png,1.0,0.2545788,0.1264184,0.09062309
alexnet_w1_mlp_simclrhn_probe1,1,574,NaN,cat,cat,c10,0574_cop_dnn_c10_cat_10_n02123159_5945.png,n02123159_5945.png,1.0,0.3092623,-1.19465,1.0634266
alexnet_w1_mlp_simclrhn_probe1,1,575,NaN,bottle,bottle,c10,0575_cop_dnn_c10_bottle_10_n04557648_2426.png,n04557648_2426.png,1.0,-0.03489559,-0.42601898,0.276566
alexnet_w1_mlp_simclrhn_probe1,1,576,NaN,clock,bicycle,c05,0576_cop_dnn_c05_bicycle_10_n03792782_38641.png,n03792782_38641.png,0.0,-0.6830307,-0.5503761,-0.09380098
alexnet_w1_mlp_simclrhn_probe1,1,577,NaN,cat,dog,c30,0577_cop_dnn_c30_dog_10_n02110958_15843.png,n02110958_15843.png,0.0,-1.3433772,-0.8396849,-0.35616428
alexnet_w1_mlp_simclrhn_probe1,1,578,NaN,keyboard,keyboard,c15,0578_cop_dnn_c15_keyboard_10_n04505470_5161.png,n04505470_5161.png,1.0,1.5556226,-0.6750442,1.5773195
alexnet_w1_mlp_simclrhn_probe1,1,579,NaN,airplane,airplane,c30,0579_cop_dnn_c30_airplane_10_n02690373_8350.png,n02690373_8350.png,1.0,1.8954885,0.08280138,1.2817634
alexnet_w1_mlp_simclrhn_probe1,1,580,NaN,airplane,bicycle,c05,0580_cop_dnn_c05_bicycle_10_n03792782_10129.png,n03792782_10129.png,0.0,-0.85658854,-0.36079207,-0.35058105
alexnet_w1_mlp_simclrhn_probe1,1,581,NaN,car,car,c100,0581_cop_dnn_c100_car_10_n02814533_26369.png,n02814533_26369.png,1.0,0.5441515,-0.9827197,1.079661
alexnet_w1_mlp_simclrhn_probe1,1,582,NaN,oven,oven,c10,0582_cop_dnn_c10_oven_10_n04111531_10077.png,n04111531_10077.png,1.0,0.50816417,-0.5290047,0.73338914
alexnet_w1_mlp_simclrhn_probe1,1,583,NaN,knife,oven,c01,0583_cop_dnn_c01_oven_10_n04111531_12702.png,n04111531_12702.png,0.0,-1.2197392,-0.55890256,-0.4672821
alexnet_w1_mlp_simclrhn_probe1,1,584,NaN,clock,clock,c100,0584_cop_dnn_c100_clock_10_n03196217_8618.png,n03196217_8618.png,1.0,1.4306444,0.70551866,0.5127413
alexnet_w1_mlp_simclrhn_probe1,1,585,NaN,bottle,bottle,c10,0585_cop_dnn_c10_bottle_10_n03983396_4227.png,n03983396_4227.png,1.0,-0.14055906,-0.6560532,0.36450937
alexnet_w1_mlp_simclrhn_probe1,1,586,NaN,keyboard,bottle,c30,0586_cop_dnn_c30_bottle_10_n03983396_9090.png,n03983396_9090.png,0.0,-0.22915097,-0.15875134,-0.049780056
alexnet_w1_mlp_simclrhn_probe1,1,587,NaN,bear,bear,c100,0587_cop_dnn_c100_bear_10_n02133161_223.png,n02133161_223.png,1.0,0.016592115,-0.74293387,0.537066
alexnet_w1_mlp_simclrhn_probe1,1,588,NaN,keyboard,keyboard,c50,0588_cop_dnn_c50_keyboard_10_n04505470_1047.png,n04505470_1047.png,1.0,2.3364458,-0.33767164,1.8908867
alexnet_w1_mlp_simclrhn_probe1,1,589,NaN,knife,elephant,c03,0589_cop_dnn_c03_elephant_10_n02504013_7467.png,n02504013_7467.png,0.0,-0.71235776,-0.60530424,-0.07569827
alexnet_w1_mlp_simclrhn_probe1,1,590,NaN,elephant,elephant,c30,0590_cop_dnn_c30_elephant_10_n02504013_476.png,n02504013_476.png,1.0,1.4222139,-0.18966763,1.1397723
alexnet_w1_mlp_simclrhn_probe1,1,591,NaN,chair,chair,c100,0591_cop_dnn_c100_chair_10_n02791124_12707.png,n02791124_12707.png,1.0,0.86465955,0.15894753,0.49901375
alexnet_w1_mlp_simclrhn_probe1,1,592,NaN,knife,bird,c01,0592_cop_dnn_c01_bird_10_n01537544_22049.png,n01537544_22049.png,0.0,-0.7272461,-0.7168276,-0.0073670163
alexnet_w1_mlp_simclrhn_probe1,1,593,NaN,bottle,bicycle,c05,0593_cop_dnn_c05_bicycle_10_n02835271_4220.png,n02835271_4220.png,0.0,-0.8263712,-0.5943518,-0.16406247
alexnet_w1_mlp_simclrhn_probe1,1,594,NaN,chair,truck,c10,0594_cop_dnn_c10_truck_10_n03417042_7530.png,n03417042_7530.png,0.0,-0.278388,0.058743313,-0.23838785
alexnet_w1_mlp_simclrhn_probe1,1,595,NaN,knife,bear,c03,0595_cop_dnn_c03_bear_10_n02134418_12457.png,n02134418_12457.png,0.0,-0.96020323,-0.74295855,-0.15361519
alexnet_w1_mlp_simclrhn_probe1,1,596,NaN,bottle,bottle,c50,0596_cop_dnn_c50_bottle_10_n04557648_10265.png,n04557648_10265.png,1.0,1.4217228,-0.9256556,1.6598471
alexnet_w1_mlp_simclrhn_probe1,1,597,NaN,clock,clock,c15,0597_cop_dnn_c15_clock_10_n02708093_2025.png,n02708093_2025.png,1.0,0.20361547,-0.31461084,0.36644137
alexnet_w1_mlp_simclrhn_probe1,1,598,NaN,bicycle,chair,c15,0598_cop_dnn_c15_chair_10_n03376595_1961.png,n03376595_1961.png,0.0,-0.5395513,0.095890574,-0.4493253
alexnet_w1_mlp_simclrhn_probe1,1,599,NaN,elephant,bear,c05,0599_cop_dnn_c05_bear_10_n02134084_67.png,n02134084_67.png,0.0,-0.34777284,-0.33229935,-0.010941407
alexnet_w1_mlp_simclrhn_probe1,1,600,NaN,cat,cat,c50,0600_cop_dnn_c50_cat_10_n02123045_455.png,n02123045_455.png,1.0,2.2054627,-2.1122663,3.0530956
alexnet_w1_mlp_simclrhn_probe1,1,601,NaN,car,car,c10,0601_cop_dnn_c10_car_10_n03100240_13929.png,n03100240_13929.png,1.0,0.28775623,-0.06669447,0.2506345
alexnet_w1_mlp_simclrhn_probe1,1,602,NaN,elephant,elephant,c10,0602_cop_dnn_c10_elephant_10_n02504458_4997.png,n02504458_4997.png,1.0,0.2833717,-0.55184567,0.59058785
alexnet_w1_mlp_simclrhn_probe1,1,603,NaN,airplane,airplane,c10,0603_cop_dnn_c10_airplane_10_n02690373_5344.png,n02690373_5344.png,1.0,0.5452112,-0.14452596,0.4877178
alexnet_w1_mlp_simclrhn_probe1,1,604,NaN,airplane,oven,c01,0604_cop_dnn_c01_oven_10_n04111531_797.png,n04111531_797.png,0.0,-1.5315566,-0.3991031,-0.8007655
alexnet_w1_mlp_simclrhn_probe1,1,605,NaN,boat,boat,c30,0605_cop_dnn_c30_boat_10_n04273569_3085.png,n04273569_3085.png,1.0,2.454705,0.65131915,1.2751864
alexnet_w1_mlp_simclrhn_probe1,1,606,NaN,oven,oven,c100,0606_cop_dnn_c100_oven_10_n04111531_9113.png,n04111531_9113.png,1.0,5.9330425,-1.2578894,5.084757
alexnet_w1_mlp_simclrhn_probe1,1,607,NaN,boat,boat,c03,0607_cop_dnn_c03_boat_10_n03662601_18803.png,n03662601_18803.png,1.0,-0.25623232,-0.55646497,0.21229655
alexnet_w1_mlp_simclrhn_probe1,1,608,NaN,airplane,truck,c03,0608_cop_dnn_c03_truck_10_n04467665_30581.png,n04467665_30581.png,0.0,-1.6276754,-0.5108767,-0.7896959
alexnet_w1_mlp_simclrhn_probe1,1,609,NaN,elephant,elephant,c30,0609_cop_dnn_c30_elephant_10_n02504013_5237.png,n02504013_5237.png,1.0,1.9295391,-0.02393192,1.3813126
alexnet_w1_mlp_simclrhn_probe1,1,610,NaN,keyboard,keyboard,c100,0610_cop_dnn_c100_keyboard_10_n03085013_12175.png,n03085013_12175.png,1.0,7.027477,0.049836755,4.9339366
alexnet_w1_mlp_simclrhn_probe1,1,611,NaN,chair,chair,c30,0611_cop_dnn_c30_chair_10_n02791124_5401.png,n02791124_5401.png,1.0,1.6282513,-0.7596081,1.6884716
alexnet_w1_mlp_simclrhn_probe1,1,612,NaN,boat,boat,c50,0612_cop_dnn_c50_boat_10_n02951358_22332.png,n02951358_22332.png,1.0,1.9444641,-0.11501145,1.456269
alexnet_w1_mlp_simclrhn_probe1,1,613,NaN,knife,knife,c03,0613_cop_dnn_c03_knife_10_n03041632_11932.png,n03041632_11932.png,1.0,-0.31447685,-0.31650308,0.0014327611
alexnet_w1_mlp_simclrhn_probe1,1,614,NaN,cat,cat,c30,0614_cop_dnn_c30_cat_10_n02123159_5257.png,n02123159_5257.png,1.0,0.56361824,-0.47935992,0.737497
alexnet_w1_mlp_simclrhn_probe1,1,615,NaN,bottle,bottle,c50,0615_cop_dnn_c50_bottle_10_n03983396_105.png,n03983396_105.png,1.0,1.6408908,-0.45859838,1.4845631
alexnet_w1_mlp_simclrhn_probe1,1,616,NaN,boat,boat,c50,0616_cop_dnn_c50_boat_10_n04612504_11939.png,n04612504_11939.png,1.0,2.2109158,-0.121096864,1.648982
alexnet_w1_mlp_simclrhn_probe1,1,617,NaN,boat,boat,c30,0617_cop_dnn_c30_boat_10_n03662601_5575.png,n03662601_5575.png,1.0,0.5606486,0.09533702,0.32902497
alexnet_w1_mlp_simclrhn_probe1,1,618,NaN,cat,cat,c05,0618_cop_dnn_c05_cat_10_n02123159_6590.png,n02123159_6590.png,1.0,-0.18082874,-0.37310785,0.13596188
alexnet_w1_mlp_simclrhn_probe1,1,619,NaN,bear,bear,c50,0619_cop_dnn_c50_bear_10_n02134084_21462.png,n02134084_21462.png,1.0,-0.6559604,-1.7125595,0.7471284
alexnet_w1_mlp_simclrhn_probe1,1,620,NaN,cat,cat,c05,0620_cop_dnn_c05_cat_10_n02125311_46330.png,n02125311_46330.png,1.0,-0.5600824,-0.74117976,0.1280552
alexnet_w1_mlp_simclrhn_probe1,1,621,NaN,knife,cat,c01,0621_cop_dnn_c01_cat_10_n02123394_4714.png,n02123394_4714.png,0.0,-0.990774,-0.52329,-0.3305611
alexnet_w1_mlp_simclrhn_probe1,1,622,NaN,knife,knife,c30,0622_cop_dnn_c30_knife_10_n03041632_1671.png,n03041632_1671.png,1.0,-0.7490601,-1.8513111,0.7794092
