subj,session,trial,rt,object_response,category,condition,imagename,filename,is_correct,targ_act,max_nontarg_act,decision_margin
bagnet33,1,1,NaN,clock,knife,c30,0001_cop_dnn_c30_knife_10_n03041632_7380.png,n03041632_7380.png,0.0,7.258772,7.3475738,-0.0627924
bagnet33,1,2,NaN,bicycle,bicycle,c100,0002_cop_dnn_c100_bicycle_10_n03792782_5966.png,n03792782_5966.png,1.0,20.359207,4.194402,11.4302435
bagnet33,1,3,NaN,clock,bird,c01,0003_cop_dnn_c01_bird_10_n01601694_10802.png,n01601694_10802.png,0.0,0.15485638,3.7098472,-2.5137582
bagnet33,1,4,NaN,airplane,airplane,c05,0004_cop_dnn_c05_airplane_10_n02690373_9759.png,n02690373_9759.png,1.0,4.510598,3.1479788,0.9635174
bagnet33,1,5,NaN,knife,car,c03,0005_cop_dnn_c03_car_10_n02814533_2236.png,n02814533_2236.png,0.0,-1.4940602,2.7271962,-2.984879
bagnet33,1,6,NaN,clock,chair,c30,0006_cop_dnn_c30_chair_10_n02791124_7207.png,n02791124_7207.png,0.0,4.1319747,4.911339,-0.55109364
bagnet33,1,7,NaN,oven,oven,c50,0007_cop_dnn_c50_oven_10_n04111531_7064.png,n04111531_7064.png,1.0,7.3870277,5.7303696,1.1714343
bagnet33,1,8,NaN,chair,bird,c15,0008_cop_dnn_c15_bird_10_n01532829_2263.png,n01532829_2263.png,0.0,-1.0345923,2.5521348,-2.536199
bagnet33,1,9,NaN,bicycle,bicycle,c50,0009_cop_dnn_c50_bicycle_10_n02835271_3383.png,n02835271_3383.png,1.0,12.242664,5.4104514,4.8311043
bagnet33,1,10,NaN,knife,bicycle,c03,0010_cop_dnn_c03_bicycle_10_n03792782_27510.png,n03792782_27510.png,0.0,-1.543622,3.360844,-3.467981
bagnet33,1,11,NaN,clock,bottle,c03,0011_cop_dnn_c03_bottle_10_n04557648_10944.png,n04557648_10944.png,0.0,2.1192913,3.6349843,-1.0717568
bagnet33,1,12,NaN,airplane,keyboard,c15,0012_cop_dnn_c15_keyboard_10_n03085013_20891.png,n03085013_20891.png,0.0,2.1458452,5.569786,-2.4210918
bagnet33,1,13,NaN,elephant,elephant,c30,0013_cop_dnn_c30_elephant_10_n02504458_3225.png,n02504458_3225.png,1.0,12.590846,3.21273,6.63133
bagnet33,1,14,NaN,airplane,keyboard,c10,0014_cop_dnn_c10_keyboard_10_n04505470_6638.png,n04505470_6638.png,0.0,5.6280394,5.6621327,-0.024107661
bagnet33,1,15,NaN,clock,bird,c01,0015_cop_dnn_c01_bird_10_n01601694_11888.png,n01601694_11888.png,0.0,0.17807364,3.7734945,-2.5423465
bagnet33,1,16,NaN,clock,airplane,c03,0016_cop_dnn_c03_airplane_10_n02690373_8743.png,n02690373_8743.png,0.0,2.074516,3.3375995,-0.8931349
bagnet33,1,17,NaN,airplane,boat,c10,0017_cop_dnn_c10_boat_10_n03344393_8869.png,n03344393_8869.png,0.0,3.0275831,3.6681094,-0.4529205
bagnet33,1,18,NaN,clock,bear,c01,0018_cop_dnn_c01_bear_10_n02132136_27682.png,n02132136_27682.png,0.0,-2.2091959,3.7314587,-4.2006774
bagnet33,1,19,NaN,boat,clock,c50,0019_cop_dnn_c50_clock_10_n02708093_7081.png,n02708093_7081.png,0.0,2.5788863,3.3048744,-0.51335114
bagnet33,1,20,NaN,airplane,car,c10,0020_cop_dnn_c10_car_10_n03100240_12141.png,n03100240_12141.png,0.0,-0.1368016,3.6922812,-2.7075706
bagnet33,1,21,NaN,airplane,car,c15,0021_cop_dnn_c15_car_10_n02814533_19287.png,n02814533_19287.png,0.0,0.9450035,4.6214943,-2.5996716
bagnet33,1,22,NaN,clock,bicycle,c03,0022_cop_dnn_c03_bicycle_10_n02835271_3841.png,n02835271_3841.png,0.0,-0.84489214,3.1553776,-2.828618
bagnet33,1,23,NaN,clock,clock,c15,0023_cop_dnn_c15_clock_10_n02708093_6696.png,n02708093_6696.png,1.0,14.69318,4.1668043,7.4432716
bagnet33,1,24,NaN,clock,bird,c01,0024_cop_dnn_c01_bird_10_n01829413_6393.png,n01829413_6393.png,0.0,0.20802715,3.5116966,-2.3360472
bagnet33,1,25,NaN,clock,clock,c01,0025_cop_dnn_c01_clock_10_n02708093_3484.png,n02708093_3484.png,1.0,3.552353,2.9543552,0.42284822
bagnet33,1,26,NaN,airplane,chair,c05,0026_cop_dnn_c05_chair_10_n04429376_55163.png,n04429376_55163.png,0.0,0.8932282,3.5015175,-1.844339
bagnet33,1,27,NaN,boat,boat,c100,0027_cop_dnn_c100_boat_10_n02951358_14528.png,n02951358_14528.png,1.0,6.3239813,5.6343236,0.48766163
bagnet33,1,28,NaN,clock,chair,c01,0028_cop_dnn_c01_chair_10_n03376595_9603.png,n03376595_9603.png,0.0,0.09807357,3.5576656,-2.446301
bagnet33,1,29,NaN,clock,bottle,c03,0029_cop_dnn_c03_bottle_10_n03937543_1840.png,n03937543_1840.png,0.0,1.8882391,3.3172958,-1.0104957
bagnet33,1,30,NaN,knife,car,c01,0030_cop_dnn_c01_car_10_n02814533_32835.png,n02814533_32835.png,0.0,-2.374404,3.5178604,-4.16646
bagnet33,1,31,NaN,clock,bird,c15,0031_cop_dnn_c15_bird_10_n01860187_38598.png,n01860187_38598.png,0.0,-1.399221,2.4796448,-2.7427723
bagnet33,1,32,NaN,airplane,airplane,c100,0032_cop_dnn_c100_airplane_10_n02690373_9322.png,n02690373_9322.png,1.0,33.37031,8.0219965,17.923967
bagnet33,1,33,NaN,clock,bicycle,c01,0033_cop_dnn_c01_bicycle_10_n02835271_1505.png,n02835271_1505.png,0.0,-1.5751834,3.8469143,-3.834002
bagnet33,1,34,NaN,bicycle,bicycle,c50,0034_cop_dnn_c50_bicycle_10_n03792782_11023.png,n03792782_11023.png,1.0,5.8485985,4.255612,1.1264117
bagnet33,1,35,NaN,elephant,elephant,c50,0035_cop_dnn_c50_elephant_10_n02504458_4909.png,n02504458_4909.png,1.0,12.534933,2.0682757,7.401045
bagnet33,1,36,NaN,boat,boat,c100,0036_cop_dnn_c100_boat_10_n03344393_646.png,n03344393_646.png,1.0,6.428195,5.273258,0.8166636
bagnet33,1,37,NaN,airplane,boat,c10,0037_cop_dnn_c10_boat_10_n04612504_2472.png,n04612504_2472.png,0.0,3.5432982,3.8525157,-0.21864976
bagnet33,1,38,NaN,clock,keyboard,c03,0038_cop_dnn_c03_keyboard_10_n03085013_4673.png,n03085013_4673.png,0.0,-1.0260917,3.5108452,-3.208099
bagnet33,1,39,NaN,elephant,elephant,c100,0039_cop_dnn_c100_elephant_10_n02504458_1138.png,n02504458_1138.png,1.0,15.577674,2.0184522,9.587817
bagnet33,1,40,NaN,car,car,c100,0040_cop_dnn_c100_car_10_n03100240_5569.png,n03100240_5569.png,1.0,14.068606,9.135719,3.4880779
bagnet33,1,41,NaN,chair,dog,c100,0041_cop_dnn_c100_dog_10_n02107312_7422.png,n02107312_7422.png,0.0,2.4706192,3.3955393,-0.65401727
bagnet33,1,42,NaN,bottle,bear,c15,0042_cop_dnn_c15_bear_10_n02134084_24140.png,n02134084_24140.png,0.0,2.017013,2.460072,-0.31329
bagnet33,1,43,NaN,bottle,bottle,c100,0043_cop_dnn_c100_bottle_10_n04560804_14130.png,n04560804_14130.png,1.0,11.174617,5.83371,3.7765913
bagnet33,1,44,NaN,cat,cat,c30,0044_cop_dnn_c30_cat_10_n02124075_11970.png,n02124075_11970.png,1.0,5.4218197,3.3351955,1.4754661
bagnet33,1,45,NaN,clock,dog,c03,0045_cop_dnn_c03_dog_10_n02093991_247.png,n02093991_247.png,0.0,-1.1238836,3.5230465,-3.285876
bagnet33,1,46,NaN,keyboard,keyboard,c100,0046_cop_dnn_c100_keyboard_10_n04505470_375.png,n04505470_375.png,1.0,26.42499,6.345007,14.198692
bagnet33,1,47,NaN,bear,bear,c100,0047_cop_dnn_c100_bear_10_n02134418_4372.png,n02134418_4372.png,1.0,10.246965,4.3131437,4.1958456
bagnet33,1,48,NaN,knife,boat,c01,0048_cop_dnn_c01_boat_10_n03344393_2838.png,n03344393_2838.png,0.0,-0.9449728,3.7179506,-3.2971847
bagnet33,1,49,NaN,clock,bicycle,c05,0049_cop_dnn_c05_bicycle_10_n02835271_4935.png,n02835271_4935.png,0.0,0.2935661,3.9885502,-2.6127481
bagnet33,1,50,NaN,airplane,airplane,c50,0050_cop_dnn_c50_airplane_10_n02690373_5382.png,n02690373_5382.png,1.0,17.146053,4.965564,8.612906
bagnet33,1,51,NaN,knife,bottle,c100,0051_cop_dnn_c100_bottle_10_n03937543_2123.png,n03937543_2123.png,0.0,3.853258,4.4205155,-0.40111172
bagnet33,1,52,NaN,dog,dog,c30,0052_cop_dnn_c30_dog_10_n02097474_5234.png,n02097474_5234.png,1.0,7.702878,5.329451,1.6782663
bagnet33,1,53,NaN,bottle,bottle,c100,0053_cop_dnn_c100_bottle_10_n02823428_6050.png,n02823428_6050.png,1.0,16.493122,7.79078,6.1534853
bagnet33,1,54,NaN,bottle,clock,c15,0054_cop_dnn_c15_clock_10_n02708093_3743.png,n02708093_3743.png,0.0,3.4835594,4.002387,-0.3668666
bagnet33,1,55,NaN,knife,knife,c03,0055_cop_dnn_c03_knife_10_n03041632_55083.png,n03041632_55083.png,1.0,3.216927,3.1287851,0.06232575
bagnet33,1,56,NaN,knife,knife,c50,0056_cop_dnn_c50_knife_10_n03041632_41310.png,n03041632_41310.png,1.0,10.271838,6.9443374,2.3528984
bagnet33,1,57,NaN,clock,knife,c03,0057_cop_dnn_c03_knife_10_n03041632_99799.png,n03041632_99799.png,0.0,2.218008,3.1515644,-0.660124
bagnet33,1,58,NaN,dog,dog,c15,0058_cop_dnn_c15_dog_10_n02094114_8231.png,n02094114_8231.png,1.0,5.759553,3.1835563,1.8215047
bagnet33,1,59,NaN,knife,chair,c01,0059_cop_dnn_c01_chair_10_n03376595_6173.png,n03376595_6173.png,0.0,-0.70926744,4.014183,-3.339984
bagnet33,1,60,NaN,clock,oven,c05,0060_cop_dnn_c05_oven_10_n04111531_9297.png,n04111531_9297.png,0.0,-3.6566105,3.211794,-4.856695
bagnet33,1,61,NaN,airplane,car,c10,0061_cop_dnn_c10_car_10_n03100240_24420.png,n03100240_24420.png,0.0,1.2178726,6.273268,-3.5747046
bagnet33,1,62,NaN,elephant,elephant,c100,0062_cop_dnn_c100_elephant_10_n02504013_2340.png,n02504013_2340.png,1.0,22.72298,2.481089,14.313179
bagnet33,1,63,NaN,clock,bicycle,c05,0063_cop_dnn_c05_bicycle_10_n02835271_10104.png,n02835271_10104.png,0.0,-0.59575826,2.8820026,-2.4591482
bagnet33,1,64,NaN,bottle,bicycle,c15,0064_cop_dnn_c15_bicycle_10_n03792782_7165.png,n03792782_7165.png,0.0,0.5489358,3.2910056,-1.9389361
bagnet33,1,65,NaN,clock,knife,c10,0065_cop_dnn_c10_knife_10_n03041632_14817.png,n03041632_14817.png,0.0,2.394638,3.0863144,-0.48908907
bagnet33,1,66,NaN,clock,clock,c15,0066_cop_dnn_c15_clock_10_n02708093_118.png,n02708093_118.png,1.0,7.657404,2.3807657,3.7311466
bagnet33,1,67,NaN,airplane,airplane,c10,0067_cop_dnn_c10_airplane_10_n02690373_4298.png,n02690373_4298.png,1.0,4.8600845,3.3626754,1.0588281
bagnet33,1,68,NaN,knife,knife,c100,0068_cop_dnn_c100_knife_10_n03041632_50034.png,n03041632_50034.png,1.0,11.531088,5.5440807,4.2334533
bagnet33,1,69,NaN,clock,chair,c03,0069_cop_dnn_c03_chair_10_n02791124_1333.png,n02791124_1333.png,0.0,-0.13351765,3.5176163,-2.5817416
bagnet33,1,70,NaN,clock,clock,c01,0070_cop_dnn_c01_clock_10_n02708093_2318.png,n02708093_2318.png,1.0,3.9821312,3.4673376,0.3640141
bagnet33,1,71,NaN,knife,elephant,c01,0071_cop_dnn_c01_elephant_10_n02504013_3864.png,n02504013_3864.png,0.0,-1.9687622,3.551591,-3.9034793
bagnet33,1,72,NaN,chair,chair,c10,0072_cop_dnn_c10_chair_10_n04429376_56624.png,n04429376_56624.png,1.0,4.1873255,3.0587149,0.79804826
bagnet33,1,73,NaN,airplane,airplane,c30,0073_cop_dnn_c30_airplane_10_n02690373_7004.png,n02690373_7004.png,1.0,10.811915,3.8943512,4.8914566
bagnet33,1,74,NaN,knife,oven,c30,0074_cop_dnn_c30_oven_10_n04111531_9692.png,n04111531_9692.png,0.0,0.6244119,3.368805,-1.940579
bagnet33,1,75,NaN,airplane,truck,c50,0075_cop_dnn_c50_truck_10_n03796401_296.png,n03796401_296.png,0.0,7.3154263,11.219588,-2.7606595
bagnet33,1,76,NaN,clock,airplane,c15,0076_cop_dnn_c15_airplane_10_n02690373_1837.png,n02690373_1837.png,0.0,5.7700434,6.4898567,-0.5089849
bagnet33,1,77,NaN,knife,airplane,c03,0077_cop_dnn_c03_airplane_10_n02690373_10203.png,n02690373_10203.png,0.0,1.6892481,3.5248528,-1.2979685
bagnet33,1,78,NaN,clock,boat,c03,0078_cop_dnn_c03_boat_10_n02951358_34234.png,n02951358_34234.png,0.0,-0.594225,2.4621387,-2.1611755
bagnet33,1,79,NaN,bicycle,bicycle,c100,0079_cop_dnn_c100_bicycle_10_n02835271_2885.png,n02835271_2885.png,1.0,12.344161,9.893684,1.7327486
bagnet33,1,80,NaN,airplane,airplane,c30,0080_cop_dnn_c30_airplane_10_n02690373_5247.png,n02690373_5247.png,1.0,18.912971,5.083451,9.778949
bagnet33,1,81,NaN,clock,clock,c50,0081_cop_dnn_c50_clock_10_n02708093_596.png,n02708093_596.png,1.0,16.87512,5.363179,8.140172
bagnet33,1,82,NaN,clock,chair,c01,0082_cop_dnn_c01_chair_10_n03376595_1364.png,n03376595_1364.png,0.0,-0.4976555,3.727806,-2.9878526
bagnet33,1,83,NaN,clock,cat,c03,0083_cop_dnn_c03_cat_10_n02124075_12430.png,n02124075_12430.png,0.0,0.014319818,4.0687776,-2.8669345
bagnet33,1,84,NaN,clock,cat,c05,0084_cop_dnn_c05_cat_10_n02123159_5487.png,n02123159_5487.png,0.0,-0.38790512,4.2418957,-3.2737637
bagnet33,1,85,NaN,bicycle,bicycle,c50,0085_cop_dnn_c50_bicycle_10_n03792782_17571.png,n03792782_17571.png,1.0,6.058669,3.6451926,1.7065856
bagnet33,1,86,NaN,cat,cat,c50,0086_cop_dnn_c50_cat_10_n02123159_6132.png,n02123159_6132.png,1.0,7.526713,3.2573895,3.0188675
bagnet33,1,87,NaN,clock,bottle,c05,0087_cop_dnn_c05_bottle_10_n03937543_2873.png,n03937543_2873.png,0.0,2.584984,4.0330143,-1.0239121
bagnet33,1,88,NaN,bottle,keyboard,c15,0088_cop_dnn_c15_keyboard_10_n04505470_1236.png,n04505470_1236.png,0.0,3.113308,4.5283284,-1.0005705
bagnet33,1,89,NaN,knife,airplane,c01,0089_cop_dnn_c01_airplane_10_n02690373_4243.png,n02690373_4243.png,0.0,1.9972135,3.6659298,-1.1799606
bagnet33,1,90,NaN,oven,oven,c30,0090_cop_dnn_c30_oven_10_n04111531_467.png,n04111531_467.png,1.0,7.0958962,3.9725986,2.208505
bagnet33,1,91,NaN,clock,cat,c03,0091_cop_dnn_c03_cat_10_n02123394_2632.png,n02123394_2632.png,0.0,0.037263434,3.3677819,-2.3550322
bagnet33,1,92,NaN,bottle,chair,c15,0092_cop_dnn_c15_chair_10_n02791124_5268.png,n02791124_5268.png,0.0,2.575766,4.0132895,-1.0164826
bagnet33,1,93,NaN,knife,knife,c100,0093_cop_dnn_c100_knife_10_n03041632_1143.png,n03041632_1143.png,1.0,4.154413,3.630588,0.37040034
bagnet33,1,94,NaN,clock,chair,c10,0094_cop_dnn_c10_chair_10_n02791124_1018.png,n02791124_1018.png,0.0,2.641329,2.958971,-0.2246068
bagnet33,1,95,NaN,clock,bicycle,c05,0095_cop_dnn_c05_bicycle_10_n03792782_8057.png,n03792782_8057.png,0.0,-0.33042568,3.305907,-2.5712755
bagnet33,1,96,NaN,bear,bear,c30,0096_cop_dnn_c30_bear_10_n02132136_1338.png,n02132136_1338.png,1.0,3.7129717,2.9411392,0.54576796
bagnet33,1,97,NaN,clock,clock,c05,0097_cop_dnn_c05_clock_10_n02708093_4798.png,n02708093_4798.png,1.0,14.061417,4.4571266,6.791259
bagnet33,1,98,NaN,knife,truck,c01,0098_cop_dnn_c01_truck_10_n03796401_15046.png,n03796401_15046.png,0.0,-2.7744298,4.2524834,-4.968778
bagnet33,1,99,NaN,knife,knife,c50,0099_cop_dnn_c50_knife_10_n03041632_13612.png,n03041632_13612.png,1.0,3.9040446,3.8886316,0.010898669
bagnet33,1,100,NaN,chair,oven,c10,0100_cop_dnn_c10_oven_10_n04111531_1898.png,n04111531_1898.png,0.0,1.1738865,3.702131,-1.7877388
bagnet33,1,101,NaN,clock,truck,c03,0101_cop_dnn_c03_truck_10_n04467665_28988.png,n04467665_28988.png,0.0,-2.087655,2.5493507,-3.2788584
bagnet33,1,102,NaN,airplane,airplane,c100,0102_cop_dnn_c100_airplane_10_n02690373_736.png,n02690373_736.png,1.0,26.624645,6.337883,14.344908
bagnet33,1,103,NaN,elephant,dog,c50,0103_cop_dnn_c50_dog_10_n02111500_5154.png,n02111500_5154.png,0.0,1.7999088,3.874267,-1.466793
bagnet33,1,104,NaN,chair,bear,c50,0104_cop_dnn_c50_bear_10_n02133161_13461.png,n02133161_13461.png,0.0,-0.2555828,2.0905426,-1.6589612
bagnet33,1,105,NaN,knife,dog,c15,0105_cop_dnn_c15_dog_10_n02102318_11746.png,n02102318_11746.png,0.0,0.40750423,2.822693,-1.7077965
bagnet33,1,106,NaN,airplane,boat,c50,0106_cop_dnn_c50_boat_10_n03662601_12226.png,n03662601_12226.png,0.0,5.92882,8.062876,-1.5090052
bagnet33,1,107,NaN,knife,keyboard,c05,0107_cop_dnn_c05_keyboard_10_n04505470_3207.png,n04505470_3207.png,0.0,-0.6417531,2.8749022,-2.486651
bagnet33,1,108,NaN,bicycle,bicycle,c30,0108_cop_dnn_c30_bicycle_10_n03792782_2628.png,n03792782_2628.png,1.0,9.4333105,3.4269164,4.2471623
bagnet33,1,109,NaN,knife,chair,c01,0109_cop_dnn_c01_chair_10_n02791124_3204.png,n02791124_3204.png,0.0,-1.161506,4.3058076,-3.8659747
bagnet33,1,110,NaN,clock,bottle,c03,0110_cop_dnn_c03_bottle_10_n04560804_722.png,n04560804_722.png,0.0,2.1703115,3.5466688,-0.9732316
bagnet33,1,111,NaN,bicycle,bicycle,c30,0111_cop_dnn_c30_bicycle_10_n03792782_8847.png,n03792782_8847.png,1.0,5.887948,3.5030653,1.6863668
bagnet33,1,112,NaN,bear,bear,c50,0112_cop_dnn_c50_bear_10_n02132136_1132.png,n02132136_1132.png,1.0,10.963234,6.772402,2.9633658
bagnet33,1,113,NaN,knife,knife,c50,0113_cop_dnn_c50_knife_10_n03041632_6557.png,n03041632_6557.png,1.0,5.8604126,3.4882126,1.6773988
bagnet33,1,114,NaN,knife,knife,c100,0114_cop_dnn_c100_knife_10_n03041632_35116.png,n03041632_35116.png,1.0,5.673561,4.4981537,0.83113855
bagnet33,1,115,NaN,airplane,car,c15,0115_cop_dnn_c15_car_10_n02814533_3117.png,n02814533_3117.png,0.0,2.1957312,3.741138,-1.0927677
bagnet33,1,116,NaN,knife,bird,c15,0116_cop_dnn_c15_bird_10_n02009229_4224.png,n02009229_4224.png,0.0,-0.28472495,3.9682286,-3.0072923
bagnet33,1,117,NaN,airplane,chair,c50,0117_cop_dnn_c50_chair_10_n03376595_9247.png,n03376595_9247.png,0.0,2.8923857,4.9545183,-1.458148
bagnet33,1,118,NaN,knife,boat,c01,0118_cop_dnn_c01_boat_10_n03662601_5639.png,n03662601_5639.png,0.0,-0.54955935,3.2374797,-2.677841
bagnet33,1,119,NaN,airplane,bicycle,c10,0119_cop_dnn_c10_bicycle_10_n02835271_13437.png,n02835271_13437.png,0.0,1.0718213,3.294088,-1.5713799
bagnet33,1,120,NaN,clock,bicycle,c05,0120_cop_dnn_c05_bicycle_10_n03792782_18294.png,n03792782_18294.png,0.0,-0.32115632,3.706146,-2.8477328
bagnet33,1,121,NaN,clock,boat,c03,0121_cop_dnn_c03_boat_10_n02951358_10488.png,n02951358_10488.png,0.0,-0.61912405,2.5646372,-2.251259
bagnet33,1,122,NaN,clock,bird,c50,0122_cop_dnn_c50_bird_10_n01829413_14594.png,n01829413_14594.png,0.0,-1.1849519,5.057638,-4.414178
bagnet33,1,123,NaN,clock,clock,c100,0123_cop_dnn_c100_clock_10_n03196217_9197.png,n03196217_9197.png,1.0,10.166867,6.3548865,2.6954775
bagnet33,1,124,NaN,boat,boat,c15,0124_cop_dnn_c15_boat_10_n03662601_1667.png,n03662601_1667.png,1.0,4.04251,3.761061,0.19901456
bagnet33,1,125,NaN,elephant,dog,c50,0125_cop_dnn_c50_dog_10_n02092339_6946.png,n02092339_6946.png,0.0,3.648597,6.3089533,-1.881156
bagnet33,1,126,NaN,clock,airplane,c05,0126_cop_dnn_c05_airplane_10_n02690373_1773.png,n02690373_1773.png,0.0,2.0427523,3.3353074,-0.91397446
bagnet33,1,127,NaN,bicycle,elephant,c50,0127_cop_dnn_c50_elephant_10_n02504013_4278.png,n02504013_4278.png,0.0,0.9795033,8.896988,-5.5985074
bagnet33,1,128,NaN,bird,bird,c100,0128_cop_dnn_c100_bird_10_n02025239_10194.png,n02025239_10194.png,1.0,8.996839,1.4992393,5.3016033
bagnet33,1,129,NaN,knife,oven,c15,0129_cop_dnn_c15_oven_10_n04111531_1977.png,n04111531_1977.png,0.0,0.2912215,3.2534606,-2.0946195
bagnet33,1,130,NaN,clock,clock,c50,0130_cop_dnn_c50_clock_10_n02708093_616.png,n02708093_616.png,1.0,7.5543666,4.469162,2.181569
bagnet33,1,131,NaN,knife,boat,c10,0131_cop_dnn_c10_boat_10_n04273569_10292.png,n04273569_10292.png,0.0,-0.096387565,2.8181612,-2.0608974
bagnet33,1,132,NaN,cat,cat,c50,0132_cop_dnn_c50_cat_10_n02123394_8592.png,n02123394_8592.png,1.0,6.109329,3.0403838,2.170072
bagnet33,1,133,NaN,bottle,knife,c10,0133_cop_dnn_c10_knife_10_n03041632_16020.png,n03041632_16020.png,0.0,2.703843,3.1195085,-0.29391983
bagnet33,1,134,NaN,cat,cat,c30,0134_cop_dnn_c30_cat_10_n02123394_5466.png,n02123394_5466.png,1.0,3.1609936,2.5790026,0.41152975
bagnet33,1,135,NaN,knife,elephant,c01,0135_cop_dnn_c01_elephant_10_n02504013_7351.png,n02504013_7351.png,0.0,-2.10098,3.7069361,-4.106817
bagnet33,1,136,NaN,knife,oven,c50,0136_cop_dnn_c50_oven_10_n04111531_22388.png,n04111531_22388.png,0.0,2.5579307,3.140515,-0.41194937
bagnet33,1,137,NaN,chair,chair,c100,0137_cop_dnn_c100_chair_10_n04429376_6308.png,n04429376_6308.png,1.0,6.285563,3.9061253,1.6825166
bagnet33,1,138,NaN,airplane,car,c10,0138_cop_dnn_c10_car_10_n03100240_8443.png,n03100240_8443.png,0.0,5.1620297,7.506401,-1.6577209
bagnet33,1,139,NaN,car,car,c100,0139_cop_dnn_c100_car_10_n04285008_12446.png,n04285008_12446.png,1.0,12.055043,10.180154,1.325747
bagnet33,1,140,NaN,knife,keyboard,c01,0140_cop_dnn_c01_keyboard_10_n04505470_4440.png,n04505470_4440.png,0.0,-1.0200151,3.1904874,-2.977275
bagnet33,1,141,NaN,airplane,car,c10,0141_cop_dnn_c10_car_10_n04285008_10073.png,n04285008_10073.png,0.0,1.9608849,4.2860484,-1.6441388
bagnet33,1,142,NaN,clock,bottle,c03,0142_cop_dnn_c03_bottle_10_n03983396_7378.png,n03983396_7378.png,0.0,2.1359117,3.4240007,-0.9108165
bagnet33,1,143,NaN,chair,chair,c15,0143_cop_dnn_c15_chair_10_n02791124_5706.png,n02791124_5706.png,1.0,3.475546,3.104127,0.26263288
bagnet33,1,144,NaN,cat,cat,c15,0144_cop_dnn_c15_cat_10_n02123045_11224.png,n02123045_11224.png,1.0,4.9808044,2.775217,1.5595858
bagnet33,1,145,NaN,clock,chair,c05,0145_cop_dnn_c05_chair_10_n03376595_8953.png,n03376595_8953.png,0.0,0.5289359,4.723898,-2.9662862
bagnet33,1,146,NaN,bicycle,bicycle,c50,0146_cop_dnn_c50_bicycle_10_n03792782_66048.png,n03792782_66048.png,1.0,22.101315,8.327968,9.739227
bagnet33,1,147,NaN,knife,dog,c01,0147_cop_dnn_c01_dog_10_n02104365_1123.png,n02104365_1123.png,0.0,-1.1466714,3.965496,-3.6148484
bagnet33,1,148,NaN,clock,clock,c05,0148_cop_dnn_c05_clock_10_n03196217_3605.png,n03196217_3605.png,1.0,3.4014874,2.9753604,0.30131727
bagnet33,1,149,NaN,knife,knife,c10,0149_cop_dnn_c10_knife_10_n03041632_14916.png,n03041632_14916.png,1.0,2.9698064,2.3976765,0.404557
bagnet33,1,150,NaN,knife,bear,c10,0150_cop_dnn_c10_bear_10_n02132136_4101.png,n02132136_4101.png,0.0,0.39611426,3.400889,-2.1246965
bagnet33,1,151,NaN,clock,clock,c01,0151_cop_dnn_c01_clock_10_n02708093_7929.png,n02708093_7929.png,1.0,3.7709682,3.280933,0.34650728
bagnet33,1,152,NaN,chair,chair,c50,0152_cop_dnn_c50_chair_10_n02791124_7630.png,n02791124_7630.png,1.0,11.1941595,3.563673,5.395569
bagnet33,1,153,NaN,clock,clock,c05,0153_cop_dnn_c05_clock_10_n02708093_3750.png,n02708093_3750.png,1.0,4.136963,4.0188537,0.08351584
bagnet33,1,154,NaN,knife,bird,c01,0154_cop_dnn_c01_bird_10_n02037110_12288.png,n02037110_12288.png,0.0,0.27652535,3.7514935,-2.4571736
bagnet33,1,155,NaN,clock,keyboard,c05,0155_cop_dnn_c05_keyboard_10_n04505470_6080.png,n04505470_6080.png,0.0,3.350913,4.779326,-1.0100405
bagnet33,1,156,NaN,keyboard,keyboard,c100,0156_cop_dnn_c100_keyboard_10_n03085013_19065.png,n03085013_19065.png,1.0,23.92733,8.799956,10.696669
bagnet33,1,157,NaN,clock,cat,c10,0157_cop_dnn_c10_cat_10_n02123159_4856.png,n02123159_4856.png,0.0,0.5378502,3.1312294,-1.8337961
bagnet33,1,158,NaN,knife,chair,c01,0158_cop_dnn_c01_chair_10_n04099969_6913.png,n04099969_6913.png,0.0,-0.06898194,3.5954072,-2.5911145
bagnet33,1,159,NaN,knife,knife,c30,0159_cop_dnn_c30_knife_10_n03041632_35764.png,n03041632_35764.png,1.0,3.9070258,3.3711655,0.37891045
bagnet33,1,160,NaN,airplane,truck,c30,0160_cop_dnn_c30_truck_10_n03796401_3012.png,n03796401_3012.png,0.0,8.634396,8.880622,-0.1741083
bagnet33,1,161,NaN,elephant,elephant,c10,0161_cop_dnn_c10_elephant_10_n02504013_3821.png,n02504013_3821.png,1.0,3.4050002,3.1661866,0.16886675
bagnet33,1,162,NaN,truck,truck,c100,0162_cop_dnn_c100_truck_10_n03796401_3608.png,n03796401_3608.png,1.0,6.1830406,4.6510057,1.0833123
bagnet33,1,163,NaN,chair,chair,c15,0163_cop_dnn_c15_chair_10_n04099969_13811.png,n04099969_13811.png,1.0,5.3092613,2.4022276,2.0555832
bagnet33,1,164,NaN,bear,bear,c50,0164_cop_dnn_c50_bear_10_n02133161_4954.png,n02133161_4954.png,1.0,4.3679476,2.2362113,1.5073652
bagnet33,1,165,NaN,clock,dog,c15,0165_cop_dnn_c15_dog_10_n02085782_6792.png,n02085782_6792.png,0.0,0.6414201,1.9565626,-0.9299462
bagnet33,1,166,NaN,clock,oven,c05,0166_cop_dnn_c05_oven_10_n04111531_22886.png,n04111531_22886.png,0.0,-2.2162406,3.1775544,-3.8139892
bagnet33,1,167,NaN,clock,dog,c05,0167_cop_dnn_c05_dog_10_n02091831_510.png,n02091831_510.png,0.0,-0.99265623,2.9302027,-2.7738802
bagnet33,1,168,NaN,bear,bear,c15,0168_cop_dnn_c15_bear_10_n02132136_11339.png,n02132136_11339.png,1.0,2.3279982,1.359922,0.6845332
bagnet33,1,169,NaN,clock,bottle,c15,0169_cop_dnn_c15_bottle_10_n04557648_2709.png,n04557648_2709.png,0.0,3.45418,5.8381534,-1.6857238
bagnet33,1,170,NaN,clock,keyboard,c03,0170_cop_dnn_c03_keyboard_10_n03085013_21447.png,n03085013_21447.png,0.0,-0.69215214,3.6901333,-3.098744
bagnet33,1,171,NaN,airplane,airplane,c30,0171_cop_dnn_c30_airplane_10_n02690373_7676.png,n02690373_7676.png,1.0,16.324299,4.486318,8.370716
bagnet33,1,172,NaN,dog,dog,c100,0172_cop_dnn_c100_dog_10_n02091831_4110.png,n02091831_4110.png,1.0,7.708856,3.6190841,2.8919058
bagnet33,1,173,NaN,clock,bird,c10,0173_cop_dnn_c10_bird_10_n02007558_16029.png,n02007558_16029.png,0.0,0.3398844,2.359553,-1.4281213
bagnet33,1,174,NaN,chair,truck,c30,0174_cop_dnn_c30_truck_10_n03796401_15097.png,n03796401_15097.png,0.0,0.75730044,3.072208,-1.6368868
bagnet33,1,175,NaN,airplane,airplane,c30,0175_cop_dnn_c30_airplane_10_n02690373_7401.png,n02690373_7401.png,1.0,18.11848,3.9167035,10.042173
bagnet33,1,176,NaN,clock,dog,c05,0176_cop_dnn_c05_dog_10_n02108422_4529.png,n02108422_4529.png,0.0,-1.113606,3.4693553,-3.240643
bagnet33,1,177,NaN,knife,bear,c10,0177_cop_dnn_c10_bear_10_n02132136_10514.png,n02132136_10514.png,0.0,-0.2311289,2.5547893,-1.9699417
bagnet33,1,178,NaN,knife,airplane,c03,0178_cop_dnn_c03_airplane_10_n02690373_5524.png,n02690373_5524.png,0.0,2.1160154,2.8072758,-0.4887949
bagnet33,1,179,NaN,chair,chair,c100,0179_cop_dnn_c100_chair_10_n04429376_5965.png,n04429376_5965.png,1.0,7.82605,7.784372,0.029470762
bagnet33,1,180,NaN,airplane,airplane,c15,0180_cop_dnn_c15_airplane_10_n02690373_9712.png,n02690373_9712.png,1.0,6.3743434,3.7779872,1.835901
bagnet33,1,181,NaN,airplane,boat,c30,0181_cop_dnn_c30_boat_10_n02951358_29825.png,n02951358_29825.png,0.0,3.754586,6.4608364,-1.9136081
bagnet33,1,182,NaN,clock,keyboard,c03,0182_cop_dnn_c03_keyboard_10_n04505470_4887.png,n04505470_4887.png,0.0,-0.114166856,3.0556633,-2.2414086
bagnet33,1,183,NaN,clock,truck,c01,0183_cop_dnn_c01_truck_10_n04467665_32090.png,n04467665_32090.png,0.0,-2.9365973,3.7584438,-4.734109
bagnet33,1,184,NaN,clock,chair,c05,0184_cop_dnn_c05_chair_10_n02791124_4296.png,n02791124_4296.png,0.0,1.2810484,3.4149988,-1.5089307
bagnet33,1,185,NaN,airplane,boat,c30,0185_cop_dnn_c30_boat_10_n04612504_14669.png,n04612504_14669.png,0.0,4.9141855,5.5236297,-0.4309421
bagnet33,1,186,NaN,knife,airplane,c03,0186_cop_dnn_c03_airplane_10_n02690373_891.png,n02690373_891.png,0.0,2.43351,2.826061,-0.27757543
bagnet33,1,187,NaN,clock,clock,c100,0187_cop_dnn_c100_clock_10_n04548280_7539.png,n04548280_7539.png,1.0,6.7638373,6.4397316,0.22917737
bagnet33,1,188,NaN,elephant,bear,c30,0188_cop_dnn_c30_bear_10_n02134418_4717.png,n02134418_4717.png,0.0,1.8600675,2.8495495,-0.6996695
bagnet33,1,189,NaN,clock,bird,c03,0189_cop_dnn_c03_bird_10_n02002724_13195.png,n02002724_13195.png,0.0,0.39418542,3.0332623,-1.866109
bagnet33,1,190,NaN,clock,bottle,c10,0190_cop_dnn_c10_bottle_10_n03937543_2494.png,n03937543_2494.png,0.0,2.843837,3.0947087,-0.17739305
bagnet33,1,191,NaN,clock,clock,c30,0191_cop_dnn_c30_clock_10_n03196217_2307.png,n03196217_2307.png,1.0,15.809411,4.701714,7.8543277
bagnet33,1,192,NaN,clock,clock,c15,0192_cop_dnn_c15_clock_10_n04548280_17907.png,n04548280_17907.png,1.0,3.6047852,2.63327,0.686965
bagnet33,1,193,NaN,knife,chair,c03,0193_cop_dnn_c03_chair_10_n03376595_6540.png,n03376595_6540.png,0.0,0.04608372,3.2208157,-2.2448745
bagnet33,1,194,NaN,chair,cat,c30,0194_cop_dnn_c30_cat_10_n02123045_1484.png,n02123045_1484.png,0.0,3.9425497,4.036535,-0.06645749
bagnet33,1,195,NaN,clock,knife,c03,0195_cop_dnn_c03_knife_10_n03041632_89912.png,n03041632_89912.png,0.0,3.3181129,3.5707035,-0.17860857
bagnet33,1,196,NaN,bottle,bottle,c05,0196_cop_dnn_c05_bottle_10_n04591713_6975.png,n04591713_6975.png,1.0,4.2638693,4.0244594,0.16928838
bagnet33,1,197,NaN,knife,bird,c50,0197_cop_dnn_c50_bird_10_n01860187_810.png,n01860187_810.png,0.0,0.8192855,3.8729882,-2.1592941
bagnet33,1,198,NaN,clock,oven,c03,0198_cop_dnn_c03_oven_10_n04111531_5967.png,n04111531_5967.png,0.0,-2.8801723,2.698519,-3.9447308
bagnet33,1,199,NaN,airplane,boat,c15,0199_cop_dnn_c15_boat_10_n04612504_18954.png,n04612504_18954.png,0.0,4.1292796,6.0027103,-1.3247156
bagnet33,1,200,NaN,clock,bicycle,c10,0200_cop_dnn_c10_bicycle_10_n03792782_68259.png,n03792782_68259.png,0.0,0.31689066,3.0821774,-1.955353
bagnet33,1,201,NaN,knife,car,c03,0201_cop_dnn_c03_car_10_n04285008_296.png,n04285008_296.png,0.0,-1.7546954,2.963819,-3.3364937
bagnet33,1,202,NaN,knife,airplane,c03,0202_cop_dnn_c03_airplane_10_n02690373_12929.png,n02690373_12929.png,0.0,3.024032,3.5470726,-0.3698455
bagnet33,1,203,NaN,knife,boat,c01,0203_cop_dnn_c01_boat_10_n03344393_8761.png,n03344393_8761.png,0.0,-1.4654305,3.8319566,-3.7458184
bagnet33,1,204,NaN,clock,clock,c30,0204_cop_dnn_c30_clock_10_n03196217_3877.png,n03196217_3877.png,1.0,11.205211,3.699377,5.307426
bagnet33,1,205,NaN,clock,bear,c10,0205_cop_dnn_c10_bear_10_n02134084_1346.png,n02134084_1346.png,0.0,-0.47012424,1.8548331,-1.6439931
bagnet33,1,206,NaN,knife,knife,c03,0206_cop_dnn_c03_knife_10_n03041632_48151.png,n03041632_48151.png,1.0,3.471513,3.2254562,0.17398843
bagnet33,1,207,NaN,airplane,airplane,c50,0207_cop_dnn_c50_airplane_10_n02690373_3589.png,n02690373_3589.png,1.0,18.0116,5.6636415,8.731326
bagnet33,1,208,NaN,clock,bottle,c50,0208_cop_dnn_c50_bottle_10_n04560804_2942.png,n04560804_2942.png,0.0,4.0579424,5.052372,-0.7031679
bagnet33,1,209,NaN,clock,keyboard,c03,0209_cop_dnn_c03_keyboard_10_n04505470_5022.png,n04505470_5022.png,0.0,-0.9506897,3.3920453,-3.0707772
bagnet33,1,210,NaN,clock,dog,c10,0210_cop_dnn_c10_dog_10_n02096294_1043.png,n02096294_1043.png,0.0,0.34372184,3.3223495,-2.1062078
bagnet33,1,211,NaN,airplane,airplane,c50,0211_cop_dnn_c50_airplane_10_n02690373_1350.png,n02690373_1350.png,1.0,14.45211,3.7240334,7.585896
bagnet33,1,212,NaN,clock,chair,c03,0212_cop_dnn_c03_chair_10_n04099969_27865.png,n04099969_27865.png,0.0,0.9451633,3.0983315,-1.5225198
bagnet33,1,213,NaN,knife,oven,c01,0213_cop_dnn_c01_oven_10_n04111531_22120.png,n04111531_22120.png,0.0,-3.8961875,3.3403277,-5.116989
bagnet33,1,214,NaN,elephant,elephant,c50,0214_cop_dnn_c50_elephant_10_n02504458_5600.png,n02504458_5600.png,1.0,12.357255,2.1585407,7.2115803
bagnet33,1,215,NaN,clock,cat,c03,0215_cop_dnn_c03_cat_10_n02123597_11138.png,n02123597_11138.png,0.0,0.11623529,3.4501064,-2.357403
bagnet33,1,216,NaN,clock,cat,c30,0216_cop_dnn_c30_cat_10_n02125311_5717.png,n02125311_5717.png,0.0,-0.6978827,1.9631191,-1.8816125
bagnet33,1,217,NaN,chair,chair,c15,0217_cop_dnn_c15_chair_10_n02791124_11404.png,n02791124_11404.png,1.0,4.1317816,3.2839985,0.5994732
bagnet33,1,218,NaN,cat,cat,c100,0218_cop_dnn_c100_cat_10_n02123394_2984.png,n02123394_2984.png,1.0,4.947041,3.7063324,0.8773135
bagnet33,1,219,NaN,clock,dog,c10,0219_cop_dnn_c10_dog_10_n02087394_9693.png,n02087394_9693.png,0.0,-1.2370999,3.3146126,-3.2185469
bagnet33,1,220,NaN,knife,dog,c01,0220_cop_dnn_c01_dog_10_n02098105_2086.png,n02098105_2086.png,0.0,-1.215038,3.9456074,-3.6491275
bagnet33,1,221,NaN,knife,cat,c10,0221_cop_dnn_c10_cat_10_n02123159_6932.png,n02123159_6932.png,0.0,0.339721,3.0658913,-1.9276935
bagnet33,1,222,NaN,airplane,car,c15,0222_cop_dnn_c15_car_10_n04285008_8323.png,n04285008_8323.png,0.0,3.078514,5.853883,-1.9624821
bagnet33,1,223,NaN,knife,truck,c01,0223_cop_dnn_c01_truck_10_n03796401_2226.png,n03796401_2226.png,0.0,-2.4774985,3.6772833,-4.352088
bagnet33,1,224,NaN,clock,bear,c05,0224_cop_dnn_c05_bear_10_n02134084_6223.png,n02134084_6223.png,0.0,-1.9900092,3.4269934,-3.8303993
bagnet33,1,225,NaN,clock,cat,c05,0225_cop_dnn_c05_cat_10_n02125311_22459.png,n02125311_22459.png,0.0,0.132115,3.276477,-2.2233996
bagnet33,1,226,NaN,bicycle,bicycle,c10,0226_cop_dnn_c10_bicycle_10_n02835271_19143.png,n02835271_19143.png,1.0,1.836772,1.8084475,0.020028437
bagnet33,1,227,NaN,knife,cat,c10,0227_cop_dnn_c10_cat_10_n02123597_4357.png,n02123597_4357.png,0.0,-0.12550603,3.352508,-2.4593272
bagnet33,1,228,NaN,knife,boat,c03,0228_cop_dnn_c03_boat_10_n04273569_6180.png,n04273569_6180.png,0.0,-0.3988559,3.0270267,-2.4224648
bagnet33,1,229,NaN,airplane,airplane,c100,0229_cop_dnn_c100_airplane_10_n02690373_139.png,n02690373_139.png,1.0,25.614834,6.2998047,13.657788
bagnet33,1,230,NaN,clock,bottle,c10,0230_cop_dnn_c10_bottle_10_n04557648_4165.png,n04557648_4165.png,0.0,1.0421695,2.8950112,-1.310157
bagnet33,1,231,NaN,bottle,bottle,c50,0231_cop_dnn_c50_bottle_10_n04560804_5756.png,n04560804_5756.png,1.0,4.585255,3.5382283,0.74035984
bagnet33,1,232,NaN,airplane,truck,c15,0232_cop_dnn_c15_truck_10_n04467665_39477.png,n04467665_39477.png,0.0,6.121892,6.6304917,-0.35963434
bagnet33,1,233,NaN,clock,cat,c01,0233_cop_dnn_c01_cat_10_n02123159_386.png,n02123159_386.png,0.0,-0.15656249,3.9331112,-2.891836
bagnet33,1,234,NaN,knife,bear,c15,0234_cop_dnn_c15_bear_10_n02134084_4859.png,n02134084_4859.png,0.0,0.44697425,2.2870705,-1.3011446
bagnet33,1,235,NaN,clock,dog,c03,0235_cop_dnn_c03_dog_10_n02099429_1992.png,n02099429_1992.png,0.0,-1.4066277,3.9141786,-3.7623785
bagnet33,1,236,NaN,clock,oven,c03,0236_cop_dnn_c03_oven_10_n04111531_584.png,n04111531_584.png,0.0,-3.98735,3.4365237,-5.2494717
bagnet33,1,237,NaN,clock,bottle,c05,0237_cop_dnn_c05_bottle_10_n04591713_4019.png,n04591713_4019.png,0.0,1.2193365,2.289607,-0.7567956
bagnet33,1,238,NaN,clock,dog,c03,0238_cop_dnn_c03_dog_10_n02113712_4486.png,n02113712_4486.png,0.0,-1.1108344,3.4326813,-3.212751
bagnet33,1,239,NaN,bottle,chair,c50,0239_cop_dnn_c50_chair_10_n03376595_13018.png,n03376595_13018.png,0.0,0.78780603,5.983555,-3.6739492
bagnet33,1,240,NaN,oven,oven,c50,0240_cop_dnn_c50_oven_10_n04111531_7421.png,n04111531_7421.png,1.0,4.358508,2.8099463,1.0949986
bagnet33,1,241,NaN,knife,cat,c01,0241_cop_dnn_c01_cat_10_n02123045_10689.png,n02123045_10689.png,0.0,-0.98063487,4.07831,-3.5772142
bagnet33,1,242,NaN,clock,clock,c05,0242_cop_dnn_c05_clock_10_n02708093_4391.png,n02708093_4391.png,1.0,3.3261735,2.1430302,0.8366087
bagnet33,1,243,NaN,clock,clock,c50,0243_cop_dnn_c50_clock_10_n02708093_3759.png,n02708093_3759.png,1.0,12.740848,10.073537,1.8860735
bagnet33,1,244,NaN,clock,elephant,c05,0244_cop_dnn_c05_elephant_10_n02504013_648.png,n02504013_648.png,0.0,2.6384978,3.1852474,-0.38661036
bagnet33,1,245,NaN,clock,bottle,c01,0245_cop_dnn_c01_bottle_10_n04591713_1879.png,n04591713_1879.png,0.0,2.301803,3.595747,-0.9149565
bagnet33,1,246,NaN,clock,dog,c01,0246_cop_dnn_c01_dog_10_n02110627_20194.png,n02110627_20194.png,0.0,-1.1681288,3.8147013,-3.523393
bagnet33,1,247,NaN,airplane,truck,c50,0247_cop_dnn_c50_truck_10_n03796401_13298.png,n03796401_13298.png,0.0,5.2652225,5.5004253,-0.16631348
bagnet33,1,248,NaN,chair,chair,c100,0248_cop_dnn_c100_chair_10_n03376595_7824.png,n03376595_7824.png,1.0,7.527643,6.416358,0.7857973
bagnet33,1,249,NaN,clock,bear,c05,0249_cop_dnn_c05_bear_10_n02134418_6252.png,n02134418_6252.png,0.0,-1.756999,2.5750644,-3.0632317
bagnet33,1,250,NaN,bird,bird,c50,0250_cop_dnn_c50_bird_10_n01855032_1815.png,n01855032_1815.png,1.0,3.3612995,3.2424843,0.08401503
bagnet33,1,251,NaN,car,car,c100,0251_cop_dnn_c100_car_10_n03100240_6773.png,n03100240_6773.png,1.0,15.132642,9.235456,4.16994
bagnet33,1,252,NaN,clock,keyboard,c03,0252_cop_dnn_c03_keyboard_10_n03085013_22438.png,n03085013_22438.png,0.0,-0.19026715,3.63326,-2.703642
bagnet33,1,253,NaN,knife,keyboard,c01,0253_cop_dnn_c01_keyboard_10_n04505470_4950.png,n04505470_4950.png,0.0,-0.54071903,3.604342,-2.9310007
bagnet33,1,254,NaN,airplane,truck,c03,0254_cop_dnn_c03_truck_10_n04467665_22358.png,n04467665_22358.png,0.0,-1.3441719,3.0267208,-3.0906878
bagnet33,1,255,NaN,airplane,truck,c15,0255_cop_dnn_c15_truck_10_n04467665_67969.png,n04467665_67969.png,0.0,0.7531688,3.6574473,-2.0536351
bagnet33,1,256,NaN,clock,elephant,c10,0256_cop_dnn_c10_elephant_10_n02504013_2128.png,n02504013_2128.png,0.0,0.37945184,3.237108,-2.020668
bagnet33,1,257,NaN,airplane,car,c30,0257_cop_dnn_c30_car_10_n03100240_3499.png,n03100240_3499.png,0.0,4.8032417,7.99014,-2.2534773
bagnet33,1,258,NaN,elephant,bear,c50,0258_cop_dnn_c50_bear_10_n02134084_7250.png,n02134084_7250.png,0.0,2.171671,3.3382936,-0.8249268
bagnet33,1,259,NaN,clock,bicycle,c15,0259_cop_dnn_c15_bicycle_10_n03792782_43279.png,n03792782_43279.png,0.0,1.5518708,2.7715843,-0.86246765
bagnet33,1,260,NaN,cat,cat,c50,0260_cop_dnn_c50_cat_10_n02123045_1274.png,n02123045_1274.png,1.0,6.093901,2.8106756,2.3215911
bagnet33,1,261,NaN,oven,oven,c100,0261_cop_dnn_c100_oven_10_n04111531_6567.png,n04111531_6567.png,1.0,14.268898,8.750226,3.9022903
bagnet33,1,262,NaN,knife,knife,c100,0262_cop_dnn_c100_knife_10_n03041632_86338.png,n03041632_86338.png,1.0,7.73679,7.064491,0.47538745
bagnet33,1,263,NaN,clock,chair,c15,0263_cop_dnn_c15_chair_10_n02791124_9757.png,n02791124_9757.png,0.0,3.1574948,3.2652874,-0.07622089
bagnet33,1,264,NaN,clock,knife,c15,0264_cop_dnn_c15_knife_10_n03041632_45090.png,n03041632_45090.png,0.0,3.8662057,4.2065563,-0.24066424
bagnet33,1,265,NaN,clock,bicycle,c01,0265_cop_dnn_c01_bicycle_10_n02835271_1436.png,n02835271_1436.png,0.0,-1.2771223,3.500157,-3.3780468
bagnet33,1,266,NaN,clock,bird,c03,0266_cop_dnn_c03_bird_10_n01798484_8189.png,n01798484_8189.png,0.0,0.12030322,3.6881244,-2.5228307
bagnet33,1,267,NaN,knife,bird,c15,0267_cop_dnn_c15_bird_10_n01819313_1282.png,n01819313_1282.png,0.0,-0.5885569,2.654686,-2.293319
bagnet33,1,268,NaN,bottle,bottle,c100,0268_cop_dnn_c100_bottle_10_n03983396_11519.png,n03983396_11519.png,1.0,21.35198,6.6898766,10.367673
bagnet33,1,269,NaN,clock,boat,c05,0269_cop_dnn_c05_boat_10_n03344393_7735.png,n03344393_7735.png,0.0,0.7292267,3.113348,-1.6858284
bagnet33,1,270,NaN,airplane,bottle,c05,0270_cop_dnn_c05_bottle_10_n04560804_21795.png,n04560804_21795.png,0.0,2.551058,3.2951603,-0.52615976
bagnet33,1,271,NaN,chair,chair,c30,0271_cop_dnn_c30_chair_10_n02791124_4109.png,n02791124_4109.png,1.0,7.7581472,3.4366271,3.0557761
bagnet33,1,272,NaN,knife,keyboard,c03,0272_cop_dnn_c03_keyboard_10_n04505470_9663.png,n04505470_9663.png,0.0,0.54042476,3.5746465,-2.1455188
bagnet33,1,273,NaN,airplane,knife,c15,0273_cop_dnn_c15_knife_10_n03041632_27709.png,n03041632_27709.png,0.0,2.915141,7.655127,-3.3516762
bagnet33,1,274,NaN,airplane,airplane,c50,0274_cop_dnn_c50_airplane_10_n02690373_8539.png,n02690373_8539.png,1.0,10.020448,6.1046333,2.768899
bagnet33,1,275,NaN,clock,bear,c15,0275_cop_dnn_c15_bear_10_n02134418_2175.png,n02134418_2175.png,0.0,1.8315644,2.272278,-0.31163162
bagnet33,1,276,NaN,elephant,elephant,c50,0276_cop_dnn_c50_elephant_10_n02504458_2875.png,n02504458_2875.png,1.0,12.065893,3.5552287,6.017948
bagnet33,1,277,NaN,clock,chair,c03,0277_cop_dnn_c03_chair_10_n02791124_5868.png,n02791124_5868.png,0.0,0.785939,3.2664516,-1.7539873
bagnet33,1,278,NaN,knife,cat,c10,0278_cop_dnn_c10_cat_10_n02123597_488.png,n02123597_488.png,0.0,0.10349846,3.180121,-2.1755006
bagnet33,1,279,NaN,airplane,oven,c30,0279_cop_dnn_c30_oven_10_n04111531_6500.png,n04111531_6500.png,0.0,-0.30981672,3.075233,-2.3935916
bagnet33,1,280,NaN,clock,bicycle,c15,0280_cop_dnn_c15_bicycle_10_n03792782_13002.png,n03792782_13002.png,0.0,2.0623717,2.912063,-0.6008224
bagnet33,1,281,NaN,clock,clock,c05,0281_cop_dnn_c05_clock_10_n03196217_10641.png,n03196217_10641.png,1.0,4.281277,2.951869,0.94003356
bagnet33,1,282,NaN,airplane,bicycle,c15,0282_cop_dnn_c15_bicycle_10_n03792782_20193.png,n03792782_20193.png,0.0,3.970364,6.0896454,-1.4985582
bagnet33,1,283,NaN,clock,truck,c05,0283_cop_dnn_c05_truck_10_n03417042_13806.png,n03417042_13806.png,0.0,-0.52737975,3.7477057,-3.022942
bagnet33,1,284,NaN,clock,truck,c05,0284_cop_dnn_c05_truck_10_n04467665_70237.png,n04467665_70237.png,0.0,-1.0139138,3.0328186,-2.861472
bagnet33,1,285,NaN,clock,truck,c01,0285_cop_dnn_c01_truck_10_n04467665_3720.png,n04467665_3720.png,0.0,-2.636095,3.3954365,-4.264937
bagnet33,1,286,NaN,elephant,bear,c10,0286_cop_dnn_c10_bear_10_n02132136_8975.png,n02132136_8975.png,0.0,2.1569388,3.559362,-0.9916629
bagnet33,1,287,NaN,clock,knife,c05,0287_cop_dnn_c05_knife_10_n03041632_18859.png,n03041632_18859.png,0.0,2.9720676,3.0643637,-0.06526322
bagnet33,1,288,NaN,elephant,bear,c50,0288_cop_dnn_c50_bear_10_n02132136_29760.png,n02132136_29760.png,0.0,4.905872,10.075426,-3.655427
bagnet33,1,289,NaN,knife,boat,c05,0289_cop_dnn_c05_boat_10_n04273569_6586.png,n04273569_6586.png,0.0,-0.873736,3.380698,-3.0083392
bagnet33,1,290,NaN,clock,bottle,c05,0290_cop_dnn_c05_bottle_10_n03983396_11137.png,n03983396_11137.png,0.0,2.1392674,2.8713696,-0.5176744
bagnet33,1,291,NaN,clock,clock,c10,0291_cop_dnn_c10_clock_10_n03196217_4232.png,n03196217_4232.png,1.0,3.775151,2.4874141,0.9105675
bagnet33,1,292,NaN,knife,clock,c01,0292_cop_dnn_c01_clock_10_n04548280_1325.png,n04548280_1325.png,0.0,3.336223,3.984428,-0.45835018
bagnet33,1,293,NaN,airplane,airplane,c100,0293_cop_dnn_c100_airplane_10_n02690373_2268.png,n02690373_2268.png,1.0,16.71178,7.708922,6.365983
bagnet33,1,294,NaN,knife,bicycle,c10,0294_cop_dnn_c10_bicycle_10_n03792782_14557.png,n03792782_14557.png,0.0,0.11060972,2.6225252,-1.7761924
bagnet33,1,295,NaN,knife,cat,c01,0295_cop_dnn_c01_cat_10_n02124075_13792.png,n02124075_13792.png,0.0,-1.266764,4.107233,-3.79999
bagnet33,1,296,NaN,clock,dog,c01,0296_cop_dnn_c01_dog_10_n02110185_14953.png,n02110185_14953.png,0.0,-1.1697894,3.8626165,-3.5584483
bagnet33,1,297,NaN,bottle,bottle,c15,0297_cop_dnn_c15_bottle_10_n04557648_1634.png,n04557648_1634.png,1.0,3.2674124,2.1307273,0.8037578
bagnet33,1,298,NaN,bicycle,bicycle,c50,0298_cop_dnn_c50_bicycle_10_n02835271_1701.png,n02835271_1701.png,1.0,8.567537,4.942479,2.5633032
bagnet33,1,299,NaN,clock,boat,c05,0299_cop_dnn_c05_boat_10_n04273569_7312.png,n04273569_7312.png,0.0,0.09995079,2.987646,-2.041909
bagnet33,1,300,NaN,bird,bird,c100,0300_cop_dnn_c100_bird_10_n01616318_5417.png,n01616318_5417.png,1.0,5.0363693,3.0271173,1.4207557
bagnet33,1,301,NaN,cat,cat,c15,0301_cop_dnn_c15_cat_10_n02123045_12200.png,n02123045_12200.png,1.0,11.070893,2.4833074,6.07234
bagnet33,1,302,NaN,airplane,dog,c30,0302_cop_dnn_c30_dog_10_n02102480_8264.png,n02102480_8264.png,0.0,-0.054197803,1.9574902,-1.4224782
bagnet33,1,303,NaN,bicycle,bicycle,c30,0303_cop_dnn_c30_bicycle_10_n03792782_5426.png,n03792782_5426.png,1.0,6.508259,3.1451159,2.3781013
bagnet33,1,304,NaN,clock,clock,c05,0304_cop_dnn_c05_clock_10_n02708093_8038.png,n02708093_8038.png,1.0,2.3879764,2.1789439,0.14780833
bagnet33,1,305,NaN,airplane,bicycle,c30,0305_cop_dnn_c30_bicycle_10_n02835271_2764.png,n02835271_2764.png,0.0,2.6260595,5.0059724,-1.6828525
bagnet33,1,306,NaN,knife,knife,c50,0306_cop_dnn_c50_knife_10_n03041632_39836.png,n03041632_39836.png,1.0,10.879688,4.904278,4.225253
bagnet33,1,307,NaN,clock,bicycle,c01,0307_cop_dnn_c01_bicycle_10_n03792782_19040.png,n03792782_19040.png,0.0,-1.5269711,3.4189427,-3.4972892
bagnet33,1,308,NaN,clock,cat,c01,0308_cop_dnn_c01_cat_10_n02125311_28331.png,n02125311_28331.png,0.0,0.068098426,3.6717513,-2.5481675
bagnet33,1,309,NaN,knife,knife,c01,0309_cop_dnn_c01_knife_10_n03041632_18126.png,n03041632_18126.png,1.0,3.7356582,3.492696,0.17180017
bagnet33,1,310,NaN,bicycle,bicycle,c30,0310_cop_dnn_c30_bicycle_10_n03792782_19253.png,n03792782_19253.png,1.0,7.8145294,2.5805054,3.701014
bagnet33,1,311,NaN,knife,bottle,c01,0311_cop_dnn_c01_bottle_10_n03983396_751.png,n03983396_751.png,0.0,2.0460615,3.7362852,-1.1951686
bagnet33,1,312,NaN,airplane,car,c15,0312_cop_dnn_c15_car_10_n04285008_628.png,n04285008_628.png,0.0,3.088112,7.0743933,-2.8187265
bagnet33,1,313,NaN,airplane,boat,c15,0313_cop_dnn_c15_boat_10_n03662601_3011.png,n03662601_3011.png,0.0,1.4073572,3.1650681,-1.2428893
bagnet33,1,314,NaN,bottle,bottle,c10,0314_cop_dnn_c10_bottle_10_n04557648_2904.png,n04557648_2904.png,1.0,3.668251,3.65523,0.009207232
bagnet33,1,315,NaN,clock,bird,c10,0315_cop_dnn_c10_bird_10_n02002556_9804.png,n02002556_9804.png,0.0,0.044893652,2.61024,-1.8139738
bagnet33,1,316,NaN,knife,truck,c05,0316_cop_dnn_c05_truck_10_n04467665_8955.png,n04467665_8955.png,0.0,-1.7710873,2.6040072,-3.093659
bagnet33,1,317,NaN,clock,boat,c03,0317_cop_dnn_c03_boat_10_n04612504_15061.png,n04612504_15061.png,0.0,-0.41900188,2.973798,-2.399072
bagnet33,1,318,NaN,clock,bird,c05,0318_cop_dnn_c05_bird_10_n02002556_1437.png,n02002556_1437.png,0.0,0.1847793,3.3726056,-2.2541335
bagnet33,1,319,NaN,airplane,truck,c50,0319_cop_dnn_c50_truck_10_n03417042_10993.png,n03417042_10993.png,0.0,3.552421,5.35102,-1.2718014
bagnet33,1,320,NaN,airplane,chair,c10,0320_cop_dnn_c10_chair_10_n02791124_880.png,n02791124_880.png,0.0,2.3781238,3.3544295,-0.6903524
bagnet33,1,321,NaN,bicycle,bicycle,c50,0321_cop_dnn_c50_bicycle_10_n03792782_4826.png,n03792782_4826.png,1.0,12.370592,2.7665963,6.791051
bagnet33,1,322,NaN,clock,chair,c03,0322_cop_dnn_c03_chair_10_n04099969_3804.png,n04099969_3804.png,0.0,0.1599443,3.1454678,-2.111084
bagnet33,1,323,NaN,bottle,bottle,c10,0323_cop_dnn_c10_bottle_10_n02823428_2504.png,n02823428_2504.png,1.0,6.529395,3.6380398,2.044497
bagnet33,1,324,NaN,knife,cat,c10,0324_cop_dnn_c10_cat_10_n02124075_9716.png,n02124075_9716.png,0.0,3.0409908,3.3812647,-0.24060996
bagnet33,1,325,NaN,clock,knife,c01,0325_cop_dnn_c01_knife_10_n03041632_81630.png,n03041632_81630.png,0.0,3.5329409,3.7985964,-0.18784682
bagnet33,1,326,NaN,bottle,bottle,c30,0326_cop_dnn_c30_bottle_10_n04591713_457.png,n04591713_457.png,1.0,5.1733484,3.5149815,1.1726425
bagnet33,1,327,NaN,chair,elephant,c30,0327_cop_dnn_c30_elephant_10_n02504458_5337.png,n02504458_5337.png,0.0,2.401028,2.8449688,-0.3139136
bagnet33,1,328,NaN,clock,clock,c15,0328_cop_dnn_c15_clock_10_n02708093_5429.png,n02708093_5429.png,1.0,10.61772,5.8448853,3.3749034
bagnet33,1,329,NaN,oven,oven,c100,0329_cop_dnn_c100_oven_10_n04111531_9411.png,n04111531_9411.png,1.0,14.15807,5.7354383,5.9557
bagnet33,1,330,NaN,knife,knife,c01,0330_cop_dnn_c01_knife_10_n03041632_2338.png,n03041632_2338.png,1.0,4.01845,3.630954,0.27400088
bagnet33,1,331,NaN,cat,cat,c100,0331_cop_dnn_c100_cat_10_n02123394_2755.png,n02123394_2755.png,1.0,14.991894,1.9684575,9.208961
bagnet33,1,332,NaN,clock,elephant,c05,0332_cop_dnn_c05_elephant_10_n02504458_10243.png,n02504458_10243.png,0.0,-2.1764176,2.782254,-3.5063105
bagnet33,1,333,NaN,chair,oven,c15,0333_cop_dnn_c15_oven_10_n04111531_1752.png,n04111531_1752.png,0.0,2.9364831,3.938663,-0.7086482
bagnet33,1,334,NaN,knife,bird,c05,0334_cop_dnn_c05_bird_10_n02037110_6736.png,n02037110_6736.png,0.0,0.44814566,2.5838053,-1.5101395
bagnet33,1,335,NaN,airplane,airplane,c10,0335_cop_dnn_c10_airplane_10_n02690373_8804.png,n02690373_8804.png,1.0,8.129183,4.8307004,2.3323793
bagnet33,1,336,NaN,elephant,elephant,c100,0336_cop_dnn_c100_elephant_10_n02504458_12217.png,n02504458_12217.png,1.0,6.078925,3.666193,1.7060592
bagnet33,1,337,NaN,chair,knife,c15,0337_cop_dnn_c15_knife_10_n03041632_84012.png,n03041632_84012.png,0.0,2.102665,2.7505975,-0.45815748
bagnet33,1,338,NaN,dog,dog,c50,0338_cop_dnn_c50_dog_10_n02093991_6192.png,n02093991_6192.png,1.0,7.72961,5.3986883,1.6482105
bagnet33,1,339,NaN,bird,bird,c50,0339_cop_dnn_c50_bird_10_n02027492_6499.png,n02027492_6499.png,1.0,4.28908,1.3582418,2.0724156
bagnet33,1,340,NaN,clock,knife,c10,0340_cop_dnn_c10_knife_10_n03041632_46185.png,n03041632_46185.png,0.0,3.4824347,3.8401115,-0.25291565
bagnet33,1,341,NaN,knife,bear,c30,0341_cop_dnn_c30_bear_10_n02134084_14775.png,n02134084_14775.png,0.0,-0.58542174,2.7008662,-2.3237567
bagnet33,1,342,NaN,airplane,truck,c30,0342_cop_dnn_c30_truck_10_n03417042_5346.png,n03417042_5346.png,0.0,8.254282,9.714764,-1.0327165
bagnet33,1,343,NaN,dog,dog,c30,0343_cop_dnn_c30_dog_10_n02093991_9672.png,n02093991_9672.png,1.0,4.458,2.9583178,1.0604357
bagnet33,1,344,NaN,elephant,elephant,c100,0344_cop_dnn_c100_elephant_10_n02504458_2031.png,n02504458_2031.png,1.0,24.826693,2.4942055,15.791453
bagnet33,1,345,NaN,clock,bird,c03,0345_cop_dnn_c03_bird_10_n02025239_660.png,n02025239_660.png,0.0,0.24512903,3.4319935,-2.2534535
bagnet33,1,346,NaN,clock,elephant,c01,0346_cop_dnn_c01_elephant_10_n02504458_4244.png,n02504458_4244.png,0.0,-2.1797876,3.6065915,-4.091588
bagnet33,1,347,NaN,knife,elephant,c30,0347_cop_dnn_c30_elephant_10_n02504013_7539.png,n02504013_7539.png,0.0,3.4448993,3.4740858,-0.020637963
bagnet33,1,348,NaN,clock,bird,c03,0348_cop_dnn_c03_bird_10_n02002724_5876.png,n02002724_5876.png,0.0,-0.009523247,3.2574847,-2.3101234
bagnet33,1,349,NaN,bird,bird,c10,0349_cop_dnn_c10_bird_10_n01532829_560.png,n01532829_560.png,1.0,2.5110893,2.0327175,0.33826
bagnet33,1,350,NaN,boat,boat,c30,0350_cop_dnn_c30_boat_10_n04273569_1709.png,n04273569_1709.png,1.0,3.2069297,2.062052,0.80955076
bagnet33,1,351,NaN,bicycle,bicycle,c50,0351_cop_dnn_c50_bicycle_10_n02835271_7958.png,n02835271_7958.png,1.0,6.0928674,3.7559369,1.6524594
bagnet33,1,352,NaN,bicycle,bear,c30,0352_cop_dnn_c30_bear_10_n02133161_12157.png,n02133161_12157.png,0.0,1.3008906,3.3621173,-1.4575075
bagnet33,1,353,NaN,clock,chair,c01,0353_cop_dnn_c01_chair_10_n04099969_4577.png,n04099969_4577.png,0.0,0.52606094,3.6918583,-2.2385566
bagnet33,1,354,NaN,knife,bicycle,c01,0354_cop_dnn_c01_bicycle_10_n02835271_10283.png,n02835271_10283.png,0.0,-1.4323487,3.8657026,-3.746288
bagnet33,1,355,NaN,truck,truck,c100,0355_cop_dnn_c100_truck_10_n03417042_23815.png,n03417042_23815.png,1.0,5.008973,4.2822714,0.51385576
bagnet33,1,356,NaN,clock,bear,c03,0356_cop_dnn_c03_bear_10_n02133161_1059.png,n02133161_1059.png,0.0,-2.1335213,3.6826966,-4.112687
bagnet33,1,357,NaN,clock,chair,c01,0357_cop_dnn_c01_chair_10_n02791124_5173.png,n02791124_5173.png,0.0,-0.22595507,3.373422,-2.5451438
bagnet33,1,358,NaN,bottle,bottle,c30,0358_cop_dnn_c30_bottle_10_n03983396_5545.png,n03983396_5545.png,1.0,7.167001,4.2818594,2.040103
bagnet33,1,359,NaN,knife,airplane,c01,0359_cop_dnn_c01_airplane_10_n02690373_1797.png,n02690373_1797.png,0.0,1.9514914,3.8310127,-1.3290223
bagnet33,1,360,NaN,clock,oven,c05,0360_cop_dnn_c05_oven_10_n04111531_6628.png,n04111531_6628.png,0.0,-3.4000611,3.0870144,-4.587055
bagnet33,1,361,NaN,clock,elephant,c10,0361_cop_dnn_c10_elephant_10_n02504458_7817.png,n02504458_7817.png,0.0,-1.3260313,3.0378742,-3.0857472
bagnet33,1,362,NaN,knife,knife,c50,0362_cop_dnn_c50_knife_10_n03041632_4714.png,n03041632_4714.png,1.0,5.4081383,1.4131773,2.8248641
bagnet33,1,363,NaN,clock,bear,c03,0363_cop_dnn_c03_bear_10_n02134084_169.png,n02134084_169.png,0.0,-2.4338984,3.3247964,-4.072012
bagnet33,1,364,NaN,knife,bird,c15,0364_cop_dnn_c15_bird_10_n02013706_8336.png,n02013706_8336.png,0.0,0.42856863,2.62415,-1.5525105
bagnet33,1,365,NaN,bottle,bottle,c15,0365_cop_dnn_c15_bottle_10_n04579145_6880.png,n04579145_6880.png,1.0,5.5747995,3.7941961,1.2590767
bagnet33,1,366,NaN,clock,dog,c05,0366_cop_dnn_c05_dog_10_n02105641_416.png,n02105641_416.png,0.0,-0.965092,3.078921,-2.859549
bagnet33,1,367,NaN,clock,airplane,c10,0367_cop_dnn_c10_airplane_10_n02690373_6549.png,n02690373_6549.png,0.0,2.5955606,2.6480248,-0.037097827
bagnet33,1,368,NaN,clock,clock,c01,0368_cop_dnn_c01_clock_10_n04548280_2374.png,n04548280_2374.png,1.0,4.0351796,3.5067506,0.37365577
bagnet33,1,369,NaN,bottle,bottle,c30,0369_cop_dnn_c30_bottle_10_n03983396_6287.png,n03983396_6287.png,1.0,12.928427,5.0386705,5.5789003
bagnet33,1,370,NaN,clock,dog,c01,0370_cop_dnn_c01_dog_10_n02090622_1126.png,n02090622_1126.png,0.0,-1.2065809,3.6787403,-3.4544437
bagnet33,1,371,NaN,truck,truck,c50,0371_cop_dnn_c50_truck_10_n03796401_1681.png,n03796401_1681.png,1.0,14.931836,13.239681,1.1965342
bagnet33,1,372,NaN,elephant,elephant,c30,0372_cop_dnn_c30_elephant_10_n02504013_5537.png,n02504013_5537.png,1.0,13.526358,3.0194275,7.429522
bagnet33,1,373,NaN,clock,keyboard,c05,0373_cop_dnn_c05_keyboard_10_n03085013_12399.png,n03085013_12399.png,0.0,-0.25125754,2.7311041,-2.1088483
bagnet33,1,374,NaN,bottle,oven,c15,0374_cop_dnn_c15_oven_10_n04111531_6094.png,n04111531_6094.png,0.0,1.8157477,4.000878,-1.5451204
bagnet33,1,375,NaN,knife,airplane,c03,0375_cop_dnn_c03_airplane_10_n02690373_13604.png,n02690373_13604.png,0.0,2.2481825,3.4524956,-0.85157794
bagnet33,1,376,NaN,bear,bear,c100,0376_cop_dnn_c100_bear_10_n02134084_16084.png,n02134084_16084.png,1.0,9.098247,8.839089,0.1832518
bagnet33,1,377,NaN,knife,boat,c01,0377_cop_dnn_c01_boat_10_n04273569_15906.png,n04273569_15906.png,0.0,-0.7379855,3.5013351,-2.9976525
bagnet33,1,378,NaN,clock,dog,c05,0378_cop_dnn_c05_dog_10_n02105162_8899.png,n02105162_8899.png,0.0,-1.0275064,3.3349502,-3.0847225
bagnet33,1,379,NaN,clock,oven,c03,0379_cop_dnn_c03_oven_10_n04111531_7619.png,n04111531_7619.png,0.0,-3.4788404,3.0967216,-4.6496243
bagnet33,1,380,NaN,clock,elephant,c05,0380_cop_dnn_c05_elephant_10_n02504458_1816.png,n02504458_1816.png,0.0,-1.231931,3.3859913,-3.2653642
bagnet33,1,381,NaN,oven,cat,c30,0381_cop_dnn_c30_cat_10_n02123045_3575.png,n02123045_3575.png,0.0,0.02088199,3.4106796,-2.396949
bagnet33,1,382,NaN,clock,truck,c01,0382_cop_dnn_c01_truck_10_n03417042_908.png,n03417042_908.png,0.0,-2.7047644,3.4783533,-4.3721247
bagnet33,1,383,NaN,clock,boat,c03,0383_cop_dnn_c03_boat_10_n03344393_4213.png,n03344393_4213.png,0.0,-0.3675355,3.1955364,-2.5194724
bagnet33,1,384,NaN,knife,knife,c01,0384_cop_dnn_c01_knife_10_n03041632_31483.png,n03041632_31483.png,1.0,3.9838338,3.5056198,0.3381484
bagnet33,1,385,NaN,knife,bottle,c01,0385_cop_dnn_c01_bottle_10_n03937543_986.png,n03937543_986.png,0.0,2.9527586,4.107602,-0.81659776
bagnet33,1,386,NaN,airplane,truck,c15,0386_cop_dnn_c15_truck_10_n03796401_7381.png,n03796401_7381.png,0.0,7.496046,9.496679,-1.4146614
bagnet33,1,387,NaN,clock,dog,c03,0387_cop_dnn_c03_dog_10_n02094433_9787.png,n02094433_9787.png,0.0,-1.1148095,3.7716486,-3.4552479
bagnet33,1,388,NaN,bottle,bird,c30,0388_cop_dnn_c30_bird_10_n02011460_11838.png,n02011460_11838.png,0.0,-0.35088038,3.9979184,-3.0750651
bagnet33,1,389,NaN,elephant,cat,c30,0389_cop_dnn_c30_cat_10_n02123597_29513.png,n02123597_29513.png,0.0,1.8697786,3.5246322,-1.1701583
bagnet33,1,390,NaN,bottle,chair,c10,0390_cop_dnn_c10_chair_10_n04429376_5337.png,n04429376_5337.png,0.0,2.4345489,3.6675599,-0.87187046
bagnet33,1,391,NaN,clock,knife,c03,0391_cop_dnn_c03_knife_10_n03041632_4260.png,n03041632_4260.png,0.0,3.0105076,3.5411289,-0.3752059
bagnet33,1,392,NaN,airplane,keyboard,c10,0392_cop_dnn_c10_keyboard_10_n04505470_4061.png,n04505470_4061.png,0.0,2.476507,5.0861325,-1.845284
bagnet33,1,393,NaN,airplane,boat,c15,0393_cop_dnn_c15_boat_10_n03344393_6467.png,n03344393_6467.png,0.0,2.7638748,3.98556,-0.86386186
bagnet33,1,394,NaN,bicycle,bicycle,c100,0394_cop_dnn_c100_bicycle_10_n03792782_11297.png,n03792782_11297.png,1.0,11.3665,3.8397174,5.322239
bagnet33,1,395,NaN,clock,bicycle,c03,0395_cop_dnn_c03_bicycle_10_n03792782_8357.png,n03792782_8357.png,0.0,-1.3310422,3.6431656,-3.517296
bagnet33,1,396,NaN,bottle,dog,c10,0396_cop_dnn_c10_dog_10_n02108422_2739.png,n02108422_2739.png,0.0,-0.71283364,2.270686,-2.109667
bagnet33,1,397,NaN,clock,bear,c03,0397_cop_dnn_c03_bear_10_n02134084_6840.png,n02134084_6840.png,0.0,-2.688179,3.9193413,-4.672222
bagnet33,1,398,NaN,elephant,bear,c30,0398_cop_dnn_c30_bear_10_n02133161_5365.png,n02133161_5365.png,0.0,0.9002365,3.9672308,-2.1686924
bagnet33,1,399,NaN,bottle,bottle,c30,0399_cop_dnn_c30_bottle_10_n04560804_1010.png,n04560804_1010.png,1.0,4.525955,3.1479468,0.9743991
bagnet33,1,400,NaN,clock,clock,c10,0400_cop_dnn_c10_clock_10_n04548280_183.png,n04548280_183.png,1.0,5.750356,4.1317363,1.1445371
bagnet33,1,401,NaN,clock,keyboard,c100,0401_cop_dnn_c100_keyboard_10_n03085013_21534.png,n03085013_21534.png,0.0,16.240707,17.189451,-0.6708632
bagnet33,1,402,NaN,keyboard,keyboard,c50,0402_cop_dnn_c50_keyboard_10_n03085013_24111.png,n03085013_24111.png,1.0,5.8972626,5.3390737,0.3946992
bagnet33,1,403,NaN,knife,knife,c15,0403_cop_dnn_c15_knife_10_n03041632_28009.png,n03041632_28009.png,1.0,3.1299133,2.9713955,0.11208904
bagnet33,1,404,NaN,elephant,cat,c50,0404_cop_dnn_c50_cat_10_n02123159_7647.png,n02123159_7647.png,0.0,4.450993,5.2538147,-0.56768066
bagnet33,1,405,NaN,clock,bottle,c01,0405_cop_dnn_c01_bottle_10_n02823428_8696.png,n02823428_8696.png,0.0,2.2300854,3.096885,-0.61291987
bagnet33,1,406,NaN,clock,elephant,c15,0406_cop_dnn_c15_elephant_10_n02504458_8923.png,n02504458_8923.png,0.0,3.8093762,4.6192613,-0.5726752
bagnet33,1,407,NaN,clock,bear,c01,0407_cop_dnn_c01_bear_10_n02134084_5031.png,n02134084_5031.png,0.0,-2.3741865,3.7452278,-4.3270793
bagnet33,1,408,NaN,elephant,dog,c50,0408_cop_dnn_c50_dog_10_n02097209_1658.png,n02097209_1658.png,0.0,1.0223274,4.8194094,-2.6849425
bagnet33,1,409,NaN,clock,dog,c05,0409_cop_dnn_c05_dog_10_n02099849_6384.png,n02099849_6384.png,0.0,-1.0295734,3.1596744,-2.9622457
bagnet33,1,410,NaN,elephant,elephant,c15,0410_cop_dnn_c15_elephant_10_n02504013_3459.png,n02504013_3459.png,1.0,5.6999373,3.2444592,1.7362853
bagnet33,1,411,NaN,clock,knife,c03,0411_cop_dnn_c03_knife_10_n03041632_36390.png,n03041632_36390.png,0.0,2.82683,3.4888077,-0.46808898
bagnet33,1,412,NaN,knife,knife,c100,0412_cop_dnn_c100_knife_10_n03041632_10263.png,n03041632_10263.png,1.0,6.712211,3.614229,2.1906042
bagnet33,1,413,NaN,clock,cat,c03,0413_cop_dnn_c03_cat_10_n02123045_840.png,n02123045_840.png,0.0,0.50938267,3.0966997,-1.8295094
bagnet33,1,414,NaN,clock,clock,c05,0414_cop_dnn_c05_clock_10_n04548280_4758.png,n04548280_4758.png,1.0,4.3615155,3.1448216,0.8603325
bagnet33,1,415,NaN,elephant,bear,c50,0415_cop_dnn_c50_bear_10_n02133161_1247.png,n02133161_1247.png,0.0,-0.043335423,4.2508535,-3.0364501
bagnet33,1,416,NaN,airplane,airplane,c10,0416_cop_dnn_c10_airplane_10_n02690373_6716.png,n02690373_6716.png,1.0,5.779437,2.285449,2.4706228
bagnet33,1,417,NaN,keyboard,keyboard,c30,0417_cop_dnn_c30_keyboard_10_n04505470_4893.png,n04505470_4893.png,1.0,14.832323,5.3882484,6.6779695
bagnet33,1,418,NaN,chair,chair,c30,0418_cop_dnn_c30_chair_10_n04099969_34525.png,n04099969_34525.png,1.0,4.353904,4.238738,0.08143446
bagnet33,1,419,NaN,knife,airplane,c01,0419_cop_dnn_c01_airplane_10_n02690373_4793.png,n02690373_4793.png,0.0,2.0283055,3.9066505,-1.3281906
bagnet33,1,420,NaN,knife,knife,c15,0420_cop_dnn_c15_knife_10_n03041632_4787.png,n03041632_4787.png,1.0,3.0439534,2.6099598,0.30687982
bagnet33,1,421,NaN,clock,boat,c05,0421_cop_dnn_c05_boat_10_n04273569_20587.png,n04273569_20587.png,0.0,0.3612339,2.3688643,-1.4196091
bagnet33,1,422,NaN,clock,bicycle,c03,0422_cop_dnn_c03_bicycle_10_n03792782_4844.png,n03792782_4844.png,0.0,-1.2193402,3.1129878,-3.0634184
bagnet33,1,423,NaN,clock,cat,c01,0423_cop_dnn_c01_cat_10_n02123045_6066.png,n02123045_6066.png,0.0,-0.057889223,3.7159774,-2.6685266
bagnet33,1,424,NaN,boat,boat,c30,0424_cop_dnn_c30_boat_10_n04273569_17045.png,n04273569_17045.png,1.0,7.8913407,7.527173,0.25750545
bagnet33,1,425,NaN,keyboard,keyboard,c100,0425_cop_dnn_c100_keyboard_10_n04505470_5068.png,n04505470_5068.png,1.0,17.037172,10.251405,4.798262
bagnet33,1,426,NaN,airplane,airplane,c10,0426_cop_dnn_c10_airplane_10_n02690373_2724.png,n02690373_2724.png,1.0,5.969571,3.8181183,1.5213069
bagnet33,1,427,NaN,airplane,boat,c10,0427_cop_dnn_c10_boat_10_n03662601_4844.png,n03662601_4844.png,0.0,2.7118282,4.0947423,-0.9778679
bagnet33,1,428,NaN,chair,chair,c100,0428_cop_dnn_c100_chair_10_n04099969_3929.png,n04099969_3929.png,1.0,16.091465,6.4827137,6.794413
bagnet33,1,429,NaN,bottle,oven,c10,0429_cop_dnn_c10_oven_10_n04111531_9026.png,n04111531_9026.png,0.0,0.7856016,3.7577882,-2.1016533
bagnet33,1,430,NaN,knife,knife,c15,0430_cop_dnn_c15_knife_10_n03041632_51225.png,n03041632_51225.png,1.0,4.3699102,4.033921,0.23758043
bagnet33,1,431,NaN,airplane,boat,c10,0431_cop_dnn_c10_boat_10_n03344393_6638.png,n03344393_6638.png,0.0,1.923713,5.083563,-2.2343514
bagnet33,1,432,NaN,chair,knife,c30,0432_cop_dnn_c30_knife_10_n03041632_4590.png,n03041632_4590.png,0.0,6.6153283,7.6530333,-0.7337682
bagnet33,1,433,NaN,clock,clock,c03,0433_cop_dnn_c03_clock_10_n02708093_3761.png,n02708093_3761.png,1.0,3.190302,2.816122,0.2645851
bagnet33,1,434,NaN,clock,car,c03,0434_cop_dnn_c03_car_10_n04285008_3193.png,n04285008_3193.png,0.0,-1.9402703,3.239396,-3.6625774
bagnet33,1,435,NaN,knife,keyboard,c50,0435_cop_dnn_c50_keyboard_10_n03085013_661.png,n03085013_661.png,0.0,3.2883754,3.518425,-0.16266964
bagnet33,1,436,NaN,clock,bottle,c03,0436_cop_dnn_c03_bottle_10_n04557648_2355.png,n04557648_2355.png,0.0,2.2600024,3.5587165,-0.9183296
bagnet33,1,437,NaN,chair,dog,c30,0437_cop_dnn_c30_dog_10_n02107312_860.png,n02107312_860.png,0.0,-0.39093053,3.0510125,-2.4338214
bagnet33,1,438,NaN,boat,boat,c100,0438_cop_dnn_c100_boat_10_n02951358_1541.png,n02951358_1541.png,1.0,6.242167,3.8536177,1.6889595
bagnet33,1,439,NaN,airplane,boat,c15,0439_cop_dnn_c15_boat_10_n02951358_4972.png,n02951358_4972.png,0.0,2.2753253,4.3604913,-1.474435
bagnet33,1,440,NaN,bird,bear,c15,0440_cop_dnn_c15_bear_10_n02132136_6352.png,n02132136_6352.png,0.0,2.1730223,2.6300678,-0.32318002
bagnet33,1,441,NaN,clock,knife,c05,0441_cop_dnn_c05_knife_10_n03041632_27022.png,n03041632_27022.png,0.0,2.3427455,2.631361,-0.20408195
bagnet33,1,442,NaN,airplane,airplane,c15,0442_cop_dnn_c15_airplane_10_n02690373_10399.png,n02690373_10399.png,1.0,7.3272862,3.7222207,2.5491664
bagnet33,1,443,NaN,chair,keyboard,c30,0443_cop_dnn_c30_keyboard_10_n04505470_4803.png,n04505470_4803.png,0.0,3.7855253,4.7962165,-0.7146666
bagnet33,1,444,NaN,clock,bottle,c03,0444_cop_dnn_c03_bottle_10_n03937543_4916.png,n03937543_4916.png,0.0,3.025676,3.594422,-0.40216422
bagnet33,1,445,NaN,clock,dog,c10,0445_cop_dnn_c10_dog_10_n02092339_2268.png,n02092339_2268.png,0.0,-1.5215884,3.031022,-3.2191818
bagnet33,1,446,NaN,cat,cat,c100,0446_cop_dnn_c100_cat_10_n02123394_2034.png,n02123394_2034.png,1.0,8.297,1.8738298,4.5418673
bagnet33,1,447,NaN,knife,keyboard,c01,0447_cop_dnn_c01_keyboard_10_n03085013_24442.png,n03085013_24442.png,0.0,-0.70902836,3.6820292,-3.1049466
bagnet33,1,448,NaN,clock,bicycle,c03,0448_cop_dnn_c03_bicycle_10_n03792782_12908.png,n03792782_12908.png,0.0,-1.4762008,3.300085,-3.3773444
bagnet33,1,449,NaN,cat,cat,c50,0449_cop_dnn_c50_cat_10_n02124075_10241.png,n02124075_10241.png,1.0,12.344559,3.9006414,5.9707513
bagnet33,1,450,NaN,clock,keyboard,c03,0450_cop_dnn_c03_keyboard_10_n03085013_29941.png,n03085013_29941.png,0.0,-0.62587655,3.6669724,-3.0355027
bagnet33,1,451,NaN,clock,car,c05,0451_cop_dnn_c05_car_10_n03100240_5718.png,n03100240_5718.png,0.0,-1.0699759,3.2571735,-3.0597568
bagnet33,1,452,NaN,clock,bear,c01,0452_cop_dnn_c01_bear_10_n02133161_789.png,n02133161_789.png,0.0,-2.4071612,3.7726738,-4.3698034
bagnet33,1,453,NaN,chair,chair,c30,0453_cop_dnn_c30_chair_10_n04099969_9891.png,n04099969_9891.png,1.0,7.721631,2.1871595,3.9134624
bagnet33,1,454,NaN,knife,knife,c01,0454_cop_dnn_c01_knife_10_n03041632_8666.png,n03041632_8666.png,1.0,3.9583325,3.7048874,0.17921278
bagnet33,1,455,NaN,knife,car,c10,0455_cop_dnn_c10_car_10_n03100240_52.png,n03100240_52.png,0.0,-0.9299631,3.005477,-2.7827764
bagnet33,1,456,NaN,knife,bird,c10,0456_cop_dnn_c10_bird_10_n02007558_45529.png,n02007558_45529.png,0.0,0.8397537,1.5751073,-0.5199736
bagnet33,1,457,NaN,airplane,airplane,c15,0457_cop_dnn_c15_airplane_10_n02690373_1933.png,n02690373_1933.png,1.0,6.4377937,3.3183868,2.2057538
bagnet33,1,458,NaN,clock,elephant,c03,0458_cop_dnn_c03_elephant_10_n02504013_1879.png,n02504013_1879.png,0.0,-2.1889472,2.654184,-3.4246109
bagnet33,1,459,NaN,airplane,car,c10,0459_cop_dnn_c10_car_10_n03100240_3373.png,n03100240_3373.png,0.0,2.9650946,4.4963737,-1.0827779
bagnet33,1,460,NaN,knife,bicycle,c15,0460_cop_dnn_c15_bicycle_10_n03792782_7331.png,n03792782_7331.png,0.0,0.64395887,1.6669304,-0.72335017
bagnet33,1,461,NaN,knife,chair,c100,0461_cop_dnn_c100_chair_10_n03376595_11049.png,n03376595_11049.png,0.0,4.907312,5.4735622,-0.40039945
bagnet33,1,462,NaN,knife,knife,c50,0462_cop_dnn_c50_knife_10_n03041632_37274.png,n03041632_37274.png,1.0,5.879782,2.1418662,2.6431057
bagnet33,1,463,NaN,bottle,bottle,c15,0463_cop_dnn_c15_bottle_10_n02823428_780.png,n02823428_780.png,1.0,4.399448,3.770404,0.44480115
bagnet33,1,464,NaN,clock,cat,c05,0464_cop_dnn_c05_cat_10_n02123045_390.png,n02123045_390.png,0.0,0.007648746,3.394317,-2.394736
bagnet33,1,465,NaN,bird,bird,c30,0465_cop_dnn_c30_bird_10_n01796340_10024.png,n01796340_10024.png,1.0,1.842037,1.570545,0.19197384
bagnet33,1,466,NaN,clock,knife,c05,0466_cop_dnn_c05_knife_10_n03041632_13509.png,n03041632_13509.png,0.0,3.2932253,4.863823,-1.1105803
bagnet33,1,467,NaN,clock,bird,c05,0467_cop_dnn_c05_bird_10_n01534433_14198.png,n01534433_14198.png,0.0,0.3713263,3.0403092,-1.887256
bagnet33,1,468,NaN,chair,chair,c100,0468_cop_dnn_c100_chair_10_n04099969_2502.png,n04099969_2502.png,1.0,7.314354,2.529707,3.3832564
bagnet33,1,469,NaN,clock,cat,c05,0469_cop_dnn_c05_cat_10_n02123045_15474.png,n02123045_15474.png,0.0,1.8073756,3.0671966,-0.890828
bagnet33,1,470,NaN,clock,clock,c30,0470_cop_dnn_c30_clock_10_n02708093_442.png,n02708093_442.png,1.0,4.82254,3.1418192,1.1884489
bagnet33,1,471,NaN,keyboard,boat,c100,0471_cop_dnn_c100_boat_10_n02951358_12663.png,n02951358_12663.png,0.0,3.7792296,5.6544714,-1.3259962
bagnet33,1,472,NaN,clock,cat,c05,0472_cop_dnn_c05_cat_10_n02125311_37322.png,n02125311_37322.png,0.0,0.3210353,2.924062,-1.8406178
bagnet33,1,473,NaN,bicycle,bird,c100,0473_cop_dnn_c100_bird_10_n01558993_5185.png,n01558993_5185.png,0.0,-0.82346064,3.2115703,-2.8531978
bagnet33,1,474,NaN,elephant,elephant,c100,0474_cop_dnn_c100_elephant_10_n02504013_7248.png,n02504013_7248.png,1.0,9.206309,2.9371614,4.432957
bagnet33,1,475,NaN,knife,bottle,c01,0475_cop_dnn_c01_bottle_10_n02823428_4245.png,n02823428_4245.png,0.0,3.6350944,4.2139444,-0.4093088
bagnet33,1,476,NaN,chair,chair,c10,0476_cop_dnn_c10_chair_10_n04099969_8993.png,n04099969_8993.png,1.0,4.6563654,3.9030588,0.53266823
bagnet33,1,477,NaN,knife,dog,c30,0477_cop_dnn_c30_dog_10_n02101388_8775.png,n02101388_8775.png,0.0,1.2767538,2.4643798,-0.8397784
bagnet33,1,478,NaN,knife,car,c01,0478_cop_dnn_c01_car_10_n02814533_3590.png,n02814533_3590.png,0.0,-2.1785758,3.649884,-4.1213436
bagnet33,1,479,NaN,knife,elephant,c05,0479_cop_dnn_c05_elephant_10_n02504458_6018.png,n02504458_6018.png,0.0,-1.8889325,2.6110387,-3.1819603
bagnet33,1,480,NaN,keyboard,keyboard,c100,0480_cop_dnn_c100_keyboard_10_n03085013_11332.png,n03085013_11332.png,1.0,45.48549,9.126514,25.709679
bagnet33,1,481,NaN,clock,oven,c05,0481_cop_dnn_c05_oven_10_n04111531_6863.png,n04111531_6863.png,0.0,-2.650233,3.6315234,-4.4418726
bagnet33,1,482,NaN,airplane,airplane,c50,0482_cop_dnn_c50_airplane_10_n02690373_2675.png,n02690373_2675.png,1.0,7.875265,4.0548916,2.701412
bagnet33,1,483,NaN,clock,dog,c01,0483_cop_dnn_c01_dog_10_n02106550_660.png,n02106550_660.png,0.0,-1.181507,3.6577778,-3.4218912
bagnet33,1,484,NaN,clock,knife,c15,0484_cop_dnn_c15_knife_10_n03041632_11700.png,n03041632_11700.png,0.0,3.0320747,3.798378,-0.54185826
bagnet33,1,485,NaN,knife,bird,c15,0485_cop_dnn_c15_bird_10_n02009229_6149.png,n02009229_6149.png,0.0,0.99370253,3.537167,-1.7985011
bagnet33,1,486,NaN,clock,clock,c30,0486_cop_dnn_c30_clock_10_n03196217_3780.png,n03196217_3780.png,1.0,9.346417,5.4172883,2.7783139
bagnet33,1,487,NaN,bird,bird,c100,0487_cop_dnn_c100_bird_10_n01530575_34173.png,n01530575_34173.png,1.0,4.2247634,2.9582357,0.8955703
bagnet33,1,488,NaN,bottle,bottle,c100,0488_cop_dnn_c100_bottle_10_n03983396_17803.png,n03983396_17803.png,1.0,27.20891,2.9544675,17.15048
bagnet33,1,489,NaN,knife,oven,c05,0489_cop_dnn_c05_oven_10_n04111531_2156.png,n04111531_2156.png,0.0,-3.3046737,2.2861333,-3.9532976
bagnet33,1,490,NaN,elephant,elephant,c10,0490_cop_dnn_c10_elephant_10_n02504013_14948.png,n02504013_14948.png,1.0,5.8031893,3.5624628,1.584433
bagnet33,1,491,NaN,knife,boat,c01,0491_cop_dnn_c01_boat_10_n04273569_3112.png,n04273569_3112.png,0.0,-1.0098814,3.528504,-3.2091231
bagnet33,1,492,NaN,bird,bird,c50,0492_cop_dnn_c50_bird_10_n01560419_6583.png,n01560419_6583.png,1.0,7.157986,1.8843335,3.7290356
bagnet33,1,493,NaN,keyboard,keyboard,c50,0493_cop_dnn_c50_keyboard_10_n03085013_19161.png,n03085013_19161.png,1.0,5.363405,3.5581887,1.2764809
bagnet33,1,494,NaN,knife,bird,c05,0494_cop_dnn_c05_bird_10_n01616318_57023.png,n01616318_57023.png,0.0,0.5212922,4.349745,-2.707125
bagnet33,1,495,NaN,truck,truck,c50,0495_cop_dnn_c50_truck_10_n04467665_69176.png,n04467665_69176.png,1.0,6.259135,6.246602,0.0088619655
bagnet33,1,496,NaN,car,car,c50,0496_cop_dnn_c50_car_10_n03100240_4971.png,n03100240_4971.png,1.0,15.309955,10.626404,3.3117707
bagnet33,1,497,NaN,knife,oven,c01,0497_cop_dnn_c01_oven_10_n04111531_4901.png,n04111531_4901.png,0.0,-3.4393716,3.94968,-5.2248483
bagnet33,1,498,NaN,elephant,bear,c30,0498_cop_dnn_c30_bear_10_n02133161_4091.png,n02133161_4091.png,0.0,1.9768583,3.2142763,-0.8749867
bagnet33,1,499,NaN,clock,cat,c03,0499_cop_dnn_c03_cat_10_n02123394_4164.png,n02123394_4164.png,0.0,-0.11904804,3.5729477,-2.6106353
bagnet33,1,500,NaN,clock,bird,c03,0500_cop_dnn_c03_bird_10_n02017213_689.png,n02017213_689.png,0.0,0.6281032,2.7817657,-1.5228693
bagnet33,1,501,NaN,chair,dog,c100,0501_cop_dnn_c100_dog_10_n02109047_14207.png,n02109047_14207.png,0.0,1.3596438,2.83879,-1.0459143
bagnet33,1,502,NaN,clock,elephant,c05,0502_cop_dnn_c05_elephant_10_n02504013_8347.png,n02504013_8347.png,0.0,-1.3173466,3.3370247,-3.2911375
bagnet33,1,503,NaN,bottle,bottle,c30,0503_cop_dnn_c30_bottle_10_n04591713_1652.png,n04591713_1652.png,1.0,7.0958624,4.153621,2.0804787
bagnet33,1,504,NaN,knife,oven,c15,0504_cop_dnn_c15_oven_10_n04111531_22403.png,n04111531_22403.png,0.0,0.46770835,3.0833747,-1.8495555
bagnet33,1,505,NaN,airplane,airplane,c100,0505_cop_dnn_c100_airplane_10_n02690373_6046.png,n02690373_6046.png,1.0,33.182995,8.18639,17.67527
bagnet33,1,506,NaN,knife,bear,c15,0506_cop_dnn_c15_bear_10_n02134084_1689.png,n02134084_1689.png,0.0,0.45947808,2.730967,-1.6061852
bagnet33,1,507,NaN,oven,oven,c30,0507_cop_dnn_c30_oven_10_n04111531_14269.png,n04111531_14269.png,1.0,6.739567,4.8300114,1.3502597
bagnet33,1,508,NaN,cat,cat,c100,0508_cop_dnn_c100_cat_10_n02123597_9444.png,n02123597_9444.png,1.0,8.322754,4.35755,2.8038225
bagnet33,1,509,NaN,knife,bear,c10,0509_cop_dnn_c10_bear_10_n02134418_128.png,n02134418_128.png,0.0,1.0341997,1.607666,-0.40550193
bagnet33,1,510,NaN,airplane,airplane,c30,0510_cop_dnn_c30_airplane_10_n02690373_8789.png,n02690373_8789.png,1.0,15.146941,5.06256,7.1307344
bagnet33,1,511,NaN,clock,bottle,c01,0511_cop_dnn_c01_bottle_10_n03937543_10092.png,n03937543_10092.png,0.0,1.9556738,3.3623202,-0.99464923
bagnet33,1,512,NaN,clock,clock,c03,0512_cop_dnn_c03_clock_10_n02708093_7257.png,n02708093_7257.png,1.0,4.242107,3.1006505,0.8071315
bagnet33,1,513,NaN,bear,bear,c100,0513_cop_dnn_c100_bear_10_n02134084_21207.png,n02134084_21207.png,1.0,12.404158,7.8363624,3.229919
bagnet33,1,514,NaN,knife,bird,c05,0514_cop_dnn_c05_bird_10_n01797886_12811.png,n01797886_12811.png,0.0,0.71126026,3.2769976,-1.8142502
bagnet33,1,515,NaN,clock,oven,c01,0515_cop_dnn_c01_oven_10_n04111531_21248.png,n04111531_21248.png,0.0,-3.6022131,3.6958892,-5.1605377
bagnet33,1,516,NaN,knife,dog,c15,0516_cop_dnn_c15_dog_10_n02090379_5574.png,n02090379_5574.png,0.0,-0.8471804,3.4972181,-3.0719538
bagnet33,1,517,NaN,airplane,car,c15,0517_cop_dnn_c15_car_10_n04285008_8443.png,n04285008_8443.png,0.0,2.2025893,3.883515,-1.1885939
bagnet33,1,518,NaN,car,car,c100,0518_cop_dnn_c100_car_10_n03100240_15647.png,n03100240_15647.png,1.0,15.715449,11.333899,3.0982244
bagnet33,1,519,NaN,chair,chair,c50,0519_cop_dnn_c50_chair_10_n02791124_5824.png,n02791124_5824.png,1.0,6.5705514,4.5988293,1.3942181
bagnet33,1,520,NaN,airplane,bear,c05,0520_cop_dnn_c05_bear_10_n02133161_9949.png,n02133161_9949.png,0.0,-0.8738989,2.3836389,-2.3034272
bagnet33,1,521,NaN,clock,elephant,c03,0521_cop_dnn_c03_elephant_10_n02504458_5320.png,n02504458_5320.png,0.0,-1.9693193,3.6392772,-3.9658768
bagnet33,1,522,NaN,clock,keyboard,c01,0522_cop_dnn_c01_keyboard_10_n04505470_1904.png,n04505470_1904.png,0.0,-0.58727115,4.147446,-3.3479507
bagnet33,1,523,NaN,oven,oven,c100,0523_cop_dnn_c100_oven_10_n04111531_4685.png,n04111531_4685.png,1.0,10.762875,3.7748737,4.9412627
bagnet33,1,524,NaN,airplane,truck,c05,0524_cop_dnn_c05_truck_10_n03417042_2230.png,n03417042_2230.png,0.0,0.070443794,3.4712267,-2.4047167
bagnet33,1,525,NaN,clock,bottle,c15,0525_cop_dnn_c15_bottle_10_n04591713_6842.png,n04591713_6842.png,0.0,2.0787313,2.7710373,-0.48953432
bagnet33,1,526,NaN,boat,boat,c50,0526_cop_dnn_c50_boat_10_n02951358_8285.png,n02951358_8285.png,1.0,5.4924173,4.2089834,0.9075248
bagnet33,1,527,NaN,knife,knife,c01,0527_cop_dnn_c01_knife_10_n03041632_48675.png,n03041632_48675.png,1.0,4.0401077,3.5373776,0.3554839
bagnet33,1,528,NaN,clock,oven,c01,0528_cop_dnn_c01_oven_10_n04111531_14435.png,n04111531_14435.png,0.0,-3.813945,3.6593926,-5.2844477
bagnet33,1,529,NaN,cat,cat,c50,0529_cop_dnn_c50_cat_10_n02123159_8273.png,n02123159_8273.png,1.0,15.0182295,5.74691,6.555813
bagnet33,1,530,NaN,bird,bird,c50,0530_cop_dnn_c50_bird_10_n01614925_1908.png,n01614925_1908.png,1.0,9.03523,2.9112706,4.330293
bagnet33,1,531,NaN,clock,knife,c05,0531_cop_dnn_c05_knife_10_n03041632_96345.png,n03041632_96345.png,0.0,2.4189138,2.7644196,-0.24430944
bagnet33,1,532,NaN,knife,knife,c10,0532_cop_dnn_c10_knife_10_n03041632_31037.png,n03041632_31037.png,1.0,2.973828,2.5008576,0.33444065
bagnet33,1,533,NaN,airplane,airplane,c50,0533_cop_dnn_c50_airplane_10_n02690373_1436.png,n02690373_1436.png,1.0,10.745846,3.3096223,5.258204
bagnet33,1,534,NaN,chair,chair,c100,0534_cop_dnn_c100_chair_10_n04099969_28072.png,n04099969_28072.png,1.0,10.836708,5.8759294,3.5078003
bagnet33,1,535,NaN,knife,boat,c01,0535_cop_dnn_c01_boat_10_n04612504_19983.png,n04612504_19983.png,0.0,-1.6070995,3.9007545,-3.894641
bagnet33,1,536,NaN,clock,oven,c15,0536_cop_dnn_c15_oven_10_n04111531_8255.png,n04111531_8255.png,0.0,0.5257241,4.353327,-2.706524
bagnet33,1,537,NaN,boat,bear,c15,0537_cop_dnn_c15_bear_10_n02132136_1574.png,n02132136_1574.png,0.0,1.5653064,4.164367,-1.8378135
bagnet33,1,538,NaN,boat,boat,c100,0538_cop_dnn_c100_boat_10_n04273569_24747.png,n04273569_24747.png,1.0,6.4873595,3.8697772,1.8509102
bagnet33,1,539,NaN,clock,dog,c30,0539_cop_dnn_c30_dog_10_n02113799_18413.png,n02113799_18413.png,0.0,1.035497,2.7154357,-1.1878961
bagnet33,1,540,NaN,boat,boat,c15,0540_cop_dnn_c15_boat_10_n04273569_28333.png,n04273569_28333.png,1.0,5.141582,2.2472434,2.0466065
bagnet33,1,541,NaN,clock,bird,c01,0541_cop_dnn_c01_bird_10_n02017213_2183.png,n02017213_2183.png,0.0,0.23252158,3.8161716,-2.5340233
bagnet33,1,542,NaN,boat,boat,c50,0542_cop_dnn_c50_boat_10_n04273569_26139.png,n04273569_26139.png,1.0,6.7581205,4.2586155,1.767417
bagnet33,1,543,NaN,clock,knife,c03,0543_cop_dnn_c03_knife_10_n03041632_29684.png,n03041632_29684.png,0.0,3.450509,3.7365534,-0.2022639
bagnet33,1,544,NaN,airplane,boat,c100,0544_cop_dnn_c100_boat_10_n02951358_3087.png,n02951358_3087.png,0.0,2.5813808,3.9945333,-0.9992497
bagnet33,1,545,NaN,clock,keyboard,c15,0545_cop_dnn_c15_keyboard_10_n03085013_13615.png,n03085013_13615.png,0.0,2.6249297,6.244242,-2.5592406
bagnet33,1,546,NaN,clock,oven,c03,0546_cop_dnn_c03_oven_10_n04111531_1778.png,n04111531_1778.png,0.0,-3.819539,3.288604,-5.026216
bagnet33,1,547,NaN,clock,dog,c03,0547_cop_dnn_c03_dog_10_n02097474_9129.png,n02097474_9129.png,0.0,-1.0119431,3.455781,-3.159158
bagnet33,1,548,NaN,bird,bird,c30,0548_cop_dnn_c30_bird_10_n02013706_19220.png,n02013706_19220.png,1.0,4.5341144,3.0115933,1.0765849
bagnet33,1,549,NaN,clock,clock,c100,0549_cop_dnn_c100_clock_10_n03196217_7199.png,n03196217_7199.png,1.0,22.747355,6.4752064,11.506146
bagnet33,1,550,NaN,bear,bear,c50,0550_cop_dnn_c50_bear_10_n02132136_27823.png,n02132136_27823.png,1.0,9.219971,8.975307,0.17300303
bagnet33,1,551,NaN,clock,boat,c03,0551_cop_dnn_c03_boat_10_n03662601_6462.png,n03662601_6462.png,0.0,-0.6125231,3.3598602,-2.8088992
bagnet33,1,552,NaN,airplane,knife,c15,0552_cop_dnn_c15_knife_10_n03041632_11773.png,n03041632_11773.png,0.0,1.8953798,3.0291705,-0.80171114
bagnet33,1,553,NaN,knife,clock,c01,0553_cop_dnn_c01_clock_10_n02708093_7998.png,n02708093_7998.png,0.0,3.7127764,3.932467,-0.1553447
bagnet33,1,554,NaN,elephant,elephant,c30,0554_cop_dnn_c30_elephant_10_n02504458_3409.png,n02504458_3409.png,1.0,7.784807,2.8011217,3.5239978
bagnet33,1,555,NaN,clock,bottle,c01,0555_cop_dnn_c01_bottle_10_n04560804_24166.png,n04560804_24166.png,0.0,2.711813,3.908146,-0.84593517
bagnet33,1,556,NaN,cat,cat,c15,0556_cop_dnn_c15_cat_10_n02125311_17613.png,n02125311_17613.png,1.0,2.3348026,2.1888094,0.10323281
bagnet33,1,557,NaN,clock,bicycle,c05,0557_cop_dnn_c05_bicycle_10_n03792782_5284.png,n03792782_5284.png,0.0,-1.3228183,3.4558365,-3.3790195
bagnet33,1,558,NaN,airplane,oven,c10,0558_cop_dnn_c10_oven_10_n04111531_13006.png,n04111531_13006.png,0.0,-0.77120537,4.4215693,-3.6718464
bagnet33,1,559,NaN,clock,oven,c10,0559_cop_dnn_c10_oven_10_n04111531_8309.png,n04111531_8309.png,0.0,-2.1582627,2.0960329,-3.0082412
bagnet33,1,560,NaN,clock,clock,c10,0560_cop_dnn_c10_clock_10_n04548280_8390.png,n04548280_8390.png,1.0,5.453888,3.0468488,1.7020338
bagnet33,1,561,NaN,truck,truck,c50,0561_cop_dnn_c50_truck_10_n04467665_7110.png,n04467665_7110.png,1.0,11.52648,6.713525,3.403273
bagnet33,1,562,NaN,airplane,clock,c10,0562_cop_dnn_c10_clock_10_n03196217_8020.png,n03196217_8020.png,0.0,4.3845863,4.8142962,-0.3038508
bagnet33,1,563,NaN,elephant,elephant,c100,0563_cop_dnn_c100_elephant_10_n02504458_7955.png,n02504458_7955.png,1.0,21.000929,4.0669966,11.974099
bagnet33,1,564,NaN,clock,elephant,c01,0564_cop_dnn_c01_elephant_10_n02504458_1022.png,n02504458_1022.png,0.0,-2.1060386,3.7983968,-4.175066
bagnet33,1,565,NaN,clock,clock,c100,0565_cop_dnn_c100_clock_10_n04548280_2383.png,n04548280_2383.png,1.0,11.958836,6.220977,4.057279
bagnet33,1,566,NaN,clock,bird,c50,0566_cop_dnn_c50_bird_10_n02002724_7019.png,n02002724_7019.png,0.0,0.53329396,0.9760613,-0.31308377
bagnet33,1,567,NaN,cat,cat,c100,0567_cop_dnn_c100_cat_10_n02125311_1127.png,n02125311_1127.png,1.0,11.399773,3.7170854,5.4324803
bagnet33,1,568,NaN,clock,bicycle,c05,0568_cop_dnn_c05_bicycle_10_n02835271_6481.png,n02835271_6481.png,0.0,-1.0579876,3.2927926,-3.076466
bagnet33,1,569,NaN,airplane,car,c15,0569_cop_dnn_c15_car_10_n04285008_5208.png,n04285008_5208.png,0.0,2.3099806,5.9565496,-2.5785136
bagnet33,1,570,NaN,oven,oven,c50,0570_cop_dnn_c50_oven_10_n04111531_8658.png,n04111531_8658.png,1.0,13.62863,4.5403023,6.426418
bagnet33,1,571,NaN,clock,bottle,c05,0571_cop_dnn_c05_bottle_10_n04579145_2910.png,n04579145_2910.png,0.0,2.5161703,4.1822624,-1.1781051
bagnet33,1,572,NaN,knife,truck,c01,0572_cop_dnn_c01_truck_10_n04467665_22414.png,n04467665_22414.png,0.0,-2.778504,3.613265,-4.5196633
bagnet33,1,573,NaN,knife,elephant,c15,0573_cop_dnn_c15_elephant_10_n02504013_5439.png,n02504013_5439.png,0.0,1.0126597,2.6466188,-1.1553836
bagnet33,1,574,NaN,knife,cat,c10,0574_cop_dnn_c10_cat_10_n02123159_5945.png,n02123159_5945.png,0.0,1.6230754,3.1293335,-1.0650854
bagnet33,1,575,NaN,bottle,bottle,c10,0575_cop_dnn_c10_bottle_10_n04557648_2426.png,n04557648_2426.png,1.0,4.052371,2.4733663,1.116525
bagnet33,1,576,NaN,clock,bicycle,c05,0576_cop_dnn_c05_bicycle_10_n03792782_38641.png,n03792782_38641.png,0.0,-1.1222247,3.6299517,-3.3602962
bagnet33,1,577,NaN,knife,dog,c30,0577_cop_dnn_c30_dog_10_n02110958_15843.png,n02110958_15843.png,0.0,-0.21937971,4.197607,-3.1232815
bagnet33,1,578,NaN,keyboard,keyboard,c15,0578_cop_dnn_c15_keyboard_10_n04505470_5161.png,n04505470_5161.png,1.0,6.6340637,4.7288475,1.3471913
bagnet33,1,579,NaN,airplane,airplane,c30,0579_cop_dnn_c30_airplane_10_n02690373_8350.png,n02690373_8350.png,1.0,8.1190815,2.9538026,3.6524038
bagnet33,1,580,NaN,clock,bicycle,c05,0580_cop_dnn_c05_bicycle_10_n03792782_10129.png,n03792782_10129.png,0.0,-1.2722675,3.4386885,-3.331149
bagnet33,1,581,NaN,car,car,c100,0581_cop_dnn_c100_car_10_n02814533_26369.png,n02814533_26369.png,1.0,8.883423,6.134243,1.9439638
bagnet33,1,582,NaN,chair,oven,c10,0582_cop_dnn_c10_oven_10_n04111531_10077.png,n04111531_10077.png,0.0,-0.5883625,3.5469565,-2.9241123
bagnet33,1,583,NaN,clock,oven,c01,0583_cop_dnn_c01_oven_10_n04111531_12702.png,n04111531_12702.png,0.0,-3.5969176,3.6917942,-5.1538973
bagnet33,1,584,NaN,clock,clock,c100,0584_cop_dnn_c100_clock_10_n03196217_8618.png,n03196217_8618.png,1.0,16.925842,7.2848725,6.8171954
bagnet33,1,585,NaN,bottle,bottle,c10,0585_cop_dnn_c10_bottle_10_n03983396_4227.png,n03983396_4227.png,1.0,3.4152045,2.4504163,0.6822083
bagnet33,1,586,NaN,bottle,bottle,c30,0586_cop_dnn_c30_bottle_10_n03983396_9090.png,n03983396_9090.png,1.0,10.3610325,7.036394,2.3508744
bagnet33,1,587,NaN,bear,bear,c100,0587_cop_dnn_c100_bear_10_n02133161_223.png,n02133161_223.png,1.0,8.889428,6.6206827,1.6042453
bagnet33,1,588,NaN,keyboard,keyboard,c50,0588_cop_dnn_c50_keyboard_10_n04505470_1047.png,n04505470_1047.png,1.0,24.374744,10.62696,9.721152
bagnet33,1,589,NaN,clock,elephant,c03,0589_cop_dnn_c03_elephant_10_n02504013_7467.png,n02504013_7467.png,0.0,-1.6949286,3.428012,-3.622466
bagnet33,1,590,NaN,elephant,elephant,c30,0590_cop_dnn_c30_elephant_10_n02504013_476.png,n02504013_476.png,1.0,4.9041424,2.5436423,1.6691257
bagnet33,1,591,NaN,chair,chair,c100,0591_cop_dnn_c100_chair_10_n02791124_12707.png,n02791124_12707.png,1.0,7.758667,5.50486,1.5936823
bagnet33,1,592,NaN,clock,bird,c01,0592_cop_dnn_c01_bird_10_n01537544_22049.png,n01537544_22049.png,0.0,0.019396553,3.8330905,-2.696689
bagnet33,1,593,NaN,clock,bicycle,c05,0593_cop_dnn_c05_bicycle_10_n02835271_4220.png,n02835271_4220.png,0.0,-1.0473258,3.9515445,-3.5347352
bagnet33,1,594,NaN,airplane,truck,c10,0594_cop_dnn_c10_truck_10_n03417042_7530.png,n03417042_7530.png,0.0,3.4108806,5.148243,-1.2285007
bagnet33,1,595,NaN,clock,bear,c03,0595_cop_dnn_c03_bear_10_n02134418_12457.png,n02134418_12457.png,0.0,-2.4892445,3.6563606,-4.345599
bagnet33,1,596,NaN,bottle,bottle,c50,0596_cop_dnn_c50_bottle_10_n04557648_10265.png,n04557648_10265.png,1.0,12.924163,8.153948,3.3730514
bagnet33,1,597,NaN,airplane,clock,c15,0597_cop_dnn_c15_clock_10_n02708093_2025.png,n02708093_2025.png,0.0,4.396965,6.20354,-1.2774414
bagnet33,1,598,NaN,chair,chair,c15,0598_cop_dnn_c15_chair_10_n03376595_1961.png,n03376595_1961.png,1.0,2.3497677,1.9086325,0.31192967
bagnet33,1,599,NaN,clock,bear,c05,0599_cop_dnn_c05_bear_10_n02134084_67.png,n02134084_67.png,0.0,-1.0710777,2.86572,-2.7837362
bagnet33,1,600,NaN,cat,cat,c50,0600_cop_dnn_c50_cat_10_n02123045_455.png,n02123045_455.png,1.0,20.089743,4.473987,11.0420065
bagnet33,1,601,NaN,airplane,car,c10,0601_cop_dnn_c10_car_10_n03100240_13929.png,n03100240_13929.png,0.0,1.6858526,4.34278,-1.8787315
bagnet33,1,602,NaN,airplane,elephant,c10,0602_cop_dnn_c10_elephant_10_n02504458_4997.png,n02504458_4997.png,0.0,0.15688576,3.6485064,-2.4689486
bagnet33,1,603,NaN,airplane,airplane,c10,0603_cop_dnn_c10_airplane_10_n02690373_5344.png,n02690373_5344.png,1.0,6.0393095,2.4284837,2.5532393
bagnet33,1,604,NaN,knife,oven,c01,0604_cop_dnn_c01_oven_10_n04111531_797.png,n04111531_797.png,0.0,-2.8441374,4.273394,-5.032855
bagnet33,1,605,NaN,boat,boat,c30,0605_cop_dnn_c30_boat_10_n04273569_3085.png,n04273569_3085.png,1.0,6.5958366,3.6247888,2.1008482
bagnet33,1,606,NaN,oven,oven,c100,0606_cop_dnn_c100_oven_10_n04111531_9113.png,n04111531_9113.png,1.0,11.754055,5.5945725,4.355412
bagnet33,1,607,NaN,clock,boat,c03,0607_cop_dnn_c03_boat_10_n03662601_18803.png,n03662601_18803.png,0.0,-0.24033651,2.1615846,-1.6984147
bagnet33,1,608,NaN,clock,truck,c03,0608_cop_dnn_c03_truck_10_n04467665_30581.png,n04467665_30581.png,0.0,-2.115676,2.844532,-3.5073967
bagnet33,1,609,NaN,elephant,elephant,c30,0609_cop_dnn_c30_elephant_10_n02504013_5237.png,n02504013_5237.png,1.0,9.75564,2.060061,5.441596
bagnet33,1,610,NaN,keyboard,keyboard,c100,0610_cop_dnn_c100_keyboard_10_n03085013_12175.png,n03085013_12175.png,1.0,42.4918,6.1070595,25.727896
bagnet33,1,611,NaN,chair,chair,c30,0611_cop_dnn_c30_chair_10_n02791124_5401.png,n02791124_5401.png,1.0,6.1076627,2.7936602,2.3433537
bagnet33,1,612,NaN,boat,boat,c50,0612_cop_dnn_c50_boat_10_n02951358_22332.png,n02951358_22332.png,1.0,7.0136895,3.809802,2.2654905
bagnet33,1,613,NaN,clock,knife,c03,0613_cop_dnn_c03_knife_10_n03041632_11932.png,n03041632_11932.png,0.0,3.5459208,3.6196404,-0.05212756
bagnet33,1,614,NaN,cat,cat,c30,0614_cop_dnn_c30_cat_10_n02123159_5257.png,n02123159_5257.png,1.0,3.4173605,1.5260623,1.3373499
bagnet33,1,615,NaN,bottle,bottle,c50,0615_cop_dnn_c50_bottle_10_n03983396_105.png,n03983396_105.png,1.0,12.620386,4.1203055,6.010464
bagnet33,1,616,NaN,boat,boat,c50,0616_cop_dnn_c50_boat_10_n04612504_11939.png,n04612504_11939.png,1.0,10.403981,5.9948783,3.1177065
bagnet33,1,617,NaN,boat,boat,c30,0617_cop_dnn_c30_boat_10_n03662601_5575.png,n03662601_5575.png,1.0,5.0450816,4.0918074,0.6740667
bagnet33,1,618,NaN,clock,cat,c05,0618_cop_dnn_c05_cat_10_n02123159_6590.png,n02123159_6590.png,0.0,0.34648657,3.2471688,-2.0510921
bagnet33,1,619,NaN,bottle,bear,c50,0619_cop_dnn_c50_bear_10_n02134084_21462.png,n02134084_21462.png,0.0,3.7849832,3.832189,-0.03337963
bagnet33,1,620,NaN,clock,cat,c05,0620_cop_dnn_c05_cat_10_n02125311_46330.png,n02125311_46330.png,0.0,0.34591213,3.429013,-2.1800816
bagnet33,1,621,NaN,knife,cat,c01,0621_cop_dnn_c01_cat_10_n02123394_4714.png,n02123394_4714.png,0.0,-1.4830891,4.251134,-4.054708
bagnet33,1,622,NaN,knife,knife,c30,0622_cop_dnn_c30_knife_10_n03041632_1671.png,n03041632_1671.png,1.0,4.9792023,3.9141624,0.75309694
bagnet33,1,623,NaN,truck,truck,c50,0623_cop_dnn_c50_truck_10_n04467665_30901.png,n04467665_30901.png,1.0,11.317381,10.742897,0.40622145
bagnet33,1,624,NaN,dog,dog,c100,0624_cop_dnn_c100_dog_10_n02104029_4704.png,n02104029_4704.png,1.0,5.0129232,3.5333624,1.0462075
bagnet33,1,625,NaN,keyboard,keyboard,c15,0625_cop_dnn_c15_keyboard_10_n03085013_3665.png,n03085013_3665.png,1.0,12.3582325,5.7700715,4.6585336
bagnet33,1,626,NaN,knife,bird,c01,0626_cop_dnn_c01_bird_10_n01820546_1616.png,n01820546_1616.png,0.0,0.31623995,4.0520673,-2.641629
bagnet33,1,627,NaN,airplane,keyboard,c30,0627_cop_dnn_c30_keyboard_10_n04505470_8754.png,n04505470_8754.png,0.0,2.4227676,7.044985,-3.2684011
bagnet33,1,628,NaN,airplane,oven,c05,0628_cop_dnn_c05_oven_10_n04111531_8688.png,n04111531_8688.png,0.0,-1.7450147,3.603261,-3.781802
bagnet33,1,629,NaN,clock,oven,c10,0629_cop_dnn_c10_oven_10_n04111531_13862.png,n04111531_13862.png,0.0,-1.3101919,2.6894248,-2.828156
bagnet33,1,630,NaN,clock,truck,c03,0630_cop_dnn_c03_truck_10_n04467665_9266.png,n04467665_9266.png,0.0,-1.869721,3.3610125,-3.698687
bagnet33,1,631,NaN,chair,chair,c30,0631_cop_dnn_c30_chair_10_n03376595_1024.png,n03376595_1024.png,1.0,9.990677,1.6621484,5.889159
bagnet33,1,632,NaN,bottle,bottle,c30,0632_cop_dnn_c30_bottle_10_n02823428_4468.png,n02823428_4468.png,1.0,7.9967155,2.3999724,3.957495
bagnet33,1,633,NaN,airplane,truck,c15,0633_cop_dnn_c15_truck_10_n03796401_4154.png,n03796401_4154.png,0.0,3.9079115,5.8479185,-1.3717921
bagnet33,1,634,NaN,dog,dog,c50,0634_cop_dnn_c50_dog_10_n02087046_4421.png,n02087046_4421.png,1.0,3.1298566,1.6704144,1.0319815
bagnet33,1,635,NaN,clock,car,c05,0635_cop_dnn_c05_car_10_n03100240_9011.png,n03100240_9011.png,0.0,0.66487074,2.9033775,-1.5828633
bagnet33,1,636,NaN,knife,bird,c15,0636_cop_dnn_c15_bird_10_n02011460_2417.png,n02011460_2417.png,0.0,-0.7759395,2.498807,-2.3155954
bagnet33,1,637,NaN,bottle,bottle,c100,0637_cop_dnn_c100_bottle_10_n04557648_988.png,n04557648_988.png,1.0,5.8617125,2.0206006,2.7160764
bagnet33,1,638,NaN,clock,cat,c05,0638_cop_dnn_c05_cat_10_n02123159_5205.png,n02123159_5205.png,0.0,0.14910702,3.8127725,-2.5906029
bagnet33,1,639,NaN,knife,oven,c15,0639_cop_dnn_c15_oven_10_n04111531_23215.png,n04111531_23215.png,0.0,-0.43031704,1.9665369,-1.6948317
bagnet33,1,640,NaN,airplane,truck,c05,0640_cop_dnn_c05_truck_10_n03796401_20641.png,n03796401_20641.png,0.0,-0.18863654,2.9669337,-2.2313251
bagnet33,1,641,NaN,airplane,boat,c15,0641_cop_dnn_c15_boat_10_n03662601_16412.png,n03662601_16412.png,0.0,4.4256487,6.0551977,-1.1522652
bagnet33,1,642,NaN,airplane,airplane,c15,0642_cop_dnn_c15_airplane_10_n02690373_1952.png,n02690373_1952.png,1.0,4.0163746,3.5112,0.35721242
bagnet33,1,643,NaN,clock,dog,c05,0643_cop_dnn_c05_dog_10_n02086079_37199.png,n02086079_37199.png,0.0,-1.109872,3.48156,-3.2466328
bagnet33,1,644,NaN,airplane,airplane,c10,0644_cop_dnn_c10_airplane_10_n02690373_4375.png,n02690373_4375.png,1.0,4.9878006,3.271898,1.2133263
bagnet33,1,645,NaN,clock,bird,c15,0645_cop_dnn_c15_bird_10_n01592084_4764.png,n01592084_4764.png,0.0,0.950975,2.521485,-1.1105183
bagnet33,1,646,NaN,airplane,knife,c30,0646_cop_dnn_c30_knife_10_n03041632_44269.png,n03041632_44269.png,0.0,4.4622655,6.0914006,-1.1519725
bagnet33,1,647,NaN,elephant,elephant,c30,0647_cop_dnn_c30_elephant_10_n02504013_1258.png,n02504013_1258.png,1.0,5.427914,2.5958402,2.0025787
bagnet33,1,648,NaN,airplane,airplane,c30,0648_cop_dnn_c30_airplane_10_n02690373_6138.png,n02690373_6138.png,1.0,15.630629,4.2213774,8.067559
bagnet33,1,649,NaN,clock,chair,c03,0649_cop_dnn_c03_chair_10_n04099969_9713.png,n04099969_9713.png,0.0,0.2871593,2.9599342,-1.8899374
bagnet33,1,650,NaN,clock,bicycle,c01,0650_cop_dnn_c01_bicycle_10_n02835271_8212.png,n02835271_8212.png,0.0,-1.4097112,3.4927006,-3.466529
bagnet33,1,651,NaN,keyboard,keyboard,c50,0651_cop_dnn_c50_keyboard_10_n03085013_14279.png,n03085013_14279.png,1.0,21.076742,7.2476206,9.778666
bagnet33,1,652,NaN,knife,bottle,c01,0652_cop_dnn_c01_bottle_10_n04591713_5364.png,n04591713_5364.png,0.0,3.116213,3.6507142,-0.37794933
bagnet33,1,653,NaN,knife,bird,c15,0653_cop_dnn_c15_bird_10_n01819313_4045.png,n01819313_4045.png,0.0,0.15417531,2.806699,-1.8756176
bagnet33,1,654,NaN,clock,bird,c10,0654_cop_dnn_c10_bird_10_n02009229_263.png,n02009229_263.png,0.0,0.7261978,2.2977493,-1.1112548
bagnet33,1,655,NaN,knife,cat,c30,0655_cop_dnn_c30_cat_10_n02123394_2285.png,n02123394_2285.png,0.0,2.2416146,2.3665175,-0.088319734
bagnet33,1,656,NaN,clock,clock,c05,0656_cop_dnn_c05_clock_10_n04548280_2559.png,n04548280_2559.png,1.0,3.9543054,3.3330803,0.4392725
bagnet33,1,657,NaN,clock,elephant,c01,0657_cop_dnn_c01_elephant_10_n02504458_4137.png,n02504458_4137.png,0.0,-2.1901484,3.8644855,-4.281273
bagnet33,1,658,NaN,knife,knife,c01,0658_cop_dnn_c01_knife_10_n03041632_206.png,n03041632_206.png,1.0,3.9380832,3.7554615,0.12913306
bagnet33,1,659,NaN,airplane,truck,c10,0659_cop_dnn_c10_truck_10_n03417042_5604.png,n03417042_5604.png,0.0,2.503234,4.4226627,-1.3572412
bagnet33,1,660,NaN,bottle,bottle,c15,0660_cop_dnn_c15_bottle_10_n03983396_1629.png,n03983396_1629.png,1.0,3.3357275,2.5804744,0.53404456
bagnet33,1,661,NaN,clock,keyboard,c10,0661_cop_dnn_c10_keyboard_10_n03085013_16359.png,n03085013_16359.png,0.0,1.3549709,3.511279,-1.5247401
bagnet33,1,662,NaN,airplane,oven,c15,0662_cop_dnn_c15_oven_10_n04111531_8305.png,n04111531_8305.png,0.0,1.9693106,5.31827,-2.368072
bagnet33,1,663,NaN,clock,truck,c03,0663_cop_dnn_c03_truck_10_n04467665_276.png,n04467665_276.png,0.0,-2.2809944,3.1524591,-3.842032
bagnet33,1,664,NaN,knife,car,c03,0664_cop_dnn_c03_car_10_n04285008_7950.png,n04285008_7950.png,0.0,-1.6137241,2.6556144,-3.0188782
bagnet33,1,665,NaN,knife,dog,c30,0665_cop_dnn_c30_dog_10_n02108422_293.png,n02108422_293.png,0.0,1.1245866,3.2246113,-1.4849417
bagnet33,1,666,NaN,clock,bear,c15,0666_cop_dnn_c15_bear_10_n02132136_2451.png,n02132136_2451.png,0.0,-0.26520842,2.6012173,-2.026869
bagnet33,1,667,NaN,car,car,c30,0667_cop_dnn_c30_car_10_n03100240_17245.png,n03100240_17245.png,1.0,10.866516,9.073004,1.2682048
bagnet33,1,668,NaN,knife,knife,c05,0668_cop_dnn_c05_knife_10_n03041632_29886.png,n03041632_29886.png,1.0,2.1906743,2.086461,0.073689885
bagnet33,1,669,NaN,airplane,truck,c50,0669_cop_dnn_c50_truck_10_n03417042_3952.png,n03417042_3952.png,0.0,5.199732,7.8079634,-1.8442982
bagnet33,1,670,NaN,knife,truck,c01,0670_cop_dnn_c01_truck_10_n03417042_17645.png,n03417042_17645.png,0.0,-2.6968958,3.7586505,-4.5647607
bagnet33,1,671,NaN,oven,oven,c100,0671_cop_dnn_c100_oven_10_n04111531_23264.png,n04111531_23264.png,1.0,10.486805,7.3090577,2.2470067
bagnet33,1,672,NaN,elephant,elephant,c50,0672_cop_dnn_c50_elephant_10_n02504458_4580.png,n02504458_4580.png,1.0,13.712862,2.7212265,7.77226
bagnet33,1,673,NaN,knife,cat,c01,0673_cop_dnn_c01_cat_10_n02123597_8052.png,n02123597_8052.png,0.0,-0.98320514,4.0795116,-3.5798817
bagnet33,1,674,NaN,bear,bear,c100,0674_cop_dnn_c100_bear_10_n02134418_1218.png,n02134418_1218.png,1.0,5.357476,4.8333883,0.37058613
bagnet33,1,675,NaN,knife,boat,c01,0675_cop_dnn_c01_boat_10_n04273569_661.png,n04273569_661.png,0.0,-1.317214,3.6952302,-3.5443335
bagnet33,1,676,NaN,knife,airplane,c01,0676_cop_dnn_c01_airplane_10_n02690373_5266.png,n02690373_5266.png,0.0,1.7879009,4.067666,-1.6120374
bagnet33,1,677,NaN,keyboard,keyboard,c15,0677_cop_dnn_c15_keyboard_10_n04505470_4761.png,n04505470_4761.png,1.0,10.202639,9.611486,0.41800773
bagnet33,1,678,NaN,knife,oven,c10,0678_cop_dnn_c10_oven_10_n04111531_14279.png,n04111531_14279.png,0.0,-1.0000036,2.759128,-2.6581075
bagnet33,1,679,NaN,clock,clock,c50,0679_cop_dnn_c50_clock_10_n03196217_3006.png,n03196217_3006.png,1.0,18.983362,10.101649,6.2803197
bagnet33,1,680,NaN,elephant,elephant,c15,0680_cop_dnn_c15_elephant_10_n02504458_2607.png,n02504458_2607.png,1.0,6.309663,3.1361814,2.2439902
bagnet33,1,681,NaN,truck,truck,c100,0681_cop_dnn_c100_truck_10_n03417042_3338.png,n03417042_3338.png,1.0,7.17525,4.226913,2.0847893
bagnet33,1,682,NaN,car,car,c30,0682_cop_dnn_c30_car_10_n02814533_5183.png,n02814533_5183.png,1.0,10.170969,7.2457433,2.0684469
bagnet33,1,683,NaN,truck,truck,c100,0683_cop_dnn_c100_truck_10_n03417042_7365.png,n03417042_7365.png,1.0,9.423546,5.797709,2.563854
bagnet33,1,684,NaN,knife,knife,c100,0684_cop_dnn_c100_knife_10_n03041632_29037.png,n03041632_29037.png,1.0,6.0650587,4.9457173,0.7914939
bagnet33,1,685,NaN,airplane,car,c15,0685_cop_dnn_c15_car_10_n03100240_10096.png,n03100240_10096.png,0.0,5.2978873,6.8099365,-1.0691803
bagnet33,1,686,NaN,clock,keyboard,c05,0686_cop_dnn_c05_keyboard_10_n04505470_1929.png,n04505470_1929.png,0.0,3.3716936,5.0624986,-1.1955796
bagnet33,1,687,NaN,clock,chair,c01,0687_cop_dnn_c01_chair_10_n04099969_10266.png,n04099969_10266.png,0.0,-0.75451833,4.1021748,-3.4342008
bagnet33,1,688,NaN,knife,car,c01,0688_cop_dnn_c01_car_10_n02814533_83665.png,n02814533_83665.png,0.0,-2.1899352,4.1545606,-4.486236
bagnet33,1,689,NaN,knife,truck,c03,0689_cop_dnn_c03_truck_10_n03417042_751.png,n03417042_751.png,0.0,-1.3958812,2.6725001,-2.87678
bagnet33,1,690,NaN,knife,keyboard,c05,0690_cop_dnn_c05_keyboard_10_n03085013_2227.png,n03085013_2227.png,0.0,-0.6816425,2.374919,-2.1613154
bagnet33,1,691,NaN,car,car,c50,0691_cop_dnn_c50_car_10_n03100240_2528.png,n03100240_2528.png,1.0,9.516921,8.358733,0.8189625
bagnet33,1,692,NaN,bottle,bottle,c50,0692_cop_dnn_c50_bottle_10_n03937543_8197.png,n03937543_8197.png,1.0,8.187392,4.00379,2.9582536
bagnet33,1,693,NaN,airplane,boat,c30,0693_cop_dnn_c30_boat_10_n04273569_10099.png,n04273569_10099.png,0.0,4.6524935,4.976287,-0.22895652
bagnet33,1,694,NaN,knife,knife,c03,0694_cop_dnn_c03_knife_10_n03041632_25479.png,n03041632_25479.png,1.0,3.3362634,2.8960073,0.3113081
bagnet33,1,695,NaN,clock,oven,c03,0695_cop_dnn_c03_oven_10_n04111531_13795.png,n04111531_13795.png,0.0,-3.633221,2.9778774,-4.6747527
bagnet33,1,696,NaN,clock,bear,c05,0696_cop_dnn_c05_bear_10_n02132136_22835.png,n02132136_22835.png,0.0,-1.2431095,3.258468,-3.183096
bagnet33,1,697,NaN,bottle,dog,c15,0697_cop_dnn_c15_dog_10_n02090379_4952.png,n02090379_4952.png,0.0,-0.058130465,2.6852074,-1.9398328
bagnet33,1,698,NaN,clock,boat,c03,0698_cop_dnn_c03_boat_10_n02951358_29817.png,n02951358_29817.png,0.0,-0.8623806,3.0454957,-2.763286
bagnet33,1,699,NaN,airplane,airplane,c10,0699_cop_dnn_c10_airplane_10_n02690373_4115.png,n02690373_4115.png,1.0,5.6510353,5.3708224,0.19814043
bagnet33,1,700,NaN,car,car,c100,0700_cop_dnn_c100_car_10_n03100240_13707.png,n03100240_13707.png,1.0,9.62133,7.1453657,1.7507714
bagnet33,1,701,NaN,keyboard,keyboard,c50,0701_cop_dnn_c50_keyboard_10_n04505470_3117.png,n04505470_3117.png,1.0,21.161572,9.920751,7.9484606
bagnet33,1,702,NaN,airplane,truck,c15,0702_cop_dnn_c15_truck_10_n04467665_66065.png,n04467665_66065.png,0.0,2.1889133,4.846299,-1.8790556
bagnet33,1,703,NaN,keyboard,keyboard,c10,0703_cop_dnn_c10_keyboard_10_n03085013_8325.png,n03085013_8325.png,1.0,5.610341,3.043539,1.8150032
bagnet33,1,704,NaN,knife,truck,c03,0704_cop_dnn_c03_truck_10_n04467665_52595.png,n04467665_52595.png,0.0,-2.1183012,3.658334,-4.084698
bagnet33,1,705,NaN,airplane,bicycle,c100,0705_cop_dnn_c100_bicycle_10_n03792782_15557.png,n03792782_15557.png,0.0,2.866611,4.6975446,-1.2946656
bagnet33,1,706,NaN,clock,knife,c05,0706_cop_dnn_c05_knife_10_n03041632_34676.png,n03041632_34676.png,0.0,2.496549,3.2693064,-0.5464221
bagnet33,1,707,NaN,knife,airplane,c05,0707_cop_dnn_c05_airplane_10_n02690373_5729.png,n02690373_5729.png,0.0,1.5551242,3.316906,-1.2457678
bagnet33,1,708,NaN,boat,boat,c100,0708_cop_dnn_c100_boat_10_n03662601_11901.png,n03662601_11901.png,1.0,5.1081862,3.0279996,1.4709141
bagnet33,1,709,NaN,bicycle,bicycle,c30,0709_cop_dnn_c30_bicycle_10_n03792782_10526.png,n03792782_10526.png,1.0,5.2432165,2.9546847,1.6182364
bagnet33,1,710,NaN,airplane,truck,c10,0710_cop_dnn_c10_truck_10_n04467665_53339.png,n04467665_53339.png,0.0,1.0770975,5.0503154,-2.8094895
bagnet33,1,711,NaN,airplane,boat,c100,0711_cop_dnn_c100_boat_10_n04273569_12214.png,n04273569_12214.png,0.0,5.5343623,8.125963,-1.8325386
bagnet33,1,712,NaN,clock,bottle,c05,0712_cop_dnn_c05_bottle_10_n04591713_105.png,n04591713_105.png,0.0,2.8457952,3.6536129,-0.57121336
bagnet33,1,713,NaN,clock,car,c01,0713_cop_dnn_c01_car_10_n04285008_7325.png,n04285008_7325.png,0.0,-2.0975869,3.3240626,-3.8336852
bagnet33,1,714,NaN,clock,clock,c03,0714_cop_dnn_c03_clock_10_n04548280_4582.png,n04548280_4582.png,1.0,3.8775234,3.1103323,0.5424861
bagnet33,1,715,NaN,knife,oven,c30,0715_cop_dnn_c30_oven_10_n04111531_8963.png,n04111531_8963.png,0.0,1.6615906,3.2793536,-1.1439313
bagnet33,1,716,NaN,clock,chair,c01,0716_cop_dnn_c01_chair_10_n03376595_16059.png,n03376595_16059.png,0.0,-0.81335217,3.9852715,-3.3931394
bagnet33,1,717,NaN,clock,knife,c30,0717_cop_dnn_c30_knife_10_n03041632_92637.png,n03041632_92637.png,0.0,2.707851,2.8388994,-0.09266524
bagnet33,1,718,NaN,knife,bottle,c01,0718_cop_dnn_c01_bottle_10_n04591713_1126.png,n04591713_1126.png,0.0,3.225867,3.9381275,-0.5036442
bagnet33,1,719,NaN,knife,keyboard,c01,0719_cop_dnn_c01_keyboard_10_n04505470_4400.png,n04505470_4400.png,0.0,-0.42304432,3.9642937,-3.1023166
bagnet33,1,720,NaN,clock,keyboard,c10,0720_cop_dnn_c10_keyboard_10_n03085013_30073.png,n03085013_30073.png,0.0,3.8746152,4.780978,-0.6408954
bagnet33,1,721,NaN,bird,bird,c100,0721_cop_dnn_c100_bird_10_n01818515_2594.png,n01818515_2594.png,1.0,8.6356,3.7437844,3.459036
bagnet33,1,722,NaN,bear,bear,c50,0722_cop_dnn_c50_bear_10_n02132136_19512.png,n02132136_19512.png,1.0,7.33177,3.3892038,2.7878153
bagnet33,1,723,NaN,airplane,airplane,c50,0723_cop_dnn_c50_airplane_10_n02690373_4964.png,n02690373_4964.png,1.0,14.918822,4.2095656,7.5725884
bagnet33,1,724,NaN,clock,oven,c03,0724_cop_dnn_c03_oven_10_n04111531_14611.png,n04111531_14611.png,0.0,-3.5187378,3.2951393,-4.8181386
bagnet33,1,725,NaN,clock,knife,c05,0725_cop_dnn_c05_knife_10_n03041632_9302.png,n03041632_9302.png,0.0,2.8759913,4.306946,-1.0118376
bagnet33,1,726,NaN,bottle,bottle,c15,0726_cop_dnn_c15_bottle_10_n04557648_6060.png,n04557648_6060.png,1.0,2.8834076,2.1812081,0.49653
bagnet33,1,727,NaN,cat,dog,c50,0727_cop_dnn_c50_dog_10_n02105056_951.png,n02105056_951.png,0.0,2.876431,4.1434183,-0.89589536
bagnet33,1,728,NaN,truck,truck,c100,0728_cop_dnn_c100_truck_10_n04467665_52762.png,n04467665_52762.png,1.0,13.158567,11.763113,0.9867353
bagnet33,1,729,NaN,cat,cat,c15,0729_cop_dnn_c15_cat_10_n02123159_7607.png,n02123159_7607.png,1.0,1.7623476,1.6314204,0.092579514
bagnet33,1,730,NaN,airplane,truck,c100,0730_cop_dnn_c100_truck_10_n03417042_4420.png,n03417042_4420.png,0.0,6.5407753,7.7248983,-0.83730143
bagnet33,1,731,NaN,bicycle,bicycle,c100,0731_cop_dnn_c100_bicycle_10_n03792782_4474.png,n03792782_4474.png,1.0,6.53574,5.284143,0.8850127
bagnet33,1,732,NaN,knife,bird,c10,0732_cop_dnn_c10_bird_10_n02018207_9697.png,n02018207_9697.png,0.0,-0.42623544,4.0444455,-3.161249
bagnet33,1,733,NaN,knife,bird,c30,0733_cop_dnn_c30_bird_10_n02007558_2518.png,n02007558_2518.png,0.0,1.3630621,2.86371,-1.0611182
bagnet33,1,734,NaN,clock,keyboard,c05,0734_cop_dnn_c05_keyboard_10_n03085013_1824.png,n03085013_1824.png,0.0,-0.5841299,2.310022,-2.0464747
bagnet33,1,735,NaN,clock,bird,c05,0735_cop_dnn_c05_bird_10_n02027492_3072.png,n02027492_3072.png,0.0,0.055674665,2.962777,-2.0556319
