subj,session,trial,rt,object_response,category,condition,imagename,filename,is_correct,targ_act,max_nontarg_act,decision_margin
alexnet_w1_mlp_simclrhn_probe2,1,1,NaN,clock,knife,c30,0001_cop_dnn_c30_knife_10_n03041632_7380.png,n03041632_7380.png,0.0,0.078303926,0.9195134,-0.5948249
alexnet_w1_mlp_simclrhn_probe2,1,2,NaN,bicycle,bicycle,c100,0002_cop_dnn_c100_bicycle_10_n03792782_5966.png,n03792782_5966.png,1.0,1.13237,0.9539373,0.12617098
alexnet_w1_mlp_simclrhn_probe2,1,3,NaN,airplane,bird,c01,0003_cop_dnn_c01_bird_10_n01601694_10802.png,n01601694_10802.png,0.0,-0.12827621,0.30753472,-0.30816486
alexnet_w1_mlp_simclrhn_probe2,1,4,NaN,airplane,airplane,c05,0004_cop_dnn_c05_airplane_10_n02690373_9759.png,n02690373_9759.png,1.0,0.9523505,0.23957574,0.5040079
alexnet_w1_mlp_simclrhn_probe2,1,5,NaN,knife,car,c03,0005_cop_dnn_c03_car_10_n02814533_2236.png,n02814533_2236.png,0.0,-0.30165425,0.20739663,-0.3599533
alexnet_w1_mlp_simclrhn_probe2,1,6,NaN,chair,chair,c30,0006_cop_dnn_c30_chair_10_n02791124_7207.png,n02791124_7207.png,1.0,0.3456021,-0.43258557,0.55026174
alexnet_w1_mlp_simclrhn_probe2,1,7,NaN,knife,oven,c50,0007_cop_dnn_c50_oven_10_n04111531_7064.png,n04111531_7064.png,0.0,-1.3248026,-0.017534591,-0.9243781
alexnet_w1_mlp_simclrhn_probe2,1,8,NaN,bear,bird,c15,0008_cop_dnn_c15_bird_10_n01532829_2263.png,n01532829_2263.png,0.0,-0.33796805,-0.24364205,-0.06669856
alexnet_w1_mlp_simclrhn_probe2,1,9,NaN,bicycle,bicycle,c50,0009_cop_dnn_c50_bicycle_10_n02835271_3383.png,n02835271_3383.png,1.0,5.6177373,1.3941748,2.9865096
alexnet_w1_mlp_simclrhn_probe2,1,10,NaN,airplane,bicycle,c03,0010_cop_dnn_c03_bicycle_10_n03792782_27510.png,n03792782_27510.png,0.0,-0.47175974,0.22540762,-0.49297175
alexnet_w1_mlp_simclrhn_probe2,1,11,NaN,knife,bottle,c03,0011_cop_dnn_c03_bottle_10_n04557648_10944.png,n04557648_10944.png,0.0,-0.19585164,0.17954966,-0.2654488
alexnet_w1_mlp_simclrhn_probe2,1,12,NaN,keyboard,keyboard,c15,0012_cop_dnn_c15_keyboard_10_n03085013_20891.png,n03085013_20891.png,1.0,0.24732257,0.048868284,0.14032838
alexnet_w1_mlp_simclrhn_probe2,1,13,NaN,elephant,elephant,c30,0013_cop_dnn_c30_elephant_10_n02504458_3225.png,n02504458_3225.png,1.0,2.178452,0.23429091,1.3747295
alexnet_w1_mlp_simclrhn_probe2,1,14,NaN,keyboard,keyboard,c10,0014_cop_dnn_c10_keyboard_10_n04505470_6638.png,n04505470_6638.png,1.0,1.0226934,0.01590927,0.71190387
alexnet_w1_mlp_simclrhn_probe2,1,15,NaN,airplane,bird,c01,0015_cop_dnn_c01_bird_10_n01601694_11888.png,n01601694_11888.png,0.0,-0.20649232,0.31289417,-0.3672617
alexnet_w1_mlp_simclrhn_probe2,1,16,NaN,airplane,airplane,c03,0016_cop_dnn_c03_airplane_10_n02690373_8743.png,n02690373_8743.png,1.0,0.6334006,-0.086251676,0.508871
alexnet_w1_mlp_simclrhn_probe2,1,17,NaN,airplane,boat,c10,0017_cop_dnn_c10_boat_10_n03344393_8869.png,n03344393_8869.png,0.0,0.47888818,0.66545385,-0.13192186
alexnet_w1_mlp_simclrhn_probe2,1,18,NaN,airplane,bear,c01,0018_cop_dnn_c01_bear_10_n02132136_27682.png,n02132136_27682.png,0.0,-0.12045641,0.26984352,-0.27598372
alexnet_w1_mlp_simclrhn_probe2,1,19,NaN,bicycle,clock,c50,0019_cop_dnn_c50_clock_10_n02708093_7081.png,n02708093_7081.png,0.0,-2.7720892,-0.7429851,-1.4347934
alexnet_w1_mlp_simclrhn_probe2,1,20,NaN,car,car,c10,0020_cop_dnn_c10_car_10_n03100240_12141.png,n03100240_12141.png,1.0,0.4841355,0.12567818,0.25346762
alexnet_w1_mlp_simclrhn_probe2,1,21,NaN,airplane,car,c15,0021_cop_dnn_c15_car_10_n02814533_19287.png,n02814533_19287.png,0.0,-0.28650096,0.8505713,-0.8040315
alexnet_w1_mlp_simclrhn_probe2,1,22,NaN,clock,bicycle,c03,0022_cop_dnn_c03_bicycle_10_n02835271_3841.png,n02835271_3841.png,0.0,-0.05268748,-0.02442185,-0.01998682
alexnet_w1_mlp_simclrhn_probe2,1,23,NaN,clock,clock,c15,0023_cop_dnn_c15_clock_10_n02708093_6696.png,n02708093_6696.png,1.0,1.4133631,-0.45626602,1.3220274
alexnet_w1_mlp_simclrhn_probe2,1,24,NaN,airplane,bird,c01,0024_cop_dnn_c01_bird_10_n01829413_6393.png,n01829413_6393.png,0.0,-0.30734536,0.09317106,-0.2832079
alexnet_w1_mlp_simclrhn_probe2,1,25,NaN,airplane,clock,c01,0025_cop_dnn_c01_clock_10_n02708093_3484.png,n02708093_3484.png,0.0,0.07133007,0.07259178,-0.0008921645
alexnet_w1_mlp_simclrhn_probe2,1,26,NaN,chair,chair,c05,0026_cop_dnn_c05_chair_10_n04429376_55163.png,n04429376_55163.png,1.0,0.02034434,0.017534537,0.00198683
alexnet_w1_mlp_simclrhn_probe2,1,27,NaN,boat,boat,c100,0027_cop_dnn_c100_boat_10_n02951358_14528.png,n02951358_14528.png,1.0,-0.71138746,-0.8721766,0.113695085
alexnet_w1_mlp_simclrhn_probe2,1,28,NaN,airplane,chair,c01,0028_cop_dnn_c01_chair_10_n03376595_9603.png,n03376595_9603.png,0.0,-0.4361044,0.3370928,-0.54673296
alexnet_w1_mlp_simclrhn_probe2,1,29,NaN,knife,bottle,c03,0029_cop_dnn_c03_bottle_10_n03937543_1840.png,n03937543_1840.png,0.0,-0.4069169,0.047704097,-0.32146558
alexnet_w1_mlp_simclrhn_probe2,1,30,NaN,airplane,car,c01,0030_cop_dnn_c01_car_10_n02814533_32835.png,n02814533_32835.png,0.0,-0.4177762,0.25707266,-0.4771902
alexnet_w1_mlp_simclrhn_probe2,1,31,NaN,elephant,bird,c15,0031_cop_dnn_c15_bird_10_n01860187_38598.png,n01860187_38598.png,0.0,-0.35101023,-0.00992183,-0.24118593
alexnet_w1_mlp_simclrhn_probe2,1,32,NaN,airplane,airplane,c100,0032_cop_dnn_c100_airplane_10_n02690373_9322.png,n02690373_9322.png,1.0,5.4559736,5.13734,0.22530796
alexnet_w1_mlp_simclrhn_probe2,1,33,NaN,airplane,bicycle,c01,0033_cop_dnn_c01_bicycle_10_n02835271_1505.png,n02835271_1505.png,0.0,-0.47942978,0.21845418,-0.49347848
alexnet_w1_mlp_simclrhn_probe2,1,34,NaN,bicycle,bicycle,c50,0034_cop_dnn_c50_bicycle_10_n03792782_11023.png,n03792782_11023.png,1.0,0.39844704,-0.09044221,0.3456969
alexnet_w1_mlp_simclrhn_probe2,1,35,NaN,elephant,elephant,c50,0035_cop_dnn_c50_elephant_10_n02504458_4909.png,n02504458_4909.png,1.0,3.9238074,0.69150597,2.2855823
alexnet_w1_mlp_simclrhn_probe2,1,36,NaN,boat,boat,c100,0036_cop_dnn_c100_boat_10_n03344393_646.png,n03344393_646.png,1.0,6.936515,2.386273,3.217507
alexnet_w1_mlp_simclrhn_probe2,1,37,NaN,boat,boat,c10,0037_cop_dnn_c10_boat_10_n04612504_2472.png,n04612504_2472.png,1.0,0.74959534,-0.18852256,0.66334957
alexnet_w1_mlp_simclrhn_probe2,1,38,NaN,knife,keyboard,c03,0038_cop_dnn_c03_keyboard_10_n03085013_4673.png,n03085013_4673.png,0.0,0.09813021,0.16307381,-0.04592206
alexnet_w1_mlp_simclrhn_probe2,1,39,NaN,elephant,elephant,c100,0039_cop_dnn_c100_elephant_10_n02504458_1138.png,n02504458_1138.png,1.0,6.605568,1.694125,3.4729145
alexnet_w1_mlp_simclrhn_probe2,1,40,NaN,car,car,c100,0040_cop_dnn_c100_car_10_n03100240_5569.png,n03100240_5569.png,1.0,3.5477734,1.0733112,1.7497089
alexnet_w1_mlp_simclrhn_probe2,1,41,NaN,dog,dog,c100,0041_cop_dnn_c100_dog_10_n02107312_7422.png,n02107312_7422.png,1.0,-0.8536051,-1.4686263,0.43488565
alexnet_w1_mlp_simclrhn_probe2,1,42,NaN,bear,bear,c15,0042_cop_dnn_c15_bear_10_n02134084_24140.png,n02134084_24140.png,1.0,-0.036692865,-0.06124924,0.01736398
alexnet_w1_mlp_simclrhn_probe2,1,43,NaN,bottle,bottle,c100,0043_cop_dnn_c100_bottle_10_n04560804_14130.png,n04560804_14130.png,1.0,2.1614666,0.84472203,0.93107903
alexnet_w1_mlp_simclrhn_probe2,1,44,NaN,cat,cat,c30,0044_cop_dnn_c30_cat_10_n02124075_11970.png,n02124075_11970.png,1.0,0.7592756,-1.141835,1.3442882
alexnet_w1_mlp_simclrhn_probe2,1,45,NaN,cat,dog,c03,0045_cop_dnn_c03_dog_10_n02093991_247.png,n02093991_247.png,0.0,-0.44275668,-0.049654156,-0.27796546
alexnet_w1_mlp_simclrhn_probe2,1,46,NaN,keyboard,keyboard,c100,0046_cop_dnn_c100_keyboard_10_n04505470_375.png,n04505470_375.png,1.0,9.907809,0.88036704,6.3833656
alexnet_w1_mlp_simclrhn_probe2,1,47,NaN,bear,bear,c100,0047_cop_dnn_c100_bear_10_n02134418_4372.png,n02134418_4372.png,1.0,3.5476127,0.48095816,2.1684523
alexnet_w1_mlp_simclrhn_probe2,1,48,NaN,airplane,boat,c01,0048_cop_dnn_c01_boat_10_n03344393_2838.png,n03344393_2838.png,0.0,-0.052099526,0.26187408,-0.22201286
alexnet_w1_mlp_simclrhn_probe2,1,49,NaN,clock,bicycle,c05,0049_cop_dnn_c05_bicycle_10_n02835271_4935.png,n02835271_4935.png,0.0,-0.5004519,-0.12502295,-0.2654684
alexnet_w1_mlp_simclrhn_probe2,1,50,NaN,airplane,airplane,c50,0050_cop_dnn_c50_airplane_10_n02690373_5382.png,n02690373_5382.png,1.0,3.4956617,0.68283844,1.9889665
alexnet_w1_mlp_simclrhn_probe2,1,51,NaN,knife,bottle,c100,0051_cop_dnn_c100_bottle_10_n03937543_2123.png,n03937543_2123.png,0.0,-2.5190547,-1.5349706,-0.6958525
alexnet_w1_mlp_simclrhn_probe2,1,52,NaN,dog,dog,c30,0052_cop_dnn_c30_dog_10_n02097474_5234.png,n02097474_5234.png,1.0,0.48982102,0.17033952,0.22590753
alexnet_w1_mlp_simclrhn_probe2,1,53,NaN,keyboard,bottle,c100,0053_cop_dnn_c100_bottle_10_n02823428_6050.png,n02823428_6050.png,0.0,0.071211234,4.851385,-3.3800933
alexnet_w1_mlp_simclrhn_probe2,1,54,NaN,bottle,clock,c15,0054_cop_dnn_c15_clock_10_n02708093_3743.png,n02708093_3743.png,0.0,0.36491928,0.36494377,-1.7322354e-05
alexnet_w1_mlp_simclrhn_probe2,1,55,NaN,knife,knife,c03,0055_cop_dnn_c03_knife_10_n03041632_55083.png,n03041632_55083.png,1.0,0.21562877,0.20164268,0.009889663
alexnet_w1_mlp_simclrhn_probe2,1,56,NaN,knife,knife,c50,0056_cop_dnn_c50_knife_10_n03041632_41310.png,n03041632_41310.png,1.0,1.5012512,0.22558028,0.90203565
alexnet_w1_mlp_simclrhn_probe2,1,57,NaN,knife,knife,c03,0057_cop_dnn_c03_knife_10_n03041632_99799.png,n03041632_99799.png,1.0,0.124885075,-0.03355345,0.112032965
alexnet_w1_mlp_simclrhn_probe2,1,58,NaN,dog,dog,c15,0058_cop_dnn_c15_dog_10_n02094114_8231.png,n02094114_8231.png,1.0,0.0436678,-0.00067519146,0.031355232
alexnet_w1_mlp_simclrhn_probe2,1,59,NaN,airplane,chair,c01,0059_cop_dnn_c01_chair_10_n03376595_6173.png,n03376595_6173.png,0.0,-0.31412297,0.28066906,-0.42058146
alexnet_w1_mlp_simclrhn_probe2,1,60,NaN,airplane,oven,c05,0060_cop_dnn_c05_oven_10_n04111531_9297.png,n04111531_9297.png,0.0,-0.5237433,0.2633584,-0.5565649
alexnet_w1_mlp_simclrhn_probe2,1,61,NaN,knife,car,c10,0061_cop_dnn_c10_car_10_n03100240_24420.png,n03100240_24420.png,0.0,0.0803018,0.16077621,-0.056904003
alexnet_w1_mlp_simclrhn_probe2,1,62,NaN,elephant,elephant,c100,0062_cop_dnn_c100_elephant_10_n02504013_2340.png,n02504013_2340.png,1.0,14.601102,4.8584824,6.8890724
alexnet_w1_mlp_simclrhn_probe2,1,63,NaN,airplane,bicycle,c05,0063_cop_dnn_c05_bicycle_10_n02835271_10104.png,n02835271_10104.png,0.0,-0.41707122,-0.11091988,-0.21648169
alexnet_w1_mlp_simclrhn_probe2,1,64,NaN,elephant,bicycle,c15,0064_cop_dnn_c15_bicycle_10_n03792782_7165.png,n03792782_7165.png,0.0,-0.41763234,-0.3451976,-0.051219106
alexnet_w1_mlp_simclrhn_probe2,1,65,NaN,chair,knife,c10,0065_cop_dnn_c10_knife_10_n03041632_14817.png,n03041632_14817.png,0.0,-0.055825587,-0.02747146,-0.020049395
alexnet_w1_mlp_simclrhn_probe2,1,66,NaN,clock,clock,c15,0066_cop_dnn_c15_clock_10_n02708093_118.png,n02708093_118.png,1.0,0.60381526,-0.54284793,0.8108133
alexnet_w1_mlp_simclrhn_probe2,1,67,NaN,airplane,airplane,c10,0067_cop_dnn_c10_airplane_10_n02690373_4298.png,n02690373_4298.png,1.0,1.6139137,-0.07536343,1.1944993
alexnet_w1_mlp_simclrhn_probe2,1,68,NaN,knife,knife,c100,0068_cop_dnn_c100_knife_10_n03041632_50034.png,n03041632_50034.png,1.0,3.2403705,1.0562496,1.5444068
alexnet_w1_mlp_simclrhn_probe2,1,69,NaN,clock,chair,c03,0069_cop_dnn_c03_chair_10_n02791124_1333.png,n02791124_1333.png,0.0,-0.69868255,-0.09226447,-0.42880234
alexnet_w1_mlp_simclrhn_probe2,1,70,NaN,clock,clock,c01,0070_cop_dnn_c01_clock_10_n02708093_2318.png,n02708093_2318.png,1.0,0.25287792,-0.086596355,0.24004455
alexnet_w1_mlp_simclrhn_probe2,1,71,NaN,airplane,elephant,c01,0071_cop_dnn_c01_elephant_10_n02504013_3864.png,n02504013_3864.png,0.0,-0.4156383,0.26078302,-0.4783021
alexnet_w1_mlp_simclrhn_probe2,1,72,NaN,knife,chair,c10,0072_cop_dnn_c10_chair_10_n04429376_56624.png,n04429376_56624.png,0.0,-0.13811213,-0.031232608,-0.07557523
alexnet_w1_mlp_simclrhn_probe2,1,73,NaN,airplane,airplane,c30,0073_cop_dnn_c30_airplane_10_n02690373_7004.png,n02690373_7004.png,1.0,1.8503625,-0.16030638,1.4217577
alexnet_w1_mlp_simclrhn_probe2,1,74,NaN,oven,oven,c30,0074_cop_dnn_c30_oven_10_n04111531_9692.png,n04111531_9692.png,1.0,0.8716817,-0.9214487,1.2679347
alexnet_w1_mlp_simclrhn_probe2,1,75,NaN,car,truck,c50,0075_cop_dnn_c50_truck_10_n03796401_296.png,n03796401_296.png,0.0,0.79236305,1.2270806,-0.30739173
alexnet_w1_mlp_simclrhn_probe2,1,76,NaN,airplane,airplane,c15,0076_cop_dnn_c15_airplane_10_n02690373_1837.png,n02690373_1837.png,1.0,0.56572276,-0.052558165,0.43719065
alexnet_w1_mlp_simclrhn_probe2,1,77,NaN,airplane,airplane,c03,0077_cop_dnn_c03_airplane_10_n02690373_10203.png,n02690373_10203.png,1.0,0.48548782,0.17696764,0.21815673
alexnet_w1_mlp_simclrhn_probe2,1,78,NaN,airplane,boat,c03,0078_cop_dnn_c03_boat_10_n02951358_34234.png,n02951358_34234.png,0.0,-0.03156337,0.2384177,-0.19090547
alexnet_w1_mlp_simclrhn_probe2,1,79,NaN,bicycle,bicycle,c100,0079_cop_dnn_c100_bicycle_10_n02835271_2885.png,n02835271_2885.png,1.0,3.4221308,2.3460877,0.76087743
alexnet_w1_mlp_simclrhn_probe2,1,80,NaN,airplane,airplane,c30,0080_cop_dnn_c30_airplane_10_n02690373_5247.png,n02690373_5247.png,1.0,2.62195,0.059406914,1.8119915
alexnet_w1_mlp_simclrhn_probe2,1,81,NaN,clock,clock,c50,0081_cop_dnn_c50_clock_10_n02708093_596.png,n02708093_596.png,1.0,3.7411697,-0.8039591,3.2138915
alexnet_w1_mlp_simclrhn_probe2,1,82,NaN,airplane,chair,c01,0082_cop_dnn_c01_chair_10_n03376595_1364.png,n03376595_1364.png,0.0,-0.3044542,0.27862287,-0.41229776
alexnet_w1_mlp_simclrhn_probe2,1,83,NaN,clock,cat,c03,0083_cop_dnn_c03_cat_10_n02124075_12430.png,n02124075_12430.png,0.0,-0.32663226,0.013116002,-0.24023831
alexnet_w1_mlp_simclrhn_probe2,1,84,NaN,knife,cat,c05,0084_cop_dnn_c05_cat_10_n02123159_5487.png,n02123159_5487.png,0.0,-0.24640481,-0.11747882,-0.09116445
alexnet_w1_mlp_simclrhn_probe2,1,85,NaN,bicycle,bicycle,c50,0085_cop_dnn_c50_bicycle_10_n03792782_17571.png,n03792782_17571.png,1.0,2.0212607,-0.27674854,1.624938
alexnet_w1_mlp_simclrhn_probe2,1,86,NaN,cat,cat,c50,0086_cop_dnn_c50_cat_10_n02123159_6132.png,n02123159_6132.png,1.0,2.054757,-2.5745609,3.2734225
alexnet_w1_mlp_simclrhn_probe2,1,87,NaN,knife,bottle,c05,0087_cop_dnn_c05_bottle_10_n03937543_2873.png,n03937543_2873.png,0.0,-0.31083772,-0.053985745,-0.18162178
alexnet_w1_mlp_simclrhn_probe2,1,88,NaN,bottle,keyboard,c15,0088_cop_dnn_c15_keyboard_10_n04505470_1236.png,n04505470_1236.png,0.0,-0.40287977,0.16627978,-0.4024566
alexnet_w1_mlp_simclrhn_probe2,1,89,NaN,airplane,airplane,c01,0089_cop_dnn_c01_airplane_10_n02690373_4243.png,n02690373_4243.png,1.0,0.3008985,0.10202352,0.14062585
alexnet_w1_mlp_simclrhn_probe2,1,90,NaN,oven,oven,c30,0090_cop_dnn_c30_oven_10_n04111531_467.png,n04111531_467.png,1.0,0.24310532,-0.68541926,0.6565661
alexnet_w1_mlp_simclrhn_probe2,1,91,NaN,airplane,cat,c03,0091_cop_dnn_c03_cat_10_n02123394_2632.png,n02123394_2632.png,0.0,-0.16943662,-0.06417866,-0.07442862
alexnet_w1_mlp_simclrhn_probe2,1,92,NaN,oven,chair,c15,0092_cop_dnn_c15_chair_10_n02791124_5268.png,n02791124_5268.png,0.0,-0.23132773,-0.054794043,-0.12482817
alexnet_w1_mlp_simclrhn_probe2,1,93,NaN,knife,knife,c100,0093_cop_dnn_c100_knife_10_n03041632_1143.png,n03041632_1143.png,1.0,-0.2902761,-0.62527555,0.23688038
alexnet_w1_mlp_simclrhn_probe2,1,94,NaN,bottle,chair,c10,0094_cop_dnn_c10_chair_10_n02791124_1018.png,n02791124_1018.png,0.0,-0.041484028,0.011423571,-0.037411325
alexnet_w1_mlp_simclrhn_probe2,1,95,NaN,elephant,bicycle,c05,0095_cop_dnn_c05_bicycle_10_n03792782_8057.png,n03792782_8057.png,0.0,-0.55661,-0.21700498,-0.24013701
alexnet_w1_mlp_simclrhn_probe2,1,96,NaN,bear,bear,c30,0096_cop_dnn_c30_bear_10_n02132136_1338.png,n02132136_1338.png,1.0,1.9322368,0.56473255,0.9669715
alexnet_w1_mlp_simclrhn_probe2,1,97,NaN,clock,clock,c05,0097_cop_dnn_c05_clock_10_n02708093_4798.png,n02708093_4798.png,1.0,0.8443834,-0.056414157,0.6369601
alexnet_w1_mlp_simclrhn_probe2,1,98,NaN,airplane,truck,c01,0098_cop_dnn_c01_truck_10_n03796401_15046.png,n03796401_15046.png,0.0,-0.4946457,0.3256267,-0.5800202
alexnet_w1_mlp_simclrhn_probe2,1,99,NaN,knife,knife,c50,0099_cop_dnn_c50_knife_10_n03041632_13612.png,n03041632_13612.png,1.0,0.22063628,-1.0385981,0.8904131
alexnet_w1_mlp_simclrhn_probe2,1,100,NaN,oven,oven,c10,0100_cop_dnn_c10_oven_10_n04111531_1898.png,n04111531_1898.png,1.0,0.69400394,0.020241078,0.47642228
alexnet_w1_mlp_simclrhn_probe2,1,101,NaN,airplane,truck,c03,0101_cop_dnn_c03_truck_10_n04467665_28988.png,n04467665_28988.png,0.0,-0.40084377,-0.017159969,-0.2713054
alexnet_w1_mlp_simclrhn_probe2,1,102,NaN,airplane,airplane,c100,0102_cop_dnn_c100_airplane_10_n02690373_736.png,n02690373_736.png,1.0,9.285749,2.9854715,4.4549694
alexnet_w1_mlp_simclrhn_probe2,1,103,NaN,dog,dog,c50,0103_cop_dnn_c50_dog_10_n02111500_5154.png,n02111500_5154.png,1.0,1.0816993,-1.4098039,1.7617589
alexnet_w1_mlp_simclrhn_probe2,1,104,NaN,elephant,bear,c50,0104_cop_dnn_c50_bear_10_n02133161_13461.png,n02133161_13461.png,0.0,-0.8537909,-0.5793637,-0.19404931
alexnet_w1_mlp_simclrhn_probe2,1,105,NaN,bear,dog,c15,0105_cop_dnn_c15_dog_10_n02102318_11746.png,n02102318_11746.png,0.0,-0.16722456,0.37401038,-0.38271093
alexnet_w1_mlp_simclrhn_probe2,1,106,NaN,boat,boat,c50,0106_cop_dnn_c50_boat_10_n03662601_12226.png,n03662601_12226.png,1.0,2.2794166,0.71381253,1.1070492
alexnet_w1_mlp_simclrhn_probe2,1,107,NaN,keyboard,keyboard,c05,0107_cop_dnn_c05_keyboard_10_n04505470_3207.png,n04505470_3207.png,1.0,0.20028226,-0.0888531,0.20444958
alexnet_w1_mlp_simclrhn_probe2,1,108,NaN,bicycle,bicycle,c30,0108_cop_dnn_c30_bicycle_10_n03792782_2628.png,n03792782_2628.png,1.0,2.476355,-0.50723946,2.10972
alexnet_w1_mlp_simclrhn_probe2,1,109,NaN,airplane,chair,c01,0109_cop_dnn_c01_chair_10_n02791124_3204.png,n02791124_3204.png,0.0,-0.28696042,0.23618662,-0.36992082
alexnet_w1_mlp_simclrhn_probe2,1,110,NaN,clock,bottle,c03,0110_cop_dnn_c03_bottle_10_n04560804_722.png,n04560804_722.png,0.0,-0.06359651,0.01510487,-0.05565028
alexnet_w1_mlp_simclrhn_probe2,1,111,NaN,bicycle,bicycle,c30,0111_cop_dnn_c30_bicycle_10_n03792782_8847.png,n03792782_8847.png,1.0,0.72811925,-0.4211758,0.81267434
alexnet_w1_mlp_simclrhn_probe2,1,112,NaN,bear,bear,c50,0112_cop_dnn_c50_bear_10_n02132136_1132.png,n02132136_1132.png,1.0,0.97213894,-0.20040962,0.82911706
alexnet_w1_mlp_simclrhn_probe2,1,113,NaN,knife,knife,c50,0113_cop_dnn_c50_knife_10_n03041632_6557.png,n03041632_6557.png,1.0,0.2103225,-1.2789134,1.0530488
alexnet_w1_mlp_simclrhn_probe2,1,114,NaN,oven,knife,c100,0114_cop_dnn_c100_knife_10_n03041632_35116.png,n03041632_35116.png,0.0,-0.2415677,1.7214408,-1.3880566
alexnet_w1_mlp_simclrhn_probe2,1,115,NaN,car,car,c15,0115_cop_dnn_c15_car_10_n02814533_3117.png,n02814533_3117.png,1.0,0.4659896,0.43031675,0.02522451
alexnet_w1_mlp_simclrhn_probe2,1,116,NaN,bear,bird,c15,0116_cop_dnn_c15_bird_10_n02009229_4224.png,n02009229_4224.png,0.0,-0.52494466,-0.40753528,-0.08302097
alexnet_w1_mlp_simclrhn_probe2,1,117,NaN,oven,chair,c50,0117_cop_dnn_c50_chair_10_n03376595_9247.png,n03376595_9247.png,0.0,-0.3925066,0.15285742,-0.3856306
alexnet_w1_mlp_simclrhn_probe2,1,118,NaN,airplane,boat,c01,0118_cop_dnn_c01_boat_10_n03662601_5639.png,n03662601_5639.png,0.0,0.08272159,0.4344032,-0.24867646
alexnet_w1_mlp_simclrhn_probe2,1,119,NaN,airplane,bicycle,c10,0119_cop_dnn_c10_bicycle_10_n02835271_13437.png,n02835271_13437.png,0.0,-0.27510116,0.092162564,-0.2596947
alexnet_w1_mlp_simclrhn_probe2,1,120,NaN,clock,bicycle,c05,0120_cop_dnn_c05_bicycle_10_n03792782_18294.png,n03792782_18294.png,0.0,-0.52016616,-0.13799858,-0.2702333
alexnet_w1_mlp_simclrhn_probe2,1,121,NaN,airplane,boat,c03,0121_cop_dnn_c03_boat_10_n02951358_10488.png,n02951358_10488.png,0.0,0.24071293,0.41080612,-0.12027405
alexnet_w1_mlp_simclrhn_probe2,1,122,NaN,airplane,bird,c50,0122_cop_dnn_c50_bird_10_n01829413_14594.png,n01829413_14594.png,0.0,0.906652,1.3502374,-0.31366226
alexnet_w1_mlp_simclrhn_probe2,1,123,NaN,keyboard,clock,c100,0123_cop_dnn_c100_clock_10_n03196217_9197.png,n03196217_9197.png,0.0,1.1585865,1.375599,-0.15345103
alexnet_w1_mlp_simclrhn_probe2,1,124,NaN,boat,boat,c15,0124_cop_dnn_c15_boat_10_n03662601_1667.png,n03662601_1667.png,1.0,0.12091861,-0.10062089,0.15665208
alexnet_w1_mlp_simclrhn_probe2,1,125,NaN,dog,dog,c50,0125_cop_dnn_c50_dog_10_n02092339_6946.png,n02092339_6946.png,1.0,-0.32320565,-0.8211725,0.35211572
alexnet_w1_mlp_simclrhn_probe2,1,126,NaN,airplane,airplane,c05,0126_cop_dnn_c05_airplane_10_n02690373_1773.png,n02690373_1773.png,1.0,0.46169433,-0.1562689,0.43696597
alexnet_w1_mlp_simclrhn_probe2,1,127,NaN,bicycle,elephant,c50,0127_cop_dnn_c50_elephant_10_n02504013_4278.png,n02504013_4278.png,0.0,-1.0608916,-0.19544262,-0.6119649
alexnet_w1_mlp_simclrhn_probe2,1,128,NaN,bird,bird,c100,0128_cop_dnn_c100_bird_10_n02025239_10194.png,n02025239_10194.png,1.0,1.7259516,-4.433416,4.3553305
alexnet_w1_mlp_simclrhn_probe2,1,129,NaN,oven,oven,c15,0129_cop_dnn_c15_oven_10_n04111531_1977.png,n04111531_1977.png,1.0,0.44553107,-0.48502082,0.6579996
alexnet_w1_mlp_simclrhn_probe2,1,130,NaN,truck,clock,c50,0130_cop_dnn_c50_clock_10_n02708093_616.png,n02708093_616.png,0.0,-0.26119956,0.114689976,-0.26579404
alexnet_w1_mlp_simclrhn_probe2,1,131,NaN,airplane,boat,c10,0131_cop_dnn_c10_boat_10_n04273569_10292.png,n04273569_10292.png,0.0,0.33051974,0.9275578,-0.4221697
alexnet_w1_mlp_simclrhn_probe2,1,132,NaN,cat,cat,c50,0132_cop_dnn_c50_cat_10_n02123394_8592.png,n02123394_8592.png,1.0,1.8126062,0.07535561,1.2284217
alexnet_w1_mlp_simclrhn_probe2,1,133,NaN,knife,knife,c10,0133_cop_dnn_c10_knife_10_n03041632_16020.png,n03041632_16020.png,1.0,-0.07401832,-0.48121223,0.28792956
alexnet_w1_mlp_simclrhn_probe2,1,134,NaN,cat,cat,c30,0134_cop_dnn_c30_cat_10_n02123394_5466.png,n02123394_5466.png,1.0,0.94324565,0.0032748543,0.66465974
alexnet_w1_mlp_simclrhn_probe2,1,135,NaN,airplane,elephant,c01,0135_cop_dnn_c01_elephant_10_n02504013_7351.png,n02504013_7351.png,0.0,-0.3403446,0.30107012,-0.45354873
alexnet_w1_mlp_simclrhn_probe2,1,136,NaN,oven,oven,c50,0136_cop_dnn_c50_oven_10_n04111531_22388.png,n04111531_22388.png,1.0,-0.47481233,-1.1294675,0.4629111
alexnet_w1_mlp_simclrhn_probe2,1,137,NaN,bottle,chair,c100,0137_cop_dnn_c100_chair_10_n04429376_6308.png,n04429376_6308.png,0.0,-0.5037263,1.0214783,-1.0784826
alexnet_w1_mlp_simclrhn_probe2,1,138,NaN,car,car,c10,0138_cop_dnn_c10_car_10_n03100240_8443.png,n03100240_8443.png,1.0,1.9734985,0.9564899,0.7191337
alexnet_w1_mlp_simclrhn_probe2,1,139,NaN,car,car,c100,0139_cop_dnn_c100_car_10_n04285008_12446.png,n04285008_12446.png,1.0,5.8291264,1.7452039,2.8877692
alexnet_w1_mlp_simclrhn_probe2,1,140,NaN,airplane,keyboard,c01,0140_cop_dnn_c01_keyboard_10_n04505470_4440.png,n04505470_4440.png,0.0,-0.0067460686,0.22742365,-0.165583
alexnet_w1_mlp_simclrhn_probe2,1,141,NaN,clock,car,c10,0141_cop_dnn_c10_car_10_n04285008_10073.png,n04285008_10073.png,0.0,0.008801828,0.07203961,-0.044715866
alexnet_w1_mlp_simclrhn_probe2,1,142,NaN,airplane,bottle,c03,0142_cop_dnn_c03_bottle_10_n03983396_7378.png,n03983396_7378.png,0.0,-0.3389783,0.14157677,-0.33980376
alexnet_w1_mlp_simclrhn_probe2,1,143,NaN,chair,chair,c15,0143_cop_dnn_c15_chair_10_n02791124_5706.png,n02791124_5706.png,1.0,-0.030263126,-0.07070387,0.028595926
alexnet_w1_mlp_simclrhn_probe2,1,144,NaN,cat,cat,c15,0144_cop_dnn_c15_cat_10_n02123045_11224.png,n02123045_11224.png,1.0,1.285368,0.04656656,0.8759649
alexnet_w1_mlp_simclrhn_probe2,1,145,NaN,chair,chair,c05,0145_cop_dnn_c05_chair_10_n03376595_8953.png,n03376595_8953.png,1.0,0.054887936,-0.013235256,0.048170373
alexnet_w1_mlp_simclrhn_probe2,1,146,NaN,bicycle,bicycle,c50,0146_cop_dnn_c50_bicycle_10_n03792782_66048.png,n03792782_66048.png,1.0,2.686226,0.118771136,1.8154647
alexnet_w1_mlp_simclrhn_probe2,1,147,NaN,airplane,dog,c01,0147_cop_dnn_c01_dog_10_n02104365_1123.png,n02104365_1123.png,0.0,-0.6114477,0.30055526,-0.64488345
alexnet_w1_mlp_simclrhn_probe2,1,148,NaN,knife,clock,c05,0148_cop_dnn_c05_clock_10_n03196217_3605.png,n03196217_3605.png,0.0,0.24298,0.35194123,-0.07704722
alexnet_w1_mlp_simclrhn_probe2,1,149,NaN,knife,knife,c10,0149_cop_dnn_c10_knife_10_n03041632_14916.png,n03041632_14916.png,1.0,0.07292181,-0.49152645,0.3991252
alexnet_w1_mlp_simclrhn_probe2,1,150,NaN,bear,bear,c10,0150_cop_dnn_c10_bear_10_n02132136_4101.png,n02132136_4101.png,1.0,0.42803824,0.3034044,0.08812944
alexnet_w1_mlp_simclrhn_probe2,1,151,NaN,clock,clock,c01,0151_cop_dnn_c01_clock_10_n02708093_7929.png,n02708093_7929.png,1.0,0.089284144,-0.123066865,0.15015484
alexnet_w1_mlp_simclrhn_probe2,1,152,NaN,chair,chair,c50,0152_cop_dnn_c50_chair_10_n02791124_7630.png,n02791124_7630.png,1.0,1.7043936,-0.40985066,1.4949964
alexnet_w1_mlp_simclrhn_probe2,1,153,NaN,clock,clock,c05,0153_cop_dnn_c05_clock_10_n02708093_3750.png,n02708093_3750.png,1.0,0.2875798,-0.30401376,0.41831982
alexnet_w1_mlp_simclrhn_probe2,1,154,NaN,airplane,bird,c01,0154_cop_dnn_c01_bird_10_n02037110_12288.png,n02037110_12288.png,0.0,-0.19209053,0.32394862,-0.36489478
alexnet_w1_mlp_simclrhn_probe2,1,155,NaN,keyboard,keyboard,c05,0155_cop_dnn_c05_keyboard_10_n04505470_6080.png,n04505470_6080.png,1.0,0.6509496,0.2317036,0.29645172
alexnet_w1_mlp_simclrhn_probe2,1,156,NaN,keyboard,keyboard,c100,0156_cop_dnn_c100_keyboard_10_n03085013_19065.png,n03085013_19065.png,1.0,7.457758,-0.1587862,5.3857102
alexnet_w1_mlp_simclrhn_probe2,1,157,NaN,cat,cat,c10,0157_cop_dnn_c10_cat_10_n02123159_4856.png,n02123159_4856.png,1.0,-0.0698366,-0.34372774,0.19367029
alexnet_w1_mlp_simclrhn_probe2,1,158,NaN,clock,chair,c01,0158_cop_dnn_c01_chair_10_n04099969_6913.png,n04099969_6913.png,0.0,-0.27462018,0.19399191,-0.3313588
alexnet_w1_mlp_simclrhn_probe2,1,159,NaN,knife,knife,c30,0159_cop_dnn_c30_knife_10_n03041632_35764.png,n03041632_35764.png,1.0,-0.095577575,-0.24756308,0.107469976
alexnet_w1_mlp_simclrhn_probe2,1,160,NaN,car,truck,c30,0160_cop_dnn_c30_truck_10_n03796401_3012.png,n03796401_3012.png,0.0,2.1446152,2.3537638,-0.14789043
alexnet_w1_mlp_simclrhn_probe2,1,161,NaN,elephant,elephant,c10,0161_cop_dnn_c10_elephant_10_n02504013_3821.png,n02504013_3821.png,1.0,0.6169988,-0.014162198,0.4462982
alexnet_w1_mlp_simclrhn_probe2,1,162,NaN,truck,truck,c100,0162_cop_dnn_c100_truck_10_n03796401_3608.png,n03796401_3608.png,1.0,0.41811788,0.2848033,0.094267644
alexnet_w1_mlp_simclrhn_probe2,1,163,NaN,chair,chair,c15,0163_cop_dnn_c15_chair_10_n04099969_13811.png,n04099969_13811.png,1.0,0.8190381,-0.10322532,0.6521387
alexnet_w1_mlp_simclrhn_probe2,1,164,NaN,bear,bear,c50,0164_cop_dnn_c50_bear_10_n02133161_4954.png,n02133161_4954.png,1.0,1.2354689,0.23911877,0.70452595
alexnet_w1_mlp_simclrhn_probe2,1,165,NaN,dog,dog,c15,0165_cop_dnn_c15_dog_10_n02085782_6792.png,n02085782_6792.png,1.0,0.28332326,-0.46749648,0.5309097
alexnet_w1_mlp_simclrhn_probe2,1,166,NaN,clock,oven,c05,0166_cop_dnn_c05_oven_10_n04111531_22886.png,n04111531_22886.png,0.0,-0.22074762,-0.06035687,-0.113413386
alexnet_w1_mlp_simclrhn_probe2,1,167,NaN,elephant,dog,c05,0167_cop_dnn_c05_dog_10_n02091831_510.png,n02091831_510.png,0.0,-0.55786467,-0.12747905,-0.3043286
alexnet_w1_mlp_simclrhn_probe2,1,168,NaN,cat,bear,c15,0168_cop_dnn_c15_bear_10_n02132136_11339.png,n02132136_11339.png,0.0,-0.047858626,-0.027565708,-0.014349259
alexnet_w1_mlp_simclrhn_probe2,1,169,NaN,keyboard,bottle,c15,0169_cop_dnn_c15_bottle_10_n04557648_2709.png,n04557648_2709.png,0.0,-0.26080695,0.866462,-0.79709953
alexnet_w1_mlp_simclrhn_probe2,1,170,NaN,knife,keyboard,c03,0170_cop_dnn_c03_keyboard_10_n03085013_21447.png,n03085013_21447.png,0.0,0.053893194,0.12092181,-0.04739639
alexnet_w1_mlp_simclrhn_probe2,1,171,NaN,airplane,airplane,c30,0171_cop_dnn_c30_airplane_10_n02690373_7676.png,n02690373_7676.png,1.0,2.8315303,1.2979891,1.0843774
alexnet_w1_mlp_simclrhn_probe2,1,172,NaN,elephant,dog,c100,0172_cop_dnn_c100_dog_10_n02091831_4110.png,n02091831_4110.png,0.0,-1.3758932,0.35913578,-1.2268507
alexnet_w1_mlp_simclrhn_probe2,1,173,NaN,elephant,bird,c10,0173_cop_dnn_c10_bird_10_n02007558_16029.png,n02007558_16029.png,0.0,-0.45930675,-0.18166994,-0.19631888
alexnet_w1_mlp_simclrhn_probe2,1,174,NaN,chair,truck,c30,0174_cop_dnn_c30_truck_10_n03796401_15097.png,n03796401_15097.png,0.0,-0.9115861,-0.2706806,-0.45318863
alexnet_w1_mlp_simclrhn_probe2,1,175,NaN,airplane,airplane,c30,0175_cop_dnn_c30_airplane_10_n02690373_7401.png,n02690373_7401.png,1.0,3.3065312,0.3894491,2.0626886
alexnet_w1_mlp_simclrhn_probe2,1,176,NaN,elephant,dog,c05,0176_cop_dnn_c05_dog_10_n02108422_4529.png,n02108422_4529.png,0.0,-0.20326221,0.04504343,-0.17557861
alexnet_w1_mlp_simclrhn_probe2,1,177,NaN,elephant,bear,c10,0177_cop_dnn_c10_bear_10_n02132136_10514.png,n02132136_10514.png,0.0,0.3029381,0.30573833,-0.001980059
alexnet_w1_mlp_simclrhn_probe2,1,178,NaN,knife,airplane,c03,0178_cop_dnn_c03_airplane_10_n02690373_5524.png,n02690373_5524.png,0.0,0.139044,0.14990546,-0.00768021
alexnet_w1_mlp_simclrhn_probe2,1,179,NaN,chair,chair,c100,0179_cop_dnn_c100_chair_10_n04429376_5965.png,n04429376_5965.png,1.0,0.9915955,0.9119972,0.056284506
alexnet_w1_mlp_simclrhn_probe2,1,180,NaN,airplane,airplane,c15,0180_cop_dnn_c15_airplane_10_n02690373_9712.png,n02690373_9712.png,1.0,0.96615374,-0.23724252,0.85092974
alexnet_w1_mlp_simclrhn_probe2,1,181,NaN,boat,boat,c30,0181_cop_dnn_c30_boat_10_n02951358_29825.png,n02951358_29825.png,1.0,1.4400556,0.22922884,0.8561838
alexnet_w1_mlp_simclrhn_probe2,1,182,NaN,keyboard,keyboard,c03,0182_cop_dnn_c03_keyboard_10_n04505470_4887.png,n04505470_4887.png,1.0,0.23970947,0.048259314,0.1353757
alexnet_w1_mlp_simclrhn_probe2,1,183,NaN,airplane,truck,c01,0183_cop_dnn_c01_truck_10_n04467665_32090.png,n04467665_32090.png,0.0,-0.46336693,0.3196252,-0.553659
alexnet_w1_mlp_simclrhn_probe2,1,184,NaN,bottle,chair,c05,0184_cop_dnn_c05_chair_10_n02791124_4296.png,n02791124_4296.png,0.0,-0.37907675,0.1284004,-0.35884055
alexnet_w1_mlp_simclrhn_probe2,1,185,NaN,boat,boat,c30,0185_cop_dnn_c30_boat_10_n04612504_14669.png,n04612504_14669.png,1.0,0.57401836,-0.3959268,0.68585485
alexnet_w1_mlp_simclrhn_probe2,1,186,NaN,airplane,airplane,c03,0186_cop_dnn_c03_airplane_10_n02690373_891.png,n02690373_891.png,1.0,0.5387336,0.08586531,0.32022625
alexnet_w1_mlp_simclrhn_probe2,1,187,NaN,knife,clock,c100,0187_cop_dnn_c100_clock_10_n04548280_7539.png,n04548280_7539.png,0.0,0.69396096,0.9201932,-0.15997034
alexnet_w1_mlp_simclrhn_probe2,1,188,NaN,bear,bear,c30,0188_cop_dnn_c30_bear_10_n02134418_4717.png,n02134418_4717.png,1.0,1.4871112,0.19252387,0.91541153
alexnet_w1_mlp_simclrhn_probe2,1,189,NaN,elephant,bird,c03,0189_cop_dnn_c03_bird_10_n02002724_13195.png,n02002724_13195.png,0.0,-0.3039585,-0.052771214,-0.17761624
alexnet_w1_mlp_simclrhn_probe2,1,190,NaN,bottle,bottle,c10,0190_cop_dnn_c10_bottle_10_n03937543_2494.png,n03937543_2494.png,1.0,-0.34943897,-0.42804837,0.055585247
alexnet_w1_mlp_simclrhn_probe2,1,191,NaN,clock,clock,c30,0191_cop_dnn_c30_clock_10_n03196217_2307.png,n03196217_2307.png,1.0,1.151732,0.83457744,0.22426212
alexnet_w1_mlp_simclrhn_probe2,1,192,NaN,clock,clock,c15,0192_cop_dnn_c15_clock_10_n04548280_17907.png,n04548280_17907.png,1.0,-0.14001395,-0.19631474,0.03981067
alexnet_w1_mlp_simclrhn_probe2,1,193,NaN,clock,chair,c03,0193_cop_dnn_c03_chair_10_n03376595_6540.png,n03376595_6540.png,0.0,-0.1973904,0.17995934,-0.26682657
alexnet_w1_mlp_simclrhn_probe2,1,194,NaN,cat,cat,c30,0194_cop_dnn_c30_cat_10_n02123045_1484.png,n02123045_1484.png,1.0,0.79113334,-0.6655595,1.0300374
alexnet_w1_mlp_simclrhn_probe2,1,195,NaN,airplane,knife,c03,0195_cop_dnn_c03_knife_10_n03041632_89912.png,n03041632_89912.png,0.0,0.16393992,0.2569182,-0.06574556
alexnet_w1_mlp_simclrhn_probe2,1,196,NaN,bottle,bottle,c05,0196_cop_dnn_c05_bottle_10_n04591713_6975.png,n04591713_6975.png,1.0,1.11083,-0.29188982,0.99187267
alexnet_w1_mlp_simclrhn_probe2,1,197,NaN,bird,bird,c50,0197_cop_dnn_c50_bird_10_n01860187_810.png,n01860187_810.png,1.0,-0.08244505,-0.0984828,0.011340405
alexnet_w1_mlp_simclrhn_probe2,1,198,NaN,knife,oven,c03,0198_cop_dnn_c03_oven_10_n04111531_5967.png,n04111531_5967.png,0.0,-0.47643375,-0.058527466,-0.29550436
alexnet_w1_mlp_simclrhn_probe2,1,199,NaN,boat,boat,c15,0199_cop_dnn_c15_boat_10_n04612504_18954.png,n04612504_18954.png,1.0,0.66857547,0.5755674,0.06576662
alexnet_w1_mlp_simclrhn_probe2,1,200,NaN,bicycle,bicycle,c10,0200_cop_dnn_c10_bicycle_10_n03792782_68259.png,n03792782_68259.png,1.0,0.1046303,-0.30727988,0.29126447
alexnet_w1_mlp_simclrhn_probe2,1,201,NaN,knife,car,c03,0201_cop_dnn_c03_car_10_n04285008_296.png,n04285008_296.png,0.0,-0.5024869,0.13996679,-0.45428336
alexnet_w1_mlp_simclrhn_probe2,1,202,NaN,airplane,airplane,c03,0202_cop_dnn_c03_airplane_10_n02690373_12929.png,n02690373_12929.png,1.0,0.7231873,-0.0035817511,0.5139034
alexnet_w1_mlp_simclrhn_probe2,1,203,NaN,airplane,boat,c01,0203_cop_dnn_c01_boat_10_n03344393_8761.png,n03344393_8761.png,0.0,-0.0023639738,0.39530897,-0.28119725
alexnet_w1_mlp_simclrhn_probe2,1,204,NaN,clock,clock,c30,0204_cop_dnn_c30_clock_10_n03196217_3877.png,n03196217_3877.png,1.0,0.8191473,0.23323399,0.41430327
alexnet_w1_mlp_simclrhn_probe2,1,205,NaN,cat,bear,c10,0205_cop_dnn_c10_bear_10_n02134084_1346.png,n02134084_1346.png,0.0,-0.037862442,0.30790612,-0.2444953
alexnet_w1_mlp_simclrhn_probe2,1,206,NaN,airplane,knife,c03,0206_cop_dnn_c03_knife_10_n03041632_48151.png,n03041632_48151.png,0.0,0.12480673,0.47387078,-0.24682556
alexnet_w1_mlp_simclrhn_probe2,1,207,NaN,airplane,airplane,c50,0207_cop_dnn_c50_airplane_10_n02690373_3589.png,n02690373_3589.png,1.0,1.7167357,0.77223825,0.66786057
alexnet_w1_mlp_simclrhn_probe2,1,208,NaN,clock,bottle,c50,0208_cop_dnn_c50_bottle_10_n04560804_2942.png,n04560804_2942.png,0.0,-0.4909134,0.15346713,-0.45564583
alexnet_w1_mlp_simclrhn_probe2,1,209,NaN,keyboard,keyboard,c03,0209_cop_dnn_c03_keyboard_10_n04505470_5022.png,n04505470_5022.png,1.0,0.24722107,0.10137751,0.10312697
alexnet_w1_mlp_simclrhn_probe2,1,210,NaN,bear,dog,c10,0210_cop_dnn_c10_dog_10_n02096294_1043.png,n02096294_1043.png,0.0,-0.21697678,-0.21319681,-0.0026728373
alexnet_w1_mlp_simclrhn_probe2,1,211,NaN,airplane,airplane,c50,0211_cop_dnn_c50_airplane_10_n02690373_1350.png,n02690373_1350.png,1.0,4.3945394,1.4594517,2.0754204
alexnet_w1_mlp_simclrhn_probe2,1,212,NaN,knife,chair,c03,0212_cop_dnn_c03_chair_10_n04099969_27865.png,n04099969_27865.png,0.0,-0.21527708,0.047953214,-0.18613192
alexnet_w1_mlp_simclrhn_probe2,1,213,NaN,knife,oven,c01,0213_cop_dnn_c01_oven_10_n04111531_22120.png,n04111531_22120.png,0.0,-0.29603204,0.18944953,-0.34328732
alexnet_w1_mlp_simclrhn_probe2,1,214,NaN,elephant,elephant,c50,0214_cop_dnn_c50_elephant_10_n02504458_5600.png,n02504458_5600.png,1.0,2.0866268,0.31510064,1.2526581
alexnet_w1_mlp_simclrhn_probe2,1,215,NaN,knife,cat,c03,0215_cop_dnn_c03_cat_10_n02123597_11138.png,n02123597_11138.png,0.0,-0.37074336,-0.02451779,-0.24481845
alexnet_w1_mlp_simclrhn_probe2,1,216,NaN,bear,cat,c30,0216_cop_dnn_c30_cat_10_n02125311_5717.png,n02125311_5717.png,0.0,-0.9046788,-0.11908968,-0.55549544
alexnet_w1_mlp_simclrhn_probe2,1,217,NaN,chair,chair,c15,0217_cop_dnn_c15_chair_10_n02791124_11404.png,n02791124_11404.png,1.0,0.08927855,0.028816074,0.04275343
alexnet_w1_mlp_simclrhn_probe2,1,218,NaN,cat,cat,c100,0218_cop_dnn_c100_cat_10_n02123394_2984.png,n02123394_2984.png,1.0,0.92226225,0.19850488,0.51177377
alexnet_w1_mlp_simclrhn_probe2,1,219,NaN,airplane,dog,c10,0219_cop_dnn_c10_dog_10_n02087394_9693.png,n02087394_9693.png,0.0,-0.531403,-0.2929892,-0.16858402
alexnet_w1_mlp_simclrhn_probe2,1,220,NaN,airplane,dog,c01,0220_cop_dnn_c01_dog_10_n02098105_2086.png,n02098105_2086.png,0.0,-0.5506844,0.21194842,-0.5392629
alexnet_w1_mlp_simclrhn_probe2,1,221,NaN,bear,cat,c10,0221_cop_dnn_c10_cat_10_n02123159_6932.png,n02123159_6932.png,0.0,-0.08422875,-0.016490653,-0.047898065
alexnet_w1_mlp_simclrhn_probe2,1,222,NaN,car,car,c15,0222_cop_dnn_c15_car_10_n04285008_8323.png,n04285008_8323.png,1.0,1.0554904,0.5878675,0.3306593
alexnet_w1_mlp_simclrhn_probe2,1,223,NaN,knife,truck,c01,0223_cop_dnn_c01_truck_10_n03796401_2226.png,n03796401_2226.png,0.0,-0.47947717,0.14384401,-0.44075465
alexnet_w1_mlp_simclrhn_probe2,1,224,NaN,elephant,bear,c05,0224_cop_dnn_c05_bear_10_n02134084_6223.png,n02134084_6223.png,0.0,-0.12743878,0.016511796,-0.10178843
alexnet_w1_mlp_simclrhn_probe2,1,225,NaN,cat,cat,c05,0225_cop_dnn_c05_cat_10_n02125311_22459.png,n02125311_22459.png,1.0,-0.09951821,-0.10672614,0.0050967764
alexnet_w1_mlp_simclrhn_probe2,1,226,NaN,bicycle,bicycle,c10,0226_cop_dnn_c10_bicycle_10_n02835271_19143.png,n02835271_19143.png,1.0,0.32950544,-0.3416845,0.47460294
alexnet_w1_mlp_simclrhn_probe2,1,227,NaN,cat,cat,c10,0227_cop_dnn_c10_cat_10_n02123597_4357.png,n02123597_4357.png,1.0,0.57613444,-0.21807845,0.5615933
alexnet_w1_mlp_simclrhn_probe2,1,228,NaN,airplane,boat,c03,0228_cop_dnn_c03_boat_10_n04273569_6180.png,n04273569_6180.png,0.0,0.21215805,0.4569403,-0.17308718
alexnet_w1_mlp_simclrhn_probe2,1,229,NaN,airplane,airplane,c100,0229_cop_dnn_c100_airplane_10_n02690373_139.png,n02690373_139.png,1.0,5.15591,1.055838,2.8991888
alexnet_w1_mlp_simclrhn_probe2,1,230,NaN,elephant,bottle,c10,0230_cop_dnn_c10_bottle_10_n04557648_4165.png,n04557648_4165.png,0.0,-0.650706,0.04231848,-0.4900423
alexnet_w1_mlp_simclrhn_probe2,1,231,NaN,airplane,bottle,c50,0231_cop_dnn_c50_bottle_10_n04560804_5756.png,n04560804_5756.png,0.0,-0.9686769,0.08809072,-0.74724764
alexnet_w1_mlp_simclrhn_probe2,1,232,NaN,truck,truck,c15,0232_cop_dnn_c15_truck_10_n04467665_39477.png,n04467665_39477.png,1.0,2.3128772,1.6113404,0.4960614
alexnet_w1_mlp_simclrhn_probe2,1,233,NaN,airplane,cat,c01,0233_cop_dnn_c01_cat_10_n02123159_386.png,n02123159_386.png,0.0,-0.33245108,0.27799547,-0.4316509
alexnet_w1_mlp_simclrhn_probe2,1,234,NaN,cat,bear,c15,0234_cop_dnn_c15_bear_10_n02134084_4859.png,n02134084_4859.png,0.0,0.0007500462,0.2273503,-0.16023058
alexnet_w1_mlp_simclrhn_probe2,1,235,NaN,airplane,dog,c03,0235_cop_dnn_c03_dog_10_n02099429_1992.png,n02099429_1992.png,0.0,-0.53978753,0.13261773,-0.47546232
alexnet_w1_mlp_simclrhn_probe2,1,236,NaN,airplane,oven,c03,0236_cop_dnn_c03_oven_10_n04111531_584.png,n04111531_584.png,0.0,-0.66371095,-0.033428073,-0.4456773
alexnet_w1_mlp_simclrhn_probe2,1,237,NaN,knife,bottle,c05,0237_cop_dnn_c05_bottle_10_n04591713_4019.png,n04591713_4019.png,0.0,-0.0894007,0.10903315,-0.14031392
alexnet_w1_mlp_simclrhn_probe2,1,238,NaN,airplane,dog,c03,0238_cop_dnn_c03_dog_10_n02113712_4486.png,n02113712_4486.png,0.0,-0.552144,-0.035817504,-0.36509797
alexnet_w1_mlp_simclrhn_probe2,1,239,NaN,airplane,chair,c50,0239_cop_dnn_c50_chair_10_n03376595_13018.png,n03376595_13018.png,0.0,-2.2642565,1.0018352,-2.3094757
alexnet_w1_mlp_simclrhn_probe2,1,240,NaN,oven,oven,c50,0240_cop_dnn_c50_oven_10_n04111531_7421.png,n04111531_7421.png,1.0,1.8584598,-1.0828371,2.079811
alexnet_w1_mlp_simclrhn_probe2,1,241,NaN,airplane,cat,c01,0241_cop_dnn_c01_cat_10_n02123045_10689.png,n02123045_10689.png,0.0,-0.3207997,0.27567407,-0.4217707
alexnet_w1_mlp_simclrhn_probe2,1,242,NaN,clock,clock,c05,0242_cop_dnn_c05_clock_10_n02708093_4391.png,n02708093_4391.png,1.0,0.21344416,-0.101404734,0.2226318
alexnet_w1_mlp_simclrhn_probe2,1,243,NaN,clock,clock,c50,0243_cop_dnn_c50_clock_10_n02708093_3759.png,n02708093_3759.png,1.0,3.3701706,-0.29966894,2.5949686
alexnet_w1_mlp_simclrhn_probe2,1,244,NaN,elephant,elephant,c05,0244_cop_dnn_c05_elephant_10_n02504013_648.png,n02504013_648.png,1.0,0.24393022,-0.245229,0.3458878
alexnet_w1_mlp_simclrhn_probe2,1,245,NaN,airplane,bottle,c01,0245_cop_dnn_c01_bottle_10_n04591713_1879.png,n04591713_1879.png,0.0,-0.2827508,0.15076469,-0.30654174
alexnet_w1_mlp_simclrhn_probe2,1,246,NaN,airplane,dog,c01,0246_cop_dnn_c01_dog_10_n02110627_20194.png,n02110627_20194.png,0.0,-0.5176024,0.18547836,-0.4971532
alexnet_w1_mlp_simclrhn_probe2,1,247,NaN,truck,truck,c50,0247_cop_dnn_c50_truck_10_n03796401_13298.png,n03796401_13298.png,1.0,2.4306705,1.3751307,0.7463794
alexnet_w1_mlp_simclrhn_probe2,1,248,NaN,keyboard,chair,c100,0248_cop_dnn_c100_chair_10_n03376595_7824.png,n03376595_7824.png,0.0,-2.8095813,2.8015864,-3.967695
alexnet_w1_mlp_simclrhn_probe2,1,249,NaN,airplane,bear,c05,0249_cop_dnn_c05_bear_10_n02134418_6252.png,n02134418_6252.png,0.0,-0.27941847,0.19897363,-0.3382743
alexnet_w1_mlp_simclrhn_probe2,1,250,NaN,bird,bird,c50,0250_cop_dnn_c50_bird_10_n01855032_1815.png,n01855032_1815.png,1.0,-0.75890905,-1.8957741,0.80388504
alexnet_w1_mlp_simclrhn_probe2,1,251,NaN,car,car,c100,0251_cop_dnn_c100_car_10_n03100240_6773.png,n03100240_6773.png,1.0,5.2098937,0.76965415,3.1397235
alexnet_w1_mlp_simclrhn_probe2,1,252,NaN,clock,keyboard,c03,0252_cop_dnn_c03_keyboard_10_n03085013_22438.png,n03085013_22438.png,0.0,-0.25281182,0.20249856,-0.32195306
alexnet_w1_mlp_simclrhn_probe2,1,253,NaN,knife,keyboard,c01,0253_cop_dnn_c01_keyboard_10_n04505470_4950.png,n04505470_4950.png,0.0,-0.12195784,0.21773386,-0.24019831
alexnet_w1_mlp_simclrhn_probe2,1,254,NaN,clock,truck,c03,0254_cop_dnn_c03_truck_10_n04467665_22358.png,n04467665_22358.png,0.0,-0.3926894,0.17541517,-0.4017106
alexnet_w1_mlp_simclrhn_probe2,1,255,NaN,airplane,truck,c15,0255_cop_dnn_c15_truck_10_n04467665_67969.png,n04467665_67969.png,0.0,-0.35406905,0.70250314,-0.74710935
alexnet_w1_mlp_simclrhn_probe2,1,256,NaN,elephant,elephant,c10,0256_cop_dnn_c10_elephant_10_n02504013_2128.png,n02504013_2128.png,1.0,0.05016668,-0.09983363,0.106066234
alexnet_w1_mlp_simclrhn_probe2,1,257,NaN,car,car,c30,0257_cop_dnn_c30_car_10_n03100240_3499.png,n03100240_3499.png,1.0,3.762743,2.6605685,0.7793551
alexnet_w1_mlp_simclrhn_probe2,1,258,NaN,bear,bear,c50,0258_cop_dnn_c50_bear_10_n02134084_7250.png,n02134084_7250.png,1.0,0.7974361,0.6835794,0.08050887
alexnet_w1_mlp_simclrhn_probe2,1,259,NaN,bicycle,bicycle,c15,0259_cop_dnn_c15_bicycle_10_n03792782_43279.png,n03792782_43279.png,1.0,-0.4488032,-0.5928832,0.10187998
alexnet_w1_mlp_simclrhn_probe2,1,260,NaN,cat,cat,c50,0260_cop_dnn_c50_cat_10_n02123045_1274.png,n02123045_1274.png,1.0,-0.38413596,-1.0429562,0.46585628
alexnet_w1_mlp_simclrhn_probe2,1,261,NaN,oven,oven,c100,0261_cop_dnn_c100_oven_10_n04111531_6567.png,n04111531_6567.png,1.0,4.069481,-1.3247415,3.8142912
alexnet_w1_mlp_simclrhn_probe2,1,262,NaN,oven,knife,c100,0262_cop_dnn_c100_knife_10_n03041632_86338.png,n03041632_86338.png,0.0,-2.1110315,1.7398645,-2.7229946
alexnet_w1_mlp_simclrhn_probe2,1,263,NaN,knife,chair,c15,0263_cop_dnn_c15_chair_10_n02791124_9757.png,n02791124_9757.png,0.0,-0.123743534,0.14690298,-0.19137599
alexnet_w1_mlp_simclrhn_probe2,1,264,NaN,knife,knife,c15,0264_cop_dnn_c15_knife_10_n03041632_45090.png,n03041632_45090.png,1.0,0.57412666,-0.25972518,0.58962226
alexnet_w1_mlp_simclrhn_probe2,1,265,NaN,airplane,bicycle,c01,0265_cop_dnn_c01_bicycle_10_n02835271_1436.png,n02835271_1436.png,0.0,-0.5644821,0.16335209,-0.5146565
alexnet_w1_mlp_simclrhn_probe2,1,266,NaN,airplane,bird,c03,0266_cop_dnn_c03_bird_10_n01798484_8189.png,n01798484_8189.png,0.0,-0.21079215,0.3231511,-0.37755492
alexnet_w1_mlp_simclrhn_probe2,1,267,NaN,knife,bird,c15,0267_cop_dnn_c15_bird_10_n01819313_1282.png,n01819313_1282.png,0.0,-0.62578285,-0.03136597,-0.4203162
alexnet_w1_mlp_simclrhn_probe2,1,268,NaN,bottle,bottle,c100,0268_cop_dnn_c100_bottle_10_n03983396_11519.png,n03983396_11519.png,1.0,4.1017523,-0.032424122,2.923304
alexnet_w1_mlp_simclrhn_probe2,1,269,NaN,airplane,boat,c05,0269_cop_dnn_c05_boat_10_n03344393_7735.png,n03344393_7735.png,0.0,0.34631714,0.514931,-0.11922802
alexnet_w1_mlp_simclrhn_probe2,1,270,NaN,bottle,bottle,c05,0270_cop_dnn_c05_bottle_10_n04560804_21795.png,n04560804_21795.png,1.0,0.2612169,-0.123468444,0.2720136
alexnet_w1_mlp_simclrhn_probe2,1,271,NaN,chair,chair,c30,0271_cop_dnn_c30_chair_10_n02791124_4109.png,n02791124_4109.png,1.0,0.9233238,0.14666183,0.54918295
alexnet_w1_mlp_simclrhn_probe2,1,272,NaN,keyboard,keyboard,c03,0272_cop_dnn_c03_keyboard_10_n04505470_9663.png,n04505470_9663.png,1.0,0.09171775,-0.11086231,0.14324574
alexnet_w1_mlp_simclrhn_probe2,1,273,NaN,knife,knife,c15,0273_cop_dnn_c15_knife_10_n03041632_27709.png,n03041632_27709.png,1.0,0.5617283,-0.23215987,0.5613637
alexnet_w1_mlp_simclrhn_probe2,1,274,NaN,airplane,airplane,c50,0274_cop_dnn_c50_airplane_10_n02690373_8539.png,n02690373_8539.png,1.0,0.80557764,-0.11607715,0.65170836
alexnet_w1_mlp_simclrhn_probe2,1,275,NaN,bear,bear,c15,0275_cop_dnn_c15_bear_10_n02134418_2175.png,n02134418_2175.png,1.0,0.51413697,0.23086901,0.20030071
alexnet_w1_mlp_simclrhn_probe2,1,276,NaN,elephant,elephant,c50,0276_cop_dnn_c50_elephant_10_n02504458_2875.png,n02504458_2875.png,1.0,3.5136113,-0.8073493,3.0553806
alexnet_w1_mlp_simclrhn_probe2,1,277,NaN,airplane,chair,c03,0277_cop_dnn_c03_chair_10_n02791124_5868.png,n02791124_5868.png,0.0,-0.2484294,0.119204745,-0.2599566
alexnet_w1_mlp_simclrhn_probe2,1,278,NaN,cat,cat,c10,0278_cop_dnn_c10_cat_10_n02123597_488.png,n02123597_488.png,1.0,-0.00528972,-0.12745176,0.086381614
alexnet_w1_mlp_simclrhn_probe2,1,279,NaN,bicycle,oven,c30,0279_cop_dnn_c30_oven_10_n04111531_6500.png,n04111531_6500.png,0.0,-0.82990706,-0.005465593,-0.5829682
alexnet_w1_mlp_simclrhn_probe2,1,280,NaN,bicycle,bicycle,c15,0280_cop_dnn_c15_bicycle_10_n03792782_13002.png,n03792782_13002.png,1.0,0.59374654,-0.45206323,0.73949915
alexnet_w1_mlp_simclrhn_probe2,1,281,NaN,clock,clock,c05,0281_cop_dnn_c05_clock_10_n03196217_10641.png,n03196217_10641.png,1.0,0.5183242,0.10423278,0.29280683
alexnet_w1_mlp_simclrhn_probe2,1,282,NaN,bicycle,bicycle,c15,0282_cop_dnn_c15_bicycle_10_n03792782_20193.png,n03792782_20193.png,1.0,2.2719743,0.030030012,1.585294
alexnet_w1_mlp_simclrhn_probe2,1,283,NaN,truck,truck,c05,0283_cop_dnn_c05_truck_10_n03417042_13806.png,n03417042_13806.png,1.0,0.10396311,0.008615151,0.06742119
alexnet_w1_mlp_simclrhn_probe2,1,284,NaN,knife,truck,c05,0284_cop_dnn_c05_truck_10_n04467665_70237.png,n04467665_70237.png,0.0,-0.42989576,-0.06491053,-0.25808352
alexnet_w1_mlp_simclrhn_probe2,1,285,NaN,airplane,truck,c01,0285_cop_dnn_c01_truck_10_n04467665_3720.png,n04467665_3720.png,0.0,-0.6121326,0.12661666,-0.52237463
alexnet_w1_mlp_simclrhn_probe2,1,286,NaN,bear,bear,c10,0286_cop_dnn_c10_bear_10_n02132136_8975.png,n02132136_8975.png,1.0,1.0519594,0.7504782,0.2131794
alexnet_w1_mlp_simclrhn_probe2,1,287,NaN,knife,knife,c05,0287_cop_dnn_c05_knife_10_n03041632_18859.png,n03041632_18859.png,1.0,-0.13969062,-0.14756487,0.0055679358
alexnet_w1_mlp_simclrhn_probe2,1,288,NaN,elephant,bear,c50,0288_cop_dnn_c50_bear_10_n02132136_29760.png,n02132136_29760.png,0.0,1.1757036,1.7850566,-0.4308776
alexnet_w1_mlp_simclrhn_probe2,1,289,NaN,airplane,boat,c05,0289_cop_dnn_c05_boat_10_n04273569_6586.png,n04273569_6586.png,0.0,0.30753464,0.5197549,-0.15006238
alexnet_w1_mlp_simclrhn_probe2,1,290,NaN,bottle,bottle,c05,0290_cop_dnn_c05_bottle_10_n03983396_11137.png,n03983396_11137.png,1.0,-0.013200321,-0.035571378,0.015818726
alexnet_w1_mlp_simclrhn_probe2,1,291,NaN,airplane,clock,c10,0291_cop_dnn_c10_clock_10_n03196217_4232.png,n03196217_4232.png,0.0,0.073857084,0.11527577,-0.029287435
alexnet_w1_mlp_simclrhn_probe2,1,292,NaN,airplane,clock,c01,0292_cop_dnn_c01_clock_10_n04548280_1325.png,n04548280_1325.png,0.0,-0.008665763,0.26927578,-0.19653437
alexnet_w1_mlp_simclrhn_probe2,1,293,NaN,airplane,airplane,c100,0293_cop_dnn_c100_airplane_10_n02690373_2268.png,n02690373_2268.png,1.0,5.3881183,0.18895291,3.6763651
alexnet_w1_mlp_simclrhn_probe2,1,294,NaN,bear,bicycle,c10,0294_cop_dnn_c10_bicycle_10_n03792782_14557.png,n03792782_14557.png,0.0,-0.23443894,-0.06933961,-0.11674285
alexnet_w1_mlp_simclrhn_probe2,1,295,NaN,airplane,cat,c01,0295_cop_dnn_c01_cat_10_n02124075_13792.png,n02124075_13792.png,0.0,-0.34120357,0.23664778,-0.40860263
alexnet_w1_mlp_simclrhn_probe2,1,296,NaN,airplane,dog,c01,0296_cop_dnn_c01_dog_10_n02110185_14953.png,n02110185_14953.png,0.0,-0.6312376,0.16400719,-0.56232303
alexnet_w1_mlp_simclrhn_probe2,1,297,NaN,bottle,bottle,c15,0297_cop_dnn_c15_bottle_10_n04557648_1634.png,n04557648_1634.png,1.0,-0.027193397,-0.027732234,0.00038101542
alexnet_w1_mlp_simclrhn_probe2,1,298,NaN,bicycle,bicycle,c50,0298_cop_dnn_c50_bicycle_10_n02835271_1701.png,n02835271_1701.png,1.0,1.3511012,-0.26308036,1.1413987
alexnet_w1_mlp_simclrhn_probe2,1,299,NaN,boat,boat,c05,0299_cop_dnn_c05_boat_10_n04273569_7312.png,n04273569_7312.png,1.0,0.30277437,0.3009003,0.0013251601
alexnet_w1_mlp_simclrhn_probe2,1,300,NaN,bird,bird,c100,0300_cop_dnn_c100_bird_10_n01616318_5417.png,n01616318_5417.png,1.0,0.55309606,-0.9342455,1.0517094
alexnet_w1_mlp_simclrhn_probe2,1,301,NaN,cat,cat,c15,0301_cop_dnn_c15_cat_10_n02123045_12200.png,n02123045_12200.png,1.0,1.5769267,-0.8506199,1.7165346
alexnet_w1_mlp_simclrhn_probe2,1,302,NaN,elephant,dog,c30,0302_cop_dnn_c30_dog_10_n02102480_8264.png,n02102480_8264.png,0.0,-0.13184726,-0.01904589,-0.079762615
alexnet_w1_mlp_simclrhn_probe2,1,303,NaN,bicycle,bicycle,c30,0303_cop_dnn_c30_bicycle_10_n03792782_5426.png,n03792782_5426.png,1.0,0.57996714,-0.5091522,0.77012366
alexnet_w1_mlp_simclrhn_probe2,1,304,NaN,bottle,clock,c05,0304_cop_dnn_c05_clock_10_n02708093_8038.png,n02708093_8038.png,0.0,-0.23854072,0.048114948,-0.20269617
alexnet_w1_mlp_simclrhn_probe2,1,305,NaN,bicycle,bicycle,c30,0305_cop_dnn_c30_bicycle_10_n02835271_2764.png,n02835271_2764.png,1.0,2.198485,-0.06266904,1.5988773
alexnet_w1_mlp_simclrhn_probe2,1,306,NaN,knife,knife,c50,0306_cop_dnn_c50_knife_10_n03041632_39836.png,n03041632_39836.png,1.0,1.3631561,0.012694433,0.9549206
alexnet_w1_mlp_simclrhn_probe2,1,307,NaN,airplane,bicycle,c01,0307_cop_dnn_c01_bicycle_10_n03792782_19040.png,n03792782_19040.png,0.0,-0.60924494,0.19035086,-0.56539965
alexnet_w1_mlp_simclrhn_probe2,1,308,NaN,airplane,cat,c01,0308_cop_dnn_c01_cat_10_n02125311_28331.png,n02125311_28331.png,0.0,-0.316179,0.21803768,-0.37774825
alexnet_w1_mlp_simclrhn_probe2,1,309,NaN,clock,knife,c01,0309_cop_dnn_c01_knife_10_n03041632_18126.png,n03041632_18126.png,0.0,0.07467327,0.11162854,-0.02613132
alexnet_w1_mlp_simclrhn_probe2,1,310,NaN,bicycle,bicycle,c30,0310_cop_dnn_c30_bicycle_10_n03792782_19253.png,n03792782_19253.png,1.0,1.2911543,-0.10039075,0.98397094
alexnet_w1_mlp_simclrhn_probe2,1,311,NaN,knife,bottle,c01,0311_cop_dnn_c01_bottle_10_n03983396_751.png,n03983396_751.png,0.0,-0.23318546,0.101968005,-0.23698929
alexnet_w1_mlp_simclrhn_probe2,1,312,NaN,car,car,c15,0312_cop_dnn_c15_car_10_n04285008_628.png,n04285008_628.png,1.0,1.3707399,0.6830112,0.48629767
alexnet_w1_mlp_simclrhn_probe2,1,313,NaN,chair,boat,c15,0313_cop_dnn_c15_boat_10_n03662601_3011.png,n03662601_3011.png,0.0,-0.39030573,-0.023225654,-0.25956482
alexnet_w1_mlp_simclrhn_probe2,1,314,NaN,airplane,bottle,c10,0314_cop_dnn_c10_bottle_10_n04557648_2904.png,n04557648_2904.png,0.0,-0.034887616,0.028773546,-0.04501524
alexnet_w1_mlp_simclrhn_probe2,1,315,NaN,bird,bird,c10,0315_cop_dnn_c10_bird_10_n02002556_9804.png,n02002556_9804.png,1.0,-0.08125048,-0.24825251,0.11808827
alexnet_w1_mlp_simclrhn_probe2,1,316,NaN,clock,truck,c05,0316_cop_dnn_c05_truck_10_n04467665_8955.png,n04467665_8955.png,0.0,-0.3296698,0.1644741,-0.3494125
alexnet_w1_mlp_simclrhn_probe2,1,317,NaN,airplane,boat,c03,0317_cop_dnn_c03_boat_10_n04612504_15061.png,n04612504_15061.png,0.0,-0.012615013,0.084962994,-0.06899807
alexnet_w1_mlp_simclrhn_probe2,1,318,NaN,airplane,bird,c05,0318_cop_dnn_c05_bird_10_n02002556_1437.png,n02002556_1437.png,0.0,-0.16277908,0.19644587,-0.2540104
alexnet_w1_mlp_simclrhn_probe2,1,319,NaN,car,truck,c50,0319_cop_dnn_c50_truck_10_n03417042_10993.png,n03417042_10993.png,0.0,-1.056076,0.60436326,-1.1741079
alexnet_w1_mlp_simclrhn_probe2,1,320,NaN,airplane,chair,c10,0320_cop_dnn_c10_chair_10_n02791124_880.png,n02791124_880.png,0.0,0.033406384,0.16877466,-0.09571984
alexnet_w1_mlp_simclrhn_probe2,1,321,NaN,bicycle,bicycle,c50,0321_cop_dnn_c50_bicycle_10_n03792782_4826.png,n03792782_4826.png,1.0,2.801929,0.9868292,1.2834693
alexnet_w1_mlp_simclrhn_probe2,1,322,NaN,airplane,chair,c03,0322_cop_dnn_c03_chair_10_n04099969_3804.png,n04099969_3804.png,0.0,-0.20624161,0.034771115,-0.17042173
alexnet_w1_mlp_simclrhn_probe2,1,323,NaN,bottle,bottle,c10,0323_cop_dnn_c10_bottle_10_n02823428_2504.png,n02823428_2504.png,1.0,1.3312048,-0.044666946,0.9728882
alexnet_w1_mlp_simclrhn_probe2,1,324,NaN,cat,cat,c10,0324_cop_dnn_c10_cat_10_n02124075_9716.png,n02124075_9716.png,1.0,0.2511131,0.028632432,0.15731758
alexnet_w1_mlp_simclrhn_probe2,1,325,NaN,airplane,knife,c01,0325_cop_dnn_c01_knife_10_n03041632_81630.png,n03041632_81630.png,0.0,-0.03361842,0.13253634,-0.11748916
alexnet_w1_mlp_simclrhn_probe2,1,326,NaN,bottle,bottle,c30,0326_cop_dnn_c30_bottle_10_n04591713_457.png,n04591713_457.png,1.0,0.81768805,0.0997939,0.50762784
alexnet_w1_mlp_simclrhn_probe2,1,327,NaN,airplane,elephant,c30,0327_cop_dnn_c30_elephant_10_n02504458_5337.png,n02504458_5337.png,0.0,-0.10061039,0.20321542,-0.21483728
alexnet_w1_mlp_simclrhn_probe2,1,328,NaN,clock,clock,c15,0328_cop_dnn_c15_clock_10_n02708093_5429.png,n02708093_5429.png,1.0,0.592504,-0.14356105,0.52047664
alexnet_w1_mlp_simclrhn_probe2,1,329,NaN,keyboard,oven,c100,0329_cop_dnn_c100_oven_10_n04111531_9411.png,n04111531_9411.png,0.0,-0.14927241,-0.13673562,-0.008864853
alexnet_w1_mlp_simclrhn_probe2,1,330,NaN,airplane,knife,c01,0330_cop_dnn_c01_knife_10_n03041632_2338.png,n03041632_2338.png,0.0,0.18565112,0.2597315,-0.052382737
alexnet_w1_mlp_simclrhn_probe2,1,331,NaN,cat,cat,c100,0331_cop_dnn_c100_cat_10_n02123394_2755.png,n02123394_2755.png,1.0,0.030233702,-0.62212133,0.46128467
alexnet_w1_mlp_simclrhn_probe2,1,332,NaN,airplane,elephant,c05,0332_cop_dnn_c05_elephant_10_n02504458_10243.png,n02504458_10243.png,0.0,0.10883609,0.2560016,-0.10406173
alexnet_w1_mlp_simclrhn_probe2,1,333,NaN,oven,oven,c15,0333_cop_dnn_c15_oven_10_n04111531_1752.png,n04111531_1752.png,1.0,0.12086086,-0.12736623,0.17552306
alexnet_w1_mlp_simclrhn_probe2,1,334,NaN,airplane,bird,c05,0334_cop_dnn_c05_bird_10_n02037110_6736.png,n02037110_6736.png,0.0,0.10138375,0.2218631,-0.08519177
alexnet_w1_mlp_simclrhn_probe2,1,335,NaN,airplane,airplane,c10,0335_cop_dnn_c10_airplane_10_n02690373_8804.png,n02690373_8804.png,1.0,1.1294091,0.04651772,0.76571983
alexnet_w1_mlp_simclrhn_probe2,1,336,NaN,elephant,elephant,c100,0336_cop_dnn_c100_elephant_10_n02504458_12217.png,n02504458_12217.png,1.0,1.505173,-0.77898747,1.6151453
alexnet_w1_mlp_simclrhn_probe2,1,337,NaN,knife,knife,c15,0337_cop_dnn_c15_knife_10_n03041632_84012.png,n03041632_84012.png,1.0,-0.26041088,-0.5251441,0.18719466
alexnet_w1_mlp_simclrhn_probe2,1,338,NaN,cat,dog,c50,0338_cop_dnn_c50_dog_10_n02093991_6192.png,n02093991_6192.png,0.0,0.17347756,1.7346,-1.1038803
alexnet_w1_mlp_simclrhn_probe2,1,339,NaN,bird,bird,c50,0339_cop_dnn_c50_bird_10_n02027492_6499.png,n02027492_6499.png,1.0,0.56961644,-2.6115477,2.2494228
alexnet_w1_mlp_simclrhn_probe2,1,340,NaN,clock,knife,c10,0340_cop_dnn_c10_knife_10_n03041632_46185.png,n03041632_46185.png,0.0,0.06341779,0.15494601,-0.06472023
alexnet_w1_mlp_simclrhn_probe2,1,341,NaN,boat,bear,c30,0341_cop_dnn_c30_bear_10_n02134084_14775.png,n02134084_14775.png,0.0,-0.46327037,0.7737221,-0.87468576
alexnet_w1_mlp_simclrhn_probe2,1,342,NaN,truck,truck,c30,0342_cop_dnn_c30_truck_10_n03417042_5346.png,n03417042_5346.png,1.0,2.588626,0.8188319,1.2514334
alexnet_w1_mlp_simclrhn_probe2,1,343,NaN,cat,dog,c30,0343_cop_dnn_c30_dog_10_n02093991_9672.png,n02093991_9672.png,0.0,-0.30945587,0.31164825,-0.43918693
alexnet_w1_mlp_simclrhn_probe2,1,344,NaN,elephant,elephant,c100,0344_cop_dnn_c100_elephant_10_n02504458_2031.png,n02504458_2031.png,1.0,11.02319,2.7441826,5.854142
alexnet_w1_mlp_simclrhn_probe2,1,345,NaN,airplane,bird,c03,0345_cop_dnn_c03_bird_10_n02025239_660.png,n02025239_660.png,0.0,-0.17659366,0.13016827,-0.21691343
alexnet_w1_mlp_simclrhn_probe2,1,346,NaN,airplane,elephant,c01,0346_cop_dnn_c01_elephant_10_n02504458_4244.png,n02504458_4244.png,0.0,-0.2624507,0.29597425,-0.39486608
alexnet_w1_mlp_simclrhn_probe2,1,347,NaN,bear,elephant,c30,0347_cop_dnn_c30_elephant_10_n02504013_7539.png,n02504013_7539.png,0.0,0.42078593,0.46580565,-0.031833746
alexnet_w1_mlp_simclrhn_probe2,1,348,NaN,knife,bird,c03,0348_cop_dnn_c03_bird_10_n02002724_5876.png,n02002724_5876.png,0.0,-0.41492683,-0.2046438,-0.14869256
alexnet_w1_mlp_simclrhn_probe2,1,349,NaN,knife,bird,c10,0349_cop_dnn_c10_bird_10_n01532829_560.png,n01532829_560.png,0.0,-0.47181016,-0.2566101,-0.15216944
alexnet_w1_mlp_simclrhn_probe2,1,350,NaN,boat,boat,c30,0350_cop_dnn_c30_boat_10_n04273569_1709.png,n04273569_1709.png,1.0,1.1393793,-0.5315801,1.1815467
alexnet_w1_mlp_simclrhn_probe2,1,351,NaN,bicycle,bicycle,c50,0351_cop_dnn_c50_bicycle_10_n02835271_7958.png,n02835271_7958.png,1.0,-0.0515559,-0.9998346,0.6705343
alexnet_w1_mlp_simclrhn_probe2,1,352,NaN,elephant,bear,c30,0352_cop_dnn_c30_bear_10_n02133161_12157.png,n02133161_12157.png,0.0,0.010153405,0.6053374,-0.42085862
alexnet_w1_mlp_simclrhn_probe2,1,353,NaN,airplane,chair,c01,0353_cop_dnn_c01_chair_10_n04099969_4577.png,n04099969_4577.png,0.0,-0.18482143,0.14756225,-0.23503077
alexnet_w1_mlp_simclrhn_probe2,1,354,NaN,airplane,bicycle,c01,0354_cop_dnn_c01_bicycle_10_n02835271_10283.png,n02835271_10283.png,0.0,-0.56682813,0.2601367,-0.58475244
alexnet_w1_mlp_simclrhn_probe2,1,355,NaN,car,truck,c100,0355_cop_dnn_c100_truck_10_n03417042_23815.png,n03417042_23815.png,0.0,0.21847916,1.8891773,-1.181362
alexnet_w1_mlp_simclrhn_probe2,1,356,NaN,airplane,bear,c03,0356_cop_dnn_c03_bear_10_n02133161_1059.png,n02133161_1059.png,0.0,0.015162781,0.0654303,-0.035544503
alexnet_w1_mlp_simclrhn_probe2,1,357,NaN,knife,chair,c01,0357_cop_dnn_c01_chair_10_n02791124_5173.png,n02791124_5173.png,0.0,-0.12717867,0.08494492,-0.14999403
alexnet_w1_mlp_simclrhn_probe2,1,358,NaN,bottle,bottle,c30,0358_cop_dnn_c30_bottle_10_n03983396_5545.png,n03983396_5545.png,1.0,0.68011004,-0.5402455,0.86292166
alexnet_w1_mlp_simclrhn_probe2,1,359,NaN,airplane,airplane,c01,0359_cop_dnn_c01_airplane_10_n02690373_1797.png,n02690373_1797.png,1.0,0.4181878,0.1042191,0.22200939
alexnet_w1_mlp_simclrhn_probe2,1,360,NaN,airplane,oven,c05,0360_cop_dnn_c05_oven_10_n04111531_6628.png,n04111531_6628.png,0.0,-0.60130054,0.048666507,-0.45959613
alexnet_w1_mlp_simclrhn_probe2,1,361,NaN,airplane,elephant,c10,0361_cop_dnn_c10_elephant_10_n02504458_7817.png,n02504458_7817.png,0.0,-0.15542687,-0.088663176,-0.047209065
alexnet_w1_mlp_simclrhn_probe2,1,362,NaN,knife,knife,c50,0362_cop_dnn_c50_knife_10_n03041632_4714.png,n03041632_4714.png,1.0,-0.35240427,-0.737463,0.27227765
alexnet_w1_mlp_simclrhn_probe2,1,363,NaN,knife,bear,c03,0363_cop_dnn_c03_bear_10_n02134084_169.png,n02134084_169.png,0.0,-0.83446395,0.05791719,-0.63100874
alexnet_w1_mlp_simclrhn_probe2,1,364,NaN,bird,bird,c15,0364_cop_dnn_c15_bird_10_n02013706_8336.png,n02013706_8336.png,1.0,0.60780686,-0.6253248,0.87195575
alexnet_w1_mlp_simclrhn_probe2,1,365,NaN,bottle,bottle,c15,0365_cop_dnn_c15_bottle_10_n04579145_6880.png,n04579145_6880.png,1.0,1.0964634,0.079729155,0.71893966
alexnet_w1_mlp_simclrhn_probe2,1,366,NaN,cat,dog,c05,0366_cop_dnn_c05_dog_10_n02105641_416.png,n02105641_416.png,0.0,-0.23877423,0.02200591,-0.1843994
alexnet_w1_mlp_simclrhn_probe2,1,367,NaN,airplane,airplane,c10,0367_cop_dnn_c10_airplane_10_n02690373_6549.png,n02690373_6549.png,1.0,0.21921787,-0.14178339,0.25526643
alexnet_w1_mlp_simclrhn_probe2,1,368,NaN,clock,clock,c01,0368_cop_dnn_c01_clock_10_n04548280_2374.png,n04548280_2374.png,1.0,0.28026775,0.030913256,0.17632025
alexnet_w1_mlp_simclrhn_probe2,1,369,NaN,keyboard,bottle,c30,0369_cop_dnn_c30_bottle_10_n03983396_6287.png,n03983396_6287.png,0.0,0.43231556,0.46010515,-0.01965021
alexnet_w1_mlp_simclrhn_probe2,1,370,NaN,airplane,dog,c01,0370_cop_dnn_c01_dog_10_n02090622_1126.png,n02090622_1126.png,0.0,-0.58097446,0.23244649,-0.57517546
alexnet_w1_mlp_simclrhn_probe2,1,371,NaN,truck,truck,c50,0371_cop_dnn_c50_truck_10_n03796401_1681.png,n03796401_1681.png,1.0,3.8583484,3.503378,0.251002
alexnet_w1_mlp_simclrhn_probe2,1,372,NaN,elephant,elephant,c30,0372_cop_dnn_c30_elephant_10_n02504013_5537.png,n02504013_5537.png,1.0,3.6868243,0.07602312,2.5532222
alexnet_w1_mlp_simclrhn_probe2,1,373,NaN,keyboard,keyboard,c05,0373_cop_dnn_c05_keyboard_10_n03085013_12399.png,n03085013_12399.png,1.0,0.4787683,0.2733241,0.14527097
alexnet_w1_mlp_simclrhn_probe2,1,374,NaN,bottle,oven,c15,0374_cop_dnn_c15_oven_10_n04111531_6094.png,n04111531_6094.png,0.0,0.058375508,0.78415436,-0.51320314
alexnet_w1_mlp_simclrhn_probe2,1,375,NaN,airplane,airplane,c03,0375_cop_dnn_c03_airplane_10_n02690373_13604.png,n02690373_13604.png,1.0,0.40459085,0.22268343,0.12862797
alexnet_w1_mlp_simclrhn_probe2,1,376,NaN,bear,bear,c100,0376_cop_dnn_c100_bear_10_n02134084_16084.png,n02134084_16084.png,1.0,1.95096,1.3650824,0.41427806
alexnet_w1_mlp_simclrhn_probe2,1,377,NaN,airplane,boat,c01,0377_cop_dnn_c01_boat_10_n04273569_15906.png,n04273569_15906.png,0.0,0.040064774,0.37106842,-0.23405492
alexnet_w1_mlp_simclrhn_probe2,1,378,NaN,knife,dog,c05,0378_cop_dnn_c05_dog_10_n02105162_8899.png,n02105162_8899.png,0.0,-0.45959052,-0.14435685,-0.22290388
alexnet_w1_mlp_simclrhn_probe2,1,379,NaN,oven,oven,c03,0379_cop_dnn_c03_oven_10_n04111531_7619.png,n04111531_7619.png,1.0,-0.10606108,-0.13811827,0.022667855
alexnet_w1_mlp_simclrhn_probe2,1,380,NaN,elephant,elephant,c05,0380_cop_dnn_c05_elephant_10_n02504458_1816.png,n02504458_1816.png,1.0,0.46871454,-0.053697426,0.36940104
alexnet_w1_mlp_simclrhn_probe2,1,381,NaN,cat,cat,c30,0381_cop_dnn_c30_cat_10_n02123045_3575.png,n02123045_3575.png,1.0,-0.059298765,-0.4685633,0.28939372
alexnet_w1_mlp_simclrhn_probe2,1,382,NaN,airplane,truck,c01,0382_cop_dnn_c01_truck_10_n03417042_908.png,n03417042_908.png,0.0,-0.6627983,0.30164853,-0.6819669
alexnet_w1_mlp_simclrhn_probe2,1,383,NaN,airplane,boat,c03,0383_cop_dnn_c03_boat_10_n03344393_4213.png,n03344393_4213.png,0.0,0.2497538,0.44938222,-0.14115861
alexnet_w1_mlp_simclrhn_probe2,1,384,NaN,airplane,knife,c01,0384_cop_dnn_c01_knife_10_n03041632_31483.png,n03041632_31483.png,0.0,0.16772145,0.3633533,-0.13833262
alexnet_w1_mlp_simclrhn_probe2,1,385,NaN,airplane,bottle,c01,0385_cop_dnn_c01_bottle_10_n03937543_986.png,n03937543_986.png,0.0,-0.32643917,0.29470506,-0.4392153
alexnet_w1_mlp_simclrhn_probe2,1,386,NaN,truck,truck,c15,0386_cop_dnn_c15_truck_10_n03796401_7381.png,n03796401_7381.png,1.0,2.3390422,1.2916331,0.74063003
alexnet_w1_mlp_simclrhn_probe2,1,387,NaN,cat,dog,c03,0387_cop_dnn_c03_dog_10_n02094433_9787.png,n02094433_9787.png,0.0,-0.46114907,-0.033814963,-0.30217084
alexnet_w1_mlp_simclrhn_probe2,1,388,NaN,bird,bird,c30,0388_cop_dnn_c30_bird_10_n02011460_11838.png,n02011460_11838.png,1.0,-0.30770573,-0.4541759,0.103570044
alexnet_w1_mlp_simclrhn_probe2,1,389,NaN,cat,cat,c30,0389_cop_dnn_c30_cat_10_n02123597_29513.png,n02123597_29513.png,1.0,0.90878874,0.45697132,0.31948316
alexnet_w1_mlp_simclrhn_probe2,1,390,NaN,knife,chair,c10,0390_cop_dnn_c10_chair_10_n04429376_5337.png,n04429376_5337.png,0.0,-0.3285465,-0.12941882,-0.14080453
alexnet_w1_mlp_simclrhn_probe2,1,391,NaN,knife,knife,c03,0391_cop_dnn_c03_knife_10_n03041632_4260.png,n03041632_4260.png,1.0,0.083455555,-0.19414972,0.19629657
alexnet_w1_mlp_simclrhn_probe2,1,392,NaN,keyboard,keyboard,c10,0392_cop_dnn_c10_keyboard_10_n04505470_4061.png,n04505470_4061.png,1.0,0.52801615,0.17193185,0.25178963
alexnet_w1_mlp_simclrhn_probe2,1,393,NaN,boat,boat,c15,0393_cop_dnn_c15_boat_10_n03344393_6467.png,n03344393_6467.png,1.0,0.96298236,0.35838965,0.4275116
alexnet_w1_mlp_simclrhn_probe2,1,394,NaN,bicycle,bicycle,c100,0394_cop_dnn_c100_bicycle_10_n03792782_11297.png,n03792782_11297.png,1.0,3.063152,-1.9270219,3.528586
alexnet_w1_mlp_simclrhn_probe2,1,395,NaN,airplane,bicycle,c03,0395_cop_dnn_c03_bicycle_10_n03792782_8357.png,n03792782_8357.png,0.0,-0.49802402,0.011589557,-0.36035123
alexnet_w1_mlp_simclrhn_probe2,1,396,NaN,elephant,dog,c10,0396_cop_dnn_c10_dog_10_n02108422_2739.png,n02108422_2739.png,0.0,-0.44879267,0.12585923,-0.40634027
alexnet_w1_mlp_simclrhn_probe2,1,397,NaN,knife,bear,c03,0397_cop_dnn_c03_bear_10_n02134084_6840.png,n02134084_6840.png,0.0,-0.38835618,0.044433147,-0.30602828
alexnet_w1_mlp_simclrhn_probe2,1,398,NaN,bear,bear,c30,0398_cop_dnn_c30_bear_10_n02133161_5365.png,n02133161_5365.png,1.0,0.62272215,0.5937274,0.020502377
alexnet_w1_mlp_simclrhn_probe2,1,399,NaN,keyboard,bottle,c30,0399_cop_dnn_c30_bottle_10_n04560804_1010.png,n04560804_1010.png,0.0,-0.4476161,-0.43681702,-0.007636103
alexnet_w1_mlp_simclrhn_probe2,1,400,NaN,clock,clock,c10,0400_cop_dnn_c10_clock_10_n04548280_183.png,n04548280_183.png,1.0,0.2918655,-0.16753282,0.32484367
alexnet_w1_mlp_simclrhn_probe2,1,401,NaN,keyboard,keyboard,c100,0401_cop_dnn_c100_keyboard_10_n03085013_21534.png,n03085013_21534.png,1.0,5.1545925,-0.4874996,3.9895618
alexnet_w1_mlp_simclrhn_probe2,1,402,NaN,chair,keyboard,c50,0402_cop_dnn_c50_keyboard_10_n03085013_24111.png,n03085013_24111.png,0.0,0.44973254,1.1810349,-0.51710886
alexnet_w1_mlp_simclrhn_probe2,1,403,NaN,knife,knife,c15,0403_cop_dnn_c15_knife_10_n03041632_28009.png,n03041632_28009.png,1.0,-0.05666863,-0.44003034,0.27107766
alexnet_w1_mlp_simclrhn_probe2,1,404,NaN,elephant,cat,c50,0404_cop_dnn_c50_cat_10_n02123159_7647.png,n02123159_7647.png,0.0,-0.561346,-0.4379514,-0.08725317
alexnet_w1_mlp_simclrhn_probe2,1,405,NaN,knife,bottle,c01,0405_cop_dnn_c01_bottle_10_n02823428_8696.png,n02823428_8696.png,0.0,-0.26458403,0.22738154,-0.3478722
alexnet_w1_mlp_simclrhn_probe2,1,406,NaN,elephant,elephant,c15,0406_cop_dnn_c15_elephant_10_n02504458_8923.png,n02504458_8923.png,1.0,0.113986656,-0.56076646,0.47712252
alexnet_w1_mlp_simclrhn_probe2,1,407,NaN,airplane,bear,c01,0407_cop_dnn_c01_bear_10_n02134084_5031.png,n02134084_5031.png,0.0,-0.25224304,0.32899863,-0.41099992
alexnet_w1_mlp_simclrhn_probe2,1,408,NaN,elephant,dog,c50,0408_cop_dnn_c50_dog_10_n02097209_1658.png,n02097209_1658.png,0.0,-0.72982424,1.0873255,-1.2849189
alexnet_w1_mlp_simclrhn_probe2,1,409,NaN,elephant,dog,c05,0409_cop_dnn_c05_dog_10_n02099849_6384.png,n02099849_6384.png,0.0,-0.43174276,0.09778872,-0.3744353
alexnet_w1_mlp_simclrhn_probe2,1,410,NaN,elephant,elephant,c15,0410_cop_dnn_c15_elephant_10_n02504013_3459.png,n02504013_3459.png,1.0,0.2356965,-0.33290905,0.40206483
alexnet_w1_mlp_simclrhn_probe2,1,411,NaN,clock,knife,c03,0411_cop_dnn_c03_knife_10_n03041632_36390.png,n03041632_36390.png,0.0,-0.068904735,-0.03566945,-0.023500897
alexnet_w1_mlp_simclrhn_probe2,1,412,NaN,knife,knife,c100,0412_cop_dnn_c100_knife_10_n03041632_10263.png,n03041632_10263.png,1.0,1.3077236,-3.1721196,3.1677275
alexnet_w1_mlp_simclrhn_probe2,1,413,NaN,cat,cat,c03,0413_cop_dnn_c03_cat_10_n02123045_840.png,n02123045_840.png,1.0,0.017130032,-0.06520982,0.05822307
alexnet_w1_mlp_simclrhn_probe2,1,414,NaN,clock,clock,c05,0414_cop_dnn_c05_clock_10_n04548280_4758.png,n04548280_4758.png,1.0,0.42819536,0.054657556,0.26413113
alexnet_w1_mlp_simclrhn_probe2,1,415,NaN,bear,bear,c50,0415_cop_dnn_c50_bear_10_n02133161_1247.png,n02133161_1247.png,1.0,1.9061062,0.82202077,0.7665642
alexnet_w1_mlp_simclrhn_probe2,1,416,NaN,airplane,airplane,c10,0416_cop_dnn_c10_airplane_10_n02690373_6716.png,n02690373_6716.png,1.0,1.0122935,0.5519943,0.32548064
alexnet_w1_mlp_simclrhn_probe2,1,417,NaN,keyboard,keyboard,c30,0417_cop_dnn_c30_keyboard_10_n04505470_4893.png,n04505470_4893.png,1.0,1.6675259,-0.2987703,1.3903815
alexnet_w1_mlp_simclrhn_probe2,1,418,NaN,chair,chair,c30,0418_cop_dnn_c30_chair_10_n04099969_34525.png,n04099969_34525.png,1.0,0.5801672,-0.10933757,0.48755348
alexnet_w1_mlp_simclrhn_probe2,1,419,NaN,airplane,airplane,c01,0419_cop_dnn_c01_airplane_10_n02690373_4793.png,n02690373_4793.png,1.0,0.3749847,0.11641313,0.18283771
alexnet_w1_mlp_simclrhn_probe2,1,420,NaN,knife,knife,c15,0420_cop_dnn_c15_knife_10_n03041632_4787.png,n03041632_4787.png,1.0,-0.057581097,-0.17335548,0.08186485
alexnet_w1_mlp_simclrhn_probe2,1,421,NaN,airplane,boat,c05,0421_cop_dnn_c05_boat_10_n04273569_20587.png,n04273569_20587.png,0.0,0.40111193,0.4624453,-0.043369234
alexnet_w1_mlp_simclrhn_probe2,1,422,NaN,airplane,bicycle,c03,0422_cop_dnn_c03_bicycle_10_n03792782_4844.png,n03792782_4844.png,0.0,-0.32171753,0.25745478,-0.4095367
alexnet_w1_mlp_simclrhn_probe2,1,423,NaN,airplane,cat,c01,0423_cop_dnn_c01_cat_10_n02123045_6066.png,n02123045_6066.png,0.0,-0.39623168,0.17547622,-0.40425855
alexnet_w1_mlp_simclrhn_probe2,1,424,NaN,boat,boat,c30,0424_cop_dnn_c30_boat_10_n04273569_17045.png,n04273569_17045.png,1.0,1.9006374,0.45801055,1.0200912
alexnet_w1_mlp_simclrhn_probe2,1,425,NaN,keyboard,keyboard,c100,0425_cop_dnn_c100_keyboard_10_n04505470_5068.png,n04505470_5068.png,1.0,8.422562,3.3132608,3.612821
alexnet_w1_mlp_simclrhn_probe2,1,426,NaN,airplane,airplane,c10,0426_cop_dnn_c10_airplane_10_n02690373_2724.png,n02690373_2724.png,1.0,1.5915627,-0.07791258,1.1804973
alexnet_w1_mlp_simclrhn_probe2,1,427,NaN,boat,boat,c10,0427_cop_dnn_c10_boat_10_n03662601_4844.png,n03662601_4844.png,1.0,1.146053,0.050052986,0.774989
alexnet_w1_mlp_simclrhn_probe2,1,428,NaN,chair,chair,c100,0428_cop_dnn_c100_chair_10_n04099969_3929.png,n04099969_3929.png,1.0,4.0210714,0.42292133,2.5442762
alexnet_w1_mlp_simclrhn_probe2,1,429,NaN,oven,oven,c10,0429_cop_dnn_c10_oven_10_n04111531_9026.png,n04111531_9026.png,1.0,0.29443288,0.24707638,0.033486106
alexnet_w1_mlp_simclrhn_probe2,1,430,NaN,knife,knife,c15,0430_cop_dnn_c15_knife_10_n03041632_51225.png,n03041632_51225.png,1.0,0.49171132,0.16176471,0.23330748
alexnet_w1_mlp_simclrhn_probe2,1,431,NaN,chair,boat,c10,0431_cop_dnn_c10_boat_10_n03344393_6638.png,n03344393_6638.png,0.0,-0.4206769,-0.20101573,-0.1553239
alexnet_w1_mlp_simclrhn_probe2,1,432,NaN,knife,knife,c30,0432_cop_dnn_c30_knife_10_n03041632_4590.png,n03041632_4590.png,1.0,0.40385962,-0.023181066,0.3019634
alexnet_w1_mlp_simclrhn_probe2,1,433,NaN,clock,clock,c03,0433_cop_dnn_c03_clock_10_n02708093_3761.png,n02708093_3761.png,1.0,0.064136855,-0.21143392,0.19485797
alexnet_w1_mlp_simclrhn_probe2,1,434,NaN,knife,car,c03,0434_cop_dnn_c03_car_10_n04285008_3193.png,n04285008_3193.png,0.0,-0.58643764,-0.019883625,-0.4006142
alexnet_w1_mlp_simclrhn_probe2,1,435,NaN,knife,keyboard,c50,0435_cop_dnn_c50_keyboard_10_n03085013_661.png,n03085013_661.png,0.0,-2.82893,-0.6761295,-1.5222597
alexnet_w1_mlp_simclrhn_probe2,1,436,NaN,knife,bottle,c03,0436_cop_dnn_c03_bottle_10_n04557648_2355.png,n04557648_2355.png,0.0,-0.41944578,-0.17695011,-0.17147033
alexnet_w1_mlp_simclrhn_probe2,1,437,NaN,car,dog,c30,0437_cop_dnn_c30_dog_10_n02107312_860.png,n02107312_860.png,0.0,-1.8857743,-0.3380449,-1.09441
alexnet_w1_mlp_simclrhn_probe2,1,438,NaN,boat,boat,c100,0438_cop_dnn_c100_boat_10_n02951358_1541.png,n02951358_1541.png,1.0,2.3869956,-0.86586964,2.3001232
alexnet_w1_mlp_simclrhn_probe2,1,439,NaN,boat,boat,c15,0439_cop_dnn_c15_boat_10_n02951358_4972.png,n02951358_4972.png,1.0,0.7193451,0.122951716,0.4217138
alexnet_w1_mlp_simclrhn_probe2,1,440,NaN,bear,bear,c15,0440_cop_dnn_c15_bear_10_n02132136_6352.png,n02132136_6352.png,1.0,0.36501595,-0.07537436,0.31140298
alexnet_w1_mlp_simclrhn_probe2,1,441,NaN,knife,knife,c05,0441_cop_dnn_c05_knife_10_n03041632_27022.png,n03041632_27022.png,1.0,0.20451827,0.1054233,0.07007073
alexnet_w1_mlp_simclrhn_probe2,1,442,NaN,airplane,airplane,c15,0442_cop_dnn_c15_airplane_10_n02690373_10399.png,n02690373_10399.png,1.0,1.2734073,0.3976539,0.6192512
alexnet_w1_mlp_simclrhn_probe2,1,443,NaN,keyboard,keyboard,c30,0443_cop_dnn_c30_keyboard_10_n04505470_4803.png,n04505470_4803.png,1.0,0.47965354,-0.5328423,0.7159426
alexnet_w1_mlp_simclrhn_probe2,1,444,NaN,bottle,bottle,c03,0444_cop_dnn_c03_bottle_10_n03937543_4916.png,n03937543_4916.png,1.0,0.53159034,-0.23674887,0.5432979
alexnet_w1_mlp_simclrhn_probe2,1,445,NaN,elephant,dog,c10,0445_cop_dnn_c10_dog_10_n02092339_2268.png,n02092339_2268.png,0.0,-0.1712292,0.21588391,-0.2737303
alexnet_w1_mlp_simclrhn_probe2,1,446,NaN,cat,cat,c100,0446_cop_dnn_c100_cat_10_n02123394_2034.png,n02123394_2034.png,1.0,2.2113397,-0.004205592,1.5666273
alexnet_w1_mlp_simclrhn_probe2,1,447,NaN,knife,keyboard,c01,0447_cop_dnn_c01_keyboard_10_n03085013_24442.png,n03085013_24442.png,0.0,-0.15253276,0.28167844,-0.3070337
alexnet_w1_mlp_simclrhn_probe2,1,448,NaN,airplane,bicycle,c03,0448_cop_dnn_c03_bicycle_10_n03792782_12908.png,n03792782_12908.png,0.0,-0.48427984,0.33397555,-0.57859397
alexnet_w1_mlp_simclrhn_probe2,1,449,NaN,cat,cat,c50,0449_cop_dnn_c50_cat_10_n02124075_10241.png,n02124075_10241.png,1.0,4.3800626,-0.44718426,3.413379
alexnet_w1_mlp_simclrhn_probe2,1,450,NaN,knife,keyboard,c03,0450_cop_dnn_c03_keyboard_10_n03085013_29941.png,n03085013_29941.png,0.0,-0.04361198,0.30607006,-0.24726254
alexnet_w1_mlp_simclrhn_probe2,1,451,NaN,airplane,car,c05,0451_cop_dnn_c05_car_10_n03100240_5718.png,n03100240_5718.png,0.0,-0.2410018,0.18100464,-0.29840362
alexnet_w1_mlp_simclrhn_probe2,1,452,NaN,airplane,bear,c01,0452_cop_dnn_c01_bear_10_n02133161_789.png,n02133161_789.png,0.0,-0.17605639,0.30005282,-0.33666006
alexnet_w1_mlp_simclrhn_probe2,1,453,NaN,chair,chair,c30,0453_cop_dnn_c30_chair_10_n04099969_9891.png,n04099969_9891.png,1.0,-0.052072026,-0.759704,0.50037134
alexnet_w1_mlp_simclrhn_probe2,1,454,NaN,airplane,knife,c01,0454_cop_dnn_c01_knife_10_n03041632_8666.png,n03041632_8666.png,0.0,0.02337144,0.25466624,-0.16355012
alexnet_w1_mlp_simclrhn_probe2,1,455,NaN,car,car,c10,0455_cop_dnn_c10_car_10_n03100240_52.png,n03100240_52.png,1.0,0.0430685,0.021195317,0.015466675
alexnet_w1_mlp_simclrhn_probe2,1,456,NaN,boat,bird,c10,0456_cop_dnn_c10_bird_10_n02007558_45529.png,n02007558_45529.png,0.0,-0.08798271,0.061829984,-0.10593358
alexnet_w1_mlp_simclrhn_probe2,1,457,NaN,airplane,airplane,c15,0457_cop_dnn_c15_airplane_10_n02690373_1933.png,n02690373_1933.png,1.0,0.20909463,-0.04315124,0.17836477
alexnet_w1_mlp_simclrhn_probe2,1,458,NaN,airplane,elephant,c03,0458_cop_dnn_c03_elephant_10_n02504013_1879.png,n02504013_1879.png,0.0,-0.04838895,0.49876446,-0.3868959
alexnet_w1_mlp_simclrhn_probe2,1,459,NaN,car,car,c10,0459_cop_dnn_c10_car_10_n03100240_3373.png,n03100240_3373.png,1.0,0.9537144,0.43852866,0.3642913
alexnet_w1_mlp_simclrhn_probe2,1,460,NaN,elephant,bicycle,c15,0460_cop_dnn_c15_bicycle_10_n03792782_7331.png,n03792782_7331.png,0.0,-0.95460325,0.0029745176,-0.6771097
alexnet_w1_mlp_simclrhn_probe2,1,461,NaN,knife,chair,c100,0461_cop_dnn_c100_chair_10_n03376595_11049.png,n03376595_11049.png,0.0,-1.7676861,-1.1763623,-0.41812912
alexnet_w1_mlp_simclrhn_probe2,1,462,NaN,knife,knife,c50,0462_cop_dnn_c50_knife_10_n03041632_37274.png,n03041632_37274.png,1.0,-0.29084766,-0.46157035,0.12071918
alexnet_w1_mlp_simclrhn_probe2,1,463,NaN,bottle,bottle,c15,0463_cop_dnn_c15_bottle_10_n02823428_780.png,n02823428_780.png,1.0,0.15723327,-0.5155733,0.47574612
alexnet_w1_mlp_simclrhn_probe2,1,464,NaN,elephant,cat,c05,0464_cop_dnn_c05_cat_10_n02123045_390.png,n02123045_390.png,0.0,-0.14193524,-0.14158306,-0.0002490352
alexnet_w1_mlp_simclrhn_probe2,1,465,NaN,elephant,bird,c30,0465_cop_dnn_c30_bird_10_n01796340_10024.png,n01796340_10024.png,0.0,-0.6708938,-0.28192273,-0.27504408
alexnet_w1_mlp_simclrhn_probe2,1,466,NaN,knife,knife,c05,0466_cop_dnn_c05_knife_10_n03041632_13509.png,n03041632_13509.png,1.0,0.48639905,0.18884379,0.21040335
alexnet_w1_mlp_simclrhn_probe2,1,467,NaN,airplane,bird,c05,0467_cop_dnn_c05_bird_10_n01534433_14198.png,n01534433_14198.png,0.0,-0.3153583,0.18048385,-0.35061336
alexnet_w1_mlp_simclrhn_probe2,1,468,NaN,truck,chair,c100,0468_cop_dnn_c100_chair_10_n04099969_2502.png,n04099969_2502.png,0.0,-0.47023052,0.2505548,-0.5096722
alexnet_w1_mlp_simclrhn_probe2,1,469,NaN,cat,cat,c05,0469_cop_dnn_c05_cat_10_n02123045_15474.png,n02123045_15474.png,1.0,-0.12379408,-0.19222265,0.04838631
alexnet_w1_mlp_simclrhn_probe2,1,470,NaN,clock,clock,c30,0470_cop_dnn_c30_clock_10_n02708093_442.png,n02708093_442.png,1.0,0.43356392,0.09820346,0.23713566
alexnet_w1_mlp_simclrhn_probe2,1,471,NaN,keyboard,boat,c100,0471_cop_dnn_c100_boat_10_n02951358_12663.png,n02951358_12663.png,0.0,-1.4406004,1.261653,-1.9107817
alexnet_w1_mlp_simclrhn_probe2,1,472,NaN,clock,cat,c05,0472_cop_dnn_c05_cat_10_n02125311_37322.png,n02125311_37322.png,0.0,-0.41906092,-0.090165995,-0.23256382
alexnet_w1_mlp_simclrhn_probe2,1,473,NaN,bird,bird,c100,0473_cop_dnn_c100_bird_10_n01558993_5185.png,n01558993_5185.png,1.0,-0.1622307,-0.83410037,0.4750836
alexnet_w1_mlp_simclrhn_probe2,1,474,NaN,elephant,elephant,c100,0474_cop_dnn_c100_elephant_10_n02504013_7248.png,n02504013_7248.png,1.0,4.42554,-0.24692765,3.3039336
alexnet_w1_mlp_simclrhn_probe2,1,475,NaN,airplane,bottle,c01,0475_cop_dnn_c01_bottle_10_n02823428_4245.png,n02823428_4245.png,0.0,-0.21099393,0.26373675,-0.33568528
alexnet_w1_mlp_simclrhn_probe2,1,476,NaN,chair,chair,c10,0476_cop_dnn_c10_chair_10_n04099969_8993.png,n04099969_8993.png,1.0,0.29554597,0.10780588,0.13275228
alexnet_w1_mlp_simclrhn_probe2,1,477,NaN,dog,dog,c30,0477_cop_dnn_c30_dog_10_n02101388_8775.png,n02101388_8775.png,1.0,1.1714977,-1.0250727,1.5532099
alexnet_w1_mlp_simclrhn_probe2,1,478,NaN,airplane,car,c01,0478_cop_dnn_c01_car_10_n02814533_3590.png,n02814533_3590.png,0.0,-0.5830744,0.022010863,-0.4278599
alexnet_w1_mlp_simclrhn_probe2,1,479,NaN,airplane,elephant,c05,0479_cop_dnn_c05_elephant_10_n02504458_6018.png,n02504458_6018.png,0.0,0.30015284,0.30838713,-0.005822524
alexnet_w1_mlp_simclrhn_probe2,1,480,NaN,keyboard,keyboard,c100,0480_cop_dnn_c100_keyboard_10_n03085013_11332.png,n03085013_11332.png,1.0,7.1431923,1.0282313,4.3239307
alexnet_w1_mlp_simclrhn_probe2,1,481,NaN,knife,oven,c05,0481_cop_dnn_c05_oven_10_n04111531_6863.png,n04111531_6863.png,0.0,-0.25381005,-0.21879853,-0.02475688
alexnet_w1_mlp_simclrhn_probe2,1,482,NaN,airplane,airplane,c50,0482_cop_dnn_c50_airplane_10_n02690373_2675.png,n02690373_2675.png,1.0,1.4296123,0.38987017,0.7352087
alexnet_w1_mlp_simclrhn_probe2,1,483,NaN,airplane,dog,c01,0483_cop_dnn_c01_dog_10_n02106550_660.png,n02106550_660.png,0.0,-0.7359072,0.19272742,-0.65664387
alexnet_w1_mlp_simclrhn_probe2,1,484,NaN,knife,knife,c15,0484_cop_dnn_c15_knife_10_n03041632_11700.png,n03041632_11700.png,1.0,0.19958931,0.12307168,0.05410614
alexnet_w1_mlp_simclrhn_probe2,1,485,NaN,bird,bird,c15,0485_cop_dnn_c15_bird_10_n02009229_6149.png,n02009229_6149.png,1.0,0.2299135,-0.8530713,0.76578593
alexnet_w1_mlp_simclrhn_probe2,1,486,NaN,keyboard,clock,c30,0486_cop_dnn_c30_clock_10_n03196217_3780.png,n03196217_3780.png,0.0,0.58889747,1.6231945,-0.7313584
alexnet_w1_mlp_simclrhn_probe2,1,487,NaN,bird,bird,c100,0487_cop_dnn_c100_bird_10_n01530575_34173.png,n01530575_34173.png,1.0,4.610435,-5.4888434,7.1412683
alexnet_w1_mlp_simclrhn_probe2,1,488,NaN,bottle,bottle,c100,0488_cop_dnn_c100_bottle_10_n03983396_17803.png,n03983396_17803.png,1.0,6.8424964,-0.8687246,5.4526567
alexnet_w1_mlp_simclrhn_probe2,1,489,NaN,airplane,oven,c05,0489_cop_dnn_c05_oven_10_n04111531_2156.png,n04111531_2156.png,0.0,-0.4445966,0.21167615,-0.46405494
alexnet_w1_mlp_simclrhn_probe2,1,490,NaN,elephant,elephant,c10,0490_cop_dnn_c10_elephant_10_n02504013_14948.png,n02504013_14948.png,1.0,1.295807,-0.14318326,1.0175197
alexnet_w1_mlp_simclrhn_probe2,1,491,NaN,airplane,boat,c01,0491_cop_dnn_c01_boat_10_n04273569_3112.png,n04273569_3112.png,0.0,0.044623397,0.36918512,-0.22949979
alexnet_w1_mlp_simclrhn_probe2,1,492,NaN,bird,bird,c50,0492_cop_dnn_c50_bird_10_n01560419_6583.png,n01560419_6583.png,1.0,1.5649654,-2.185353,2.6518757
alexnet_w1_mlp_simclrhn_probe2,1,493,NaN,keyboard,keyboard,c50,0493_cop_dnn_c50_keyboard_10_n03085013_19161.png,n03085013_19161.png,1.0,0.35261643,-0.1466811,0.35305667
alexnet_w1_mlp_simclrhn_probe2,1,494,NaN,airplane,bird,c05,0494_cop_dnn_c05_bird_10_n01616318_57023.png,n01616318_57023.png,0.0,-0.39682093,0.1800114,-0.40788206
alexnet_w1_mlp_simclrhn_probe2,1,495,NaN,airplane,truck,c50,0495_cop_dnn_c50_truck_10_n04467665_69176.png,n04467665_69176.png,0.0,0.68163294,0.7735663,-0.06500671
alexnet_w1_mlp_simclrhn_probe2,1,496,NaN,car,car,c50,0496_cop_dnn_c50_car_10_n03100240_4971.png,n03100240_4971.png,1.0,3.4041204,1.9881911,1.0012132
alexnet_w1_mlp_simclrhn_probe2,1,497,NaN,airplane,oven,c01,0497_cop_dnn_c01_oven_10_n04111531_4901.png,n04111531_4901.png,0.0,-0.55842745,0.3647608,-0.65279263
alexnet_w1_mlp_simclrhn_probe2,1,498,NaN,bear,bear,c30,0498_cop_dnn_c30_bear_10_n02133161_4091.png,n02133161_4091.png,1.0,1.2024858,0.3403345,0.609633
alexnet_w1_mlp_simclrhn_probe2,1,499,NaN,airplane,cat,c03,0499_cop_dnn_c03_cat_10_n02123394_4164.png,n02123394_4164.png,0.0,-0.20053361,0.21511832,-0.2939103
alexnet_w1_mlp_simclrhn_probe2,1,500,NaN,airplane,bird,c03,0500_cop_dnn_c03_bird_10_n02017213_689.png,n02017213_689.png,0.0,-0.037053145,0.13336685,-0.12050513
alexnet_w1_mlp_simclrhn_probe2,1,501,NaN,dog,dog,c100,0501_cop_dnn_c100_dog_10_n02109047_14207.png,n02109047_14207.png,1.0,0.6757475,-1.5143508,1.5486333
alexnet_w1_mlp_simclrhn_probe2,1,502,NaN,airplane,elephant,c05,0502_cop_dnn_c05_elephant_10_n02504013_8347.png,n02504013_8347.png,0.0,-0.0026078545,0.031627715,-0.024208205
alexnet_w1_mlp_simclrhn_probe2,1,503,NaN,bottle,bottle,c30,0503_cop_dnn_c30_bottle_10_n04591713_1652.png,n04591713_1652.png,1.0,0.39340952,0.19907339,0.1374164
alexnet_w1_mlp_simclrhn_probe2,1,504,NaN,oven,oven,c15,0504_cop_dnn_c15_oven_10_n04111531_22403.png,n04111531_22403.png,1.0,0.54207766,-0.38815552,0.6577742
alexnet_w1_mlp_simclrhn_probe2,1,505,NaN,airplane,airplane,c100,0505_cop_dnn_c100_airplane_10_n02690373_6046.png,n02690373_6046.png,1.0,11.751671,-1.135487,9.1125965
alexnet_w1_mlp_simclrhn_probe2,1,506,NaN,elephant,bear,c15,0506_cop_dnn_c15_bear_10_n02134084_1689.png,n02134084_1689.png,0.0,0.07004227,0.2641857,-0.13728014
alexnet_w1_mlp_simclrhn_probe2,1,507,NaN,oven,oven,c30,0507_cop_dnn_c30_oven_10_n04111531_14269.png,n04111531_14269.png,1.0,1.8397684,0.062130302,1.25698
alexnet_w1_mlp_simclrhn_probe2,1,508,NaN,cat,cat,c100,0508_cop_dnn_c100_cat_10_n02123597_9444.png,n02123597_9444.png,1.0,3.2790558,0.654526,1.8558229
alexnet_w1_mlp_simclrhn_probe2,1,509,NaN,bear,bear,c10,0509_cop_dnn_c10_bear_10_n02134418_128.png,n02134418_128.png,1.0,0.8362774,0.24160208,0.420499
alexnet_w1_mlp_simclrhn_probe2,1,510,NaN,airplane,airplane,c30,0510_cop_dnn_c30_airplane_10_n02690373_8789.png,n02690373_8789.png,1.0,2.9197385,0.93860656,1.4008719
alexnet_w1_mlp_simclrhn_probe2,1,511,NaN,airplane,bottle,c01,0511_cop_dnn_c01_bottle_10_n03937543_10092.png,n03937543_10092.png,0.0,-0.3417264,0.3208266,-0.4684957
alexnet_w1_mlp_simclrhn_probe2,1,512,NaN,clock,clock,c03,0512_cop_dnn_c03_clock_10_n02708093_7257.png,n02708093_7257.png,1.0,0.43648306,-0.061341017,0.35201478
alexnet_w1_mlp_simclrhn_probe2,1,513,NaN,elephant,bear,c100,0513_cop_dnn_c100_bear_10_n02134084_21207.png,n02134084_21207.png,0.0,0.69462514,2.4874916,-1.2677481
alexnet_w1_mlp_simclrhn_probe2,1,514,NaN,knife,bird,c05,0514_cop_dnn_c05_bird_10_n01797886_12811.png,n01797886_12811.png,0.0,-0.3129403,-0.25016543,-0.044388536
alexnet_w1_mlp_simclrhn_probe2,1,515,NaN,airplane,oven,c01,0515_cop_dnn_c01_oven_10_n04111531_21248.png,n04111531_21248.png,0.0,-0.6545918,0.22865659,-0.62455094
alexnet_w1_mlp_simclrhn_probe2,1,516,NaN,elephant,dog,c15,0516_cop_dnn_c15_dog_10_n02090379_5574.png,n02090379_5574.png,0.0,-0.16266702,0.18082011,-0.24288209
alexnet_w1_mlp_simclrhn_probe2,1,517,NaN,car,car,c15,0517_cop_dnn_c15_car_10_n04285008_8443.png,n04285008_8443.png,1.0,1.9754528,0.84571207,0.7988473
alexnet_w1_mlp_simclrhn_probe2,1,518,NaN,car,car,c100,0518_cop_dnn_c100_car_10_n03100240_15647.png,n03100240_15647.png,1.0,4.6737924,3.5026844,0.8280984
alexnet_w1_mlp_simclrhn_probe2,1,519,NaN,chair,chair,c50,0519_cop_dnn_c50_chair_10_n02791124_5824.png,n02791124_5824.png,1.0,1.4269187,0.046723843,0.9759452
alexnet_w1_mlp_simclrhn_probe2,1,520,NaN,airplane,bear,c05,0520_cop_dnn_c05_bear_10_n02133161_9949.png,n02133161_9949.png,0.0,-0.080528826,0.08170088,-0.11471372
alexnet_w1_mlp_simclrhn_probe2,1,521,NaN,clock,elephant,c03,0521_cop_dnn_c03_elephant_10_n02504458_5320.png,n02504458_5320.png,0.0,-0.31025386,-0.028758839,-0.19904704
alexnet_w1_mlp_simclrhn_probe2,1,522,NaN,airplane,keyboard,c01,0522_cop_dnn_c01_keyboard_10_n04505470_1904.png,n04505470_1904.png,0.0,-0.25104707,0.3624541,-0.43381086
alexnet_w1_mlp_simclrhn_probe2,1,523,NaN,oven,oven,c100,0523_cop_dnn_c100_oven_10_n04111531_4685.png,n04111531_4685.png,1.0,4.710249,-3.200014,5.593401
alexnet_w1_mlp_simclrhn_probe2,1,524,NaN,airplane,truck,c05,0524_cop_dnn_c05_truck_10_n03417042_2230.png,n03417042_2230.png,0.0,0.08684389,0.1827072,-0.0677856
alexnet_w1_mlp_simclrhn_probe2,1,525,NaN,bottle,bottle,c15,0525_cop_dnn_c15_bottle_10_n04591713_6842.png,n04591713_6842.png,1.0,-0.1650215,-0.2222709,0.04048145
alexnet_w1_mlp_simclrhn_probe2,1,526,NaN,boat,boat,c50,0526_cop_dnn_c50_boat_10_n02951358_8285.png,n02951358_8285.png,1.0,-0.5864011,-0.8371335,0.1772946
alexnet_w1_mlp_simclrhn_probe2,1,527,NaN,airplane,knife,c01,0527_cop_dnn_c01_knife_10_n03041632_48675.png,n03041632_48675.png,0.0,0.118262224,0.23054436,-0.07939546
alexnet_w1_mlp_simclrhn_probe2,1,528,NaN,airplane,oven,c01,0528_cop_dnn_c01_oven_10_n04111531_14435.png,n04111531_14435.png,0.0,-0.6695579,0.22036564,-0.62927103
alexnet_w1_mlp_simclrhn_probe2,1,529,NaN,cat,cat,c50,0529_cop_dnn_c50_cat_10_n02123159_8273.png,n02123159_8273.png,1.0,2.509268,-3.012938,3.9047897
alexnet_w1_mlp_simclrhn_probe2,1,530,NaN,cat,bird,c50,0530_cop_dnn_c50_bird_10_n01614925_1908.png,n01614925_1908.png,0.0,-1.6754057,-0.10796136,-1.1083505
alexnet_w1_mlp_simclrhn_probe2,1,531,NaN,knife,knife,c05,0531_cop_dnn_c05_knife_10_n03041632_96345.png,n03041632_96345.png,1.0,-0.1532525,-0.32512406,0.121531546
alexnet_w1_mlp_simclrhn_probe2,1,532,NaN,knife,knife,c10,0532_cop_dnn_c10_knife_10_n03041632_31037.png,n03041632_31037.png,1.0,0.09058571,-0.44605783,0.37946427
alexnet_w1_mlp_simclrhn_probe2,1,533,NaN,airplane,airplane,c50,0533_cop_dnn_c50_airplane_10_n02690373_1436.png,n02690373_1436.png,1.0,2.1221228,0.0069779884,1.4956332
alexnet_w1_mlp_simclrhn_probe2,1,534,NaN,chair,chair,c100,0534_cop_dnn_c100_chair_10_n04099969_28072.png,n04099969_28072.png,1.0,1.0500212,-0.038993984,0.77005
alexnet_w1_mlp_simclrhn_probe2,1,535,NaN,airplane,boat,c01,0535_cop_dnn_c01_boat_10_n04612504_19983.png,n04612504_19983.png,0.0,-0.0375341,0.2906458,-0.23205823
alexnet_w1_mlp_simclrhn_probe2,1,536,NaN,oven,oven,c15,0536_cop_dnn_c15_oven_10_n04111531_8255.png,n04111531_8255.png,1.0,0.51146376,-0.013359144,0.37110582
alexnet_w1_mlp_simclrhn_probe2,1,537,NaN,elephant,bear,c15,0537_cop_dnn_c15_bear_10_n02132136_1574.png,n02132136_1574.png,0.0,0.5343038,1.1558881,-0.43952647
alexnet_w1_mlp_simclrhn_probe2,1,538,NaN,boat,boat,c100,0538_cop_dnn_c100_boat_10_n04273569_24747.png,n04273569_24747.png,1.0,2.4615269,-0.07320909,1.792329
alexnet_w1_mlp_simclrhn_probe2,1,539,NaN,cat,dog,c30,0539_cop_dnn_c30_dog_10_n02113799_18413.png,n02113799_18413.png,0.0,-0.1752405,0.040733237,-0.15271649
alexnet_w1_mlp_simclrhn_probe2,1,540,NaN,boat,boat,c15,0540_cop_dnn_c15_boat_10_n04273569_28333.png,n04273569_28333.png,1.0,0.92470944,-0.43621898,0.9623217
alexnet_w1_mlp_simclrhn_probe2,1,541,NaN,airplane,bird,c01,0541_cop_dnn_c01_bird_10_n02017213_2183.png,n02017213_2183.png,0.0,-0.1931071,0.18999869,-0.2708967
alexnet_w1_mlp_simclrhn_probe2,1,542,NaN,boat,boat,c50,0542_cop_dnn_c50_boat_10_n04273569_26139.png,n04273569_26139.png,1.0,2.3319414,0.9947177,0.9455599
alexnet_w1_mlp_simclrhn_probe2,1,543,NaN,knife,knife,c03,0543_cop_dnn_c03_knife_10_n03041632_29684.png,n03041632_29684.png,1.0,0.16137263,0.09225428,0.048874054
alexnet_w1_mlp_simclrhn_probe2,1,544,NaN,elephant,boat,c100,0544_cop_dnn_c100_boat_10_n02951358_3087.png,n02951358_3087.png,0.0,-0.8953103,-0.026200026,-0.61455375
alexnet_w1_mlp_simclrhn_probe2,1,545,NaN,keyboard,keyboard,c15,0545_cop_dnn_c15_keyboard_10_n03085013_13615.png,n03085013_13615.png,1.0,0.5537546,0.23651318,0.22432357
alexnet_w1_mlp_simclrhn_probe2,1,546,NaN,airplane,oven,c03,0546_cop_dnn_c03_oven_10_n04111531_1778.png,n04111531_1778.png,0.0,-0.3898889,0.07897583,-0.33153746
alexnet_w1_mlp_simclrhn_probe2,1,547,NaN,airplane,dog,c03,0547_cop_dnn_c03_dog_10_n02097474_9129.png,n02097474_9129.png,0.0,-0.5178936,0.15433173,-0.47533512
alexnet_w1_mlp_simclrhn_probe2,1,548,NaN,bird,bird,c30,0548_cop_dnn_c30_bird_10_n02013706_19220.png,n02013706_19220.png,1.0,0.89052737,-1.203031,1.4803693
alexnet_w1_mlp_simclrhn_probe2,1,549,NaN,keyboard,clock,c100,0549_cop_dnn_c100_clock_10_n03196217_7199.png,n03196217_7199.png,0.0,1.8755097,2.637662,-0.53892297
alexnet_w1_mlp_simclrhn_probe2,1,550,NaN,bear,bear,c50,0550_cop_dnn_c50_bear_10_n02132136_27823.png,n02132136_27823.png,1.0,3.2112093,2.2281148,0.69515276
alexnet_w1_mlp_simclrhn_probe2,1,551,NaN,airplane,boat,c03,0551_cop_dnn_c03_boat_10_n03662601_6462.png,n03662601_6462.png,0.0,-0.18214428,-0.04482934,-0.09709633
alexnet_w1_mlp_simclrhn_probe2,1,552,NaN,clock,knife,c15,0552_cop_dnn_c15_knife_10_n03041632_11773.png,n03041632_11773.png,0.0,-0.33805552,-0.07755757,-0.18419987
alexnet_w1_mlp_simclrhn_probe2,1,553,NaN,clock,clock,c01,0553_cop_dnn_c01_clock_10_n02708093_7998.png,n02708093_7998.png,1.0,0.17188983,0.16597216,0.0041844235
alexnet_w1_mlp_simclrhn_probe2,1,554,NaN,elephant,elephant,c30,0554_cop_dnn_c30_elephant_10_n02504458_3409.png,n02504458_3409.png,1.0,4.3525095,0.77555597,2.529288
alexnet_w1_mlp_simclrhn_probe2,1,555,NaN,airplane,bottle,c01,0555_cop_dnn_c01_bottle_10_n04560804_24166.png,n04560804_24166.png,0.0,-0.24844526,0.18344428,-0.30539203
alexnet_w1_mlp_simclrhn_probe2,1,556,NaN,elephant,cat,c15,0556_cop_dnn_c15_cat_10_n02125311_17613.png,n02125311_17613.png,0.0,0.054032926,0.18973534,-0.0959561
alexnet_w1_mlp_simclrhn_probe2,1,557,NaN,airplane,bicycle,c05,0557_cop_dnn_c05_bicycle_10_n03792782_5284.png,n03792782_5284.png,0.0,-0.5650626,0.077899694,-0.45464298
alexnet_w1_mlp_simclrhn_probe2,1,558,NaN,oven,oven,c10,0558_cop_dnn_c10_oven_10_n04111531_13006.png,n04111531_13006.png,1.0,0.041978605,-0.11593562,0.11166222
alexnet_w1_mlp_simclrhn_probe2,1,559,NaN,airplane,oven,c10,0559_cop_dnn_c10_oven_10_n04111531_8309.png,n04111531_8309.png,0.0,-0.25725928,-0.041082412,-0.15286013
alexnet_w1_mlp_simclrhn_probe2,1,560,NaN,clock,clock,c10,0560_cop_dnn_c10_clock_10_n04548280_8390.png,n04548280_8390.png,1.0,-0.014110644,-0.33787283,0.22893444
alexnet_w1_mlp_simclrhn_probe2,1,561,NaN,truck,truck,c50,0561_cop_dnn_c50_truck_10_n04467665_7110.png,n04467665_7110.png,1.0,2.1685488,0.28659925,1.3307393
alexnet_w1_mlp_simclrhn_probe2,1,562,NaN,airplane,clock,c10,0562_cop_dnn_c10_clock_10_n03196217_8020.png,n03196217_8020.png,0.0,-0.043211818,0.21882929,-0.18529104
alexnet_w1_mlp_simclrhn_probe2,1,563,NaN,elephant,elephant,c100,0563_cop_dnn_c100_elephant_10_n02504458_7955.png,n02504458_7955.png,1.0,9.056604,2.1058884,4.9148984
alexnet_w1_mlp_simclrhn_probe2,1,564,NaN,airplane,elephant,c01,0564_cop_dnn_c01_elephant_10_n02504458_1022.png,n02504458_1022.png,0.0,-0.32930675,0.30312905,-0.44719964
alexnet_w1_mlp_simclrhn_probe2,1,565,NaN,clock,clock,c100,0565_cop_dnn_c100_clock_10_n04548280_2383.png,n04548280_2383.png,1.0,3.0790164,2.3546376,0.5122132
alexnet_w1_mlp_simclrhn_probe2,1,566,NaN,bird,bird,c50,0566_cop_dnn_c50_bird_10_n02002724_7019.png,n02002724_7019.png,1.0,1.3262687,-1.5891011,2.0614777
alexnet_w1_mlp_simclrhn_probe2,1,567,NaN,cat,cat,c100,0567_cop_dnn_c100_cat_10_n02125311_1127.png,n02125311_1127.png,1.0,0.6436723,0.47409016,0.11991268
alexnet_w1_mlp_simclrhn_probe2,1,568,NaN,knife,bicycle,c05,0568_cop_dnn_c05_bicycle_10_n02835271_6481.png,n02835271_6481.png,0.0,-0.9359729,-0.30559963,-0.44574124
alexnet_w1_mlp_simclrhn_probe2,1,569,NaN,car,car,c15,0569_cop_dnn_c15_car_10_n04285008_5208.png,n04285008_5208.png,1.0,1.3467464,0.74092615,0.42837965
alexnet_w1_mlp_simclrhn_probe2,1,570,NaN,keyboard,oven,c50,0570_cop_dnn_c50_oven_10_n04111531_8658.png,n04111531_8658.png,0.0,0.12644213,0.5426451,-0.29429993
alexnet_w1_mlp_simclrhn_probe2,1,571,NaN,bottle,bottle,c05,0571_cop_dnn_c05_bottle_10_n04579145_2910.png,n04579145_2910.png,1.0,-0.13353494,-0.22112781,0.061937515
alexnet_w1_mlp_simclrhn_probe2,1,572,NaN,airplane,truck,c01,0572_cop_dnn_c01_truck_10_n04467665_22414.png,n04467665_22414.png,0.0,-0.51921403,0.22432983,-0.52576494
alexnet_w1_mlp_simclrhn_probe2,1,573,NaN,elephant,elephant,c15,0573_cop_dnn_c15_elephant_10_n02504013_5439.png,n02504013_5439.png,1.0,0.32307136,0.3217954,0.0009022376
alexnet_w1_mlp_simclrhn_probe2,1,574,NaN,cat,cat,c10,0574_cop_dnn_c10_cat_10_n02123159_5945.png,n02123159_5945.png,1.0,0.39814937,-0.40230858,0.5660093
alexnet_w1_mlp_simclrhn_probe2,1,575,NaN,bottle,bottle,c10,0575_cop_dnn_c10_bottle_10_n04557648_2426.png,n04557648_2426.png,1.0,0.2672648,-0.106621146,0.2643773
alexnet_w1_mlp_simclrhn_probe2,1,576,NaN,knife,bicycle,c05,0576_cop_dnn_c05_bicycle_10_n03792782_38641.png,n03792782_38641.png,0.0,-0.36272824,0.038848843,-0.2839579
alexnet_w1_mlp_simclrhn_probe2,1,577,NaN,cat,dog,c30,0577_cop_dnn_c30_dog_10_n02110958_15843.png,n02110958_15843.png,0.0,-0.9021214,-0.47347608,-0.30309802
alexnet_w1_mlp_simclrhn_probe2,1,578,NaN,keyboard,keyboard,c15,0578_cop_dnn_c15_keyboard_10_n04505470_5161.png,n04505470_5161.png,1.0,1.6542712,0.021455675,1.154575
alexnet_w1_mlp_simclrhn_probe2,1,579,NaN,airplane,airplane,c30,0579_cop_dnn_c30_airplane_10_n02690373_8350.png,n02690373_8350.png,1.0,2.0745049,0.59843355,1.04374
alexnet_w1_mlp_simclrhn_probe2,1,580,NaN,airplane,bicycle,c05,0580_cop_dnn_c05_bicycle_10_n03792782_10129.png,n03792782_10129.png,0.0,-0.34123984,0.35110018,-0.48955834
alexnet_w1_mlp_simclrhn_probe2,1,581,NaN,car,car,c100,0581_cop_dnn_c100_car_10_n02814533_26369.png,n02814533_26369.png,1.0,2.5294092,0.0015572459,1.7874612
alexnet_w1_mlp_simclrhn_probe2,1,582,NaN,oven,oven,c10,0582_cop_dnn_c10_oven_10_n04111531_10077.png,n04111531_10077.png,1.0,1.0297215,-0.0412372,0.7572822
alexnet_w1_mlp_simclrhn_probe2,1,583,NaN,knife,oven,c01,0583_cop_dnn_c01_oven_10_n04111531_12702.png,n04111531_12702.png,0.0,-0.5339208,0.14723898,-0.4816527
alexnet_w1_mlp_simclrhn_probe2,1,584,NaN,keyboard,clock,c100,0584_cop_dnn_c100_clock_10_n03196217_8618.png,n03196217_8618.png,0.0,1.4280959,1.8423979,-0.29295576
alexnet_w1_mlp_simclrhn_probe2,1,585,NaN,bottle,bottle,c10,0585_cop_dnn_c10_bottle_10_n03983396_4227.png,n03983396_4227.png,1.0,0.15158226,-0.09965773,0.1776535
alexnet_w1_mlp_simclrhn_probe2,1,586,NaN,keyboard,bottle,c30,0586_cop_dnn_c30_bottle_10_n03983396_9090.png,n03983396_9090.png,0.0,0.21835648,0.28088868,-0.044216946
alexnet_w1_mlp_simclrhn_probe2,1,587,NaN,bear,bear,c100,0587_cop_dnn_c100_bear_10_n02133161_223.png,n02133161_223.png,1.0,1.2474227,0.49128187,0.5346723
alexnet_w1_mlp_simclrhn_probe2,1,588,NaN,keyboard,keyboard,c50,0588_cop_dnn_c50_keyboard_10_n04505470_1047.png,n04505470_1047.png,1.0,2.655837,0.1397592,1.7791357
alexnet_w1_mlp_simclrhn_probe2,1,589,NaN,knife,elephant,c03,0589_cop_dnn_c03_elephant_10_n02504013_7467.png,n02504013_7467.png,0.0,-0.3334576,0.05471402,-0.2744788
alexnet_w1_mlp_simclrhn_probe2,1,590,NaN,elephant,elephant,c30,0590_cop_dnn_c30_elephant_10_n02504013_476.png,n02504013_476.png,1.0,0.8540031,-0.25939515,0.7872914
alexnet_w1_mlp_simclrhn_probe2,1,591,NaN,chair,chair,c100,0591_cop_dnn_c100_chair_10_n02791124_12707.png,n02791124_12707.png,1.0,1.3199463,0.20734322,0.7867292
alexnet_w1_mlp_simclrhn_probe2,1,592,NaN,airplane,bird,c01,0592_cop_dnn_c01_bird_10_n01537544_22049.png,n01537544_22049.png,0.0,-0.118417144,0.34798703,-0.32979757
alexnet_w1_mlp_simclrhn_probe2,1,593,NaN,clock,bicycle,c05,0593_cop_dnn_c05_bicycle_10_n02835271_4220.png,n02835271_4220.png,0.0,-0.4428832,-0.15454967,-0.2038826
alexnet_w1_mlp_simclrhn_probe2,1,594,NaN,truck,truck,c10,0594_cop_dnn_c10_truck_10_n03417042_7530.png,n03417042_7530.png,1.0,0.3149625,0.065012194,0.17674157
alexnet_w1_mlp_simclrhn_probe2,1,595,NaN,airplane,bear,c03,0595_cop_dnn_c03_bear_10_n02134418_12457.png,n02134418_12457.png,0.0,-0.27853513,-0.12210603,-0.11061208
alexnet_w1_mlp_simclrhn_probe2,1,596,NaN,bottle,bottle,c50,0596_cop_dnn_c50_bottle_10_n04557648_10265.png,n04557648_10265.png,1.0,1.5879129,-0.7383636,1.644926
alexnet_w1_mlp_simclrhn_probe2,1,597,NaN,clock,clock,c15,0597_cop_dnn_c15_clock_10_n02708093_2025.png,n02708093_2025.png,1.0,0.4649087,0.096114546,0.26077685
alexnet_w1_mlp_simclrhn_probe2,1,598,NaN,bicycle,chair,c15,0598_cop_dnn_c15_chair_10_n03376595_1961.png,n03376595_1961.png,0.0,-0.39759657,0.39970142,-0.5637748
alexnet_w1_mlp_simclrhn_probe2,1,599,NaN,bear,bear,c05,0599_cop_dnn_c05_bear_10_n02134084_67.png,n02134084_67.png,1.0,0.07082077,0.033827852,0.026157944
alexnet_w1_mlp_simclrhn_probe2,1,600,NaN,cat,cat,c50,0600_cop_dnn_c50_cat_10_n02123045_455.png,n02123045_455.png,1.0,2.7093074,-1.9588814,3.300908
alexnet_w1_mlp_simclrhn_probe2,1,601,NaN,car,car,c10,0601_cop_dnn_c10_car_10_n03100240_13929.png,n03100240_13929.png,1.0,0.7608475,0.36305565,0.28128132
alexnet_w1_mlp_simclrhn_probe2,1,602,NaN,elephant,elephant,c10,0602_cop_dnn_c10_elephant_10_n02504458_4997.png,n02504458_4997.png,1.0,0.5109546,0.060444042,0.31855908
alexnet_w1_mlp_simclrhn_probe2,1,603,NaN,airplane,airplane,c10,0603_cop_dnn_c10_airplane_10_n02690373_5344.png,n02690373_5344.png,1.0,0.63641775,0.2851131,0.24840991
alexnet_w1_mlp_simclrhn_probe2,1,604,NaN,airplane,oven,c01,0604_cop_dnn_c01_oven_10_n04111531_797.png,n04111531_797.png,0.0,-0.5761529,0.39554816,-0.6870964
alexnet_w1_mlp_simclrhn_probe2,1,605,NaN,boat,boat,c30,0605_cop_dnn_c30_boat_10_n04273569_3085.png,n04273569_3085.png,1.0,2.641563,0.54464084,1.4827479
alexnet_w1_mlp_simclrhn_probe2,1,606,NaN,oven,oven,c100,0606_cop_dnn_c100_oven_10_n04111531_9113.png,n04111531_9113.png,1.0,4.669585,-1.2125368,4.1592884
alexnet_w1_mlp_simclrhn_probe2,1,607,NaN,boat,boat,c03,0607_cop_dnn_c03_boat_10_n03662601_18803.png,n03662601_18803.png,1.0,0.24007443,0.1586287,0.057590824
alexnet_w1_mlp_simclrhn_probe2,1,608,NaN,airplane,truck,c03,0608_cop_dnn_c03_truck_10_n04467665_30581.png,n04467665_30581.png,0.0,-0.5752169,0.20997562,-0.55521494
alexnet_w1_mlp_simclrhn_probe2,1,609,NaN,elephant,elephant,c30,0609_cop_dnn_c30_elephant_10_n02504013_5237.png,n02504013_5237.png,1.0,1.8795786,0.5154611,0.9645768
alexnet_w1_mlp_simclrhn_probe2,1,610,NaN,keyboard,keyboard,c100,0610_cop_dnn_c100_keyboard_10_n03085013_12175.png,n03085013_12175.png,1.0,6.7860274,0.89092296,4.1684685
alexnet_w1_mlp_simclrhn_probe2,1,611,NaN,chair,chair,c30,0611_cop_dnn_c30_chair_10_n02791124_5401.png,n02791124_5401.png,1.0,1.3337383,-0.4384457,1.2531234
alexnet_w1_mlp_simclrhn_probe2,1,612,NaN,boat,boat,c50,0612_cop_dnn_c50_boat_10_n02951358_22332.png,n02951358_22332.png,1.0,3.2607772,0.54961234,1.9170831
alexnet_w1_mlp_simclrhn_probe2,1,613,NaN,airplane,knife,c03,0613_cop_dnn_c03_knife_10_n03041632_11932.png,n03041632_11932.png,0.0,0.16051334,0.4194129,-0.18306965
alexnet_w1_mlp_simclrhn_probe2,1,614,NaN,cat,cat,c30,0614_cop_dnn_c30_cat_10_n02123159_5257.png,n02123159_5257.png,1.0,0.32108125,-0.49635246,0.57801294
alexnet_w1_mlp_simclrhn_probe2,1,615,NaN,bottle,bottle,c50,0615_cop_dnn_c50_bottle_10_n03983396_105.png,n03983396_105.png,1.0,1.8391006,-0.41746768,1.5956347
alexnet_w1_mlp_simclrhn_probe2,1,616,NaN,boat,boat,c50,0616_cop_dnn_c50_boat_10_n04612504_11939.png,n04612504_11939.png,1.0,2.3065228,-0.29715544,1.8410785
alexnet_w1_mlp_simclrhn_probe2,1,617,NaN,boat,boat,c30,0617_cop_dnn_c30_boat_10_n03662601_5575.png,n03662601_5575.png,1.0,0.9113436,0.53967994,0.26280588
alexnet_w1_mlp_simclrhn_probe2,1,618,NaN,bear,cat,c05,0618_cop_dnn_c05_cat_10_n02123159_6590.png,n02123159_6590.png,0.0,-0.0039871274,-0.0027487222,-0.0008756848
alexnet_w1_mlp_simclrhn_probe2,1,619,NaN,bear,bear,c50,0619_cop_dnn_c50_bear_10_n02134084_21462.png,n02134084_21462.png,1.0,-0.091109276,-0.689655,0.42323574
