subj,session,trial,rt,object_response,category,condition,imagename,filename,is_correct,targ_act,max_nontarg_act,decision_margin
alexnet_w1_mlp_simclrhn_probe3,1,1,NaN,clock,knife,c30,0001_cop_dnn_c30_knife_10_n03041632_7380.png,n03041632_7380.png,0.0,0.71406746,1.3457603,-0.44667432
alexnet_w1_mlp_simclrhn_probe3,1,2,NaN,bicycle,bicycle,c100,0002_cop_dnn_c100_bicycle_10_n03792782_5966.png,n03792782_5966.png,1.0,3.64057,3.0854547,0.39252573
alexnet_w1_mlp_simclrhn_probe3,1,3,NaN,knife,bird,c01,0003_cop_dnn_c01_bird_10_n01601694_10802.png,n01601694_10802.png,0.0,-0.052899413,0.3044262,-0.25266737
alexnet_w1_mlp_simclrhn_probe3,1,4,NaN,airplane,airplane,c05,0004_cop_dnn_c05_airplane_10_n02690373_9759.png,n02690373_9759.png,1.0,0.6408804,0.3239987,0.22406921
alexnet_w1_mlp_simclrhn_probe3,1,5,NaN,knife,car,c03,0005_cop_dnn_c03_car_10_n02814533_2236.png,n02814533_2236.png,0.0,-0.18747234,0.5700708,-0.5356639
alexnet_w1_mlp_simclrhn_probe3,1,6,NaN,chair,chair,c30,0006_cop_dnn_c30_chair_10_n02791124_7207.png,n02791124_7207.png,1.0,1.0530931,0.43819034,0.4348019
alexnet_w1_mlp_simclrhn_probe3,1,7,NaN,keyboard,oven,c50,0007_cop_dnn_c50_oven_10_n04111531_7064.png,n04111531_7064.png,0.0,0.30127153,1.2192987,-0.6491432
alexnet_w1_mlp_simclrhn_probe3,1,8,NaN,oven,bird,c15,0008_cop_dnn_c15_bird_10_n01532829_2263.png,n01532829_2263.png,0.0,-0.0007395635,0.31255174,-0.22153041
alexnet_w1_mlp_simclrhn_probe3,1,9,NaN,bicycle,bicycle,c50,0009_cop_dnn_c50_bicycle_10_n02835271_3383.png,n02835271_3383.png,1.0,6.955217,2.4470167,3.187779
alexnet_w1_mlp_simclrhn_probe3,1,10,NaN,knife,bicycle,c03,0010_cop_dnn_c03_bicycle_10_n03792782_27510.png,n03792782_27510.png,0.0,-0.20005932,0.31568673,-0.36468753
alexnet_w1_mlp_simclrhn_probe3,1,11,NaN,knife,bottle,c03,0011_cop_dnn_c03_bottle_10_n04557648_10944.png,n04557648_10944.png,0.0,0.28834096,0.5250513,-0.16737948
alexnet_w1_mlp_simclrhn_probe3,1,12,NaN,oven,keyboard,c15,0012_cop_dnn_c15_keyboard_10_n03085013_20891.png,n03085013_20891.png,0.0,0.4060112,0.56138384,-0.109865054
alexnet_w1_mlp_simclrhn_probe3,1,13,NaN,elephant,elephant,c30,0013_cop_dnn_c30_elephant_10_n02504458_3225.png,n02504458_3225.png,1.0,3.285654,1.2008595,1.4741724
alexnet_w1_mlp_simclrhn_probe3,1,14,NaN,keyboard,keyboard,c10,0014_cop_dnn_c10_keyboard_10_n04505470_6638.png,n04505470_6638.png,1.0,1.2033358,0.6522331,0.38968843
alexnet_w1_mlp_simclrhn_probe3,1,15,NaN,knife,bird,c01,0015_cop_dnn_c01_bird_10_n01601694_11888.png,n01601694_11888.png,0.0,-0.079609804,0.28418395,-0.25724104
alexnet_w1_mlp_simclrhn_probe3,1,16,NaN,airplane,airplane,c03,0016_cop_dnn_c03_airplane_10_n02690373_8743.png,n02690373_8743.png,1.0,0.41021287,0.35278803,0.040605497
alexnet_w1_mlp_simclrhn_probe3,1,17,NaN,boat,boat,c10,0017_cop_dnn_c10_boat_10_n03344393_8869.png,n03344393_8869.png,1.0,0.5569007,0.44080955,0.08208883
alexnet_w1_mlp_simclrhn_probe3,1,18,NaN,knife,bear,c01,0018_cop_dnn_c01_bear_10_n02132136_27682.png,n02132136_27682.png,0.0,-0.039203428,0.29876706,-0.23898123
alexnet_w1_mlp_simclrhn_probe3,1,19,NaN,clock,clock,c50,0019_cop_dnn_c50_clock_10_n02708093_7081.png,n02708093_7081.png,1.0,0.18376954,0.14481989,0.027541565
alexnet_w1_mlp_simclrhn_probe3,1,20,NaN,knife,car,c10,0020_cop_dnn_c10_car_10_n03100240_12141.png,n03100240_12141.png,0.0,0.4367056,0.4415258,-0.0034083945
alexnet_w1_mlp_simclrhn_probe3,1,21,NaN,airplane,car,c15,0021_cop_dnn_c15_car_10_n02814533_19287.png,n02814533_19287.png,0.0,0.0027882655,0.9060869,-0.6387286
alexnet_w1_mlp_simclrhn_probe3,1,22,NaN,knife,bicycle,c03,0022_cop_dnn_c03_bicycle_10_n02835271_3841.png,n02835271_3841.png,0.0,0.16271192,0.31010342,-0.10422153
alexnet_w1_mlp_simclrhn_probe3,1,23,NaN,clock,clock,c15,0023_cop_dnn_c15_clock_10_n02708093_6696.png,n02708093_6696.png,1.0,1.7944442,0.24136332,1.0981941
alexnet_w1_mlp_simclrhn_probe3,1,24,NaN,knife,bird,c01,0024_cop_dnn_c01_bird_10_n01829413_6393.png,n01829413_6393.png,0.0,-0.09726498,0.36941895,-0.32999536
alexnet_w1_mlp_simclrhn_probe3,1,25,NaN,knife,clock,c01,0025_cop_dnn_c01_clock_10_n02708093_3484.png,n02708093_3484.png,0.0,0.25312927,0.25321263,-5.894237e-05
alexnet_w1_mlp_simclrhn_probe3,1,26,NaN,bottle,chair,c05,0026_cop_dnn_c05_chair_10_n04429376_55163.png,n04429376_55163.png,0.0,0.37591052,0.6692501,-0.20742239
alexnet_w1_mlp_simclrhn_probe3,1,27,NaN,bear,boat,c100,0027_cop_dnn_c100_boat_10_n02951358_14528.png,n02951358_14528.png,0.0,0.8561824,1.2283502,-0.26316234
alexnet_w1_mlp_simclrhn_probe3,1,28,NaN,knife,chair,c01,0028_cop_dnn_c01_chair_10_n03376595_9603.png,n03376595_9603.png,0.0,-0.023571502,0.3617423,-0.272458
alexnet_w1_mlp_simclrhn_probe3,1,29,NaN,knife,bottle,c03,0029_cop_dnn_c03_bottle_10_n03937543_1840.png,n03937543_1840.png,0.0,0.09987305,0.3935187,-0.20763882
alexnet_w1_mlp_simclrhn_probe3,1,30,NaN,knife,car,c01,0030_cop_dnn_c01_car_10_n02814533_32835.png,n02814533_32835.png,0.0,-0.30785775,0.47652674,-0.5546436
alexnet_w1_mlp_simclrhn_probe3,1,31,NaN,cat,bird,c15,0031_cop_dnn_c15_bird_10_n01860187_38598.png,n01860187_38598.png,0.0,0.0621946,0.24171169,-0.12693775
alexnet_w1_mlp_simclrhn_probe3,1,32,NaN,car,airplane,c100,0032_cop_dnn_c100_airplane_10_n02690373_9322.png,n02690373_9322.png,0.0,6.8212757,7.4340053,-0.43326524
alexnet_w1_mlp_simclrhn_probe3,1,33,NaN,knife,bicycle,c01,0033_cop_dnn_c01_bicycle_10_n02835271_1505.png,n02835271_1505.png,0.0,-0.19938913,0.3090525,-0.35952252
alexnet_w1_mlp_simclrhn_probe3,1,34,NaN,bicycle,bicycle,c50,0034_cop_dnn_c50_bicycle_10_n03792782_11023.png,n03792782_11023.png,1.0,1.3420826,0.99406207,0.2460877
alexnet_w1_mlp_simclrhn_probe3,1,35,NaN,elephant,elephant,c50,0035_cop_dnn_c50_elephant_10_n02504458_4909.png,n02504458_4909.png,1.0,5.480075,0.9303652,3.2171307
alexnet_w1_mlp_simclrhn_probe3,1,36,NaN,boat,boat,c100,0036_cop_dnn_c100_boat_10_n03344393_646.png,n03344393_646.png,1.0,8.620829,4.878968,2.6458952
alexnet_w1_mlp_simclrhn_probe3,1,37,NaN,boat,boat,c10,0037_cop_dnn_c10_boat_10_n04612504_2472.png,n04612504_2472.png,1.0,1.5371155,0.28783923,0.88337165
alexnet_w1_mlp_simclrhn_probe3,1,38,NaN,knife,keyboard,c03,0038_cop_dnn_c03_keyboard_10_n03085013_4673.png,n03085013_4673.png,0.0,0.19687346,0.5005006,-0.21469682
alexnet_w1_mlp_simclrhn_probe3,1,39,NaN,elephant,elephant,c100,0039_cop_dnn_c100_elephant_10_n02504458_1138.png,n02504458_1138.png,1.0,9.290816,4.691985,3.2518647
alexnet_w1_mlp_simclrhn_probe3,1,40,NaN,car,car,c100,0040_cop_dnn_c100_car_10_n03100240_5569.png,n03100240_5569.png,1.0,5.161156,1.8748796,2.3237486
alexnet_w1_mlp_simclrhn_probe3,1,41,NaN,bird,dog,c100,0041_cop_dnn_c100_dog_10_n02107312_7422.png,n02107312_7422.png,0.0,1.1483067,1.8604316,-0.5035483
alexnet_w1_mlp_simclrhn_probe3,1,42,NaN,oven,bear,c15,0042_cop_dnn_c15_bear_10_n02134084_24140.png,n02134084_24140.png,0.0,0.23827161,0.6869701,-0.31727776
alexnet_w1_mlp_simclrhn_probe3,1,43,NaN,bottle,bottle,c100,0043_cop_dnn_c100_bottle_10_n04560804_14130.png,n04560804_14130.png,1.0,5.325451,3.2874422,1.4410897
alexnet_w1_mlp_simclrhn_probe3,1,44,NaN,cat,cat,c30,0044_cop_dnn_c30_cat_10_n02124075_11970.png,n02124075_11970.png,1.0,1.7033938,0.18482691,1.0737889
alexnet_w1_mlp_simclrhn_probe3,1,45,NaN,knife,dog,c03,0045_cop_dnn_c03_dog_10_n02093991_247.png,n02093991_247.png,0.0,-0.0002584501,0.32601866,-0.23071276
alexnet_w1_mlp_simclrhn_probe3,1,46,NaN,keyboard,keyboard,c100,0046_cop_dnn_c100_keyboard_10_n04505470_375.png,n04505470_375.png,1.0,11.117013,1.692202,6.664348
alexnet_w1_mlp_simclrhn_probe3,1,47,NaN,bear,bear,c100,0047_cop_dnn_c100_bear_10_n02134418_4372.png,n02134418_4372.png,1.0,4.3827176,1.3232884,2.1633432
alexnet_w1_mlp_simclrhn_probe3,1,48,NaN,knife,boat,c01,0048_cop_dnn_c01_boat_10_n03344393_2838.png,n03344393_2838.png,0.0,-0.08318591,0.36511597,-0.31699732
alexnet_w1_mlp_simclrhn_probe3,1,49,NaN,oven,bicycle,c05,0049_cop_dnn_c05_bicycle_10_n02835271_4935.png,n02835271_4935.png,0.0,-0.17846543,0.37736356,-0.39303046
alexnet_w1_mlp_simclrhn_probe3,1,50,NaN,airplane,airplane,c50,0050_cop_dnn_c50_airplane_10_n02690373_5382.png,n02690373_5382.png,1.0,3.8649147,1.1082666,1.9492446
alexnet_w1_mlp_simclrhn_probe3,1,51,NaN,cat,bottle,c100,0051_cop_dnn_c100_bottle_10_n03937543_2123.png,n03937543_2123.png,0.0,0.21715495,1.1539581,-0.66241986
alexnet_w1_mlp_simclrhn_probe3,1,52,NaN,dog,dog,c30,0052_cop_dnn_c30_dog_10_n02097474_5234.png,n02097474_5234.png,1.0,1.0528808,0.7262199,0.23098412
alexnet_w1_mlp_simclrhn_probe3,1,53,NaN,keyboard,bottle,c100,0053_cop_dnn_c100_bottle_10_n02823428_6050.png,n02823428_6050.png,0.0,1.2099265,5.9311895,-3.338437
alexnet_w1_mlp_simclrhn_probe3,1,54,NaN,bottle,clock,c15,0054_cop_dnn_c15_clock_10_n02708093_3743.png,n02708093_3743.png,0.0,0.40498433,0.6186689,-0.15109782
alexnet_w1_mlp_simclrhn_probe3,1,55,NaN,knife,knife,c03,0055_cop_dnn_c03_knife_10_n03041632_55083.png,n03041632_55083.png,1.0,0.4965797,0.170487,0.23058237
alexnet_w1_mlp_simclrhn_probe3,1,56,NaN,knife,knife,c50,0056_cop_dnn_c50_knife_10_n03041632_41310.png,n03041632_41310.png,1.0,1.666652,0.3964684,0.89815545
alexnet_w1_mlp_simclrhn_probe3,1,57,NaN,knife,knife,c03,0057_cop_dnn_c03_knife_10_n03041632_99799.png,n03041632_99799.png,1.0,0.4609436,0.11885065,0.24189626
alexnet_w1_mlp_simclrhn_probe3,1,58,NaN,bottle,dog,c15,0058_cop_dnn_c15_dog_10_n02094114_8231.png,n02094114_8231.png,0.0,-0.06530916,0.23359536,-0.21135741
alexnet_w1_mlp_simclrhn_probe3,1,59,NaN,knife,chair,c01,0059_cop_dnn_c01_chair_10_n03376595_6173.png,n03376595_6173.png,0.0,0.04260911,0.4019302,-0.2540784
alexnet_w1_mlp_simclrhn_probe3,1,60,NaN,knife,oven,c05,0060_cop_dnn_c05_oven_10_n04111531_9297.png,n04111531_9297.png,0.0,0.12362268,0.22890145,-0.07444333
alexnet_w1_mlp_simclrhn_probe3,1,61,NaN,knife,car,c10,0061_cop_dnn_c10_car_10_n03100240_24420.png,n03100240_24420.png,0.0,-0.048972517,0.5675181,-0.43592468
alexnet_w1_mlp_simclrhn_probe3,1,62,NaN,elephant,elephant,c100,0062_cop_dnn_c100_elephant_10_n02504013_2340.png,n02504013_2340.png,1.0,20.496944,8.286757,8.633906
alexnet_w1_mlp_simclrhn_probe3,1,63,NaN,knife,bicycle,c05,0063_cop_dnn_c05_bicycle_10_n02835271_10104.png,n02835271_10104.png,0.0,-0.16639778,0.23048177,-0.28063622
alexnet_w1_mlp_simclrhn_probe3,1,64,NaN,cat,bicycle,c15,0064_cop_dnn_c15_bicycle_10_n03792782_7165.png,n03792782_7165.png,0.0,0.05250664,0.15947796,-0.07564015
alexnet_w1_mlp_simclrhn_probe3,1,65,NaN,knife,knife,c10,0065_cop_dnn_c10_knife_10_n03041632_14817.png,n03041632_14817.png,1.0,0.50540316,0.3735832,0.093210794
alexnet_w1_mlp_simclrhn_probe3,1,66,NaN,clock,clock,c15,0066_cop_dnn_c15_clock_10_n02708093_118.png,n02708093_118.png,1.0,0.8284907,0.5437764,0.2013234
alexnet_w1_mlp_simclrhn_probe3,1,67,NaN,airplane,airplane,c10,0067_cop_dnn_c10_airplane_10_n02690373_4298.png,n02690373_4298.png,1.0,1.3109823,0.3648224,0.66903615
alexnet_w1_mlp_simclrhn_probe3,1,68,NaN,knife,knife,c100,0068_cop_dnn_c100_knife_10_n03041632_50034.png,n03041632_50034.png,1.0,4.4876575,2.3741245,1.4944936
alexnet_w1_mlp_simclrhn_probe3,1,69,NaN,bottle,chair,c03,0069_cop_dnn_c03_chair_10_n02791124_1333.png,n02791124_1333.png,0.0,-0.10673535,0.3437471,-0.3185392
alexnet_w1_mlp_simclrhn_probe3,1,70,NaN,clock,clock,c01,0070_cop_dnn_c01_clock_10_n02708093_2318.png,n02708093_2318.png,1.0,0.35747656,0.28776,0.04929706
alexnet_w1_mlp_simclrhn_probe3,1,71,NaN,knife,elephant,c01,0071_cop_dnn_c01_elephant_10_n02504013_3864.png,n02504013_3864.png,0.0,-0.16089639,0.4059391,-0.40081325
alexnet_w1_mlp_simclrhn_probe3,1,72,NaN,knife,chair,c10,0072_cop_dnn_c10_chair_10_n04429376_56624.png,n04429376_56624.png,0.0,0.31390733,0.43347272,-0.08454551
alexnet_w1_mlp_simclrhn_probe3,1,73,NaN,airplane,airplane,c30,0073_cop_dnn_c30_airplane_10_n02690373_7004.png,n02690373_7004.png,1.0,2.2143009,0.8720101,0.94914293
alexnet_w1_mlp_simclrhn_probe3,1,74,NaN,oven,oven,c30,0074_cop_dnn_c30_oven_10_n04111531_9692.png,n04111531_9692.png,1.0,1.1328956,0.20871691,0.653493
alexnet_w1_mlp_simclrhn_probe3,1,75,NaN,car,truck,c50,0075_cop_dnn_c50_truck_10_n03796401_296.png,n03796401_296.png,0.0,2.2733781,2.3213608,-0.03392889
alexnet_w1_mlp_simclrhn_probe3,1,76,NaN,airplane,airplane,c15,0076_cop_dnn_c15_airplane_10_n02690373_1837.png,n02690373_1837.png,1.0,0.37182269,0.34268418,0.020604035
alexnet_w1_mlp_simclrhn_probe3,1,77,NaN,knife,airplane,c03,0077_cop_dnn_c03_airplane_10_n02690373_10203.png,n02690373_10203.png,0.0,0.1485713,0.27924052,-0.092397094
alexnet_w1_mlp_simclrhn_probe3,1,78,NaN,knife,boat,c03,0078_cop_dnn_c03_boat_10_n02951358_34234.png,n02951358_34234.png,0.0,-0.0453896,0.35468513,-0.28289557
alexnet_w1_mlp_simclrhn_probe3,1,79,NaN,bicycle,bicycle,c100,0079_cop_dnn_c100_bicycle_10_n02835271_2885.png,n02835271_2885.png,1.0,5.560761,2.5526514,2.1270547
alexnet_w1_mlp_simclrhn_probe3,1,80,NaN,airplane,airplane,c30,0080_cop_dnn_c30_airplane_10_n02690373_5247.png,n02690373_5247.png,1.0,2.8988757,0.68084824,1.5683824
alexnet_w1_mlp_simclrhn_probe3,1,81,NaN,clock,clock,c50,0081_cop_dnn_c50_clock_10_n02708093_596.png,n02708093_596.png,1.0,5.082783,0.90603113,2.9534097
alexnet_w1_mlp_simclrhn_probe3,1,82,NaN,knife,chair,c01,0082_cop_dnn_c01_chair_10_n03376595_1364.png,n03376595_1364.png,0.0,-0.0032026246,0.38004667,-0.27099818
alexnet_w1_mlp_simclrhn_probe3,1,83,NaN,knife,cat,c03,0083_cop_dnn_c03_cat_10_n02124075_12430.png,n02124075_12430.png,0.0,0.0071560964,0.2974152,-0.20524418
alexnet_w1_mlp_simclrhn_probe3,1,84,NaN,knife,cat,c05,0084_cop_dnn_c05_cat_10_n02123159_5487.png,n02123159_5487.png,0.0,0.10690946,0.30968755,-0.14338577
alexnet_w1_mlp_simclrhn_probe3,1,85,NaN,bicycle,bicycle,c50,0085_cop_dnn_c50_bicycle_10_n03792782_17571.png,n03792782_17571.png,1.0,2.8725293,1.0445344,1.2925875
alexnet_w1_mlp_simclrhn_probe3,1,86,NaN,cat,cat,c50,0086_cop_dnn_c50_cat_10_n02123159_6132.png,n02123159_6132.png,1.0,5.346555,0.39417133,3.5018644
alexnet_w1_mlp_simclrhn_probe3,1,87,NaN,knife,bottle,c05,0087_cop_dnn_c05_bottle_10_n03937543_2873.png,n03937543_2873.png,0.0,0.18534753,0.30736384,-0.086278565
alexnet_w1_mlp_simclrhn_probe3,1,88,NaN,bottle,keyboard,c15,0088_cop_dnn_c15_keyboard_10_n04505470_1236.png,n04505470_1236.png,0.0,0.031917028,0.7866405,-0.5336701
alexnet_w1_mlp_simclrhn_probe3,1,89,NaN,knife,airplane,c01,0089_cop_dnn_c01_airplane_10_n02690373_4243.png,n02690373_4243.png,0.0,0.12625751,0.42443478,-0.21084318
alexnet_w1_mlp_simclrhn_probe3,1,90,NaN,oven,oven,c30,0090_cop_dnn_c30_oven_10_n04111531_467.png,n04111531_467.png,1.0,1.119577,0.39402303,0.5130442
alexnet_w1_mlp_simclrhn_probe3,1,91,NaN,knife,cat,c03,0091_cop_dnn_c03_cat_10_n02123394_2632.png,n02123394_2632.png,0.0,0.10299707,0.29818332,-0.13801754
alexnet_w1_mlp_simclrhn_probe3,1,92,NaN,oven,chair,c15,0092_cop_dnn_c15_chair_10_n02791124_5268.png,n02791124_5268.png,0.0,0.1934225,0.7195806,-0.37204996
alexnet_w1_mlp_simclrhn_probe3,1,93,NaN,knife,knife,c100,0093_cop_dnn_c100_knife_10_n03041632_1143.png,n03041632_1143.png,1.0,1.5249064,1.5172083,0.00544335
alexnet_w1_mlp_simclrhn_probe3,1,94,NaN,bottle,chair,c10,0094_cop_dnn_c10_chair_10_n02791124_1018.png,n02791124_1018.png,0.0,0.25030324,0.5336813,-0.20037854
alexnet_w1_mlp_simclrhn_probe3,1,95,NaN,oven,bicycle,c05,0095_cop_dnn_c05_bicycle_10_n03792782_8057.png,n03792782_8057.png,0.0,-0.18663806,0.18331867,-0.2615989
alexnet_w1_mlp_simclrhn_probe3,1,96,NaN,bear,bear,c30,0096_cop_dnn_c30_bear_10_n02132136_1338.png,n02132136_1338.png,1.0,2.4346688,1.4065794,0.726969
alexnet_w1_mlp_simclrhn_probe3,1,97,NaN,clock,clock,c05,0097_cop_dnn_c05_clock_10_n02708093_4798.png,n02708093_4798.png,1.0,0.8840818,0.14746308,0.52086806
alexnet_w1_mlp_simclrhn_probe3,1,98,NaN,knife,truck,c01,0098_cop_dnn_c01_truck_10_n03796401_15046.png,n03796401_15046.png,0.0,-0.24301675,0.44667846,-0.48768818
alexnet_w1_mlp_simclrhn_probe3,1,99,NaN,knife,knife,c50,0099_cop_dnn_c50_knife_10_n03041632_13612.png,n03041632_13612.png,1.0,1.4375741,0.7227873,0.50543064
alexnet_w1_mlp_simclrhn_probe3,1,100,NaN,oven,oven,c10,0100_cop_dnn_c10_oven_10_n04111531_1898.png,n04111531_1898.png,1.0,1.2040081,0.39054838,0.57520294
alexnet_w1_mlp_simclrhn_probe3,1,101,NaN,bottle,truck,c03,0101_cop_dnn_c03_truck_10_n04467665_28988.png,n04467665_28988.png,0.0,-0.16711368,0.36141968,-0.37372953
alexnet_w1_mlp_simclrhn_probe3,1,102,NaN,airplane,airplane,c100,0102_cop_dnn_c100_airplane_10_n02690373_736.png,n02690373_736.png,1.0,11.360906,4.5622416,4.8073816
alexnet_w1_mlp_simclrhn_probe3,1,103,NaN,dog,dog,c50,0103_cop_dnn_c50_dog_10_n02111500_5154.png,n02111500_5154.png,1.0,1.3661327,0.4602009,0.64059055
alexnet_w1_mlp_simclrhn_probe3,1,104,NaN,oven,bear,c50,0104_cop_dnn_c50_bear_10_n02133161_13461.png,n02133161_13461.png,0.0,-0.13774668,0.45212534,-0.4171025
alexnet_w1_mlp_simclrhn_probe3,1,105,NaN,bear,dog,c15,0105_cop_dnn_c15_dog_10_n02102318_11746.png,n02102318_11746.png,0.0,0.24928571,0.5260364,-0.19569229
alexnet_w1_mlp_simclrhn_probe3,1,106,NaN,boat,boat,c50,0106_cop_dnn_c50_boat_10_n03662601_12226.png,n03662601_12226.png,1.0,3.295095,0.7188128,1.8217065
alexnet_w1_mlp_simclrhn_probe3,1,107,NaN,keyboard,keyboard,c05,0107_cop_dnn_c05_keyboard_10_n04505470_3207.png,n04505470_3207.png,1.0,0.3718294,0.3617739,0.0071103
alexnet_w1_mlp_simclrhn_probe3,1,108,NaN,bicycle,bicycle,c30,0108_cop_dnn_c30_bicycle_10_n03792782_2628.png,n03792782_2628.png,1.0,3.0479553,1.1589632,1.3357191
alexnet_w1_mlp_simclrhn_probe3,1,109,NaN,knife,chair,c01,0109_cop_dnn_c01_chair_10_n02791124_3204.png,n02791124_3204.png,0.0,0.009450462,0.4558042,-0.31561977
alexnet_w1_mlp_simclrhn_probe3,1,110,NaN,bottle,bottle,c03,0110_cop_dnn_c03_bottle_10_n04560804_722.png,n04560804_722.png,1.0,0.41364005,0.29613623,0.08308775
alexnet_w1_mlp_simclrhn_probe3,1,111,NaN,bicycle,bicycle,c30,0111_cop_dnn_c30_bicycle_10_n03792782_8847.png,n03792782_8847.png,1.0,1.2506014,0.2963311,0.674771
alexnet_w1_mlp_simclrhn_probe3,1,112,NaN,bear,bear,c50,0112_cop_dnn_c50_bear_10_n02132136_1132.png,n02132136_1132.png,1.0,2.1322453,1.515234,0.4362929
alexnet_w1_mlp_simclrhn_probe3,1,113,NaN,knife,knife,c50,0113_cop_dnn_c50_knife_10_n03041632_6557.png,n03041632_6557.png,1.0,1.1913712,0.5085909,0.4827986
alexnet_w1_mlp_simclrhn_probe3,1,114,NaN,oven,knife,c100,0114_cop_dnn_c100_knife_10_n03041632_35116.png,n03041632_35116.png,0.0,1.077899,3.0897512,-1.4225944
alexnet_w1_mlp_simclrhn_probe3,1,115,NaN,car,car,c15,0115_cop_dnn_c15_car_10_n02814533_3117.png,n02814533_3117.png,1.0,0.80189085,0.54691803,0.18029301
alexnet_w1_mlp_simclrhn_probe3,1,116,NaN,bear,bird,c15,0116_cop_dnn_c15_bird_10_n02009229_4224.png,n02009229_4224.png,0.0,-0.0643583,0.18715431,-0.17784628
alexnet_w1_mlp_simclrhn_probe3,1,117,NaN,oven,chair,c50,0117_cop_dnn_c50_chair_10_n03376595_9247.png,n03376595_9247.png,0.0,0.64044154,1.2698418,-0.4450532
alexnet_w1_mlp_simclrhn_probe3,1,118,NaN,knife,boat,c01,0118_cop_dnn_c01_boat_10_n03662601_5639.png,n03662601_5639.png,0.0,0.06139801,0.3515101,-0.20514025
alexnet_w1_mlp_simclrhn_probe3,1,119,NaN,knife,bicycle,c10,0119_cop_dnn_c10_bicycle_10_n02835271_13437.png,n02835271_13437.png,0.0,0.057529468,0.20589747,-0.10491202
alexnet_w1_mlp_simclrhn_probe3,1,120,NaN,oven,bicycle,c05,0120_cop_dnn_c05_bicycle_10_n03792782_18294.png,n03792782_18294.png,0.0,-0.1538457,0.26897344,-0.2989783
alexnet_w1_mlp_simclrhn_probe3,1,121,NaN,knife,boat,c03,0121_cop_dnn_c03_boat_10_n02951358_10488.png,n02951358_10488.png,0.0,0.14072564,0.27522692,-0.095106766
alexnet_w1_mlp_simclrhn_probe3,1,122,NaN,airplane,bird,c50,0122_cop_dnn_c50_bird_10_n01829413_14594.png,n01829413_14594.png,0.0,1.0753436,1.2168221,-0.100040436
alexnet_w1_mlp_simclrhn_probe3,1,123,NaN,keyboard,clock,c100,0123_cop_dnn_c100_clock_10_n03196217_9197.png,n03196217_9197.png,0.0,2.0543125,3.2209916,-0.8249667
alexnet_w1_mlp_simclrhn_probe3,1,124,NaN,oven,boat,c15,0124_cop_dnn_c15_boat_10_n03662601_1667.png,n03662601_1667.png,0.0,0.30739436,0.46867085,-0.114039704
alexnet_w1_mlp_simclrhn_probe3,1,125,NaN,elephant,dog,c50,0125_cop_dnn_c50_dog_10_n02092339_6946.png,n02092339_6946.png,0.0,0.9964536,1.2082424,-0.14975733
alexnet_w1_mlp_simclrhn_probe3,1,126,NaN,knife,airplane,c05,0126_cop_dnn_c05_airplane_10_n02690373_1773.png,n02690373_1773.png,0.0,0.27925575,0.29501924,-0.011146472
alexnet_w1_mlp_simclrhn_probe3,1,127,NaN,oven,elephant,c50,0127_cop_dnn_c50_elephant_10_n02504013_4278.png,n02504013_4278.png,0.0,-0.12198177,0.9043002,-0.72569096
alexnet_w1_mlp_simclrhn_probe3,1,128,NaN,bird,bird,c100,0128_cop_dnn_c100_bird_10_n02025239_10194.png,n02025239_10194.png,1.0,3.966175,0.9075186,2.1627967
alexnet_w1_mlp_simclrhn_probe3,1,129,NaN,oven,oven,c15,0129_cop_dnn_c15_oven_10_n04111531_1977.png,n04111531_1977.png,1.0,0.81320417,0.19146949,0.4396328
alexnet_w1_mlp_simclrhn_probe3,1,130,NaN,truck,clock,c50,0130_cop_dnn_c50_clock_10_n02708093_616.png,n02708093_616.png,0.0,0.277763,0.9577389,-0.48081556
alexnet_w1_mlp_simclrhn_probe3,1,131,NaN,airplane,boat,c10,0131_cop_dnn_c10_boat_10_n04273569_10292.png,n04273569_10292.png,0.0,0.3913706,0.72720236,-0.23746891
alexnet_w1_mlp_simclrhn_probe3,1,132,NaN,cat,cat,c50,0132_cop_dnn_c50_cat_10_n02123394_8592.png,n02123394_8592.png,1.0,2.1844242,0.4596066,1.2196301
alexnet_w1_mlp_simclrhn_probe3,1,133,NaN,knife,knife,c10,0133_cop_dnn_c10_knife_10_n03041632_16020.png,n03041632_16020.png,1.0,0.44912618,0.1316643,0.22447945
alexnet_w1_mlp_simclrhn_probe3,1,134,NaN,cat,cat,c30,0134_cop_dnn_c30_cat_10_n02123394_5466.png,n02123394_5466.png,1.0,1.1144804,0.3591779,0.5340795
alexnet_w1_mlp_simclrhn_probe3,1,135,NaN,knife,elephant,c01,0135_cop_dnn_c01_elephant_10_n02504013_7351.png,n02504013_7351.png,0.0,-0.13759343,0.3269686,-0.328495
alexnet_w1_mlp_simclrhn_probe3,1,136,NaN,oven,oven,c50,0136_cop_dnn_c50_oven_10_n04111531_22388.png,n04111531_22388.png,1.0,1.1707275,0.42806613,0.5251409
alexnet_w1_mlp_simclrhn_probe3,1,137,NaN,bottle,chair,c100,0137_cop_dnn_c100_chair_10_n04429376_6308.png,n04429376_6308.png,0.0,0.5846657,2.5166798,-1.3661402
alexnet_w1_mlp_simclrhn_probe3,1,138,NaN,car,car,c10,0138_cop_dnn_c10_car_10_n03100240_8443.png,n03100240_8443.png,1.0,2.5107687,0.89220655,1.1444962
alexnet_w1_mlp_simclrhn_probe3,1,139,NaN,car,car,c100,0139_cop_dnn_c100_car_10_n04285008_12446.png,n04285008_12446.png,1.0,7.621961,2.4593196,3.650539
alexnet_w1_mlp_simclrhn_probe3,1,140,NaN,knife,keyboard,c01,0140_cop_dnn_c01_keyboard_10_n04505470_4440.png,n04505470_4440.png,0.0,0.005728133,0.47590572,-0.33246577
alexnet_w1_mlp_simclrhn_probe3,1,141,NaN,clock,car,c10,0141_cop_dnn_c10_car_10_n04285008_10073.png,n04285008_10073.png,0.0,0.13190055,0.3754423,-0.17221002
alexnet_w1_mlp_simclrhn_probe3,1,142,NaN,knife,bottle,c03,0142_cop_dnn_c03_bottle_10_n03983396_7378.png,n03983396_7378.png,0.0,0.14419901,0.3167084,-0.12198255
alexnet_w1_mlp_simclrhn_probe3,1,143,NaN,knife,chair,c15,0143_cop_dnn_c15_chair_10_n02791124_5706.png,n02791124_5706.png,0.0,0.496322,0.5215355,-0.017828643
alexnet_w1_mlp_simclrhn_probe3,1,144,NaN,cat,cat,c15,0144_cop_dnn_c15_cat_10_n02123045_11224.png,n02123045_11224.png,1.0,1.5117251,0.38329947,0.7979174
alexnet_w1_mlp_simclrhn_probe3,1,145,NaN,knife,chair,c05,0145_cop_dnn_c05_chair_10_n03376595_8953.png,n03376595_8953.png,0.0,0.36572087,0.4685156,-0.07268686
alexnet_w1_mlp_simclrhn_probe3,1,146,NaN,bicycle,bicycle,c50,0146_cop_dnn_c50_bicycle_10_n03792782_66048.png,n03792782_66048.png,1.0,4.042742,1.9062102,1.510756
alexnet_w1_mlp_simclrhn_probe3,1,147,NaN,knife,dog,c01,0147_cop_dnn_c01_dog_10_n02104365_1123.png,n02104365_1123.png,0.0,-0.08875143,0.3042999,-0.27792928
alexnet_w1_mlp_simclrhn_probe3,1,148,NaN,knife,clock,c05,0148_cop_dnn_c05_clock_10_n03196217_3605.png,n03196217_3605.png,0.0,0.42637637,0.68486947,-0.18278222
alexnet_w1_mlp_simclrhn_probe3,1,149,NaN,knife,knife,c10,0149_cop_dnn_c10_knife_10_n03041632_14916.png,n03041632_14916.png,1.0,0.5270392,0.16822101,0.25372276
alexnet_w1_mlp_simclrhn_probe3,1,150,NaN,bear,bear,c10,0150_cop_dnn_c10_bear_10_n02132136_4101.png,n02132136_4101.png,1.0,0.49278885,0.47159287,0.01498782
alexnet_w1_mlp_simclrhn_probe3,1,151,NaN,knife,clock,c01,0151_cop_dnn_c01_clock_10_n02708093_7929.png,n02708093_7929.png,0.0,0.26344898,0.2713668,-0.0055987453
alexnet_w1_mlp_simclrhn_probe3,1,152,NaN,chair,chair,c50,0152_cop_dnn_c50_chair_10_n02791124_7630.png,n02791124_7630.png,1.0,2.82896,0.9615219,1.3204782
alexnet_w1_mlp_simclrhn_probe3,1,153,NaN,clock,clock,c05,0153_cop_dnn_c05_clock_10_n02708093_3750.png,n02708093_3750.png,1.0,0.4263877,0.35300416,0.05189
alexnet_w1_mlp_simclrhn_probe3,1,154,NaN,knife,bird,c01,0154_cop_dnn_c01_bird_10_n02037110_12288.png,n02037110_12288.png,0.0,-0.0983492,0.24104613,-0.23998876
alexnet_w1_mlp_simclrhn_probe3,1,155,NaN,keyboard,keyboard,c05,0155_cop_dnn_c05_keyboard_10_n04505470_6080.png,n04505470_6080.png,1.0,0.6632823,0.34800813,0.22293249
alexnet_w1_mlp_simclrhn_probe3,1,156,NaN,keyboard,keyboard,c100,0156_cop_dnn_c100_keyboard_10_n03085013_19065.png,n03085013_19065.png,1.0,8.919767,1.9251235,4.9459605
alexnet_w1_mlp_simclrhn_probe3,1,157,NaN,cat,cat,c10,0157_cop_dnn_c10_cat_10_n02123159_4856.png,n02123159_4856.png,1.0,0.3327311,0.2005233,0.09348503
alexnet_w1_mlp_simclrhn_probe3,1,158,NaN,knife,chair,c01,0158_cop_dnn_c01_chair_10_n04099969_6913.png,n04099969_6913.png,0.0,0.060883492,0.45114315,-0.27595526
alexnet_w1_mlp_simclrhn_probe3,1,159,NaN,knife,knife,c30,0159_cop_dnn_c30_knife_10_n03041632_35764.png,n03041632_35764.png,1.0,0.5304633,0.42858374,0.072039716
alexnet_w1_mlp_simclrhn_probe3,1,160,NaN,airplane,truck,c30,0160_cop_dnn_c30_truck_10_n03796401_3012.png,n03796401_3012.png,0.0,2.2668111,2.5550542,-0.20381862
alexnet_w1_mlp_simclrhn_probe3,1,161,NaN,elephant,elephant,c10,0161_cop_dnn_c10_elephant_10_n02504013_3821.png,n02504013_3821.png,1.0,0.77610326,0.34176102,0.30712634
alexnet_w1_mlp_simclrhn_probe3,1,162,NaN,oven,truck,c100,0162_cop_dnn_c100_truck_10_n03796401_3608.png,n03796401_3608.png,0.0,1.7271097,1.8664079,-0.0984987
alexnet_w1_mlp_simclrhn_probe3,1,163,NaN,chair,chair,c15,0163_cop_dnn_c15_chair_10_n04099969_13811.png,n04099969_13811.png,1.0,1.1811079,0.34899992,0.5883892
alexnet_w1_mlp_simclrhn_probe3,1,164,NaN,bear,bear,c50,0164_cop_dnn_c50_bear_10_n02133161_4954.png,n02133161_4954.png,1.0,1.7239398,0.27147502,1.0270478
alexnet_w1_mlp_simclrhn_probe3,1,165,NaN,dog,dog,c15,0165_cop_dnn_c15_dog_10_n02085782_6792.png,n02085782_6792.png,1.0,0.24240552,0.15669058,0.060609613
alexnet_w1_mlp_simclrhn_probe3,1,166,NaN,bottle,oven,c05,0166_cop_dnn_c05_oven_10_n04111531_22886.png,n04111531_22886.png,0.0,0.38327023,0.3989711,-0.011102197
alexnet_w1_mlp_simclrhn_probe3,1,167,NaN,oven,dog,c05,0167_cop_dnn_c05_dog_10_n02091831_510.png,n02091831_510.png,0.0,-0.05856621,0.23847795,-0.21004194
alexnet_w1_mlp_simclrhn_probe3,1,168,NaN,cat,bear,c15,0168_cop_dnn_c15_bear_10_n02132136_11339.png,n02132136_11339.png,0.0,0.26132238,0.36425117,-0.072781645
alexnet_w1_mlp_simclrhn_probe3,1,169,NaN,keyboard,bottle,c15,0169_cop_dnn_c15_bottle_10_n04557648_2709.png,n04557648_2709.png,0.0,0.39771986,0.9145311,-0.36544076
alexnet_w1_mlp_simclrhn_probe3,1,170,NaN,knife,keyboard,c03,0170_cop_dnn_c03_keyboard_10_n03085013_21447.png,n03085013_21447.png,0.0,0.17004907,0.44308573,-0.19306608
alexnet_w1_mlp_simclrhn_probe3,1,171,NaN,airplane,airplane,c30,0171_cop_dnn_c30_airplane_10_n02690373_7676.png,n02690373_7676.png,1.0,3.110497,1.6873503,1.0063167
alexnet_w1_mlp_simclrhn_probe3,1,172,NaN,elephant,dog,c100,0172_cop_dnn_c100_dog_10_n02091831_4110.png,n02091831_4110.png,0.0,1.2775509,3.1320214,-1.3113087
alexnet_w1_mlp_simclrhn_probe3,1,173,NaN,knife,bird,c10,0173_cop_dnn_c10_bird_10_n02007558_16029.png,n02007558_16029.png,0.0,0.058949754,0.25633433,-0.13957198
alexnet_w1_mlp_simclrhn_probe3,1,174,NaN,chair,truck,c30,0174_cop_dnn_c30_truck_10_n03796401_15097.png,n03796401_15097.png,0.0,0.111072205,0.48557276,-0.26481187
alexnet_w1_mlp_simclrhn_probe3,1,175,NaN,airplane,airplane,c30,0175_cop_dnn_c30_airplane_10_n02690373_7401.png,n02690373_7401.png,1.0,3.4967947,0.6665975,2.0012517
alexnet_w1_mlp_simclrhn_probe3,1,176,NaN,bottle,dog,c05,0176_cop_dnn_c05_dog_10_n02108422_4529.png,n02108422_4529.png,0.0,0.09687654,0.15217309,-0.039100565
alexnet_w1_mlp_simclrhn_probe3,1,177,NaN,elephant,bear,c10,0177_cop_dnn_c10_bear_10_n02132136_10514.png,n02132136_10514.png,0.0,0.39745668,0.50127214,-0.07340862
alexnet_w1_mlp_simclrhn_probe3,1,178,NaN,knife,airplane,c03,0178_cop_dnn_c03_airplane_10_n02690373_5524.png,n02690373_5524.png,0.0,-0.04598307,0.46807167,-0.3634916
alexnet_w1_mlp_simclrhn_probe3,1,179,NaN,oven,chair,c100,0179_cop_dnn_c100_chair_10_n04429376_5965.png,n04429376_5965.png,0.0,3.1575975,4.0671606,-0.6431582
alexnet_w1_mlp_simclrhn_probe3,1,180,NaN,airplane,airplane,c15,0180_cop_dnn_c15_airplane_10_n02690373_9712.png,n02690373_9712.png,1.0,0.8141502,0.44523463,0.2608627
alexnet_w1_mlp_simclrhn_probe3,1,181,NaN,boat,boat,c30,0181_cop_dnn_c30_boat_10_n02951358_29825.png,n02951358_29825.png,1.0,2.3337412,1.1839433,0.81302994
alexnet_w1_mlp_simclrhn_probe3,1,182,NaN,knife,keyboard,c03,0182_cop_dnn_c03_keyboard_10_n04505470_4887.png,n04505470_4887.png,0.0,0.2271572,0.43467456,-0.14673693
alexnet_w1_mlp_simclrhn_probe3,1,183,NaN,knife,truck,c01,0183_cop_dnn_c01_truck_10_n04467665_32090.png,n04467665_32090.png,0.0,-0.24861372,0.38351548,-0.44698286
alexnet_w1_mlp_simclrhn_probe3,1,184,NaN,bottle,chair,c05,0184_cop_dnn_c05_chair_10_n02791124_4296.png,n02791124_4296.png,0.0,0.10714876,0.7479308,-0.45310134
alexnet_w1_mlp_simclrhn_probe3,1,185,NaN,boat,boat,c30,0185_cop_dnn_c30_boat_10_n04612504_14669.png,n04612504_14669.png,1.0,1.7429583,0.59250355,0.8134944
alexnet_w1_mlp_simclrhn_probe3,1,186,NaN,knife,airplane,c03,0186_cop_dnn_c03_airplane_10_n02690373_891.png,n02690373_891.png,0.0,0.22037336,0.3924665,-0.12168822
alexnet_w1_mlp_simclrhn_probe3,1,187,NaN,knife,clock,c100,0187_cop_dnn_c100_clock_10_n04548280_7539.png,n04548280_7539.png,0.0,1.8428227,2.5365405,-0.4905326
alexnet_w1_mlp_simclrhn_probe3,1,188,NaN,bear,bear,c30,0188_cop_dnn_c30_bear_10_n02134418_4717.png,n02134418_4717.png,1.0,2.0726323,0.46247655,1.1385521
alexnet_w1_mlp_simclrhn_probe3,1,189,NaN,knife,bird,c03,0189_cop_dnn_c03_bird_10_n02002724_13195.png,n02002724_13195.png,0.0,-0.07018294,0.21096872,-0.19880424
alexnet_w1_mlp_simclrhn_probe3,1,190,NaN,bottle,bottle,c10,0190_cop_dnn_c10_bottle_10_n03937543_2494.png,n03937543_2494.png,1.0,0.23259248,0.13994329,0.06551287
alexnet_w1_mlp_simclrhn_probe3,1,191,NaN,clock,clock,c30,0191_cop_dnn_c30_clock_10_n03196217_2307.png,n03196217_2307.png,1.0,1.4472808,1.140134,0.21718559
alexnet_w1_mlp_simclrhn_probe3,1,192,NaN,bottle,clock,c15,0192_cop_dnn_c15_clock_10_n04548280_17907.png,n04548280_17907.png,0.0,0.2617927,0.3933443,-0.09302105
alexnet_w1_mlp_simclrhn_probe3,1,193,NaN,knife,chair,c03,0193_cop_dnn_c03_chair_10_n03376595_6540.png,n03376595_6540.png,0.0,0.057632864,0.39213258,-0.23652703
alexnet_w1_mlp_simclrhn_probe3,1,194,NaN,cat,cat,c30,0194_cop_dnn_c30_cat_10_n02123045_1484.png,n02123045_1484.png,1.0,1.501285,0.3583398,0.80818427
alexnet_w1_mlp_simclrhn_probe3,1,195,NaN,knife,knife,c03,0195_cop_dnn_c03_knife_10_n03041632_89912.png,n03041632_89912.png,1.0,0.44276384,0.10501215,0.23882651
alexnet_w1_mlp_simclrhn_probe3,1,196,NaN,bottle,bottle,c05,0196_cop_dnn_c05_bottle_10_n04591713_6975.png,n04591713_6975.png,1.0,1.6928825,0.3806346,0.9278995
alexnet_w1_mlp_simclrhn_probe3,1,197,NaN,bird,bird,c50,0197_cop_dnn_c50_bird_10_n01860187_810.png,n01860187_810.png,1.0,1.2656599,0.7274839,0.3805479
alexnet_w1_mlp_simclrhn_probe3,1,198,NaN,knife,oven,c03,0198_cop_dnn_c03_oven_10_n04111531_5967.png,n04111531_5967.png,0.0,0.23235357,0.34097904,-0.07680981
alexnet_w1_mlp_simclrhn_probe3,1,199,NaN,boat,boat,c15,0199_cop_dnn_c15_boat_10_n04612504_18954.png,n04612504_18954.png,1.0,1.060425,0.5559999,0.35668245
alexnet_w1_mlp_simclrhn_probe3,1,200,NaN,bicycle,bicycle,c10,0200_cop_dnn_c10_bicycle_10_n03792782_68259.png,n03792782_68259.png,1.0,0.30909556,0.18142325,0.09027796
alexnet_w1_mlp_simclrhn_probe3,1,201,NaN,knife,car,c03,0201_cop_dnn_c03_car_10_n04285008_296.png,n04285008_296.png,0.0,-0.27336982,0.5284636,-0.56698185
alexnet_w1_mlp_simclrhn_probe3,1,202,NaN,knife,airplane,c03,0202_cop_dnn_c03_airplane_10_n02690373_12929.png,n02690373_12929.png,0.0,0.3414482,0.3553408,-0.009823566
alexnet_w1_mlp_simclrhn_probe3,1,203,NaN,knife,boat,c01,0203_cop_dnn_c01_boat_10_n03344393_8761.png,n03344393_8761.png,0.0,-0.10269959,0.39550534,-0.3522841
alexnet_w1_mlp_simclrhn_probe3,1,204,NaN,clock,clock,c30,0204_cop_dnn_c30_clock_10_n03196217_3877.png,n03196217_3877.png,1.0,1.0707105,0.6533392,0.2951261
alexnet_w1_mlp_simclrhn_probe3,1,205,NaN,cat,bear,c10,0205_cop_dnn_c10_bear_10_n02134084_1346.png,n02134084_1346.png,0.0,0.3991608,0.5895071,-0.13459516
alexnet_w1_mlp_simclrhn_probe3,1,206,NaN,knife,knife,c03,0206_cop_dnn_c03_knife_10_n03041632_48151.png,n03041632_48151.png,1.0,0.40677276,0.1455316,0.1847254
alexnet_w1_mlp_simclrhn_probe3,1,207,NaN,airplane,airplane,c50,0207_cop_dnn_c50_airplane_10_n02690373_3589.png,n02690373_3589.png,1.0,1.4559823,1.1817638,0.1939018
alexnet_w1_mlp_simclrhn_probe3,1,208,NaN,clock,bottle,c50,0208_cop_dnn_c50_bottle_10_n04560804_2942.png,n04560804_2942.png,0.0,0.9033511,1.5387033,-0.44926184
alexnet_w1_mlp_simclrhn_probe3,1,209,NaN,knife,keyboard,c03,0209_cop_dnn_c03_keyboard_10_n04505470_5022.png,n04505470_5022.png,0.0,0.32951805,0.39367414,-0.045365203
alexnet_w1_mlp_simclrhn_probe3,1,210,NaN,oven,dog,c10,0210_cop_dnn_c10_dog_10_n02096294_1043.png,n02096294_1043.png,0.0,0.08237607,0.23569506,-0.10841291
alexnet_w1_mlp_simclrhn_probe3,1,211,NaN,airplane,airplane,c50,0211_cop_dnn_c50_airplane_10_n02690373_1350.png,n02690373_1350.png,1.0,5.032421,2.0003035,2.144031
alexnet_w1_mlp_simclrhn_probe3,1,212,NaN,knife,chair,c03,0212_cop_dnn_c03_chair_10_n04099969_27865.png,n04099969_27865.png,0.0,0.078576274,0.409196,-0.23378345
alexnet_w1_mlp_simclrhn_probe3,1,213,NaN,knife,oven,c01,0213_cop_dnn_c01_oven_10_n04111531_22120.png,n04111531_22120.png,0.0,0.22501847,0.48836774,-0.18621606
alexnet_w1_mlp_simclrhn_probe3,1,214,NaN,elephant,elephant,c50,0214_cop_dnn_c50_elephant_10_n02504458_5600.png,n02504458_5600.png,1.0,3.0102067,1.5598836,1.0255333
alexnet_w1_mlp_simclrhn_probe3,1,215,NaN,knife,cat,c03,0215_cop_dnn_c03_cat_10_n02123597_11138.png,n02123597_11138.png,0.0,0.02864933,0.34534177,-0.22393538
alexnet_w1_mlp_simclrhn_probe3,1,216,NaN,bear,cat,c30,0216_cop_dnn_c30_cat_10_n02125311_5717.png,n02125311_5717.png,0.0,0.20535405,0.74674565,-0.38282168
alexnet_w1_mlp_simclrhn_probe3,1,217,NaN,oven,chair,c15,0217_cop_dnn_c15_chair_10_n02791124_11404.png,n02791124_11404.png,0.0,0.6670588,0.75411975,-0.061561372
alexnet_w1_mlp_simclrhn_probe3,1,218,NaN,cat,cat,c100,0218_cop_dnn_c100_cat_10_n02123394_2984.png,n02123394_2984.png,1.0,1.588563,1.0385115,0.3889451
alexnet_w1_mlp_simclrhn_probe3,1,219,NaN,knife,dog,c10,0219_cop_dnn_c10_dog_10_n02087394_9693.png,n02087394_9693.png,0.0,0.08667887,0.27749047,-0.13492419
alexnet_w1_mlp_simclrhn_probe3,1,220,NaN,knife,dog,c01,0220_cop_dnn_c01_dog_10_n02098105_2086.png,n02098105_2086.png,0.0,-0.07979057,0.25082734,-0.23378217
alexnet_w1_mlp_simclrhn_probe3,1,221,NaN,dog,cat,c10,0221_cop_dnn_c10_cat_10_n02123159_6932.png,n02123159_6932.png,0.0,0.2797611,0.29245794,-0.008978017
alexnet_w1_mlp_simclrhn_probe3,1,222,NaN,car,car,c15,0222_cop_dnn_c15_car_10_n04285008_8323.png,n04285008_8323.png,1.0,1.2827957,0.9674506,0.22298263
alexnet_w1_mlp_simclrhn_probe3,1,223,NaN,knife,truck,c01,0223_cop_dnn_c01_truck_10_n03796401_2226.png,n03796401_2226.png,0.0,-0.24212536,0.48102647,-0.51134557
alexnet_w1_mlp_simclrhn_probe3,1,224,NaN,knife,bear,c05,0224_cop_dnn_c05_bear_10_n02134084_6223.png,n02134084_6223.png,0.0,0.13482597,0.32313925,-0.1331576
alexnet_w1_mlp_simclrhn_probe3,1,225,NaN,knife,cat,c05,0225_cop_dnn_c05_cat_10_n02125311_22459.png,n02125311_22459.png,0.0,0.18744473,0.2938966,-0.07527283
alexnet_w1_mlp_simclrhn_probe3,1,226,NaN,bicycle,bicycle,c10,0226_cop_dnn_c10_bicycle_10_n02835271_19143.png,n02835271_19143.png,1.0,0.7990784,0.2794074,0.36746287
alexnet_w1_mlp_simclrhn_probe3,1,227,NaN,cat,cat,c10,0227_cop_dnn_c10_cat_10_n02123597_4357.png,n02123597_4357.png,1.0,0.734628,0.2032018,0.37577507
alexnet_w1_mlp_simclrhn_probe3,1,228,NaN,knife,boat,c03,0228_cop_dnn_c03_boat_10_n04273569_6180.png,n04273569_6180.png,0.0,0.15249448,0.30913037,-0.110758305
alexnet_w1_mlp_simclrhn_probe3,1,229,NaN,airplane,airplane,c100,0229_cop_dnn_c100_airplane_10_n02690373_139.png,n02690373_139.png,1.0,5.8741207,2.084291,2.6798143
alexnet_w1_mlp_simclrhn_probe3,1,230,NaN,oven,bottle,c10,0230_cop_dnn_c10_bottle_10_n04557648_4165.png,n04557648_4165.png,0.0,0.07165273,0.13927871,-0.047818787
alexnet_w1_mlp_simclrhn_probe3,1,231,NaN,knife,bottle,c50,0231_cop_dnn_c50_bottle_10_n04560804_5756.png,n04560804_5756.png,0.0,-0.038803756,0.8752813,-0.64635575
alexnet_w1_mlp_simclrhn_probe3,1,232,NaN,truck,truck,c15,0232_cop_dnn_c15_truck_10_n04467665_39477.png,n04467665_39477.png,1.0,2.8243115,1.6528813,0.8283263
alexnet_w1_mlp_simclrhn_probe3,1,233,NaN,knife,cat,c01,0233_cop_dnn_c01_cat_10_n02123159_386.png,n02123159_386.png,0.0,-0.025329964,0.3345559,-0.25447774
alexnet_w1_mlp_simclrhn_probe3,1,234,NaN,cat,bear,c15,0234_cop_dnn_c15_bear_10_n02134084_4859.png,n02134084_4859.png,0.0,0.26735568,0.5065778,-0.16915558
alexnet_w1_mlp_simclrhn_probe3,1,235,NaN,knife,dog,c03,0235_cop_dnn_c03_dog_10_n02099429_1992.png,n02099429_1992.png,0.0,-0.015394701,0.22308953,-0.16863382
alexnet_w1_mlp_simclrhn_probe3,1,236,NaN,knife,oven,c03,0236_cop_dnn_c03_oven_10_n04111531_584.png,n04111531_584.png,0.0,0.09379215,0.27154237,-0.12568839
alexnet_w1_mlp_simclrhn_probe3,1,237,NaN,knife,bottle,c05,0237_cop_dnn_c05_bottle_10_n04591713_4019.png,n04591713_4019.png,0.0,0.4961118,0.5079881,-0.008397802
alexnet_w1_mlp_simclrhn_probe3,1,238,NaN,knife,dog,c03,0238_cop_dnn_c03_dog_10_n02113712_4486.png,n02113712_4486.png,0.0,-0.046973106,0.2667647,-0.22184613
alexnet_w1_mlp_simclrhn_probe3,1,239,NaN,clock,chair,c50,0239_cop_dnn_c50_chair_10_n03376595_13018.png,n03376595_13018.png,0.0,-0.5766274,1.262124,-1.3001935
alexnet_w1_mlp_simclrhn_probe3,1,240,NaN,oven,oven,c50,0240_cop_dnn_c50_oven_10_n04111531_7421.png,n04111531_7421.png,1.0,2.1594386,0.71368545,1.0223018
alexnet_w1_mlp_simclrhn_probe3,1,241,NaN,knife,cat,c01,0241_cop_dnn_c01_cat_10_n02123045_10689.png,n02123045_10689.png,0.0,-0.051300142,0.2895378,-0.24100882
alexnet_w1_mlp_simclrhn_probe3,1,242,NaN,oven,clock,c05,0242_cop_dnn_c05_clock_10_n02708093_4391.png,n02708093_4391.png,0.0,0.4206047,0.4775232,-0.04024746
alexnet_w1_mlp_simclrhn_probe3,1,243,NaN,clock,clock,c50,0243_cop_dnn_c50_clock_10_n02708093_3759.png,n02708093_3759.png,1.0,4.453505,0.6279513,2.705075
alexnet_w1_mlp_simclrhn_probe3,1,244,NaN,elephant,elephant,c05,0244_cop_dnn_c05_elephant_10_n02504013_648.png,n02504013_648.png,1.0,0.37701237,0.30141798,0.05345331
alexnet_w1_mlp_simclrhn_probe3,1,245,NaN,knife,bottle,c01,0245_cop_dnn_c01_bottle_10_n04591713_1879.png,n04591713_1879.png,0.0,0.16233465,0.32199734,-0.11289857
alexnet_w1_mlp_simclrhn_probe3,1,246,NaN,knife,dog,c01,0246_cop_dnn_c01_dog_10_n02110627_20194.png,n02110627_20194.png,0.0,-0.06486031,0.2771694,-0.24185154
alexnet_w1_mlp_simclrhn_probe3,1,247,NaN,truck,truck,c50,0247_cop_dnn_c50_truck_10_n03796401_13298.png,n03796401_13298.png,1.0,3.1721718,1.5648056,1.1365795
alexnet_w1_mlp_simclrhn_probe3,1,248,NaN,keyboard,chair,c100,0248_cop_dnn_c100_chair_10_n03376595_7824.png,n03376595_7824.png,0.0,0.18421876,5.2114835,-3.554813
alexnet_w1_mlp_simclrhn_probe3,1,249,NaN,knife,bear,c05,0249_cop_dnn_c05_bear_10_n02134418_6252.png,n02134418_6252.png,0.0,-0.037357375,0.2972248,-0.2365853
alexnet_w1_mlp_simclrhn_probe3,1,250,NaN,bird,bird,c50,0250_cop_dnn_c50_bird_10_n01855032_1815.png,n01855032_1815.png,1.0,1.329625,1.0164404,0.22145498
alexnet_w1_mlp_simclrhn_probe3,1,251,NaN,car,car,c100,0251_cop_dnn_c100_car_10_n03100240_6773.png,n03100240_6773.png,1.0,7.0887237,2.7020206,3.1018674
alexnet_w1_mlp_simclrhn_probe3,1,252,NaN,knife,keyboard,c03,0252_cop_dnn_c03_keyboard_10_n03085013_22438.png,n03085013_22438.png,0.0,-0.13305059,0.49857524,-0.4466269
alexnet_w1_mlp_simclrhn_probe3,1,253,NaN,knife,keyboard,c01,0253_cop_dnn_c01_keyboard_10_n04505470_4950.png,n04505470_4950.png,0.0,-0.030182503,0.49611554,-0.37214893
alexnet_w1_mlp_simclrhn_probe3,1,254,NaN,knife,truck,c03,0254_cop_dnn_c03_truck_10_n04467665_22358.png,n04467665_22358.png,0.0,-0.1600288,0.43394893,-0.4200057
alexnet_w1_mlp_simclrhn_probe3,1,255,NaN,airplane,truck,c15,0255_cop_dnn_c15_truck_10_n04467665_67969.png,n04467665_67969.png,0.0,-0.0010657916,0.6087794,-0.43122566
alexnet_w1_mlp_simclrhn_probe3,1,256,NaN,knife,elephant,c10,0256_cop_dnn_c10_elephant_10_n02504013_2128.png,n02504013_2128.png,0.0,0.010724762,0.23199232,-0.1564598
alexnet_w1_mlp_simclrhn_probe3,1,257,NaN,car,car,c30,0257_cop_dnn_c30_car_10_n03100240_3499.png,n03100240_3499.png,1.0,4.917862,3.0701127,1.306556
alexnet_w1_mlp_simclrhn_probe3,1,258,NaN,bear,bear,c50,0258_cop_dnn_c50_bear_10_n02134084_7250.png,n02134084_7250.png,1.0,1.5822672,1.2641001,0.2249781
alexnet_w1_mlp_simclrhn_probe3,1,259,NaN,bicycle,bicycle,c15,0259_cop_dnn_c15_bicycle_10_n03792782_43279.png,n03792782_43279.png,1.0,0.1669608,0.11722552,0.03516816
alexnet_w1_mlp_simclrhn_probe3,1,260,NaN,cat,cat,c50,0260_cop_dnn_c50_cat_10_n02123045_1274.png,n02123045_1274.png,1.0,0.9051466,0.41335675,0.34774795
alexnet_w1_mlp_simclrhn_probe3,1,261,NaN,oven,oven,c100,0261_cop_dnn_c100_oven_10_n04111531_6567.png,n04111531_6567.png,1.0,4.548473,1.016529,2.4974616
alexnet_w1_mlp_simclrhn_probe3,1,262,NaN,oven,knife,c100,0262_cop_dnn_c100_knife_10_n03041632_86338.png,n03041632_86338.png,0.0,0.65846294,1.7849987,-0.79658103
alexnet_w1_mlp_simclrhn_probe3,1,263,NaN,knife,chair,c15,0263_cop_dnn_c15_chair_10_n02791124_9757.png,n02791124_9757.png,0.0,0.5697895,0.77921826,-0.14808847
alexnet_w1_mlp_simclrhn_probe3,1,264,NaN,knife,knife,c15,0264_cop_dnn_c15_knife_10_n03041632_45090.png,n03041632_45090.png,1.0,0.8621112,0.18155514,0.48122582
alexnet_w1_mlp_simclrhn_probe3,1,265,NaN,knife,bicycle,c01,0265_cop_dnn_c01_bicycle_10_n02835271_1436.png,n02835271_1436.png,0.0,-0.19739535,0.40252656,-0.42420888
alexnet_w1_mlp_simclrhn_probe3,1,266,NaN,knife,bird,c03,0266_cop_dnn_c03_bird_10_n01798484_8189.png,n01798484_8189.png,0.0,-0.08085611,0.32971188,-0.29031542
alexnet_w1_mlp_simclrhn_probe3,1,267,NaN,knife,bird,c15,0267_cop_dnn_c15_bird_10_n01819313_1282.png,n01819313_1282.png,0.0,-0.04344622,0.41226298,-0.32223508
alexnet_w1_mlp_simclrhn_probe3,1,268,NaN,bottle,bottle,c100,0268_cop_dnn_c100_bottle_10_n03983396_11519.png,n03983396_11519.png,1.0,5.458903,3.1257973,1.6497548
alexnet_w1_mlp_simclrhn_probe3,1,269,NaN,boat,boat,c05,0269_cop_dnn_c05_boat_10_n03344393_7735.png,n03344393_7735.png,1.0,0.35236967,0.20690703,0.10285761
alexnet_w1_mlp_simclrhn_probe3,1,270,NaN,bottle,bottle,c05,0270_cop_dnn_c05_bottle_10_n04560804_21795.png,n04560804_21795.png,1.0,0.838353,0.35693654,0.34041283
alexnet_w1_mlp_simclrhn_probe3,1,271,NaN,chair,chair,c30,0271_cop_dnn_c30_chair_10_n02791124_4109.png,n02791124_4109.png,1.0,1.683971,1.0224382,0.4677744
alexnet_w1_mlp_simclrhn_probe3,1,272,NaN,keyboard,keyboard,c03,0272_cop_dnn_c03_keyboard_10_n04505470_9663.png,n04505470_9663.png,1.0,0.24867693,0.22367695,0.017677654
alexnet_w1_mlp_simclrhn_probe3,1,273,NaN,knife,knife,c15,0273_cop_dnn_c15_knife_10_n03041632_27709.png,n03041632_27709.png,1.0,0.9470688,0.24828121,0.49411744
alexnet_w1_mlp_simclrhn_probe3,1,274,NaN,airplane,airplane,c50,0274_cop_dnn_c50_airplane_10_n02690373_8539.png,n02690373_8539.png,1.0,1.0024672,0.6933568,0.21857402
alexnet_w1_mlp_simclrhn_probe3,1,275,NaN,bear,bear,c15,0275_cop_dnn_c15_bear_10_n02134418_2175.png,n02134418_2175.png,1.0,0.65113175,0.45777604,0.13672313
alexnet_w1_mlp_simclrhn_probe3,1,276,NaN,elephant,elephant,c50,0276_cop_dnn_c50_elephant_10_n02504458_2875.png,n02504458_2875.png,1.0,4.624374,1.3442702,2.3193836
alexnet_w1_mlp_simclrhn_probe3,1,277,NaN,knife,chair,c03,0277_cop_dnn_c03_chair_10_n02791124_5868.png,n02791124_5868.png,0.0,0.04806195,0.35525292,-0.21721683
alexnet_w1_mlp_simclrhn_probe3,1,278,NaN,cat,cat,c10,0278_cop_dnn_c10_cat_10_n02123597_488.png,n02123597_488.png,1.0,0.3722045,0.34916168,0.01629374
alexnet_w1_mlp_simclrhn_probe3,1,279,NaN,bicycle,oven,c30,0279_cop_dnn_c30_oven_10_n04111531_6500.png,n04111531_6500.png,0.0,0.24212578,0.81859016,-0.4076219
alexnet_w1_mlp_simclrhn_probe3,1,280,NaN,bicycle,bicycle,c15,0280_cop_dnn_c15_bicycle_10_n03792782_13002.png,n03792782_13002.png,1.0,0.7803439,0.29809332,0.34100264
alexnet_w1_mlp_simclrhn_probe3,1,281,NaN,clock,clock,c05,0281_cop_dnn_c05_clock_10_n03196217_10641.png,n03196217_10641.png,1.0,0.71383077,0.52104545,0.13631982
alexnet_w1_mlp_simclrhn_probe3,1,282,NaN,bicycle,bicycle,c15,0282_cop_dnn_c15_bicycle_10_n03792782_20193.png,n03792782_20193.png,1.0,2.556761,0.9320559,1.14884
alexnet_w1_mlp_simclrhn_probe3,1,283,NaN,truck,truck,c05,0283_cop_dnn_c05_truck_10_n03417042_13806.png,n03417042_13806.png,1.0,0.2929496,0.26256338,0.021486295
alexnet_w1_mlp_simclrhn_probe3,1,284,NaN,knife,truck,c05,0284_cop_dnn_c05_truck_10_n04467665_70237.png,n04467665_70237.png,0.0,-0.19693501,0.33927366,-0.3791568
alexnet_w1_mlp_simclrhn_probe3,1,285,NaN,knife,truck,c01,0285_cop_dnn_c01_truck_10_n04467665_3720.png,n04467665_3720.png,0.0,-0.2767946,0.40610546,-0.48288327
alexnet_w1_mlp_simclrhn_probe3,1,286,NaN,bear,bear,c10,0286_cop_dnn_c10_bear_10_n02132136_8975.png,n02132136_8975.png,1.0,1.0156829,0.8588848,0.11087302
alexnet_w1_mlp_simclrhn_probe3,1,287,NaN,oven,knife,c05,0287_cop_dnn_c05_knife_10_n03041632_18859.png,n03041632_18859.png,0.0,0.2457856,0.31583983,-0.049535826
alexnet_w1_mlp_simclrhn_probe3,1,288,NaN,bear,bear,c50,0288_cop_dnn_c50_bear_10_n02132136_29760.png,n02132136_29760.png,1.0,2.7148,2.2424083,0.3340313
alexnet_w1_mlp_simclrhn_probe3,1,289,NaN,knife,boat,c05,0289_cop_dnn_c05_boat_10_n04273569_6586.png,n04273569_6586.png,0.0,0.26587436,0.325021,-0.041822992
alexnet_w1_mlp_simclrhn_probe3,1,290,NaN,bottle,bottle,c05,0290_cop_dnn_c05_bottle_10_n03983396_11137.png,n03983396_11137.png,1.0,0.5550395,0.34942102,0.14539424
alexnet_w1_mlp_simclrhn_probe3,1,291,NaN,knife,clock,c10,0291_cop_dnn_c10_clock_10_n03196217_4232.png,n03196217_4232.png,0.0,0.24505794,0.496504,-0.17779922
alexnet_w1_mlp_simclrhn_probe3,1,292,NaN,knife,clock,c01,0292_cop_dnn_c01_clock_10_n04548280_1325.png,n04548280_1325.png,0.0,0.16265018,0.4382705,-0.19489302
alexnet_w1_mlp_simclrhn_probe3,1,293,NaN,airplane,airplane,c100,0293_cop_dnn_c100_airplane_10_n02690373_2268.png,n02690373_2268.png,1.0,6.106568,2.2092626,2.755811
alexnet_w1_mlp_simclrhn_probe3,1,294,NaN,knife,bicycle,c10,0294_cop_dnn_c10_bicycle_10_n03792782_14557.png,n03792782_14557.png,0.0,0.10106198,0.11049372,-0.006669249
alexnet_w1_mlp_simclrhn_probe3,1,295,NaN,knife,cat,c01,0295_cop_dnn_c01_cat_10_n02124075_13792.png,n02124075_13792.png,0.0,-0.028431015,0.31712466,-0.24434477
alexnet_w1_mlp_simclrhn_probe3,1,296,NaN,knife,dog,c01,0296_cop_dnn_c01_dog_10_n02110185_14953.png,n02110185_14953.png,0.0,-0.09174613,0.29896963,-0.27627775
alexnet_w1_mlp_simclrhn_probe3,1,297,NaN,bottle,bottle,c15,0297_cop_dnn_c15_bottle_10_n04557648_1634.png,n04557648_1634.png,1.0,0.5694245,0.3433271,0.159875
alexnet_w1_mlp_simclrhn_probe3,1,298,NaN,bicycle,bicycle,c50,0298_cop_dnn_c50_bicycle_10_n02835271_1701.png,n02835271_1701.png,1.0,2.3448029,1.0070534,0.94593173
alexnet_w1_mlp_simclrhn_probe3,1,299,NaN,boat,boat,c05,0299_cop_dnn_c05_boat_10_n04273569_7312.png,n04273569_7312.png,1.0,0.43082243,0.32791483,0.07276666
alexnet_w1_mlp_simclrhn_probe3,1,300,NaN,bird,bird,c100,0300_cop_dnn_c100_bird_10_n01616318_5417.png,n01616318_5417.png,1.0,1.7195013,1.2013137,0.36641392
alexnet_w1_mlp_simclrhn_probe3,1,301,NaN,cat,cat,c15,0301_cop_dnn_c15_cat_10_n02123045_12200.png,n02123045_12200.png,1.0,2.52866,0.12632178,1.6987097
alexnet_w1_mlp_simclrhn_probe3,1,302,NaN,dog,dog,c30,0302_cop_dnn_c30_dog_10_n02102480_8264.png,n02102480_8264.png,1.0,0.19637385,0.16219604,0.02416736
alexnet_w1_mlp_simclrhn_probe3,1,303,NaN,bicycle,bicycle,c30,0303_cop_dnn_c30_bicycle_10_n03792782_5426.png,n03792782_5426.png,1.0,1.067432,0.36659876,0.495564
alexnet_w1_mlp_simclrhn_probe3,1,304,NaN,bottle,clock,c05,0304_cop_dnn_c05_clock_10_n02708093_8038.png,n02708093_8038.png,0.0,0.11765667,0.6597906,-0.3833466
alexnet_w1_mlp_simclrhn_probe3,1,305,NaN,bicycle,bicycle,c30,0305_cop_dnn_c30_bicycle_10_n02835271_2764.png,n02835271_2764.png,1.0,2.9833643,1.2551917,1.2220026
alexnet_w1_mlp_simclrhn_probe3,1,306,NaN,knife,knife,c50,0306_cop_dnn_c50_knife_10_n03041632_39836.png,n03041632_39836.png,1.0,1.7278392,0.8755462,0.6026622
alexnet_w1_mlp_simclrhn_probe3,1,307,NaN,knife,bicycle,c01,0307_cop_dnn_c01_bicycle_10_n03792782_19040.png,n03792782_19040.png,0.0,-0.20703007,0.3802544,-0.41527283
alexnet_w1_mlp_simclrhn_probe3,1,308,NaN,knife,cat,c01,0308_cop_dnn_c01_cat_10_n02125311_28331.png,n02125311_28331.png,0.0,-0.029849246,0.3385912,-0.26052675
alexnet_w1_mlp_simclrhn_probe3,1,309,NaN,knife,knife,c01,0309_cop_dnn_c01_knife_10_n03041632_18126.png,n03041632_18126.png,1.0,0.42460543,0.2958804,0.091022335
alexnet_w1_mlp_simclrhn_probe3,1,310,NaN,bicycle,bicycle,c30,0310_cop_dnn_c30_bicycle_10_n03792782_19253.png,n03792782_19253.png,1.0,1.9386566,0.47337693,1.0361091
alexnet_w1_mlp_simclrhn_probe3,1,311,NaN,knife,bottle,c01,0311_cop_dnn_c01_bottle_10_n03983396_751.png,n03983396_751.png,0.0,0.23583531,0.42426765,-0.13324179
alexnet_w1_mlp_simclrhn_probe3,1,312,NaN,car,car,c15,0312_cop_dnn_c15_car_10_n04285008_628.png,n04285008_628.png,1.0,1.738226,0.8065418,0.65880024
alexnet_w1_mlp_simclrhn_probe3,1,313,NaN,chair,boat,c15,0313_cop_dnn_c15_boat_10_n03662601_3011.png,n03662601_3011.png,0.0,0.0033532144,0.4773221,-0.33514664
alexnet_w1_mlp_simclrhn_probe3,1,314,NaN,bottle,bottle,c10,0314_cop_dnn_c10_bottle_10_n04557648_2904.png,n04557648_2904.png,1.0,0.46958548,0.277191,0.13604343
alexnet_w1_mlp_simclrhn_probe3,1,315,NaN,knife,bird,c10,0315_cop_dnn_c10_bird_10_n02002556_9804.png,n02002556_9804.png,0.0,0.2670486,0.30128264,-0.024207126
alexnet_w1_mlp_simclrhn_probe3,1,316,NaN,knife,truck,c05,0316_cop_dnn_c05_truck_10_n04467665_8955.png,n04467665_8955.png,0.0,-0.15287532,0.37310514,-0.37192437
alexnet_w1_mlp_simclrhn_probe3,1,317,NaN,knife,boat,c03,0317_cop_dnn_c03_boat_10_n04612504_15061.png,n04612504_15061.png,0.0,0.07248396,0.40984702,-0.23855172
alexnet_w1_mlp_simclrhn_probe3,1,318,NaN,knife,bird,c05,0318_cop_dnn_c05_bird_10_n02002556_1437.png,n02002556_1437.png,0.0,-0.072374634,0.29164857,-0.25740328
alexnet_w1_mlp_simclrhn_probe3,1,319,NaN,bicycle,truck,c50,0319_cop_dnn_c50_truck_10_n03417042_10993.png,n03417042_10993.png,0.0,0.059146382,1.6099873,-1.0966101
alexnet_w1_mlp_simclrhn_probe3,1,320,NaN,chair,chair,c10,0320_cop_dnn_c10_chair_10_n02791124_880.png,n02791124_880.png,1.0,0.37786967,0.33049262,0.033500634
alexnet_w1_mlp_simclrhn_probe3,1,321,NaN,bicycle,bicycle,c50,0321_cop_dnn_c50_bicycle_10_n03792782_4826.png,n03792782_4826.png,1.0,3.8971324,1.6914968,1.5596199
alexnet_w1_mlp_simclrhn_probe3,1,322,NaN,knife,chair,c03,0322_cop_dnn_c03_chair_10_n04099969_3804.png,n04099969_3804.png,0.0,0.12523288,0.3439309,-0.15464287
alexnet_w1_mlp_simclrhn_probe3,1,323,NaN,bottle,bottle,c10,0323_cop_dnn_c10_bottle_10_n02823428_2504.png,n02823428_2504.png,1.0,1.9207296,0.3413041,1.1168226
alexnet_w1_mlp_simclrhn_probe3,1,324,NaN,cat,cat,c10,0324_cop_dnn_c10_cat_10_n02124075_9716.png,n02124075_9716.png,1.0,0.5120716,0.19641918,0.22319998
alexnet_w1_mlp_simclrhn_probe3,1,325,NaN,knife,knife,c01,0325_cop_dnn_c01_knife_10_n03041632_81630.png,n03041632_81630.png,1.0,0.3067602,0.20736428,0.070283525
alexnet_w1_mlp_simclrhn_probe3,1,326,NaN,bottle,bottle,c30,0326_cop_dnn_c30_bottle_10_n04591713_457.png,n04591713_457.png,1.0,1.678033,0.65868664,0.72078675
alexnet_w1_mlp_simclrhn_probe3,1,327,NaN,knife,elephant,c30,0327_cop_dnn_c30_elephant_10_n02504458_5337.png,n02504458_5337.png,0.0,0.23822084,0.31038794,-0.051029846
alexnet_w1_mlp_simclrhn_probe3,1,328,NaN,clock,clock,c15,0328_cop_dnn_c15_clock_10_n02708093_5429.png,n02708093_5429.png,1.0,0.8979375,0.26057288,0.45068485
alexnet_w1_mlp_simclrhn_probe3,1,329,NaN,oven,oven,c100,0329_cop_dnn_c100_oven_10_n04111531_9411.png,n04111531_9411.png,1.0,1.5942894,1.1392995,0.32172647
alexnet_w1_mlp_simclrhn_probe3,1,330,NaN,knife,knife,c01,0330_cop_dnn_c01_knife_10_n03041632_2338.png,n03041632_2338.png,1.0,0.4678368,0.22160001,0.1741157
alexnet_w1_mlp_simclrhn_probe3,1,331,NaN,bicycle,cat,c100,0331_cop_dnn_c100_cat_10_n02123394_2755.png,n02123394_2755.png,0.0,0.7548492,1.3115063,-0.393616
alexnet_w1_mlp_simclrhn_probe3,1,332,NaN,knife,elephant,c05,0332_cop_dnn_c05_elephant_10_n02504458_10243.png,n02504458_10243.png,0.0,0.12278837,0.23564744,-0.079803415
alexnet_w1_mlp_simclrhn_probe3,1,333,NaN,oven,oven,c15,0333_cop_dnn_c15_oven_10_n04111531_1752.png,n04111531_1752.png,1.0,0.7803934,0.4263919,0.2503169
alexnet_w1_mlp_simclrhn_probe3,1,334,NaN,knife,bird,c05,0334_cop_dnn_c05_bird_10_n02037110_6736.png,n02037110_6736.png,0.0,0.18819106,0.27455786,-0.061070554
alexnet_w1_mlp_simclrhn_probe3,1,335,NaN,airplane,airplane,c10,0335_cop_dnn_c10_airplane_10_n02690373_8804.png,n02690373_8804.png,1.0,0.84098727,0.4382057,0.2848096
alexnet_w1_mlp_simclrhn_probe3,1,336,NaN,elephant,elephant,c100,0336_cop_dnn_c100_elephant_10_n02504458_12217.png,n02504458_12217.png,1.0,3.1939383,3.067502,0.08940392
alexnet_w1_mlp_simclrhn_probe3,1,337,NaN,knife,knife,c15,0337_cop_dnn_c15_knife_10_n03041632_84012.png,n03041632_84012.png,1.0,0.44217184,0.059475034,0.2706075
alexnet_w1_mlp_simclrhn_probe3,1,338,NaN,cat,dog,c50,0338_cop_dnn_c50_dog_10_n02093991_6192.png,n02093991_6192.png,0.0,0.17190655,1.7733307,-1.1323779
alexnet_w1_mlp_simclrhn_probe3,1,339,NaN,bird,bird,c50,0339_cop_dnn_c50_bird_10_n02027492_6499.png,n02027492_6499.png,1.0,1.9898987,0.23702343,1.23947
alexnet_w1_mlp_simclrhn_probe3,1,340,NaN,bottle,knife,c10,0340_cop_dnn_c10_knife_10_n03041632_46185.png,n03041632_46185.png,0.0,0.43476078,0.5814484,-0.103723794
alexnet_w1_mlp_simclrhn_probe3,1,341,NaN,boat,bear,c30,0341_cop_dnn_c30_bear_10_n02134084_14775.png,n02134084_14775.png,0.0,0.48105967,0.91706973,-0.30830568
alexnet_w1_mlp_simclrhn_probe3,1,342,NaN,truck,truck,c30,0342_cop_dnn_c30_truck_10_n03417042_5346.png,n03417042_5346.png,1.0,3.3298311,0.7161076,1.8481816
alexnet_w1_mlp_simclrhn_probe3,1,343,NaN,cat,dog,c30,0343_cop_dnn_c30_dog_10_n02093991_9672.png,n02093991_9672.png,0.0,0.12325166,0.6338976,-0.3610812
alexnet_w1_mlp_simclrhn_probe3,1,344,NaN,elephant,elephant,c100,0344_cop_dnn_c100_elephant_10_n02504458_2031.png,n02504458_2031.png,1.0,14.529242,4.987684,6.7469
alexnet_w1_mlp_simclrhn_probe3,1,345,NaN,knife,bird,c03,0345_cop_dnn_c03_bird_10_n02025239_660.png,n02025239_660.png,0.0,-0.075259976,0.24949993,-0.22963993
alexnet_w1_mlp_simclrhn_probe3,1,346,NaN,knife,elephant,c01,0346_cop_dnn_c01_elephant_10_n02504458_4244.png,n02504458_4244.png,0.0,-0.12319468,0.31953767,-0.31305903
alexnet_w1_mlp_simclrhn_probe3,1,347,NaN,bear,elephant,c30,0347_cop_dnn_c30_elephant_10_n02504013_7539.png,n02504013_7539.png,0.0,0.55351436,0.7418654,-0.1331843
alexnet_w1_mlp_simclrhn_probe3,1,348,NaN,knife,bird,c03,0348_cop_dnn_c03_bird_10_n02002724_5876.png,n02002724_5876.png,0.0,-0.07715376,0.19033486,-0.189143
alexnet_w1_mlp_simclrhn_probe3,1,349,NaN,knife,bird,c10,0349_cop_dnn_c10_bird_10_n01532829_560.png,n01532829_560.png,0.0,-0.062918454,0.2224127,-0.2017596
alexnet_w1_mlp_simclrhn_probe3,1,350,NaN,boat,boat,c30,0350_cop_dnn_c30_boat_10_n04273569_1709.png,n04273569_1709.png,1.0,2.0579133,0.5908669,1.0373584
alexnet_w1_mlp_simclrhn_probe3,1,351,NaN,bicycle,bicycle,c50,0351_cop_dnn_c50_bicycle_10_n02835271_7958.png,n02835271_7958.png,1.0,1.340305,0.52258456,0.57821566
alexnet_w1_mlp_simclrhn_probe3,1,352,NaN,oven,bear,c30,0352_cop_dnn_c30_bear_10_n02133161_12157.png,n02133161_12157.png,0.0,0.54533327,0.93851906,-0.27802435
alexnet_w1_mlp_simclrhn_probe3,1,353,NaN,knife,chair,c01,0353_cop_dnn_c01_chair_10_n04099969_4577.png,n04099969_4577.png,0.0,0.10537566,0.39969972,-0.20811853
alexnet_w1_mlp_simclrhn_probe3,1,354,NaN,knife,bicycle,c01,0354_cop_dnn_c01_bicycle_10_n02835271_10283.png,n02835271_10283.png,0.0,-0.1960648,0.26995215,-0.32952374
alexnet_w1_mlp_simclrhn_probe3,1,355,NaN,boat,truck,c100,0355_cop_dnn_c100_truck_10_n03417042_23815.png,n03417042_23815.png,0.0,0.6756867,2.6165943,-1.3724289
alexnet_w1_mlp_simclrhn_probe3,1,356,NaN,knife,bear,c03,0356_cop_dnn_c03_bear_10_n02133161_1059.png,n02133161_1059.png,0.0,0.10811316,0.24700384,-0.09821054
alexnet_w1_mlp_simclrhn_probe3,1,357,NaN,knife,chair,c01,0357_cop_dnn_c01_chair_10_n02791124_5173.png,n02791124_5173.png,0.0,0.18258761,0.45064908,-0.18954808
alexnet_w1_mlp_simclrhn_probe3,1,358,NaN,bottle,bottle,c30,0358_cop_dnn_c30_bottle_10_n03983396_5545.png,n03983396_5545.png,1.0,2.011619,0.55777353,1.0280241
alexnet_w1_mlp_simclrhn_probe3,1,359,NaN,knife,airplane,c01,0359_cop_dnn_c01_airplane_10_n02690373_1797.png,n02690373_1797.png,0.0,0.14786018,0.40424094,-0.18128856
alexnet_w1_mlp_simclrhn_probe3,1,360,NaN,knife,oven,c05,0360_cop_dnn_c05_oven_10_n04111531_6628.png,n04111531_6628.png,0.0,0.141749,0.29947385,-0.111528315
alexnet_w1_mlp_simclrhn_probe3,1,361,NaN,cat,elephant,c10,0361_cop_dnn_c10_elephant_10_n02504458_7817.png,n02504458_7817.png,0.0,0.011177765,0.16547838,-0.10910701
alexnet_w1_mlp_simclrhn_probe3,1,362,NaN,knife,knife,c50,0362_cop_dnn_c50_knife_10_n03041632_4714.png,n03041632_4714.png,1.0,0.5503521,0.34783545,0.14320089
alexnet_w1_mlp_simclrhn_probe3,1,363,NaN,knife,bear,c03,0363_cop_dnn_c03_bear_10_n02134084_169.png,n02134084_169.png,0.0,-0.020191908,0.54101455,-0.3968329
alexnet_w1_mlp_simclrhn_probe3,1,364,NaN,bird,bird,c15,0364_cop_dnn_c15_bird_10_n02013706_8336.png,n02013706_8336.png,1.0,0.84285617,0.1910441,0.46090075
alexnet_w1_mlp_simclrhn_probe3,1,365,NaN,bottle,bottle,c15,0365_cop_dnn_c15_bottle_10_n04579145_6880.png,n04579145_6880.png,1.0,1.742395,0.59901565,0.80849135
alexnet_w1_mlp_simclrhn_probe3,1,366,NaN,knife,dog,c05,0366_cop_dnn_c05_dog_10_n02105641_416.png,n02105641_416.png,0.0,0.08004551,0.20136099,-0.085783
alexnet_w1_mlp_simclrhn_probe3,1,367,NaN,oven,airplane,c10,0367_cop_dnn_c10_airplane_10_n02690373_6549.png,n02690373_6549.png,0.0,0.016339935,0.24197212,-0.15954605
alexnet_w1_mlp_simclrhn_probe3,1,368,NaN,clock,clock,c01,0368_cop_dnn_c01_clock_10_n04548280_2374.png,n04548280_2374.png,1.0,0.42952934,0.3886217,0.028926078
alexnet_w1_mlp_simclrhn_probe3,1,369,NaN,keyboard,bottle,c30,0369_cop_dnn_c30_bottle_10_n03983396_6287.png,n03983396_6287.png,0.0,1.0411507,2.2218893,-0.83490825
alexnet_w1_mlp_simclrhn_probe3,1,370,NaN,knife,dog,c01,0370_cop_dnn_c01_dog_10_n02090622_1126.png,n02090622_1126.png,0.0,-0.07272062,0.33221138,-0.28633016
alexnet_w1_mlp_simclrhn_probe3,1,371,NaN,truck,truck,c50,0371_cop_dnn_c50_truck_10_n03796401_1681.png,n03796401_1681.png,1.0,4.881145,4.5514884,0.23310243
alexnet_w1_mlp_simclrhn_probe3,1,372,NaN,elephant,elephant,c30,0372_cop_dnn_c30_elephant_10_n02504013_5537.png,n02504013_5537.png,1.0,4.8168163,1.550663,2.3095193
alexnet_w1_mlp_simclrhn_probe3,1,373,NaN,knife,keyboard,c05,0373_cop_dnn_c05_keyboard_10_n03085013_12399.png,n03085013_12399.png,0.0,0.5465163,0.5535648,-0.0049840333
alexnet_w1_mlp_simclrhn_probe3,1,374,NaN,bottle,oven,c15,0374_cop_dnn_c15_oven_10_n04111531_6094.png,n04111531_6094.png,0.0,0.7657825,1.6066521,-0.59458464
alexnet_w1_mlp_simclrhn_probe3,1,375,NaN,knife,airplane,c03,0375_cop_dnn_c03_airplane_10_n02690373_13604.png,n02690373_13604.png,0.0,0.11809609,0.52760154,-0.2895641
alexnet_w1_mlp_simclrhn_probe3,1,376,NaN,elephant,bear,c100,0376_cop_dnn_c100_bear_10_n02134084_16084.png,n02134084_16084.png,0.0,2.2671857,2.4387884,-0.12134145
alexnet_w1_mlp_simclrhn_probe3,1,377,NaN,knife,boat,c01,0377_cop_dnn_c01_boat_10_n04273569_15906.png,n04273569_15906.png,0.0,-0.039890595,0.40983406,-0.31800336
alexnet_w1_mlp_simclrhn_probe3,1,378,NaN,knife,dog,c05,0378_cop_dnn_c05_dog_10_n02105162_8899.png,n02105162_8899.png,0.0,0.028872188,0.34270394,-0.22191256
alexnet_w1_mlp_simclrhn_probe3,1,379,NaN,oven,oven,c03,0379_cop_dnn_c03_oven_10_n04111531_7619.png,n04111531_7619.png,1.0,0.388013,0.18975352,0.14019063
alexnet_w1_mlp_simclrhn_probe3,1,380,NaN,elephant,elephant,c05,0380_cop_dnn_c05_elephant_10_n02504458_1816.png,n02504458_1816.png,1.0,0.39145085,0.16308655,0.16147795
alexnet_w1_mlp_simclrhn_probe3,1,381,NaN,oven,cat,c30,0381_cop_dnn_c30_cat_10_n02123045_3575.png,n02123045_3575.png,0.0,0.5957584,0.68548876,-0.063448966
alexnet_w1_mlp_simclrhn_probe3,1,382,NaN,knife,truck,c01,0382_cop_dnn_c01_truck_10_n03417042_908.png,n03417042_908.png,0.0,-0.24858277,0.32710478,-0.40707257
alexnet_w1_mlp_simclrhn_probe3,1,383,NaN,knife,boat,c03,0383_cop_dnn_c03_boat_10_n03344393_4213.png,n03344393_4213.png,0.0,0.2934975,0.3458316,-0.037005797
alexnet_w1_mlp_simclrhn_probe3,1,384,NaN,knife,knife,c01,0384_cop_dnn_c01_knife_10_n03041632_31483.png,n03041632_31483.png,1.0,0.4394123,0.1615784,0.19645822
alexnet_w1_mlp_simclrhn_probe3,1,385,NaN,knife,bottle,c01,0385_cop_dnn_c01_bottle_10_n03937543_986.png,n03937543_986.png,0.0,0.11563344,0.35140404,-0.166715
alexnet_w1_mlp_simclrhn_probe3,1,386,NaN,truck,truck,c15,0386_cop_dnn_c15_truck_10_n03796401_7381.png,n03796401_7381.png,1.0,2.5704877,0.76889485,1.2739185
alexnet_w1_mlp_simclrhn_probe3,1,387,NaN,knife,dog,c03,0387_cop_dnn_c03_dog_10_n02094433_9787.png,n02094433_9787.png,0.0,-0.025004875,0.19122303,-0.15289623
alexnet_w1_mlp_simclrhn_probe3,1,388,NaN,bird,bird,c30,0388_cop_dnn_c30_bird_10_n02011460_11838.png,n02011460_11838.png,1.0,0.21616887,0.051791146,0.116232604
alexnet_w1_mlp_simclrhn_probe3,1,389,NaN,cat,cat,c30,0389_cop_dnn_c30_cat_10_n02123597_29513.png,n02123597_29513.png,1.0,1.3839836,1.085242,0.2112422
alexnet_w1_mlp_simclrhn_probe3,1,390,NaN,knife,chair,c10,0390_cop_dnn_c10_chair_10_n04429376_5337.png,n04429376_5337.png,0.0,0.05065085,0.4152331,-0.25779858
alexnet_w1_mlp_simclrhn_probe3,1,391,NaN,knife,knife,c03,0391_cop_dnn_c03_knife_10_n03041632_4260.png,n03041632_4260.png,1.0,0.4126031,0.29424834,0.08368946
alexnet_w1_mlp_simclrhn_probe3,1,392,NaN,knife,keyboard,c10,0392_cop_dnn_c10_keyboard_10_n04505470_4061.png,n04505470_4061.png,0.0,0.42663777,0.5051392,-0.055508874
alexnet_w1_mlp_simclrhn_probe3,1,393,NaN,boat,boat,c15,0393_cop_dnn_c15_boat_10_n03344393_6467.png,n03344393_6467.png,1.0,1.5188094,0.63971484,0.62161374
alexnet_w1_mlp_simclrhn_probe3,1,394,NaN,bicycle,bicycle,c100,0394_cop_dnn_c100_bicycle_10_n03792782_11297.png,n03792782_11297.png,1.0,4.288065,0.37470627,2.7671626
alexnet_w1_mlp_simclrhn_probe3,1,395,NaN,knife,bicycle,c03,0395_cop_dnn_c03_bicycle_10_n03792782_8357.png,n03792782_8357.png,0.0,-0.1796604,0.2350997,-0.2932797
alexnet_w1_mlp_simclrhn_probe3,1,396,NaN,oven,dog,c10,0396_cop_dnn_c10_dog_10_n02108422_2739.png,n02108422_2739.png,0.0,0.05517989,0.17290045,-0.08324101
alexnet_w1_mlp_simclrhn_probe3,1,397,NaN,knife,bear,c03,0397_cop_dnn_c03_bear_10_n02134084_6840.png,n02134084_6840.png,0.0,-0.057634365,0.3522784,-0.2898521
alexnet_w1_mlp_simclrhn_probe3,1,398,NaN,bear,bear,c30,0398_cop_dnn_c30_bear_10_n02133161_5365.png,n02133161_5365.png,1.0,1.0126216,0.8813434,0.09282772
alexnet_w1_mlp_simclrhn_probe3,1,399,NaN,keyboard,bottle,c30,0399_cop_dnn_c30_bottle_10_n04560804_1010.png,n04560804_1010.png,0.0,0.528955,0.71864665,-0.13413227
alexnet_w1_mlp_simclrhn_probe3,1,400,NaN,clock,clock,c10,0400_cop_dnn_c10_clock_10_n04548280_183.png,n04548280_183.png,1.0,0.4525667,0.33514547,0.08302936
alexnet_w1_mlp_simclrhn_probe3,1,401,NaN,keyboard,keyboard,c100,0401_cop_dnn_c100_keyboard_10_n03085013_21534.png,n03085013_21534.png,1.0,6.486969,1.7375264,3.3583632
alexnet_w1_mlp_simclrhn_probe3,1,402,NaN,chair,keyboard,c50,0402_cop_dnn_c50_keyboard_10_n03085013_24111.png,n03085013_24111.png,0.0,1.9011626,2.4290798,-0.3732938
alexnet_w1_mlp_simclrhn_probe3,1,403,NaN,knife,knife,c15,0403_cop_dnn_c15_knife_10_n03041632_28009.png,n03041632_28009.png,1.0,0.50792086,0.24956699,0.1826838
alexnet_w1_mlp_simclrhn_probe3,1,404,NaN,cat,cat,c50,0404_cop_dnn_c50_cat_10_n02123159_7647.png,n02123159_7647.png,1.0,0.96280843,0.786945,0.124354236
alexnet_w1_mlp_simclrhn_probe3,1,405,NaN,knife,bottle,c01,0405_cop_dnn_c01_bottle_10_n02823428_8696.png,n02823428_8696.png,0.0,0.20987569,0.54670787,-0.23817632
alexnet_w1_mlp_simclrhn_probe3,1,406,NaN,elephant,elephant,c15,0406_cop_dnn_c15_elephant_10_n02504458_8923.png,n02504458_8923.png,1.0,0.60610217,0.21696654,0.27516043
alexnet_w1_mlp_simclrhn_probe3,1,407,NaN,knife,bear,c01,0407_cop_dnn_c01_bear_10_n02134084_5031.png,n02134084_5031.png,0.0,-0.053104848,0.32377866,-0.2664969
alexnet_w1_mlp_simclrhn_probe3,1,408,NaN,elephant,dog,c50,0408_cop_dnn_c50_dog_10_n02097209_1658.png,n02097209_1658.png,0.0,0.7681591,2.2244725,-1.0297691
alexnet_w1_mlp_simclrhn_probe3,1,409,NaN,knife,dog,c05,0409_cop_dnn_c05_dog_10_n02099849_6384.png,n02099849_6384.png,0.0,0.0010259048,0.26853296,-0.18915606
alexnet_w1_mlp_simclrhn_probe3,1,410,NaN,elephant,elephant,c15,0410_cop_dnn_c15_elephant_10_n02504013_3459.png,n02504013_3459.png,1.0,0.71690524,0.30674452,0.29002744
alexnet_w1_mlp_simclrhn_probe3,1,411,NaN,knife,knife,c03,0411_cop_dnn_c03_knife_10_n03041632_36390.png,n03041632_36390.png,1.0,0.26296392,0.23977877,0.016394377
alexnet_w1_mlp_simclrhn_probe3,1,412,NaN,knife,knife,c100,0412_cop_dnn_c100_knife_10_n03041632_10263.png,n03041632_10263.png,1.0,2.7725592,0.88726354,1.3331053
alexnet_w1_mlp_simclrhn_probe3,1,413,NaN,knife,cat,c03,0413_cop_dnn_c03_cat_10_n02123045_840.png,n02123045_840.png,0.0,0.20306854,0.23579155,-0.023138663
alexnet_w1_mlp_simclrhn_probe3,1,414,NaN,clock,clock,c05,0414_cop_dnn_c05_clock_10_n04548280_4758.png,n04548280_4758.png,1.0,0.65693116,0.5335105,0.087271586
alexnet_w1_mlp_simclrhn_probe3,1,415,NaN,bear,bear,c50,0415_cop_dnn_c50_bear_10_n02133161_1247.png,n02133161_1247.png,1.0,3.5205874,2.0568051,1.0350504
alexnet_w1_mlp_simclrhn_probe3,1,416,NaN,boat,airplane,c10,0416_cop_dnn_c10_airplane_10_n02690373_6716.png,n02690373_6716.png,0.0,0.49914634,0.539437,-0.028489795
alexnet_w1_mlp_simclrhn_probe3,1,417,NaN,keyboard,keyboard,c30,0417_cop_dnn_c30_keyboard_10_n04505470_4893.png,n04505470_4893.png,1.0,2.2091668,0.583159,1.1497612
alexnet_w1_mlp_simclrhn_probe3,1,418,NaN,chair,chair,c30,0418_cop_dnn_c30_chair_10_n04099969_34525.png,n04099969_34525.png,1.0,1.075152,0.51647615,0.39504352
alexnet_w1_mlp_simclrhn_probe3,1,419,NaN,knife,airplane,c01,0419_cop_dnn_c01_airplane_10_n02690373_4793.png,n02690373_4793.png,0.0,0.08371841,0.4172776,-0.23586197
alexnet_w1_mlp_simclrhn_probe3,1,420,NaN,knife,knife,c15,0420_cop_dnn_c15_knife_10_n03041632_4787.png,n03041632_4787.png,1.0,0.4509634,0.2975576,0.10847429
alexnet_w1_mlp_simclrhn_probe3,1,421,NaN,boat,boat,c05,0421_cop_dnn_c05_boat_10_n04273569_20587.png,n04273569_20587.png,1.0,0.42848998,0.35344556,0.05306442
alexnet_w1_mlp_simclrhn_probe3,1,422,NaN,knife,bicycle,c03,0422_cop_dnn_c03_bicycle_10_n03792782_4844.png,n03792782_4844.png,0.0,-0.16904104,0.20248504,-0.2627086
alexnet_w1_mlp_simclrhn_probe3,1,423,NaN,knife,cat,c01,0423_cop_dnn_c01_cat_10_n02123045_6066.png,n02123045_6066.png,0.0,-0.039326187,0.33569652,-0.2651811
alexnet_w1_mlp_simclrhn_probe3,1,424,NaN,boat,boat,c30,0424_cop_dnn_c30_boat_10_n04273569_17045.png,n04273569_17045.png,1.0,2.4213398,0.9225699,1.0597904
alexnet_w1_mlp_simclrhn_probe3,1,425,NaN,keyboard,keyboard,c100,0425_cop_dnn_c100_keyboard_10_n04505470_5068.png,n04505470_5068.png,1.0,9.302792,2.5068116,4.805484
alexnet_w1_mlp_simclrhn_probe3,1,426,NaN,airplane,airplane,c10,0426_cop_dnn_c10_airplane_10_n02690373_2724.png,n02690373_2724.png,1.0,1.3649374,0.35728836,0.7125155
alexnet_w1_mlp_simclrhn_probe3,1,427,NaN,boat,boat,c10,0427_cop_dnn_c10_boat_10_n03662601_4844.png,n03662601_4844.png,1.0,1.5273551,0.16108143,0.96610135
alexnet_w1_mlp_simclrhn_probe3,1,428,NaN,chair,chair,c100,0428_cop_dnn_c100_chair_10_n04099969_3929.png,n04099969_3929.png,1.0,4.918912,3.1663656,1.2392374
alexnet_w1_mlp_simclrhn_probe3,1,429,NaN,oven,oven,c10,0429_cop_dnn_c10_oven_10_n04111531_9026.png,n04111531_9026.png,1.0,0.8429456,0.5898702,0.17895131
alexnet_w1_mlp_simclrhn_probe3,1,430,NaN,knife,knife,c15,0430_cop_dnn_c15_knife_10_n03041632_51225.png,n03041632_51225.png,1.0,0.7691679,0.261006,0.35932472
alexnet_w1_mlp_simclrhn_probe3,1,431,NaN,knife,boat,c10,0431_cop_dnn_c10_boat_10_n03344393_6638.png,n03344393_6638.png,0.0,-0.15159146,0.3194092,-0.33304778
alexnet_w1_mlp_simclrhn_probe3,1,432,NaN,knife,knife,c30,0432_cop_dnn_c30_knife_10_n03041632_4590.png,n03041632_4590.png,1.0,1.0029573,0.43664095,0.40044615
alexnet_w1_mlp_simclrhn_probe3,1,433,NaN,clock,clock,c03,0433_cop_dnn_c03_clock_10_n02708093_3761.png,n02708093_3761.png,1.0,0.2570491,0.22503589,0.022636767
alexnet_w1_mlp_simclrhn_probe3,1,434,NaN,knife,car,c03,0434_cop_dnn_c03_car_10_n04285008_3193.png,n04285008_3193.png,0.0,-0.35104558,0.3479368,-0.4942552
alexnet_w1_mlp_simclrhn_probe3,1,435,NaN,knife,keyboard,c50,0435_cop_dnn_c50_keyboard_10_n03085013_661.png,n03085013_661.png,0.0,-0.0357704,0.8072599,-0.5961125
alexnet_w1_mlp_simclrhn_probe3,1,436,NaN,knife,bottle,c03,0436_cop_dnn_c03_bottle_10_n04557648_2355.png,n04557648_2355.png,0.0,0.12731536,0.24786325,-0.08524023
alexnet_w1_mlp_simclrhn_probe3,1,437,NaN,chair,dog,c30,0437_cop_dnn_c30_dog_10_n02107312_860.png,n02107312_860.png,0.0,-0.18992822,0.5778921,-0.542931
alexnet_w1_mlp_simclrhn_probe3,1,438,NaN,boat,boat,c100,0438_cop_dnn_c100_boat_10_n02951358_1541.png,n02951358_1541.png,1.0,3.2663963,1.0122521,1.5939207
alexnet_w1_mlp_simclrhn_probe3,1,439,NaN,boat,boat,c15,0439_cop_dnn_c15_boat_10_n02951358_4972.png,n02951358_4972.png,1.0,0.98479575,0.44313818,0.38300973
alexnet_w1_mlp_simclrhn_probe3,1,440,NaN,bear,bear,c15,0440_cop_dnn_c15_bear_10_n02132136_6352.png,n02132136_6352.png,1.0,0.49239868,0.28839946,0.14424923
alexnet_w1_mlp_simclrhn_probe3,1,441,NaN,knife,knife,c05,0441_cop_dnn_c05_knife_10_n03041632_27022.png,n03041632_27022.png,1.0,0.46545452,0.13561533,0.23323151
alexnet_w1_mlp_simclrhn_probe3,1,442,NaN,airplane,airplane,c15,0442_cop_dnn_c15_airplane_10_n02690373_10399.png,n02690373_10399.png,1.0,1.095192,0.33119234,0.5402293
alexnet_w1_mlp_simclrhn_probe3,1,443,NaN,keyboard,keyboard,c30,0443_cop_dnn_c30_keyboard_10_n04505470_4803.png,n04505470_4803.png,1.0,1.1400671,0.48766464,0.46131822
alexnet_w1_mlp_simclrhn_probe3,1,444,NaN,bottle,bottle,c03,0444_cop_dnn_c03_bottle_10_n03937543_4916.png,n03937543_4916.png,1.0,1.0820972,0.29052377,0.55972695
alexnet_w1_mlp_simclrhn_probe3,1,445,NaN,elephant,dog,c10,0445_cop_dnn_c10_dog_10_n02092339_2268.png,n02092339_2268.png,0.0,0.13270086,0.22905818,-0.06813491
alexnet_w1_mlp_simclrhn_probe3,1,446,NaN,cat,cat,c100,0446_cop_dnn_c100_cat_10_n02123394_2034.png,n02123394_2034.png,1.0,3.934924,1.8760138,1.4558693
alexnet_w1_mlp_simclrhn_probe3,1,447,NaN,knife,keyboard,c01,0447_cop_dnn_c01_keyboard_10_n03085013_24442.png,n03085013_24442.png,0.0,-0.06578912,0.6205738,-0.4853319
alexnet_w1_mlp_simclrhn_probe3,1,448,NaN,knife,bicycle,c03,0448_cop_dnn_c03_bicycle_10_n03792782_12908.png,n03792782_12908.png,0.0,-0.23851277,0.26397258,-0.3553108
alexnet_w1_mlp_simclrhn_probe3,1,449,NaN,cat,cat,c50,0449_cop_dnn_c50_cat_10_n02124075_10241.png,n02124075_10241.png,1.0,6.4092402,0.6565342,4.0677776
alexnet_w1_mlp_simclrhn_probe3,1,450,NaN,knife,keyboard,c03,0450_cop_dnn_c03_keyboard_10_n03085013_29941.png,n03085013_29941.png,0.0,0.07697764,0.61063313,-0.37735143
alexnet_w1_mlp_simclrhn_probe3,1,451,NaN,clock,car,c05,0451_cop_dnn_c05_car_10_n03100240_5718.png,n03100240_5718.png,0.0,-0.18552543,0.31881985,-0.35662597
alexnet_w1_mlp_simclrhn_probe3,1,452,NaN,knife,bear,c01,0452_cop_dnn_c01_bear_10_n02133161_789.png,n02133161_789.png,0.0,-0.058963284,0.28174677,-0.24091838
alexnet_w1_mlp_simclrhn_probe3,1,453,NaN,chair,chair,c30,0453_cop_dnn_c30_chair_10_n04099969_9891.png,n04099969_9891.png,1.0,0.74479544,0.35329226,0.27683455
alexnet_w1_mlp_simclrhn_probe3,1,454,NaN,knife,knife,c01,0454_cop_dnn_c01_knife_10_n03041632_8666.png,n03041632_8666.png,1.0,0.32688677,0.18011911,0.10378041
alexnet_w1_mlp_simclrhn_probe3,1,455,NaN,knife,car,c10,0455_cop_dnn_c10_car_10_n03100240_52.png,n03100240_52.png,0.0,0.13695566,0.4447981,-0.21767747
alexnet_w1_mlp_simclrhn_probe3,1,456,NaN,knife,bird,c10,0456_cop_dnn_c10_bird_10_n02007558_45529.png,n02007558_45529.png,0.0,0.13727091,0.23728004,-0.07071713
alexnet_w1_mlp_simclrhn_probe3,1,457,NaN,knife,airplane,c15,0457_cop_dnn_c15_airplane_10_n02690373_1933.png,n02690373_1933.png,0.0,0.19106838,0.42189065,-0.163216
alexnet_w1_mlp_simclrhn_probe3,1,458,NaN,knife,elephant,c03,0458_cop_dnn_c03_elephant_10_n02504013_1879.png,n02504013_1879.png,0.0,-0.032316804,0.3192314,-0.24858211
alexnet_w1_mlp_simclrhn_probe3,1,459,NaN,car,car,c10,0459_cop_dnn_c10_car_10_n03100240_3373.png,n03100240_3373.png,1.0,1.2519242,0.5896157,0.4683228
alexnet_w1_mlp_simclrhn_probe3,1,460,NaN,cat,bicycle,c15,0460_cop_dnn_c15_bicycle_10_n03792782_7331.png,n03792782_7331.png,0.0,-0.2411533,0.2359045,-0.33733082
alexnet_w1_mlp_simclrhn_probe3,1,461,NaN,knife,chair,c100,0461_cop_dnn_c100_chair_10_n03376595_11049.png,n03376595_11049.png,0.0,0.5459215,0.5509605,-0.0035630947
alexnet_w1_mlp_simclrhn_probe3,1,462,NaN,cat,knife,c50,0462_cop_dnn_c50_knife_10_n03041632_37274.png,n03041632_37274.png,0.0,0.5152002,0.73057413,-0.15229237
alexnet_w1_mlp_simclrhn_probe3,1,463,NaN,bottle,bottle,c15,0463_cop_dnn_c15_bottle_10_n02823428_780.png,n02823428_780.png,1.0,0.81865776,0.3241208,0.34969044
alexnet_w1_mlp_simclrhn_probe3,1,464,NaN,knife,cat,c05,0464_cop_dnn_c05_cat_10_n02123045_390.png,n02123045_390.png,0.0,0.15807258,0.2933112,-0.09562816
alexnet_w1_mlp_simclrhn_probe3,1,465,NaN,oven,bird,c30,0465_cop_dnn_c30_bird_10_n01796340_10024.png,n01796340_10024.png,0.0,0.1920096,0.45907012,-0.1888403
alexnet_w1_mlp_simclrhn_probe3,1,466,NaN,knife,knife,c05,0466_cop_dnn_c05_knife_10_n03041632_13509.png,n03041632_13509.png,1.0,0.82015,0.21697845,0.42650673
alexnet_w1_mlp_simclrhn_probe3,1,467,NaN,knife,bird,c05,0467_cop_dnn_c05_bird_10_n01534433_14198.png,n01534433_14198.png,0.0,-0.03435337,0.3276202,-0.25595397
alexnet_w1_mlp_simclrhn_probe3,1,468,NaN,airplane,chair,c100,0468_cop_dnn_c100_chair_10_n04099969_2502.png,n04099969_2502.png,0.0,1.379255,2.4233766,-0.7383054
alexnet_w1_mlp_simclrhn_probe3,1,469,NaN,cat,cat,c05,0469_cop_dnn_c05_cat_10_n02123045_15474.png,n02123045_15474.png,1.0,0.22506912,0.21726075,0.0055213533
alexnet_w1_mlp_simclrhn_probe3,1,470,NaN,clock,clock,c30,0470_cop_dnn_c30_clock_10_n02708093_442.png,n02708093_442.png,1.0,1.1316347,0.80199134,0.23309307
alexnet_w1_mlp_simclrhn_probe3,1,471,NaN,keyboard,boat,c100,0471_cop_dnn_c100_boat_10_n02951358_12663.png,n02951358_12663.png,0.0,0.12310318,1.2149689,-0.7720657
alexnet_w1_mlp_simclrhn_probe3,1,472,NaN,clock,cat,c05,0472_cop_dnn_c05_cat_10_n02125311_37322.png,n02125311_37322.png,0.0,0.00055808324,0.21015628,-0.1482083
alexnet_w1_mlp_simclrhn_probe3,1,473,NaN,bird,bird,c100,0473_cop_dnn_c100_bird_10_n01558993_5185.png,n01558993_5185.png,1.0,1.1246139,0.35070363,0.5472372
alexnet_w1_mlp_simclrhn_probe3,1,474,NaN,elephant,elephant,c100,0474_cop_dnn_c100_elephant_10_n02504013_7248.png,n02504013_7248.png,1.0,6.5131445,2.2051766,3.0461936
alexnet_w1_mlp_simclrhn_probe3,1,475,NaN,knife,bottle,c01,0475_cop_dnn_c01_bottle_10_n02823428_4245.png,n02823428_4245.png,0.0,0.20547278,0.3714778,-0.11738329
alexnet_w1_mlp_simclrhn_probe3,1,476,NaN,chair,chair,c10,0476_cop_dnn_c10_chair_10_n04099969_8993.png,n04099969_8993.png,1.0,0.6339856,0.39292303,0.17045696
alexnet_w1_mlp_simclrhn_probe3,1,477,NaN,dog,dog,c30,0477_cop_dnn_c30_dog_10_n02101388_8775.png,n02101388_8775.png,1.0,1.6173526,0.13148224,1.0506691
alexnet_w1_mlp_simclrhn_probe3,1,478,NaN,knife,car,c01,0478_cop_dnn_c01_car_10_n02814533_3590.png,n02814533_3590.png,0.0,-0.36514997,0.34601086,-0.5028667
alexnet_w1_mlp_simclrhn_probe3,1,479,NaN,elephant,elephant,c05,0479_cop_dnn_c05_elephant_10_n02504458_6018.png,n02504458_6018.png,1.0,0.27523422,0.21120629,0.04527459
alexnet_w1_mlp_simclrhn_probe3,1,480,NaN,keyboard,keyboard,c100,0480_cop_dnn_c100_keyboard_10_n03085013_11332.png,n03085013_11332.png,1.0,7.6843805,1.8750476,4.1078186
alexnet_w1_mlp_simclrhn_probe3,1,481,NaN,oven,oven,c05,0481_cop_dnn_c05_oven_10_n04111531_6863.png,n04111531_6863.png,1.0,0.2916059,0.25413975,0.02649256
alexnet_w1_mlp_simclrhn_probe3,1,482,NaN,airplane,airplane,c50,0482_cop_dnn_c50_airplane_10_n02690373_2675.png,n02690373_2675.png,1.0,1.5100757,1.0352668,0.33574063
alexnet_w1_mlp_simclrhn_probe3,1,483,NaN,knife,dog,c01,0483_cop_dnn_c01_dog_10_n02106550_660.png,n02106550_660.png,0.0,-0.10006058,0.31807467,-0.29566628
alexnet_w1_mlp_simclrhn_probe3,1,484,NaN,knife,knife,c15,0484_cop_dnn_c15_knife_10_n03041632_11700.png,n03041632_11700.png,1.0,0.48340893,0.38083696,0.07252933
alexnet_w1_mlp_simclrhn_probe3,1,485,NaN,bird,bird,c15,0485_cop_dnn_c15_bird_10_n02009229_6149.png,n02009229_6149.png,1.0,0.8309521,0.1863146,0.45582756
alexnet_w1_mlp_simclrhn_probe3,1,486,NaN,keyboard,clock,c30,0486_cop_dnn_c30_clock_10_n03196217_3780.png,n03196217_3780.png,0.0,0.94648343,1.4530375,-0.35818782
alexnet_w1_mlp_simclrhn_probe3,1,487,NaN,bird,bird,c100,0487_cop_dnn_c100_bird_10_n01530575_34173.png,n01530575_34173.png,1.0,6.4960914,1.1521221,3.778757
alexnet_w1_mlp_simclrhn_probe3,1,488,NaN,bottle,bottle,c100,0488_cop_dnn_c100_bottle_10_n03983396_17803.png,n03983396_17803.png,1.0,8.889821,1.9940343,4.8760576
alexnet_w1_mlp_simclrhn_probe3,1,489,NaN,knife,oven,c05,0489_cop_dnn_c05_oven_10_n04111531_2156.png,n04111531_2156.png,0.0,0.15201123,0.2814717,-0.09154238
alexnet_w1_mlp_simclrhn_probe3,1,490,NaN,elephant,elephant,c10,0490_cop_dnn_c10_elephant_10_n02504013_14948.png,n02504013_14948.png,1.0,1.466856,0.3941327,0.7585299
alexnet_w1_mlp_simclrhn_probe3,1,491,NaN,knife,boat,c01,0491_cop_dnn_c01_boat_10_n04273569_3112.png,n04273569_3112.png,0.0,-0.049418792,0.36364254,-0.29207847
alexnet_w1_mlp_simclrhn_probe3,1,492,NaN,bird,bird,c50,0492_cop_dnn_c50_bird_10_n01560419_6583.png,n01560419_6583.png,1.0,2.268087,0.19290443,1.4673756
alexnet_w1_mlp_simclrhn_probe3,1,493,NaN,keyboard,keyboard,c50,0493_cop_dnn_c50_keyboard_10_n03085013_19161.png,n03085013_19161.png,1.0,0.8663794,0.57899433,0.20321192
alexnet_w1_mlp_simclrhn_probe3,1,494,NaN,knife,bird,c05,0494_cop_dnn_c05_bird_10_n01616318_57023.png,n01616318_57023.png,0.0,-0.11018186,0.33771232,-0.316709
alexnet_w1_mlp_simclrhn_probe3,1,495,NaN,truck,truck,c50,0495_cop_dnn_c50_truck_10_n04467665_69176.png,n04467665_69176.png,1.0,1.4652543,1.2857628,0.12691967
alexnet_w1_mlp_simclrhn_probe3,1,496,NaN,car,car,c50,0496_cop_dnn_c50_car_10_n03100240_4971.png,n03100240_4971.png,1.0,4.5227323,2.4147441,1.4905727
alexnet_w1_mlp_simclrhn_probe3,1,497,NaN,knife,oven,c01,0497_cop_dnn_c01_oven_10_n04111531_4901.png,n04111531_4901.png,0.0,0.04128017,0.29684347,-0.18071054
alexnet_w1_mlp_simclrhn_probe3,1,498,NaN,bear,bear,c30,0498_cop_dnn_c30_bear_10_n02133161_4091.png,n02133161_4091.png,1.0,1.3576734,0.37935612,0.6917748
alexnet_w1_mlp_simclrhn_probe3,1,499,NaN,knife,cat,c03,0499_cop_dnn_c03_cat_10_n02123394_4164.png,n02123394_4164.png,0.0,0.047614682,0.22231954,-0.123535
alexnet_w1_mlp_simclrhn_probe3,1,500,NaN,knife,bird,c03,0500_cop_dnn_c03_bird_10_n02017213_689.png,n02017213_689.png,0.0,0.054998666,0.3172281,-0.18542422
alexnet_w1_mlp_simclrhn_probe3,1,501,NaN,dog,dog,c100,0501_cop_dnn_c100_dog_10_n02109047_14207.png,n02109047_14207.png,1.0,1.338595,0.36403787,0.689116
alexnet_w1_mlp_simclrhn_probe3,1,502,NaN,bottle,elephant,c05,0502_cop_dnn_c05_elephant_10_n02504013_8347.png,n02504013_8347.png,0.0,0.038339574,0.25586942,-0.15381683
alexnet_w1_mlp_simclrhn_probe3,1,503,NaN,oven,bottle,c30,0503_cop_dnn_c30_bottle_10_n04591713_1652.png,n04591713_1652.png,0.0,1.2147657,1.2333868,-0.013167097
alexnet_w1_mlp_simclrhn_probe3,1,504,NaN,oven,oven,c15,0504_cop_dnn_c15_oven_10_n04111531_22403.png,n04111531_22403.png,1.0,1.1640658,0.22974615,0.6606638
alexnet_w1_mlp_simclrhn_probe3,1,505,NaN,airplane,airplane,c100,0505_cop_dnn_c100_airplane_10_n02690373_6046.png,n02690373_6046.png,1.0,13.344866,1.4143639,8.436139
alexnet_w1_mlp_simclrhn_probe3,1,506,NaN,bear,bear,c15,0506_cop_dnn_c15_bear_10_n02134084_1689.png,n02134084_1689.png,1.0,0.46092606,0.42666093,0.024229107
alexnet_w1_mlp_simclrhn_probe3,1,507,NaN,oven,oven,c30,0507_cop_dnn_c30_oven_10_n04111531_14269.png,n04111531_14269.png,1.0,2.3601809,0.8366716,1.0772837
alexnet_w1_mlp_simclrhn_probe3,1,508,NaN,cat,cat,c100,0508_cop_dnn_c100_cat_10_n02123597_9444.png,n02123597_9444.png,1.0,4.3419485,2.6863139,1.1707104
alexnet_w1_mlp_simclrhn_probe3,1,509,NaN,bear,bear,c10,0509_cop_dnn_c10_bear_10_n02134418_128.png,n02134418_128.png,1.0,0.9719624,0.66667974,0.21586743
alexnet_w1_mlp_simclrhn_probe3,1,510,NaN,airplane,airplane,c30,0510_cop_dnn_c30_airplane_10_n02690373_8789.png,n02690373_8789.png,1.0,3.0689566,1.0895954,1.3996197
alexnet_w1_mlp_simclrhn_probe3,1,511,NaN,knife,bottle,c01,0511_cop_dnn_c01_bottle_10_n03937543_10092.png,n03937543_10092.png,0.0,0.13476442,0.40637973,-0.19206104
alexnet_w1_mlp_simclrhn_probe3,1,512,NaN,clock,clock,c03,0512_cop_dnn_c03_clock_10_n02708093_7257.png,n02708093_7257.png,1.0,0.63401175,0.3898749,0.17263082
alexnet_w1_mlp_simclrhn_probe3,1,513,NaN,elephant,bear,c100,0513_cop_dnn_c100_bear_10_n02134084_21207.png,n02134084_21207.png,0.0,3.4498527,4.694789,-0.88030285
alexnet_w1_mlp_simclrhn_probe3,1,514,NaN,knife,bird,c05,0514_cop_dnn_c05_bird_10_n01797886_12811.png,n01797886_12811.png,0.0,-0.04467017,0.20816562,-0.1787819
alexnet_w1_mlp_simclrhn_probe3,1,515,NaN,knife,oven,c01,0515_cop_dnn_c01_oven_10_n04111531_21248.png,n04111531_21248.png,0.0,0.037377484,0.29742828,-0.1838837
alexnet_w1_mlp_simclrhn_probe3,1,516,NaN,elephant,dog,c15,0516_cop_dnn_c15_dog_10_n02090379_5574.png,n02090379_5574.png,0.0,0.18226828,0.37840635,-0.13869056
alexnet_w1_mlp_simclrhn_probe3,1,517,NaN,car,car,c15,0517_cop_dnn_c15_car_10_n04285008_8443.png,n04285008_8443.png,1.0,2.5192833,0.9637203,1.0999491
alexnet_w1_mlp_simclrhn_probe3,1,518,NaN,car,car,c100,0518_cop_dnn_c100_car_10_n03100240_15647.png,n03100240_15647.png,1.0,7.1016793,5.90525,0.84600323
alexnet_w1_mlp_simclrhn_probe3,1,519,NaN,chair,chair,c50,0519_cop_dnn_c50_chair_10_n02791124_5824.png,n02791124_5824.png,1.0,2.3485162,0.89607227,1.027033
alexnet_w1_mlp_simclrhn_probe3,1,520,NaN,bottle,bear,c05,0520_cop_dnn_c05_bear_10_n02133161_9949.png,n02133161_9949.png,0.0,0.04154009,0.33713195,-0.20901501
alexnet_w1_mlp_simclrhn_probe3,1,521,NaN,knife,elephant,c03,0521_cop_dnn_c03_elephant_10_n02504458_5320.png,n02504458_5320.png,0.0,-0.072600484,0.31798524,-0.2761858
alexnet_w1_mlp_simclrhn_probe3,1,522,NaN,knife,keyboard,c01,0522_cop_dnn_c01_keyboard_10_n04505470_1904.png,n04505470_1904.png,0.0,-0.12426882,0.39871487,-0.3698053
alexnet_w1_mlp_simclrhn_probe3,1,523,NaN,oven,oven,c100,0523_cop_dnn_c100_oven_10_n04111531_4685.png,n04111531_4685.png,1.0,3.8331661,0.51304424,2.3476806
alexnet_w1_mlp_simclrhn_probe3,1,524,NaN,clock,truck,c05,0524_cop_dnn_c05_truck_10_n03417042_2230.png,n03417042_2230.png,0.0,0.22499108,0.23482215,-0.006951617
alexnet_w1_mlp_simclrhn_probe3,1,525,NaN,bottle,bottle,c15,0525_cop_dnn_c15_bottle_10_n04591713_6842.png,n04591713_6842.png,1.0,0.4287992,0.20198882,0.16037917
alexnet_w1_mlp_simclrhn_probe3,1,526,NaN,boat,boat,c50,0526_cop_dnn_c50_boat_10_n02951358_8285.png,n02951358_8285.png,1.0,1.2495645,0.9288602,0.22677222
alexnet_w1_mlp_simclrhn_probe3,1,527,NaN,knife,knife,c01,0527_cop_dnn_c01_knife_10_n03041632_48675.png,n03041632_48675.png,1.0,0.4325366,0.17083119,0.18505366
alexnet_w1_mlp_simclrhn_probe3,1,528,NaN,knife,oven,c01,0528_cop_dnn_c01_oven_10_n04111531_14435.png,n04111531_14435.png,0.0,0.011344075,0.3103932,-0.21145968
alexnet_w1_mlp_simclrhn_probe3,1,529,NaN,cat,cat,c50,0529_cop_dnn_c50_cat_10_n02123159_8273.png,n02123159_8273.png,1.0,6.978246,0.7903599,4.3754964
alexnet_w1_mlp_simclrhn_probe3,1,530,NaN,bird,bird,c50,0530_cop_dnn_c50_bird_10_n01614925_1908.png,n01614925_1908.png,1.0,2.2629714,1.5184311,0.5264695
alexnet_w1_mlp_simclrhn_probe3,1,531,NaN,knife,knife,c05,0531_cop_dnn_c05_knife_10_n03041632_96345.png,n03041632_96345.png,1.0,0.34188634,0.23679411,0.07431143
alexnet_w1_mlp_simclrhn_probe3,1,532,NaN,knife,knife,c10,0532_cop_dnn_c10_knife_10_n03041632_31037.png,n03041632_31037.png,1.0,0.46377903,0.06367435,0.28291672
alexnet_w1_mlp_simclrhn_probe3,1,533,NaN,airplane,airplane,c50,0533_cop_dnn_c50_airplane_10_n02690373_1436.png,n02690373_1436.png,1.0,2.1425028,0.7596755,0.97780657
alexnet_w1_mlp_simclrhn_probe3,1,534,NaN,chair,chair,c100,0534_cop_dnn_c100_chair_10_n04099969_28072.png,n04099969_28072.png,1.0,2.8236265,1.7922394,0.7293008
alexnet_w1_mlp_simclrhn_probe3,1,535,NaN,knife,boat,c01,0535_cop_dnn_c01_boat_10_n04612504_19983.png,n04612504_19983.png,0.0,-0.080996975,0.39422572,-0.3360332
alexnet_w1_mlp_simclrhn_probe3,1,536,NaN,oven,oven,c15,0536_cop_dnn_c15_oven_10_n04111531_8255.png,n04111531_8255.png,1.0,1.1540074,0.3735064,0.5518976
alexnet_w1_mlp_simclrhn_probe3,1,537,NaN,elephant,bear,c15,0537_cop_dnn_c15_bear_10_n02132136_1574.png,n02132136_1574.png,0.0,0.7864685,1.3700411,-0.41264817
alexnet_w1_mlp_simclrhn_probe3,1,538,NaN,boat,boat,c100,0538_cop_dnn_c100_boat_10_n04273569_24747.png,n04273569_24747.png,1.0,5.7224703,2.4516973,2.3127859
alexnet_w1_mlp_simclrhn_probe3,1,539,NaN,oven,dog,c30,0539_cop_dnn_c30_dog_10_n02113799_18413.png,n02113799_18413.png,0.0,0.51343226,1.0064315,-0.34860307
alexnet_w1_mlp_simclrhn_probe3,1,540,NaN,boat,boat,c15,0540_cop_dnn_c15_boat_10_n04273569_28333.png,n04273569_28333.png,1.0,1.4747958,0.31804496,0.81794643
alexnet_w1_mlp_simclrhn_probe3,1,541,NaN,knife,bird,c01,0541_cop_dnn_c01_bird_10_n02017213_2183.png,n02017213_2183.png,0.0,-0.078935854,0.32469848,-0.28541258
alexnet_w1_mlp_simclrhn_probe3,1,542,NaN,boat,boat,c50,0542_cop_dnn_c50_boat_10_n04273569_26139.png,n04273569_26139.png,1.0,3.548737,1.6156857,1.3668737
alexnet_w1_mlp_simclrhn_probe3,1,543,NaN,bottle,knife,c03,0543_cop_dnn_c03_knife_10_n03041632_29684.png,n03041632_29684.png,0.0,0.4360978,0.45423505,-0.01282497
alexnet_w1_mlp_simclrhn_probe3,1,544,NaN,elephant,boat,c100,0544_cop_dnn_c100_boat_10_n02951358_3087.png,n02951358_3087.png,0.0,1.045213,1.9446812,-0.63602006
alexnet_w1_mlp_simclrhn_probe3,1,545,NaN,knife,keyboard,c15,0545_cop_dnn_c15_keyboard_10_n03085013_13615.png,n03085013_13615.png,0.0,0.60123205,0.61919373,-0.012700827
alexnet_w1_mlp_simclrhn_probe3,1,546,NaN,knife,oven,c03,0546_cop_dnn_c03_oven_10_n04111531_1778.png,n04111531_1778.png,0.0,0.18219459,0.28800648,-0.07482031
alexnet_w1_mlp_simclrhn_probe3,1,547,NaN,knife,dog,c03,0547_cop_dnn_c03_dog_10_n02097474_9129.png,n02097474_9129.png,0.0,-0.04226596,0.25430453,-0.209707
alexnet_w1_mlp_simclrhn_probe3,1,548,NaN,bird,bird,c30,0548_cop_dnn_c30_bird_10_n02013706_19220.png,n02013706_19220.png,1.0,1.4815073,0.62315255,0.6069485
alexnet_w1_mlp_simclrhn_probe3,1,549,NaN,keyboard,clock,c100,0549_cop_dnn_c100_clock_10_n03196217_7199.png,n03196217_7199.png,0.0,2.6544037,3.4439082,-0.558264
alexnet_w1_mlp_simclrhn_probe3,1,550,NaN,bear,bear,c50,0550_cop_dnn_c50_bear_10_n02132136_27823.png,n02132136_27823.png,1.0,4.2062144,3.2304983,0.6899355
alexnet_w1_mlp_simclrhn_probe3,1,551,NaN,knife,boat,c03,0551_cop_dnn_c03_boat_10_n03662601_6462.png,n03662601_6462.png,0.0,-0.12440822,0.3273142,-0.319416
alexnet_w1_mlp_simclrhn_probe3,1,552,NaN,knife,knife,c15,0552_cop_dnn_c15_knife_10_n03041632_11773.png,n03041632_11773.png,1.0,0.2774782,0.21940295,0.04106539
alexnet_w1_mlp_simclrhn_probe3,1,553,NaN,knife,clock,c01,0553_cop_dnn_c01_clock_10_n02708093_7998.png,n02708093_7998.png,0.0,0.33996773,0.49851793,-0.112111926
alexnet_w1_mlp_simclrhn_probe3,1,554,NaN,elephant,elephant,c30,0554_cop_dnn_c30_elephant_10_n02504458_3409.png,n02504458_3409.png,1.0,5.3263807,1.7639084,2.5190485
alexnet_w1_mlp_simclrhn_probe3,1,555,NaN,knife,bottle,c01,0555_cop_dnn_c01_bottle_10_n04560804_24166.png,n04560804_24166.png,0.0,0.18564992,0.26868963,-0.058717947
alexnet_w1_mlp_simclrhn_probe3,1,556,NaN,cat,cat,c15,0556_cop_dnn_c15_cat_10_n02125311_17613.png,n02125311_17613.png,1.0,0.45840988,0.33515185,0.08715659
alexnet_w1_mlp_simclrhn_probe3,1,557,NaN,knife,bicycle,c05,0557_cop_dnn_c05_bicycle_10_n03792782_5284.png,n03792782_5284.png,0.0,-0.22923972,0.30666766,-0.37894374
alexnet_w1_mlp_simclrhn_probe3,1,558,NaN,oven,oven,c10,0558_cop_dnn_c10_oven_10_n04111531_13006.png,n04111531_13006.png,1.0,0.52681077,0.38899696,0.09744908
alexnet_w1_mlp_simclrhn_probe3,1,559,NaN,oven,oven,c10,0559_cop_dnn_c10_oven_10_n04111531_8309.png,n04111531_8309.png,1.0,0.3568864,0.30773586,0.03475467
alexnet_w1_mlp_simclrhn_probe3,1,560,NaN,clock,clock,c10,0560_cop_dnn_c10_clock_10_n04548280_8390.png,n04548280_8390.png,1.0,0.43263948,0.27282816,0.11300367
alexnet_w1_mlp_simclrhn_probe3,1,561,NaN,truck,truck,c50,0561_cop_dnn_c50_truck_10_n04467665_7110.png,n04467665_7110.png,1.0,2.9839818,0.52676314,1.737516
alexnet_w1_mlp_simclrhn_probe3,1,562,NaN,knife,clock,c10,0562_cop_dnn_c10_clock_10_n03196217_8020.png,n03196217_8020.png,0.0,0.2461788,0.59611017,-0.24743885
alexnet_w1_mlp_simclrhn_probe3,1,563,NaN,elephant,elephant,c100,0563_cop_dnn_c100_elephant_10_n02504458_7955.png,n02504458_7955.png,1.0,12.633469,6.2546964,4.5104733
alexnet_w1_mlp_simclrhn_probe3,1,564,NaN,knife,elephant,c01,0564_cop_dnn_c01_elephant_10_n02504458_1022.png,n02504458_1022.png,0.0,-0.1514802,0.36208296,-0.363144
alexnet_w1_mlp_simclrhn_probe3,1,565,NaN,clock,clock,c100,0565_cop_dnn_c100_clock_10_n04548280_2383.png,n04548280_2383.png,1.0,4.4073744,3.368945,0.7342805
alexnet_w1_mlp_simclrhn_probe3,1,566,NaN,bird,bird,c50,0566_cop_dnn_c50_bird_10_n02002724_7019.png,n02002724_7019.png,1.0,1.5738292,0.33705616,0.8745306
alexnet_w1_mlp_simclrhn_probe3,1,567,NaN,elephant,cat,c100,0567_cop_dnn_c100_cat_10_n02125311_1127.png,n02125311_1127.png,0.0,3.681893,3.9496636,-0.18934236
alexnet_w1_mlp_simclrhn_probe3,1,568,NaN,knife,bicycle,c05,0568_cop_dnn_c05_bicycle_10_n02835271_6481.png,n02835271_6481.png,0.0,-0.22967958,0.23038936,-0.32531786
alexnet_w1_mlp_simclrhn_probe3,1,569,NaN,car,car,c15,0569_cop_dnn_c15_car_10_n04285008_5208.png,n04285008_5208.png,1.0,1.8181933,0.96805,0.6011421
alexnet_w1_mlp_simclrhn_probe3,1,570,NaN,keyboard,oven,c50,0570_cop_dnn_c50_oven_10_n04111531_8658.png,n04111531_8658.png,0.0,1.1086062,1.8079197,-0.49448934
alexnet_w1_mlp_simclrhn_probe3,1,571,NaN,bottle,bottle,c05,0571_cop_dnn_c05_bottle_10_n04579145_2910.png,n04579145_2910.png,1.0,0.40890768,0.25241223,0.110658996
alexnet_w1_mlp_simclrhn_probe3,1,572,NaN,knife,truck,c01,0572_cop_dnn_c01_truck_10_n04467665_22414.png,n04467665_22414.png,0.0,-0.24756098,0.35461164,-0.42580035
alexnet_w1_mlp_simclrhn_probe3,1,573,NaN,bear,elephant,c15,0573_cop_dnn_c15_elephant_10_n02504013_5439.png,n02504013_5439.png,0.0,0.4150272,0.45912182,-0.031179607
alexnet_w1_mlp_simclrhn_probe3,1,574,NaN,cat,cat,c10,0574_cop_dnn_c10_cat_10_n02123159_5945.png,n02123159_5945.png,1.0,0.91244745,0.13263279,0.5514122
alexnet_w1_mlp_simclrhn_probe3,1,575,NaN,bottle,bottle,c10,0575_cop_dnn_c10_bottle_10_n04557648_2426.png,n04557648_2426.png,1.0,0.8411719,0.3606447,0.33978406
alexnet_w1_mlp_simclrhn_probe3,1,576,NaN,knife,bicycle,c05,0576_cop_dnn_c05_bicycle_10_n03792782_38641.png,n03792782_38641.png,0.0,0.06550181,0.541003,-0.33623013
alexnet_w1_mlp_simclrhn_probe3,1,577,NaN,cat,dog,c30,0577_cop_dnn_c30_dog_10_n02110958_15843.png,n02110958_15843.png,0.0,0.12637676,0.3282212,-0.14272557
alexnet_w1_mlp_simclrhn_probe3,1,578,NaN,keyboard,keyboard,c15,0578_cop_dnn_c15_keyboard_10_n04505470_5161.png,n04505470_5161.png,1.0,1.5945996,0.46992552,0.79526466
alexnet_w1_mlp_simclrhn_probe3,1,579,NaN,airplane,airplane,c30,0579_cop_dnn_c30_airplane_10_n02690373_8350.png,n02690373_8350.png,1.0,2.3969746,1.1127821,0.9080612
alexnet_w1_mlp_simclrhn_probe3,1,580,NaN,knife,bicycle,c05,0580_cop_dnn_c05_bicycle_10_n03792782_10129.png,n03792782_10129.png,0.0,-0.14907017,0.2021818,-0.24837264
alexnet_w1_mlp_simclrhn_probe3,1,581,NaN,car,car,c100,0581_cop_dnn_c100_car_10_n02814533_26369.png,n02814533_26369.png,1.0,5.411739,3.1139772,1.6247629
alexnet_w1_mlp_simclrhn_probe3,1,582,NaN,oven,oven,c10,0582_cop_dnn_c10_oven_10_n04111531_10077.png,n04111531_10077.png,1.0,1.6716989,0.37886977,0.9141683
alexnet_w1_mlp_simclrhn_probe3,1,583,NaN,knife,oven,c01,0583_cop_dnn_c01_oven_10_n04111531_12702.png,n04111531_12702.png,0.0,0.06471926,0.42749912,-0.2565241
alexnet_w1_mlp_simclrhn_probe3,1,584,NaN,keyboard,clock,c100,0584_cop_dnn_c100_clock_10_n03196217_8618.png,n03196217_8618.png,0.0,2.5279748,2.6479735,-0.08485189
alexnet_w1_mlp_simclrhn_probe3,1,585,NaN,bottle,bottle,c10,0585_cop_dnn_c10_bottle_10_n03983396_4227.png,n03983396_4227.png,1.0,0.84412014,0.48536104,0.253681
alexnet_w1_mlp_simclrhn_probe3,1,586,NaN,bottle,bottle,c30,0586_cop_dnn_c30_bottle_10_n03983396_9090.png,n03983396_9090.png,1.0,1.0710142,0.99475753,0.053921584
alexnet_w1_mlp_simclrhn_probe3,1,587,NaN,bear,bear,c100,0587_cop_dnn_c100_bear_10_n02133161_223.png,n02133161_223.png,1.0,2.8277285,1.1956754,1.1540358
alexnet_w1_mlp_simclrhn_probe3,1,588,NaN,keyboard,keyboard,c50,0588_cop_dnn_c50_keyboard_10_n04505470_1047.png,n04505470_1047.png,1.0,3.224241,1.2438893,1.4003202
alexnet_w1_mlp_simclrhn_probe3,1,589,NaN,knife,elephant,c03,0589_cop_dnn_c03_elephant_10_n02504013_7467.png,n02504013_7467.png,0.0,-0.079568386,0.4370951,-0.36533627
alexnet_w1_mlp_simclrhn_probe3,1,590,NaN,elephant,elephant,c30,0590_cop_dnn_c30_elephant_10_n02504013_476.png,n02504013_476.png,1.0,1.468435,0.6930385,0.54828817
alexnet_w1_mlp_simclrhn_probe3,1,591,NaN,chair,chair,c100,0591_cop_dnn_c100_chair_10_n02791124_12707.png,n02791124_12707.png,1.0,3.4125555,1.907901,1.0639514
alexnet_w1_mlp_simclrhn_probe3,1,592,NaN,knife,bird,c01,0592_cop_dnn_c01_bird_10_n01537544_22049.png,n01537544_22049.png,0.0,-0.035034038,0.35035756,-0.272513
alexnet_w1_mlp_simclrhn_probe3,1,593,NaN,bottle,bicycle,c05,0593_cop_dnn_c05_bicycle_10_n02835271_4220.png,n02835271_4220.png,0.0,-0.065137066,0.33099556,-0.28010806
alexnet_w1_mlp_simclrhn_probe3,1,594,NaN,truck,truck,c10,0594_cop_dnn_c10_truck_10_n03417042_7530.png,n03417042_7530.png,1.0,0.57274014,0.43619305,0.09655337
alexnet_w1_mlp_simclrhn_probe3,1,595,NaN,knife,bear,c03,0595_cop_dnn_c03_bear_10_n02134418_12457.png,n02134418_12457.png,0.0,0.038293693,0.26823744,-0.1625948
alexnet_w1_mlp_simclrhn_probe3,1,596,NaN,bottle,bottle,c50,0596_cop_dnn_c50_bottle_10_n04557648_10265.png,n04557648_10265.png,1.0,2.663007,0.51682657,1.5175787
alexnet_w1_mlp_simclrhn_probe3,1,597,NaN,clock,clock,c15,0597_cop_dnn_c15_clock_10_n02708093_2025.png,n02708093_2025.png,1.0,0.7849423,0.7145893,0.049747106
alexnet_w1_mlp_simclrhn_probe3,1,598,NaN,bicycle,chair,c15,0598_cop_dnn_c15_chair_10_n03376595_1961.png,n03376595_1961.png,0.0,0.36889988,0.7212354,-0.24913883
alexnet_w1_mlp_simclrhn_probe3,1,599,NaN,knife,bear,c05,0599_cop_dnn_c05_bear_10_n02134084_67.png,n02134084_67.png,0.0,0.22139949,0.3038991,-0.058336046
alexnet_w1_mlp_simclrhn_probe3,1,600,NaN,cat,cat,c50,0600_cop_dnn_c50_cat_10_n02123045_455.png,n02123045_455.png,1.0,5.217098,0.11712481,3.6062257
alexnet_w1_mlp_simclrhn_probe3,1,601,NaN,car,car,c10,0601_cop_dnn_c10_car_10_n03100240_13929.png,n03100240_13929.png,1.0,0.8235541,0.43106505,0.27753168
alexnet_w1_mlp_simclrhn_probe3,1,602,NaN,elephant,elephant,c10,0602_cop_dnn_c10_elephant_10_n02504458_4997.png,n02504458_4997.png,1.0,0.652709,0.2053988,0.3162961
alexnet_w1_mlp_simclrhn_probe3,1,603,NaN,oven,airplane,c10,0603_cop_dnn_c10_airplane_10_n02690373_5344.png,n02690373_5344.png,0.0,0.19120705,0.30530006,-0.08067594
alexnet_w1_mlp_simclrhn_probe3,1,604,NaN,knife,oven,c01,0604_cop_dnn_c01_oven_10_n04111531_797.png,n04111531_797.png,0.0,0.033288963,0.3418252,-0.21816806
alexnet_w1_mlp_simclrhn_probe3,1,605,NaN,boat,boat,c30,0605_cop_dnn_c30_boat_10_n04273569_3085.png,n04273569_3085.png,1.0,3.86614,1.458256,1.702631
alexnet_w1_mlp_simclrhn_probe3,1,606,NaN,oven,oven,c100,0606_cop_dnn_c100_oven_10_n04111531_9113.png,n04111531_9113.png,1.0,5.600994,1.3575656,3.000557
alexnet_w1_mlp_simclrhn_probe3,1,607,NaN,knife,boat,c03,0607_cop_dnn_c03_boat_10_n03662601_18803.png,n03662601_18803.png,0.0,0.16061488,0.25428683,-0.06623607
alexnet_w1_mlp_simclrhn_probe3,1,608,NaN,knife,truck,c03,0608_cop_dnn_c03_truck_10_n04467665_30581.png,n04467665_30581.png,0.0,-0.2496998,0.32654878,-0.4074693
alexnet_w1_mlp_simclrhn_probe3,1,609,NaN,elephant,elephant,c30,0609_cop_dnn_c30_elephant_10_n02504013_5237.png,n02504013_5237.png,1.0,2.3132944,0.9237703,0.9825419
alexnet_w1_mlp_simclrhn_probe3,1,610,NaN,keyboard,keyboard,c100,0610_cop_dnn_c100_keyboard_10_n03085013_12175.png,n03085013_12175.png,1.0,6.9523187,2.3575273,3.2490082
alexnet_w1_mlp_simclrhn_probe3,1,611,NaN,chair,chair,c30,0611_cop_dnn_c30_chair_10_n02791124_5401.png,n02791124_5401.png,1.0,1.7020633,0.46766552,0.8728511
alexnet_w1_mlp_simclrhn_probe3,1,612,NaN,boat,boat,c50,0612_cop_dnn_c50_boat_10_n02951358_22332.png,n02951358_22332.png,1.0,5.104656,1.870909,2.2866046
alexnet_w1_mlp_simclrhn_probe3,1,613,NaN,knife,knife,c03,0613_cop_dnn_c03_knife_10_n03041632_11932.png,n03041632_11932.png,1.0,0.43100244,0.1684536,0.18565007
alexnet_w1_mlp_simclrhn_probe3,1,614,NaN,cat,cat,c30,0614_cop_dnn_c30_cat_10_n02123159_5257.png,n02123159_5257.png,1.0,0.9479597,0.22209617,0.51326305
alexnet_w1_mlp_simclrhn_probe3,1,615,NaN,bottle,bottle,c50,0615_cop_dnn_c50_bottle_10_n03983396_105.png,n03983396_105.png,1.0,3.5773761,1.3257993,1.5921053
alexnet_w1_mlp_simclrhn_probe3,1,616,NaN,boat,boat,c50,0616_cop_dnn_c50_boat_10_n04612504_11939.png,n04612504_11939.png,1.0,4.83836,1.492683,2.3657508
alexnet_w1_mlp_simclrhn_probe3,1,617,NaN,boat,boat,c30,0617_cop_dnn_c30_boat_10_n03662601_5575.png,n03662601_5575.png,1.0,1.427641,0.9771364,0.3185549
alexnet_w1_mlp_simclrhn_probe3,1,618,NaN,knife,cat,c05,0618_cop_dnn_c05_cat_10_n02123159_6590.png,n02123159_6590.png,0.0,0.1864944,0.26894322,-0.058300123
alexnet_w1_mlp_simclrhn_probe3,1,619,NaN,bear,bear,c50,0619_cop_dnn_c50_bear_10_n02134084_21462.png,n02134084_21462.png,1.0,0.6415374,0.3547741,0.2027723
alexnet_w1_mlp_simclrhn_probe3,1,620,NaN,knife,cat,c05,0620_cop_dnn_c05_cat_10_n02125311_46330.png,n02125311_46330.png,0.0,0.085772514,0.26250598,-0.12496943
alexnet_w1_mlp_simclrhn_probe3,1,621,NaN,knife,cat,c01,0621_cop_dnn_c01_cat_10_n02123394_4714.png,n02123394_4714.png,0.0,-0.061304364,0.42020863,-0.3404811
alexnet_w1_mlp_simclrhn_probe3,1,622,NaN,knife,knife,c30,0622_cop_dnn_c30_knife_10_n03041632_1671.png,n03041632_1671.png,1.0,0.435564,0.3347647,0.07127588
alexnet_w1_mlp_simclrhn_probe3,1,623,NaN,truck,truck,c50,0623_cop_dnn_c50_truck_10_n04467665_30901.png,n04467665_30901.png,1.0,3.0332031,2.3985002,0.44880274
alexnet_w1_mlp_simclrhn_probe3,1,624,NaN,elephant,dog,c100,0624_cop_dnn_c100_dog_10_n02104029_4704.png,n02104029_4704.png,0.0,1.6024652,5.013687,-2.4120982
alexnet_w1_mlp_simclrhn_probe3,1,625,NaN,keyboard,keyboard,c15,0625_cop_dnn_c15_keyboard_10_n03085013_3665.png,n03085013_3665.png,1.0,1.3246008,0.57834005,0.52768606
alexnet_w1_mlp_simclrhn_probe3,1,626,NaN,knife,bird,c01,0626_cop_dnn_c01_bird_10_n01820546_1616.png,n01820546_1616.png,0.0,-0.06632627,0.3782348,-0.31435215
alexnet_w1_mlp_simclrhn_probe3,1,627,NaN,airplane,keyboard,c30,0627_cop_dnn_c30_keyboard_10_n04505470_8754.png,n04505470_8754.png,0.0,-0.040677257,0.7926725,-0.58926725
