subj,session,trial,rt,object_response,category,condition,imagename,filename,is_correct,targ_act,max_nontarg_act,decision_margin
alexnet_w1_mlp_simclrhn_probe2,1,1,NaN,clock,knife,c30,0001_cop_dnn_c30_knife_10_n03041632_7380.png,n03041632_7380.png,0.0,0.3812167,0.91336274,-0.37628406
alexnet_w1_mlp_simclrhn_probe2,1,2,NaN,bicycle,bicycle,c100,0002_cop_dnn_c100_bicycle_10_n03792782_5966.png,n03792782_5966.png,1.0,2.9428802,0.90376955,1.441869
alexnet_w1_mlp_simclrhn_probe2,1,3,NaN,airplane,bird,c01,0003_cop_dnn_c01_bird_10_n01601694_10802.png,n01601694_10802.png,0.0,-0.07602194,0.3376274,-0.29249427
alexnet_w1_mlp_simclrhn_probe2,1,4,NaN,airplane,airplane,c05,0004_cop_dnn_c05_airplane_10_n02690373_9759.png,n02690373_9759.png,1.0,1.2578924,0.25957882,0.7059143
alexnet_w1_mlp_simclrhn_probe2,1,5,NaN,airplane,car,c03,0005_cop_dnn_c03_car_10_n02814533_2236.png,n02814533_2236.png,0.0,-0.20589928,0.2993388,-0.35725725
alexnet_w1_mlp_simclrhn_probe2,1,6,NaN,chair,chair,c30,0006_cop_dnn_c30_chair_10_n02791124_7207.png,n02791124_7207.png,1.0,0.3548274,-0.19699489,0.3901973
alexnet_w1_mlp_simclrhn_probe2,1,7,NaN,knife,oven,c50,0007_cop_dnn_c50_oven_10_n04111531_7064.png,n04111531_7064.png,0.0,-0.72877765,0.12606475,-0.6044649
alexnet_w1_mlp_simclrhn_probe2,1,8,NaN,bird,bird,c15,0008_cop_dnn_c15_bird_10_n01532829_2263.png,n01532829_2263.png,1.0,-0.2808589,-0.40631098,0.08870801
alexnet_w1_mlp_simclrhn_probe2,1,9,NaN,bicycle,bicycle,c50,0009_cop_dnn_c50_bicycle_10_n02835271_3383.png,n02835271_3383.png,1.0,6.0834,-0.27193195,4.4938984
alexnet_w1_mlp_simclrhn_probe2,1,10,NaN,airplane,bicycle,c03,0010_cop_dnn_c03_bicycle_10_n03792782_27510.png,n03792782_27510.png,0.0,-0.47111374,0.30140898,-0.54625607
alexnet_w1_mlp_simclrhn_probe2,1,11,NaN,knife,bottle,c03,0011_cop_dnn_c03_bottle_10_n04557648_10944.png,n04557648_10944.png,0.0,-0.14972188,0.24914852,-0.28204396
alexnet_w1_mlp_simclrhn_probe2,1,12,NaN,keyboard,keyboard,c15,0012_cop_dnn_c15_keyboard_10_n03085013_20891.png,n03085013_20891.png,1.0,0.56691223,0.22173895,0.24407439
alexnet_w1_mlp_simclrhn_probe2,1,13,NaN,elephant,elephant,c30,0013_cop_dnn_c30_elephant_10_n02504458_3225.png,n02504458_3225.png,1.0,3.330573,0.78713775,1.7984804
alexnet_w1_mlp_simclrhn_probe2,1,14,NaN,keyboard,keyboard,c10,0014_cop_dnn_c10_keyboard_10_n04505470_6638.png,n04505470_6638.png,1.0,1.3790135,0.20803821,0.8280046
alexnet_w1_mlp_simclrhn_probe2,1,15,NaN,airplane,bird,c01,0015_cop_dnn_c01_bird_10_n01601694_11888.png,n01601694_11888.png,0.0,-0.103373915,0.3818823,-0.34312797
alexnet_w1_mlp_simclrhn_probe2,1,16,NaN,airplane,airplane,c03,0016_cop_dnn_c03_airplane_10_n02690373_8743.png,n02690373_8743.png,1.0,0.8487943,-0.12997411,0.6920938
alexnet_w1_mlp_simclrhn_probe2,1,17,NaN,airplane,boat,c10,0017_cop_dnn_c10_boat_10_n03344393_8869.png,n03344393_8869.png,0.0,0.7735238,0.8278936,-0.03844526
alexnet_w1_mlp_simclrhn_probe2,1,18,NaN,airplane,bear,c01,0018_cop_dnn_c01_bear_10_n02132136_27682.png,n02132136_27682.png,0.0,-0.13392079,0.32291043,-0.32302845
alexnet_w1_mlp_simclrhn_probe2,1,19,NaN,bicycle,clock,c50,0019_cop_dnn_c50_clock_10_n02708093_7081.png,n02708093_7081.png,0.0,-2.6244686,-0.6243636,-1.4142878
alexnet_w1_mlp_simclrhn_probe2,1,20,NaN,car,car,c10,0020_cop_dnn_c10_car_10_n03100240_12141.png,n03100240_12141.png,1.0,0.8532972,0.3212387,0.37622216
alexnet_w1_mlp_simclrhn_probe2,1,21,NaN,airplane,car,c15,0021_cop_dnn_c15_car_10_n02814533_19287.png,n02814533_19287.png,0.0,-0.075295396,1.0889059,-0.8232147
alexnet_w1_mlp_simclrhn_probe2,1,22,NaN,bicycle,bicycle,c03,0022_cop_dnn_c03_bicycle_10_n02835271_3841.png,n02835271_3841.png,1.0,0.38657263,0.013338585,0.2639163
alexnet_w1_mlp_simclrhn_probe2,1,23,NaN,clock,clock,c15,0023_cop_dnn_c15_clock_10_n02708093_6696.png,n02708093_6696.png,1.0,1.4940344,-0.37094057,1.3187364
alexnet_w1_mlp_simclrhn_probe2,1,24,NaN,airplane,bird,c01,0024_cop_dnn_c01_bird_10_n01829413_6393.png,n01829413_6393.png,0.0,-0.20301564,0.09262869,-0.20905213
alexnet_w1_mlp_simclrhn_probe2,1,25,NaN,airplane,clock,c01,0025_cop_dnn_c01_clock_10_n02708093_3484.png,n02708093_3484.png,0.0,0.1552101,0.16437066,-0.0064774966
alexnet_w1_mlp_simclrhn_probe2,1,26,NaN,chair,chair,c05,0026_cop_dnn_c05_chair_10_n04429376_55163.png,n04429376_55163.png,1.0,0.15013275,0.058807828,0.06457647
alexnet_w1_mlp_simclrhn_probe2,1,27,NaN,boat,boat,c100,0027_cop_dnn_c100_boat_10_n02951358_14528.png,n02951358_14528.png,1.0,0.44328937,-1.0865043,1.0817275
alexnet_w1_mlp_simclrhn_probe2,1,28,NaN,airplane,chair,c01,0028_cop_dnn_c01_chair_10_n03376595_9603.png,n03376595_9603.png,0.0,-0.3315717,0.38981012,-0.510094
alexnet_w1_mlp_simclrhn_probe2,1,29,NaN,airplane,bottle,c03,0029_cop_dnn_c03_bottle_10_n03937543_1840.png,n03937543_1840.png,0.0,-0.31325245,0.08584659,-0.28220564
alexnet_w1_mlp_simclrhn_probe2,1,30,NaN,knife,car,c01,0030_cop_dnn_c01_car_10_n02814533_32835.png,n02814533_32835.png,0.0,-0.4120361,0.20971029,-0.4396411
alexnet_w1_mlp_simclrhn_probe2,1,31,NaN,elephant,bird,c15,0031_cop_dnn_c15_bird_10_n01860187_38598.png,n01860187_38598.png,0.0,-0.26649395,-0.13362005,-0.09395603
alexnet_w1_mlp_simclrhn_probe2,1,32,NaN,airplane,airplane,c100,0032_cop_dnn_c100_airplane_10_n02690373_9322.png,n02690373_9322.png,1.0,8.074963,3.3793485,3.3203003
alexnet_w1_mlp_simclrhn_probe2,1,33,NaN,airplane,bicycle,c01,0033_cop_dnn_c01_bicycle_10_n02835271_1505.png,n02835271_1505.png,0.0,-0.44976526,0.27546626,-0.51281613
alexnet_w1_mlp_simclrhn_probe2,1,34,NaN,bicycle,bicycle,c50,0034_cop_dnn_c50_bicycle_10_n03792782_11023.png,n03792782_11023.png,1.0,0.6220063,0.33011398,0.20639904
alexnet_w1_mlp_simclrhn_probe2,1,35,NaN,elephant,elephant,c50,0035_cop_dnn_c50_elephant_10_n02504458_4909.png,n02504458_4909.png,1.0,5.5614114,0.6146521,3.4978871
alexnet_w1_mlp_simclrhn_probe2,1,36,NaN,boat,boat,c100,0036_cop_dnn_c100_boat_10_n03344393_646.png,n03344393_646.png,1.0,8.276098,2.4486735,4.1206117
alexnet_w1_mlp_simclrhn_probe2,1,37,NaN,boat,boat,c10,0037_cop_dnn_c10_boat_10_n04612504_2472.png,n04612504_2472.png,1.0,1.5930933,0.3678017,0.86641204
alexnet_w1_mlp_simclrhn_probe2,1,38,NaN,knife,keyboard,c03,0038_cop_dnn_c03_keyboard_10_n03085013_4673.png,n03085013_4673.png,0.0,0.16742095,0.23764801,-0.04965803
alexnet_w1_mlp_simclrhn_probe2,1,39,NaN,elephant,elephant,c100,0039_cop_dnn_c100_elephant_10_n02504458_1138.png,n02504458_1138.png,1.0,6.6066155,1.0908229,3.9002545
alexnet_w1_mlp_simclrhn_probe2,1,40,NaN,car,car,c100,0040_cop_dnn_c100_car_10_n03100240_5569.png,n03100240_5569.png,1.0,3.7613003,1.2873104,1.7493751
alexnet_w1_mlp_simclrhn_probe2,1,41,NaN,dog,dog,c100,0041_cop_dnn_c100_dog_10_n02107312_7422.png,n02107312_7422.png,1.0,-0.92013794,-1.1314015,0.14938593
alexnet_w1_mlp_simclrhn_probe2,1,42,NaN,bear,bear,c15,0042_cop_dnn_c15_bear_10_n02134084_24140.png,n02134084_24140.png,1.0,0.20176582,0.11465618,0.06159582
alexnet_w1_mlp_simclrhn_probe2,1,43,NaN,bottle,bottle,c100,0043_cop_dnn_c100_bottle_10_n04560804_14130.png,n04560804_14130.png,1.0,3.1643028,1.4562881,1.2077488
alexnet_w1_mlp_simclrhn_probe2,1,44,NaN,cat,cat,c30,0044_cop_dnn_c30_cat_10_n02124075_11970.png,n02124075_11970.png,1.0,1.8313192,-1.3109708,2.2219348
alexnet_w1_mlp_simclrhn_probe2,1,45,NaN,airplane,dog,c03,0045_cop_dnn_c03_dog_10_n02093991_247.png,n02093991_247.png,0.0,-0.46411246,-0.08367464,-0.26901016
alexnet_w1_mlp_simclrhn_probe2,1,46,NaN,keyboard,keyboard,c100,0046_cop_dnn_c100_keyboard_10_n04505470_375.png,n04505470_375.png,1.0,10.822411,0.8463063,7.0541716
alexnet_w1_mlp_simclrhn_probe2,1,47,NaN,bear,bear,c100,0047_cop_dnn_c100_bear_10_n02134418_4372.png,n02134418_4372.png,1.0,3.7907424,0.24060057,2.5103295
alexnet_w1_mlp_simclrhn_probe2,1,48,NaN,airplane,boat,c01,0048_cop_dnn_c01_boat_10_n03344393_2838.png,n03344393_2838.png,0.0,-0.09227625,0.30067578,-0.27785903
alexnet_w1_mlp_simclrhn_probe2,1,49,NaN,clock,bicycle,c05,0049_cop_dnn_c05_bicycle_10_n02835271_4935.png,n02835271_4935.png,0.0,-0.36340988,-0.068665445,-0.20841579
alexnet_w1_mlp_simclrhn_probe2,1,50,NaN,airplane,airplane,c50,0050_cop_dnn_c50_airplane_10_n02690373_5382.png,n02690373_5382.png,1.0,4.321195,0.7934302,2.4945064
alexnet_w1_mlp_simclrhn_probe2,1,51,NaN,knife,bottle,c100,0051_cop_dnn_c100_bottle_10_n03937543_2123.png,n03937543_2123.png,0.0,-1.4187057,-0.34263447,-0.7608973
alexnet_w1_mlp_simclrhn_probe2,1,52,NaN,dog,dog,c30,0052_cop_dnn_c30_dog_10_n02097474_5234.png,n02097474_5234.png,1.0,0.5363658,-0.1239866,0.4669397
alexnet_w1_mlp_simclrhn_probe2,1,53,NaN,keyboard,bottle,c100,0053_cop_dnn_c100_bottle_10_n02823428_6050.png,n02823428_6050.png,0.0,0.12705281,4.0537148,-2.7765694
alexnet_w1_mlp_simclrhn_probe2,1,54,NaN,clock,clock,c15,0054_cop_dnn_c15_clock_10_n02708093_3743.png,n02708093_3743.png,1.0,0.37009135,0.30447036,0.046401046
alexnet_w1_mlp_simclrhn_probe2,1,55,NaN,knife,knife,c03,0055_cop_dnn_c03_knife_10_n03041632_55083.png,n03041632_55083.png,1.0,0.26551992,0.2118317,0.0379633
alexnet_w1_mlp_simclrhn_probe2,1,56,NaN,knife,knife,c50,0056_cop_dnn_c50_knife_10_n03041632_41310.png,n03041632_41310.png,1.0,2.2042644,-0.20168097,1.7012602
alexnet_w1_mlp_simclrhn_probe2,1,57,NaN,knife,knife,c03,0057_cop_dnn_c03_knife_10_n03041632_99799.png,n03041632_99799.png,1.0,0.14798486,-0.024301797,0.12182507
alexnet_w1_mlp_simclrhn_probe2,1,58,NaN,dog,dog,c15,0058_cop_dnn_c15_dog_10_n02094114_8231.png,n02094114_8231.png,1.0,-0.12800726,-0.68015844,0.39042985
alexnet_w1_mlp_simclrhn_probe2,1,59,NaN,airplane,chair,c01,0059_cop_dnn_c01_chair_10_n03376595_6173.png,n03376595_6173.png,0.0,-0.2791162,0.32639274,-0.42815948
alexnet_w1_mlp_simclrhn_probe2,1,60,NaN,airplane,oven,c05,0060_cop_dnn_c05_oven_10_n04111531_9297.png,n04111531_9297.png,0.0,-0.44470653,0.17257175,-0.43648165
alexnet_w1_mlp_simclrhn_probe2,1,61,NaN,car,car,c10,0061_cop_dnn_c10_car_10_n03100240_24420.png,n03100240_24420.png,1.0,0.3044174,0.25840744,0.032533955
alexnet_w1_mlp_simclrhn_probe2,1,62,NaN,elephant,elephant,c100,0062_cop_dnn_c100_elephant_10_n02504013_2340.png,n02504013_2340.png,1.0,19.317554,4.9802065,10.138036
alexnet_w1_mlp_simclrhn_probe2,1,63,NaN,airplane,bicycle,c05,0063_cop_dnn_c05_bicycle_10_n02835271_10104.png,n02835271_10104.png,0.0,-0.15349138,0.31572324,-0.33178484
alexnet_w1_mlp_simclrhn_probe2,1,64,NaN,knife,bicycle,c15,0064_cop_dnn_c15_bicycle_10_n03792782_7165.png,n03792782_7165.png,0.0,-0.39101595,-0.31849927,-0.051277038
alexnet_w1_mlp_simclrhn_probe2,1,65,NaN,knife,knife,c10,0065_cop_dnn_c10_knife_10_n03041632_14817.png,n03041632_14817.png,1.0,0.10582452,0.09550025,0.007300361
alexnet_w1_mlp_simclrhn_probe2,1,66,NaN,clock,clock,c15,0066_cop_dnn_c15_clock_10_n02708093_118.png,n02708093_118.png,1.0,0.9683936,-0.6434279,1.13973
alexnet_w1_mlp_simclrhn_probe2,1,67,NaN,airplane,airplane,c10,0067_cop_dnn_c10_airplane_10_n02690373_4298.png,n02690373_4298.png,1.0,2.1758375,-0.033092715,1.5619496
alexnet_w1_mlp_simclrhn_probe2,1,68,NaN,knife,knife,c100,0068_cop_dnn_c100_knife_10_n03041632_50034.png,n03041632_50034.png,1.0,3.7382364,0.63870436,2.1917002
alexnet_w1_mlp_simclrhn_probe2,1,69,NaN,knife,chair,c03,0069_cop_dnn_c03_chair_10_n02791124_1333.png,n02791124_1333.png,0.0,-0.5864793,-0.04345181,-0.38397846
alexnet_w1_mlp_simclrhn_probe2,1,70,NaN,clock,clock,c01,0070_cop_dnn_c01_clock_10_n02708093_2318.png,n02708093_2318.png,1.0,0.485369,-0.09744617,0.41211256
alexnet_w1_mlp_simclrhn_probe2,1,71,NaN,airplane,elephant,c01,0071_cop_dnn_c01_elephant_10_n02504013_3864.png,n02504013_3864.png,0.0,-0.24183027,0.31597084,-0.39442497
alexnet_w1_mlp_simclrhn_probe2,1,72,NaN,chair,chair,c10,0072_cop_dnn_c10_chair_10_n04429376_56624.png,n04429376_56624.png,1.0,0.085850894,-0.008692721,0.06685243
alexnet_w1_mlp_simclrhn_probe2,1,73,NaN,airplane,airplane,c30,0073_cop_dnn_c30_airplane_10_n02690373_7004.png,n02690373_7004.png,1.0,2.3880534,0.021076046,1.6737058
alexnet_w1_mlp_simclrhn_probe2,1,74,NaN,oven,oven,c30,0074_cop_dnn_c30_oven_10_n04111531_9692.png,n04111531_9692.png,1.0,1.1482134,-0.911753,1.4566162
alexnet_w1_mlp_simclrhn_probe2,1,75,NaN,car,truck,c50,0075_cop_dnn_c50_truck_10_n03796401_296.png,n03796401_296.png,0.0,1.2118266,1.5924257,-0.26912424
alexnet_w1_mlp_simclrhn_probe2,1,76,NaN,airplane,airplane,c15,0076_cop_dnn_c15_airplane_10_n02690373_1837.png,n02690373_1837.png,1.0,0.63840425,0.043022834,0.42099825
alexnet_w1_mlp_simclrhn_probe2,1,77,NaN,airplane,airplane,c03,0077_cop_dnn_c03_airplane_10_n02690373_10203.png,n02690373_10203.png,1.0,0.5890122,0.20989895,0.26807356
alexnet_w1_mlp_simclrhn_probe2,1,78,NaN,airplane,boat,c03,0078_cop_dnn_c03_boat_10_n02951358_34234.png,n02951358_34234.png,0.0,0.0031018346,0.31971878,-0.223882
alexnet_w1_mlp_simclrhn_probe2,1,79,NaN,bicycle,bicycle,c100,0079_cop_dnn_c100_bicycle_10_n02835271_2885.png,n02835271_2885.png,1.0,3.358332,1.4094846,1.3780432
alexnet_w1_mlp_simclrhn_probe2,1,80,NaN,airplane,airplane,c30,0080_cop_dnn_c30_airplane_10_n02690373_5247.png,n02690373_5247.png,1.0,2.8422065,0.29189473,1.8033428
alexnet_w1_mlp_simclrhn_probe2,1,81,NaN,clock,clock,c50,0081_cop_dnn_c50_clock_10_n02708093_596.png,n02708093_596.png,1.0,4.0656943,-0.54491025,3.26019
alexnet_w1_mlp_simclrhn_probe2,1,82,NaN,airplane,chair,c01,0082_cop_dnn_c01_chair_10_n03376595_1364.png,n03376595_1364.png,0.0,-0.2635516,0.29432994,-0.3944818
alexnet_w1_mlp_simclrhn_probe2,1,83,NaN,clock,cat,c03,0083_cop_dnn_c03_cat_10_n02124075_12430.png,n02124075_12430.png,0.0,-0.4031887,-0.0015870134,-0.2839753
alexnet_w1_mlp_simclrhn_probe2,1,84,NaN,cat,cat,c05,0084_cop_dnn_c05_cat_10_n02123159_5487.png,n02123159_5487.png,1.0,-0.087203085,-0.1889121,0.07191913
alexnet_w1_mlp_simclrhn_probe2,1,85,NaN,bicycle,bicycle,c50,0085_cop_dnn_c50_bicycle_10_n03792782_17571.png,n03792782_17571.png,1.0,2.6879568,-0.40651947,2.1881251
alexnet_w1_mlp_simclrhn_probe2,1,86,NaN,cat,cat,c50,0086_cop_dnn_c50_cat_10_n02123159_6132.png,n02123159_6132.png,1.0,2.9627302,-2.4920921,3.857142
alexnet_w1_mlp_simclrhn_probe2,1,87,NaN,airplane,bottle,c05,0087_cop_dnn_c05_bottle_10_n03937543_2873.png,n03937543_2873.png,0.0,-0.22667323,0.017333671,-0.17253894
alexnet_w1_mlp_simclrhn_probe2,1,88,NaN,bottle,keyboard,c15,0088_cop_dnn_c15_keyboard_10_n04505470_1236.png,n04505470_1236.png,0.0,-0.27946186,0.4630787,-0.5250555
alexnet_w1_mlp_simclrhn_probe2,1,89,NaN,airplane,airplane,c01,0089_cop_dnn_c01_airplane_10_n02690373_4243.png,n02690373_4243.png,1.0,0.41894025,0.082634754,0.2378039
alexnet_w1_mlp_simclrhn_probe2,1,90,NaN,oven,oven,c30,0090_cop_dnn_c30_oven_10_n04111531_467.png,n04111531_467.png,1.0,0.4103853,-0.57228035,0.69484955
alexnet_w1_mlp_simclrhn_probe2,1,91,NaN,knife,cat,c03,0091_cop_dnn_c03_cat_10_n02123394_2632.png,n02123394_2632.png,0.0,-0.19255404,-0.09273705,-0.07058127
alexnet_w1_mlp_simclrhn_probe2,1,92,NaN,chair,chair,c15,0092_cop_dnn_c15_chair_10_n02791124_5268.png,n02791124_5268.png,1.0,-0.008568756,-0.042367324,0.023899198
alexnet_w1_mlp_simclrhn_probe2,1,93,NaN,knife,knife,c100,0093_cop_dnn_c100_knife_10_n03041632_1143.png,n03041632_1143.png,1.0,-0.29253042,-0.45063582,0.11179741
alexnet_w1_mlp_simclrhn_probe2,1,94,NaN,chair,chair,c10,0094_cop_dnn_c10_chair_10_n02791124_1018.png,n02791124_1018.png,1.0,0.09227937,0.017228995,0.053068627
alexnet_w1_mlp_simclrhn_probe2,1,95,NaN,knife,bicycle,c05,0095_cop_dnn_c05_bicycle_10_n03792782_8057.png,n03792782_8057.png,0.0,-0.46953958,-0.16019,-0.2187432
alexnet_w1_mlp_simclrhn_probe2,1,96,NaN,bear,bear,c30,0096_cop_dnn_c30_bear_10_n02132136_1338.png,n02132136_1338.png,1.0,2.0218005,0.792845,0.86900276
alexnet_w1_mlp_simclrhn_probe2,1,97,NaN,clock,clock,c05,0097_cop_dnn_c05_clock_10_n02708093_4798.png,n02708093_4798.png,1.0,1.4413296,-0.15587214,1.1293921
alexnet_w1_mlp_simclrhn_probe2,1,98,NaN,airplane,truck,c01,0098_cop_dnn_c01_truck_10_n03796401_15046.png,n03796401_15046.png,0.0,-0.5119549,0.29853562,-0.5731033
alexnet_w1_mlp_simclrhn_probe2,1,99,NaN,knife,knife,c50,0099_cop_dnn_c50_knife_10_n03041632_13612.png,n03041632_13612.png,1.0,0.51309407,-1.3490192,1.316713
alexnet_w1_mlp_simclrhn_probe2,1,100,NaN,oven,oven,c10,0100_cop_dnn_c10_oven_10_n04111531_1898.png,n04111531_1898.png,1.0,0.7592931,0.08883646,0.47408444
alexnet_w1_mlp_simclrhn_probe2,1,101,NaN,airplane,truck,c03,0101_cop_dnn_c03_truck_10_n04467665_28988.png,n04467665_28988.png,0.0,-0.13577776,0.19255993,-0.23216979
alexnet_w1_mlp_simclrhn_probe2,1,102,NaN,airplane,airplane,c100,0102_cop_dnn_c100_airplane_10_n02690373_736.png,n02690373_736.png,1.0,13.292506,2.7406259,7.461306
alexnet_w1_mlp_simclrhn_probe2,1,103,NaN,dog,dog,c50,0103_cop_dnn_c50_dog_10_n02111500_5154.png,n02111500_5154.png,1.0,1.043527,-1.9190904,2.0948868
alexnet_w1_mlp_simclrhn_probe2,1,104,NaN,elephant,bear,c50,0104_cop_dnn_c50_bear_10_n02133161_13461.png,n02133161_13461.png,0.0,-0.7579607,-0.31800807,-0.31109348
alexnet_w1_mlp_simclrhn_probe2,1,105,NaN,bear,dog,c15,0105_cop_dnn_c15_dog_10_n02102318_11746.png,n02102318_11746.png,0.0,-0.2617714,-0.035806194,-0.15978155
alexnet_w1_mlp_simclrhn_probe2,1,106,NaN,boat,boat,c50,0106_cop_dnn_c50_boat_10_n03662601_12226.png,n03662601_12226.png,1.0,3.4501424,1.1623735,1.6176969
alexnet_w1_mlp_simclrhn_probe2,1,107,NaN,keyboard,keyboard,c05,0107_cop_dnn_c05_keyboard_10_n04505470_3207.png,n04505470_3207.png,1.0,0.52541995,0.10930559,0.2942373
alexnet_w1_mlp_simclrhn_probe2,1,108,NaN,bicycle,bicycle,c30,0108_cop_dnn_c30_bicycle_10_n03792782_2628.png,n03792782_2628.png,1.0,3.3587098,-0.6128639,2.8083267
alexnet_w1_mlp_simclrhn_probe2,1,109,NaN,airplane,chair,c01,0109_cop_dnn_c01_chair_10_n02791124_3204.png,n02791124_3204.png,0.0,-0.242482,0.23976436,-0.3409997
alexnet_w1_mlp_simclrhn_probe2,1,110,NaN,bottle,bottle,c03,0110_cop_dnn_c03_bottle_10_n04560804_722.png,n04560804_722.png,1.0,0.074401274,-0.020496713,0.06710301
alexnet_w1_mlp_simclrhn_probe2,1,111,NaN,bicycle,bicycle,c30,0111_cop_dnn_c30_bicycle_10_n03792782_8847.png,n03792782_8847.png,1.0,1.2545052,-0.57698774,1.2950611
alexnet_w1_mlp_simclrhn_probe2,1,112,NaN,bear,bear,c50,0112_cop_dnn_c50_bear_10_n02132136_1132.png,n02132136_1132.png,1.0,1.1366293,-0.54516,1.1892047
alexnet_w1_mlp_simclrhn_probe2,1,113,NaN,knife,knife,c50,0113_cop_dnn_c50_knife_10_n03041632_6557.png,n03041632_6557.png,1.0,0.34043646,-1.2791736,1.1452373
alexnet_w1_mlp_simclrhn_probe2,1,114,NaN,oven,knife,c100,0114_cop_dnn_c100_knife_10_n03041632_35116.png,n03041632_35116.png,0.0,0.2583974,1.6556528,-0.9880088
alexnet_w1_mlp_simclrhn_probe2,1,115,NaN,car,car,c15,0115_cop_dnn_c15_car_10_n02814533_3117.png,n02814533_3117.png,1.0,0.8931825,0.5122488,0.2693608
alexnet_w1_mlp_simclrhn_probe2,1,116,NaN,bear,bird,c15,0116_cop_dnn_c15_bird_10_n02009229_4224.png,n02009229_4224.png,0.0,-0.59032524,-0.40615964,-0.13022475
alexnet_w1_mlp_simclrhn_probe2,1,117,NaN,bicycle,chair,c50,0117_cop_dnn_c50_chair_10_n03376595_9247.png,n03376595_9247.png,0.0,-0.16689318,0.50485533,-0.47499794
alexnet_w1_mlp_simclrhn_probe2,1,118,NaN,airplane,boat,c01,0118_cop_dnn_c01_boat_10_n03662601_5639.png,n03662601_5639.png,0.0,0.05670362,0.5267335,-0.33236134
alexnet_w1_mlp_simclrhn_probe2,1,119,NaN,airplane,bicycle,c10,0119_cop_dnn_c10_bicycle_10_n02835271_13437.png,n02835271_13437.png,0.0,-0.082802795,0.123032734,-0.14554769
alexnet_w1_mlp_simclrhn_probe2,1,120,NaN,airplane,bicycle,c05,0120_cop_dnn_c05_bicycle_10_n03792782_18294.png,n03792782_18294.png,0.0,-0.19038819,0.17449635,-0.25801235
alexnet_w1_mlp_simclrhn_probe2,1,121,NaN,airplane,boat,c03,0121_cop_dnn_c03_boat_10_n02951358_10488.png,n02951358_10488.png,0.0,0.12344494,0.3721593,-0.17586762
alexnet_w1_mlp_simclrhn_probe2,1,122,NaN,airplane,bird,c50,0122_cop_dnn_c50_bird_10_n01829413_14594.png,n01829413_14594.png,0.0,0.6683517,0.98612106,-0.22469686
alexnet_w1_mlp_simclrhn_probe2,1,123,NaN,keyboard,clock,c100,0123_cop_dnn_c100_clock_10_n03196217_9197.png,n03196217_9197.png,0.0,0.24984683,1.4492277,-0.84809035
alexnet_w1_mlp_simclrhn_probe2,1,124,NaN,boat,boat,c15,0124_cop_dnn_c15_boat_10_n03662601_1667.png,n03662601_1667.png,1.0,0.3906989,-0.07167276,0.32694614
alexnet_w1_mlp_simclrhn_probe2,1,125,NaN,elephant,dog,c50,0125_cop_dnn_c50_dog_10_n02092339_6946.png,n02092339_6946.png,0.0,0.038797807,0.11659676,-0.055012163
alexnet_w1_mlp_simclrhn_probe2,1,126,NaN,airplane,airplane,c05,0126_cop_dnn_c05_airplane_10_n02690373_1773.png,n02690373_1773.png,1.0,0.52070624,-0.111775294,0.44723198
alexnet_w1_mlp_simclrhn_probe2,1,127,NaN,bicycle,elephant,c50,0127_cop_dnn_c50_elephant_10_n02504013_4278.png,n02504013_4278.png,0.0,-0.26851338,-0.15922111,-0.0772813
alexnet_w1_mlp_simclrhn_probe2,1,128,NaN,bird,bird,c100,0128_cop_dnn_c100_bird_10_n02025239_10194.png,n02025239_10194.png,1.0,4.449369,-5.3089814,6.900196
alexnet_w1_mlp_simclrhn_probe2,1,129,NaN,oven,oven,c15,0129_cop_dnn_c15_oven_10_n04111531_1977.png,n04111531_1977.png,1.0,0.62813675,-0.51593244,0.8089791
alexnet_w1_mlp_simclrhn_probe2,1,130,NaN,truck,clock,c50,0130_cop_dnn_c50_clock_10_n02708093_616.png,n02708093_616.png,0.0,-0.15308106,0.33952308,-0.34832373
alexnet_w1_mlp_simclrhn_probe2,1,131,NaN,airplane,boat,c10,0131_cop_dnn_c10_boat_10_n04273569_10292.png,n04273569_10292.png,0.0,0.5175762,1.0869659,-0.40261933
alexnet_w1_mlp_simclrhn_probe2,1,132,NaN,cat,cat,c50,0132_cop_dnn_c50_cat_10_n02123394_8592.png,n02123394_8592.png,1.0,1.4136577,-0.26408866,1.1863458
alexnet_w1_mlp_simclrhn_probe2,1,133,NaN,knife,knife,c10,0133_cop_dnn_c10_knife_10_n03041632_16020.png,n03041632_16020.png,1.0,0.14457493,-0.47213092,0.43607688
alexnet_w1_mlp_simclrhn_probe2,1,134,NaN,cat,cat,c30,0134_cop_dnn_c30_cat_10_n02123394_5466.png,n02123394_5466.png,1.0,0.8377057,-0.28131485,0.791267
alexnet_w1_mlp_simclrhn_probe2,1,135,NaN,airplane,elephant,c01,0135_cop_dnn_c01_elephant_10_n02504013_7351.png,n02504013_7351.png,0.0,-0.23679423,0.3518423,-0.4162289
alexnet_w1_mlp_simclrhn_probe2,1,136,NaN,oven,oven,c50,0136_cop_dnn_c50_oven_10_n04111531_22388.png,n04111531_22388.png,1.0,0.15417227,-1.0120385,0.82463557
alexnet_w1_mlp_simclrhn_probe2,1,137,NaN,bottle,chair,c100,0137_cop_dnn_c100_chair_10_n04429376_6308.png,n04429376_6308.png,0.0,0.08351493,1.6569204,-1.1125658
alexnet_w1_mlp_simclrhn_probe2,1,138,NaN,car,car,c10,0138_cop_dnn_c10_car_10_n03100240_8443.png,n03100240_8443.png,1.0,2.7395344,1.3719983,0.96699405
alexnet_w1_mlp_simclrhn_probe2,1,139,NaN,car,car,c100,0139_cop_dnn_c100_car_10_n04285008_12446.png,n04285008_12446.png,1.0,8.047362,3.344221,3.325623
alexnet_w1_mlp_simclrhn_probe2,1,140,NaN,keyboard,keyboard,c01,0140_cop_dnn_c01_keyboard_10_n04505470_4440.png,n04505470_4440.png,1.0,0.2597564,0.22013351,0.028017603
alexnet_w1_mlp_simclrhn_probe2,1,141,NaN,car,car,c10,0141_cop_dnn_c10_car_10_n04285008_10073.png,n04285008_10073.png,1.0,0.32823256,0.08703655,0.17055133
alexnet_w1_mlp_simclrhn_probe2,1,142,NaN,airplane,bottle,c03,0142_cop_dnn_c03_bottle_10_n03983396_7378.png,n03983396_7378.png,0.0,-0.25699335,0.16483033,-0.2982744
alexnet_w1_mlp_simclrhn_probe2,1,143,NaN,knife,chair,c15,0143_cop_dnn_c15_chair_10_n02791124_5706.png,n02791124_5706.png,0.0,0.042112336,0.063894965,-0.015402645
alexnet_w1_mlp_simclrhn_probe2,1,144,NaN,cat,cat,c15,0144_cop_dnn_c15_cat_10_n02123045_11224.png,n02123045_11224.png,1.0,1.8114899,-0.44295344,1.5941323
alexnet_w1_mlp_simclrhn_probe2,1,145,NaN,chair,chair,c05,0145_cop_dnn_c05_chair_10_n03376595_8953.png,n03376595_8953.png,1.0,0.20480302,0.106468335,0.069533125
alexnet_w1_mlp_simclrhn_probe2,1,146,NaN,bicycle,bicycle,c50,0146_cop_dnn_c50_bicycle_10_n03792782_66048.png,n03792782_66048.png,1.0,4.134455,0.46829635,2.592366
alexnet_w1_mlp_simclrhn_probe2,1,147,NaN,airplane,dog,c01,0147_cop_dnn_c01_dog_10_n02104365_1123.png,n02104365_1123.png,0.0,-0.55800486,0.28059506,-0.5929797
alexnet_w1_mlp_simclrhn_probe2,1,148,NaN,clock,clock,c05,0148_cop_dnn_c05_clock_10_n03196217_3605.png,n03196217_3605.png,1.0,0.34149662,0.31881326,0.016039552
alexnet_w1_mlp_simclrhn_probe2,1,149,NaN,knife,knife,c10,0149_cop_dnn_c10_knife_10_n03041632_14916.png,n03041632_14916.png,1.0,0.33968592,-0.5187255,0.60698855
alexnet_w1_mlp_simclrhn_probe2,1,150,NaN,bear,bear,c10,0150_cop_dnn_c10_bear_10_n02132136_4101.png,n02132136_4101.png,1.0,0.46524015,0.15063378,0.2224603
alexnet_w1_mlp_simclrhn_probe2,1,151,NaN,clock,clock,c01,0151_cop_dnn_c01_clock_10_n02708093_7929.png,n02708093_7929.png,1.0,0.11710238,-0.10201469,0.15493917
alexnet_w1_mlp_simclrhn_probe2,1,152,NaN,chair,chair,c50,0152_cop_dnn_c50_chair_10_n02791124_7630.png,n02791124_7630.png,1.0,1.349344,-0.3901873,1.2300344
alexnet_w1_mlp_simclrhn_probe2,1,153,NaN,clock,clock,c05,0153_cop_dnn_c05_clock_10_n02708093_3750.png,n02708093_3750.png,1.0,0.37936082,-0.32850128,0.5005341
alexnet_w1_mlp_simclrhn_probe2,1,154,NaN,airplane,bird,c01,0154_cop_dnn_c01_bird_10_n02037110_12288.png,n02037110_12288.png,0.0,-0.1395409,0.38652152,-0.3719823
alexnet_w1_mlp_simclrhn_probe2,1,155,NaN,keyboard,keyboard,c05,0155_cop_dnn_c05_keyboard_10_n04505470_6080.png,n04505470_6080.png,1.0,0.8081696,0.3177962,0.34674636
alexnet_w1_mlp_simclrhn_probe2,1,156,NaN,keyboard,keyboard,c100,0156_cop_dnn_c100_keyboard_10_n03085013_19065.png,n03085013_19065.png,1.0,8.964741,0.930346,5.681175
alexnet_w1_mlp_simclrhn_probe2,1,157,NaN,cat,cat,c10,0157_cop_dnn_c10_cat_10_n02123159_4856.png,n02123159_4856.png,1.0,0.21753179,-0.3997932,0.4365147
alexnet_w1_mlp_simclrhn_probe2,1,158,NaN,clock,chair,c01,0158_cop_dnn_c01_chair_10_n04099969_6913.png,n04099969_6913.png,0.0,-0.21207137,0.23804449,-0.31827998
alexnet_w1_mlp_simclrhn_probe2,1,159,NaN,knife,knife,c30,0159_cop_dnn_c30_knife_10_n03041632_35764.png,n03041632_35764.png,1.0,0.16330187,0.055577863,0.07617238
alexnet_w1_mlp_simclrhn_probe2,1,160,NaN,truck,truck,c30,0160_cop_dnn_c30_truck_10_n03796401_3012.png,n03796401_3012.png,1.0,2.1588993,2.010269,0.105097555
alexnet_w1_mlp_simclrhn_probe2,1,161,NaN,elephant,elephant,c10,0161_cop_dnn_c10_elephant_10_n02504013_3821.png,n02504013_3821.png,1.0,0.978567,0.04283274,0.66166407
alexnet_w1_mlp_simclrhn_probe2,1,162,NaN,truck,truck,c100,0162_cop_dnn_c100_truck_10_n03796401_3608.png,n03796401_3608.png,1.0,0.41784996,0.4036002,0.01007611
alexnet_w1_mlp_simclrhn_probe2,1,163,NaN,chair,chair,c15,0163_cop_dnn_c15_chair_10_n04099969_13811.png,n04099969_13811.png,1.0,1.1474195,-0.09794623,0.8806065
alexnet_w1_mlp_simclrhn_probe2,1,164,NaN,bear,bear,c50,0164_cop_dnn_c50_bear_10_n02133161_4954.png,n02133161_4954.png,1.0,1.0988156,-0.06686674,0.8242619
alexnet_w1_mlp_simclrhn_probe2,1,165,NaN,dog,dog,c15,0165_cop_dnn_c15_dog_10_n02085782_6792.png,n02085782_6792.png,1.0,0.13011158,-0.7284517,0.60709596
alexnet_w1_mlp_simclrhn_probe2,1,166,NaN,airplane,oven,c05,0166_cop_dnn_c05_oven_10_n04111531_22886.png,n04111531_22886.png,0.0,-0.09396498,0.17020777,-0.18679833
alexnet_w1_mlp_simclrhn_probe2,1,167,NaN,elephant,dog,c05,0167_cop_dnn_c05_dog_10_n02091831_510.png,n02091831_510.png,0.0,-0.63168883,-0.092272714,-0.3814248
alexnet_w1_mlp_simclrhn_probe2,1,168,NaN,bear,bear,c15,0168_cop_dnn_c15_bear_10_n02132136_11339.png,n02132136_11339.png,1.0,0.17552067,-0.110363595,0.2021507
alexnet_w1_mlp_simclrhn_probe2,1,169,NaN,keyboard,bottle,c15,0169_cop_dnn_c15_bottle_10_n04557648_2709.png,n04557648_2709.png,0.0,-0.0706224,0.9406297,-0.7150633
alexnet_w1_mlp_simclrhn_probe2,1,170,NaN,knife,keyboard,c03,0170_cop_dnn_c03_keyboard_10_n03085013_21447.png,n03085013_21447.png,0.0,0.11406057,0.20079316,-0.0613292
alexnet_w1_mlp_simclrhn_probe2,1,171,NaN,airplane,airplane,c30,0171_cop_dnn_c30_airplane_10_n02690373_7676.png,n02690373_7676.png,1.0,3.9631977,0.6843395,2.318503
alexnet_w1_mlp_simclrhn_probe2,1,172,NaN,elephant,dog,c100,0172_cop_dnn_c100_dog_10_n02091831_4110.png,n02091831_4110.png,0.0,-0.73984057,0.12343049,-0.6104248
alexnet_w1_mlp_simclrhn_probe2,1,173,NaN,elephant,bird,c10,0173_cop_dnn_c10_bird_10_n02007558_16029.png,n02007558_16029.png,0.0,-0.32170114,-0.13022222,-0.13539605
alexnet_w1_mlp_simclrhn_probe2,1,174,NaN,knife,truck,c30,0174_cop_dnn_c30_truck_10_n03796401_15097.png,n03796401_15097.png,0.0,-0.91428936,-0.06654782,-0.5994438
alexnet_w1_mlp_simclrhn_probe2,1,175,NaN,airplane,airplane,c30,0175_cop_dnn_c30_airplane_10_n02690373_7401.png,n02690373_7401.png,1.0,4.6598306,0.52855927,2.92125
alexnet_w1_mlp_simclrhn_probe2,1,176,NaN,dog,dog,c05,0176_cop_dnn_c05_dog_10_n02108422_4529.png,n02108422_4529.png,1.0,-0.029976709,-0.22310984,0.13656574
alexnet_w1_mlp_simclrhn_probe2,1,177,NaN,bear,bear,c10,0177_cop_dnn_c10_bear_10_n02132136_10514.png,n02132136_10514.png,1.0,0.49759096,0.32361555,0.123019196
alexnet_w1_mlp_simclrhn_probe2,1,178,NaN,airplane,airplane,c03,0178_cop_dnn_c03_airplane_10_n02690373_5524.png,n02690373_5524.png,1.0,0.1948558,0.05648437,0.09784337
alexnet_w1_mlp_simclrhn_probe2,1,179,NaN,chair,chair,c100,0179_cop_dnn_c100_chair_10_n04429376_5965.png,n04429376_5965.png,1.0,1.685272,0.700319,0.6964669
alexnet_w1_mlp_simclrhn_probe2,1,180,NaN,airplane,airplane,c15,0180_cop_dnn_c15_airplane_10_n02690373_9712.png,n02690373_9712.png,1.0,1.6553628,-0.19171254,1.3060795
alexnet_w1_mlp_simclrhn_probe2,1,181,NaN,boat,boat,c30,0181_cop_dnn_c30_boat_10_n02951358_29825.png,n02951358_29825.png,1.0,2.1083736,0.54658115,1.104354
alexnet_w1_mlp_simclrhn_probe2,1,182,NaN,keyboard,keyboard,c03,0182_cop_dnn_c03_keyboard_10_n04505470_4887.png,n04505470_4887.png,1.0,0.4621595,0.09297916,0.26104993
alexnet_w1_mlp_simclrhn_probe2,1,183,NaN,airplane,truck,c01,0183_cop_dnn_c01_truck_10_n04467665_32090.png,n04467665_32090.png,0.0,-0.4384684,0.380051,-0.5787806
alexnet_w1_mlp_simclrhn_probe2,1,184,NaN,bottle,chair,c05,0184_cop_dnn_c05_chair_10_n02791124_4296.png,n02791124_4296.png,0.0,-0.15650755,0.18407367,-0.2408273
alexnet_w1_mlp_simclrhn_probe2,1,185,NaN,boat,boat,c30,0185_cop_dnn_c30_boat_10_n04612504_14669.png,n04612504_14669.png,1.0,1.6383133,-0.29266715,1.3654094
alexnet_w1_mlp_simclrhn_probe2,1,186,NaN,airplane,airplane,c03,0186_cop_dnn_c03_airplane_10_n02690373_891.png,n02690373_891.png,1.0,0.47730422,0.03320165,0.31402797
alexnet_w1_mlp_simclrhn_probe2,1,187,NaN,knife,clock,c100,0187_cop_dnn_c100_clock_10_n04548280_7539.png,n04548280_7539.png,0.0,1.3912746,1.4653237,-0.05236063
alexnet_w1_mlp_simclrhn_probe2,1,188,NaN,bear,bear,c30,0188_cop_dnn_c30_bear_10_n02134418_4717.png,n02134418_4717.png,1.0,1.3444872,0.10761908,0.87459785
alexnet_w1_mlp_simclrhn_probe2,1,189,NaN,elephant,bird,c03,0189_cop_dnn_c03_bird_10_n02002724_13195.png,n02002724_13195.png,0.0,-0.23101585,-0.035987224,-0.13790606
alexnet_w1_mlp_simclrhn_probe2,1,190,NaN,bottle,bottle,c10,0190_cop_dnn_c10_bottle_10_n03937543_2494.png,n03937543_2494.png,1.0,-0.24362378,-0.37523487,0.0930631
alexnet_w1_mlp_simclrhn_probe2,1,191,NaN,clock,clock,c30,0191_cop_dnn_c30_clock_10_n03196217_2307.png,n03196217_2307.png,1.0,1.3038353,0.99185157,0.22060579
alexnet_w1_mlp_simclrhn_probe2,1,192,NaN,clock,clock,c15,0192_cop_dnn_c15_clock_10_n04548280_17907.png,n04548280_17907.png,1.0,0.075508885,-0.13941641,0.15197513
alexnet_w1_mlp_simclrhn_probe2,1,193,NaN,airplane,chair,c03,0193_cop_dnn_c03_chair_10_n03376595_6540.png,n03376595_6540.png,0.0,-0.109964855,0.20453441,-0.22238456
alexnet_w1_mlp_simclrhn_probe2,1,194,NaN,cat,cat,c30,0194_cop_dnn_c30_cat_10_n02123045_1484.png,n02123045_1484.png,1.0,1.1607198,-0.731336,1.3378855
alexnet_w1_mlp_simclrhn_probe2,1,195,NaN,airplane,knife,c03,0195_cop_dnn_c03_knife_10_n03041632_89912.png,n03041632_89912.png,0.0,0.2151058,0.30018288,-0.06015858
alexnet_w1_mlp_simclrhn_probe2,1,196,NaN,bottle,bottle,c05,0196_cop_dnn_c05_bottle_10_n04591713_6975.png,n04591713_6975.png,1.0,1.406083,-0.40955412,1.2838494
alexnet_w1_mlp_simclrhn_probe2,1,197,NaN,bird,bird,c50,0197_cop_dnn_c50_bird_10_n01860187_810.png,n01860187_810.png,1.0,0.07332463,-0.25730607,0.2337912
alexnet_w1_mlp_simclrhn_probe2,1,198,NaN,knife,oven,c03,0198_cop_dnn_c03_oven_10_n04111531_5967.png,n04111531_5967.png,0.0,-0.30687752,-0.043557465,-0.1861954
alexnet_w1_mlp_simclrhn_probe2,1,199,NaN,airplane,boat,c15,0199_cop_dnn_c15_boat_10_n04612504_18954.png,n04612504_18954.png,0.0,0.761629,0.8291663,-0.04775609
alexnet_w1_mlp_simclrhn_probe2,1,200,NaN,bicycle,bicycle,c10,0200_cop_dnn_c10_bicycle_10_n03792782_68259.png,n03792782_68259.png,1.0,0.49567947,-0.14856143,0.45554712
alexnet_w1_mlp_simclrhn_probe2,1,201,NaN,knife,car,c03,0201_cop_dnn_c03_car_10_n04285008_296.png,n04285008_296.png,0.0,-0.43856058,0.16541919,-0.4270782
alexnet_w1_mlp_simclrhn_probe2,1,202,NaN,airplane,airplane,c03,0202_cop_dnn_c03_airplane_10_n02690373_12929.png,n02690373_12929.png,1.0,0.6636867,-0.044792965,0.5009708
alexnet_w1_mlp_simclrhn_probe2,1,203,NaN,airplane,boat,c01,0203_cop_dnn_c01_boat_10_n03344393_8761.png,n03344393_8761.png,0.0,-0.076472834,0.4304588,-0.35845482
alexnet_w1_mlp_simclrhn_probe2,1,204,NaN,clock,clock,c30,0204_cop_dnn_c30_clock_10_n03196217_3877.png,n03196217_3877.png,1.0,1.050026,0.4967087,0.39125448
alexnet_w1_mlp_simclrhn_probe2,1,205,NaN,cat,bear,c10,0205_cop_dnn_c10_bear_10_n02134084_1346.png,n02134084_1346.png,0.0,-0.023864642,0.18771486,-0.1496093
alexnet_w1_mlp_simclrhn_probe2,1,206,NaN,airplane,knife,c03,0206_cop_dnn_c03_knife_10_n03041632_48151.png,n03041632_48151.png,0.0,0.1091644,0.39822277,-0.20439515
alexnet_w1_mlp_simclrhn_probe2,1,207,NaN,airplane,airplane,c50,0207_cop_dnn_c50_airplane_10_n02690373_3589.png,n02690373_3589.png,1.0,2.6498873,0.9575788,1.1966429
alexnet_w1_mlp_simclrhn_probe2,1,208,NaN,clock,bottle,c50,0208_cop_dnn_c50_bottle_10_n04560804_2942.png,n04560804_2942.png,0.0,-0.4901606,0.42479268,-0.6469697
alexnet_w1_mlp_simclrhn_probe2,1,209,NaN,keyboard,keyboard,c03,0209_cop_dnn_c03_keyboard_10_n04505470_5022.png,n04505470_5022.png,1.0,0.5187372,0.16590324,0.24949129
alexnet_w1_mlp_simclrhn_probe2,1,210,NaN,dog,dog,c10,0210_cop_dnn_c10_dog_10_n02096294_1043.png,n02096294_1043.png,1.0,-0.3125101,-0.46906537,0.11070129
alexnet_w1_mlp_simclrhn_probe2,1,211,NaN,airplane,airplane,c50,0211_cop_dnn_c50_airplane_10_n02690373_1350.png,n02690373_1350.png,1.0,6.8101797,1.3689041,3.847563
alexnet_w1_mlp_simclrhn_probe2,1,212,NaN,knife,chair,c03,0212_cop_dnn_c03_chair_10_n04099969_27865.png,n04099969_27865.png,0.0,-0.11343561,0.0967676,-0.14863612
alexnet_w1_mlp_simclrhn_probe2,1,213,NaN,knife,oven,c01,0213_cop_dnn_c01_oven_10_n04111531_22120.png,n04111531_22120.png,0.0,-0.14118108,0.2336045,-0.26501346
alexnet_w1_mlp_simclrhn_probe2,1,214,NaN,elephant,elephant,c50,0214_cop_dnn_c50_elephant_10_n02504458_5600.png,n02504458_5600.png,1.0,2.735967,0.34271288,1.6922861
alexnet_w1_mlp_simclrhn_probe2,1,215,NaN,knife,cat,c03,0215_cop_dnn_c03_cat_10_n02123597_11138.png,n02123597_11138.png,0.0,-0.41669974,-0.00095403194,-0.2939766
alexnet_w1_mlp_simclrhn_probe2,1,216,NaN,bear,cat,c30,0216_cop_dnn_c30_cat_10_n02125311_5717.png,n02125311_5717.png,0.0,-0.76212806,0.026931096,-0.55794907
alexnet_w1_mlp_simclrhn_probe2,1,217,NaN,chair,chair,c15,0217_cop_dnn_c15_chair_10_n02791124_11404.png,n02791124_11404.png,1.0,0.084856294,0.060045943,0.017543567
alexnet_w1_mlp_simclrhn_probe2,1,218,NaN,cat,cat,c100,0218_cop_dnn_c100_cat_10_n02123394_2984.png,n02123394_2984.png,1.0,0.80228883,0.24855271,0.39155054
alexnet_w1_mlp_simclrhn_probe2,1,219,NaN,dog,dog,c10,0219_cop_dnn_c10_dog_10_n02087394_9693.png,n02087394_9693.png,1.0,-0.17586017,-0.5462811,0.26192716
alexnet_w1_mlp_simclrhn_probe2,1,220,NaN,airplane,dog,c01,0220_cop_dnn_c01_dog_10_n02098105_2086.png,n02098105_2086.png,0.0,-0.49746618,0.24741288,-0.526709
alexnet_w1_mlp_simclrhn_probe2,1,221,NaN,cat,cat,c10,0221_cop_dnn_c10_cat_10_n02123159_6932.png,n02123159_6932.png,1.0,0.07391245,-0.084035985,0.11168641
alexnet_w1_mlp_simclrhn_probe2,1,222,NaN,car,car,c15,0222_cop_dnn_c15_car_10_n04285008_8323.png,n04285008_8323.png,1.0,1.1765064,0.6463777,0.3748576
alexnet_w1_mlp_simclrhn_probe2,1,223,NaN,knife,truck,c01,0223_cop_dnn_c01_truck_10_n03796401_2226.png,n03796401_2226.png,0.0,-0.47113377,0.17917487,-0.45983765
alexnet_w1_mlp_simclrhn_probe2,1,224,NaN,elephant,bear,c05,0224_cop_dnn_c05_bear_10_n02134084_6223.png,n02134084_6223.png,0.0,-0.06050539,0.05068672,-0.078624696
alexnet_w1_mlp_simclrhn_probe2,1,225,NaN,cat,cat,c05,0225_cop_dnn_c05_cat_10_n02125311_22459.png,n02125311_22459.png,1.0,-0.1064277,-0.1438868,0.026487587
alexnet_w1_mlp_simclrhn_probe2,1,226,NaN,bicycle,bicycle,c10,0226_cop_dnn_c10_bicycle_10_n02835271_19143.png,n02835271_19143.png,1.0,0.73832774,-0.3853757,0.7945784
alexnet_w1_mlp_simclrhn_probe2,1,227,NaN,cat,cat,c10,0227_cop_dnn_c10_cat_10_n02123597_4357.png,n02123597_4357.png,1.0,0.8622162,-0.49769267,0.9616008
alexnet_w1_mlp_simclrhn_probe2,1,228,NaN,airplane,boat,c03,0228_cop_dnn_c03_boat_10_n04273569_6180.png,n04273569_6180.png,0.0,0.18791397,0.5577258,-0.26149645
alexnet_w1_mlp_simclrhn_probe2,1,229,NaN,airplane,airplane,c100,0229_cop_dnn_c100_airplane_10_n02690373_139.png,n02690373_139.png,1.0,8.261528,1.3491808,4.887768
alexnet_w1_mlp_simclrhn_probe2,1,230,NaN,car,bottle,c10,0230_cop_dnn_c10_bottle_10_n04557648_4165.png,n04557648_4165.png,0.0,-0.82681406,0.091887526,-0.6496201
alexnet_w1_mlp_simclrhn_probe2,1,231,NaN,knife,bottle,c50,0231_cop_dnn_c50_bottle_10_n04560804_5756.png,n04560804_5756.png,0.0,-0.63187695,0.14794856,-0.5514199
alexnet_w1_mlp_simclrhn_probe2,1,232,NaN,truck,truck,c15,0232_cop_dnn_c15_truck_10_n04467665_39477.png,n04467665_39477.png,1.0,2.2024477,1.446493,0.53454065
alexnet_w1_mlp_simclrhn_probe2,1,233,NaN,airplane,cat,c01,0233_cop_dnn_c01_cat_10_n02123159_386.png,n02123159_386.png,0.0,-0.3310782,0.26731566,-0.42312837
alexnet_w1_mlp_simclrhn_probe2,1,234,NaN,cat,bear,c15,0234_cop_dnn_c15_bear_10_n02134084_4859.png,n02134084_4859.png,0.0,-0.23738253,0.012497996,-0.17669222
alexnet_w1_mlp_simclrhn_probe2,1,235,NaN,airplane,dog,c03,0235_cop_dnn_c03_dog_10_n02099429_1992.png,n02099429_1992.png,0.0,-0.43841314,0.025463864,-0.3280106
alexnet_w1_mlp_simclrhn_probe2,1,236,NaN,airplane,oven,c03,0236_cop_dnn_c03_oven_10_n04111531_584.png,n04111531_584.png,0.0,-0.49059612,0.0076179802,-0.35229057
alexnet_w1_mlp_simclrhn_probe2,1,237,NaN,knife,bottle,c05,0237_cop_dnn_c05_bottle_10_n04591713_4019.png,n04591713_4019.png,0.0,0.0814032,0.09206867,-0.0075416253
alexnet_w1_mlp_simclrhn_probe2,1,238,NaN,airplane,dog,c03,0238_cop_dnn_c03_dog_10_n02113712_4486.png,n02113712_4486.png,0.0,-0.5257193,-0.039939016,-0.34349853
alexnet_w1_mlp_simclrhn_probe2,1,239,NaN,clock,chair,c50,0239_cop_dnn_c50_chair_10_n03376595_13018.png,n03376595_13018.png,0.0,-2.0158129,0.84424615,-2.0223672
alexnet_w1_mlp_simclrhn_probe2,1,240,NaN,oven,oven,c50,0240_cop_dnn_c50_oven_10_n04111531_7421.png,n04111531_7421.png,1.0,1.8466609,-0.9257069,1.96036
alexnet_w1_mlp_simclrhn_probe2,1,241,NaN,airplane,cat,c01,0241_cop_dnn_c01_cat_10_n02123045_10689.png,n02123045_10689.png,0.0,-0.23330872,0.3267445,-0.39601743
alexnet_w1_mlp_simclrhn_probe2,1,242,NaN,clock,clock,c05,0242_cop_dnn_c05_clock_10_n02708093_4391.png,n02708093_4391.png,1.0,0.19860007,0.06751095,0.09269401
alexnet_w1_mlp_simclrhn_probe2,1,243,NaN,clock,clock,c50,0243_cop_dnn_c50_clock_10_n02708093_3759.png,n02708093_3759.png,1.0,3.360633,-0.30865434,2.594578
alexnet_w1_mlp_simclrhn_probe2,1,244,NaN,elephant,elephant,c05,0244_cop_dnn_c05_elephant_10_n02504013_648.png,n02504013_648.png,1.0,0.43515283,-0.20043382,0.4494276
alexnet_w1_mlp_simclrhn_probe2,1,245,NaN,airplane,bottle,c01,0245_cop_dnn_c01_bottle_10_n04591713_1879.png,n04591713_1879.png,0.0,-0.21854016,0.24631782,-0.32870424
alexnet_w1_mlp_simclrhn_probe2,1,246,NaN,airplane,dog,c01,0246_cop_dnn_c01_dog_10_n02110627_20194.png,n02110627_20194.png,0.0,-0.49120674,0.21491878,-0.49930614
alexnet_w1_mlp_simclrhn_probe2,1,247,NaN,truck,truck,c50,0247_cop_dnn_c50_truck_10_n03796401_13298.png,n03796401_13298.png,1.0,2.1773164,1.0546476,0.7938468
alexnet_w1_mlp_simclrhn_probe2,1,248,NaN,keyboard,chair,c100,0248_cop_dnn_c100_chair_10_n03376595_7824.png,n03376595_7824.png,0.0,-1.3697652,3.7951388,-3.6521387
alexnet_w1_mlp_simclrhn_probe2,1,249,NaN,airplane,bear,c05,0249_cop_dnn_c05_bear_10_n02134418_6252.png,n02134418_6252.png,0.0,-0.2535358,0.28774425,-0.3827428
alexnet_w1_mlp_simclrhn_probe2,1,250,NaN,bird,bird,c50,0250_cop_dnn_c50_bird_10_n01855032_1815.png,n01855032_1815.png,1.0,1.0549368,-0.9876839,1.444351
alexnet_w1_mlp_simclrhn_probe2,1,251,NaN,car,car,c100,0251_cop_dnn_c100_car_10_n03100240_6773.png,n03100240_6773.png,1.0,7.0907226,2.5782452,3.1908035
alexnet_w1_mlp_simclrhn_probe2,1,252,NaN,clock,keyboard,c03,0252_cop_dnn_c03_keyboard_10_n03085013_22438.png,n03085013_22438.png,0.0,-0.17982537,0.22078604,-0.28327504
alexnet_w1_mlp_simclrhn_probe2,1,253,NaN,clock,keyboard,c01,0253_cop_dnn_c01_keyboard_10_n04505470_4950.png,n04505470_4950.png,0.0,0.14033853,0.22643022,-0.060876023
alexnet_w1_mlp_simclrhn_probe2,1,254,NaN,clock,truck,c03,0254_cop_dnn_c03_truck_10_n04467665_22358.png,n04467665_22358.png,0.0,-0.29530978,0.24506378,-0.3821018
alexnet_w1_mlp_simclrhn_probe2,1,255,NaN,airplane,truck,c15,0255_cop_dnn_c15_truck_10_n04467665_67969.png,n04467665_67969.png,0.0,-0.2761898,0.8595408,-0.8030828
alexnet_w1_mlp_simclrhn_probe2,1,256,NaN,elephant,elephant,c10,0256_cop_dnn_c10_elephant_10_n02504013_2128.png,n02504013_2128.png,1.0,0.011685045,-0.09116008,0.07272249
alexnet_w1_mlp_simclrhn_probe2,1,257,NaN,car,car,c30,0257_cop_dnn_c30_car_10_n03100240_3499.png,n03100240_3499.png,1.0,4.0580897,2.8545604,0.8510238
alexnet_w1_mlp_simclrhn_probe2,1,258,NaN,elephant,bear,c50,0258_cop_dnn_c50_bear_10_n02134084_7250.png,n02134084_7250.png,0.0,0.93649983,1.1081283,-0.12135966
alexnet_w1_mlp_simclrhn_probe2,1,259,NaN,bicycle,bicycle,c15,0259_cop_dnn_c15_bicycle_10_n03792782_43279.png,n03792782_43279.png,1.0,-0.45260838,-0.62651324,0.122969314
alexnet_w1_mlp_simclrhn_probe2,1,260,NaN,cat,cat,c50,0260_cop_dnn_c50_cat_10_n02123045_1274.png,n02123045_1274.png,1.0,0.16592558,-1.2810919,1.023196
alexnet_w1_mlp_simclrhn_probe2,1,261,NaN,oven,oven,c100,0261_cop_dnn_c100_oven_10_n04111531_6567.png,n04111531_6567.png,1.0,5.290064,-0.90288424,4.379076
alexnet_w1_mlp_simclrhn_probe2,1,262,NaN,oven,knife,c100,0262_cop_dnn_c100_knife_10_n03041632_86338.png,n03041632_86338.png,0.0,-1.5575248,1.801318,-2.3750606
alexnet_w1_mlp_simclrhn_probe2,1,263,NaN,knife,chair,c15,0263_cop_dnn_c15_chair_10_n02791124_9757.png,n02791124_9757.png,0.0,0.03936991,0.23344119,-0.13722911
alexnet_w1_mlp_simclrhn_probe2,1,264,NaN,knife,knife,c15,0264_cop_dnn_c15_knife_10_n03041632_45090.png,n03041632_45090.png,1.0,0.74040365,-0.01607044,0.53490794
alexnet_w1_mlp_simclrhn_probe2,1,265,NaN,airplane,bicycle,c01,0265_cop_dnn_c01_bicycle_10_n02835271_1436.png,n02835271_1436.png,0.0,-0.55009604,0.22438142,-0.5476383
alexnet_w1_mlp_simclrhn_probe2,1,266,NaN,airplane,bird,c03,0266_cop_dnn_c03_bird_10_n01798484_8189.png,n01798484_8189.png,0.0,-0.17908518,0.28741533,-0.3298657
alexnet_w1_mlp_simclrhn_probe2,1,267,NaN,knife,bird,c15,0267_cop_dnn_c15_bird_10_n01819313_1282.png,n01819313_1282.png,0.0,-0.5025909,-0.124765456,-0.26716295
alexnet_w1_mlp_simclrhn_probe2,1,268,NaN,bottle,bottle,c100,0268_cop_dnn_c100_bottle_10_n03983396_11519.png,n03983396_11519.png,1.0,5.371723,-0.41181856,4.0895815
alexnet_w1_mlp_simclrhn_probe2,1,269,NaN,airplane,boat,c05,0269_cop_dnn_c05_boat_10_n03344393_7735.png,n03344393_7735.png,0.0,0.38419414,0.56919897,-0.13081817
alexnet_w1_mlp_simclrhn_probe2,1,270,NaN,bottle,bottle,c05,0270_cop_dnn_c05_bottle_10_n04560804_21795.png,n04560804_21795.png,1.0,0.59192747,-0.0715913,0.46917865
alexnet_w1_mlp_simclrhn_probe2,1,271,NaN,chair,chair,c30,0271_cop_dnn_c30_chair_10_n02791124_4109.png,n02791124_4109.png,1.0,1.2372497,-0.12033889,0.95996016
alexnet_w1_mlp_simclrhn_probe2,1,272,NaN,keyboard,keyboard,c03,0272_cop_dnn_c03_keyboard_10_n04505470_9663.png,n04505470_9663.png,1.0,0.4943078,0.035221066,0.32462335
alexnet_w1_mlp_simclrhn_probe2,1,273,NaN,knife,knife,c15,0273_cop_dnn_c15_knife_10_n03041632_27709.png,n03041632_27709.png,1.0,0.69472957,-0.24864541,0.6670669
alexnet_w1_mlp_simclrhn_probe2,1,274,NaN,airplane,airplane,c50,0274_cop_dnn_c50_airplane_10_n02690373_8539.png,n02690373_8539.png,1.0,1.5589542,-0.21717095,1.2559102
alexnet_w1_mlp_simclrhn_probe2,1,275,NaN,bear,bear,c15,0275_cop_dnn_c15_bear_10_n02134418_2175.png,n02134418_2175.png,1.0,0.5346184,0.0988697,0.30812085
alexnet_w1_mlp_simclrhn_probe2,1,276,NaN,elephant,elephant,c50,0276_cop_dnn_c50_elephant_10_n02504458_2875.png,n02504458_2875.png,1.0,4.203136,-0.23986718,3.1416776
alexnet_w1_mlp_simclrhn_probe2,1,277,NaN,airplane,chair,c03,0277_cop_dnn_c03_chair_10_n02791124_5868.png,n02791124_5868.png,0.0,-0.19847429,0.18594012,-0.27182204
alexnet_w1_mlp_simclrhn_probe2,1,278,NaN,cat,cat,c10,0278_cop_dnn_c10_cat_10_n02123597_488.png,n02123597_488.png,1.0,-0.14169483,-0.18548857,0.03096685
alexnet_w1_mlp_simclrhn_probe2,1,279,NaN,bicycle,oven,c30,0279_cop_dnn_c30_oven_10_n04111531_6500.png,n04111531_6500.png,0.0,-0.46411476,0.23955795,-0.49757174
alexnet_w1_mlp_simclrhn_probe2,1,280,NaN,bicycle,bicycle,c15,0280_cop_dnn_c15_bicycle_10_n03792782_13002.png,n03792782_13002.png,1.0,0.54985434,-0.31424037,0.6110073
alexnet_w1_mlp_simclrhn_probe2,1,281,NaN,clock,clock,c05,0281_cop_dnn_c05_clock_10_n03196217_10641.png,n03196217_10641.png,1.0,0.544405,0.20994225,0.23650087
alexnet_w1_mlp_simclrhn_probe2,1,282,NaN,bicycle,bicycle,c15,0282_cop_dnn_c15_bicycle_10_n03792782_20193.png,n03792782_20193.png,1.0,3.110303,0.23827918,2.0308275
alexnet_w1_mlp_simclrhn_probe2,1,283,NaN,truck,truck,c05,0283_cop_dnn_c05_truck_10_n03417042_13806.png,n03417042_13806.png,1.0,0.39115715,0.082365155,0.21834892
alexnet_w1_mlp_simclrhn_probe2,1,284,NaN,airplane,truck,c05,0284_cop_dnn_c05_truck_10_n04467665_70237.png,n04467665_70237.png,0.0,-0.18480703,0.024924636,-0.14830269
alexnet_w1_mlp_simclrhn_probe2,1,285,NaN,airplane,truck,c01,0285_cop_dnn_c01_truck_10_n04467665_3720.png,n04467665_3720.png,0.0,-0.50843906,0.21813184,-0.51376325
alexnet_w1_mlp_simclrhn_probe2,1,286,NaN,bear,bear,c10,0286_cop_dnn_c10_bear_10_n02132136_8975.png,n02132136_8975.png,1.0,1.5432756,0.82240546,0.5097322
alexnet_w1_mlp_simclrhn_probe2,1,287,NaN,knife,knife,c05,0287_cop_dnn_c05_knife_10_n03041632_18859.png,n03041632_18859.png,1.0,-0.10649146,-0.26811695,0.11428648
alexnet_w1_mlp_simclrhn_probe2,1,288,NaN,elephant,bear,c50,0288_cop_dnn_c50_bear_10_n02132136_29760.png,n02132136_29760.png,0.0,1.5232196,2.3095624,-0.55602837
alexnet_w1_mlp_simclrhn_probe2,1,289,NaN,airplane,boat,c05,0289_cop_dnn_c05_boat_10_n04273569_6586.png,n04273569_6586.png,0.0,0.33228895,0.60986215,-0.1962739
alexnet_w1_mlp_simclrhn_probe2,1,290,NaN,bottle,bottle,c05,0290_cop_dnn_c05_bottle_10_n03983396_11137.png,n03983396_11137.png,1.0,0.34935904,-0.05371288,0.2850149
alexnet_w1_mlp_simclrhn_probe2,1,291,NaN,clock,clock,c10,0291_cop_dnn_c10_clock_10_n03196217_4232.png,n03196217_4232.png,1.0,0.12895125,0.11377464,0.010731484
alexnet_w1_mlp_simclrhn_probe2,1,292,NaN,airplane,clock,c01,0292_cop_dnn_c01_clock_10_n04548280_1325.png,n04548280_1325.png,0.0,0.026989872,0.32116073,-0.20801021
alexnet_w1_mlp_simclrhn_probe2,1,293,NaN,airplane,airplane,c100,0293_cop_dnn_c100_airplane_10_n02690373_2268.png,n02690373_2268.png,1.0,5.7789016,-0.26492348,4.2736297
alexnet_w1_mlp_simclrhn_probe2,1,294,NaN,bear,bicycle,c10,0294_cop_dnn_c10_bicycle_10_n03792782_14557.png,n03792782_14557.png,0.0,-0.24177778,-0.15929346,-0.058325224
alexnet_w1_mlp_simclrhn_probe2,1,295,NaN,airplane,cat,c01,0295_cop_dnn_c01_cat_10_n02124075_13792.png,n02124075_13792.png,0.0,-0.29570815,0.23766735,-0.37715343
alexnet_w1_mlp_simclrhn_probe2,1,296,NaN,airplane,dog,c01,0296_cop_dnn_c01_dog_10_n02110185_14953.png,n02110185_14953.png,0.0,-0.53778374,0.18704405,-0.5125306
alexnet_w1_mlp_simclrhn_probe2,1,297,NaN,bottle,bottle,c15,0297_cop_dnn_c15_bottle_10_n04557648_1634.png,n04557648_1634.png,1.0,0.059242506,-0.013134945,0.051178586
alexnet_w1_mlp_simclrhn_probe2,1,298,NaN,bicycle,bicycle,c50,0298_cop_dnn_c50_bicycle_10_n02835271_1701.png,n02835271_1701.png,1.0,2.6194658,-0.7345537,2.37165
alexnet_w1_mlp_simclrhn_probe2,1,299,NaN,boat,boat,c05,0299_cop_dnn_c05_boat_10_n04273569_7312.png,n04273569_7312.png,1.0,0.8192568,0.7470143,0.051083162
alexnet_w1_mlp_simclrhn_probe2,1,300,NaN,bird,bird,c100,0300_cop_dnn_c100_bird_10_n01616318_5417.png,n01616318_5417.png,1.0,1.8532989,-1.3820632,2.2877464
alexnet_w1_mlp_simclrhn_probe2,1,301,NaN,cat,cat,c15,0301_cop_dnn_c15_cat_10_n02123045_12200.png,n02123045_12200.png,1.0,2.0999894,-0.8950501,2.1178126
alexnet_w1_mlp_simclrhn_probe2,1,302,NaN,elephant,dog,c30,0302_cop_dnn_c30_dog_10_n02102480_8264.png,n02102480_8264.png,0.0,-0.1604628,-0.12123555,-0.027737852
alexnet_w1_mlp_simclrhn_probe2,1,303,NaN,bicycle,bicycle,c30,0303_cop_dnn_c30_bicycle_10_n03792782_5426.png,n03792782_5426.png,1.0,0.8063953,-0.40817052,0.8588277
alexnet_w1_mlp_simclrhn_probe2,1,304,NaN,bottle,clock,c05,0304_cop_dnn_c05_clock_10_n02708093_8038.png,n02708093_8038.png,0.0,-0.118039906,0.008007811,-0.089129195
alexnet_w1_mlp_simclrhn_probe2,1,305,NaN,bicycle,bicycle,c30,0305_cop_dnn_c30_bicycle_10_n02835271_2764.png,n02835271_2764.png,1.0,3.462448,0.54092246,2.0658305
alexnet_w1_mlp_simclrhn_probe2,1,306,NaN,knife,knife,c50,0306_cop_dnn_c50_knife_10_n03041632_39836.png,n03041632_39836.png,1.0,1.5136452,-0.090768725,1.1344919
alexnet_w1_mlp_simclrhn_probe2,1,307,NaN,airplane,bicycle,c01,0307_cop_dnn_c01_bicycle_10_n03792782_19040.png,n03792782_19040.png,0.0,-0.6014528,0.13628468,-0.5216592
alexnet_w1_mlp_simclrhn_probe2,1,308,NaN,airplane,cat,c01,0308_cop_dnn_c01_cat_10_n02125311_28331.png,n02125311_28331.png,0.0,-0.2956349,0.24012217,-0.37883747
alexnet_w1_mlp_simclrhn_probe2,1,309,NaN,knife,knife,c01,0309_cop_dnn_c01_knife_10_n03041632_18126.png,n03041632_18126.png,1.0,0.13371596,0.11376365,0.01410841
alexnet_w1_mlp_simclrhn_probe2,1,310,NaN,bicycle,bicycle,c30,0310_cop_dnn_c30_bicycle_10_n03792782_19253.png,n03792782_19253.png,1.0,1.4312522,-0.06508969,1.0580735
alexnet_w1_mlp_simclrhn_probe2,1,311,NaN,knife,bottle,c01,0311_cop_dnn_c01_bottle_10_n03983396_751.png,n03983396_751.png,0.0,-0.097771846,0.12024741,-0.15416288
alexnet_w1_mlp_simclrhn_probe2,1,312,NaN,car,car,c15,0312_cop_dnn_c15_car_10_n04285008_628.png,n04285008_628.png,1.0,1.517024,0.699878,0.5778095
alexnet_w1_mlp_simclrhn_probe2,1,313,NaN,chair,boat,c15,0313_cop_dnn_c15_boat_10_n03662601_3011.png,n03662601_3011.png,0.0,-0.41931668,0.028999595,-0.31700748
alexnet_w1_mlp_simclrhn_probe2,1,314,NaN,airplane,bottle,c10,0314_cop_dnn_c10_bottle_10_n04557648_2904.png,n04557648_2904.png,0.0,0.12477209,0.13930896,-0.010279121
alexnet_w1_mlp_simclrhn_probe2,1,315,NaN,bird,bird,c10,0315_cop_dnn_c10_bird_10_n02002556_9804.png,n02002556_9804.png,1.0,-0.044692136,-0.145987,0.07162629
alexnet_w1_mlp_simclrhn_probe2,1,316,NaN,clock,truck,c05,0316_cop_dnn_c05_truck_10_n04467665_8955.png,n04467665_8955.png,0.0,-0.1277157,0.10922205,-0.1675403
alexnet_w1_mlp_simclrhn_probe2,1,317,NaN,airplane,boat,c03,0317_cop_dnn_c03_boat_10_n04612504_15061.png,n04612504_15061.png,0.0,0.039071046,0.30638203,-0.18901742
alexnet_w1_mlp_simclrhn_probe2,1,318,NaN,airplane,bird,c05,0318_cop_dnn_c05_bird_10_n02002556_1437.png,n02002556_1437.png,0.0,-0.24691908,-0.009216264,-0.16808128
alexnet_w1_mlp_simclrhn_probe2,1,319,NaN,car,truck,c50,0319_cop_dnn_c50_truck_10_n03417042_10993.png,n03417042_10993.png,0.0,-0.83914775,0.65526396,-1.0567087
alexnet_w1_mlp_simclrhn_probe2,1,320,NaN,chair,chair,c10,0320_cop_dnn_c10_chair_10_n02791124_880.png,n02791124_880.png,1.0,0.124764614,0.11817618,0.0046587284
alexnet_w1_mlp_simclrhn_probe2,1,321,NaN,bicycle,bicycle,c50,0321_cop_dnn_c50_bicycle_10_n03792782_4826.png,n03792782_4826.png,1.0,4.1236243,0.070385896,2.8660724
alexnet_w1_mlp_simclrhn_probe2,1,322,NaN,knife,chair,c03,0322_cop_dnn_c03_chair_10_n04099969_3804.png,n04099969_3804.png,0.0,-0.09073166,0.06750686,-0.11189153
alexnet_w1_mlp_simclrhn_probe2,1,323,NaN,bottle,bottle,c10,0323_cop_dnn_c10_bottle_10_n02823428_2504.png,n02823428_2504.png,1.0,1.5758053,-0.23759572,1.2822682
alexnet_w1_mlp_simclrhn_probe2,1,324,NaN,cat,cat,c10,0324_cop_dnn_c10_cat_10_n02124075_9716.png,n02124075_9716.png,1.0,0.37925747,-0.096337974,0.33629677
alexnet_w1_mlp_simclrhn_probe2,1,325,NaN,airplane,knife,c01,0325_cop_dnn_c01_knife_10_n03041632_81630.png,n03041632_81630.png,0.0,-0.03079706,0.14234793,-0.122432
alexnet_w1_mlp_simclrhn_probe2,1,326,NaN,bottle,bottle,c30,0326_cop_dnn_c30_bottle_10_n04591713_457.png,n04591713_457.png,1.0,1.4744875,0.10878398,0.9656983
alexnet_w1_mlp_simclrhn_probe2,1,327,NaN,airplane,elephant,c30,0327_cop_dnn_c30_elephant_10_n02504458_5337.png,n02504458_5337.png,0.0,-0.021225305,0.24764717,-0.19012155
alexnet_w1_mlp_simclrhn_probe2,1,328,NaN,clock,clock,c15,0328_cop_dnn_c15_clock_10_n02708093_5429.png,n02708093_5429.png,1.0,1.0591286,-0.097805165,0.8180757
alexnet_w1_mlp_simclrhn_probe2,1,329,NaN,oven,oven,c100,0329_cop_dnn_c100_oven_10_n04111531_9411.png,n04111531_9411.png,1.0,0.64211667,0.2348188,0.2880031
alexnet_w1_mlp_simclrhn_probe2,1,330,NaN,airplane,knife,c01,0330_cop_dnn_c01_knife_10_n03041632_2338.png,n03041632_2338.png,0.0,0.27849507,0.33754292,-0.041753136
alexnet_w1_mlp_simclrhn_probe2,1,331,NaN,cat,cat,c100,0331_cop_dnn_c100_cat_10_n02123394_2755.png,n02123394_2755.png,1.0,0.62676865,-1.3362207,1.388043
alexnet_w1_mlp_simclrhn_probe2,1,332,NaN,elephant,elephant,c05,0332_cop_dnn_c05_elephant_10_n02504458_10243.png,n02504458_10243.png,1.0,0.23506607,0.11829078,0.0825726
alexnet_w1_mlp_simclrhn_probe2,1,333,NaN,oven,oven,c15,0333_cop_dnn_c15_oven_10_n04111531_1752.png,n04111531_1752.png,1.0,0.5259122,-0.043372184,0.4025449
alexnet_w1_mlp_simclrhn_probe2,1,334,NaN,bird,bird,c05,0334_cop_dnn_c05_bird_10_n02037110_6736.png,n02037110_6736.png,1.0,0.26604426,0.03417012,0.16395977
alexnet_w1_mlp_simclrhn_probe2,1,335,NaN,airplane,airplane,c10,0335_cop_dnn_c10_airplane_10_n02690373_8804.png,n02690373_8804.png,1.0,1.7084838,0.06208334,1.164181
alexnet_w1_mlp_simclrhn_probe2,1,336,NaN,elephant,elephant,c100,0336_cop_dnn_c100_elephant_10_n02504458_12217.png,n02504458_12217.png,1.0,2.588019,-1.1631246,2.652459
alexnet_w1_mlp_simclrhn_probe2,1,337,NaN,knife,knife,c15,0337_cop_dnn_c15_knife_10_n03041632_84012.png,n03041632_84012.png,1.0,-0.14375427,-0.5305203,0.2734849
alexnet_w1_mlp_simclrhn_probe2,1,338,NaN,dog,dog,c50,0338_cop_dnn_c50_dog_10_n02093991_6192.png,n02093991_6192.png,1.0,0.24151564,-0.023630077,0.18748634
alexnet_w1_mlp_simclrhn_probe2,1,339,NaN,bird,bird,c50,0339_cop_dnn_c50_bird_10_n02027492_6499.png,n02027492_6499.png,1.0,2.3007689,-3.0923338,3.8134995
alexnet_w1_mlp_simclrhn_probe2,1,340,NaN,clock,knife,c10,0340_cop_dnn_c10_knife_10_n03041632_46185.png,n03041632_46185.png,0.0,0.19227168,0.31892058,-0.0895543
alexnet_w1_mlp_simclrhn_probe2,1,341,NaN,boat,bear,c30,0341_cop_dnn_c30_bear_10_n02134084_14775.png,n02134084_14775.png,0.0,-0.75411123,0.7224214,-1.0440663
alexnet_w1_mlp_simclrhn_probe2,1,342,NaN,truck,truck,c30,0342_cop_dnn_c30_truck_10_n03417042_5346.png,n03417042_5346.png,1.0,2.5678554,1.1174015,1.0256258
alexnet_w1_mlp_simclrhn_probe2,1,343,NaN,dog,dog,c30,0343_cop_dnn_c30_dog_10_n02093991_9672.png,n02093991_9672.png,1.0,-0.37317237,-0.418594,0.032117944
alexnet_w1_mlp_simclrhn_probe2,1,344,NaN,elephant,elephant,c100,0344_cop_dnn_c100_elephant_10_n02504458_2031.png,n02504458_2031.png,1.0,10.620065,2.7456157,5.568076
alexnet_w1_mlp_simclrhn_probe2,1,345,NaN,airplane,bird,c03,0345_cop_dnn_c03_bird_10_n02025239_660.png,n02025239_660.png,0.0,-0.037442576,0.09679414,-0.0949197
alexnet_w1_mlp_simclrhn_probe2,1,346,NaN,airplane,elephant,c01,0346_cop_dnn_c01_elephant_10_n02504458_4244.png,n02504458_4244.png,0.0,-0.18435104,0.32011124,-0.35670874
alexnet_w1_mlp_simclrhn_probe2,1,347,NaN,elephant,elephant,c30,0347_cop_dnn_c30_elephant_10_n02504013_7539.png,n02504013_7539.png,1.0,0.64182043,0.5029131,0.09822231
alexnet_w1_mlp_simclrhn_probe2,1,348,NaN,elephant,bird,c03,0348_cop_dnn_c03_bird_10_n02002724_5876.png,n02002724_5876.png,0.0,-0.30750364,-0.09760289,-0.14842224
alexnet_w1_mlp_simclrhn_probe2,1,349,NaN,knife,bird,c10,0349_cop_dnn_c10_bird_10_n01532829_560.png,n01532829_560.png,0.0,-0.34955728,-0.21971656,-0.091811255
alexnet_w1_mlp_simclrhn_probe2,1,350,NaN,boat,boat,c30,0350_cop_dnn_c30_boat_10_n04273569_1709.png,n04273569_1709.png,1.0,1.5557462,-0.48681474,1.4443088
alexnet_w1_mlp_simclrhn_probe2,1,351,NaN,bicycle,bicycle,c50,0351_cop_dnn_c50_bicycle_10_n02835271_7958.png,n02835271_7958.png,1.0,0.30246603,-0.83240455,0.8024747
alexnet_w1_mlp_simclrhn_probe2,1,352,NaN,elephant,bear,c30,0352_cop_dnn_c30_bear_10_n02133161_12157.png,n02133161_12157.png,0.0,0.74627316,0.91626585,-0.12020298
alexnet_w1_mlp_simclrhn_probe2,1,353,NaN,airplane,chair,c01,0353_cop_dnn_c01_chair_10_n04099969_4577.png,n04099969_4577.png,0.0,-0.107586846,0.17943272,-0.20295347
alexnet_w1_mlp_simclrhn_probe2,1,354,NaN,airplane,bicycle,c01,0354_cop_dnn_c01_bicycle_10_n02835271_10283.png,n02835271_10283.png,0.0,-0.475452,0.2942689,-0.54427487
alexnet_w1_mlp_simclrhn_probe2,1,355,NaN,car,truck,c100,0355_cop_dnn_c100_truck_10_n03417042_23815.png,n03417042_23815.png,0.0,0.7647666,2.2176704,-1.0273582
alexnet_w1_mlp_simclrhn_probe2,1,356,NaN,bear,bear,c03,0356_cop_dnn_c03_bear_10_n02133161_1059.png,n02133161_1059.png,1.0,-0.00011329912,-0.07837051,0.055336203
alexnet_w1_mlp_simclrhn_probe2,1,357,NaN,airplane,chair,c01,0357_cop_dnn_c01_chair_10_n02791124_5173.png,n02791124_5173.png,0.0,-0.011933699,0.14247403,-0.10918275
alexnet_w1_mlp_simclrhn_probe2,1,358,NaN,bottle,bottle,c30,0358_cop_dnn_c30_bottle_10_n03983396_5545.png,n03983396_5545.png,1.0,0.7223139,-0.15068272,0.6173018
alexnet_w1_mlp_simclrhn_probe2,1,359,NaN,airplane,airplane,c01,0359_cop_dnn_c01_airplane_10_n02690373_1797.png,n02690373_1797.png,1.0,0.4614447,0.12711744,0.23640509
alexnet_w1_mlp_simclrhn_probe2,1,360,NaN,airplane,oven,c05,0360_cop_dnn_c05_oven_10_n04111531_6628.png,n04111531_6628.png,0.0,-0.41133487,-0.1003429,-0.21990454
alexnet_w1_mlp_simclrhn_probe2,1,361,NaN,airplane,elephant,c10,0361_cop_dnn_c10_elephant_10_n02504458_7817.png,n02504458_7817.png,0.0,-0.27681616,-0.050992817,-0.15968122
alexnet_w1_mlp_simclrhn_probe2,1,362,NaN,oven,knife,c50,0362_cop_dnn_c50_knife_10_n03041632_4714.png,n03041632_4714.png,0.0,-0.37405998,-0.34571344,-0.02004403
alexnet_w1_mlp_simclrhn_probe2,1,363,NaN,knife,bear,c03,0363_cop_dnn_c03_bear_10_n02134084_169.png,n02134084_169.png,0.0,-0.6693154,0.010962014,-0.48102877
alexnet_w1_mlp_simclrhn_probe2,1,364,NaN,bird,bird,c15,0364_cop_dnn_c15_bird_10_n02013706_8336.png,n02013706_8336.png,1.0,1.2191672,-1.08177,1.6270083
alexnet_w1_mlp_simclrhn_probe2,1,365,NaN,bottle,bottle,c15,0365_cop_dnn_c15_bottle_10_n04579145_6880.png,n04579145_6880.png,1.0,1.6630255,0.07448947,1.1232647
alexnet_w1_mlp_simclrhn_probe2,1,366,NaN,cat,dog,c05,0366_cop_dnn_c05_dog_10_n02105641_416.png,n02105641_416.png,0.0,-0.41287577,-0.21719049,-0.1383704
alexnet_w1_mlp_simclrhn_probe2,1,367,NaN,airplane,airplane,c10,0367_cop_dnn_c10_airplane_10_n02690373_6549.png,n02690373_6549.png,1.0,0.28810692,-0.036989193,0.22987767
alexnet_w1_mlp_simclrhn_probe2,1,368,NaN,clock,clock,c01,0368_cop_dnn_c01_clock_10_n04548280_2374.png,n04548280_2374.png,1.0,0.34771028,0.014087871,0.23590666
alexnet_w1_mlp_simclrhn_probe2,1,369,NaN,bottle,bottle,c30,0369_cop_dnn_c30_bottle_10_n03983396_6287.png,n03983396_6287.png,1.0,0.24636208,0.1998038,0.032921672
alexnet_w1_mlp_simclrhn_probe2,1,370,NaN,airplane,dog,c01,0370_cop_dnn_c01_dog_10_n02090622_1126.png,n02090622_1126.png,0.0,-0.53404427,0.3017242,-0.59097755
alexnet_w1_mlp_simclrhn_probe2,1,371,NaN,truck,truck,c50,0371_cop_dnn_c50_truck_10_n03796401_1681.png,n03796401_1681.png,1.0,4.002833,3.189804,0.5748982
alexnet_w1_mlp_simclrhn_probe2,1,372,NaN,elephant,elephant,c30,0372_cop_dnn_c30_elephant_10_n02504013_5537.png,n02504013_5537.png,1.0,4.7374105,0.4711543,3.0166988
alexnet_w1_mlp_simclrhn_probe2,1,373,NaN,keyboard,keyboard,c05,0373_cop_dnn_c05_keyboard_10_n03085013_12399.png,n03085013_12399.png,1.0,0.6245712,0.35030225,0.19393744
alexnet_w1_mlp_simclrhn_probe2,1,374,NaN,bottle,oven,c15,0374_cop_dnn_c15_oven_10_n04111531_6094.png,n04111531_6094.png,0.0,0.23952454,1.0775573,-0.59257865
alexnet_w1_mlp_simclrhn_probe2,1,375,NaN,airplane,airplane,c03,0375_cop_dnn_c03_airplane_10_n02690373_13604.png,n02690373_13604.png,1.0,0.46735877,0.23111296,0.16705102
alexnet_w1_mlp_simclrhn_probe2,1,376,NaN,bear,bear,c100,0376_cop_dnn_c100_bear_10_n02134084_16084.png,n02134084_16084.png,1.0,1.9521433,0.4752523,1.0443196
alexnet_w1_mlp_simclrhn_probe2,1,377,NaN,airplane,boat,c01,0377_cop_dnn_c01_boat_10_n04273569_15906.png,n04273569_15906.png,0.0,-0.00633651,0.37698945,-0.2710524
alexnet_w1_mlp_simclrhn_probe2,1,378,NaN,cat,dog,c05,0378_cop_dnn_c05_dog_10_n02105162_8899.png,n02105162_8899.png,0.0,-0.29500222,-0.15839426,-0.09659642
alexnet_w1_mlp_simclrhn_probe2,1,379,NaN,oven,oven,c03,0379_cop_dnn_c03_oven_10_n04111531_7619.png,n04111531_7619.png,1.0,-0.07590983,-0.24133985,0.116976686
alexnet_w1_mlp_simclrhn_probe2,1,380,NaN,elephant,elephant,c05,0380_cop_dnn_c05_elephant_10_n02504458_1816.png,n02504458_1816.png,1.0,0.8546634,0.040856894,0.5754481
alexnet_w1_mlp_simclrhn_probe2,1,381,NaN,cat,cat,c30,0381_cop_dnn_c30_cat_10_n02123045_3575.png,n02123045_3575.png,1.0,0.14380814,-0.82527554,0.68524563
alexnet_w1_mlp_simclrhn_probe2,1,382,NaN,airplane,truck,c01,0382_cop_dnn_c01_truck_10_n03417042_908.png,n03417042_908.png,0.0,-0.52615726,0.2959454,-0.5813144
alexnet_w1_mlp_simclrhn_probe2,1,383,NaN,airplane,boat,c03,0383_cop_dnn_c03_boat_10_n03344393_4213.png,n03344393_4213.png,0.0,0.6586986,0.77873516,-0.08487865
alexnet_w1_mlp_simclrhn_probe2,1,384,NaN,airplane,knife,c01,0384_cop_dnn_c01_knife_10_n03041632_31483.png,n03041632_31483.png,0.0,0.2253788,0.30604076,-0.057036623
alexnet_w1_mlp_simclrhn_probe2,1,385,NaN,airplane,bottle,c01,0385_cop_dnn_c01_bottle_10_n03937543_986.png,n03937543_986.png,0.0,-0.2577992,0.33501324,-0.41918167
alexnet_w1_mlp_simclrhn_probe2,1,386,NaN,truck,truck,c15,0386_cop_dnn_c15_truck_10_n03796401_7381.png,n03796401_7381.png,1.0,2.879123,1.25153,1.150882
alexnet_w1_mlp_simclrhn_probe2,1,387,NaN,cat,dog,c03,0387_cop_dnn_c03_dog_10_n02094433_9787.png,n02094433_9787.png,0.0,-0.44859976,-0.12601812,-0.22809967
alexnet_w1_mlp_simclrhn_probe2,1,388,NaN,bird,bird,c30,0388_cop_dnn_c30_bird_10_n02011460_11838.png,n02011460_11838.png,1.0,-0.28036028,-0.42679167,0.103542626
alexnet_w1_mlp_simclrhn_probe2,1,389,NaN,cat,cat,c30,0389_cop_dnn_c30_cat_10_n02123597_29513.png,n02123597_29513.png,1.0,1.1831611,0.47960228,0.49749124
alexnet_w1_mlp_simclrhn_probe2,1,390,NaN,knife,chair,c10,0390_cop_dnn_c10_chair_10_n04429376_5337.png,n04429376_5337.png,0.0,-0.30409226,-0.101538196,-0.14322735
alexnet_w1_mlp_simclrhn_probe2,1,391,NaN,knife,knife,c03,0391_cop_dnn_c03_knife_10_n03041632_4260.png,n03041632_4260.png,1.0,0.071510494,-0.16428208,0.16673054
alexnet_w1_mlp_simclrhn_probe2,1,392,NaN,keyboard,keyboard,c10,0392_cop_dnn_c10_keyboard_10_n04505470_4061.png,n04505470_4061.png,1.0,0.7572068,0.19659925,0.39640942
alexnet_w1_mlp_simclrhn_probe2,1,393,NaN,boat,boat,c15,0393_cop_dnn_c15_boat_10_n03344393_6467.png,n03344393_6467.png,1.0,1.4831725,0.6012078,0.6236433
alexnet_w1_mlp_simclrhn_probe2,1,394,NaN,bicycle,bicycle,c100,0394_cop_dnn_c100_bicycle_10_n03792782_11297.png,n03792782_11297.png,1.0,4.0310464,-1.4266797,3.8591952
alexnet_w1_mlp_simclrhn_probe2,1,395,NaN,airplane,bicycle,c03,0395_cop_dnn_c03_bicycle_10_n03792782_8357.png,n03792782_8357.png,0.0,-0.50821257,0.009399563,-0.36600703
alexnet_w1_mlp_simclrhn_probe2,1,396,NaN,elephant,dog,c10,0396_cop_dnn_c10_dog_10_n02108422_2739.png,n02108422_2739.png,0.0,-0.39878625,-0.17183825,-0.16047646
alexnet_w1_mlp_simclrhn_probe2,1,397,NaN,airplane,bear,c03,0397_cop_dnn_c03_bear_10_n02134084_6840.png,n02134084_6840.png,0.0,-0.24179953,0.12692696,-0.260729
alexnet_w1_mlp_simclrhn_probe2,1,398,NaN,elephant,bear,c30,0398_cop_dnn_c30_bear_10_n02133161_5365.png,n02133161_5365.png,0.0,0.5477834,0.60498095,-0.04044479
alexnet_w1_mlp_simclrhn_probe2,1,399,NaN,bottle,bottle,c30,0399_cop_dnn_c30_bottle_10_n04560804_1010.png,n04560804_1010.png,1.0,0.053778615,-0.6663306,0.5091941
alexnet_w1_mlp_simclrhn_probe2,1,400,NaN,clock,clock,c10,0400_cop_dnn_c10_clock_10_n04548280_183.png,n04548280_183.png,1.0,0.55850285,-0.23535515,0.56134236
alexnet_w1_mlp_simclrhn_probe2,1,401,NaN,keyboard,keyboard,c100,0401_cop_dnn_c100_keyboard_10_n03085013_21534.png,n03085013_21534.png,1.0,8.913425,1.6469026,5.138208
alexnet_w1_mlp_simclrhn_probe2,1,402,NaN,chair,keyboard,c50,0402_cop_dnn_c50_keyboard_10_n03085013_24111.png,n03085013_24111.png,0.0,0.971182,1.3998605,-0.30312148
alexnet_w1_mlp_simclrhn_probe2,1,403,NaN,knife,knife,c15,0403_cop_dnn_c15_knife_10_n03041632_28009.png,n03041632_28009.png,1.0,0.035069503,-0.48661524,0.36888683
alexnet_w1_mlp_simclrhn_probe2,1,404,NaN,cat,cat,c50,0404_cop_dnn_c50_cat_10_n02123159_7647.png,n02123159_7647.png,1.0,0.10260073,-0.28329173,0.27286717
alexnet_w1_mlp_simclrhn_probe2,1,405,NaN,knife,bottle,c01,0405_cop_dnn_c01_bottle_10_n02823428_8696.png,n02823428_8696.png,0.0,-0.22657205,0.28148827,-0.35925293
alexnet_w1_mlp_simclrhn_probe2,1,406,NaN,elephant,elephant,c15,0406_cop_dnn_c15_elephant_10_n02504458_8923.png,n02504458_8923.png,1.0,0.5398324,-0.34914315,0.62860066
alexnet_w1_mlp_simclrhn_probe2,1,407,NaN,airplane,bear,c01,0407_cop_dnn_c01_bear_10_n02134084_5031.png,n02134084_5031.png,0.0,-0.21671927,0.31301612,-0.3745795
alexnet_w1_mlp_simclrhn_probe2,1,408,NaN,elephant,dog,c50,0408_cop_dnn_c50_dog_10_n02097209_1658.png,n02097209_1658.png,0.0,0.18261233,0.911214,-0.5151992
alexnet_w1_mlp_simclrhn_probe2,1,409,NaN,elephant,dog,c05,0409_cop_dnn_c05_dog_10_n02099849_6384.png,n02099849_6384.png,0.0,-0.5615505,-0.025358157,-0.37914526
alexnet_w1_mlp_simclrhn_probe2,1,410,NaN,elephant,elephant,c15,0410_cop_dnn_c15_elephant_10_n02504013_3459.png,n02504013_3459.png,1.0,0.34887213,-0.4548694,0.56833106
alexnet_w1_mlp_simclrhn_probe2,1,411,NaN,knife,knife,c03,0411_cop_dnn_c03_knife_10_n03041632_36390.png,n03041632_36390.png,1.0,-0.065274045,-0.0705837,0.003754494
alexnet_w1_mlp_simclrhn_probe2,1,412,NaN,knife,knife,c100,0412_cop_dnn_c100_knife_10_n03041632_10263.png,n03041632_10263.png,1.0,1.720372,-2.9590764,3.3088696
alexnet_w1_mlp_simclrhn_probe2,1,413,NaN,cat,cat,c03,0413_cop_dnn_c03_cat_10_n02123045_840.png,n02123045_840.png,1.0,0.1178463,-0.12944248,0.17485958
alexnet_w1_mlp_simclrhn_probe2,1,414,NaN,clock,clock,c05,0414_cop_dnn_c05_clock_10_n04548280_4758.png,n04548280_4758.png,1.0,0.5740463,0.16911066,0.28633276
alexnet_w1_mlp_simclrhn_probe2,1,415,NaN,elephant,bear,c50,0415_cop_dnn_c50_bear_10_n02133161_1247.png,n02133161_1247.png,0.0,1.5368333,1.5964143,-0.042130157
alexnet_w1_mlp_simclrhn_probe2,1,416,NaN,airplane,airplane,c10,0416_cop_dnn_c10_airplane_10_n02690373_6716.png,n02690373_6716.png,1.0,1.547838,0.7121553,0.59091693
alexnet_w1_mlp_simclrhn_probe2,1,417,NaN,keyboard,keyboard,c30,0417_cop_dnn_c30_keyboard_10_n04505470_4893.png,n04505470_4893.png,1.0,1.8901851,-0.115715645,1.4183861
alexnet_w1_mlp_simclrhn_probe2,1,418,NaN,chair,chair,c30,0418_cop_dnn_c30_chair_10_n04099969_34525.png,n04099969_34525.png,1.0,0.72704,-0.21440594,0.6657028
alexnet_w1_mlp_simclrhn_probe2,1,419,NaN,airplane,airplane,c01,0419_cop_dnn_c01_airplane_10_n02690373_4793.png,n02690373_4793.png,1.0,0.4171646,0.13101932,0.20233527
alexnet_w1_mlp_simclrhn_probe2,1,420,NaN,knife,knife,c15,0420_cop_dnn_c15_knife_10_n03041632_4787.png,n03041632_4787.png,1.0,0.15558872,-0.06018087,0.15257214
alexnet_w1_mlp_simclrhn_probe2,1,421,NaN,airplane,boat,c05,0421_cop_dnn_c05_boat_10_n04273569_20587.png,n04273569_20587.png,0.0,0.5739728,0.67845803,-0.07388221
alexnet_w1_mlp_simclrhn_probe2,1,422,NaN,airplane,bicycle,c03,0422_cop_dnn_c03_bicycle_10_n03792782_4844.png,n03792782_4844.png,0.0,-0.35425293,0.28938347,-0.45511967
alexnet_w1_mlp_simclrhn_probe2,1,423,NaN,airplane,cat,c01,0423_cop_dnn_c01_cat_10_n02123045_6066.png,n02123045_6066.png,0.0,-0.40231314,0.1211922,-0.37017417
alexnet_w1_mlp_simclrhn_probe2,1,424,NaN,boat,boat,c30,0424_cop_dnn_c30_boat_10_n04273569_17045.png,n04273569_17045.png,1.0,2.4916635,1.3468755,0.8094873
alexnet_w1_mlp_simclrhn_probe2,1,425,NaN,keyboard,keyboard,c100,0425_cop_dnn_c100_keyboard_10_n04505470_5068.png,n04505470_5068.png,1.0,9.743427,3.3664055,4.5092354
alexnet_w1_mlp_simclrhn_probe2,1,426,NaN,airplane,airplane,c10,0426_cop_dnn_c10_airplane_10_n02690373_2724.png,n02690373_2724.png,1.0,1.7987885,0.014595171,1.2616153
alexnet_w1_mlp_simclrhn_probe2,1,427,NaN,boat,boat,c10,0427_cop_dnn_c10_boat_10_n03662601_4844.png,n03662601_4844.png,1.0,2.356551,0.51703537,1.3007339
alexnet_w1_mlp_simclrhn_probe2,1,428,NaN,chair,chair,c100,0428_cop_dnn_c100_chair_10_n04099969_3929.png,n04099969_3929.png,1.0,3.96063,0.8515629,2.1984425
alexnet_w1_mlp_simclrhn_probe2,1,429,NaN,oven,oven,c10,0429_cop_dnn_c10_oven_10_n04111531_9026.png,n04111531_9026.png,1.0,0.35940954,0.28394756,0.05335968
alexnet_w1_mlp_simclrhn_probe2,1,430,NaN,knife,knife,c15,0430_cop_dnn_c15_knife_10_n03041632_51225.png,n03041632_51225.png,1.0,0.72716177,0.090335,0.45030454
alexnet_w1_mlp_simclrhn_probe2,1,431,NaN,chair,boat,c10,0431_cop_dnn_c10_boat_10_n03344393_6638.png,n03344393_6638.png,0.0,-0.2869468,-0.08095951,-0.14565502
alexnet_w1_mlp_simclrhn_probe2,1,432,NaN,knife,knife,c30,0432_cop_dnn_c30_knife_10_n03041632_4590.png,n03041632_4590.png,1.0,0.5943497,0.06271001,0.37592605
alexnet_w1_mlp_simclrhn_probe2,1,433,NaN,clock,clock,c03,0433_cop_dnn_c03_clock_10_n02708093_3761.png,n02708093_3761.png,1.0,0.10330068,-0.005080119,0.0766368
alexnet_w1_mlp_simclrhn_probe2,1,434,NaN,airplane,car,c03,0434_cop_dnn_c03_car_10_n04285008_3193.png,n04285008_3193.png,0.0,-0.4209669,0.019320987,-0.31133056
alexnet_w1_mlp_simclrhn_probe2,1,435,NaN,knife,keyboard,c50,0435_cop_dnn_c50_keyboard_10_n03085013_661.png,n03085013_661.png,0.0,-1.9476366,0.007009767,-1.3821437
alexnet_w1_mlp_simclrhn_probe2,1,436,NaN,knife,bottle,c03,0436_cop_dnn_c03_bottle_10_n04557648_2355.png,n04557648_2355.png,0.0,-0.3743417,-0.15469517,-0.15531355
alexnet_w1_mlp_simclrhn_probe2,1,437,NaN,car,dog,c30,0437_cop_dnn_c30_dog_10_n02107312_860.png,n02107312_860.png,0.0,-1.781922,-0.4566017,-0.93714297
alexnet_w1_mlp_simclrhn_probe2,1,438,NaN,boat,boat,c100,0438_cop_dnn_c100_boat_10_n02951358_1541.png,n02951358_1541.png,1.0,3.6940637,-1.4122434,3.6107044
alexnet_w1_mlp_simclrhn_probe2,1,439,NaN,boat,boat,c15,0439_cop_dnn_c15_boat_10_n02951358_4972.png,n02951358_4972.png,1.0,0.9081844,0.4859236,0.2985835
alexnet_w1_mlp_simclrhn_probe2,1,440,NaN,bear,bear,c15,0440_cop_dnn_c15_bear_10_n02132136_6352.png,n02132136_6352.png,1.0,0.3269896,-0.18215096,0.36001673
alexnet_w1_mlp_simclrhn_probe2,1,441,NaN,airplane,knife,c05,0441_cop_dnn_c05_knife_10_n03041632_27022.png,n03041632_27022.png,0.0,0.13894266,0.2268123,-0.062133223
alexnet_w1_mlp_simclrhn_probe2,1,442,NaN,airplane,airplane,c15,0442_cop_dnn_c15_airplane_10_n02690373_10399.png,n02690373_10399.png,1.0,1.368252,0.36692846,0.7080427
alexnet_w1_mlp_simclrhn_probe2,1,443,NaN,keyboard,keyboard,c30,0443_cop_dnn_c30_keyboard_10_n04505470_4803.png,n04505470_4803.png,1.0,0.7724575,-0.5213105,0.9148321
alexnet_w1_mlp_simclrhn_probe2,1,444,NaN,bottle,bottle,c03,0444_cop_dnn_c03_bottle_10_n03937543_4916.png,n03937543_4916.png,1.0,0.7061432,-0.28341442,0.69972295
alexnet_w1_mlp_simclrhn_probe2,1,445,NaN,elephant,dog,c10,0445_cop_dnn_c10_dog_10_n02092339_2268.png,n02092339_2268.png,0.0,-0.23223345,0.37636536,-0.43034437
alexnet_w1_mlp_simclrhn_probe2,1,446,NaN,cat,cat,c100,0446_cop_dnn_c100_cat_10_n02123394_2034.png,n02123394_2034.png,1.0,3.2942047,-0.43177816,2.6346679
alexnet_w1_mlp_simclrhn_probe2,1,447,NaN,knife,keyboard,c01,0447_cop_dnn_c01_keyboard_10_n03085013_24442.png,n03085013_24442.png,0.0,0.05102817,0.34563828,-0.20832081
alexnet_w1_mlp_simclrhn_probe2,1,448,NaN,airplane,bicycle,c03,0448_cop_dnn_c03_bicycle_10_n03792782_12908.png,n03792782_12908.png,0.0,-0.49477422,0.42399162,-0.6496656
alexnet_w1_mlp_simclrhn_probe2,1,449,NaN,cat,cat,c50,0449_cop_dnn_c50_cat_10_n02124075_10241.png,n02124075_10241.png,1.0,4.803993,-0.89008534,4.0263214
alexnet_w1_mlp_simclrhn_probe2,1,450,NaN,knife,keyboard,c03,0450_cop_dnn_c03_keyboard_10_n03085013_29941.png,n03085013_29941.png,0.0,0.08173661,0.35601425,-0.19394358
alexnet_w1_mlp_simclrhn_probe2,1,451,NaN,airplane,car,c05,0451_cop_dnn_c05_car_10_n03100240_5718.png,n03100240_5718.png,0.0,-0.22667223,0.25563914,-0.34104565
alexnet_w1_mlp_simclrhn_probe2,1,452,NaN,airplane,bear,c01,0452_cop_dnn_c01_bear_10_n02133161_789.png,n02133161_789.png,0.0,-0.18519555,0.3556896,-0.38246357
alexnet_w1_mlp_simclrhn_probe2,1,453,NaN,chair,chair,c30,0453_cop_dnn_c30_chair_10_n04099969_9891.png,n04099969_9891.png,1.0,0.2657287,-0.39059776,0.4640929
alexnet_w1_mlp_simclrhn_probe2,1,454,NaN,airplane,knife,c01,0454_cop_dnn_c01_knife_10_n03041632_8666.png,n03041632_8666.png,0.0,0.05994644,0.340101,-0.1980992
alexnet_w1_mlp_simclrhn_probe2,1,455,NaN,car,car,c10,0455_cop_dnn_c10_car_10_n03100240_52.png,n03100240_52.png,1.0,0.12295198,0.029517772,0.066067964
alexnet_w1_mlp_simclrhn_probe2,1,456,NaN,bird,bird,c10,0456_cop_dnn_c10_bird_10_n02007558_45529.png,n02007558_45529.png,1.0,-0.009099234,-0.01005654,0.0006769179
alexnet_w1_mlp_simclrhn_probe2,1,457,NaN,airplane,airplane,c15,0457_cop_dnn_c15_airplane_10_n02690373_1933.png,n02690373_1933.png,1.0,0.6090195,0.16782954,0.31196842
alexnet_w1_mlp_simclrhn_probe2,1,458,NaN,airplane,elephant,c03,0458_cop_dnn_c03_elephant_10_n02504013_1879.png,n02504013_1879.png,0.0,0.13740519,0.5133726,-0.2658491
alexnet_w1_mlp_simclrhn_probe2,1,459,NaN,car,car,c10,0459_cop_dnn_c10_car_10_n03100240_3373.png,n03100240_3373.png,1.0,1.3874803,0.7623466,0.44203624
alexnet_w1_mlp_simclrhn_probe2,1,460,NaN,elephant,bicycle,c15,0460_cop_dnn_c15_bicycle_10_n03792782_7331.png,n03792782_7331.png,0.0,-1.0390054,-0.14528377,-0.63195664
alexnet_w1_mlp_simclrhn_probe2,1,461,NaN,knife,chair,c100,0461_cop_dnn_c100_chair_10_n03376595_11049.png,n03376595_11049.png,0.0,-0.86240137,-0.25481814,-0.42962623
alexnet_w1_mlp_simclrhn_probe2,1,462,NaN,knife,knife,c50,0462_cop_dnn_c50_knife_10_n03041632_37274.png,n03041632_37274.png,1.0,-0.08725695,-0.40593973,0.22534277
alexnet_w1_mlp_simclrhn_probe2,1,463,NaN,bottle,bottle,c15,0463_cop_dnn_c15_bottle_10_n02823428_780.png,n02823428_780.png,1.0,0.647363,-0.5727867,0.86277616
alexnet_w1_mlp_simclrhn_probe2,1,464,NaN,elephant,cat,c05,0464_cop_dnn_c05_cat_10_n02123045_390.png,n02123045_390.png,0.0,-0.23063187,-0.1427648,-0.0621314
alexnet_w1_mlp_simclrhn_probe2,1,465,NaN,bird,bird,c30,0465_cop_dnn_c30_bird_10_n01796340_10024.png,n01796340_10024.png,1.0,-0.16260414,-0.42870182,0.18815947
alexnet_w1_mlp_simclrhn_probe2,1,466,NaN,knife,knife,c05,0466_cop_dnn_c05_knife_10_n03041632_13509.png,n03041632_13509.png,1.0,0.6339214,0.22602059,0.28842944
alexnet_w1_mlp_simclrhn_probe2,1,467,NaN,airplane,bird,c05,0467_cop_dnn_c05_bird_10_n01534433_14198.png,n01534433_14198.png,0.0,-0.087914966,0.2552392,-0.24264663
alexnet_w1_mlp_simclrhn_probe2,1,468,NaN,chair,chair,c100,0468_cop_dnn_c100_chair_10_n04099969_2502.png,n04099969_2502.png,1.0,0.3711529,-0.09717093,0.33115497
alexnet_w1_mlp_simclrhn_probe2,1,469,NaN,elephant,cat,c05,0469_cop_dnn_c05_cat_10_n02123045_15474.png,n02123045_15474.png,0.0,-0.16323255,-0.1358164,-0.01938615
alexnet_w1_mlp_simclrhn_probe2,1,470,NaN,clock,clock,c30,0470_cop_dnn_c30_clock_10_n02708093_442.png,n02708093_442.png,1.0,0.54681027,0.15658572,0.27593043
alexnet_w1_mlp_simclrhn_probe2,1,471,NaN,keyboard,boat,c100,0471_cop_dnn_c100_boat_10_n02951358_12663.png,n02951358_12663.png,0.0,-0.98998165,1.1011138,-1.4786278
alexnet_w1_mlp_simclrhn_probe2,1,472,NaN,clock,cat,c05,0472_cop_dnn_c05_cat_10_n02125311_37322.png,n02125311_37322.png,0.0,-0.26466683,-0.025450489,-0.1691515
alexnet_w1_mlp_simclrhn_probe2,1,473,NaN,bird,bird,c100,0473_cop_dnn_c100_bird_10_n01558993_5185.png,n01558993_5185.png,1.0,-0.074195564,-1.0993876,0.7249203
alexnet_w1_mlp_simclrhn_probe2,1,474,NaN,elephant,elephant,c100,0474_cop_dnn_c100_elephant_10_n02504013_7248.png,n02504013_7248.png,1.0,5.122606,0.21765877,3.4683213
alexnet_w1_mlp_simclrhn_probe2,1,475,NaN,airplane,bottle,c01,0475_cop_dnn_c01_bottle_10_n02823428_4245.png,n02823428_4245.png,0.0,-0.1463853,0.28494835,-0.30499896
alexnet_w1_mlp_simclrhn_probe2,1,476,NaN,chair,chair,c10,0476_cop_dnn_c10_chair_10_n04099969_8993.png,n04099969_8993.png,1.0,0.36063266,0.17120567,0.13394511
alexnet_w1_mlp_simclrhn_probe2,1,477,NaN,dog,dog,c30,0477_cop_dnn_c30_dog_10_n02101388_8775.png,n02101388_8775.png,1.0,1.2363179,-1.5016924,1.9360658
alexnet_w1_mlp_simclrhn_probe2,1,478,NaN,airplane,car,c01,0478_cop_dnn_c01_car_10_n02814533_3590.png,n02814533_3590.png,0.0,-0.46517047,0.05719976,-0.36937153
alexnet_w1_mlp_simclrhn_probe2,1,479,NaN,elephant,elephant,c05,0479_cop_dnn_c05_elephant_10_n02504458_6018.png,n02504458_6018.png,1.0,0.6518606,0.23294002,0.29622158
alexnet_w1_mlp_simclrhn_probe2,1,480,NaN,keyboard,keyboard,c100,0480_cop_dnn_c100_keyboard_10_n03085013_11332.png,n03085013_11332.png,1.0,8.903735,1.9762911,4.8984427
alexnet_w1_mlp_simclrhn_probe2,1,481,NaN,oven,oven,c05,0481_cop_dnn_c05_oven_10_n04111531_6863.png,n04111531_6863.png,1.0,-0.18623456,-0.20282583,0.011731797
alexnet_w1_mlp_simclrhn_probe2,1,482,NaN,airplane,airplane,c50,0482_cop_dnn_c50_airplane_10_n02690373_2675.png,n02690373_2675.png,1.0,1.6905651,0.4936351,0.84635735
alexnet_w1_mlp_simclrhn_probe2,1,483,NaN,airplane,dog,c01,0483_cop_dnn_c01_dog_10_n02106550_660.png,n02106550_660.png,0.0,-0.66554916,0.20801707,-0.61770463
alexnet_w1_mlp_simclrhn_probe2,1,484,NaN,knife,knife,c15,0484_cop_dnn_c15_knife_10_n03041632_11700.png,n03041632_11700.png,1.0,0.33517087,0.25924113,0.05369043
alexnet_w1_mlp_simclrhn_probe2,1,485,NaN,bird,bird,c15,0485_cop_dnn_c15_bird_10_n02009229_6149.png,n02009229_6149.png,1.0,0.5635437,-0.6238885,0.83964133
alexnet_w1_mlp_simclrhn_probe2,1,486,NaN,keyboard,clock,c30,0486_cop_dnn_c30_clock_10_n03196217_3780.png,n03196217_3780.png,0.0,0.77193856,1.8677573,-0.77486086
alexnet_w1_mlp_simclrhn_probe2,1,487,NaN,bird,bird,c100,0487_cop_dnn_c100_bird_10_n01530575_34173.png,n01530575_34173.png,1.0,6.101064,-5.742472,8.374645
alexnet_w1_mlp_simclrhn_probe2,1,488,NaN,bottle,bottle,c100,0488_cop_dnn_c100_bottle_10_n03983396_17803.png,n03983396_17803.png,1.0,11.478093,-2.3310313,9.764525
alexnet_w1_mlp_simclrhn_probe2,1,489,NaN,airplane,oven,c05,0489_cop_dnn_c05_oven_10_n04111531_2156.png,n04111531_2156.png,0.0,-0.36752737,0.08935921,-0.3230676
alexnet_w1_mlp_simclrhn_probe2,1,490,NaN,elephant,elephant,c10,0490_cop_dnn_c10_elephant_10_n02504013_14948.png,n02504013_14948.png,1.0,1.8168329,0.2063938,1.1387525
alexnet_w1_mlp_simclrhn_probe2,1,491,NaN,airplane,boat,c01,0491_cop_dnn_c01_boat_10_n04273569_3112.png,n04273569_3112.png,0.0,0.0017305196,0.4483989,-0.31584224
alexnet_w1_mlp_simclrhn_probe2,1,492,NaN,bird,bird,c50,0492_cop_dnn_c50_bird_10_n01560419_6583.png,n01560419_6583.png,1.0,1.6979975,-2.240287,2.7847877
alexnet_w1_mlp_simclrhn_probe2,1,493,NaN,keyboard,keyboard,c50,0493_cop_dnn_c50_keyboard_10_n03085013_19161.png,n03085013_19161.png,1.0,1.2926219,0.28252658,0.7142452
alexnet_w1_mlp_simclrhn_probe2,1,494,NaN,airplane,bird,c05,0494_cop_dnn_c05_bird_10_n01616318_57023.png,n01616318_57023.png,0.0,-0.37227935,0.17688105,-0.38831502
alexnet_w1_mlp_simclrhn_probe2,1,495,NaN,truck,truck,c50,0495_cop_dnn_c50_truck_10_n04467665_69176.png,n04467665_69176.png,1.0,1.124109,0.50759447,0.43594164
alexnet_w1_mlp_simclrhn_probe2,1,496,NaN,car,car,c50,0496_cop_dnn_c50_car_10_n03100240_4971.png,n03100240_4971.png,1.0,5.047439,2.8991952,1.5190378
alexnet_w1_mlp_simclrhn_probe2,1,497,NaN,airplane,oven,c01,0497_cop_dnn_c01_oven_10_n04111531_4901.png,n04111531_4901.png,0.0,-0.41688234,0.39794603,-0.5761707
alexnet_w1_mlp_simclrhn_probe2,1,498,NaN,bear,bear,c30,0498_cop_dnn_c30_bear_10_n02133161_4091.png,n02133161_4091.png,1.0,1.2476587,0.19888376,0.7415959
alexnet_w1_mlp_simclrhn_probe2,1,499,NaN,airplane,cat,c03,0499_cop_dnn_c03_cat_10_n02123394_4164.png,n02123394_4164.png,0.0,-0.18667896,0.022601843,-0.14798388
alexnet_w1_mlp_simclrhn_probe2,1,500,NaN,airplane,bird,c03,0500_cop_dnn_c03_bird_10_n02017213_689.png,n02017213_689.png,0.0,-0.012345263,0.07957792,-0.064999506
alexnet_w1_mlp_simclrhn_probe2,1,501,NaN,dog,dog,c100,0501_cop_dnn_c100_dog_10_n02109047_14207.png,n02109047_14207.png,1.0,0.4181982,-1.6899204,1.490665
alexnet_w1_mlp_simclrhn_probe2,1,502,NaN,airplane,elephant,c05,0502_cop_dnn_c05_elephant_10_n02504013_8347.png,n02504013_8347.png,0.0,0.24387822,0.27332532,-0.020822251
alexnet_w1_mlp_simclrhn_probe2,1,503,NaN,bottle,bottle,c30,0503_cop_dnn_c30_bottle_10_n04591713_1652.png,n04591713_1652.png,1.0,0.8430944,0.041371852,0.5669035
alexnet_w1_mlp_simclrhn_probe2,1,504,NaN,oven,oven,c15,0504_cop_dnn_c15_oven_10_n04111531_22403.png,n04111531_22403.png,1.0,0.7633189,-0.3739345,0.8041596
alexnet_w1_mlp_simclrhn_probe2,1,505,NaN,airplane,airplane,c100,0505_cop_dnn_c100_airplane_10_n02690373_6046.png,n02690373_6046.png,1.0,15.832083,-1.5396526,12.283671
alexnet_w1_mlp_simclrhn_probe2,1,506,NaN,elephant,bear,c15,0506_cop_dnn_c15_bear_10_n02134084_1689.png,n02134084_1689.png,0.0,0.04927522,0.19862023,-0.10560287
alexnet_w1_mlp_simclrhn_probe2,1,507,NaN,oven,oven,c30,0507_cop_dnn_c30_oven_10_n04111531_14269.png,n04111531_14269.png,1.0,1.7209276,0.29176676,1.0105693
alexnet_w1_mlp_simclrhn_probe2,1,508,NaN,cat,cat,c100,0508_cop_dnn_c100_cat_10_n02123597_9444.png,n02123597_9444.png,1.0,3.8396025,0.42859808,2.4119444
alexnet_w1_mlp_simclrhn_probe2,1,509,NaN,bear,bear,c10,0509_cop_dnn_c10_bear_10_n02134418_128.png,n02134418_128.png,1.0,0.8782468,0.051569212,0.5845493
alexnet_w1_mlp_simclrhn_probe2,1,510,NaN,airplane,airplane,c30,0510_cop_dnn_c30_airplane_10_n02690373_8789.png,n02690373_8789.png,1.0,4.804759,0.579852,2.9874604
alexnet_w1_mlp_simclrhn_probe2,1,511,NaN,airplane,bottle,c01,0511_cop_dnn_c01_bottle_10_n03937543_10092.png,n03937543_10092.png,0.0,-0.28061336,0.42244196,-0.4971352
alexnet_w1_mlp_simclrhn_probe2,1,512,NaN,clock,clock,c03,0512_cop_dnn_c03_clock_10_n02708093_7257.png,n02708093_7257.png,1.0,0.64552635,-0.044904713,0.4882085
alexnet_w1_mlp_simclrhn_probe2,1,513,NaN,bear,bear,c100,0513_cop_dnn_c100_bear_10_n02134084_21207.png,n02134084_21207.png,1.0,0.8199657,-0.053475395,0.6176161
alexnet_w1_mlp_simclrhn_probe2,1,514,NaN,bird,bird,c05,0514_cop_dnn_c05_bird_10_n01797886_12811.png,n01797886_12811.png,1.0,-0.082325324,-0.23671038,0.10916673
alexnet_w1_mlp_simclrhn_probe2,1,515,NaN,airplane,oven,c01,0515_cop_dnn_c01_oven_10_n04111531_21248.png,n04111531_21248.png,0.0,-0.44603336,0.2321595,-0.47955477
alexnet_w1_mlp_simclrhn_probe2,1,516,NaN,dog,dog,c15,0516_cop_dnn_c15_dog_10_n02090379_5574.png,n02090379_5574.png,1.0,-0.12195576,-0.2859502,0.1159616
alexnet_w1_mlp_simclrhn_probe2,1,517,NaN,car,car,c15,0517_cop_dnn_c15_car_10_n04285008_8443.png,n04285008_8443.png,1.0,2.7081518,1.3577187,0.95490044
alexnet_w1_mlp_simclrhn_probe2,1,518,NaN,car,car,c100,0518_cop_dnn_c100_car_10_n03100240_15647.png,n03100240_15647.png,1.0,4.689811,3.244996,1.0216386
alexnet_w1_mlp_simclrhn_probe2,1,519,NaN,chair,chair,c50,0519_cop_dnn_c50_chair_10_n02791124_5824.png,n02791124_5824.png,1.0,1.8907393,0.20628378,1.19109
alexnet_w1_mlp_simclrhn_probe2,1,520,NaN,airplane,bear,c05,0520_cop_dnn_c05_bear_10_n02133161_9949.png,n02133161_9949.png,0.0,-0.05402781,0.19203569,-0.17399317
alexnet_w1_mlp_simclrhn_probe2,1,521,NaN,knife,elephant,c03,0521_cop_dnn_c03_elephant_10_n02504458_5320.png,n02504458_5320.png,0.0,-0.19389768,-0.012038305,-0.128594
alexnet_w1_mlp_simclrhn_probe2,1,522,NaN,airplane,keyboard,c01,0522_cop_dnn_c01_keyboard_10_n04505470_1904.png,n04505470_1904.png,0.0,-0.12858282,0.382967,-0.36172035
alexnet_w1_mlp_simclrhn_probe2,1,523,NaN,oven,oven,c100,0523_cop_dnn_c100_oven_10_n04111531_4685.png,n04111531_4685.png,1.0,4.447487,-3.8216019,5.847129
alexnet_w1_mlp_simclrhn_probe2,1,524,NaN,truck,truck,c05,0524_cop_dnn_c05_truck_10_n03417042_2230.png,n03417042_2230.png,1.0,0.29724297,0.28496474,0.008682019
alexnet_w1_mlp_simclrhn_probe2,1,525,NaN,knife,bottle,c15,0525_cop_dnn_c15_bottle_10_n04591713_6842.png,n04591713_6842.png,0.0,-0.26751423,-0.25242522,-0.010669538
alexnet_w1_mlp_simclrhn_probe2,1,526,NaN,boat,boat,c50,0526_cop_dnn_c50_boat_10_n02951358_8285.png,n02951358_8285.png,1.0,0.051437497,-0.33295012,0.27180308
alexnet_w1_mlp_simclrhn_probe2,1,527,NaN,airplane,knife,c01,0527_cop_dnn_c01_knife_10_n03041632_48675.png,n03041632_48675.png,0.0,0.19192944,0.29979622,-0.07627333
alexnet_w1_mlp_simclrhn_probe2,1,528,NaN,airplane,oven,c01,0528_cop_dnn_c01_oven_10_n04111531_14435.png,n04111531_14435.png,0.0,-0.49732047,0.27802533,-0.5482523
alexnet_w1_mlp_simclrhn_probe2,1,529,NaN,cat,cat,c50,0529_cop_dnn_c50_cat_10_n02123159_8273.png,n02123159_8273.png,1.0,4.140083,-2.689432,4.829196
alexnet_w1_mlp_simclrhn_probe2,1,530,NaN,bird,bird,c50,0530_cop_dnn_c50_bird_10_n01614925_1908.png,n01614925_1908.png,1.0,0.23795795,-0.6611829,0.6357886
alexnet_w1_mlp_simclrhn_probe2,1,531,NaN,knife,knife,c05,0531_cop_dnn_c05_knife_10_n03041632_96345.png,n03041632_96345.png,1.0,0.022006724,-0.33978707,0.25582683
alexnet_w1_mlp_simclrhn_probe2,1,532,NaN,knife,knife,c10,0532_cop_dnn_c10_knife_10_n03041632_31037.png,n03041632_31037.png,1.0,0.1619421,-0.49709913,0.46601254
alexnet_w1_mlp_simclrhn_probe2,1,533,NaN,airplane,airplane,c50,0533_cop_dnn_c50_airplane_10_n02690373_1436.png,n02690373_1436.png,1.0,2.4267201,-0.033980235,1.7399778
alexnet_w1_mlp_simclrhn_probe2,1,534,NaN,chair,chair,c100,0534_cop_dnn_c100_chair_10_n04099969_28072.png,n04099969_28072.png,1.0,2.6375985,0.34607956,1.6203486
alexnet_w1_mlp_simclrhn_probe2,1,535,NaN,airplane,boat,c01,0535_cop_dnn_c01_boat_10_n04612504_19983.png,n04612504_19983.png,0.0,-0.03621959,0.30593213,-0.24193782
alexnet_w1_mlp_simclrhn_probe2,1,536,NaN,oven,oven,c15,0536_cop_dnn_c15_oven_10_n04111531_8255.png,n04111531_8255.png,1.0,0.5196467,0.14971098,0.26158407
alexnet_w1_mlp_simclrhn_probe2,1,537,NaN,elephant,bear,c15,0537_cop_dnn_c15_bear_10_n02132136_1574.png,n02132136_1574.png,0.0,0.43674967,1.2730954,-0.5913857
alexnet_w1_mlp_simclrhn_probe2,1,538,NaN,boat,boat,c100,0538_cop_dnn_c100_boat_10_n04273569_24747.png,n04273569_24747.png,1.0,2.6766582,-1.1464739,2.7033627
alexnet_w1_mlp_simclrhn_probe2,1,539,NaN,dog,dog,c30,0539_cop_dnn_c30_dog_10_n02113799_18413.png,n02113799_18413.png,1.0,0.031682845,-0.30980906,0.24147125
alexnet_w1_mlp_simclrhn_probe2,1,540,NaN,boat,boat,c15,0540_cop_dnn_c15_boat_10_n04273569_28333.png,n04273569_28333.png,1.0,1.7345932,-0.36459386,1.4843494
alexnet_w1_mlp_simclrhn_probe2,1,541,NaN,airplane,bird,c01,0541_cop_dnn_c01_bird_10_n02017213_2183.png,n02017213_2183.png,0.0,-0.12862042,0.25910085,-0.27416036
alexnet_w1_mlp_simclrhn_probe2,1,542,NaN,boat,boat,c50,0542_cop_dnn_c50_boat_10_n04273569_26139.png,n04273569_26139.png,1.0,2.4335837,1.2167263,0.8604482
alexnet_w1_mlp_simclrhn_probe2,1,543,NaN,knife,knife,c03,0543_cop_dnn_c03_knife_10_n03041632_29684.png,n03041632_29684.png,1.0,0.22410133,0.15970057,0.045538217
alexnet_w1_mlp_simclrhn_probe2,1,544,NaN,bicycle,boat,c100,0544_cop_dnn_c100_boat_10_n02951358_3087.png,n02951358_3087.png,0.0,-0.01730547,0.2750649,-0.20673706
alexnet_w1_mlp_simclrhn_probe2,1,545,NaN,keyboard,keyboard,c15,0545_cop_dnn_c15_keyboard_10_n03085013_13615.png,n03085013_13615.png,1.0,1.1206771,0.37488338,0.5273558
alexnet_w1_mlp_simclrhn_probe2,1,546,NaN,airplane,oven,c03,0546_cop_dnn_c03_oven_10_n04111531_1778.png,n04111531_1778.png,0.0,-0.26109883,0.023960337,-0.20156726
alexnet_w1_mlp_simclrhn_probe2,1,547,NaN,airplane,dog,c03,0547_cop_dnn_c03_dog_10_n02097474_9129.png,n02097474_9129.png,0.0,-0.5439153,-0.028774783,-0.36425933
alexnet_w1_mlp_simclrhn_probe2,1,548,NaN,bird,bird,c30,0548_cop_dnn_c30_bird_10_n02013706_19220.png,n02013706_19220.png,1.0,1.7060791,-1.375414,2.1789448
alexnet_w1_mlp_simclrhn_probe2,1,549,NaN,keyboard,clock,c100,0549_cop_dnn_c100_clock_10_n03196217_7199.png,n03196217_7199.png,0.0,2.4630172,3.2199311,-0.53521895
alexnet_w1_mlp_simclrhn_probe2,1,550,NaN,bear,bear,c50,0550_cop_dnn_c50_bear_10_n02132136_27823.png,n02132136_27823.png,1.0,3.3793616,1.7053841,1.1836809
alexnet_w1_mlp_simclrhn_probe2,1,551,NaN,airplane,boat,c03,0551_cop_dnn_c03_boat_10_n03662601_6462.png,n03662601_6462.png,0.0,-0.1620038,0.0950647,-0.1817749
alexnet_w1_mlp_simclrhn_probe2,1,552,NaN,clock,knife,c15,0552_cop_dnn_c15_knife_10_n03041632_11773.png,n03041632_11773.png,0.0,-0.33493322,-0.13309398,-0.14272189
alexnet_w1_mlp_simclrhn_probe2,1,553,NaN,clock,clock,c01,0553_cop_dnn_c01_clock_10_n02708093_7998.png,n02708093_7998.png,1.0,0.28005946,0.2123703,0.047863457
alexnet_w1_mlp_simclrhn_probe2,1,554,NaN,elephant,elephant,c30,0554_cop_dnn_c30_elephant_10_n02504458_3409.png,n02504458_3409.png,1.0,5.7310553,1.1403706,3.2461045
alexnet_w1_mlp_simclrhn_probe2,1,555,NaN,airplane,bottle,c01,0555_cop_dnn_c01_bottle_10_n04560804_24166.png,n04560804_24166.png,0.0,-0.13350265,0.23821358,-0.26284307
alexnet_w1_mlp_simclrhn_probe2,1,556,NaN,elephant,cat,c15,0556_cop_dnn_c15_cat_10_n02125311_17613.png,n02125311_17613.png,0.0,0.2084301,0.29479614,-0.061070014
alexnet_w1_mlp_simclrhn_probe2,1,557,NaN,airplane,bicycle,c05,0557_cop_dnn_c05_bicycle_10_n03792782_5284.png,n03792782_5284.png,0.0,-0.4585021,0.11032199,-0.40221938
alexnet_w1_mlp_simclrhn_probe2,1,558,NaN,oven,oven,c10,0558_cop_dnn_c10_oven_10_n04111531_13006.png,n04111531_13006.png,1.0,0.13315889,0.11132043,0.015442126
alexnet_w1_mlp_simclrhn_probe2,1,559,NaN,airplane,oven,c10,0559_cop_dnn_c10_oven_10_n04111531_8309.png,n04111531_8309.png,0.0,-0.10625763,0.13590552,-0.1712352
alexnet_w1_mlp_simclrhn_probe2,1,560,NaN,clock,clock,c10,0560_cop_dnn_c10_clock_10_n04548280_8390.png,n04548280_8390.png,1.0,0.071268104,-0.26109093,0.23501334
alexnet_w1_mlp_simclrhn_probe2,1,561,NaN,truck,truck,c50,0561_cop_dnn_c50_truck_10_n04467665_7110.png,n04467665_7110.png,1.0,3.1797779,0.87492114,1.6297799
alexnet_w1_mlp_simclrhn_probe2,1,562,NaN,airplane,clock,c10,0562_cop_dnn_c10_clock_10_n03196217_8020.png,n03196217_8020.png,0.0,0.12565273,0.27410537,-0.10497187
alexnet_w1_mlp_simclrhn_probe2,1,563,NaN,elephant,elephant,c100,0563_cop_dnn_c100_elephant_10_n02504458_7955.png,n02504458_7955.png,1.0,12.694637,2.8136842,6.986889
alexnet_w1_mlp_simclrhn_probe2,1,564,NaN,airplane,elephant,c01,0564_cop_dnn_c01_elephant_10_n02504458_1022.png,n02504458_1022.png,0.0,-0.29084498,0.27244174,-0.39830387
alexnet_w1_mlp_simclrhn_probe2,1,565,NaN,clock,clock,c100,0565_cop_dnn_c100_clock_10_n04548280_2383.png,n04548280_2383.png,1.0,4.0675673,1.9601591,1.4901627
alexnet_w1_mlp_simclrhn_probe2,1,566,NaN,bird,bird,c50,0566_cop_dnn_c50_bird_10_n02002724_7019.png,n02002724_7019.png,1.0,1.4362022,-0.73696125,1.5366586
alexnet_w1_mlp_simclrhn_probe2,1,567,NaN,cat,cat,c100,0567_cop_dnn_c100_cat_10_n02125311_1127.png,n02125311_1127.png,1.0,1.7403761,-0.19768044,1.370413
alexnet_w1_mlp_simclrhn_probe2,1,568,NaN,knife,bicycle,c05,0568_cop_dnn_c05_bicycle_10_n02835271_6481.png,n02835271_6481.png,0.0,-1.060324,-0.31147584,-0.52951556
alexnet_w1_mlp_simclrhn_probe2,1,569,NaN,car,car,c15,0569_cop_dnn_c15_car_10_n04285008_5208.png,n04285008_5208.png,1.0,1.4926558,0.7746507,0.5077063
alexnet_w1_mlp_simclrhn_probe2,1,570,NaN,keyboard,oven,c50,0570_cop_dnn_c50_oven_10_n04111531_8658.png,n04111531_8658.png,0.0,0.4745157,0.826249,-0.248713
alexnet_w1_mlp_simclrhn_probe2,1,571,NaN,bottle,bottle,c05,0571_cop_dnn_c05_bottle_10_n04579145_2910.png,n04579145_2910.png,1.0,-0.0858295,-0.20840903,0.08667682
alexnet_w1_mlp_simclrhn_probe2,1,572,NaN,airplane,truck,c01,0572_cop_dnn_c01_truck_10_n04467665_22414.png,n04467665_22414.png,0.0,-0.51137835,0.21825394,-0.5159279
alexnet_w1_mlp_simclrhn_probe2,1,573,NaN,elephant,elephant,c15,0573_cop_dnn_c15_elephant_10_n02504013_5439.png,n02504013_5439.png,1.0,0.57223254,0.26034606,0.22053705
alexnet_w1_mlp_simclrhn_probe2,1,574,NaN,cat,cat,c10,0574_cop_dnn_c10_cat_10_n02123159_5945.png,n02123159_5945.png,1.0,0.49920484,-0.4417255,0.6653383
alexnet_w1_mlp_simclrhn_probe2,1,575,NaN,bottle,bottle,c10,0575_cop_dnn_c10_bottle_10_n04557648_2426.png,n04557648_2426.png,1.0,0.40195185,-0.0069891214,0.28916493
alexnet_w1_mlp_simclrhn_probe2,1,576,NaN,knife,bicycle,c05,0576_cop_dnn_c05_bicycle_10_n03792782_38641.png,n03792782_38641.png,0.0,-0.085342504,0.0125951255,-0.069252364
alexnet_w1_mlp_simclrhn_probe2,1,577,NaN,cat,dog,c30,0577_cop_dnn_c30_dog_10_n02110958_15843.png,n02110958_15843.png,0.0,-0.85603946,-0.7730771,-0.05866327
alexnet_w1_mlp_simclrhn_probe2,1,578,NaN,keyboard,keyboard,c15,0578_cop_dnn_c15_keyboard_10_n04505470_5161.png,n04505470_5161.png,1.0,1.7802725,0.0726909,1.2074425
alexnet_w1_mlp_simclrhn_probe2,1,579,NaN,airplane,airplane,c30,0579_cop_dnn_c30_airplane_10_n02690373_8350.png,n02690373_8350.png,1.0,2.9325223,0.7932224,1.5127134
alexnet_w1_mlp_simclrhn_probe2,1,580,NaN,airplane,bicycle,c05,0580_cop_dnn_c05_bicycle_10_n03792782_10129.png,n03792782_10129.png,0.0,-0.3072815,0.36495864,-0.47534558
alexnet_w1_mlp_simclrhn_probe2,1,581,NaN,car,car,c100,0581_cop_dnn_c100_car_10_n02814533_26369.png,n02814533_26369.png,1.0,2.9132745,0.7259399,1.5466791
alexnet_w1_mlp_simclrhn_probe2,1,582,NaN,oven,oven,c10,0582_cop_dnn_c10_oven_10_n04111531_10077.png,n04111531_10077.png,1.0,0.96618104,0.1832258,0.553633
alexnet_w1_mlp_simclrhn_probe2,1,583,NaN,airplane,oven,c01,0583_cop_dnn_c01_oven_10_n04111531_12702.png,n04111531_12702.png,0.0,-0.37539256,0.19510047,-0.4033995
alexnet_w1_mlp_simclrhn_probe2,1,584,NaN,keyboard,clock,c100,0584_cop_dnn_c100_clock_10_n03196217_8618.png,n03196217_8618.png,0.0,1.6791743,2.3148618,-0.44949892
alexnet_w1_mlp_simclrhn_probe2,1,585,NaN,bottle,bottle,c10,0585_cop_dnn_c10_bottle_10_n03983396_4227.png,n03983396_4227.png,1.0,0.4693098,-0.03756886,0.35841736
alexnet_w1_mlp_simclrhn_probe2,1,586,NaN,bottle,bottle,c30,0586_cop_dnn_c30_bottle_10_n03983396_9090.png,n03983396_9090.png,1.0,1.0240023,0.43061155,0.41959065
alexnet_w1_mlp_simclrhn_probe2,1,587,NaN,bear,bear,c100,0587_cop_dnn_c100_bear_10_n02133161_223.png,n02133161_223.png,1.0,1.9307221,0.8957602,0.73182863
alexnet_w1_mlp_simclrhn_probe2,1,588,NaN,keyboard,keyboard,c50,0588_cop_dnn_c50_keyboard_10_n04505470_1047.png,n04505470_1047.png,1.0,3.2259233,0.27226502,2.088552
alexnet_w1_mlp_simclrhn_probe2,1,589,NaN,knife,elephant,c03,0589_cop_dnn_c03_elephant_10_n02504013_7467.png,n02504013_7467.png,0.0,-0.3018031,0.027481757,-0.23283957
alexnet_w1_mlp_simclrhn_probe2,1,590,NaN,elephant,elephant,c30,0590_cop_dnn_c30_elephant_10_n02504013_476.png,n02504013_476.png,1.0,1.4526883,0.21427785,0.87568843
alexnet_w1_mlp_simclrhn_probe2,1,591,NaN,chair,chair,c100,0591_cop_dnn_c100_chair_10_n02791124_12707.png,n02791124_12707.png,1.0,1.6222546,0.58276504,0.7350301
alexnet_w1_mlp_simclrhn_probe2,1,592,NaN,airplane,bird,c01,0592_cop_dnn_c01_bird_10_n01537544_22049.png,n01537544_22049.png,0.0,-0.042884782,0.42239872,-0.32900512
alexnet_w1_mlp_simclrhn_probe2,1,593,NaN,bottle,bicycle,c05,0593_cop_dnn_c05_bicycle_10_n02835271_4220.png,n02835271_4220.png,0.0,-0.24837737,-0.09459858,-0.10873803
alexnet_w1_mlp_simclrhn_probe2,1,594,NaN,truck,truck,c10,0594_cop_dnn_c10_truck_10_n03417042_7530.png,n03417042_7530.png,1.0,0.33077088,0.14628626,0.13045032
alexnet_w1_mlp_simclrhn_probe2,1,595,NaN,airplane,bear,c03,0595_cop_dnn_c03_bear_10_n02134418_12457.png,n02134418_12457.png,0.0,-0.3267192,-0.12466769,-0.14287199
alexnet_w1_mlp_simclrhn_probe2,1,596,NaN,bottle,bottle,c50,0596_cop_dnn_c50_bottle_10_n04557648_10265.png,n04557648_10265.png,1.0,2.3250003,-0.37677374,1.9104428
alexnet_w1_mlp_simclrhn_probe2,1,597,NaN,clock,clock,c15,0597_cop_dnn_c15_clock_10_n02708093_2025.png,n02708093_2025.png,1.0,0.6472311,0.17741492,0.3322102
alexnet_w1_mlp_simclrhn_probe2,1,598,NaN,bicycle,chair,c15,0598_cop_dnn_c15_chair_10_n03376595_1961.png,n03376595_1961.png,0.0,-0.13710953,0.3908239,-0.37330532
alexnet_w1_mlp_simclrhn_probe2,1,599,NaN,bear,bear,c05,0599_cop_dnn_c05_bear_10_n02134084_67.png,n02134084_67.png,1.0,0.09415153,0.020540252,0.052051034
alexnet_w1_mlp_simclrhn_probe2,1,600,NaN,cat,cat,c50,0600_cop_dnn_c50_cat_10_n02123045_455.png,n02123045_455.png,1.0,4.3073,-1.4475069,4.069263
alexnet_w1_mlp_simclrhn_probe2,1,601,NaN,car,car,c10,0601_cop_dnn_c10_car_10_n03100240_13929.png,n03100240_13929.png,1.0,1.0696211,0.61084783,0.32440168
alexnet_w1_mlp_simclrhn_probe2,1,602,NaN,elephant,elephant,c10,0602_cop_dnn_c10_elephant_10_n02504458_4997.png,n02504458_4997.png,1.0,1.1251869,-0.07792986,0.850732
alexnet_w1_mlp_simclrhn_probe2,1,603,NaN,airplane,airplane,c10,0603_cop_dnn_c10_airplane_10_n02690373_5344.png,n02690373_5344.png,1.0,0.79206735,0.35883513,0.30634144
alexnet_w1_mlp_simclrhn_probe2,1,604,NaN,airplane,oven,c01,0604_cop_dnn_c01_oven_10_n04111531_797.png,n04111531_797.png,0.0,-0.42917323,0.40957585,-0.59308517
alexnet_w1_mlp_simclrhn_probe2,1,605,NaN,boat,boat,c30,0605_cop_dnn_c30_boat_10_n04273569_3085.png,n04273569_3085.png,1.0,3.4261558,1.1165948,1.6331062
alexnet_w1_mlp_simclrhn_probe2,1,606,NaN,oven,oven,c100,0606_cop_dnn_c100_oven_10_n04111531_9113.png,n04111531_9113.png,1.0,5.0322638,-1.2080089,4.412539
alexnet_w1_mlp_simclrhn_probe2,1,607,NaN,airplane,boat,c03,0607_cop_dnn_c03_boat_10_n03662601_18803.png,n03662601_18803.png,0.0,0.11236167,0.19934168,-0.06150416
alexnet_w1_mlp_simclrhn_probe2,1,608,NaN,airplane,truck,c03,0608_cop_dnn_c03_truck_10_n04467665_30581.png,n04467665_30581.png,0.0,-0.6178678,0.20242918,-0.5800376
alexnet_w1_mlp_simclrhn_probe2,1,609,NaN,elephant,elephant,c30,0609_cop_dnn_c30_elephant_10_n02504013_5237.png,n02504013_5237.png,1.0,2.554524,0.8203829,1.226223
alexnet_w1_mlp_simclrhn_probe2,1,610,NaN,keyboard,keyboard,c100,0610_cop_dnn_c100_keyboard_10_n03085013_12175.png,n03085013_12175.png,1.0,7.8488398,1.3639625,4.5855007
alexnet_w1_mlp_simclrhn_probe2,1,611,NaN,chair,chair,c30,0611_cop_dnn_c30_chair_10_n02791124_5401.png,n02791124_5401.png,1.0,1.7037413,-0.21858585,1.3592906
alexnet_w1_mlp_simclrhn_probe2,1,612,NaN,boat,boat,c50,0612_cop_dnn_c50_boat_10_n02951358_22332.png,n02951358_22332.png,1.0,4.603015,0.62265456,2.81454
alexnet_w1_mlp_simclrhn_probe2,1,613,NaN,airplane,knife,c03,0613_cop_dnn_c03_knife_10_n03041632_11932.png,n03041632_11932.png,0.0,0.2608856,0.38019708,-0.08436596
alexnet_w1_mlp_simclrhn_probe2,1,614,NaN,cat,cat,c30,0614_cop_dnn_c30_cat_10_n02123159_5257.png,n02123159_5257.png,1.0,0.2377081,-0.7316382,0.68543136
alexnet_w1_mlp_simclrhn_probe2,1,615,NaN,bottle,bottle,c50,0615_cop_dnn_c50_bottle_10_n03983396_105.png,n03983396_105.png,1.0,2.9430203,-0.41592583,2.3751335
alexnet_w1_mlp_simclrhn_probe2,1,616,NaN,boat,boat,c50,0616_cop_dnn_c50_boat_10_n04612504_11939.png,n04612504_11939.png,1.0,3.8479633,0.53392804,2.3433769
alexnet_w1_mlp_simclrhn_probe2,1,617,NaN,boat,boat,c30,0617_cop_dnn_c30_boat_10_n03662601_5575.png,n03662601_5575.png,1.0,1.145552,0.54894257,0.42186663
alexnet_w1_mlp_simclrhn_probe2,1,618,NaN,cat,cat,c05,0618_cop_dnn_c05_cat_10_n02123159_6590.png,n02123159_6590.png,1.0,-0.09906211,-0.10791785,0.006261958
alexnet_w1_mlp_simclrhn_probe2,1,619,NaN,bear,bear,c50,0619_cop_dnn_c50_bear_10_n02134084_21462.png,n02134084_21462.png,1.0,-0.21316963,-0.9072478,0.4907874
alexnet_w1_mlp_simclrhn_probe2,1,620,NaN,elephant,cat,c05,0620_cop_dnn_c05_cat_10_n02125311_46330.png,n02125311_46330.png,0.0,-0.14267595,-0.05003261,-0.06550874
alexnet_w1_mlp_simclrhn_probe2,1,621,NaN,airplane,cat,c01,0621_cop_dnn_c01_cat_10_n02123394_4714.png,n02123394_4714.png,0.0,-0.3358744,0.3063839,-0.4541452
