subj,session,trial,rt,object_response,category,condition,imagename,filename,is_correct,targ_act,max_nontarg_act,decision_margin
alexnet_w1_mlp_simclrhn_probe0,1,1,NaN,clock,knife,c30,0001_cop_dnn_c30_knife_10_n03041632_7380.png,n03041632_7380.png,0.0,-0.96115464,0.16379322,-0.7954583
alexnet_w1_mlp_simclrhn_probe0,1,2,NaN,bicycle,bicycle,c100,0002_cop_dnn_c100_bicycle_10_n03792782_5966.png,n03792782_5966.png,1.0,-1.963387,-3.824505,1.3160093
alexnet_w1_mlp_simclrhn_probe0,1,3,NaN,boat,bird,c01,0003_cop_dnn_c01_bird_10_n01601694_10802.png,n01601694_10802.png,0.0,-0.33140776,-0.1500501,-0.12823923
alexnet_w1_mlp_simclrhn_probe0,1,4,NaN,airplane,airplane,c05,0004_cop_dnn_c05_airplane_10_n02690373_9759.png,n02690373_9759.png,1.0,0.84862655,0.04724726,0.56666076
alexnet_w1_mlp_simclrhn_probe0,1,5,NaN,airplane,car,c03,0005_cop_dnn_c03_car_10_n02814533_2236.png,n02814533_2236.png,0.0,-0.5606528,0.14482057,-0.498845
alexnet_w1_mlp_simclrhn_probe0,1,6,NaN,chair,chair,c30,0006_cop_dnn_c30_chair_10_n02791124_7207.png,n02791124_7207.png,1.0,-1.0151682,-1.6483829,0.44775042
alexnet_w1_mlp_simclrhn_probe0,1,7,NaN,knife,oven,c50,0007_cop_dnn_c50_oven_10_n04111531_7064.png,n04111531_7064.png,0.0,-3.382785,-2.4584026,-0.6536371
alexnet_w1_mlp_simclrhn_probe0,1,8,NaN,bear,bird,c15,0008_cop_dnn_c15_bird_10_n01532829_2263.png,n01532829_2263.png,0.0,-1.4419318,-1.1347061,-0.21724138
alexnet_w1_mlp_simclrhn_probe0,1,9,NaN,bicycle,bicycle,c50,0009_cop_dnn_c50_bicycle_10_n02835271_3383.png,n02835271_3383.png,1.0,2.7164025,-0.4621029,2.2475429
alexnet_w1_mlp_simclrhn_probe0,1,10,NaN,clock,bicycle,c03,0010_cop_dnn_c03_bicycle_10_n03792782_27510.png,n03792782_27510.png,0.0,-0.6975601,-0.42589283,-0.19209775
alexnet_w1_mlp_simclrhn_probe0,1,11,NaN,clock,bottle,c03,0011_cop_dnn_c03_bottle_10_n04557648_10944.png,n04557648_10944.png,0.0,-0.28908896,-0.2045893,-0.05975028
alexnet_w1_mlp_simclrhn_probe0,1,12,NaN,keyboard,keyboard,c15,0012_cop_dnn_c15_keyboard_10_n03085013_20891.png,n03085013_20891.png,1.0,-0.38950092,-0.58284295,0.13671346
alexnet_w1_mlp_simclrhn_probe0,1,13,NaN,elephant,elephant,c30,0013_cop_dnn_c30_elephant_10_n02504458_3225.png,n02504458_3225.png,1.0,1.0089784,-1.0254601,1.4385654
alexnet_w1_mlp_simclrhn_probe0,1,14,NaN,keyboard,keyboard,c10,0014_cop_dnn_c10_keyboard_10_n04505470_6638.png,n04505470_6638.png,1.0,0.49685436,-0.46453252,0.6798032
alexnet_w1_mlp_simclrhn_probe0,1,15,NaN,airplane,bird,c01,0015_cop_dnn_c01_bird_10_n01601694_11888.png,n01601694_11888.png,0.0,-0.40979007,-0.123101085,-0.20271973
alexnet_w1_mlp_simclrhn_probe0,1,16,NaN,airplane,airplane,c03,0016_cop_dnn_c03_airplane_10_n02690373_8743.png,n02690373_8743.png,1.0,0.5345288,-0.2112664,0.52735686
alexnet_w1_mlp_simclrhn_probe0,1,17,NaN,boat,boat,c10,0017_cop_dnn_c10_boat_10_n03344393_8869.png,n03344393_8869.png,1.0,-0.0299831,-0.12573488,0.067706734
alexnet_w1_mlp_simclrhn_probe0,1,18,NaN,bear,bear,c01,0018_cop_dnn_c01_bear_10_n02132136_27682.png,n02132136_27682.png,1.0,-0.08564905,-0.2563994,0.12073873
alexnet_w1_mlp_simclrhn_probe0,1,19,NaN,bicycle,clock,c50,0019_cop_dnn_c50_clock_10_n02708093_7081.png,n02708093_7081.png,0.0,-4.4836,-1.8899117,-1.8340148
alexnet_w1_mlp_simclrhn_probe0,1,20,NaN,car,car,c10,0020_cop_dnn_c10_car_10_n03100240_12141.png,n03100240_12141.png,1.0,0.18250926,-0.4276723,0.43146354
alexnet_w1_mlp_simclrhn_probe0,1,21,NaN,airplane,car,c15,0021_cop_dnn_c15_car_10_n02814533_19287.png,n02814533_19287.png,0.0,-0.9037315,-0.29939905,-0.42732757
alexnet_w1_mlp_simclrhn_probe0,1,22,NaN,bicycle,bicycle,c03,0022_cop_dnn_c03_bicycle_10_n02835271_3841.png,n02835271_3841.png,1.0,-0.20104542,-0.6287539,0.30243558
alexnet_w1_mlp_simclrhn_probe0,1,23,NaN,clock,clock,c15,0023_cop_dnn_c15_clock_10_n02708093_6696.png,n02708093_6696.png,1.0,1.11318,-1.0461172,1.5268537
alexnet_w1_mlp_simclrhn_probe0,1,24,NaN,bear,bird,c01,0024_cop_dnn_c01_bird_10_n01829413_6393.png,n01829413_6393.png,0.0,-0.475738,-0.3652389,-0.078134656
alexnet_w1_mlp_simclrhn_probe0,1,25,NaN,clock,clock,c01,0025_cop_dnn_c01_clock_10_n02708093_3484.png,n02708093_3484.png,1.0,-0.14620495,-0.28045794,0.09493121
alexnet_w1_mlp_simclrhn_probe0,1,26,NaN,chair,chair,c05,0026_cop_dnn_c05_chair_10_n04429376_55163.png,n04429376_55163.png,1.0,-0.43183786,-0.4855109,0.037952565
alexnet_w1_mlp_simclrhn_probe0,1,27,NaN,elephant,boat,c100,0027_cop_dnn_c100_boat_10_n02951358_14528.png,n02951358_14528.png,0.0,-4.391442,-4.239463,-0.107465364
alexnet_w1_mlp_simclrhn_probe0,1,28,NaN,airplane,chair,c01,0028_cop_dnn_c01_chair_10_n03376595_9603.png,n03376595_9603.png,0.0,-0.6556189,-0.1671562,-0.3453953
alexnet_w1_mlp_simclrhn_probe0,1,29,NaN,knife,bottle,c03,0029_cop_dnn_c03_bottle_10_n03937543_1840.png,n03937543_1840.png,0.0,-0.5663041,-0.37997904,-0.1317517
alexnet_w1_mlp_simclrhn_probe0,1,30,NaN,airplane,car,c01,0030_cop_dnn_c01_car_10_n02814533_32835.png,n02814533_32835.png,0.0,-0.6109864,-0.10433632,-0.3582557
alexnet_w1_mlp_simclrhn_probe0,1,31,NaN,elephant,bird,c15,0031_cop_dnn_c15_bird_10_n01860187_38598.png,n01860187_38598.png,0.0,-1.5706567,-0.8266318,-0.52610505
alexnet_w1_mlp_simclrhn_probe0,1,32,NaN,airplane,airplane,c100,0032_cop_dnn_c100_airplane_10_n02690373_9322.png,n02690373_9322.png,1.0,7.016993,-0.54721236,5.348701
alexnet_w1_mlp_simclrhn_probe0,1,33,NaN,clock,bicycle,c01,0033_cop_dnn_c01_bicycle_10_n02835271_1505.png,n02835271_1505.png,0.0,-0.75868887,-0.2511029,-0.3589175
alexnet_w1_mlp_simclrhn_probe0,1,34,NaN,bicycle,bicycle,c50,0034_cop_dnn_c50_bicycle_10_n03792782_11023.png,n03792782_11023.png,1.0,-1.13263,-2.290613,0.8188176
alexnet_w1_mlp_simclrhn_probe0,1,35,NaN,elephant,elephant,c50,0035_cop_dnn_c50_elephant_10_n02504458_4909.png,n02504458_4909.png,1.0,3.582654,-0.27757332,2.729593
alexnet_w1_mlp_simclrhn_probe0,1,36,NaN,boat,boat,c100,0036_cop_dnn_c100_boat_10_n03344393_646.png,n03344393_646.png,1.0,6.839639,0.87201774,4.2197456
alexnet_w1_mlp_simclrhn_probe0,1,37,NaN,boat,boat,c10,0037_cop_dnn_c10_boat_10_n04612504_2472.png,n04612504_2472.png,1.0,-0.1326696,-0.4514314,0.22539863
alexnet_w1_mlp_simclrhn_probe0,1,38,NaN,keyboard,keyboard,c03,0038_cop_dnn_c03_keyboard_10_n03085013_4673.png,n03085013_4673.png,1.0,-0.22514035,-0.23503907,0.0069994535
alexnet_w1_mlp_simclrhn_probe0,1,39,NaN,elephant,elephant,c100,0039_cop_dnn_c100_elephant_10_n02504458_1138.png,n02504458_1138.png,1.0,3.0352347,-2.39177,3.837472
alexnet_w1_mlp_simclrhn_probe0,1,40,NaN,airplane,car,c100,0040_cop_dnn_c100_car_10_n03100240_5569.png,n03100240_5569.png,0.0,0.72577006,0.85587454,-0.091997765
alexnet_w1_mlp_simclrhn_probe0,1,41,NaN,elephant,dog,c100,0041_cop_dnn_c100_dog_10_n02107312_7422.png,n02107312_7422.png,0.0,-6.8223047,-5.311765,-1.0681127
alexnet_w1_mlp_simclrhn_probe0,1,42,NaN,oven,bear,c15,0042_cop_dnn_c15_bear_10_n02134084_24140.png,n02134084_24140.png,0.0,-1.1102515,-0.31725594,-0.56073254
alexnet_w1_mlp_simclrhn_probe0,1,43,NaN,bottle,bottle,c100,0043_cop_dnn_c100_bottle_10_n04560804_14130.png,n04560804_14130.png,1.0,-1.6704742,-4.573114,2.0524764
alexnet_w1_mlp_simclrhn_probe0,1,44,NaN,cat,cat,c30,0044_cop_dnn_c30_cat_10_n02124075_11970.png,n02124075_11970.png,1.0,-0.6491898,-2.949803,1.6267793
alexnet_w1_mlp_simclrhn_probe0,1,45,NaN,bear,dog,c03,0045_cop_dnn_c03_dog_10_n02093991_247.png,n02093991_247.png,0.0,-0.715728,-0.38333818,-0.23503509
alexnet_w1_mlp_simclrhn_probe0,1,46,NaN,keyboard,keyboard,c100,0046_cop_dnn_c100_keyboard_10_n04505470_375.png,n04505470_375.png,1.0,9.721094,-0.8474309,7.473076
alexnet_w1_mlp_simclrhn_probe0,1,47,NaN,bear,bear,c100,0047_cop_dnn_c100_bear_10_n02134418_4372.png,n02134418_4372.png,1.0,2.0841832,-0.9983976,2.1797137
alexnet_w1_mlp_simclrhn_probe0,1,48,NaN,airplane,boat,c01,0048_cop_dnn_c01_boat_10_n03344393_2838.png,n03344393_2838.png,0.0,-0.09370408,0.076609895,-0.12043017
alexnet_w1_mlp_simclrhn_probe0,1,49,NaN,bicycle,bicycle,c05,0049_cop_dnn_c05_bicycle_10_n02835271_4935.png,n02835271_4935.png,1.0,-0.7497921,-0.8068026,0.04031249
alexnet_w1_mlp_simclrhn_probe0,1,50,NaN,airplane,airplane,c50,0050_cop_dnn_c50_airplane_10_n02690373_5382.png,n02690373_5382.png,1.0,3.3648474,0.14084676,2.2797127
alexnet_w1_mlp_simclrhn_probe0,1,51,NaN,knife,bottle,c100,0051_cop_dnn_c100_bottle_10_n03937543_2123.png,n03937543_2123.png,0.0,-7.3691854,-6.792371,-0.40786955
alexnet_w1_mlp_simclrhn_probe0,1,52,NaN,dog,dog,c30,0052_cop_dnn_c30_dog_10_n02097474_5234.png,n02097474_5234.png,1.0,-0.14267054,-0.19816041,0.03923726
alexnet_w1_mlp_simclrhn_probe0,1,53,NaN,keyboard,bottle,c100,0053_cop_dnn_c100_bottle_10_n02823428_6050.png,n02823428_6050.png,0.0,-2.2363396,0.28392196,-1.782094
alexnet_w1_mlp_simclrhn_probe0,1,54,NaN,bottle,clock,c15,0054_cop_dnn_c15_clock_10_n02708093_3743.png,n02708093_3743.png,0.0,0.06200999,0.32401952,-0.18526872
alexnet_w1_mlp_simclrhn_probe0,1,55,NaN,airplane,knife,c03,0055_cop_dnn_c03_knife_10_n03041632_55083.png,n03041632_55083.png,0.0,-0.30811334,-0.20956574,-0.06968367
alexnet_w1_mlp_simclrhn_probe0,1,56,NaN,knife,knife,c50,0056_cop_dnn_c50_knife_10_n03041632_41310.png,n03041632_41310.png,1.0,1.2682852,-0.35710427,1.1493239
alexnet_w1_mlp_simclrhn_probe0,1,57,NaN,knife,knife,c03,0057_cop_dnn_c03_knife_10_n03041632_99799.png,n03041632_99799.png,1.0,-0.41987988,-0.52856696,0.076853365
alexnet_w1_mlp_simclrhn_probe0,1,58,NaN,bear,dog,c15,0058_cop_dnn_c15_dog_10_n02094114_8231.png,n02094114_8231.png,0.0,-0.26108146,0.16686527,-0.30260405
alexnet_w1_mlp_simclrhn_probe0,1,59,NaN,airplane,chair,c01,0059_cop_dnn_c01_chair_10_n03376595_6173.png,n03376595_6173.png,0.0,-0.47403127,-0.16658585,-0.21739674
alexnet_w1_mlp_simclrhn_probe0,1,60,NaN,airplane,oven,c05,0060_cop_dnn_c05_oven_10_n04111531_9297.png,n04111531_9297.png,0.0,-0.8140112,-0.3944701,-0.29666036
alexnet_w1_mlp_simclrhn_probe0,1,61,NaN,airplane,car,c10,0061_cop_dnn_c10_car_10_n03100240_24420.png,n03100240_24420.png,0.0,-0.5367896,-0.4300081,-0.07550591
alexnet_w1_mlp_simclrhn_probe0,1,62,NaN,elephant,elephant,c100,0062_cop_dnn_c100_elephant_10_n02504013_2340.png,n02504013_2340.png,1.0,8.529961,-1.4564505,7.061459
alexnet_w1_mlp_simclrhn_probe0,1,63,NaN,bicycle,bicycle,c05,0063_cop_dnn_c05_bicycle_10_n02835271_10104.png,n02835271_10104.png,1.0,-0.6000465,-0.8309683,0.16328637
alexnet_w1_mlp_simclrhn_probe0,1,64,NaN,bicycle,bicycle,c15,0064_cop_dnn_c15_bicycle_10_n03792782_7165.png,n03792782_7165.png,1.0,-1.4360443,-1.6370099,0.14210409
alexnet_w1_mlp_simclrhn_probe0,1,65,NaN,chair,knife,c10,0065_cop_dnn_c10_knife_10_n03041632_14817.png,n03041632_14817.png,0.0,-0.9976171,-0.8811569,-0.0823498
alexnet_w1_mlp_simclrhn_probe0,1,66,NaN,clock,clock,c15,0066_cop_dnn_c15_clock_10_n02708093_118.png,n02708093_118.png,1.0,0.11335888,-1.260985,0.9718079
alexnet_w1_mlp_simclrhn_probe0,1,67,NaN,airplane,airplane,c10,0067_cop_dnn_c10_airplane_10_n02690373_4298.png,n02690373_4298.png,1.0,1.2829103,-0.6445533,1.3629227
alexnet_w1_mlp_simclrhn_probe0,1,68,NaN,knife,knife,c100,0068_cop_dnn_c100_knife_10_n03041632_50034.png,n03041632_50034.png,1.0,1.362021,-3.4793885,3.4233937
alexnet_w1_mlp_simclrhn_probe0,1,69,NaN,bottle,chair,c03,0069_cop_dnn_c03_chair_10_n02791124_1333.png,n02791124_1333.png,0.0,-0.9539911,-0.21542759,-0.5222433
alexnet_w1_mlp_simclrhn_probe0,1,70,NaN,clock,clock,c01,0070_cop_dnn_c01_clock_10_n02708093_2318.png,n02708093_2318.png,1.0,0.122811526,-0.2123302,0.23698099
alexnet_w1_mlp_simclrhn_probe0,1,71,NaN,airplane,elephant,c01,0071_cop_dnn_c01_elephant_10_n02504013_3864.png,n02504013_3864.png,0.0,-0.3846271,-0.06364824,-0.22696635
alexnet_w1_mlp_simclrhn_probe0,1,72,NaN,chair,chair,c10,0072_cop_dnn_c10_chair_10_n04429376_56624.png,n04429376_56624.png,1.0,-0.46849066,-0.7255111,0.18174088
alexnet_w1_mlp_simclrhn_probe0,1,73,NaN,airplane,airplane,c30,0073_cop_dnn_c30_airplane_10_n02690373_7004.png,n02690373_7004.png,1.0,1.3297712,-1.3657124,1.9059948
alexnet_w1_mlp_simclrhn_probe0,1,74,NaN,oven,oven,c30,0074_cop_dnn_c30_oven_10_n04111531_9692.png,n04111531_9692.png,1.0,0.05284077,-1.606941,1.1736429
alexnet_w1_mlp_simclrhn_probe0,1,75,NaN,car,truck,c50,0075_cop_dnn_c50_truck_10_n03796401_296.png,n03796401_296.png,0.0,0.014273077,0.322362,-0.21785177
alexnet_w1_mlp_simclrhn_probe0,1,76,NaN,airplane,airplane,c15,0076_cop_dnn_c15_airplane_10_n02690373_1837.png,n02690373_1837.png,1.0,0.35759956,-0.82288986,0.8347321
alexnet_w1_mlp_simclrhn_probe0,1,77,NaN,airplane,airplane,c03,0077_cop_dnn_c03_airplane_10_n02690373_10203.png,n02690373_10203.png,1.0,0.11743978,-0.019239366,0.09664675
alexnet_w1_mlp_simclrhn_probe0,1,78,NaN,boat,boat,c03,0078_cop_dnn_c03_boat_10_n02951358_34234.png,n02951358_34234.png,1.0,-0.18013288,-0.42691636,0.17450227
alexnet_w1_mlp_simclrhn_probe0,1,79,NaN,bicycle,bicycle,c100,0079_cop_dnn_c100_bicycle_10_n02835271_2885.png,n02835271_2885.png,1.0,-0.22588104,-1.4324541,0.853176
alexnet_w1_mlp_simclrhn_probe0,1,80,NaN,airplane,airplane,c30,0080_cop_dnn_c30_airplane_10_n02690373_5247.png,n02690373_5247.png,1.0,1.9609115,-0.38952157,1.6620072
alexnet_w1_mlp_simclrhn_probe0,1,81,NaN,clock,clock,c50,0081_cop_dnn_c50_clock_10_n02708093_596.png,n02708093_596.png,1.0,2.310154,-1.2098391,2.489011
alexnet_w1_mlp_simclrhn_probe0,1,82,NaN,airplane,chair,c01,0082_cop_dnn_c01_chair_10_n03376595_1364.png,n03376595_1364.png,0.0,-0.5993346,-0.15646599,-0.31315538
alexnet_w1_mlp_simclrhn_probe0,1,83,NaN,bottle,cat,c03,0083_cop_dnn_c03_cat_10_n02124075_12430.png,n02124075_12430.png,0.0,-0.6181881,-0.43335792,-0.13069466
alexnet_w1_mlp_simclrhn_probe0,1,84,NaN,bottle,cat,c05,0084_cop_dnn_c05_cat_10_n02123159_5487.png,n02123159_5487.png,0.0,-0.89207554,-0.78279793,-0.07727094
alexnet_w1_mlp_simclrhn_probe0,1,85,NaN,bicycle,bicycle,c50,0085_cop_dnn_c50_bicycle_10_n03792782_17571.png,n03792782_17571.png,1.0,-0.4173202,-2.2393966,1.2884026
alexnet_w1_mlp_simclrhn_probe0,1,86,NaN,cat,cat,c50,0086_cop_dnn_c50_cat_10_n02123159_6132.png,n02123159_6132.png,1.0,-0.93986744,-4.799452,2.7291384
alexnet_w1_mlp_simclrhn_probe0,1,87,NaN,bottle,bottle,c05,0087_cop_dnn_c05_bottle_10_n03937543_2873.png,n03937543_2873.png,1.0,-0.44481745,-0.45131707,0.004595924
alexnet_w1_mlp_simclrhn_probe0,1,88,NaN,bottle,keyboard,c15,0088_cop_dnn_c15_keyboard_10_n04505470_1236.png,n04505470_1236.png,0.0,-1.6497974,-0.9679504,-0.48213866
alexnet_w1_mlp_simclrhn_probe0,1,89,NaN,airplane,airplane,c01,0089_cop_dnn_c01_airplane_10_n02690373_4243.png,n02690373_4243.png,1.0,0.16973962,-0.26353234,0.30636954
alexnet_w1_mlp_simclrhn_probe0,1,90,NaN,oven,oven,c30,0090_cop_dnn_c30_oven_10_n04111531_467.png,n04111531_467.png,1.0,-1.2635398,-1.513905,0.17703497
alexnet_w1_mlp_simclrhn_probe0,1,91,NaN,bear,cat,c03,0091_cop_dnn_c03_cat_10_n02123394_2632.png,n02123394_2632.png,0.0,-0.5259041,-0.2261147,-0.21198314
alexnet_w1_mlp_simclrhn_probe0,1,92,NaN,elephant,chair,c15,0092_cop_dnn_c15_chair_10_n02791124_5268.png,n02791124_5268.png,0.0,-1.3226463,-1.0634841,-0.18325534
alexnet_w1_mlp_simclrhn_probe0,1,93,NaN,bottle,knife,c100,0093_cop_dnn_c100_knife_10_n03041632_1143.png,n03041632_1143.png,0.0,-5.619396,-5.0306764,-0.4162878
alexnet_w1_mlp_simclrhn_probe0,1,94,NaN,bottle,chair,c10,0094_cop_dnn_c10_chair_10_n02791124_1018.png,n02791124_1018.png,0.0,-0.7999651,-0.6085412,-0.13535714
alexnet_w1_mlp_simclrhn_probe0,1,95,NaN,bottle,bicycle,c05,0095_cop_dnn_c05_bicycle_10_n03792782_8057.png,n03792782_8057.png,0.0,-1.1190461,-0.7812403,-0.23886478
alexnet_w1_mlp_simclrhn_probe0,1,96,NaN,bear,bear,c30,0096_cop_dnn_c30_bear_10_n02132136_1338.png,n02132136_1338.png,1.0,0.41912436,-1.3334125,1.2392308
alexnet_w1_mlp_simclrhn_probe0,1,97,NaN,clock,clock,c05,0097_cop_dnn_c05_clock_10_n02708093_4798.png,n02708093_4798.png,1.0,1.0562395,0.091298625,0.68231624
alexnet_w1_mlp_simclrhn_probe0,1,98,NaN,airplane,truck,c01,0098_cop_dnn_c01_truck_10_n03796401_15046.png,n03796401_15046.png,0.0,-0.7304107,-0.063532546,-0.47155407
alexnet_w1_mlp_simclrhn_probe0,1,99,NaN,knife,knife,c50,0099_cop_dnn_c50_knife_10_n03041632_13612.png,n03041632_13612.png,1.0,-2.2931416,-2.655796,0.25643542
alexnet_w1_mlp_simclrhn_probe0,1,100,NaN,oven,oven,c10,0100_cop_dnn_c10_oven_10_n04111531_1898.png,n04111531_1898.png,1.0,0.5203119,-0.22705415,0.52846766
alexnet_w1_mlp_simclrhn_probe0,1,101,NaN,clock,truck,c03,0101_cop_dnn_c03_truck_10_n04467665_28988.png,n04467665_28988.png,0.0,-0.6394654,-0.5711598,-0.04829936
alexnet_w1_mlp_simclrhn_probe0,1,102,NaN,airplane,airplane,c100,0102_cop_dnn_c100_airplane_10_n02690373_736.png,n02690373_736.png,1.0,7.8270235,-0.17019758,5.654889
alexnet_w1_mlp_simclrhn_probe0,1,103,NaN,dog,dog,c50,0103_cop_dnn_c50_dog_10_n02111500_5154.png,n02111500_5154.png,1.0,-1.5288762,-2.3453856,0.5773593
alexnet_w1_mlp_simclrhn_probe0,1,104,NaN,elephant,bear,c50,0104_cop_dnn_c50_bear_10_n02133161_13461.png,n02133161_13461.png,0.0,-2.5637546,-2.377277,-0.13185962
alexnet_w1_mlp_simclrhn_probe0,1,105,NaN,bear,dog,c15,0105_cop_dnn_c15_dog_10_n02102318_11746.png,n02102318_11746.png,0.0,-1.0516716,-0.6255889,-0.30128598
alexnet_w1_mlp_simclrhn_probe0,1,106,NaN,boat,boat,c50,0106_cop_dnn_c50_boat_10_n03662601_12226.png,n03662601_12226.png,1.0,0.03558874,-1.3566537,0.9844641
alexnet_w1_mlp_simclrhn_probe0,1,107,NaN,keyboard,keyboard,c05,0107_cop_dnn_c05_keyboard_10_n04505470_3207.png,n04505470_3207.png,1.0,-0.5102743,-0.7618043,0.17785856
alexnet_w1_mlp_simclrhn_probe0,1,108,NaN,bicycle,bicycle,c30,0108_cop_dnn_c30_bicycle_10_n03792782_2628.png,n03792782_2628.png,1.0,1.2742503,-2.2593157,2.4986086
alexnet_w1_mlp_simclrhn_probe0,1,109,NaN,airplane,chair,c01,0109_cop_dnn_c01_chair_10_n02791124_3204.png,n02791124_3204.png,0.0,-0.31166068,0.0035925657,-0.22291772
alexnet_w1_mlp_simclrhn_probe0,1,110,NaN,bottle,bottle,c03,0110_cop_dnn_c03_bottle_10_n04560804_722.png,n04560804_722.png,1.0,-0.12282423,-0.2552276,0.093623325
alexnet_w1_mlp_simclrhn_probe0,1,111,NaN,bicycle,bicycle,c30,0111_cop_dnn_c30_bicycle_10_n03792782_8847.png,n03792782_8847.png,1.0,-0.8457819,-2.4536169,1.136911
alexnet_w1_mlp_simclrhn_probe0,1,112,NaN,bear,bear,c50,0112_cop_dnn_c50_bear_10_n02132136_1132.png,n02132136_1132.png,1.0,-1.1053233,-2.0972288,0.70138305
alexnet_w1_mlp_simclrhn_probe0,1,113,NaN,bottle,knife,c50,0113_cop_dnn_c50_knife_10_n03041632_6557.png,n03041632_6557.png,0.0,-3.4560218,-2.8334696,-0.44021085
alexnet_w1_mlp_simclrhn_probe0,1,114,NaN,oven,knife,c100,0114_cop_dnn_c100_knife_10_n03041632_35116.png,n03041632_35116.png,0.0,-3.4660082,-2.6504152,-0.57671136
alexnet_w1_mlp_simclrhn_probe0,1,115,NaN,car,car,c15,0115_cop_dnn_c15_car_10_n02814533_3117.png,n02814533_3117.png,1.0,0.23888077,-0.29031774,0.37419987
alexnet_w1_mlp_simclrhn_probe0,1,116,NaN,bird,bird,c15,0116_cop_dnn_c15_bird_10_n02009229_4224.png,n02009229_4224.png,1.0,-0.8611165,-1.250184,0.2751123
alexnet_w1_mlp_simclrhn_probe0,1,117,NaN,bicycle,chair,c50,0117_cop_dnn_c50_chair_10_n03376595_9247.png,n03376595_9247.png,0.0,-2.9215863,-2.2936554,-0.4440142
alexnet_w1_mlp_simclrhn_probe0,1,118,NaN,airplane,boat,c01,0118_cop_dnn_c01_boat_10_n03662601_5639.png,n03662601_5639.png,0.0,0.057914197,0.08128616,-0.016526476
alexnet_w1_mlp_simclrhn_probe0,1,119,NaN,airplane,bicycle,c10,0119_cop_dnn_c10_bicycle_10_n02835271_13437.png,n02835271_13437.png,0.0,-0.99111336,-0.5936401,-0.28105605
alexnet_w1_mlp_simclrhn_probe0,1,120,NaN,bicycle,bicycle,c05,0120_cop_dnn_c05_bicycle_10_n03792782_18294.png,n03792782_18294.png,1.0,-0.64047426,-0.85243356,0.14987786
alexnet_w1_mlp_simclrhn_probe0,1,121,NaN,boat,boat,c03,0121_cop_dnn_c03_boat_10_n02951358_10488.png,n02951358_10488.png,1.0,0.037448455,-0.21871804,0.18113707
alexnet_w1_mlp_simclrhn_probe0,1,122,NaN,bird,bird,c50,0122_cop_dnn_c50_bird_10_n01829413_14594.png,n01829413_14594.png,1.0,-0.33415273,-0.90462625,0.40338573
alexnet_w1_mlp_simclrhn_probe0,1,123,NaN,clock,clock,c100,0123_cop_dnn_c100_clock_10_n03196217_9197.png,n03196217_9197.png,1.0,-2.6704788,-4.3962946,1.2203361
alexnet_w1_mlp_simclrhn_probe0,1,124,NaN,boat,boat,c15,0124_cop_dnn_c15_boat_10_n03662601_1667.png,n03662601_1667.png,1.0,-0.49208218,-1.0492082,0.39394757
alexnet_w1_mlp_simclrhn_probe0,1,125,NaN,knife,dog,c50,0125_cop_dnn_c50_dog_10_n02092339_6946.png,n02092339_6946.png,0.0,-3.0141146,-2.7904654,-0.15814391
alexnet_w1_mlp_simclrhn_probe0,1,126,NaN,airplane,airplane,c05,0126_cop_dnn_c05_airplane_10_n02690373_1773.png,n02690373_1773.png,1.0,0.23417181,-0.5810652,0.5764596
alexnet_w1_mlp_simclrhn_probe0,1,127,NaN,oven,elephant,c50,0127_cop_dnn_c50_elephant_10_n02504013_4278.png,n02504013_4278.png,0.0,-4.460578,-2.9932728,-1.0375415
alexnet_w1_mlp_simclrhn_probe0,1,128,NaN,bird,bird,c100,0128_cop_dnn_c100_bird_10_n02025239_10194.png,n02025239_10194.png,1.0,-0.0688799,-5.3469687,3.7321723
alexnet_w1_mlp_simclrhn_probe0,1,129,NaN,oven,oven,c15,0129_cop_dnn_c15_oven_10_n04111531_1977.png,n04111531_1977.png,1.0,-0.4241878,-0.955465,0.37566972
alexnet_w1_mlp_simclrhn_probe0,1,130,NaN,clock,clock,c50,0130_cop_dnn_c50_clock_10_n02708093_616.png,n02708093_616.png,1.0,-1.027907,-1.1367325,0.07695121
alexnet_w1_mlp_simclrhn_probe0,1,131,NaN,boat,boat,c10,0131_cop_dnn_c10_boat_10_n04273569_10292.png,n04273569_10292.png,1.0,0.2474244,0.10459265,0.1009973
alexnet_w1_mlp_simclrhn_probe0,1,132,NaN,cat,cat,c50,0132_cop_dnn_c50_cat_10_n02123394_8592.png,n02123394_8592.png,1.0,1.3621811,-0.44596827,1.2785547
alexnet_w1_mlp_simclrhn_probe0,1,133,NaN,bottle,knife,c10,0133_cop_dnn_c10_knife_10_n03041632_16020.png,n03041632_16020.png,0.0,-1.006935,-0.8027163,-0.14440443
alexnet_w1_mlp_simclrhn_probe0,1,134,NaN,cat,cat,c30,0134_cop_dnn_c30_cat_10_n02123394_5466.png,n02123394_5466.png,1.0,-0.11030084,-0.5278998,0.29528707
alexnet_w1_mlp_simclrhn_probe0,1,135,NaN,airplane,elephant,c01,0135_cop_dnn_c01_elephant_10_n02504013_7351.png,n02504013_7351.png,0.0,-0.41455364,-0.19425963,-0.15577139
alexnet_w1_mlp_simclrhn_probe0,1,136,NaN,oven,oven,c50,0136_cop_dnn_c50_oven_10_n04111531_22388.png,n04111531_22388.png,1.0,-2.8850305,-3.1841643,0.21151952
alexnet_w1_mlp_simclrhn_probe0,1,137,NaN,bottle,chair,c100,0137_cop_dnn_c100_chair_10_n04429376_6308.png,n04429376_6308.png,0.0,-5.2221246,-3.3589637,-1.3174537
alexnet_w1_mlp_simclrhn_probe0,1,138,NaN,car,car,c10,0138_cop_dnn_c10_car_10_n03100240_8443.png,n03100240_8443.png,1.0,1.3595845,0.30948472,0.7425327
alexnet_w1_mlp_simclrhn_probe0,1,139,NaN,car,car,c100,0139_cop_dnn_c100_car_10_n04285008_12446.png,n04285008_12446.png,1.0,2.09752,-1.122579,2.276954
alexnet_w1_mlp_simclrhn_probe0,1,140,NaN,keyboard,keyboard,c01,0140_cop_dnn_c01_keyboard_10_n04505470_4440.png,n04505470_4440.png,1.0,-0.09209162,-0.10997409,0.012644813
alexnet_w1_mlp_simclrhn_probe0,1,141,NaN,car,car,c10,0141_cop_dnn_c10_car_10_n04285008_10073.png,n04285008_10073.png,1.0,-0.09943346,-0.70392114,0.42743734
alexnet_w1_mlp_simclrhn_probe0,1,142,NaN,bear,bottle,c03,0142_cop_dnn_c03_bottle_10_n03983396_7378.png,n03983396_7378.png,0.0,-0.5681313,-0.35008734,-0.15418038
alexnet_w1_mlp_simclrhn_probe0,1,143,NaN,chair,chair,c15,0143_cop_dnn_c15_chair_10_n02791124_5706.png,n02791124_5706.png,1.0,-1.1322124,-1.2523212,0.08492978
alexnet_w1_mlp_simclrhn_probe0,1,144,NaN,cat,cat,c15,0144_cop_dnn_c15_cat_10_n02123045_11224.png,n02123045_11224.png,1.0,-0.30913246,-1.1413628,0.5884757
alexnet_w1_mlp_simclrhn_probe0,1,145,NaN,chair,chair,c05,0145_cop_dnn_c05_chair_10_n03376595_8953.png,n03376595_8953.png,1.0,-0.45706165,-0.79038584,0.23569581
alexnet_w1_mlp_simclrhn_probe0,1,146,NaN,bicycle,bicycle,c50,0146_cop_dnn_c50_bicycle_10_n03792782_66048.png,n03792782_66048.png,1.0,1.3038785,-2.9099011,2.979592
alexnet_w1_mlp_simclrhn_probe0,1,147,NaN,airplane,dog,c01,0147_cop_dnn_c01_dog_10_n02104365_1123.png,n02104365_1123.png,0.0,-0.80877686,-0.14392634,-0.47012034
alexnet_w1_mlp_simclrhn_probe0,1,148,NaN,clock,clock,c05,0148_cop_dnn_c05_clock_10_n03196217_3605.png,n03196217_3605.png,1.0,-0.07505145,-0.0819179,0.004855312
alexnet_w1_mlp_simclrhn_probe0,1,149,NaN,knife,knife,c10,0149_cop_dnn_c10_knife_10_n03041632_14916.png,n03041632_14916.png,1.0,-0.7795353,-1.0621344,0.19982773
alexnet_w1_mlp_simclrhn_probe0,1,150,NaN,bear,bear,c10,0150_cop_dnn_c10_bear_10_n02132136_4101.png,n02132136_4101.png,1.0,0.09430548,-0.46552572,0.39586043
alexnet_w1_mlp_simclrhn_probe0,1,151,NaN,clock,clock,c01,0151_cop_dnn_c01_clock_10_n02708093_7929.png,n02708093_7929.png,1.0,-0.24515867,-0.41280174,0.11854155
alexnet_w1_mlp_simclrhn_probe0,1,152,NaN,chair,chair,c50,0152_cop_dnn_c50_chair_10_n02791124_7630.png,n02791124_7630.png,1.0,-1.1488528,-3.21834,1.4633484
alexnet_w1_mlp_simclrhn_probe0,1,153,NaN,clock,clock,c05,0153_cop_dnn_c05_clock_10_n02708093_3750.png,n02708093_3750.png,1.0,0.13628304,-0.55980456,0.49220827
alexnet_w1_mlp_simclrhn_probe0,1,154,NaN,airplane,bird,c01,0154_cop_dnn_c01_bird_10_n02037110_12288.png,n02037110_12288.png,0.0,-0.45473632,-0.025139134,-0.3037711
alexnet_w1_mlp_simclrhn_probe0,1,155,NaN,keyboard,keyboard,c05,0155_cop_dnn_c05_keyboard_10_n04505470_6080.png,n04505470_6080.png,1.0,0.63931704,0.16349402,0.3364577
alexnet_w1_mlp_simclrhn_probe0,1,156,NaN,keyboard,keyboard,c100,0156_cop_dnn_c100_keyboard_10_n03085013_19065.png,n03085013_19065.png,1.0,7.3206005,-1.3767471,6.1499534
alexnet_w1_mlp_simclrhn_probe0,1,157,NaN,cat,cat,c10,0157_cop_dnn_c10_cat_10_n02123159_4856.png,n02123159_4856.png,1.0,-0.7594138,-1.0405127,0.19876695
alexnet_w1_mlp_simclrhn_probe0,1,158,NaN,clock,chair,c01,0158_cop_dnn_c01_chair_10_n04099969_6913.png,n04099969_6913.png,0.0,-0.46248537,-0.15708403,-0.21595135
alexnet_w1_mlp_simclrhn_probe0,1,159,NaN,knife,knife,c30,0159_cop_dnn_c30_knife_10_n03041632_35764.png,n03041632_35764.png,1.0,-1.53824,-2.3075163,0.5439606
alexnet_w1_mlp_simclrhn_probe0,1,160,NaN,truck,truck,c30,0160_cop_dnn_c30_truck_10_n03796401_3012.png,n03796401_3012.png,1.0,2.0100667,1.8669266,0.10121541
alexnet_w1_mlp_simclrhn_probe0,1,161,NaN,elephant,elephant,c10,0161_cop_dnn_c10_elephant_10_n02504013_3821.png,n02504013_3821.png,1.0,0.11138621,-1.146823,0.8896883
alexnet_w1_mlp_simclrhn_probe0,1,162,NaN,truck,truck,c100,0162_cop_dnn_c100_truck_10_n03796401_3608.png,n03796401_3608.png,1.0,-3.6130438,-4.421067,0.57135886
alexnet_w1_mlp_simclrhn_probe0,1,163,NaN,chair,chair,c15,0163_cop_dnn_c15_chair_10_n04099969_13811.png,n04099969_13811.png,1.0,0.5879908,-0.96747816,1.0998827
alexnet_w1_mlp_simclrhn_probe0,1,164,NaN,bear,bear,c50,0164_cop_dnn_c50_bear_10_n02133161_4954.png,n02133161_4954.png,1.0,0.710528,-0.7340677,1.0214834
alexnet_w1_mlp_simclrhn_probe0,1,165,NaN,dog,dog,c15,0165_cop_dnn_c15_dog_10_n02085782_6792.png,n02085782_6792.png,1.0,-0.21290852,-0.80574214,0.4191967
alexnet_w1_mlp_simclrhn_probe0,1,166,NaN,bottle,oven,c05,0166_cop_dnn_c05_oven_10_n04111531_22886.png,n04111531_22886.png,0.0,-0.9233984,-0.5759069,-0.2457136
alexnet_w1_mlp_simclrhn_probe0,1,167,NaN,bear,dog,c05,0167_cop_dnn_c05_dog_10_n02091831_510.png,n02091831_510.png,0.0,-0.92963535,-0.4895976,-0.31115368
alexnet_w1_mlp_simclrhn_probe0,1,168,NaN,bear,bear,c15,0168_cop_dnn_c15_bear_10_n02132136_11339.png,n02132136_11339.png,1.0,-0.40822577,-0.88724166,0.33871537
alexnet_w1_mlp_simclrhn_probe0,1,169,NaN,keyboard,bottle,c15,0169_cop_dnn_c15_bottle_10_n04557648_2709.png,n04557648_2709.png,0.0,-0.43529516,0.27418882,-0.50168097
alexnet_w1_mlp_simclrhn_probe0,1,170,NaN,keyboard,keyboard,c03,0170_cop_dnn_c03_keyboard_10_n03085013_21447.png,n03085013_21447.png,1.0,-0.08919412,-0.2535321,0.11620451
alexnet_w1_mlp_simclrhn_probe0,1,171,NaN,airplane,airplane,c30,0171_cop_dnn_c30_airplane_10_n02690373_7676.png,n02690373_7676.png,1.0,2.0943537,-0.07649641,1.5350229
alexnet_w1_mlp_simclrhn_probe0,1,172,NaN,elephant,dog,c100,0172_cop_dnn_c100_dog_10_n02091831_4110.png,n02091831_4110.png,0.0,-4.684773,-2.9296114,-1.2410866
alexnet_w1_mlp_simclrhn_probe0,1,173,NaN,elephant,bird,c10,0173_cop_dnn_c10_bird_10_n02007558_16029.png,n02007558_16029.png,0.0,-0.94058377,-0.59240115,-0.24620229
alexnet_w1_mlp_simclrhn_probe0,1,174,NaN,knife,truck,c30,0174_cop_dnn_c30_truck_10_n03796401_15097.png,n03796401_15097.png,0.0,-2.6653209,-2.1712918,-0.3493313
alexnet_w1_mlp_simclrhn_probe0,1,175,NaN,airplane,airplane,c30,0175_cop_dnn_c30_airplane_10_n02690373_7401.png,n02690373_7401.png,1.0,3.648027,-0.37531433,2.8449318
alexnet_w1_mlp_simclrhn_probe0,1,176,NaN,elephant,dog,c05,0176_cop_dnn_c05_dog_10_n02108422_4529.png,n02108422_4529.png,0.0,-0.7537254,-0.6715123,-0.058133446
alexnet_w1_mlp_simclrhn_probe0,1,177,NaN,bear,bear,c10,0177_cop_dnn_c10_bear_10_n02132136_10514.png,n02132136_10514.png,1.0,-0.34729296,-0.74714375,0.2827372
alexnet_w1_mlp_simclrhn_probe0,1,178,NaN,airplane,airplane,c03,0178_cop_dnn_c03_airplane_10_n02690373_5524.png,n02690373_5524.png,1.0,-0.10330002,-0.3267853,0.15802796
alexnet_w1_mlp_simclrhn_probe0,1,179,NaN,chair,chair,c100,0179_cop_dnn_c100_chair_10_n04429376_5965.png,n04429376_5965.png,1.0,-4.7438836,-5.8123355,0.75550956
alexnet_w1_mlp_simclrhn_probe0,1,180,NaN,airplane,airplane,c15,0180_cop_dnn_c15_airplane_10_n02690373_9712.png,n02690373_9712.png,1.0,0.2885105,-1.1798413,1.0382816
alexnet_w1_mlp_simclrhn_probe0,1,181,NaN,boat,boat,c30,0181_cop_dnn_c30_boat_10_n02951358_29825.png,n02951358_29825.png,1.0,-0.21321373,-1.2216316,0.7130592
alexnet_w1_mlp_simclrhn_probe0,1,182,NaN,keyboard,keyboard,c03,0182_cop_dnn_c03_keyboard_10_n04505470_4887.png,n04505470_4887.png,1.0,0.039859515,-0.3444059,0.27171668
alexnet_w1_mlp_simclrhn_probe0,1,183,NaN,airplane,truck,c01,0183_cop_dnn_c01_truck_10_n04467665_32090.png,n04467665_32090.png,0.0,-0.6788399,0.0073327757,-0.4851974
alexnet_w1_mlp_simclrhn_probe0,1,184,NaN,bottle,chair,c05,0184_cop_dnn_c05_chair_10_n02791124_4296.png,n02791124_4296.png,0.0,-0.60791373,-0.40162045,-0.14587139
alexnet_w1_mlp_simclrhn_probe0,1,185,NaN,boat,boat,c30,0185_cop_dnn_c30_boat_10_n04612504_14669.png,n04612504_14669.png,1.0,-0.37905604,-1.7484658,0.968319
alexnet_w1_mlp_simclrhn_probe0,1,186,NaN,airplane,airplane,c03,0186_cop_dnn_c03_airplane_10_n02690373_891.png,n02690373_891.png,1.0,0.27616245,-0.12920797,0.28664017
alexnet_w1_mlp_simclrhn_probe0,1,187,NaN,clock,clock,c100,0187_cop_dnn_c100_clock_10_n04548280_7539.png,n04548280_7539.png,1.0,-0.33739161,-2.9124866,1.8208672
alexnet_w1_mlp_simclrhn_probe0,1,188,NaN,bear,bear,c30,0188_cop_dnn_c30_bear_10_n02134418_4717.png,n02134418_4717.png,1.0,0.770079,-1.0472907,1.2850745
alexnet_w1_mlp_simclrhn_probe0,1,189,NaN,elephant,bird,c03,0189_cop_dnn_c03_bird_10_n02002724_13195.png,n02002724_13195.png,0.0,-0.64843935,-0.4133578,-0.16622776
alexnet_w1_mlp_simclrhn_probe0,1,190,NaN,bottle,bottle,c10,0190_cop_dnn_c10_bottle_10_n03937543_2494.png,n03937543_2494.png,1.0,-0.80323184,-1.0653834,0.18536918
alexnet_w1_mlp_simclrhn_probe0,1,191,NaN,clock,clock,c30,0191_cop_dnn_c30_clock_10_n03196217_2307.png,n03196217_2307.png,1.0,0.8333009,-0.65545756,1.0527112
alexnet_w1_mlp_simclrhn_probe0,1,192,NaN,bottle,clock,c15,0192_cop_dnn_c15_clock_10_n04548280_17907.png,n04548280_17907.png,0.0,-0.8989807,-0.5536169,-0.24420908
alexnet_w1_mlp_simclrhn_probe0,1,193,NaN,clock,chair,c03,0193_cop_dnn_c03_chair_10_n03376595_6540.png,n03376595_6540.png,0.0,-0.30656514,-0.107336126,-0.14087617
alexnet_w1_mlp_simclrhn_probe0,1,194,NaN,cat,cat,c30,0194_cop_dnn_c30_cat_10_n02123045_1484.png,n02123045_1484.png,1.0,-0.6323785,-1.8655813,0.872006
alexnet_w1_mlp_simclrhn_probe0,1,195,NaN,airplane,knife,c03,0195_cop_dnn_c03_knife_10_n03041632_89912.png,n03041632_89912.png,0.0,-0.34243613,-0.20989007,-0.09372422
alexnet_w1_mlp_simclrhn_probe0,1,196,NaN,bottle,bottle,c05,0196_cop_dnn_c05_bottle_10_n04591713_6975.png,n04591713_6975.png,1.0,0.4851578,-0.2658052,0.53101104
alexnet_w1_mlp_simclrhn_probe0,1,197,NaN,elephant,bird,c50,0197_cop_dnn_c50_bird_10_n01860187_810.png,n01860187_810.png,0.0,-2.9647126,-0.24373715,-1.9240202
alexnet_w1_mlp_simclrhn_probe0,1,198,NaN,knife,oven,c03,0198_cop_dnn_c03_oven_10_n04111531_5967.png,n04111531_5967.png,0.0,-1.0020512,-0.6211443,-0.2693419
alexnet_w1_mlp_simclrhn_probe0,1,199,NaN,boat,boat,c15,0199_cop_dnn_c15_boat_10_n04612504_18954.png,n04612504_18954.png,1.0,0.25871885,-0.038470775,0.2101448
alexnet_w1_mlp_simclrhn_probe0,1,200,NaN,bicycle,bicycle,c10,0200_cop_dnn_c10_bicycle_10_n03792782_68259.png,n03792782_68259.png,1.0,-0.27382922,-1.2887895,0.71768534
alexnet_w1_mlp_simclrhn_probe0,1,201,NaN,airplane,car,c03,0201_cop_dnn_c03_car_10_n04285008_296.png,n04285008_296.png,0.0,-0.7406704,-0.084285036,-0.46413454
alexnet_w1_mlp_simclrhn_probe0,1,202,NaN,airplane,airplane,c03,0202_cop_dnn_c03_airplane_10_n02690373_12929.png,n02690373_12929.png,1.0,0.56274885,-0.10593808,0.47283307
alexnet_w1_mlp_simclrhn_probe0,1,203,NaN,airplane,boat,c01,0203_cop_dnn_c01_boat_10_n03344393_8761.png,n03344393_8761.png,0.0,0.0048889844,0.2066419,-0.14266086
alexnet_w1_mlp_simclrhn_probe0,1,204,NaN,clock,clock,c30,0204_cop_dnn_c30_clock_10_n03196217_3877.png,n03196217_3877.png,1.0,0.43158004,0.07136409,0.25471115
alexnet_w1_mlp_simclrhn_probe0,1,205,NaN,cat,bear,c10,0205_cop_dnn_c10_bear_10_n02134084_1346.png,n02134084_1346.png,0.0,-0.4391096,-0.40272295,-0.025729239
alexnet_w1_mlp_simclrhn_probe0,1,206,NaN,boat,knife,c03,0206_cop_dnn_c03_knife_10_n03041632_48151.png,n03041632_48151.png,0.0,-0.27209786,-0.113214694,-0.11234736
alexnet_w1_mlp_simclrhn_probe0,1,207,NaN,airplane,airplane,c50,0207_cop_dnn_c50_airplane_10_n02690373_3589.png,n02690373_3589.png,1.0,2.6450856,0.35419136,1.6199069
alexnet_w1_mlp_simclrhn_probe0,1,208,NaN,clock,bottle,c50,0208_cop_dnn_c50_bottle_10_n04560804_2942.png,n04560804_2942.png,0.0,-3.1427472,-2.2345438,-0.6421968
alexnet_w1_mlp_simclrhn_probe0,1,209,NaN,keyboard,keyboard,c03,0209_cop_dnn_c03_keyboard_10_n04505470_5022.png,n04505470_5022.png,1.0,0.010093473,-0.19664781,0.14618815
alexnet_w1_mlp_simclrhn_probe0,1,210,NaN,bear,dog,c10,0210_cop_dnn_c10_dog_10_n02096294_1043.png,n02096294_1043.png,0.0,-0.5944512,-0.30086985,-0.20759335
alexnet_w1_mlp_simclrhn_probe0,1,211,NaN,airplane,airplane,c50,0211_cop_dnn_c50_airplane_10_n02690373_1350.png,n02690373_1350.png,1.0,4.2260804,-0.9393183,3.6524885
alexnet_w1_mlp_simclrhn_probe0,1,212,NaN,chair,chair,c03,0212_cop_dnn_c03_chair_10_n04099969_27865.png,n04099969_27865.png,1.0,-0.30860278,-0.5662765,0.18220283
alexnet_w1_mlp_simclrhn_probe0,1,213,NaN,clock,oven,c01,0213_cop_dnn_c01_oven_10_n04111531_22120.png,n04111531_22120.png,0.0,-0.43454695,-0.14184012,-0.206975
alexnet_w1_mlp_simclrhn_probe0,1,214,NaN,elephant,elephant,c50,0214_cop_dnn_c50_elephant_10_n02504458_5600.png,n02504458_5600.png,1.0,-0.8597853,-2.1789646,0.93280065
alexnet_w1_mlp_simclrhn_probe0,1,215,NaN,knife,cat,c03,0215_cop_dnn_c03_cat_10_n02123597_11138.png,n02123597_11138.png,0.0,-0.881746,-0.55471075,-0.23124884
alexnet_w1_mlp_simclrhn_probe0,1,216,NaN,bear,cat,c30,0216_cop_dnn_c30_cat_10_n02125311_5717.png,n02125311_5717.png,0.0,-2.3823886,-1.6680765,-0.50509495
alexnet_w1_mlp_simclrhn_probe0,1,217,NaN,chair,chair,c15,0217_cop_dnn_c15_chair_10_n02791124_11404.png,n02791124_11404.png,1.0,-1.4173992,-1.6058238,0.1332363
alexnet_w1_mlp_simclrhn_probe0,1,218,NaN,cat,cat,c100,0218_cop_dnn_c100_cat_10_n02123394_2984.png,n02123394_2984.png,1.0,-1.2419862,-2.6416914,0.98974115
alexnet_w1_mlp_simclrhn_probe0,1,219,NaN,airplane,dog,c10,0219_cop_dnn_c10_dog_10_n02087394_9693.png,n02087394_9693.png,0.0,-1.6377395,-0.89817315,-0.52295244
alexnet_w1_mlp_simclrhn_probe0,1,220,NaN,airplane,dog,c01,0220_cop_dnn_c01_dog_10_n02098105_2086.png,n02098105_2086.png,0.0,-0.7934141,-0.28021452,-0.3628869
alexnet_w1_mlp_simclrhn_probe0,1,221,NaN,elephant,cat,c10,0221_cop_dnn_c10_cat_10_n02123159_6932.png,n02123159_6932.png,0.0,-1.0713513,-0.62106764,-0.31839862
alexnet_w1_mlp_simclrhn_probe0,1,222,NaN,car,car,c15,0222_cop_dnn_c15_car_10_n04285008_8323.png,n04285008_8323.png,1.0,1.0749532,0.59176254,0.34166738
alexnet_w1_mlp_simclrhn_probe0,1,223,NaN,clock,truck,c01,0223_cop_dnn_c01_truck_10_n03796401_2226.png,n03796401_2226.png,0.0,-0.5303749,-0.17664139,-0.25012735
alexnet_w1_mlp_simclrhn_probe0,1,224,NaN,elephant,bear,c05,0224_cop_dnn_c05_bear_10_n02134084_6223.png,n02134084_6223.png,0.0,-0.27239513,-0.20011215,-0.05111179
alexnet_w1_mlp_simclrhn_probe0,1,225,NaN,cat,cat,c05,0225_cop_dnn_c05_cat_10_n02125311_22459.png,n02125311_22459.png,1.0,-0.5237692,-0.69191134,0.11889445
alexnet_w1_mlp_simclrhn_probe0,1,226,NaN,bicycle,bicycle,c10,0226_cop_dnn_c10_bicycle_10_n02835271_19143.png,n02835271_19143.png,1.0,-0.24989262,-1.0926065,0.59588873
alexnet_w1_mlp_simclrhn_probe0,1,227,NaN,cat,cat,c10,0227_cop_dnn_c10_cat_10_n02123597_4357.png,n02123597_4357.png,1.0,-0.6681395,-1.0953717,0.30209878
alexnet_w1_mlp_simclrhn_probe0,1,228,NaN,boat,boat,c03,0228_cop_dnn_c03_boat_10_n04273569_6180.png,n04273569_6180.png,1.0,0.014422846,-0.00448554,0.013370248
alexnet_w1_mlp_simclrhn_probe0,1,229,NaN,airplane,airplane,c100,0229_cop_dnn_c100_airplane_10_n02690373_139.png,n02690373_139.png,1.0,4.851655,-2.5054212,5.2022386
alexnet_w1_mlp_simclrhn_probe0,1,230,NaN,elephant,bottle,c10,0230_cop_dnn_c10_bottle_10_n04557648_4165.png,n04557648_4165.png,0.0,-1.3743984,-1.0240686,-0.24772055
alexnet_w1_mlp_simclrhn_probe0,1,231,NaN,airplane,bottle,c50,0231_cop_dnn_c50_bottle_10_n04560804_5756.png,n04560804_5756.png,0.0,-1.7806627,0.008817136,-1.2653533
alexnet_w1_mlp_simclrhn_probe0,1,232,NaN,truck,truck,c15,0232_cop_dnn_c15_truck_10_n04467665_39477.png,n04467665_39477.png,1.0,1.3675904,0.8648755,0.35547313
alexnet_w1_mlp_simclrhn_probe0,1,233,NaN,airplane,cat,c01,0233_cop_dnn_c01_cat_10_n02123159_386.png,n02123159_386.png,0.0,-0.5870915,-0.18701985,-0.2828934
alexnet_w1_mlp_simclrhn_probe0,1,234,NaN,bear,bear,c15,0234_cop_dnn_c15_bear_10_n02134084_4859.png,n02134084_4859.png,1.0,-0.56643295,-0.720964,0.10926996
alexnet_w1_mlp_simclrhn_probe0,1,235,NaN,airplane,dog,c03,0235_cop_dnn_c03_dog_10_n02099429_1992.png,n02099429_1992.png,0.0,-1.0623078,-0.5346179,-0.37313312
alexnet_w1_mlp_simclrhn_probe0,1,236,NaN,bear,oven,c03,0236_cop_dnn_c03_oven_10_n04111531_584.png,n04111531_584.png,0.0,-0.78535175,-0.28543174,-0.35349685
alexnet_w1_mlp_simclrhn_probe0,1,237,NaN,bottle,bottle,c05,0237_cop_dnn_c05_bottle_10_n04591713_4019.png,n04591713_4019.png,1.0,-0.21150425,-0.43241298,0.15620607
alexnet_w1_mlp_simclrhn_probe0,1,238,NaN,bear,dog,c03,0238_cop_dnn_c03_dog_10_n02113712_4486.png,n02113712_4486.png,0.0,-0.75021976,-0.1811517,-0.4023919
alexnet_w1_mlp_simclrhn_probe0,1,239,NaN,clock,chair,c50,0239_cop_dnn_c50_chair_10_n03376595_13018.png,n03376595_13018.png,0.0,-4.05723,-1.0662242,-2.1149607
alexnet_w1_mlp_simclrhn_probe0,1,240,NaN,oven,oven,c50,0240_cop_dnn_c50_oven_10_n04111531_7421.png,n04111531_7421.png,1.0,-0.9826022,-3.2583888,1.6092242
alexnet_w1_mlp_simclrhn_probe0,1,241,NaN,airplane,cat,c01,0241_cop_dnn_c01_cat_10_n02123045_10689.png,n02123045_10689.png,0.0,-0.660297,-0.23975244,-0.2973699
alexnet_w1_mlp_simclrhn_probe0,1,242,NaN,clock,clock,c05,0242_cop_dnn_c05_clock_10_n02708093_4391.png,n02708093_4391.png,1.0,-0.11320723,-0.3574734,0.17272228
alexnet_w1_mlp_simclrhn_probe0,1,243,NaN,clock,clock,c50,0243_cop_dnn_c50_clock_10_n02708093_3759.png,n02708093_3759.png,1.0,1.6156498,-0.53733927,1.5223932
alexnet_w1_mlp_simclrhn_probe0,1,244,NaN,elephant,elephant,c05,0244_cop_dnn_c05_elephant_10_n02504013_648.png,n02504013_648.png,1.0,0.22442725,-0.5151685,0.5229732
alexnet_w1_mlp_simclrhn_probe0,1,245,NaN,bear,bottle,c01,0245_cop_dnn_c01_bottle_10_n04591713_1879.png,n04591713_1879.png,0.0,-0.38463047,-0.34307027,-0.029387502
alexnet_w1_mlp_simclrhn_probe0,1,246,NaN,bear,dog,c01,0246_cop_dnn_c01_dog_10_n02110627_20194.png,n02110627_20194.png,0.0,-0.7510837,-0.26457506,-0.34401354
alexnet_w1_mlp_simclrhn_probe0,1,247,NaN,truck,truck,c50,0247_cop_dnn_c50_truck_10_n03796401_13298.png,n03796401_13298.png,1.0,0.20067626,-1.5016499,1.2037263
alexnet_w1_mlp_simclrhn_probe0,1,248,NaN,keyboard,chair,c100,0248_cop_dnn_c100_chair_10_n03376595_7824.png,n03376595_7824.png,0.0,-5.691114,-1.210041,-3.168597
alexnet_w1_mlp_simclrhn_probe0,1,249,NaN,airplane,bear,c05,0249_cop_dnn_c05_bear_10_n02134418_6252.png,n02134418_6252.png,0.0,-0.7330952,-0.3399569,-0.2779908
alexnet_w1_mlp_simclrhn_probe0,1,250,NaN,bird,bird,c50,0250_cop_dnn_c50_bird_10_n01855032_1815.png,n01855032_1815.png,1.0,-2.4480455,-2.5891085,0.099746585
alexnet_w1_mlp_simclrhn_probe0,1,251,NaN,car,car,c100,0251_cop_dnn_c100_car_10_n03100240_6773.png,n03100240_6773.png,1.0,3.662954,-1.6759123,3.7751486
alexnet_w1_mlp_simclrhn_probe0,1,252,NaN,airplane,keyboard,c03,0252_cop_dnn_c03_keyboard_10_n03085013_22438.png,n03085013_22438.png,0.0,-0.6567879,-0.17337556,-0.34182414
alexnet_w1_mlp_simclrhn_probe0,1,253,NaN,knife,keyboard,c01,0253_cop_dnn_c01_keyboard_10_n04505470_4950.png,n04505470_4950.png,0.0,-0.18173511,-0.058557097,-0.087100014
alexnet_w1_mlp_simclrhn_probe0,1,254,NaN,airplane,truck,c03,0254_cop_dnn_c03_truck_10_n04467665_22358.png,n04467665_22358.png,0.0,-0.48070893,-0.1813529,-0.21167669
alexnet_w1_mlp_simclrhn_probe0,1,255,NaN,airplane,truck,c15,0255_cop_dnn_c15_truck_10_n04467665_67969.png,n04467665_67969.png,0.0,-1.3866405,-0.4319877,-0.6750415
alexnet_w1_mlp_simclrhn_probe0,1,256,NaN,elephant,elephant,c10,0256_cop_dnn_c10_elephant_10_n02504013_2128.png,n02504013_2128.png,1.0,-0.02325248,-0.40732688,0.27158162
alexnet_w1_mlp_simclrhn_probe0,1,257,NaN,car,car,c30,0257_cop_dnn_c30_car_10_n03100240_3499.png,n03100240_3499.png,1.0,2.648355,1.244938,0.9923657
alexnet_w1_mlp_simclrhn_probe0,1,258,NaN,bear,bear,c50,0258_cop_dnn_c50_bear_10_n02134084_7250.png,n02134084_7250.png,1.0,-0.8314121,-1.4979935,0.47134423
alexnet_w1_mlp_simclrhn_probe0,1,259,NaN,bicycle,bicycle,c15,0259_cop_dnn_c15_bicycle_10_n03792782_43279.png,n03792782_43279.png,1.0,-1.20052,-1.3481833,0.10441368
alexnet_w1_mlp_simclrhn_probe0,1,260,NaN,cat,cat,c50,0260_cop_dnn_c50_cat_10_n02123045_1274.png,n02123045_1274.png,1.0,-2.2871177,-3.1614835,0.61827
alexnet_w1_mlp_simclrhn_probe0,1,261,NaN,oven,oven,c100,0261_cop_dnn_c100_oven_10_n04111531_6567.png,n04111531_6567.png,1.0,3.1493633,-6.0520563,6.5063863
alexnet_w1_mlp_simclrhn_probe0,1,262,NaN,oven,knife,c100,0262_cop_dnn_c100_knife_10_n03041632_86338.png,n03041632_86338.png,0.0,-4.760873,-2.4208493,-1.6546465
alexnet_w1_mlp_simclrhn_probe0,1,263,NaN,bottle,chair,c15,0263_cop_dnn_c15_chair_10_n02791124_9757.png,n02791124_9757.png,0.0,-1.3876631,-1.1039693,-0.2006018
alexnet_w1_mlp_simclrhn_probe0,1,264,NaN,knife,knife,c15,0264_cop_dnn_c15_knife_10_n03041632_45090.png,n03041632_45090.png,1.0,-0.008918561,-0.82673097,0.5782807
alexnet_w1_mlp_simclrhn_probe0,1,265,NaN,boat,bicycle,c01,0265_cop_dnn_c01_bicycle_10_n02835271_1436.png,n02835271_1436.png,0.0,-0.77619106,-0.31990308,-0.32264432
alexnet_w1_mlp_simclrhn_probe0,1,266,NaN,airplane,bird,c03,0266_cop_dnn_c03_bird_10_n01798484_8189.png,n01798484_8189.png,0.0,-0.4899761,-0.14779156,-0.24196102
alexnet_w1_mlp_simclrhn_probe0,1,267,NaN,elephant,bird,c15,0267_cop_dnn_c15_bird_10_n01819313_1282.png,n01819313_1282.png,0.0,-1.6656575,-1.3048286,-0.25514454
alexnet_w1_mlp_simclrhn_probe0,1,268,NaN,bottle,bottle,c100,0268_cop_dnn_c100_bottle_10_n03983396_11519.png,n03983396_11519.png,1.0,-0.8185164,-3.6555514,2.0060868
alexnet_w1_mlp_simclrhn_probe0,1,269,NaN,boat,boat,c05,0269_cop_dnn_c05_boat_10_n03344393_7735.png,n03344393_7735.png,1.0,0.08658819,-0.3412384,0.30251908
alexnet_w1_mlp_simclrhn_probe0,1,270,NaN,bottle,bottle,c05,0270_cop_dnn_c05_bottle_10_n04560804_21795.png,n04560804_21795.png,1.0,-0.31903166,-0.78784454,0.33150077
alexnet_w1_mlp_simclrhn_probe0,1,271,NaN,bottle,chair,c30,0271_cop_dnn_c30_chair_10_n02791124_4109.png,n02791124_4109.png,0.0,-1.5179958,-1.2804426,-0.16797552
alexnet_w1_mlp_simclrhn_probe0,1,272,NaN,keyboard,keyboard,c03,0272_cop_dnn_c03_keyboard_10_n04505470_9663.png,n04505470_9663.png,1.0,0.02037631,-0.07652316,0.06851827
alexnet_w1_mlp_simclrhn_probe0,1,273,NaN,knife,knife,c15,0273_cop_dnn_c15_knife_10_n03041632_27709.png,n03041632_27709.png,1.0,-0.34159076,-0.9004223,0.39515355
alexnet_w1_mlp_simclrhn_probe0,1,274,NaN,airplane,airplane,c50,0274_cop_dnn_c50_airplane_10_n02690373_8539.png,n02690373_8539.png,1.0,0.44947198,-1.4108362,1.3154366
alexnet_w1_mlp_simclrhn_probe0,1,275,NaN,bear,bear,c15,0275_cop_dnn_c15_bear_10_n02134418_2175.png,n02134418_2175.png,1.0,0.061507136,-0.68071747,0.524832
alexnet_w1_mlp_simclrhn_probe0,1,276,NaN,elephant,elephant,c50,0276_cop_dnn_c50_elephant_10_n02504458_2875.png,n02504458_2875.png,1.0,1.6743208,-3.806449,3.8754895
alexnet_w1_mlp_simclrhn_probe0,1,277,NaN,clock,chair,c03,0277_cop_dnn_c03_chair_10_n02791124_5868.png,n02791124_5868.png,0.0,-0.5422127,-0.37274504,-0.119831756
alexnet_w1_mlp_simclrhn_probe0,1,278,NaN,cat,cat,c10,0278_cop_dnn_c10_cat_10_n02123597_488.png,n02123597_488.png,1.0,-0.74564177,-1.3499168,0.42728698
alexnet_w1_mlp_simclrhn_probe0,1,279,NaN,bicycle,oven,c30,0279_cop_dnn_c30_oven_10_n04111531_6500.png,n04111531_6500.png,0.0,-3.0645602,-1.3941813,-1.1811363
alexnet_w1_mlp_simclrhn_probe0,1,280,NaN,bicycle,bicycle,c15,0280_cop_dnn_c15_bicycle_10_n03792782_13002.png,n03792782_13002.png,1.0,0.04711725,-1.4731582,1.0749971
alexnet_w1_mlp_simclrhn_probe0,1,281,NaN,clock,clock,c05,0281_cop_dnn_c05_clock_10_n03196217_10641.png,n03196217_10641.png,1.0,0.13689165,-0.18256293,0.2258885
alexnet_w1_mlp_simclrhn_probe0,1,282,NaN,bicycle,bicycle,c15,0282_cop_dnn_c15_bicycle_10_n03792782_20193.png,n03792782_20193.png,1.0,1.984611,-1.1352785,2.206095
alexnet_w1_mlp_simclrhn_probe0,1,283,NaN,truck,truck,c05,0283_cop_dnn_c05_truck_10_n03417042_13806.png,n03417042_13806.png,1.0,-0.1548258,-0.33901885,0.13024415
alexnet_w1_mlp_simclrhn_probe0,1,284,NaN,bottle,truck,c05,0284_cop_dnn_c05_truck_10_n04467665_70237.png,n04467665_70237.png,0.0,-0.8308438,-0.7417078,-0.06302867
alexnet_w1_mlp_simclrhn_probe0,1,285,NaN,clock,truck,c01,0285_cop_dnn_c01_truck_10_n04467665_3720.png,n04467665_3720.png,0.0,-0.9883514,-0.30819467,-0.48094344
alexnet_w1_mlp_simclrhn_probe0,1,286,NaN,bear,bear,c10,0286_cop_dnn_c10_bear_10_n02132136_8975.png,n02132136_8975.png,1.0,0.74825203,0.115198754,0.44763628
alexnet_w1_mlp_simclrhn_probe0,1,287,NaN,cat,knife,c05,0287_cop_dnn_c05_knife_10_n03041632_18859.png,n03041632_18859.png,0.0,-0.95163506,-0.8468309,-0.07410773
alexnet_w1_mlp_simclrhn_probe0,1,288,NaN,elephant,bear,c50,0288_cop_dnn_c50_bear_10_n02132136_29760.png,n02132136_29760.png,0.0,-0.006313503,0.024566174,-0.021835228
alexnet_w1_mlp_simclrhn_probe0,1,289,NaN,airplane,boat,c05,0289_cop_dnn_c05_boat_10_n04273569_6586.png,n04273569_6586.png,0.0,0.0050296322,0.05574581,-0.035861753
alexnet_w1_mlp_simclrhn_probe0,1,290,NaN,bottle,bottle,c05,0290_cop_dnn_c05_bottle_10_n03983396_11137.png,n03983396_11137.png,1.0,-0.16408034,-0.3731515,0.14783564
alexnet_w1_mlp_simclrhn_probe0,1,291,NaN,clock,clock,c10,0291_cop_dnn_c10_clock_10_n03196217_4232.png,n03196217_4232.png,1.0,-0.26806012,-0.37124395,0.07296199
alexnet_w1_mlp_simclrhn_probe0,1,292,NaN,airplane,clock,c01,0292_cop_dnn_c01_clock_10_n04548280_1325.png,n04548280_1325.png,0.0,-0.27660862,-0.12785378,-0.10518555
alexnet_w1_mlp_simclrhn_probe0,1,293,NaN,airplane,airplane,c100,0293_cop_dnn_c100_airplane_10_n02690373_2268.png,n02690373_2268.png,1.0,3.9367762,-2.055272,4.237018
alexnet_w1_mlp_simclrhn_probe0,1,294,NaN,bear,bicycle,c10,0294_cop_dnn_c10_bicycle_10_n03792782_14557.png,n03792782_14557.png,0.0,-0.6896725,-0.5411892,-0.104993574
alexnet_w1_mlp_simclrhn_probe0,1,295,NaN,airplane,cat,c01,0295_cop_dnn_c01_cat_10_n02124075_13792.png,n02124075_13792.png,0.0,-0.69566107,-0.13976708,-0.39307645
alexnet_w1_mlp_simclrhn_probe0,1,296,NaN,clock,dog,c01,0296_cop_dnn_c01_dog_10_n02110185_14953.png,n02110185_14953.png,0.0,-0.87718594,-0.3338772,-0.3841773
alexnet_w1_mlp_simclrhn_probe0,1,297,NaN,bottle,bottle,c15,0297_cop_dnn_c15_bottle_10_n04557648_1634.png,n04557648_1634.png,1.0,-0.51501334,-1.0506558,0.37875646
alexnet_w1_mlp_simclrhn_probe0,1,298,NaN,bicycle,bicycle,c50,0298_cop_dnn_c50_bicycle_10_n02835271_1701.png,n02835271_1701.png,1.0,-0.4799076,-3.7259574,2.2953038
alexnet_w1_mlp_simclrhn_probe0,1,299,NaN,boat,boat,c05,0299_cop_dnn_c05_boat_10_n04273569_7312.png,n04273569_7312.png,1.0,0.111858085,-0.5644276,0.4782062
alexnet_w1_mlp_simclrhn_probe0,1,300,NaN,bird,bird,c100,0300_cop_dnn_c100_bird_10_n01616318_5417.png,n01616318_5417.png,1.0,-2.6945589,-3.0073023,0.221143
alexnet_w1_mlp_simclrhn_probe0,1,301,NaN,cat,cat,c15,0301_cop_dnn_c15_cat_10_n02123045_12200.png,n02123045_12200.png,1.0,-0.083019555,-2.1513195,1.462509
alexnet_w1_mlp_simclrhn_probe0,1,302,NaN,dog,dog,c30,0302_cop_dnn_c30_dog_10_n02102480_8264.png,n02102480_8264.png,1.0,-0.7685228,-0.77993685,0.008070953
alexnet_w1_mlp_simclrhn_probe0,1,303,NaN,bicycle,bicycle,c30,0303_cop_dnn_c30_bicycle_10_n03792782_5426.png,n03792782_5426.png,1.0,-1.403405,-3.148828,1.2342005
alexnet_w1_mlp_simclrhn_probe0,1,304,NaN,bottle,clock,c05,0304_cop_dnn_c05_clock_10_n02708093_8038.png,n02708093_8038.png,0.0,-0.76932925,-0.525084,-0.17270747
alexnet_w1_mlp_simclrhn_probe0,1,305,NaN,bicycle,bicycle,c30,0305_cop_dnn_c30_bicycle_10_n02835271_2764.png,n02835271_2764.png,1.0,1.0103188,-1.6598971,1.8881278
alexnet_w1_mlp_simclrhn_probe0,1,306,NaN,knife,knife,c50,0306_cop_dnn_c50_knife_10_n03041632_39836.png,n03041632_39836.png,1.0,0.6827467,-0.6728706,0.9585662
alexnet_w1_mlp_simclrhn_probe0,1,307,NaN,bear,bicycle,c01,0307_cop_dnn_c01_bicycle_10_n03792782_19040.png,n03792782_19040.png,0.0,-0.6929265,-0.31309205,-0.26858354
alexnet_w1_mlp_simclrhn_probe0,1,308,NaN,bear,cat,c01,0308_cop_dnn_c01_cat_10_n02125311_28331.png,n02125311_28331.png,0.0,-0.7699411,-0.2726539,-0.35163516
alexnet_w1_mlp_simclrhn_probe0,1,309,NaN,clock,knife,c01,0309_cop_dnn_c01_knife_10_n03041632_18126.png,n03041632_18126.png,0.0,-0.3596902,-0.22775425,-0.0932928
alexnet_w1_mlp_simclrhn_probe0,1,310,NaN,bicycle,bicycle,c30,0310_cop_dnn_c30_bicycle_10_n03792782_19253.png,n03792782_19253.png,1.0,-0.19550836,-1.2632432,0.75500256
alexnet_w1_mlp_simclrhn_probe0,1,311,NaN,boat,bottle,c01,0311_cop_dnn_c01_bottle_10_n03983396_751.png,n03983396_751.png,0.0,-0.2957767,-0.24596825,-0.03521989
alexnet_w1_mlp_simclrhn_probe0,1,312,NaN,car,car,c15,0312_cop_dnn_c15_car_10_n04285008_628.png,n04285008_628.png,1.0,0.715576,0.04175802,0.4764613
alexnet_w1_mlp_simclrhn_probe0,1,313,NaN,chair,boat,c15,0313_cop_dnn_c15_boat_10_n03662601_3011.png,n03662601_3011.png,0.0,-1.6729021,-0.8380286,-0.5903447
alexnet_w1_mlp_simclrhn_probe0,1,314,NaN,bottle,bottle,c10,0314_cop_dnn_c10_bottle_10_n04557648_2904.png,n04557648_2904.png,1.0,-0.47159913,-0.724966,0.17915742
alexnet_w1_mlp_simclrhn_probe0,1,315,NaN,bird,bird,c10,0315_cop_dnn_c10_bird_10_n02002556_9804.png,n02002556_9804.png,1.0,-0.7372548,-0.9864013,0.1761732
alexnet_w1_mlp_simclrhn_probe0,1,316,NaN,clock,truck,c05,0316_cop_dnn_c05_truck_10_n04467665_8955.png,n04467665_8955.png,0.0,-0.6057573,-0.41565946,-0.13441947
alexnet_w1_mlp_simclrhn_probe0,1,317,NaN,boat,boat,c03,0317_cop_dnn_c03_boat_10_n04612504_15061.png,n04612504_15061.png,1.0,-0.051860474,-0.36820236,0.22368748
alexnet_w1_mlp_simclrhn_probe0,1,318,NaN,airplane,bird,c05,0318_cop_dnn_c05_bird_10_n02002556_1437.png,n02002556_1437.png,0.0,-0.5173472,-0.41633016,-0.07142985
alexnet_w1_mlp_simclrhn_probe0,1,319,NaN,car,truck,c50,0319_cop_dnn_c50_truck_10_n03417042_10993.png,n03417042_10993.png,0.0,-3.6828709,-2.376828,-0.9235118
alexnet_w1_mlp_simclrhn_probe0,1,320,NaN,airplane,chair,c10,0320_cop_dnn_c10_chair_10_n02791124_880.png,n02791124_880.png,0.0,-0.69605803,-0.32662752,-0.26122683
alexnet_w1_mlp_simclrhn_probe0,1,321,NaN,bicycle,bicycle,c50,0321_cop_dnn_c50_bicycle_10_n03792782_4826.png,n03792782_4826.png,1.0,0.92066306,-1.2688128,1.5481932
alexnet_w1_mlp_simclrhn_probe0,1,322,NaN,chair,chair,c03,0322_cop_dnn_c03_chair_10_n04099969_3804.png,n04099969_3804.png,1.0,-0.43832934,-0.54637784,0.07640183
alexnet_w1_mlp_simclrhn_probe0,1,323,NaN,bottle,bottle,c10,0323_cop_dnn_c10_bottle_10_n02823428_2504.png,n02823428_2504.png,1.0,0.7887002,-0.7253571,1.0706003
alexnet_w1_mlp_simclrhn_probe0,1,324,NaN,cat,cat,c10,0324_cop_dnn_c10_cat_10_n02124075_9716.png,n02124075_9716.png,1.0,-0.22609715,-0.5386434,0.22100358
alexnet_w1_mlp_simclrhn_probe0,1,325,NaN,clock,knife,c01,0325_cop_dnn_c01_knife_10_n03041632_81630.png,n03041632_81630.png,0.0,-0.5037849,-0.28831714,-0.15235871
alexnet_w1_mlp_simclrhn_probe0,1,326,NaN,bottle,bottle,c30,0326_cop_dnn_c30_bottle_10_n04591713_457.png,n04591713_457.png,1.0,0.15051277,-0.20333128,0.25020552
alexnet_w1_mlp_simclrhn_probe0,1,327,NaN,elephant,elephant,c30,0327_cop_dnn_c30_elephant_10_n02504458_5337.png,n02504458_5337.png,1.0,-0.4083104,-1.0143896,0.42856273
alexnet_w1_mlp_simclrhn_probe0,1,328,NaN,clock,clock,c15,0328_cop_dnn_c15_clock_10_n02708093_5429.png,n02708093_5429.png,1.0,0.16055952,-0.38040537,0.38251996
alexnet_w1_mlp_simclrhn_probe0,1,329,NaN,bottle,oven,c100,0329_cop_dnn_c100_oven_10_n04111531_9411.png,n04111531_9411.png,0.0,-3.846872,-3.2091548,-0.4509342
alexnet_w1_mlp_simclrhn_probe0,1,330,NaN,airplane,knife,c01,0330_cop_dnn_c01_knife_10_n03041632_2338.png,n03041632_2338.png,0.0,-0.13161245,0.13271943,-0.18691087
alexnet_w1_mlp_simclrhn_probe0,1,331,NaN,cat,cat,c100,0331_cop_dnn_c100_cat_10_n02123394_2755.png,n02123394_2755.png,1.0,-2.2324874,-3.2408483,0.71301883
alexnet_w1_mlp_simclrhn_probe0,1,332,NaN,elephant,elephant,c05,0332_cop_dnn_c05_elephant_10_n02504458_10243.png,n02504458_10243.png,1.0,-0.24885918,-0.373891,0.08841085
alexnet_w1_mlp_simclrhn_probe0,1,333,NaN,oven,oven,c15,0333_cop_dnn_c15_oven_10_n04111531_1752.png,n04111531_1752.png,1.0,-0.2848976,-0.9320345,0.45759493
alexnet_w1_mlp_simclrhn_probe0,1,334,NaN,bird,bird,c05,0334_cop_dnn_c05_bird_10_n02037110_6736.png,n02037110_6736.png,1.0,-0.21295014,-0.22621565,0.009380129
alexnet_w1_mlp_simclrhn_probe0,1,335,NaN,airplane,airplane,c10,0335_cop_dnn_c10_airplane_10_n02690373_8804.png,n02690373_8804.png,1.0,1.3929464,-0.01902841,0.99841696
alexnet_w1_mlp_simclrhn_probe0,1,336,NaN,elephant,elephant,c100,0336_cop_dnn_c100_elephant_10_n02504458_12217.png,n02504458_12217.png,1.0,-1.7213718,-3.484119,1.2464505
alexnet_w1_mlp_simclrhn_probe0,1,337,NaN,chair,knife,c15,0337_cop_dnn_c15_knife_10_n03041632_84012.png,n03041632_84012.png,0.0,-2.3111875,-2.2091284,-0.0721667
alexnet_w1_mlp_simclrhn_probe0,1,338,NaN,cat,dog,c50,0338_cop_dnn_c50_dog_10_n02093991_6192.png,n02093991_6192.png,0.0,-2.157495,-1.6963013,-0.3261132
alexnet_w1_mlp_simclrhn_probe0,1,339,NaN,bird,bird,c50,0339_cop_dnn_c50_bird_10_n02027492_6499.png,n02027492_6499.png,1.0,-0.6494618,-3.6259716,2.1047103
alexnet_w1_mlp_simclrhn_probe0,1,340,NaN,bottle,knife,c10,0340_cop_dnn_c10_knife_10_n03041632_46185.png,n03041632_46185.png,0.0,-0.5809655,-0.07565177,-0.3573108
alexnet_w1_mlp_simclrhn_probe0,1,341,NaN,boat,bear,c30,0341_cop_dnn_c30_bear_10_n02134084_14775.png,n02134084_14775.png,0.0,-1.3516454,-0.14439991,-0.85365146
alexnet_w1_mlp_simclrhn_probe0,1,342,NaN,truck,truck,c30,0342_cop_dnn_c30_truck_10_n03417042_5346.png,n03417042_5346.png,1.0,0.6835389,-0.904836,1.1231507
alexnet_w1_mlp_simclrhn_probe0,1,343,NaN,cat,dog,c30,0343_cop_dnn_c30_dog_10_n02093991_9672.png,n02093991_9672.png,0.0,-1.2437019,-0.492095,-0.53146636
alexnet_w1_mlp_simclrhn_probe0,1,344,NaN,elephant,elephant,c100,0344_cop_dnn_c100_elephant_10_n02504458_2031.png,n02504458_2031.png,1.0,6.1105,-2.8102498,6.307923
alexnet_w1_mlp_simclrhn_probe0,1,345,NaN,boat,bird,c03,0345_cop_dnn_c03_bird_10_n02025239_660.png,n02025239_660.png,0.0,-0.4351049,-0.37138456,-0.045057088
alexnet_w1_mlp_simclrhn_probe0,1,346,NaN,airplane,elephant,c01,0346_cop_dnn_c01_elephant_10_n02504458_4244.png,n02504458_4244.png,0.0,-0.32230562,-0.23113069,-0.06447041
alexnet_w1_mlp_simclrhn_probe0,1,347,NaN,elephant,elephant,c30,0347_cop_dnn_c30_elephant_10_n02504013_7539.png,n02504013_7539.png,1.0,-0.289815,-0.6909762,0.2836638
alexnet_w1_mlp_simclrhn_probe0,1,348,NaN,bear,bird,c03,0348_cop_dnn_c03_bird_10_n02002724_5876.png,n02002724_5876.png,0.0,-0.7429469,-0.5285147,-0.1516265
alexnet_w1_mlp_simclrhn_probe0,1,349,NaN,bird,bird,c10,0349_cop_dnn_c10_bird_10_n01532829_560.png,n01532829_560.png,1.0,-0.7987422,-1.0180068,0.15504351
alexnet_w1_mlp_simclrhn_probe0,1,350,NaN,boat,boat,c30,0350_cop_dnn_c30_boat_10_n04273569_1709.png,n04273569_1709.png,1.0,0.7031352,-1.1256739,1.2931633
alexnet_w1_mlp_simclrhn_probe0,1,351,NaN,bicycle,bicycle,c50,0351_cop_dnn_c50_bicycle_10_n02835271_7958.png,n02835271_7958.png,1.0,-2.922749,-4.0236235,0.77843577
alexnet_w1_mlp_simclrhn_probe0,1,352,NaN,elephant,bear,c30,0352_cop_dnn_c30_bear_10_n02133161_12157.png,n02133161_12157.png,0.0,-1.3024093,-0.90009105,-0.28448197
alexnet_w1_mlp_simclrhn_probe0,1,353,NaN,clock,chair,c01,0353_cop_dnn_c01_chair_10_n04099969_4577.png,n04099969_4577.png,0.0,-0.38514948,-0.22716899,-0.11170907
alexnet_w1_mlp_simclrhn_probe0,1,354,NaN,airplane,bicycle,c01,0354_cop_dnn_c01_bicycle_10_n02835271_10283.png,n02835271_10283.png,0.0,-0.6985201,-0.30566993,-0.27778703
alexnet_w1_mlp_simclrhn_probe0,1,355,NaN,car,truck,c100,0355_cop_dnn_c100_truck_10_n03417042_23815.png,n03417042_23815.png,0.0,-4.313657,-3.712779,-0.42488474
alexnet_w1_mlp_simclrhn_probe0,1,356,NaN,bear,bear,c03,0356_cop_dnn_c03_bear_10_n02133161_1059.png,n02133161_1059.png,1.0,-0.12718438,-0.45302027,0.23040077
alexnet_w1_mlp_simclrhn_probe0,1,357,NaN,airplane,chair,c01,0357_cop_dnn_c01_chair_10_n02791124_5173.png,n02791124_5173.png,0.0,-0.31522322,-0.23387098,-0.05752472
alexnet_w1_mlp_simclrhn_probe0,1,358,NaN,bottle,bottle,c30,0358_cop_dnn_c30_bottle_10_n03983396_5545.png,n03983396_5545.png,1.0,-0.7754621,-2.2708583,1.0574048
alexnet_w1_mlp_simclrhn_probe0,1,359,NaN,airplane,airplane,c01,0359_cop_dnn_c01_airplane_10_n02690373_1797.png,n02690373_1797.png,1.0,0.1106579,-0.05063907,0.11405418
alexnet_w1_mlp_simclrhn_probe0,1,360,NaN,boat,oven,c05,0360_cop_dnn_c05_oven_10_n04111531_6628.png,n04111531_6628.png,0.0,-1.2193013,-0.6652772,-0.39175424
alexnet_w1_mlp_simclrhn_probe0,1,361,NaN,bear,elephant,c10,0361_cop_dnn_c10_elephant_10_n02504458_7817.png,n02504458_7817.png,0.0,-0.8386332,-0.6338533,-0.14480123
alexnet_w1_mlp_simclrhn_probe0,1,362,NaN,knife,knife,c50,0362_cop_dnn_c50_knife_10_n03041632_4714.png,n03041632_4714.png,1.0,-1.5022547,-2.0578008,0.39283037
alexnet_w1_mlp_simclrhn_probe0,1,363,NaN,elephant,bear,c03,0363_cop_dnn_c03_bear_10_n02134084_169.png,n02134084_169.png,0.0,-0.7110722,-0.5977834,-0.080107294
alexnet_w1_mlp_simclrhn_probe0,1,364,NaN,bird,bird,c15,0364_cop_dnn_c15_bird_10_n02013706_8336.png,n02013706_8336.png,1.0,-0.05087505,-1.4537249,0.99196464
alexnet_w1_mlp_simclrhn_probe0,1,365,NaN,bottle,bottle,c15,0365_cop_dnn_c15_bottle_10_n04579145_6880.png,n04579145_6880.png,1.0,0.7343996,-0.29074034,0.7248834
alexnet_w1_mlp_simclrhn_probe0,1,366,NaN,bear,dog,c05,0366_cop_dnn_c05_dog_10_n02105641_416.png,n02105641_416.png,0.0,-0.6748404,-0.5135422,-0.11405507
alexnet_w1_mlp_simclrhn_probe0,1,367,NaN,airplane,airplane,c10,0367_cop_dnn_c10_airplane_10_n02690373_6549.png,n02690373_6549.png,1.0,-0.6912958,-0.91012967,0.15473892
alexnet_w1_mlp_simclrhn_probe0,1,368,NaN,clock,clock,c01,0368_cop_dnn_c01_clock_10_n04548280_2374.png,n04548280_2374.png,1.0,0.064509094,-0.2570404,0.22736984
alexnet_w1_mlp_simclrhn_probe0,1,369,NaN,bottle,bottle,c30,0369_cop_dnn_c30_bottle_10_n03983396_6287.png,n03983396_6287.png,1.0,-0.5983911,-1.0835694,0.34307286
alexnet_w1_mlp_simclrhn_probe0,1,370,NaN,airplane,dog,c01,0370_cop_dnn_c01_dog_10_n02090622_1126.png,n02090622_1126.png,0.0,-0.783732,-0.2826796,-0.35429755
alexnet_w1_mlp_simclrhn_probe0,1,371,NaN,truck,truck,c50,0371_cop_dnn_c50_truck_10_n03796401_1681.png,n03796401_1681.png,1.0,1.9861293,0.69588137,0.9123431
alexnet_w1_mlp_simclrhn_probe0,1,372,NaN,elephant,elephant,c30,0372_cop_dnn_c30_elephant_10_n02504013_5537.png,n02504013_5537.png,1.0,2.324187,-1.2323135,2.5148256
alexnet_w1_mlp_simclrhn_probe0,1,373,NaN,keyboard,keyboard,c05,0373_cop_dnn_c05_keyboard_10_n03085013_12399.png,n03085013_12399.png,1.0,0.268524,-0.03122924,0.21195754
alexnet_w1_mlp_simclrhn_probe0,1,374,NaN,bottle,oven,c15,0374_cop_dnn_c15_oven_10_n04111531_6094.png,n04111531_6094.png,0.0,-0.600795,-0.35492563,-0.17385589
alexnet_w1_mlp_simclrhn_probe0,1,375,NaN,airplane,airplane,c03,0375_cop_dnn_c03_airplane_10_n02690373_13604.png,n02690373_13604.png,1.0,0.3602383,-0.22071275,0.41079447
alexnet_w1_mlp_simclrhn_probe0,1,376,NaN,bear,bear,c100,0376_cop_dnn_c100_bear_10_n02134084_16084.png,n02134084_16084.png,1.0,1.3041048,0.2641018,0.7353932
alexnet_w1_mlp_simclrhn_probe0,1,377,NaN,airplane,boat,c01,0377_cop_dnn_c01_boat_10_n04273569_15906.png,n04273569_15906.png,0.0,-0.009197803,0.0055049974,-0.01039645
alexnet_w1_mlp_simclrhn_probe0,1,378,NaN,chair,dog,c05,0378_cop_dnn_c05_dog_10_n02105162_8899.png,n02105162_8899.png,0.0,-0.7531046,-0.66992575,-0.05881635
alexnet_w1_mlp_simclrhn_probe0,1,379,NaN,bottle,oven,c03,0379_cop_dnn_c03_oven_10_n04111531_7619.png,n04111531_7619.png,0.0,-0.7134033,-0.55446947,-0.11238318
alexnet_w1_mlp_simclrhn_probe0,1,380,NaN,elephant,elephant,c05,0380_cop_dnn_c05_elephant_10_n02504458_1816.png,n02504458_1816.png,1.0,-0.15055428,-0.8913418,0.5238159
alexnet_w1_mlp_simclrhn_probe0,1,381,NaN,cat,cat,c30,0381_cop_dnn_c30_cat_10_n02123045_3575.png,n02123045_3575.png,1.0,-1.3903354,-1.7781086,0.27419704
alexnet_w1_mlp_simclrhn_probe0,1,382,NaN,boat,truck,c01,0382_cop_dnn_c01_truck_10_n03417042_908.png,n03417042_908.png,0.0,-0.8400612,-0.27483577,-0.39967474
alexnet_w1_mlp_simclrhn_probe0,1,383,NaN,airplane,boat,c03,0383_cop_dnn_c03_boat_10_n03344393_4213.png,n03344393_4213.png,0.0,0.07933715,0.20838922,-0.0912536
alexnet_w1_mlp_simclrhn_probe0,1,384,NaN,airplane,knife,c01,0384_cop_dnn_c01_knife_10_n03041632_31483.png,n03041632_31483.png,0.0,-0.29305053,-0.05882862,-0.1656199
alexnet_w1_mlp_simclrhn_probe0,1,385,NaN,airplane,bottle,c01,0385_cop_dnn_c01_bottle_10_n03937543_986.png,n03937543_986.png,0.0,-0.41784987,-0.08160291,-0.23776251
alexnet_w1_mlp_simclrhn_probe0,1,386,NaN,truck,truck,c15,0386_cop_dnn_c15_truck_10_n03796401_7381.png,n03796401_7381.png,1.0,1.4027853,0.46845332,0.6606725
alexnet_w1_mlp_simclrhn_probe0,1,387,NaN,bear,dog,c03,0387_cop_dnn_c03_dog_10_n02094433_9787.png,n02094433_9787.png,0.0,-0.7611218,-0.3608081,-0.28306454
alexnet_w1_mlp_simclrhn_probe0,1,388,NaN,bird,bird,c30,0388_cop_dnn_c30_bird_10_n02011460_11838.png,n02011460_11838.png,1.0,-0.98153764,-2.01771,0.73268455
alexnet_w1_mlp_simclrhn_probe0,1,389,NaN,cat,cat,c30,0389_cop_dnn_c30_cat_10_n02123597_29513.png,n02123597_29513.png,1.0,-1.1386636,-2.4682536,0.9401621
alexnet_w1_mlp_simclrhn_probe0,1,390,NaN,chair,chair,c10,0390_cop_dnn_c10_chair_10_n04429376_5337.png,n04429376_5337.png,1.0,-0.72341233,-1.1369382,0.29240695
alexnet_w1_mlp_simclrhn_probe0,1,391,NaN,knife,knife,c03,0391_cop_dnn_c03_knife_10_n03041632_4260.png,n03041632_4260.png,1.0,-0.4127292,-0.46643776,0.037977684
alexnet_w1_mlp_simclrhn_probe0,1,392,NaN,keyboard,keyboard,c10,0392_cop_dnn_c10_keyboard_10_n04505470_4061.png,n04505470_4061.png,1.0,0.29324698,-0.51341367,0.57039523
alexnet_w1_mlp_simclrhn_probe0,1,393,NaN,boat,boat,c15,0393_cop_dnn_c15_boat_10_n03344393_6467.png,n03344393_6467.png,1.0,0.26376882,-0.43482602,0.49398112
alexnet_w1_mlp_simclrhn_probe0,1,394,NaN,bicycle,bicycle,c100,0394_cop_dnn_c100_bicycle_10_n03792782_11297.png,n03792782_11297.png,1.0,-0.4856019,-6.1922984,4.035244
alexnet_w1_mlp_simclrhn_probe0,1,395,NaN,elephant,bicycle,c03,0395_cop_dnn_c03_bicycle_10_n03792782_8357.png,n03792782_8357.png,0.0,-0.7708434,-0.52906394,-0.17096388
alexnet_w1_mlp_simclrhn_probe0,1,396,NaN,elephant,dog,c10,0396_cop_dnn_c10_dog_10_n02108422_2739.png,n02108422_2739.png,0.0,-1.3043749,-0.93894243,-0.2583998
alexnet_w1_mlp_simclrhn_probe0,1,397,NaN,bear,bear,c03,0397_cop_dnn_c03_bear_10_n02134084_6840.png,n02134084_6840.png,1.0,-0.33953798,-0.43920684,0.07047653
alexnet_w1_mlp_simclrhn_probe0,1,398,NaN,bear,bear,c30,0398_cop_dnn_c30_bear_10_n02133161_5365.png,n02133161_5365.png,1.0,-0.38614476,-0.45593715,0.04935067
alexnet_w1_mlp_simclrhn_probe0,1,399,NaN,bottle,bottle,c30,0399_cop_dnn_c30_bottle_10_n04560804_1010.png,n04560804_1010.png,1.0,-2.2733421,-2.620234,0.24528961
alexnet_w1_mlp_simclrhn_probe0,1,400,NaN,clock,clock,c10,0400_cop_dnn_c10_clock_10_n04548280_183.png,n04548280_183.png,1.0,-0.67651683,-0.75087595,0.05257984
alexnet_w1_mlp_simclrhn_probe0,1,401,NaN,keyboard,keyboard,c100,0401_cop_dnn_c100_keyboard_10_n03085013_21534.png,n03085013_21534.png,1.0,3.9723022,-3.2084744,5.0775757
alexnet_w1_mlp_simclrhn_probe0,1,402,NaN,chair,keyboard,c50,0402_cop_dnn_c50_keyboard_10_n03085013_24111.png,n03085013_24111.png,0.0,-2.8106651,-1.2248137,-1.1213663
alexnet_w1_mlp_simclrhn_probe0,1,403,NaN,knife,knife,c15,0403_cop_dnn_c15_knife_10_n03041632_28009.png,n03041632_28009.png,1.0,-0.8080219,-1.1556416,0.24580422
alexnet_w1_mlp_simclrhn_probe0,1,404,NaN,elephant,cat,c50,0404_cop_dnn_c50_cat_10_n02123159_7647.png,n02123159_7647.png,0.0,-2.015462,-1.8117661,-0.14403467
alexnet_w1_mlp_simclrhn_probe0,1,405,NaN,airplane,bottle,c01,0405_cop_dnn_c01_bottle_10_n02823428_8696.png,n02823428_8696.png,0.0,-0.29841137,-0.13047409,-0.11874959
alexnet_w1_mlp_simclrhn_probe0,1,406,NaN,elephant,elephant,c15,0406_cop_dnn_c15_elephant_10_n02504458_8923.png,n02504458_8923.png,1.0,-0.47008917,-1.0716387,0.42535976
alexnet_w1_mlp_simclrhn_probe0,1,407,NaN,airplane,bear,c01,0407_cop_dnn_c01_bear_10_n02134084_5031.png,n02134084_5031.png,0.0,-0.2971114,-0.18111542,-0.08202154
alexnet_w1_mlp_simclrhn_probe0,1,408,NaN,elephant,dog,c50,0408_cop_dnn_c50_dog_10_n02097209_1658.png,n02097209_1658.png,0.0,-4.0301285,-1.0645728,-2.0969646
alexnet_w1_mlp_simclrhn_probe0,1,409,NaN,elephant,dog,c05,0409_cop_dnn_c05_dog_10_n02099849_6384.png,n02099849_6384.png,0.0,-0.759277,-0.39830655,-0.25524464
alexnet_w1_mlp_simclrhn_probe0,1,410,NaN,elephant,elephant,c15,0410_cop_dnn_c15_elephant_10_n02504013_3459.png,n02504013_3459.png,1.0,-0.9552233,-1.8010015,0.59805554
alexnet_w1_mlp_simclrhn_probe0,1,411,NaN,bottle,knife,c03,0411_cop_dnn_c03_knife_10_n03041632_36390.png,n03041632_36390.png,0.0,-0.61441433,-0.4802153,-0.09489304
alexnet_w1_mlp_simclrhn_probe0,1,412,NaN,knife,knife,c100,0412_cop_dnn_c100_knife_10_n03041632_10263.png,n03041632_10263.png,1.0,-2.7880912,-7.2387533,3.1470935
alexnet_w1_mlp_simclrhn_probe0,1,413,NaN,cat,cat,c03,0413_cop_dnn_c03_cat_10_n02123045_840.png,n02123045_840.png,1.0,-0.24196899,-0.585474,0.24289474
alexnet_w1_mlp_simclrhn_probe0,1,414,NaN,clock,clock,c05,0414_cop_dnn_c05_clock_10_n04548280_4758.png,n04548280_4758.png,1.0,0.1599119,-0.3362467,0.3508371
alexnet_w1_mlp_simclrhn_probe0,1,415,NaN,bear,bear,c50,0415_cop_dnn_c50_bear_10_n02133161_1247.png,n02133161_1247.png,1.0,-1.8897837,-3.4108086,1.075527
alexnet_w1_mlp_simclrhn_probe0,1,416,NaN,airplane,airplane,c10,0416_cop_dnn_c10_airplane_10_n02690373_6716.png,n02690373_6716.png,1.0,0.6312689,-0.20103836,0.5885301
alexnet_w1_mlp_simclrhn_probe0,1,417,NaN,keyboard,keyboard,c30,0417_cop_dnn_c30_keyboard_10_n04505470_4893.png,n04505470_4893.png,1.0,0.33903536,-1.4556347,1.2690234
alexnet_w1_mlp_simclrhn_probe0,1,418,NaN,chair,chair,c30,0418_cop_dnn_c30_chair_10_n04099969_34525.png,n04099969_34525.png,1.0,-0.42542055,-1.006313,0.41075298
alexnet_w1_mlp_simclrhn_probe0,1,419,NaN,airplane,airplane,c01,0419_cop_dnn_c01_airplane_10_n02690373_4793.png,n02690373_4793.png,1.0,0.13458697,-0.20692687,0.24148676
alexnet_w1_mlp_simclrhn_probe0,1,420,NaN,clock,knife,c15,0420_cop_dnn_c15_knife_10_n03041632_4787.png,n03041632_4787.png,0.0,-0.91907007,-0.48451224,-0.30727878
alexnet_w1_mlp_simclrhn_probe0,1,421,NaN,boat,boat,c05,0421_cop_dnn_c05_boat_10_n04273569_20587.png,n04273569_20587.png,1.0,0.20821075,-0.23830208,0.31573224
alexnet_w1_mlp_simclrhn_probe0,1,422,NaN,boat,bicycle,c03,0422_cop_dnn_c03_bicycle_10_n03792782_4844.png,n03792782_4844.png,0.0,-0.54011154,-0.11563082,-0.30015323
alexnet_w1_mlp_simclrhn_probe0,1,423,NaN,airplane,cat,c01,0423_cop_dnn_c01_cat_10_n02123045_6066.png,n02123045_6066.png,0.0,-0.703784,-0.23763286,-0.32961863
alexnet_w1_mlp_simclrhn_probe0,1,424,NaN,boat,boat,c30,0424_cop_dnn_c30_boat_10_n04273569_17045.png,n04273569_17045.png,1.0,1.3394271,-0.23956028,1.1165127
alexnet_w1_mlp_simclrhn_probe0,1,425,NaN,keyboard,keyboard,c100,0425_cop_dnn_c100_keyboard_10_n04505470_5068.png,n04505470_5068.png,1.0,5.6681395,2.1587234,2.4815319
alexnet_w1_mlp_simclrhn_probe0,1,426,NaN,airplane,airplane,c10,0426_cop_dnn_c10_airplane_10_n02690373_2724.png,n02690373_2724.png,1.0,1.1837758,-0.24672548,1.0115172
alexnet_w1_mlp_simclrhn_probe0,1,427,NaN,boat,boat,c10,0427_cop_dnn_c10_boat_10_n03662601_4844.png,n03662601_4844.png,1.0,0.60173476,-0.80731714,0.99635017
alexnet_w1_mlp_simclrhn_probe0,1,428,NaN,chair,chair,c100,0428_cop_dnn_c100_chair_10_n04099969_3929.png,n04099969_3929.png,1.0,2.161477,-2.8387141,3.535669
alexnet_w1_mlp_simclrhn_probe0,1,429,NaN,oven,oven,c10,0429_cop_dnn_c10_oven_10_n04111531_9026.png,n04111531_9026.png,1.0,-0.40509796,-0.4648864,0.04227681
alexnet_w1_mlp_simclrhn_probe0,1,430,NaN,knife,knife,c15,0430_cop_dnn_c15_knife_10_n03041632_51225.png,n03041632_51225.png,1.0,0.086552754,-0.083942056,0.12055804
alexnet_w1_mlp_simclrhn_probe0,1,431,NaN,bottle,boat,c10,0431_cop_dnn_c10_boat_10_n03344393_6638.png,n03344393_6638.png,0.0,-1.6487023,-1.2995638,-0.2468782
alexnet_w1_mlp_simclrhn_probe0,1,432,NaN,keyboard,knife,c30,0432_cop_dnn_c30_knife_10_n03041632_4590.png,n03041632_4590.png,0.0,-0.93220073,-0.69700944,-0.16630536
alexnet_w1_mlp_simclrhn_probe0,1,433,NaN,clock,clock,c03,0433_cop_dnn_c03_clock_10_n02708093_3761.png,n02708093_3761.png,1.0,-0.33011636,-0.53319645,0.14359932
alexnet_w1_mlp_simclrhn_probe0,1,434,NaN,bottle,car,c03,0434_cop_dnn_c03_car_10_n04285008_3193.png,n04285008_3193.png,0.0,-0.93579835,-0.4411169,-0.3497926
alexnet_w1_mlp_simclrhn_probe0,1,435,NaN,cat,keyboard,c50,0435_cop_dnn_c50_keyboard_10_n03085013_661.png,n03085013_661.png,0.0,-5.1628404,-3.5489852,-1.1411679
alexnet_w1_mlp_simclrhn_probe0,1,436,NaN,bear,bottle,c03,0436_cop_dnn_c03_bottle_10_n04557648_2355.png,n04557648_2355.png,0.0,-0.58842343,-0.5620792,-0.018628191
alexnet_w1_mlp_simclrhn_probe0,1,437,NaN,airplane,dog,c30,0437_cop_dnn_c30_dog_10_n02107312_860.png,n02107312_860.png,0.0,-4.194653,-2.0022898,-1.5502349
alexnet_w1_mlp_simclrhn_probe0,1,438,NaN,boat,boat,c100,0438_cop_dnn_c100_boat_10_n02951358_1541.png,n02951358_1541.png,1.0,0.5701403,-4.6056166,3.659813
alexnet_w1_mlp_simclrhn_probe0,1,439,NaN,boat,boat,c15,0439_cop_dnn_c15_boat_10_n02951358_4972.png,n02951358_4972.png,1.0,-0.08151868,-1.0042148,0.65244466
alexnet_w1_mlp_simclrhn_probe0,1,440,NaN,bear,bear,c15,0440_cop_dnn_c15_bear_10_n02132136_6352.png,n02132136_6352.png,1.0,0.38567752,-0.5661764,0.6730624
alexnet_w1_mlp_simclrhn_probe0,1,441,NaN,knife,knife,c05,0441_cop_dnn_c05_knife_10_n03041632_27022.png,n03041632_27022.png,1.0,-0.3096786,-0.4318439,0.08638391
alexnet_w1_mlp_simclrhn_probe0,1,442,NaN,airplane,airplane,c15,0442_cop_dnn_c15_airplane_10_n02690373_10399.png,n02690373_10399.png,1.0,0.83193475,0.16255137,0.47332555
alexnet_w1_mlp_simclrhn_probe0,1,443,NaN,keyboard,keyboard,c30,0443_cop_dnn_c30_keyboard_10_n04505470_4803.png,n04505470_4803.png,1.0,0.2587405,-1.6271411,1.3335197
alexnet_w1_mlp_simclrhn_probe0,1,444,NaN,bottle,bottle,c03,0444_cop_dnn_c03_bottle_10_n03937543_4916.png,n03937543_4916.png,1.0,0.13821892,-0.41529745,0.3913952
alexnet_w1_mlp_simclrhn_probe0,1,445,NaN,elephant,dog,c10,0445_cop_dnn_c10_dog_10_n02092339_2268.png,n02092339_2268.png,0.0,-0.89238673,-0.5294093,-0.25666383
alexnet_w1_mlp_simclrhn_probe0,1,446,NaN,cat,cat,c100,0446_cop_dnn_c100_cat_10_n02123394_2034.png,n02123394_2034.png,1.0,-2.2803214,-5.6468797,2.3805163
alexnet_w1_mlp_simclrhn_probe0,1,447,NaN,clock,keyboard,c01,0447_cop_dnn_c01_keyboard_10_n03085013_24442.png,n03085013_24442.png,0.0,-0.2932458,-0.20614798,-0.061587453
alexnet_w1_mlp_simclrhn_probe0,1,448,NaN,boat,bicycle,c03,0448_cop_dnn_c03_bicycle_10_n03792782_12908.png,n03792782_12908.png,0.0,-0.9228394,-0.3049348,-0.43692455
alexnet_w1_mlp_simclrhn_probe0,1,449,NaN,cat,cat,c50,0449_cop_dnn_c50_cat_10_n02124075_10241.png,n02124075_10241.png,1.0,1.0785848,-3.3792012,3.1521308
alexnet_w1_mlp_simclrhn_probe0,1,450,NaN,knife,keyboard,c03,0450_cop_dnn_c03_keyboard_10_n03085013_29941.png,n03085013_29941.png,0.0,-0.4139108,-0.36063397,-0.03767241
alexnet_w1_mlp_simclrhn_probe0,1,451,NaN,airplane,car,c05,0451_cop_dnn_c05_car_10_n03100240_5718.png,n03100240_5718.png,0.0,-0.88011354,-0.49645236,-0.27128944
alexnet_w1_mlp_simclrhn_probe0,1,452,NaN,airplane,bear,c01,0452_cop_dnn_c01_bear_10_n02133161_789.png,n02133161_789.png,0.0,-0.31289947,-0.28137684,-0.022289867
alexnet_w1_mlp_simclrhn_probe0,1,453,NaN,chair,chair,c30,0453_cop_dnn_c30_chair_10_n04099969_9891.png,n04099969_9891.png,1.0,-1.0406822,-2.2137053,0.82945263
alexnet_w1_mlp_simclrhn_probe0,1,454,NaN,airplane,knife,c01,0454_cop_dnn_c01_knife_10_n03041632_8666.png,n03041632_8666.png,0.0,-0.38213566,-0.29591188,-0.06096942
alexnet_w1_mlp_simclrhn_probe0,1,455,NaN,car,car,c10,0455_cop_dnn_c10_car_10_n03100240_52.png,n03100240_52.png,1.0,-0.42705378,-0.6903622,0.18618718
alexnet_w1_mlp_simclrhn_probe0,1,456,NaN,boat,bird,c10,0456_cop_dnn_c10_bird_10_n02007558_45529.png,n02007558_45529.png,0.0,-0.58513373,-0.51155365,-0.05202898
alexnet_w1_mlp_simclrhn_probe0,1,457,NaN,airplane,airplane,c15,0457_cop_dnn_c15_airplane_10_n02690373_1933.png,n02690373_1933.png,1.0,0.05794522,-0.28032374,0.23919228
alexnet_w1_mlp_simclrhn_probe0,1,458,NaN,elephant,elephant,c03,0458_cop_dnn_c03_elephant_10_n02504013_1879.png,n02504013_1879.png,1.0,-0.15022334,-0.20873423,0.041373443
alexnet_w1_mlp_simclrhn_probe0,1,459,NaN,car,car,c10,0459_cop_dnn_c10_car_10_n03100240_3373.png,n03100240_3373.png,1.0,-0.10712624,-0.49076205,0.2712715
alexnet_w1_mlp_simclrhn_probe0,1,460,NaN,elephant,bicycle,c15,0460_cop_dnn_c15_bicycle_10_n03792782_7331.png,n03792782_7331.png,0.0,-1.5087285,-0.7666818,-0.52470624
alexnet_w1_mlp_simclrhn_probe0,1,461,NaN,knife,chair,c100,0461_cop_dnn_c100_chair_10_n03376595_11049.png,n03376595_11049.png,0.0,-6.763245,-4.966808,-1.270273
alexnet_w1_mlp_simclrhn_probe0,1,462,NaN,knife,knife,c50,0462_cop_dnn_c50_knife_10_n03041632_37274.png,n03041632_37274.png,1.0,-2.1112316,-2.728257,0.43630284
alexnet_w1_mlp_simclrhn_probe0,1,463,NaN,bottle,bottle,c15,0463_cop_dnn_c15_bottle_10_n02823428_780.png,n02823428_780.png,1.0,-0.26518247,-1.2670114,0.7084
alexnet_w1_mlp_simclrhn_probe0,1,464,NaN,elephant,cat,c05,0464_cop_dnn_c05_cat_10_n02123045_390.png,n02123045_390.png,0.0,-0.9811972,-0.82633954,-0.109500885
alexnet_w1_mlp_simclrhn_probe0,1,465,NaN,bird,bird,c30,0465_cop_dnn_c30_bird_10_n01796340_10024.png,n01796340_10024.png,1.0,-1.7694731,-1.7773138,0.0055442494
alexnet_w1_mlp_simclrhn_probe0,1,466,NaN,knife,knife,c05,0466_cop_dnn_c05_knife_10_n03041632_13509.png,n03041632_13509.png,1.0,-0.06191846,-0.07061951,0.0061525707
alexnet_w1_mlp_simclrhn_probe0,1,467,NaN,airplane,bird,c05,0467_cop_dnn_c05_bird_10_n01534433_14198.png,n01534433_14198.png,0.0,-0.61409515,-0.32432044,-0.20490167
alexnet_w1_mlp_simclrhn_probe0,1,468,NaN,airplane,chair,c100,0468_cop_dnn_c100_chair_10_n04099969_2502.png,n04099969_2502.png,0.0,-5.7427783,-2.876626,-2.0266757
alexnet_w1_mlp_simclrhn_probe0,1,469,NaN,cat,cat,c05,0469_cop_dnn_c05_cat_10_n02123045_15474.png,n02123045_15474.png,1.0,-0.50388914,-0.6236319,0.084670916
alexnet_w1_mlp_simclrhn_probe0,1,470,NaN,clock,clock,c30,0470_cop_dnn_c30_clock_10_n02708093_442.png,n02708093_442.png,1.0,-1.4473243,-1.5285391,0.057427526
alexnet_w1_mlp_simclrhn_probe0,1,471,NaN,keyboard,boat,c100,0471_cop_dnn_c100_boat_10_n02951358_12663.png,n02951358_12663.png,0.0,-3.9915345,0.45210022,-3.1421242
alexnet_w1_mlp_simclrhn_probe0,1,472,NaN,clock,cat,c05,0472_cop_dnn_c05_cat_10_n02125311_37322.png,n02125311_37322.png,0.0,-0.90646887,-0.5062056,-0.28302887
alexnet_w1_mlp_simclrhn_probe0,1,473,NaN,bicycle,bird,c100,0473_cop_dnn_c100_bird_10_n01558993_5185.png,n01558993_5185.png,0.0,-4.363077,-1.8789247,-1.7565609
alexnet_w1_mlp_simclrhn_probe0,1,474,NaN,elephant,elephant,c100,0474_cop_dnn_c100_elephant_10_n02504013_7248.png,n02504013_7248.png,1.0,3.5154798,-3.7357185,5.127372
alexnet_w1_mlp_simclrhn_probe0,1,475,NaN,airplane,bottle,c01,0475_cop_dnn_c01_bottle_10_n02823428_4245.png,n02823428_4245.png,0.0,-0.24225351,0.09714338,-0.23998985
alexnet_w1_mlp_simclrhn_probe0,1,476,NaN,chair,chair,c10,0476_cop_dnn_c10_chair_10_n04099969_8993.png,n04099969_8993.png,1.0,0.20334004,-0.78080165,0.6958933
alexnet_w1_mlp_simclrhn_probe0,1,477,NaN,dog,dog,c30,0477_cop_dnn_c30_dog_10_n02101388_8775.png,n02101388_8775.png,1.0,-1.1726948,-2.6568842,1.0494804
alexnet_w1_mlp_simclrhn_probe0,1,478,NaN,clock,car,c01,0478_cop_dnn_c01_car_10_n02814533_3590.png,n02814533_3590.png,0.0,-0.927375,-0.39969364,-0.37312707
alexnet_w1_mlp_simclrhn_probe0,1,479,NaN,elephant,elephant,c05,0479_cop_dnn_c05_elephant_10_n02504458_6018.png,n02504458_6018.png,1.0,0.11237447,-0.31956652,0.3054284
alexnet_w1_mlp_simclrhn_probe0,1,480,NaN,keyboard,keyboard,c100,0480_cop_dnn_c100_keyboard_10_n03085013_11332.png,n03085013_11332.png,1.0,9.353226,0.66019636,6.1469
alexnet_w1_mlp_simclrhn_probe0,1,481,NaN,oven,oven,c05,0481_cop_dnn_c05_oven_10_n04111531_6863.png,n04111531_6863.png,1.0,-0.34779644,-0.5579842,0.14862518
alexnet_w1_mlp_simclrhn_probe0,1,482,NaN,airplane,airplane,c50,0482_cop_dnn_c50_airplane_10_n02690373_2675.png,n02690373_2675.png,1.0,0.9238168,0.082006976,0.5952494
alexnet_w1_mlp_simclrhn_probe0,1,483,NaN,clock,dog,c01,0483_cop_dnn_c01_dog_10_n02106550_660.png,n02106550_660.png,0.0,-0.7925037,-0.12150707,-0.4744663
alexnet_w1_mlp_simclrhn_probe0,1,484,NaN,clock,knife,c15,0484_cop_dnn_c15_knife_10_n03041632_11700.png,n03041632_11700.png,0.0,-0.32529953,-0.22984381,-0.06749739
alexnet_w1_mlp_simclrhn_probe0,1,485,NaN,bird,bird,c15,0485_cop_dnn_c15_bird_10_n02009229_6149.png,n02009229_6149.png,1.0,-1.0656946,-1.6646774,0.42354482
alexnet_w1_mlp_simclrhn_probe0,1,486,NaN,keyboard,clock,c30,0486_cop_dnn_c30_clock_10_n03196217_3780.png,n03196217_3780.png,0.0,-0.031850457,0.8907988,-0.6524116
alexnet_w1_mlp_simclrhn_probe0,1,487,NaN,bird,bird,c100,0487_cop_dnn_c100_bird_10_n01530575_34173.png,n01530575_34173.png,1.0,-2.8454876,-7.1504235,3.0440495
alexnet_w1_mlp_simclrhn_probe0,1,488,NaN,bottle,bottle,c100,0488_cop_dnn_c100_bottle_10_n03983396_17803.png,n03983396_17803.png,1.0,3.6279376,-5.998603,6.806992
alexnet_w1_mlp_simclrhn_probe0,1,489,NaN,boat,oven,c05,0489_cop_dnn_c05_oven_10_n04111531_2156.png,n04111531_2156.png,0.0,-0.7326201,-0.32621717,-0.2873703
alexnet_w1_mlp_simclrhn_probe0,1,490,NaN,elephant,elephant,c10,0490_cop_dnn_c10_elephant_10_n02504013_14948.png,n02504013_14948.png,1.0,0.95857096,-0.58599985,1.0921766
alexnet_w1_mlp_simclrhn_probe0,1,491,NaN,airplane,boat,c01,0491_cop_dnn_c01_boat_10_n04273569_3112.png,n04273569_3112.png,0.0,-0.070392184,-0.058897763,-0.0081277825
alexnet_w1_mlp_simclrhn_probe0,1,492,NaN,bird,bird,c50,0492_cop_dnn_c50_bird_10_n01560419_6583.png,n01560419_6583.png,1.0,-1.4791586,-4.009482,1.7892088
alexnet_w1_mlp_simclrhn_probe0,1,493,NaN,keyboard,keyboard,c50,0493_cop_dnn_c50_keyboard_10_n03085013_19161.png,n03085013_19161.png,1.0,-0.5427098,-1.3379916,0.56234914
alexnet_w1_mlp_simclrhn_probe0,1,494,NaN,bottle,bird,c05,0494_cop_dnn_c05_bird_10_n01616318_57023.png,n01616318_57023.png,0.0,-0.91784483,-0.4718872,-0.31533968
alexnet_w1_mlp_simclrhn_probe0,1,495,NaN,truck,truck,c50,0495_cop_dnn_c50_truck_10_n04467665_69176.png,n04467665_69176.png,1.0,-1.0492402,-1.1174749,0.048249207
alexnet_w1_mlp_simclrhn_probe0,1,496,NaN,car,car,c50,0496_cop_dnn_c50_car_10_n03100240_4971.png,n03100240_4971.png,1.0,4.7532983,2.412624,1.6551068
alexnet_w1_mlp_simclrhn_probe0,1,497,NaN,airplane,oven,c01,0497_cop_dnn_c01_oven_10_n04111531_4901.png,n04111531_4901.png,0.0,-0.93569803,-0.0908815,-0.5973755
alexnet_w1_mlp_simclrhn_probe0,1,498,NaN,bear,bear,c30,0498_cop_dnn_c30_bear_10_n02133161_4091.png,n02133161_4091.png,1.0,0.56533587,-0.1878143,0.5325576
alexnet_w1_mlp_simclrhn_probe0,1,499,NaN,bear,cat,c03,0499_cop_dnn_c03_cat_10_n02123394_4164.png,n02123394_4164.png,0.0,-0.52541155,-0.37693888,-0.104986034
alexnet_w1_mlp_simclrhn_probe0,1,500,NaN,boat,bird,c03,0500_cop_dnn_c03_bird_10_n02017213_689.png,n02017213_689.png,0.0,-0.23951186,0.046788402,-0.20244487
alexnet_w1_mlp_simclrhn_probe0,1,501,NaN,dog,dog,c100,0501_cop_dnn_c100_dog_10_n02109047_14207.png,n02109047_14207.png,1.0,-3.5703914,-4.6563754,0.76790667
alexnet_w1_mlp_simclrhn_probe0,1,502,NaN,elephant,elephant,c05,0502_cop_dnn_c05_elephant_10_n02504013_8347.png,n02504013_8347.png,1.0,-0.11353766,-0.6995343,0.4143622
alexnet_w1_mlp_simclrhn_probe0,1,503,NaN,bottle,bottle,c30,0503_cop_dnn_c30_bottle_10_n04591713_1652.png,n04591713_1652.png,1.0,-0.8237554,-0.94071233,0.08270105
alexnet_w1_mlp_simclrhn_probe0,1,504,NaN,oven,oven,c15,0504_cop_dnn_c15_oven_10_n04111531_22403.png,n04111531_22403.png,1.0,-1.1445205,-1.4132082,0.18999092
alexnet_w1_mlp_simclrhn_probe0,1,505,NaN,airplane,airplane,c100,0505_cop_dnn_c100_airplane_10_n02690373_6046.png,n02690373_6046.png,1.0,12.494764,-3.3504276,11.204243
alexnet_w1_mlp_simclrhn_probe0,1,506,NaN,elephant,bear,c15,0506_cop_dnn_c15_bear_10_n02134084_1689.png,n02134084_1689.png,0.0,-0.7071891,-0.596351,-0.07837434
alexnet_w1_mlp_simclrhn_probe0,1,507,NaN,oven,oven,c30,0507_cop_dnn_c30_oven_10_n04111531_14269.png,n04111531_14269.png,1.0,1.3454006,-0.771939,1.4971852
alexnet_w1_mlp_simclrhn_probe0,1,508,NaN,cat,cat,c100,0508_cop_dnn_c100_cat_10_n02123597_9444.png,n02123597_9444.png,1.0,1.0025336,-1.1467086,1.5197437
alexnet_w1_mlp_simclrhn_probe0,1,509,NaN,bear,bear,c10,0509_cop_dnn_c10_bear_10_n02134418_128.png,n02134418_128.png,1.0,0.63916683,0.10908383,0.3748253
alexnet_w1_mlp_simclrhn_probe0,1,510,NaN,airplane,airplane,c30,0510_cop_dnn_c30_airplane_10_n02690373_8789.png,n02690373_8789.png,1.0,2.8839748,0.55414253,1.6474403
alexnet_w1_mlp_simclrhn_probe0,1,511,NaN,airplane,bottle,c01,0511_cop_dnn_c01_bottle_10_n03937543_10092.png,n03937543_10092.png,0.0,-0.42736837,-0.11205718,-0.22295868
alexnet_w1_mlp_simclrhn_probe0,1,512,NaN,clock,clock,c03,0512_cop_dnn_c03_clock_10_n02708093_7257.png,n02708093_7257.png,1.0,0.2523266,-0.05381577,0.21647537
alexnet_w1_mlp_simclrhn_probe0,1,513,NaN,elephant,bear,c100,0513_cop_dnn_c100_bear_10_n02134084_21207.png,n02134084_21207.png,0.0,-2.981478,-2.6395075,-0.24180962
alexnet_w1_mlp_simclrhn_probe0,1,514,NaN,bird,bird,c05,0514_cop_dnn_c05_bird_10_n01797886_12811.png,n01797886_12811.png,1.0,-0.7157099,-0.8519061,0.09630526
alexnet_w1_mlp_simclrhn_probe0,1,515,NaN,airplane,oven,c01,0515_cop_dnn_c01_oven_10_n04111531_21248.png,n04111531_21248.png,0.0,-1.0150368,-0.23292434,-0.55303705
alexnet_w1_mlp_simclrhn_probe0,1,516,NaN,elephant,dog,c15,0516_cop_dnn_c15_dog_10_n02090379_5574.png,n02090379_5574.png,0.0,-1.3864323,-1.2372333,-0.10549963
alexnet_w1_mlp_simclrhn_probe0,1,517,NaN,car,car,c15,0517_cop_dnn_c15_car_10_n04285008_8443.png,n04285008_8443.png,1.0,0.806637,-0.23471418,0.7363465
alexnet_w1_mlp_simclrhn_probe0,1,518,NaN,car,car,c100,0518_cop_dnn_c100_car_10_n03100240_15647.png,n03100240_15647.png,1.0,2.9970124,1.8204029,0.8319886
alexnet_w1_mlp_simclrhn_probe0,1,519,NaN,chair,chair,c50,0519_cop_dnn_c50_chair_10_n02791124_5824.png,n02791124_5824.png,1.0,-1.1696913,-2.9703426,1.2732527
alexnet_w1_mlp_simclrhn_probe0,1,520,NaN,boat,bear,c05,0520_cop_dnn_c05_bear_10_n02133161_9949.png,n02133161_9949.png,0.0,-0.4343629,-0.43308243,-0.0009054197
alexnet_w1_mlp_simclrhn_probe0,1,521,NaN,elephant,elephant,c03,0521_cop_dnn_c03_elephant_10_n02504458_5320.png,n02504458_5320.png,1.0,-0.26643288,-0.41808784,0.10723625
alexnet_w1_mlp_simclrhn_probe0,1,522,NaN,airplane,keyboard,c01,0522_cop_dnn_c01_keyboard_10_n04505470_1904.png,n04505470_1904.png,0.0,-0.58115333,-0.19994779,-0.26955304
alexnet_w1_mlp_simclrhn_probe0,1,523,NaN,oven,oven,c100,0523_cop_dnn_c100_oven_10_n04111531_4685.png,n04111531_4685.png,1.0,4.535718,-5.392016,7.0199685
alexnet_w1_mlp_simclrhn_probe0,1,524,NaN,truck,truck,c05,0524_cop_dnn_c05_truck_10_n03417042_2230.png,n03417042_2230.png,1.0,-0.23612595,-0.47471872,0.16871057
alexnet_w1_mlp_simclrhn_probe0,1,525,NaN,bottle,bottle,c15,0525_cop_dnn_c15_bottle_10_n04591713_6842.png,n04591713_6842.png,1.0,-0.7772312,-1.1150869,0.23890007
alexnet_w1_mlp_simclrhn_probe0,1,526,NaN,boat,boat,c50,0526_cop_dnn_c50_boat_10_n02951358_8285.png,n02951358_8285.png,1.0,-2.413447,-3.1736708,0.53755945
alexnet_w1_mlp_simclrhn_probe0,1,527,NaN,airplane,knife,c01,0527_cop_dnn_c01_knife_10_n03041632_48675.png,n03041632_48675.png,0.0,-0.29664394,-0.040345676,-0.18123025
alexnet_w1_mlp_simclrhn_probe0,1,528,NaN,airplane,oven,c01,0528_cop_dnn_c01_oven_10_n04111531_14435.png,n04111531_14435.png,0.0,-1.1041807,-0.277563,-0.584507
alexnet_w1_mlp_simclrhn_probe0,1,529,NaN,cat,cat,c50,0529_cop_dnn_c50_cat_10_n02123159_8273.png,n02123159_8273.png,1.0,-1.648125,-2.371333,0.51138514
alexnet_w1_mlp_simclrhn_probe0,1,530,NaN,cat,bird,c50,0530_cop_dnn_c50_bird_10_n01614925_1908.png,n01614925_1908.png,0.0,-3.2516966,-3.1373222,-0.08087491
alexnet_w1_mlp_simclrhn_probe0,1,531,NaN,bottle,knife,c05,0531_cop_dnn_c05_knife_10_n03041632_96345.png,n03041632_96345.png,0.0,-0.89656943,-0.5980087,-0.21111433
alexnet_w1_mlp_simclrhn_probe0,1,532,NaN,knife,knife,c10,0532_cop_dnn_c10_knife_10_n03041632_31037.png,n03041632_31037.png,1.0,-0.5544478,-1.0394456,0.34294525
alexnet_w1_mlp_simclrhn_probe0,1,533,NaN,airplane,airplane,c50,0533_cop_dnn_c50_airplane_10_n02690373_1436.png,n02690373_1436.png,1.0,1.9916762,-0.8200199,1.9881694
alexnet_w1_mlp_simclrhn_probe0,1,534,NaN,chair,chair,c100,0534_cop_dnn_c100_chair_10_n04099969_28072.png,n04099969_28072.png,1.0,-1.5240209,-3.527274,1.4165138
alexnet_w1_mlp_simclrhn_probe0,1,535,NaN,airplane,boat,c01,0535_cop_dnn_c01_boat_10_n04612504_19983.png,n04612504_19983.png,0.0,-0.17078605,-0.06985076,-0.07137203
alexnet_w1_mlp_simclrhn_probe0,1,536,NaN,oven,oven,c15,0536_cop_dnn_c15_oven_10_n04111531_8255.png,n04111531_8255.png,1.0,-0.8248381,-0.92078286,0.06784319
alexnet_w1_mlp_simclrhn_probe0,1,537,NaN,elephant,bear,c15,0537_cop_dnn_c15_bear_10_n02132136_1574.png,n02132136_1574.png,0.0,-0.4581581,-0.02939552,-0.30318093
alexnet_w1_mlp_simclrhn_probe0,1,538,NaN,boat,boat,c100,0538_cop_dnn_c100_boat_10_n04273569_24747.png,n04273569_24747.png,1.0,-2.42641,-4.4178743,1.408178
alexnet_w1_mlp_simclrhn_probe0,1,539,NaN,dog,dog,c30,0539_cop_dnn_c30_dog_10_n02113799_18413.png,n02113799_18413.png,1.0,-2.0603426,-2.136007,0.053502895
alexnet_w1_mlp_simclrhn_probe0,1,540,NaN,boat,boat,c15,0540_cop_dnn_c15_boat_10_n04273569_28333.png,n04273569_28333.png,1.0,0.63991475,-0.98124516,1.1463332
alexnet_w1_mlp_simclrhn_probe0,1,541,NaN,clock,bird,c01,0541_cop_dnn_c01_bird_10_n02017213_2183.png,n02017213_2183.png,0.0,-0.39866826,-0.32727167,-0.050485015
alexnet_w1_mlp_simclrhn_probe0,1,542,NaN,boat,boat,c50,0542_cop_dnn_c50_boat_10_n04273569_26139.png,n04273569_26139.png,1.0,1.4495302,0.6422411,0.57083964
alexnet_w1_mlp_simclrhn_probe0,1,543,NaN,clock,knife,c03,0543_cop_dnn_c03_knife_10_n03041632_29684.png,n03041632_29684.png,0.0,-0.16370925,-0.14265747,-0.014885856
alexnet_w1_mlp_simclrhn_probe0,1,544,NaN,boat,boat,c100,0544_cop_dnn_c100_boat_10_n02951358_3087.png,n02951358_3087.png,1.0,-3.8349426,-5.0676174,0.87163275
alexnet_w1_mlp_simclrhn_probe0,1,545,NaN,keyboard,keyboard,c15,0545_cop_dnn_c15_keyboard_10_n03085013_13615.png,n03085013_13615.png,1.0,0.19892097,-0.11612316,0.22276984
alexnet_w1_mlp_simclrhn_probe0,1,546,NaN,bear,oven,c03,0546_cop_dnn_c03_oven_10_n04111531_1778.png,n04111531_1778.png,0.0,-0.87563723,-0.3782537,-0.3517033
alexnet_w1_mlp_simclrhn_probe0,1,547,NaN,bear,dog,c03,0547_cop_dnn_c03_dog_10_n02097474_9129.png,n02097474_9129.png,0.0,-0.7933567,-0.43390363,-0.25417173
alexnet_w1_mlp_simclrhn_probe0,1,548,NaN,bird,bird,c30,0548_cop_dnn_c30_bird_10_n02013706_19220.png,n02013706_19220.png,1.0,-0.36330757,-2.7569377,1.6925522
alexnet_w1_mlp_simclrhn_probe0,1,549,NaN,clock,clock,c100,0549_cop_dnn_c100_clock_10_n03196217_7199.png,n03196217_7199.png,1.0,1.6422228,1.483147,0.11248353
alexnet_w1_mlp_simclrhn_probe0,1,550,NaN,bear,bear,c50,0550_cop_dnn_c50_bear_10_n02132136_27823.png,n02132136_27823.png,1.0,1.6083415,1.3635046,0.17312577
alexnet_w1_mlp_simclrhn_probe0,1,551,NaN,boat,boat,c03,0551_cop_dnn_c03_boat_10_n03662601_6462.png,n03662601_6462.png,1.0,-0.32662565,-0.4789943,0.10774092
alexnet_w1_mlp_simclrhn_probe0,1,552,NaN,bottle,knife,c15,0552_cop_dnn_c15_knife_10_n03041632_11773.png,n03041632_11773.png,0.0,-1.3819516,-0.82622755,-0.39295623
alexnet_w1_mlp_simclrhn_probe0,1,553,NaN,clock,clock,c01,0553_cop_dnn_c01_clock_10_n02708093_7998.png,n02708093_7998.png,1.0,-0.032937508,-0.17961235,0.10371478
alexnet_w1_mlp_simclrhn_probe0,1,554,NaN,elephant,elephant,c30,0554_cop_dnn_c30_elephant_10_n02504458_3409.png,n02504458_3409.png,1.0,1.7948407,-1.8086108,2.5480251
alexnet_w1_mlp_simclrhn_probe0,1,555,NaN,clock,bottle,c01,0555_cop_dnn_c01_bottle_10_n04560804_24166.png,n04560804_24166.png,0.0,-0.32602543,-0.31246722,-0.009587102
alexnet_w1_mlp_simclrhn_probe0,1,556,NaN,bear,cat,c15,0556_cop_dnn_c15_cat_10_n02125311_17613.png,n02125311_17613.png,0.0,-0.737156,-0.34812367,-0.2750874
alexnet_w1_mlp_simclrhn_probe0,1,557,NaN,airplane,bicycle,c05,0557_cop_dnn_c05_bicycle_10_n03792782_5284.png,n03792782_5284.png,0.0,-0.77803546,-0.63421017,-0.101699844
alexnet_w1_mlp_simclrhn_probe0,1,558,NaN,chair,oven,c10,0558_cop_dnn_c10_oven_10_n04111531_13006.png,n04111531_13006.png,0.0,-1.1247649,-0.755731,-0.2609464
alexnet_w1_mlp_simclrhn_probe0,1,559,NaN,oven,oven,c10,0559_cop_dnn_c10_oven_10_n04111531_8309.png,n04111531_8309.png,1.0,-0.49401844,-0.5906941,0.06836004
alexnet_w1_mlp_simclrhn_probe0,1,560,NaN,bottle,clock,c10,0560_cop_dnn_c10_clock_10_n04548280_8390.png,n04548280_8390.png,0.0,-1.346384,-1.1820204,-0.116222635
alexnet_w1_mlp_simclrhn_probe0,1,561,NaN,truck,truck,c50,0561_cop_dnn_c50_truck_10_n04467665_7110.png,n04467665_7110.png,1.0,0.38521993,-2.059013,1.7283337
alexnet_w1_mlp_simclrhn_probe0,1,562,NaN,airplane,clock,c10,0562_cop_dnn_c10_clock_10_n03196217_8020.png,n03196217_8020.png,0.0,-0.5395466,-0.30306396,-0.16721849
alexnet_w1_mlp_simclrhn_probe0,1,563,NaN,elephant,elephant,c100,0563_cop_dnn_c100_elephant_10_n02504458_7955.png,n02504458_7955.png,1.0,4.7554407,-2.2388859,4.945736
alexnet_w1_mlp_simclrhn_probe0,1,564,NaN,airplane,elephant,c01,0564_cop_dnn_c01_elephant_10_n02504458_1022.png,n02504458_1022.png,0.0,-0.33646184,-0.09925078,-0.16773355
alexnet_w1_mlp_simclrhn_probe0,1,565,NaN,clock,clock,c100,0565_cop_dnn_c100_clock_10_n04548280_2383.png,n04548280_2383.png,1.0,-0.5029178,-0.539326,0.025744475
alexnet_w1_mlp_simclrhn_probe0,1,566,NaN,bird,bird,c50,0566_cop_dnn_c50_bird_10_n02002724_7019.png,n02002724_7019.png,1.0,0.3531633,-3.3139734,2.5930572
alexnet_w1_mlp_simclrhn_probe0,1,567,NaN,bear,cat,c100,0567_cop_dnn_c100_cat_10_n02125311_1127.png,n02125311_1127.png,0.0,-3.551696,-3.4745476,-0.054552183
alexnet_w1_mlp_simclrhn_probe0,1,568,NaN,bottle,bicycle,c05,0568_cop_dnn_c05_bicycle_10_n02835271_6481.png,n02835271_6481.png,0.0,-1.4472159,-0.7923048,-0.4630921
alexnet_w1_mlp_simclrhn_probe0,1,569,NaN,car,car,c15,0569_cop_dnn_c15_car_10_n04285008_5208.png,n04285008_5208.png,1.0,0.12581511,-0.020741597,0.10363124
alexnet_w1_mlp_simclrhn_probe0,1,570,NaN,oven,oven,c50,0570_cop_dnn_c50_oven_10_n04111531_8658.png,n04111531_8658.png,1.0,-1.2259302,-1.4688551,0.17177387
alexnet_w1_mlp_simclrhn_probe0,1,571,NaN,bottle,bottle,c05,0571_cop_dnn_c05_bottle_10_n04579145_2910.png,n04579145_2910.png,1.0,-0.34971434,-0.5852036,0.16651605
alexnet_w1_mlp_simclrhn_probe0,1,572,NaN,clock,truck,c01,0572_cop_dnn_c01_truck_10_n04467665_22414.png,n04467665_22414.png,0.0,-0.7634281,-0.18246694,-0.4108016
alexnet_w1_mlp_simclrhn_probe0,1,573,NaN,elephant,elephant,c15,0573_cop_dnn_c15_elephant_10_n02504013_5439.png,n02504013_5439.png,1.0,-0.17741764,-0.29584247,0.083739005
alexnet_w1_mlp_simclrhn_probe0,1,574,NaN,cat,cat,c10,0574_cop_dnn_c10_cat_10_n02123159_5945.png,n02123159_5945.png,1.0,-0.22985406,-1.2007651,0.6865378
alexnet_w1_mlp_simclrhn_probe0,1,575,NaN,bottle,bottle,c10,0575_cop_dnn_c10_bottle_10_n04557648_2426.png,n04557648_2426.png,1.0,0.012844882,-0.30020908,0.22136259
alexnet_w1_mlp_simclrhn_probe0,1,576,NaN,bicycle,bicycle,c05,0576_cop_dnn_c05_bicycle_10_n03792782_38641.png,n03792782_38641.png,1.0,-0.36505806,-0.82297707,0.32379764
alexnet_w1_mlp_simclrhn_probe0,1,577,NaN,cat,dog,c30,0577_cop_dnn_c30_dog_10_n02110958_15843.png,n02110958_15843.png,0.0,-2.6615305,-2.1839302,-0.33771443
alexnet_w1_mlp_simclrhn_probe0,1,578,NaN,keyboard,keyboard,c15,0578_cop_dnn_c15_keyboard_10_n04505470_5161.png,n04505470_5161.png,1.0,1.1787579,-0.91258043,1.4787996
alexnet_w1_mlp_simclrhn_probe0,1,579,NaN,airplane,airplane,c30,0579_cop_dnn_c30_airplane_10_n02690373_8350.png,n02690373_8350.png,1.0,1.6230941,-0.34661034,1.3927914
alexnet_w1_mlp_simclrhn_probe0,1,580,NaN,boat,bicycle,c05,0580_cop_dnn_c05_bicycle_10_n03792782_10129.png,n03792782_10129.png,0.0,-0.6824757,-0.23771529,-0.3144931
alexnet_w1_mlp_simclrhn_probe0,1,581,NaN,car,car,c100,0581_cop_dnn_c100_car_10_n02814533_26369.png,n02814533_26369.png,1.0,-4.771169,-6.202777,1.0122995
alexnet_w1_mlp_simclrhn_probe0,1,582,NaN,oven,oven,c10,0582_cop_dnn_c10_oven_10_n04111531_10077.png,n04111531_10077.png,1.0,0.08561951,-0.7979777,0.6247976
alexnet_w1_mlp_simclrhn_probe0,1,583,NaN,clock,oven,c01,0583_cop_dnn_c01_oven_10_n04111531_12702.png,n04111531_12702.png,0.0,-0.69630194,-0.33694983,-0.25410032
alexnet_w1_mlp_simclrhn_probe0,1,584,NaN,clock,clock,c100,0584_cop_dnn_c100_clock_10_n03196217_8618.png,n03196217_8618.png,1.0,-0.2583367,-1.2981774,0.7352784
alexnet_w1_mlp_simclrhn_probe0,1,585,NaN,bottle,bottle,c10,0585_cop_dnn_c10_bottle_10_n03983396_4227.png,n03983396_4227.png,1.0,-0.37510368,-0.91980225,0.3851601
alexnet_w1_mlp_simclrhn_probe0,1,586,NaN,bottle,bottle,c30,0586_cop_dnn_c30_bottle_10_n03983396_9090.png,n03983396_9090.png,1.0,-1.1791342,-1.5421139,0.25666538
alexnet_w1_mlp_simclrhn_probe0,1,587,NaN,bear,bear,c100,0587_cop_dnn_c100_bear_10_n02133161_223.png,n02133161_223.png,1.0,-1.9636217,-3.4459364,1.0481548
alexnet_w1_mlp_simclrhn_probe0,1,588,NaN,keyboard,keyboard,c50,0588_cop_dnn_c50_keyboard_10_n04505470_1047.png,n04505470_1047.png,1.0,0.79436773,-1.6319523,1.7156674
alexnet_w1_mlp_simclrhn_probe0,1,589,NaN,elephant,elephant,c03,0589_cop_dnn_c03_elephant_10_n02504013_7467.png,n02504013_7467.png,1.0,-0.35856336,-0.5688386,0.14868705
alexnet_w1_mlp_simclrhn_probe0,1,590,NaN,elephant,elephant,c30,0590_cop_dnn_c30_elephant_10_n02504013_476.png,n02504013_476.png,1.0,-0.101512834,-1.3532059,0.8850807
alexnet_w1_mlp_simclrhn_probe0,1,591,NaN,oven,chair,c100,0591_cop_dnn_c100_chair_10_n02791124_12707.png,n02791124_12707.png,0.0,-2.0404549,-1.7793188,-0.18465108
alexnet_w1_mlp_simclrhn_probe0,1,592,NaN,airplane,bird,c01,0592_cop_dnn_c01_bird_10_n01537544_22049.png,n01537544_22049.png,0.0,-0.25239936,-0.17254665,-0.056464385
alexnet_w1_mlp_simclrhn_probe0,1,593,NaN,bottle,bicycle,c05,0593_cop_dnn_c05_bicycle_10_n02835271_4220.png,n02835271_4220.png,0.0,-0.9674022,-0.68133897,-0.20227727
alexnet_w1_mlp_simclrhn_probe0,1,594,NaN,truck,truck,c10,0594_cop_dnn_c10_truck_10_n03417042_7530.png,n03417042_7530.png,1.0,-0.6410959,-0.7197853,0.055641808
alexnet_w1_mlp_simclrhn_probe0,1,595,NaN,bear,bear,c03,0595_cop_dnn_c03_bear_10_n02134418_12457.png,n02134418_12457.png,1.0,-0.5143032,-0.61248446,0.06942463
alexnet_w1_mlp_simclrhn_probe0,1,596,NaN,bottle,bottle,c50,0596_cop_dnn_c50_bottle_10_n04557648_10265.png,n04557648_10265.png,1.0,-0.104498304,-1.718805,1.1414872
alexnet_w1_mlp_simclrhn_probe0,1,597,NaN,clock,clock,c15,0597_cop_dnn_c15_clock_10_n02708093_2025.png,n02708093_2025.png,1.0,0.15563698,-0.28995484,0.315081
alexnet_w1_mlp_simclrhn_probe0,1,598,NaN,bicycle,chair,c15,0598_cop_dnn_c15_chair_10_n03376595_1961.png,n03376595_1961.png,0.0,-1.0576925,-0.4094062,-0.45840767
alexnet_w1_mlp_simclrhn_probe0,1,599,NaN,bear,bear,c05,0599_cop_dnn_c05_bear_10_n02134084_67.png,n02134084_67.png,1.0,-0.003600955,-0.20643596,0.14342602
alexnet_w1_mlp_simclrhn_probe0,1,600,NaN,cat,cat,c50,0600_cop_dnn_c50_cat_10_n02123045_455.png,n02123045_455.png,1.0,-1.1905293,-5.256535,2.8751004
alexnet_w1_mlp_simclrhn_probe0,1,601,NaN,car,car,c10,0601_cop_dnn_c10_car_10_n03100240_13929.png,n03100240_13929.png,1.0,-0.29113796,-0.51071703,0.15526585
alexnet_w1_mlp_simclrhn_probe0,1,602,NaN,elephant,elephant,c10,0602_cop_dnn_c10_elephant_10_n02504458_4997.png,n02504458_4997.png,1.0,-0.07258809,-0.79500103,0.5108231
alexnet_w1_mlp_simclrhn_probe0,1,603,NaN,airplane,airplane,c10,0603_cop_dnn_c10_airplane_10_n02690373_5344.png,n02690373_5344.png,1.0,0.29855812,-0.11619736,0.2932764
alexnet_w1_mlp_simclrhn_probe0,1,604,NaN,airplane,oven,c01,0604_cop_dnn_c01_oven_10_n04111531_797.png,n04111531_797.png,0.0,-0.7875598,0.06772604,-0.6047784
alexnet_w1_mlp_simclrhn_probe0,1,605,NaN,boat,boat,c30,0605_cop_dnn_c30_boat_10_n04273569_3085.png,n04273569_3085.png,1.0,2.1364677,-0.022016287,1.5262787
alexnet_w1_mlp_simclrhn_probe0,1,606,NaN,oven,oven,c100,0606_cop_dnn_c100_oven_10_n04111531_9113.png,n04111531_9113.png,1.0,2.922851,-4.8994,5.531167
alexnet_w1_mlp_simclrhn_probe0,1,607,NaN,boat,boat,c03,0607_cop_dnn_c03_boat_10_n03662601_18803.png,n03662601_18803.png,1.0,0.14728174,-0.27322346,0.2973421
alexnet_w1_mlp_simclrhn_probe0,1,608,NaN,airplane,truck,c03,0608_cop_dnn_c03_truck_10_n04467665_30581.png,n04467665_30581.png,0.0,-0.86983967,-0.27724755,-0.41902593
alexnet_w1_mlp_simclrhn_probe0,1,609,NaN,elephant,elephant,c30,0609_cop_dnn_c30_elephant_10_n02504013_5237.png,n02504013_5237.png,1.0,0.65485024,-1.3047066,1.385616
alexnet_w1_mlp_simclrhn_probe0,1,610,NaN,keyboard,keyboard,c100,0610_cop_dnn_c100_keyboard_10_n03085013_12175.png,n03085013_12175.png,1.0,5.487952,-0.64942425,4.3397803
alexnet_w1_mlp_simclrhn_probe0,1,611,NaN,chair,chair,c30,0611_cop_dnn_c30_chair_10_n02791124_5401.png,n02791124_5401.png,1.0,0.18763037,-1.7839966,1.3941509
alexnet_w1_mlp_simclrhn_probe0,1,612,NaN,boat,boat,c50,0612_cop_dnn_c50_boat_10_n02951358_22332.png,n02951358_22332.png,1.0,0.5612422,-0.9441454,1.0644698
alexnet_w1_mlp_simclrhn_probe0,1,613,NaN,airplane,knife,c03,0613_cop_dnn_c03_knife_10_n03041632_11932.png,n03041632_11932.png,0.0,-0.10961113,-0.024873197,-0.05991877
alexnet_w1_mlp_simclrhn_probe0,1,614,NaN,cat,cat,c30,0614_cop_dnn_c30_cat_10_n02123159_5257.png,n02123159_5257.png,1.0,-0.8432887,-1.5427916,0.49462324
alexnet_w1_mlp_simclrhn_probe0,1,615,NaN,bottle,bottle,c50,0615_cop_dnn_c50_bottle_10_n03983396_105.png,n03983396_105.png,1.0,-0.5231525,-2.5179768,1.4105538
alexnet_w1_mlp_simclrhn_probe0,1,616,NaN,boat,boat,c50,0616_cop_dnn_c50_boat_10_n04612504_11939.png,n04612504_11939.png,1.0,-0.26606768,-2.0725827,1.2773991
alexnet_w1_mlp_simclrhn_probe0,1,617,NaN,boat,boat,c30,0617_cop_dnn_c30_boat_10_n03662601_5575.png,n03662601_5575.png,1.0,0.23432949,-0.6749234,0.6429389
alexnet_w1_mlp_simclrhn_probe0,1,618,NaN,bear,cat,c05,0618_cop_dnn_c05_cat_10_n02123159_6590.png,n02123159_6590.png,0.0,-0.40213346,-0.15638141,-0.17377295
alexnet_w1_mlp_simclrhn_probe0,1,619,NaN,bear,bear,c50,0619_cop_dnn_c50_bear_10_n02134084_21462.png,n02134084_21462.png,1.0,-1.6805196,-2.4826472,0.5671899
alexnet_w1_mlp_simclrhn_probe0,1,620,NaN,bear,cat,c05,0620_cop_dnn_c05_cat_10_n02125311_46330.png,n02125311_46330.png,0.0,-0.611368,-0.41940746,-0.1357366
