subj,session,trial,rt,object_response,category,condition,imagename,filename,is_correct,targ_act,max_nontarg_act,decision_margin
alexnet_w1_mlp_simclrhn_probe1,1,1,NaN,clock,knife,c30,0001_cop_dnn_c30_knife_10_n03041632_7380.png,n03041632_7380.png,0.0,-0.38979918,0.5013133,-0.6301117
alexnet_w1_mlp_simclrhn_probe1,1,2,NaN,bicycle,bicycle,c100,0002_cop_dnn_c100_bicycle_10_n03792782_5966.png,n03792782_5966.png,1.0,4.2977943,-0.47419533,3.3743064
alexnet_w1_mlp_simclrhn_probe1,1,3,NaN,airplane,bird,c01,0003_cop_dnn_c01_bird_10_n01601694_10802.png,n01601694_10802.png,0.0,-0.62730324,-0.5318431,-0.067500494
alexnet_w1_mlp_simclrhn_probe1,1,4,NaN,airplane,airplane,c05,0004_cop_dnn_c05_airplane_10_n02690373_9759.png,n02690373_9759.png,1.0,1.3948414,-0.017687166,0.9988086
alexnet_w1_mlp_simclrhn_probe1,1,5,NaN,clock,car,c03,0005_cop_dnn_c03_car_10_n02814533_2236.png,n02814533_2236.png,0.0,-1.0475587,-0.1195024,-0.65623486
alexnet_w1_mlp_simclrhn_probe1,1,6,NaN,chair,chair,c30,0006_cop_dnn_c30_chair_10_n02791124_7207.png,n02791124_7207.png,1.0,0.15663283,-0.66044134,0.5777587
alexnet_w1_mlp_simclrhn_probe1,1,7,NaN,knife,oven,c50,0007_cop_dnn_c50_oven_10_n04111531_7064.png,n04111531_7064.png,0.0,-1.9287157,-0.9717169,-0.67670035
alexnet_w1_mlp_simclrhn_probe1,1,8,NaN,bird,bird,c15,0008_cop_dnn_c15_bird_10_n01532829_2263.png,n01532829_2263.png,1.0,-0.8664854,-0.9561963,0.06343518
alexnet_w1_mlp_simclrhn_probe1,1,9,NaN,bicycle,bicycle,c50,0009_cop_dnn_c50_bicycle_10_n02835271_3383.png,n02835271_3383.png,1.0,5.907452,-1.1105986,4.9625115
alexnet_w1_mlp_simclrhn_probe1,1,10,NaN,airplane,bicycle,c03,0010_cop_dnn_c03_bicycle_10_n03792782_27510.png,n03792782_27510.png,0.0,-0.7745987,-0.5644024,-0.14863124
alexnet_w1_mlp_simclrhn_probe1,1,11,NaN,knife,bottle,c03,0011_cop_dnn_c03_bottle_10_n04557648_10944.png,n04557648_10944.png,0.0,-0.749677,-0.34912035,-0.28323632
alexnet_w1_mlp_simclrhn_probe1,1,12,NaN,keyboard,keyboard,c15,0012_cop_dnn_c15_keyboard_10_n03085013_20891.png,n03085013_20891.png,1.0,0.0611434,-0.4344483,0.35043627
alexnet_w1_mlp_simclrhn_probe1,1,13,NaN,elephant,elephant,c30,0013_cop_dnn_c30_elephant_10_n02504458_3225.png,n02504458_3225.png,1.0,3.165491,0.22788727,2.0771997
alexnet_w1_mlp_simclrhn_probe1,1,14,NaN,keyboard,keyboard,c10,0014_cop_dnn_c10_keyboard_10_n04505470_6638.png,n04505470_6638.png,1.0,1.2057335,-0.4297638,1.1564713
alexnet_w1_mlp_simclrhn_probe1,1,15,NaN,airplane,bird,c01,0015_cop_dnn_c01_bird_10_n01601694_11888.png,n01601694_11888.png,0.0,-0.7883341,-0.4600287,-0.23214695
alexnet_w1_mlp_simclrhn_probe1,1,16,NaN,airplane,airplane,c03,0016_cop_dnn_c03_airplane_10_n02690373_8743.png,n02690373_8743.png,1.0,0.9852398,-0.59746486,1.1191412
alexnet_w1_mlp_simclrhn_probe1,1,17,NaN,airplane,boat,c10,0017_cop_dnn_c10_boat_10_n03344393_8869.png,n03344393_8869.png,0.0,0.206929,0.4538762,-0.17461804
alexnet_w1_mlp_simclrhn_probe1,1,18,NaN,bear,bear,c01,0018_cop_dnn_c01_bear_10_n02132136_27682.png,n02132136_27682.png,1.0,-0.4109639,-0.5262636,0.0815292
alexnet_w1_mlp_simclrhn_probe1,1,19,NaN,bicycle,clock,c50,0019_cop_dnn_c50_clock_10_n02708093_7081.png,n02708093_7081.png,0.0,-4.1458483,-1.4153675,-1.9307414
alexnet_w1_mlp_simclrhn_probe1,1,20,NaN,car,car,c10,0020_cop_dnn_c10_car_10_n03100240_12141.png,n03100240_12141.png,1.0,0.8200741,-0.050890267,0.6158648
alexnet_w1_mlp_simclrhn_probe1,1,21,NaN,airplane,car,c15,0021_cop_dnn_c15_car_10_n02814533_19287.png,n02814533_19287.png,0.0,-0.39579427,0.52782184,-0.65309525
alexnet_w1_mlp_simclrhn_probe1,1,22,NaN,bicycle,bicycle,c03,0022_cop_dnn_c03_bicycle_10_n02835271_3841.png,n02835271_3841.png,1.0,0.39165217,-0.40840033,0.5657226
alexnet_w1_mlp_simclrhn_probe1,1,23,NaN,clock,clock,c15,0023_cop_dnn_c15_clock_10_n02708093_6696.png,n02708093_6696.png,1.0,1.6957263,-1.2042657,2.050604
alexnet_w1_mlp_simclrhn_probe1,1,24,NaN,knife,bird,c01,0024_cop_dnn_c01_bird_10_n01829413_6393.png,n01829413_6393.png,0.0,-0.8813182,-0.7151211,-0.11751911
alexnet_w1_mlp_simclrhn_probe1,1,25,NaN,clock,clock,c01,0025_cop_dnn_c01_clock_10_n02708093_3484.png,n02708093_3484.png,1.0,-0.15038641,-0.6381223,0.3448814
alexnet_w1_mlp_simclrhn_probe1,1,26,NaN,chair,chair,c05,0026_cop_dnn_c05_chair_10_n04429376_55163.png,n04429376_55163.png,1.0,0.01813816,-0.44709164,0.32896715
alexnet_w1_mlp_simclrhn_probe1,1,27,NaN,boat,boat,c100,0027_cop_dnn_c100_boat_10_n02951358_14528.png,n02951358_14528.png,1.0,-1.2398573,-2.5667899,0.938283
alexnet_w1_mlp_simclrhn_probe1,1,28,NaN,airplane,chair,c01,0028_cop_dnn_c01_chair_10_n03376595_9603.png,n03376595_9603.png,0.0,-0.9636181,-0.31572083,-0.45813254
alexnet_w1_mlp_simclrhn_probe1,1,29,NaN,knife,bottle,c03,0029_cop_dnn_c03_bottle_10_n03937543_1840.png,n03937543_1840.png,0.0,-0.9925322,-0.50558794,-0.34432158
alexnet_w1_mlp_simclrhn_probe1,1,30,NaN,airplane,car,c01,0030_cop_dnn_c01_car_10_n02814533_32835.png,n02814533_32835.png,0.0,-1.1049422,-0.27768758,-0.58495736
alexnet_w1_mlp_simclrhn_probe1,1,31,NaN,elephant,bird,c15,0031_cop_dnn_c15_bird_10_n01860187_38598.png,n01860187_38598.png,0.0,-0.7136749,-0.3721072,-0.24152483
alexnet_w1_mlp_simclrhn_probe1,1,32,NaN,airplane,airplane,c100,0032_cop_dnn_c100_airplane_10_n02690373_9322.png,n02690373_9322.png,1.0,10.402295,2.6536953,5.479088
alexnet_w1_mlp_simclrhn_probe1,1,33,NaN,clock,bicycle,c01,0033_cop_dnn_c01_bicycle_10_n02835271_1505.png,n02835271_1505.png,0.0,-0.92570513,-0.37985158,-0.38597676
alexnet_w1_mlp_simclrhn_probe1,1,34,NaN,bicycle,bicycle,c50,0034_cop_dnn_c50_bicycle_10_n03792782_11023.png,n03792782_11023.png,1.0,0.13418967,-0.7838929,0.64918244
alexnet_w1_mlp_simclrhn_probe1,1,35,NaN,elephant,elephant,c50,0035_cop_dnn_c50_elephant_10_n02504458_4909.png,n02504458_4909.png,1.0,6.1277804,-0.09742457,4.4018846
alexnet_w1_mlp_simclrhn_probe1,1,36,NaN,boat,boat,c100,0036_cop_dnn_c100_boat_10_n03344393_646.png,n03344393_646.png,1.0,7.9726167,0.19812614,5.497395
alexnet_w1_mlp_simclrhn_probe1,1,37,NaN,boat,boat,c10,0037_cop_dnn_c10_boat_10_n04612504_2472.png,n04612504_2472.png,1.0,0.7757064,-0.5946032,0.9689552
alexnet_w1_mlp_simclrhn_probe1,1,38,NaN,keyboard,keyboard,c03,0038_cop_dnn_c03_keyboard_10_n03085013_4673.png,n03085013_4673.png,1.0,-0.2900743,-0.51886964,0.16178274
alexnet_w1_mlp_simclrhn_probe1,1,39,NaN,elephant,elephant,c100,0039_cop_dnn_c100_elephant_10_n02504458_1138.png,n02504458_1138.png,1.0,6.7065687,-2.634256,6.60496
alexnet_w1_mlp_simclrhn_probe1,1,40,NaN,car,car,c100,0040_cop_dnn_c100_car_10_n03100240_5569.png,n03100240_5569.png,1.0,3.4293115,1.1944466,1.5802882
alexnet_w1_mlp_simclrhn_probe1,1,41,NaN,elephant,dog,c100,0041_cop_dnn_c100_dog_10_n02107312_7422.png,n02107312_7422.png,0.0,-1.95181,-0.7372148,-0.8588485
alexnet_w1_mlp_simclrhn_probe1,1,42,NaN,bear,bear,c15,0042_cop_dnn_c15_bear_10_n02134084_24140.png,n02134084_24140.png,1.0,-0.36779922,-0.5355742,0.11863483
alexnet_w1_mlp_simclrhn_probe1,1,43,NaN,bottle,bottle,c100,0043_cop_dnn_c100_bottle_10_n04560804_14130.png,n04560804_14130.png,1.0,2.1914763,0.30781102,1.3319526
alexnet_w1_mlp_simclrhn_probe1,1,44,NaN,cat,cat,c30,0044_cop_dnn_c30_cat_10_n02124075_11970.png,n02124075_11970.png,1.0,1.9789757,-1.7898394,2.6649547
alexnet_w1_mlp_simclrhn_probe1,1,45,NaN,cat,dog,c03,0045_cop_dnn_c03_dog_10_n02093991_247.png,n02093991_247.png,0.0,-1.0046847,-0.47403443,-0.3752264
alexnet_w1_mlp_simclrhn_probe1,1,46,NaN,keyboard,keyboard,c100,0046_cop_dnn_c100_keyboard_10_n04505470_375.png,n04505470_375.png,1.0,10.906466,-0.5988986,8.135521
alexnet_w1_mlp_simclrhn_probe1,1,47,NaN,bear,bear,c100,0047_cop_dnn_c100_bear_10_n02134418_4372.png,n02134418_4372.png,1.0,4.714267,0.01938204,3.3197849
alexnet_w1_mlp_simclrhn_probe1,1,48,NaN,knife,boat,c01,0048_cop_dnn_c01_boat_10_n03344393_2838.png,n03344393_2838.png,0.0,-0.6586101,-0.34189433,-0.22395188
alexnet_w1_mlp_simclrhn_probe1,1,49,NaN,bicycle,bicycle,c05,0049_cop_dnn_c05_bicycle_10_n02835271_4935.png,n02835271_4935.png,1.0,-0.5568916,-0.8085014,0.177915
alexnet_w1_mlp_simclrhn_probe1,1,50,NaN,airplane,airplane,c50,0050_cop_dnn_c50_airplane_10_n02690373_5382.png,n02690373_5382.png,1.0,4.1500177,0.63873357,2.482853
alexnet_w1_mlp_simclrhn_probe1,1,51,NaN,bottle,bottle,c100,0051_cop_dnn_c100_bottle_10_n03937543_2123.png,n03937543_2123.png,1.0,-2.0579584,-2.1659298,0.07634733
alexnet_w1_mlp_simclrhn_probe1,1,52,NaN,dog,dog,c30,0052_cop_dnn_c30_dog_10_n02097474_5234.png,n02097474_5234.png,1.0,0.48580223,-0.33564976,0.5808543
alexnet_w1_mlp_simclrhn_probe1,1,53,NaN,keyboard,bottle,c100,0053_cop_dnn_c100_bottle_10_n02823428_6050.png,n02823428_6050.png,0.0,-0.58158857,2.2392368,-1.9946247
alexnet_w1_mlp_simclrhn_probe1,1,54,NaN,clock,clock,c15,0054_cop_dnn_c15_clock_10_n02708093_3743.png,n02708093_3743.png,1.0,0.10654157,0.07064662,0.02538156
alexnet_w1_mlp_simclrhn_probe1,1,55,NaN,knife,knife,c03,0055_cop_dnn_c03_knife_10_n03041632_55083.png,n03041632_55083.png,1.0,-0.28888845,-0.40587068,0.08271892
alexnet_w1_mlp_simclrhn_probe1,1,56,NaN,knife,knife,c50,0056_cop_dnn_c50_knife_10_n03041632_41310.png,n03041632_41310.png,1.0,2.5334241,-1.5826904,2.9105327
alexnet_w1_mlp_simclrhn_probe1,1,57,NaN,knife,knife,c03,0057_cop_dnn_c03_knife_10_n03041632_99799.png,n03041632_99799.png,1.0,-0.4899102,-0.97558707,0.34342542
alexnet_w1_mlp_simclrhn_probe1,1,58,NaN,dog,dog,c15,0058_cop_dnn_c15_dog_10_n02094114_8231.png,n02094114_8231.png,1.0,-0.5786373,-1.0291988,0.31859508
alexnet_w1_mlp_simclrhn_probe1,1,59,NaN,airplane,chair,c01,0059_cop_dnn_c01_chair_10_n03376595_6173.png,n03376595_6173.png,0.0,-0.830165,-0.44226968,-0.27428344
alexnet_w1_mlp_simclrhn_probe1,1,60,NaN,airplane,oven,c05,0060_cop_dnn_c05_oven_10_n04111531_9297.png,n04111531_9297.png,0.0,-1.2276566,-0.25472102,-0.6879693
alexnet_w1_mlp_simclrhn_probe1,1,61,NaN,car,car,c10,0061_cop_dnn_c10_car_10_n03100240_24420.png,n03100240_24420.png,1.0,-0.24972641,-0.36165822,0.079147734
alexnet_w1_mlp_simclrhn_probe1,1,62,NaN,elephant,elephant,c100,0062_cop_dnn_c100_elephant_10_n02504013_2340.png,n02504013_2340.png,1.0,18.213165,2.7535357,10.931609
alexnet_w1_mlp_simclrhn_probe1,1,63,NaN,bicycle,bicycle,c05,0063_cop_dnn_c05_bicycle_10_n02835271_10104.png,n02835271_10104.png,1.0,-0.23602283,-0.4954953,0.18347473
alexnet_w1_mlp_simclrhn_probe1,1,64,NaN,bicycle,bicycle,c15,0064_cop_dnn_c15_bicycle_10_n03792782_7165.png,n03792782_7165.png,1.0,-0.5819547,-0.84267646,0.18435812
alexnet_w1_mlp_simclrhn_probe1,1,65,NaN,chair,knife,c10,0065_cop_dnn_c10_knife_10_n03041632_14817.png,n03041632_14817.png,0.0,-0.23772678,-0.21462837,-0.016333042
alexnet_w1_mlp_simclrhn_probe1,1,66,NaN,clock,clock,c15,0066_cop_dnn_c15_clock_10_n02708093_118.png,n02708093_118.png,1.0,1.1337188,-1.2559619,1.6897596
alexnet_w1_mlp_simclrhn_probe1,1,67,NaN,airplane,airplane,c10,0067_cop_dnn_c10_airplane_10_n02690373_4298.png,n02690373_4298.png,1.0,2.4737449,-0.16926675,1.8688915
alexnet_w1_mlp_simclrhn_probe1,1,68,NaN,knife,knife,c100,0068_cop_dnn_c100_knife_10_n03041632_50034.png,n03041632_50034.png,1.0,2.729432,-0.88243234,2.553974
alexnet_w1_mlp_simclrhn_probe1,1,69,NaN,bottle,chair,c03,0069_cop_dnn_c03_chair_10_n02791124_1333.png,n02791124_1333.png,0.0,-1.2941666,-0.5170519,-0.5495031
alexnet_w1_mlp_simclrhn_probe1,1,70,NaN,clock,clock,c01,0070_cop_dnn_c01_clock_10_n02708093_2318.png,n02708093_2318.png,1.0,0.25799912,-0.7852629,0.73769766
alexnet_w1_mlp_simclrhn_probe1,1,71,NaN,airplane,elephant,c01,0071_cop_dnn_c01_elephant_10_n02504013_3864.png,n02504013_3864.png,0.0,-0.81938946,-0.47977024,-0.24014705
alexnet_w1_mlp_simclrhn_probe1,1,72,NaN,chair,chair,c10,0072_cop_dnn_c10_chair_10_n04429376_56624.png,n04429376_56624.png,1.0,-0.4271593,-0.45793003,0.021758184
alexnet_w1_mlp_simclrhn_probe1,1,73,NaN,airplane,airplane,c30,0073_cop_dnn_c30_airplane_10_n02690373_7004.png,n02690373_7004.png,1.0,2.3815198,-0.830431,2.2711923
alexnet_w1_mlp_simclrhn_probe1,1,74,NaN,oven,oven,c30,0074_cop_dnn_c30_oven_10_n04111531_9692.png,n04111531_9692.png,1.0,0.96248853,-1.4993947,1.7408142
alexnet_w1_mlp_simclrhn_probe1,1,75,NaN,car,truck,c50,0075_cop_dnn_c50_truck_10_n03796401_296.png,n03796401_296.png,0.0,0.82840335,1.8445452,-0.7185208
alexnet_w1_mlp_simclrhn_probe1,1,76,NaN,airplane,airplane,c15,0076_cop_dnn_c15_airplane_10_n02690373_1837.png,n02690373_1837.png,1.0,0.61943465,-0.5458068,0.8239502
alexnet_w1_mlp_simclrhn_probe1,1,77,NaN,airplane,airplane,c03,0077_cop_dnn_c03_airplane_10_n02690373_10203.png,n02690373_10203.png,1.0,0.031329215,-0.40526754,0.30872053
alexnet_w1_mlp_simclrhn_probe1,1,78,NaN,airplane,boat,c03,0078_cop_dnn_c03_boat_10_n02951358_34234.png,n02951358_34234.png,0.0,-0.4073534,-0.25006974,-0.111216344
alexnet_w1_mlp_simclrhn_probe1,1,79,NaN,bicycle,bicycle,c100,0079_cop_dnn_c100_bicycle_10_n02835271_2885.png,n02835271_2885.png,1.0,2.777867,0.19909084,1.8234702
alexnet_w1_mlp_simclrhn_probe1,1,80,NaN,airplane,airplane,c30,0080_cop_dnn_c30_airplane_10_n02690373_5247.png,n02690373_5247.png,1.0,2.9362333,-0.24409845,2.2488341
alexnet_w1_mlp_simclrhn_probe1,1,81,NaN,clock,clock,c50,0081_cop_dnn_c50_clock_10_n02708093_596.png,n02708093_596.png,1.0,4.1495204,-1.4147873,3.9345598
alexnet_w1_mlp_simclrhn_probe1,1,82,NaN,clock,chair,c01,0082_cop_dnn_c01_chair_10_n03376595_1364.png,n03376595_1364.png,0.0,-0.857749,-0.49607635,-0.25574118
alexnet_w1_mlp_simclrhn_probe1,1,83,NaN,clock,cat,c03,0083_cop_dnn_c03_cat_10_n02124075_12430.png,n02124075_12430.png,0.0,-0.64884996,-0.5240167,-0.08827046
alexnet_w1_mlp_simclrhn_probe1,1,84,NaN,cat,cat,c05,0084_cop_dnn_c05_cat_10_n02123159_5487.png,n02123159_5487.png,1.0,-0.54962784,-0.89017314,0.24080189
alexnet_w1_mlp_simclrhn_probe1,1,85,NaN,bicycle,bicycle,c50,0085_cop_dnn_c50_bicycle_10_n03792782_17571.png,n03792782_17571.png,1.0,2.1027098,-1.358448,2.4474082
alexnet_w1_mlp_simclrhn_probe1,1,86,NaN,cat,cat,c50,0086_cop_dnn_c50_cat_10_n02123159_6132.png,n02123159_6132.png,1.0,3.3515587,-3.5030184,4.846918
alexnet_w1_mlp_simclrhn_probe1,1,87,NaN,clock,bottle,c05,0087_cop_dnn_c05_bottle_10_n03937543_2873.png,n03937543_2873.png,0.0,-0.80479467,-0.76815194,-0.025910323
alexnet_w1_mlp_simclrhn_probe1,1,88,NaN,bottle,keyboard,c15,0088_cop_dnn_c15_keyboard_10_n04505470_1236.png,n04505470_1236.png,0.0,-0.5722335,-0.054501135,-0.3660921
alexnet_w1_mlp_simclrhn_probe1,1,89,NaN,airplane,airplane,c01,0089_cop_dnn_c01_airplane_10_n02690373_4243.png,n02690373_4243.png,1.0,0.21200213,-0.33977523,0.3901655
alexnet_w1_mlp_simclrhn_probe1,1,90,NaN,oven,oven,c30,0090_cop_dnn_c30_oven_10_n04111531_467.png,n04111531_467.png,1.0,-0.38656515,-1.2827636,0.633708
alexnet_w1_mlp_simclrhn_probe1,1,91,NaN,cat,cat,c03,0091_cop_dnn_c03_cat_10_n02123394_2632.png,n02123394_2632.png,1.0,-0.46138868,-0.54930055,0.062163085
alexnet_w1_mlp_simclrhn_probe1,1,92,NaN,chair,chair,c15,0092_cop_dnn_c15_chair_10_n02791124_5268.png,n02791124_5268.png,1.0,-0.21883053,-0.5851232,0.25900802
alexnet_w1_mlp_simclrhn_probe1,1,93,NaN,bottle,knife,c100,0093_cop_dnn_c100_knife_10_n03041632_1143.png,n03041632_1143.png,0.0,-2.0425422,-1.40466,-0.45105085
alexnet_w1_mlp_simclrhn_probe1,1,94,NaN,chair,chair,c10,0094_cop_dnn_c10_chair_10_n02791124_1018.png,n02791124_1018.png,1.0,-0.5264458,-0.6070467,0.056993455
alexnet_w1_mlp_simclrhn_probe1,1,95,NaN,clock,bicycle,c05,0095_cop_dnn_c05_bicycle_10_n03792782_8057.png,n03792782_8057.png,0.0,-1.2043109,-0.96724254,-0.16763264
alexnet_w1_mlp_simclrhn_probe1,1,96,NaN,bear,bear,c30,0096_cop_dnn_c30_bear_10_n02132136_1338.png,n02132136_1338.png,1.0,2.4039109,0.15283553,1.5917506
alexnet_w1_mlp_simclrhn_probe1,1,97,NaN,clock,clock,c05,0097_cop_dnn_c05_clock_10_n02708093_4798.png,n02708093_4798.png,1.0,1.774848,-0.79778206,1.8191241
alexnet_w1_mlp_simclrhn_probe1,1,98,NaN,knife,truck,c01,0098_cop_dnn_c01_truck_10_n03796401_15046.png,n03796401_15046.png,0.0,-1.3662713,-0.32044238,-0.7395127
alexnet_w1_mlp_simclrhn_probe1,1,99,NaN,knife,knife,c50,0099_cop_dnn_c50_knife_10_n03041632_13612.png,n03041632_13612.png,1.0,-0.5261738,-2.1199033,1.1269369
alexnet_w1_mlp_simclrhn_probe1,1,100,NaN,oven,oven,c10,0100_cop_dnn_c10_oven_10_n04111531_1898.png,n04111531_1898.png,1.0,0.57725006,-0.07587942,0.46183228
alexnet_w1_mlp_simclrhn_probe1,1,101,NaN,airplane,truck,c03,0101_cop_dnn_c03_truck_10_n04467665_28988.png,n04467665_28988.png,0.0,-0.49577153,-0.29019463,-0.14536482
alexnet_w1_mlp_simclrhn_probe1,1,102,NaN,airplane,airplane,c100,0102_cop_dnn_c100_airplane_10_n02690373_736.png,n02690373_736.png,1.0,13.895148,1.5777355,8.709726
alexnet_w1_mlp_simclrhn_probe1,1,103,NaN,dog,dog,c50,0103_cop_dnn_c50_dog_10_n02111500_5154.png,n02111500_5154.png,1.0,1.0934236,-1.0074947,1.4855736
alexnet_w1_mlp_simclrhn_probe1,1,104,NaN,bicycle,bear,c50,0104_cop_dnn_c50_bear_10_n02133161_13461.png,n02133161_13461.png,0.0,-2.3873062,-1.4294724,-0.67729074
alexnet_w1_mlp_simclrhn_probe1,1,105,NaN,bear,dog,c15,0105_cop_dnn_c15_dog_10_n02102318_11746.png,n02102318_11746.png,0.0,-0.5705847,-0.02944912,-0.38264066
alexnet_w1_mlp_simclrhn_probe1,1,106,NaN,boat,boat,c50,0106_cop_dnn_c50_boat_10_n03662601_12226.png,n03662601_12226.png,1.0,2.814138,-0.14467266,2.092195
alexnet_w1_mlp_simclrhn_probe1,1,107,NaN,keyboard,keyboard,c05,0107_cop_dnn_c05_keyboard_10_n04505470_3207.png,n04505470_3207.png,1.0,-0.17871636,-0.79465985,0.43553782
alexnet_w1_mlp_simclrhn_probe1,1,108,NaN,bicycle,bicycle,c30,0108_cop_dnn_c30_bicycle_10_n03792782_2628.png,n03792782_2628.png,1.0,3.6537948,-1.3759845,3.5565913
alexnet_w1_mlp_simclrhn_probe1,1,109,NaN,knife,chair,c01,0109_cop_dnn_c01_chair_10_n02791124_3204.png,n02791124_3204.png,0.0,-0.76441425,-0.40140447,-0.2566867
alexnet_w1_mlp_simclrhn_probe1,1,110,NaN,bottle,bottle,c03,0110_cop_dnn_c03_bottle_10_n04560804_722.png,n04560804_722.png,1.0,-0.385953,-0.64040154,0.17992228
alexnet_w1_mlp_simclrhn_probe1,1,111,NaN,bicycle,bicycle,c30,0111_cop_dnn_c30_bicycle_10_n03792782_8847.png,n03792782_8847.png,1.0,1.1362746,-1.0992197,1.5807331
alexnet_w1_mlp_simclrhn_probe1,1,112,NaN,bear,bear,c50,0112_cop_dnn_c50_bear_10_n02132136_1132.png,n02132136_1132.png,1.0,0.6305783,-0.8274013,1.0309472
alexnet_w1_mlp_simclrhn_probe1,1,113,NaN,knife,knife,c50,0113_cop_dnn_c50_knife_10_n03041632_6557.png,n03041632_6557.png,1.0,-1.1810154,-1.8353386,0.4626764
alexnet_w1_mlp_simclrhn_probe1,1,114,NaN,oven,knife,c100,0114_cop_dnn_c100_knife_10_n03041632_35116.png,n03041632_35116.png,0.0,0.31894064,0.43111348,-0.07931818
alexnet_w1_mlp_simclrhn_probe1,1,115,NaN,car,car,c15,0115_cop_dnn_c15_car_10_n02814533_3117.png,n02814533_3117.png,1.0,0.98505086,0.3210513,0.4695186
alexnet_w1_mlp_simclrhn_probe1,1,116,NaN,bird,bird,c15,0116_cop_dnn_c15_bird_10_n02009229_4224.png,n02009229_4224.png,1.0,-1.1726632,-1.3429859,0.12043631
alexnet_w1_mlp_simclrhn_probe1,1,117,NaN,bicycle,chair,c50,0117_cop_dnn_c50_chair_10_n03376595_9247.png,n03376595_9247.png,0.0,-1.071223,-0.21390265,-0.606217
alexnet_w1_mlp_simclrhn_probe1,1,118,NaN,airplane,boat,c01,0118_cop_dnn_c01_boat_10_n03662601_5639.png,n03662601_5639.png,0.0,-0.5748426,-0.20332754,-0.2627008
alexnet_w1_mlp_simclrhn_probe1,1,119,NaN,airplane,bicycle,c10,0119_cop_dnn_c10_bicycle_10_n02835271_13437.png,n02835271_13437.png,0.0,-0.18437326,-0.16970822,-0.010369748
alexnet_w1_mlp_simclrhn_probe1,1,120,NaN,bicycle,bicycle,c05,0120_cop_dnn_c05_bicycle_10_n03792782_18294.png,n03792782_18294.png,1.0,-0.17395708,-0.7138061,0.3817309
alexnet_w1_mlp_simclrhn_probe1,1,121,NaN,airplane,boat,c03,0121_cop_dnn_c03_boat_10_n02951358_10488.png,n02951358_10488.png,0.0,-0.29327708,-0.2501965,-0.030462584
alexnet_w1_mlp_simclrhn_probe1,1,122,NaN,bird,bird,c50,0122_cop_dnn_c50_bird_10_n01829413_14594.png,n01829413_14594.png,1.0,-0.019272529,-0.43968284,0.29727498
alexnet_w1_mlp_simclrhn_probe1,1,123,NaN,clock,clock,c100,0123_cop_dnn_c100_clock_10_n03196217_9197.png,n03196217_9197.png,1.0,-0.4109573,-0.9945161,0.4126384
alexnet_w1_mlp_simclrhn_probe1,1,124,NaN,boat,boat,c15,0124_cop_dnn_c15_boat_10_n03662601_1667.png,n03662601_1667.png,1.0,-0.27469602,-0.47907823,0.14452004
alexnet_w1_mlp_simclrhn_probe1,1,125,NaN,elephant,dog,c50,0125_cop_dnn_c50_dog_10_n02092339_6946.png,n02092339_6946.png,0.0,-0.4488814,-0.39735734,-0.036433
alexnet_w1_mlp_simclrhn_probe1,1,126,NaN,airplane,airplane,c05,0126_cop_dnn_c05_airplane_10_n02690373_1773.png,n02690373_1773.png,1.0,0.49123293,-0.64162415,0.80105096
alexnet_w1_mlp_simclrhn_probe1,1,127,NaN,bicycle,elephant,c50,0127_cop_dnn_c50_elephant_10_n02504013_4278.png,n02504013_4278.png,0.0,-1.0034299,-0.6780211,-0.23009878
alexnet_w1_mlp_simclrhn_probe1,1,128,NaN,bird,bird,c100,0128_cop_dnn_c100_bird_10_n02025239_10194.png,n02025239_10194.png,1.0,4.648895,-7.737941,8.758815
alexnet_w1_mlp_simclrhn_probe1,1,129,NaN,oven,oven,c15,0129_cop_dnn_c15_oven_10_n04111531_1977.png,n04111531_1977.png,1.0,0.16477016,-0.942577,0.7830127
alexnet_w1_mlp_simclrhn_probe1,1,130,NaN,truck,clock,c50,0130_cop_dnn_c50_clock_10_n02708093_616.png,n02708093_616.png,0.0,0.092892446,0.68782055,-0.4206777
alexnet_w1_mlp_simclrhn_probe1,1,131,NaN,airplane,boat,c10,0131_cop_dnn_c10_boat_10_n04273569_10292.png,n04273569_10292.png,0.0,0.29010653,0.8512189,-0.39676636
alexnet_w1_mlp_simclrhn_probe1,1,132,NaN,cat,cat,c50,0132_cop_dnn_c50_cat_10_n02123394_8592.png,n02123394_8592.png,1.0,1.8121086,-0.53603363,1.6603873
alexnet_w1_mlp_simclrhn_probe1,1,133,NaN,knife,knife,c10,0133_cop_dnn_c10_knife_10_n03041632_16020.png,n03041632_16020.png,1.0,-0.58999026,-0.90498215,0.2227329
alexnet_w1_mlp_simclrhn_probe1,1,134,NaN,cat,cat,c30,0134_cop_dnn_c30_cat_10_n02123394_5466.png,n02123394_5466.png,1.0,0.9978327,-0.50297683,1.0612327
alexnet_w1_mlp_simclrhn_probe1,1,135,NaN,airplane,elephant,c01,0135_cop_dnn_c01_elephant_10_n02504013_7351.png,n02504013_7351.png,0.0,-0.80352795,-0.5122287,-0.20597966
alexnet_w1_mlp_simclrhn_probe1,1,136,NaN,oven,oven,c50,0136_cop_dnn_c50_oven_10_n04111531_22388.png,n04111531_22388.png,1.0,-0.82147217,-1.9387119,0.79000777
alexnet_w1_mlp_simclrhn_probe1,1,137,NaN,bottle,chair,c100,0137_cop_dnn_c100_chair_10_n04429376_6308.png,n04429376_6308.png,0.0,-0.8763323,0.35647804,-0.8717285
alexnet_w1_mlp_simclrhn_probe1,1,138,NaN,car,car,c10,0138_cop_dnn_c10_car_10_n03100240_8443.png,n03100240_8443.png,1.0,3.0978577,1.513587,1.1202486
alexnet_w1_mlp_simclrhn_probe1,1,139,NaN,car,car,c100,0139_cop_dnn_c100_car_10_n04285008_12446.png,n04285008_12446.png,1.0,8.541669,3.8450475,3.321013
alexnet_w1_mlp_simclrhn_probe1,1,140,NaN,keyboard,keyboard,c01,0140_cop_dnn_c01_keyboard_10_n04505470_4440.png,n04505470_4440.png,1.0,-0.0218537,-0.3644656,0.24226321
alexnet_w1_mlp_simclrhn_probe1,1,141,NaN,car,car,c10,0141_cop_dnn_c10_car_10_n04285008_10073.png,n04285008_10073.png,1.0,0.35322824,-0.24316604,0.42171445
alexnet_w1_mlp_simclrhn_probe1,1,142,NaN,knife,bottle,c03,0142_cop_dnn_c03_bottle_10_n03983396_7378.png,n03983396_7378.png,0.0,-0.87002504,-0.590127,-0.1979178
alexnet_w1_mlp_simclrhn_probe1,1,143,NaN,chair,chair,c15,0143_cop_dnn_c15_chair_10_n02791124_5706.png,n02791124_5706.png,1.0,-0.35419053,-0.5497051,0.13824968
alexnet_w1_mlp_simclrhn_probe1,1,144,NaN,cat,cat,c15,0144_cop_dnn_c15_cat_10_n02123045_11224.png,n02123045_11224.png,1.0,1.9591583,-0.65463215,1.848229
alexnet_w1_mlp_simclrhn_probe1,1,145,NaN,chair,chair,c05,0145_cop_dnn_c05_chair_10_n03376595_8953.png,n03376595_8953.png,1.0,-0.08602384,-0.50635725,0.29722062
alexnet_w1_mlp_simclrhn_probe1,1,146,NaN,bicycle,bicycle,c50,0146_cop_dnn_c50_bicycle_10_n03792782_66048.png,n03792782_66048.png,1.0,4.520664,-0.75443155,3.7300563
alexnet_w1_mlp_simclrhn_probe1,1,147,NaN,knife,dog,c01,0147_cop_dnn_c01_dog_10_n02104365_1123.png,n02104365_1123.png,0.0,-1.1900356,-0.41476092,-0.548202
alexnet_w1_mlp_simclrhn_probe1,1,148,NaN,knife,clock,c05,0148_cop_dnn_c05_clock_10_n03196217_3605.png,n03196217_3605.png,0.0,-0.11149598,-0.09045562,-0.014877779
alexnet_w1_mlp_simclrhn_probe1,1,149,NaN,knife,knife,c10,0149_cop_dnn_c10_knife_10_n03041632_14916.png,n03041632_14916.png,1.0,-0.14071928,-0.95286083,0.5742708
alexnet_w1_mlp_simclrhn_probe1,1,150,NaN,bear,bear,c10,0150_cop_dnn_c10_bear_10_n02132136_4101.png,n02132136_4101.png,1.0,0.5413095,-0.085068956,0.44291642
alexnet_w1_mlp_simclrhn_probe1,1,151,NaN,clock,clock,c01,0151_cop_dnn_c01_clock_10_n02708093_7929.png,n02708093_7929.png,1.0,-0.33375123,-0.73162967,0.28134254
alexnet_w1_mlp_simclrhn_probe1,1,152,NaN,chair,chair,c50,0152_cop_dnn_c50_chair_10_n02791124_7630.png,n02791124_7630.png,1.0,0.80760473,-1.5543861,1.6701798
alexnet_w1_mlp_simclrhn_probe1,1,153,NaN,clock,clock,c05,0153_cop_dnn_c05_clock_10_n02708093_3750.png,n02708093_3750.png,1.0,0.22097242,-1.1460661,0.9666422
alexnet_w1_mlp_simclrhn_probe1,1,154,NaN,airplane,bird,c01,0154_cop_dnn_c01_bird_10_n02037110_12288.png,n02037110_12288.png,0.0,-0.9541993,-0.565351,-0.27495727
alexnet_w1_mlp_simclrhn_probe1,1,155,NaN,keyboard,keyboard,c05,0155_cop_dnn_c05_keyboard_10_n04505470_6080.png,n04505470_6080.png,1.0,0.6246297,-0.07687769,0.49604064
alexnet_w1_mlp_simclrhn_probe1,1,156,NaN,keyboard,keyboard,c100,0156_cop_dnn_c100_keyboard_10_n03085013_19065.png,n03085013_19065.png,1.0,9.925561,-0.7762181,7.567301
alexnet_w1_mlp_simclrhn_probe1,1,157,NaN,cat,cat,c10,0157_cop_dnn_c10_cat_10_n02123159_4856.png,n02123159_4856.png,1.0,0.018110832,-1.1964381,0.8588158
alexnet_w1_mlp_simclrhn_probe1,1,158,NaN,clock,chair,c01,0158_cop_dnn_c01_chair_10_n04099969_6913.png,n04099969_6913.png,0.0,-0.58004606,-0.2103005,-0.2614496
alexnet_w1_mlp_simclrhn_probe1,1,159,NaN,knife,knife,c30,0159_cop_dnn_c30_knife_10_n03041632_35764.png,n03041632_35764.png,1.0,-0.34468374,-0.7646246,0.29694304
alexnet_w1_mlp_simclrhn_probe1,1,160,NaN,truck,truck,c30,0160_cop_dnn_c30_truck_10_n03796401_3012.png,n03796401_3012.png,1.0,3.133996,2.890384,0.17225973
alexnet_w1_mlp_simclrhn_probe1,1,161,NaN,elephant,elephant,c10,0161_cop_dnn_c10_elephant_10_n02504013_3821.png,n02504013_3821.png,1.0,1.3693502,-0.5292223,1.3424934
alexnet_w1_mlp_simclrhn_probe1,1,162,NaN,bottle,truck,c100,0162_cop_dnn_c100_truck_10_n03796401_3608.png,n03796401_3608.png,0.0,-0.6134771,-0.56502485,-0.03426092
alexnet_w1_mlp_simclrhn_probe1,1,163,NaN,chair,chair,c15,0163_cop_dnn_c15_chair_10_n04099969_13811.png,n04099969_13811.png,1.0,0.7469721,-1.0101892,1.2425007
alexnet_w1_mlp_simclrhn_probe1,1,164,NaN,bear,bear,c50,0164_cop_dnn_c50_bear_10_n02133161_4954.png,n02133161_4954.png,1.0,1.3868284,-0.15442608,1.0898316
alexnet_w1_mlp_simclrhn_probe1,1,165,NaN,dog,dog,c15,0165_cop_dnn_c15_dog_10_n02085782_6792.png,n02085782_6792.png,1.0,-0.07572918,-0.91340923,0.59232926
alexnet_w1_mlp_simclrhn_probe1,1,166,NaN,airplane,oven,c05,0166_cop_dnn_c05_oven_10_n04111531_22886.png,n04111531_22886.png,0.0,-0.6114832,-0.46183202,-0.10581938
alexnet_w1_mlp_simclrhn_probe1,1,167,NaN,bear,dog,c05,0167_cop_dnn_c05_dog_10_n02091831_510.png,n02091831_510.png,0.0,-1.0980722,-0.711802,-0.27313426
alexnet_w1_mlp_simclrhn_probe1,1,168,NaN,bear,bear,c15,0168_cop_dnn_c15_bear_10_n02132136_11339.png,n02132136_11339.png,1.0,0.06713934,-0.36267766,0.30392653
alexnet_w1_mlp_simclrhn_probe1,1,169,NaN,keyboard,bottle,c15,0169_cop_dnn_c15_bottle_10_n04557648_2709.png,n04557648_2709.png,0.0,-0.81053203,0.16911483,-0.6927149
alexnet_w1_mlp_simclrhn_probe1,1,170,NaN,keyboard,keyboard,c03,0170_cop_dnn_c03_keyboard_10_n03085013_21447.png,n03085013_21447.png,1.0,-0.30536655,-0.47199148,0.11782162
alexnet_w1_mlp_simclrhn_probe1,1,171,NaN,airplane,airplane,c30,0171_cop_dnn_c30_airplane_10_n02690373_7676.png,n02690373_7676.png,1.0,4.427697,0.54990387,2.742014
alexnet_w1_mlp_simclrhn_probe1,1,172,NaN,dog,dog,c100,0172_cop_dnn_c100_dog_10_n02091831_4110.png,n02091831_4110.png,1.0,-1.9518759,-2.0617905,0.07772132
alexnet_w1_mlp_simclrhn_probe1,1,173,NaN,elephant,bird,c10,0173_cop_dnn_c10_bird_10_n02007558_16029.png,n02007558_16029.png,0.0,-0.9640361,-0.5052666,-0.32439902
alexnet_w1_mlp_simclrhn_probe1,1,174,NaN,oven,truck,c30,0174_cop_dnn_c30_truck_10_n03796401_15097.png,n03796401_15097.png,0.0,-1.6129314,-0.8395673,-0.546851
alexnet_w1_mlp_simclrhn_probe1,1,175,NaN,airplane,airplane,c30,0175_cop_dnn_c30_airplane_10_n02690373_7401.png,n02690373_7401.png,1.0,5.129466,0.3687513,3.3663335
alexnet_w1_mlp_simclrhn_probe1,1,176,NaN,dog,dog,c05,0176_cop_dnn_c05_dog_10_n02108422_4529.png,n02108422_4529.png,1.0,-0.38778841,-0.6727351,0.20148773
alexnet_w1_mlp_simclrhn_probe1,1,177,NaN,bear,bear,c10,0177_cop_dnn_c10_bear_10_n02132136_10514.png,n02132136_10514.png,1.0,0.3937258,0.12611687,0.1892281
alexnet_w1_mlp_simclrhn_probe1,1,178,NaN,airplane,airplane,c03,0178_cop_dnn_c03_airplane_10_n02690373_5524.png,n02690373_5524.png,1.0,-0.12214537,-0.5157008,0.27828574
alexnet_w1_mlp_simclrhn_probe1,1,179,NaN,chair,chair,c100,0179_cop_dnn_c100_chair_10_n04429376_5965.png,n04429376_5965.png,1.0,1.5372759,-1.637473,2.2448864
alexnet_w1_mlp_simclrhn_probe1,1,180,NaN,airplane,airplane,c15,0180_cop_dnn_c15_airplane_10_n02690373_9712.png,n02690373_9712.png,1.0,1.4504788,-0.5491969,1.4139843
alexnet_w1_mlp_simclrhn_probe1,1,181,NaN,boat,boat,c30,0181_cop_dnn_c30_boat_10_n02951358_29825.png,n02951358_29825.png,1.0,1.5291145,0.38675547,0.80776983
alexnet_w1_mlp_simclrhn_probe1,1,182,NaN,keyboard,keyboard,c03,0182_cop_dnn_c03_keyboard_10_n04505470_4887.png,n04505470_4887.png,1.0,0.07483344,-0.595817,0.4742215
alexnet_w1_mlp_simclrhn_probe1,1,183,NaN,airplane,truck,c01,0183_cop_dnn_c01_truck_10_n04467665_32090.png,n04467665_32090.png,0.0,-1.2493567,-0.30074707,-0.6707684
alexnet_w1_mlp_simclrhn_probe1,1,184,NaN,chair,chair,c05,0184_cop_dnn_c05_chair_10_n02791124_4296.png,n02791124_4296.png,1.0,-0.27973515,-0.3385552,0.04159205
alexnet_w1_mlp_simclrhn_probe1,1,185,NaN,boat,boat,c30,0185_cop_dnn_c30_boat_10_n04612504_14669.png,n04612504_14669.png,1.0,1.0538224,-1.03753,1.4788095
alexnet_w1_mlp_simclrhn_probe1,1,186,NaN,airplane,airplane,c03,0186_cop_dnn_c03_airplane_10_n02690373_891.png,n02690373_891.png,1.0,0.33099157,-0.4074126,0.5221306
alexnet_w1_mlp_simclrhn_probe1,1,187,NaN,clock,clock,c100,0187_cop_dnn_c100_clock_10_n04548280_7539.png,n04548280_7539.png,1.0,0.84649414,-0.5516387,0.9886292
alexnet_w1_mlp_simclrhn_probe1,1,188,NaN,bear,bear,c30,0188_cop_dnn_c30_bear_10_n02134418_4717.png,n02134418_4717.png,1.0,1.5185533,-0.17570269,1.1980199
alexnet_w1_mlp_simclrhn_probe1,1,189,NaN,bear,bird,c03,0189_cop_dnn_c03_bird_10_n02002724_13195.png,n02002724_13195.png,0.0,-0.8824236,-0.74595517,-0.09649774
alexnet_w1_mlp_simclrhn_probe1,1,190,NaN,bottle,bottle,c10,0190_cop_dnn_c10_bottle_10_n03937543_2494.png,n03937543_2494.png,1.0,-0.64903814,-1.0862541,0.30915838
alexnet_w1_mlp_simclrhn_probe1,1,191,NaN,clock,clock,c30,0191_cop_dnn_c30_clock_10_n03196217_2307.png,n03196217_2307.png,1.0,1.3384389,0.08482769,0.886437
alexnet_w1_mlp_simclrhn_probe1,1,192,NaN,clock,clock,c15,0192_cop_dnn_c15_clock_10_n04548280_17907.png,n04548280_17907.png,1.0,-0.47420326,-0.7278938,0.17938633
alexnet_w1_mlp_simclrhn_probe1,1,193,NaN,clock,chair,c03,0193_cop_dnn_c03_chair_10_n03376595_6540.png,n03376595_6540.png,0.0,-0.5329835,-0.30624676,-0.16032708
alexnet_w1_mlp_simclrhn_probe1,1,194,NaN,cat,cat,c30,0194_cop_dnn_c30_cat_10_n02123045_1484.png,n02123045_1484.png,1.0,0.82189375,-1.318236,1.5133003
alexnet_w1_mlp_simclrhn_probe1,1,195,NaN,knife,knife,c03,0195_cop_dnn_c03_knife_10_n03041632_89912.png,n03041632_89912.png,1.0,-0.35294065,-0.41737014,0.04555853
alexnet_w1_mlp_simclrhn_probe1,1,196,NaN,bottle,bottle,c05,0196_cop_dnn_c05_bottle_10_n04591713_6975.png,n04591713_6975.png,1.0,0.76643264,-0.5822317,0.9536497
alexnet_w1_mlp_simclrhn_probe1,1,197,NaN,elephant,bird,c50,0197_cop_dnn_c50_bird_10_n01860187_810.png,n01860187_810.png,0.0,-1.1834195,-0.4117512,-0.54565185
alexnet_w1_mlp_simclrhn_probe1,1,198,NaN,knife,oven,c03,0198_cop_dnn_c03_oven_10_n04111531_5967.png,n04111531_5967.png,0.0,-1.1151819,-0.65595186,-0.3247247
alexnet_w1_mlp_simclrhn_probe1,1,199,NaN,boat,boat,c15,0199_cop_dnn_c15_boat_10_n04612504_18954.png,n04612504_18954.png,1.0,0.6760718,0.46466604,0.14948647
alexnet_w1_mlp_simclrhn_probe1,1,200,NaN,bicycle,bicycle,c10,0200_cop_dnn_c10_bicycle_10_n03792782_68259.png,n03792782_68259.png,1.0,0.8518013,-0.75639325,1.1371653
alexnet_w1_mlp_simclrhn_probe1,1,201,NaN,clock,car,c03,0201_cop_dnn_c03_car_10_n04285008_296.png,n04285008_296.png,0.0,-1.1694326,-0.36856183,-0.56630117
alexnet_w1_mlp_simclrhn_probe1,1,202,NaN,airplane,airplane,c03,0202_cop_dnn_c03_airplane_10_n02690373_12929.png,n02690373_12929.png,1.0,0.55542946,-0.5243448,0.7635157
alexnet_w1_mlp_simclrhn_probe1,1,203,NaN,airplane,boat,c01,0203_cop_dnn_c01_boat_10_n03344393_8761.png,n03344393_8761.png,0.0,-0.79684186,-0.32790774,-0.3315865
alexnet_w1_mlp_simclrhn_probe1,1,204,NaN,clock,clock,c30,0204_cop_dnn_c30_clock_10_n03196217_3877.png,n03196217_3877.png,1.0,0.6847903,-0.14429863,0.5862544
alexnet_w1_mlp_simclrhn_probe1,1,205,NaN,cat,bear,c10,0205_cop_dnn_c10_bear_10_n02134084_1346.png,n02134084_1346.png,0.0,-0.48196632,-0.12798086,-0.25030553
alexnet_w1_mlp_simclrhn_probe1,1,206,NaN,airplane,knife,c03,0206_cop_dnn_c03_knife_10_n03041632_48151.png,n03041632_48151.png,0.0,-0.3725024,-0.36064708,-0.008382966
alexnet_w1_mlp_simclrhn_probe1,1,207,NaN,airplane,airplane,c50,0207_cop_dnn_c50_airplane_10_n02690373_3589.png,n02690373_3589.png,1.0,3.3403158,0.71711475,1.8548833
alexnet_w1_mlp_simclrhn_probe1,1,208,NaN,airplane,bottle,c50,0208_cop_dnn_c50_bottle_10_n04560804_2942.png,n04560804_2942.png,0.0,-1.6892407,-0.08205442,-1.1364523
alexnet_w1_mlp_simclrhn_probe1,1,209,NaN,keyboard,keyboard,c03,0209_cop_dnn_c03_keyboard_10_n04505470_5022.png,n04505470_5022.png,1.0,0.11151612,-0.34095272,0.3199438
alexnet_w1_mlp_simclrhn_probe1,1,210,NaN,dog,dog,c10,0210_cop_dnn_c10_dog_10_n02096294_1043.png,n02096294_1043.png,1.0,-0.74610895,-0.80541384,0.041934893
alexnet_w1_mlp_simclrhn_probe1,1,211,NaN,airplane,airplane,c50,0211_cop_dnn_c50_airplane_10_n02690373_1350.png,n02690373_1350.png,1.0,7.500681,0.34127253,5.0624666
alexnet_w1_mlp_simclrhn_probe1,1,212,NaN,chair,chair,c03,0212_cop_dnn_c03_chair_10_n04099969_27865.png,n04099969_27865.png,1.0,-0.4858722,-0.7316512,0.17379199
alexnet_w1_mlp_simclrhn_probe1,1,213,NaN,knife,oven,c01,0213_cop_dnn_c01_oven_10_n04111531_22120.png,n04111531_22120.png,0.0,-0.65905994,-0.3194413,-0.24014665
alexnet_w1_mlp_simclrhn_probe1,1,214,NaN,elephant,elephant,c50,0214_cop_dnn_c50_elephant_10_n02504458_5600.png,n02504458_5600.png,1.0,2.8473501,0.19387421,1.8762909
alexnet_w1_mlp_simclrhn_probe1,1,215,NaN,knife,cat,c03,0215_cop_dnn_c03_cat_10_n02123597_11138.png,n02123597_11138.png,0.0,-0.8970115,-0.5809469,-0.22349143
alexnet_w1_mlp_simclrhn_probe1,1,216,NaN,bear,cat,c30,0216_cop_dnn_c30_cat_10_n02125311_5717.png,n02125311_5717.png,0.0,-1.4810518,-0.2799917,-0.84927773
alexnet_w1_mlp_simclrhn_probe1,1,217,NaN,chair,chair,c15,0217_cop_dnn_c15_chair_10_n02791124_11404.png,n02791124_11404.png,1.0,-0.4480409,-0.8167976,0.26075038
alexnet_w1_mlp_simclrhn_probe1,1,218,NaN,cat,cat,c100,0218_cop_dnn_c100_cat_10_n02123394_2984.png,n02123394_2984.png,1.0,0.5710499,-0.2836149,0.6043393
alexnet_w1_mlp_simclrhn_probe1,1,219,NaN,dog,dog,c10,0219_cop_dnn_c10_dog_10_n02087394_9693.png,n02087394_9693.png,1.0,-0.9456124,-0.9558982,0.0072731976
alexnet_w1_mlp_simclrhn_probe1,1,220,NaN,clock,dog,c01,0220_cop_dnn_c01_dog_10_n02098105_2086.png,n02098105_2086.png,0.0,-1.2279738,-0.7528321,-0.33597592
alexnet_w1_mlp_simclrhn_probe1,1,221,NaN,cat,cat,c10,0221_cop_dnn_c10_cat_10_n02123159_6932.png,n02123159_6932.png,1.0,-0.54133874,-0.65976,0.08373647
alexnet_w1_mlp_simclrhn_probe1,1,222,NaN,car,car,c15,0222_cop_dnn_c15_car_10_n04285008_8323.png,n04285008_8323.png,1.0,1.2920414,0.39771324,0.63238555
alexnet_w1_mlp_simclrhn_probe1,1,223,NaN,clock,truck,c01,0223_cop_dnn_c01_truck_10_n03796401_2226.png,n03796401_2226.png,0.0,-1.072793,-0.38842645,-0.48392025
alexnet_w1_mlp_simclrhn_probe1,1,224,NaN,elephant,bear,c05,0224_cop_dnn_c05_bear_10_n02134084_6223.png,n02134084_6223.png,0.0,-0.33961296,-0.020087238,-0.22593881
alexnet_w1_mlp_simclrhn_probe1,1,225,NaN,cat,cat,c05,0225_cop_dnn_c05_cat_10_n02125311_22459.png,n02125311_22459.png,1.0,-0.09905731,-0.6451261,0.38612896
alexnet_w1_mlp_simclrhn_probe1,1,226,NaN,bicycle,bicycle,c10,0226_cop_dnn_c10_bicycle_10_n02835271_19143.png,n02835271_19143.png,1.0,0.49145305,-1.1506042,1.1611099
alexnet_w1_mlp_simclrhn_probe1,1,227,NaN,cat,cat,c10,0227_cop_dnn_c10_cat_10_n02123597_4357.png,n02123597_4357.png,1.0,0.532566,-0.9093296,1.0195742
alexnet_w1_mlp_simclrhn_probe1,1,228,NaN,airplane,boat,c03,0228_cop_dnn_c03_boat_10_n04273569_6180.png,n04273569_6180.png,0.0,-0.41105437,-0.06135261,-0.24727648
alexnet_w1_mlp_simclrhn_probe1,1,229,NaN,airplane,airplane,c100,0229_cop_dnn_c100_airplane_10_n02690373_139.png,n02690373_139.png,1.0,9.029141,0.020255018,6.3702445
alexnet_w1_mlp_simclrhn_probe1,1,230,NaN,elephant,bottle,c10,0230_cop_dnn_c10_bottle_10_n04557648_4165.png,n04557648_4165.png,0.0,-1.675084,-0.35720634,-0.93188024
alexnet_w1_mlp_simclrhn_probe1,1,231,NaN,airplane,bottle,c50,0231_cop_dnn_c50_bottle_10_n04560804_5756.png,n04560804_5756.png,0.0,-1.5371121,-0.37025833,-0.8250902
alexnet_w1_mlp_simclrhn_probe1,1,232,NaN,truck,truck,c15,0232_cop_dnn_c15_truck_10_n04467665_39477.png,n04467665_39477.png,1.0,2.6473842,1.9513898,0.49214235
alexnet_w1_mlp_simclrhn_probe1,1,233,NaN,knife,cat,c01,0233_cop_dnn_c01_cat_10_n02123159_386.png,n02123159_386.png,0.0,-0.68799216,-0.60398936,-0.059398945
alexnet_w1_mlp_simclrhn_probe1,1,234,NaN,bear,bear,c15,0234_cop_dnn_c15_bear_10_n02134084_4859.png,n02134084_4859.png,1.0,-0.3971191,-0.4182138,0.014916212
alexnet_w1_mlp_simclrhn_probe1,1,235,NaN,bear,dog,c03,0235_cop_dnn_c03_dog_10_n02099429_1992.png,n02099429_1992.png,0.0,-0.9882736,-0.5574487,-0.30463925
alexnet_w1_mlp_simclrhn_probe1,1,236,NaN,airplane,oven,c03,0236_cop_dnn_c03_oven_10_n04111531_584.png,n04111531_584.png,0.0,-1.3040135,-0.7190613,-0.41362366
alexnet_w1_mlp_simclrhn_probe1,1,237,NaN,knife,bottle,c05,0237_cop_dnn_c05_bottle_10_n04591713_4019.png,n04591713_4019.png,0.0,-0.40293756,-0.35046998,-0.037100185
alexnet_w1_mlp_simclrhn_probe1,1,238,NaN,bear,dog,c03,0238_cop_dnn_c03_dog_10_n02113712_4486.png,n02113712_4486.png,0.0,-1.0794139,-0.54598475,-0.37719136
alexnet_w1_mlp_simclrhn_probe1,1,239,NaN,clock,chair,c50,0239_cop_dnn_c50_chair_10_n03376595_13018.png,n03376595_13018.png,0.0,-4.8705916,0.2363729,-3.6111693
alexnet_w1_mlp_simclrhn_probe1,1,240,NaN,oven,oven,c50,0240_cop_dnn_c50_oven_10_n04111531_7421.png,n04111531_7421.png,1.0,1.8753171,-2.3918471,3.017341
alexnet_w1_mlp_simclrhn_probe1,1,241,NaN,clock,cat,c01,0241_cop_dnn_c01_cat_10_n02123045_10689.png,n02123045_10689.png,0.0,-0.8283114,-0.70021766,-0.09057594
alexnet_w1_mlp_simclrhn_probe1,1,242,NaN,clock,clock,c05,0242_cop_dnn_c05_clock_10_n02708093_4391.png,n02708093_4391.png,1.0,-0.16888481,-0.4669018,0.21072984
alexnet_w1_mlp_simclrhn_probe1,1,243,NaN,clock,clock,c50,0243_cop_dnn_c50_clock_10_n02708093_3759.png,n02708093_3759.png,1.0,2.6399877,-1.1060327,2.6488364
alexnet_w1_mlp_simclrhn_probe1,1,244,NaN,elephant,elephant,c05,0244_cop_dnn_c05_elephant_10_n02504013_648.png,n02504013_648.png,1.0,0.28993493,-0.9340884,0.86551523
alexnet_w1_mlp_simclrhn_probe1,1,245,NaN,clock,bottle,c01,0245_cop_dnn_c01_bottle_10_n04591713_1879.png,n04591713_1879.png,0.0,-0.84832203,-0.47329816,-0.26518193
alexnet_w1_mlp_simclrhn_probe1,1,246,NaN,clock,dog,c01,0246_cop_dnn_c01_dog_10_n02110627_20194.png,n02110627_20194.png,0.0,-1.1834635,-0.64447737,-0.3811207
alexnet_w1_mlp_simclrhn_probe1,1,247,NaN,truck,truck,c50,0247_cop_dnn_c50_truck_10_n03796401_13298.png,n03796401_13298.png,1.0,2.5291471,0.97762203,1.0970939
alexnet_w1_mlp_simclrhn_probe1,1,248,NaN,keyboard,chair,c100,0248_cop_dnn_c100_chair_10_n03376595_7824.png,n03376595_7824.png,0.0,-5.212044,0.93272096,-4.345005
alexnet_w1_mlp_simclrhn_probe1,1,249,NaN,airplane,bear,c05,0249_cop_dnn_c05_bear_10_n02134418_6252.png,n02134418_6252.png,0.0,-0.8828487,-0.60930365,-0.19342555
alexnet_w1_mlp_simclrhn_probe1,1,250,NaN,bird,bird,c50,0250_cop_dnn_c50_bird_10_n01855032_1815.png,n01855032_1815.png,1.0,-0.710203,-3.1208344,1.7045739
alexnet_w1_mlp_simclrhn_probe1,1,251,NaN,car,car,c100,0251_cop_dnn_c100_car_10_n03100240_6773.png,n03100240_6773.png,1.0,6.9828324,1.7094965,3.7288117
alexnet_w1_mlp_simclrhn_probe1,1,252,NaN,knife,keyboard,c03,0252_cop_dnn_c03_keyboard_10_n03085013_22438.png,n03085013_22438.png,0.0,-0.8396205,-0.33296975,-0.35825613
alexnet_w1_mlp_simclrhn_probe1,1,253,NaN,keyboard,keyboard,c01,0253_cop_dnn_c01_keyboard_10_n04505470_4950.png,n04505470_4950.png,1.0,-0.029179953,-0.31493098,0.20205648
alexnet_w1_mlp_simclrhn_probe1,1,254,NaN,clock,truck,c03,0254_cop_dnn_c03_truck_10_n04467665_22358.png,n04467665_22358.png,0.0,-0.6856301,-0.12818897,-0.3941704
alexnet_w1_mlp_simclrhn_probe1,1,255,NaN,airplane,truck,c15,0255_cop_dnn_c15_truck_10_n04467665_67969.png,n04467665_67969.png,0.0,-1.1458828,0.36997455,-1.0718731
alexnet_w1_mlp_simclrhn_probe1,1,256,NaN,elephant,elephant,c10,0256_cop_dnn_c10_elephant_10_n02504013_2128.png,n02504013_2128.png,1.0,-0.373049,-0.452842,0.056422178
alexnet_w1_mlp_simclrhn_probe1,1,257,NaN,car,car,c30,0257_cop_dnn_c30_car_10_n03100240_3499.png,n03100240_3499.png,1.0,5.1623464,3.6259422,1.0864018
alexnet_w1_mlp_simclrhn_probe1,1,258,NaN,bear,bear,c50,0258_cop_dnn_c50_bear_10_n02134084_7250.png,n02134084_7250.png,1.0,0.53677714,0.039295577,0.35177258
alexnet_w1_mlp_simclrhn_probe1,1,259,NaN,bicycle,bicycle,c15,0259_cop_dnn_c15_bicycle_10_n03792782_43279.png,n03792782_43279.png,1.0,-0.45236757,-1.0614591,0.43069276
alexnet_w1_mlp_simclrhn_probe1,1,260,NaN,cat,cat,c50,0260_cop_dnn_c50_cat_10_n02123045_1274.png,n02123045_1274.png,1.0,0.13461626,-1.5627416,1.2002133
alexnet_w1_mlp_simclrhn_probe1,1,261,NaN,oven,oven,c100,0261_cop_dnn_c100_oven_10_n04111531_6567.png,n04111531_6567.png,1.0,5.307685,-2.4523222,5.4871535
alexnet_w1_mlp_simclrhn_probe1,1,262,NaN,oven,knife,c100,0262_cop_dnn_c100_knife_10_n03041632_86338.png,n03041632_86338.png,0.0,-1.88567,1.6249838,-2.482407
alexnet_w1_mlp_simclrhn_probe1,1,263,NaN,chair,chair,c15,0263_cop_dnn_c15_chair_10_n02791124_9757.png,n02791124_9757.png,1.0,-0.5796349,-0.61802506,0.027145943
alexnet_w1_mlp_simclrhn_probe1,1,264,NaN,knife,knife,c15,0264_cop_dnn_c15_knife_10_n03041632_45090.png,n03041632_45090.png,1.0,0.4528491,-1.0139469,1.0371814
alexnet_w1_mlp_simclrhn_probe1,1,265,NaN,knife,bicycle,c01,0265_cop_dnn_c01_bicycle_10_n02835271_1436.png,n02835271_1436.png,0.0,-1.077079,-0.46039027,-0.43606484
alexnet_w1_mlp_simclrhn_probe1,1,266,NaN,airplane,bird,c03,0266_cop_dnn_c03_bird_10_n01798484_8189.png,n01798484_8189.png,0.0,-0.82059115,-0.43209168,-0.27471063
alexnet_w1_mlp_simclrhn_probe1,1,267,NaN,knife,bird,c15,0267_cop_dnn_c15_bird_10_n01819313_1282.png,n01819313_1282.png,0.0,-1.4455972,-0.74295026,-0.4968464
alexnet_w1_mlp_simclrhn_probe1,1,268,NaN,bottle,bottle,c100,0268_cop_dnn_c100_bottle_10_n03983396_11519.png,n03983396_11519.png,1.0,4.7219806,-1.3210733,4.273084
alexnet_w1_mlp_simclrhn_probe1,1,269,NaN,boat,boat,c05,0269_cop_dnn_c05_boat_10_n03344393_7735.png,n03344393_7735.png,1.0,0.06698636,-0.07879101,0.10308017
alexnet_w1_mlp_simclrhn_probe1,1,270,NaN,bottle,bottle,c05,0270_cop_dnn_c05_bottle_10_n04560804_21795.png,n04560804_21795.png,1.0,-0.019413173,-0.50942594,0.34649137
alexnet_w1_mlp_simclrhn_probe1,1,271,NaN,chair,chair,c30,0271_cop_dnn_c30_chair_10_n02791124_4109.png,n02791124_4109.png,1.0,0.4966685,-0.6527758,0.8127799
alexnet_w1_mlp_simclrhn_probe1,1,272,NaN,keyboard,keyboard,c03,0272_cop_dnn_c03_keyboard_10_n04505470_9663.png,n04505470_9663.png,1.0,0.19848134,-0.44389534,0.4542289
alexnet_w1_mlp_simclrhn_probe1,1,273,NaN,knife,knife,c15,0273_cop_dnn_c15_knife_10_n03041632_27709.png,n03041632_27709.png,1.0,0.013327353,-1.0761998,0.770412
alexnet_w1_mlp_simclrhn_probe1,1,274,NaN,airplane,airplane,c50,0274_cop_dnn_c50_airplane_10_n02690373_8539.png,n02690373_8539.png,1.0,2.0260332,-1.038171,2.1667197
alexnet_w1_mlp_simclrhn_probe1,1,275,NaN,bear,bear,c15,0275_cop_dnn_c15_bear_10_n02134418_2175.png,n02134418_2175.png,1.0,0.38141006,-0.27715302,0.46567443
alexnet_w1_mlp_simclrhn_probe1,1,276,NaN,elephant,elephant,c50,0276_cop_dnn_c50_elephant_10_n02504458_2875.png,n02504458_2875.png,1.0,4.782753,-0.9772963,4.07297
alexnet_w1_mlp_simclrhn_probe1,1,277,NaN,clock,chair,c03,0277_cop_dnn_c03_chair_10_n02791124_5868.png,n02791124_5868.png,0.0,-0.5920664,-0.5498121,-0.029878322
alexnet_w1_mlp_simclrhn_probe1,1,278,NaN,cat,cat,c10,0278_cop_dnn_c10_cat_10_n02123597_488.png,n02123597_488.png,1.0,-0.41643915,-1.1596057,0.52549815
alexnet_w1_mlp_simclrhn_probe1,1,279,NaN,bicycle,oven,c30,0279_cop_dnn_c30_oven_10_n04111531_6500.png,n04111531_6500.png,0.0,-1.1571417,-0.14271247,-0.7173098
alexnet_w1_mlp_simclrhn_probe1,1,280,NaN,bicycle,bicycle,c15,0280_cop_dnn_c15_bicycle_10_n03792782_13002.png,n03792782_13002.png,1.0,0.98722965,-1.0634402,1.4500426
alexnet_w1_mlp_simclrhn_probe1,1,281,NaN,clock,clock,c05,0281_cop_dnn_c05_clock_10_n03196217_10641.png,n03196217_10641.png,1.0,0.25186262,-0.23579344,0.3448249
alexnet_w1_mlp_simclrhn_probe1,1,282,NaN,bicycle,bicycle,c15,0282_cop_dnn_c15_bicycle_10_n03792782_20193.png,n03792782_20193.png,1.0,3.8611817,-0.2559517,2.9112532
alexnet_w1_mlp_simclrhn_probe1,1,283,NaN,truck,truck,c05,0283_cop_dnn_c05_truck_10_n03417042_13806.png,n03417042_13806.png,1.0,-0.03005042,-0.35382387,0.2289424
alexnet_w1_mlp_simclrhn_probe1,1,284,NaN,truck,truck,c05,0284_cop_dnn_c05_truck_10_n04467665_70237.png,n04467665_70237.png,1.0,-0.42750505,-0.63948435,0.149892
alexnet_w1_mlp_simclrhn_probe1,1,285,NaN,knife,truck,c01,0285_cop_dnn_c01_truck_10_n04467665_3720.png,n04467665_3720.png,0.0,-1.5598731,-0.42739475,-0.80078316
alexnet_w1_mlp_simclrhn_probe1,1,286,NaN,bear,bear,c10,0286_cop_dnn_c10_bear_10_n02132136_8975.png,n02132136_8975.png,1.0,1.9144623,1.1357653,0.5506219
alexnet_w1_mlp_simclrhn_probe1,1,287,NaN,cat,knife,c05,0287_cop_dnn_c05_knife_10_n03041632_18859.png,n03041632_18859.png,0.0,-0.6937562,-0.6924348,-0.00093439565
alexnet_w1_mlp_simclrhn_probe1,1,288,NaN,elephant,bear,c50,0288_cop_dnn_c50_bear_10_n02132136_29760.png,n02132136_29760.png,0.0,0.3785211,2.0189927,-1.1599886
alexnet_w1_mlp_simclrhn_probe1,1,289,NaN,airplane,boat,c05,0289_cop_dnn_c05_boat_10_n04273569_6586.png,n04273569_6586.png,0.0,-0.26506734,0.0005976856,-0.18785354
alexnet_w1_mlp_simclrhn_probe1,1,290,NaN,bottle,bottle,c05,0290_cop_dnn_c05_bottle_10_n03983396_11137.png,n03983396_11137.png,1.0,-0.092969775,-0.5600202,0.33025452
alexnet_w1_mlp_simclrhn_probe1,1,291,NaN,clock,clock,c10,0291_cop_dnn_c10_clock_10_n03196217_4232.png,n03196217_4232.png,1.0,-0.23280334,-0.25524396,0.01586791
alexnet_w1_mlp_simclrhn_probe1,1,292,NaN,airplane,clock,c01,0292_cop_dnn_c01_clock_10_n04548280_1325.png,n04548280_1325.png,0.0,-0.5931906,-0.3867584,-0.14596963
alexnet_w1_mlp_simclrhn_probe1,1,293,NaN,airplane,airplane,c100,0293_cop_dnn_c100_airplane_10_n02690373_2268.png,n02690373_2268.png,1.0,7.215501,0.2752411,4.907505
alexnet_w1_mlp_simclrhn_probe1,1,294,NaN,bicycle,bicycle,c10,0294_cop_dnn_c10_bicycle_10_n03792782_14557.png,n03792782_14557.png,1.0,-0.522642,-0.7899182,0.1889928
alexnet_w1_mlp_simclrhn_probe1,1,295,NaN,clock,cat,c01,0295_cop_dnn_c01_cat_10_n02124075_13792.png,n02124075_13792.png,0.0,-0.88376147,-0.587595,-0.20942134
alexnet_w1_mlp_simclrhn_probe1,1,296,NaN,cat,dog,c01,0296_cop_dnn_c01_dog_10_n02110185_14953.png,n02110185_14953.png,0.0,-1.2575426,-0.710007,-0.38716614
alexnet_w1_mlp_simclrhn_probe1,1,297,NaN,bottle,bottle,c15,0297_cop_dnn_c15_bottle_10_n04557648_1634.png,n04557648_1634.png,1.0,-0.4197728,-0.7244729,0.21545549
alexnet_w1_mlp_simclrhn_probe1,1,298,NaN,bicycle,bicycle,c50,0298_cop_dnn_c50_bicycle_10_n02835271_1701.png,n02835271_1701.png,1.0,2.8020992,-1.8097744,3.2610872
alexnet_w1_mlp_simclrhn_probe1,1,299,NaN,boat,boat,c05,0299_cop_dnn_c05_boat_10_n04273569_7312.png,n04273569_7312.png,1.0,0.43365574,0.07157548,0.25602943
alexnet_w1_mlp_simclrhn_probe1,1,300,NaN,bird,bird,c100,0300_cop_dnn_c100_bird_10_n01616318_5417.png,n01616318_5417.png,1.0,1.0692438,-2.5898383,2.5873618
alexnet_w1_mlp_simclrhn_probe1,1,301,NaN,cat,cat,c15,0301_cop_dnn_c15_cat_10_n02123045_12200.png,n02123045_12200.png,1.0,2.3845596,-2.0772703,3.1549904
alexnet_w1_mlp_simclrhn_probe1,1,302,NaN,elephant,dog,c30,0302_cop_dnn_c30_dog_10_n02102480_8264.png,n02102480_8264.png,0.0,-0.6716027,-0.15560558,-0.3648651
alexnet_w1_mlp_simclrhn_probe1,1,303,NaN,bicycle,bicycle,c30,0303_cop_dnn_c30_bicycle_10_n03792782_5426.png,n03792782_5426.png,1.0,0.5810323,-1.5959582,1.5393648
alexnet_w1_mlp_simclrhn_probe1,1,304,NaN,clock,clock,c05,0304_cop_dnn_c05_clock_10_n02708093_8038.png,n02708093_8038.png,1.0,-0.35875845,-0.43397596,0.053186815
alexnet_w1_mlp_simclrhn_probe1,1,305,NaN,bicycle,bicycle,c30,0305_cop_dnn_c30_bicycle_10_n02835271_2764.png,n02835271_2764.png,1.0,3.2163815,-0.48510444,2.617346
alexnet_w1_mlp_simclrhn_probe1,1,306,NaN,knife,knife,c50,0306_cop_dnn_c50_knife_10_n03041632_39836.png,n03041632_39836.png,1.0,1.3060558,-0.8435245,1.5199828
alexnet_w1_mlp_simclrhn_probe1,1,307,NaN,knife,bicycle,c01,0307_cop_dnn_c01_bicycle_10_n03792782_19040.png,n03792782_19040.png,0.0,-1.1651435,-0.5897056,-0.40689605
alexnet_w1_mlp_simclrhn_probe1,1,308,NaN,bear,cat,c01,0308_cop_dnn_c01_cat_10_n02125311_28331.png,n02125311_28331.png,0.0,-0.78931767,-0.6220616,-0.118267894
alexnet_w1_mlp_simclrhn_probe1,1,309,NaN,knife,knife,c01,0309_cop_dnn_c01_knife_10_n03041632_18126.png,n03041632_18126.png,1.0,-0.40696612,-0.43813172,0.022037407
alexnet_w1_mlp_simclrhn_probe1,1,310,NaN,bicycle,bicycle,c30,0310_cop_dnn_c30_bicycle_10_n03792782_19253.png,n03792782_19253.png,1.0,1.2304921,-0.5608394,1.2666627
alexnet_w1_mlp_simclrhn_probe1,1,311,NaN,knife,bottle,c01,0311_cop_dnn_c01_bottle_10_n03983396_751.png,n03983396_751.png,0.0,-0.61086357,-0.44358012,-0.11828726
alexnet_w1_mlp_simclrhn_probe1,1,312,NaN,car,car,c15,0312_cop_dnn_c15_car_10_n04285008_628.png,n04285008_628.png,1.0,1.7824783,0.5776464,0.85194486
alexnet_w1_mlp_simclrhn_probe1,1,313,NaN,chair,boat,c15,0313_cop_dnn_c15_boat_10_n03662601_3011.png,n03662601_3011.png,0.0,-0.81067646,-0.09103298,-0.50886476
alexnet_w1_mlp_simclrhn_probe1,1,314,NaN,clock,bottle,c10,0314_cop_dnn_c10_bottle_10_n04557648_2904.png,n04557648_2904.png,0.0,-0.3719309,-0.33450994,-0.026460614
alexnet_w1_mlp_simclrhn_probe1,1,315,NaN,knife,bird,c10,0315_cop_dnn_c10_bird_10_n02002556_9804.png,n02002556_9804.png,0.0,-0.56827956,-0.5635472,-0.0033462911
alexnet_w1_mlp_simclrhn_probe1,1,316,NaN,clock,truck,c05,0316_cop_dnn_c05_truck_10_n04467665_8955.png,n04467665_8955.png,0.0,-0.4515664,-0.20914324,-0.17141907
alexnet_w1_mlp_simclrhn_probe1,1,317,NaN,boat,boat,c03,0317_cop_dnn_c03_boat_10_n04612504_15061.png,n04612504_15061.png,1.0,-0.3763581,-0.43733343,0.043116078
alexnet_w1_mlp_simclrhn_probe1,1,318,NaN,clock,bird,c05,0318_cop_dnn_c05_bird_10_n02002556_1437.png,n02002556_1437.png,0.0,-0.922983,-0.73135537,-0.13550119
alexnet_w1_mlp_simclrhn_probe1,1,319,NaN,car,truck,c50,0319_cop_dnn_c50_truck_10_n03417042_10993.png,n03417042_10993.png,0.0,-1.4622165,0.14636122,-1.1374363
alexnet_w1_mlp_simclrhn_probe1,1,320,NaN,airplane,chair,c10,0320_cop_dnn_c10_chair_10_n02791124_880.png,n02791124_880.png,0.0,-0.35509542,-0.18080732,-0.12324029
alexnet_w1_mlp_simclrhn_probe1,1,321,NaN,bicycle,bicycle,c50,0321_cop_dnn_c50_bicycle_10_n03792782_4826.png,n03792782_4826.png,1.0,3.9873753,0.52030474,2.451589
alexnet_w1_mlp_simclrhn_probe1,1,322,NaN,chair,chair,c03,0322_cop_dnn_c03_chair_10_n04099969_3804.png,n04099969_3804.png,1.0,-0.4364095,-0.5969921,0.11354903
alexnet_w1_mlp_simclrhn_probe1,1,323,NaN,bottle,bottle,c10,0323_cop_dnn_c10_bottle_10_n02823428_2504.png,n02823428_2504.png,1.0,1.3837726,-0.71363014,1.4830878
alexnet_w1_mlp_simclrhn_probe1,1,324,NaN,cat,cat,c10,0324_cop_dnn_c10_cat_10_n02124075_9716.png,n02124075_9716.png,1.0,0.34136736,-0.63724184,0.6919812
alexnet_w1_mlp_simclrhn_probe1,1,325,NaN,knife,knife,c01,0325_cop_dnn_c01_knife_10_n03041632_81630.png,n03041632_81630.png,1.0,-0.5838573,-0.5970895,0.0093566
alexnet_w1_mlp_simclrhn_probe1,1,326,NaN,bottle,bottle,c30,0326_cop_dnn_c30_bottle_10_n04591713_457.png,n04591713_457.png,1.0,1.092194,-0.26179197,0.95741266
alexnet_w1_mlp_simclrhn_probe1,1,327,NaN,elephant,elephant,c30,0327_cop_dnn_c30_elephant_10_n02504458_5337.png,n02504458_5337.png,1.0,-0.6188637,-0.7031492,0.05959885
alexnet_w1_mlp_simclrhn_probe1,1,328,NaN,clock,clock,c15,0328_cop_dnn_c15_clock_10_n02708093_5429.png,n02708093_5429.png,1.0,1.2072603,-0.18950255,0.9876605
alexnet_w1_mlp_simclrhn_probe1,1,329,NaN,oven,oven,c100,0329_cop_dnn_c100_oven_10_n04111531_9411.png,n04111531_9411.png,1.0,0.063384816,-0.26954952,0.23542012
alexnet_w1_mlp_simclrhn_probe1,1,330,NaN,knife,knife,c01,0330_cop_dnn_c01_knife_10_n03041632_2338.png,n03041632_2338.png,1.0,-0.20270844,-0.38357458,0.12789167
alexnet_w1_mlp_simclrhn_probe1,1,331,NaN,cat,cat,c100,0331_cop_dnn_c100_cat_10_n02123394_2755.png,n02123394_2755.png,1.0,0.1804188,-1.6027528,1.2608927
alexnet_w1_mlp_simclrhn_probe1,1,332,NaN,elephant,elephant,c05,0332_cop_dnn_c05_elephant_10_n02504458_10243.png,n02504458_10243.png,1.0,0.22834815,-0.24711213,0.3362012
alexnet_w1_mlp_simclrhn_probe1,1,333,NaN,oven,oven,c15,0333_cop_dnn_c15_oven_10_n04111531_1752.png,n04111531_1752.png,1.0,0.1398401,-0.70238006,0.5955396
alexnet_w1_mlp_simclrhn_probe1,1,334,NaN,bird,bird,c05,0334_cop_dnn_c05_bird_10_n02037110_6736.png,n02037110_6736.png,1.0,-0.074538425,-0.42259526,0.24611336
alexnet_w1_mlp_simclrhn_probe1,1,335,NaN,airplane,airplane,c10,0335_cop_dnn_c10_airplane_10_n02690373_8804.png,n02690373_8804.png,1.0,1.9522519,-0.3446378,1.6241463
alexnet_w1_mlp_simclrhn_probe1,1,336,NaN,elephant,elephant,c100,0336_cop_dnn_c100_elephant_10_n02504458_12217.png,n02504458_12217.png,1.0,3.238678,-2.553194,4.095472
alexnet_w1_mlp_simclrhn_probe1,1,337,NaN,chair,knife,c15,0337_cop_dnn_c15_knife_10_n03041632_84012.png,n03041632_84012.png,0.0,-1.1113381,-0.9962462,-0.08138228
alexnet_w1_mlp_simclrhn_probe1,1,338,NaN,dog,dog,c50,0338_cop_dnn_c50_dog_10_n02093991_6192.png,n02093991_6192.png,1.0,-0.40285894,-1.1673341,0.54056555
alexnet_w1_mlp_simclrhn_probe1,1,339,NaN,bird,bird,c50,0339_cop_dnn_c50_bird_10_n02027492_6499.png,n02027492_6499.png,1.0,2.1930702,-4.69468,4.870375
alexnet_w1_mlp_simclrhn_probe1,1,340,NaN,clock,knife,c10,0340_cop_dnn_c10_knife_10_n03041632_46185.png,n03041632_46185.png,0.0,-0.3277695,-0.034734596,-0.20720695
alexnet_w1_mlp_simclrhn_probe1,1,341,NaN,boat,bear,c30,0341_cop_dnn_c30_bear_10_n02134084_14775.png,n02134084_14775.png,0.0,-0.86710685,0.05999754,-0.6555618
alexnet_w1_mlp_simclrhn_probe1,1,342,NaN,truck,truck,c30,0342_cop_dnn_c30_truck_10_n03417042_5346.png,n03417042_5346.png,1.0,2.4141917,0.8184212,1.1283802
alexnet_w1_mlp_simclrhn_probe1,1,343,NaN,dog,dog,c30,0343_cop_dnn_c30_dog_10_n02093991_9672.png,n02093991_9672.png,1.0,-0.6848827,-0.72682667,0.029658863
alexnet_w1_mlp_simclrhn_probe1,1,344,NaN,elephant,elephant,c100,0344_cop_dnn_c100_elephant_10_n02504458_2031.png,n02504458_2031.png,1.0,10.733144,1.2325063,6.717965
alexnet_w1_mlp_simclrhn_probe1,1,345,NaN,bird,bird,c03,0345_cop_dnn_c03_bird_10_n02025239_660.png,n02025239_660.png,1.0,-0.3971317,-0.61719453,0.15560792
alexnet_w1_mlp_simclrhn_probe1,1,346,NaN,airplane,elephant,c01,0346_cop_dnn_c01_elephant_10_n02504458_4244.png,n02504458_4244.png,0.0,-0.6501974,-0.4586827,-0.13542135
alexnet_w1_mlp_simclrhn_probe1,1,347,NaN,elephant,elephant,c30,0347_cop_dnn_c30_elephant_10_n02504013_7539.png,n02504013_7539.png,1.0,0.45868507,0.18374604,0.19441126
alexnet_w1_mlp_simclrhn_probe1,1,348,NaN,cat,bird,c03,0348_cop_dnn_c03_bird_10_n02002724_5876.png,n02002724_5876.png,0.0,-0.9569877,-0.78981835,-0.11820657
alexnet_w1_mlp_simclrhn_probe1,1,349,NaN,bird,bird,c10,0349_cop_dnn_c10_bird_10_n01532829_560.png,n01532829_560.png,1.0,-0.9954842,-1.3371682,0.24160711
alexnet_w1_mlp_simclrhn_probe1,1,350,NaN,boat,boat,c30,0350_cop_dnn_c30_boat_10_n04273569_1709.png,n04273569_1709.png,1.0,0.8604558,-1.053987,1.3537155
alexnet_w1_mlp_simclrhn_probe1,1,351,NaN,bicycle,bicycle,c50,0351_cop_dnn_c50_bicycle_10_n02835271_7958.png,n02835271_7958.png,1.0,-0.07137251,-1.7958376,1.219381
alexnet_w1_mlp_simclrhn_probe1,1,352,NaN,bear,bear,c30,0352_cop_dnn_c30_bear_10_n02133161_12157.png,n02133161_12157.png,1.0,0.66408277,0.60752374,0.03999327
alexnet_w1_mlp_simclrhn_probe1,1,353,NaN,knife,chair,c01,0353_cop_dnn_c01_chair_10_n04099969_4577.png,n04099969_4577.png,0.0,-0.60112137,-0.50742936,-0.06625025
alexnet_w1_mlp_simclrhn_probe1,1,354,NaN,airplane,bicycle,c01,0354_cop_dnn_c01_bicycle_10_n02835271_10283.png,n02835271_10283.png,0.0,-1.0441278,-0.64668083,-0.28103748
alexnet_w1_mlp_simclrhn_probe1,1,355,NaN,car,truck,c100,0355_cop_dnn_c100_truck_10_n03417042_23815.png,n03417042_23815.png,0.0,-0.20774683,1.415397,-1.1477361
alexnet_w1_mlp_simclrhn_probe1,1,356,NaN,bear,bear,c03,0356_cop_dnn_c03_bear_10_n02133161_1059.png,n02133161_1059.png,1.0,-0.11400339,-0.45848167,0.24358293
alexnet_w1_mlp_simclrhn_probe1,1,357,NaN,chair,chair,c01,0357_cop_dnn_c01_chair_10_n02791124_5173.png,n02791124_5173.png,1.0,-0.3009757,-0.44757032,0.10365805
alexnet_w1_mlp_simclrhn_probe1,1,358,NaN,bottle,bottle,c30,0358_cop_dnn_c30_bottle_10_n03983396_5545.png,n03983396_5545.png,1.0,-0.028445529,-1.0609409,0.7300845
alexnet_w1_mlp_simclrhn_probe1,1,359,NaN,airplane,airplane,c01,0359_cop_dnn_c01_airplane_10_n02690373_1797.png,n02690373_1797.png,1.0,-0.104118824,-0.3884539,0.20105526
alexnet_w1_mlp_simclrhn_probe1,1,360,NaN,airplane,oven,c05,0360_cop_dnn_c05_oven_10_n04111531_6628.png,n04111531_6628.png,0.0,-1.3202714,-0.8895818,-0.30454352
alexnet_w1_mlp_simclrhn_probe1,1,361,NaN,bear,elephant,c10,0361_cop_dnn_c10_elephant_10_n02504458_7817.png,n02504458_7817.png,0.0,-0.61388034,-0.5321105,-0.05782
alexnet_w1_mlp_simclrhn_probe1,1,362,NaN,knife,knife,c50,0362_cop_dnn_c50_knife_10_n03041632_4714.png,n03041632_4714.png,1.0,-0.6104606,-1.7065978,0.7750861
alexnet_w1_mlp_simclrhn_probe1,1,363,NaN,knife,bear,c03,0363_cop_dnn_c03_bear_10_n02134084_169.png,n02134084_169.png,0.0,-1.0009869,-0.7742945,-0.16029577
alexnet_w1_mlp_simclrhn_probe1,1,364,NaN,bird,bird,c15,0364_cop_dnn_c15_bird_10_n02013706_8336.png,n02013706_8336.png,1.0,0.98371893,-2.1848655,2.2405276
alexnet_w1_mlp_simclrhn_probe1,1,365,NaN,bottle,bottle,c15,0365_cop_dnn_c15_bottle_10_n04579145_6880.png,n04579145_6880.png,1.0,1.3008343,-0.3116602,1.1402057
alexnet_w1_mlp_simclrhn_probe1,1,366,NaN,bear,dog,c05,0366_cop_dnn_c05_dog_10_n02105641_416.png,n02105641_416.png,0.0,-0.680779,-0.5468456,-0.094705194
alexnet_w1_mlp_simclrhn_probe1,1,367,NaN,airplane,airplane,c10,0367_cop_dnn_c10_airplane_10_n02690373_6549.png,n02690373_6549.png,1.0,-0.0014529228,-0.3803125,0.26789418
alexnet_w1_mlp_simclrhn_probe1,1,368,NaN,clock,clock,c01,0368_cop_dnn_c01_clock_10_n04548280_2374.png,n04548280_2374.png,1.0,0.012008001,-0.8764843,0.62825894
alexnet_w1_mlp_simclrhn_probe1,1,369,NaN,bottle,bottle,c30,0369_cop_dnn_c30_bottle_10_n03983396_6287.png,n03983396_6287.png,1.0,0.39426115,-0.3579253,0.53187615
alexnet_w1_mlp_simclrhn_probe1,1,370,NaN,knife,dog,c01,0370_cop_dnn_c01_dog_10_n02090622_1126.png,n02090622_1126.png,0.0,-1.173693,-0.58393186,-0.41702408
alexnet_w1_mlp_simclrhn_probe1,1,371,NaN,truck,truck,c50,0371_cop_dnn_c50_truck_10_n03796401_1681.png,n03796401_1681.png,1.0,4.7247753,3.6151855,0.78459847
alexnet_w1_mlp_simclrhn_probe1,1,372,NaN,elephant,elephant,c30,0372_cop_dnn_c30_elephant_10_n02504013_5537.png,n02504013_5537.png,1.0,4.220561,-0.6696828,3.4579248
alexnet_w1_mlp_simclrhn_probe1,1,373,NaN,keyboard,keyboard,c05,0373_cop_dnn_c05_keyboard_10_n03085013_12399.png,n03085013_12399.png,1.0,0.35142154,-0.040801555,0.2773436
alexnet_w1_mlp_simclrhn_probe1,1,374,NaN,bottle,oven,c15,0374_cop_dnn_c15_oven_10_n04111531_6094.png,n04111531_6094.png,0.0,0.08707575,0.47576573,-0.27484533
alexnet_w1_mlp_simclrhn_probe1,1,375,NaN,airplane,airplane,c03,0375_cop_dnn_c03_airplane_10_n02690373_13604.png,n02690373_13604.png,1.0,0.28115737,-0.26248565,0.38441366
alexnet_w1_mlp_simclrhn_probe1,1,376,NaN,bear,bear,c100,0376_cop_dnn_c100_bear_10_n02134084_16084.png,n02134084_16084.png,1.0,4.2281494,0.703897,2.4920228
alexnet_w1_mlp_simclrhn_probe1,1,377,NaN,airplane,boat,c01,0377_cop_dnn_c01_boat_10_n04273569_15906.png,n04273569_15906.png,0.0,-0.5890344,-0.34753382,-0.17076668
alexnet_w1_mlp_simclrhn_probe1,1,378,NaN,cat,dog,c05,0378_cop_dnn_c05_dog_10_n02105162_8899.png,n02105162_8899.png,0.0,-0.65851206,-0.4234428,-0.16621906
alexnet_w1_mlp_simclrhn_probe1,1,379,NaN,oven,oven,c03,0379_cop_dnn_c03_oven_10_n04111531_7619.png,n04111531_7619.png,1.0,-0.794185,-0.7966859,0.0017683975
alexnet_w1_mlp_simclrhn_probe1,1,380,NaN,elephant,elephant,c05,0380_cop_dnn_c05_elephant_10_n02504458_1816.png,n02504458_1816.png,1.0,0.7176199,-0.6856599,0.9922687
alexnet_w1_mlp_simclrhn_probe1,1,381,NaN,cat,cat,c30,0381_cop_dnn_c30_cat_10_n02123045_3575.png,n02123045_3575.png,1.0,0.10679952,-0.67431325,0.55233014
alexnet_w1_mlp_simclrhn_probe1,1,382,NaN,airplane,truck,c01,0382_cop_dnn_c01_truck_10_n03417042_908.png,n03417042_908.png,0.0,-1.4386159,-0.38644353,-0.7439983
alexnet_w1_mlp_simclrhn_probe1,1,383,NaN,airplane,boat,c03,0383_cop_dnn_c03_boat_10_n03344393_4213.png,n03344393_4213.png,0.0,0.34014738,0.3426178,-0.0017468604
alexnet_w1_mlp_simclrhn_probe1,1,384,NaN,knife,knife,c01,0384_cop_dnn_c01_knife_10_n03041632_31483.png,n03041632_31483.png,1.0,-0.29805428,-0.440945,0.101039
alexnet_w1_mlp_simclrhn_probe1,1,385,NaN,clock,bottle,c01,0385_cop_dnn_c01_bottle_10_n03937543_986.png,n03937543_986.png,0.0,-0.8545295,-0.47032633,-0.27167267
alexnet_w1_mlp_simclrhn_probe1,1,386,NaN,truck,truck,c15,0386_cop_dnn_c15_truck_10_n03796401_7381.png,n03796401_7381.png,1.0,3.287693,1.7459906,1.0901482
alexnet_w1_mlp_simclrhn_probe1,1,387,NaN,cat,dog,c03,0387_cop_dnn_c03_dog_10_n02094433_9787.png,n02094433_9787.png,0.0,-1.0465357,-0.5950003,-0.31928375
alexnet_w1_mlp_simclrhn_probe1,1,388,NaN,bird,bird,c30,0388_cop_dnn_c30_bird_10_n02011460_11838.png,n02011460_11838.png,1.0,-1.0722784,-1.6417754,0.40269518
alexnet_w1_mlp_simclrhn_probe1,1,389,NaN,cat,cat,c30,0389_cop_dnn_c30_cat_10_n02123597_29513.png,n02123597_29513.png,1.0,1.1001743,0.13799644,0.6803625
alexnet_w1_mlp_simclrhn_probe1,1,390,NaN,chair,chair,c10,0390_cop_dnn_c10_chair_10_n04429376_5337.png,n04429376_5337.png,1.0,-0.35887206,-0.6425323,0.20057808
alexnet_w1_mlp_simclrhn_probe1,1,391,NaN,knife,knife,c03,0391_cop_dnn_c03_knife_10_n03041632_4260.png,n03041632_4260.png,1.0,-0.4447201,-0.8466133,0.28418142
alexnet_w1_mlp_simclrhn_probe1,1,392,NaN,keyboard,keyboard,c10,0392_cop_dnn_c10_keyboard_10_n04505470_4061.png,n04505470_4061.png,1.0,0.41569936,-0.51991737,0.6615809
alexnet_w1_mlp_simclrhn_probe1,1,393,NaN,boat,boat,c15,0393_cop_dnn_c15_boat_10_n03344393_6467.png,n03344393_6467.png,1.0,0.9945078,-0.18105848,0.8312509
alexnet_w1_mlp_simclrhn_probe1,1,394,NaN,bicycle,bicycle,c100,0394_cop_dnn_c100_bicycle_10_n03792782_11297.png,n03792782_11297.png,1.0,3.7358685,-2.0467207,4.0889077
alexnet_w1_mlp_simclrhn_probe1,1,395,NaN,clock,bicycle,c03,0395_cop_dnn_c03_bicycle_10_n03792782_8357.png,n03792782_8357.png,0.0,-1.026315,-0.83393437,-0.13603364
alexnet_w1_mlp_simclrhn_probe1,1,396,NaN,oven,dog,c10,0396_cop_dnn_c10_dog_10_n02108422_2739.png,n02108422_2739.png,0.0,-1.1867785,-1.130491,-0.039801292
alexnet_w1_mlp_simclrhn_probe1,1,397,NaN,knife,bear,c03,0397_cop_dnn_c03_bear_10_n02134084_6840.png,n02134084_6840.png,0.0,-0.5770792,-0.42485934,-0.10763568
alexnet_w1_mlp_simclrhn_probe1,1,398,NaN,elephant,bear,c30,0398_cop_dnn_c30_bear_10_n02133161_5365.png,n02133161_5365.png,0.0,0.12904443,0.43444517,-0.21595094
alexnet_w1_mlp_simclrhn_probe1,1,399,NaN,bottle,bottle,c30,0399_cop_dnn_c30_bottle_10_n04560804_1010.png,n04560804_1010.png,1.0,-0.6605678,-1.6908369,0.7285103
alexnet_w1_mlp_simclrhn_probe1,1,400,NaN,clock,clock,c10,0400_cop_dnn_c10_clock_10_n04548280_183.png,n04548280_183.png,1.0,0.219913,-0.8446664,0.7527714
alexnet_w1_mlp_simclrhn_probe1,1,401,NaN,keyboard,keyboard,c100,0401_cop_dnn_c100_keyboard_10_n03085013_21534.png,n03085013_21534.png,1.0,7.3552566,-0.91674703,5.8491898
alexnet_w1_mlp_simclrhn_probe1,1,402,NaN,chair,keyboard,c50,0402_cop_dnn_c50_keyboard_10_n03085013_24111.png,n03085013_24111.png,0.0,-0.5505917,0.72073376,-0.89896286
alexnet_w1_mlp_simclrhn_probe1,1,403,NaN,knife,knife,c15,0403_cop_dnn_c15_knife_10_n03041632_28009.png,n03041632_28009.png,1.0,-0.44407237,-0.89834726,0.32122087
alexnet_w1_mlp_simclrhn_probe1,1,404,NaN,cat,cat,c50,0404_cop_dnn_c50_cat_10_n02123159_7647.png,n02123159_7647.png,1.0,0.3907036,-0.99108505,0.9770721
alexnet_w1_mlp_simclrhn_probe1,1,405,NaN,knife,bottle,c01,0405_cop_dnn_c01_bottle_10_n02823428_8696.png,n02823428_8696.png,0.0,-0.81152046,-0.25505623,-0.39347962
alexnet_w1_mlp_simclrhn_probe1,1,406,NaN,elephant,elephant,c15,0406_cop_dnn_c15_elephant_10_n02504458_8923.png,n02504458_8923.png,1.0,0.2194784,-1.2673606,1.0513539
alexnet_w1_mlp_simclrhn_probe1,1,407,NaN,airplane,bear,c01,0407_cop_dnn_c01_bear_10_n02134084_5031.png,n02134084_5031.png,0.0,-0.799572,-0.43260992,-0.25948137
alexnet_w1_mlp_simclrhn_probe1,1,408,NaN,elephant,dog,c50,0408_cop_dnn_c50_dog_10_n02097209_1658.png,n02097209_1658.png,0.0,-1.1131091,0.37287027,-1.0507461
alexnet_w1_mlp_simclrhn_probe1,1,409,NaN,elephant,dog,c05,0409_cop_dnn_c05_dog_10_n02099849_6384.png,n02099849_6384.png,0.0,-1.1101583,-0.35723355,-0.5323982
alexnet_w1_mlp_simclrhn_probe1,1,410,NaN,elephant,elephant,c15,0410_cop_dnn_c15_elephant_10_n02504013_3459.png,n02504013_3459.png,1.0,0.50073004,-0.69717705,0.8470482
alexnet_w1_mlp_simclrhn_probe1,1,411,NaN,clock,knife,c03,0411_cop_dnn_c03_knife_10_n03041632_36390.png,n03041632_36390.png,0.0,-0.59034073,-0.57101494,-0.0136653995
alexnet_w1_mlp_simclrhn_probe1,1,412,NaN,knife,knife,c100,0412_cop_dnn_c100_knife_10_n03041632_10263.png,n03041632_10263.png,1.0,1.322861,-3.696224,3.549029
alexnet_w1_mlp_simclrhn_probe1,1,413,NaN,cat,cat,c03,0413_cop_dnn_c03_cat_10_n02123045_840.png,n02123045_840.png,1.0,0.033997018,-0.7250062,0.5366963
alexnet_w1_mlp_simclrhn_probe1,1,414,NaN,clock,clock,c05,0414_cop_dnn_c05_clock_10_n04548280_4758.png,n04548280_4758.png,1.0,0.3939664,-0.48911172,0.62443054
alexnet_w1_mlp_simclrhn_probe1,1,415,NaN,elephant,bear,c50,0415_cop_dnn_c50_bear_10_n02133161_1247.png,n02133161_1247.png,0.0,-0.04747185,0.051668674,-0.07010294
alexnet_w1_mlp_simclrhn_probe1,1,416,NaN,airplane,airplane,c10,0416_cop_dnn_c10_airplane_10_n02690373_6716.png,n02690373_6716.png,1.0,1.8746871,0.46053606,0.9999558
alexnet_w1_mlp_simclrhn_probe1,1,417,NaN,keyboard,keyboard,c30,0417_cop_dnn_c30_keyboard_10_n04505470_4893.png,n04505470_4893.png,1.0,1.2108243,-0.9582981,1.5338011
alexnet_w1_mlp_simclrhn_probe1,1,418,NaN,chair,chair,c30,0418_cop_dnn_c30_chair_10_n04099969_34525.png,n04099969_34525.png,1.0,0.97482204,-0.7560413,1.2239052
alexnet_w1_mlp_simclrhn_probe1,1,419,NaN,airplane,airplane,c01,0419_cop_dnn_c01_airplane_10_n02690373_4793.png,n02690373_4793.png,1.0,-0.1519523,-0.46288902,0.21986547
alexnet_w1_mlp_simclrhn_probe1,1,420,NaN,bottle,knife,c15,0420_cop_dnn_c15_knife_10_n03041632_4787.png,n03041632_4787.png,0.0,-0.76692384,-0.5012764,-0.18784113
alexnet_w1_mlp_simclrhn_probe1,1,421,NaN,boat,boat,c05,0421_cop_dnn_c05_boat_10_n04273569_20587.png,n04273569_20587.png,1.0,0.2617796,0.15213831,0.077528104
alexnet_w1_mlp_simclrhn_probe1,1,422,NaN,elephant,bicycle,c03,0422_cop_dnn_c03_bicycle_10_n03792782_4844.png,n03792782_4844.png,0.0,-0.63860816,-0.41360658,-0.15910015
alexnet_w1_mlp_simclrhn_probe1,1,423,NaN,clock,cat,c01,0423_cop_dnn_c01_cat_10_n02123045_6066.png,n02123045_6066.png,0.0,-0.86724025,-0.5235179,-0.2430484
alexnet_w1_mlp_simclrhn_probe1,1,424,NaN,boat,boat,c30,0424_cop_dnn_c30_boat_10_n04273569_17045.png,n04273569_17045.png,1.0,2.2315712,0.4920419,1.230033
alexnet_w1_mlp_simclrhn_probe1,1,425,NaN,keyboard,keyboard,c100,0425_cop_dnn_c100_keyboard_10_n04505470_5068.png,n04505470_5068.png,1.0,8.599165,1.5335859,4.996119
alexnet_w1_mlp_simclrhn_probe1,1,426,NaN,airplane,airplane,c10,0426_cop_dnn_c10_airplane_10_n02690373_2724.png,n02690373_2724.png,1.0,1.6631672,-0.4517251,1.4954547
alexnet_w1_mlp_simclrhn_probe1,1,427,NaN,boat,boat,c10,0427_cop_dnn_c10_boat_10_n03662601_4844.png,n03662601_4844.png,1.0,1.8201662,-0.053112507,1.3246081
alexnet_w1_mlp_simclrhn_probe1,1,428,NaN,chair,chair,c100,0428_cop_dnn_c100_chair_10_n04099969_3929.png,n04099969_3929.png,1.0,3.4471211,-2.366088,4.1105595
alexnet_w1_mlp_simclrhn_probe1,1,429,NaN,oven,oven,c10,0429_cop_dnn_c10_oven_10_n04111531_9026.png,n04111531_9026.png,1.0,0.16686738,-0.027410649,0.13737531
alexnet_w1_mlp_simclrhn_probe1,1,430,NaN,knife,knife,c15,0430_cop_dnn_c15_knife_10_n03041632_51225.png,n03041632_51225.png,1.0,0.54424167,-0.4364467,0.6934514
alexnet_w1_mlp_simclrhn_probe1,1,431,NaN,chair,boat,c10,0431_cop_dnn_c10_boat_10_n03344393_6638.png,n03344393_6638.png,0.0,-1.495381,-0.97932816,-0.36490446
alexnet_w1_mlp_simclrhn_probe1,1,432,NaN,knife,knife,c30,0432_cop_dnn_c30_knife_10_n03041632_4590.png,n03041632_4590.png,1.0,0.025561228,-0.51977295,0.38560948
alexnet_w1_mlp_simclrhn_probe1,1,433,NaN,clock,clock,c03,0433_cop_dnn_c03_clock_10_n02708093_3761.png,n02708093_3761.png,1.0,-0.31317857,-0.81402445,0.35415155
alexnet_w1_mlp_simclrhn_probe1,1,434,NaN,clock,car,c03,0434_cop_dnn_c03_car_10_n04285008_3193.png,n04285008_3193.png,0.0,-1.4239879,-0.74763393,-0.47825447
alexnet_w1_mlp_simclrhn_probe1,1,435,NaN,knife,keyboard,c50,0435_cop_dnn_c50_keyboard_10_n03085013_661.png,n03085013_661.png,0.0,-2.7814217,-0.8396375,-1.3730488
alexnet_w1_mlp_simclrhn_probe1,1,436,NaN,knife,bottle,c03,0436_cop_dnn_c03_bottle_10_n04557648_2355.png,n04557648_2355.png,0.0,-1.0473541,-0.8594077,-0.13289817
alexnet_w1_mlp_simclrhn_probe1,1,437,NaN,truck,dog,c30,0437_cop_dnn_c30_dog_10_n02107312_860.png,n02107312_860.png,0.0,-2.239042,-0.46151596,-1.2569008
alexnet_w1_mlp_simclrhn_probe1,1,438,NaN,boat,boat,c100,0438_cop_dnn_c100_boat_10_n02951358_1541.png,n02951358_1541.png,1.0,2.9551938,-2.6683602,3.9764533
alexnet_w1_mlp_simclrhn_probe1,1,439,NaN,boat,boat,c15,0439_cop_dnn_c15_boat_10_n02951358_4972.png,n02951358_4972.png,1.0,0.4396294,-0.11274794,0.39058977
alexnet_w1_mlp_simclrhn_probe1,1,440,NaN,bear,bear,c15,0440_cop_dnn_c15_bear_10_n02132136_6352.png,n02132136_6352.png,1.0,0.25412828,-0.44382676,0.49352872
alexnet_w1_mlp_simclrhn_probe1,1,441,NaN,knife,knife,c05,0441_cop_dnn_c05_knife_10_n03041632_27022.png,n03041632_27022.png,1.0,-0.35408586,-0.6181397,0.18671425
alexnet_w1_mlp_simclrhn_probe1,1,442,NaN,airplane,airplane,c15,0442_cop_dnn_c15_airplane_10_n02690373_10399.png,n02690373_10399.png,1.0,1.2484165,0.16564801,0.765633
alexnet_w1_mlp_simclrhn_probe1,1,443,NaN,keyboard,keyboard,c30,0443_cop_dnn_c30_keyboard_10_n04505470_4803.png,n04505470_4803.png,1.0,-0.8263564,-2.2638724,1.0164773
alexnet_w1_mlp_simclrhn_probe1,1,444,NaN,bottle,bottle,c03,0444_cop_dnn_c03_bottle_10_n03937543_4916.png,n03937543_4916.png,1.0,0.20046589,-0.6959023,0.633828
alexnet_w1_mlp_simclrhn_probe1,1,445,NaN,elephant,dog,c10,0445_cop_dnn_c10_dog_10_n02092339_2268.png,n02092339_2268.png,0.0,-0.7189629,0.20674643,-0.6545754
alexnet_w1_mlp_simclrhn_probe1,1,446,NaN,cat,cat,c100,0446_cop_dnn_c100_cat_10_n02123394_2034.png,n02123394_2034.png,1.0,2.6857626,-1.0741043,2.6586275
alexnet_w1_mlp_simclrhn_probe1,1,447,NaN,knife,keyboard,c01,0447_cop_dnn_c01_keyboard_10_n03085013_24442.png,n03085013_24442.png,0.0,-0.3133906,-0.2431827,-0.04964449
alexnet_w1_mlp_simclrhn_probe1,1,448,NaN,airplane,bicycle,c03,0448_cop_dnn_c03_bicycle_10_n03792782_12908.png,n03792782_12908.png,0.0,-1.102112,-0.5371523,-0.3994869
alexnet_w1_mlp_simclrhn_probe1,1,449,NaN,cat,cat,c50,0449_cop_dnn_c50_cat_10_n02124075_10241.png,n02124075_10241.png,1.0,5.9578023,-1.3506092,5.1678276
alexnet_w1_mlp_simclrhn_probe1,1,450,NaN,knife,keyboard,c03,0450_cop_dnn_c03_keyboard_10_n03085013_29941.png,n03085013_29941.png,0.0,-0.5255004,-0.3302435,-0.1380675
alexnet_w1_mlp_simclrhn_probe1,1,451,NaN,clock,car,c05,0451_cop_dnn_c05_car_10_n03100240_5718.png,n03100240_5718.png,0.0,-0.8140762,-0.123813115,-0.4880897
alexnet_w1_mlp_simclrhn_probe1,1,452,NaN,airplane,bear,c01,0452_cop_dnn_c01_bear_10_n02133161_789.png,n02133161_789.png,0.0,-0.62274486,-0.5024956,-0.08502907
alexnet_w1_mlp_simclrhn_probe1,1,453,NaN,chair,chair,c30,0453_cop_dnn_c30_chair_10_n04099969_9891.png,n04099969_9891.png,1.0,-0.038421154,-1.5229007,1.0496856
alexnet_w1_mlp_simclrhn_probe1,1,454,NaN,knife,knife,c01,0454_cop_dnn_c01_knife_10_n03041632_8666.png,n03041632_8666.png,1.0,-0.6335075,-0.65171474,0.012874472
alexnet_w1_mlp_simclrhn_probe1,1,455,NaN,car,car,c10,0455_cop_dnn_c10_car_10_n03100240_52.png,n03100240_52.png,1.0,-0.3171164,-0.349295,0.022753693
alexnet_w1_mlp_simclrhn_probe1,1,456,NaN,bird,bird,c10,0456_cop_dnn_c10_bird_10_n02007558_45529.png,n02007558_45529.png,1.0,-0.6817391,-0.9166511,0.1661079
alexnet_w1_mlp_simclrhn_probe1,1,457,NaN,airplane,airplane,c15,0457_cop_dnn_c15_airplane_10_n02690373_1933.png,n02690373_1933.png,1.0,0.61475635,-0.0575495,0.475392
alexnet_w1_mlp_simclrhn_probe1,1,458,NaN,elephant,elephant,c03,0458_cop_dnn_c03_elephant_10_n02504013_1879.png,n02504013_1879.png,1.0,-0.18873574,-0.28517884,0.068195574
alexnet_w1_mlp_simclrhn_probe1,1,459,NaN,car,car,c10,0459_cop_dnn_c10_car_10_n03100240_3373.png,n03100240_3373.png,1.0,1.1548887,0.499719,0.46327496
alexnet_w1_mlp_simclrhn_probe1,1,460,NaN,elephant,bicycle,c15,0460_cop_dnn_c15_bicycle_10_n03792782_7331.png,n03792782_7331.png,0.0,-1.2860665,-0.5607066,-0.5129069
alexnet_w1_mlp_simclrhn_probe1,1,461,NaN,knife,chair,c100,0461_cop_dnn_c100_chair_10_n03376595_11049.png,n03376595_11049.png,0.0,-2.484292,-0.7964818,-1.193462
alexnet_w1_mlp_simclrhn_probe1,1,462,NaN,knife,knife,c50,0462_cop_dnn_c50_knife_10_n03041632_37274.png,n03041632_37274.png,1.0,-0.35350037,-1.1455222,0.56004405
alexnet_w1_mlp_simclrhn_probe1,1,463,NaN,bottle,bottle,c15,0463_cop_dnn_c15_bottle_10_n02823428_780.png,n02823428_780.png,1.0,0.49056405,-1.0567816,1.0941386
alexnet_w1_mlp_simclrhn_probe1,1,464,NaN,cat,cat,c05,0464_cop_dnn_c05_cat_10_n02123045_390.png,n02123045_390.png,1.0,-0.708499,-0.84572124,0.097030774
alexnet_w1_mlp_simclrhn_probe1,1,465,NaN,bird,bird,c30,0465_cop_dnn_c30_bird_10_n01796340_10024.png,n01796340_10024.png,1.0,-0.4819547,-1.4358183,0.6744834
alexnet_w1_mlp_simclrhn_probe1,1,466,NaN,knife,knife,c05,0466_cop_dnn_c05_knife_10_n03041632_13509.png,n03041632_13509.png,1.0,0.2823344,-0.16206491,0.31423777
alexnet_w1_mlp_simclrhn_probe1,1,467,NaN,airplane,bird,c05,0467_cop_dnn_c05_bird_10_n01534433_14198.png,n01534433_14198.png,0.0,-0.49701574,-0.19390896,-0.21432887
alexnet_w1_mlp_simclrhn_probe1,1,468,NaN,airplane,chair,c100,0468_cop_dnn_c100_chair_10_n04099969_2502.png,n04099969_2502.png,0.0,-0.5298298,0.19059,-0.5094137
alexnet_w1_mlp_simclrhn_probe1,1,469,NaN,cat,cat,c05,0469_cop_dnn_c05_cat_10_n02123045_15474.png,n02123045_15474.png,1.0,-0.42448935,-1.0182984,0.41988638
alexnet_w1_mlp_simclrhn_probe1,1,470,NaN,clock,clock,c30,0470_cop_dnn_c30_clock_10_n02708093_442.png,n02708093_442.png,1.0,0.43344864,-0.37150162,0.5691858
alexnet_w1_mlp_simclrhn_probe1,1,471,NaN,knife,boat,c100,0471_cop_dnn_c100_boat_10_n02951358_12663.png,n02951358_12663.png,0.0,-5.6464763,-0.5948663,-3.5720277
alexnet_w1_mlp_simclrhn_probe1,1,472,NaN,clock,cat,c05,0472_cop_dnn_c05_cat_10_n02125311_37322.png,n02125311_37322.png,0.0,-1.0413793,-0.73885304,-0.2139184
alexnet_w1_mlp_simclrhn_probe1,1,473,NaN,bird,bird,c100,0473_cop_dnn_c100_bird_10_n01558993_5185.png,n01558993_5185.png,1.0,-2.3489947,-2.5568097,0.14694735
alexnet_w1_mlp_simclrhn_probe1,1,474,NaN,elephant,elephant,c100,0474_cop_dnn_c100_elephant_10_n02504013_7248.png,n02504013_7248.png,1.0,6.957606,-0.6782688,5.399379
alexnet_w1_mlp_simclrhn_probe1,1,475,NaN,knife,bottle,c01,0475_cop_dnn_c01_bottle_10_n02823428_4245.png,n02823428_4245.png,0.0,-0.7264039,-0.43170896,-0.20838079
alexnet_w1_mlp_simclrhn_probe1,1,476,NaN,chair,chair,c10,0476_cop_dnn_c10_chair_10_n04099969_8993.png,n04099969_8993.png,1.0,-0.0023546517,-0.82191515,0.5795168
alexnet_w1_mlp_simclrhn_probe1,1,477,NaN,dog,dog,c30,0477_cop_dnn_c30_dog_10_n02101388_8775.png,n02101388_8775.png,1.0,1.0323014,-1.5723628,1.8417759
alexnet_w1_mlp_simclrhn_probe1,1,478,NaN,clock,car,c01,0478_cop_dnn_c01_car_10_n02814533_3590.png,n02814533_3590.png,0.0,-1.5216475,-0.6421969,-0.62186545
alexnet_w1_mlp_simclrhn_probe1,1,479,NaN,elephant,elephant,c05,0479_cop_dnn_c05_elephant_10_n02504458_6018.png,n02504458_6018.png,1.0,0.7129584,-0.14602631,0.6073939
alexnet_w1_mlp_simclrhn_probe1,1,480,NaN,keyboard,keyboard,c100,0480_cop_dnn_c100_keyboard_10_n03085013_11332.png,n03085013_11332.png,1.0,8.745884,0.44433704,5.8700805
alexnet_w1_mlp_simclrhn_probe1,1,481,NaN,oven,oven,c05,0481_cop_dnn_c05_oven_10_n04111531_6863.png,n04111531_6863.png,1.0,-0.6792159,-0.83194625,0.107996665
alexnet_w1_mlp_simclrhn_probe1,1,482,NaN,airplane,airplane,c50,0482_cop_dnn_c50_airplane_10_n02690373_2675.png,n02690373_2675.png,1.0,1.249967,0.24370718,0.7115331
alexnet_w1_mlp_simclrhn_probe1,1,483,NaN,clock,dog,c01,0483_cop_dnn_c01_dog_10_n02106550_660.png,n02106550_660.png,0.0,-1.2629408,-0.33673862,-0.65492386
alexnet_w1_mlp_simclrhn_probe1,1,484,NaN,knife,knife,c15,0484_cop_dnn_c15_knife_10_n03041632_11700.png,n03041632_11700.png,1.0,-0.02597364,-0.30145538,0.194795
alexnet_w1_mlp_simclrhn_probe1,1,485,NaN,bird,bird,c15,0485_cop_dnn_c15_bird_10_n02009229_6149.png,n02009229_6149.png,1.0,-0.15282337,-1.691585,1.0880688
alexnet_w1_mlp_simclrhn_probe1,1,486,NaN,keyboard,clock,c30,0486_cop_dnn_c30_clock_10_n03196217_3780.png,n03196217_3780.png,0.0,0.40387532,0.8474989,-0.31368923
alexnet_w1_mlp_simclrhn_probe1,1,487,NaN,bird,bird,c100,0487_cop_dnn_c100_bird_10_n01530575_34173.png,n01530575_34173.png,1.0,5.974968,-7.546467,9.561098
alexnet_w1_mlp_simclrhn_probe1,1,488,NaN,bottle,bottle,c100,0488_cop_dnn_c100_bottle_10_n03983396_17803.png,n03983396_17803.png,1.0,11.09458,-4.8733788,11.291052
alexnet_w1_mlp_simclrhn_probe1,1,489,NaN,elephant,oven,c05,0489_cop_dnn_c05_oven_10_n04111531_2156.png,n04111531_2156.png,0.0,-0.8925984,-0.644238,-0.17561732
alexnet_w1_mlp_simclrhn_probe1,1,490,NaN,elephant,elephant,c10,0490_cop_dnn_c10_elephant_10_n02504013_14948.png,n02504013_14948.png,1.0,2.0522985,-0.53733855,1.8311499
alexnet_w1_mlp_simclrhn_probe1,1,491,NaN,airplane,boat,c01,0491_cop_dnn_c01_boat_10_n04273569_3112.png,n04273569_3112.png,0.0,-0.6993407,-0.27709305,-0.29857418
alexnet_w1_mlp_simclrhn_probe1,1,492,NaN,bird,bird,c50,0492_cop_dnn_c50_bird_10_n01560419_6583.png,n01560419_6583.png,1.0,1.0030153,-3.448724,3.147855
alexnet_w1_mlp_simclrhn_probe1,1,493,NaN,keyboard,keyboard,c50,0493_cop_dnn_c50_keyboard_10_n03085013_19161.png,n03085013_19161.png,1.0,1.0450811,-0.514507,1.1027954
alexnet_w1_mlp_simclrhn_probe1,1,494,NaN,airplane,bird,c05,0494_cop_dnn_c05_bird_10_n01616318_57023.png,n01616318_57023.png,0.0,-1.0139294,-0.3932178,-0.43890935
alexnet_w1_mlp_simclrhn_probe1,1,495,NaN,truck,truck,c50,0495_cop_dnn_c50_truck_10_n04467665_69176.png,n04467665_69176.png,1.0,0.73544466,0.4107238,0.22961232
alexnet_w1_mlp_simclrhn_probe1,1,496,NaN,car,car,c50,0496_cop_dnn_c50_car_10_n03100240_4971.png,n03100240_4971.png,1.0,5.8559456,3.3750434,1.7542628
alexnet_w1_mlp_simclrhn_probe1,1,497,NaN,airplane,oven,c01,0497_cop_dnn_c01_oven_10_n04111531_4901.png,n04111531_4901.png,0.0,-1.1389816,-0.45464104,-0.48390183
alexnet_w1_mlp_simclrhn_probe1,1,498,NaN,bear,bear,c30,0498_cop_dnn_c30_bear_10_n02133161_4091.png,n02133161_4091.png,1.0,1.4725461,0.12093681,0.95573205
alexnet_w1_mlp_simclrhn_probe1,1,499,NaN,bear,cat,c03,0499_cop_dnn_c03_cat_10_n02123394_4164.png,n02123394_4164.png,0.0,-0.634489,-0.57318056,-0.043351617
alexnet_w1_mlp_simclrhn_probe1,1,500,NaN,bird,bird,c03,0500_cop_dnn_c03_bird_10_n02017213_689.png,n02017213_689.png,1.0,-0.4819986,-0.607589,0.08880583
alexnet_w1_mlp_simclrhn_probe1,1,501,NaN,dog,dog,c100,0501_cop_dnn_c100_dog_10_n02109047_14207.png,n02109047_14207.png,1.0,-1.5562799,-4.6668005,2.1994703
alexnet_w1_mlp_simclrhn_probe1,1,502,NaN,elephant,elephant,c05,0502_cop_dnn_c05_elephant_10_n02504013_8347.png,n02504013_8347.png,1.0,0.15136126,-0.71074057,0.60959804
alexnet_w1_mlp_simclrhn_probe1,1,503,NaN,bottle,bottle,c30,0503_cop_dnn_c30_bottle_10_n04591713_1652.png,n04591713_1652.png,1.0,0.5288065,-0.5886172,0.79013795
alexnet_w1_mlp_simclrhn_probe1,1,504,NaN,oven,oven,c15,0504_cop_dnn_c15_oven_10_n04111531_22403.png,n04111531_22403.png,1.0,0.24471107,-1.1583511,0.9921147
alexnet_w1_mlp_simclrhn_probe1,1,505,NaN,airplane,airplane,c100,0505_cop_dnn_c100_airplane_10_n02690373_6046.png,n02690373_6046.png,1.0,17.439404,-2.0687208,13.794328
alexnet_w1_mlp_simclrhn_probe1,1,506,NaN,bear,bear,c15,0506_cop_dnn_c15_bear_10_n02134084_1689.png,n02134084_1689.png,1.0,-0.26908332,-0.52731025,0.18259402
alexnet_w1_mlp_simclrhn_probe1,1,507,NaN,oven,oven,c30,0507_cop_dnn_c30_oven_10_n04111531_14269.png,n04111531_14269.png,1.0,2.068636,-0.075855404,1.5163845
alexnet_w1_mlp_simclrhn_probe1,1,508,NaN,cat,cat,c100,0508_cop_dnn_c100_cat_10_n02123597_9444.png,n02123597_9444.png,1.0,3.4020622,-1.3018193,3.3261464
alexnet_w1_mlp_simclrhn_probe1,1,509,NaN,bear,bear,c10,0509_cop_dnn_c10_bear_10_n02134418_128.png,n02134418_128.png,1.0,1.3047957,0.24267763,0.75103086
alexnet_w1_mlp_simclrhn_probe1,1,510,NaN,airplane,airplane,c30,0510_cop_dnn_c30_airplane_10_n02690373_8789.png,n02690373_8789.png,1.0,5.2497025,0.7601517,3.1745918
alexnet_w1_mlp_simclrhn_probe1,1,511,NaN,clock,bottle,c01,0511_cop_dnn_c01_bottle_10_n03937543_10092.png,n03937543_10092.png,0.0,-0.9679306,-0.46593294,-0.35496598
alexnet_w1_mlp_simclrhn_probe1,1,512,NaN,clock,clock,c03,0512_cop_dnn_c03_clock_10_n02708093_7257.png,n02708093_7257.png,1.0,0.4559661,-0.40408197,0.60814583
alexnet_w1_mlp_simclrhn_probe1,1,513,NaN,bear,bear,c100,0513_cop_dnn_c100_bear_10_n02134084_21207.png,n02134084_21207.png,1.0,0.659915,-0.7511767,0.99779254
alexnet_w1_mlp_simclrhn_probe1,1,514,NaN,bird,bird,c05,0514_cop_dnn_c05_bird_10_n01797886_12811.png,n01797886_12811.png,1.0,-0.4496773,-1.0162312,0.4006141
alexnet_w1_mlp_simclrhn_probe1,1,515,NaN,airplane,oven,c01,0515_cop_dnn_c01_oven_10_n04111531_21248.png,n04111531_21248.png,0.0,-1.2723973,-0.6734917,-0.4234902
alexnet_w1_mlp_simclrhn_probe1,1,516,NaN,elephant,dog,c15,0516_cop_dnn_c15_dog_10_n02090379_5574.png,n02090379_5574.png,0.0,-1.0168,-1.015773,-0.0007261902
alexnet_w1_mlp_simclrhn_probe1,1,517,NaN,car,car,c15,0517_cop_dnn_c15_car_10_n04285008_8443.png,n04285008_8443.png,1.0,2.7134216,1.0827993,1.1530241
alexnet_w1_mlp_simclrhn_probe1,1,518,NaN,car,car,c100,0518_cop_dnn_c100_car_10_n03100240_15647.png,n03100240_15647.png,1.0,5.502995,2.5430737,2.0929804
alexnet_w1_mlp_simclrhn_probe1,1,519,NaN,chair,chair,c50,0519_cop_dnn_c50_chair_10_n02791124_5824.png,n02791124_5824.png,1.0,0.7497685,-1.8406764,1.8317213
alexnet_w1_mlp_simclrhn_probe1,1,520,NaN,bear,bear,c05,0520_cop_dnn_c05_bear_10_n02133161_9949.png,n02133161_9949.png,1.0,-0.48304963,-0.6375734,0.10926482
alexnet_w1_mlp_simclrhn_probe1,1,521,NaN,elephant,elephant,c03,0521_cop_dnn_c03_elephant_10_n02504458_5320.png,n02504458_5320.png,1.0,-0.5555898,-0.71811104,0.11491988
alexnet_w1_mlp_simclrhn_probe1,1,522,NaN,clock,keyboard,c01,0522_cop_dnn_c01_keyboard_10_n04505470_1904.png,n04505470_1904.png,0.0,-0.6778795,-0.3812622,-0.2097401
alexnet_w1_mlp_simclrhn_probe1,1,523,NaN,oven,oven,c100,0523_cop_dnn_c100_oven_10_n04111531_4685.png,n04111531_4685.png,1.0,5.4748526,-4.097323,6.768551
alexnet_w1_mlp_simclrhn_probe1,1,524,NaN,truck,truck,c05,0524_cop_dnn_c05_truck_10_n03417042_2230.png,n03417042_2230.png,1.0,0.08118753,-0.14374313,0.15905
alexnet_w1_mlp_simclrhn_probe1,1,525,NaN,knife,bottle,c15,0525_cop_dnn_c15_bottle_10_n04591713_6842.png,n04591713_6842.png,0.0,-0.72443855,-0.63651615,-0.06217052
alexnet_w1_mlp_simclrhn_probe1,1,526,NaN,boat,boat,c50,0526_cop_dnn_c50_boat_10_n02951358_8285.png,n02951358_8285.png,1.0,-0.48801136,-0.9348292,0.31594792
alexnet_w1_mlp_simclrhn_probe1,1,527,NaN,knife,knife,c01,0527_cop_dnn_c01_knife_10_n03041632_48675.png,n03041632_48675.png,1.0,-0.39428753,-0.4587368,0.045572523
alexnet_w1_mlp_simclrhn_probe1,1,528,NaN,airplane,oven,c01,0528_cop_dnn_c01_oven_10_n04111531_14435.png,n04111531_14435.png,0.0,-1.2998749,-0.542338,-0.5356595
alexnet_w1_mlp_simclrhn_probe1,1,529,NaN,cat,cat,c50,0529_cop_dnn_c50_cat_10_n02123159_8273.png,n02123159_8273.png,1.0,3.7381032,-4.5428457,5.855515
alexnet_w1_mlp_simclrhn_probe1,1,530,NaN,bird,bird,c50,0530_cop_dnn_c50_bird_10_n01614925_1908.png,n01614925_1908.png,1.0,-0.6921963,-2.905659,1.5651544
alexnet_w1_mlp_simclrhn_probe1,1,531,NaN,knife,knife,c05,0531_cop_dnn_c05_knife_10_n03041632_96345.png,n03041632_96345.png,1.0,-0.677799,-0.91960996,0.17098619
alexnet_w1_mlp_simclrhn_probe1,1,532,NaN,knife,knife,c10,0532_cop_dnn_c10_knife_10_n03041632_31037.png,n03041632_31037.png,1.0,-0.30779782,-1.1497542,0.59535307
alexnet_w1_mlp_simclrhn_probe1,1,533,NaN,airplane,airplane,c50,0533_cop_dnn_c50_airplane_10_n02690373_1436.png,n02690373_1436.png,1.0,2.3682342,-0.9258411,2.329263
alexnet_w1_mlp_simclrhn_probe1,1,534,NaN,chair,chair,c100,0534_cop_dnn_c100_chair_10_n04099969_28072.png,n04099969_28072.png,1.0,2.9099116,-0.34685433,2.3028812
alexnet_w1_mlp_simclrhn_probe1,1,535,NaN,knife,boat,c01,0535_cop_dnn_c01_boat_10_n04612504_19983.png,n04612504_19983.png,0.0,-0.6155523,-0.38367963,-0.16395874
alexnet_w1_mlp_simclrhn_probe1,1,536,NaN,oven,oven,c15,0536_cop_dnn_c15_oven_10_n04111531_8255.png,n04111531_8255.png,1.0,-0.3284365,-0.35800278,0.020906523
alexnet_w1_mlp_simclrhn_probe1,1,537,NaN,elephant,bear,c15,0537_cop_dnn_c15_bear_10_n02132136_1574.png,n02132136_1574.png,0.0,0.17809787,1.0111456,-0.58905375
alexnet_w1_mlp_simclrhn_probe1,1,538,NaN,boat,boat,c100,0538_cop_dnn_c100_boat_10_n04273569_24747.png,n04273569_24747.png,1.0,0.90472543,-1.49463,1.6966006
alexnet_w1_mlp_simclrhn_probe1,1,539,NaN,dog,dog,c30,0539_cop_dnn_c30_dog_10_n02113799_18413.png,n02113799_18413.png,1.0,-0.53532416,-1.0605066,0.37136006
alexnet_w1_mlp_simclrhn_probe1,1,540,NaN,boat,boat,c15,0540_cop_dnn_c15_boat_10_n04273569_28333.png,n04273569_28333.png,1.0,1.3309014,-0.79780895,1.5052255
alexnet_w1_mlp_simclrhn_probe1,1,541,NaN,clock,bird,c01,0541_cop_dnn_c01_bird_10_n02017213_2183.png,n02017213_2183.png,0.0,-0.7455326,-0.53152007,-0.1513297
alexnet_w1_mlp_simclrhn_probe1,1,542,NaN,boat,boat,c50,0542_cop_dnn_c50_boat_10_n04273569_26139.png,n04273569_26139.png,1.0,1.9716513,1.3996092,0.40449485
alexnet_w1_mlp_simclrhn_probe1,1,543,NaN,knife,knife,c03,0543_cop_dnn_c03_knife_10_n03041632_29684.png,n03041632_29684.png,1.0,-0.15539609,-0.4066021,0.1776295
alexnet_w1_mlp_simclrhn_probe1,1,544,NaN,boat,boat,c100,0544_cop_dnn_c100_boat_10_n02951358_3087.png,n02951358_3087.png,1.0,-1.4583666,-1.6045356,0.103357054
alexnet_w1_mlp_simclrhn_probe1,1,545,NaN,keyboard,keyboard,c15,0545_cop_dnn_c15_keyboard_10_n03085013_13615.png,n03085013_13615.png,1.0,0.85185945,-0.052410264,0.63941526
alexnet_w1_mlp_simclrhn_probe1,1,546,NaN,clock,oven,c03,0546_cop_dnn_c03_oven_10_n04111531_1778.png,n04111531_1778.png,0.0,-0.89870435,-0.83636016,-0.044084
alexnet_w1_mlp_simclrhn_probe1,1,547,NaN,knife,dog,c03,0547_cop_dnn_c03_dog_10_n02097474_9129.png,n02097474_9129.png,0.0,-1.0443696,-0.545485,-0.35276467
alexnet_w1_mlp_simclrhn_probe1,1,548,NaN,bird,bird,c30,0548_cop_dnn_c30_bird_10_n02013706_19220.png,n02013706_19220.png,1.0,1.9468149,-3.4666889,3.8279252
alexnet_w1_mlp_simclrhn_probe1,1,549,NaN,keyboard,clock,c100,0549_cop_dnn_c100_clock_10_n03196217_7199.png,n03196217_7199.png,0.0,1.6740632,1.907626,-0.16515386
alexnet_w1_mlp_simclrhn_probe1,1,550,NaN,bear,bear,c50,0550_cop_dnn_c50_bear_10_n02132136_27823.png,n02132136_27823.png,1.0,3.8247323,2.1007276,1.2190554
alexnet_w1_mlp_simclrhn_probe1,1,551,NaN,airplane,boat,c03,0551_cop_dnn_c03_boat_10_n03662601_6462.png,n03662601_6462.png,0.0,-0.45389882,-0.42337203,-0.0215857
alexnet_w1_mlp_simclrhn_probe1,1,552,NaN,clock,knife,c15,0552_cop_dnn_c15_knife_10_n03041632_11773.png,n03041632_11773.png,0.0,-1.0837507,-0.64920825,-0.30726793
alexnet_w1_mlp_simclrhn_probe1,1,553,NaN,clock,clock,c01,0553_cop_dnn_c01_clock_10_n02708093_7998.png,n02708093_7998.png,1.0,-0.27292755,-0.42812797,0.109743275
alexnet_w1_mlp_simclrhn_probe1,1,554,NaN,elephant,elephant,c30,0554_cop_dnn_c30_elephant_10_n02504458_3409.png,n02504458_3409.png,1.0,5.1598744,0.043411836,3.6178856
alexnet_w1_mlp_simclrhn_probe1,1,555,NaN,clock,bottle,c01,0555_cop_dnn_c01_bottle_10_n04560804_24166.png,n04560804_24166.png,0.0,-0.695002,-0.5648468,-0.09203363
alexnet_w1_mlp_simclrhn_probe1,1,556,NaN,elephant,cat,c15,0556_cop_dnn_c15_cat_10_n02125311_17613.png,n02125311_17613.png,0.0,0.13288158,0.29507202,-0.11468596
alexnet_w1_mlp_simclrhn_probe1,1,557,NaN,airplane,bicycle,c05,0557_cop_dnn_c05_bicycle_10_n03792782_5284.png,n03792782_5284.png,0.0,-0.49535805,-0.40108314,-0.06666243
alexnet_w1_mlp_simclrhn_probe1,1,558,NaN,chair,oven,c10,0558_cop_dnn_c10_oven_10_n04111531_13006.png,n04111531_13006.png,0.0,-0.49006993,-0.3043043,-0.13135614
alexnet_w1_mlp_simclrhn_probe1,1,559,NaN,oven,oven,c10,0559_cop_dnn_c10_oven_10_n04111531_8309.png,n04111531_8309.png,1.0,-0.47059977,-0.7241457,0.17928405
alexnet_w1_mlp_simclrhn_probe1,1,560,NaN,clock,clock,c10,0560_cop_dnn_c10_clock_10_n04548280_8390.png,n04548280_8390.png,1.0,-0.387006,-1.0552256,0.4725026
alexnet_w1_mlp_simclrhn_probe1,1,561,NaN,truck,truck,c50,0561_cop_dnn_c50_truck_10_n04467665_7110.png,n04467665_7110.png,1.0,3.0384252,0.48303333,1.806935
alexnet_w1_mlp_simclrhn_probe1,1,562,NaN,clock,clock,c10,0562_cop_dnn_c10_clock_10_n03196217_8020.png,n03196217_8020.png,1.0,-0.27099407,-0.37308526,0.072189376
alexnet_w1_mlp_simclrhn_probe1,1,563,NaN,elephant,elephant,c100,0563_cop_dnn_c100_elephant_10_n02504458_7955.png,n02504458_7955.png,1.0,13.528156,0.73162276,9.048516
alexnet_w1_mlp_simclrhn_probe1,1,564,NaN,knife,elephant,c01,0564_cop_dnn_c01_elephant_10_n02504458_1022.png,n02504458_1022.png,0.0,-0.7002731,-0.42152882,-0.19710198
alexnet_w1_mlp_simclrhn_probe1,1,565,NaN,clock,clock,c100,0565_cop_dnn_c100_clock_10_n04548280_2383.png,n04548280_2383.png,1.0,3.0229578,0.20743434,1.9908757
alexnet_w1_mlp_simclrhn_probe1,1,566,NaN,bird,bird,c50,0566_cop_dnn_c50_bird_10_n02002724_7019.png,n02002724_7019.png,1.0,0.9565906,-3.6379673,3.248843
alexnet_w1_mlp_simclrhn_probe1,1,567,NaN,cat,cat,c100,0567_cop_dnn_c100_cat_10_n02125311_1127.png,n02125311_1127.png,1.0,1.7229605,-2.1770625,2.7577326
alexnet_w1_mlp_simclrhn_probe1,1,568,NaN,bottle,bicycle,c05,0568_cop_dnn_c05_bicycle_10_n02835271_6481.png,n02835271_6481.png,0.0,-1.4949706,-0.70632756,-0.5576548
alexnet_w1_mlp_simclrhn_probe1,1,569,NaN,car,car,c15,0569_cop_dnn_c15_car_10_n04285008_5208.png,n04285008_5208.png,1.0,1.4984688,0.8938917,0.42750055
alexnet_w1_mlp_simclrhn_probe1,1,570,NaN,keyboard,oven,c50,0570_cop_dnn_c50_oven_10_n04111531_8658.png,n04111531_8658.png,0.0,-1.0942161,0.09393873,-0.8401523
alexnet_w1_mlp_simclrhn_probe1,1,571,NaN,bottle,bottle,c05,0571_cop_dnn_c05_bottle_10_n04579145_2910.png,n04579145_2910.png,1.0,-0.43974718,-0.52519035,0.060417444
alexnet_w1_mlp_simclrhn_probe1,1,572,NaN,clock,truck,c01,0572_cop_dnn_c01_truck_10_n04467665_22414.png,n04467665_22414.png,0.0,-1.2641416,-0.30762982,-0.67635596
alexnet_w1_mlp_simclrhn_probe1,1,573,NaN,elephant,elephant,c15,0573_cop_dnn_c15_elephant_10_n02504013_5439.png,n02504013_5439.png,1.0,0.6793912,0.062281534,0.43636242
alexnet_w1_mlp_simclrhn_probe1,1,574,NaN,cat,cat,c10,0574_cop_dnn_c10_cat_10_n02123159_5945.png,n02123159_5945.png,1.0,0.5190898,-1.4898487,1.4205341
alexnet_w1_mlp_simclrhn_probe1,1,575,NaN,bottle,bottle,c10,0575_cop_dnn_c10_bottle_10_n04557648_2426.png,n04557648_2426.png,1.0,0.01492657,-0.6363723,0.46053785
alexnet_w1_mlp_simclrhn_probe1,1,576,NaN,bicycle,bicycle,c05,0576_cop_dnn_c05_bicycle_10_n03792782_38641.png,n03792782_38641.png,1.0,0.09321143,-0.5114686,0.42757332
alexnet_w1_mlp_simclrhn_probe1,1,577,NaN,cat,dog,c30,0577_cop_dnn_c30_dog_10_n02110958_15843.png,n02110958_15843.png,0.0,-1.3734868,-1.0975968,-0.1950837
alexnet_w1_mlp_simclrhn_probe1,1,578,NaN,keyboard,keyboard,c15,0578_cop_dnn_c15_keyboard_10_n04505470_5161.png,n04505470_5161.png,1.0,1.55758,-0.927549,1.7572515
alexnet_w1_mlp_simclrhn_probe1,1,579,NaN,airplane,airplane,c30,0579_cop_dnn_c30_airplane_10_n02690373_8350.png,n02690373_8350.png,1.0,2.489014,0.09568343,1.6923403
alexnet_w1_mlp_simclrhn_probe1,1,580,NaN,airplane,bicycle,c05,0580_cop_dnn_c05_bicycle_10_n03792782_10129.png,n03792782_10129.png,0.0,-0.61427355,-0.27690658,-0.23855448
alexnet_w1_mlp_simclrhn_probe1,1,581,NaN,car,car,c100,0581_cop_dnn_c100_car_10_n02814533_26369.png,n02814533_26369.png,1.0,1.6005939,-0.695172,1.6233517
alexnet_w1_mlp_simclrhn_probe1,1,582,NaN,oven,oven,c10,0582_cop_dnn_c10_oven_10_n04111531_10077.png,n04111531_10077.png,1.0,0.71028054,-0.34732303,0.7478387
alexnet_w1_mlp_simclrhn_probe1,1,583,NaN,knife,oven,c01,0583_cop_dnn_c01_oven_10_n04111531_12702.png,n04111531_12702.png,0.0,-0.83480215,-0.52962995,-0.21578933
alexnet_w1_mlp_simclrhn_probe1,1,584,NaN,clock,clock,c100,0584_cop_dnn_c100_clock_10_n03196217_8618.png,n03196217_8618.png,1.0,0.72581387,0.021136865,0.4982819
alexnet_w1_mlp_simclrhn_probe1,1,585,NaN,bottle,bottle,c10,0585_cop_dnn_c10_bottle_10_n03983396_4227.png,n03983396_4227.png,1.0,0.024383474,-0.96119416,0.69690865
alexnet_w1_mlp_simclrhn_probe1,1,586,NaN,bottle,bottle,c30,0586_cop_dnn_c30_bottle_10_n03983396_9090.png,n03983396_9090.png,1.0,0.41544357,0.03797043,0.26691383
alexnet_w1_mlp_simclrhn_probe1,1,587,NaN,bear,bear,c100,0587_cop_dnn_c100_bear_10_n02133161_223.png,n02133161_223.png,1.0,1.1482104,0.5413742,0.429098
alexnet_w1_mlp_simclrhn_probe1,1,588,NaN,keyboard,keyboard,c50,0588_cop_dnn_c50_keyboard_10_n04505470_1047.png,n04505470_1047.png,1.0,2.5844219,-1.2468837,2.7091422
alexnet_w1_mlp_simclrhn_probe1,1,589,NaN,knife,elephant,c03,0589_cop_dnn_c03_elephant_10_n02504013_7467.png,n02504013_7467.png,0.0,-0.7118368,-0.6221744,-0.06340092
alexnet_w1_mlp_simclrhn_probe1,1,590,NaN,elephant,elephant,c30,0590_cop_dnn_c30_elephant_10_n02504013_476.png,n02504013_476.png,1.0,1.9464453,-0.012786761,1.3853863
alexnet_w1_mlp_simclrhn_probe1,1,591,NaN,chair,chair,c100,0591_cop_dnn_c100_chair_10_n02791124_12707.png,n02791124_12707.png,1.0,0.81307644,-0.002269797,0.5765369
alexnet_w1_mlp_simclrhn_probe1,1,592,NaN,airplane,bird,c01,0592_cop_dnn_c01_bird_10_n01537544_22049.png,n01537544_22049.png,0.0,-0.58631444,-0.49791586,-0.062507235
alexnet_w1_mlp_simclrhn_probe1,1,593,NaN,chair,bicycle,c05,0593_cop_dnn_c05_bicycle_10_n02835271_4220.png,n02835271_4220.png,0.0,-0.6899714,-0.6703221,-0.0138941305
alexnet_w1_mlp_simclrhn_probe1,1,594,NaN,chair,truck,c10,0594_cop_dnn_c10_truck_10_n03417042_7530.png,n03417042_7530.png,0.0,-0.11295991,-0.071675524,-0.029192466
alexnet_w1_mlp_simclrhn_probe1,1,595,NaN,knife,bear,c03,0595_cop_dnn_c03_bear_10_n02134418_12457.png,n02134418_12457.png,0.0,-0.7700809,-0.62780887,-0.10060154
alexnet_w1_mlp_simclrhn_probe1,1,596,NaN,bottle,bottle,c50,0596_cop_dnn_c50_bottle_10_n04557648_10265.png,n04557648_10265.png,1.0,1.5512115,-1.314435,2.026318
alexnet_w1_mlp_simclrhn_probe1,1,597,NaN,clock,clock,c15,0597_cop_dnn_c15_clock_10_n02708093_2025.png,n02708093_2025.png,1.0,0.29533362,-0.7145529,0.7140976
alexnet_w1_mlp_simclrhn_probe1,1,598,NaN,bicycle,chair,c15,0598_cop_dnn_c15_chair_10_n03376595_1961.png,n03376595_1961.png,0.0,-0.53329945,0.07040522,-0.4268837
alexnet_w1_mlp_simclrhn_probe1,1,599,NaN,bear,bear,c05,0599_cop_dnn_c05_bear_10_n02134084_67.png,n02134084_67.png,1.0,-0.022144381,-0.25457802,0.16435541
alexnet_w1_mlp_simclrhn_probe1,1,600,NaN,cat,cat,c50,0600_cop_dnn_c50_cat_10_n02123045_455.png,n02123045_455.png,1.0,4.4399066,-3.2614708,5.4456964
alexnet_w1_mlp_simclrhn_probe1,1,601,NaN,car,car,c10,0601_cop_dnn_c10_car_10_n03100240_13929.png,n03100240_13929.png,1.0,0.89351344,0.31554776,0.40868345
alexnet_w1_mlp_simclrhn_probe1,1,602,NaN,elephant,elephant,c10,0602_cop_dnn_c10_elephant_10_n02504458_4997.png,n02504458_4997.png,1.0,0.9912388,-0.79424,1.2625242
alexnet_w1_mlp_simclrhn_probe1,1,603,NaN,airplane,airplane,c10,0603_cop_dnn_c10_airplane_10_n02690373_5344.png,n02690373_5344.png,1.0,0.77491784,0.061356492,0.5045641
alexnet_w1_mlp_simclrhn_probe1,1,604,NaN,airplane,oven,c01,0604_cop_dnn_c01_oven_10_n04111531_797.png,n04111531_797.png,0.0,-1.0515475,-0.37136656,-0.48096058
alexnet_w1_mlp_simclrhn_probe1,1,605,NaN,boat,boat,c30,0605_cop_dnn_c30_boat_10_n04273569_3085.png,n04273569_3085.png,1.0,2.7583761,0.6246566,1.5087675
alexnet_w1_mlp_simclrhn_probe1,1,606,NaN,oven,oven,c100,0606_cop_dnn_c100_oven_10_n04111531_9113.png,n04111531_9113.png,1.0,6.485349,-2.5207298,6.3682594
alexnet_w1_mlp_simclrhn_probe1,1,607,NaN,boat,boat,c03,0607_cop_dnn_c03_boat_10_n03662601_18803.png,n03662601_18803.png,1.0,-0.22933128,-0.31637913,0.061552122
alexnet_w1_mlp_simclrhn_probe1,1,608,NaN,knife,truck,c03,0608_cop_dnn_c03_truck_10_n04467665_30581.png,n04467665_30581.png,0.0,-1.4199333,-0.527032,-0.63137656
alexnet_w1_mlp_simclrhn_probe1,1,609,NaN,elephant,elephant,c30,0609_cop_dnn_c30_elephant_10_n02504013_5237.png,n02504013_5237.png,1.0,2.7574358,0.32268596,1.7216282
alexnet_w1_mlp_simclrhn_probe1,1,610,NaN,keyboard,keyboard,c100,0610_cop_dnn_c100_keyboard_10_n03085013_12175.png,n03085013_12175.png,1.0,7.6633673,-0.851303,6.020781
alexnet_w1_mlp_simclrhn_probe1,1,611,NaN,chair,chair,c30,0611_cop_dnn_c30_chair_10_n02791124_5401.png,n02791124_5401.png,1.0,1.713871,-0.8885697,1.8402036
alexnet_w1_mlp_simclrhn_probe1,1,612,NaN,boat,boat,c50,0612_cop_dnn_c50_boat_10_n02951358_22332.png,n02951358_22332.png,1.0,2.8974261,-0.8824252,2.6727586
alexnet_w1_mlp_simclrhn_probe1,1,613,NaN,knife,knife,c03,0613_cop_dnn_c03_knife_10_n03041632_11932.png,n03041632_11932.png,1.0,-0.15772071,-0.19840986,0.028771568
alexnet_w1_mlp_simclrhn_probe1,1,614,NaN,cat,cat,c30,0614_cop_dnn_c30_cat_10_n02123159_5257.png,n02123159_5257.png,1.0,0.43567035,-0.70787674,0.8086099
alexnet_w1_mlp_simclrhn_probe1,1,615,NaN,bottle,bottle,c50,0615_cop_dnn_c50_bottle_10_n03983396_105.png,n03983396_105.png,1.0,2.1046734,-0.95843506,2.1659448
alexnet_w1_mlp_simclrhn_probe1,1,616,NaN,boat,boat,c50,0616_cop_dnn_c50_boat_10_n04612504_11939.png,n04612504_11939.png,1.0,2.867791,-0.9614023,2.7076485
alexnet_w1_mlp_simclrhn_probe1,1,617,NaN,boat,boat,c30,0617_cop_dnn_c30_boat_10_n03662601_5575.png,n03662601_5575.png,1.0,0.6835265,-0.3720141,0.7463799
alexnet_w1_mlp_simclrhn_probe1,1,618,NaN,cat,cat,c05,0618_cop_dnn_c05_cat_10_n02123159_6590.png,n02123159_6590.png,1.0,-0.17215718,-0.25668836,0.059772566
alexnet_w1_mlp_simclrhn_probe1,1,619,NaN,bear,bear,c50,0619_cop_dnn_c50_bear_10_n02134084_21462.png,n02134084_21462.png,1.0,-0.4003831,-1.6834401,0.90725833
alexnet_w1_mlp_simclrhn_probe1,1,620,NaN,cat,cat,c05,0620_cop_dnn_c05_cat_10_n02125311_46330.png,n02125311_46330.png,1.0,-0.36061642,-0.61882466,0.1825808
alexnet_w1_mlp_simclrhn_probe1,1,621,NaN,clock,cat,c01,0621_cop_dnn_c01_cat_10_n02123394_4714.png,n02123394_4714.png,0.0,-0.8151176,-0.41944388,-0.27978358
alexnet_w1_mlp_simclrhn_probe1,1,622,NaN,knife,knife,c30,0622_cop_dnn_c30_knife_10_n03041632_1671.png,n03041632_1671.png,1.0,-0.33623078,-1.8829154,1.0936712
alexnet_w1_mlp_simclrhn_probe1,1,623,NaN,truck,truck,c50,0623_cop_dnn_c50_truck_10_n04467665_30901.png,n04467665_30901.png,1.0,1.8126528,1.4900357,0.2281248
