subj,session,trial,rt,object_response,category,condition,imagename,filename,is_correct,targ_act,max_nontarg_act,decision_margin
bagnet33,1,1,NaN,knife,knife,true,0001_fc_dnn_true_knife_35_n03041632_86251.png,n03041632_86251.png,1.0,19.54702,5.230869,10.123048
bagnet33,1,2,NaN,car,car,false,0002_fc_dnn_false_car_35_n03100240_16866.png,n03100240_16866.png,1.0,11.988463,7.903309,2.8886404
bagnet33,1,3,NaN,airplane,keyboard,false,0003_fc_dnn_false_keyboard_35_n03085013_21127.png,n03085013_21127.png,0.0,2.990425,6.9523153,-2.8014796
bagnet33,1,4,NaN,truck,truck,true,0004_fc_dnn_true_truck_35_n03417042_10694.png,n03417042_10694.png,1.0,16.268938,5.872743,7.3512197
bagnet33,1,5,NaN,bird,bird,true,0005_fc_dnn_true_bird_35_n01614925_1962.png,n01614925_1962.png,1.0,9.695196,3.06185,4.690484
bagnet33,1,6,NaN,knife,knife,false,0006_fc_dnn_false_knife_35_n03041632_99875.png,n03041632_99875.png,1.0,4.702654,2.8139024,1.335549
bagnet33,1,7,NaN,bicycle,bicycle,true,0007_fc_dnn_true_bicycle_35_n03792782_14935.png,n03792782_14935.png,1.0,8.676374,3.020673,3.999185
bagnet33,1,8,NaN,elephant,elephant,false,0008_fc_dnn_false_elephant_35_n02504013_5027.png,n02504013_5027.png,1.0,8.707126,2.8771567,4.122411
bagnet33,1,9,NaN,cat,dog,false,0009_fc_dnn_false_dog_35_n02090721_129.png,n02090721_129.png,0.0,1.2400274,3.519024,-1.6114938
bagnet33,1,10,NaN,airplane,airplane,true,0010_fc_dnn_true_airplane_35_n02690373_9241.png,n02690373_9241.png,1.0,29.352299,7.0608635,15.762425
bagnet33,1,11,NaN,truck,truck,true,0011_fc_dnn_true_truck_35_n04467665_62080.png,n04467665_62080.png,1.0,19.356993,12.810361,4.629168
bagnet33,1,12,NaN,keyboard,keyboard,true,0012_fc_dnn_true_keyboard_35_n04505470_2669.png,n04505470_2669.png,1.0,10.438787,5.919938,3.1953092
bagnet33,1,13,NaN,oven,oven,false,0013_fc_dnn_false_oven_35_n04111531_688.png,n04111531_688.png,1.0,4.8388004,0.9208031,2.7704425
bagnet33,1,14,NaN,car,car,true,0014_fc_dnn_true_car_35_n03100240_21982.png,n03100240_21982.png,1.0,17.517176,13.137218,3.0970974
bagnet33,1,15,NaN,bicycle,bicycle,true,0015_fc_dnn_true_bicycle_35_n02835271_4191.png,n02835271_4191.png,1.0,14.427816,3.2043972,7.936156
bagnet33,1,16,NaN,car,car,true,0016_fc_dnn_true_car_35_n02814533_25278.png,n02814533_25278.png,1.0,21.665277,15.875367,4.0940847
bagnet33,1,17,NaN,knife,knife,false,0017_fc_dnn_false_knife_35_n03041632_23087.png,n03041632_23087.png,1.0,8.070627,7.144659,0.6547584
bagnet33,1,18,NaN,clock,clock,true,0018_fc_dnn_true_clock_35_n03196217_11252.png,n03196217_11252.png,1.0,27.55745,5.8793335,15.328743
bagnet33,1,19,NaN,boat,boat,false,0019_fc_dnn_false_boat_35_n04273569_2040.png,n04273569_2040.png,1.0,10.306601,5.090581,3.688283
bagnet33,1,20,NaN,knife,knife,true,0020_fc_dnn_true_knife_35_n03041632_84869.png,n03041632_84869.png,1.0,17.114647,4.5565357,8.879926
bagnet33,1,21,NaN,clock,clock,true,0021_fc_dnn_true_clock_35_n04548280_503.png,n04548280_503.png,1.0,24.677473,5.626019,13.471413
bagnet33,1,22,NaN,truck,truck,false,0022_fc_dnn_false_truck_35_n03417042_10654.png,n03417042_10654.png,1.0,9.263155,6.132533,2.213684
bagnet33,1,23,NaN,boat,boat,true,0023_fc_dnn_true_boat_35_n03344393_2919.png,n03344393_2919.png,1.0,10.308234,6.8654113,2.4344435
bagnet33,1,24,NaN,chair,chair,false,0024_fc_dnn_false_chair_35_n04099969_7718.png,n04099969_7718.png,1.0,7.3573327,5.2774673,1.470687
bagnet33,1,25,NaN,oven,oven,true,0025_fc_dnn_true_oven_35_n04111531_3477.png,n04111531_3477.png,1.0,22.508251,7.9559994,10.289996
bagnet33,1,26,NaN,dog,dog,false,0026_fc_dnn_false_dog_35_n02113712_913.png,n02113712_913.png,1.0,6.179047,2.3627558,2.6985254
bagnet33,1,27,NaN,truck,chair,false,0027_fc_dnn_false_chair_35_n02791124_13701.png,n02791124_13701.png,0.0,3.7649179,7.8809185,-2.9104521
bagnet33,1,28,NaN,airplane,airplane,true,0028_fc_dnn_true_airplane_35_n02690373_8538.png,n02690373_8538.png,1.0,28.43892,7.4947634,14.809755
bagnet33,1,29,NaN,knife,knife,true,0029_fc_dnn_true_knife_35_n03041632_98864.png,n03041632_98864.png,1.0,4.336777,3.2155898,0.79279923
bagnet33,1,30,NaN,clock,clock,false,0030_fc_dnn_false_clock_35_n04548280_5466.png,n04548280_5466.png,1.0,10.14008,5.2438254,3.4621751
bagnet33,1,31,NaN,keyboard,keyboard,true,0031_fc_dnn_true_keyboard_35_n04505470_4033.png,n04505470_4033.png,1.0,41.37308,9.780641,22.33923
bagnet33,1,32,NaN,boat,boat,false,0032_fc_dnn_false_boat_35_n03344393_7503.png,n03344393_7503.png,1.0,5.8881197,3.550233,1.6531357
bagnet33,1,33,NaN,bottle,bottle,false,0033_fc_dnn_false_bottle_35_n02823428_3402.png,n02823428_3402.png,1.0,8.993985,2.839693,4.351742
bagnet33,1,34,NaN,boat,boat,true,0034_fc_dnn_true_boat_35_n03662601_15766.png,n03662601_15766.png,1.0,7.1495957,4.8856716,1.6008362
bagnet33,1,35,NaN,dog,dog,true,0035_fc_dnn_true_dog_35_n02097047_1351.png,n02097047_1351.png,1.0,6.5605726,5.051414,1.0671363
bagnet33,1,36,NaN,keyboard,keyboard,true,0036_fc_dnn_true_keyboard_35_n03085013_23562.png,n03085013_23562.png,1.0,10.917507,4.52785,4.51817
bagnet33,1,37,NaN,clock,clock,false,0037_fc_dnn_false_clock_35_n04548280_7872.png,n04548280_7872.png,1.0,4.438274,3.2045283,0.87238985
bagnet33,1,38,NaN,dog,dog,false,0038_fc_dnn_false_dog_35_n02106166_16884.png,n02106166_16884.png,1.0,4.86997,4.236681,0.44780284
bagnet33,1,39,NaN,oven,oven,true,0039_fc_dnn_true_oven_35_n04111531_3353.png,n04111531_3353.png,1.0,13.729099,5.2522736,5.994021
bagnet33,1,40,NaN,knife,knife,false,0040_fc_dnn_false_knife_35_n03041632_46185.png,n03041632_46185.png,1.0,6.8069463,6.460379,0.24505998
bagnet33,1,41,NaN,knife,knife,true,0041_fc_dnn_true_knife_35_n03041632_14766.png,n03041632_14766.png,1.0,14.949355,4.3714237,7.4797273
bagnet33,1,42,NaN,knife,chair,true,0042_fc_dnn_true_chair_35_n02791124_2150.png,n02791124_2150.png,0.0,5.39749,8.277967,-2.0368052
bagnet33,1,43,NaN,elephant,elephant,false,0043_fc_dnn_false_elephant_35_n02504458_4631.png,n02504458_4631.png,1.0,10.282473,5.6701384,3.2614129
bagnet33,1,44,NaN,keyboard,chair,false,0044_fc_dnn_false_chair_35_n03376595_3223.png,n03376595_3223.png,0.0,2.481127,4.7388854,-1.5964763
bagnet33,1,45,NaN,car,car,false,0045_fc_dnn_false_car_35_n03100240_5399.png,n03100240_5399.png,1.0,13.428845,8.328495,3.6064925
bagnet33,1,46,NaN,bottle,bottle,true,0046_fc_dnn_true_bottle_35_n04557648_2512.png,n04557648_2512.png,1.0,5.110718,2.3886158,1.9248167
bagnet33,1,47,NaN,bicycle,bicycle,true,0047_fc_dnn_true_bicycle_35_n03792782_8098.png,n03792782_8098.png,1.0,5.218816,2.000081,2.2759893
bagnet33,1,48,NaN,bear,bear,true,0048_fc_dnn_true_bear_35_n02134418_11557.png,n02134418_11557.png,1.0,15.467081,7.5537763,5.5955515
bagnet33,1,49,NaN,knife,knife,true,0049_fc_dnn_true_knife_35_n03041632_45569.png,n03041632_45569.png,1.0,11.361629,3.5599098,5.5166483
bagnet33,1,50,NaN,bicycle,bicycle,false,0050_fc_dnn_false_bicycle_35_n03792782_4740.png,n03792782_4740.png,1.0,12.444755,5.650829,4.804031
bagnet33,1,51,NaN,boat,boat,false,0051_fc_dnn_false_boat_35_n03662601_25404.png,n03662601_25404.png,1.0,8.630202,4.665662,2.8033535
bagnet33,1,52,NaN,bird,bird,false,0052_fc_dnn_false_bird_35_n01796340_4853.png,n01796340_4853.png,1.0,1.3593074,0.7769142,0.4118142
bagnet33,1,53,NaN,car,clock,true,0053_fc_dnn_true_clock_35_n03196217_5888.png,n03196217_5888.png,0.0,4.5917206,5.6381035,-0.73990446
bagnet33,1,54,NaN,bicycle,bicycle,true,0054_fc_dnn_true_bicycle_35_n02835271_12871.png,n02835271_12871.png,1.0,20.137383,4.389799,11.135223
bagnet33,1,55,NaN,keyboard,keyboard,false,0055_fc_dnn_false_keyboard_35_n03085013_28584.png,n03085013_28584.png,1.0,16.573956,10.496651,4.2973037
bagnet33,1,56,NaN,dog,cat,true,0056_fc_dnn_true_cat_35_n02123159_6184.png,n02123159_6184.png,0.0,3.4478836,4.4028177,-0.6752404
bagnet33,1,57,NaN,bicycle,bicycle,true,0057_fc_dnn_true_bicycle_35_n02835271_7592.png,n02835271_7592.png,1.0,31.37776,5.333202,18.416283
bagnet33,1,58,NaN,elephant,elephant,false,0058_fc_dnn_false_elephant_35_n02504458_3205.png,n02504458_3205.png,1.0,16.495232,4.9125843,8.190168
bagnet33,1,59,NaN,cat,cat,false,0059_fc_dnn_false_cat_35_n02124075_7880.png,n02124075_7880.png,1.0,10.251498,1.7651176,6.0007772
bagnet33,1,60,NaN,truck,truck,false,0060_fc_dnn_false_truck_35_n04467665_2240.png,n04467665_2240.png,1.0,13.974756,7.495156,4.5817695
bagnet33,1,61,NaN,bottle,bottle,true,0061_fc_dnn_true_bottle_35_n04560804_13316.png,n04560804_13316.png,1.0,11.239634,3.6039145,5.399269
bagnet33,1,62,NaN,airplane,airplane,false,0062_fc_dnn_false_airplane_35_n02690373_3821.png,n02690373_3821.png,1.0,16.671629,3.6134071,9.233558
bagnet33,1,63,NaN,knife,knife,true,0063_fc_dnn_true_knife_35_n03041632_17285.png,n03041632_17285.png,1.0,13.268248,7.5949974,4.011594
bagnet33,1,64,NaN,bottle,bottle,false,0064_fc_dnn_false_bottle_35_n02823428_10942.png,n02823428_10942.png,1.0,16.963871,5.934601,7.798872
bagnet33,1,65,NaN,bicycle,bicycle,true,0065_fc_dnn_true_bicycle_35_n02835271_3642.png,n02835271_3642.png,1.0,26.911152,6.185139,14.655505
bagnet33,1,66,NaN,knife,knife,true,0066_fc_dnn_true_knife_35_n03041632_16172.png,n03041632_16172.png,1.0,17.198805,2.4246998,10.44687
bagnet33,1,67,NaN,bicycle,bottle,false,0067_fc_dnn_false_bottle_35_n04560804_2448.png,n04560804_2448.png,0.0,1.4031391,1.7781223,-0.26515317
bagnet33,1,68,NaN,bottle,oven,false,0068_fc_dnn_false_oven_35_n04111531_4452.png,n04111531_4452.png,0.0,1.8539677,2.5944707,-0.52361476
bagnet33,1,69,NaN,keyboard,keyboard,false,0069_fc_dnn_false_keyboard_35_n04505470_912.png,n04505470_912.png,1.0,26.142025,8.780062,12.276762
bagnet33,1,70,NaN,knife,cat,false,0070_fc_dnn_false_cat_35_n02123045_7167.png,n02123045_7167.png,0.0,1.851389,3.824245,-1.3950198
bagnet33,1,71,NaN,elephant,bicycle,false,0071_fc_dnn_false_bicycle_35_n03792782_8333.png,n03792782_8333.png,0.0,3.5409355,3.852879,-0.22057739
bagnet33,1,72,NaN,dog,dog,false,0072_fc_dnn_false_dog_35_n02107683_2904.png,n02107683_2904.png,1.0,3.1974037,3.0994701,0.069249466
bagnet33,1,73,NaN,bottle,bottle,true,0073_fc_dnn_true_bottle_35_n04591713_3409.png,n04591713_3409.png,1.0,19.453735,5.6856966,9.735474
bagnet33,1,74,NaN,knife,bottle,false,0074_fc_dnn_false_bottle_35_n04560804_564.png,n04560804_564.png,0.0,2.8989341,5.1386747,-1.5837358
bagnet33,1,75,NaN,truck,truck,false,0075_fc_dnn_false_truck_35_n03796401_6503.png,n03796401_6503.png,1.0,15.293521,10.016038,3.731744
bagnet33,1,76,NaN,oven,oven,true,0076_fc_dnn_true_oven_35_n04111531_13590.png,n04111531_13590.png,1.0,10.28726,5.662522,3.2701838
bagnet33,1,77,NaN,bird,bird,false,0077_fc_dnn_false_bird_35_n02018795_7504.png,n02018795_7504.png,1.0,3.863862,0.48701218,2.3877935
bagnet33,1,78,NaN,car,car,false,0078_fc_dnn_false_car_35_n03100240_6626.png,n03100240_6626.png,1.0,15.251882,11.66533,2.536075
bagnet33,1,79,NaN,bear,bear,false,0079_fc_dnn_false_bear_35_n02134418_4364.png,n02134418_4364.png,1.0,5.8226447,4.3607397,1.033723
bagnet33,1,80,NaN,oven,knife,false,0080_fc_dnn_false_knife_35_n03041632_8051.png,n03041632_8051.png,0.0,4.647271,5.4263153,-0.55086744
bagnet33,1,81,NaN,airplane,airplane,true,0081_fc_dnn_true_airplane_35_n02690373_1434.png,n02690373_1434.png,1.0,22.855175,5.33887,12.385898
bagnet33,1,82,NaN,clock,clock,true,0082_fc_dnn_true_clock_35_n04548280_5408.png,n04548280_5408.png,1.0,35.624557,15.519771,14.21623
bagnet33,1,83,NaN,cat,cat,false,0083_fc_dnn_false_cat_35_n02123597_3916.png,n02123597_3916.png,1.0,5.2739167,3.1226287,1.5211904
bagnet33,1,84,NaN,clock,clock,false,0084_fc_dnn_false_clock_35_n04548280_4542.png,n04548280_4542.png,1.0,5.1217604,3.7112164,0.9974052
bagnet33,1,85,NaN,boat,car,true,0085_fc_dnn_true_car_35_n04285008_14161.png,n04285008_14161.png,0.0,5.3243365,7.601168,-1.609963
bagnet33,1,86,NaN,airplane,airplane,false,0086_fc_dnn_false_airplane_35_n02690373_7279.png,n02690373_7279.png,1.0,7.7448897,2.9409623,3.3968897
bagnet33,1,87,NaN,elephant,bear,true,0087_fc_dnn_true_bear_35_n02132136_11640.png,n02132136_11640.png,0.0,7.7575064,8.529987,-0.54622656
bagnet33,1,88,NaN,airplane,airplane,true,0088_fc_dnn_true_airplane_35_n02690373_8350.png,n02690373_8350.png,1.0,19.42858,6.2383623,9.326892
bagnet33,1,89,NaN,boat,boat,true,0089_fc_dnn_true_boat_35_n04273569_30568.png,n04273569_30568.png,1.0,18.143723,9.528954,6.091562
bagnet33,1,90,NaN,dog,dog,true,0090_fc_dnn_true_dog_35_n02100583_19533.png,n02100583_19533.png,1.0,7.0722685,7.0455484,0.018893927
bagnet33,1,91,NaN,knife,knife,true,0091_fc_dnn_true_knife_35_n03041632_965.png,n03041632_965.png,1.0,10.1805725,6.2695746,2.7654932
bagnet33,1,92,NaN,elephant,elephant,false,0092_fc_dnn_false_elephant_35_n02504458_6109.png,n02504458_6109.png,1.0,13.983425,5.4726396,6.0180345
bagnet33,1,93,NaN,oven,oven,true,0093_fc_dnn_true_oven_35_n04111531_10093.png,n04111531_10093.png,1.0,10.367898,5.101874,3.7236414
bagnet33,1,94,NaN,clock,clock,true,0094_fc_dnn_true_clock_35_n03196217_8221.png,n03196217_8221.png,1.0,11.001465,4.995482,4.2468715
bagnet33,1,95,NaN,bicycle,bicycle,false,0095_fc_dnn_false_bicycle_35_n03792782_828.png,n03792782_828.png,1.0,8.36088,3.4062178,3.5034754
bagnet33,1,96,NaN,knife,knife,true,0096_fc_dnn_true_knife_35_n03041632_7090.png,n03041632_7090.png,1.0,12.847003,5.1993513,5.4077063
bagnet33,1,97,NaN,elephant,bear,false,0097_fc_dnn_false_bear_35_n02134084_14260.png,n02134084_14260.png,0.0,3.5441184,4.4263506,-0.62383235
bagnet33,1,98,NaN,bear,bear,false,0098_fc_dnn_false_bear_35_n02132136_10988.png,n02132136_10988.png,1.0,4.1466584,3.7561257,0.27614835
bagnet33,1,99,NaN,keyboard,keyboard,false,0099_fc_dnn_false_keyboard_35_n03085013_22980.png,n03085013_22980.png,1.0,5.1215963,4.800294,0.22719511
bagnet33,1,100,NaN,chair,bottle,false,0100_fc_dnn_false_bottle_35_n04557648_3673.png,n04557648_3673.png,0.0,1.6345066,4.1753893,-1.7966753
bagnet33,1,101,NaN,airplane,airplane,true,0101_fc_dnn_true_airplane_35_n02690373_1360.png,n02690373_1360.png,1.0,16.478872,4.4997797,8.470498
bagnet33,1,102,NaN,oven,oven,true,0102_fc_dnn_true_oven_35_n04111531_6415.png,n04111531_6415.png,1.0,11.257862,5.44595,4.1096425
bagnet33,1,103,NaN,knife,knife,false,0103_fc_dnn_false_knife_35_n03041632_32054.png,n03041632_32054.png,1.0,8.0532875,4.1411242,2.7663171
bagnet33,1,104,NaN,truck,chair,false,0104_fc_dnn_false_chair_35_n03376595_9136.png,n03376595_9136.png,0.0,8.116139,8.8727255,-0.53498715
bagnet33,1,105,NaN,keyboard,keyboard,false,0105_fc_dnn_false_keyboard_35_n03085013_21266.png,n03085013_21266.png,1.0,7.443342,6.563792,0.6219358
bagnet33,1,106,NaN,bicycle,bicycle,true,0106_fc_dnn_true_bicycle_35_n02835271_6137.png,n02835271_6137.png,1.0,15.24631,7.4038734,5.54544
bagnet33,1,107,NaN,car,car,false,0107_fc_dnn_false_car_35_n04285008_14689.png,n04285008_14689.png,1.0,21.886568,12.856339,6.385336
bagnet33,1,108,NaN,truck,truck,false,0108_fc_dnn_false_truck_35_n04467665_16276.png,n04467665_16276.png,1.0,15.601297,8.400768,5.091543
bagnet33,1,109,NaN,chair,chair,false,0109_fc_dnn_false_chair_35_n03376595_787.png,n03376595_787.png,1.0,5.5635624,4.785265,0.5503394
bagnet33,1,110,NaN,bicycle,boat,false,0110_fc_dnn_false_boat_35_n04612504_41355.png,n04612504_41355.png,0.0,6.9952683,8.78661,-1.2666696
bagnet33,1,111,NaN,elephant,elephant,true,0111_fc_dnn_true_elephant_35_n02504458_174.png,n02504458_174.png,1.0,42.467716,5.1055646,26.419031
bagnet33,1,112,NaN,cat,cat,true,0112_fc_dnn_true_cat_35_n02125311_6746.png,n02125311_6746.png,1.0,16.988295,6.8827763,7.145681
bagnet33,1,113,NaN,keyboard,keyboard,false,0113_fc_dnn_false_keyboard_35_n03085013_23287.png,n03085013_23287.png,1.0,19.257153,6.2227263,9.216731
bagnet33,1,114,NaN,clock,clock,true,0114_fc_dnn_true_clock_35_n04548280_8071.png,n04548280_8071.png,1.0,15.732869,5.9501047,6.917459
bagnet33,1,115,NaN,oven,oven,false,0115_fc_dnn_false_oven_35_n04111531_14543.png,n04111531_14543.png,1.0,9.018732,3.9914834,3.5548015
bagnet33,1,116,NaN,car,car,false,0116_fc_dnn_false_car_35_n03100240_10791.png,n03100240_10791.png,1.0,14.535469,8.878527,4.0000625
bagnet33,1,117,NaN,airplane,airplane,true,0117_fc_dnn_true_airplane_35_n02690373_2619.png,n02690373_2619.png,1.0,19.112024,5.608039,9.548759
bagnet33,1,118,NaN,keyboard,keyboard,true,0118_fc_dnn_true_keyboard_35_n04505470_3864.png,n04505470_3864.png,1.0,14.980187,10.30265,3.3075182
bagnet33,1,119,NaN,dog,dog,true,0119_fc_dnn_true_dog_35_n02097658_4387.png,n02097658_4387.png,1.0,3.731431,1.8579106,1.324779
bagnet33,1,120,NaN,clock,clock,true,0120_fc_dnn_true_clock_35_n04548280_309.png,n04548280_309.png,1.0,16.576159,4.6050987,8.464818
bagnet33,1,121,NaN,dog,dog,true,0121_fc_dnn_true_dog_35_n02108000_5247.png,n02108000_5247.png,1.0,12.923625,3.992111,6.315534
bagnet33,1,122,NaN,keyboard,keyboard,false,0122_fc_dnn_false_keyboard_35_n04505470_4411.png,n04505470_4411.png,1.0,10.5686245,9.63619,0.6593305
bagnet33,1,123,NaN,clock,truck,false,0123_fc_dnn_false_truck_35_n03417042_2155.png,n03417042_2155.png,0.0,3.47312,5.265302,-1.2672642
bagnet33,1,124,NaN,bear,bear,false,0124_fc_dnn_false_bear_35_n02132136_4237.png,n02132136_4237.png,1.0,12.633755,7.8271856,3.3987577
bagnet33,1,125,NaN,bird,bird,false,0125_fc_dnn_false_bird_35_n01843065_2350.png,n01843065_2350.png,1.0,5.064144,2.2659078,1.978652
bagnet33,1,126,NaN,knife,knife,false,0126_fc_dnn_false_knife_35_n03041632_51225.png,n03041632_51225.png,1.0,8.121329,3.900589,2.9845142
bagnet33,1,127,NaN,airplane,airplane,false,0127_fc_dnn_false_airplane_35_n02690373_2095.png,n02690373_2095.png,1.0,18.276806,6.254141,8.501308
bagnet33,1,128,NaN,clock,clock,true,0128_fc_dnn_true_clock_35_n02708093_1775.png,n02708093_1775.png,1.0,12.996266,7.313965,4.017994
bagnet33,1,129,NaN,elephant,elephant,true,0129_fc_dnn_true_elephant_35_n02504458_7950.png,n02504458_7950.png,1.0,39.874825,7.643722,22.79083
bagnet33,1,130,NaN,boat,boat,true,0130_fc_dnn_true_boat_35_n03662601_1926.png,n03662601_1926.png,1.0,13.14812,6.505552,4.6970053
bagnet33,1,131,NaN,elephant,elephant,true,0131_fc_dnn_true_elephant_35_n02504458_6721.png,n02504458_6721.png,1.0,17.32956,2.765118,10.298615
bagnet33,1,132,NaN,bicycle,bicycle,true,0132_fc_dnn_true_bicycle_35_n02835271_14225.png,n02835271_14225.png,1.0,7.8596563,2.802454,3.575982
bagnet33,1,133,NaN,clock,clock,false,0133_fc_dnn_false_clock_35_n02708093_2744.png,n02708093_2744.png,1.0,8.213384,2.8618948,3.7840743
bagnet33,1,134,NaN,clock,clock,true,0134_fc_dnn_true_clock_35_n02708093_275.png,n02708093_275.png,1.0,24.758272,9.653415,10.680747
bagnet33,1,135,NaN,knife,knife,false,0135_fc_dnn_false_knife_35_n03041632_25512.png,n03041632_25512.png,1.0,4.9590397,2.12985,2.0005393
bagnet33,1,136,NaN,cat,bird,true,0136_fc_dnn_true_bird_35_n01622779_5441.png,n01622779_5441.png,0.0,2.979489,4.2194715,-0.87679994
bagnet33,1,137,NaN,car,oven,false,0137_fc_dnn_false_oven_35_n04111531_14329.png,n04111531_14329.png,0.0,10.06786,10.08165,-0.009751095
bagnet33,1,138,NaN,bird,bird,false,0138_fc_dnn_false_bird_35_n02007558_13217.png,n02007558_13217.png,1.0,4.551142,4.3531837,0.13997778
bagnet33,1,139,NaN,cat,cat,true,0139_fc_dnn_true_cat_35_n02123597_7908.png,n02123597_7908.png,1.0,9.342538,3.0196114,4.4709845
bagnet33,1,140,NaN,clock,clock,true,0140_fc_dnn_true_clock_35_n04548280_9828.png,n04548280_9828.png,1.0,26.837082,8.68335,12.836627
bagnet33,1,141,NaN,chair,bird,false,0141_fc_dnn_false_bird_35_n01833805_4819.png,n01833805_4819.png,0.0,0.422588,1.1099555,-0.48604226
bagnet33,1,142,NaN,knife,knife,true,0142_fc_dnn_true_knife_35_n03041632_52929.png,n03041632_52929.png,1.0,8.584876,2.5011902,4.3018155
bagnet33,1,143,NaN,truck,truck,false,0143_fc_dnn_false_truck_35_n04467665_2044.png,n04467665_2044.png,1.0,10.703583,5.55243,3.642415
bagnet33,1,144,NaN,oven,oven,false,0144_fc_dnn_false_oven_35_n04111531_16583.png,n04111531_16583.png,1.0,15.302706,7.979524,5.1782713
bagnet33,1,145,NaN,airplane,airplane,true,0145_fc_dnn_true_airplane_35_n02690373_2796.png,n02690373_2796.png,1.0,21.89787,10.268614,8.223125
bagnet33,1,146,NaN,airplane,airplane,false,0146_fc_dnn_false_airplane_35_n02690373_3362.png,n02690373_3362.png,1.0,26.147243,6.3156953,14.023023
bagnet33,1,147,NaN,clock,clock,true,0147_fc_dnn_true_clock_35_n02708093_3759.png,n02708093_3759.png,1.0,18.222887,6.036172,8.617309
bagnet33,1,148,NaN,elephant,elephant,true,0148_fc_dnn_true_elephant_35_n02504013_2558.png,n02504013_2558.png,1.0,17.643448,3.2773118,10.158393
bagnet33,1,149,NaN,bear,bear,false,0149_fc_dnn_false_bear_35_n02134418_896.png,n02134418_896.png,1.0,3.5232224,3.476541,0.03300874
bagnet33,1,150,NaN,truck,truck,false,0150_fc_dnn_false_truck_35_n04467665_56815.png,n04467665_56815.png,1.0,15.913773,7.102753,6.230332
bagnet33,1,151,NaN,truck,truck,true,0151_fc_dnn_true_truck_35_n03796401_3695.png,n03796401_3695.png,1.0,19.177866,8.846052,7.3056955
bagnet33,1,152,NaN,chair,dog,true,0152_fc_dnn_true_dog_35_n02107312_197.png,n02107312_197.png,0.0,2.0203009,2.8178375,-0.56394356
bagnet33,1,153,NaN,bear,bear,false,0153_fc_dnn_false_bear_35_n02133161_13356.png,n02133161_13356.png,1.0,3.439386,1.3232343,1.4963452
bagnet33,1,154,NaN,truck,truck,false,0154_fc_dnn_false_truck_35_n03796401_6923.png,n03796401_6923.png,1.0,8.353471,5.6048775,1.943549
bagnet33,1,155,NaN,elephant,elephant,true,0155_fc_dnn_true_elephant_35_n02504458_7660.png,n02504458_7660.png,1.0,18.050817,2.310506,11.130081
bagnet33,1,156,NaN,bicycle,bicycle,false,0156_fc_dnn_false_bicycle_35_n02835271_6554.png,n02835271_6554.png,1.0,17.008709,6.359625,7.53004
bagnet33,1,157,NaN,boat,boat,true,0157_fc_dnn_true_boat_35_n04273569_2698.png,n04273569_2698.png,1.0,11.064804,4.192242,4.8596354
bagnet33,1,158,NaN,dog,bottle,true,0158_fc_dnn_true_bottle_35_n03983396_5055.png,n03983396_5055.png,0.0,4.857085,9.317752,-3.1541677
bagnet33,1,159,NaN,chair,chair,true,0159_fc_dnn_true_chair_35_n04429376_22811.png,n04429376_22811.png,1.0,6.5205455,6.1660933,0.2506355
bagnet33,1,160,NaN,knife,knife,false,0160_fc_dnn_false_knife_35_n03041632_5640.png,n03041632_5640.png,1.0,5.5965705,2.80527,1.9737476
bagnet33,1,161,NaN,bird,bird,true,0161_fc_dnn_true_bird_35_n01795545_14857.png,n01795545_14857.png,1.0,3.707554,3.3417234,0.25868136
bagnet33,1,162,NaN,oven,oven,false,0162_fc_dnn_false_oven_35_n04111531_16144.png,n04111531_16144.png,1.0,5.101881,3.6664674,1.0149907
bagnet33,1,163,NaN,airplane,truck,false,0163_fc_dnn_false_truck_35_n04467665_47050.png,n04467665_47050.png,0.0,4.6658506,6.344969,-1.1873158
bagnet33,1,164,NaN,bottle,bottle,true,0164_fc_dnn_true_bottle_35_n03937543_8063.png,n03937543_8063.png,1.0,11.845265,6.164381,4.016992
bagnet33,1,165,NaN,bear,bear,false,0165_fc_dnn_false_bear_35_n02134084_1655.png,n02134084_1655.png,1.0,8.103121,4.971757,2.2142086
bagnet33,1,166,NaN,bicycle,car,false,0166_fc_dnn_false_car_35_n03100240_2425.png,n03100240_2425.png,0.0,3.2997017,4.4730234,-0.82966375
bagnet33,1,167,NaN,keyboard,keyboard,false,0167_fc_dnn_false_keyboard_35_n03085013_21300.png,n03085013_21300.png,1.0,29.206764,7.0093384,15.6959505
bagnet33,1,168,NaN,bear,bear,false,0168_fc_dnn_false_bear_35_n02132136_2248.png,n02132136_2248.png,1.0,12.241912,5.3756847,4.855156
bagnet33,1,169,NaN,knife,knife,false,0169_fc_dnn_false_knife_35_n03041632_27832.png,n03041632_27832.png,1.0,13.3858185,3.9646366,6.661782
bagnet33,1,170,NaN,keyboard,keyboard,true,0170_fc_dnn_true_keyboard_35_n04505470_4682.png,n04505470_4682.png,1.0,25.098692,11.268299,9.779565
bagnet33,1,171,NaN,truck,truck,false,0171_fc_dnn_false_truck_35_n03417042_12908.png,n03417042_12908.png,1.0,3.5687704,3.0205007,0.38768527
bagnet33,1,172,NaN,elephant,elephant,false,0172_fc_dnn_false_elephant_35_n02504013_2148.png,n02504013_2148.png,1.0,9.873866,3.2547736,4.680405
bagnet33,1,173,NaN,boat,boat,true,0173_fc_dnn_true_boat_35_n02951358_20379.png,n02951358_20379.png,1.0,4.9087114,3.7038672,0.85195357
bagnet33,1,174,NaN,cat,cat,true,0174_fc_dnn_true_cat_35_n02123394_6521.png,n02123394_6521.png,1.0,11.293143,3.594511,5.443755
bagnet33,1,175,NaN,boat,boat,true,0175_fc_dnn_true_boat_35_n03662601_9602.png,n03662601_9602.png,1.0,25.12304,10.736913,10.172528
bagnet33,1,176,NaN,clock,clock,true,0176_fc_dnn_true_clock_35_n04548280_3997.png,n04548280_3997.png,1.0,22.55497,6.0808506,11.648962
bagnet33,1,177,NaN,car,car,false,0177_fc_dnn_false_car_35_n03100240_12694.png,n03100240_12694.png,1.0,17.217512,8.212952,6.367186
bagnet33,1,178,NaN,bird,bird,false,0178_fc_dnn_false_bird_35_n02002556_25052.png,n02002556_25052.png,1.0,4.738336,3.0583444,1.1879336
bagnet33,1,179,NaN,chair,chair,true,0179_fc_dnn_true_chair_35_n04429376_22734.png,n04429376_22734.png,1.0,5.7702417,3.7010155,1.463164
bagnet33,1,180,NaN,boat,boat,true,0180_fc_dnn_true_boat_35_n04612504_5334.png,n04612504_5334.png,1.0,12.007593,7.4368076,3.2320335
bagnet33,1,181,NaN,keyboard,keyboard,true,0181_fc_dnn_true_keyboard_35_n03085013_15484.png,n03085013_15484.png,1.0,22.828117,4.0257154,13.295306
bagnet33,1,182,NaN,bear,bear,true,0182_fc_dnn_true_bear_35_n02134418_1809.png,n02134418_1809.png,1.0,19.589563,13.4782,4.321387
bagnet33,1,183,NaN,bottle,bottle,true,0183_fc_dnn_true_bottle_35_n04560804_6392.png,n04560804_6392.png,1.0,6.3677435,4.9839168,0.9785133
bagnet33,1,184,NaN,chair,boat,false,0184_fc_dnn_false_boat_35_n02951358_29495.png,n02951358_29495.png,0.0,1.4638385,2.8247857,-0.96233505
bagnet33,1,185,NaN,dog,dog,false,0185_fc_dnn_false_dog_35_n02086646_8449.png,n02086646_8449.png,1.0,6.159996,3.620373,1.7957847
bagnet33,1,186,NaN,bird,bird,true,0186_fc_dnn_true_bird_35_n02037110_4043.png,n02037110_4043.png,1.0,8.198621,4.758968,2.4322019
bagnet33,1,187,NaN,elephant,elephant,true,0187_fc_dnn_true_elephant_35_n02504458_4819.png,n02504458_4819.png,1.0,31.165318,2.3743572,20.358284
bagnet33,1,188,NaN,bird,bird,true,0188_fc_dnn_true_bird_35_n01829413_282.png,n01829413_282.png,1.0,13.444313,1.9070127,8.158103
bagnet33,1,189,NaN,chair,bird,false,0189_fc_dnn_false_bird_35_n02007558_22160.png,n02007558_22160.png,0.0,0.07512475,2.380406,-1.63008
bagnet33,1,190,NaN,truck,truck,false,0190_fc_dnn_false_truck_35_n03417042_3066.png,n03417042_3066.png,1.0,5.4779387,5.241603,0.16711462
bagnet33,1,191,NaN,boat,boat,true,0191_fc_dnn_true_boat_35_n04612504_254.png,n04612504_254.png,1.0,11.168976,9.84811,0.93399304
bagnet33,1,192,NaN,keyboard,keyboard,false,0192_fc_dnn_false_keyboard_35_n03085013_20704.png,n03085013_20704.png,1.0,8.3952675,8.208399,0.1321361
bagnet33,1,193,NaN,chair,chair,true,0193_fc_dnn_true_chair_35_n03376595_3015.png,n03376595_3015.png,1.0,9.086719,6.4085083,1.8937807
bagnet33,1,194,NaN,keyboard,bottle,false,0194_fc_dnn_false_bottle_35_n03983396_3782.png,n03983396_3782.png,0.0,6.435996,16.397629,-7.043938
bagnet33,1,195,NaN,bird,bird,false,0195_fc_dnn_false_bird_35_n01592084_4087.png,n01592084_4087.png,1.0,3.538999,1.8489481,1.1950465
bagnet33,1,196,NaN,bird,bird,false,0196_fc_dnn_false_bird_35_n02013706_651.png,n02013706_651.png,1.0,8.311044,2.0137267,4.4528756
bagnet33,1,197,NaN,keyboard,keyboard,true,0197_fc_dnn_true_keyboard_35_n04505470_2825.png,n04505470_2825.png,1.0,24.2281,10.416926,9.765975
bagnet33,1,198,NaN,cat,cat,false,0198_fc_dnn_false_cat_35_n02123597_23346.png,n02123597_23346.png,1.0,4.0661707,2.8162699,0.8838134
bagnet33,1,199,NaN,cat,cat,false,0199_fc_dnn_false_cat_35_n02124075_3592.png,n02124075_3592.png,1.0,12.301793,1.7851057,7.436421
bagnet33,1,200,NaN,airplane,airplane,false,0200_fc_dnn_false_airplane_35_n02690373_5415.png,n02690373_5415.png,1.0,18.748852,4.4009256,10.145516
bagnet33,1,201,NaN,chair,cat,true,0201_fc_dnn_true_cat_35_n02123597_4591.png,n02123597_4591.png,0.0,3.5471427,6.1891475,-1.8681794
bagnet33,1,202,NaN,elephant,elephant,false,0202_fc_dnn_false_elephant_35_n02504013_2228.png,n02504013_2228.png,1.0,8.837296,3.3575702,3.874751
bagnet33,1,203,NaN,knife,knife,false,0203_fc_dnn_false_knife_35_n03041632_47743.png,n03041632_47743.png,1.0,10.201862,5.475998,3.3416908
bagnet33,1,204,NaN,cat,bear,false,0204_fc_dnn_false_bear_35_n02134418_1105.png,n02134418_1105.png,0.0,5.0339184,5.866579,-0.58878005
bagnet33,1,205,NaN,bottle,bottle,true,0205_fc_dnn_true_bottle_35_n04591713_1174.png,n04591713_1174.png,1.0,13.790914,5.8082776,5.644576
bagnet33,1,206,NaN,keyboard,keyboard,true,0206_fc_dnn_true_keyboard_35_n04505470_8544.png,n04505470_8544.png,1.0,24.16363,9.618884,10.284688
bagnet33,1,207,NaN,bear,bear,true,0207_fc_dnn_true_bear_35_n02134418_379.png,n02134418_379.png,1.0,22.600422,9.10891,9.53994
bagnet33,1,208,NaN,bottle,knife,false,0208_fc_dnn_false_knife_35_n03041632_33198.png,n03041632_33198.png,0.0,1.5846446,3.9393153,-1.6650037
bagnet33,1,209,NaN,bear,bear,true,0209_fc_dnn_true_bear_35_n02134084_4490.png,n02134084_4490.png,1.0,9.592636,7.2291327,1.6712494
bagnet33,1,210,NaN,car,car,true,0210_fc_dnn_true_car_35_n02814533_23592.png,n02814533_23592.png,1.0,13.846337,9.068127,3.3787053
bagnet33,1,211,NaN,dog,dog,false,0211_fc_dnn_false_dog_35_n02102973_7095.png,n02102973_7095.png,1.0,6.641952,6.1411514,0.3541195
bagnet33,1,212,NaN,elephant,elephant,true,0212_fc_dnn_true_elephant_35_n02504013_3810.png,n02504013_3810.png,1.0,35.538948,11.062946,17.307148
bagnet33,1,213,NaN,truck,truck,false,0213_fc_dnn_false_truck_35_n03417042_28742.png,n03417042_28742.png,1.0,11.035479,7.060934,2.8104274
bagnet33,1,214,NaN,bicycle,bicycle,false,0214_fc_dnn_false_bicycle_35_n03792782_4382.png,n03792782_4382.png,1.0,17.052298,2.179393,10.516732
bagnet33,1,215,NaN,keyboard,keyboard,false,0215_fc_dnn_false_keyboard_35_n04505470_2868.png,n04505470_2868.png,1.0,12.229332,7.689452,3.2101798
bagnet33,1,216,NaN,elephant,bear,true,0216_fc_dnn_true_bear_35_n02132136_4817.png,n02132136_4817.png,0.0,11.626356,12.952436,-0.9376804
bagnet33,1,217,NaN,bicycle,bicycle,true,0217_fc_dnn_true_bicycle_35_n03792782_1989.png,n03792782_1989.png,1.0,16.36604,3.7466183,8.923278
bagnet33,1,218,NaN,truck,truck,true,0218_fc_dnn_true_truck_35_n03417042_4883.png,n03417042_4883.png,1.0,12.860239,3.7521749,6.4403744
bagnet33,1,219,NaN,bicycle,bicycle,true,0219_fc_dnn_true_bicycle_35_n03792782_6614.png,n03792782_6614.png,1.0,14.688816,6.183403,6.0142355
bagnet33,1,220,NaN,car,car,true,0220_fc_dnn_true_car_35_n04285008_8581.png,n04285008_8581.png,1.0,20.310001,10.853723,6.686599
bagnet33,1,221,NaN,truck,truck,true,0221_fc_dnn_true_truck_35_n04467665_22051.png,n04467665_22051.png,1.0,19.015818,10.741734,5.8506613
bagnet33,1,222,NaN,keyboard,keyboard,true,0222_fc_dnn_true_keyboard_35_n04505470_4516.png,n04505470_4516.png,1.0,28.644808,8.875195,13.979228
bagnet33,1,223,NaN,clock,clock,true,0223_fc_dnn_true_clock_35_n02708093_3355.png,n02708093_3355.png,1.0,28.33532,8.164336,14.263039
bagnet33,1,224,NaN,truck,chair,false,0224_fc_dnn_false_chair_35_n02791124_11404.png,n02791124_11404.png,0.0,3.903629,3.9324026,-0.02034597
bagnet33,1,225,NaN,boat,boat,true,0225_fc_dnn_true_boat_35_n03344393_1145.png,n03344393_1145.png,1.0,14.679678,6.1448755,6.035017
bagnet33,1,226,NaN,keyboard,keyboard,false,0226_fc_dnn_false_keyboard_35_n04505470_4627.png,n04505470_4627.png,1.0,6.142771,6.0893593,0.037767623
bagnet33,1,227,NaN,chair,chair,true,0227_fc_dnn_true_chair_35_n03376595_4354.png,n03376595_4354.png,1.0,6.842892,4.1571765,1.8990878
bagnet33,1,228,NaN,keyboard,keyboard,false,0228_fc_dnn_false_keyboard_35_n03085013_3231.png,n03085013_3231.png,1.0,14.941335,5.90287,6.3911595
bagnet33,1,229,NaN,car,car,false,0229_fc_dnn_false_car_35_n03100240_7454.png,n03100240_7454.png,1.0,15.730689,6.67118,6.4060407
bagnet33,1,230,NaN,chair,chair,false,0230_fc_dnn_false_chair_35_n03376595_4212.png,n03376595_4212.png,1.0,6.808105,4.5975704,1.563084
bagnet33,1,231,NaN,airplane,airplane,true,0231_fc_dnn_true_airplane_35_n02690373_4175.png,n02690373_4175.png,1.0,29.702343,10.454206,13.610488
bagnet33,1,232,NaN,elephant,bird,false,0232_fc_dnn_false_bird_35_n01614925_19918.png,n01614925_19918.png,0.0,-0.42499286,5.1108847,-3.9144568
bagnet33,1,233,NaN,dog,dog,false,0233_fc_dnn_false_dog_35_n02086240_1183.png,n02086240_1183.png,1.0,8.891031,4.4338417,3.151709
bagnet33,1,234,NaN,car,car,false,0234_fc_dnn_false_car_35_n02814533_1344.png,n02814533_1344.png,1.0,9.892211,7.8694677,1.4302955
bagnet33,1,235,NaN,bottle,bottle,true,0235_fc_dnn_true_bottle_35_n03983396_1321.png,n03983396_1321.png,1.0,6.5976725,3.5979886,2.1210968
bagnet33,1,236,NaN,cat,cat,true,0236_fc_dnn_true_cat_35_n02123597_6291.png,n02123597_6291.png,1.0,6.129309,2.597125,2.4976313
bagnet33,1,237,NaN,airplane,airplane,true,0237_fc_dnn_true_airplane_35_n02690373_7698.png,n02690373_7698.png,1.0,10.583523,10.2280245,0.25137526
bagnet33,1,238,NaN,airplane,airplane,false,0238_fc_dnn_false_airplane_35_n02690373_4191.png,n02690373_4191.png,1.0,12.120459,4.3117533,5.521589
bagnet33,1,239,NaN,bear,bear,true,0239_fc_dnn_true_bear_35_n02134418_6204.png,n02134418_6204.png,1.0,10.292186,4.297477,4.238899
bagnet33,1,240,NaN,bear,bear,true,0240_fc_dnn_true_bear_35_n02132136_14829.png,n02132136_14829.png,1.0,8.062954,4.151318,2.7659442
bagnet33,1,241,NaN,car,car,false,0241_fc_dnn_false_car_35_n04285008_2409.png,n04285008_2409.png,1.0,11.789558,7.5952663,2.9658124
bagnet33,1,242,NaN,bird,bird,true,0242_fc_dnn_true_bird_35_n02037110_3761.png,n02037110_3761.png,1.0,13.540022,3.2054598,7.307639
bagnet33,1,243,NaN,boat,boat,false,0243_fc_dnn_false_boat_35_n02951358_3067.png,n02951358_3067.png,1.0,5.7883615,2.555196,2.2861934
bagnet33,1,244,NaN,chair,chair,false,0244_fc_dnn_false_chair_35_n03376595_14748.png,n03376595_14748.png,1.0,8.712864,2.6503153,4.2868695
bagnet33,1,245,NaN,elephant,elephant,true,0245_fc_dnn_true_elephant_35_n02504458_5951.png,n02504458_5951.png,1.0,16.71576,4.8066216,8.421032
bagnet33,1,246,NaN,clock,clock,false,0246_fc_dnn_false_clock_35_n02708093_2006.png,n02708093_2006.png,1.0,5.4888206,5.114725,0.2645254
bagnet33,1,247,NaN,car,car,false,0247_fc_dnn_false_car_35_n03100240_18646.png,n03100240_18646.png,1.0,16.935385,9.523418,5.2410517
bagnet33,1,248,NaN,bicycle,bicycle,false,0248_fc_dnn_false_bicycle_35_n03792782_5864.png,n03792782_5864.png,1.0,11.133213,2.4094963,6.168599
bagnet33,1,249,NaN,chair,chair,false,0249_fc_dnn_false_chair_35_n04429376_36830.png,n04429376_36830.png,1.0,5.653198,4.718882,0.660661
bagnet33,1,250,NaN,boat,boat,true,0250_fc_dnn_true_boat_35_n04273569_9282.png,n04273569_9282.png,1.0,10.777735,3.90793,4.8576856
bagnet33,1,251,NaN,elephant,bird,true,0251_fc_dnn_true_bird_35_n01622779_1609.png,n01622779_1609.png,0.0,4.638489,6.105401,-1.0372636
bagnet33,1,252,NaN,bicycle,dog,true,0252_fc_dnn_true_dog_35_n02088094_9498.png,n02088094_9498.png,0.0,2.8034225,3.9207988,-0.7901044
bagnet33,1,253,NaN,car,car,true,0253_fc_dnn_true_car_35_n04285008_5525.png,n04285008_5525.png,1.0,15.475089,9.728678,4.0633264
bagnet33,1,254,NaN,knife,knife,true,0254_fc_dnn_true_knife_35_n03041632_29343.png,n03041632_29343.png,1.0,4.9225006,3.0779173,1.3043174
bagnet33,1,255,NaN,knife,knife,true,0255_fc_dnn_true_knife_35_n03041632_86338.png,n03041632_86338.png,1.0,9.735133,8.223353,1.0689898
bagnet33,1,256,NaN,keyboard,keyboard,false,0256_fc_dnn_false_keyboard_35_n03085013_20691.png,n03085013_20691.png,1.0,12.335844,5.819788,4.6075473
bagnet33,1,257,NaN,cat,cat,true,0257_fc_dnn_true_cat_35_n02124075_1957.png,n02124075_1957.png,1.0,8.038243,3.550284,3.1734667
bagnet33,1,258,NaN,bear,bear,false,0258_fc_dnn_false_bear_35_n02134418_195.png,n02134418_195.png,1.0,6.7925262,5.572853,0.86243916
bagnet33,1,259,NaN,chair,chair,true,0259_fc_dnn_true_chair_35_n02791124_1376.png,n02791124_1376.png,1.0,7.6164026,5.1161914,1.7679163
bagnet33,1,260,NaN,elephant,elephant,false,0260_fc_dnn_false_elephant_35_n02504458_8060.png,n02504458_8060.png,1.0,3.879784,1.9760802,1.346122
bagnet33,1,261,NaN,oven,oven,false,0261_fc_dnn_false_oven_35_n04111531_6479.png,n04111531_6479.png,1.0,3.2546601,3.1895812,0.046017785
bagnet33,1,262,NaN,bear,bear,true,0262_fc_dnn_true_bear_35_n02132136_4070.png,n02132136_4070.png,1.0,4.9392247,4.604105,0.23696543
bagnet33,1,263,NaN,cat,cat,false,0263_fc_dnn_false_cat_35_n02123597_1153.png,n02123597_1153.png,1.0,6.899901,3.5192425,2.3904865
bagnet33,1,264,NaN,truck,truck,false,0264_fc_dnn_false_truck_35_n04467665_49656.png,n04467665_49656.png,1.0,16.481398,8.850779,5.395663
bagnet33,1,265,NaN,dog,dog,true,0265_fc_dnn_true_dog_35_n02108915_10239.png,n02108915_10239.png,1.0,9.703097,7.456034,1.5889137
bagnet33,1,266,NaN,bottle,chair,false,0266_fc_dnn_false_chair_35_n04429376_6835.png,n04429376_6835.png,0.0,2.7537954,5.0689497,-1.6370614
bagnet33,1,267,NaN,truck,truck,true,0267_fc_dnn_true_truck_35_n04467665_54079.png,n04467665_54079.png,1.0,14.342499,11.407547,2.0753243
bagnet33,1,268,NaN,clock,clock,false,0268_fc_dnn_false_clock_35_n03196217_4464.png,n03196217_4464.png,1.0,13.917956,6.1607685,5.4851604
bagnet33,1,269,NaN,dog,dog,true,0269_fc_dnn_true_dog_35_n02102318_9359.png,n02102318_9359.png,1.0,12.56947,6.8355603,4.0544868
bagnet33,1,270,NaN,bicycle,bicycle,true,0270_fc_dnn_true_bicycle_35_n03792782_12578.png,n03792782_12578.png,1.0,6.2040777,1.4684454,3.3485978
bagnet33,1,271,NaN,bicycle,bicycle,true,0271_fc_dnn_true_bicycle_35_n02835271_12752.png,n02835271_12752.png,1.0,27.959862,9.80413,12.838041
bagnet33,1,272,NaN,oven,oven,true,0272_fc_dnn_true_oven_35_n04111531_20056.png,n04111531_20056.png,1.0,14.545619,5.4138412,6.457142
bagnet33,1,273,NaN,oven,oven,true,0273_fc_dnn_true_oven_35_n04111531_12510.png,n04111531_12510.png,1.0,15.452133,2.6373916,9.061391
bagnet33,1,274,NaN,oven,oven,false,0274_fc_dnn_false_oven_35_n04111531_11079.png,n04111531_11079.png,1.0,12.689571,4.8865886,5.5175424
bagnet33,1,275,NaN,cat,cat,true,0275_fc_dnn_true_cat_35_n02124075_4377.png,n02124075_4377.png,1.0,6.325969,3.0894933,2.2885342
bagnet33,1,276,NaN,knife,knife,true,0276_fc_dnn_true_knife_35_n03041632_20517.png,n03041632_20517.png,1.0,11.17427,5.7207947,3.8561893
bagnet33,1,277,NaN,knife,knife,false,0277_fc_dnn_false_knife_35_n03041632_362.png,n03041632_362.png,1.0,3.4336052,3.0889795,0.24368718
bagnet33,1,278,NaN,airplane,airplane,false,0278_fc_dnn_false_airplane_35_n02690373_6807.png,n02690373_6807.png,1.0,11.681183,5.4885674,4.3788404
bagnet33,1,279,NaN,elephant,elephant,false,0279_fc_dnn_false_elephant_35_n02504013_1494.png,n02504013_1494.png,1.0,21.016542,8.300222,8.9917965
bagnet33,1,280,NaN,chair,oven,false,0280_fc_dnn_false_oven_35_n04111531_3181.png,n04111531_3181.png,0.0,2.916679,5.0535703,-1.5110104
bagnet33,1,281,NaN,truck,truck,false,0281_fc_dnn_false_truck_35_n03796401_6727.png,n03796401_6727.png,1.0,17.44239,15.269049,1.5367848
bagnet33,1,282,NaN,dog,dog,true,0282_fc_dnn_true_dog_35_n02113023_6956.png,n02113023_6956.png,1.0,4.7131567,2.9958515,1.2143182
bagnet33,1,283,NaN,elephant,elephant,false,0283_fc_dnn_false_elephant_35_n02504013_1519.png,n02504013_1519.png,1.0,0.9634992,0.774536,0.13361715
bagnet33,1,284,NaN,oven,oven,false,0284_fc_dnn_false_oven_35_n04111531_8082.png,n04111531_8082.png,1.0,4.012601,3.8795514,0.094080195
bagnet33,1,285,NaN,oven,oven,false,0285_fc_dnn_false_oven_35_n04111531_550.png,n04111531_550.png,1.0,9.000329,4.855054,2.931152
bagnet33,1,286,NaN,keyboard,clock,false,0286_fc_dnn_false_clock_35_n02708093_2242.png,n02708093_2242.png,0.0,0.95625734,4.05929,-2.1941755
bagnet33,1,287,NaN,airplane,airplane,true,0287_fc_dnn_true_airplane_35_n02690373_10809.png,n02690373_10809.png,1.0,16.247036,4.437997,8.350252
bagnet33,1,288,NaN,bird,bird,false,0288_fc_dnn_false_bird_35_n02037110_6501.png,n02037110_6501.png,1.0,5.5963316,1.1030768,3.1772108
bagnet33,1,289,NaN,airplane,airplane,false,0289_fc_dnn_false_airplane_35_n02690373_12756.png,n02690373_12756.png,1.0,9.747417,3.6901977,4.283101
bagnet33,1,290,NaN,bottle,bottle,false,0290_fc_dnn_false_bottle_35_n03983396_5413.png,n03983396_5413.png,1.0,9.132869,3.588616,3.920379
bagnet33,1,291,NaN,bird,bird,true,0291_fc_dnn_true_bird_35_n01560419_631.png,n01560419_631.png,1.0,9.682819,0.82436734,6.2638717
bagnet33,1,292,NaN,knife,cat,true,0292_fc_dnn_true_cat_35_n02123394_4734.png,n02123394_4734.png,0.0,2.1619375,5.0051336,-2.0104432
bagnet33,1,293,NaN,bottle,bottle,true,0293_fc_dnn_true_bottle_35_n03937543_469.png,n03937543_469.png,1.0,7.5585184,2.602768,3.5042448
bagnet33,1,294,NaN,clock,clock,true,0294_fc_dnn_true_clock_35_n04548280_1055.png,n04548280_1055.png,1.0,9.74179,7.5227766,1.5690793
bagnet33,1,295,NaN,chair,chair,true,0295_fc_dnn_true_chair_35_n02791124_15934.png,n02791124_15934.png,1.0,7.571293,4.098233,2.4558241
bagnet33,1,296,NaN,keyboard,keyboard,true,0296_fc_dnn_true_keyboard_35_n03085013_22187.png,n03085013_22187.png,1.0,12.193527,11.469739,0.5117956
bagnet33,1,297,NaN,dog,dog,false,0297_fc_dnn_false_dog_35_n02099601_8560.png,n02099601_8560.png,1.0,5.6346846,2.3776128,2.3030975
bagnet33,1,298,NaN,truck,truck,true,0298_fc_dnn_true_truck_35_n03417042_11091.png,n03417042_11091.png,1.0,19.98381,9.916451,7.118698
bagnet33,1,299,NaN,bicycle,bird,true,0299_fc_dnn_true_bird_35_n02013706_7132.png,n02013706_7132.png,0.0,1.8559536,4.3934793,-1.7943016
bagnet33,1,300,NaN,car,car,false,0300_fc_dnn_false_car_35_n02814533_4978.png,n02814533_4978.png,1.0,11.497979,8.304883,2.25786
bagnet33,1,301,NaN,bear,bear,true,0301_fc_dnn_true_bear_35_n02134418_6244.png,n02134418_6244.png,1.0,10.610046,5.0802426,3.9101617
bagnet33,1,302,NaN,bicycle,bicycle,false,0302_fc_dnn_false_bicycle_35_n03792782_50569.png,n03792782_50569.png,1.0,30.105244,6.498591,16.692425
bagnet33,1,303,NaN,car,car,true,0303_fc_dnn_true_car_35_n03100240_2632.png,n03100240_2632.png,1.0,24.80987,9.677443,10.700242
bagnet33,1,304,NaN,knife,knife,false,0304_fc_dnn_false_knife_35_n03041632_11285.png,n03041632_11285.png,1.0,6.912286,2.2365577,3.306239
bagnet33,1,305,NaN,knife,knife,false,0305_fc_dnn_false_knife_35_n03041632_39952.png,n03041632_39952.png,1.0,8.942365,4.7952914,2.9324236
bagnet33,1,306,NaN,chair,chair,true,0306_fc_dnn_true_chair_35_n04099969_9745.png,n04099969_9745.png,1.0,2.787496,1.647555,0.8060601
bagnet33,1,307,NaN,car,car,true,0307_fc_dnn_true_car_35_n03100240_49.png,n03100240_49.png,1.0,23.82731,15.162877,6.12668
bagnet33,1,308,NaN,bird,bird,true,0308_fc_dnn_true_bird_35_n01817953_5953.png,n01817953_5953.png,1.0,9.387029,4.122296,3.7227283
bagnet33,1,309,NaN,bear,bear,false,0309_fc_dnn_false_bear_35_n02134418_5253.png,n02134418_5253.png,1.0,10.699609,7.499647,2.2627146
bagnet33,1,310,NaN,bicycle,bicycle,false,0310_fc_dnn_false_bicycle_35_n03792782_7576.png,n03792782_7576.png,1.0,4.642611,1.9962499,1.8712599
bagnet33,1,311,NaN,keyboard,keyboard,true,0311_fc_dnn_true_keyboard_35_n03085013_5157.png,n03085013_5157.png,1.0,7.1983604,5.782923,1.0008652
bagnet33,1,312,NaN,airplane,boat,true,0312_fc_dnn_true_boat_35_n03344393_7050.png,n03344393_7050.png,0.0,4.7660246,7.1621175,-1.6942936
bagnet33,1,313,NaN,bicycle,bicycle,false,0313_fc_dnn_false_bicycle_35_n03792782_51335.png,n03792782_51335.png,1.0,12.494642,2.6842477,6.9369965
bagnet33,1,314,NaN,cat,cat,true,0314_fc_dnn_true_cat_35_n02124075_7230.png,n02124075_7230.png,1.0,22.643095,6.6599755,11.301773
bagnet33,1,315,NaN,airplane,truck,true,0315_fc_dnn_true_truck_35_n04467665_68020.png,n04467665_68020.png,0.0,11.553896,12.934155,-0.9759909
bagnet33,1,316,NaN,elephant,elephant,true,0316_fc_dnn_true_elephant_35_n02504458_2970.png,n02504458_2970.png,1.0,5.5411243,2.804863,1.934829
bagnet33,1,317,NaN,bicycle,bicycle,false,0317_fc_dnn_false_bicycle_35_n02835271_2714.png,n02835271_2714.png,1.0,15.005213,7.643459,5.2055464
bagnet33,1,318,NaN,elephant,elephant,true,0318_fc_dnn_true_elephant_35_n02504013_3307.png,n02504013_3307.png,1.0,28.463396,6.9121294,15.239046
bagnet33,1,319,NaN,truck,truck,true,0319_fc_dnn_true_truck_35_n03796401_3940.png,n03796401_3940.png,1.0,8.345896,4.55941,2.6774497
bagnet33,1,320,NaN,truck,chair,false,0320_fc_dnn_false_chair_35_n04429376_5362.png,n04429376_5362.png,0.0,4.732627,4.8090177,-0.054016415
bagnet33,1,321,NaN,cat,cat,false,0321_fc_dnn_false_cat_35_n02123159_1165.png,n02123159_1165.png,1.0,8.291675,2.4453142,4.1340013
bagnet33,1,322,NaN,boat,boat,true,0322_fc_dnn_true_boat_35_n03662601_4665.png,n03662601_4665.png,1.0,8.371133,7.4311633,0.66465884
bagnet33,1,323,NaN,cat,cat,true,0323_fc_dnn_true_cat_35_n02124075_5067.png,n02124075_5067.png,1.0,26.160675,9.126253,12.045156
bagnet33,1,324,NaN,knife,knife,true,0324_fc_dnn_true_knife_35_n03041632_22480.png,n03041632_22480.png,1.0,6.418563,2.4960845,2.773611
bagnet33,1,325,NaN,bicycle,bottle,false,0325_fc_dnn_false_bottle_35_n04560804_2539.png,n04560804_2539.png,0.0,2.4576032,8.2992325,-4.130656
bagnet33,1,326,NaN,oven,oven,true,0326_fc_dnn_true_oven_35_n04111531_8681.png,n04111531_8681.png,1.0,15.308466,4.294969,7.7877183
bagnet33,1,327,NaN,car,car,false,0327_fc_dnn_false_car_35_n03100240_23804.png,n03100240_23804.png,1.0,21.59729,14.54357,4.987734
bagnet33,1,328,NaN,oven,oven,true,0328_fc_dnn_true_oven_35_n04111531_547.png,n04111531_547.png,1.0,15.68751,6.292289,6.6434245
bagnet33,1,329,NaN,boat,boat,false,0329_fc_dnn_false_boat_35_n04273569_9873.png,n04273569_9873.png,1.0,11.482045,6.1328087,3.7824814
bagnet33,1,330,NaN,cat,cat,false,0330_fc_dnn_false_cat_35_n02123597_13140.png,n02123597_13140.png,1.0,8.651146,2.5987022,4.279724
bagnet33,1,331,NaN,bear,bear,true,0331_fc_dnn_true_bear_35_n02134418_1330.png,n02134418_1330.png,1.0,10.711462,5.378217,3.7711737
bagnet33,1,332,NaN,bottle,chair,false,0332_fc_dnn_false_chair_35_n04429376_6272.png,n04429376_6272.png,0.0,3.034696,4.56315,-1.08078
bagnet33,1,333,NaN,bear,bear,false,0333_fc_dnn_false_bear_35_n02134084_22997.png,n02134084_22997.png,1.0,5.1588764,4.0545225,0.7808961
bagnet33,1,334,NaN,oven,clock,false,0334_fc_dnn_false_clock_35_n03196217_3508.png,n03196217_3508.png,0.0,9.308041,11.010622,-1.2039069
bagnet33,1,335,NaN,truck,chair,true,0335_fc_dnn_true_chair_35_n02791124_958.png,n02791124_958.png,0.0,3.0032628,6.0134854,-2.1285489
bagnet33,1,336,NaN,boat,boat,false,0336_fc_dnn_false_boat_35_n03344393_4012.png,n03344393_4012.png,1.0,6.118937,5.1077456,0.7150203
bagnet33,1,337,NaN,airplane,airplane,true,0337_fc_dnn_true_airplane_35_n02690373_4921.png,n02690373_4921.png,1.0,21.989388,7.4907584,10.252079
bagnet33,1,338,NaN,elephant,cat,false,0338_fc_dnn_false_cat_35_n02125311_28052.png,n02125311_28052.png,0.0,4.686889,5.1360455,-0.31760147
bagnet33,1,339,NaN,airplane,airplane,false,0339_fc_dnn_false_airplane_35_n02690373_1837.png,n02690373_1837.png,1.0,15.748228,3.9241934,8.360855
bagnet33,1,340,NaN,elephant,elephant,false,0340_fc_dnn_false_elephant_35_n02504458_5191.png,n02504458_5191.png,1.0,15.0619755,2.3637009,8.979036
bagnet33,1,341,NaN,boat,bird,false,0341_fc_dnn_false_bird_35_n01855672_2187.png,n01855672_2187.png,0.0,1.6144446,4.484549,-2.0294702
bagnet33,1,342,NaN,clock,clock,true,0342_fc_dnn_true_clock_35_n04548280_7794.png,n04548280_7794.png,1.0,23.433813,7.157341,11.509204
bagnet33,1,343,NaN,clock,clock,false,0343_fc_dnn_false_clock_35_n03196217_8489.png,n03196217_8489.png,1.0,5.4986453,5.2852087,0.15092248
bagnet33,1,344,NaN,knife,knife,false,0344_fc_dnn_false_knife_35_n03041632_21590.png,n03041632_21590.png,1.0,2.9707549,2.8740463,0.06838326
bagnet33,1,345,NaN,elephant,elephant,false,0345_fc_dnn_false_elephant_35_n02504458_1249.png,n02504458_1249.png,1.0,26.157303,2.12712,16.991905
bagnet33,1,346,NaN,keyboard,keyboard,false,0346_fc_dnn_false_keyboard_35_n04505470_4549.png,n04505470_4549.png,1.0,12.912237,8.920064,2.822893
bagnet33,1,347,NaN,elephant,elephant,false,0347_fc_dnn_false_elephant_35_n02504013_3771.png,n02504013_3771.png,1.0,11.851192,2.8690557,6.35133
bagnet33,1,348,NaN,bicycle,bicycle,true,0348_fc_dnn_true_bicycle_35_n02835271_19552.png,n02835271_19552.png,1.0,28.22343,6.0454736,15.682184
bagnet33,1,349,NaN,elephant,bear,true,0349_fc_dnn_true_bear_35_n02134084_4477.png,n02134084_4477.png,0.0,7.392971,7.796361,-0.28523976
bagnet33,1,350,NaN,elephant,elephant,false,0350_fc_dnn_false_elephant_35_n02504013_10149.png,n02504013_10149.png,1.0,31.243162,3.6679232,19.498638
bagnet33,1,351,NaN,boat,boat,true,0351_fc_dnn_true_boat_35_n04273569_709.png,n04273569_709.png,1.0,12.661603,8.217763,3.1422694
bagnet33,1,352,NaN,car,car,false,0352_fc_dnn_false_car_35_n03100240_7120.png,n03100240_7120.png,1.0,23.572454,15.919019,5.4117966
bagnet33,1,353,NaN,car,boat,false,0353_fc_dnn_false_boat_35_n02951358_12867.png,n02951358_12867.png,0.0,2.2551408,10.600137,-5.900803
bagnet33,1,354,NaN,bird,bird,true,0354_fc_dnn_true_bird_35_n01558993_38999.png,n01558993_38999.png,1.0,6.1052675,1.7820076,3.0570064
bagnet33,1,355,NaN,bicycle,bicycle,false,0355_fc_dnn_false_bicycle_35_n03792782_4210.png,n03792782_4210.png,1.0,9.747281,3.4740403,4.4358516
bagnet33,1,356,NaN,dog,dog,false,0356_fc_dnn_false_dog_35_n02102318_11997.png,n02102318_11997.png,1.0,4.976265,2.9376142,1.4415438
bagnet33,1,357,NaN,bottle,clock,false,0357_fc_dnn_false_clock_35_n02708093_6813.png,n02708093_6813.png,0.0,1.9372025,2.6236992,-0.48542652
bagnet33,1,358,NaN,chair,oven,false,0358_fc_dnn_false_oven_35_n04111531_8036.png,n04111531_8036.png,0.0,1.6272831,5.5351562,-2.7632837
bagnet33,1,359,NaN,clock,clock,false,0359_fc_dnn_false_clock_35_n02708093_3454.png,n02708093_3454.png,1.0,30.658304,9.409821,15.024947
bagnet33,1,360,NaN,keyboard,keyboard,true,0360_fc_dnn_true_keyboard_35_n03085013_21641.png,n03085013_21641.png,1.0,35.416466,8.021524,19.37115
bagnet33,1,361,NaN,oven,chair,false,0361_fc_dnn_false_chair_35_n02791124_139.png,n02791124_139.png,0.0,5.994379,6.152894,-0.11208702
bagnet33,1,362,NaN,elephant,bear,false,0362_fc_dnn_false_bear_35_n02134084_6821.png,n02134084_6821.png,0.0,9.9644375,13.104307,-2.2202232
bagnet33,1,363,NaN,cat,cat,false,0363_fc_dnn_false_cat_35_n02124075_5874.png,n02124075_5874.png,1.0,13.072201,4.393165,6.137005
bagnet33,1,364,NaN,chair,chair,false,0364_fc_dnn_false_chair_35_n04099969_8604.png,n04099969_8604.png,1.0,17.02163,9.664324,5.2024007
bagnet33,1,365,NaN,bicycle,bicycle,true,0365_fc_dnn_true_bicycle_35_n02835271_15524.png,n02835271_15524.png,1.0,17.08143,3.8469584,9.358185
bagnet33,1,366,NaN,chair,chair,false,0366_fc_dnn_false_chair_35_n04429376_55163.png,n04429376_55163.png,1.0,5.255003,4.6085973,0.45707786
bagnet33,1,367,NaN,dog,dog,true,0367_fc_dnn_true_dog_35_n02106662_10632.png,n02106662_10632.png,1.0,10.272872,7.509749,1.9538231
bagnet33,1,368,NaN,car,car,false,0368_fc_dnn_false_car_35_n03100240_9675.png,n03100240_9675.png,1.0,18.006685,11.439859,4.6434474
bagnet33,1,369,NaN,bird,bird,true,0369_fc_dnn_true_bird_35_n02011460_22291.png,n02011460_22291.png,1.0,7.5191526,1.0902717,4.545905
bagnet33,1,370,NaN,elephant,dog,false,0370_fc_dnn_false_dog_35_n02106662_56099.png,n02106662_56099.png,0.0,2.802519,6.546314,-2.6472626
bagnet33,1,371,NaN,keyboard,keyboard,false,0371_fc_dnn_false_keyboard_35_n04505470_3970.png,n04505470_3970.png,1.0,37.496094,9.56292,19.751738
bagnet33,1,372,NaN,bicycle,boat,false,0372_fc_dnn_false_boat_35_n03662601_32803.png,n03662601_32803.png,0.0,5.8371477,6.086546,-0.17635119
bagnet33,1,373,NaN,bottle,bottle,false,0373_fc_dnn_false_bottle_35_n02823428_4043.png,n02823428_4043.png,1.0,13.562762,4.272545,6.5691757
bagnet33,1,374,NaN,airplane,airplane,true,0374_fc_dnn_true_airplane_35_n02690373_5221.png,n02690373_5221.png,1.0,28.135008,6.0692425,15.602853
bagnet33,1,375,NaN,bottle,knife,false,0375_fc_dnn_false_knife_35_n03041632_90125.png,n03041632_90125.png,0.0,1.4442904,4.7214227,-2.3172824
bagnet33,1,376,NaN,oven,oven,false,0376_fc_dnn_false_oven_35_n04111531_11230.png,n04111531_11230.png,1.0,11.015455,6.505148,3.1892688
bagnet33,1,377,NaN,keyboard,keyboard,true,0377_fc_dnn_true_keyboard_35_n04505470_3002.png,n04505470_3002.png,1.0,11.108737,8.972979,1.5102093
bagnet33,1,378,NaN,bicycle,bicycle,true,0378_fc_dnn_true_bicycle_35_n02835271_12237.png,n02835271_12237.png,1.0,15.030399,3.3794582,8.23846
bagnet33,1,379,NaN,clock,dog,false,0379_fc_dnn_false_dog_35_n02088238_9947.png,n02088238_9947.png,0.0,2.9078646,4.5719285,-1.1766709
bagnet33,1,380,NaN,airplane,airplane,false,0380_fc_dnn_false_airplane_35_n02690373_2075.png,n02690373_2075.png,1.0,4.0346575,3.7436,0.2058088
bagnet33,1,381,NaN,bicycle,bicycle,false,0381_fc_dnn_false_bicycle_35_n02835271_12930.png,n02835271_12930.png,1.0,12.842609,5.552055,5.1552005
bagnet33,1,382,NaN,elephant,dog,false,0382_fc_dnn_false_dog_35_n02096294_4609.png,n02096294_4609.png,0.0,5.869721,6.711215,-0.5950262
bagnet33,1,383,NaN,knife,knife,false,0383_fc_dnn_false_knife_35_n03041632_15754.png,n03041632_15754.png,1.0,8.454039,4.514865,2.7854164
bagnet33,1,384,NaN,bird,bird,true,0384_fc_dnn_true_bird_35_n01819313_5634.png,n01819313_5634.png,1.0,7.3077083,6.7461066,0.39711234
bagnet33,1,385,NaN,clock,clock,true,0385_fc_dnn_true_clock_35_n02708093_8386.png,n02708093_8386.png,1.0,11.484942,2.4385583,6.3967595
bagnet33,1,386,NaN,bottle,bottle,false,0386_fc_dnn_false_bottle_35_n04579145_6435.png,n04579145_6435.png,1.0,7.868318,4.014751,2.7248836
bagnet33,1,387,NaN,airplane,airplane,true,0387_fc_dnn_true_airplane_35_n02690373_9531.png,n02690373_9531.png,1.0,17.045439,7.9165406,6.4551063
bagnet33,1,388,NaN,bicycle,bottle,true,0388_fc_dnn_true_bottle_35_n04591713_5518.png,n04591713_5518.png,0.0,4.202068,5.556555,-0.9577669
bagnet33,1,389,NaN,airplane,airplane,false,0389_fc_dnn_false_airplane_35_n02690373_12896.png,n02690373_12896.png,1.0,13.708405,5.880509,5.535158
bagnet33,1,390,NaN,truck,truck,false,0390_fc_dnn_false_truck_35_n03796401_124.png,n03796401_124.png,1.0,8.149647,7.0739856,0.7606073
bagnet33,1,391,NaN,bicycle,bicycle,true,0391_fc_dnn_true_bicycle_35_n03792782_7050.png,n03792782_7050.png,1.0,5.301835,2.4886024,1.9892559
bagnet33,1,392,NaN,bicycle,bicycle,true,0392_fc_dnn_true_bicycle_35_n02835271_13729.png,n02835271_13729.png,1.0,22.339895,2.9102988,13.738799
bagnet33,1,393,NaN,bird,bird,false,0393_fc_dnn_false_bird_35_n02027492_3922.png,n02027492_3922.png,1.0,4.5720553,2.6694403,1.345352
bagnet33,1,394,NaN,elephant,elephant,true,0394_fc_dnn_true_elephant_35_n02504013_9809.png,n02504013_9809.png,1.0,16.441818,2.2711787,10.020155
bagnet33,1,395,NaN,keyboard,keyboard,false,0395_fc_dnn_false_keyboard_35_n04505470_5086.png,n04505470_5086.png,1.0,26.137846,7.3939195,13.253958
bagnet33,1,396,NaN,keyboard,keyboard,true,0396_fc_dnn_true_keyboard_35_n03085013_19439.png,n03085013_19439.png,1.0,23.000782,7.798116,10.7499075
bagnet33,1,397,NaN,airplane,airplane,false,0397_fc_dnn_false_airplane_35_n02690373_9926.png,n02690373_9926.png,1.0,17.699142,5.0815535,8.921983
bagnet33,1,398,NaN,elephant,elephant,true,0398_fc_dnn_true_elephant_35_n02504458_3197.png,n02504458_3197.png,1.0,31.608547,4.466898,19.192045
bagnet33,1,399,NaN,bear,dog,false,0399_fc_dnn_false_dog_35_n02110185_14056.png,n02110185_14056.png,0.0,6.1423626,7.0443306,-0.6377877
bagnet33,1,400,NaN,airplane,airplane,true,0400_fc_dnn_true_airplane_35_n02690373_2823.png,n02690373_2823.png,1.0,34.90716,8.068662,18.977686
bagnet33,1,401,NaN,bicycle,bicycle,false,0401_fc_dnn_false_bicycle_35_n02835271_14157.png,n02835271_14157.png,1.0,38.620255,5.27647,23.577616
bagnet33,1,402,NaN,chair,chair,true,0402_fc_dnn_true_chair_35_n03376595_606.png,n03376595_606.png,1.0,8.599213,1.008788,5.367241
bagnet33,1,403,NaN,airplane,airplane,false,0403_fc_dnn_false_airplane_35_n02690373_1442.png,n02690373_1442.png,1.0,20.58971,6.2378936,10.148267
bagnet33,1,404,NaN,keyboard,keyboard,true,0404_fc_dnn_true_keyboard_35_n04505470_10035.png,n04505470_10035.png,1.0,18.142723,8.914255,6.525512
bagnet33,1,405,NaN,elephant,bear,true,0405_fc_dnn_true_bear_35_n02133161_13278.png,n02133161_13278.png,0.0,9.635583,12.325043,-1.9017353
bagnet33,1,406,NaN,elephant,bear,true,0406_fc_dnn_true_bear_35_n02134418_2657.png,n02134418_2657.png,0.0,2.6861682,4.9546843,-1.6040831
bagnet33,1,407,NaN,bear,bear,false,0407_fc_dnn_false_bear_35_n02133161_12894.png,n02133161_12894.png,1.0,12.852884,7.2868977,3.935747
bagnet33,1,408,NaN,clock,clock,false,0408_fc_dnn_false_clock_35_n03196217_6195.png,n03196217_6195.png,1.0,9.051234,5.1327972,2.7707534
bagnet33,1,409,NaN,bottle,bottle,true,0409_fc_dnn_true_bottle_35_n04591713_13349.png,n04591713_13349.png,1.0,16.756336,5.822423,7.7314444
bagnet33,1,410,NaN,airplane,boat,false,0410_fc_dnn_false_boat_35_n04273569_16295.png,n04273569_16295.png,0.0,7.051605,9.718025,-1.8854437
bagnet33,1,411,NaN,elephant,elephant,false,0411_fc_dnn_false_elephant_35_n02504013_2672.png,n02504013_2672.png,1.0,22.055191,3.554124,13.08223
bagnet33,1,412,NaN,bear,bear,true,0412_fc_dnn_true_bear_35_n02134084_22292.png,n02134084_22292.png,1.0,10.784363,9.561296,0.8648385
bagnet33,1,413,NaN,airplane,airplane,false,0413_fc_dnn_false_airplane_35_n02690373_997.png,n02690373_997.png,1.0,11.212667,5.6870756,3.9071836
bagnet33,1,414,NaN,knife,knife,true,0414_fc_dnn_true_knife_35_n03041632_29337.png,n03041632_29337.png,1.0,7.7956343,3.824285,2.808168
bagnet33,1,415,NaN,elephant,elephant,true,0415_fc_dnn_true_elephant_35_n02504458_3261.png,n02504458_3261.png,1.0,16.40134,3.5690968,9.073767
bagnet33,1,416,NaN,oven,oven,true,0416_fc_dnn_true_oven_35_n04111531_22120.png,n04111531_22120.png,1.0,11.660648,5.438109,4.4
bagnet33,1,417,NaN,elephant,bear,true,0417_fc_dnn_true_bear_35_n02134418_830.png,n02134418_830.png,0.0,6.9673405,7.727606,-0.5375888
bagnet33,1,418,NaN,truck,truck,false,0418_fc_dnn_false_truck_35_n03417042_2124.png,n03417042_2124.png,1.0,18.61388,9.365458,6.5396223
bagnet33,1,419,NaN,bicycle,bicycle,false,0419_fc_dnn_false_bicycle_35_n02835271_14585.png,n02835271_14585.png,1.0,16.836363,3.1857536,9.652438
bagnet33,1,420,NaN,oven,oven,true,0420_fc_dnn_true_oven_35_n04111531_2855.png,n04111531_2855.png,1.0,11.332462,3.4820266,5.5510964
bagnet33,1,421,NaN,cat,cat,false,0421_fc_dnn_false_cat_35_n02123394_4383.png,n02123394_4383.png,1.0,7.66864,4.522807,2.2244399
bagnet33,1,422,NaN,cat,cat,true,0422_fc_dnn_true_cat_35_n02125311_17068.png,n02125311_17068.png,1.0,13.982511,10.3786545,2.5483112
bagnet33,1,423,NaN,bird,bird,false,0423_fc_dnn_false_bird_35_n01560419_2291.png,n01560419_2291.png,1.0,12.442061,2.1257243,7.2947526
bagnet33,1,424,NaN,dog,bird,false,0424_fc_dnn_false_bird_35_n01829413_2459.png,n01829413_2459.png,0.0,-0.1671769,2.4976566,-1.8843219
bagnet33,1,425,NaN,oven,oven,true,0425_fc_dnn_true_oven_35_n04111531_13822.png,n04111531_13822.png,1.0,20.456015,4.2176147,11.482283
bagnet33,1,426,NaN,bear,bear,false,0426_fc_dnn_false_bear_35_n02133161_5067.png,n02133161_5067.png,1.0,7.1021214,4.0304713,2.1719847
bagnet33,1,427,NaN,chair,chair,false,0427_fc_dnn_false_chair_35_n02791124_885.png,n02791124_885.png,1.0,4.761477,3.4432862,0.93210167
bagnet33,1,428,NaN,cat,dog,true,0428_fc_dnn_true_dog_35_n02107312_7182.png,n02107312_7182.png,0.0,1.811649,3.5504773,-1.2295372
bagnet33,1,429,NaN,truck,truck,true,0429_fc_dnn_true_truck_35_n04467665_13989.png,n04467665_13989.png,1.0,10.345319,8.664064,1.1888264
bagnet33,1,430,NaN,dog,dog,true,0430_fc_dnn_true_dog_35_n02102480_10232.png,n02102480_10232.png,1.0,7.157165,5.328841,1.2928202
bagnet33,1,431,NaN,oven,oven,false,0431_fc_dnn_false_oven_35_n04111531_643.png,n04111531_643.png,1.0,10.606545,5.541239,3.5817127
bagnet33,1,432,NaN,boat,boat,true,0432_fc_dnn_true_boat_35_n02951358_31514.png,n02951358_31514.png,1.0,14.9489155,5.8775253,6.4144416
bagnet33,1,433,NaN,oven,oven,true,0433_fc_dnn_true_oven_35_n04111531_1898.png,n04111531_1898.png,1.0,17.114155,4.9029217,8.634645
bagnet33,1,434,NaN,car,car,true,0434_fc_dnn_true_car_35_n03100240_5865.png,n03100240_5865.png,1.0,20.961565,13.42847,5.326703
bagnet33,1,435,NaN,keyboard,keyboard,true,0435_fc_dnn_true_keyboard_35_n04505470_4369.png,n04505470_4369.png,1.0,34.171535,11.1139145,16.304201
bagnet33,1,436,NaN,cat,cat,false,0436_fc_dnn_false_cat_35_n02123394_1942.png,n02123394_1942.png,1.0,3.7633684,1.939512,1.2896612
bagnet33,1,437,NaN,car,car,true,0437_fc_dnn_true_car_35_n04285008_2900.png,n04285008_2900.png,1.0,18.694387,9.52784,6.481728
bagnet33,1,438,NaN,airplane,airplane,true,0438_fc_dnn_true_airplane_35_n02690373_10926.png,n02690373_10926.png,1.0,16.237123,3.9366221,8.697767
bagnet33,1,439,NaN,knife,knife,true,0439_fc_dnn_true_knife_35_n03041632_11613.png,n03041632_11613.png,1.0,4.6110926,4.2228727,0.2745129
bagnet33,1,440,NaN,knife,knife,true,0440_fc_dnn_true_knife_35_n03041632_24817.png,n03041632_24817.png,1.0,7.6910667,4.289317,2.4054003
bagnet33,1,441,NaN,bicycle,bicycle,true,0441_fc_dnn_true_bicycle_35_n02835271_3042.png,n02835271_3042.png,1.0,17.901722,4.2183065,9.675636
bagnet33,1,442,NaN,dog,dog,true,0442_fc_dnn_true_dog_35_n02102177_7737.png,n02102177_7737.png,1.0,8.259635,2.390859,4.149852
bagnet33,1,443,NaN,oven,oven,true,0443_fc_dnn_true_oven_35_n04111531_21460.png,n04111531_21460.png,1.0,12.52917,4.7714286,5.485552
bagnet33,1,444,NaN,keyboard,keyboard,false,0444_fc_dnn_false_keyboard_35_n04505470_7388.png,n04505470_7388.png,1.0,19.179443,5.5400457,9.64451
bagnet33,1,445,NaN,bird,bird,true,0445_fc_dnn_true_bird_35_n01828970_25642.png,n01828970_25642.png,1.0,8.45216,4.5858507,2.7338934
bagnet33,1,446,NaN,bicycle,bicycle,false,0446_fc_dnn_false_bicycle_35_n02835271_608.png,n02835271_608.png,1.0,5.3850446,4.6202116,0.5408186
bagnet33,1,447,NaN,boat,boat,true,0447_fc_dnn_true_boat_35_n04273569_26182.png,n04273569_26182.png,1.0,10.127668,9.976709,0.10674415
bagnet33,1,448,NaN,cat,cat,false,0448_fc_dnn_false_cat_35_n02123045_9384.png,n02123045_9384.png,1.0,13.841164,3.0151584,7.655142
bagnet33,1,449,NaN,airplane,airplane,true,0449_fc_dnn_true_airplane_35_n02690373_9529.png,n02690373_9529.png,1.0,20.853918,7.1521764,9.688595
bagnet33,1,450,NaN,cat,cat,true,0450_fc_dnn_true_cat_35_n02123597_5081.png,n02123597_5081.png,1.0,6.2163677,4.0707297,1.5171952
bagnet33,1,451,NaN,oven,oven,false,0451_fc_dnn_false_oven_35_n04111531_4998.png,n04111531_4998.png,1.0,8.333955,5.7914395,1.7978299
bagnet33,1,452,NaN,clock,clock,true,0452_fc_dnn_true_clock_35_n04548280_1245.png,n04548280_1245.png,1.0,18.402388,5.1261826,9.387694
bagnet33,1,453,NaN,cat,dog,true,0453_fc_dnn_true_dog_35_n02104365_8609.png,n02104365_8609.png,0.0,1.6742227,3.517596,-1.3034618
bagnet33,1,454,NaN,clock,clock,false,0454_fc_dnn_false_clock_35_n02708093_6414.png,n02708093_6414.png,1.0,14.143514,7.4882207,4.7060027
bagnet33,1,455,NaN,bird,bird,true,0455_fc_dnn_true_bird_35_n01798484_9155.png,n01798484_9155.png,1.0,6.520483,3.6888452,2.0022705
bagnet33,1,456,NaN,oven,oven,true,0456_fc_dnn_true_oven_35_n04111531_10724.png,n04111531_10724.png,1.0,12.83839,8.040866,3.392362
bagnet33,1,457,NaN,boat,boat,true,0457_fc_dnn_true_boat_35_n02951358_32687.png,n02951358_32687.png,1.0,15.269295,8.977981,4.448631
bagnet33,1,458,NaN,bicycle,bicycle,true,0458_fc_dnn_true_bicycle_35_n02835271_31.png,n02835271_31.png,1.0,11.812098,2.3551426,6.687077
bagnet33,1,459,NaN,bottle,bottle,true,0459_fc_dnn_true_bottle_35_n04557648_4420.png,n04557648_4420.png,1.0,6.237336,3.8482432,1.6893438
bagnet33,1,460,NaN,bear,bear,true,0460_fc_dnn_true_bear_35_n02133161_713.png,n02133161_713.png,1.0,12.235121,6.9869714,3.711002
bagnet33,1,461,NaN,airplane,airplane,false,0461_fc_dnn_false_airplane_35_n02690373_5967.png,n02690373_5967.png,1.0,16.234476,5.023135,7.927615
bagnet33,1,462,NaN,bird,bird,true,0462_fc_dnn_true_bird_35_n01795545_4502.png,n01795545_4502.png,1.0,4.3505282,3.6303053,0.50927454
bagnet33,1,463,NaN,cat,cat,true,0463_fc_dnn_true_cat_35_n02124075_11466.png,n02124075_11466.png,1.0,9.373786,6.6318126,1.938868
bagnet33,1,464,NaN,clock,keyboard,true,0464_fc_dnn_true_keyboard_35_n03085013_21769.png,n03085013_21769.png,0.0,5.2320423,6.004308,-0.54607445
bagnet33,1,465,NaN,car,car,false,0465_fc_dnn_false_car_35_n03100240_15097.png,n03100240_15097.png,1.0,9.4447155,7.932644,1.0691961
bagnet33,1,466,NaN,bear,dog,false,0466_fc_dnn_false_dog_35_n02093647_3072.png,n02093647_3072.png,0.0,4.5038075,6.686442,-1.5433556
bagnet33,1,467,NaN,bicycle,bicycle,false,0467_fc_dnn_false_bicycle_35_n02835271_12701.png,n02835271_12701.png,1.0,5.245552,2.4238791,1.9952241
bagnet33,1,468,NaN,bear,bear,false,0468_fc_dnn_false_bear_35_n02134084_3227.png,n02134084_3227.png,1.0,4.349577,3.5269048,0.5817171
bagnet33,1,469,NaN,cat,cat,true,0469_fc_dnn_true_cat_35_n02123394_5001.png,n02123394_5001.png,1.0,9.1853485,5.2301702,2.7967334
bagnet33,1,470,NaN,keyboard,keyboard,true,0470_fc_dnn_true_keyboard_35_n03085013_6862.png,n03085013_6862.png,1.0,18.986183,4.7048583,10.098421
bagnet33,1,471,NaN,chair,chair,true,0471_fc_dnn_true_chair_35_n04099969_45461.png,n04099969_45461.png,1.0,12.162324,2.4141004,6.893035
bagnet33,1,472,NaN,bicycle,bicycle,false,0472_fc_dnn_false_bicycle_35_n03792782_485.png,n03792782_485.png,1.0,16.225548,3.3030124,9.137612
bagnet33,1,473,NaN,oven,oven,true,0473_fc_dnn_true_oven_35_n04111531_1674.png,n04111531_1674.png,1.0,6.0322504,5.5480366,0.3423909
bagnet33,1,474,NaN,airplane,airplane,true,0474_fc_dnn_true_airplane_35_n02690373_866.png,n02690373_866.png,1.0,28.631622,6.1500154,15.896897
bagnet33,1,475,NaN,bottle,oven,false,0475_fc_dnn_false_oven_35_n04111531_9297.png,n04111531_9297.png,0.0,0.67213476,2.1560478,-1.049285
bagnet33,1,476,NaN,elephant,elephant,false,0476_fc_dnn_false_elephant_35_n02504458_6878.png,n02504458_6878.png,1.0,14.006456,3.8157587,7.2059116
bagnet33,1,477,NaN,car,car,true,0477_fc_dnn_true_car_35_n03100240_3151.png,n03100240_3151.png,1.0,12.25826,10.087547,1.5349256
bagnet33,1,478,NaN,airplane,airplane,false,0478_fc_dnn_false_airplane_35_n02690373_6363.png,n02690373_6363.png,1.0,24.249722,5.5120897,13.249507
bagnet33,1,479,NaN,car,car,true,0479_fc_dnn_true_car_35_n04285008_15049.png,n04285008_15049.png,1.0,16.591215,11.10646,3.8783078
bagnet33,1,480,NaN,airplane,truck,true,0480_fc_dnn_true_truck_35_n04467665_2505.png,n04467665_2505.png,0.0,8.4851465,9.382598,-0.63459396
bagnet33,1,481,NaN,knife,bottle,true,0481_fc_dnn_true_bottle_35_n04591713_4030.png,n04591713_4030.png,0.0,6.4148474,6.5873666,-0.1219895
bagnet33,1,482,NaN,oven,oven,true,0482_fc_dnn_true_oven_35_n04111531_12929.png,n04111531_12929.png,1.0,9.433577,6.580087,2.0177217
bagnet33,1,483,NaN,cat,cat,true,0483_fc_dnn_true_cat_35_n02125311_53315.png,n02125311_53315.png,1.0,14.049254,4.277295,6.9098186
bagnet33,1,484,NaN,oven,dog,true,0484_fc_dnn_true_dog_35_n02087046_4409.png,n02087046_4409.png,0.0,1.9350497,3.4623086,-1.0799352
bagnet33,1,485,NaN,oven,oven,false,0485_fc_dnn_false_oven_35_n04111531_21120.png,n04111531_21120.png,1.0,9.763878,3.7843754,4.228147
bagnet33,1,486,NaN,elephant,elephant,false,0486_fc_dnn_false_elephant_35_n02504013_5934.png,n02504013_5934.png,1.0,3.4317017,2.4113712,0.7214826
bagnet33,1,487,NaN,car,car,true,0487_fc_dnn_true_car_35_n04285008_3631.png,n04285008_3631.png,1.0,11.378385,9.201838,1.5390512
bagnet33,1,488,NaN,clock,clock,true,0488_fc_dnn_true_clock_35_n03196217_7663.png,n03196217_7663.png,1.0,7.985474,6.5096498,1.0435654
bagnet33,1,489,NaN,bicycle,bicycle,false,0489_fc_dnn_false_bicycle_35_n03792782_801.png,n03792782_801.png,1.0,2.3619938,1.9140522,0.3167425
bagnet33,1,490,NaN,cat,bear,false,0490_fc_dnn_false_bear_35_n02133161_6983.png,n02133161_6983.png,0.0,1.0675272,2.2372215,-0.8270988
bagnet33,1,491,NaN,keyboard,keyboard,true,0491_fc_dnn_true_keyboard_35_n03085013_20825.png,n03085013_20825.png,1.0,26.42675,9.176871,12.197506
bagnet33,1,492,NaN,clock,clock,true,0492_fc_dnn_true_clock_35_n03196217_1219.png,n03196217_1219.png,1.0,11.81869,6.288972,3.9101014
bagnet33,1,493,NaN,airplane,airplane,true,0493_fc_dnn_true_airplane_35_n02690373_18864.png,n02690373_18864.png,1.0,27.25394,6.183448,14.899088
bagnet33,1,494,NaN,airplane,airplane,false,0494_fc_dnn_false_airplane_35_n02690373_1019.png,n02690373_1019.png,1.0,8.641081,4.80114,2.7152483
bagnet33,1,495,NaN,bird,bird,true,0495_fc_dnn_true_bird_35_n02013706_10478.png,n02013706_10478.png,1.0,14.785873,0.20245986,10.312031
bagnet33,1,496,NaN,bear,bear,true,0496_fc_dnn_true_bear_35_n02132136_258.png,n02132136_258.png,1.0,9.463104,6.5122585,2.086563
bagnet33,1,497,NaN,bottle,chair,false,0497_fc_dnn_false_chair_35_n04099969_16350.png,n04099969_16350.png,0.0,0.0025733411,2.3268626,-1.6435207
bagnet33,1,498,NaN,chair,chair,true,0498_fc_dnn_true_chair_35_n04099969_16456.png,n04099969_16456.png,1.0,7.625758,3.6090565,2.8402371
bagnet33,1,499,NaN,bottle,bottle,false,0499_fc_dnn_false_bottle_35_n03983396_12027.png,n03983396_12027.png,1.0,13.914653,4.132835,6.91679
bagnet33,1,500,NaN,chair,chair,true,0500_fc_dnn_true_chair_35_n02791124_5438.png,n02791124_5438.png,1.0,20.348328,6.8949127,9.513001
bagnet33,1,501,NaN,elephant,elephant,true,0501_fc_dnn_true_elephant_35_n02504458_4939.png,n02504458_4939.png,1.0,23.540947,5.1077356,13.034249
bagnet33,1,502,NaN,keyboard,keyboard,false,0502_fc_dnn_false_keyboard_35_n04505470_2600.png,n04505470_2600.png,1.0,18.208004,6.835068,8.041881
bagnet33,1,503,NaN,chair,chair,true,0503_fc_dnn_true_chair_35_n03376595_7394.png,n03376595_7394.png,1.0,6.7982197,4.8391123,1.3852981
bagnet33,1,504,NaN,bicycle,bicycle,false,0504_fc_dnn_false_bicycle_35_n02835271_9772.png,n02835271_9772.png,1.0,9.829395,2.2568464,5.354601
bagnet33,1,505,NaN,car,car,true,0505_fc_dnn_true_car_35_n02814533_55937.png,n02814533_55937.png,1.0,12.221831,9.244854,2.1050408
bagnet33,1,506,NaN,airplane,airplane,true,0506_fc_dnn_true_airplane_35_n02690373_3920.png,n02690373_3920.png,1.0,8.884716,5.3124237,2.5259922
bagnet33,1,507,NaN,oven,oven,false,0507_fc_dnn_false_oven_35_n04111531_6400.png,n04111531_6400.png,1.0,5.294853,2.590504,1.9122638
bagnet33,1,508,NaN,bicycle,truck,false,0508_fc_dnn_false_truck_35_n03417042_4587.png,n03417042_4587.png,0.0,5.974571,8.392426,-1.7096812
bagnet33,1,509,NaN,knife,knife,true,0509_fc_dnn_true_knife_35_n03041632_31849.png,n03041632_31849.png,1.0,10.710903,3.546622,5.065912
bagnet33,1,510,NaN,cat,cat,true,0510_fc_dnn_true_cat_35_n02125311_8541.png,n02125311_8541.png,1.0,7.7368846,5.279171,1.737866
bagnet33,1,511,NaN,airplane,airplane,true,0511_fc_dnn_true_airplane_35_n02690373_2162.png,n02690373_2162.png,1.0,28.161152,8.540088,13.874187
bagnet33,1,512,NaN,bear,dog,true,0512_fc_dnn_true_dog_35_n02108551_11297.png,n02108551_11297.png,0.0,10.4232435,11.045082,-0.43970627
bagnet33,1,513,NaN,car,car,true,0513_fc_dnn_true_car_35_n02814533_34396.png,n02814533_34396.png,1.0,18.38505,12.164059,4.3989053
bagnet33,1,514,NaN,elephant,elephant,true,0514_fc_dnn_true_elephant_35_n02504013_6431.png,n02504013_6431.png,1.0,25.312702,4.0313396,15.048196
bagnet33,1,515,NaN,bicycle,bicycle,false,0515_fc_dnn_false_bicycle_35_n03792782_51723.png,n03792782_51723.png,1.0,7.040966,2.241725,3.393576
bagnet33,1,516,NaN,dog,dog,false,0516_fc_dnn_false_dog_35_n02093754_5867.png,n02093754_5867.png,1.0,6.992814,4.8550463,1.5116302
bagnet33,1,517,NaN,clock,clock,true,0517_fc_dnn_true_clock_35_n04548280_3245.png,n04548280_3245.png,1.0,12.263379,4.033773,5.8192105
bagnet33,1,518,NaN,airplane,airplane,true,0518_fc_dnn_true_airplane_35_n02690373_9762.png,n02690373_9762.png,1.0,20.035847,6.0073867,9.919619
bagnet33,1,519,NaN,bird,bird,true,0519_fc_dnn_true_bird_35_n02002724_2909.png,n02002724_2909.png,1.0,12.653022,5.7554264,4.8773365
bagnet33,1,520,NaN,knife,bottle,true,0520_fc_dnn_true_bottle_35_n04557648_10123.png,n04557648_10123.png,0.0,3.4604716,5.741519,-1.6129441
bagnet33,1,521,NaN,elephant,elephant,true,0521_fc_dnn_true_elephant_35_n02504013_5432.png,n02504013_5432.png,1.0,19.269764,7.635177,8.226895
bagnet33,1,522,NaN,cat,cat,false,0522_fc_dnn_false_cat_35_n02123597_4998.png,n02123597_4998.png,1.0,7.0115795,3.912336,2.1914961
bagnet33,1,523,NaN,bottle,bottle,true,0523_fc_dnn_true_bottle_35_n04557648_11594.png,n04557648_11594.png,1.0,7.1793137,4.1090193,2.171026
bagnet33,1,524,NaN,clock,clock,false,0524_fc_dnn_false_clock_35_n03196217_2567.png,n03196217_2567.png,1.0,8.731811,5.3206882,2.4120278
bagnet33,1,525,NaN,airplane,truck,false,0525_fc_dnn_false_truck_35_n03796401_9136.png,n03796401_9136.png,0.0,4.1853123,7.1969585,-2.1295555
bagnet33,1,526,NaN,clock,boat,false,0526_fc_dnn_false_boat_35_n03344393_8492.png,n03344393_8492.png,0.0,3.6393096,4.3204694,-0.48165268
bagnet33,1,527,NaN,cat,cat,false,0527_fc_dnn_false_cat_35_n02123159_8267.png,n02123159_8267.png,1.0,9.558375,4.647469,3.4725351
bagnet33,1,528,NaN,bottle,bottle,false,0528_fc_dnn_false_bottle_35_n04557648_12039.png,n04557648_12039.png,1.0,12.788514,3.4208093,6.6239676
bagnet33,1,529,NaN,keyboard,keyboard,false,0529_fc_dnn_false_keyboard_35_n04505470_2828.png,n04505470_2828.png,1.0,45.397377,8.550395,26.05475
bagnet33,1,530,NaN,boat,boat,true,0530_fc_dnn_true_boat_35_n02951358_31198.png,n02951358_31198.png,1.0,9.830444,5.906488,2.7746563
bagnet33,1,531,NaN,chair,oven,false,0531_fc_dnn_false_oven_35_n04111531_5801.png,n04111531_5801.png,0.0,3.628242,3.7858262,-0.11142885
bagnet33,1,532,NaN,bicycle,bicycle,false,0532_fc_dnn_false_bicycle_35_n02835271_9672.png,n02835271_9672.png,1.0,25.617395,4.2239003,15.127486
bagnet33,1,533,NaN,keyboard,keyboard,false,0533_fc_dnn_false_keyboard_35_n03085013_23865.png,n03085013_23865.png,1.0,7.0736985,6.1441755,0.65727204
bagnet33,1,534,NaN,bottle,bottle,true,0534_fc_dnn_true_bottle_35_n04591713_7133.png,n04591713_7133.png,1.0,8.394349,7.4292426,0.68243337
bagnet33,1,535,NaN,car,car,true,0535_fc_dnn_true_car_35_n04285008_10006.png,n04285008_10006.png,1.0,19.465425,8.763735,7.5672383
bagnet33,1,536,NaN,airplane,airplane,true,0536_fc_dnn_true_airplane_35_n02690373_2431.png,n02690373_2431.png,1.0,14.436247,4.424873,7.07911
bagnet33,1,537,NaN,boat,boat,true,0537_fc_dnn_true_boat_35_n04612504_15440.png,n04612504_15440.png,1.0,6.294851,2.7354155,2.516901
bagnet33,1,538,NaN,bicycle,bicycle,true,0538_fc_dnn_true_bicycle_35_n02835271_5648.png,n02835271_5648.png,1.0,12.091084,4.4123335,5.429696
bagnet33,1,539,NaN,airplane,airplane,false,0539_fc_dnn_false_airplane_35_n02690373_3173.png,n02690373_3173.png,1.0,22.938602,8.080141,10.506519
bagnet33,1,540,NaN,oven,oven,false,0540_fc_dnn_false_oven_35_n04111531_82.png,n04111531_82.png,1.0,5.790613,3.991232,1.2723547
bagnet33,1,541,NaN,bottle,chair,false,0541_fc_dnn_false_chair_35_n02791124_2057.png,n02791124_2057.png,0.0,3.9189072,4.191961,-0.19307809
bagnet33,1,542,NaN,elephant,elephant,true,0542_fc_dnn_true_elephant_35_n02504458_12175.png,n02504458_12175.png,1.0,19.908604,2.7428124,12.138047
bagnet33,1,543,NaN,bottle,boat,false,0543_fc_dnn_false_boat_35_n03344393_6869.png,n03344393_6869.png,0.0,3.1937366,3.9155602,-0.51040643
bagnet33,1,544,NaN,truck,truck,false,0544_fc_dnn_false_truck_35_n03417042_1000.png,n03417042_1000.png,1.0,8.792967,6.1180053,1.8914835
bagnet33,1,545,NaN,boat,boat,true,0545_fc_dnn_true_boat_35_n03344393_6890.png,n03344393_6890.png,1.0,7.2310038,7.0969787,0.09477006
bagnet33,1,546,NaN,elephant,elephant,false,0546_fc_dnn_false_elephant_35_n02504458_4139.png,n02504458_4139.png,1.0,21.459393,2.159898,13.646803
bagnet33,1,547,NaN,bear,bear,false,0547_fc_dnn_false_bear_35_n02132136_7231.png,n02132136_7231.png,1.0,19.243874,6.012771,9.355803
bagnet33,1,548,NaN,bear,bird,false,0548_fc_dnn_false_bird_35_n01860187_1815.png,n01860187_1815.png,0.0,3.5123088,3.980687,-0.33119333
bagnet33,1,549,NaN,keyboard,keyboard,true,0549_fc_dnn_true_keyboard_35_n03085013_18891.png,n03085013_18891.png,1.0,2.6728098,2.6237288,0.03470557
bagnet33,1,550,NaN,bicycle,bird,false,0550_fc_dnn_false_bird_35_n01828970_2276.png,n01828970_2276.png,0.0,3.0685444,4.2102365,-0.8072983
bagnet33,1,551,NaN,elephant,elephant,false,0551_fc_dnn_false_elephant_35_n02504013_1720.png,n02504013_1720.png,1.0,16.44769,4.0875106,8.739965
bagnet33,1,552,NaN,knife,knife,false,0552_fc_dnn_false_knife_35_n03041632_16104.png,n03041632_16104.png,1.0,6.9598465,3.7864418,2.243936
bagnet33,1,553,NaN,chair,chair,false,0553_fc_dnn_false_chair_35_n03376595_635.png,n03376595_635.png,1.0,7.8081565,4.9651394,2.0103166
bagnet33,1,554,NaN,bottle,bottle,true,0554_fc_dnn_true_bottle_35_n03983396_6116.png,n03983396_6116.png,1.0,18.735958,6.182809,8.876417
bagnet33,1,555,NaN,dog,dog,true,0555_fc_dnn_true_dog_35_n02113624_2530.png,n02113624_2530.png,1.0,6.8871617,1.080417,4.1059885
bagnet33,1,556,NaN,knife,bird,true,0556_fc_dnn_true_bird_35_n01592084_3972.png,n01592084_3972.png,0.0,2.1125672,3.2483304,-0.80310583
bagnet33,1,557,NaN,airplane,airplane,true,0557_fc_dnn_true_airplane_35_n02690373_5130.png,n02690373_5130.png,1.0,10.95476,5.617514,3.7740026
bagnet33,1,558,NaN,bird,bird,true,0558_fc_dnn_true_bird_35_n01833805_7514.png,n01833805_7514.png,1.0,7.1165037,6.710581,0.28703085
bagnet33,1,559,NaN,truck,truck,false,0559_fc_dnn_false_truck_35_n03417042_16238.png,n03417042_16238.png,1.0,6.002925,4.281682,1.2171025
bagnet33,1,560,NaN,keyboard,keyboard,true,0560_fc_dnn_true_keyboard_35_n04505470_8620.png,n04505470_8620.png,1.0,38.357155,13.744128,17.404037
bagnet33,1,561,NaN,clock,clock,true,0561_fc_dnn_true_clock_35_n03196217_7888.png,n03196217_7888.png,1.0,18.650972,7.0884857,8.175913
bagnet33,1,562,NaN,knife,bottle,true,0562_fc_dnn_true_bottle_35_n04591713_5411.png,n04591713_5411.png,0.0,1.0948895,3.143244,-1.4484055
bagnet33,1,563,NaN,clock,clock,false,0563_fc_dnn_false_clock_35_n03196217_2639.png,n03196217_2639.png,1.0,22.033531,2.7846234,13.611033
bagnet33,1,564,NaN,elephant,elephant,true,0564_fc_dnn_true_elephant_35_n02504458_6437.png,n02504458_6437.png,1.0,6.0793915,1.6246915,3.1499486
bagnet33,1,565,NaN,truck,truck,true,0565_fc_dnn_true_truck_35_n03417042_27586.png,n03417042_27586.png,1.0,12.58069,7.2015233,3.8036456
bagnet33,1,566,NaN,keyboard,keyboard,false,0566_fc_dnn_false_keyboard_35_n03085013_24124.png,n03085013_24124.png,1.0,3.595944,2.924266,0.47494796
bagnet33,1,567,NaN,boat,cat,false,0567_fc_dnn_false_cat_35_n02123597_9663.png,n02123597_9663.png,0.0,2.6095226,4.1634073,-1.0987625
bagnet33,1,568,NaN,keyboard,keyboard,true,0568_fc_dnn_true_keyboard_35_n04505470_1833.png,n04505470_1833.png,1.0,10.762718,6.5157,3.0030956
bagnet33,1,569,NaN,car,car,true,0569_fc_dnn_true_car_35_n04285008_4109.png,n04285008_4109.png,1.0,22.872498,13.665405,6.5103974
bagnet33,1,570,NaN,chair,bird,false,0570_fc_dnn_false_bird_35_n01558993_869.png,n01558993_869.png,0.0,-1.8482279,2.819881,-3.3008516
bagnet33,1,571,NaN,truck,truck,true,0571_fc_dnn_true_truck_35_n03796401_6980.png,n03796401_6980.png,1.0,12.001791,5.721393,4.4409122
bagnet33,1,572,NaN,truck,truck,true,0572_fc_dnn_true_truck_35_n03796401_19058.png,n03796401_19058.png,1.0,17.144028,7.5130935,6.8100986
bagnet33,1,573,NaN,knife,bear,false,0573_fc_dnn_false_bear_35_n02134418_5033.png,n02134418_5033.png,0.0,1.1169533,3.2029023,-1.4749887
bagnet33,1,574,NaN,truck,truck,false,0574_fc_dnn_false_truck_35_n03417042_6204.png,n03417042_6204.png,1.0,9.336298,5.6998563,2.5713527
bagnet33,1,575,NaN,bicycle,bicycle,true,0575_fc_dnn_true_bicycle_35_n03792782_7388.png,n03792782_7388.png,1.0,5.6528935,4.507755,0.80973536
bagnet33,1,576,NaN,truck,truck,true,0576_fc_dnn_true_truck_35_n03417042_1561.png,n03417042_1561.png,1.0,23.24197,13.347661,6.996333
bagnet33,1,577,NaN,elephant,elephant,true,0577_fc_dnn_true_elephant_35_n02504458_5501.png,n02504458_5501.png,1.0,20.055407,4.218788,11.19818
bagnet33,1,578,NaN,boat,boat,true,0578_fc_dnn_true_boat_35_n03662601_34124.png,n03662601_34124.png,1.0,14.059964,4.5152626,6.749123
bagnet33,1,579,NaN,bicycle,knife,false,0579_fc_dnn_false_knife_35_n03041632_37949.png,n03041632_37949.png,0.0,2.2091122,3.63587,-1.0088701
bagnet33,1,580,NaN,airplane,airplane,false,0580_fc_dnn_false_airplane_35_n02690373_13585.png,n02690373_13585.png,1.0,14.600622,3.5686336,7.8007936
bagnet33,1,581,NaN,bottle,knife,false,0581_fc_dnn_false_knife_35_n03041632_16932.png,n03041632_16932.png,0.0,1.1372378,4.407205,-2.312216
bagnet33,1,582,NaN,bottle,chair,false,0582_fc_dnn_false_chair_35_n04429376_9501.png,n04429376_9501.png,0.0,2.8832655,5.944374,-2.1645308
bagnet33,1,583,NaN,bottle,bird,false,0583_fc_dnn_false_bird_35_n01532829_10530.png,n01532829_10530.png,0.0,-1.0281576,3.8894327,-3.4772613
bagnet33,1,584,NaN,clock,oven,false,0584_fc_dnn_false_oven_35_n04111531_1562.png,n04111531_1562.png,0.0,4.7599864,5.260024,-0.35358003
bagnet33,1,585,NaN,clock,clock,false,0585_fc_dnn_false_clock_35_n02708093_260.png,n02708093_260.png,1.0,8.609996,5.67204,2.0774486
bagnet33,1,586,NaN,bottle,bottle,true,0586_fc_dnn_true_bottle_35_n04579145_1457.png,n04579145_1457.png,1.0,13.908743,2.9952998,7.7169695
bagnet33,1,587,NaN,chair,chair,true,0587_fc_dnn_true_chair_35_n03376595_9897.png,n03376595_9897.png,1.0,11.510525,4.4764614,4.973834
bagnet33,1,588,NaN,bird,bird,true,0588_fc_dnn_true_bird_35_n01601694_4224.png,n01601694_4224.png,1.0,5.711877,3.89449,1.2850866
bagnet33,1,589,NaN,cat,cat,false,0589_fc_dnn_false_cat_35_n02123159_358.png,n02123159_358.png,1.0,19.871399,5.512646,10.153172
bagnet33,1,590,NaN,bottle,bottle,true,0590_fc_dnn_true_bottle_35_n03983396_11788.png,n03983396_11788.png,1.0,12.383833,3.1230311,6.5483756
bagnet33,1,591,NaN,cat,cat,true,0591_fc_dnn_true_cat_35_n02124075_8341.png,n02124075_8341.png,1.0,13.488017,3.4253597,7.1153736
bagnet33,1,592,NaN,dog,dog,false,0592_fc_dnn_false_dog_35_n02109525_49924.png,n02109525_49924.png,1.0,8.61972,4.3127136,3.0455139
bagnet33,1,593,NaN,airplane,oven,false,0593_fc_dnn_false_oven_35_n04111531_797.png,n04111531_797.png,0.0,0.8756176,2.1455693,-0.8979915
bagnet33,1,594,NaN,bicycle,bicycle,true,0594_fc_dnn_true_bicycle_35_n02835271_15930.png,n02835271_15930.png,1.0,14.958761,4.392289,7.4716244
bagnet33,1,595,NaN,knife,knife,true,0595_fc_dnn_true_knife_35_n03041632_13656.png,n03041632_13656.png,1.0,7.8850927,3.8418987,2.85897
bagnet33,1,596,NaN,clock,clock,false,0596_fc_dnn_false_clock_35_n02708093_8104.png,n02708093_8104.png,1.0,5.2346854,2.1914613,2.1518843
bagnet33,1,597,NaN,boat,truck,true,0597_fc_dnn_true_truck_35_n03796401_3148.png,n03796401_3148.png,0.0,4.223089,5.411663,-0.8404486
bagnet33,1,598,NaN,chair,bottle,false,0598_fc_dnn_false_bottle_35_n04560804_15263.png,n04560804_15263.png,0.0,1.272894,4.9734917,-2.6167178
bagnet33,1,599,NaN,airplane,airplane,true,0599_fc_dnn_true_airplane_35_n02690373_5003.png,n02690373_5003.png,1.0,25.986217,5.9866104,14.141858
bagnet33,1,600,NaN,boat,boat,false,0600_fc_dnn_false_boat_35_n03344393_994.png,n03344393_994.png,1.0,4.1303864,3.5102718,0.43848723
bagnet33,1,601,NaN,bicycle,bicycle,true,0601_fc_dnn_true_bicycle_35_n03792782_5959.png,n03792782_5959.png,1.0,21.626635,1.8844486,13.959833
bagnet33,1,602,NaN,car,car,false,0602_fc_dnn_false_car_35_n04285008_9383.png,n04285008_9383.png,1.0,10.624321,5.0973177,3.9081817
bagnet33,1,603,NaN,clock,clock,true,0603_fc_dnn_true_clock_35_n03196217_5627.png,n03196217_5627.png,1.0,5.987326,2.6327991,2.3720088
bagnet33,1,604,NaN,bird,bird,true,0604_fc_dnn_true_bird_35_n01534433_13846.png,n01534433_13846.png,1.0,4.799744,4.4850397,0.22252963
bagnet33,1,605,NaN,dog,dog,true,0605_fc_dnn_true_dog_35_n02105056_11269.png,n02105056_11269.png,1.0,6.075302,4.4178743,1.1719785
bagnet33,1,606,NaN,airplane,airplane,false,0606_fc_dnn_false_airplane_35_n02690373_9659.png,n02690373_9659.png,1.0,3.9304545,3.1983128,0.5177024
bagnet33,1,607,NaN,cat,car,false,0607_fc_dnn_false_car_35_n04285008_3269.png,n04285008_3269.png,0.0,2.675988,8.98342,-4.460028
bagnet33,1,608,NaN,bottle,bottle,true,0608_fc_dnn_true_bottle_35_n02823428_3178.png,n02823428_3178.png,1.0,8.204317,3.0995264,3.6096323
bagnet33,1,609,NaN,elephant,elephant,false,0609_fc_dnn_false_elephant_35_n02504458_4849.png,n02504458_4849.png,1.0,15.009428,2.8373249,8.6069765
bagnet33,1,610,NaN,elephant,bear,true,0610_fc_dnn_true_bear_35_n02134418_643.png,n02134418_643.png,0.0,7.0829287,7.326232,-0.17204142
bagnet33,1,611,NaN,boat,boat,true,0611_fc_dnn_true_boat_35_n03344393_7773.png,n03344393_7773.png,1.0,12.357389,4.89393,5.277463
bagnet33,1,612,NaN,car,car,true,0612_fc_dnn_true_car_35_n02814533_26516.png,n02814533_26516.png,1.0,21.474028,16.006746,3.8659518
bagnet33,1,613,NaN,chair,cat,false,0613_fc_dnn_false_cat_35_n02123597_3314.png,n02123597_3314.png,0.0,-1.7049904,3.565113,-3.726526
bagnet33,1,614,NaN,bicycle,bicycle,true,0614_fc_dnn_true_bicycle_35_n02835271_6539.png,n02835271_6539.png,1.0,14.191669,3.241129,7.7432017
bagnet33,1,615,NaN,bear,bear,true,0615_fc_dnn_true_bear_35_n02132136_3090.png,n02132136_3090.png,1.0,21.034996,8.207014,9.070753
bagnet33,1,616,NaN,car,car,true,0616_fc_dnn_true_car_35_n03100240_9171.png,n03100240_9171.png,1.0,23.159227,12.657481,7.425856
bagnet33,1,617,NaN,cat,cat,false,0617_fc_dnn_false_cat_35_n02123045_12060.png,n02123045_12060.png,1.0,8.301387,5.0744753,2.2817712
bagnet33,1,618,NaN,truck,truck,false,0618_fc_dnn_false_truck_35_n03796401_26801.png,n03796401_26801.png,1.0,7.796983,4.973638,1.9964062
bagnet33,1,619,NaN,cat,cat,false,0619_fc_dnn_false_cat_35_n02123045_15010.png,n02123045_15010.png,1.0,10.599236,2.87949,5.4586844
bagnet33,1,620,NaN,knife,knife,true,0620_fc_dnn_true_knife_35_n03041632_24883.png,n03041632_24883.png,1.0,8.881411,7.5240207,0.9598196
bagnet33,1,621,NaN,cat,cat,true,0621_fc_dnn_true_cat_35_n02123597_4040.png,n02123597_4040.png,1.0,10.128198,8.729865,0.9887705
bagnet33,1,622,NaN,bicycle,bird,true,0622_fc_dnn_true_bird_35_n01843383_3019.png,n01843383_3019.png,0.0,2.5044825,3.9916344,-1.0515752
bagnet33,1,623,NaN,bear,bear,true,0623_fc_dnn_true_bear_35_n02132136_8619.png,n02132136_8619.png,1.0,19.888126,10.522009,6.622845
bagnet33,1,624,NaN,keyboard,airplane,false,0624_fc_dnn_false_airplane_35_n02690373_1912.png,n02690373_1912.png,0.0,-0.23932406,3.372099,-2.5536618
bagnet33,1,625,NaN,truck,truck,true,0625_fc_dnn_true_truck_35_n03417042_22828.png,n03417042_22828.png,1.0,17.169874,6.5390215,7.517148
bagnet33,1,626,NaN,car,car,true,0626_fc_dnn_true_car_35_n03100240_2909.png,n03100240_2909.png,1.0,21.411673,11.184093,7.231991
bagnet33,1,627,NaN,oven,oven,true,0627_fc_dnn_true_oven_35_n04111531_22563.png,n04111531_22563.png,1.0,11.064535,3.6533058,5.2405305
bagnet33,1,628,NaN,truck,truck,false,0628_fc_dnn_false_truck_35_n03796401_18074.png,n03796401_18074.png,1.0,15.032856,10.552846,3.1678455
bagnet33,1,629,NaN,cat,cat,true,0629_fc_dnn_true_cat_35_n02123159_3092.png,n02123159_3092.png,1.0,4.7256904,2.4446225,1.6129586
bagnet33,1,630,NaN,bird,bird,false,0630_fc_dnn_false_bird_35_n02009912_5983.png,n02009912_5983.png,1.0,3.5201986,2.2743022,0.88098174
bagnet33,1,631,NaN,keyboard,keyboard,true,0631_fc_dnn_true_keyboard_35_n03085013_19916.png,n03085013_19916.png,1.0,9.096714,7.708024,0.98195213
bagnet33,1,632,NaN,bottle,bottle,false,0632_fc_dnn_false_bottle_35_n04591713_4035.png,n04591713_4035.png,1.0,7.806347,2.8926208,3.474529
bagnet33,1,633,NaN,chair,chair,false,0633_fc_dnn_false_chair_35_n04099969_6189.png,n04099969_6189.png,1.0,7.6046267,2.4551973,3.6411965
bagnet33,1,634,NaN,knife,oven,true,0634_fc_dnn_true_oven_35_n04111531_7064.png,n04111531_7064.png,0.0,12.026247,14.631782,-1.8423911
bagnet33,1,635,NaN,boat,boat,false,0635_fc_dnn_false_boat_35_n03344393_595.png,n03344393_595.png,1.0,9.660319,4.356649,3.7502613
bagnet33,1,636,NaN,elephant,elephant,true,0636_fc_dnn_true_elephant_35_n02504458_3099.png,n02504458_3099.png,1.0,25.04174,3.045158,15.553932
bagnet33,1,637,NaN,chair,chair,false,0637_fc_dnn_false_chair_35_n04429376_19617.png,n04429376_19617.png,1.0,5.536747,2.7492778,1.9710383
bagnet33,1,638,NaN,knife,knife,false,0638_fc_dnn_false_knife_35_n03041632_51766.png,n03041632_51766.png,1.0,12.259264,7.3323154,3.4838789
bagnet33,1,639,NaN,elephant,bear,true,0639_fc_dnn_true_bear_35_n02133161_1571.png,n02133161_1571.png,0.0,5.364067,5.387004,-0.016218781
bagnet33,1,640,NaN,bottle,bear,false,0640_fc_dnn_false_bear_35_n02132136_8525.png,n02132136_8525.png,0.0,1.5752537,2.3890934,-0.5754716
bagnet33,1,641,NaN,bird,bird,true,0641_fc_dnn_true_bird_35_n01560419_9124.png,n01560419_9124.png,1.0,7.7096963,3.5994484,2.906384
bagnet33,1,642,NaN,car,car,false,0642_fc_dnn_false_car_35_n02814533_2555.png,n02814533_2555.png,1.0,18.334389,14.471042,2.731799
bagnet33,1,643,NaN,cat,cat,false,0643_fc_dnn_false_cat_35_n02125311_31100.png,n02125311_31100.png,1.0,6.0856376,2.6004298,2.4644141
bagnet33,1,644,NaN,car,car,true,0644_fc_dnn_true_car_35_n02814533_46508.png,n02814533_46508.png,1.0,24.025665,16.992264,4.973366
bagnet33,1,645,NaN,bicycle,bicycle,true,0645_fc_dnn_true_bicycle_35_n03792782_51156.png,n03792782_51156.png,1.0,26.837383,6.5665555,14.33364
bagnet33,1,646,NaN,elephant,elephant,false,0646_fc_dnn_false_elephant_35_n02504013_637.png,n02504013_637.png,1.0,11.44186,2.2791126,6.479041
bagnet33,1,647,NaN,clock,clock,false,0647_fc_dnn_false_clock_35_n04548280_7321.png,n04548280_7321.png,1.0,33.533607,6.4199586,19.172245
bagnet33,1,648,NaN,airplane,airplane,true,0648_fc_dnn_true_airplane_35_n02690373_2447.png,n02690373_2447.png,1.0,17.239891,5.7858315,8.099243
bagnet33,1,649,NaN,elephant,elephant,false,0649_fc_dnn_false_elephant_35_n02504458_477.png,n02504458_477.png,1.0,13.288139,3.6330798,6.8271585
bagnet33,1,650,NaN,knife,bottle,false,0650_fc_dnn_false_bottle_35_n04557648_2063.png,n04557648_2063.png,0.0,1.6911236,4.562321,-2.0302434
bagnet33,1,651,NaN,chair,chair,true,0651_fc_dnn_true_chair_35_n04099969_14155.png,n04099969_14155.png,1.0,13.094145,2.483638,7.5027614
bagnet33,1,652,NaN,elephant,bear,false,0652_fc_dnn_false_bear_35_n02134084_21407.png,n02134084_21407.png,0.0,4.284992,4.2994623,-0.010231907
bagnet33,1,653,NaN,car,boat,false,0653_fc_dnn_false_boat_35_n03662601_4418.png,n03662601_4418.png,0.0,5.128514,8.158993,-2.1428723
bagnet33,1,654,NaN,car,car,true,0654_fc_dnn_true_car_35_n03100240_9497.png,n03100240_9497.png,1.0,14.216258,9.890769,3.0585828
bagnet33,1,655,NaN,airplane,airplane,false,0655_fc_dnn_false_airplane_35_n02690373_4199.png,n02690373_4199.png,1.0,16.642612,4.262327,8.754184
bagnet33,1,656,NaN,boat,boat,false,0656_fc_dnn_false_boat_35_n03662601_4612.png,n03662601_4612.png,1.0,7.9685388,5.503261,1.7432146
bagnet33,1,657,NaN,bicycle,bicycle,true,0657_fc_dnn_true_bicycle_35_n02835271_9531.png,n02835271_9531.png,1.0,14.261778,3.140091,7.8642206
bagnet33,1,658,NaN,bird,bird,false,0658_fc_dnn_false_bird_35_n02037110_21381.png,n02037110_21381.png,1.0,7.5112405,2.2396047,3.7276096
bagnet33,1,659,NaN,bottle,bottle,false,0659_fc_dnn_false_bottle_35_n04560804_6576.png,n04560804_6576.png,1.0,5.921456,2.9132607,2.1271152
bagnet33,1,660,NaN,bottle,bottle,false,0660_fc_dnn_false_bottle_35_n02823428_4358.png,n02823428_4358.png,1.0,18.160376,6.680295,8.117643
bagnet33,1,661,NaN,bottle,bottle,false,0661_fc_dnn_false_bottle_35_n04579145_961.png,n04579145_961.png,1.0,4.407714,2.8501444,1.101368
bagnet33,1,662,NaN,car,car,true,0662_fc_dnn_true_car_35_n02814533_58462.png,n02814533_58462.png,1.0,17.539135,9.311141,5.8180704
bagnet33,1,663,NaN,bicycle,bird,false,0663_fc_dnn_false_bird_35_n01796340_4643.png,n01796340_4643.png,0.0,1.530957,1.881561,-0.24791451
bagnet33,1,664,NaN,bottle,dog,false,0664_fc_dnn_false_dog_35_n02091134_7695.png,n02091134_7695.png,0.0,0.9040643,4.868637,-2.8033764
bagnet33,1,665,NaN,cat,dog,false,0665_fc_dnn_false_dog_35_n02097209_1133.png,n02097209_1133.png,0.0,3.5235987,4.317871,-0.56163543
bagnet33,1,666,NaN,elephant,elephant,true,0666_fc_dnn_true_elephant_35_n02504458_4861.png,n02504458_4861.png,1.0,23.173725,3.2709918,14.073358
bagnet33,1,667,NaN,chair,dog,false,0667_fc_dnn_false_dog_35_n02110806_3673.png,n02110806_3673.png,0.0,2.9516318,4.931977,-1.4003154
bagnet33,1,668,NaN,car,car,false,0668_fc_dnn_false_car_35_n04285008_863.png,n04285008_863.png,1.0,14.071327,7.5542593,4.608263
bagnet33,1,669,NaN,bottle,bicycle,false,0669_fc_dnn_false_bicycle_35_n03792782_52427.png,n03792782_52427.png,0.0,4.5342455,6.8799405,-1.6586568
bagnet33,1,670,NaN,keyboard,keyboard,true,0670_fc_dnn_true_keyboard_35_n03085013_22796.png,n03085013_22796.png,1.0,9.149972,4.2068386,3.4953232
bagnet33,1,671,NaN,bottle,bottle,false,0671_fc_dnn_false_bottle_35_n03983396_22979.png,n03983396_22979.png,1.0,13.329453,3.3934448,7.0258193
bagnet33,1,672,NaN,elephant,dog,true,0672_fc_dnn_true_dog_35_n02109047_4167.png,n02109047_4167.png,0.0,6.033793,7.8536053,-1.2868017
bagnet33,1,673,NaN,bottle,bottle,true,0673_fc_dnn_true_bottle_35_n04560804_15843.png,n04560804_15843.png,1.0,6.9379554,5.932461,0.71099204
bagnet33,1,674,NaN,airplane,airplane,true,0674_fc_dnn_true_airplane_35_n02690373_3383.png,n02690373_3383.png,1.0,24.043875,6.9248734,12.104962
bagnet33,1,675,NaN,truck,truck,true,0675_fc_dnn_true_truck_35_n03796401_7380.png,n03796401_7380.png,1.0,4.9613314,3.4880369,1.0417765
bagnet33,1,676,NaN,clock,clock,true,0676_fc_dnn_true_clock_35_n03196217_11054.png,n03196217_11054.png,1.0,36.5563,11.224945,17.911974
bagnet33,1,677,NaN,airplane,airplane,true,0677_fc_dnn_true_airplane_35_n02690373_599.png,n02690373_599.png,1.0,18.655893,5.029438,9.635359
bagnet33,1,678,NaN,chair,chair,true,0678_fc_dnn_true_chair_35_n04429376_2693.png,n04429376_2693.png,1.0,13.401279,4.2163286,6.494741
bagnet33,1,679,NaN,clock,clock,false,0679_fc_dnn_false_clock_35_n02708093_5265.png,n02708093_5265.png,1.0,46.780914,8.621915,26.982489
bagnet33,1,680,NaN,knife,knife,true,0680_fc_dnn_true_knife_35_n03041632_48149.png,n03041632_48149.png,1.0,11.010024,3.8459435,5.06577
bagnet33,1,681,NaN,dog,dog,true,0681_fc_dnn_true_dog_35_n02096585_9543.png,n02096585_9543.png,1.0,3.7985985,2.114806,1.1906211
bagnet33,1,682,NaN,boat,boat,false,0682_fc_dnn_false_boat_35_n04612504_20927.png,n04612504_20927.png,1.0,6.593381,4.3482294,1.5875618
bagnet33,1,683,NaN,oven,oven,false,0683_fc_dnn_false_oven_35_n04111531_2150.png,n04111531_2150.png,1.0,6.5517297,4.0739427,1.75206
bagnet33,1,684,NaN,bird,bird,false,0684_fc_dnn_false_bird_35_n01797886_12436.png,n01797886_12436.png,1.0,3.0279706,2.3083768,0.50882965
bagnet33,1,685,NaN,truck,truck,false,0685_fc_dnn_false_truck_35_n04467665_197.png,n04467665_197.png,1.0,17.973873,8.9130945,6.406938
bagnet33,1,686,NaN,chair,chair,false,0686_fc_dnn_false_chair_35_n02791124_2091.png,n02791124_2091.png,1.0,7.653104,4.7246256,2.070747
bagnet33,1,687,NaN,chair,chair,false,0687_fc_dnn_false_chair_35_n03376595_1810.png,n03376595_1810.png,1.0,9.607527,3.2594042,4.4888005
bagnet33,1,688,NaN,keyboard,keyboard,false,0688_fc_dnn_false_keyboard_35_n03085013_24439.png,n03085013_24439.png,1.0,7.559652,3.8753486,2.605196
bagnet33,1,689,NaN,bottle,bottle,false,0689_fc_dnn_false_bottle_35_n03983396_18753.png,n03983396_18753.png,1.0,7.4068875,4.091104,2.344613
bagnet33,1,690,NaN,clock,clock,false,0690_fc_dnn_false_clock_35_n02708093_2054.png,n02708093_2054.png,1.0,7.962026,5.9166727,1.4462833
bagnet33,1,691,NaN,elephant,bear,true,0691_fc_dnn_true_bear_35_n02132136_7872.png,n02132136_7872.png,0.0,11.931627,12.844817,-0.64572275
bagnet33,1,692,NaN,car,elephant,true,0692_fc_dnn_true_elephant_35_n02504458_5144.png,n02504458_5144.png,0.0,4.139565,4.798982,-0.46627834
bagnet33,1,693,NaN,chair,oven,false,0693_fc_dnn_false_oven_35_n04111531_6500.png,n04111531_6500.png,0.0,1.3766254,3.9547763,-1.823028
bagnet33,1,694,NaN,elephant,elephant,false,0694_fc_dnn_false_elephant_35_n02504458_209.png,n02504458_209.png,1.0,9.519339,2.7253878,4.804049
bagnet33,1,695,NaN,oven,oven,true,0695_fc_dnn_true_oven_35_n04111531_12769.png,n04111531_12769.png,1.0,21.46122,5.086685,11.578545
bagnet33,1,696,NaN,dog,dog,false,0696_fc_dnn_false_dog_35_n02107574_3387.png,n02107574_3387.png,1.0,6.2106977,4.5444446,1.1782188
bagnet33,1,697,NaN,airplane,airplane,true,0697_fc_dnn_true_airplane_35_n02690373_4706.png,n02690373_4706.png,1.0,25.041891,8.303578,11.835774
bagnet33,1,698,NaN,dog,dog,false,0698_fc_dnn_false_dog_35_n02096585_9834.png,n02096585_9834.png,1.0,5.4262543,1.8493453,2.5292566
bagnet33,1,699,NaN,chair,chair,true,0699_fc_dnn_true_chair_35_n04429376_29312.png,n04429376_29312.png,1.0,7.737911,3.5164354,2.985034
bagnet33,1,700,NaN,elephant,elephant,false,0700_fc_dnn_false_elephant_35_n02504013_5774.png,n02504013_5774.png,1.0,12.405588,2.3209336,7.130928
bagnet33,1,701,NaN,elephant,elephant,true,0701_fc_dnn_true_elephant_35_n02504458_5187.png,n02504458_5187.png,1.0,31.759468,8.691145,16.311768
bagnet33,1,702,NaN,oven,oven,true,0702_fc_dnn_true_oven_35_n04111531_12820.png,n04111531_12820.png,1.0,8.89298,6.3091803,1.8270221
bagnet33,1,703,NaN,truck,truck,false,0703_fc_dnn_false_truck_35_n04467665_11888.png,n04467665_11888.png,1.0,15.303278,8.139732,5.0653915
bagnet33,1,704,NaN,truck,truck,true,0704_fc_dnn_true_truck_35_n03796401_3434.png,n03796401_3434.png,1.0,9.592845,5.7866254,2.6914036
bagnet33,1,705,NaN,elephant,elephant,false,0705_fc_dnn_false_elephant_35_n02504458_3491.png,n02504458_3491.png,1.0,6.3909316,1.9503314,3.1399786
bagnet33,1,706,NaN,cat,bear,false,0706_fc_dnn_false_bear_35_n02134084_4677.png,n02134084_4677.png,0.0,1.1355836,2.5194547,-0.97854465
bagnet33,1,707,NaN,cat,cat,false,0707_fc_dnn_false_cat_35_n02125311_2401.png,n02125311_2401.png,1.0,12.095745,8.885858,2.2697332
bagnet33,1,708,NaN,car,car,true,0708_fc_dnn_true_car_35_n04285008_16701.png,n04285008_16701.png,1.0,19.581308,9.986678,6.784428
bagnet33,1,709,NaN,bear,bear,true,0709_fc_dnn_true_bear_35_n02133161_10632.png,n02133161_10632.png,1.0,5.3644295,4.6174703,0.52817994
bagnet33,1,710,NaN,oven,bird,true,0710_fc_dnn_true_bird_35_n01592084_6081.png,n01592084_6081.png,0.0,2.034722,2.6929321,-0.46542478
bagnet33,1,711,NaN,bottle,bottle,false,0711_fc_dnn_false_bottle_35_n04560804_15832.png,n04560804_15832.png,1.0,5.066947,1.6176735,2.439005
bagnet33,1,712,NaN,oven,oven,true,0712_fc_dnn_true_oven_35_n04111531_11116.png,n04111531_11116.png,1.0,18.651735,4.0956616,10.292699
bagnet33,1,713,NaN,bottle,boat,false,0713_fc_dnn_false_boat_35_n03662601_10811.png,n03662601_10811.png,0.0,2.6823108,2.935274,-0.1788719
bagnet33,1,714,NaN,bottle,bottle,false,0714_fc_dnn_false_bottle_35_n03937543_211.png,n03937543_211.png,1.0,17.529707,2.6312962,10.534767
bagnet33,1,715,NaN,boat,boat,false,0715_fc_dnn_false_boat_35_n03344393_1595.png,n03344393_1595.png,1.0,6.701052,6.504188,0.13920397
bagnet33,1,716,NaN,bicycle,bicycle,true,0716_fc_dnn_true_bicycle_35_n02835271_10293.png,n02835271_10293.png,1.0,24.614998,4.850085,13.975904
bagnet33,1,717,NaN,knife,cat,false,0717_fc_dnn_false_cat_35_n02123159_6170.png,n02123159_6170.png,0.0,0.47348043,2.904805,-1.7192061
bagnet33,1,718,NaN,boat,boat,false,0718_fc_dnn_false_boat_35_n03662601_12323.png,n03662601_12323.png,1.0,10.639738,9.979797,0.46664858
bagnet33,1,719,NaN,oven,oven,true,0719_fc_dnn_true_oven_35_n04111531_17809.png,n04111531_17809.png,1.0,8.570191,5.201255,2.3821979
bagnet33,1,720,NaN,bear,bear,false,0720_fc_dnn_false_bear_35_n02134084_6783.png,n02134084_6783.png,1.0,3.735656,2.783108,0.67355317
bagnet33,1,721,NaN,airplane,airplane,false,0721_fc_dnn_false_airplane_35_n02690373_2203.png,n02690373_2203.png,1.0,10.209784,3.7675662,4.5553355
bagnet33,1,722,NaN,knife,knife,false,0722_fc_dnn_false_knife_35_n03041632_38610.png,n03041632_38610.png,1.0,12.151579,4.72577,5.2508397
bagnet33,1,723,NaN,bicycle,bicycle,true,0723_fc_dnn_true_bicycle_35_n03792782_634.png,n03792782_634.png,1.0,6.10398,3.5144582,1.8310685
bagnet33,1,724,NaN,bicycle,bicycle,true,0724_fc_dnn_true_bicycle_35_n03792782_47426.png,n03792782_47426.png,1.0,27.082424,4.9824486,15.627043
bagnet33,1,725,NaN,chair,bird,false,0725_fc_dnn_false_bird_35_n02013706_16546.png,n02013706_16546.png,0.0,0.13492325,0.7621993,-0.44355115
bagnet33,1,726,NaN,clock,clock,false,0726_fc_dnn_false_clock_35_n02708093_616.png,n02708093_616.png,1.0,8.2607155,6.9503326,0.9265806
bagnet33,1,727,NaN,bear,bear,true,0727_fc_dnn_true_bear_35_n02134418_9289.png,n02134418_9289.png,1.0,12.556053,6.7450185,4.109022
bagnet33,1,728,NaN,bottle,boat,false,0728_fc_dnn_false_boat_35_n02951358_5118.png,n02951358_5118.png,0.0,4.372325,4.4135036,-0.02911774
bagnet33,1,729,NaN,clock,clock,false,0729_fc_dnn_false_clock_35_n04548280_2291.png,n04548280_2291.png,1.0,22.369085,6.374406,11.309946
bagnet33,1,730,NaN,bird,bird,true,0730_fc_dnn_true_bird_35_n01833805_1104.png,n01833805_1104.png,1.0,6.0712976,1.9198723,2.935501
bagnet33,1,731,NaN,bicycle,bird,false,0731_fc_dnn_false_bird_35_n01843383_12917.png,n01843383_12917.png,0.0,3.620168,4.002966,-0.27067903
bagnet33,1,732,NaN,oven,knife,true,0732_fc_dnn_true_knife_35_n03041632_30286.png,n03041632_30286.png,0.0,7.2998056,12.9707,-4.009928
