subj,session,trial,rt,object_response,category,condition,imagename,filename,is_correct,targ_act,max_nontarg_act,decision_margin
alexnet_w3_mlp_simclrhn_probe1,1,1,NaN,knife,knife,true,0001_fc_dnn_true_knife_35_n03041632_86251.png,n03041632_86251.png,1.0,4.2090273,-3.3054903,5.3135667
alexnet_w3_mlp_simclrhn_probe1,1,2,NaN,car,car,false,0002_fc_dnn_false_car_35_n03100240_16866.png,n03100240_16866.png,1.0,11.2547455,6.6846313,3.2315588
alexnet_w3_mlp_simclrhn_probe1,1,3,NaN,knife,keyboard,false,0003_fc_dnn_false_keyboard_35_n03085013_21127.png,n03085013_21127.png,0.0,0.16131666,1.7706368,-1.1379613
alexnet_w3_mlp_simclrhn_probe1,1,4,NaN,truck,truck,true,0004_fc_dnn_true_truck_35_n03417042_10694.png,n03417042_10694.png,1.0,10.046337,4.3142743,4.0531807
alexnet_w3_mlp_simclrhn_probe1,1,5,NaN,bird,bird,true,0005_fc_dnn_true_bird_35_n01614925_1962.png,n01614925_1962.png,1.0,1.3257405,-3.6259425,3.5013688
alexnet_w3_mlp_simclrhn_probe1,1,6,NaN,knife,knife,false,0006_fc_dnn_false_knife_35_n03041632_99875.png,n03041632_99875.png,1.0,-1.2447416,-3.9443698,1.9089255
alexnet_w3_mlp_simclrhn_probe1,1,7,NaN,bicycle,bicycle,true,0007_fc_dnn_true_bicycle_35_n03792782_14935.png,n03792782_14935.png,1.0,2.214271,-4.6689205,4.8671517
alexnet_w3_mlp_simclrhn_probe1,1,8,NaN,elephant,elephant,false,0008_fc_dnn_false_elephant_35_n02504013_5027.png,n02504013_5027.png,1.0,2.7990527,-2.0296545,3.4144118
alexnet_w3_mlp_simclrhn_probe1,1,9,NaN,cat,dog,false,0009_fc_dnn_false_dog_35_n02090721_129.png,n02090721_129.png,0.0,-2.7180593,-1.7474012,-0.6863589
alexnet_w3_mlp_simclrhn_probe1,1,10,NaN,airplane,airplane,true,0010_fc_dnn_true_airplane_35_n02690373_9241.png,n02690373_9241.png,1.0,13.025138,2.5665593,7.395332
alexnet_w3_mlp_simclrhn_probe1,1,11,NaN,truck,truck,true,0011_fc_dnn_true_truck_35_n04467665_62080.png,n04467665_62080.png,1.0,6.672552,5.3803825,0.9137019
alexnet_w3_mlp_simclrhn_probe1,1,12,NaN,keyboard,keyboard,true,0012_fc_dnn_true_keyboard_35_n04505470_2669.png,n04505470_2669.png,1.0,1.6276093,1.2718031,0.2515929
alexnet_w3_mlp_simclrhn_probe1,1,13,NaN,oven,oven,false,0013_fc_dnn_false_oven_35_n04111531_688.png,n04111531_688.png,1.0,1.3611848,-3.9049592,3.723726
alexnet_w3_mlp_simclrhn_probe1,1,14,NaN,car,car,true,0014_fc_dnn_true_car_35_n03100240_21982.png,n03100240_21982.png,1.0,15.702686,9.661427,4.271816
alexnet_w3_mlp_simclrhn_probe1,1,15,NaN,bicycle,bicycle,true,0015_fc_dnn_true_bicycle_35_n02835271_4191.png,n02835271_4191.png,1.0,9.273607,-5.051346,10.1292715
alexnet_w3_mlp_simclrhn_probe1,1,16,NaN,car,car,true,0016_fc_dnn_true_car_35_n02814533_25278.png,n02814533_25278.png,1.0,5.5064607,3.105422,1.6977907
alexnet_w3_mlp_simclrhn_probe1,1,17,NaN,bottle,knife,false,0017_fc_dnn_false_knife_35_n03041632_23087.png,n03041632_23087.png,0.0,-2.4843273,-1.3200787,-0.8232481
alexnet_w3_mlp_simclrhn_probe1,1,18,NaN,clock,clock,true,0018_fc_dnn_true_clock_35_n03196217_11252.png,n03196217_11252.png,1.0,1.9441363,1.886744,0.04058244
alexnet_w3_mlp_simclrhn_probe1,1,19,NaN,boat,boat,false,0019_fc_dnn_false_boat_35_n04273569_2040.png,n04273569_2040.png,1.0,7.680793,3.0050204,3.3062706
alexnet_w3_mlp_simclrhn_probe1,1,20,NaN,knife,knife,true,0020_fc_dnn_true_knife_35_n03041632_84869.png,n03041632_84869.png,1.0,2.1970701,-3.2953305,3.8837137
alexnet_w3_mlp_simclrhn_probe1,1,21,NaN,clock,clock,true,0021_fc_dnn_true_clock_35_n04548280_503.png,n04548280_503.png,1.0,5.270557,-3.7028046,6.345125
alexnet_w3_mlp_simclrhn_probe1,1,22,NaN,truck,truck,false,0022_fc_dnn_false_truck_35_n03417042_10654.png,n03417042_10654.png,1.0,4.045699,1.7755308,1.6052514
alexnet_w3_mlp_simclrhn_probe1,1,23,NaN,boat,boat,true,0023_fc_dnn_true_boat_35_n03344393_2919.png,n03344393_2919.png,1.0,3.6876984,2.3552146,0.94220835
alexnet_w3_mlp_simclrhn_probe1,1,24,NaN,chair,chair,false,0024_fc_dnn_false_chair_35_n04099969_7718.png,n04099969_7718.png,1.0,2.3557758,-1.2274668,2.5337353
alexnet_w3_mlp_simclrhn_probe1,1,25,NaN,oven,oven,true,0025_fc_dnn_true_oven_35_n04111531_3477.png,n04111531_3477.png,1.0,4.617389,-1.3973162,4.2530394
alexnet_w3_mlp_simclrhn_probe1,1,26,NaN,dog,dog,false,0026_fc_dnn_false_dog_35_n02113712_913.png,n02113712_913.png,1.0,0.24161626,-4.0302253,3.0206482
alexnet_w3_mlp_simclrhn_probe1,1,27,NaN,chair,chair,false,0027_fc_dnn_false_chair_35_n02791124_13701.png,n02791124_13701.png,1.0,0.73500574,-0.7375534,1.0412567
alexnet_w3_mlp_simclrhn_probe1,1,28,NaN,airplane,airplane,true,0028_fc_dnn_true_airplane_35_n02690373_8538.png,n02690373_8538.png,1.0,9.055401,1.2757448,5.5010476
alexnet_w3_mlp_simclrhn_probe1,1,29,NaN,oven,knife,true,0029_fc_dnn_true_knife_35_n03041632_98864.png,n03041632_98864.png,0.0,-2.8171906,-2.02255,-0.5618957
alexnet_w3_mlp_simclrhn_probe1,1,30,NaN,clock,clock,false,0030_fc_dnn_false_clock_35_n04548280_5466.png,n04548280_5466.png,1.0,0.056453627,-0.71895015,0.5482933
alexnet_w3_mlp_simclrhn_probe1,1,31,NaN,keyboard,keyboard,true,0031_fc_dnn_true_keyboard_35_n04505470_4033.png,n04505470_4033.png,1.0,10.7197895,0.31583306,7.356708
alexnet_w3_mlp_simclrhn_probe1,1,32,NaN,boat,boat,false,0032_fc_dnn_false_boat_35_n03344393_7503.png,n03344393_7503.png,1.0,0.9654398,-1.7088275,1.8909925
alexnet_w3_mlp_simclrhn_probe1,1,33,NaN,bottle,bottle,false,0033_fc_dnn_false_bottle_35_n02823428_3402.png,n02823428_3402.png,1.0,3.8486462,-1.573553,3.834074
alexnet_w3_mlp_simclrhn_probe1,1,34,NaN,oven,boat,true,0034_fc_dnn_true_boat_35_n03662601_15766.png,n03662601_15766.png,0.0,-3.4538894,0.2564153,-2.6235816
alexnet_w3_mlp_simclrhn_probe1,1,35,NaN,dog,dog,true,0035_fc_dnn_true_dog_35_n02097047_1351.png,n02097047_1351.png,1.0,2.0319927,-2.7893028,3.4091709
alexnet_w3_mlp_simclrhn_probe1,1,36,NaN,knife,keyboard,true,0036_fc_dnn_true_keyboard_35_n03085013_23562.png,n03085013_23562.png,0.0,-2.6915073,-0.43876135,-1.5929321
alexnet_w3_mlp_simclrhn_probe1,1,37,NaN,chair,clock,false,0037_fc_dnn_false_clock_35_n04548280_7872.png,n04548280_7872.png,0.0,-1.7550844,-0.20654523,-1.0949825
alexnet_w3_mlp_simclrhn_probe1,1,38,NaN,dog,dog,false,0038_fc_dnn_false_dog_35_n02106166_16884.png,n02106166_16884.png,1.0,-1.0100421,-6.794347,4.0901213
alexnet_w3_mlp_simclrhn_probe1,1,39,NaN,oven,oven,true,0039_fc_dnn_true_oven_35_n04111531_3353.png,n04111531_3353.png,1.0,1.347686,-1.0948565,1.7271384
alexnet_w3_mlp_simclrhn_probe1,1,40,NaN,bottle,knife,false,0040_fc_dnn_false_knife_35_n03041632_46185.png,n03041632_46185.png,0.0,-0.5037719,1.0409073,-1.0922531
alexnet_w3_mlp_simclrhn_probe1,1,41,NaN,knife,knife,true,0041_fc_dnn_true_knife_35_n03041632_14766.png,n03041632_14766.png,1.0,2.7354844,-0.7686586,2.4778032
alexnet_w3_mlp_simclrhn_probe1,1,42,NaN,knife,chair,true,0042_fc_dnn_true_chair_35_n02791124_2150.png,n02791124_2150.png,0.0,-4.129783,-1.3007082,-2.000458
alexnet_w3_mlp_simclrhn_probe1,1,43,NaN,elephant,elephant,false,0043_fc_dnn_false_elephant_35_n02504458_4631.png,n02504458_4631.png,1.0,4.912337,-2.74058,5.4114294
alexnet_w3_mlp_simclrhn_probe1,1,44,NaN,chair,chair,false,0044_fc_dnn_false_chair_35_n03376595_3223.png,n03376595_3223.png,1.0,0.19764416,-2.0825021,1.612307
alexnet_w3_mlp_simclrhn_probe1,1,45,NaN,car,car,false,0045_fc_dnn_false_car_35_n03100240_5399.png,n03100240_5399.png,1.0,13.813977,6.49748,5.173545
alexnet_w3_mlp_simclrhn_probe1,1,46,NaN,oven,bottle,true,0046_fc_dnn_true_bottle_35_n04557648_2512.png,n04557648_2512.png,0.0,-4.959108,4.0069013,-6.339926
alexnet_w3_mlp_simclrhn_probe1,1,47,NaN,elephant,bicycle,true,0047_fc_dnn_true_bicycle_35_n03792782_8098.png,n03792782_8098.png,0.0,-1.7145709,-1.0789925,-0.4494218
alexnet_w3_mlp_simclrhn_probe1,1,48,NaN,bear,bear,true,0048_fc_dnn_true_bear_35_n02134418_11557.png,n02134418_11557.png,1.0,3.8120942,-1.6256618,3.8450742
alexnet_w3_mlp_simclrhn_probe1,1,49,NaN,knife,knife,true,0049_fc_dnn_true_knife_35_n03041632_45569.png,n03041632_45569.png,1.0,0.2998984,-1.4924607,1.2673893
alexnet_w3_mlp_simclrhn_probe1,1,50,NaN,bicycle,bicycle,false,0050_fc_dnn_false_bicycle_35_n03792782_4740.png,n03792782_4740.png,1.0,-1.8029783,-3.4591064,1.1710595
alexnet_w3_mlp_simclrhn_probe1,1,51,NaN,boat,boat,false,0051_fc_dnn_false_boat_35_n03662601_25404.png,n03662601_25404.png,1.0,5.466519,2.3329082,2.2157974
alexnet_w3_mlp_simclrhn_probe1,1,52,NaN,bird,bird,false,0052_fc_dnn_false_bird_35_n01796340_4853.png,n01796340_4853.png,1.0,-1.0186385,-6.760239,4.0599246
alexnet_w3_mlp_simclrhn_probe1,1,53,NaN,clock,clock,true,0053_fc_dnn_true_clock_35_n03196217_5888.png,n03196217_5888.png,1.0,0.56665784,-0.28312016,0.6008838
alexnet_w3_mlp_simclrhn_probe1,1,54,NaN,bicycle,bicycle,true,0054_fc_dnn_true_bicycle_35_n02835271_12871.png,n02835271_12871.png,1.0,12.202981,-0.46626043,8.958507
alexnet_w3_mlp_simclrhn_probe1,1,55,NaN,keyboard,keyboard,false,0055_fc_dnn_false_keyboard_35_n03085013_28584.png,n03085013_28584.png,1.0,3.4874048,-0.8671534,3.0791376
alexnet_w3_mlp_simclrhn_probe1,1,56,NaN,bear,cat,true,0056_fc_dnn_true_cat_35_n02123159_6184.png,n02123159_6184.png,0.0,-2.3489122,1.2218766,-2.524929
alexnet_w3_mlp_simclrhn_probe1,1,57,NaN,bicycle,bicycle,true,0057_fc_dnn_true_bicycle_35_n02835271_7592.png,n02835271_7592.png,1.0,14.882752,-1.1999884,11.372215
alexnet_w3_mlp_simclrhn_probe1,1,58,NaN,elephant,elephant,false,0058_fc_dnn_false_elephant_35_n02504458_3205.png,n02504458_3205.png,1.0,8.32737,0.7901267,5.3296356
alexnet_w3_mlp_simclrhn_probe1,1,59,NaN,cat,cat,false,0059_fc_dnn_false_cat_35_n02124075_7880.png,n02124075_7880.png,1.0,1.851528,0.1422795,1.2086213
alexnet_w3_mlp_simclrhn_probe1,1,60,NaN,truck,truck,false,0060_fc_dnn_false_truck_35_n04467665_2240.png,n04467665_2240.png,1.0,11.539873,5.024655,4.606955
alexnet_w3_mlp_simclrhn_probe1,1,61,NaN,bottle,bottle,true,0061_fc_dnn_true_bottle_35_n04560804_13316.png,n04560804_13316.png,1.0,1.2040769,-2.7192397,2.7742038
alexnet_w3_mlp_simclrhn_probe1,1,62,NaN,airplane,airplane,false,0062_fc_dnn_false_airplane_35_n02690373_3821.png,n02690373_3821.png,1.0,12.510142,-1.5614386,9.95011
alexnet_w3_mlp_simclrhn_probe1,1,63,NaN,knife,knife,true,0063_fc_dnn_true_knife_35_n03041632_17285.png,n03041632_17285.png,1.0,1.0376465,0.21571529,0.58119315
alexnet_w3_mlp_simclrhn_probe1,1,64,NaN,bottle,bottle,false,0064_fc_dnn_false_bottle_35_n02823428_10942.png,n02823428_10942.png,1.0,0.97383106,-1.3336623,1.6316441
alexnet_w3_mlp_simclrhn_probe1,1,65,NaN,bicycle,bicycle,true,0065_fc_dnn_true_bicycle_35_n02835271_3642.png,n02835271_3642.png,1.0,10.600988,-3.665724,10.088089
alexnet_w3_mlp_simclrhn_probe1,1,66,NaN,knife,knife,true,0066_fc_dnn_true_knife_35_n03041632_16172.png,n03041632_16172.png,1.0,2.6740637,-2.6795998,3.7856119
alexnet_w3_mlp_simclrhn_probe1,1,67,NaN,bicycle,bottle,false,0067_fc_dnn_false_bottle_35_n04560804_2448.png,n04560804_2448.png,0.0,-7.3770704,0.9323667,-5.875659
alexnet_w3_mlp_simclrhn_probe1,1,68,NaN,oven,oven,false,0068_fc_dnn_false_oven_35_n04111531_4452.png,n04111531_4452.png,1.0,7.176403,-3.0603328,7.238466
alexnet_w3_mlp_simclrhn_probe1,1,69,NaN,keyboard,keyboard,false,0069_fc_dnn_false_keyboard_35_n04505470_912.png,n04505470_912.png,1.0,10.257041,-0.6534128,7.714856
alexnet_w3_mlp_simclrhn_probe1,1,70,NaN,oven,cat,false,0070_fc_dnn_false_cat_35_n02123045_7167.png,n02123045_7167.png,0.0,-2.7318048,-1.5125425,-0.8621487
alexnet_w3_mlp_simclrhn_probe1,1,71,NaN,bicycle,bicycle,false,0071_fc_dnn_false_bicycle_35_n03792782_8333.png,n03792782_8333.png,1.0,1.762782,-2.936317,3.3227649
alexnet_w3_mlp_simclrhn_probe1,1,72,NaN,bear,dog,false,0072_fc_dnn_false_dog_35_n02107683_2904.png,n02107683_2904.png,0.0,-2.187018,-1.6982278,-0.34562683
alexnet_w3_mlp_simclrhn_probe1,1,73,NaN,bottle,bottle,true,0073_fc_dnn_true_bottle_35_n04591713_3409.png,n04591713_3409.png,1.0,7.0756583,-3.4754992,7.460795
alexnet_w3_mlp_simclrhn_probe1,1,74,NaN,knife,bottle,false,0074_fc_dnn_false_bottle_35_n04560804_564.png,n04560804_564.png,0.0,-4.1761594,-1.7368515,-1.7248513
alexnet_w3_mlp_simclrhn_probe1,1,75,NaN,truck,truck,false,0075_fc_dnn_false_truck_35_n03796401_6503.png,n03796401_6503.png,1.0,10.561636,5.9312263,3.2741942
alexnet_w3_mlp_simclrhn_probe1,1,76,NaN,oven,oven,true,0076_fc_dnn_true_oven_35_n04111531_13590.png,n04111531_13590.png,1.0,5.4761434,0.067681134,3.8243604
alexnet_w3_mlp_simclrhn_probe1,1,77,NaN,bird,bird,false,0077_fc_dnn_false_bird_35_n02018795_7504.png,n02018795_7504.png,1.0,1.1083485,-7.7948694,6.295526
alexnet_w3_mlp_simclrhn_probe1,1,78,NaN,car,car,false,0078_fc_dnn_false_car_35_n03100240_6626.png,n03100240_6626.png,1.0,14.088231,12.39593,1.1966374
alexnet_w3_mlp_simclrhn_probe1,1,79,NaN,bear,bear,false,0079_fc_dnn_false_bear_35_n02134418_4364.png,n02134418_4364.png,1.0,6.7589912,1.2927843,3.8651922
alexnet_w3_mlp_simclrhn_probe1,1,80,NaN,airplane,knife,false,0080_fc_dnn_false_knife_35_n03041632_8051.png,n03041632_8051.png,0.0,-0.8404478,0.62095857,-1.0333704
alexnet_w3_mlp_simclrhn_probe1,1,81,NaN,airplane,airplane,true,0081_fc_dnn_true_airplane_35_n02690373_1434.png,n02690373_1434.png,1.0,11.0259285,-0.689842,8.284301
alexnet_w3_mlp_simclrhn_probe1,1,82,NaN,clock,clock,true,0082_fc_dnn_true_clock_35_n04548280_5408.png,n04548280_5408.png,1.0,7.5536575,-2.431617,7.060655
alexnet_w3_mlp_simclrhn_probe1,1,83,NaN,cat,cat,false,0083_fc_dnn_false_cat_35_n02123597_3916.png,n02123597_3916.png,1.0,-0.77672595,-1.3951077,0.43726197
alexnet_w3_mlp_simclrhn_probe1,1,84,NaN,clock,clock,false,0084_fc_dnn_false_clock_35_n04548280_4542.png,n04548280_4542.png,1.0,2.2930095,-1.7801664,2.8801703
alexnet_w3_mlp_simclrhn_probe1,1,85,NaN,airplane,car,true,0085_fc_dnn_true_car_35_n04285008_14161.png,n04285008_14161.png,0.0,-4.599028,-1.3949599,-2.2656183
alexnet_w3_mlp_simclrhn_probe1,1,86,NaN,airplane,airplane,false,0086_fc_dnn_false_airplane_35_n02690373_7279.png,n02690373_7279.png,1.0,8.694301,2.7795844,4.182336
alexnet_w3_mlp_simclrhn_probe1,1,87,NaN,elephant,bear,true,0087_fc_dnn_true_bear_35_n02132136_11640.png,n02132136_11640.png,0.0,1.5424788,3.2433698,-1.2027116
alexnet_w3_mlp_simclrhn_probe1,1,88,NaN,airplane,airplane,true,0088_fc_dnn_true_airplane_35_n02690373_8350.png,n02690373_8350.png,1.0,5.168825,-0.26344928,3.8411982
alexnet_w3_mlp_simclrhn_probe1,1,89,NaN,boat,boat,true,0089_fc_dnn_true_boat_35_n04273569_30568.png,n04273569_30568.png,1.0,8.437119,5.1564145,2.319808
alexnet_w3_mlp_simclrhn_probe1,1,90,NaN,dog,dog,true,0090_fc_dnn_true_dog_35_n02100583_19533.png,n02100583_19533.png,1.0,1.115562,-0.82149965,1.3697094
alexnet_w3_mlp_simclrhn_probe1,1,91,NaN,knife,knife,true,0091_fc_dnn_true_knife_35_n03041632_965.png,n03041632_965.png,1.0,2.78271,-0.37719366,2.2343893
alexnet_w3_mlp_simclrhn_probe1,1,92,NaN,elephant,elephant,false,0092_fc_dnn_false_elephant_35_n02504458_6109.png,n02504458_6109.png,1.0,13.484873,3.0672133,7.366398
alexnet_w3_mlp_simclrhn_probe1,1,93,NaN,oven,oven,true,0093_fc_dnn_true_oven_35_n04111531_10093.png,n04111531_10093.png,1.0,1.4411864,-1.7027955,2.223131
alexnet_w3_mlp_simclrhn_probe1,1,94,NaN,clock,clock,true,0094_fc_dnn_true_clock_35_n03196217_8221.png,n03196217_8221.png,1.0,0.35195005,-0.82871693,0.8348576
alexnet_w3_mlp_simclrhn_probe1,1,95,NaN,bicycle,bicycle,false,0095_fc_dnn_false_bicycle_35_n03792782_828.png,n03792782_828.png,1.0,6.436838,-5.0322227,8.109851
alexnet_w3_mlp_simclrhn_probe1,1,96,NaN,knife,knife,true,0096_fc_dnn_true_knife_35_n03041632_7090.png,n03041632_7090.png,1.0,1.3021173,-1.3520479,1.8767782
alexnet_w3_mlp_simclrhn_probe1,1,97,NaN,elephant,bear,false,0097_fc_dnn_false_bear_35_n02134084_14260.png,n02134084_14260.png,0.0,-0.49196455,0.46768355,-0.6785737
alexnet_w3_mlp_simclrhn_probe1,1,98,NaN,elephant,bear,false,0098_fc_dnn_false_bear_35_n02132136_10988.png,n02132136_10988.png,0.0,1.9967203,2.1956654,-0.1406754
alexnet_w3_mlp_simclrhn_probe1,1,99,NaN,boat,keyboard,false,0099_fc_dnn_false_keyboard_35_n03085013_22980.png,n03085013_22980.png,0.0,-1.8625456,-1.0759561,-0.55620277
alexnet_w3_mlp_simclrhn_probe1,1,100,NaN,bottle,bottle,false,0100_fc_dnn_false_bottle_35_n04557648_3673.png,n04557648_3673.png,1.0,0.47724348,-3.453475,2.7794378
alexnet_w3_mlp_simclrhn_probe1,1,101,NaN,airplane,airplane,true,0101_fc_dnn_true_airplane_35_n02690373_1360.png,n02690373_1360.png,1.0,11.55934,1.6915798,6.97756
alexnet_w3_mlp_simclrhn_probe1,1,102,NaN,car,oven,true,0102_fc_dnn_true_oven_35_n04111531_6415.png,n04111531_6415.png,0.0,-4.729741,0.55490845,-3.7368114
alexnet_w3_mlp_simclrhn_probe1,1,103,NaN,knife,knife,false,0103_fc_dnn_false_knife_35_n03041632_32054.png,n03041632_32054.png,1.0,1.9098947,-1.9813937,2.7515564
alexnet_w3_mlp_simclrhn_probe1,1,104,NaN,chair,chair,false,0104_fc_dnn_false_chair_35_n03376595_9136.png,n03376595_9136.png,1.0,0.629935,0.03840367,0.41827583
alexnet_w3_mlp_simclrhn_probe1,1,105,NaN,keyboard,keyboard,false,0105_fc_dnn_false_keyboard_35_n03085013_21266.png,n03085013_21266.png,1.0,0.28332573,-1.6167545,1.3435596
alexnet_w3_mlp_simclrhn_probe1,1,106,NaN,bicycle,bicycle,true,0106_fc_dnn_true_bicycle_35_n02835271_6137.png,n02835271_6137.png,1.0,12.269015,1.7927464,7.4078407
alexnet_w3_mlp_simclrhn_probe1,1,107,NaN,car,car,false,0107_fc_dnn_false_car_35_n04285008_14689.png,n04285008_14689.png,1.0,17.68838,13.095485,3.2476668
alexnet_w3_mlp_simclrhn_probe1,1,108,NaN,truck,truck,false,0108_fc_dnn_false_truck_35_n04467665_16276.png,n04467665_16276.png,1.0,14.212421,9.390142,3.4098663
alexnet_w3_mlp_simclrhn_probe1,1,109,NaN,chair,chair,false,0109_fc_dnn_false_chair_35_n03376595_787.png,n03376595_787.png,1.0,0.4465838,-2.6923246,2.2195435
alexnet_w3_mlp_simclrhn_probe1,1,110,NaN,boat,boat,false,0110_fc_dnn_false_boat_35_n04612504_41355.png,n04612504_41355.png,1.0,2.8686996,2.5621912,0.2167341
alexnet_w3_mlp_simclrhn_probe1,1,111,NaN,elephant,elephant,true,0111_fc_dnn_true_elephant_35_n02504458_174.png,n02504458_174.png,1.0,11.158699,-2.692785,9.794478
alexnet_w3_mlp_simclrhn_probe1,1,112,NaN,cat,cat,true,0112_fc_dnn_true_cat_35_n02125311_6746.png,n02125311_6746.png,1.0,3.7231216,0.20862299,2.485126
alexnet_w3_mlp_simclrhn_probe1,1,113,NaN,keyboard,keyboard,false,0113_fc_dnn_false_keyboard_35_n03085013_23287.png,n03085013_23287.png,1.0,3.579039,-2.2311773,4.1084437
alexnet_w3_mlp_simclrhn_probe1,1,114,NaN,clock,clock,true,0114_fc_dnn_true_clock_35_n04548280_8071.png,n04548280_8071.png,1.0,2.73238,-2.1036782,3.4196095
alexnet_w3_mlp_simclrhn_probe1,1,115,NaN,oven,oven,false,0115_fc_dnn_false_oven_35_n04111531_14543.png,n04111531_14543.png,1.0,6.0292335,-1.6640143,5.4399476
alexnet_w3_mlp_simclrhn_probe1,1,116,NaN,car,car,false,0116_fc_dnn_false_car_35_n03100240_10791.png,n03100240_10791.png,1.0,12.636127,7.0581465,3.9442282
alexnet_w3_mlp_simclrhn_probe1,1,117,NaN,airplane,airplane,true,0117_fc_dnn_true_airplane_35_n02690373_2619.png,n02690373_2619.png,1.0,9.772097,1.1914122,6.0674605
alexnet_w3_mlp_simclrhn_probe1,1,118,NaN,keyboard,keyboard,true,0118_fc_dnn_true_keyboard_35_n04505470_3864.png,n04505470_3864.png,1.0,-2.0517821,-2.8423018,0.55898184
alexnet_w3_mlp_simclrhn_probe1,1,119,NaN,dog,dog,true,0119_fc_dnn_true_dog_35_n02097658_4387.png,n02097658_4387.png,1.0,0.3587928,-0.37456787,0.5185643
alexnet_w3_mlp_simclrhn_probe1,1,120,NaN,clock,clock,true,0120_fc_dnn_true_clock_35_n04548280_309.png,n04548280_309.png,1.0,3.8311815,-0.08781208,2.771147
alexnet_w3_mlp_simclrhn_probe1,1,121,NaN,dog,dog,true,0121_fc_dnn_true_dog_35_n02108000_5247.png,n02108000_5247.png,1.0,2.5591745,-2.7751179,3.7719145
alexnet_w3_mlp_simclrhn_probe1,1,122,NaN,keyboard,keyboard,false,0122_fc_dnn_false_keyboard_35_n04505470_4411.png,n04505470_4411.png,1.0,2.4800262,0.29703617,1.5436071
alexnet_w3_mlp_simclrhn_probe1,1,123,NaN,oven,truck,false,0123_fc_dnn_false_truck_35_n03417042_2155.png,n03417042_2155.png,0.0,0.42954546,1.1298887,-0.49521744
alexnet_w3_mlp_simclrhn_probe1,1,124,NaN,bear,bear,false,0124_fc_dnn_false_bear_35_n02132136_4237.png,n02132136_4237.png,1.0,6.39539,2.9671035,2.4241648
alexnet_w3_mlp_simclrhn_probe1,1,125,NaN,bird,bird,false,0125_fc_dnn_false_bird_35_n01843065_2350.png,n01843065_2350.png,1.0,-0.93606037,-9.825235,6.2855964
alexnet_w3_mlp_simclrhn_probe1,1,126,NaN,knife,knife,false,0126_fc_dnn_false_knife_35_n03041632_51225.png,n03041632_51225.png,1.0,2.5060775,-0.8097207,2.3446236
alexnet_w3_mlp_simclrhn_probe1,1,127,NaN,airplane,airplane,false,0127_fc_dnn_false_airplane_35_n02690373_2095.png,n02690373_2095.png,1.0,10.751867,-0.47491264,7.9385324
alexnet_w3_mlp_simclrhn_probe1,1,128,NaN,clock,clock,true,0128_fc_dnn_true_clock_35_n02708093_1775.png,n02708093_1775.png,1.0,4.2648807,-1.6649616,4.193032
alexnet_w3_mlp_simclrhn_probe1,1,129,NaN,elephant,elephant,true,0129_fc_dnn_true_elephant_35_n02504458_7950.png,n02504458_7950.png,1.0,20.140636,3.7819748,11.567321
alexnet_w3_mlp_simclrhn_probe1,1,130,NaN,boat,boat,true,0130_fc_dnn_true_boat_35_n03662601_1926.png,n03662601_1926.png,1.0,6.7013865,-2.1187372,6.236769
alexnet_w3_mlp_simclrhn_probe1,1,131,NaN,elephant,elephant,true,0131_fc_dnn_true_elephant_35_n02504458_6721.png,n02504458_6721.png,1.0,0.25172496,-0.7476702,0.7066791
alexnet_w3_mlp_simclrhn_probe1,1,132,NaN,bicycle,bicycle,true,0132_fc_dnn_true_bicycle_35_n02835271_14225.png,n02835271_14225.png,1.0,0.8696138,-3.3776658,3.0032804
alexnet_w3_mlp_simclrhn_probe1,1,133,NaN,clock,clock,false,0133_fc_dnn_false_clock_35_n02708093_2744.png,n02708093_2744.png,1.0,-0.75951725,-4.342559,2.5335932
alexnet_w3_mlp_simclrhn_probe1,1,134,NaN,clock,clock,true,0134_fc_dnn_true_clock_35_n02708093_275.png,n02708093_275.png,1.0,10.553771,-3.755393,10.118107
alexnet_w3_mlp_simclrhn_probe1,1,135,NaN,knife,knife,false,0135_fc_dnn_false_knife_35_n03041632_25512.png,n03041632_25512.png,1.0,0.12938803,-2.447094,1.8218479
alexnet_w3_mlp_simclrhn_probe1,1,136,NaN,oven,bird,true,0136_fc_dnn_true_bird_35_n01622779_5441.png,n01622779_5441.png,0.0,-3.5149665,-2.546111,-0.6850842
alexnet_w3_mlp_simclrhn_probe1,1,137,NaN,car,oven,false,0137_fc_dnn_false_oven_35_n04111531_14329.png,n04111531_14329.png,0.0,-5.424664,4.0403876,-6.6928024
alexnet_w3_mlp_simclrhn_probe1,1,138,NaN,bird,bird,false,0138_fc_dnn_false_bird_35_n02007558_13217.png,n02007558_13217.png,1.0,1.3249063,-5.920471,5.1232557
alexnet_w3_mlp_simclrhn_probe1,1,139,NaN,cat,cat,true,0139_fc_dnn_true_cat_35_n02123597_7908.png,n02123597_7908.png,1.0,-1.5365925,-2.6250176,0.7696328
alexnet_w3_mlp_simclrhn_probe1,1,140,NaN,clock,clock,true,0140_fc_dnn_true_clock_35_n04548280_9828.png,n04548280_9828.png,1.0,7.2391014,-2.0336194,6.5568037
alexnet_w3_mlp_simclrhn_probe1,1,141,NaN,bird,bird,false,0141_fc_dnn_false_bird_35_n01833805_4819.png,n01833805_4819.png,1.0,-0.33886886,-2.945735,1.8433328
alexnet_w3_mlp_simclrhn_probe1,1,142,NaN,knife,knife,true,0142_fc_dnn_true_knife_35_n03041632_52929.png,n03041632_52929.png,1.0,0.17463493,-2.2996309,1.7495701
alexnet_w3_mlp_simclrhn_probe1,1,143,NaN,truck,truck,false,0143_fc_dnn_false_truck_35_n04467665_2044.png,n04467665_2044.png,1.0,9.6549835,2.7265797,4.8991213
alexnet_w3_mlp_simclrhn_probe1,1,144,NaN,oven,oven,false,0144_fc_dnn_false_oven_35_n04111531_16583.png,n04111531_16583.png,1.0,3.776916,1.7257191,1.4504154
alexnet_w3_mlp_simclrhn_probe1,1,145,NaN,airplane,airplane,true,0145_fc_dnn_true_airplane_35_n02690373_2796.png,n02690373_2796.png,1.0,7.116471,1.4630146,3.9975972
alexnet_w3_mlp_simclrhn_probe1,1,146,NaN,airplane,airplane,false,0146_fc_dnn_false_airplane_35_n02690373_3362.png,n02690373_3362.png,1.0,12.004759,1.9004809,7.1448035
alexnet_w3_mlp_simclrhn_probe1,1,147,NaN,clock,clock,true,0147_fc_dnn_true_clock_35_n02708093_3759.png,n02708093_3759.png,1.0,5.1755896,-1.3253165,4.5968347
alexnet_w3_mlp_simclrhn_probe1,1,148,NaN,elephant,elephant,true,0148_fc_dnn_true_elephant_35_n02504013_2558.png,n02504013_2558.png,1.0,5.156279,-2.604617,5.4877825
alexnet_w3_mlp_simclrhn_probe1,1,149,NaN,bear,bear,false,0149_fc_dnn_false_bear_35_n02134418_896.png,n02134418_896.png,1.0,0.10742902,0.09276426,0.010369552
alexnet_w3_mlp_simclrhn_probe1,1,150,NaN,truck,truck,false,0150_fc_dnn_false_truck_35_n04467665_56815.png,n04467665_56815.png,1.0,11.967232,3.9748886,5.65144
alexnet_w3_mlp_simclrhn_probe1,1,151,NaN,truck,truck,true,0151_fc_dnn_true_truck_35_n03796401_3695.png,n03796401_3695.png,1.0,5.2464848,-1.5654455,4.816762
alexnet_w3_mlp_simclrhn_probe1,1,152,NaN,elephant,dog,true,0152_fc_dnn_true_dog_35_n02107312_197.png,n02107312_197.png,0.0,-1.3552598,-0.6533497,-0.49632537
alexnet_w3_mlp_simclrhn_probe1,1,153,NaN,bear,bear,false,0153_fc_dnn_false_bear_35_n02133161_13356.png,n02133161_13356.png,1.0,0.65400463,-1.6589394,1.6354984
alexnet_w3_mlp_simclrhn_probe1,1,154,NaN,truck,truck,false,0154_fc_dnn_false_truck_35_n03796401_6923.png,n03796401_6923.png,1.0,1.609549,0.34802926,0.8920292
alexnet_w3_mlp_simclrhn_probe1,1,155,NaN,elephant,elephant,true,0155_fc_dnn_true_elephant_35_n02504458_7660.png,n02504458_7660.png,1.0,3.9555788,0.3989971,2.514883
alexnet_w3_mlp_simclrhn_probe1,1,156,NaN,bicycle,bicycle,false,0156_fc_dnn_false_bicycle_35_n02835271_6554.png,n02835271_6554.png,1.0,13.734035,-1.7843789,10.973176
alexnet_w3_mlp_simclrhn_probe1,1,157,NaN,boat,boat,true,0157_fc_dnn_true_boat_35_n04273569_2698.png,n04273569_2698.png,1.0,4.743129,-2.603723,5.1950088
alexnet_w3_mlp_simclrhn_probe1,1,158,NaN,dog,bottle,true,0158_fc_dnn_true_bottle_35_n03983396_5055.png,n03983396_5055.png,0.0,-8.760285,-1.7722857,-4.9412622
alexnet_w3_mlp_simclrhn_probe1,1,159,NaN,chair,chair,true,0159_fc_dnn_true_chair_35_n04429376_22811.png,n04429376_22811.png,1.0,1.5619589,-2.1740272,2.6417413
alexnet_w3_mlp_simclrhn_probe1,1,160,NaN,knife,knife,false,0160_fc_dnn_false_knife_35_n03041632_5640.png,n03041632_5640.png,1.0,-0.13823834,-2.9760969,2.006669
alexnet_w3_mlp_simclrhn_probe1,1,161,NaN,bird,bird,true,0161_fc_dnn_true_bird_35_n01795545_14857.png,n01795545_14857.png,1.0,-2.4480298,-3.3913288,0.66701317
alexnet_w3_mlp_simclrhn_probe1,1,162,NaN,oven,oven,false,0162_fc_dnn_false_oven_35_n04111531_16144.png,n04111531_16144.png,1.0,9.142719,-5.0260105,10.0188055
alexnet_w3_mlp_simclrhn_probe1,1,163,NaN,truck,truck,false,0163_fc_dnn_false_truck_35_n04467665_47050.png,n04467665_47050.png,1.0,-2.2126634,-2.435914,0.15786204
alexnet_w3_mlp_simclrhn_probe1,1,164,NaN,clock,bottle,true,0164_fc_dnn_true_bottle_35_n03937543_8063.png,n03937543_8063.png,0.0,2.795218,3.090929,-0.2090993
alexnet_w3_mlp_simclrhn_probe1,1,165,NaN,elephant,bear,false,0165_fc_dnn_false_bear_35_n02134084_1655.png,n02134084_1655.png,0.0,0.77719593,0.96172714,-0.13048327
alexnet_w3_mlp_simclrhn_probe1,1,166,NaN,bicycle,car,false,0166_fc_dnn_false_car_35_n03100240_2425.png,n03100240_2425.png,0.0,-5.211265,-1.7925404,-2.4174035
alexnet_w3_mlp_simclrhn_probe1,1,167,NaN,keyboard,keyboard,false,0167_fc_dnn_false_keyboard_35_n03085013_21300.png,n03085013_21300.png,1.0,3.6163552,-0.2243315,2.7157757
alexnet_w3_mlp_simclrhn_probe1,1,168,NaN,bear,bear,false,0168_fc_dnn_false_bear_35_n02132136_2248.png,n02132136_2248.png,1.0,4.116238,0.1437375,2.8089821
alexnet_w3_mlp_simclrhn_probe1,1,169,NaN,knife,knife,false,0169_fc_dnn_false_knife_35_n03041632_27832.png,n03041632_27832.png,1.0,0.717857,-5.089203,4.106211
alexnet_w3_mlp_simclrhn_probe1,1,170,NaN,keyboard,keyboard,true,0170_fc_dnn_true_keyboard_35_n04505470_4682.png,n04505470_4682.png,1.0,12.594443,1.010043,8.191408
alexnet_w3_mlp_simclrhn_probe1,1,171,NaN,truck,truck,false,0171_fc_dnn_false_truck_35_n03417042_12908.png,n03417042_12908.png,1.0,-1.0935011,-1.421148,0.23168132
alexnet_w3_mlp_simclrhn_probe1,1,172,NaN,elephant,elephant,false,0172_fc_dnn_false_elephant_35_n02504013_2148.png,n02504013_2148.png,1.0,3.1076488,-0.60875255,2.6278927
alexnet_w3_mlp_simclrhn_probe1,1,173,NaN,boat,boat,true,0173_fc_dnn_true_boat_35_n02951358_20379.png,n02951358_20379.png,1.0,-0.27261582,-0.59385455,0.22715008
alexnet_w3_mlp_simclrhn_probe1,1,174,NaN,cat,cat,true,0174_fc_dnn_true_cat_35_n02123394_6521.png,n02123394_6521.png,1.0,0.25860783,-1.2294408,1.0522094
alexnet_w3_mlp_simclrhn_probe1,1,175,NaN,boat,boat,true,0175_fc_dnn_true_boat_35_n03662601_9602.png,n03662601_9602.png,1.0,8.329683,2.450349,4.157317
alexnet_w3_mlp_simclrhn_probe1,1,176,NaN,clock,clock,true,0176_fc_dnn_true_clock_35_n04548280_3997.png,n04548280_3997.png,1.0,7.3047566,-2.5030591,6.935173
alexnet_w3_mlp_simclrhn_probe1,1,177,NaN,car,car,false,0177_fc_dnn_false_car_35_n03100240_12694.png,n03100240_12694.png,1.0,14.410136,5.4998093,6.300553
alexnet_w3_mlp_simclrhn_probe1,1,178,NaN,bird,bird,false,0178_fc_dnn_false_bird_35_n02002556_25052.png,n02002556_25052.png,1.0,4.0755134,-10.480636,10.292751
alexnet_w3_mlp_simclrhn_probe1,1,179,NaN,oven,chair,true,0179_fc_dnn_true_chair_35_n04429376_22734.png,n04429376_22734.png,0.0,-1.3322258,-0.3058475,-0.725759
alexnet_w3_mlp_simclrhn_probe1,1,180,NaN,boat,boat,true,0180_fc_dnn_true_boat_35_n04612504_5334.png,n04612504_5334.png,1.0,7.5108194,2.504961,3.5396764
alexnet_w3_mlp_simclrhn_probe1,1,181,NaN,keyboard,keyboard,true,0181_fc_dnn_true_keyboard_35_n03085013_15484.png,n03085013_15484.png,1.0,3.143231,0.2054196,2.0773463
alexnet_w3_mlp_simclrhn_probe1,1,182,NaN,bear,bear,true,0182_fc_dnn_true_bear_35_n02134418_1809.png,n02134418_1809.png,1.0,6.941665,0.20228148,4.765464
alexnet_w3_mlp_simclrhn_probe1,1,183,NaN,knife,bottle,true,0183_fc_dnn_true_bottle_35_n04560804_6392.png,n04560804_6392.png,0.0,-0.47839445,-0.44619536,-0.022768192
alexnet_w3_mlp_simclrhn_probe1,1,184,NaN,boat,boat,false,0184_fc_dnn_false_boat_35_n02951358_29495.png,n02951358_29495.png,1.0,4.0137024,-1.4256322,3.8461907
alexnet_w3_mlp_simclrhn_probe1,1,185,NaN,dog,dog,false,0185_fc_dnn_false_dog_35_n02086646_8449.png,n02086646_8449.png,1.0,2.4976835,-2.5427186,3.564103
alexnet_w3_mlp_simclrhn_probe1,1,186,NaN,bear,bird,true,0186_fc_dnn_true_bird_35_n02037110_4043.png,n02037110_4043.png,0.0,-1.5457221,-0.8405926,-0.49860185
alexnet_w3_mlp_simclrhn_probe1,1,187,NaN,elephant,elephant,true,0187_fc_dnn_true_elephant_35_n02504458_4819.png,n02504458_4819.png,1.0,8.666629,0.090292335,6.064386
alexnet_w3_mlp_simclrhn_probe1,1,188,NaN,bird,bird,true,0188_fc_dnn_true_bird_35_n01829413_282.png,n01829413_282.png,1.0,4.447153,-8.364958,9.05953
alexnet_w3_mlp_simclrhn_probe1,1,189,NaN,bird,bird,false,0189_fc_dnn_false_bird_35_n02007558_22160.png,n02007558_22160.png,1.0,-1.2724856,-1.8209285,0.38780767
alexnet_w3_mlp_simclrhn_probe1,1,190,NaN,truck,truck,false,0190_fc_dnn_false_truck_35_n03417042_3066.png,n03417042_3066.png,1.0,1.3769907,-0.2597286,1.1573353
alexnet_w3_mlp_simclrhn_probe1,1,191,NaN,boat,boat,true,0191_fc_dnn_true_boat_35_n04612504_254.png,n04612504_254.png,1.0,3.6167977,-1.1131824,3.344601
alexnet_w3_mlp_simclrhn_probe1,1,192,NaN,keyboard,keyboard,false,0192_fc_dnn_false_keyboard_35_n03085013_20704.png,n03085013_20704.png,1.0,-0.4948671,-3.3801396,2.0401957
alexnet_w3_mlp_simclrhn_probe1,1,193,NaN,chair,chair,true,0193_fc_dnn_true_chair_35_n03376595_3015.png,n03376595_3015.png,1.0,-0.22002703,-0.22080502,0.00055012177
alexnet_w3_mlp_simclrhn_probe1,1,194,NaN,keyboard,bottle,false,0194_fc_dnn_false_bottle_35_n03983396_3782.png,n03983396_3782.png,0.0,-5.652828,4.110728,-6.9038763
alexnet_w3_mlp_simclrhn_probe1,1,195,NaN,bird,bird,false,0195_fc_dnn_false_bird_35_n01592084_4087.png,n01592084_4087.png,1.0,1.5824213,-5.757744,5.1902804
alexnet_w3_mlp_simclrhn_probe1,1,196,NaN,bird,bird,false,0196_fc_dnn_false_bird_35_n02013706_651.png,n02013706_651.png,1.0,3.2547405,-10.617053,9.80884
alexnet_w3_mlp_simclrhn_probe1,1,197,NaN,keyboard,keyboard,true,0197_fc_dnn_true_keyboard_35_n04505470_2825.png,n04505470_2825.png,1.0,6.242461,-2.5084937,6.1878595
alexnet_w3_mlp_simclrhn_probe1,1,198,NaN,cat,cat,false,0198_fc_dnn_false_cat_35_n02123597_23346.png,n02123597_23346.png,1.0,-0.6111606,-1.1597147,0.38788635
alexnet_w3_mlp_simclrhn_probe1,1,199,NaN,cat,cat,false,0199_fc_dnn_false_cat_35_n02124075_3592.png,n02124075_3592.png,1.0,0.3630632,-5.59332,4.211799
alexnet_w3_mlp_simclrhn_probe1,1,200,NaN,airplane,airplane,false,0200_fc_dnn_false_airplane_35_n02690373_5415.png,n02690373_5415.png,1.0,8.932936,-2.498518,8.083259
alexnet_w3_mlp_simclrhn_probe1,1,201,NaN,cat,cat,true,0201_fc_dnn_true_cat_35_n02123597_4591.png,n02123597_4591.png,1.0,0.52217966,-0.5294167,0.74359095
alexnet_w3_mlp_simclrhn_probe1,1,202,NaN,elephant,elephant,false,0202_fc_dnn_false_elephant_35_n02504013_2228.png,n02504013_2228.png,1.0,5.5741777,1.1614783,3.12025
alexnet_w3_mlp_simclrhn_probe1,1,203,NaN,knife,knife,false,0203_fc_dnn_false_knife_35_n03041632_47743.png,n03041632_47743.png,1.0,0.90656435,-2.6030257,2.4816551
alexnet_w3_mlp_simclrhn_probe1,1,204,NaN,bear,bear,false,0204_fc_dnn_false_bear_35_n02134418_1105.png,n02134418_1105.png,1.0,4.557436,0.4632822,2.895004
alexnet_w3_mlp_simclrhn_probe1,1,205,NaN,bottle,bottle,true,0205_fc_dnn_true_bottle_35_n04591713_1174.png,n04591713_1174.png,1.0,3.7577376,-2.5058317,4.4290123
alexnet_w3_mlp_simclrhn_probe1,1,206,NaN,keyboard,keyboard,true,0206_fc_dnn_true_keyboard_35_n04505470_8544.png,n04505470_8544.png,1.0,0.34020805,-3.6665072,2.8331757
alexnet_w3_mlp_simclrhn_probe1,1,207,NaN,bear,bear,true,0207_fc_dnn_true_bear_35_n02134418_379.png,n02134418_379.png,1.0,12.369369,-0.5151579,9.110736
alexnet_w3_mlp_simclrhn_probe1,1,208,NaN,bottle,knife,false,0208_fc_dnn_false_knife_35_n03041632_33198.png,n03041632_33198.png,0.0,-2.4994485,-0.9533892,-1.093229
alexnet_w3_mlp_simclrhn_probe1,1,209,NaN,bear,bear,true,0209_fc_dnn_true_bear_35_n02134084_4490.png,n02134084_4490.png,1.0,-0.0059755445,-3.5946667,2.537588
alexnet_w3_mlp_simclrhn_probe1,1,210,NaN,car,car,true,0210_fc_dnn_true_car_35_n02814533_23592.png,n02814533_23592.png,1.0,7.2701087,1.8195369,3.8541365
alexnet_w3_mlp_simclrhn_probe1,1,211,NaN,bear,dog,false,0211_fc_dnn_false_dog_35_n02102973_7095.png,n02102973_7095.png,0.0,-0.52476615,0.66322136,-0.84003407
alexnet_w3_mlp_simclrhn_probe1,1,212,NaN,elephant,elephant,true,0212_fc_dnn_true_elephant_35_n02504013_3810.png,n02504013_3810.png,1.0,15.707157,3.6037436,8.558406
alexnet_w3_mlp_simclrhn_probe1,1,213,NaN,truck,truck,false,0213_fc_dnn_false_truck_35_n03417042_28742.png,n03417042_28742.png,1.0,6.433221,3.1201584,2.342689
alexnet_w3_mlp_simclrhn_probe1,1,214,NaN,bicycle,bicycle,false,0214_fc_dnn_false_bicycle_35_n03792782_4382.png,n03792782_4382.png,1.0,12.106459,-3.6459885,11.138662
alexnet_w3_mlp_simclrhn_probe1,1,215,NaN,keyboard,keyboard,false,0215_fc_dnn_false_keyboard_35_n04505470_2868.png,n04505470_2868.png,1.0,4.4572873,-1.0785592,3.914435
alexnet_w3_mlp_simclrhn_probe1,1,216,NaN,bear,bear,true,0216_fc_dnn_true_bear_35_n02132136_4817.png,n02132136_4817.png,1.0,0.9066417,-0.28760755,0.8444618
alexnet_w3_mlp_simclrhn_probe1,1,217,NaN,bicycle,bicycle,true,0217_fc_dnn_true_bicycle_35_n03792782_1989.png,n03792782_1989.png,1.0,4.0324736,-2.9194198,4.915731
alexnet_w3_mlp_simclrhn_probe1,1,218,NaN,truck,truck,true,0218_fc_dnn_true_truck_35_n03417042_4883.png,n03417042_4883.png,1.0,5.3706427,-0.30999008,4.0168138
alexnet_w3_mlp_simclrhn_probe1,1,219,NaN,bicycle,bicycle,true,0219_fc_dnn_true_bicycle_35_n03792782_6614.png,n03792782_6614.png,1.0,9.4816475,-4.5645757,9.932179
alexnet_w3_mlp_simclrhn_probe1,1,220,NaN,car,car,true,0220_fc_dnn_true_car_35_n04285008_8581.png,n04285008_8581.png,1.0,16.878738,8.632269,5.831135
alexnet_w3_mlp_simclrhn_probe1,1,221,NaN,truck,truck,true,0221_fc_dnn_true_truck_35_n04467665_22051.png,n04467665_22051.png,1.0,10.377579,3.6683228,4.7441607
alexnet_w3_mlp_simclrhn_probe1,1,222,NaN,keyboard,keyboard,true,0222_fc_dnn_true_keyboard_35_n04505470_4516.png,n04505470_4516.png,1.0,8.60207,-2.5817397,7.9081473
alexnet_w3_mlp_simclrhn_probe1,1,223,NaN,clock,clock,true,0223_fc_dnn_true_clock_35_n02708093_3355.png,n02708093_3355.png,1.0,0.3758783,-1.3217552,1.2004082
alexnet_w3_mlp_simclrhn_probe1,1,224,NaN,chair,chair,false,0224_fc_dnn_false_chair_35_n02791124_11404.png,n02791124_11404.png,1.0,-1.4769655,-1.87602,0.28217408
alexnet_w3_mlp_simclrhn_probe1,1,225,NaN,boat,boat,true,0225_fc_dnn_true_boat_35_n03344393_1145.png,n03344393_1145.png,1.0,5.347045,1.3043051,2.8586488
alexnet_w3_mlp_simclrhn_probe1,1,226,NaN,chair,keyboard,false,0226_fc_dnn_false_keyboard_35_n04505470_4627.png,n04505470_4627.png,0.0,-0.24954101,0.37322938,-0.4403652
alexnet_w3_mlp_simclrhn_probe1,1,227,NaN,knife,chair,true,0227_fc_dnn_true_chair_35_n03376595_4354.png,n03376595_4354.png,0.0,-0.48860657,1.8851728,-1.6785154
alexnet_w3_mlp_simclrhn_probe1,1,228,NaN,keyboard,keyboard,false,0228_fc_dnn_false_keyboard_35_n03085013_3231.png,n03085013_3231.png,1.0,8.891472,-1.8071078,7.5650387
alexnet_w3_mlp_simclrhn_probe1,1,229,NaN,car,car,false,0229_fc_dnn_false_car_35_n03100240_7454.png,n03100240_7454.png,1.0,8.877948,4.7765474,2.9001281
alexnet_w3_mlp_simclrhn_probe1,1,230,NaN,car,chair,false,0230_fc_dnn_false_chair_35_n03376595_4212.png,n03376595_4212.png,0.0,-3.0790102,-0.7964241,-1.6140321
alexnet_w3_mlp_simclrhn_probe1,1,231,NaN,airplane,airplane,true,0231_fc_dnn_true_airplane_35_n02690373_4175.png,n02690373_4175.png,1.0,13.425601,-3.5587015,12.009716
alexnet_w3_mlp_simclrhn_probe1,1,232,NaN,oven,bird,false,0232_fc_dnn_false_bird_35_n01614925_19918.png,n01614925_19918.png,0.0,-5.1802382,-1.995616,-2.251868
alexnet_w3_mlp_simclrhn_probe1,1,233,NaN,dog,dog,false,0233_fc_dnn_false_dog_35_n02086240_1183.png,n02086240_1183.png,1.0,-0.02458697,-4.738891,3.3335164
alexnet_w3_mlp_simclrhn_probe1,1,234,NaN,car,car,false,0234_fc_dnn_false_car_35_n02814533_1344.png,n02814533_1344.png,1.0,7.2643285,5.541383,1.2183067
alexnet_w3_mlp_simclrhn_probe1,1,235,NaN,oven,bottle,true,0235_fc_dnn_true_bottle_35_n03983396_1321.png,n03983396_1321.png,0.0,-3.54458,0.6271147,-2.9498336
alexnet_w3_mlp_simclrhn_probe1,1,236,NaN,cat,cat,true,0236_fc_dnn_true_cat_35_n02123597_6291.png,n02123597_6291.png,1.0,1.3482944,-1.6469189,2.1179357
alexnet_w3_mlp_simclrhn_probe1,1,237,NaN,car,airplane,true,0237_fc_dnn_true_airplane_35_n02690373_7698.png,n02690373_7698.png,0.0,-2.7816167,-0.22302486,-1.8091977
alexnet_w3_mlp_simclrhn_probe1,1,238,NaN,airplane,airplane,false,0238_fc_dnn_false_airplane_35_n02690373_4191.png,n02690373_4191.png,1.0,2.1204906,-2.387021,3.187292
alexnet_w3_mlp_simclrhn_probe1,1,239,NaN,bear,bear,true,0239_fc_dnn_true_bear_35_n02134418_6204.png,n02134418_6204.png,1.0,0.67474926,0.43764102,0.16766085
alexnet_w3_mlp_simclrhn_probe1,1,240,NaN,elephant,bear,true,0240_fc_dnn_true_bear_35_n02132136_14829.png,n02132136_14829.png,0.0,-0.24408042,1.3727453,-1.1432685
alexnet_w3_mlp_simclrhn_probe1,1,241,NaN,car,car,false,0241_fc_dnn_false_car_35_n04285008_2409.png,n04285008_2409.png,1.0,8.531632,6.548168,1.402521
alexnet_w3_mlp_simclrhn_probe1,1,242,NaN,bird,bird,true,0242_fc_dnn_true_bird_35_n02037110_3761.png,n02037110_3761.png,1.0,6.6220293,-8.691019,10.827961
alexnet_w3_mlp_simclrhn_probe1,1,243,NaN,boat,boat,false,0243_fc_dnn_false_boat_35_n02951358_3067.png,n02951358_3067.png,1.0,1.3275591,-0.9663017,1.6220046
alexnet_w3_mlp_simclrhn_probe1,1,244,NaN,chair,chair,false,0244_fc_dnn_false_chair_35_n03376595_14748.png,n03376595_14748.png,1.0,4.205638,-1.3497244,3.9282343
alexnet_w3_mlp_simclrhn_probe1,1,245,NaN,elephant,elephant,true,0245_fc_dnn_true_elephant_35_n02504458_5951.png,n02504458_5951.png,1.0,7.813673,1.0483296,4.7838206
alexnet_w3_mlp_simclrhn_probe1,1,246,NaN,clock,clock,false,0246_fc_dnn_false_clock_35_n02708093_2006.png,n02708093_2006.png,1.0,0.5721927,-1.7484148,1.6409173
alexnet_w3_mlp_simclrhn_probe1,1,247,NaN,car,car,false,0247_fc_dnn_false_car_35_n03100240_18646.png,n03100240_18646.png,1.0,9.718495,4.002438,4.041863
alexnet_w3_mlp_simclrhn_probe1,1,248,NaN,bicycle,bicycle,false,0248_fc_dnn_false_bicycle_35_n03792782_5864.png,n03792782_5864.png,1.0,7.8798347,-2.4482036,7.303026
alexnet_w3_mlp_simclrhn_probe1,1,249,NaN,truck,chair,false,0249_fc_dnn_false_chair_35_n04429376_36830.png,n04429376_36830.png,0.0,-3.2913728,-1.6134453,-1.186474
alexnet_w3_mlp_simclrhn_probe1,1,250,NaN,boat,boat,true,0250_fc_dnn_true_boat_35_n04273569_9282.png,n04273569_9282.png,1.0,1.8940029,-3.5564327,3.8540401
alexnet_w3_mlp_simclrhn_probe1,1,251,NaN,bird,bird,true,0251_fc_dnn_true_bird_35_n01622779_1609.png,n01622779_1609.png,1.0,-1.669637,-1.9421082,0.19266623
alexnet_w3_mlp_simclrhn_probe1,1,252,NaN,bicycle,dog,true,0252_fc_dnn_true_dog_35_n02088094_9498.png,n02088094_9498.png,0.0,-2.7785287,-2.253608,-0.371175
alexnet_w3_mlp_simclrhn_probe1,1,253,NaN,car,car,true,0253_fc_dnn_true_car_35_n04285008_5525.png,n04285008_5525.png,1.0,5.759809,1.3865664,3.0923493
alexnet_w3_mlp_simclrhn_probe1,1,254,NaN,knife,knife,true,0254_fc_dnn_true_knife_35_n03041632_29343.png,n03041632_29343.png,1.0,-0.2893392,-4.025622,2.6419508
alexnet_w3_mlp_simclrhn_probe1,1,255,NaN,oven,knife,true,0255_fc_dnn_true_knife_35_n03041632_86338.png,n03041632_86338.png,0.0,-1.4251895,1.7592117,-2.2517116
alexnet_w3_mlp_simclrhn_probe1,1,256,NaN,keyboard,keyboard,false,0256_fc_dnn_false_keyboard_35_n03085013_20691.png,n03085013_20691.png,1.0,4.805644,-0.72473145,3.910566
alexnet_w3_mlp_simclrhn_probe1,1,257,NaN,cat,cat,true,0257_fc_dnn_true_cat_35_n02124075_1957.png,n02124075_1957.png,1.0,-2.3393698,-4.213415,1.3251503
alexnet_w3_mlp_simclrhn_probe1,1,258,NaN,bear,bear,false,0258_fc_dnn_false_bear_35_n02134418_195.png,n02134418_195.png,1.0,2.6654491,1.1368601,1.0808756
alexnet_w3_mlp_simclrhn_probe1,1,259,NaN,chair,chair,true,0259_fc_dnn_true_chair_35_n02791124_1376.png,n02791124_1376.png,1.0,1.3781614,-0.50056654,1.3284613
alexnet_w3_mlp_simclrhn_probe1,1,260,NaN,elephant,elephant,false,0260_fc_dnn_false_elephant_35_n02504458_8060.png,n02504458_8060.png,1.0,7.9868016,-0.6913697,6.1363935
alexnet_w3_mlp_simclrhn_probe1,1,261,NaN,oven,oven,false,0261_fc_dnn_false_oven_35_n04111531_6479.png,n04111531_6479.png,1.0,1.9313706,-2.3555193,3.031289
alexnet_w3_mlp_simclrhn_probe1,1,262,NaN,elephant,bear,true,0262_fc_dnn_true_bear_35_n02132136_4070.png,n02132136_4070.png,0.0,-2.878715,-1.7548733,-0.7946761
alexnet_w3_mlp_simclrhn_probe1,1,263,NaN,cat,cat,false,0263_fc_dnn_false_cat_35_n02123597_1153.png,n02123597_1153.png,1.0,0.5874657,-0.00046400193,0.4157291
alexnet_w3_mlp_simclrhn_probe1,1,264,NaN,truck,truck,false,0264_fc_dnn_false_truck_35_n04467665_49656.png,n04467665_49656.png,1.0,6.810837,4.5581617,1.5928818
alexnet_w3_mlp_simclrhn_probe1,1,265,NaN,dog,dog,true,0265_fc_dnn_true_dog_35_n02108915_10239.png,n02108915_10239.png,1.0,2.5285275,-6.81331,6.605677
alexnet_w3_mlp_simclrhn_probe1,1,266,NaN,chair,chair,false,0266_fc_dnn_false_chair_35_n04429376_6835.png,n04429376_6835.png,1.0,-1.3242598,-1.6746881,0.24779026
alexnet_w3_mlp_simclrhn_probe1,1,267,NaN,truck,truck,true,0267_fc_dnn_true_truck_35_n04467665_54079.png,n04467665_54079.png,1.0,0.679927,-1.0096966,1.1947443
alexnet_w3_mlp_simclrhn_probe1,1,268,NaN,clock,clock,false,0268_fc_dnn_false_clock_35_n03196217_4464.png,n03196217_4464.png,1.0,5.8355966,3.2616768,1.8200362
alexnet_w3_mlp_simclrhn_probe1,1,269,NaN,dog,dog,true,0269_fc_dnn_true_dog_35_n02102318_9359.png,n02102318_9359.png,1.0,1.1045734,-1.7542896,2.0215213
alexnet_w3_mlp_simclrhn_probe1,1,270,NaN,bicycle,bicycle,true,0270_fc_dnn_true_bicycle_35_n03792782_12578.png,n03792782_12578.png,1.0,6.598152,-5.232455,8.365502
alexnet_w3_mlp_simclrhn_probe1,1,271,NaN,bicycle,bicycle,true,0271_fc_dnn_true_bicycle_35_n02835271_12752.png,n02835271_12752.png,1.0,11.442501,-4.2621493,11.104865
alexnet_w3_mlp_simclrhn_probe1,1,272,NaN,oven,oven,true,0272_fc_dnn_true_oven_35_n04111531_20056.png,n04111531_20056.png,1.0,1.9656804,-2.829004,3.390354
alexnet_w3_mlp_simclrhn_probe1,1,273,NaN,oven,oven,true,0273_fc_dnn_true_oven_35_n04111531_12510.png,n04111531_12510.png,1.0,3.498865,-3.7360096,5.115829
alexnet_w3_mlp_simclrhn_probe1,1,274,NaN,oven,oven,false,0274_fc_dnn_false_oven_35_n04111531_11079.png,n04111531_11079.png,1.0,6.1981516,-0.83007956,4.96971
alexnet_w3_mlp_simclrhn_probe1,1,275,NaN,cat,cat,true,0275_fc_dnn_true_cat_35_n02124075_4377.png,n02124075_4377.png,1.0,2.726724,-2.5122185,3.7044916
alexnet_w3_mlp_simclrhn_probe1,1,276,NaN,airplane,knife,true,0276_fc_dnn_true_knife_35_n03041632_20517.png,n03041632_20517.png,0.0,0.93730843,1.56887,-0.44658145
alexnet_w3_mlp_simclrhn_probe1,1,277,NaN,knife,knife,false,0277_fc_dnn_false_knife_35_n03041632_362.png,n03041632_362.png,1.0,0.13107194,-6.2163644,4.4883156
alexnet_w3_mlp_simclrhn_probe1,1,278,NaN,airplane,airplane,false,0278_fc_dnn_false_airplane_35_n02690373_6807.png,n02690373_6807.png,1.0,4.8545504,2.039084,1.9908354
alexnet_w3_mlp_simclrhn_probe1,1,279,NaN,elephant,elephant,false,0279_fc_dnn_false_elephant_35_n02504013_1494.png,n02504013_1494.png,1.0,14.35385,4.7346396,6.80181
alexnet_w3_mlp_simclrhn_probe1,1,280,NaN,oven,oven,false,0280_fc_dnn_false_oven_35_n04111531_3181.png,n04111531_3181.png,1.0,-0.51513,-3.2323425,1.9213594
alexnet_w3_mlp_simclrhn_probe1,1,281,NaN,car,truck,false,0281_fc_dnn_false_truck_35_n03796401_6727.png,n03796401_6727.png,0.0,12.373365,14.802764,-1.7178442
alexnet_w3_mlp_simclrhn_probe1,1,282,NaN,elephant,dog,true,0282_fc_dnn_true_dog_35_n02113023_6956.png,n02113023_6956.png,0.0,0.0059552873,0.44696558,-0.31184137
alexnet_w3_mlp_simclrhn_probe1,1,283,NaN,bicycle,elephant,false,0283_fc_dnn_false_elephant_35_n02504013_1519.png,n02504013_1519.png,0.0,-3.6509757,-3.5475562,-0.07312866
alexnet_w3_mlp_simclrhn_probe1,1,284,NaN,oven,oven,false,0284_fc_dnn_false_oven_35_n04111531_8082.png,n04111531_8082.png,1.0,1.7760178,-0.9049695,1.8957443
alexnet_w3_mlp_simclrhn_probe1,1,285,NaN,oven,oven,false,0285_fc_dnn_false_oven_35_n04111531_550.png,n04111531_550.png,1.0,1.1639956,-0.53554165,1.2017543
alexnet_w3_mlp_simclrhn_probe1,1,286,NaN,knife,clock,false,0286_fc_dnn_false_clock_35_n02708093_2242.png,n02708093_2242.png,0.0,-4.850499,-3.0732682,-1.256692
alexnet_w3_mlp_simclrhn_probe1,1,287,NaN,airplane,airplane,true,0287_fc_dnn_true_airplane_35_n02690373_10809.png,n02690373_10809.png,1.0,9.286815,-1.0498098,7.3090973
alexnet_w3_mlp_simclrhn_probe1,1,288,NaN,bird,bird,false,0288_fc_dnn_false_bird_35_n02037110_6501.png,n02037110_6501.png,1.0,7.8770075,-12.189364,14.189068
alexnet_w3_mlp_simclrhn_probe1,1,289,NaN,airplane,airplane,false,0289_fc_dnn_false_airplane_35_n02690373_12756.png,n02690373_12756.png,1.0,5.985118,-0.47612697,4.5687904
alexnet_w3_mlp_simclrhn_probe1,1,290,NaN,oven,bottle,false,0290_fc_dnn_false_bottle_35_n03983396_5413.png,n03983396_5413.png,0.0,-4.39232,-1.0764964,-2.3446414
alexnet_w3_mlp_simclrhn_probe1,1,291,NaN,bird,bird,true,0291_fc_dnn_true_bird_35_n01560419_631.png,n01560419_631.png,1.0,4.8701735,-8.367743,9.3606205
alexnet_w3_mlp_simclrhn_probe1,1,292,NaN,knife,cat,true,0292_fc_dnn_true_cat_35_n02123394_4734.png,n02123394_4734.png,0.0,-1.5757866,-0.99669296,-0.40948105
alexnet_w3_mlp_simclrhn_probe1,1,293,NaN,bottle,bottle,true,0293_fc_dnn_true_bottle_35_n03937543_469.png,n03937543_469.png,1.0,0.06910107,-1.0819343,0.81390494
alexnet_w3_mlp_simclrhn_probe1,1,294,NaN,clock,clock,true,0294_fc_dnn_true_clock_35_n04548280_1055.png,n04548280_1055.png,1.0,2.6044552,-1.1656094,2.6658382
alexnet_w3_mlp_simclrhn_probe1,1,295,NaN,knife,chair,true,0295_fc_dnn_true_chair_35_n02791124_15934.png,n02791124_15934.png,0.0,-1.5173782,-0.26787996,-0.8835287
alexnet_w3_mlp_simclrhn_probe1,1,296,NaN,cat,keyboard,true,0296_fc_dnn_true_keyboard_35_n03085013_22187.png,n03085013_22187.png,0.0,-6.3974676,6.94976,-9.437915
alexnet_w3_mlp_simclrhn_probe1,1,297,NaN,dog,dog,false,0297_fc_dnn_false_dog_35_n02099601_8560.png,n02099601_8560.png,1.0,2.0625584,-0.15231062,1.5661489
alexnet_w3_mlp_simclrhn_probe1,1,298,NaN,truck,truck,true,0298_fc_dnn_true_truck_35_n03417042_11091.png,n03417042_11091.png,1.0,9.642948,3.6054008,4.269191
alexnet_w3_mlp_simclrhn_probe1,1,299,NaN,bicycle,bird,true,0299_fc_dnn_true_bird_35_n02013706_7132.png,n02013706_7132.png,0.0,-2.5384758,-1.6161017,-0.6522169
alexnet_w3_mlp_simclrhn_probe1,1,300,NaN,car,car,false,0300_fc_dnn_false_car_35_n02814533_4978.png,n02814533_4978.png,1.0,7.2028527,5.2589383,1.3745551
alexnet_w3_mlp_simclrhn_probe1,1,301,NaN,bear,bear,true,0301_fc_dnn_true_bear_35_n02134418_6244.png,n02134418_6244.png,1.0,4.3446207,-0.66618174,3.5431724
alexnet_w3_mlp_simclrhn_probe1,1,302,NaN,bicycle,bicycle,false,0302_fc_dnn_false_bicycle_35_n03792782_50569.png,n03792782_50569.png,1.0,12.877356,-1.7289671,10.32823
alexnet_w3_mlp_simclrhn_probe1,1,303,NaN,car,car,true,0303_fc_dnn_true_car_35_n03100240_2632.png,n03100240_2632.png,1.0,8.245223,4.4253244,2.7010763
alexnet_w3_mlp_simclrhn_probe1,1,304,NaN,knife,knife,false,0304_fc_dnn_false_knife_35_n03041632_11285.png,n03041632_11285.png,1.0,2.172276,-1.529877,2.6178174
alexnet_w3_mlp_simclrhn_probe1,1,305,NaN,knife,knife,false,0305_fc_dnn_false_knife_35_n03041632_39952.png,n03041632_39952.png,1.0,4.4983416,-2.621962,5.034815
alexnet_w3_mlp_simclrhn_probe1,1,306,NaN,chair,chair,true,0306_fc_dnn_true_chair_35_n04099969_9745.png,n04099969_9745.png,1.0,-0.1867086,-1.1542885,0.68418235
alexnet_w3_mlp_simclrhn_probe1,1,307,NaN,car,car,true,0307_fc_dnn_true_car_35_n03100240_49.png,n03100240_49.png,1.0,18.49201,15.095865,2.401437
alexnet_w3_mlp_simclrhn_probe1,1,308,NaN,bird,bird,true,0308_fc_dnn_true_bird_35_n01817953_5953.png,n01817953_5953.png,1.0,-2.9938598,-5.7079124,1.9191251
alexnet_w3_mlp_simclrhn_probe1,1,309,NaN,bear,bear,false,0309_fc_dnn_false_bear_35_n02134418_5253.png,n02134418_5253.png,1.0,2.4868255,0.26512212,1.5709815
alexnet_w3_mlp_simclrhn_probe1,1,310,NaN,bicycle,bicycle,false,0310_fc_dnn_false_bicycle_35_n03792782_7576.png,n03792782_7576.png,1.0,9.170319,-4.371109,9.575235
alexnet_w3_mlp_simclrhn_probe1,1,311,NaN,clock,keyboard,true,0311_fc_dnn_true_keyboard_35_n03085013_5157.png,n03085013_5157.png,0.0,-2.0043855,1.25847,-2.3071873
alexnet_w3_mlp_simclrhn_probe1,1,312,NaN,airplane,boat,true,0312_fc_dnn_true_boat_35_n03344393_7050.png,n03344393_7050.png,0.0,-1.1353434,0.5368333,-1.1824075
alexnet_w3_mlp_simclrhn_probe1,1,313,NaN,bicycle,bicycle,false,0313_fc_dnn_false_bicycle_35_n03792782_51335.png,n03792782_51335.png,1.0,5.610629,-3.790586,6.6476626
alexnet_w3_mlp_simclrhn_probe1,1,314,NaN,cat,cat,true,0314_fc_dnn_true_cat_35_n02124075_7230.png,n02124075_7230.png,1.0,3.552468,-3.1920185,4.7690725
alexnet_w3_mlp_simclrhn_probe1,1,315,NaN,airplane,truck,true,0315_fc_dnn_true_truck_35_n04467665_68020.png,n04467665_68020.png,0.0,-1.809066,2.8585887,-3.3005307
alexnet_w3_mlp_simclrhn_probe1,1,316,NaN,elephant,elephant,true,0316_fc_dnn_true_elephant_35_n02504458_2970.png,n02504458_2970.png,1.0,-0.47671512,-2.025914,1.0954491
alexnet_w3_mlp_simclrhn_probe1,1,317,NaN,bicycle,bicycle,false,0317_fc_dnn_false_bicycle_35_n02835271_2714.png,n02835271_2714.png,1.0,11.992523,-3.639949,11.053827
alexnet_w3_mlp_simclrhn_probe1,1,318,NaN,elephant,elephant,true,0318_fc_dnn_true_elephant_35_n02504013_3307.png,n02504013_3307.png,1.0,8.670048,3.5859838,3.5949762
alexnet_w3_mlp_simclrhn_probe1,1,319,NaN,truck,truck,true,0319_fc_dnn_true_truck_35_n03796401_3940.png,n03796401_3940.png,1.0,8.40098,4.666389,2.6407547
alexnet_w3_mlp_simclrhn_probe1,1,320,NaN,oven,chair,false,0320_fc_dnn_false_chair_35_n04429376_5362.png,n04429376_5362.png,0.0,-0.40588462,2.581639,-2.1124983
alexnet_w3_mlp_simclrhn_probe1,1,321,NaN,cat,cat,false,0321_fc_dnn_false_cat_35_n02123159_1165.png,n02123159_1165.png,1.0,2.3458877,-1.3985913,2.6477466
alexnet_w3_mlp_simclrhn_probe1,1,322,NaN,airplane,boat,true,0322_fc_dnn_true_boat_35_n03662601_4665.png,n03662601_4665.png,0.0,1.3960102,1.4955559,-0.07038945
alexnet_w3_mlp_simclrhn_probe1,1,323,NaN,cat,cat,true,0323_fc_dnn_true_cat_35_n02124075_5067.png,n02124075_5067.png,1.0,6.471666,-1.4064056,5.5706377
alexnet_w3_mlp_simclrhn_probe1,1,324,NaN,knife,knife,true,0324_fc_dnn_true_knife_35_n03041632_22480.png,n03041632_22480.png,1.0,-1.0873082,-7.534086,4.558561
alexnet_w3_mlp_simclrhn_probe1,1,325,NaN,bicycle,bottle,false,0325_fc_dnn_false_bottle_35_n04560804_2539.png,n04560804_2539.png,0.0,-5.517184,2.8983755,-5.9506993
alexnet_w3_mlp_simclrhn_probe1,1,326,NaN,oven,oven,true,0326_fc_dnn_true_oven_35_n04111531_8681.png,n04111531_8681.png,1.0,2.3404832,-2.051261,3.105432
alexnet_w3_mlp_simclrhn_probe1,1,327,NaN,car,car,false,0327_fc_dnn_false_car_35_n03100240_23804.png,n03100240_23804.png,1.0,15.99062,10.987129,3.538002
alexnet_w3_mlp_simclrhn_probe1,1,328,NaN,oven,oven,true,0328_fc_dnn_true_oven_35_n04111531_547.png,n04111531_547.png,1.0,4.7081704,-1.6856942,4.5211453
alexnet_w3_mlp_simclrhn_probe1,1,329,NaN,boat,boat,false,0329_fc_dnn_false_boat_35_n04273569_9873.png,n04273569_9873.png,1.0,4.9221087,-1.1736989,4.310387
alexnet_w3_mlp_simclrhn_probe1,1,330,NaN,cat,cat,false,0330_fc_dnn_false_cat_35_n02123597_13140.png,n02123597_13140.png,1.0,1.7956938,-0.560886,1.6663536
alexnet_w3_mlp_simclrhn_probe1,1,331,NaN,bear,bear,true,0331_fc_dnn_true_bear_35_n02134418_1330.png,n02134418_1330.png,1.0,1.1197546,-1.534338,1.8767269
alexnet_w3_mlp_simclrhn_probe1,1,332,NaN,chair,chair,false,0332_fc_dnn_false_chair_35_n04429376_6272.png,n04429376_6272.png,1.0,-0.1665405,-0.5408019,0.26464278
alexnet_w3_mlp_simclrhn_probe1,1,333,NaN,bear,bear,false,0333_fc_dnn_false_bear_35_n02134084_22997.png,n02134084_22997.png,1.0,0.21606922,-1.5882746,1.2758638
alexnet_w3_mlp_simclrhn_probe1,1,334,NaN,oven,clock,false,0334_fc_dnn_false_clock_35_n03196217_3508.png,n03196217_3508.png,0.0,-0.843023,2.2362132,-2.1773489
alexnet_w3_mlp_simclrhn_probe1,1,335,NaN,chair,chair,true,0335_fc_dnn_true_chair_35_n02791124_958.png,n02791124_958.png,1.0,-0.08895391,-0.40031832,0.22016789
alexnet_w3_mlp_simclrhn_probe1,1,336,NaN,boat,boat,false,0336_fc_dnn_false_boat_35_n03344393_4012.png,n03344393_4012.png,1.0,2.3007035,0.23897126,1.4578649
alexnet_w3_mlp_simclrhn_probe1,1,337,NaN,airplane,airplane,true,0337_fc_dnn_true_airplane_35_n02690373_4921.png,n02690373_4921.png,1.0,13.178705,2.5842934,7.4913807
alexnet_w3_mlp_simclrhn_probe1,1,338,NaN,bear,cat,false,0338_fc_dnn_false_cat_35_n02125311_28052.png,n02125311_28052.png,0.0,0.29962242,0.93791854,-0.45134354
alexnet_w3_mlp_simclrhn_probe1,1,339,NaN,airplane,airplane,false,0339_fc_dnn_false_airplane_35_n02690373_1837.png,n02690373_1837.png,1.0,2.567504,-0.8337462,2.4050472
alexnet_w3_mlp_simclrhn_probe1,1,340,NaN,elephant,elephant,false,0340_fc_dnn_false_elephant_35_n02504458_5191.png,n02504458_5191.png,1.0,11.182093,-1.2216952,8.7708025
alexnet_w3_mlp_simclrhn_probe1,1,341,NaN,bird,bird,false,0341_fc_dnn_false_bird_35_n01855672_2187.png,n01855672_2187.png,1.0,-1.2464253,-5.5804415,3.0646124
alexnet_w3_mlp_simclrhn_probe1,1,342,NaN,clock,clock,true,0342_fc_dnn_true_clock_35_n04548280_7794.png,n04548280_7794.png,1.0,5.534221,-5.28701,7.651767
alexnet_w3_mlp_simclrhn_probe1,1,343,NaN,keyboard,clock,false,0343_fc_dnn_false_clock_35_n03196217_8489.png,n03196217_8489.png,0.0,-3.7348435,0.8060813,-3.210919
alexnet_w3_mlp_simclrhn_probe1,1,344,NaN,knife,knife,false,0344_fc_dnn_false_knife_35_n03041632_21590.png,n03041632_21590.png,1.0,-0.819593,-2.0207903,0.84937483
alexnet_w3_mlp_simclrhn_probe1,1,345,NaN,elephant,elephant,false,0345_fc_dnn_false_elephant_35_n02504458_1249.png,n02504458_1249.png,1.0,18.51582,-2.3870091,14.780532
alexnet_w3_mlp_simclrhn_probe1,1,346,NaN,keyboard,keyboard,false,0346_fc_dnn_false_keyboard_35_n04505470_4549.png,n04505470_4549.png,1.0,0.8380135,-0.36707586,0.85212684
alexnet_w3_mlp_simclrhn_probe1,1,347,NaN,elephant,elephant,false,0347_fc_dnn_false_elephant_35_n02504013_3771.png,n02504013_3771.png,1.0,8.324226,-1.787923,7.1503696
alexnet_w3_mlp_simclrhn_probe1,1,348,NaN,bicycle,bicycle,true,0348_fc_dnn_true_bicycle_35_n02835271_19552.png,n02835271_19552.png,1.0,12.630594,-0.575474,9.3381
alexnet_w3_mlp_simclrhn_probe1,1,349,NaN,elephant,bear,true,0349_fc_dnn_true_bear_35_n02134084_4477.png,n02134084_4477.png,0.0,-3.0383794,-0.71633744,-1.6419317
alexnet_w3_mlp_simclrhn_probe1,1,350,NaN,elephant,elephant,false,0350_fc_dnn_false_elephant_35_n02504013_10149.png,n02504013_10149.png,1.0,22.15815,0.9431169,15.001293
alexnet_w3_mlp_simclrhn_probe1,1,351,NaN,boat,boat,true,0351_fc_dnn_true_boat_35_n04273569_709.png,n04273569_709.png,1.0,5.7588367,3.6412084,1.4973894
alexnet_w3_mlp_simclrhn_probe1,1,352,NaN,car,car,false,0352_fc_dnn_false_car_35_n03100240_7120.png,n03100240_7120.png,1.0,17.834547,12.729095,3.6100996
alexnet_w3_mlp_simclrhn_probe1,1,353,NaN,car,boat,false,0353_fc_dnn_false_boat_35_n02951358_12867.png,n02951358_12867.png,0.0,-0.06127014,7.6620393,-5.4612045
alexnet_w3_mlp_simclrhn_probe1,1,354,NaN,bird,bird,true,0354_fc_dnn_true_bird_35_n01558993_38999.png,n01558993_38999.png,1.0,0.9978636,-7.403653,5.9407697
alexnet_w3_mlp_simclrhn_probe1,1,355,NaN,bicycle,bicycle,false,0355_fc_dnn_false_bicycle_35_n03792782_4210.png,n03792782_4210.png,1.0,4.2833204,-1.5970191,4.158028
alexnet_w3_mlp_simclrhn_probe1,1,356,NaN,dog,dog,false,0356_fc_dnn_false_dog_35_n02102318_11997.png,n02102318_11997.png,1.0,1.7629123,-0.271474,1.4385283
alexnet_w3_mlp_simclrhn_probe1,1,357,NaN,knife,clock,false,0357_fc_dnn_false_clock_35_n02708093_6813.png,n02708093_6813.png,0.0,-5.7860737,-3.2698545,-1.7792356
alexnet_w3_mlp_simclrhn_probe1,1,358,NaN,oven,oven,false,0358_fc_dnn_false_oven_35_n04111531_8036.png,n04111531_8036.png,1.0,5.294125,-3.1464381,5.9683795
alexnet_w3_mlp_simclrhn_probe1,1,359,NaN,clock,clock,false,0359_fc_dnn_false_clock_35_n02708093_3454.png,n02708093_3454.png,1.0,13.896606,-1.0917096,10.59834
alexnet_w3_mlp_simclrhn_probe1,1,360,NaN,keyboard,keyboard,true,0360_fc_dnn_true_keyboard_35_n03085013_21641.png,n03085013_21641.png,1.0,14.754864,-3.2756433,12.749494
alexnet_w3_mlp_simclrhn_probe1,1,361,NaN,oven,chair,false,0361_fc_dnn_false_chair_35_n02791124_139.png,n02791124_139.png,0.0,-1.1839983,-0.020510584,-0.8227101
alexnet_w3_mlp_simclrhn_probe1,1,362,NaN,dog,bear,false,0362_fc_dnn_false_bear_35_n02134084_6821.png,n02134084_6821.png,0.0,-2.3240619,-0.4610549,-1.3173449
alexnet_w3_mlp_simclrhn_probe1,1,363,NaN,cat,cat,false,0363_fc_dnn_false_cat_35_n02124075_5874.png,n02124075_5874.png,1.0,4.3855286,-2.5985117,4.9384623
alexnet_w3_mlp_simclrhn_probe1,1,364,NaN,chair,chair,false,0364_fc_dnn_false_chair_35_n04099969_8604.png,n04099969_8604.png,1.0,0.7940842,-1.0791824,1.3245995
alexnet_w3_mlp_simclrhn_probe1,1,365,NaN,bicycle,bicycle,true,0365_fc_dnn_true_bicycle_35_n02835271_15524.png,n02835271_15524.png,1.0,11.91647,-3.6758444,11.025431
alexnet_w3_mlp_simclrhn_probe1,1,366,NaN,chair,chair,false,0366_fc_dnn_false_chair_35_n04429376_55163.png,n04429376_55163.png,1.0,3.669207,-0.34589756,2.8391078
alexnet_w3_mlp_simclrhn_probe1,1,367,NaN,dog,dog,true,0367_fc_dnn_true_dog_35_n02106662_10632.png,n02106662_10632.png,1.0,3.0423808,-5.0024643,5.688565
alexnet_w3_mlp_simclrhn_probe1,1,368,NaN,car,car,false,0368_fc_dnn_false_car_35_n03100240_9675.png,n03100240_9675.png,1.0,15.498843,8.340937,5.061404
alexnet_w3_mlp_simclrhn_probe1,1,369,NaN,bird,bird,true,0369_fc_dnn_true_bird_35_n02011460_22291.png,n02011460_22291.png,1.0,3.3498607,-7.7018185,7.814718
alexnet_w3_mlp_simclrhn_probe1,1,370,NaN,cat,dog,false,0370_fc_dnn_false_dog_35_n02106662_56099.png,n02106662_56099.png,0.0,-1.1837215,4.2064323,-3.8114145
alexnet_w3_mlp_simclrhn_probe1,1,371,NaN,keyboard,keyboard,false,0371_fc_dnn_false_keyboard_35_n04505470_3970.png,n04505470_3970.png,1.0,13.726941,2.1915436,8.156758
alexnet_w3_mlp_simclrhn_probe1,1,372,NaN,boat,boat,false,0372_fc_dnn_false_boat_35_n03662601_32803.png,n03662601_32803.png,1.0,7.9111586,-3.40004,7.998225
alexnet_w3_mlp_simclrhn_probe1,1,373,NaN,bottle,bottle,false,0373_fc_dnn_false_bottle_35_n02823428_4043.png,n02823428_4043.png,1.0,5.7644415,-2.2233622,5.64823
alexnet_w3_mlp_simclrhn_probe1,1,374,NaN,airplane,airplane,true,0374_fc_dnn_true_airplane_35_n02690373_5221.png,n02690373_5221.png,1.0,14.530981,1.1925396,9.431703
alexnet_w3_mlp_simclrhn_probe1,1,375,NaN,bottle,knife,false,0375_fc_dnn_false_knife_35_n03041632_90125.png,n03041632_90125.png,0.0,-2.6683018,0.29013756,-2.0919325
alexnet_w3_mlp_simclrhn_probe1,1,376,NaN,oven,oven,false,0376_fc_dnn_false_oven_35_n04111531_11230.png,n04111531_11230.png,1.0,6.409316,-1.078958,5.2950096
alexnet_w3_mlp_simclrhn_probe1,1,377,NaN,keyboard,keyboard,true,0377_fc_dnn_true_keyboard_35_n04505470_3002.png,n04505470_3002.png,1.0,-0.32789135,-2.3933933,1.4605304
alexnet_w3_mlp_simclrhn_probe1,1,378,NaN,bicycle,bicycle,true,0378_fc_dnn_true_bicycle_35_n02835271_12237.png,n02835271_12237.png,1.0,7.0615807,-3.8240595,7.69731
alexnet_w3_mlp_simclrhn_probe1,1,379,NaN,oven,dog,false,0379_fc_dnn_false_dog_35_n02088238_9947.png,n02088238_9947.png,0.0,-4.8129215,0.06376156,-3.448336
alexnet_w3_mlp_simclrhn_probe1,1,380,NaN,airplane,airplane,false,0380_fc_dnn_false_airplane_35_n02690373_2075.png,n02690373_2075.png,1.0,1.0397615,-0.29369706,0.9428977
alexnet_w3_mlp_simclrhn_probe1,1,381,NaN,bicycle,bicycle,false,0381_fc_dnn_false_bicycle_35_n02835271_12930.png,n02835271_12930.png,1.0,13.190633,-3.6582406,11.913953
alexnet_w3_mlp_simclrhn_probe1,1,382,NaN,dog,dog,false,0382_fc_dnn_false_dog_35_n02096294_4609.png,n02096294_4609.png,1.0,1.0788597,-0.7915531,1.3225816
alexnet_w3_mlp_simclrhn_probe1,1,383,NaN,knife,knife,false,0383_fc_dnn_false_knife_35_n03041632_15754.png,n03041632_15754.png,1.0,-0.13927603,-0.85785806,0.5081142
alexnet_w3_mlp_simclrhn_probe1,1,384,NaN,bird,bird,true,0384_fc_dnn_true_bird_35_n01819313_5634.png,n01819313_5634.png,1.0,-0.3988286,-1.9220576,1.0770856
alexnet_w3_mlp_simclrhn_probe1,1,385,NaN,clock,clock,true,0385_fc_dnn_true_clock_35_n02708093_8386.png,n02708093_8386.png,1.0,4.2778497,-1.6403292,4.1847844
alexnet_w3_mlp_simclrhn_probe1,1,386,NaN,bottle,bottle,false,0386_fc_dnn_false_bottle_35_n04579145_6435.png,n04579145_6435.png,1.0,6.107801,-0.15224884,4.4265237
alexnet_w3_mlp_simclrhn_probe1,1,387,NaN,airplane,airplane,true,0387_fc_dnn_true_airplane_35_n02690373_9531.png,n02690373_9531.png,1.0,3.556575,-0.08366442,2.574038
alexnet_w3_mlp_simclrhn_probe1,1,388,NaN,chair,bottle,true,0388_fc_dnn_true_bottle_35_n04591713_5518.png,n04591713_5518.png,0.0,-1.5357988,-0.36258522,-0.8295873
alexnet_w3_mlp_simclrhn_probe1,1,389,NaN,airplane,airplane,false,0389_fc_dnn_false_airplane_35_n02690373_12896.png,n02690373_12896.png,1.0,5.9212694,-2.891653,6.2316775
alexnet_w3_mlp_simclrhn_probe1,1,390,NaN,truck,truck,false,0390_fc_dnn_false_truck_35_n03796401_124.png,n03796401_124.png,1.0,2.948031,1.6089379,0.94688183
alexnet_w3_mlp_simclrhn_probe1,1,391,NaN,bicycle,bicycle,true,0391_fc_dnn_true_bicycle_35_n03792782_7050.png,n03792782_7050.png,1.0,-1.399247,-2.3746576,0.68971944
alexnet_w3_mlp_simclrhn_probe1,1,392,NaN,bicycle,bicycle,true,0392_fc_dnn_true_bicycle_35_n02835271_13729.png,n02835271_13729.png,1.0,10.366407,-1.178056,8.163168
alexnet_w3_mlp_simclrhn_probe1,1,393,NaN,bird,bird,false,0393_fc_dnn_false_bird_35_n02027492_3922.png,n02027492_3922.png,1.0,0.6242288,-4.980653,3.96325
alexnet_w3_mlp_simclrhn_probe1,1,394,NaN,elephant,elephant,true,0394_fc_dnn_true_elephant_35_n02504013_9809.png,n02504013_9809.png,1.0,11.728376,-0.7208423,8.802927
alexnet_w3_mlp_simclrhn_probe1,1,395,NaN,keyboard,keyboard,false,0395_fc_dnn_false_keyboard_35_n04505470_5086.png,n04505470_5086.png,1.0,6.3121905,-0.31577602,4.68668
alexnet_w3_mlp_simclrhn_probe1,1,396,NaN,keyboard,keyboard,true,0396_fc_dnn_true_keyboard_35_n03085013_19439.png,n03085013_19439.png,1.0,0.61523527,-1.7599789,1.67953
alexnet_w3_mlp_simclrhn_probe1,1,397,NaN,airplane,airplane,false,0397_fc_dnn_false_airplane_35_n02690373_9926.png,n02690373_9926.png,1.0,8.7994995,-2.2550507,7.8167477
alexnet_w3_mlp_simclrhn_probe1,1,398,NaN,elephant,elephant,true,0398_fc_dnn_true_elephant_35_n02504458_3197.png,n02504458_3197.png,1.0,18.99067,2.945363,11.345746
alexnet_w3_mlp_simclrhn_probe1,1,399,NaN,dog,dog,false,0399_fc_dnn_false_dog_35_n02110185_14056.png,n02110185_14056.png,1.0,2.6179614,-1.9402872,3.2231686
alexnet_w3_mlp_simclrhn_probe1,1,400,NaN,airplane,airplane,true,0400_fc_dnn_true_airplane_35_n02690373_2823.png,n02690373_2823.png,1.0,14.086444,4.4089437,6.8430257
alexnet_w3_mlp_simclrhn_probe1,1,401,NaN,bicycle,bicycle,false,0401_fc_dnn_false_bicycle_35_n02835271_14157.png,n02835271_14157.png,1.0,21.761805,-1.8928083,16.726337
alexnet_w3_mlp_simclrhn_probe1,1,402,NaN,chair,chair,true,0402_fc_dnn_true_chair_35_n03376595_606.png,n03376595_606.png,1.0,0.070654094,-1.5705835,1.1605302
alexnet_w3_mlp_simclrhn_probe1,1,403,NaN,airplane,airplane,false,0403_fc_dnn_false_airplane_35_n02690373_1442.png,n02690373_1442.png,1.0,6.4526176,-1.7524457,5.8018556
alexnet_w3_mlp_simclrhn_probe1,1,404,NaN,keyboard,keyboard,true,0404_fc_dnn_true_keyboard_35_n04505470_10035.png,n04505470_10035.png,1.0,7.3838882,0.58589745,4.8069053
alexnet_w3_mlp_simclrhn_probe1,1,405,NaN,elephant,bear,true,0405_fc_dnn_true_bear_35_n02133161_13278.png,n02133161_13278.png,0.0,3.7893515,3.8495746,-0.042584166
alexnet_w3_mlp_simclrhn_probe1,1,406,NaN,elephant,bear,true,0406_fc_dnn_true_bear_35_n02134418_2657.png,n02134418_2657.png,0.0,-0.4650097,0.4174092,-0.62396437
alexnet_w3_mlp_simclrhn_probe1,1,407,NaN,bear,bear,false,0407_fc_dnn_false_bear_35_n02133161_12894.png,n02133161_12894.png,1.0,3.1749334,-0.8196957,2.8246293
alexnet_w3_mlp_simclrhn_probe1,1,408,NaN,car,clock,false,0408_fc_dnn_false_clock_35_n03196217_6195.png,n03196217_6195.png,0.0,1.9578772,4.836596,-2.0355616
alexnet_w3_mlp_simclrhn_probe1,1,409,NaN,bottle,bottle,true,0409_fc_dnn_true_bottle_35_n04591713_13349.png,n04591713_13349.png,1.0,6.1644006,-1.2466453,5.240401
alexnet_w3_mlp_simclrhn_probe1,1,410,NaN,airplane,boat,false,0410_fc_dnn_false_boat_35_n04273569_16295.png,n04273569_16295.png,0.0,1.0207697,1.1979291,-0.12527063
alexnet_w3_mlp_simclrhn_probe1,1,411,NaN,elephant,elephant,false,0411_fc_dnn_false_elephant_35_n02504013_2672.png,n02504013_2672.png,1.0,11.622978,0.5657164,7.8186646
alexnet_w3_mlp_simclrhn_probe1,1,412,NaN,bear,bear,true,0412_fc_dnn_true_bear_35_n02134084_22292.png,n02134084_22292.png,1.0,3.1455007,0.7720214,1.6783034
alexnet_w3_mlp_simclrhn_probe1,1,413,NaN,airplane,airplane,false,0413_fc_dnn_false_airplane_35_n02690373_997.png,n02690373_997.png,1.0,10.895947,2.0216858,6.2750506
alexnet_w3_mlp_simclrhn_probe1,1,414,NaN,knife,knife,true,0414_fc_dnn_true_knife_35_n03041632_29337.png,n03041632_29337.png,1.0,0.15427582,-1.755233,1.3502266
alexnet_w3_mlp_simclrhn_probe1,1,415,NaN,elephant,elephant,true,0415_fc_dnn_true_elephant_35_n02504458_3261.png,n02504458_3261.png,1.0,4.042405,-2.379123,4.540706
alexnet_w3_mlp_simclrhn_probe1,1,416,NaN,oven,oven,true,0416_fc_dnn_true_oven_35_n04111531_22120.png,n04111531_22120.png,1.0,5.110371,0.16575825,3.4963694
alexnet_w3_mlp_simclrhn_probe1,1,417,NaN,bear,bear,true,0417_fc_dnn_true_bear_35_n02134418_830.png,n02134418_830.png,1.0,4.1694126,1.4910297,1.8939028
alexnet_w3_mlp_simclrhn_probe1,1,418,NaN,truck,truck,false,0418_fc_dnn_false_truck_35_n03417042_2124.png,n03417042_2124.png,1.0,9.143383,4.895965,3.0033782
alexnet_w3_mlp_simclrhn_probe1,1,419,NaN,bicycle,bicycle,false,0419_fc_dnn_false_bicycle_35_n02835271_14585.png,n02835271_14585.png,1.0,11.026369,-0.89091295,8.426791
alexnet_w3_mlp_simclrhn_probe1,1,420,NaN,oven,oven,true,0420_fc_dnn_true_oven_35_n04111531_2855.png,n04111531_2855.png,1.0,4.873604,-2.5369859,5.2400784
alexnet_w3_mlp_simclrhn_probe1,1,421,NaN,cat,cat,false,0421_fc_dnn_false_cat_35_n02123394_4383.png,n02123394_4383.png,1.0,1.3633871,0.024863038,0.9464795
alexnet_w3_mlp_simclrhn_probe1,1,422,NaN,cat,cat,true,0422_fc_dnn_true_cat_35_n02125311_17068.png,n02125311_17068.png,1.0,1.961945,-0.14882849,1.4925423
alexnet_w3_mlp_simclrhn_probe1,1,423,NaN,bird,bird,false,0423_fc_dnn_false_bird_35_n01560419_2291.png,n01560419_2291.png,1.0,5.7665133,-8.125556,9.823176
alexnet_w3_mlp_simclrhn_probe1,1,424,NaN,bird,bird,false,0424_fc_dnn_false_bird_35_n01829413_2459.png,n01829413_2459.png,1.0,1.7786403,-3.2027357,3.5223646
alexnet_w3_mlp_simclrhn_probe1,1,425,NaN,oven,oven,true,0425_fc_dnn_true_oven_35_n04111531_13822.png,n04111531_13822.png,1.0,3.8955085,-4.6193304,6.0209007
alexnet_w3_mlp_simclrhn_probe1,1,426,NaN,bear,bear,false,0426_fc_dnn_false_bear_35_n02133161_5067.png,n02133161_5067.png,1.0,8.702209,2.6071534,4.3098555
alexnet_w3_mlp_simclrhn_probe1,1,427,NaN,oven,chair,false,0427_fc_dnn_false_chair_35_n02791124_885.png,n02791124_885.png,0.0,-1.6285254,-1.0041523,-0.44149846
alexnet_w3_mlp_simclrhn_probe1,1,428,NaN,cat,dog,true,0428_fc_dnn_true_dog_35_n02107312_7182.png,n02107312_7182.png,0.0,-1.703864,1.0072565,-1.9170518
alexnet_w3_mlp_simclrhn_probe1,1,429,NaN,airplane,truck,true,0429_fc_dnn_true_truck_35_n04467665_13989.png,n04467665_13989.png,0.0,2.2864468,2.933423,-0.4574813
alexnet_w3_mlp_simclrhn_probe1,1,430,NaN,bicycle,dog,true,0430_fc_dnn_true_dog_35_n02102480_10232.png,n02102480_10232.png,0.0,-1.434442,-1.2608008,-0.12278288
alexnet_w3_mlp_simclrhn_probe1,1,431,NaN,oven,oven,false,0431_fc_dnn_false_oven_35_n04111531_643.png,n04111531_643.png,1.0,9.034085,-1.1627551,7.210255
alexnet_w3_mlp_simclrhn_probe1,1,432,NaN,boat,boat,true,0432_fc_dnn_true_boat_35_n02951358_31514.png,n02951358_31514.png,1.0,2.1290035,-0.35969472,1.7597754
alexnet_w3_mlp_simclrhn_probe1,1,433,NaN,oven,oven,true,0433_fc_dnn_true_oven_35_n04111531_1898.png,n04111531_1898.png,1.0,7.68592,0.6888991,4.947641
alexnet_w3_mlp_simclrhn_probe1,1,434,NaN,car,car,true,0434_fc_dnn_true_car_35_n03100240_5865.png,n03100240_5865.png,1.0,7.305969,1.916861,3.810675
alexnet_w3_mlp_simclrhn_probe1,1,435,NaN,keyboard,keyboard,true,0435_fc_dnn_true_keyboard_35_n04505470_4369.png,n04505470_4369.png,1.0,15.574968,2.275621,9.404058
alexnet_w3_mlp_simclrhn_probe1,1,436,NaN,cat,cat,false,0436_fc_dnn_false_cat_35_n02123394_1942.png,n02123394_1942.png,1.0,2.295709,-2.8235679,3.6198754
alexnet_w3_mlp_simclrhn_probe1,1,437,NaN,car,car,true,0437_fc_dnn_true_car_35_n04285008_2900.png,n04285008_2900.png,1.0,9.129426,5.971157,2.2332335
alexnet_w3_mlp_simclrhn_probe1,1,438,NaN,airplane,airplane,true,0438_fc_dnn_true_airplane_35_n02690373_10926.png,n02690373_10926.png,1.0,8.73324,-1.5687171,7.284584
alexnet_w3_mlp_simclrhn_probe1,1,439,NaN,knife,knife,true,0439_fc_dnn_true_knife_35_n03041632_11613.png,n03041632_11613.png,1.0,-2.3907056,-2.3909147,0.00014785114
alexnet_w3_mlp_simclrhn_probe1,1,440,NaN,knife,knife,true,0440_fc_dnn_true_knife_35_n03041632_24817.png,n03041632_24817.png,1.0,-0.981458,-3.75793,1.9632623
alexnet_w3_mlp_simclrhn_probe1,1,441,NaN,bicycle,bicycle,true,0441_fc_dnn_true_bicycle_35_n02835271_3042.png,n02835271_3042.png,1.0,12.39567,-5.422971,12.599683
alexnet_w3_mlp_simclrhn_probe1,1,442,NaN,dog,dog,true,0442_fc_dnn_true_dog_35_n02102177_7737.png,n02102177_7737.png,1.0,1.3104205,-1.2423674,1.8050935
alexnet_w3_mlp_simclrhn_probe1,1,443,NaN,oven,oven,true,0443_fc_dnn_true_oven_35_n04111531_21460.png,n04111531_21460.png,1.0,1.4426303,-2.7292514,2.949966
alexnet_w3_mlp_simclrhn_probe1,1,444,NaN,keyboard,keyboard,false,0444_fc_dnn_false_keyboard_35_n04505470_7388.png,n04505470_7388.png,1.0,0.69483966,0.513274,0.1283863
alexnet_w3_mlp_simclrhn_probe1,1,445,NaN,bird,bird,true,0445_fc_dnn_true_bird_35_n01828970_25642.png,n01828970_25642.png,1.0,4.856988,-6.807474,8.24802
alexnet_w3_mlp_simclrhn_probe1,1,446,NaN,bicycle,bicycle,false,0446_fc_dnn_false_bicycle_35_n02835271_608.png,n02835271_608.png,1.0,2.4783657,-4.041439,4.6101985
alexnet_w3_mlp_simclrhn_probe1,1,447,NaN,airplane,boat,true,0447_fc_dnn_true_boat_35_n04273569_26182.png,n04273569_26182.png,0.0,3.9036098,4.1830916,-0.19762354
alexnet_w3_mlp_simclrhn_probe1,1,448,NaN,cat,cat,false,0448_fc_dnn_false_cat_35_n02123045_9384.png,n02123045_9384.png,1.0,4.474989,-1.4642094,4.1996474
alexnet_w3_mlp_simclrhn_probe1,1,449,NaN,airplane,airplane,true,0449_fc_dnn_true_airplane_35_n02690373_9529.png,n02690373_9529.png,1.0,11.969089,-2.1249504,9.965991
alexnet_w3_mlp_simclrhn_probe1,1,450,NaN,keyboard,cat,true,0450_fc_dnn_true_cat_35_n02123597_5081.png,n02123597_5081.png,0.0,-3.9880936,-1.9442186,-1.4452379
alexnet_w3_mlp_simclrhn_probe1,1,451,NaN,oven,oven,false,0451_fc_dnn_false_oven_35_n04111531_4998.png,n04111531_4998.png,1.0,5.4348035,-1.851305,5.1520567
alexnet_w3_mlp_simclrhn_probe1,1,452,NaN,clock,clock,true,0452_fc_dnn_true_clock_35_n04548280_1245.png,n04548280_1245.png,1.0,4.777078,0.9367883,2.715495
alexnet_w3_mlp_simclrhn_probe1,1,453,NaN,knife,dog,true,0453_fc_dnn_true_dog_35_n02104365_8609.png,n02104365_8609.png,0.0,-2.9787617,-1.7882681,-0.8418061
alexnet_w3_mlp_simclrhn_probe1,1,454,NaN,clock,clock,false,0454_fc_dnn_false_clock_35_n02708093_6414.png,n02708093_6414.png,1.0,5.7068124,-2.9117749,6.0942616
alexnet_w3_mlp_simclrhn_probe1,1,455,NaN,bird,bird,true,0455_fc_dnn_true_bird_35_n01798484_9155.png,n01798484_9155.png,1.0,-1.6774273,-4.946812,2.3118043
alexnet_w3_mlp_simclrhn_probe1,1,456,NaN,bicycle,oven,true,0456_fc_dnn_true_oven_35_n04111531_10724.png,n04111531_10724.png,0.0,-4.153302,2.540907,-4.7335205
alexnet_w3_mlp_simclrhn_probe1,1,457,NaN,boat,boat,true,0457_fc_dnn_true_boat_35_n02951358_32687.png,n02951358_32687.png,1.0,1.2182375,0.43610454,0.55305153
alexnet_w3_mlp_simclrhn_probe1,1,458,NaN,bicycle,bicycle,true,0458_fc_dnn_true_bicycle_35_n02835271_31.png,n02835271_31.png,1.0,4.4389563,-1.745085,4.3727775
alexnet_w3_mlp_simclrhn_probe1,1,459,NaN,bottle,bottle,true,0459_fc_dnn_true_bottle_35_n04557648_4420.png,n04557648_4420.png,1.0,-1.8676802,-2.595634,0.51474106
alexnet_w3_mlp_simclrhn_probe1,1,460,NaN,bear,bear,true,0460_fc_dnn_true_bear_35_n02133161_713.png,n02133161_713.png,1.0,6.563066,1.6319517,3.4868243
alexnet_w3_mlp_simclrhn_probe1,1,461,NaN,airplane,airplane,false,0461_fc_dnn_false_airplane_35_n02690373_5967.png,n02690373_5967.png,1.0,8.643644,-2.4041014,7.811936
alexnet_w3_mlp_simclrhn_probe1,1,462,NaN,bird,bird,true,0462_fc_dnn_true_bird_35_n01795545_4502.png,n01795545_4502.png,1.0,0.8349175,-3.0467906,2.7447822
alexnet_w3_mlp_simclrhn_probe1,1,463,NaN,bear,cat,true,0463_fc_dnn_true_cat_35_n02124075_11466.png,n02124075_11466.png,0.0,0.7743046,1.8858036,-0.78594846
alexnet_w3_mlp_simclrhn_probe1,1,464,NaN,clock,keyboard,true,0464_fc_dnn_true_keyboard_35_n03085013_21769.png,n03085013_21769.png,0.0,-1.7048602,-0.354032,-0.95517975
alexnet_w3_mlp_simclrhn_probe1,1,465,NaN,car,car,false,0465_fc_dnn_false_car_35_n03100240_15097.png,n03100240_15097.png,1.0,0.92623895,-1.8370512,1.9539412
alexnet_w3_mlp_simclrhn_probe1,1,466,NaN,bear,dog,false,0466_fc_dnn_false_dog_35_n02093647_3072.png,n02093647_3072.png,0.0,-1.7386159,-0.61368746,-0.79544455
alexnet_w3_mlp_simclrhn_probe1,1,467,NaN,bicycle,bicycle,false,0467_fc_dnn_false_bicycle_35_n02835271_12701.png,n02835271_12701.png,1.0,4.164098,-0.8063159,3.5146134
alexnet_w3_mlp_simclrhn_probe1,1,468,NaN,dog,bear,false,0468_fc_dnn_false_bear_35_n02134084_3227.png,n02134084_3227.png,0.0,-1.624656,-0.95474553,-0.47369823
alexnet_w3_mlp_simclrhn_probe1,1,469,NaN,cat,cat,true,0469_fc_dnn_true_cat_35_n02123394_5001.png,n02123394_5001.png,1.0,1.807397,-1.1936177,2.122038
alexnet_w3_mlp_simclrhn_probe1,1,470,NaN,keyboard,keyboard,true,0470_fc_dnn_true_keyboard_35_n03085013_6862.png,n03085013_6862.png,1.0,3.6135368,0.072894424,2.5036123
alexnet_w3_mlp_simclrhn_probe1,1,471,NaN,chair,chair,true,0471_fc_dnn_true_chair_35_n04099969_45461.png,n04099969_45461.png,1.0,1.240306,-1.765723,2.1255836
alexnet_w3_mlp_simclrhn_probe1,1,472,NaN,bicycle,bicycle,false,0472_fc_dnn_false_bicycle_35_n03792782_485.png,n03792782_485.png,1.0,7.083975,-2.4188974,6.719546
alexnet_w3_mlp_simclrhn_probe1,1,473,NaN,chair,oven,true,0473_fc_dnn_true_oven_35_n04111531_1674.png,n04111531_1674.png,0.0,0.05198951,1.2464983,-0.84464526
alexnet_w3_mlp_simclrhn_probe1,1,474,NaN,airplane,airplane,true,0474_fc_dnn_true_airplane_35_n02690373_866.png,n02690373_866.png,1.0,14.079492,0.15578136,9.84555
alexnet_w3_mlp_simclrhn_probe1,1,475,NaN,oven,oven,false,0475_fc_dnn_false_oven_35_n04111531_9297.png,n04111531_9297.png,1.0,0.5452117,-3.6747217,2.9839437
alexnet_w3_mlp_simclrhn_probe1,1,476,NaN,elephant,elephant,false,0476_fc_dnn_false_elephant_35_n02504458_6878.png,n02504458_6878.png,1.0,9.607773,0.440148,6.4824896
alexnet_w3_mlp_simclrhn_probe1,1,477,NaN,car,car,true,0477_fc_dnn_true_car_35_n03100240_3151.png,n03100240_3151.png,1.0,4.57752,3.5288815,0.7414993
alexnet_w3_mlp_simclrhn_probe1,1,478,NaN,airplane,airplane,false,0478_fc_dnn_false_airplane_35_n02690373_6363.png,n02690373_6363.png,1.0,9.277712,0.8041954,5.991681
alexnet_w3_mlp_simclrhn_probe1,1,479,NaN,car,car,true,0479_fc_dnn_true_car_35_n04285008_15049.png,n04285008_15049.png,1.0,11.375155,7.511981,2.7316768
alexnet_w3_mlp_simclrhn_probe1,1,480,NaN,truck,truck,true,0480_fc_dnn_true_truck_35_n04467665_2505.png,n04467665_2505.png,1.0,-2.9638104,-3.129898,0.11744169
alexnet_w3_mlp_simclrhn_probe1,1,481,NaN,bicycle,bottle,true,0481_fc_dnn_true_bottle_35_n04591713_4030.png,n04591713_4030.png,0.0,-4.0489182,-1.8533876,-1.5524746
alexnet_w3_mlp_simclrhn_probe1,1,482,NaN,oven,oven,true,0482_fc_dnn_true_oven_35_n04111531_12929.png,n04111531_12929.png,1.0,1.2164729,-2.2677517,2.463719
alexnet_w3_mlp_simclrhn_probe1,1,483,NaN,cat,cat,true,0483_fc_dnn_true_cat_35_n02125311_53315.png,n02125311_53315.png,1.0,2.3872998,1.8532305,0.37764403
alexnet_w3_mlp_simclrhn_probe1,1,484,NaN,cat,dog,true,0484_fc_dnn_true_dog_35_n02087046_4409.png,n02087046_4409.png,0.0,-2.3985333,-1.5674087,-0.58769387
alexnet_w3_mlp_simclrhn_probe1,1,485,NaN,oven,oven,false,0485_fc_dnn_false_oven_35_n04111531_21120.png,n04111531_21120.png,1.0,5.808117,-2.5512724,5.910981
alexnet_w3_mlp_simclrhn_probe1,1,486,NaN,elephant,elephant,false,0486_fc_dnn_false_elephant_35_n02504013_5934.png,n02504013_5934.png,1.0,-0.15506771,-2.1824095,1.4335471
alexnet_w3_mlp_simclrhn_probe1,1,487,NaN,car,car,true,0487_fc_dnn_true_car_35_n04285008_3631.png,n04285008_3631.png,1.0,6.370668,2.888226,2.4624584
alexnet_w3_mlp_simclrhn_probe1,1,488,NaN,clock,clock,true,0488_fc_dnn_true_clock_35_n03196217_7663.png,n03196217_7663.png,1.0,1.6521144,0.25822064,0.9856317
alexnet_w3_mlp_simclrhn_probe1,1,489,NaN,elephant,bicycle,false,0489_fc_dnn_false_bicycle_35_n03792782_801.png,n03792782_801.png,0.0,-0.83760726,-0.24185644,-0.42125943
alexnet_w3_mlp_simclrhn_probe1,1,490,NaN,bear,bear,false,0490_fc_dnn_false_bear_35_n02133161_6983.png,n02133161_6983.png,1.0,-0.8000867,-1.0289149,0.16180602
alexnet_w3_mlp_simclrhn_probe1,1,491,NaN,keyboard,keyboard,true,0491_fc_dnn_true_keyboard_35_n03085013_20825.png,n03085013_20825.png,1.0,9.05212,-2.9145405,8.461707
alexnet_w3_mlp_simclrhn_probe1,1,492,NaN,clock,clock,true,0492_fc_dnn_true_clock_35_n03196217_1219.png,n03196217_1219.png,1.0,0.69056433,-0.087860234,0.5504293
alexnet_w3_mlp_simclrhn_probe1,1,493,NaN,airplane,airplane,true,0493_fc_dnn_true_airplane_35_n02690373_18864.png,n02690373_18864.png,1.0,6.873688,2.7940552,2.884736
alexnet_w3_mlp_simclrhn_probe1,1,494,NaN,knife,airplane,false,0494_fc_dnn_false_airplane_35_n02690373_1019.png,n02690373_1019.png,0.0,-2.092024,-1.0878888,-0.71003085
alexnet_w3_mlp_simclrhn_probe1,1,495,NaN,bird,bird,true,0495_fc_dnn_true_bird_35_n02013706_10478.png,n02013706_10478.png,1.0,1.9668531,-8.362203,7.3037457
alexnet_w3_mlp_simclrhn_probe1,1,496,NaN,bear,bear,true,0496_fc_dnn_true_bear_35_n02132136_258.png,n02132136_258.png,1.0,1.776231,1.2610162,0.36431187
alexnet_w3_mlp_simclrhn_probe1,1,497,NaN,bird,chair,false,0497_fc_dnn_false_chair_35_n04099969_16350.png,n04099969_16350.png,0.0,-8.562466,-2.3929253,-4.362524
alexnet_w3_mlp_simclrhn_probe1,1,498,NaN,chair,chair,true,0498_fc_dnn_true_chair_35_n04099969_16456.png,n04099969_16456.png,1.0,2.3850684,-1.0902793,2.457442
alexnet_w3_mlp_simclrhn_probe1,1,499,NaN,bottle,bottle,false,0499_fc_dnn_false_bottle_35_n03983396_12027.png,n03983396_12027.png,1.0,2.2069294,-1.9151165,2.9147267
alexnet_w3_mlp_simclrhn_probe1,1,500,NaN,chair,chair,true,0500_fc_dnn_true_chair_35_n02791124_5438.png,n02791124_5438.png,1.0,4.5858164,-0.4650616,3.57151
alexnet_w3_mlp_simclrhn_probe1,1,501,NaN,elephant,elephant,true,0501_fc_dnn_true_elephant_35_n02504458_4939.png,n02504458_4939.png,1.0,12.773685,1.1027871,8.252571
alexnet_w3_mlp_simclrhn_probe1,1,502,NaN,keyboard,keyboard,false,0502_fc_dnn_false_keyboard_35_n04505470_2600.png,n04505470_2600.png,1.0,6.991997,-2.0387692,6.3857155
alexnet_w3_mlp_simclrhn_probe1,1,503,NaN,chair,chair,true,0503_fc_dnn_true_chair_35_n03376595_7394.png,n03376595_7394.png,1.0,0.7702855,-1.9055569,1.8921063
alexnet_w3_mlp_simclrhn_probe1,1,504,NaN,bicycle,bicycle,false,0504_fc_dnn_false_bicycle_35_n02835271_9772.png,n02835271_9772.png,1.0,-2.018829,-2.3375483,0.22536847
alexnet_w3_mlp_simclrhn_probe1,1,505,NaN,car,car,true,0505_fc_dnn_true_car_35_n02814533_55937.png,n02814533_55937.png,1.0,4.81554,0.7748454,2.8572023
alexnet_w3_mlp_simclrhn_probe1,1,506,NaN,airplane,airplane,true,0506_fc_dnn_true_airplane_35_n02690373_3920.png,n02690373_3920.png,1.0,4.285693,3.114432,0.82820666
alexnet_w3_mlp_simclrhn_probe1,1,507,NaN,oven,oven,false,0507_fc_dnn_false_oven_35_n04111531_6400.png,n04111531_6400.png,1.0,2.7590253,-3.4934013,4.4211335
alexnet_w3_mlp_simclrhn_probe1,1,508,NaN,bicycle,truck,false,0508_fc_dnn_false_truck_35_n03417042_4587.png,n03417042_4587.png,0.0,-1.0923929,5.428183,-4.6107435
alexnet_w3_mlp_simclrhn_probe1,1,509,NaN,bicycle,knife,true,0509_fc_dnn_true_knife_35_n03041632_31849.png,n03041632_31849.png,0.0,-2.5522492,-1.1918131,-0.9619736
alexnet_w3_mlp_simclrhn_probe1,1,510,NaN,bear,cat,true,0510_fc_dnn_true_cat_35_n02125311_8541.png,n02125311_8541.png,0.0,-0.07596091,2.7028255,-1.9648987
alexnet_w3_mlp_simclrhn_probe1,1,511,NaN,airplane,airplane,true,0511_fc_dnn_true_airplane_35_n02690373_2162.png,n02690373_2162.png,1.0,12.675419,4.019872,6.1203957
alexnet_w3_mlp_simclrhn_probe1,1,512,NaN,dog,dog,true,0512_fc_dnn_true_dog_35_n02108551_11297.png,n02108551_11297.png,1.0,3.3014266,1.3545558,1.3766456
alexnet_w3_mlp_simclrhn_probe1,1,513,NaN,car,car,true,0513_fc_dnn_true_car_35_n02814533_34396.png,n02814533_34396.png,1.0,19.932116,14.322878,3.96633
alexnet_w3_mlp_simclrhn_probe1,1,514,NaN,elephant,elephant,true,0514_fc_dnn_true_elephant_35_n02504013_6431.png,n02504013_6431.png,1.0,6.0723696,1.0325534,3.563688
alexnet_w3_mlp_simclrhn_probe1,1,515,NaN,bicycle,bicycle,false,0515_fc_dnn_false_bicycle_35_n03792782_51723.png,n03792782_51723.png,1.0,2.7202792,-1.5361328,3.009738
alexnet_w3_mlp_simclrhn_probe1,1,516,NaN,dog,dog,false,0516_fc_dnn_false_dog_35_n02093754_5867.png,n02093754_5867.png,1.0,1.2957193,-1.4881061,1.9684619
alexnet_w3_mlp_simclrhn_probe1,1,517,NaN,clock,clock,true,0517_fc_dnn_true_clock_35_n04548280_3245.png,n04548280_3245.png,1.0,-2.4999907,-2.5561016,0.03967637
alexnet_w3_mlp_simclrhn_probe1,1,518,NaN,airplane,airplane,true,0518_fc_dnn_true_airplane_35_n02690373_9762.png,n02690373_9762.png,1.0,9.416958,0.78362787,6.1046867
alexnet_w3_mlp_simclrhn_probe1,1,519,NaN,airplane,bird,true,0519_fc_dnn_true_bird_35_n02002724_2909.png,n02002724_2909.png,0.0,0.74301803,2.3520439,-1.1377531
alexnet_w3_mlp_simclrhn_probe1,1,520,NaN,dog,bottle,true,0520_fc_dnn_true_bottle_35_n04557648_10123.png,n04557648_10123.png,0.0,-4.925065,-2.709889,-1.5663661
alexnet_w3_mlp_simclrhn_probe1,1,521,NaN,elephant,elephant,true,0521_fc_dnn_true_elephant_35_n02504013_5432.png,n02504013_5432.png,1.0,4.63719,-1.3809112,4.25544
alexnet_w3_mlp_simclrhn_probe1,1,522,NaN,cat,cat,false,0522_fc_dnn_false_cat_35_n02123597_4998.png,n02123597_4998.png,1.0,1.03612,-1.0385056,1.4669818
alexnet_w3_mlp_simclrhn_probe1,1,523,NaN,bottle,bottle,true,0523_fc_dnn_true_bottle_35_n04557648_11594.png,n04557648_11594.png,1.0,0.8793351,-0.7175866,1.1291941
alexnet_w3_mlp_simclrhn_probe1,1,524,NaN,truck,clock,false,0524_fc_dnn_false_clock_35_n03196217_2567.png,n03196217_2567.png,0.0,-1.152702,-0.41181755,-0.5238844
alexnet_w3_mlp_simclrhn_probe1,1,525,NaN,keyboard,truck,false,0525_fc_dnn_false_truck_35_n03796401_9136.png,n03796401_9136.png,0.0,-4.3789153,-0.9130806,-2.4507153
alexnet_w3_mlp_simclrhn_probe1,1,526,NaN,boat,boat,false,0526_fc_dnn_false_boat_35_n03344393_8492.png,n03344393_8492.png,1.0,11.136625,-2.2272263,9.44967
alexnet_w3_mlp_simclrhn_probe1,1,527,NaN,cat,cat,false,0527_fc_dnn_false_cat_35_n02123159_8267.png,n02123159_8267.png,1.0,3.233201,-5.428422,6.1246924
alexnet_w3_mlp_simclrhn_probe1,1,528,NaN,knife,bottle,false,0528_fc_dnn_false_bottle_35_n04557648_12039.png,n04557648_12039.png,0.0,-2.639935,-1.5984008,-0.7364759
alexnet_w3_mlp_simclrhn_probe1,1,529,NaN,keyboard,keyboard,false,0529_fc_dnn_false_keyboard_35_n04505470_2828.png,n04505470_2828.png,1.0,10.329813,-2.1700506,8.838738
alexnet_w3_mlp_simclrhn_probe1,1,530,NaN,boat,boat,true,0530_fc_dnn_true_boat_35_n02951358_31198.png,n02951358_31198.png,1.0,0.9929568,-1.8287054,1.9952165
alexnet_w3_mlp_simclrhn_probe1,1,531,NaN,oven,oven,false,0531_fc_dnn_false_oven_35_n04111531_5801.png,n04111531_5801.png,1.0,0.16279571,-3.016047,2.2477813
alexnet_w3_mlp_simclrhn_probe1,1,532,NaN,bicycle,bicycle,false,0532_fc_dnn_false_bicycle_35_n02835271_9672.png,n02835271_9672.png,1.0,7.331722,-5.015953,8.731125
alexnet_w3_mlp_simclrhn_probe1,1,533,NaN,keyboard,keyboard,false,0533_fc_dnn_false_keyboard_35_n03085013_23865.png,n03085013_23865.png,1.0,0.869804,0.20573576,0.46956718
alexnet_w3_mlp_simclrhn_probe1,1,534,NaN,keyboard,bottle,true,0534_fc_dnn_true_bottle_35_n04591713_7133.png,n04591713_7133.png,0.0,-2.2093017,3.1605282,-3.7970433
alexnet_w3_mlp_simclrhn_probe1,1,535,NaN,car,car,true,0535_fc_dnn_true_car_35_n04285008_10006.png,n04285008_10006.png,1.0,14.36757,6.7043815,5.4186926
alexnet_w3_mlp_simclrhn_probe1,1,536,NaN,airplane,airplane,true,0536_fc_dnn_true_airplane_35_n02690373_2431.png,n02690373_2431.png,1.0,3.0506191,-0.39315027,2.4351127
alexnet_w3_mlp_simclrhn_probe1,1,537,NaN,boat,boat,true,0537_fc_dnn_true_boat_35_n04612504_15440.png,n04612504_15440.png,1.0,0.09758558,-2.2909555,1.6889538
alexnet_w3_mlp_simclrhn_probe1,1,538,NaN,bicycle,bicycle,true,0538_fc_dnn_true_bicycle_35_n02835271_5648.png,n02835271_5648.png,1.0,3.3481793,-2.4594665,4.106626
alexnet_w3_mlp_simclrhn_probe1,1,539,NaN,airplane,airplane,false,0539_fc_dnn_false_airplane_35_n02690373_3173.png,n02690373_3173.png,1.0,12.461641,1.9507544,7.4323196
alexnet_w3_mlp_simclrhn_probe1,1,540,NaN,oven,oven,false,0540_fc_dnn_false_oven_35_n04111531_82.png,n04111531_82.png,1.0,6.157995,-2.3646564,6.026425
alexnet_w3_mlp_simclrhn_probe1,1,541,NaN,chair,chair,false,0541_fc_dnn_false_chair_35_n02791124_2057.png,n02791124_2057.png,1.0,-0.92676026,-1.252289,0.23018363
alexnet_w3_mlp_simclrhn_probe1,1,542,NaN,elephant,elephant,true,0542_fc_dnn_true_elephant_35_n02504458_12175.png,n02504458_12175.png,1.0,-1.4600472,-2.4402246,0.6930901
alexnet_w3_mlp_simclrhn_probe1,1,543,NaN,boat,boat,false,0543_fc_dnn_false_boat_35_n03344393_6869.png,n03344393_6869.png,1.0,0.90441144,-1.3532591,1.5964141
alexnet_w3_mlp_simclrhn_probe1,1,544,NaN,truck,truck,false,0544_fc_dnn_false_truck_35_n03417042_1000.png,n03417042_1000.png,1.0,2.5387163,0.33857933,1.5557318
alexnet_w3_mlp_simclrhn_probe1,1,545,NaN,boat,boat,true,0545_fc_dnn_true_boat_35_n03344393_6890.png,n03344393_6890.png,1.0,1.6295366,1.6062682,0.016453287
alexnet_w3_mlp_simclrhn_probe1,1,546,NaN,elephant,elephant,false,0546_fc_dnn_false_elephant_35_n02504458_4139.png,n02504458_4139.png,1.0,7.188401,-0.6395245,5.5351796
alexnet_w3_mlp_simclrhn_probe1,1,547,NaN,bear,bear,false,0547_fc_dnn_false_bear_35_n02132136_7231.png,n02132136_7231.png,1.0,9.300282,0.3245039,6.346833
alexnet_w3_mlp_simclrhn_probe1,1,548,NaN,elephant,bird,false,0548_fc_dnn_false_bird_35_n01860187_1815.png,n01860187_1815.png,0.0,-2.4421484,2.88354,-3.7658305
alexnet_w3_mlp_simclrhn_probe1,1,549,NaN,knife,keyboard,true,0549_fc_dnn_true_keyboard_35_n03085013_18891.png,n03085013_18891.png,0.0,-2.9653788,-1.4475563,-1.0732626
alexnet_w3_mlp_simclrhn_probe1,1,550,NaN,bird,bird,false,0550_fc_dnn_false_bird_35_n01828970_2276.png,n01828970_2276.png,1.0,3.5102587,-5.7594485,6.5546727
alexnet_w3_mlp_simclrhn_probe1,1,551,NaN,elephant,elephant,false,0551_fc_dnn_false_elephant_35_n02504013_1720.png,n02504013_1720.png,1.0,11.49891,3.4366462,5.7008815
alexnet_w3_mlp_simclrhn_probe1,1,552,NaN,knife,knife,false,0552_fc_dnn_false_knife_35_n03041632_16104.png,n03041632_16104.png,1.0,1.1512982,-1.3735971,1.7853706
alexnet_w3_mlp_simclrhn_probe1,1,553,NaN,bicycle,chair,false,0553_fc_dnn_false_chair_35_n03376595_635.png,n03376595_635.png,0.0,-1.5766666,-1.2113817,-0.25829545
alexnet_w3_mlp_simclrhn_probe1,1,554,NaN,bottle,bottle,true,0554_fc_dnn_true_bottle_35_n03983396_6116.png,n03983396_6116.png,1.0,5.802808,-0.14858437,4.20827
alexnet_w3_mlp_simclrhn_probe1,1,555,NaN,dog,dog,true,0555_fc_dnn_true_dog_35_n02113624_2530.png,n02113624_2530.png,1.0,-0.5505474,-1.1614641,0.43198332
alexnet_w3_mlp_simclrhn_probe1,1,556,NaN,bird,bird,true,0556_fc_dnn_true_bird_35_n01592084_3972.png,n01592084_3972.png,1.0,-1.845756,-3.9601743,1.4951196
alexnet_w3_mlp_simclrhn_probe1,1,557,NaN,airplane,airplane,true,0557_fc_dnn_true_airplane_35_n02690373_5130.png,n02690373_5130.png,1.0,2.0745018,1.2841631,0.5588538
alexnet_w3_mlp_simclrhn_probe1,1,558,NaN,airplane,bird,true,0558_fc_dnn_true_bird_35_n01833805_7514.png,n01833805_7514.png,0.0,-1.5305892,-0.70903593,-0.58092594
alexnet_w3_mlp_simclrhn_probe1,1,559,NaN,truck,truck,false,0559_fc_dnn_false_truck_35_n03417042_16238.png,n03417042_16238.png,1.0,5.208316,4.0509796,0.8183603
alexnet_w3_mlp_simclrhn_probe1,1,560,NaN,keyboard,keyboard,true,0560_fc_dnn_true_keyboard_35_n04505470_8620.png,n04505470_8620.png,1.0,7.3504996,3.80004,2.510554
alexnet_w3_mlp_simclrhn_probe1,1,561,NaN,clock,clock,true,0561_fc_dnn_true_clock_35_n03196217_7888.png,n03196217_7888.png,1.0,3.345668,1.5514901,1.2686754
alexnet_w3_mlp_simclrhn_probe1,1,562,NaN,knife,bottle,true,0562_fc_dnn_true_bottle_35_n04591713_5411.png,n04591713_5411.png,0.0,-4.21822,-1.7146802,-1.7702702
alexnet_w3_mlp_simclrhn_probe1,1,563,NaN,clock,clock,false,0563_fc_dnn_false_clock_35_n03196217_2639.png,n03196217_2639.png,1.0,2.1092587,0.78763956,0.9345258
alexnet_w3_mlp_simclrhn_probe1,1,564,NaN,elephant,elephant,true,0564_fc_dnn_true_elephant_35_n02504458_6437.png,n02504458_6437.png,1.0,1.0920756,0.7381664,0.2502516
alexnet_w3_mlp_simclrhn_probe1,1,565,NaN,truck,truck,true,0565_fc_dnn_true_truck_35_n03417042_27586.png,n03417042_27586.png,1.0,6.056219,1.2789747,3.3780222
alexnet_w3_mlp_simclrhn_probe1,1,566,NaN,chair,keyboard,false,0566_fc_dnn_false_keyboard_35_n03085013_24124.png,n03085013_24124.png,0.0,-5.298326,-0.55924463,-3.3510365
alexnet_w3_mlp_simclrhn_probe1,1,567,NaN,chair,cat,false,0567_fc_dnn_false_cat_35_n02123597_9663.png,n02123597_9663.png,0.0,-3.8723361,-3.2975616,-0.40642697
alexnet_w3_mlp_simclrhn_probe1,1,568,NaN,keyboard,keyboard,true,0568_fc_dnn_true_keyboard_35_n04505470_1833.png,n04505470_1833.png,1.0,1.7736926,-0.46266142,1.5813411
alexnet_w3_mlp_simclrhn_probe1,1,569,NaN,car,car,true,0569_fc_dnn_true_car_35_n04285008_4109.png,n04285008_4109.png,1.0,17.283037,10.462192,4.823066
alexnet_w3_mlp_simclrhn_probe1,1,570,NaN,bicycle,bird,false,0570_fc_dnn_false_bird_35_n01558993_869.png,n01558993_869.png,0.0,-6.198074,-3.2143655,-2.1098006
alexnet_w3_mlp_simclrhn_probe1,1,571,NaN,truck,truck,true,0571_fc_dnn_true_truck_35_n03796401_6980.png,n03796401_6980.png,1.0,4.321317,2.845954,1.0432394
alexnet_w3_mlp_simclrhn_probe1,1,572,NaN,truck,truck,true,0572_fc_dnn_true_truck_35_n03796401_19058.png,n03796401_19058.png,1.0,8.373905,1.0899466,5.1505365
alexnet_w3_mlp_simclrhn_probe1,1,573,NaN,elephant,bear,false,0573_fc_dnn_false_bear_35_n02134418_5033.png,n02134418_5033.png,0.0,-2.0371232,-0.7282225,-0.9255326
alexnet_w3_mlp_simclrhn_probe1,1,574,NaN,truck,truck,false,0574_fc_dnn_false_truck_35_n03417042_6204.png,n03417042_6204.png,1.0,7.527527,4.339873,2.2540119
alexnet_w3_mlp_simclrhn_probe1,1,575,NaN,bicycle,bicycle,true,0575_fc_dnn_true_bicycle_35_n03792782_7388.png,n03792782_7388.png,1.0,-1.0252465,-2.6583302,1.1547645
alexnet_w3_mlp_simclrhn_probe1,1,576,NaN,truck,truck,true,0576_fc_dnn_true_truck_35_n03417042_1561.png,n03417042_1561.png,1.0,11.931408,7.088651,3.4243462
alexnet_w3_mlp_simclrhn_probe1,1,577,NaN,elephant,elephant,true,0577_fc_dnn_true_elephant_35_n02504458_5501.png,n02504458_5501.png,1.0,20.765282,5.4123244,10.85618
alexnet_w3_mlp_simclrhn_probe1,1,578,NaN,boat,boat,true,0578_fc_dnn_true_boat_35_n03662601_34124.png,n03662601_34124.png,1.0,1.3863966,-0.30153525,1.1935481
alexnet_w3_mlp_simclrhn_probe1,1,579,NaN,knife,knife,false,0579_fc_dnn_false_knife_35_n03041632_37949.png,n03041632_37949.png,1.0,-1.02309,-4.223109,2.2627552
alexnet_w3_mlp_simclrhn_probe1,1,580,NaN,airplane,airplane,false,0580_fc_dnn_false_airplane_35_n02690373_13585.png,n02690373_13585.png,1.0,11.543257,-2.9852498,10.273206
alexnet_w3_mlp_simclrhn_probe1,1,581,NaN,elephant,knife,false,0581_fc_dnn_false_knife_35_n03041632_16932.png,n03041632_16932.png,0.0,-2.1724904,-1.7830305,-0.2753897
alexnet_w3_mlp_simclrhn_probe1,1,582,NaN,elephant,chair,false,0582_fc_dnn_false_chair_35_n04429376_9501.png,n04429376_9501.png,0.0,-4.10454,-1.0839436,-2.135884
alexnet_w3_mlp_simclrhn_probe1,1,583,NaN,bird,bird,false,0583_fc_dnn_false_bird_35_n01532829_10530.png,n01532829_10530.png,1.0,0.6459287,-6.852086,5.3018975
alexnet_w3_mlp_simclrhn_probe1,1,584,NaN,oven,oven,false,0584_fc_dnn_false_oven_35_n04111531_1562.png,n04111531_1562.png,1.0,2.384084,-4.379236,4.7823896
alexnet_w3_mlp_simclrhn_probe1,1,585,NaN,keyboard,clock,false,0585_fc_dnn_false_clock_35_n02708093_260.png,n02708093_260.png,0.0,-2.7172582,0.38855445,-2.1961412
alexnet_w3_mlp_simclrhn_probe1,1,586,NaN,bottle,bottle,true,0586_fc_dnn_true_bottle_35_n04579145_1457.png,n04579145_1457.png,1.0,0.9990535,-3.1661158,2.9452195
alexnet_w3_mlp_simclrhn_probe1,1,587,NaN,chair,chair,true,0587_fc_dnn_true_chair_35_n03376595_9897.png,n03376595_9897.png,1.0,-1.0577626,-1.2757971,0.15417369
alexnet_w3_mlp_simclrhn_probe1,1,588,NaN,bird,bird,true,0588_fc_dnn_true_bird_35_n01601694_4224.png,n01601694_4224.png,1.0,-0.80755335,-3.2768168,1.7460331
alexnet_w3_mlp_simclrhn_probe1,1,589,NaN,cat,cat,false,0589_fc_dnn_false_cat_35_n02123159_358.png,n02123159_358.png,1.0,7.36031,-8.115395,10.942976
alexnet_w3_mlp_simclrhn_probe1,1,590,NaN,bottle,bottle,true,0590_fc_dnn_true_bottle_35_n03983396_11788.png,n03983396_11788.png,1.0,5.630193,-1.5358295,5.0671434
alexnet_w3_mlp_simclrhn_probe1,1,591,NaN,cat,cat,true,0591_fc_dnn_true_cat_35_n02124075_8341.png,n02124075_8341.png,1.0,2.8596802,-7.746336,7.499586
alexnet_w3_mlp_simclrhn_probe1,1,592,NaN,dog,dog,false,0592_fc_dnn_false_dog_35_n02109525_49924.png,n02109525_49924.png,1.0,4.0020986,-0.9216075,3.481586
alexnet_w3_mlp_simclrhn_probe1,1,593,NaN,knife,oven,false,0593_fc_dnn_false_oven_35_n04111531_797.png,n04111531_797.png,0.0,-1.349283,-1.3117115,-0.026567014
alexnet_w3_mlp_simclrhn_probe1,1,594,NaN,bicycle,bicycle,true,0594_fc_dnn_true_bicycle_35_n02835271_15930.png,n02835271_15930.png,1.0,5.4593773,-2.5070007,5.63308
alexnet_w3_mlp_simclrhn_probe1,1,595,NaN,knife,knife,true,0595_fc_dnn_true_knife_35_n03041632_13656.png,n03041632_13656.png,1.0,0.7103082,-1.7239265,1.7212639
alexnet_w3_mlp_simclrhn_probe1,1,596,NaN,clock,clock,false,0596_fc_dnn_false_clock_35_n02708093_8104.png,n02708093_8104.png,1.0,-1.6959468,-2.6058035,0.64336586
alexnet_w3_mlp_simclrhn_probe1,1,597,NaN,airplane,truck,true,0597_fc_dnn_true_truck_35_n03796401_3148.png,n03796401_3148.png,0.0,-4.8042984,-0.12895805,-3.3059647
alexnet_w3_mlp_simclrhn_probe1,1,598,NaN,bicycle,bottle,false,0598_fc_dnn_false_bottle_35_n04560804_15263.png,n04560804_15263.png,0.0,-9.427199,-3.6683037,-4.0721545
alexnet_w3_mlp_simclrhn_probe1,1,599,NaN,airplane,airplane,true,0599_fc_dnn_true_airplane_35_n02690373_5003.png,n02690373_5003.png,1.0,4.5926743,-0.6755252,3.7251797
alexnet_w3_mlp_simclrhn_probe1,1,600,NaN,boat,boat,false,0600_fc_dnn_false_boat_35_n03344393_994.png,n03344393_994.png,1.0,0.986194,-0.18117532,0.82545483
alexnet_w3_mlp_simclrhn_probe1,1,601,NaN,bicycle,bicycle,true,0601_fc_dnn_true_bicycle_35_n03792782_5959.png,n03792782_5959.png,1.0,8.679948,-4.5015335,9.320715
alexnet_w3_mlp_simclrhn_probe1,1,602,NaN,car,car,false,0602_fc_dnn_false_car_35_n04285008_9383.png,n04285008_9383.png,1.0,7.2059407,1.0882192,4.3258824
alexnet_w3_mlp_simclrhn_probe1,1,603,NaN,chair,clock,true,0603_fc_dnn_true_clock_35_n03196217_5627.png,n03196217_5627.png,0.0,0.15236765,0.19008994,-0.026673688
alexnet_w3_mlp_simclrhn_probe1,1,604,NaN,bird,bird,true,0604_fc_dnn_true_bird_35_n01534433_13846.png,n01534433_13846.png,1.0,-4.0538836,-4.983441,0.6572963
alexnet_w3_mlp_simclrhn_probe1,1,605,NaN,dog,dog,true,0605_fc_dnn_true_dog_35_n02105056_11269.png,n02105056_11269.png,1.0,-0.8663401,-2.4018948,1.0858011
alexnet_w3_mlp_simclrhn_probe1,1,606,NaN,airplane,airplane,false,0606_fc_dnn_false_airplane_35_n02690373_9659.png,n02690373_9659.png,1.0,1.7630856,-0.5067257,1.6049991
alexnet_w3_mlp_simclrhn_probe1,1,607,NaN,chair,car,false,0607_fc_dnn_false_car_35_n04285008_3269.png,n04285008_3269.png,0.0,-9.418667,1.7717024,-7.9127865
alexnet_w3_mlp_simclrhn_probe1,1,608,NaN,bottle,bottle,true,0608_fc_dnn_true_bottle_35_n02823428_3178.png,n02823428_3178.png,1.0,1.3676369,-2.7391834,2.9039605
alexnet_w3_mlp_simclrhn_probe1,1,609,NaN,elephant,elephant,false,0609_fc_dnn_false_elephant_35_n02504458_4849.png,n02504458_4849.png,1.0,4.4290075,-0.6786513,3.6116602
alexnet_w3_mlp_simclrhn_probe1,1,610,NaN,bear,bear,true,0610_fc_dnn_true_bear_35_n02134418_643.png,n02134418_643.png,1.0,1.140913,-0.6670384,1.2784147
alexnet_w3_mlp_simclrhn_probe1,1,611,NaN,boat,boat,true,0611_fc_dnn_true_boat_35_n03344393_7773.png,n03344393_7773.png,1.0,4.1156793,-2.384559,4.5963626
alexnet_w3_mlp_simclrhn_probe1,1,612,NaN,car,car,true,0612_fc_dnn_true_car_35_n02814533_26516.png,n02814533_26516.png,1.0,18.4648,12.669668,4.097777
alexnet_w3_mlp_simclrhn_probe1,1,613,NaN,bicycle,cat,false,0613_fc_dnn_false_cat_35_n02123597_3314.png,n02123597_3314.png,0.0,-4.7636266,-1.3585653,-2.407742
alexnet_w3_mlp_simclrhn_probe1,1,614,NaN,bicycle,bicycle,true,0614_fc_dnn_true_bicycle_35_n02835271_6539.png,n02835271_6539.png,1.0,7.584283,-5.630788,9.344466
alexnet_w3_mlp_simclrhn_probe1,1,615,NaN,bear,bear,true,0615_fc_dnn_true_bear_35_n02132136_3090.png,n02132136_3090.png,1.0,10.622642,-1.0013332,8.219392
alexnet_w3_mlp_simclrhn_probe1,1,616,NaN,car,car,true,0616_fc_dnn_true_car_35_n03100240_9171.png,n03100240_9171.png,1.0,11.106652,6.8947563,2.9782603
alexnet_w3_mlp_simclrhn_probe1,1,617,NaN,cat,cat,false,0617_fc_dnn_false_cat_35_n02123045_12060.png,n02123045_12060.png,1.0,3.0982435,-2.824018,4.187671
alexnet_w3_mlp_simclrhn_probe1,1,618,NaN,truck,truck,false,0618_fc_dnn_false_truck_35_n03796401_26801.png,n03796401_26801.png,1.0,0.811533,-1.6369667,1.7313508
alexnet_w3_mlp_simclrhn_probe1,1,619,NaN,cat,cat,false,0619_fc_dnn_false_cat_35_n02123045_15010.png,n02123045_15010.png,1.0,2.1845648,-6.3638515,6.044643
alexnet_w3_mlp_simclrhn_probe1,1,620,NaN,chair,knife,true,0620_fc_dnn_true_knife_35_n03041632_24883.png,n03041632_24883.png,0.0,-3.3069015,-0.12043071,-2.253175
alexnet_w3_mlp_simclrhn_probe1,1,621,NaN,dog,cat,true,0621_fc_dnn_true_cat_35_n02123597_4040.png,n02123597_4040.png,0.0,-2.283794,-2.0543258,-0.16225846
alexnet_w3_mlp_simclrhn_probe1,1,622,NaN,bird,bird,true,0622_fc_dnn_true_bird_35_n01843383_3019.png,n01843383_3019.png,1.0,-2.220003,-2.9938068,0.54716206
alexnet_w3_mlp_simclrhn_probe1,1,623,NaN,bear,bear,true,0623_fc_dnn_true_bear_35_n02132136_8619.png,n02132136_8619.png,1.0,6.3971562,2.0652833,3.0630968
alexnet_w3_mlp_simclrhn_probe1,1,624,NaN,knife,airplane,false,0624_fc_dnn_false_airplane_35_n02690373_1912.png,n02690373_1912.png,0.0,-0.55711424,0.05740571,-0.43453124
alexnet_w3_mlp_simclrhn_probe1,1,625,NaN,truck,truck,true,0625_fc_dnn_true_truck_35_n03417042_22828.png,n03417042_22828.png,1.0,8.200978,0.575043,5.3923507
