subj,session,trial,rt,object_response,category,condition,imagename,filename,is_correct,targ_act,max_nontarg_act,decision_margin
alexnet_w3_mlp_simclrhn_probe0,1,1,NaN,knife,knife,true,0001_fc_dnn_true_knife_35_n03041632_86251.png,n03041632_86251.png,1.0,3.2684023,-2.6737723,4.201752
alexnet_w3_mlp_simclrhn_probe0,1,2,NaN,car,car,false,0002_fc_dnn_false_car_35_n03100240_16866.png,n03100240_16866.png,1.0,8.1283,4.7601233,2.3816605
alexnet_w3_mlp_simclrhn_probe0,1,3,NaN,knife,keyboard,false,0003_fc_dnn_false_keyboard_35_n03085013_21127.png,n03085013_21127.png,0.0,-2.181839,0.20744553,-1.6894794
alexnet_w3_mlp_simclrhn_probe0,1,4,NaN,truck,truck,true,0004_fc_dnn_true_truck_35_n03417042_10694.png,n03417042_10694.png,1.0,6.61946,1.3917497,3.6965494
alexnet_w3_mlp_simclrhn_probe0,1,5,NaN,bird,bird,true,0005_fc_dnn_true_bird_35_n01614925_1962.png,n01614925_1962.png,1.0,-0.5401852,-3.152008,1.8468376
alexnet_w3_mlp_simclrhn_probe0,1,6,NaN,knife,knife,false,0006_fc_dnn_false_knife_35_n03041632_99875.png,n03041632_99875.png,1.0,-4.304395,-5.4429684,0.8050928
alexnet_w3_mlp_simclrhn_probe0,1,7,NaN,bicycle,bicycle,true,0007_fc_dnn_true_bicycle_35_n03792782_14935.png,n03792782_14935.png,1.0,-0.52282596,-6.1279106,3.9633932
alexnet_w3_mlp_simclrhn_probe0,1,8,NaN,elephant,elephant,false,0008_fc_dnn_false_elephant_35_n02504013_5027.png,n02504013_5027.png,1.0,-0.42407125,-4.357963,2.7816815
alexnet_w3_mlp_simclrhn_probe0,1,9,NaN,cat,dog,false,0009_fc_dnn_false_dog_35_n02090721_129.png,n02090721_129.png,0.0,-6.843702,-6.149016,-0.49121714
alexnet_w3_mlp_simclrhn_probe0,1,10,NaN,airplane,airplane,true,0010_fc_dnn_true_airplane_35_n02690373_9241.png,n02690373_9241.png,1.0,10.271335,1.8851606,5.9299207
alexnet_w3_mlp_simclrhn_probe0,1,11,NaN,truck,truck,true,0011_fc_dnn_true_truck_35_n04467665_62080.png,n04467665_62080.png,1.0,4.344777,2.0697992,1.6086524
alexnet_w3_mlp_simclrhn_probe0,1,12,NaN,bottle,keyboard,true,0012_fc_dnn_true_keyboard_35_n04505470_2669.png,n04505470_2669.png,0.0,-0.78026795,-0.37036875,-0.28984252
alexnet_w3_mlp_simclrhn_probe0,1,13,NaN,oven,oven,false,0013_fc_dnn_false_oven_35_n04111531_688.png,n04111531_688.png,1.0,0.105736405,-3.8314247,2.7839935
alexnet_w3_mlp_simclrhn_probe0,1,14,NaN,car,car,true,0014_fc_dnn_true_car_35_n03100240_21982.png,n03100240_21982.png,1.0,10.64487,5.3660684,3.7326763
alexnet_w3_mlp_simclrhn_probe0,1,15,NaN,bicycle,bicycle,true,0015_fc_dnn_true_bicycle_35_n02835271_4191.png,n02835271_4191.png,1.0,4.3644867,-6.5892487,7.7454605
alexnet_w3_mlp_simclrhn_probe0,1,16,NaN,car,car,true,0016_fc_dnn_true_car_35_n02814533_25278.png,n02814533_25278.png,1.0,2.8285034,0.6226237,1.5597925
alexnet_w3_mlp_simclrhn_probe0,1,17,NaN,knife,knife,false,0017_fc_dnn_false_knife_35_n03041632_23087.png,n03041632_23087.png,1.0,-4.341476,-4.458493,0.082743704
alexnet_w3_mlp_simclrhn_probe0,1,18,NaN,clock,clock,true,0018_fc_dnn_true_clock_35_n03196217_11252.png,n03196217_11252.png,1.0,2.4580567,2.1538453,0.21510993
alexnet_w3_mlp_simclrhn_probe0,1,19,NaN,boat,boat,false,0019_fc_dnn_false_boat_35_n04273569_2040.png,n04273569_2040.png,1.0,5.442033,0.71544564,3.342202
alexnet_w3_mlp_simclrhn_probe0,1,20,NaN,knife,knife,true,0020_fc_dnn_true_knife_35_n03041632_84869.png,n03041632_84869.png,1.0,0.52364737,-3.9234607,3.1445804
alexnet_w3_mlp_simclrhn_probe0,1,21,NaN,clock,clock,true,0021_fc_dnn_true_clock_35_n04548280_503.png,n04548280_503.png,1.0,3.9716651,-0.67274266,3.2840922
alexnet_w3_mlp_simclrhn_probe0,1,22,NaN,truck,truck,false,0022_fc_dnn_false_truck_35_n03417042_10654.png,n03417042_10654.png,1.0,0.14311245,-1.0716856,0.8589919
alexnet_w3_mlp_simclrhn_probe0,1,23,NaN,airplane,boat,true,0023_fc_dnn_true_boat_35_n03344393_2919.png,n03344393_2919.png,0.0,2.6495166,2.659024,-0.0067227595
alexnet_w3_mlp_simclrhn_probe0,1,24,NaN,chair,chair,false,0024_fc_dnn_false_chair_35_n04099969_7718.png,n04099969_7718.png,1.0,0.10988772,-2.960928,2.1713946
alexnet_w3_mlp_simclrhn_probe0,1,25,NaN,oven,oven,true,0025_fc_dnn_true_oven_35_n04111531_3477.png,n04111531_3477.png,1.0,3.4736915,-2.1733217,3.9930413
alexnet_w3_mlp_simclrhn_probe0,1,26,NaN,dog,dog,false,0026_fc_dnn_false_dog_35_n02113712_913.png,n02113712_913.png,1.0,-1.7014728,-4.732822,2.1434877
alexnet_w3_mlp_simclrhn_probe0,1,27,NaN,chair,chair,false,0027_fc_dnn_false_chair_35_n02791124_13701.png,n02791124_13701.png,1.0,-0.72355825,-1.5986648,0.6187938
alexnet_w3_mlp_simclrhn_probe0,1,28,NaN,airplane,airplane,true,0028_fc_dnn_true_airplane_35_n02690373_8538.png,n02690373_8538.png,1.0,6.6481266,0.30587745,4.4846473
alexnet_w3_mlp_simclrhn_probe0,1,29,NaN,knife,knife,true,0029_fc_dnn_true_knife_35_n03041632_98864.png,n03041632_98864.png,1.0,-5.405151,-5.486354,0.05741918
alexnet_w3_mlp_simclrhn_probe0,1,30,NaN,boat,clock,false,0030_fc_dnn_false_clock_35_n04548280_5466.png,n04548280_5466.png,0.0,-0.9972041,-0.68593675,-0.22009927
alexnet_w3_mlp_simclrhn_probe0,1,31,NaN,keyboard,keyboard,true,0031_fc_dnn_true_keyboard_35_n04505470_4033.png,n04505470_4033.png,1.0,8.215993,-0.15911543,5.9220963
alexnet_w3_mlp_simclrhn_probe0,1,32,NaN,boat,boat,false,0032_fc_dnn_false_boat_35_n03344393_7503.png,n03344393_7503.png,1.0,-0.28264418,-2.6820147,1.6966112
alexnet_w3_mlp_simclrhn_probe0,1,33,NaN,bottle,bottle,false,0033_fc_dnn_false_bottle_35_n02823428_3402.png,n02823428_3402.png,1.0,2.3333294,-3.3715732,4.0339756
alexnet_w3_mlp_simclrhn_probe0,1,34,NaN,truck,boat,true,0034_fc_dnn_true_boat_35_n03662601_15766.png,n03662601_15766.png,0.0,-2.2275577,-0.4231719,-1.2758934
alexnet_w3_mlp_simclrhn_probe0,1,35,NaN,dog,dog,true,0035_fc_dnn_true_dog_35_n02097047_1351.png,n02097047_1351.png,1.0,-1.5996946,-4.0272746,1.7165582
alexnet_w3_mlp_simclrhn_probe0,1,36,NaN,chair,keyboard,true,0036_fc_dnn_true_keyboard_35_n03085013_23562.png,n03085013_23562.png,0.0,-4.1212354,-3.6317134,-0.34614432
alexnet_w3_mlp_simclrhn_probe0,1,37,NaN,chair,clock,false,0037_fc_dnn_false_clock_35_n04548280_7872.png,n04548280_7872.png,0.0,-3.8687878,-1.766022,-1.48688
alexnet_w3_mlp_simclrhn_probe0,1,38,NaN,dog,dog,false,0038_fc_dnn_false_dog_35_n02106166_16884.png,n02106166_16884.png,1.0,-1.5059155,-3.6477578,1.5145112
alexnet_w3_mlp_simclrhn_probe0,1,39,NaN,oven,oven,true,0039_fc_dnn_true_oven_35_n04111531_3353.png,n04111531_3353.png,1.0,0.92494684,-2.325136,2.2981555
alexnet_w3_mlp_simclrhn_probe0,1,40,NaN,bottle,knife,false,0040_fc_dnn_false_knife_35_n03041632_46185.png,n03041632_46185.png,0.0,-1.5410038,0.41159716,-1.3806974
alexnet_w3_mlp_simclrhn_probe0,1,41,NaN,knife,knife,true,0041_fc_dnn_true_knife_35_n03041632_14766.png,n03041632_14766.png,1.0,1.7323335,-1.1251055,2.0205145
alexnet_w3_mlp_simclrhn_probe0,1,42,NaN,knife,chair,true,0042_fc_dnn_true_chair_35_n02791124_2150.png,n02791124_2150.png,0.0,-4.7643,-3.5878081,-0.8319053
alexnet_w3_mlp_simclrhn_probe0,1,43,NaN,elephant,elephant,false,0043_fc_dnn_false_elephant_35_n02504458_4631.png,n02504458_4631.png,1.0,2.1781836,-3.5675232,4.062828
alexnet_w3_mlp_simclrhn_probe0,1,44,NaN,chair,chair,false,0044_fc_dnn_false_chair_35_n03376595_3223.png,n03376595_3223.png,1.0,-1.1429408,-2.747352,1.13449
alexnet_w3_mlp_simclrhn_probe0,1,45,NaN,car,car,false,0045_fc_dnn_false_car_35_n03100240_5399.png,n03100240_5399.png,1.0,9.543622,4.513519,3.5568202
alexnet_w3_mlp_simclrhn_probe0,1,46,NaN,oven,bottle,true,0046_fc_dnn_true_bottle_35_n04557648_2512.png,n04557648_2512.png,0.0,-6.849639,0.69435173,-5.334407
alexnet_w3_mlp_simclrhn_probe0,1,47,NaN,elephant,bicycle,true,0047_fc_dnn_true_bicycle_35_n03792782_8098.png,n03792782_8098.png,0.0,-1.4885918,-0.3174271,-0.82813853
alexnet_w3_mlp_simclrhn_probe0,1,48,NaN,bear,bear,true,0048_fc_dnn_true_bear_35_n02134418_11557.png,n02134418_11557.png,1.0,-0.035580635,-4.134566,2.8984203
alexnet_w3_mlp_simclrhn_probe0,1,49,NaN,knife,knife,true,0049_fc_dnn_true_knife_35_n03041632_45569.png,n03041632_45569.png,1.0,-0.94650435,-2.776,1.2936488
alexnet_w3_mlp_simclrhn_probe0,1,50,NaN,bicycle,bicycle,false,0050_fc_dnn_false_bicycle_35_n03792782_4740.png,n03792782_4740.png,1.0,-2.6175053,-5.980932,2.378302
alexnet_w3_mlp_simclrhn_probe0,1,51,NaN,boat,boat,false,0051_fc_dnn_false_boat_35_n03662601_25404.png,n03662601_25404.png,1.0,4.7696905,1.3812215,2.3960094
alexnet_w3_mlp_simclrhn_probe0,1,52,NaN,bird,bird,false,0052_fc_dnn_false_bird_35_n01796340_4853.png,n01796340_4853.png,1.0,-2.7120216,-5.912163,2.2628415
alexnet_w3_mlp_simclrhn_probe0,1,53,NaN,clock,clock,true,0053_fc_dnn_true_clock_35_n03196217_5888.png,n03196217_5888.png,1.0,0.9407838,0.2526592,0.48657757
alexnet_w3_mlp_simclrhn_probe0,1,54,NaN,bicycle,bicycle,true,0054_fc_dnn_true_bicycle_35_n02835271_12871.png,n02835271_12871.png,1.0,9.041612,-0.42754596,6.6957054
alexnet_w3_mlp_simclrhn_probe0,1,55,NaN,keyboard,keyboard,false,0055_fc_dnn_false_keyboard_35_n03085013_28584.png,n03085013_28584.png,1.0,4.943513,0.20331995,3.3518226
alexnet_w3_mlp_simclrhn_probe0,1,56,NaN,bear,cat,true,0056_fc_dnn_true_cat_35_n02123159_6184.png,n02123159_6184.png,0.0,-5.0283074,-1.7647425,-2.307689
alexnet_w3_mlp_simclrhn_probe0,1,57,NaN,bicycle,bicycle,true,0057_fc_dnn_true_bicycle_35_n02835271_7592.png,n02835271_7592.png,1.0,8.9911785,-3.153345,8.587475
alexnet_w3_mlp_simclrhn_probe0,1,58,NaN,elephant,elephant,false,0058_fc_dnn_false_elephant_35_n02504458_3205.png,n02504458_3205.png,1.0,4.5447817,-2.1386924,4.7259297
alexnet_w3_mlp_simclrhn_probe0,1,59,NaN,cat,cat,false,0059_fc_dnn_false_cat_35_n02124075_7880.png,n02124075_7880.png,1.0,-2.1693163,-3.6059613,1.0158615
alexnet_w3_mlp_simclrhn_probe0,1,60,NaN,truck,truck,false,0060_fc_dnn_false_truck_35_n04467665_2240.png,n04467665_2240.png,1.0,6.4948435,0.07872161,4.5368834
alexnet_w3_mlp_simclrhn_probe0,1,61,NaN,bottle,bottle,true,0061_fc_dnn_true_bottle_35_n04560804_13316.png,n04560804_13316.png,1.0,0.8309268,-2.8746116,2.6202114
alexnet_w3_mlp_simclrhn_probe0,1,62,NaN,airplane,airplane,false,0062_fc_dnn_false_airplane_35_n02690373_3821.png,n02690373_3821.png,1.0,11.165659,-1.7087319,9.103569
alexnet_w3_mlp_simclrhn_probe0,1,63,NaN,knife,knife,true,0063_fc_dnn_true_knife_35_n03041632_17285.png,n03041632_17285.png,1.0,-1.1407756,-2.0316367,0.62993395
alexnet_w3_mlp_simclrhn_probe0,1,64,NaN,chair,bottle,false,0064_fc_dnn_false_bottle_35_n02823428_10942.png,n02823428_10942.png,0.0,-2.3165233,-1.9973073,-0.22571981
alexnet_w3_mlp_simclrhn_probe0,1,65,NaN,bicycle,bicycle,true,0065_fc_dnn_true_bicycle_35_n02835271_3642.png,n02835271_3642.png,1.0,6.024224,-5.5058866,8.153019
alexnet_w3_mlp_simclrhn_probe0,1,66,NaN,knife,knife,true,0066_fc_dnn_true_knife_35_n03041632_16172.png,n03041632_16172.png,1.0,0.12691742,-3.80506,2.7803278
alexnet_w3_mlp_simclrhn_probe0,1,67,NaN,bicycle,bottle,false,0067_fc_dnn_false_bottle_35_n04560804_2448.png,n04560804_2448.png,0.0,-10.572314,-3.408913,-5.06529
alexnet_w3_mlp_simclrhn_probe0,1,68,NaN,oven,oven,false,0068_fc_dnn_false_oven_35_n04111531_4452.png,n04111531_4452.png,1.0,3.8121748,-4.616771,5.9601645
alexnet_w3_mlp_simclrhn_probe0,1,69,NaN,keyboard,keyboard,false,0069_fc_dnn_false_keyboard_35_n04505470_912.png,n04505470_912.png,1.0,8.93322,-0.70244825,6.813446
alexnet_w3_mlp_simclrhn_probe0,1,70,NaN,cat,cat,false,0070_fc_dnn_false_cat_35_n02123045_7167.png,n02123045_7167.png,1.0,-4.864866,-4.9028606,0.026866425
alexnet_w3_mlp_simclrhn_probe0,1,71,NaN,bicycle,bicycle,false,0071_fc_dnn_false_bicycle_35_n03792782_8333.png,n03792782_8333.png,1.0,0.048011422,-4.0431128,2.8928616
alexnet_w3_mlp_simclrhn_probe0,1,72,NaN,dog,dog,false,0072_fc_dnn_false_dog_35_n02107683_2904.png,n02107683_2904.png,1.0,-2.3294137,-2.4434776,0.08065541
alexnet_w3_mlp_simclrhn_probe0,1,73,NaN,bottle,bottle,true,0073_fc_dnn_true_bottle_35_n04591713_3409.png,n04591713_3409.png,1.0,3.289433,-5.2476263,6.036613
alexnet_w3_mlp_simclrhn_probe0,1,74,NaN,knife,bottle,false,0074_fc_dnn_false_bottle_35_n04560804_564.png,n04560804_564.png,0.0,-7.501763,-5.2078524,-1.6220397
alexnet_w3_mlp_simclrhn_probe0,1,75,NaN,truck,truck,false,0075_fc_dnn_false_truck_35_n03796401_6503.png,n03796401_6503.png,1.0,4.7871537,0.3975223,3.103938
alexnet_w3_mlp_simclrhn_probe0,1,76,NaN,oven,oven,true,0076_fc_dnn_true_oven_35_n04111531_13590.png,n04111531_13590.png,1.0,3.8631964,-1.2717084,3.6309261
alexnet_w3_mlp_simclrhn_probe0,1,77,NaN,bird,bird,false,0077_fc_dnn_false_bird_35_n02018795_7504.png,n02018795_7504.png,1.0,-4.985298,-8.574322,2.537823
alexnet_w3_mlp_simclrhn_probe0,1,78,NaN,car,car,false,0078_fc_dnn_false_car_35_n03100240_6626.png,n03100240_6626.png,1.0,7.7480855,6.441271,0.92405754
alexnet_w3_mlp_simclrhn_probe0,1,79,NaN,bear,bear,false,0079_fc_dnn_false_bear_35_n02134418_4364.png,n02134418_4364.png,1.0,1.9239237,-1.9965369,2.7721844
alexnet_w3_mlp_simclrhn_probe0,1,80,NaN,airplane,knife,false,0080_fc_dnn_false_knife_35_n03041632_8051.png,n03041632_8051.png,0.0,-1.2262636,-0.30542302,-0.65113264
alexnet_w3_mlp_simclrhn_probe0,1,81,NaN,airplane,airplane,true,0081_fc_dnn_true_airplane_35_n02690373_1434.png,n02690373_1434.png,1.0,8.458984,-0.35753056,6.2342176
alexnet_w3_mlp_simclrhn_probe0,1,82,NaN,clock,clock,true,0082_fc_dnn_true_clock_35_n04548280_5408.png,n04548280_5408.png,1.0,6.2860184,-1.6735831,5.6282883
alexnet_w3_mlp_simclrhn_probe0,1,83,NaN,cat,cat,false,0083_fc_dnn_false_cat_35_n02123597_3916.png,n02123597_3916.png,1.0,-3.280922,-4.5886188,0.9246813
alexnet_w3_mlp_simclrhn_probe0,1,84,NaN,clock,clock,false,0084_fc_dnn_false_clock_35_n04548280_4542.png,n04548280_4542.png,1.0,3.035786,-0.7642802,2.6870525
alexnet_w3_mlp_simclrhn_probe0,1,85,NaN,airplane,car,true,0085_fc_dnn_true_car_35_n04285008_14161.png,n04285008_14161.png,0.0,-7.2744603,-4.1776853,-2.1897507
alexnet_w3_mlp_simclrhn_probe0,1,86,NaN,airplane,airplane,false,0086_fc_dnn_false_airplane_35_n02690373_7279.png,n02690373_7279.png,1.0,7.5453973,2.465139,3.5922852
alexnet_w3_mlp_simclrhn_probe0,1,87,NaN,elephant,bear,true,0087_fc_dnn_true_bear_35_n02132136_11640.png,n02132136_11640.png,0.0,-1.1565275,-0.014349818,-0.8076416
alexnet_w3_mlp_simclrhn_probe0,1,88,NaN,airplane,airplane,true,0088_fc_dnn_true_airplane_35_n02690373_8350.png,n02690373_8350.png,1.0,5.1162763,-0.81408733,4.1934004
alexnet_w3_mlp_simclrhn_probe0,1,89,NaN,boat,boat,true,0089_fc_dnn_true_boat_35_n04273569_30568.png,n04273569_30568.png,1.0,5.3898153,2.0482285,2.3628588
alexnet_w3_mlp_simclrhn_probe0,1,90,NaN,dog,dog,true,0090_fc_dnn_true_dog_35_n02100583_19533.png,n02100583_19533.png,1.0,-1.9770951,-2.9233081,0.66907364
alexnet_w3_mlp_simclrhn_probe0,1,91,NaN,knife,knife,true,0091_fc_dnn_true_knife_35_n03041632_965.png,n03041632_965.png,1.0,3.7696106,1.4598268,1.633264
alexnet_w3_mlp_simclrhn_probe0,1,92,NaN,elephant,elephant,false,0092_fc_dnn_false_elephant_35_n02504458_6109.png,n02504458_6109.png,1.0,7.9622717,1.589984,4.505888
alexnet_w3_mlp_simclrhn_probe0,1,93,NaN,oven,oven,true,0093_fc_dnn_true_oven_35_n04111531_10093.png,n04111531_10093.png,1.0,-0.26738858,-2.5185828,1.5918348
alexnet_w3_mlp_simclrhn_probe0,1,94,NaN,clock,clock,true,0094_fc_dnn_true_clock_35_n03196217_8221.png,n03196217_8221.png,1.0,1.5935198,1.487423,0.07502181
alexnet_w3_mlp_simclrhn_probe0,1,95,NaN,bicycle,bicycle,false,0095_fc_dnn_false_bicycle_35_n03792782_828.png,n03792782_828.png,1.0,2.5132217,-6.6736217,6.49608
alexnet_w3_mlp_simclrhn_probe0,1,96,NaN,knife,knife,true,0096_fc_dnn_true_knife_35_n03041632_7090.png,n03041632_7090.png,1.0,0.39102238,-0.96699595,0.960264
alexnet_w3_mlp_simclrhn_probe0,1,97,NaN,bear,bear,false,0097_fc_dnn_false_bear_35_n02134084_14260.png,n02134084_14260.png,1.0,-1.4493887,-1.5864551,0.09692056
alexnet_w3_mlp_simclrhn_probe0,1,98,NaN,bear,bear,false,0098_fc_dnn_false_bear_35_n02132136_10988.png,n02132136_10988.png,1.0,2.10835,1.8160204,0.2067083
alexnet_w3_mlp_simclrhn_probe0,1,99,NaN,boat,keyboard,false,0099_fc_dnn_false_keyboard_35_n03085013_22980.png,n03085013_22980.png,0.0,-2.9621084,-2.1430979,-0.5791279
alexnet_w3_mlp_simclrhn_probe0,1,100,NaN,bottle,bottle,false,0100_fc_dnn_false_bottle_35_n04557648_3673.png,n04557648_3673.png,1.0,-0.33825892,-4.5734696,2.9947464
alexnet_w3_mlp_simclrhn_probe0,1,101,NaN,airplane,airplane,true,0101_fc_dnn_true_airplane_35_n02690373_1360.png,n02690373_1360.png,1.0,9.8439,0.2815892,6.7615747
alexnet_w3_mlp_simclrhn_probe0,1,102,NaN,car,oven,true,0102_fc_dnn_true_oven_35_n04111531_6415.png,n04111531_6415.png,0.0,-7.9218144,-2.4704914,-3.8546677
alexnet_w3_mlp_simclrhn_probe0,1,103,NaN,knife,knife,false,0103_fc_dnn_false_knife_35_n03041632_32054.png,n03041632_32054.png,1.0,1.9255733,-1.209087,2.2165396
alexnet_w3_mlp_simclrhn_probe0,1,104,NaN,chair,chair,false,0104_fc_dnn_false_chair_35_n03376595_9136.png,n03376595_9136.png,1.0,1.0073997,0.35188007,0.46352237
alexnet_w3_mlp_simclrhn_probe0,1,105,NaN,keyboard,keyboard,false,0105_fc_dnn_false_keyboard_35_n03085013_21266.png,n03085013_21266.png,1.0,-1.5796611,-1.7360364,0.11057403
alexnet_w3_mlp_simclrhn_probe0,1,106,NaN,bicycle,bicycle,true,0106_fc_dnn_true_bicycle_35_n02835271_6137.png,n02835271_6137.png,1.0,8.000101,0.62322545,5.216239
alexnet_w3_mlp_simclrhn_probe0,1,107,NaN,car,car,false,0107_fc_dnn_false_car_35_n04285008_14689.png,n04285008_14689.png,1.0,11.426209,8.147644,2.318296
alexnet_w3_mlp_simclrhn_probe0,1,108,NaN,truck,truck,false,0108_fc_dnn_false_truck_35_n04467665_16276.png,n04467665_16276.png,1.0,7.629733,3.9870217,2.5757859
alexnet_w3_mlp_simclrhn_probe0,1,109,NaN,chair,chair,false,0109_fc_dnn_false_chair_35_n03376595_787.png,n03376595_787.png,1.0,0.1726852,-4.6085634,3.3808534
alexnet_w3_mlp_simclrhn_probe0,1,110,NaN,bicycle,boat,false,0110_fc_dnn_false_boat_35_n04612504_41355.png,n04612504_41355.png,0.0,-0.9077802,1.9520241,-2.022187
alexnet_w3_mlp_simclrhn_probe0,1,111,NaN,elephant,elephant,true,0111_fc_dnn_true_elephant_35_n02504458_174.png,n02504458_174.png,1.0,6.955617,-2.874542,6.9509726
alexnet_w3_mlp_simclrhn_probe0,1,112,NaN,cat,cat,true,0112_fc_dnn_true_cat_35_n02125311_6746.png,n02125311_6746.png,1.0,1.3993202,-0.9146003,1.6361889
alexnet_w3_mlp_simclrhn_probe0,1,113,NaN,keyboard,keyboard,false,0113_fc_dnn_false_keyboard_35_n03085013_23287.png,n03085013_23287.png,1.0,2.690133,-1.0885683,2.6719453
alexnet_w3_mlp_simclrhn_probe0,1,114,NaN,clock,clock,true,0114_fc_dnn_true_clock_35_n04548280_8071.png,n04548280_8071.png,1.0,1.5177377,-1.4826022,2.1215608
alexnet_w3_mlp_simclrhn_probe0,1,115,NaN,oven,oven,false,0115_fc_dnn_false_oven_35_n04111531_14543.png,n04111531_14543.png,1.0,2.888928,-3.0836904,4.223279
alexnet_w3_mlp_simclrhn_probe0,1,116,NaN,car,car,false,0116_fc_dnn_false_car_35_n03100240_10791.png,n03100240_10791.png,1.0,7.928374,2.7232933,3.6805477
alexnet_w3_mlp_simclrhn_probe0,1,117,NaN,airplane,airplane,true,0117_fc_dnn_true_airplane_35_n02690373_2619.png,n02690373_2619.png,1.0,8.499377,1.1379402,5.205322
alexnet_w3_mlp_simclrhn_probe0,1,118,NaN,keyboard,keyboard,true,0118_fc_dnn_true_keyboard_35_n04505470_3864.png,n04505470_3864.png,1.0,-3.4728994,-3.8871753,0.29293728
alexnet_w3_mlp_simclrhn_probe0,1,119,NaN,bear,dog,true,0119_fc_dnn_true_dog_35_n02097658_4387.png,n02097658_4387.png,0.0,-1.6452852,-0.51364124,-0.8001932
alexnet_w3_mlp_simclrhn_probe0,1,120,NaN,clock,clock,true,0120_fc_dnn_true_clock_35_n04548280_309.png,n04548280_309.png,1.0,3.4614704,1.5481069,1.3529522
alexnet_w3_mlp_simclrhn_probe0,1,121,NaN,dog,dog,true,0121_fc_dnn_true_dog_35_n02108000_5247.png,n02108000_5247.png,1.0,0.51047784,-2.205361,1.920388
alexnet_w3_mlp_simclrhn_probe0,1,122,NaN,keyboard,keyboard,false,0122_fc_dnn_false_keyboard_35_n04505470_4411.png,n04505470_4411.png,1.0,0.34071496,-0.8478457,0.84043926
alexnet_w3_mlp_simclrhn_probe0,1,123,NaN,oven,truck,false,0123_fc_dnn_false_truck_35_n03417042_2155.png,n03417042_2155.png,0.0,-0.56563973,0.43268776,-0.70592415
alexnet_w3_mlp_simclrhn_probe0,1,124,NaN,bear,bear,false,0124_fc_dnn_false_bear_35_n02132136_4237.png,n02132136_4237.png,1.0,2.6302128,1.5430883,0.7687131
alexnet_w3_mlp_simclrhn_probe0,1,125,NaN,bird,bird,false,0125_fc_dnn_false_bird_35_n01843065_2350.png,n01843065_2350.png,1.0,-4.915492,-8.844321,2.778102
alexnet_w3_mlp_simclrhn_probe0,1,126,NaN,knife,knife,false,0126_fc_dnn_false_knife_35_n03041632_51225.png,n03041632_51225.png,1.0,2.3181822,0.18174782,1.5106872
alexnet_w3_mlp_simclrhn_probe0,1,127,NaN,airplane,airplane,false,0127_fc_dnn_false_airplane_35_n02690373_2095.png,n02690373_2095.png,1.0,6.809547,-3.7925916,7.4968443
alexnet_w3_mlp_simclrhn_probe0,1,128,NaN,clock,clock,true,0128_fc_dnn_true_clock_35_n02708093_1775.png,n02708093_1775.png,1.0,2.5369518,-2.7434807,3.7338297
alexnet_w3_mlp_simclrhn_probe0,1,129,NaN,elephant,elephant,true,0129_fc_dnn_true_elephant_35_n02504458_7950.png,n02504458_7950.png,1.0,13.668442,1.3639414,8.700596
alexnet_w3_mlp_simclrhn_probe0,1,130,NaN,boat,boat,true,0130_fc_dnn_true_boat_35_n03662601_1926.png,n03662601_1926.png,1.0,4.04869,-0.5967653,3.284833
alexnet_w3_mlp_simclrhn_probe0,1,131,NaN,elephant,elephant,true,0131_fc_dnn_true_elephant_35_n02504458_6721.png,n02504458_6721.png,1.0,-1.877768,-3.8561008,1.3988925
alexnet_w3_mlp_simclrhn_probe0,1,132,NaN,bicycle,bicycle,true,0132_fc_dnn_true_bicycle_35_n02835271_14225.png,n02835271_14225.png,1.0,-2.07099,-4.012526,1.3728733
alexnet_w3_mlp_simclrhn_probe0,1,133,NaN,bottle,clock,false,0133_fc_dnn_false_clock_35_n02708093_2744.png,n02708093_2744.png,0.0,-1.6557732,-1.6167816,-0.027571205
alexnet_w3_mlp_simclrhn_probe0,1,134,NaN,clock,clock,true,0134_fc_dnn_true_clock_35_n02708093_275.png,n02708093_275.png,1.0,8.633476,-1.6214594,7.251334
alexnet_w3_mlp_simclrhn_probe0,1,135,NaN,knife,knife,false,0135_fc_dnn_false_knife_35_n03041632_25512.png,n03041632_25512.png,1.0,-1.068561,-2.6901982,1.1466707
alexnet_w3_mlp_simclrhn_probe0,1,136,NaN,oven,bird,true,0136_fc_dnn_true_bird_35_n01622779_5441.png,n01622779_5441.png,0.0,-6.229402,-3.6174366,-1.8469385
alexnet_w3_mlp_simclrhn_probe0,1,137,NaN,car,oven,false,0137_fc_dnn_false_oven_35_n04111531_14329.png,n04111531_14329.png,0.0,-3.9077654,3.1635787,-5.0001955
alexnet_w3_mlp_simclrhn_probe0,1,138,NaN,bird,bird,false,0138_fc_dnn_false_bird_35_n02007558_13217.png,n02007558_13217.png,1.0,-1.2655481,-5.646014,3.0974572
alexnet_w3_mlp_simclrhn_probe0,1,139,NaN,cat,cat,true,0139_fc_dnn_true_cat_35_n02123597_7908.png,n02123597_7908.png,1.0,-3.69981,-4.7985806,0.77694815
alexnet_w3_mlp_simclrhn_probe0,1,140,NaN,clock,clock,true,0140_fc_dnn_true_clock_35_n04548280_9828.png,n04548280_9828.png,1.0,6.635205,-2.0201466,6.120258
alexnet_w3_mlp_simclrhn_probe0,1,141,NaN,bird,bird,false,0141_fc_dnn_false_bird_35_n01833805_4819.png,n01833805_4819.png,1.0,-0.7448516,-1.7888201,0.73819727
alexnet_w3_mlp_simclrhn_probe0,1,142,NaN,knife,knife,true,0142_fc_dnn_true_knife_35_n03041632_52929.png,n03041632_52929.png,1.0,-2.9230494,-5.658421,1.9341998
alexnet_w3_mlp_simclrhn_probe0,1,143,NaN,truck,truck,false,0143_fc_dnn_false_truck_35_n04467665_2044.png,n04467665_2044.png,1.0,5.02847,-1.1975802,4.4024825
alexnet_w3_mlp_simclrhn_probe0,1,144,NaN,oven,oven,false,0144_fc_dnn_false_oven_35_n04111531_16583.png,n04111531_16583.png,1.0,2.1095576,-0.47900468,1.83039
alexnet_w3_mlp_simclrhn_probe0,1,145,NaN,airplane,airplane,true,0145_fc_dnn_true_airplane_35_n02690373_2796.png,n02690373_2796.png,1.0,4.8048544,-1.3060915,4.321091
alexnet_w3_mlp_simclrhn_probe0,1,146,NaN,airplane,airplane,false,0146_fc_dnn_false_airplane_35_n02690373_3362.png,n02690373_3362.png,1.0,8.672327,-0.76702034,6.6746264
alexnet_w3_mlp_simclrhn_probe0,1,147,NaN,clock,clock,true,0147_fc_dnn_true_clock_35_n02708093_3759.png,n02708093_3759.png,1.0,3.6534584,-0.6825475,3.066019
alexnet_w3_mlp_simclrhn_probe0,1,148,NaN,elephant,elephant,true,0148_fc_dnn_true_elephant_35_n02504013_2558.png,n02504013_2558.png,1.0,2.2730675,-5.9325924,5.802278
alexnet_w3_mlp_simclrhn_probe0,1,149,NaN,bear,bear,false,0149_fc_dnn_false_bear_35_n02134418_896.png,n02134418_896.png,1.0,-0.56486666,-0.7760428,0.14932409
alexnet_w3_mlp_simclrhn_probe0,1,150,NaN,truck,truck,false,0150_fc_dnn_false_truck_35_n04467665_56815.png,n04467665_56815.png,1.0,7.4330616,1.3705946,4.286812
alexnet_w3_mlp_simclrhn_probe0,1,151,NaN,truck,truck,true,0151_fc_dnn_true_truck_35_n03796401_3695.png,n03796401_3695.png,1.0,2.0003765,-2.9669793,3.512451
alexnet_w3_mlp_simclrhn_probe0,1,152,NaN,elephant,dog,true,0152_fc_dnn_true_dog_35_n02107312_197.png,n02107312_197.png,0.0,-3.383547,-2.4533353,-0.6577591
alexnet_w3_mlp_simclrhn_probe0,1,153,NaN,bear,bear,false,0153_fc_dnn_false_bear_35_n02133161_13356.png,n02133161_13356.png,1.0,0.9856462,-2.363283,2.3680506
alexnet_w3_mlp_simclrhn_probe0,1,154,NaN,truck,truck,false,0154_fc_dnn_false_truck_35_n03796401_6923.png,n03796401_6923.png,1.0,-1.5722966,-3.4355462,1.3175164
alexnet_w3_mlp_simclrhn_probe0,1,155,NaN,elephant,elephant,true,0155_fc_dnn_true_elephant_35_n02504458_7660.png,n02504458_7660.png,1.0,2.667521,-0.25591227,2.0671794
alexnet_w3_mlp_simclrhn_probe0,1,156,NaN,bicycle,bicycle,false,0156_fc_dnn_false_bicycle_35_n02835271_6554.png,n02835271_6554.png,1.0,9.945822,-3.1569736,9.265076
alexnet_w3_mlp_simclrhn_probe0,1,157,NaN,boat,boat,true,0157_fc_dnn_true_boat_35_n04273569_2698.png,n04273569_2698.png,1.0,4.645972,0.35393208,3.0349305
alexnet_w3_mlp_simclrhn_probe0,1,158,NaN,dog,bottle,true,0158_fc_dnn_true_bottle_35_n03983396_5055.png,n03983396_5055.png,0.0,-9.334451,-4.748099,-3.2430406
alexnet_w3_mlp_simclrhn_probe0,1,159,NaN,chair,chair,true,0159_fc_dnn_true_chair_35_n04429376_22811.png,n04429376_22811.png,1.0,0.9822841,-0.88439023,1.3199382
alexnet_w3_mlp_simclrhn_probe0,1,160,NaN,knife,knife,false,0160_fc_dnn_false_knife_35_n03041632_5640.png,n03041632_5640.png,1.0,-0.79827714,-2.124024,0.93744457
alexnet_w3_mlp_simclrhn_probe0,1,161,NaN,elephant,bird,true,0161_fc_dnn_true_bird_35_n01795545_14857.png,n01795545_14857.png,0.0,-4.7529383,-3.999934,-0.5324545
alexnet_w3_mlp_simclrhn_probe0,1,162,NaN,oven,oven,false,0162_fc_dnn_false_oven_35_n04111531_16144.png,n04111531_16144.png,1.0,6.132614,-7.299413,9.497878
alexnet_w3_mlp_simclrhn_probe0,1,163,NaN,clock,truck,false,0163_fc_dnn_false_truck_35_n04467665_47050.png,n04467665_47050.png,0.0,-3.0925179,-2.638958,-0.32071528
alexnet_w3_mlp_simclrhn_probe0,1,164,NaN,clock,bottle,true,0164_fc_dnn_true_bottle_35_n03937543_8063.png,n03937543_8063.png,0.0,2.4299245,2.902479,-0.33414647
alexnet_w3_mlp_simclrhn_probe0,1,165,NaN,elephant,bear,false,0165_fc_dnn_false_bear_35_n02134084_1655.png,n02134084_1655.png,0.0,0.039638758,0.83844274,-0.5648397
alexnet_w3_mlp_simclrhn_probe0,1,166,NaN,elephant,car,false,0166_fc_dnn_false_car_35_n03100240_2425.png,n03100240_2425.png,0.0,-7.6485367,-3.2688432,-3.096911
alexnet_w3_mlp_simclrhn_probe0,1,167,NaN,keyboard,keyboard,false,0167_fc_dnn_false_keyboard_35_n03085013_21300.png,n03085013_21300.png,1.0,4.966216,0.721947,3.0011513
alexnet_w3_mlp_simclrhn_probe0,1,168,NaN,bear,bear,false,0168_fc_dnn_false_bear_35_n02132136_2248.png,n02132136_2248.png,1.0,2.827979,-0.084154986,2.0591898
alexnet_w3_mlp_simclrhn_probe0,1,169,NaN,knife,knife,false,0169_fc_dnn_false_knife_35_n03041632_27832.png,n03041632_27832.png,1.0,-1.0345303,-6.07928,3.5671768
alexnet_w3_mlp_simclrhn_probe0,1,170,NaN,keyboard,keyboard,true,0170_fc_dnn_true_keyboard_35_n04505470_4682.png,n04505470_4682.png,1.0,10.201923,1.3959612,6.226756
alexnet_w3_mlp_simclrhn_probe0,1,171,NaN,boat,truck,false,0171_fc_dnn_false_truck_35_n03417042_12908.png,n03417042_12908.png,0.0,-2.885582,-2.3623683,-0.3699679
alexnet_w3_mlp_simclrhn_probe0,1,172,NaN,elephant,elephant,false,0172_fc_dnn_false_elephant_35_n02504013_2148.png,n02504013_2148.png,1.0,-0.15397252,-3.341568,2.2539704
alexnet_w3_mlp_simclrhn_probe0,1,173,NaN,airplane,boat,true,0173_fc_dnn_true_boat_35_n02951358_20379.png,n02951358_20379.png,0.0,-0.207485,0.92590725,-0.80142933
alexnet_w3_mlp_simclrhn_probe0,1,174,NaN,cat,cat,true,0174_fc_dnn_true_cat_35_n02123394_6521.png,n02123394_6521.png,1.0,-0.6384906,-1.4753503,0.59174913
alexnet_w3_mlp_simclrhn_probe0,1,175,NaN,boat,boat,true,0175_fc_dnn_true_boat_35_n03662601_9602.png,n03662601_9602.png,1.0,4.959365,1.3730391,2.5359151
alexnet_w3_mlp_simclrhn_probe0,1,176,NaN,clock,clock,true,0176_fc_dnn_true_clock_35_n04548280_3997.png,n04548280_3997.png,1.0,5.6627026,-1.4951689,5.0613794
alexnet_w3_mlp_simclrhn_probe0,1,177,NaN,car,car,false,0177_fc_dnn_false_car_35_n03100240_12694.png,n03100240_12694.png,1.0,10.231423,1.2701563,6.336573
alexnet_w3_mlp_simclrhn_probe0,1,178,NaN,bird,bird,false,0178_fc_dnn_false_bird_35_n02002556_25052.png,n02002556_25052.png,1.0,-0.17450339,-6.983493,4.814683
alexnet_w3_mlp_simclrhn_probe0,1,179,NaN,oven,chair,true,0179_fc_dnn_true_chair_35_n04429376_22734.png,n04429376_22734.png,0.0,-2.6585128,-1.8100774,-0.59993446
alexnet_w3_mlp_simclrhn_probe0,1,180,NaN,boat,boat,true,0180_fc_dnn_true_boat_35_n04612504_5334.png,n04612504_5334.png,1.0,5.632676,0.96847373,3.298089
alexnet_w3_mlp_simclrhn_probe0,1,181,NaN,keyboard,keyboard,true,0181_fc_dnn_true_keyboard_35_n03085013_15484.png,n03085013_15484.png,1.0,3.7163355,0.4229771,2.328756
alexnet_w3_mlp_simclrhn_probe0,1,182,NaN,bear,bear,true,0182_fc_dnn_true_bear_35_n02134418_1809.png,n02134418_1809.png,1.0,1.9774127,-0.652869,1.8598901
alexnet_w3_mlp_simclrhn_probe0,1,183,NaN,bottle,bottle,true,0183_fc_dnn_true_bottle_35_n04560804_6392.png,n04560804_6392.png,1.0,-1.919121,-2.3004153,0.26961577
alexnet_w3_mlp_simclrhn_probe0,1,184,NaN,boat,boat,false,0184_fc_dnn_false_boat_35_n02951358_29495.png,n02951358_29495.png,1.0,2.6061559,-0.86632335,2.4554138
alexnet_w3_mlp_simclrhn_probe0,1,185,NaN,dog,dog,false,0185_fc_dnn_false_dog_35_n02086646_8449.png,n02086646_8449.png,1.0,-2.6904726,-6.064628,2.3858883
alexnet_w3_mlp_simclrhn_probe0,1,186,NaN,bear,bird,true,0186_fc_dnn_true_bird_35_n02037110_4043.png,n02037110_4043.png,0.0,-5.926135,-1.5894829,-3.0664763
alexnet_w3_mlp_simclrhn_probe0,1,187,NaN,elephant,elephant,true,0187_fc_dnn_true_elephant_35_n02504458_4819.png,n02504458_4819.png,1.0,4.4756293,-2.0010695,4.5797176
alexnet_w3_mlp_simclrhn_probe0,1,188,NaN,bird,bird,true,0188_fc_dnn_true_bird_35_n01829413_282.png,n01829413_282.png,1.0,0.015389613,-6.570546,4.65696
alexnet_w3_mlp_simclrhn_probe0,1,189,NaN,elephant,bird,false,0189_fc_dnn_false_bird_35_n02007558_22160.png,n02007558_22160.png,0.0,-4.050886,-4.0123377,-0.027257884
alexnet_w3_mlp_simclrhn_probe0,1,190,NaN,truck,truck,false,0190_fc_dnn_false_truck_35_n03417042_3066.png,n03417042_3066.png,1.0,-3.1009727,-4.245129,0.8090408
alexnet_w3_mlp_simclrhn_probe0,1,191,NaN,boat,boat,true,0191_fc_dnn_true_boat_35_n04612504_254.png,n04612504_254.png,1.0,1.78801,-0.83231705,1.852851
alexnet_w3_mlp_simclrhn_probe0,1,192,NaN,keyboard,keyboard,false,0192_fc_dnn_false_keyboard_35_n03085013_20704.png,n03085013_20704.png,1.0,-1.0562484,-3.9166107,2.0225816
alexnet_w3_mlp_simclrhn_probe0,1,193,NaN,chair,chair,true,0193_fc_dnn_true_chair_35_n03376595_3015.png,n03376595_3015.png,1.0,-1.0385139,-1.7965055,0.535981
alexnet_w3_mlp_simclrhn_probe0,1,194,NaN,keyboard,bottle,false,0194_fc_dnn_false_bottle_35_n03983396_3782.png,n03983396_3782.png,0.0,-6.148788,4.940811,-7.8415313
alexnet_w3_mlp_simclrhn_probe0,1,195,NaN,bird,bird,false,0195_fc_dnn_false_bird_35_n01592084_4087.png,n01592084_4087.png,1.0,-1.792812,-4.9191055,2.2106235
alexnet_w3_mlp_simclrhn_probe0,1,196,NaN,bird,bird,false,0196_fc_dnn_false_bird_35_n02013706_651.png,n02013706_651.png,1.0,-1.0925205,-8.299369,5.096011
alexnet_w3_mlp_simclrhn_probe0,1,197,NaN,keyboard,keyboard,true,0197_fc_dnn_true_keyboard_35_n04505470_2825.png,n04505470_2825.png,1.0,4.5826554,-2.6122491,5.087566
alexnet_w3_mlp_simclrhn_probe0,1,198,NaN,cat,cat,false,0198_fc_dnn_false_cat_35_n02123597_23346.png,n02123597_23346.png,1.0,-3.7688484,-3.9177217,0.10526934
alexnet_w3_mlp_simclrhn_probe0,1,199,NaN,cat,cat,false,0199_fc_dnn_false_cat_35_n02124075_3592.png,n02124075_3592.png,1.0,-1.8324546,-5.8713994,2.8559651
alexnet_w3_mlp_simclrhn_probe0,1,200,NaN,airplane,airplane,false,0200_fc_dnn_false_airplane_35_n02690373_5415.png,n02690373_5415.png,1.0,7.9586787,-0.83027965,6.214732
alexnet_w3_mlp_simclrhn_probe0,1,201,NaN,cat,cat,true,0201_fc_dnn_true_cat_35_n02123597_4591.png,n02123597_4591.png,1.0,-0.878206,-3.1749911,1.6240723
alexnet_w3_mlp_simclrhn_probe0,1,202,NaN,elephant,elephant,false,0202_fc_dnn_false_elephant_35_n02504013_2228.png,n02504013_2228.png,1.0,2.429985,-0.4966122,2.0694168
alexnet_w3_mlp_simclrhn_probe0,1,203,NaN,knife,knife,false,0203_fc_dnn_false_knife_35_n03041632_47743.png,n03041632_47743.png,1.0,-1.7387635,-3.5151694,1.2561086
alexnet_w3_mlp_simclrhn_probe0,1,204,NaN,bear,bear,false,0204_fc_dnn_false_bear_35_n02134418_1105.png,n02134418_1105.png,1.0,0.45666718,-2.5464966,2.1235576
alexnet_w3_mlp_simclrhn_probe0,1,205,NaN,bottle,bottle,true,0205_fc_dnn_true_bottle_35_n04591713_1174.png,n04591713_1174.png,1.0,0.43518224,-4.0020814,3.1376193
alexnet_w3_mlp_simclrhn_probe0,1,206,NaN,keyboard,keyboard,true,0206_fc_dnn_true_keyboard_35_n04505470_8544.png,n04505470_8544.png,1.0,0.7891705,-4.41214,3.6778817
alexnet_w3_mlp_simclrhn_probe0,1,207,NaN,bear,bear,true,0207_fc_dnn_true_bear_35_n02134418_379.png,n02134418_379.png,1.0,7.218075,-1.3448182,6.0548797
alexnet_w3_mlp_simclrhn_probe0,1,208,NaN,bottle,knife,false,0208_fc_dnn_false_knife_35_n03041632_33198.png,n03041632_33198.png,0.0,-7.289618,-4.3184886,-2.100906
alexnet_w3_mlp_simclrhn_probe0,1,209,NaN,bear,bear,true,0209_fc_dnn_true_bear_35_n02134084_4490.png,n02134084_4490.png,1.0,-1.6826297,-3.268874,1.121644
alexnet_w3_mlp_simclrhn_probe0,1,210,NaN,car,car,true,0210_fc_dnn_true_car_35_n02814533_23592.png,n02814533_23592.png,1.0,5.306246,1.2476833,2.869837
alexnet_w3_mlp_simclrhn_probe0,1,211,NaN,bear,dog,false,0211_fc_dnn_false_dog_35_n02102973_7095.png,n02102973_7095.png,0.0,-1.9017649,-1.5139829,-0.27420327
alexnet_w3_mlp_simclrhn_probe0,1,212,NaN,elephant,elephant,true,0212_fc_dnn_true_elephant_35_n02504013_3810.png,n02504013_3810.png,1.0,9.1532,-0.45989853,6.7974877
alexnet_w3_mlp_simclrhn_probe0,1,213,NaN,truck,truck,false,0213_fc_dnn_false_truck_35_n03417042_28742.png,n03417042_28742.png,1.0,2.2360609,-1.5706793,2.691772
alexnet_w3_mlp_simclrhn_probe0,1,214,NaN,bicycle,bicycle,false,0214_fc_dnn_false_bicycle_35_n03792782_4382.png,n03792782_4382.png,1.0,7.3577166,-4.385122,8.30344
alexnet_w3_mlp_simclrhn_probe0,1,215,NaN,keyboard,keyboard,false,0215_fc_dnn_false_keyboard_35_n04505470_2868.png,n04505470_2868.png,1.0,2.4034138,-1.8873032,3.0339952
alexnet_w3_mlp_simclrhn_probe0,1,216,NaN,bear,bear,true,0216_fc_dnn_true_bear_35_n02132136_4817.png,n02132136_4817.png,1.0,0.629791,-0.36267522,0.7017796
alexnet_w3_mlp_simclrhn_probe0,1,217,NaN,bicycle,bicycle,true,0217_fc_dnn_true_bicycle_35_n03792782_1989.png,n03792782_1989.png,1.0,1.6270307,-3.3046317,3.4872122
alexnet_w3_mlp_simclrhn_probe0,1,218,NaN,truck,truck,true,0218_fc_dnn_true_truck_35_n03417042_4883.png,n03417042_4883.png,1.0,2.7162454,-1.981761,3.3219924
alexnet_w3_mlp_simclrhn_probe0,1,219,NaN,bicycle,bicycle,true,0219_fc_dnn_true_bicycle_35_n03792782_6614.png,n03792782_6614.png,1.0,4.4809127,-5.9179134,7.3530807
alexnet_w3_mlp_simclrhn_probe0,1,220,NaN,car,car,true,0220_fc_dnn_true_car_35_n04285008_8581.png,n04285008_8581.png,1.0,11.496331,4.230859,5.137465
alexnet_w3_mlp_simclrhn_probe0,1,221,NaN,truck,truck,true,0221_fc_dnn_true_truck_35_n04467665_22051.png,n04467665_22051.png,1.0,5.3835,-0.3272869,4.038136
alexnet_w3_mlp_simclrhn_probe0,1,222,NaN,keyboard,keyboard,true,0222_fc_dnn_true_keyboard_35_n04505470_4516.png,n04505470_4516.png,1.0,7.4768434,-1.4738637,6.329106
alexnet_w3_mlp_simclrhn_probe0,1,223,NaN,clock,clock,true,0223_fc_dnn_true_clock_35_n02708093_3355.png,n02708093_3355.png,1.0,-1.0069177,-2.4890714,1.0480409
alexnet_w3_mlp_simclrhn_probe0,1,224,NaN,truck,chair,false,0224_fc_dnn_false_chair_35_n02791124_11404.png,n02791124_11404.png,0.0,-4.3466797,-3.933148,-0.29241112
alexnet_w3_mlp_simclrhn_probe0,1,225,NaN,boat,boat,true,0225_fc_dnn_true_boat_35_n03344393_1145.png,n03344393_1145.png,1.0,3.857431,1.7106835,1.5179799
alexnet_w3_mlp_simclrhn_probe0,1,226,NaN,chair,keyboard,false,0226_fc_dnn_false_keyboard_35_n04505470_4627.png,n04505470_4627.png,0.0,-2.356679,-1.26449,-0.7722942
alexnet_w3_mlp_simclrhn_probe0,1,227,NaN,knife,chair,true,0227_fc_dnn_true_chair_35_n03376595_4354.png,n03376595_4354.png,0.0,-0.75380266,1.2532417,-1.4191947
alexnet_w3_mlp_simclrhn_probe0,1,228,NaN,keyboard,keyboard,false,0228_fc_dnn_false_keyboard_35_n03085013_3231.png,n03085013_3231.png,1.0,7.880086,-1.5173541,6.644994
alexnet_w3_mlp_simclrhn_probe0,1,229,NaN,car,car,false,0229_fc_dnn_false_car_35_n03100240_7454.png,n03100240_7454.png,1.0,4.573012,1.510239,2.1657073
alexnet_w3_mlp_simclrhn_probe0,1,230,NaN,boat,chair,false,0230_fc_dnn_false_chair_35_n03376595_4212.png,n03376595_4212.png,0.0,-3.2579203,-0.7563642,-1.7688671
alexnet_w3_mlp_simclrhn_probe0,1,231,NaN,airplane,airplane,true,0231_fc_dnn_true_airplane_35_n02690373_4175.png,n02690373_4175.png,1.0,9.641788,-2.9368494,8.89444
alexnet_w3_mlp_simclrhn_probe0,1,232,NaN,bear,bird,false,0232_fc_dnn_false_bird_35_n01614925_19918.png,n01614925_19918.png,0.0,-6.966258,-4.434211,-1.7904278
alexnet_w3_mlp_simclrhn_probe0,1,233,NaN,dog,dog,false,0233_fc_dnn_false_dog_35_n02086240_1183.png,n02086240_1183.png,1.0,-1.1125456,-2.5608442,1.0241017
alexnet_w3_mlp_simclrhn_probe0,1,234,NaN,car,car,false,0234_fc_dnn_false_car_35_n02814533_1344.png,n02814533_1344.png,1.0,3.6484954,2.4013598,0.8818581
alexnet_w3_mlp_simclrhn_probe0,1,235,NaN,oven,bottle,true,0235_fc_dnn_true_bottle_35_n03983396_1321.png,n03983396_1321.png,0.0,-5.2949667,-1.3758808,-2.7712123
alexnet_w3_mlp_simclrhn_probe0,1,236,NaN,cat,cat,true,0236_fc_dnn_true_cat_35_n02123597_6291.png,n02123597_6291.png,1.0,-2.5316744,-5.0553193,1.7844864
alexnet_w3_mlp_simclrhn_probe0,1,237,NaN,knife,airplane,true,0237_fc_dnn_true_airplane_35_n02690373_7698.png,n02690373_7698.png,0.0,-2.7109928,-0.910047,-1.273461
alexnet_w3_mlp_simclrhn_probe0,1,238,NaN,airplane,airplane,false,0238_fc_dnn_false_airplane_35_n02690373_4191.png,n02690373_4191.png,1.0,-0.68757683,-3.9964716,2.339742
alexnet_w3_mlp_simclrhn_probe0,1,239,NaN,cat,bear,true,0239_fc_dnn_true_bear_35_n02134418_6204.png,n02134418_6204.png,0.0,-1.0877907,-1.0558721,-0.022569891
alexnet_w3_mlp_simclrhn_probe0,1,240,NaN,elephant,bear,true,0240_fc_dnn_true_bear_35_n02132136_14829.png,n02132136_14829.png,0.0,-1.4289526,-0.17296976,-0.88811404
alexnet_w3_mlp_simclrhn_probe0,1,241,NaN,car,car,false,0241_fc_dnn_false_car_35_n04285008_2409.png,n04285008_2409.png,1.0,4.5397553,2.7552786,1.2618157
alexnet_w3_mlp_simclrhn_probe0,1,242,NaN,bird,bird,true,0242_fc_dnn_true_bird_35_n02037110_3761.png,n02037110_3761.png,1.0,1.4286972,-6.5895066,5.6697264
alexnet_w3_mlp_simclrhn_probe0,1,243,NaN,boat,boat,false,0243_fc_dnn_false_boat_35_n02951358_3067.png,n02951358_3067.png,1.0,0.66732377,-0.78220946,1.0249748
alexnet_w3_mlp_simclrhn_probe0,1,244,NaN,chair,chair,false,0244_fc_dnn_false_chair_35_n03376595_14748.png,n03376595_14748.png,1.0,3.3012152,-2.5612984,4.145423
alexnet_w3_mlp_simclrhn_probe0,1,245,NaN,elephant,elephant,true,0245_fc_dnn_true_elephant_35_n02504458_5951.png,n02504458_5951.png,1.0,4.0816717,-0.82366335,3.4685957
alexnet_w3_mlp_simclrhn_probe0,1,246,NaN,clock,clock,false,0246_fc_dnn_false_clock_35_n02708093_2006.png,n02708093_2006.png,1.0,-1.0308962,-3.1868422,1.524484
alexnet_w3_mlp_simclrhn_probe0,1,247,NaN,car,car,false,0247_fc_dnn_false_car_35_n03100240_18646.png,n03100240_18646.png,1.0,5.5497375,1.1793956,3.0902984
alexnet_w3_mlp_simclrhn_probe0,1,248,NaN,bicycle,bicycle,false,0248_fc_dnn_false_bicycle_35_n03792782_5864.png,n03792782_5864.png,1.0,4.039322,-3.4778535,5.315446
alexnet_w3_mlp_simclrhn_probe0,1,249,NaN,truck,chair,false,0249_fc_dnn_false_chair_35_n04429376_36830.png,n04429376_36830.png,0.0,-3.1583242,-1.6345553,-1.0774673
alexnet_w3_mlp_simclrhn_probe0,1,250,NaN,boat,boat,true,0250_fc_dnn_true_boat_35_n04273569_9282.png,n04273569_9282.png,1.0,1.1691377,-1.3417585,1.7754718
alexnet_w3_mlp_simclrhn_probe0,1,251,NaN,cat,bird,true,0251_fc_dnn_true_bird_35_n01622779_1609.png,n01622779_1609.png,0.0,-4.1926374,-4.041015,-0.107213154
alexnet_w3_mlp_simclrhn_probe0,1,252,NaN,bicycle,dog,true,0252_fc_dnn_true_dog_35_n02088094_9498.png,n02088094_9498.png,0.0,-4.809815,-2.8735867,-1.3691201
alexnet_w3_mlp_simclrhn_probe0,1,253,NaN,car,car,true,0253_fc_dnn_true_car_35_n04285008_5525.png,n04285008_5525.png,1.0,3.2368908,-0.78512263,2.8439932
alexnet_w3_mlp_simclrhn_probe0,1,254,NaN,knife,knife,true,0254_fc_dnn_true_knife_35_n03041632_29343.png,n03041632_29343.png,1.0,-3.3857024,-6.615497,2.28381
alexnet_w3_mlp_simclrhn_probe0,1,255,NaN,oven,knife,true,0255_fc_dnn_true_knife_35_n03041632_86338.png,n03041632_86338.png,0.0,-3.181618,-0.6688955,-1.7767632
alexnet_w3_mlp_simclrhn_probe0,1,256,NaN,keyboard,keyboard,false,0256_fc_dnn_false_keyboard_35_n03085013_20691.png,n03085013_20691.png,1.0,3.8001463,1.5456874,1.5941432
alexnet_w3_mlp_simclrhn_probe0,1,257,NaN,cat,cat,true,0257_fc_dnn_true_cat_35_n02124075_1957.png,n02124075_1957.png,1.0,-3.136547,-5.7422657,1.8425213
alexnet_w3_mlp_simclrhn_probe0,1,258,NaN,bear,bear,false,0258_fc_dnn_false_bear_35_n02134418_195.png,n02134418_195.png,1.0,0.80145395,-0.30863905,0.7849543
alexnet_w3_mlp_simclrhn_probe0,1,259,NaN,chair,chair,true,0259_fc_dnn_true_chair_35_n02791124_1376.png,n02791124_1376.png,1.0,-0.6712017,-2.4224005,1.2382846
alexnet_w3_mlp_simclrhn_probe0,1,260,NaN,elephant,elephant,false,0260_fc_dnn_false_elephant_35_n02504458_8060.png,n02504458_8060.png,1.0,4.330127,-3.356129,5.4350033
alexnet_w3_mlp_simclrhn_probe0,1,261,NaN,oven,oven,false,0261_fc_dnn_false_oven_35_n04111531_6479.png,n04111531_6479.png,1.0,0.67225593,-4.420832,3.6013572
alexnet_w3_mlp_simclrhn_probe0,1,262,NaN,bear,bear,true,0262_fc_dnn_true_bear_35_n02132136_4070.png,n02132136_4070.png,1.0,-0.56867486,-0.74756247,0.12649263
alexnet_w3_mlp_simclrhn_probe0,1,263,NaN,cat,cat,false,0263_fc_dnn_false_cat_35_n02123597_1153.png,n02123597_1153.png,1.0,-1.1810842,-2.0093155,0.585648
alexnet_w3_mlp_simclrhn_probe0,1,264,NaN,truck,truck,false,0264_fc_dnn_false_truck_35_n04467665_49656.png,n04467665_49656.png,1.0,3.3156233,1.6089643,1.2067901
alexnet_w3_mlp_simclrhn_probe0,1,265,NaN,dog,dog,true,0265_fc_dnn_true_dog_35_n02108915_10239.png,n02108915_10239.png,1.0,-1.1719102,-6.5198092,3.7815356
alexnet_w3_mlp_simclrhn_probe0,1,266,NaN,chair,chair,false,0266_fc_dnn_false_chair_35_n04429376_6835.png,n04429376_6835.png,1.0,-1.2311257,-1.7988211,0.40142125
alexnet_w3_mlp_simclrhn_probe0,1,267,NaN,truck,truck,true,0267_fc_dnn_true_truck_35_n04467665_54079.png,n04467665_54079.png,1.0,-2.0218575,-2.4479213,0.3012726
alexnet_w3_mlp_simclrhn_probe0,1,268,NaN,clock,clock,false,0268_fc_dnn_false_clock_35_n03196217_4464.png,n03196217_4464.png,1.0,5.993418,2.0193272,2.8101068
alexnet_w3_mlp_simclrhn_probe0,1,269,NaN,dog,dog,true,0269_fc_dnn_true_dog_35_n02102318_9359.png,n02102318_9359.png,1.0,-0.20144771,-1.1443343,0.6667215
alexnet_w3_mlp_simclrhn_probe0,1,270,NaN,bicycle,bicycle,true,0270_fc_dnn_true_bicycle_35_n03792782_12578.png,n03792782_12578.png,1.0,1.8247805,-6.952965,6.2068033
alexnet_w3_mlp_simclrhn_probe0,1,271,NaN,bicycle,bicycle,true,0271_fc_dnn_true_bicycle_35_n02835271_12752.png,n02835271_12752.png,1.0,6.823619,-4.9806733,8.346895
alexnet_w3_mlp_simclrhn_probe0,1,272,NaN,oven,oven,true,0272_fc_dnn_true_oven_35_n04111531_20056.png,n04111531_20056.png,1.0,0.8931123,-4.71616,3.9663544
alexnet_w3_mlp_simclrhn_probe0,1,273,NaN,oven,oven,true,0273_fc_dnn_true_oven_35_n04111531_12510.png,n04111531_12510.png,1.0,0.11133829,-5.802852,4.181964
alexnet_w3_mlp_simclrhn_probe0,1,274,NaN,oven,oven,false,0274_fc_dnn_false_oven_35_n04111531_11079.png,n04111531_11079.png,1.0,4.95285,-1.6584857,4.6749206
alexnet_w3_mlp_simclrhn_probe0,1,275,NaN,cat,cat,true,0275_fc_dnn_true_cat_35_n02124075_4377.png,n02124075_4377.png,1.0,-1.0446519,-4.4412975,2.401791
alexnet_w3_mlp_simclrhn_probe0,1,276,NaN,airplane,knife,true,0276_fc_dnn_true_knife_35_n03041632_20517.png,n03041632_20517.png,0.0,0.26542363,0.65861267,-0.27802664
alexnet_w3_mlp_simclrhn_probe0,1,277,NaN,knife,knife,false,0277_fc_dnn_false_knife_35_n03041632_362.png,n03041632_362.png,1.0,-1.386459,-6.0484796,3.2965465
alexnet_w3_mlp_simclrhn_probe0,1,278,NaN,airplane,airplane,false,0278_fc_dnn_false_airplane_35_n02690373_6807.png,n02690373_6807.png,1.0,5.847907,2.2055163,2.5755591
alexnet_w3_mlp_simclrhn_probe0,1,279,NaN,elephant,elephant,false,0279_fc_dnn_false_elephant_35_n02504013_1494.png,n02504013_1494.png,1.0,8.825712,1.5399039,5.1518445
alexnet_w3_mlp_simclrhn_probe0,1,280,NaN,oven,oven,false,0280_fc_dnn_false_oven_35_n04111531_3181.png,n04111531_3181.png,1.0,-4.79558,-6.856321,1.4571639
alexnet_w3_mlp_simclrhn_probe0,1,281,NaN,car,truck,false,0281_fc_dnn_false_truck_35_n03796401_6727.png,n03796401_6727.png,0.0,7.048612,8.80959,-1.2451997
alexnet_w3_mlp_simclrhn_probe0,1,282,NaN,elephant,dog,true,0282_fc_dnn_true_dog_35_n02113023_6956.png,n02113023_6956.png,0.0,-3.2867973,-1.7554655,-1.082815
alexnet_w3_mlp_simclrhn_probe0,1,283,NaN,bicycle,elephant,false,0283_fc_dnn_false_elephant_35_n02504013_1519.png,n02504013_1519.png,0.0,-6.808277,-5.4211693,-0.9808334
alexnet_w3_mlp_simclrhn_probe0,1,284,NaN,oven,oven,false,0284_fc_dnn_false_oven_35_n04111531_8082.png,n04111531_8082.png,1.0,-0.78779006,-1.0640742,0.19536236
alexnet_w3_mlp_simclrhn_probe0,1,285,NaN,oven,oven,false,0285_fc_dnn_false_oven_35_n04111531_550.png,n04111531_550.png,1.0,1.6444827,-1.5239549,2.2404237
alexnet_w3_mlp_simclrhn_probe0,1,286,NaN,elephant,clock,false,0286_fc_dnn_false_clock_35_n02708093_2242.png,n02708093_2242.png,0.0,-7.15844,-4.9476957,-1.5632324
alexnet_w3_mlp_simclrhn_probe0,1,287,NaN,airplane,airplane,true,0287_fc_dnn_true_airplane_35_n02690373_10809.png,n02690373_10809.png,1.0,8.290583,-1.1117554,6.648457
alexnet_w3_mlp_simclrhn_probe0,1,288,NaN,bird,bird,false,0288_fc_dnn_false_bird_35_n02037110_6501.png,n02037110_6501.png,1.0,2.8431113,-5.235139,5.7121854
alexnet_w3_mlp_simclrhn_probe0,1,289,NaN,airplane,airplane,false,0289_fc_dnn_false_airplane_35_n02690373_12756.png,n02690373_12756.png,1.0,5.867987,-0.14324197,4.250581
alexnet_w3_mlp_simclrhn_probe0,1,290,NaN,elephant,bottle,false,0290_fc_dnn_false_bottle_35_n03983396_5413.png,n03983396_5413.png,0.0,-2.7938044,-1.7233913,-0.7568964
alexnet_w3_mlp_simclrhn_probe0,1,291,NaN,bird,bird,true,0291_fc_dnn_true_bird_35_n01560419_631.png,n01560419_631.png,1.0,0.6365614,-5.71919,4.494195
alexnet_w3_mlp_simclrhn_probe0,1,292,NaN,knife,cat,true,0292_fc_dnn_true_cat_35_n02123394_4734.png,n02123394_4734.png,0.0,-3.8884277,-1.3302444,-1.8089087
alexnet_w3_mlp_simclrhn_probe0,1,293,NaN,bottle,bottle,true,0293_fc_dnn_true_bottle_35_n03937543_469.png,n03937543_469.png,1.0,-2.37949,-3.5004258,0.7926214
alexnet_w3_mlp_simclrhn_probe0,1,294,NaN,clock,clock,true,0294_fc_dnn_true_clock_35_n04548280_1055.png,n04548280_1055.png,1.0,0.6370563,-3.1050878,2.6460955
alexnet_w3_mlp_simclrhn_probe0,1,295,NaN,chair,chair,true,0295_fc_dnn_true_chair_35_n02791124_15934.png,n02791124_15934.png,1.0,-3.6401913,-4.1710653,0.37538463
alexnet_w3_mlp_simclrhn_probe0,1,296,NaN,cat,keyboard,true,0296_fc_dnn_true_keyboard_35_n03085013_22187.png,n03085013_22187.png,0.0,-7.6331754,-0.18803258,-5.264511
alexnet_w3_mlp_simclrhn_probe0,1,297,NaN,dog,dog,false,0297_fc_dnn_false_dog_35_n02099601_8560.png,n02099601_8560.png,1.0,-1.783639,-2.2135437,0.30398855
alexnet_w3_mlp_simclrhn_probe0,1,298,NaN,truck,truck,true,0298_fc_dnn_true_truck_35_n03417042_11091.png,n03417042_11091.png,1.0,6.553688,2.6255214,2.7776332
alexnet_w3_mlp_simclrhn_probe0,1,299,NaN,bicycle,bird,true,0299_fc_dnn_true_bird_35_n02013706_7132.png,n02013706_7132.png,0.0,-3.357954,-1.9320757,-1.0082482
alexnet_w3_mlp_simclrhn_probe0,1,300,NaN,car,car,false,0300_fc_dnn_false_car_35_n02814533_4978.png,n02814533_4978.png,1.0,0.5345114,-0.22772762,0.53898436
alexnet_w3_mlp_simclrhn_probe0,1,301,NaN,bear,bear,true,0301_fc_dnn_true_bear_35_n02134418_6244.png,n02134418_6244.png,1.0,0.79330575,-2.032023,1.9978092
alexnet_w3_mlp_simclrhn_probe0,1,302,NaN,bicycle,bicycle,false,0302_fc_dnn_false_bicycle_35_n03792782_50569.png,n03792782_50569.png,1.0,8.242467,-3.6656675,8.420322
alexnet_w3_mlp_simclrhn_probe0,1,303,NaN,car,car,true,0303_fc_dnn_true_car_35_n03100240_2632.png,n03100240_2632.png,1.0,6.576698,2.885037,2.6103985
alexnet_w3_mlp_simclrhn_probe0,1,304,NaN,knife,knife,false,0304_fc_dnn_false_knife_35_n03041632_11285.png,n03041632_11285.png,1.0,0.49116892,-2.807654,2.3326201
alexnet_w3_mlp_simclrhn_probe0,1,305,NaN,knife,knife,false,0305_fc_dnn_false_knife_35_n03041632_39952.png,n03041632_39952.png,1.0,3.108855,-3.3198934,4.5458117
alexnet_w3_mlp_simclrhn_probe0,1,306,NaN,knife,chair,true,0306_fc_dnn_true_chair_35_n04099969_9745.png,n04099969_9745.png,0.0,-2.2309496,-1.7216203,-0.36015022
alexnet_w3_mlp_simclrhn_probe0,1,307,NaN,car,car,true,0307_fc_dnn_true_car_35_n03100240_49.png,n03100240_49.png,1.0,12.244858,8.758123,2.4654937
alexnet_w3_mlp_simclrhn_probe0,1,308,NaN,cat,bird,true,0308_fc_dnn_true_bird_35_n01817953_5953.png,n01817953_5953.png,0.0,-7.0787272,-7.0710435,-0.005433235
alexnet_w3_mlp_simclrhn_probe0,1,309,NaN,bear,bear,false,0309_fc_dnn_false_bear_35_n02134418_5253.png,n02134418_5253.png,1.0,2.131631,-0.41560748,1.8011695
alexnet_w3_mlp_simclrhn_probe0,1,310,NaN,bicycle,bicycle,false,0310_fc_dnn_false_bicycle_35_n03792782_7576.png,n03792782_7576.png,1.0,4.875289,-6.4268265,7.9918027
alexnet_w3_mlp_simclrhn_probe0,1,311,NaN,clock,keyboard,true,0311_fc_dnn_true_keyboard_35_n03085013_5157.png,n03085013_5157.png,0.0,-1.58791,1.6781024,-2.3094196
alexnet_w3_mlp_simclrhn_probe0,1,312,NaN,clock,boat,true,0312_fc_dnn_true_boat_35_n03344393_7050.png,n03344393_7050.png,0.0,-2.1085212,-0.9495156,-0.81954074
alexnet_w3_mlp_simclrhn_probe0,1,313,NaN,bicycle,bicycle,false,0313_fc_dnn_false_bicycle_35_n03792782_51335.png,n03792782_51335.png,1.0,3.2379868,-6.9648485,7.214494
alexnet_w3_mlp_simclrhn_probe0,1,314,NaN,cat,cat,true,0314_fc_dnn_true_cat_35_n02124075_7230.png,n02124075_7230.png,1.0,-1.8971523,-5.8915915,2.824495
alexnet_w3_mlp_simclrhn_probe0,1,315,NaN,airplane,truck,true,0315_fc_dnn_true_truck_35_n04467665_68020.png,n04467665_68020.png,0.0,-1.4060214,2.5338378,-2.785901
alexnet_w3_mlp_simclrhn_probe0,1,316,NaN,elephant,elephant,true,0316_fc_dnn_true_elephant_35_n02504458_2970.png,n02504458_2970.png,1.0,-0.9070083,-2.6004376,1.1974354
alexnet_w3_mlp_simclrhn_probe0,1,317,NaN,bicycle,bicycle,false,0317_fc_dnn_false_bicycle_35_n02835271_2714.png,n02835271_2714.png,1.0,5.8125095,-4.8006024,7.5046034
alexnet_w3_mlp_simclrhn_probe0,1,318,NaN,elephant,elephant,true,0318_fc_dnn_true_elephant_35_n02504013_3307.png,n02504013_3307.png,1.0,4.645215,0.6666034,2.8133035
alexnet_w3_mlp_simclrhn_probe0,1,319,NaN,truck,truck,true,0319_fc_dnn_true_truck_35_n03796401_3940.png,n03796401_3940.png,1.0,5.130521,2.1015208,2.1418264
alexnet_w3_mlp_simclrhn_probe0,1,320,NaN,oven,chair,false,0320_fc_dnn_false_chair_35_n04429376_5362.png,n04429376_5362.png,0.0,-0.2253089,2.4094708,-1.8630706
alexnet_w3_mlp_simclrhn_probe0,1,321,NaN,cat,cat,false,0321_fc_dnn_false_cat_35_n02123159_1165.png,n02123159_1165.png,1.0,-0.45290336,-2.7198417,1.6029676
alexnet_w3_mlp_simclrhn_probe0,1,322,NaN,airplane,boat,true,0322_fc_dnn_true_boat_35_n03662601_4665.png,n03662601_4665.png,0.0,1.8641676,2.1384432,-0.19394219
alexnet_w3_mlp_simclrhn_probe0,1,323,NaN,cat,cat,true,0323_fc_dnn_true_cat_35_n02124075_5067.png,n02124075_5067.png,1.0,1.1265864,-4.6914697,4.113987
alexnet_w3_mlp_simclrhn_probe0,1,324,NaN,knife,knife,true,0324_fc_dnn_true_knife_35_n03041632_22480.png,n03041632_22480.png,1.0,-3.8609633,-6.5663943,1.9130286
alexnet_w3_mlp_simclrhn_probe0,1,325,NaN,bicycle,bottle,false,0325_fc_dnn_false_bottle_35_n04560804_2539.png,n04560804_2539.png,0.0,-5.607979,-0.3842536,-3.6937315
alexnet_w3_mlp_simclrhn_probe0,1,326,NaN,oven,oven,true,0326_fc_dnn_true_oven_35_n04111531_8681.png,n04111531_8681.png,1.0,0.5088839,-3.3872757,2.755001
alexnet_w3_mlp_simclrhn_probe0,1,327,NaN,car,car,false,0327_fc_dnn_false_car_35_n03100240_23804.png,n03100240_23804.png,1.0,10.628655,6.1922913,3.1369832
alexnet_w3_mlp_simclrhn_probe0,1,328,NaN,oven,oven,true,0328_fc_dnn_true_oven_35_n04111531_547.png,n04111531_547.png,1.0,5.198588,-1.767787,4.925971
alexnet_w3_mlp_simclrhn_probe0,1,329,NaN,boat,boat,false,0329_fc_dnn_false_boat_35_n04273569_9873.png,n04273569_9873.png,1.0,3.6969376,-0.6702871,3.0880942
alexnet_w3_mlp_simclrhn_probe0,1,330,NaN,cat,cat,false,0330_fc_dnn_false_cat_35_n02123597_13140.png,n02123597_13140.png,1.0,-1.4326638,-3.7780986,1.6584728
alexnet_w3_mlp_simclrhn_probe0,1,331,NaN,bear,bear,true,0331_fc_dnn_true_bear_35_n02134418_1330.png,n02134418_1330.png,1.0,0.22230968,-2.261253,1.756144
alexnet_w3_mlp_simclrhn_probe0,1,332,NaN,truck,chair,false,0332_fc_dnn_false_chair_35_n04429376_6272.png,n04429376_6272.png,0.0,-2.4717789,-1.2061894,-0.89490694
alexnet_w3_mlp_simclrhn_probe0,1,333,NaN,bear,bear,false,0333_fc_dnn_false_bear_35_n02134084_22997.png,n02134084_22997.png,1.0,-1.6900066,-4.1216793,1.7194521
alexnet_w3_mlp_simclrhn_probe0,1,334,NaN,oven,clock,false,0334_fc_dnn_false_clock_35_n03196217_3508.png,n03196217_3508.png,0.0,-0.8152136,2.8394651,-2.5842483
alexnet_w3_mlp_simclrhn_probe0,1,335,NaN,truck,chair,true,0335_fc_dnn_true_chair_35_n02791124_958.png,n02791124_958.png,0.0,-3.3516784,-1.8973457,-1.0283686
alexnet_w3_mlp_simclrhn_probe0,1,336,NaN,boat,boat,false,0336_fc_dnn_false_boat_35_n03344393_4012.png,n03344393_4012.png,1.0,1.7358267,0.29882872,1.016111
alexnet_w3_mlp_simclrhn_probe0,1,337,NaN,airplane,airplane,true,0337_fc_dnn_true_airplane_35_n02690373_4921.png,n02690373_4921.png,1.0,10.280513,0.44701123,6.953336
alexnet_w3_mlp_simclrhn_probe0,1,338,NaN,bear,cat,false,0338_fc_dnn_false_cat_35_n02125311_28052.png,n02125311_28052.png,0.0,-1.0813326,-0.90487725,-0.12477276
alexnet_w3_mlp_simclrhn_probe0,1,339,NaN,airplane,airplane,false,0339_fc_dnn_false_airplane_35_n02690373_1837.png,n02690373_1837.png,1.0,1.1593685,-2.4424973,2.5469038
alexnet_w3_mlp_simclrhn_probe0,1,340,NaN,elephant,elephant,false,0340_fc_dnn_false_elephant_35_n02504458_5191.png,n02504458_5191.png,1.0,7.2159567,-2.4175076,6.811888
alexnet_w3_mlp_simclrhn_probe0,1,341,NaN,bird,bird,false,0341_fc_dnn_false_bird_35_n01855672_2187.png,n01855672_2187.png,1.0,-2.2151659,-4.172832,1.384279
alexnet_w3_mlp_simclrhn_probe0,1,342,NaN,clock,clock,true,0342_fc_dnn_true_clock_35_n04548280_7794.png,n04548280_7794.png,1.0,6.0279145,-5.0571203,7.8383036
alexnet_w3_mlp_simclrhn_probe0,1,343,NaN,keyboard,clock,false,0343_fc_dnn_false_clock_35_n03196217_8489.png,n03196217_8489.png,0.0,-6.523327,-2.4538097,-2.8775833
alexnet_w3_mlp_simclrhn_probe0,1,344,NaN,knife,knife,false,0344_fc_dnn_false_knife_35_n03041632_21590.png,n03041632_21590.png,1.0,-2.864434,-3.9360483,0.75774574
alexnet_w3_mlp_simclrhn_probe0,1,345,NaN,elephant,elephant,false,0345_fc_dnn_false_elephant_35_n02504458_1249.png,n02504458_1249.png,1.0,11.290897,-5.107546,11.59545
alexnet_w3_mlp_simclrhn_probe0,1,346,NaN,keyboard,keyboard,false,0346_fc_dnn_false_keyboard_35_n04505470_4549.png,n04505470_4549.png,1.0,3.1208835,1.0691271,1.4508109
alexnet_w3_mlp_simclrhn_probe0,1,347,NaN,elephant,elephant,false,0347_fc_dnn_false_elephant_35_n02504013_3771.png,n02504013_3771.png,1.0,3.8635712,-3.8043268,5.422023
alexnet_w3_mlp_simclrhn_probe0,1,348,NaN,bicycle,bicycle,true,0348_fc_dnn_true_bicycle_35_n02835271_19552.png,n02835271_19552.png,1.0,9.10819,-1.0405847,7.176267
alexnet_w3_mlp_simclrhn_probe0,1,349,NaN,elephant,bear,true,0349_fc_dnn_true_bear_35_n02134084_4477.png,n02134084_4477.png,0.0,-5.2710123,-3.375039,-1.3406556
alexnet_w3_mlp_simclrhn_probe0,1,350,NaN,elephant,elephant,false,0350_fc_dnn_false_elephant_35_n02504013_10149.png,n02504013_10149.png,1.0,13.736893,-1.3024328,10.634409
alexnet_w3_mlp_simclrhn_probe0,1,351,NaN,boat,boat,true,0351_fc_dnn_true_boat_35_n04273569_709.png,n04273569_709.png,1.0,4.6403656,3.252731,0.9812058
alexnet_w3_mlp_simclrhn_probe0,1,352,NaN,car,car,false,0352_fc_dnn_false_car_35_n03100240_7120.png,n03100240_7120.png,1.0,12.214379,6.6339364,3.945969
alexnet_w3_mlp_simclrhn_probe0,1,353,NaN,car,boat,false,0353_fc_dnn_false_boat_35_n02951358_12867.png,n02951358_12867.png,0.0,-2.7795143,4.6036377,-5.220677
alexnet_w3_mlp_simclrhn_probe0,1,354,NaN,bird,bird,true,0354_fc_dnn_true_bird_35_n01558993_38999.png,n01558993_38999.png,1.0,-0.45742705,-7.1994896,4.7673583
alexnet_w3_mlp_simclrhn_probe0,1,355,NaN,bicycle,bicycle,false,0355_fc_dnn_false_bicycle_35_n03792782_4210.png,n03792782_4210.png,1.0,2.6561935,-2.658287,3.7579055
alexnet_w3_mlp_simclrhn_probe0,1,356,NaN,dog,dog,false,0356_fc_dnn_false_dog_35_n02102318_11997.png,n02102318_11997.png,1.0,-0.8848932,-0.99595946,0.07853572
alexnet_w3_mlp_simclrhn_probe0,1,357,NaN,knife,clock,false,0357_fc_dnn_false_clock_35_n02708093_6813.png,n02708093_6813.png,0.0,-7.071635,-3.6691024,-2.4059536
alexnet_w3_mlp_simclrhn_probe0,1,358,NaN,oven,oven,false,0358_fc_dnn_false_oven_35_n04111531_8036.png,n04111531_8036.png,1.0,3.8049157,-5.358081,6.479217
alexnet_w3_mlp_simclrhn_probe0,1,359,NaN,clock,clock,false,0359_fc_dnn_false_clock_35_n02708093_3454.png,n02708093_3454.png,1.0,13.06963,0.4281459,8.938879
alexnet_w3_mlp_simclrhn_probe0,1,360,NaN,keyboard,keyboard,true,0360_fc_dnn_true_keyboard_35_n03085013_21641.png,n03085013_21641.png,1.0,12.66312,-2.7700617,10.912908
alexnet_w3_mlp_simclrhn_probe0,1,361,NaN,oven,chair,false,0361_fc_dnn_false_chair_35_n02791124_139.png,n02791124_139.png,0.0,-4.211816,-4.0666857,-0.102622524
alexnet_w3_mlp_simclrhn_probe0,1,362,NaN,cat,bear,false,0362_fc_dnn_false_bear_35_n02134084_6821.png,n02134084_6821.png,0.0,-3.5355244,-2.172424,-0.9638575
alexnet_w3_mlp_simclrhn_probe0,1,363,NaN,cat,cat,false,0363_fc_dnn_false_cat_35_n02124075_5874.png,n02124075_5874.png,1.0,1.9104029,-3.6777735,3.9514375
alexnet_w3_mlp_simclrhn_probe0,1,364,NaN,chair,chair,false,0364_fc_dnn_false_chair_35_n04099969_8604.png,n04099969_8604.png,1.0,-0.066727996,-2.1023517,1.4394033
alexnet_w3_mlp_simclrhn_probe0,1,365,NaN,bicycle,bicycle,true,0365_fc_dnn_true_bicycle_35_n02835271_15524.png,n02835271_15524.png,1.0,8.047739,-3.2296524,7.97432
alexnet_w3_mlp_simclrhn_probe0,1,366,NaN,chair,chair,false,0366_fc_dnn_false_chair_35_n04429376_55163.png,n04429376_55163.png,1.0,0.7045981,-4.048276,3.3607895
alexnet_w3_mlp_simclrhn_probe0,1,367,NaN,dog,dog,true,0367_fc_dnn_true_dog_35_n02106662_10632.png,n02106662_10632.png,1.0,0.9214192,-1.3671107,1.618235
alexnet_w3_mlp_simclrhn_probe0,1,368,NaN,car,car,false,0368_fc_dnn_false_car_35_n03100240_9675.png,n03100240_9675.png,1.0,10.0728035,3.8222427,4.419814
alexnet_w3_mlp_simclrhn_probe0,1,369,NaN,bird,bird,true,0369_fc_dnn_true_bird_35_n02011460_22291.png,n02011460_22291.png,1.0,0.66539836,-5.373158,4.269904
alexnet_w3_mlp_simclrhn_probe0,1,370,NaN,cat,dog,false,0370_fc_dnn_false_dog_35_n02106662_56099.png,n02106662_56099.png,0.0,-4.110885,-0.044153493,-2.8756135
alexnet_w3_mlp_simclrhn_probe0,1,371,NaN,keyboard,keyboard,false,0371_fc_dnn_false_keyboard_35_n04505470_3970.png,n04505470_3970.png,1.0,11.907558,0.9379191,7.7567067
alexnet_w3_mlp_simclrhn_probe0,1,372,NaN,boat,boat,false,0372_fc_dnn_false_boat_35_n03662601_32803.png,n03662601_32803.png,1.0,5.7606134,-1.0655096,4.826798
alexnet_w3_mlp_simclrhn_probe0,1,373,NaN,bottle,bottle,false,0373_fc_dnn_false_bottle_35_n02823428_4043.png,n02823428_4043.png,1.0,3.679036,-4.1048503,5.504039
alexnet_w3_mlp_simclrhn_probe0,1,374,NaN,airplane,airplane,true,0374_fc_dnn_true_airplane_35_n02690373_5221.png,n02690373_5221.png,1.0,12.134075,-0.529573,8.954552
alexnet_w3_mlp_simclrhn_probe0,1,375,NaN,bottle,knife,false,0375_fc_dnn_false_knife_35_n03041632_90125.png,n03041632_90125.png,0.0,-4.1868677,-1.4232725,-1.9541569
alexnet_w3_mlp_simclrhn_probe0,1,376,NaN,oven,oven,false,0376_fc_dnn_false_oven_35_n04111531_11230.png,n04111531_11230.png,1.0,5.35728,-1.6705819,4.9694486
alexnet_w3_mlp_simclrhn_probe0,1,377,NaN,keyboard,keyboard,true,0377_fc_dnn_true_keyboard_35_n04505470_3002.png,n04505470_3002.png,1.0,-2.5267475,-4.857399,1.6480196
alexnet_w3_mlp_simclrhn_probe0,1,378,NaN,bicycle,bicycle,true,0378_fc_dnn_true_bicycle_35_n02835271_12237.png,n02835271_12237.png,1.0,3.9199116,-4.774813,6.148099
alexnet_w3_mlp_simclrhn_probe0,1,379,NaN,oven,dog,false,0379_fc_dnn_false_dog_35_n02088238_9947.png,n02088238_9947.png,0.0,-8.279826,-3.2087073,-3.5858226
alexnet_w3_mlp_simclrhn_probe0,1,380,NaN,airplane,airplane,false,0380_fc_dnn_false_airplane_35_n02690373_2075.png,n02690373_2075.png,1.0,-0.1760963,-1.4019939,0.8668405
alexnet_w3_mlp_simclrhn_probe0,1,381,NaN,bicycle,bicycle,false,0381_fc_dnn_false_bicycle_35_n02835271_12930.png,n02835271_12930.png,1.0,8.549074,-4.967701,9.557803
alexnet_w3_mlp_simclrhn_probe0,1,382,NaN,dog,dog,false,0382_fc_dnn_false_dog_35_n02096294_4609.png,n02096294_4609.png,1.0,-3.0871618,-3.487525,0.28309953
alexnet_w3_mlp_simclrhn_probe0,1,383,NaN,knife,knife,false,0383_fc_dnn_false_knife_35_n03041632_15754.png,n03041632_15754.png,1.0,-0.5350095,-1.1525471,0.43666506
alexnet_w3_mlp_simclrhn_probe0,1,384,NaN,elephant,bird,true,0384_fc_dnn_true_bird_35_n01819313_5634.png,n01819313_5634.png,0.0,-1.5928512,-1.3755805,-0.15363352
alexnet_w3_mlp_simclrhn_probe0,1,385,NaN,clock,clock,true,0385_fc_dnn_true_clock_35_n02708093_8386.png,n02708093_8386.png,1.0,2.2713687,-1.7933146,2.8741653
alexnet_w3_mlp_simclrhn_probe0,1,386,NaN,bottle,bottle,false,0386_fc_dnn_false_bottle_35_n04579145_6435.png,n04579145_6435.png,1.0,4.030116,0.71036917,2.3474157
alexnet_w3_mlp_simclrhn_probe0,1,387,NaN,airplane,airplane,true,0387_fc_dnn_true_airplane_35_n02690373_9531.png,n02690373_9531.png,1.0,4.2187176,-0.24287641,3.1548235
alexnet_w3_mlp_simclrhn_probe0,1,388,NaN,chair,bottle,true,0388_fc_dnn_true_bottle_35_n04591713_5518.png,n04591713_5518.png,0.0,-3.2447033,-2.6577141,-0.41506404
alexnet_w3_mlp_simclrhn_probe0,1,389,NaN,airplane,airplane,false,0389_fc_dnn_false_airplane_35_n02690373_12896.png,n02690373_12896.png,1.0,6.501801,-1.3302099,5.538068
alexnet_w3_mlp_simclrhn_probe0,1,390,NaN,truck,truck,false,0390_fc_dnn_false_truck_35_n03796401_124.png,n03796401_124.png,1.0,-0.5486381,-1.6958185,0.8111791
alexnet_w3_mlp_simclrhn_probe0,1,391,NaN,bicycle,bicycle,true,0391_fc_dnn_true_bicycle_35_n03792782_7050.png,n03792782_7050.png,1.0,-0.59070367,-2.215477,1.1488882
alexnet_w3_mlp_simclrhn_probe0,1,392,NaN,bicycle,bicycle,true,0392_fc_dnn_true_bicycle_35_n02835271_13729.png,n02835271_13729.png,1.0,6.400391,-3.4022992,6.931549
alexnet_w3_mlp_simclrhn_probe0,1,393,NaN,bird,bird,false,0393_fc_dnn_false_bird_35_n02027492_3922.png,n02027492_3922.png,1.0,-0.112622015,-1.3290797,0.86016554
alexnet_w3_mlp_simclrhn_probe0,1,394,NaN,elephant,elephant,true,0394_fc_dnn_true_elephant_35_n02504013_9809.png,n02504013_9809.png,1.0,6.0853944,-4.404794,7.4176836
alexnet_w3_mlp_simclrhn_probe0,1,395,NaN,keyboard,keyboard,false,0395_fc_dnn_false_keyboard_35_n04505470_5086.png,n04505470_5086.png,1.0,3.9157312,-0.5046555,3.1256855
alexnet_w3_mlp_simclrhn_probe0,1,396,NaN,knife,keyboard,true,0396_fc_dnn_true_keyboard_35_n03085013_19439.png,n03085013_19439.png,0.0,-1.734757,-0.8007161,-0.6604666
alexnet_w3_mlp_simclrhn_probe0,1,397,NaN,airplane,airplane,false,0397_fc_dnn_false_airplane_35_n02690373_9926.png,n02690373_9926.png,1.0,6.9187922,-1.9535443,6.2736893
alexnet_w3_mlp_simclrhn_probe0,1,398,NaN,elephant,elephant,true,0398_fc_dnn_true_elephant_35_n02504458_3197.png,n02504458_3197.png,1.0,13.177015,0.7513959,8.78624
alexnet_w3_mlp_simclrhn_probe0,1,399,NaN,dog,dog,false,0399_fc_dnn_false_dog_35_n02110185_14056.png,n02110185_14056.png,1.0,-0.28678364,-3.8702185,2.5338712
alexnet_w3_mlp_simclrhn_probe0,1,400,NaN,airplane,airplane,true,0400_fc_dnn_true_airplane_35_n02690373_2823.png,n02690373_2823.png,1.0,12.2734165,2.4213357,6.9664736
alexnet_w3_mlp_simclrhn_probe0,1,401,NaN,bicycle,bicycle,false,0401_fc_dnn_false_bicycle_35_n02835271_14157.png,n02835271_14157.png,1.0,14.655375,-5.7666383,14.440543
alexnet_w3_mlp_simclrhn_probe0,1,402,NaN,chair,chair,true,0402_fc_dnn_true_chair_35_n03376595_606.png,n03376595_606.png,1.0,-1.2062974,-1.7916877,0.4139335
alexnet_w3_mlp_simclrhn_probe0,1,403,NaN,airplane,airplane,false,0403_fc_dnn_false_airplane_35_n02690373_1442.png,n02690373_1442.png,1.0,4.0978727,-2.646745,4.769165
alexnet_w3_mlp_simclrhn_probe0,1,404,NaN,keyboard,keyboard,true,0404_fc_dnn_true_keyboard_35_n04505470_10035.png,n04505470_10035.png,1.0,4.270481,-0.64241403,3.4739416
alexnet_w3_mlp_simclrhn_probe0,1,405,NaN,bear,bear,true,0405_fc_dnn_true_bear_35_n02133161_13278.png,n02133161_13278.png,1.0,0.7713725,0.47984797,0.20613897
alexnet_w3_mlp_simclrhn_probe0,1,406,NaN,elephant,bear,true,0406_fc_dnn_true_bear_35_n02134418_2657.png,n02134418_2657.png,0.0,-1.2875333,-0.90608144,-0.2697272
alexnet_w3_mlp_simclrhn_probe0,1,407,NaN,bear,bear,false,0407_fc_dnn_false_bear_35_n02133161_12894.png,n02133161_12894.png,1.0,-0.13213113,-3.4784336,2.3661933
alexnet_w3_mlp_simclrhn_probe0,1,408,NaN,car,clock,false,0408_fc_dnn_false_clock_35_n03196217_6195.png,n03196217_6195.png,0.0,1.9801173,4.018218,-1.4411548
alexnet_w3_mlp_simclrhn_probe0,1,409,NaN,bottle,bottle,true,0409_fc_dnn_true_bottle_35_n04591713_13349.png,n04591713_13349.png,1.0,4.974213,-1.1400845,4.3234615
alexnet_w3_mlp_simclrhn_probe0,1,410,NaN,boat,boat,false,0410_fc_dnn_false_boat_35_n04273569_16295.png,n04273569_16295.png,1.0,0.77841765,0.07168801,0.49973333
alexnet_w3_mlp_simclrhn_probe0,1,411,NaN,elephant,elephant,false,0411_fc_dnn_false_elephant_35_n02504013_2672.png,n02504013_2672.png,1.0,5.7286005,-3.1335962,6.2665195
alexnet_w3_mlp_simclrhn_probe0,1,412,NaN,bear,bear,true,0412_fc_dnn_true_bear_35_n02134084_22292.png,n02134084_22292.png,1.0,-0.002922833,-2.3818922,1.6821854
alexnet_w3_mlp_simclrhn_probe0,1,413,NaN,airplane,airplane,false,0413_fc_dnn_false_airplane_35_n02690373_997.png,n02690373_997.png,1.0,9.023399,0.75620186,5.845792
alexnet_w3_mlp_simclrhn_probe0,1,414,NaN,knife,knife,true,0414_fc_dnn_true_knife_35_n03041632_29337.png,n03041632_29337.png,1.0,-2.908939,-4.522593,1.1410258
alexnet_w3_mlp_simclrhn_probe0,1,415,NaN,elephant,elephant,true,0415_fc_dnn_true_elephant_35_n02504458_3261.png,n02504458_3261.png,1.0,2.5852218,-2.1589322,3.3546236
alexnet_w3_mlp_simclrhn_probe0,1,416,NaN,oven,oven,true,0416_fc_dnn_true_oven_35_n04111531_22120.png,n04111531_22120.png,1.0,5.1153417,0.45594168,3.2946935
alexnet_w3_mlp_simclrhn_probe0,1,417,NaN,bear,bear,true,0417_fc_dnn_true_bear_35_n02134418_830.png,n02134418_830.png,1.0,0.33248645,-1.4943545,1.2917717
alexnet_w3_mlp_simclrhn_probe0,1,418,NaN,truck,truck,false,0418_fc_dnn_false_truck_35_n03417042_2124.png,n03417042_2124.png,1.0,4.5859528,1.8647351,1.9241915
alexnet_w3_mlp_simclrhn_probe0,1,419,NaN,bicycle,bicycle,false,0419_fc_dnn_false_bicycle_35_n02835271_14585.png,n02835271_14585.png,1.0,6.621109,-3.5773044,7.2113676
alexnet_w3_mlp_simclrhn_probe0,1,420,NaN,oven,oven,true,0420_fc_dnn_true_oven_35_n04111531_2855.png,n04111531_2855.png,1.0,2.4079401,-5.4058867,5.52521
alexnet_w3_mlp_simclrhn_probe0,1,421,NaN,cat,cat,false,0421_fc_dnn_false_cat_35_n02123394_4383.png,n02123394_4383.png,1.0,-0.6829431,-1.2466208,0.3985803
alexnet_w3_mlp_simclrhn_probe0,1,422,NaN,cat,cat,true,0422_fc_dnn_true_cat_35_n02125311_17068.png,n02125311_17068.png,1.0,-0.99485797,-2.059911,0.7531062
alexnet_w3_mlp_simclrhn_probe0,1,423,NaN,bird,bird,false,0423_fc_dnn_false_bird_35_n01560419_2291.png,n01560419_2291.png,1.0,1.9462485,-3.7567935,4.0326595
alexnet_w3_mlp_simclrhn_probe0,1,424,NaN,bird,bird,false,0424_fc_dnn_false_bird_35_n01829413_2459.png,n01829413_2459.png,1.0,-3.2049258,-4.9797974,1.2550237
alexnet_w3_mlp_simclrhn_probe0,1,425,NaN,oven,oven,true,0425_fc_dnn_true_oven_35_n04111531_13822.png,n04111531_13822.png,1.0,4.6883993,-4.6069183,6.572782
alexnet_w3_mlp_simclrhn_probe0,1,426,NaN,bear,bear,false,0426_fc_dnn_false_bear_35_n02133161_5067.png,n02133161_5067.png,1.0,4.2711797,0.53601027,2.6411636
alexnet_w3_mlp_simclrhn_probe0,1,427,NaN,knife,chair,false,0427_fc_dnn_false_chair_35_n02791124_885.png,n02791124_885.png,0.0,-2.8239453,-2.2461267,-0.40857947
alexnet_w3_mlp_simclrhn_probe0,1,428,NaN,cat,dog,true,0428_fc_dnn_true_dog_35_n02107312_7182.png,n02107312_7182.png,0.0,-3.8257613,-1.5756912,-1.5910399
alexnet_w3_mlp_simclrhn_probe0,1,429,NaN,airplane,truck,true,0429_fc_dnn_true_truck_35_n04467665_13989.png,n04467665_13989.png,0.0,0.21012089,0.54970396,-0.2401215
alexnet_w3_mlp_simclrhn_probe0,1,430,NaN,bicycle,dog,true,0430_fc_dnn_true_dog_35_n02102480_10232.png,n02102480_10232.png,0.0,-3.4750817,-0.9600138,-1.7784215
alexnet_w3_mlp_simclrhn_probe0,1,431,NaN,oven,oven,false,0431_fc_dnn_false_oven_35_n04111531_643.png,n04111531_643.png,1.0,9.090111,-0.333653,6.6636076
alexnet_w3_mlp_simclrhn_probe0,1,432,NaN,boat,boat,true,0432_fc_dnn_true_boat_35_n02951358_31514.png,n02951358_31514.png,1.0,-0.17041273,-0.25584984,0.060413156
alexnet_w3_mlp_simclrhn_probe0,1,433,NaN,oven,oven,true,0433_fc_dnn_true_oven_35_n04111531_1898.png,n04111531_1898.png,1.0,7.248326,0.069768906,5.0760064
alexnet_w3_mlp_simclrhn_probe0,1,434,NaN,car,car,true,0434_fc_dnn_true_car_35_n03100240_5865.png,n03100240_5865.png,1.0,5.798475,0.33019003,3.8666613
alexnet_w3_mlp_simclrhn_probe0,1,435,NaN,keyboard,keyboard,true,0435_fc_dnn_true_keyboard_35_n04505470_4369.png,n04505470_4369.png,1.0,11.987682,0.5062083,8.1186285
alexnet_w3_mlp_simclrhn_probe0,1,436,NaN,cat,cat,false,0436_fc_dnn_false_cat_35_n02123394_1942.png,n02123394_1942.png,1.0,-0.7066882,-4.310499,2.5482793
alexnet_w3_mlp_simclrhn_probe0,1,437,NaN,car,car,true,0437_fc_dnn_true_car_35_n04285008_2900.png,n04285008_2900.png,1.0,4.379604,2.476891,1.3454212
alexnet_w3_mlp_simclrhn_probe0,1,438,NaN,airplane,airplane,true,0438_fc_dnn_true_airplane_35_n02690373_10926.png,n02690373_10926.png,1.0,7.829504,-0.6557812,6.0000024
alexnet_w3_mlp_simclrhn_probe0,1,439,NaN,knife,knife,true,0439_fc_dnn_true_knife_35_n03041632_11613.png,n03041632_11613.png,1.0,-3.2551603,-4.1387315,0.62477916
alexnet_w3_mlp_simclrhn_probe0,1,440,NaN,knife,knife,true,0440_fc_dnn_true_knife_35_n03041632_24817.png,n03041632_24817.png,1.0,-3.2160833,-5.771547,1.8069856
alexnet_w3_mlp_simclrhn_probe0,1,441,NaN,bicycle,bicycle,true,0441_fc_dnn_true_bicycle_35_n02835271_3042.png,n02835271_3042.png,1.0,7.2355666,-6.208176,9.506162
alexnet_w3_mlp_simclrhn_probe0,1,442,NaN,dog,dog,true,0442_fc_dnn_true_dog_35_n02102177_7737.png,n02102177_7737.png,1.0,-1.07971,-1.7760799,0.4924079
alexnet_w3_mlp_simclrhn_probe0,1,443,NaN,oven,oven,true,0443_fc_dnn_true_oven_35_n04111531_21460.png,n04111531_21460.png,1.0,-0.40103337,-4.4246645,2.845137
alexnet_w3_mlp_simclrhn_probe0,1,444,NaN,chair,keyboard,false,0444_fc_dnn_false_keyboard_35_n04505470_7388.png,n04505470_7388.png,0.0,-3.2072191,-1.3495033,-1.3136035
alexnet_w3_mlp_simclrhn_probe0,1,445,NaN,bird,bird,true,0445_fc_dnn_true_bird_35_n01828970_25642.png,n01828970_25642.png,1.0,2.2754045,-3.0746539,3.7830627
alexnet_w3_mlp_simclrhn_probe0,1,446,NaN,bicycle,bicycle,false,0446_fc_dnn_false_bicycle_35_n02835271_608.png,n02835271_608.png,1.0,-0.95501715,-5.517651,3.2262695
alexnet_w3_mlp_simclrhn_probe0,1,447,NaN,airplane,boat,true,0447_fc_dnn_true_boat_35_n04273569_26182.png,n04273569_26182.png,0.0,3.2401452,3.8801582,-0.45255753
alexnet_w3_mlp_simclrhn_probe0,1,448,NaN,cat,cat,false,0448_fc_dnn_false_cat_35_n02123045_9384.png,n02123045_9384.png,1.0,0.68292856,-3.6832576,3.08736
alexnet_w3_mlp_simclrhn_probe0,1,449,NaN,airplane,airplane,true,0449_fc_dnn_true_airplane_35_n02690373_9529.png,n02690373_9529.png,1.0,10.394217,-2.8429115,9.360064
alexnet_w3_mlp_simclrhn_probe0,1,450,NaN,knife,cat,true,0450_fc_dnn_true_cat_35_n02123597_5081.png,n02123597_5081.png,0.0,-6.0996284,-4.2178917,-1.3305888
alexnet_w3_mlp_simclrhn_probe0,1,451,NaN,oven,oven,false,0451_fc_dnn_false_oven_35_n04111531_4998.png,n04111531_4998.png,1.0,3.6088595,-4.593901,5.8002276
alexnet_w3_mlp_simclrhn_probe0,1,452,NaN,clock,clock,true,0452_fc_dnn_true_clock_35_n04548280_1245.png,n04548280_1245.png,1.0,4.3448815,-0.051440753,3.1086693
alexnet_w3_mlp_simclrhn_probe0,1,453,NaN,bicycle,dog,true,0453_fc_dnn_true_dog_35_n02104365_8609.png,n02104365_8609.png,0.0,-4.555718,-3.6573167,-0.63526565
alexnet_w3_mlp_simclrhn_probe0,1,454,NaN,clock,clock,false,0454_fc_dnn_false_clock_35_n02708093_6414.png,n02708093_6414.png,1.0,3.9392776,-3.1982114,5.046967
alexnet_w3_mlp_simclrhn_probe0,1,455,NaN,bird,bird,true,0455_fc_dnn_true_bird_35_n01798484_9155.png,n01798484_9155.png,1.0,-4.5810513,-5.9436374,0.9634938
alexnet_w3_mlp_simclrhn_probe0,1,456,NaN,bicycle,oven,true,0456_fc_dnn_true_oven_35_n04111531_10724.png,n04111531_10724.png,0.0,-5.283518,0.9003186,-4.372633
alexnet_w3_mlp_simclrhn_probe0,1,457,NaN,boat,boat,true,0457_fc_dnn_true_boat_35_n02951358_32687.png,n02951358_32687.png,1.0,0.17162956,0.07167045,0.070681766
alexnet_w3_mlp_simclrhn_probe0,1,458,NaN,bicycle,bicycle,true,0458_fc_dnn_true_bicycle_35_n02835271_31.png,n02835271_31.png,1.0,3.1694183,-4.265217,5.257081
alexnet_w3_mlp_simclrhn_probe0,1,459,NaN,elephant,bottle,true,0459_fc_dnn_true_bottle_35_n04557648_4420.png,n04557648_4420.png,0.0,-5.107471,-4.0438514,-0.75209266
alexnet_w3_mlp_simclrhn_probe0,1,460,NaN,bear,bear,true,0460_fc_dnn_true_bear_35_n02133161_713.png,n02133161_713.png,1.0,4.844614,1.7696517,2.174327
alexnet_w3_mlp_simclrhn_probe0,1,461,NaN,airplane,airplane,false,0461_fc_dnn_false_airplane_35_n02690373_5967.png,n02690373_5967.png,1.0,6.2385373,-1.9389521,5.782358
alexnet_w3_mlp_simclrhn_probe0,1,462,NaN,bird,bird,true,0462_fc_dnn_true_bird_35_n01795545_4502.png,n01795545_4502.png,1.0,-0.598598,-2.6381671,1.4421932
alexnet_w3_mlp_simclrhn_probe0,1,463,NaN,bear,cat,true,0463_fc_dnn_true_cat_35_n02124075_11466.png,n02124075_11466.png,0.0,-2.922284,-1.5648729,-0.9598346
alexnet_w3_mlp_simclrhn_probe0,1,464,NaN,clock,keyboard,true,0464_fc_dnn_true_keyboard_35_n03085013_21769.png,n03085013_21769.png,0.0,-2.4909177,-1.1539046,-0.9454111
alexnet_w3_mlp_simclrhn_probe0,1,465,NaN,car,car,false,0465_fc_dnn_false_car_35_n03100240_15097.png,n03100240_15097.png,1.0,-1.1076299,-1.6452588,0.38016105
alexnet_w3_mlp_simclrhn_probe0,1,466,NaN,bear,dog,false,0466_fc_dnn_false_dog_35_n02093647_3072.png,n02093647_3072.png,0.0,-4.023671,-1.691868,-1.648834
alexnet_w3_mlp_simclrhn_probe0,1,467,NaN,bicycle,bicycle,false,0467_fc_dnn_false_bicycle_35_n02835271_12701.png,n02835271_12701.png,1.0,3.2791643,-0.6647013,2.7887342
alexnet_w3_mlp_simclrhn_probe0,1,468,NaN,dog,bear,false,0468_fc_dnn_false_bear_35_n02134084_3227.png,n02134084_3227.png,0.0,-2.6530662,-1.6810125,-0.68734574
alexnet_w3_mlp_simclrhn_probe0,1,469,NaN,cat,cat,true,0469_fc_dnn_true_cat_35_n02123394_5001.png,n02123394_5001.png,1.0,-0.8548984,-4.2153697,2.3762121
alexnet_w3_mlp_simclrhn_probe0,1,470,NaN,keyboard,keyboard,true,0470_fc_dnn_true_keyboard_35_n03085013_6862.png,n03085013_6862.png,1.0,1.8447584,-1.9803772,2.7047794
alexnet_w3_mlp_simclrhn_probe0,1,471,NaN,chair,chair,true,0471_fc_dnn_true_chair_35_n04099969_45461.png,n04099969_45461.png,1.0,1.1811727,-1.3978181,1.823622
alexnet_w3_mlp_simclrhn_probe0,1,472,NaN,bicycle,bicycle,false,0472_fc_dnn_false_bicycle_35_n03792782_485.png,n03792782_485.png,1.0,3.148315,-3.9882839,5.046337
alexnet_w3_mlp_simclrhn_probe0,1,473,NaN,chair,oven,true,0473_fc_dnn_true_oven_35_n04111531_1674.png,n04111531_1674.png,0.0,-1.5282692,-0.6516288,-0.61987835
alexnet_w3_mlp_simclrhn_probe0,1,474,NaN,airplane,airplane,true,0474_fc_dnn_true_airplane_35_n02690373_866.png,n02690373_866.png,1.0,12.028197,-2.834113,10.509241
alexnet_w3_mlp_simclrhn_probe0,1,475,NaN,oven,oven,false,0475_fc_dnn_false_oven_35_n04111531_9297.png,n04111531_9297.png,1.0,-1.5709343,-4.4249725,2.0181098
alexnet_w3_mlp_simclrhn_probe0,1,476,NaN,elephant,elephant,false,0476_fc_dnn_false_elephant_35_n02504458_6878.png,n02504458_6878.png,1.0,5.643915,-2.4138918,5.69773
alexnet_w3_mlp_simclrhn_probe0,1,477,NaN,car,car,true,0477_fc_dnn_true_car_35_n03100240_3151.png,n03100240_3151.png,1.0,2.0954745,0.9409919,0.8163425
alexnet_w3_mlp_simclrhn_probe0,1,478,NaN,airplane,airplane,false,0478_fc_dnn_false_airplane_35_n02690373_6363.png,n02690373_6363.png,1.0,7.7084985,0.57716954,5.042611
alexnet_w3_mlp_simclrhn_probe0,1,479,NaN,car,car,true,0479_fc_dnn_true_car_35_n04285008_15049.png,n04285008_15049.png,1.0,5.773117,2.797208,2.1042855
alexnet_w3_mlp_simclrhn_probe0,1,480,NaN,oven,truck,true,0480_fc_dnn_true_truck_35_n04467665_2505.png,n04467665_2505.png,0.0,-5.3339715,-4.388818,-0.6683246
alexnet_w3_mlp_simclrhn_probe0,1,481,NaN,bicycle,bottle,true,0481_fc_dnn_true_bottle_35_n04591713_4030.png,n04591713_4030.png,0.0,-7.7196193,-3.9364357,-2.6751149
alexnet_w3_mlp_simclrhn_probe0,1,482,NaN,oven,oven,true,0482_fc_dnn_true_oven_35_n04111531_12929.png,n04111531_12929.png,1.0,0.34223613,-2.9346926,2.3171384
alexnet_w3_mlp_simclrhn_probe0,1,483,NaN,cat,cat,true,0483_fc_dnn_true_cat_35_n02125311_53315.png,n02125311_53315.png,1.0,-0.88476926,-1.5306344,0.45669562
alexnet_w3_mlp_simclrhn_probe0,1,484,NaN,cat,dog,true,0484_fc_dnn_true_dog_35_n02087046_4409.png,n02087046_4409.png,0.0,-6.5239797,-5.2008576,-0.9355886
alexnet_w3_mlp_simclrhn_probe0,1,485,NaN,oven,oven,false,0485_fc_dnn_false_oven_35_n04111531_21120.png,n04111531_21120.png,1.0,4.216091,-1.4274203,3.990565
alexnet_w3_mlp_simclrhn_probe0,1,486,NaN,elephant,elephant,false,0486_fc_dnn_false_elephant_35_n02504013_5934.png,n02504013_5934.png,1.0,0.6131076,-1.139141,1.2390268
alexnet_w3_mlp_simclrhn_probe0,1,487,NaN,car,car,true,0487_fc_dnn_true_car_35_n04285008_3631.png,n04285008_3631.png,1.0,2.5735657,0.3916502,1.5428473
alexnet_w3_mlp_simclrhn_probe0,1,488,NaN,clock,clock,true,0488_fc_dnn_true_clock_35_n03196217_7663.png,n03196217_7663.png,1.0,1.3014523,-0.1019748,0.9923729
alexnet_w3_mlp_simclrhn_probe0,1,489,NaN,bear,bicycle,false,0489_fc_dnn_false_bicycle_35_n03792782_801.png,n03792782_801.png,0.0,-0.86388624,0.16064903,-0.7244559
alexnet_w3_mlp_simclrhn_probe0,1,490,NaN,elephant,bear,false,0490_fc_dnn_false_bear_35_n02133161_6983.png,n02133161_6983.png,0.0,-1.3046453,-1.0836768,-0.15624832
alexnet_w3_mlp_simclrhn_probe0,1,491,NaN,keyboard,keyboard,true,0491_fc_dnn_true_keyboard_35_n03085013_20825.png,n03085013_20825.png,1.0,9.786038,1.3803355,5.9437294
alexnet_w3_mlp_simclrhn_probe0,1,492,NaN,clock,clock,true,0492_fc_dnn_true_clock_35_n03196217_1219.png,n03196217_1219.png,1.0,-0.60957384,-1.3439109,0.51925474
alexnet_w3_mlp_simclrhn_probe0,1,493,NaN,airplane,airplane,true,0493_fc_dnn_true_airplane_35_n02690373_18864.png,n02690373_18864.png,1.0,5.8267794,2.4772778,2.3684554
alexnet_w3_mlp_simclrhn_probe0,1,494,NaN,knife,airplane,false,0494_fc_dnn_false_airplane_35_n02690373_1019.png,n02690373_1019.png,0.0,-0.2510455,0.86399364,-0.78845173
alexnet_w3_mlp_simclrhn_probe0,1,495,NaN,bird,bird,true,0495_fc_dnn_true_bird_35_n02013706_10478.png,n02013706_10478.png,1.0,-2.595473,-9.006161,4.5330405
alexnet_w3_mlp_simclrhn_probe0,1,496,NaN,cat,bear,true,0496_fc_dnn_true_bear_35_n02132136_258.png,n02132136_258.png,0.0,-0.98939353,-0.9380865,-0.036279544
alexnet_w3_mlp_simclrhn_probe0,1,497,NaN,bird,chair,false,0497_fc_dnn_false_chair_35_n04099969_16350.png,n04099969_16350.png,0.0,-11.968645,-6.275498,-4.025663
alexnet_w3_mlp_simclrhn_probe0,1,498,NaN,chair,chair,true,0498_fc_dnn_true_chair_35_n04099969_16456.png,n04099969_16456.png,1.0,1.7379128,-1.1668888,2.054005
alexnet_w3_mlp_simclrhn_probe0,1,499,NaN,bottle,bottle,false,0499_fc_dnn_false_bottle_35_n03983396_12027.png,n03983396_12027.png,1.0,-0.19421618,-3.4663863,2.3137736
alexnet_w3_mlp_simclrhn_probe0,1,500,NaN,chair,chair,true,0500_fc_dnn_true_chair_35_n02791124_5438.png,n02791124_5438.png,1.0,1.9033377,-2.5005615,3.114027
alexnet_w3_mlp_simclrhn_probe0,1,501,NaN,elephant,elephant,true,0501_fc_dnn_true_elephant_35_n02504458_4939.png,n02504458_4939.png,1.0,7.025819,-0.43496448,5.275571
alexnet_w3_mlp_simclrhn_probe0,1,502,NaN,keyboard,keyboard,false,0502_fc_dnn_false_keyboard_35_n04505470_2600.png,n04505470_2600.png,1.0,4.449233,-4.4615693,6.300889
alexnet_w3_mlp_simclrhn_probe0,1,503,NaN,chair,chair,true,0503_fc_dnn_true_chair_35_n03376595_7394.png,n03376595_7394.png,1.0,-1.0106637,-2.0358949,0.72494787
alexnet_w3_mlp_simclrhn_probe0,1,504,NaN,bicycle,bicycle,false,0504_fc_dnn_false_bicycle_35_n02835271_9772.png,n02835271_9772.png,1.0,-3.2046711,-4.9849153,1.2588227
alexnet_w3_mlp_simclrhn_probe0,1,505,NaN,car,car,true,0505_fc_dnn_true_car_35_n02814533_55937.png,n02814533_55937.png,1.0,4.1754494,0.86564386,2.340386
alexnet_w3_mlp_simclrhn_probe0,1,506,NaN,airplane,airplane,true,0506_fc_dnn_true_airplane_35_n02690373_3920.png,n02690373_3920.png,1.0,4.5772533,2.2957907,1.6132377
alexnet_w3_mlp_simclrhn_probe0,1,507,NaN,oven,oven,false,0507_fc_dnn_false_oven_35_n04111531_6400.png,n04111531_6400.png,1.0,-0.51098907,-5.641542,3.6278486
alexnet_w3_mlp_simclrhn_probe0,1,508,NaN,bicycle,truck,false,0508_fc_dnn_false_truck_35_n03417042_4587.png,n03417042_4587.png,0.0,-3.322363,2.2698164,-3.954268
alexnet_w3_mlp_simclrhn_probe0,1,509,NaN,bicycle,knife,true,0509_fc_dnn_true_knife_35_n03041632_31849.png,n03041632_31849.png,0.0,-3.8585243,-0.8647332,-2.11693
alexnet_w3_mlp_simclrhn_probe0,1,510,NaN,bear,cat,true,0510_fc_dnn_true_cat_35_n02125311_8541.png,n02125311_8541.png,0.0,-3.7458684,-2.215755,-1.0819536
alexnet_w3_mlp_simclrhn_probe0,1,511,NaN,airplane,airplane,true,0511_fc_dnn_true_airplane_35_n02690373_2162.png,n02690373_2162.png,1.0,11.725886,3.2811005,5.9713655
alexnet_w3_mlp_simclrhn_probe0,1,512,NaN,dog,dog,true,0512_fc_dnn_true_dog_35_n02108551_11297.png,n02108551_11297.png,1.0,0.7913573,0.63621515,0.10970205
alexnet_w3_mlp_simclrhn_probe0,1,513,NaN,car,car,true,0513_fc_dnn_true_car_35_n02814533_34396.png,n02814533_34396.png,1.0,12.968403,8.299046,3.3017342
alexnet_w3_mlp_simclrhn_probe0,1,514,NaN,elephant,elephant,true,0514_fc_dnn_true_elephant_35_n02504013_6431.png,n02504013_6431.png,1.0,2.57745,-0.8448197,2.4199102
alexnet_w3_mlp_simclrhn_probe0,1,515,NaN,bicycle,bicycle,false,0515_fc_dnn_false_bicycle_35_n03792782_51723.png,n03792782_51723.png,1.0,0.2912924,-3.897706,2.962069
alexnet_w3_mlp_simclrhn_probe0,1,516,NaN,dog,dog,false,0516_fc_dnn_false_dog_35_n02093754_5867.png,n02093754_5867.png,1.0,-0.9137039,-1.6785526,0.5408297
alexnet_w3_mlp_simclrhn_probe0,1,517,NaN,chair,clock,true,0517_fc_dnn_true_clock_35_n04548280_3245.png,n04548280_3245.png,0.0,-3.8894434,-3.4526281,-0.30887502
alexnet_w3_mlp_simclrhn_probe0,1,518,NaN,airplane,airplane,true,0518_fc_dnn_true_airplane_35_n02690373_9762.png,n02690373_9762.png,1.0,7.1679397,0.54879063,4.680445
alexnet_w3_mlp_simclrhn_probe0,1,519,NaN,airplane,bird,true,0519_fc_dnn_true_bird_35_n02002724_2909.png,n02002724_2909.png,0.0,0.58759433,2.9906435,-1.6992124
alexnet_w3_mlp_simclrhn_probe0,1,520,NaN,dog,bottle,true,0520_fc_dnn_true_bottle_35_n04557648_10123.png,n04557648_10123.png,0.0,-6.7588706,-4.8611617,-1.3418828
alexnet_w3_mlp_simclrhn_probe0,1,521,NaN,elephant,elephant,true,0521_fc_dnn_true_elephant_35_n02504013_5432.png,n02504013_5432.png,1.0,3.2742796,-1.0396643,3.050419
alexnet_w3_mlp_simclrhn_probe0,1,522,NaN,cat,cat,false,0522_fc_dnn_false_cat_35_n02123597_4998.png,n02123597_4998.png,1.0,-1.8891501,-3.889113,1.4141873
alexnet_w3_mlp_simclrhn_probe0,1,523,NaN,bottle,bottle,true,0523_fc_dnn_true_bottle_35_n04557648_11594.png,n04557648_11594.png,1.0,-0.30507126,-1.3115146,0.71166295
alexnet_w3_mlp_simclrhn_probe0,1,524,NaN,clock,clock,false,0524_fc_dnn_false_clock_35_n03196217_2567.png,n03196217_2567.png,1.0,-2.3213558,-2.394063,0.051411737
alexnet_w3_mlp_simclrhn_probe0,1,525,NaN,knife,truck,false,0525_fc_dnn_false_truck_35_n03796401_9136.png,n03796401_9136.png,0.0,-5.962226,-1.0267739,-3.4898915
alexnet_w3_mlp_simclrhn_probe0,1,526,NaN,boat,boat,false,0526_fc_dnn_false_boat_35_n03344393_8492.png,n03344393_8492.png,1.0,7.327811,-3.0395398,7.330824
alexnet_w3_mlp_simclrhn_probe0,1,527,NaN,cat,cat,false,0527_fc_dnn_false_cat_35_n02123159_8267.png,n02123159_8267.png,1.0,-2.3340795,-7.6673737,3.7712083
alexnet_w3_mlp_simclrhn_probe0,1,528,NaN,knife,bottle,false,0528_fc_dnn_false_bottle_35_n04557648_12039.png,n04557648_12039.png,0.0,-5.751443,-3.8757071,-1.3263454
alexnet_w3_mlp_simclrhn_probe0,1,529,NaN,keyboard,keyboard,false,0529_fc_dnn_false_keyboard_35_n04505470_2828.png,n04505470_2828.png,1.0,10.057558,-1.148166,7.9236436
alexnet_w3_mlp_simclrhn_probe0,1,530,NaN,boat,boat,true,0530_fc_dnn_true_boat_35_n02951358_31198.png,n02951358_31198.png,1.0,-0.43227044,-2.4724483,1.4426236
alexnet_w3_mlp_simclrhn_probe0,1,531,NaN,oven,oven,false,0531_fc_dnn_false_oven_35_n04111531_5801.png,n04111531_5801.png,1.0,-1.7721064,-5.9026084,2.9207058
alexnet_w3_mlp_simclrhn_probe0,1,532,NaN,bicycle,bicycle,false,0532_fc_dnn_false_bicycle_35_n02835271_9672.png,n02835271_9672.png,1.0,4.1375256,-5.892477,7.092283
alexnet_w3_mlp_simclrhn_probe0,1,533,NaN,keyboard,keyboard,false,0533_fc_dnn_false_keyboard_35_n03085013_23865.png,n03085013_23865.png,1.0,-0.48026627,-0.853944,0.26423007
alexnet_w3_mlp_simclrhn_probe0,1,534,NaN,keyboard,bottle,true,0534_fc_dnn_true_bottle_35_n04591713_7133.png,n04591713_7133.png,0.0,-1.7373327,4.596921,-4.478994
alexnet_w3_mlp_simclrhn_probe0,1,535,NaN,car,car,true,0535_fc_dnn_true_car_35_n04285008_10006.png,n04285008_10006.png,1.0,10.137047,3.9947329,4.3432717
alexnet_w3_mlp_simclrhn_probe0,1,536,NaN,airplane,airplane,true,0536_fc_dnn_true_airplane_35_n02690373_2431.png,n02690373_2431.png,1.0,2.962717,0.05401392,2.0567636
alexnet_w3_mlp_simclrhn_probe0,1,537,NaN,boat,boat,true,0537_fc_dnn_true_boat_35_n04612504_15440.png,n04612504_15440.png,1.0,0.19259422,-2.032867,1.5736388
alexnet_w3_mlp_simclrhn_probe0,1,538,NaN,bicycle,bicycle,true,0538_fc_dnn_true_bicycle_35_n02835271_5648.png,n02835271_5648.png,1.0,0.9973453,-5.151984,4.3482327
alexnet_w3_mlp_simclrhn_probe0,1,539,NaN,airplane,airplane,false,0539_fc_dnn_false_airplane_35_n02690373_3173.png,n02690373_3173.png,1.0,10.57527,1.1877177,6.638002
alexnet_w3_mlp_simclrhn_probe0,1,540,NaN,oven,oven,false,0540_fc_dnn_false_oven_35_n04111531_82.png,n04111531_82.png,1.0,3.951514,-3.692999,5.405487
alexnet_w3_mlp_simclrhn_probe0,1,541,NaN,chair,chair,false,0541_fc_dnn_false_chair_35_n02791124_2057.png,n02791124_2057.png,1.0,-4.222442,-5.0370374,0.5760058
alexnet_w3_mlp_simclrhn_probe0,1,542,NaN,elephant,elephant,true,0542_fc_dnn_true_elephant_35_n02504458_12175.png,n02504458_12175.png,1.0,-2.2506895,-5.1514606,2.051155
alexnet_w3_mlp_simclrhn_probe0,1,543,NaN,boat,boat,false,0543_fc_dnn_false_boat_35_n03344393_6869.png,n03344393_6869.png,1.0,0.32888857,-1.1302004,1.0317317
alexnet_w3_mlp_simclrhn_probe0,1,544,NaN,truck,truck,false,0544_fc_dnn_false_truck_35_n03417042_1000.png,n03417042_1000.png,1.0,-0.1421346,-2.5585897,1.7086917
alexnet_w3_mlp_simclrhn_probe0,1,545,NaN,airplane,boat,true,0545_fc_dnn_true_boat_35_n03344393_6890.png,n03344393_6890.png,0.0,-0.063020706,0.19118491,-0.17975052
alexnet_w3_mlp_simclrhn_probe0,1,546,NaN,elephant,elephant,false,0546_fc_dnn_false_elephant_35_n02504458_4139.png,n02504458_4139.png,1.0,2.2083182,-2.9951892,3.6794355
alexnet_w3_mlp_simclrhn_probe0,1,547,NaN,bear,bear,false,0547_fc_dnn_false_bear_35_n02132136_7231.png,n02132136_7231.png,1.0,6.1300077,-1.2723873,5.234284
alexnet_w3_mlp_simclrhn_probe0,1,548,NaN,elephant,bird,false,0548_fc_dnn_false_bird_35_n01860187_1815.png,n01860187_1815.png,0.0,-4.4769287,0.76868904,-3.709212
alexnet_w3_mlp_simclrhn_probe0,1,549,NaN,knife,keyboard,true,0549_fc_dnn_true_keyboard_35_n03085013_18891.png,n03085013_18891.png,0.0,-2.9644423,-1.9030778,-0.750498
alexnet_w3_mlp_simclrhn_probe0,1,550,NaN,bird,bird,false,0550_fc_dnn_false_bird_35_n01828970_2276.png,n01828970_2276.png,1.0,-1.8242314,-6.5219774,3.3218083
alexnet_w3_mlp_simclrhn_probe0,1,551,NaN,elephant,elephant,false,0551_fc_dnn_false_elephant_35_n02504013_1720.png,n02504013_1720.png,1.0,6.7522764,0.5530928,4.383485
alexnet_w3_mlp_simclrhn_probe0,1,552,NaN,knife,knife,false,0552_fc_dnn_false_knife_35_n03041632_16104.png,n03041632_16104.png,1.0,-0.7351146,-3.280321,1.7997327
alexnet_w3_mlp_simclrhn_probe0,1,553,NaN,chair,chair,false,0553_fc_dnn_false_chair_35_n03376595_635.png,n03376595_635.png,1.0,-0.26138282,-0.6970127,0.30803686
alexnet_w3_mlp_simclrhn_probe0,1,554,NaN,bottle,bottle,true,0554_fc_dnn_true_bottle_35_n03983396_6116.png,n03983396_6116.png,1.0,2.163675,-2.384381,3.2159615
alexnet_w3_mlp_simclrhn_probe0,1,555,NaN,dog,dog,true,0555_fc_dnn_true_dog_35_n02113624_2530.png,n02113624_2530.png,1.0,-1.0390422,-1.3186452,0.19770919
alexnet_w3_mlp_simclrhn_probe0,1,556,NaN,bird,bird,true,0556_fc_dnn_true_bird_35_n01592084_3972.png,n01592084_3972.png,1.0,-4.7114153,-5.33713,0.4424472
alexnet_w3_mlp_simclrhn_probe0,1,557,NaN,airplane,airplane,true,0557_fc_dnn_true_airplane_35_n02690373_5130.png,n02690373_5130.png,1.0,0.51612276,-0.51918894,0.7320759
alexnet_w3_mlp_simclrhn_probe0,1,558,NaN,airplane,bird,true,0558_fc_dnn_true_bird_35_n01833805_7514.png,n01833805_7514.png,0.0,-1.026928,0.695955,-1.2182623
alexnet_w3_mlp_simclrhn_probe0,1,559,NaN,truck,truck,false,0559_fc_dnn_false_truck_35_n03417042_16238.png,n03417042_16238.png,1.0,1.7851777,0.8212257,0.681617
alexnet_w3_mlp_simclrhn_probe0,1,560,NaN,keyboard,keyboard,true,0560_fc_dnn_true_keyboard_35_n04505470_8620.png,n04505470_8620.png,1.0,7.656753,4.4632516,2.2581465
alexnet_w3_mlp_simclrhn_probe0,1,561,NaN,clock,clock,true,0561_fc_dnn_true_clock_35_n03196217_7888.png,n03196217_7888.png,1.0,3.1899273,2.8205147,0.2612142
alexnet_w3_mlp_simclrhn_probe0,1,562,NaN,knife,bottle,true,0562_fc_dnn_true_bottle_35_n04591713_5411.png,n04591713_5411.png,0.0,-5.997711,-4.160247,-1.2992835
alexnet_w3_mlp_simclrhn_probe0,1,563,NaN,clock,clock,false,0563_fc_dnn_false_clock_35_n03196217_2639.png,n03196217_2639.png,1.0,2.1083777,0.76204956,0.95199776
alexnet_w3_mlp_simclrhn_probe0,1,564,NaN,elephant,elephant,true,0564_fc_dnn_true_elephant_35_n02504458_6437.png,n02504458_6437.png,1.0,-0.057060763,-1.5096122,1.027109
alexnet_w3_mlp_simclrhn_probe0,1,565,NaN,truck,truck,true,0565_fc_dnn_true_truck_35_n03417042_27586.png,n03417042_27586.png,1.0,4.2312665,-0.4003195,3.275026
alexnet_w3_mlp_simclrhn_probe0,1,566,NaN,chair,keyboard,false,0566_fc_dnn_false_keyboard_35_n03085013_24124.png,n03085013_24124.png,0.0,-7.689295,-2.442847,-3.7097988
alexnet_w3_mlp_simclrhn_probe0,1,567,NaN,airplane,cat,false,0567_fc_dnn_false_cat_35_n02123597_9663.png,n02123597_9663.png,0.0,-7.335111,-3.7171798,-2.5582638
alexnet_w3_mlp_simclrhn_probe0,1,568,NaN,keyboard,keyboard,true,0568_fc_dnn_true_keyboard_35_n04505470_1833.png,n04505470_1833.png,1.0,0.0784502,-0.9585006,0.733235
alexnet_w3_mlp_simclrhn_probe0,1,569,NaN,car,car,true,0569_fc_dnn_true_car_35_n04285008_4109.png,n04285008_4109.png,1.0,10.894729,5.563506,3.7697437
alexnet_w3_mlp_simclrhn_probe0,1,570,NaN,knife,bird,false,0570_fc_dnn_false_bird_35_n01558993_869.png,n01558993_869.png,0.0,-5.5237164,-3.4755988,-1.4482379
alexnet_w3_mlp_simclrhn_probe0,1,571,NaN,truck,truck,true,0571_fc_dnn_true_truck_35_n03796401_6980.png,n03796401_6980.png,1.0,2.5459747,1.2400991,0.92339355
alexnet_w3_mlp_simclrhn_probe0,1,572,NaN,truck,truck,true,0572_fc_dnn_true_truck_35_n03796401_19058.png,n03796401_19058.png,1.0,5.3877273,-0.14629357,3.9131439
alexnet_w3_mlp_simclrhn_probe0,1,573,NaN,elephant,bear,false,0573_fc_dnn_false_bear_35_n02134418_5033.png,n02134418_5033.png,0.0,-4.295426,-1.6590366,-1.8642087
alexnet_w3_mlp_simclrhn_probe0,1,574,NaN,truck,truck,false,0574_fc_dnn_false_truck_35_n03417042_6204.png,n03417042_6204.png,1.0,1.3286048,-3.3651886,3.319013
alexnet_w3_mlp_simclrhn_probe0,1,575,NaN,bicycle,bicycle,true,0575_fc_dnn_true_bicycle_35_n03792782_7388.png,n03792782_7388.png,1.0,-2.712839,-4.5226817,1.2797521
alexnet_w3_mlp_simclrhn_probe0,1,576,NaN,truck,truck,true,0576_fc_dnn_true_truck_35_n03417042_1561.png,n03417042_1561.png,1.0,7.300358,4.0726852,2.2823093
alexnet_w3_mlp_simclrhn_probe0,1,577,NaN,elephant,elephant,true,0577_fc_dnn_true_elephant_35_n02504458_5501.png,n02504458_5501.png,1.0,12.8597145,0.93777627,8.430083
alexnet_w3_mlp_simclrhn_probe0,1,578,NaN,bicycle,boat,true,0578_fc_dnn_true_boat_35_n03662601_34124.png,n03662601_34124.png,0.0,-0.33236703,-0.104605764,-0.16105154
alexnet_w3_mlp_simclrhn_probe0,1,579,NaN,knife,knife,false,0579_fc_dnn_false_knife_35_n03041632_37949.png,n03041632_37949.png,1.0,-3.3931212,-5.793729,1.6974859
alexnet_w3_mlp_simclrhn_probe0,1,580,NaN,airplane,airplane,false,0580_fc_dnn_false_airplane_35_n02690373_13585.png,n02690373_13585.png,1.0,8.870007,-4.0749903,9.153495
alexnet_w3_mlp_simclrhn_probe0,1,581,NaN,elephant,knife,false,0581_fc_dnn_false_knife_35_n03041632_16932.png,n03041632_16932.png,0.0,-5.48703,-3.6552413,-1.2952703
alexnet_w3_mlp_simclrhn_probe0,1,582,NaN,elephant,chair,false,0582_fc_dnn_false_chair_35_n04429376_9501.png,n04429376_9501.png,0.0,-5.4865885,-3.7063003,-1.2588539
alexnet_w3_mlp_simclrhn_probe0,1,583,NaN,bird,bird,false,0583_fc_dnn_false_bird_35_n01532829_10530.png,n01532829_10530.png,1.0,-1.2087117,-5.091574,2.7455986
alexnet_w3_mlp_simclrhn_probe0,1,584,NaN,oven,oven,false,0584_fc_dnn_false_oven_35_n04111531_1562.png,n04111531_1562.png,1.0,-1.3358033,-4.948778,2.554759
alexnet_w3_mlp_simclrhn_probe0,1,585,NaN,keyboard,clock,false,0585_fc_dnn_false_clock_35_n02708093_260.png,n02708093_260.png,0.0,-2.0788333,0.96644807,-2.1533391
alexnet_w3_mlp_simclrhn_probe0,1,586,NaN,bottle,bottle,true,0586_fc_dnn_true_bottle_35_n04579145_1457.png,n04579145_1457.png,1.0,-0.6661239,-3.2319715,1.8143283
alexnet_w3_mlp_simclrhn_probe0,1,587,NaN,chair,chair,true,0587_fc_dnn_true_chair_35_n03376595_9897.png,n03376595_9897.png,1.0,0.24461591,-0.4798488,0.5122739
alexnet_w3_mlp_simclrhn_probe0,1,588,NaN,bird,bird,true,0588_fc_dnn_true_bird_35_n01601694_4224.png,n01601694_4224.png,1.0,-1.3561337,-1.5938184,0.16806848
alexnet_w3_mlp_simclrhn_probe0,1,589,NaN,cat,cat,false,0589_fc_dnn_false_cat_35_n02123159_358.png,n02123159_358.png,1.0,1.4736391,-8.412559,6.9905977
alexnet_w3_mlp_simclrhn_probe0,1,590,NaN,bottle,bottle,true,0590_fc_dnn_true_bottle_35_n03983396_11788.png,n03983396_11788.png,1.0,3.1593819,-2.1025722,3.7207637
alexnet_w3_mlp_simclrhn_probe0,1,591,NaN,cat,cat,true,0591_fc_dnn_true_cat_35_n02124075_8341.png,n02124075_8341.png,1.0,-0.967446,-7.643123,4.7204165
alexnet_w3_mlp_simclrhn_probe0,1,592,NaN,dog,dog,false,0592_fc_dnn_false_dog_35_n02109525_49924.png,n02109525_49924.png,1.0,0.31282106,-0.83004546,0.80812865
alexnet_w3_mlp_simclrhn_probe0,1,593,NaN,elephant,oven,false,0593_fc_dnn_false_oven_35_n04111531_797.png,n04111531_797.png,0.0,-2.1120574,-1.1830763,-0.6568889
alexnet_w3_mlp_simclrhn_probe0,1,594,NaN,bicycle,bicycle,true,0594_fc_dnn_true_bicycle_35_n02835271_15930.png,n02835271_15930.png,1.0,2.7617707,-4.1002,4.852146
alexnet_w3_mlp_simclrhn_probe0,1,595,NaN,knife,knife,true,0595_fc_dnn_true_knife_35_n03041632_13656.png,n03041632_13656.png,1.0,-0.22780919,-3.4978125,2.3122416
alexnet_w3_mlp_simclrhn_probe0,1,596,NaN,knife,clock,false,0596_fc_dnn_false_clock_35_n02708093_8104.png,n02708093_8104.png,0.0,-3.2175052,-1.821737,-0.98695713
alexnet_w3_mlp_simclrhn_probe0,1,597,NaN,knife,truck,true,0597_fc_dnn_true_truck_35_n03796401_3148.png,n03796401_3148.png,0.0,-5.4361277,-1.7785883,-2.586271
alexnet_w3_mlp_simclrhn_probe0,1,598,NaN,bicycle,bottle,false,0598_fc_dnn_false_bottle_35_n04560804_15263.png,n04560804_15263.png,0.0,-8.790014,-5.004163,-2.6770012
alexnet_w3_mlp_simclrhn_probe0,1,599,NaN,airplane,airplane,true,0599_fc_dnn_true_airplane_35_n02690373_5003.png,n02690373_5003.png,1.0,2.740684,-0.99468726,2.6413064
alexnet_w3_mlp_simclrhn_probe0,1,600,NaN,boat,boat,false,0600_fc_dnn_false_boat_35_n03344393_994.png,n03344393_994.png,1.0,-0.4623963,-0.6992476,0.16747917
alexnet_w3_mlp_simclrhn_probe0,1,601,NaN,bicycle,bicycle,true,0601_fc_dnn_true_bicycle_35_n03792782_5959.png,n03792782_5959.png,1.0,5.367675,-4.9398055,7.288489
alexnet_w3_mlp_simclrhn_probe0,1,602,NaN,car,car,false,0602_fc_dnn_false_car_35_n04285008_9383.png,n04285008_9383.png,1.0,3.5509834,-1.3146555,3.4405262
alexnet_w3_mlp_simclrhn_probe0,1,603,NaN,clock,clock,true,0603_fc_dnn_true_clock_35_n03196217_5627.png,n03196217_5627.png,1.0,0.14156055,-0.15472966,0.20950882
alexnet_w3_mlp_simclrhn_probe0,1,604,NaN,bird,bird,true,0604_fc_dnn_true_bird_35_n01534433_13846.png,n01534433_13846.png,1.0,-4.8300495,-5.233435,0.28523672
alexnet_w3_mlp_simclrhn_probe0,1,605,NaN,dog,dog,true,0605_fc_dnn_true_dog_35_n02105056_11269.png,n02105056_11269.png,1.0,-3.9486814,-5.14119,0.843231
alexnet_w3_mlp_simclrhn_probe0,1,606,NaN,airplane,airplane,false,0606_fc_dnn_false_airplane_35_n02690373_9659.png,n02690373_9659.png,1.0,0.34167993,-0.9544447,0.9164986
alexnet_w3_mlp_simclrhn_probe0,1,607,NaN,chair,car,false,0607_fc_dnn_false_car_35_n04285008_3269.png,n04285008_3269.png,0.0,-9.092483,1.5091118,-7.496459
alexnet_w3_mlp_simclrhn_probe0,1,608,NaN,bottle,bottle,true,0608_fc_dnn_true_bottle_35_n02823428_3178.png,n02823428_3178.png,1.0,-1.9474823,-5.028887,2.1788821
alexnet_w3_mlp_simclrhn_probe0,1,609,NaN,elephant,elephant,false,0609_fc_dnn_false_elephant_35_n02504458_4849.png,n02504458_4849.png,1.0,2.1087437,-2.1527755,3.0133493
alexnet_w3_mlp_simclrhn_probe0,1,610,NaN,bear,bear,true,0610_fc_dnn_true_bear_35_n02134418_643.png,n02134418_643.png,1.0,-0.8640653,-2.4147549,1.0965031
alexnet_w3_mlp_simclrhn_probe0,1,611,NaN,boat,boat,true,0611_fc_dnn_true_boat_35_n03344393_7773.png,n03344393_7773.png,1.0,0.4578773,-5.155119,3.9689877
alexnet_w3_mlp_simclrhn_probe0,1,612,NaN,car,car,true,0612_fc_dnn_true_car_35_n02814533_26516.png,n02814533_26516.png,1.0,11.526543,6.3578577,3.6548123
alexnet_w3_mlp_simclrhn_probe0,1,613,NaN,chair,cat,false,0613_fc_dnn_false_cat_35_n02123597_3314.png,n02123597_3314.png,0.0,-6.697951,-2.9316983,-2.6631427
alexnet_w3_mlp_simclrhn_probe0,1,614,NaN,bicycle,bicycle,true,0614_fc_dnn_true_bicycle_35_n02835271_6539.png,n02835271_6539.png,1.0,3.5483308,-6.275384,6.946416
alexnet_w3_mlp_simclrhn_probe0,1,615,NaN,bear,bear,true,0615_fc_dnn_true_bear_35_n02132136_3090.png,n02132136_3090.png,1.0,5.6031375,-2.297366,5.5864997
alexnet_w3_mlp_simclrhn_probe0,1,616,NaN,car,car,true,0616_fc_dnn_true_car_35_n03100240_9171.png,n03100240_9171.png,1.0,7.6955757,3.6972878,2.8272166
alexnet_w3_mlp_simclrhn_probe0,1,617,NaN,cat,cat,false,0617_fc_dnn_false_cat_35_n02123045_12060.png,n02123045_12060.png,1.0,-1.7711339,-4.995249,2.2797935
alexnet_w3_mlp_simclrhn_probe0,1,618,NaN,truck,truck,false,0618_fc_dnn_false_truck_35_n03796401_26801.png,n03796401_26801.png,1.0,-0.52638894,-1.6851481,0.81936646
alexnet_w3_mlp_simclrhn_probe0,1,619,NaN,cat,cat,false,0619_fc_dnn_false_cat_35_n02123045_15010.png,n02123045_15010.png,1.0,-1.9374475,-6.52264,3.2422209
alexnet_w3_mlp_simclrhn_probe0,1,620,NaN,chair,knife,true,0620_fc_dnn_true_knife_35_n03041632_24883.png,n03041632_24883.png,0.0,-5.6706676,-0.741337,-3.4855633
alexnet_w3_mlp_simclrhn_probe0,1,621,NaN,dog,cat,true,0621_fc_dnn_true_cat_35_n02123597_4040.png,n02123597_4040.png,0.0,-4.1096087,-4.086842,-0.01609841
alexnet_w3_mlp_simclrhn_probe0,1,622,NaN,bicycle,bird,true,0622_fc_dnn_true_bird_35_n01843383_3019.png,n01843383_3019.png,0.0,-4.3065057,-3.914218,-0.27738932
alexnet_w3_mlp_simclrhn_probe0,1,623,NaN,bear,bear,true,0623_fc_dnn_true_bear_35_n02132136_8619.png,n02132136_8619.png,1.0,4.4178176,1.4238229,2.117074
