subj,session,trial,rt,object_response,category,condition,imagename,filename,is_correct,targ_act,max_nontarg_act,decision_margin
alexnet_w1_mlp_simclrhn_probe2,1,1,NaN,knife,knife,true,0001_fc_dnn_true_knife_35_n03041632_86251.png,n03041632_86251.png,1.0,4.1403046,-1.2318406,3.7986803
alexnet_w1_mlp_simclrhn_probe2,1,2,NaN,car,car,false,0002_fc_dnn_false_car_35_n03100240_16866.png,n03100240_16866.png,1.0,8.511017,5.32329,2.2540634
alexnet_w1_mlp_simclrhn_probe2,1,3,NaN,knife,keyboard,false,0003_fc_dnn_false_keyboard_35_n03085013_21127.png,n03085013_21127.png,0.0,1.9990296,2.8303688,-0.58784556
alexnet_w1_mlp_simclrhn_probe2,1,4,NaN,truck,truck,true,0004_fc_dnn_true_truck_35_n03417042_10694.png,n03417042_10694.png,1.0,8.077894,3.4117057,3.2994933
alexnet_w1_mlp_simclrhn_probe2,1,5,NaN,bird,bird,true,0005_fc_dnn_true_bird_35_n01614925_1962.png,n01614925_1962.png,1.0,2.958512,-1.6266407,3.2421925
alexnet_w1_mlp_simclrhn_probe2,1,6,NaN,knife,knife,false,0006_fc_dnn_false_knife_35_n03041632_99875.png,n03041632_99875.png,1.0,1.1341703,-2.310081,2.4354534
alexnet_w1_mlp_simclrhn_probe2,1,7,NaN,bicycle,bicycle,true,0007_fc_dnn_true_bicycle_35_n03792782_14935.png,n03792782_14935.png,1.0,1.9120991,-2.4585958,3.0905483
alexnet_w1_mlp_simclrhn_probe2,1,8,NaN,elephant,elephant,false,0008_fc_dnn_false_elephant_35_n02504013_5027.png,n02504013_5027.png,1.0,3.0228295,-0.70465773,2.6357317
alexnet_w1_mlp_simclrhn_probe2,1,9,NaN,cat,dog,false,0009_fc_dnn_false_dog_35_n02090721_129.png,n02090721_129.png,0.0,-0.43254265,0.8171346,-0.8836553
alexnet_w1_mlp_simclrhn_probe2,1,10,NaN,airplane,airplane,true,0010_fc_dnn_true_airplane_35_n02690373_9241.png,n02690373_9241.png,1.0,11.886552,2.0805511,6.93389
alexnet_w1_mlp_simclrhn_probe2,1,11,NaN,truck,truck,true,0011_fc_dnn_true_truck_35_n04467665_62080.png,n04467665_62080.png,1.0,7.0054893,4.821356,1.5444157
alexnet_w1_mlp_simclrhn_probe2,1,12,NaN,keyboard,keyboard,true,0012_fc_dnn_true_keyboard_35_n04505470_2669.png,n04505470_2669.png,1.0,1.1916351,1.1190742,0.05130831
alexnet_w1_mlp_simclrhn_probe2,1,13,NaN,oven,oven,false,0013_fc_dnn_false_oven_35_n04111531_688.png,n04111531_688.png,1.0,2.2918296,-1.33939,2.56766
alexnet_w1_mlp_simclrhn_probe2,1,14,NaN,car,car,true,0014_fc_dnn_true_car_35_n03100240_21982.png,n03100240_21982.png,1.0,13.295169,8.824392,3.1613164
alexnet_w1_mlp_simclrhn_probe2,1,15,NaN,bicycle,bicycle,true,0015_fc_dnn_true_bicycle_35_n02835271_4191.png,n02835271_4191.png,1.0,9.572236,-1.8522415,8.078325
alexnet_w1_mlp_simclrhn_probe2,1,16,NaN,car,car,true,0016_fc_dnn_true_car_35_n02814533_25278.png,n02814533_25278.png,1.0,5.899973,4.3959675,1.0634924
alexnet_w1_mlp_simclrhn_probe2,1,17,NaN,bottle,knife,false,0017_fc_dnn_false_knife_35_n03041632_23087.png,n03041632_23087.png,0.0,-2.2068145,-0.1044746,-1.486579
alexnet_w1_mlp_simclrhn_probe2,1,18,NaN,keyboard,clock,true,0018_fc_dnn_true_clock_35_n03196217_11252.png,n03196217_11252.png,0.0,1.4519035,3.2964432,-1.3042866
alexnet_w1_mlp_simclrhn_probe2,1,19,NaN,boat,boat,false,0019_fc_dnn_false_boat_35_n04273569_2040.png,n04273569_2040.png,1.0,9.359764,4.432486,3.4841118
alexnet_w1_mlp_simclrhn_probe2,1,20,NaN,knife,knife,true,0020_fc_dnn_true_knife_35_n03041632_84869.png,n03041632_84869.png,1.0,2.3926034,-1.0434372,2.4296477
alexnet_w1_mlp_simclrhn_probe2,1,21,NaN,clock,clock,true,0021_fc_dnn_true_clock_35_n04548280_503.png,n04548280_503.png,1.0,5.875996,-0.95385873,4.829437
alexnet_w1_mlp_simclrhn_probe2,1,22,NaN,truck,truck,false,0022_fc_dnn_false_truck_35_n03417042_10654.png,n03417042_10654.png,1.0,4.8839264,2.6971729,1.5462682
alexnet_w1_mlp_simclrhn_probe2,1,23,NaN,boat,boat,true,0023_fc_dnn_true_boat_35_n03344393_2919.png,n03344393_2919.png,1.0,4.7221565,1.6891468,2.144662
alexnet_w1_mlp_simclrhn_probe2,1,24,NaN,chair,chair,false,0024_fc_dnn_false_chair_35_n04099969_7718.png,n04099969_7718.png,1.0,2.4807649,-0.007591374,1.7595336
alexnet_w1_mlp_simclrhn_probe2,1,25,NaN,oven,oven,true,0025_fc_dnn_true_oven_35_n04111531_3477.png,n04111531_3477.png,1.0,4.4567623,0.038129,3.1244457
alexnet_w1_mlp_simclrhn_probe2,1,26,NaN,dog,dog,false,0026_fc_dnn_false_dog_35_n02113712_913.png,n02113712_913.png,1.0,0.9407789,-2.6140282,2.5136282
alexnet_w1_mlp_simclrhn_probe2,1,27,NaN,chair,chair,false,0027_fc_dnn_false_chair_35_n02791124_13701.png,n02791124_13701.png,1.0,3.357696,1.875368,1.0481642
alexnet_w1_mlp_simclrhn_probe2,1,28,NaN,airplane,airplane,true,0028_fc_dnn_true_airplane_35_n02690373_8538.png,n02690373_8538.png,1.0,7.7991066,1.9996105,4.100863
alexnet_w1_mlp_simclrhn_probe2,1,29,NaN,oven,knife,true,0029_fc_dnn_true_knife_35_n03041632_98864.png,n03041632_98864.png,0.0,-1.2821151,-0.6975429,-0.41335496
alexnet_w1_mlp_simclrhn_probe2,1,30,NaN,clock,clock,false,0030_fc_dnn_false_clock_35_n04548280_5466.png,n04548280_5466.png,1.0,0.81113034,-1.0936261,1.3468663
alexnet_w1_mlp_simclrhn_probe2,1,31,NaN,keyboard,keyboard,true,0031_fc_dnn_true_keyboard_35_n04505470_4033.png,n04505470_4033.png,1.0,11.285582,0.7071953,7.4800487
alexnet_w1_mlp_simclrhn_probe2,1,32,NaN,boat,boat,false,0032_fc_dnn_false_boat_35_n03344393_7503.png,n03344393_7503.png,1.0,2.0417905,-0.13152489,1.536766
alexnet_w1_mlp_simclrhn_probe2,1,33,NaN,bottle,bottle,false,0033_fc_dnn_false_bottle_35_n02823428_3402.png,n02823428_3402.png,1.0,3.9087093,0.4839526,2.4216688
alexnet_w1_mlp_simclrhn_probe2,1,34,NaN,oven,boat,true,0034_fc_dnn_true_boat_35_n03662601_15766.png,n03662601_15766.png,0.0,-1.6221116,1.8567009,-2.459892
alexnet_w1_mlp_simclrhn_probe2,1,35,NaN,dog,dog,true,0035_fc_dnn_true_dog_35_n02097047_1351.png,n02097047_1351.png,1.0,2.2201798,-2.4257638,3.2851784
alexnet_w1_mlp_simclrhn_probe2,1,36,NaN,knife,keyboard,true,0036_fc_dnn_true_keyboard_35_n03085013_23562.png,n03085013_23562.png,0.0,-2.2662282,1.1738262,-2.4324858
alexnet_w1_mlp_simclrhn_probe2,1,37,NaN,chair,clock,false,0037_fc_dnn_false_clock_35_n04548280_7872.png,n04548280_7872.png,0.0,0.13004176,1.376523,-0.8813954
alexnet_w1_mlp_simclrhn_probe2,1,38,NaN,dog,dog,false,0038_fc_dnn_false_dog_35_n02106166_16884.png,n02106166_16884.png,1.0,1.2938296,-4.5694695,4.1459785
alexnet_w1_mlp_simclrhn_probe2,1,39,NaN,oven,oven,true,0039_fc_dnn_true_oven_35_n04111531_3353.png,n04111531_3353.png,1.0,1.1243312,-0.06098842,0.8381476
alexnet_w1_mlp_simclrhn_probe2,1,40,NaN,bottle,knife,false,0040_fc_dnn_false_knife_35_n03041632_46185.png,n03041632_46185.png,0.0,0.5277155,1.2582943,-0.5165973
alexnet_w1_mlp_simclrhn_probe2,1,41,NaN,knife,knife,true,0041_fc_dnn_true_knife_35_n03041632_14766.png,n03041632_14766.png,1.0,3.0629244,0.26158696,1.9808447
alexnet_w1_mlp_simclrhn_probe2,1,42,NaN,knife,chair,true,0042_fc_dnn_true_chair_35_n02791124_2150.png,n02791124_2150.png,0.0,-0.93913573,0.64427996,-1.119644
alexnet_w1_mlp_simclrhn_probe2,1,43,NaN,elephant,elephant,false,0043_fc_dnn_false_elephant_35_n02504458_4631.png,n02504458_4631.png,1.0,2.940884,-0.3749701,2.3446631
alexnet_w1_mlp_simclrhn_probe2,1,44,NaN,chair,chair,false,0044_fc_dnn_false_chair_35_n03376595_3223.png,n03376595_3223.png,1.0,0.88385487,-0.034414917,0.64931476
alexnet_w1_mlp_simclrhn_probe2,1,45,NaN,car,car,false,0045_fc_dnn_false_car_35_n03100240_5399.png,n03100240_5399.png,1.0,11.350677,6.684531,3.299463
alexnet_w1_mlp_simclrhn_probe2,1,46,NaN,oven,bottle,true,0046_fc_dnn_true_bottle_35_n04557648_2512.png,n04557648_2512.png,0.0,-3.1626344,3.9346132,-5.018512
alexnet_w1_mlp_simclrhn_probe2,1,47,NaN,elephant,bicycle,true,0047_fc_dnn_true_bicycle_35_n03792782_8098.png,n03792782_8098.png,0.0,-0.028160214,0.3364269,-0.25780204
alexnet_w1_mlp_simclrhn_probe2,1,48,NaN,bear,bear,true,0048_fc_dnn_true_bear_35_n02134418_11557.png,n02134418_11557.png,1.0,4.5390463,-0.22355749,3.3676696
alexnet_w1_mlp_simclrhn_probe2,1,49,NaN,knife,knife,true,0049_fc_dnn_true_knife_35_n03041632_45569.png,n03041632_45569.png,1.0,1.4468565,-0.9046805,1.6627878
alexnet_w1_mlp_simclrhn_probe2,1,50,NaN,clock,bicycle,false,0050_fc_dnn_false_bicycle_35_n03792782_4740.png,n03792782_4740.png,0.0,-1.8997321,-1.1331347,-0.5420662
alexnet_w1_mlp_simclrhn_probe2,1,51,NaN,boat,boat,false,0051_fc_dnn_false_boat_35_n03662601_25404.png,n03662601_25404.png,1.0,7.4509454,3.2065668,3.0012288
alexnet_w1_mlp_simclrhn_probe2,1,52,NaN,bird,bird,false,0052_fc_dnn_false_bird_35_n01796340_4853.png,n01796340_4853.png,1.0,0.509363,-4.4712706,3.5218399
alexnet_w1_mlp_simclrhn_probe2,1,53,NaN,oven,clock,true,0053_fc_dnn_true_clock_35_n03196217_5888.png,n03196217_5888.png,0.0,1.3727484,2.3440967,-0.686847
alexnet_w1_mlp_simclrhn_probe2,1,54,NaN,bicycle,bicycle,true,0054_fc_dnn_true_bicycle_35_n02835271_12871.png,n02835271_12871.png,1.0,11.94863,2.44745,6.7183495
alexnet_w1_mlp_simclrhn_probe2,1,55,NaN,keyboard,keyboard,false,0055_fc_dnn_false_keyboard_35_n03085013_28584.png,n03085013_28584.png,1.0,4.7336035,0.7945641,2.7853215
alexnet_w1_mlp_simclrhn_probe2,1,56,NaN,bear,cat,true,0056_fc_dnn_true_cat_35_n02123159_6184.png,n02123159_6184.png,0.0,-1.8878016,2.2970905,-2.9591656
alexnet_w1_mlp_simclrhn_probe2,1,57,NaN,bicycle,bicycle,true,0057_fc_dnn_true_bicycle_35_n02835271_7592.png,n02835271_7592.png,1.0,16.222803,-0.8946509,12.1038685
alexnet_w1_mlp_simclrhn_probe2,1,58,NaN,elephant,elephant,false,0058_fc_dnn_false_elephant_35_n02504458_3205.png,n02504458_3205.png,1.0,10.306972,2.6469264,5.41647
alexnet_w1_mlp_simclrhn_probe2,1,59,NaN,cat,cat,false,0059_fc_dnn_false_cat_35_n02124075_7880.png,n02124075_7880.png,1.0,1.4494334,1.0414847,0.28846332
alexnet_w1_mlp_simclrhn_probe2,1,60,NaN,truck,truck,false,0060_fc_dnn_false_truck_35_n04467665_2240.png,n04467665_2240.png,1.0,9.842846,4.13003,4.039571
alexnet_w1_mlp_simclrhn_probe2,1,61,NaN,bottle,bottle,true,0061_fc_dnn_true_bottle_35_n04560804_13316.png,n04560804_13316.png,1.0,1.6202818,-0.21409458,1.2971
alexnet_w1_mlp_simclrhn_probe2,1,62,NaN,airplane,airplane,false,0062_fc_dnn_false_airplane_35_n02690373_3821.png,n02690373_3821.png,1.0,12.220545,-0.32578784,8.871597
alexnet_w1_mlp_simclrhn_probe2,1,63,NaN,chair,knife,true,0063_fc_dnn_true_knife_35_n03041632_17285.png,n03041632_17285.png,0.0,0.7816983,1.7479382,-0.68323475
alexnet_w1_mlp_simclrhn_probe2,1,64,NaN,bottle,bottle,false,0064_fc_dnn_false_bottle_35_n02823428_10942.png,n02823428_10942.png,1.0,2.718108,0.5612323,1.5251414
alexnet_w1_mlp_simclrhn_probe2,1,65,NaN,bicycle,bicycle,true,0065_fc_dnn_true_bicycle_35_n02835271_3642.png,n02835271_3642.png,1.0,11.751554,-3.126629,10.520464
alexnet_w1_mlp_simclrhn_probe2,1,66,NaN,knife,knife,true,0066_fc_dnn_true_knife_35_n03041632_16172.png,n03041632_16172.png,1.0,2.286908,-1.1695126,2.4440584
alexnet_w1_mlp_simclrhn_probe2,1,67,NaN,bicycle,bottle,false,0067_fc_dnn_false_bottle_35_n04560804_2448.png,n04560804_2448.png,0.0,-7.3741026,2.90519,-7.268558
alexnet_w1_mlp_simclrhn_probe2,1,68,NaN,oven,oven,false,0068_fc_dnn_false_oven_35_n04111531_4452.png,n04111531_4452.png,1.0,7.139083,-2.7616293,7.0008607
alexnet_w1_mlp_simclrhn_probe2,1,69,NaN,keyboard,keyboard,false,0069_fc_dnn_false_keyboard_35_n04505470_912.png,n04505470_912.png,1.0,10.372333,0.6619963,6.8662453
alexnet_w1_mlp_simclrhn_probe2,1,70,NaN,bear,cat,false,0070_fc_dnn_false_cat_35_n02123045_7167.png,n02123045_7167.png,0.0,-1.9098858,-1.0425264,-0.6133157
alexnet_w1_mlp_simclrhn_probe2,1,71,NaN,bicycle,bicycle,false,0071_fc_dnn_false_bicycle_35_n03792782_8333.png,n03792782_8333.png,1.0,0.81288517,-1.0493385,1.3167909
alexnet_w1_mlp_simclrhn_probe2,1,72,NaN,bear,dog,false,0072_fc_dnn_false_dog_35_n02107683_2904.png,n02107683_2904.png,0.0,-1.3536345,-0.07693541,-0.9027626
alexnet_w1_mlp_simclrhn_probe2,1,73,NaN,bottle,bottle,true,0073_fc_dnn_true_bottle_35_n04591713_3409.png,n04591713_3409.png,1.0,8.540827,-0.57301664,6.444461
alexnet_w1_mlp_simclrhn_probe2,1,74,NaN,elephant,bottle,false,0074_fc_dnn_false_bottle_35_n04560804_564.png,n04560804_564.png,0.0,-2.9572663,-1.3135474,-1.1622849
alexnet_w1_mlp_simclrhn_probe2,1,75,NaN,truck,truck,false,0075_fc_dnn_false_truck_35_n03796401_6503.png,n03796401_6503.png,1.0,9.588495,3.8145256,4.0828133
alexnet_w1_mlp_simclrhn_probe2,1,76,NaN,oven,oven,true,0076_fc_dnn_true_oven_35_n04111531_13590.png,n04111531_13590.png,1.0,5.4547987,1.5357914,2.7711568
alexnet_w1_mlp_simclrhn_probe2,1,77,NaN,bird,bird,false,0077_fc_dnn_false_bird_35_n02018795_7504.png,n02018795_7504.png,1.0,2.029149,-3.589789,3.973189
alexnet_w1_mlp_simclrhn_probe2,1,78,NaN,car,car,false,0078_fc_dnn_false_car_35_n03100240_6626.png,n03100240_6626.png,1.0,10.119954,9.880637,0.16922264
alexnet_w1_mlp_simclrhn_probe2,1,79,NaN,bear,bear,false,0079_fc_dnn_false_bear_35_n02134418_4364.png,n02134418_4364.png,1.0,7.619937,1.7735245,4.134038
alexnet_w1_mlp_simclrhn_probe2,1,80,NaN,airplane,knife,false,0080_fc_dnn_false_knife_35_n03041632_8051.png,n03041632_8051.png,0.0,-0.6738546,0.83242506,-1.0651007
alexnet_w1_mlp_simclrhn_probe2,1,81,NaN,airplane,airplane,true,0081_fc_dnn_true_airplane_35_n02690373_1434.png,n02690373_1434.png,1.0,10.238003,-0.35393918,7.489634
alexnet_w1_mlp_simclrhn_probe2,1,82,NaN,clock,clock,true,0082_fc_dnn_true_clock_35_n04548280_5408.png,n04548280_5408.png,1.0,6.784576,0.9403445,4.132496
alexnet_w1_mlp_simclrhn_probe2,1,83,NaN,cat,cat,false,0083_fc_dnn_false_cat_35_n02123597_3916.png,n02123597_3916.png,1.0,-1.0353703,-1.1024163,0.04740863
alexnet_w1_mlp_simclrhn_probe2,1,84,NaN,clock,clock,false,0084_fc_dnn_false_clock_35_n04548280_4542.png,n04548280_4542.png,1.0,1.6518422,0.1972947,1.0285205
alexnet_w1_mlp_simclrhn_probe2,1,85,NaN,airplane,car,true,0085_fc_dnn_true_car_35_n04285008_14161.png,n04285008_14161.png,0.0,-2.6266406,0.25790584,-2.0396824
alexnet_w1_mlp_simclrhn_probe2,1,86,NaN,airplane,airplane,false,0086_fc_dnn_false_airplane_35_n02690373_7279.png,n02690373_7279.png,1.0,7.9464917,3.5981956,3.0747097
alexnet_w1_mlp_simclrhn_probe2,1,87,NaN,elephant,bear,true,0087_fc_dnn_true_bear_35_n02132136_11640.png,n02132136_11640.png,0.0,2.4634259,5.036808,-1.819656
alexnet_w1_mlp_simclrhn_probe2,1,88,NaN,airplane,airplane,true,0088_fc_dnn_true_airplane_35_n02690373_8350.png,n02690373_8350.png,1.0,6.5271797,1.7471664,3.3799796
alexnet_w1_mlp_simclrhn_probe2,1,89,NaN,boat,boat,true,0089_fc_dnn_true_boat_35_n04273569_30568.png,n04273569_30568.png,1.0,9.407007,7.4466643,1.3861718
alexnet_w1_mlp_simclrhn_probe2,1,90,NaN,dog,dog,true,0090_fc_dnn_true_dog_35_n02100583_19533.png,n02100583_19533.png,1.0,1.8759586,-0.53422767,1.7042592
alexnet_w1_mlp_simclrhn_probe2,1,91,NaN,knife,knife,true,0091_fc_dnn_true_knife_35_n03041632_965.png,n03041632_965.png,1.0,3.239175,0.7027531,1.7935213
alexnet_w1_mlp_simclrhn_probe2,1,92,NaN,elephant,elephant,false,0092_fc_dnn_false_elephant_35_n02504458_6109.png,n02504458_6109.png,1.0,14.727007,4.5697613,7.182257
alexnet_w1_mlp_simclrhn_probe2,1,93,NaN,oven,oven,true,0093_fc_dnn_true_oven_35_n04111531_10093.png,n04111531_10093.png,1.0,1.4413686,-0.97575146,1.709162
alexnet_w1_mlp_simclrhn_probe2,1,94,NaN,clock,clock,true,0094_fc_dnn_true_clock_35_n03196217_8221.png,n03196217_8221.png,1.0,1.8331941,0.65564907,0.8326501
alexnet_w1_mlp_simclrhn_probe2,1,95,NaN,bicycle,bicycle,false,0095_fc_dnn_false_bicycle_35_n03792782_828.png,n03792782_828.png,1.0,7.8156147,-2.1732183,7.0631714
alexnet_w1_mlp_simclrhn_probe2,1,96,NaN,knife,knife,true,0096_fc_dnn_true_knife_35_n03041632_7090.png,n03041632_7090.png,1.0,1.7633187,0.12789434,1.1564196
alexnet_w1_mlp_simclrhn_probe2,1,97,NaN,elephant,bear,false,0097_fc_dnn_false_bear_35_n02134084_14260.png,n02134084_14260.png,0.0,0.2710088,0.81958187,-0.38789976
alexnet_w1_mlp_simclrhn_probe2,1,98,NaN,elephant,bear,false,0098_fc_dnn_false_bear_35_n02132136_10988.png,n02132136_10988.png,0.0,2.66492,3.926587,-0.8921333
alexnet_w1_mlp_simclrhn_probe2,1,99,NaN,clock,keyboard,false,0099_fc_dnn_false_keyboard_35_n03085013_22980.png,n03085013_22980.png,0.0,-1.3153125,-0.6204013,-0.49137643
alexnet_w1_mlp_simclrhn_probe2,1,100,NaN,bottle,bottle,false,0100_fc_dnn_false_bottle_35_n04557648_3673.png,n04557648_3673.png,1.0,0.56068015,0.23436972,0.23073632
alexnet_w1_mlp_simclrhn_probe2,1,101,NaN,airplane,airplane,true,0101_fc_dnn_true_airplane_35_n02690373_1360.png,n02690373_1360.png,1.0,10.519301,1.9095052,6.0880456
alexnet_w1_mlp_simclrhn_probe2,1,102,NaN,bicycle,oven,true,0102_fc_dnn_true_oven_35_n04111531_6415.png,n04111531_6415.png,0.0,-2.5545971,1.7620223,-3.052311
alexnet_w1_mlp_simclrhn_probe2,1,103,NaN,knife,knife,false,0103_fc_dnn_false_knife_35_n03041632_32054.png,n03041632_32054.png,1.0,2.6067584,0.2954732,1.6343255
alexnet_w1_mlp_simclrhn_probe2,1,104,NaN,chair,chair,false,0104_fc_dnn_false_chair_35_n03376595_9136.png,n03376595_9136.png,1.0,1.2877591,0.39843053,0.6288503
alexnet_w1_mlp_simclrhn_probe2,1,105,NaN,keyboard,keyboard,false,0105_fc_dnn_false_keyboard_35_n03085013_21266.png,n03085013_21266.png,1.0,2.5336313,1.4346375,0.777106
alexnet_w1_mlp_simclrhn_probe2,1,106,NaN,bicycle,bicycle,true,0106_fc_dnn_true_bicycle_35_n02835271_6137.png,n02835271_6137.png,1.0,12.384858,0.22583954,8.597725
alexnet_w1_mlp_simclrhn_probe2,1,107,NaN,car,car,false,0107_fc_dnn_false_car_35_n04285008_14689.png,n04285008_14689.png,1.0,14.980344,11.383034,2.5436823
alexnet_w1_mlp_simclrhn_probe2,1,108,NaN,truck,truck,false,0108_fc_dnn_false_truck_35_n04467665_16276.png,n04467665_16276.png,1.0,12.085821,6.3947453,4.0241985
alexnet_w1_mlp_simclrhn_probe2,1,109,NaN,chair,chair,false,0109_fc_dnn_false_chair_35_n03376595_787.png,n03376595_787.png,1.0,1.3971624,-0.08439476,1.0476192
alexnet_w1_mlp_simclrhn_probe2,1,110,NaN,boat,boat,false,0110_fc_dnn_false_boat_35_n04612504_41355.png,n04612504_41355.png,1.0,4.713878,3.3669121,0.95244884
alexnet_w1_mlp_simclrhn_probe2,1,111,NaN,elephant,elephant,true,0111_fc_dnn_true_elephant_35_n02504458_174.png,n02504458_174.png,1.0,11.697569,0.32387525,8.042416
alexnet_w1_mlp_simclrhn_probe2,1,112,NaN,cat,cat,true,0112_fc_dnn_true_cat_35_n02125311_6746.png,n02125311_6746.png,1.0,3.1704419,1.1072669,1.4588851
alexnet_w1_mlp_simclrhn_probe2,1,113,NaN,keyboard,keyboard,false,0113_fc_dnn_false_keyboard_35_n03085013_23287.png,n03085013_23287.png,1.0,5.5621634,0.20276847,3.7896647
alexnet_w1_mlp_simclrhn_probe2,1,114,NaN,clock,clock,true,0114_fc_dnn_true_clock_35_n04548280_8071.png,n04548280_8071.png,1.0,3.619664,0.15137039,2.452454
alexnet_w1_mlp_simclrhn_probe2,1,115,NaN,oven,oven,false,0115_fc_dnn_false_oven_35_n04111531_14543.png,n04111531_14543.png,1.0,6.6356864,-0.8684403,5.3062186
alexnet_w1_mlp_simclrhn_probe2,1,116,NaN,car,car,false,0116_fc_dnn_false_car_35_n03100240_10791.png,n03100240_10791.png,1.0,11.228877,6.350348,3.449641
alexnet_w1_mlp_simclrhn_probe2,1,117,NaN,airplane,airplane,true,0117_fc_dnn_true_airplane_35_n02690373_2619.png,n02690373_2619.png,1.0,9.59513,2.4987438,5.017903
alexnet_w1_mlp_simclrhn_probe2,1,118,NaN,keyboard,keyboard,true,0118_fc_dnn_true_keyboard_35_n04505470_3864.png,n04505470_3864.png,1.0,0.8445691,0.036610544,0.57131296
alexnet_w1_mlp_simclrhn_probe2,1,119,NaN,dog,dog,true,0119_fc_dnn_true_dog_35_n02097658_4387.png,n02097658_4387.png,1.0,0.45404902,-0.884764,0.9466838
alexnet_w1_mlp_simclrhn_probe2,1,120,NaN,clock,clock,true,0120_fc_dnn_true_clock_35_n04548280_309.png,n04548280_309.png,1.0,4.042025,1.3310966,1.9169159
alexnet_w1_mlp_simclrhn_probe2,1,121,NaN,dog,dog,true,0121_fc_dnn_true_dog_35_n02108000_5247.png,n02108000_5247.png,1.0,3.3311746,-5.539191,6.2722955
alexnet_w1_mlp_simclrhn_probe2,1,122,NaN,keyboard,keyboard,false,0122_fc_dnn_false_keyboard_35_n04505470_4411.png,n04505470_4411.png,1.0,2.842053,2.3443494,0.35192958
alexnet_w1_mlp_simclrhn_probe2,1,123,NaN,oven,truck,false,0123_fc_dnn_false_truck_35_n03417042_2155.png,n03417042_2155.png,0.0,0.6833351,2.063605,-0.9759983
alexnet_w1_mlp_simclrhn_probe2,1,124,NaN,bear,bear,false,0124_fc_dnn_false_bear_35_n02132136_4237.png,n02132136_4237.png,1.0,5.9536643,3.1708486,1.9677479
alexnet_w1_mlp_simclrhn_probe2,1,125,NaN,bird,bird,false,0125_fc_dnn_false_bird_35_n01843065_2350.png,n01843065_2350.png,1.0,1.2732601,-6.962222,5.823365
alexnet_w1_mlp_simclrhn_probe2,1,126,NaN,knife,knife,false,0126_fc_dnn_false_knife_35_n03041632_51225.png,n03041632_51225.png,1.0,2.678652,0.23305775,1.7292963
alexnet_w1_mlp_simclrhn_probe2,1,127,NaN,airplane,airplane,false,0127_fc_dnn_false_airplane_35_n02690373_2095.png,n02690373_2095.png,1.0,9.656278,1.2935944,5.91331
alexnet_w1_mlp_simclrhn_probe2,1,128,NaN,clock,clock,true,0128_fc_dnn_true_clock_35_n02708093_1775.png,n02708093_1775.png,1.0,4.9229875,-1.1889514,4.3217936
alexnet_w1_mlp_simclrhn_probe2,1,129,NaN,elephant,elephant,true,0129_fc_dnn_true_elephant_35_n02504458_7950.png,n02504458_7950.png,1.0,20.932775,5.533177,10.889161
alexnet_w1_mlp_simclrhn_probe2,1,130,NaN,boat,boat,true,0130_fc_dnn_true_boat_35_n03662601_1926.png,n03662601_1926.png,1.0,7.3829813,0.64342624,4.765585
alexnet_w1_mlp_simclrhn_probe2,1,131,NaN,elephant,elephant,true,0131_fc_dnn_true_elephant_35_n02504458_6721.png,n02504458_6721.png,1.0,0.5962761,0.58614856,0.0071612555
alexnet_w1_mlp_simclrhn_probe2,1,132,NaN,bicycle,bicycle,true,0132_fc_dnn_true_bicycle_35_n02835271_14225.png,n02835271_14225.png,1.0,2.131468,-2.2102613,3.0700662
alexnet_w1_mlp_simclrhn_probe2,1,133,NaN,clock,clock,false,0133_fc_dnn_false_clock_35_n02708093_2744.png,n02708093_2744.png,1.0,0.5123123,-1.3192599,1.2951171
alexnet_w1_mlp_simclrhn_probe2,1,134,NaN,clock,clock,true,0134_fc_dnn_true_clock_35_n02708093_275.png,n02708093_275.png,1.0,10.362525,-1.8921559,8.665368
alexnet_w1_mlp_simclrhn_probe2,1,135,NaN,knife,knife,false,0135_fc_dnn_false_knife_35_n03041632_25512.png,n03041632_25512.png,1.0,0.2823676,-0.73468196,0.71916264
alexnet_w1_mlp_simclrhn_probe2,1,136,NaN,bird,bird,true,0136_fc_dnn_true_bird_35_n01622779_5441.png,n01622779_5441.png,1.0,-1.2603799,-1.3394599,0.055917993
alexnet_w1_mlp_simclrhn_probe2,1,137,NaN,car,oven,false,0137_fc_dnn_false_oven_35_n04111531_14329.png,n04111531_14329.png,0.0,-0.7464817,4.5890374,-3.7727818
alexnet_w1_mlp_simclrhn_probe2,1,138,NaN,bird,bird,false,0138_fc_dnn_false_bird_35_n02007558_13217.png,n02007558_13217.png,1.0,3.0958693,-4.1097136,5.0951166
alexnet_w1_mlp_simclrhn_probe2,1,139,NaN,cat,cat,true,0139_fc_dnn_true_cat_35_n02123597_7908.png,n02123597_7908.png,1.0,0.545201,-0.35413927,0.63592964
alexnet_w1_mlp_simclrhn_probe2,1,140,NaN,clock,clock,true,0140_fc_dnn_true_clock_35_n04548280_9828.png,n04548280_9828.png,1.0,6.5427666,-0.7940764,5.1879315
alexnet_w1_mlp_simclrhn_probe2,1,141,NaN,bird,bird,false,0141_fc_dnn_false_bird_35_n01833805_4819.png,n01833805_4819.png,1.0,0.31752893,-0.42946497,0.52820444
alexnet_w1_mlp_simclrhn_probe2,1,142,NaN,knife,knife,true,0142_fc_dnn_true_knife_35_n03041632_52929.png,n03041632_52929.png,1.0,0.61161363,-0.26790994,0.62191707
alexnet_w1_mlp_simclrhn_probe2,1,143,NaN,truck,truck,false,0143_fc_dnn_false_truck_35_n04467665_2044.png,n04467665_2044.png,1.0,9.235126,0.81259173,5.955631
alexnet_w1_mlp_simclrhn_probe2,1,144,NaN,oven,oven,false,0144_fc_dnn_false_oven_35_n04111531_16583.png,n04111531_16583.png,1.0,4.5381923,2.3134449,1.5731341
alexnet_w1_mlp_simclrhn_probe2,1,145,NaN,airplane,airplane,true,0145_fc_dnn_true_airplane_35_n02690373_2796.png,n02690373_2796.png,1.0,7.227018,3.0852852,2.9286473
alexnet_w1_mlp_simclrhn_probe2,1,146,NaN,airplane,airplane,false,0146_fc_dnn_false_airplane_35_n02690373_3362.png,n02690373_3362.png,1.0,11.893963,1.7972778,7.139435
alexnet_w1_mlp_simclrhn_probe2,1,147,NaN,clock,clock,true,0147_fc_dnn_true_clock_35_n02708093_3759.png,n02708093_3759.png,1.0,6.5712066,-0.3536992,4.896648
alexnet_w1_mlp_simclrhn_probe2,1,148,NaN,elephant,elephant,true,0148_fc_dnn_true_elephant_35_n02504013_2558.png,n02504013_2558.png,1.0,5.289299,-1.2783548,4.6440325
alexnet_w1_mlp_simclrhn_probe2,1,149,NaN,bear,bear,false,0149_fc_dnn_false_bear_35_n02134418_896.png,n02134418_896.png,1.0,0.6156682,0.3037562,0.22055507
alexnet_w1_mlp_simclrhn_probe2,1,150,NaN,truck,truck,false,0150_fc_dnn_false_truck_35_n04467665_56815.png,n04467665_56815.png,1.0,11.248035,1.8211371,6.6658235
alexnet_w1_mlp_simclrhn_probe2,1,151,NaN,truck,truck,true,0151_fc_dnn_true_truck_35_n03796401_3695.png,n03796401_3695.png,1.0,4.235999,-2.173599,4.5322704
alexnet_w1_mlp_simclrhn_probe2,1,152,NaN,dog,dog,true,0152_fc_dnn_true_dog_35_n02107312_197.png,n02107312_197.png,1.0,-0.52966887,-1.0444045,0.36397308
alexnet_w1_mlp_simclrhn_probe2,1,153,NaN,bear,bear,false,0153_fc_dnn_false_bear_35_n02133161_13356.png,n02133161_13356.png,1.0,1.0496416,-0.14750311,0.84650916
alexnet_w1_mlp_simclrhn_probe2,1,154,NaN,truck,truck,false,0154_fc_dnn_false_truck_35_n03796401_6923.png,n03796401_6923.png,1.0,1.3246343,0.5887075,0.5203788
alexnet_w1_mlp_simclrhn_probe2,1,155,NaN,elephant,elephant,true,0155_fc_dnn_true_elephant_35_n02504458_7660.png,n02504458_7660.png,1.0,2.8966072,1.1110406,1.2625862
alexnet_w1_mlp_simclrhn_probe2,1,156,NaN,bicycle,bicycle,false,0156_fc_dnn_false_bicycle_35_n02835271_6554.png,n02835271_6554.png,1.0,14.441795,-1.6343387,11.367543
alexnet_w1_mlp_simclrhn_probe2,1,157,NaN,boat,boat,true,0157_fc_dnn_true_boat_35_n04273569_2698.png,n04273569_2698.png,1.0,6.7972093,1.035284,4.0742965
alexnet_w1_mlp_simclrhn_probe2,1,158,NaN,dog,bottle,true,0158_fc_dnn_true_bottle_35_n03983396_5055.png,n03983396_5055.png,0.0,-7.6615267,-0.371725,-5.1546683
alexnet_w1_mlp_simclrhn_probe2,1,159,NaN,chair,chair,true,0159_fc_dnn_true_chair_35_n04429376_22811.png,n04429376_22811.png,1.0,2.4573343,-0.087327704,1.7993478
alexnet_w1_mlp_simclrhn_probe2,1,160,NaN,knife,knife,false,0160_fc_dnn_false_knife_35_n03041632_5640.png,n03041632_5640.png,1.0,2.0319471,-1.0335332,2.1676219
alexnet_w1_mlp_simclrhn_probe2,1,161,NaN,bird,bird,true,0161_fc_dnn_true_bird_35_n01795545_14857.png,n01795545_14857.png,1.0,-0.84015375,-1.9575167,0.790095
alexnet_w1_mlp_simclrhn_probe2,1,162,NaN,oven,oven,false,0162_fc_dnn_false_oven_35_n04111531_16144.png,n04111531_16144.png,1.0,7.5939465,-3.6536894,7.9532795
alexnet_w1_mlp_simclrhn_probe2,1,163,NaN,car,truck,false,0163_fc_dnn_false_truck_35_n04467665_47050.png,n04467665_47050.png,0.0,-0.9901457,-0.2865151,-0.49754196
alexnet_w1_mlp_simclrhn_probe2,1,164,NaN,clock,bottle,true,0164_fc_dnn_true_bottle_35_n03937543_8063.png,n03937543_8063.png,0.0,2.2286906,4.426249,-1.5539085
alexnet_w1_mlp_simclrhn_probe2,1,165,NaN,cat,bear,false,0165_fc_dnn_false_bear_35_n02134084_1655.png,n02134084_1655.png,0.0,0.33908057,0.46621546,-0.089897946
alexnet_w1_mlp_simclrhn_probe2,1,166,NaN,oven,car,false,0166_fc_dnn_false_car_35_n03100240_2425.png,n03100240_2425.png,0.0,-3.5958264,0.37667066,-2.8089795
alexnet_w1_mlp_simclrhn_probe2,1,167,NaN,keyboard,keyboard,false,0167_fc_dnn_false_keyboard_35_n03085013_21300.png,n03085013_21300.png,1.0,3.778851,1.323058,1.7365079
alexnet_w1_mlp_simclrhn_probe2,1,168,NaN,bear,bear,false,0168_fc_dnn_false_bear_35_n02132136_2248.png,n02132136_2248.png,1.0,3.587502,0.1504729,2.4303467
alexnet_w1_mlp_simclrhn_probe2,1,169,NaN,knife,knife,false,0169_fc_dnn_false_knife_35_n03041632_27832.png,n03041632_27832.png,1.0,0.69915414,-0.4359481,0.80263853
alexnet_w1_mlp_simclrhn_probe2,1,170,NaN,keyboard,keyboard,true,0170_fc_dnn_true_keyboard_35_n04505470_4682.png,n04505470_4682.png,1.0,12.609064,2.1957886,7.363298
alexnet_w1_mlp_simclrhn_probe2,1,171,NaN,boat,truck,false,0171_fc_dnn_false_truck_35_n03417042_12908.png,n03417042_12908.png,0.0,0.107117265,0.1321325,-0.017688442
alexnet_w1_mlp_simclrhn_probe2,1,172,NaN,elephant,elephant,false,0172_fc_dnn_false_elephant_35_n02504013_2148.png,n02504013_2148.png,1.0,2.8393664,0.22222547,1.8505982
alexnet_w1_mlp_simclrhn_probe2,1,173,NaN,boat,boat,true,0173_fc_dnn_true_boat_35_n02951358_20379.png,n02951358_20379.png,1.0,1.5829723,0.52971834,0.74476296
alexnet_w1_mlp_simclrhn_probe2,1,174,NaN,cat,cat,true,0174_fc_dnn_true_cat_35_n02123394_6521.png,n02123394_6521.png,1.0,0.829578,-0.22120272,0.74301416
alexnet_w1_mlp_simclrhn_probe2,1,175,NaN,boat,boat,true,0175_fc_dnn_true_boat_35_n03662601_9602.png,n03662601_9602.png,1.0,10.1992235,3.986023,4.3933964
alexnet_w1_mlp_simclrhn_probe2,1,176,NaN,clock,clock,true,0176_fc_dnn_true_clock_35_n04548280_3997.png,n04548280_3997.png,1.0,6.7977176,-1.152347,5.621545
alexnet_w1_mlp_simclrhn_probe2,1,177,NaN,car,car,false,0177_fc_dnn_false_car_35_n03100240_12694.png,n03100240_12694.png,1.0,12.207638,5.4982653,4.7442427
alexnet_w1_mlp_simclrhn_probe2,1,178,NaN,bird,bird,false,0178_fc_dnn_false_bird_35_n02002556_25052.png,n02002556_25052.png,1.0,4.71098,-3.8896804,6.0815854
alexnet_w1_mlp_simclrhn_probe2,1,179,NaN,oven,chair,true,0179_fc_dnn_true_chair_35_n04429376_22734.png,n04429376_22734.png,0.0,0.3952906,0.8059332,-0.29036814
alexnet_w1_mlp_simclrhn_probe2,1,180,NaN,boat,boat,true,0180_fc_dnn_true_boat_35_n04612504_5334.png,n04612504_5334.png,1.0,7.6359344,3.3266797,3.0471032
alexnet_w1_mlp_simclrhn_probe2,1,181,NaN,keyboard,keyboard,true,0181_fc_dnn_true_keyboard_35_n03085013_15484.png,n03085013_15484.png,1.0,4.176569,1.3419638,2.0043685
alexnet_w1_mlp_simclrhn_probe2,1,182,NaN,bear,bear,true,0182_fc_dnn_true_bear_35_n02134418_1809.png,n02134418_1809.png,1.0,6.92356,-0.64083314,5.3488336
alexnet_w1_mlp_simclrhn_probe2,1,183,NaN,bottle,bottle,true,0183_fc_dnn_true_bottle_35_n04560804_6392.png,n04560804_6392.png,1.0,1.0556386,0.55472463,0.35419965
alexnet_w1_mlp_simclrhn_probe2,1,184,NaN,boat,boat,false,0184_fc_dnn_false_boat_35_n02951358_29495.png,n02951358_29495.png,1.0,7.600095,0.82915807,4.7877755
alexnet_w1_mlp_simclrhn_probe2,1,185,NaN,dog,dog,false,0185_fc_dnn_false_dog_35_n02086646_8449.png,n02086646_8449.png,1.0,3.595022,-2.956831,4.6328597
alexnet_w1_mlp_simclrhn_probe2,1,186,NaN,bear,bird,true,0186_fc_dnn_true_bird_35_n02037110_4043.png,n02037110_4043.png,0.0,0.16517815,0.78358173,-0.43727735
alexnet_w1_mlp_simclrhn_probe2,1,187,NaN,elephant,elephant,true,0187_fc_dnn_true_elephant_35_n02504458_4819.png,n02504458_4819.png,1.0,9.405372,1.8623849,5.3336973
alexnet_w1_mlp_simclrhn_probe2,1,188,NaN,bird,bird,true,0188_fc_dnn_true_bird_35_n01829413_282.png,n01829413_282.png,1.0,4.8506584,-5.0382705,6.992529
alexnet_w1_mlp_simclrhn_probe2,1,189,NaN,bird,bird,false,0189_fc_dnn_false_bird_35_n02007558_22160.png,n02007558_22160.png,1.0,0.24551362,-0.5016178,0.5283017
alexnet_w1_mlp_simclrhn_probe2,1,190,NaN,truck,truck,false,0190_fc_dnn_false_truck_35_n03417042_3066.png,n03417042_3066.png,1.0,1.6412941,1.2730616,0.2603797
alexnet_w1_mlp_simclrhn_probe2,1,191,NaN,boat,boat,true,0191_fc_dnn_true_boat_35_n04612504_254.png,n04612504_254.png,1.0,6.7942324,0.976312,4.113891
alexnet_w1_mlp_simclrhn_probe2,1,192,NaN,keyboard,keyboard,false,0192_fc_dnn_false_keyboard_35_n03085013_20704.png,n03085013_20704.png,1.0,1.273792,0.19356659,0.7638348
alexnet_w1_mlp_simclrhn_probe2,1,193,NaN,knife,chair,true,0193_fc_dnn_true_chair_35_n03376595_3015.png,n03376595_3015.png,0.0,0.53190506,0.8905212,-0.25357994
alexnet_w1_mlp_simclrhn_probe2,1,194,NaN,keyboard,bottle,false,0194_fc_dnn_false_bottle_35_n03983396_3782.png,n03983396_3782.png,0.0,-2.2017174,4.782419,-4.9385304
alexnet_w1_mlp_simclrhn_probe2,1,195,NaN,bird,bird,false,0195_fc_dnn_false_bird_35_n01592084_4087.png,n01592084_4087.png,1.0,2.8359323,-4.391574,5.1106186
alexnet_w1_mlp_simclrhn_probe2,1,196,NaN,bird,bird,false,0196_fc_dnn_false_bird_35_n02013706_651.png,n02013706_651.png,1.0,4.6339483,-5.5667167,7.2129593
alexnet_w1_mlp_simclrhn_probe2,1,197,NaN,keyboard,keyboard,true,0197_fc_dnn_true_keyboard_35_n04505470_2825.png,n04505470_2825.png,1.0,8.146964,1.3474629,4.807974
alexnet_w1_mlp_simclrhn_probe2,1,198,NaN,oven,cat,false,0198_fc_dnn_false_cat_35_n02123597_23346.png,n02123597_23346.png,0.0,-0.6964052,-0.6918511,-0.00322023
alexnet_w1_mlp_simclrhn_probe2,1,199,NaN,cat,cat,false,0199_fc_dnn_false_cat_35_n02124075_3592.png,n02124075_3592.png,1.0,1.0963922,-2.6313496,2.6359115
alexnet_w1_mlp_simclrhn_probe2,1,200,NaN,airplane,airplane,false,0200_fc_dnn_false_airplane_35_n02690373_5415.png,n02690373_5415.png,1.0,8.475084,-0.31093287,6.2126527
alexnet_w1_mlp_simclrhn_probe2,1,201,NaN,dog,cat,true,0201_fc_dnn_true_cat_35_n02123597_4591.png,n02123597_4591.png,0.0,0.7489619,0.8151724,-0.046817858
alexnet_w1_mlp_simclrhn_probe2,1,202,NaN,elephant,elephant,false,0202_fc_dnn_false_elephant_35_n02504013_2228.png,n02504013_2228.png,1.0,6.59404,2.6303089,2.802781
alexnet_w1_mlp_simclrhn_probe2,1,203,NaN,knife,knife,false,0203_fc_dnn_false_knife_35_n03041632_47743.png,n03041632_47743.png,1.0,1.2215941,-1.3485633,1.8173759
alexnet_w1_mlp_simclrhn_probe2,1,204,NaN,bear,bear,false,0204_fc_dnn_false_bear_35_n02134418_1105.png,n02134418_1105.png,1.0,4.4551735,0.24695091,2.9756627
alexnet_w1_mlp_simclrhn_probe2,1,205,NaN,bottle,bottle,true,0205_fc_dnn_true_bottle_35_n04591713_1174.png,n04591713_1174.png,1.0,6.239925,1.0879017,3.6430306
alexnet_w1_mlp_simclrhn_probe2,1,206,NaN,keyboard,keyboard,true,0206_fc_dnn_true_keyboard_35_n04505470_8544.png,n04505470_8544.png,1.0,2.392968,0.30623752,1.4755414
alexnet_w1_mlp_simclrhn_probe2,1,207,NaN,bear,bear,true,0207_fc_dnn_true_bear_35_n02134418_379.png,n02134418_379.png,1.0,10.65266,-0.5980065,7.955423
alexnet_w1_mlp_simclrhn_probe2,1,208,NaN,bottle,knife,false,0208_fc_dnn_false_knife_35_n03041632_33198.png,n03041632_33198.png,0.0,-0.62977695,-0.24897198,-0.26926976
alexnet_w1_mlp_simclrhn_probe2,1,209,NaN,bear,bear,true,0209_fc_dnn_true_bear_35_n02134084_4490.png,n02134084_4490.png,1.0,0.5509772,-1.5063416,1.454744
alexnet_w1_mlp_simclrhn_probe2,1,210,NaN,car,car,true,0210_fc_dnn_true_car_35_n02814533_23592.png,n02814533_23592.png,1.0,4.7224736,0.7147936,2.8338578
alexnet_w1_mlp_simclrhn_probe2,1,211,NaN,bear,dog,false,0211_fc_dnn_false_dog_35_n02102973_7095.png,n02102973_7095.png,0.0,-0.13743527,0.5494635,-0.4857108
alexnet_w1_mlp_simclrhn_probe2,1,212,NaN,elephant,elephant,true,0212_fc_dnn_true_elephant_35_n02504013_3810.png,n02504013_3810.png,1.0,16.751556,5.8392715,7.7161508
alexnet_w1_mlp_simclrhn_probe2,1,213,NaN,truck,truck,false,0213_fc_dnn_false_truck_35_n03417042_28742.png,n03417042_28742.png,1.0,6.3532906,2.7214394,2.5681067
alexnet_w1_mlp_simclrhn_probe2,1,214,NaN,bicycle,bicycle,false,0214_fc_dnn_false_bicycle_35_n03792782_4382.png,n03792782_4382.png,1.0,13.572933,-3.413108,12.010945
alexnet_w1_mlp_simclrhn_probe2,1,215,NaN,keyboard,keyboard,false,0215_fc_dnn_false_keyboard_35_n04505470_2868.png,n04505470_2868.png,1.0,6.7399273,2.4784102,3.0133476
alexnet_w1_mlp_simclrhn_probe2,1,216,NaN,bear,bear,true,0216_fc_dnn_true_bear_35_n02132136_4817.png,n02132136_4817.png,1.0,2.9915032,0.64638436,1.6582496
alexnet_w1_mlp_simclrhn_probe2,1,217,NaN,bicycle,bicycle,true,0217_fc_dnn_true_bicycle_35_n03792782_1989.png,n03792782_1989.png,1.0,5.973214,-0.47454628,4.559255
alexnet_w1_mlp_simclrhn_probe2,1,218,NaN,truck,truck,true,0218_fc_dnn_true_truck_35_n03417042_4883.png,n03417042_4883.png,1.0,5.0257387,0.24124293,3.3831494
alexnet_w1_mlp_simclrhn_probe2,1,219,NaN,bicycle,bicycle,true,0219_fc_dnn_true_bicycle_35_n03792782_6614.png,n03792782_6614.png,1.0,9.051371,-0.8668171,7.0132184
alexnet_w1_mlp_simclrhn_probe2,1,220,NaN,car,car,true,0220_fc_dnn_true_car_35_n04285008_8581.png,n04285008_8581.png,1.0,14.662311,9.126435,3.914455
alexnet_w1_mlp_simclrhn_probe2,1,221,NaN,truck,truck,true,0221_fc_dnn_true_truck_35_n04467665_22051.png,n04467665_22051.png,1.0,7.899539,1.6922116,4.389243
alexnet_w1_mlp_simclrhn_probe2,1,222,NaN,keyboard,keyboard,true,0222_fc_dnn_true_keyboard_35_n04505470_4516.png,n04505470_4516.png,1.0,8.823147,2.0691323,4.77581
alexnet_w1_mlp_simclrhn_probe2,1,223,NaN,clock,clock,true,0223_fc_dnn_true_clock_35_n02708093_3355.png,n02708093_3355.png,1.0,1.2683797,-0.07665752,0.951085
alexnet_w1_mlp_simclrhn_probe2,1,224,NaN,oven,chair,false,0224_fc_dnn_false_chair_35_n02791124_11404.png,n02791124_11404.png,0.0,0.79334587,0.92344636,-0.09199494
alexnet_w1_mlp_simclrhn_probe2,1,225,NaN,boat,boat,true,0225_fc_dnn_true_boat_35_n03344393_1145.png,n03344393_1145.png,1.0,6.607726,3.7352831,2.0311239
alexnet_w1_mlp_simclrhn_probe2,1,226,NaN,chair,keyboard,false,0226_fc_dnn_false_keyboard_35_n04505470_4627.png,n04505470_4627.png,0.0,0.13484314,2.4297156,-1.62272
alexnet_w1_mlp_simclrhn_probe2,1,227,NaN,knife,chair,true,0227_fc_dnn_true_chair_35_n03376595_4354.png,n03376595_4354.png,0.0,0.69029117,3.098226,-1.7026671
alexnet_w1_mlp_simclrhn_probe2,1,228,NaN,keyboard,keyboard,false,0228_fc_dnn_false_keyboard_35_n03085013_3231.png,n03085013_3231.png,1.0,10.496685,0.62457424,6.980636
alexnet_w1_mlp_simclrhn_probe2,1,229,NaN,car,car,false,0229_fc_dnn_false_car_35_n03100240_7454.png,n03100240_7454.png,1.0,7.8064446,5.1093225,1.9071534
alexnet_w1_mlp_simclrhn_probe2,1,230,NaN,truck,chair,false,0230_fc_dnn_false_chair_35_n03376595_4212.png,n03376595_4212.png,0.0,-1.6656896,0.99882406,-1.8840957
alexnet_w1_mlp_simclrhn_probe2,1,231,NaN,airplane,airplane,true,0231_fc_dnn_true_airplane_35_n02690373_4175.png,n02690373_4175.png,1.0,12.430848,-0.9213226,9.441411
alexnet_w1_mlp_simclrhn_probe2,1,232,NaN,oven,bird,false,0232_fc_dnn_false_bird_35_n01614925_19918.png,n01614925_19918.png,0.0,-1.9923857,0.1862953,-1.5405602
alexnet_w1_mlp_simclrhn_probe2,1,233,NaN,dog,dog,false,0233_fc_dnn_false_dog_35_n02086240_1183.png,n02086240_1183.png,1.0,0.402163,-3.0590909,2.4474761
alexnet_w1_mlp_simclrhn_probe2,1,234,NaN,car,car,false,0234_fc_dnn_false_car_35_n02814533_1344.png,n02814533_1344.png,1.0,7.82202,6.16101,1.1745117
alexnet_w1_mlp_simclrhn_probe2,1,235,NaN,oven,bottle,true,0235_fc_dnn_true_bottle_35_n03983396_1321.png,n03983396_1321.png,0.0,-2.3174675,1.3316747,-2.5803332
alexnet_w1_mlp_simclrhn_probe2,1,236,NaN,cat,cat,true,0236_fc_dnn_true_cat_35_n02123597_6291.png,n02123597_6291.png,1.0,2.3946276,-0.36517918,1.951478
alexnet_w1_mlp_simclrhn_probe2,1,237,NaN,knife,airplane,true,0237_fc_dnn_true_airplane_35_n02690373_7698.png,n02690373_7698.png,0.0,-1.0700699,0.9913734,-1.4576606
alexnet_w1_mlp_simclrhn_probe2,1,238,NaN,airplane,airplane,false,0238_fc_dnn_false_airplane_35_n02690373_4191.png,n02690373_4191.png,1.0,1.085571,-0.79379565,1.328913
alexnet_w1_mlp_simclrhn_probe2,1,239,NaN,bear,bear,true,0239_fc_dnn_true_bear_35_n02134418_6204.png,n02134418_6204.png,1.0,0.19207156,0.018049648,0.123052076
alexnet_w1_mlp_simclrhn_probe2,1,240,NaN,elephant,bear,true,0240_fc_dnn_true_bear_35_n02132136_14829.png,n02132136_14829.png,0.0,0.5514066,1.3752527,-0.5825472
alexnet_w1_mlp_simclrhn_probe2,1,241,NaN,car,car,false,0241_fc_dnn_false_car_35_n04285008_2409.png,n04285008_2409.png,1.0,7.4657416,5.416269,1.4491961
alexnet_w1_mlp_simclrhn_probe2,1,242,NaN,bird,bird,true,0242_fc_dnn_true_bird_35_n02037110_3761.png,n02037110_3761.png,1.0,6.860461,-6.0695553,9.142902
alexnet_w1_mlp_simclrhn_probe2,1,243,NaN,boat,boat,false,0243_fc_dnn_false_boat_35_n02951358_3067.png,n02951358_3067.png,1.0,2.4876227,0.100146115,1.688201
alexnet_w1_mlp_simclrhn_probe2,1,244,NaN,chair,chair,false,0244_fc_dnn_false_chair_35_n03376595_14748.png,n03376595_14748.png,1.0,4.37248,0.0007128939,3.0913062
alexnet_w1_mlp_simclrhn_probe2,1,245,NaN,elephant,elephant,true,0245_fc_dnn_true_elephant_35_n02504458_5951.png,n02504458_5951.png,1.0,7.05056,2.339601,3.331151
alexnet_w1_mlp_simclrhn_probe2,1,246,NaN,clock,clock,false,0246_fc_dnn_false_clock_35_n02708093_2006.png,n02708093_2006.png,1.0,1.4884433,0.3600894,0.79786664
alexnet_w1_mlp_simclrhn_probe2,1,247,NaN,car,car,false,0247_fc_dnn_false_car_35_n03100240_18646.png,n03100240_18646.png,1.0,9.108411,3.5496802,3.9306161
alexnet_w1_mlp_simclrhn_probe2,1,248,NaN,bicycle,bicycle,false,0248_fc_dnn_false_bicycle_35_n03792782_5864.png,n03792782_5864.png,1.0,9.990344,-1.9359393,8.433156
alexnet_w1_mlp_simclrhn_probe2,1,249,NaN,oven,chair,false,0249_fc_dnn_false_chair_35_n04429376_36830.png,n04429376_36830.png,0.0,0.24694026,1.1822345,-0.66135293
alexnet_w1_mlp_simclrhn_probe2,1,250,NaN,boat,boat,true,0250_fc_dnn_true_boat_35_n04273569_9282.png,n04273569_9282.png,1.0,4.4332747,-1.0856929,3.9024994
alexnet_w1_mlp_simclrhn_probe2,1,251,NaN,bird,bird,true,0251_fc_dnn_true_bird_35_n01622779_1609.png,n01622779_1609.png,1.0,-0.65226716,-1.083005,0.30457762
alexnet_w1_mlp_simclrhn_probe2,1,252,NaN,bicycle,dog,true,0252_fc_dnn_true_dog_35_n02088094_9498.png,n02088094_9498.png,0.0,-0.7000134,0.4552481,-0.8168933
alexnet_w1_mlp_simclrhn_probe2,1,253,NaN,car,car,true,0253_fc_dnn_true_car_35_n04285008_5525.png,n04285008_5525.png,1.0,5.128977,1.3618752,2.6637433
alexnet_w1_mlp_simclrhn_probe2,1,254,NaN,knife,knife,true,0254_fc_dnn_true_knife_35_n03041632_29343.png,n03041632_29343.png,1.0,0.39692047,-2.4045136,1.980913
alexnet_w1_mlp_simclrhn_probe2,1,255,NaN,oven,knife,true,0255_fc_dnn_true_knife_35_n03041632_86338.png,n03041632_86338.png,0.0,-1.3580163,2.3353443,-2.6116004
alexnet_w1_mlp_simclrhn_probe2,1,256,NaN,keyboard,keyboard,false,0256_fc_dnn_false_keyboard_35_n03085013_20691.png,n03085013_20691.png,1.0,4.929908,1.015727,2.7677438
alexnet_w1_mlp_simclrhn_probe2,1,257,NaN,cat,cat,true,0257_fc_dnn_true_cat_35_n02124075_1957.png,n02124075_1957.png,1.0,-1.7079543,-1.7937696,0.06068059
alexnet_w1_mlp_simclrhn_probe2,1,258,NaN,bear,bear,false,0258_fc_dnn_false_bear_35_n02134418_195.png,n02134418_195.png,1.0,2.2042327,1.8551432,0.24684356
alexnet_w1_mlp_simclrhn_probe2,1,259,NaN,chair,chair,true,0259_fc_dnn_true_chair_35_n02791124_1376.png,n02791124_1376.png,1.0,2.0063517,0.7500462,0.88834214
alexnet_w1_mlp_simclrhn_probe2,1,260,NaN,elephant,elephant,false,0260_fc_dnn_false_elephant_35_n02504458_8060.png,n02504458_8060.png,1.0,8.817455,1.4868789,5.1835003
alexnet_w1_mlp_simclrhn_probe2,1,261,NaN,oven,oven,false,0261_fc_dnn_false_oven_35_n04111531_6479.png,n04111531_6479.png,1.0,1.4200077,-2.184291,2.548624
alexnet_w1_mlp_simclrhn_probe2,1,262,NaN,elephant,bear,true,0262_fc_dnn_true_bear_35_n02132136_4070.png,n02132136_4070.png,0.0,-0.9529071,-0.45326626,-0.3532994
alexnet_w1_mlp_simclrhn_probe2,1,263,NaN,cat,cat,false,0263_fc_dnn_false_cat_35_n02123597_1153.png,n02123597_1153.png,1.0,0.4413836,0.14958183,0.206335
alexnet_w1_mlp_simclrhn_probe2,1,264,NaN,truck,truck,false,0264_fc_dnn_false_truck_35_n04467665_49656.png,n04467665_49656.png,1.0,7.0901623,2.6448262,3.1433275
alexnet_w1_mlp_simclrhn_probe2,1,265,NaN,dog,dog,true,0265_fc_dnn_true_dog_35_n02108915_10239.png,n02108915_10239.png,1.0,2.6691875,-5.0926228,5.4884286
alexnet_w1_mlp_simclrhn_probe2,1,266,NaN,chair,chair,false,0266_fc_dnn_false_chair_35_n04429376_6835.png,n04429376_6835.png,1.0,0.95744747,0.39989248,0.3942509
alexnet_w1_mlp_simclrhn_probe2,1,267,NaN,truck,truck,true,0267_fc_dnn_true_truck_35_n04467665_54079.png,n04467665_54079.png,1.0,1.5222799,0.22513144,0.9172225
alexnet_w1_mlp_simclrhn_probe2,1,268,NaN,clock,clock,false,0268_fc_dnn_false_clock_35_n03196217_4464.png,n03196217_4464.png,1.0,6.6533184,4.0415583,1.8467933
alexnet_w1_mlp_simclrhn_probe2,1,269,NaN,dog,dog,true,0269_fc_dnn_true_dog_35_n02102318_9359.png,n02102318_9359.png,1.0,1.6047264,-2.204175,2.6933
alexnet_w1_mlp_simclrhn_probe2,1,270,NaN,bicycle,bicycle,true,0270_fc_dnn_true_bicycle_35_n03792782_12578.png,n03792782_12578.png,1.0,6.8929586,-1.6469378,6.0386186
alexnet_w1_mlp_simclrhn_probe2,1,271,NaN,bicycle,bicycle,true,0271_fc_dnn_true_bicycle_35_n02835271_12752.png,n02835271_12752.png,1.0,11.66662,-3.1708035,10.491643
alexnet_w1_mlp_simclrhn_probe2,1,272,NaN,oven,oven,true,0272_fc_dnn_true_oven_35_n04111531_20056.png,n04111531_20056.png,1.0,2.6102333,-1.4900656,2.8993492
alexnet_w1_mlp_simclrhn_probe2,1,273,NaN,oven,oven,true,0273_fc_dnn_true_oven_35_n04111531_12510.png,n04111531_12510.png,1.0,2.4084659,-1.3995011,2.6926394
alexnet_w1_mlp_simclrhn_probe2,1,274,NaN,oven,oven,false,0274_fc_dnn_false_oven_35_n04111531_11079.png,n04111531_11079.png,1.0,5.4803066,0.82321733,3.2930593
alexnet_w1_mlp_simclrhn_probe2,1,275,NaN,cat,cat,true,0275_fc_dnn_true_cat_35_n02124075_4377.png,n02124075_4377.png,1.0,2.6643047,-3.418912,4.3014836
alexnet_w1_mlp_simclrhn_probe2,1,276,NaN,knife,knife,true,0276_fc_dnn_true_knife_35_n03041632_20517.png,n03041632_20517.png,1.0,2.4352336,1.4263314,0.7134016
alexnet_w1_mlp_simclrhn_probe2,1,277,NaN,knife,knife,false,0277_fc_dnn_false_knife_35_n03041632_362.png,n03041632_362.png,1.0,1.7192292,-1.8306277,2.510128
alexnet_w1_mlp_simclrhn_probe2,1,278,NaN,airplane,airplane,false,0278_fc_dnn_false_airplane_35_n02690373_6807.png,n02690373_6807.png,1.0,6.627996,3.3484173,2.3190124
alexnet_w1_mlp_simclrhn_probe2,1,279,NaN,elephant,elephant,false,0279_fc_dnn_false_elephant_35_n02504013_1494.png,n02504013_1494.png,1.0,15.022965,5.1696663,6.9673347
alexnet_w1_mlp_simclrhn_probe2,1,280,NaN,oven,oven,false,0280_fc_dnn_false_oven_35_n04111531_3181.png,n04111531_3181.png,1.0,0.8549292,-1.4529266,1.6319005
alexnet_w1_mlp_simclrhn_probe2,1,281,NaN,car,truck,false,0281_fc_dnn_false_truck_35_n03796401_6727.png,n03796401_6727.png,0.0,8.832392,10.934925,-1.4867156
alexnet_w1_mlp_simclrhn_probe2,1,282,NaN,dog,dog,true,0282_fc_dnn_true_dog_35_n02113023_6956.png,n02113023_6956.png,1.0,0.96574074,0.4591163,0.3582376
alexnet_w1_mlp_simclrhn_probe2,1,283,NaN,bicycle,elephant,false,0283_fc_dnn_false_elephant_35_n02504013_1519.png,n02504013_1519.png,0.0,-1.1666731,-0.7045995,-0.32673535
alexnet_w1_mlp_simclrhn_probe2,1,284,NaN,oven,oven,false,0284_fc_dnn_false_oven_35_n04111531_8082.png,n04111531_8082.png,1.0,2.320257,0.17675944,1.5156816
alexnet_w1_mlp_simclrhn_probe2,1,285,NaN,oven,oven,false,0285_fc_dnn_false_oven_35_n04111531_550.png,n04111531_550.png,1.0,2.0331573,1.0408089,0.70169634
alexnet_w1_mlp_simclrhn_probe2,1,286,NaN,knife,clock,false,0286_fc_dnn_false_clock_35_n02708093_2242.png,n02708093_2242.png,0.0,-2.748101,-1.06275,-1.1917231
alexnet_w1_mlp_simclrhn_probe2,1,287,NaN,airplane,airplane,true,0287_fc_dnn_true_airplane_35_n02690373_10809.png,n02690373_10809.png,1.0,9.815014,-0.7694262,7.4843297
alexnet_w1_mlp_simclrhn_probe2,1,288,NaN,bird,bird,false,0288_fc_dnn_false_bird_35_n02037110_6501.png,n02037110_6501.png,1.0,7.2857265,-6.145839,9.497552
alexnet_w1_mlp_simclrhn_probe2,1,289,NaN,airplane,airplane,false,0289_fc_dnn_false_airplane_35_n02690373_12756.png,n02690373_12756.png,1.0,6.7375283,1.4239916,3.757238
alexnet_w1_mlp_simclrhn_probe2,1,290,NaN,oven,bottle,false,0290_fc_dnn_false_bottle_35_n03983396_5413.png,n03983396_5413.png,0.0,0.07216128,2.0734632,-1.4151342
alexnet_w1_mlp_simclrhn_probe2,1,291,NaN,bird,bird,true,0291_fc_dnn_true_bird_35_n01560419_631.png,n01560419_631.png,1.0,5.260351,-4.3855186,6.82066
alexnet_w1_mlp_simclrhn_probe2,1,292,NaN,cat,cat,true,0292_fc_dnn_true_cat_35_n02123394_4734.png,n02123394_4734.png,1.0,-0.41344747,-0.418976,0.003909268
alexnet_w1_mlp_simclrhn_probe2,1,293,NaN,bottle,bottle,true,0293_fc_dnn_true_bottle_35_n03937543_469.png,n03937543_469.png,1.0,1.3026522,-0.43657884,1.2298222
alexnet_w1_mlp_simclrhn_probe2,1,294,NaN,clock,clock,true,0294_fc_dnn_true_clock_35_n04548280_1055.png,n04548280_1055.png,1.0,3.6353874,0.46046823,2.2450068
alexnet_w1_mlp_simclrhn_probe2,1,295,NaN,knife,chair,true,0295_fc_dnn_true_chair_35_n02791124_15934.png,n02791124_15934.png,0.0,-0.098191686,0.19040367,-0.20406774
alexnet_w1_mlp_simclrhn_probe2,1,296,NaN,cat,keyboard,true,0296_fc_dnn_true_keyboard_35_n03085013_22187.png,n03085013_22187.png,0.0,-8.57413,7.7344556,-11.531912
alexnet_w1_mlp_simclrhn_probe2,1,297,NaN,dog,dog,false,0297_fc_dnn_false_dog_35_n02099601_8560.png,n02099601_8560.png,1.0,2.2450118,-0.11412368,1.6681607
alexnet_w1_mlp_simclrhn_probe2,1,298,NaN,truck,truck,true,0298_fc_dnn_true_truck_35_n03417042_11091.png,n03417042_11091.png,1.0,8.513876,3.2796695,3.7011428
alexnet_w1_mlp_simclrhn_probe2,1,299,NaN,bird,bird,true,0299_fc_dnn_true_bird_35_n02013706_7132.png,n02013706_7132.png,1.0,0.7547028,0.22324428,0.37579793
alexnet_w1_mlp_simclrhn_probe2,1,300,NaN,car,car,false,0300_fc_dnn_false_car_35_n02814533_4978.png,n02814533_4978.png,1.0,8.232527,5.5748425,1.8792666
alexnet_w1_mlp_simclrhn_probe2,1,301,NaN,bear,bear,true,0301_fc_dnn_true_bear_35_n02134418_6244.png,n02134418_6244.png,1.0,3.6339025,-0.8390753,3.1628728
alexnet_w1_mlp_simclrhn_probe2,1,302,NaN,bicycle,bicycle,false,0302_fc_dnn_false_bicycle_35_n03792782_50569.png,n03792782_50569.png,1.0,10.980936,1.0759182,7.0039053
alexnet_w1_mlp_simclrhn_probe2,1,303,NaN,car,car,true,0303_fc_dnn_true_car_35_n03100240_2632.png,n03100240_2632.png,1.0,5.055904,3.435586,1.1457378
alexnet_w1_mlp_simclrhn_probe2,1,304,NaN,knife,knife,false,0304_fc_dnn_false_knife_35_n03041632_11285.png,n03041632_11285.png,1.0,2.083157,-0.32631165,1.7037517
alexnet_w1_mlp_simclrhn_probe2,1,305,NaN,knife,knife,false,0305_fc_dnn_false_knife_35_n03041632_39952.png,n03041632_39952.png,1.0,3.1151454,-0.7456127,2.7299683
alexnet_w1_mlp_simclrhn_probe2,1,306,NaN,chair,chair,true,0306_fc_dnn_true_chair_35_n04099969_9745.png,n04099969_9745.png,1.0,1.2900838,-0.34353483,1.1551428
alexnet_w1_mlp_simclrhn_probe2,1,307,NaN,car,car,true,0307_fc_dnn_true_car_35_n03100240_49.png,n03100240_49.png,1.0,13.856734,11.702297,1.5234171
alexnet_w1_mlp_simclrhn_probe2,1,308,NaN,bird,bird,true,0308_fc_dnn_true_bird_35_n01817953_5953.png,n01817953_5953.png,1.0,0.2807973,-3.3721797,2.5830448
alexnet_w1_mlp_simclrhn_probe2,1,309,NaN,bear,bear,false,0309_fc_dnn_false_bear_35_n02134418_5253.png,n02134418_5253.png,1.0,2.1506677,1.1417569,0.71340764
alexnet_w1_mlp_simclrhn_probe2,1,310,NaN,bicycle,bicycle,false,0310_fc_dnn_false_bicycle_35_n03792782_7576.png,n03792782_7576.png,1.0,9.806556,-3.0677338,9.1034975
alexnet_w1_mlp_simclrhn_probe2,1,311,NaN,clock,keyboard,true,0311_fc_dnn_true_keyboard_35_n03085013_5157.png,n03085013_5157.png,0.0,-0.4108131,2.0287716,-1.725047
alexnet_w1_mlp_simclrhn_probe2,1,312,NaN,truck,boat,true,0312_fc_dnn_true_boat_35_n03344393_7050.png,n03344393_7050.png,0.0,-1.1187054,0.9957693,-1.4951595
alexnet_w1_mlp_simclrhn_probe2,1,313,NaN,bicycle,bicycle,false,0313_fc_dnn_false_bicycle_35_n03792782_51335.png,n03792782_51335.png,1.0,6.1641417,-1.8765975,5.6856613
alexnet_w1_mlp_simclrhn_probe2,1,314,NaN,cat,cat,true,0314_fc_dnn_true_cat_35_n02124075_7230.png,n02124075_7230.png,1.0,3.4313393,-2.3753119,4.105922
alexnet_w1_mlp_simclrhn_probe2,1,315,NaN,airplane,truck,true,0315_fc_dnn_true_truck_35_n04467665_68020.png,n04467665_68020.png,0.0,-0.03063786,3.4974084,-2.4947054
alexnet_w1_mlp_simclrhn_probe2,1,316,NaN,elephant,elephant,true,0316_fc_dnn_true_elephant_35_n02504458_2970.png,n02504458_2970.png,1.0,-0.0983288,-0.9896396,0.63025194
alexnet_w1_mlp_simclrhn_probe2,1,317,NaN,bicycle,bicycle,false,0317_fc_dnn_false_bicycle_35_n02835271_2714.png,n02835271_2714.png,1.0,13.484497,-1.0080161,10.247755
alexnet_w1_mlp_simclrhn_probe2,1,318,NaN,elephant,elephant,true,0318_fc_dnn_true_elephant_35_n02504013_3307.png,n02504013_3307.png,1.0,10.464848,4.608197,4.1412773
alexnet_w1_mlp_simclrhn_probe2,1,319,NaN,truck,truck,true,0319_fc_dnn_true_truck_35_n03796401_3940.png,n03796401_3940.png,1.0,7.828946,3.5854025,3.0006385
alexnet_w1_mlp_simclrhn_probe2,1,320,NaN,oven,chair,false,0320_fc_dnn_false_chair_35_n04429376_5362.png,n04429376_5362.png,0.0,1.2037699,3.5591774,-1.6655246
alexnet_w1_mlp_simclrhn_probe2,1,321,NaN,cat,cat,false,0321_fc_dnn_false_cat_35_n02123159_1165.png,n02123159_1165.png,1.0,2.4205601,-0.9905516,2.4120204
alexnet_w1_mlp_simclrhn_probe2,1,322,NaN,airplane,boat,true,0322_fc_dnn_true_boat_35_n03662601_4665.png,n03662601_4665.png,0.0,3.3603122,3.5998151,-0.16935413
alexnet_w1_mlp_simclrhn_probe2,1,323,NaN,cat,cat,true,0323_fc_dnn_true_cat_35_n02124075_5067.png,n02124075_5067.png,1.0,5.693729,-1.2869669,4.936097
alexnet_w1_mlp_simclrhn_probe2,1,324,NaN,knife,knife,true,0324_fc_dnn_true_knife_35_n03041632_22480.png,n03041632_22480.png,1.0,1.5412987,-3.1114743,3.2900074
alexnet_w1_mlp_simclrhn_probe2,1,325,NaN,bicycle,bottle,false,0325_fc_dnn_false_bottle_35_n04560804_2539.png,n04560804_2539.png,0.0,-5.2511888,4.850197,-7.142758
alexnet_w1_mlp_simclrhn_probe2,1,326,NaN,oven,oven,true,0326_fc_dnn_true_oven_35_n04111531_8681.png,n04111531_8681.png,1.0,4.185354,0.40308818,2.6744661
alexnet_w1_mlp_simclrhn_probe2,1,327,NaN,car,car,false,0327_fc_dnn_false_car_35_n03100240_23804.png,n03100240_23804.png,1.0,13.063525,9.408102,2.5847745
alexnet_w1_mlp_simclrhn_probe2,1,328,NaN,oven,oven,true,0328_fc_dnn_true_oven_35_n04111531_547.png,n04111531_547.png,1.0,4.2897205,0.30170715,2.8199513
alexnet_w1_mlp_simclrhn_probe2,1,329,NaN,boat,boat,false,0329_fc_dnn_false_boat_35_n04273569_9873.png,n04273569_9873.png,1.0,7.144161,1.7558761,3.810093
alexnet_w1_mlp_simclrhn_probe2,1,330,NaN,cat,cat,false,0330_fc_dnn_false_cat_35_n02123597_13140.png,n02123597_13140.png,1.0,2.0326755,-0.21367848,1.5884123
alexnet_w1_mlp_simclrhn_probe2,1,331,NaN,bear,bear,true,0331_fc_dnn_true_bear_35_n02134418_1330.png,n02134418_1330.png,1.0,2.2768567,-1.8364376,2.908538
alexnet_w1_mlp_simclrhn_probe2,1,332,NaN,oven,chair,false,0332_fc_dnn_false_chair_35_n04429376_6272.png,n04429376_6272.png,0.0,1.2230871,2.609584,-0.98040146
alexnet_w1_mlp_simclrhn_probe2,1,333,NaN,bear,bear,false,0333_fc_dnn_false_bear_35_n02134084_22997.png,n02134084_22997.png,1.0,1.0185893,-0.43252358,1.0260918
alexnet_w1_mlp_simclrhn_probe2,1,334,NaN,oven,clock,false,0334_fc_dnn_false_clock_35_n03196217_3508.png,n03196217_3508.png,0.0,0.54018134,3.0358353,-1.7646939
alexnet_w1_mlp_simclrhn_probe2,1,335,NaN,chair,chair,true,0335_fc_dnn_true_chair_35_n02791124_958.png,n02791124_958.png,1.0,1.3701723,-0.20619532,1.1146603
alexnet_w1_mlp_simclrhn_probe2,1,336,NaN,boat,boat,false,0336_fc_dnn_false_boat_35_n03344393_4012.png,n03344393_4012.png,1.0,4.007356,1.5730321,1.7213271
alexnet_w1_mlp_simclrhn_probe2,1,337,NaN,airplane,airplane,true,0337_fc_dnn_true_airplane_35_n02690373_4921.png,n02690373_4921.png,1.0,12.234081,2.6626763,6.768006
alexnet_w1_mlp_simclrhn_probe2,1,338,NaN,bear,cat,false,0338_fc_dnn_false_cat_35_n02125311_28052.png,n02125311_28052.png,0.0,0.26774564,0.9663103,-0.4939598
alexnet_w1_mlp_simclrhn_probe2,1,339,NaN,airplane,airplane,false,0339_fc_dnn_false_airplane_35_n02690373_1837.png,n02690373_1837.png,1.0,2.3785636,0.74067116,1.1581649
alexnet_w1_mlp_simclrhn_probe2,1,340,NaN,elephant,elephant,false,0340_fc_dnn_false_elephant_35_n02504458_5191.png,n02504458_5191.png,1.0,10.134374,1.763693,5.9189653
alexnet_w1_mlp_simclrhn_probe2,1,341,NaN,bird,bird,false,0341_fc_dnn_false_bird_35_n01855672_2187.png,n01855672_2187.png,1.0,1.0694164,-1.8879299,2.0911598
alexnet_w1_mlp_simclrhn_probe2,1,342,NaN,clock,clock,true,0342_fc_dnn_true_clock_35_n04548280_7794.png,n04548280_7794.png,1.0,4.5989556,-1.5573819,4.353188
alexnet_w1_mlp_simclrhn_probe2,1,343,NaN,keyboard,clock,false,0343_fc_dnn_false_clock_35_n03196217_8489.png,n03196217_8489.png,0.0,-2.6814833,1.3365748,-2.841196
alexnet_w1_mlp_simclrhn_probe2,1,344,NaN,knife,knife,false,0344_fc_dnn_false_knife_35_n03041632_21590.png,n03041632_21590.png,1.0,0.4607205,0.065826125,0.2792325
alexnet_w1_mlp_simclrhn_probe2,1,345,NaN,elephant,elephant,false,0345_fc_dnn_false_elephant_35_n02504458_1249.png,n02504458_1249.png,1.0,19.809109,2.432915,12.286825
alexnet_w1_mlp_simclrhn_probe2,1,346,NaN,keyboard,keyboard,false,0346_fc_dnn_false_keyboard_35_n04505470_4549.png,n04505470_4549.png,1.0,3.4924316,1.5995347,1.3384802
alexnet_w1_mlp_simclrhn_probe2,1,347,NaN,elephant,elephant,false,0347_fc_dnn_false_elephant_35_n02504013_3771.png,n02504013_3771.png,1.0,9.62253,1.2476989,5.9219
alexnet_w1_mlp_simclrhn_probe2,1,348,NaN,bicycle,bicycle,true,0348_fc_dnn_true_bicycle_35_n02835271_19552.png,n02835271_19552.png,1.0,12.664475,2.882843,6.916659
alexnet_w1_mlp_simclrhn_probe2,1,349,NaN,elephant,bear,true,0349_fc_dnn_true_bear_35_n02134084_4477.png,n02134084_4477.png,0.0,-0.57092595,-0.33778542,-0.16485526
alexnet_w1_mlp_simclrhn_probe2,1,350,NaN,elephant,elephant,false,0350_fc_dnn_false_elephant_35_n02504013_10149.png,n02504013_10149.png,1.0,24.943863,5.8042383,13.533759
alexnet_w1_mlp_simclrhn_probe2,1,351,NaN,boat,boat,true,0351_fc_dnn_true_boat_35_n04273569_709.png,n04273569_709.png,1.0,7.1036215,5.098365,1.4179306
alexnet_w1_mlp_simclrhn_probe2,1,352,NaN,car,car,false,0352_fc_dnn_false_car_35_n03100240_7120.png,n03100240_7120.png,1.0,15.339574,11.014466,3.058313
alexnet_w1_mlp_simclrhn_probe2,1,353,NaN,car,boat,false,0353_fc_dnn_false_boat_35_n02951358_12867.png,n02951358_12867.png,0.0,-0.090581134,6.9756,-4.9965444
alexnet_w1_mlp_simclrhn_probe2,1,354,NaN,bird,bird,true,0354_fc_dnn_true_bird_35_n01558993_38999.png,n01558993_38999.png,1.0,2.5973756,-4.7888775,5.22287
alexnet_w1_mlp_simclrhn_probe2,1,355,NaN,bicycle,bicycle,false,0355_fc_dnn_false_bicycle_35_n03792782_4210.png,n03792782_4210.png,1.0,3.433697,-0.77656513,2.9771051
alexnet_w1_mlp_simclrhn_probe2,1,356,NaN,dog,dog,false,0356_fc_dnn_false_dog_35_n02102318_11997.png,n02102318_11997.png,1.0,2.5301464,0.3284554,1.5568306
alexnet_w1_mlp_simclrhn_probe2,1,357,NaN,knife,clock,false,0357_fc_dnn_false_clock_35_n02708093_6813.png,n02708093_6813.png,0.0,-2.6008365,-0.56374425,-1.4404417
alexnet_w1_mlp_simclrhn_probe2,1,358,NaN,oven,oven,false,0358_fc_dnn_false_oven_35_n04111531_8036.png,n04111531_8036.png,1.0,6.0018344,-2.085641,5.7187085
alexnet_w1_mlp_simclrhn_probe2,1,359,NaN,clock,clock,false,0359_fc_dnn_false_clock_35_n02708093_3454.png,n02708093_3454.png,1.0,11.880002,-0.8879623,9.028315
alexnet_w1_mlp_simclrhn_probe2,1,360,NaN,keyboard,keyboard,true,0360_fc_dnn_true_keyboard_35_n03085013_21641.png,n03085013_21641.png,1.0,16.459267,0.64348286,11.183448
alexnet_w1_mlp_simclrhn_probe2,1,361,NaN,oven,chair,false,0361_fc_dnn_false_chair_35_n02791124_139.png,n02791124_139.png,0.0,1.5279938,2.7349796,-0.8534679
alexnet_w1_mlp_simclrhn_probe2,1,362,NaN,dog,bear,false,0362_fc_dnn_false_bear_35_n02134084_6821.png,n02134084_6821.png,0.0,-0.9705504,0.65510046,-1.1495088
alexnet_w1_mlp_simclrhn_probe2,1,363,NaN,cat,cat,false,0363_fc_dnn_false_cat_35_n02124075_5874.png,n02124075_5874.png,1.0,4.5667005,-0.9353305,3.8905234
alexnet_w1_mlp_simclrhn_probe2,1,364,NaN,chair,chair,false,0364_fc_dnn_false_chair_35_n04099969_8604.png,n04099969_8604.png,1.0,2.3630567,-0.2583062,1.8535836
alexnet_w1_mlp_simclrhn_probe2,1,365,NaN,bicycle,bicycle,true,0365_fc_dnn_true_bicycle_35_n02835271_15524.png,n02835271_15524.png,1.0,13.882706,-2.048448,11.265027
alexnet_w1_mlp_simclrhn_probe2,1,366,NaN,chair,chair,false,0366_fc_dnn_false_chair_35_n04429376_55163.png,n04429376_55163.png,1.0,4.0538597,1.6799217,1.6786277
alexnet_w1_mlp_simclrhn_probe2,1,367,NaN,dog,dog,true,0367_fc_dnn_true_dog_35_n02106662_10632.png,n02106662_10632.png,1.0,3.586059,-3.3908687,4.933433
alexnet_w1_mlp_simclrhn_probe2,1,368,NaN,car,car,false,0368_fc_dnn_false_car_35_n03100240_9675.png,n03100240_9675.png,1.0,12.133782,5.695262,4.5527215
alexnet_w1_mlp_simclrhn_probe2,1,369,NaN,bird,bird,true,0369_fc_dnn_true_bird_35_n02011460_22291.png,n02011460_22291.png,1.0,4.352544,-4.400898,6.189618
alexnet_w1_mlp_simclrhn_probe2,1,370,NaN,cat,dog,false,0370_fc_dnn_false_dog_35_n02106662_56099.png,n02106662_56099.png,0.0,-0.20651609,2.5902488,-1.9776114
alexnet_w1_mlp_simclrhn_probe2,1,371,NaN,keyboard,keyboard,false,0371_fc_dnn_false_keyboard_35_n04505470_3970.png,n04505470_3970.png,1.0,14.411184,3.3772745,7.8021526
alexnet_w1_mlp_simclrhn_probe2,1,372,NaN,boat,boat,false,0372_fc_dnn_false_boat_35_n03662601_32803.png,n03662601_32803.png,1.0,11.30497,-1.1392436,8.799388
alexnet_w1_mlp_simclrhn_probe2,1,373,NaN,bottle,bottle,false,0373_fc_dnn_false_bottle_35_n02823428_4043.png,n02823428_4043.png,1.0,5.7049265,-0.24243148,4.205417
alexnet_w1_mlp_simclrhn_probe2,1,374,NaN,airplane,airplane,true,0374_fc_dnn_true_airplane_35_n02690373_5221.png,n02690373_5221.png,1.0,14.423544,2.9847178,8.088471
alexnet_w1_mlp_simclrhn_probe2,1,375,NaN,bottle,knife,false,0375_fc_dnn_false_knife_35_n03041632_90125.png,n03041632_90125.png,0.0,-1.7285062,1.0678842,-1.9773468
alexnet_w1_mlp_simclrhn_probe2,1,376,NaN,oven,oven,false,0376_fc_dnn_false_oven_35_n04111531_11230.png,n04111531_11230.png,1.0,6.0681906,0.38046435,4.0218296
alexnet_w1_mlp_simclrhn_probe2,1,377,NaN,keyboard,keyboard,true,0377_fc_dnn_true_keyboard_35_n04505470_3002.png,n04505470_3002.png,1.0,1.6820848,-0.6976868,1.6827527
alexnet_w1_mlp_simclrhn_probe2,1,378,NaN,bicycle,bicycle,true,0378_fc_dnn_true_bicycle_35_n02835271_12237.png,n02835271_12237.png,1.0,8.480852,-1.8088607,7.275926
alexnet_w1_mlp_simclrhn_probe2,1,379,NaN,oven,dog,false,0379_fc_dnn_false_dog_35_n02088238_9947.png,n02088238_9947.png,0.0,-3.8858287,1.7585863,-3.991204
alexnet_w1_mlp_simclrhn_probe2,1,380,NaN,airplane,airplane,false,0380_fc_dnn_false_airplane_35_n02690373_2075.png,n02690373_2075.png,1.0,0.9994178,-0.05574566,0.7461132
alexnet_w1_mlp_simclrhn_probe2,1,381,NaN,bicycle,bicycle,false,0381_fc_dnn_false_bicycle_35_n02835271_12930.png,n02835271_12930.png,1.0,14.228756,-3.6984513,12.676451
alexnet_w1_mlp_simclrhn_probe2,1,382,NaN,dog,dog,false,0382_fc_dnn_false_dog_35_n02096294_4609.png,n02096294_4609.png,1.0,1.1639878,-0.81174165,1.3970517
alexnet_w1_mlp_simclrhn_probe2,1,383,NaN,oven,knife,false,0383_fc_dnn_false_knife_35_n03041632_15754.png,n03041632_15754.png,0.0,0.6148884,1.4393203,-0.5829614
alexnet_w1_mlp_simclrhn_probe2,1,384,NaN,bird,bird,true,0384_fc_dnn_true_bird_35_n01819313_5634.png,n01819313_5634.png,1.0,1.6640264,-0.3996261,1.4592227
alexnet_w1_mlp_simclrhn_probe2,1,385,NaN,clock,clock,true,0385_fc_dnn_true_clock_35_n02708093_8386.png,n02708093_8386.png,1.0,4.210846,-0.1292112,3.0688841
alexnet_w1_mlp_simclrhn_probe2,1,386,NaN,bottle,bottle,false,0386_fc_dnn_false_bottle_35_n04579145_6435.png,n04579145_6435.png,1.0,7.2478156,-0.3765911,5.3912697
alexnet_w1_mlp_simclrhn_probe2,1,387,NaN,airplane,airplane,true,0387_fc_dnn_true_airplane_35_n02690373_9531.png,n02690373_9531.png,1.0,3.8713088,1.5090631,1.6703598
alexnet_w1_mlp_simclrhn_probe2,1,388,NaN,chair,bottle,true,0388_fc_dnn_true_bottle_35_n04591713_5518.png,n04591713_5518.png,0.0,-1.0619174,0.89444673,-1.3833584
alexnet_w1_mlp_simclrhn_probe2,1,389,NaN,airplane,airplane,false,0389_fc_dnn_false_airplane_35_n02690373_12896.png,n02690373_12896.png,1.0,6.451427,0.13823886,4.464098
alexnet_w1_mlp_simclrhn_probe2,1,390,NaN,truck,truck,false,0390_fc_dnn_false_truck_35_n03796401_124.png,n03796401_124.png,1.0,3.3025198,2.288532,0.7169976
alexnet_w1_mlp_simclrhn_probe2,1,391,NaN,elephant,bicycle,true,0391_fc_dnn_true_bicycle_35_n03792782_7050.png,n03792782_7050.png,0.0,-0.33370262,-0.24435592,-0.06317766
alexnet_w1_mlp_simclrhn_probe2,1,392,NaN,bicycle,bicycle,true,0392_fc_dnn_true_bicycle_35_n02835271_13729.png,n02835271_13729.png,1.0,12.618938,0.20868531,8.775374
alexnet_w1_mlp_simclrhn_probe2,1,393,NaN,bird,bird,false,0393_fc_dnn_false_bird_35_n02027492_3922.png,n02027492_3922.png,1.0,2.0017202,-2.7268095,3.3435757
alexnet_w1_mlp_simclrhn_probe2,1,394,NaN,elephant,elephant,true,0394_fc_dnn_true_elephant_35_n02504013_9809.png,n02504013_9809.png,1.0,13.142538,2.0982485,7.809492
alexnet_w1_mlp_simclrhn_probe2,1,395,NaN,keyboard,keyboard,false,0395_fc_dnn_false_keyboard_35_n04505470_5086.png,n04505470_5086.png,1.0,8.922699,1.9209429,4.9509892
alexnet_w1_mlp_simclrhn_probe2,1,396,NaN,keyboard,keyboard,true,0396_fc_dnn_true_keyboard_35_n03085013_19439.png,n03085013_19439.png,1.0,3.8462076,0.6486335,2.2610264
alexnet_w1_mlp_simclrhn_probe2,1,397,NaN,airplane,airplane,false,0397_fc_dnn_false_airplane_35_n02690373_9926.png,n02690373_9926.png,1.0,7.903804,-0.44564757,5.9039536
alexnet_w1_mlp_simclrhn_probe2,1,398,NaN,elephant,elephant,true,0398_fc_dnn_true_elephant_35_n02504458_3197.png,n02504458_3197.png,1.0,17.495016,5.27219,8.642843
alexnet_w1_mlp_simclrhn_probe2,1,399,NaN,dog,dog,false,0399_fc_dnn_false_dog_35_n02110185_14056.png,n02110185_14056.png,1.0,3.4844728,-2.5069046,4.2365437
alexnet_w1_mlp_simclrhn_probe2,1,400,NaN,airplane,airplane,true,0400_fc_dnn_true_airplane_35_n02690373_2823.png,n02690373_2823.png,1.0,13.770331,4.3851,6.6363606
alexnet_w1_mlp_simclrhn_probe2,1,401,NaN,bicycle,bicycle,false,0401_fc_dnn_false_bicycle_35_n02835271_14157.png,n02835271_14157.png,1.0,20.360405,-3.1981018,16.65838
alexnet_w1_mlp_simclrhn_probe2,1,402,NaN,chair,chair,true,0402_fc_dnn_true_chair_35_n03376595_606.png,n03376595_606.png,1.0,1.9640179,1.3633019,0.42477036
alexnet_w1_mlp_simclrhn_probe2,1,403,NaN,airplane,airplane,false,0403_fc_dnn_false_airplane_35_n02690373_1442.png,n02690373_1442.png,1.0,6.2479963,-0.7048928,4.9164352
alexnet_w1_mlp_simclrhn_probe2,1,404,NaN,keyboard,keyboard,true,0404_fc_dnn_true_keyboard_35_n04505470_10035.png,n04505470_10035.png,1.0,7.194034,2.2731223,3.4796102
alexnet_w1_mlp_simclrhn_probe2,1,405,NaN,bear,bear,true,0405_fc_dnn_true_bear_35_n02133161_13278.png,n02133161_13278.png,1.0,4.757517,4.221859,0.37876734
alexnet_w1_mlp_simclrhn_probe2,1,406,NaN,elephant,bear,true,0406_fc_dnn_true_bear_35_n02134418_2657.png,n02134418_2657.png,0.0,0.5694639,0.73033625,-0.11375392
alexnet_w1_mlp_simclrhn_probe2,1,407,NaN,bear,bear,false,0407_fc_dnn_false_bear_35_n02133161_12894.png,n02133161_12894.png,1.0,3.0958624,-1.5991498,3.319875
alexnet_w1_mlp_simclrhn_probe2,1,408,NaN,car,clock,false,0408_fc_dnn_false_clock_35_n03196217_6195.png,n03196217_6195.png,0.0,1.8583899,3.2504628,-0.98434424
alexnet_w1_mlp_simclrhn_probe2,1,409,NaN,bottle,bottle,true,0409_fc_dnn_true_bottle_35_n04591713_13349.png,n04591713_13349.png,1.0,6.9025455,0.6033454,4.454207
alexnet_w1_mlp_simclrhn_probe2,1,410,NaN,airplane,boat,false,0410_fc_dnn_false_boat_35_n04273569_16295.png,n04273569_16295.png,0.0,2.3530211,3.1172721,-0.54040706
alexnet_w1_mlp_simclrhn_probe2,1,411,NaN,elephant,elephant,false,0411_fc_dnn_false_elephant_35_n02504013_2672.png,n02504013_2672.png,1.0,11.340644,1.317989,7.087087
alexnet_w1_mlp_simclrhn_probe2,1,412,NaN,bear,bear,true,0412_fc_dnn_true_bear_35_n02134084_22292.png,n02134084_22292.png,1.0,2.87669,1.4584372,1.0028561
alexnet_w1_mlp_simclrhn_probe2,1,413,NaN,airplane,airplane,false,0413_fc_dnn_false_airplane_35_n02690373_997.png,n02690373_997.png,1.0,9.880948,3.3035893,4.650895
alexnet_w1_mlp_simclrhn_probe2,1,414,NaN,knife,knife,true,0414_fc_dnn_true_knife_35_n03041632_29337.png,n03041632_29337.png,1.0,-0.4101423,-0.49859896,0.0625483
alexnet_w1_mlp_simclrhn_probe2,1,415,NaN,elephant,elephant,true,0415_fc_dnn_true_elephant_35_n02504458_3261.png,n02504458_3261.png,1.0,2.958578,-0.4836021,2.433989
alexnet_w1_mlp_simclrhn_probe2,1,416,NaN,oven,oven,true,0416_fc_dnn_true_oven_35_n04111531_22120.png,n04111531_22120.png,1.0,5.432727,2.4649305,2.098549
alexnet_w1_mlp_simclrhn_probe2,1,417,NaN,bear,bear,true,0417_fc_dnn_true_bear_35_n02134418_830.png,n02134418_830.png,1.0,3.0752568,1.3658724,1.2087173
alexnet_w1_mlp_simclrhn_probe2,1,418,NaN,truck,truck,false,0418_fc_dnn_false_truck_35_n03417042_2124.png,n03417042_2124.png,1.0,8.142367,3.71649,3.129568
alexnet_w1_mlp_simclrhn_probe2,1,419,NaN,bicycle,bicycle,false,0419_fc_dnn_false_bicycle_35_n02835271_14585.png,n02835271_14585.png,1.0,10.786451,-0.9049818,8.267092
alexnet_w1_mlp_simclrhn_probe2,1,420,NaN,oven,oven,true,0420_fc_dnn_true_oven_35_n04111531_2855.png,n04111531_2855.png,1.0,4.842807,-2.0642393,4.8840194
alexnet_w1_mlp_simclrhn_probe2,1,421,NaN,cat,cat,false,0421_fc_dnn_false_cat_35_n02123394_4383.png,n02123394_4383.png,1.0,1.8453547,-0.09066472,1.3689725
alexnet_w1_mlp_simclrhn_probe2,1,422,NaN,cat,cat,true,0422_fc_dnn_true_cat_35_n02125311_17068.png,n02125311_17068.png,1.0,2.3945367,0.83280635,1.1043102
alexnet_w1_mlp_simclrhn_probe2,1,423,NaN,bird,bird,false,0423_fc_dnn_false_bird_35_n01560419_2291.png,n01560419_2291.png,1.0,5.912317,-1.8172152,5.465605
alexnet_w1_mlp_simclrhn_probe2,1,424,NaN,bird,bird,false,0424_fc_dnn_false_bird_35_n01829413_2459.png,n01829413_2459.png,1.0,2.4890783,-1.0856098,2.527686
alexnet_w1_mlp_simclrhn_probe2,1,425,NaN,oven,oven,true,0425_fc_dnn_true_oven_35_n04111531_13822.png,n04111531_13822.png,1.0,3.9634397,-0.1609391,2.916376
alexnet_w1_mlp_simclrhn_probe2,1,426,NaN,bear,bear,false,0426_fc_dnn_false_bear_35_n02133161_5067.png,n02133161_5067.png,1.0,8.377281,-0.5989452,6.347151
alexnet_w1_mlp_simclrhn_probe2,1,427,NaN,chair,chair,false,0427_fc_dnn_false_chair_35_n02791124_885.png,n02791124_885.png,1.0,0.3448226,0.16211957,0.12919055
alexnet_w1_mlp_simclrhn_probe2,1,428,NaN,cat,dog,true,0428_fc_dnn_true_dog_35_n02107312_7182.png,n02107312_7182.png,0.0,0.40926316,2.2586014,-1.3076797
alexnet_w1_mlp_simclrhn_probe2,1,429,NaN,truck,truck,true,0429_fc_dnn_true_truck_35_n04467665_13989.png,n04467665_13989.png,1.0,2.902245,1.130097,1.2530979
alexnet_w1_mlp_simclrhn_probe2,1,430,NaN,dog,dog,true,0430_fc_dnn_true_dog_35_n02102480_10232.png,n02102480_10232.png,1.0,-0.03975743,-0.60653675,0.4007735
alexnet_w1_mlp_simclrhn_probe2,1,431,NaN,oven,oven,false,0431_fc_dnn_false_oven_35_n04111531_643.png,n04111531_643.png,1.0,8.023289,0.32613984,5.442706
alexnet_w1_mlp_simclrhn_probe2,1,432,NaN,boat,boat,true,0432_fc_dnn_true_boat_35_n02951358_31514.png,n02951358_31514.png,1.0,5.2520394,0.24720079,3.5389552
alexnet_w1_mlp_simclrhn_probe2,1,433,NaN,oven,oven,true,0433_fc_dnn_true_oven_35_n04111531_1898.png,n04111531_1898.png,1.0,7.103284,1.7409656,3.7917316
alexnet_w1_mlp_simclrhn_probe2,1,434,NaN,car,car,true,0434_fc_dnn_true_car_35_n03100240_5865.png,n03100240_5865.png,1.0,4.944739,0.99901557,2.7900476
alexnet_w1_mlp_simclrhn_probe2,1,435,NaN,keyboard,keyboard,true,0435_fc_dnn_true_keyboard_35_n04505470_4369.png,n04505470_4369.png,1.0,16.189877,2.1339808,9.939019
alexnet_w1_mlp_simclrhn_probe2,1,436,NaN,cat,cat,false,0436_fc_dnn_false_cat_35_n02123394_1942.png,n02123394_1942.png,1.0,3.3990614,-1.2848876,3.3120522
alexnet_w1_mlp_simclrhn_probe2,1,437,NaN,car,car,true,0437_fc_dnn_true_car_35_n04285008_2900.png,n04285008_2900.png,1.0,9.665015,7.182113,1.7556769
alexnet_w1_mlp_simclrhn_probe2,1,438,NaN,airplane,airplane,true,0438_fc_dnn_true_airplane_35_n02690373_10926.png,n02690373_10926.png,1.0,9.003903,-0.72397894,6.8786516
alexnet_w1_mlp_simclrhn_probe2,1,439,NaN,knife,knife,true,0439_fc_dnn_true_knife_35_n03041632_11613.png,n03041632_11613.png,1.0,-0.74215096,-1.5395616,0.5638545
alexnet_w1_mlp_simclrhn_probe2,1,440,NaN,knife,knife,true,0440_fc_dnn_true_knife_35_n03041632_24817.png,n03041632_24817.png,1.0,-0.2461946,-2.1802635,1.3675933
alexnet_w1_mlp_simclrhn_probe2,1,441,NaN,bicycle,bicycle,true,0441_fc_dnn_true_bicycle_35_n02835271_3042.png,n02835271_3042.png,1.0,12.236363,-2.242432,10.238055
alexnet_w1_mlp_simclrhn_probe2,1,442,NaN,dog,dog,true,0442_fc_dnn_true_dog_35_n02102177_7737.png,n02102177_7737.png,1.0,2.052211,-1.8471242,2.7572465
alexnet_w1_mlp_simclrhn_probe2,1,443,NaN,oven,oven,true,0443_fc_dnn_true_oven_35_n04111531_21460.png,n04111531_21460.png,1.0,1.1440372,-1.413867,1.8087114
alexnet_w1_mlp_simclrhn_probe2,1,444,NaN,oven,keyboard,false,0444_fc_dnn_false_keyboard_35_n04505470_7388.png,n04505470_7388.png,0.0,1.0082643,2.386169,-0.9743257
alexnet_w1_mlp_simclrhn_probe2,1,445,NaN,bird,bird,true,0445_fc_dnn_true_bird_35_n01828970_25642.png,n01828970_25642.png,1.0,4.3964715,-4.0673156,5.9848013
alexnet_w1_mlp_simclrhn_probe2,1,446,NaN,bicycle,bicycle,false,0446_fc_dnn_false_bicycle_35_n02835271_608.png,n02835271_608.png,1.0,4.818221,-1.7367878,4.6350913
alexnet_w1_mlp_simclrhn_probe2,1,447,NaN,airplane,boat,true,0447_fc_dnn_true_boat_35_n04273569_26182.png,n04273569_26182.png,0.0,5.397406,6.559468,-0.8217017
alexnet_w1_mlp_simclrhn_probe2,1,448,NaN,cat,cat,false,0448_fc_dnn_false_cat_35_n02123045_9384.png,n02123045_9384.png,1.0,4.5027585,-1.3118626,4.111558
alexnet_w1_mlp_simclrhn_probe2,1,449,NaN,airplane,airplane,true,0449_fc_dnn_true_airplane_35_n02690373_9529.png,n02690373_9529.png,1.0,10.8323965,-0.9997624,8.3666
alexnet_w1_mlp_simclrhn_probe2,1,450,NaN,chair,cat,true,0450_fc_dnn_true_cat_35_n02123597_5081.png,n02123597_5081.png,0.0,-2.1436694,-0.30926025,-1.2971232
alexnet_w1_mlp_simclrhn_probe2,1,451,NaN,oven,oven,false,0451_fc_dnn_false_oven_35_n04111531_4998.png,n04111531_4998.png,1.0,4.659648,-0.3789287,3.5628119
alexnet_w1_mlp_simclrhn_probe2,1,452,NaN,clock,clock,true,0452_fc_dnn_true_clock_35_n04548280_1245.png,n04548280_1245.png,1.0,4.1955476,2.952712,0.87881744
alexnet_w1_mlp_simclrhn_probe2,1,453,NaN,cat,dog,true,0453_fc_dnn_true_dog_35_n02104365_8609.png,n02104365_8609.png,0.0,-1.1105533,-1.0516105,-0.04167885
alexnet_w1_mlp_simclrhn_probe2,1,454,NaN,clock,clock,false,0454_fc_dnn_false_clock_35_n02708093_6414.png,n02708093_6414.png,1.0,6.3417954,-1.4793785,5.530405
alexnet_w1_mlp_simclrhn_probe2,1,455,NaN,bird,bird,true,0455_fc_dnn_true_bird_35_n01798484_9155.png,n01798484_9155.png,1.0,0.50086343,-1.3267928,1.2923481
alexnet_w1_mlp_simclrhn_probe2,1,456,NaN,bicycle,oven,true,0456_fc_dnn_true_oven_35_n04111531_10724.png,n04111531_10724.png,0.0,-1.4057071,3.4725597,-3.4494555
alexnet_w1_mlp_simclrhn_probe2,1,457,NaN,boat,boat,true,0457_fc_dnn_true_boat_35_n02951358_32687.png,n02951358_32687.png,1.0,3.6675568,1.9072225,1.2447443
alexnet_w1_mlp_simclrhn_probe2,1,458,NaN,bicycle,bicycle,true,0458_fc_dnn_true_bicycle_35_n02835271_31.png,n02835271_31.png,1.0,3.7566423,-0.8972396,3.2907915
alexnet_w1_mlp_simclrhn_probe2,1,459,NaN,oven,bottle,true,0459_fc_dnn_true_bottle_35_n04557648_4420.png,n04557648_4420.png,0.0,-1.0178305,-0.17138475,-0.59852755
alexnet_w1_mlp_simclrhn_probe2,1,460,NaN,bear,bear,true,0460_fc_dnn_true_bear_35_n02133161_713.png,n02133161_713.png,1.0,4.494862,1.3155434,2.248118
alexnet_w1_mlp_simclrhn_probe2,1,461,NaN,airplane,airplane,false,0461_fc_dnn_false_airplane_35_n02690373_5967.png,n02690373_5967.png,1.0,9.99608,-1.1865586,7.90732
alexnet_w1_mlp_simclrhn_probe2,1,462,NaN,bird,bird,true,0462_fc_dnn_true_bird_35_n01795545_4502.png,n01795545_4502.png,1.0,1.2809824,-1.607287,2.042315
alexnet_w1_mlp_simclrhn_probe2,1,463,NaN,bear,cat,true,0463_fc_dnn_true_cat_35_n02124075_11466.png,n02124075_11466.png,0.0,0.98570967,3.1497722,-1.5302233
alexnet_w1_mlp_simclrhn_probe2,1,464,NaN,clock,keyboard,true,0464_fc_dnn_true_keyboard_35_n03085013_21769.png,n03085013_21769.png,0.0,0.09652674,0.9153827,-0.5790186
alexnet_w1_mlp_simclrhn_probe2,1,465,NaN,car,car,false,0465_fc_dnn_false_car_35_n03100240_15097.png,n03100240_15097.png,1.0,2.6506274,1.0632772,1.122426
alexnet_w1_mlp_simclrhn_probe2,1,466,NaN,cat,dog,false,0466_fc_dnn_false_dog_35_n02093647_3072.png,n02093647_3072.png,0.0,-1.3804874,-1.1328305,-0.1751199
alexnet_w1_mlp_simclrhn_probe2,1,467,NaN,bicycle,bicycle,false,0467_fc_dnn_false_bicycle_35_n02835271_12701.png,n02835271_12701.png,1.0,4.841837,1.3392627,2.476694
alexnet_w1_mlp_simclrhn_probe2,1,468,NaN,bear,bear,false,0468_fc_dnn_false_bear_35_n02134084_3227.png,n02134084_3227.png,1.0,0.62782645,0.33876577,0.20439677
alexnet_w1_mlp_simclrhn_probe2,1,469,NaN,cat,cat,true,0469_fc_dnn_true_cat_35_n02123394_5001.png,n02123394_5001.png,1.0,2.1594002,-1.0065782,2.238685
alexnet_w1_mlp_simclrhn_probe2,1,470,NaN,keyboard,keyboard,true,0470_fc_dnn_true_keyboard_35_n03085013_6862.png,n03085013_6862.png,1.0,4.20517,2.5096865,1.1988881
alexnet_w1_mlp_simclrhn_probe2,1,471,NaN,chair,chair,true,0471_fc_dnn_true_chair_35_n04099969_45461.png,n04099969_45461.png,1.0,3.0273633,1.3640654,1.1761292
alexnet_w1_mlp_simclrhn_probe2,1,472,NaN,bicycle,bicycle,false,0472_fc_dnn_false_bicycle_35_n03792782_485.png,n03792782_485.png,1.0,6.387895,-1.2577958,5.40632
alexnet_w1_mlp_simclrhn_probe2,1,473,NaN,chair,oven,true,0473_fc_dnn_true_oven_35_n04111531_1674.png,n04111531_1674.png,0.0,0.99576515,3.0989244,-1.4871582
alexnet_w1_mlp_simclrhn_probe2,1,474,NaN,airplane,airplane,true,0474_fc_dnn_true_airplane_35_n02690373_866.png,n02690373_866.png,1.0,11.842457,1.3396878,7.4265795
alexnet_w1_mlp_simclrhn_probe2,1,475,NaN,oven,oven,false,0475_fc_dnn_false_oven_35_n04111531_9297.png,n04111531_9297.png,1.0,1.3453298,-1.9977816,2.363937
alexnet_w1_mlp_simclrhn_probe2,1,476,NaN,elephant,elephant,false,0476_fc_dnn_false_elephant_35_n02504458_6878.png,n02504458_6878.png,1.0,10.25223,1.9322802,5.8830924
alexnet_w1_mlp_simclrhn_probe2,1,477,NaN,car,car,true,0477_fc_dnn_true_car_35_n03100240_3151.png,n03100240_3151.png,1.0,4.187796,3.4413185,0.52783936
alexnet_w1_mlp_simclrhn_probe2,1,478,NaN,airplane,airplane,false,0478_fc_dnn_false_airplane_35_n02690373_6363.png,n02690373_6363.png,1.0,8.08416,1.9210112,4.3580046
alexnet_w1_mlp_simclrhn_probe2,1,479,NaN,car,car,true,0479_fc_dnn_true_car_35_n04285008_15049.png,n04285008_15049.png,1.0,11.38384,7.730233,2.58349
alexnet_w1_mlp_simclrhn_probe2,1,480,NaN,truck,truck,true,0480_fc_dnn_true_truck_35_n04467665_2505.png,n04467665_2505.png,1.0,-0.9837141,-1.2701268,0.20252438
alexnet_w1_mlp_simclrhn_probe2,1,481,NaN,knife,bottle,true,0481_fc_dnn_true_bottle_35_n04591713_4030.png,n04591713_4030.png,0.0,-2.2737138,-0.039931096,-1.579523
alexnet_w1_mlp_simclrhn_probe2,1,482,NaN,oven,oven,true,0482_fc_dnn_true_oven_35_n04111531_12929.png,n04111531_12929.png,1.0,2.3368995,0.20011699,1.5109335
alexnet_w1_mlp_simclrhn_probe2,1,483,NaN,bear,cat,true,0483_fc_dnn_true_cat_35_n02125311_53315.png,n02125311_53315.png,0.0,1.3488907,2.04891,-0.49498835
alexnet_w1_mlp_simclrhn_probe2,1,484,NaN,cat,dog,true,0484_fc_dnn_true_dog_35_n02087046_4409.png,n02087046_4409.png,0.0,-1.3272016,-0.76197815,-0.39967334
alexnet_w1_mlp_simclrhn_probe2,1,485,NaN,oven,oven,false,0485_fc_dnn_false_oven_35_n04111531_21120.png,n04111531_21120.png,1.0,5.171294,0.08727451,3.594945
alexnet_w1_mlp_simclrhn_probe2,1,486,NaN,elephant,elephant,false,0486_fc_dnn_false_elephant_35_n02504013_5934.png,n02504013_5934.png,1.0,0.7807542,0.51687104,0.18659358
alexnet_w1_mlp_simclrhn_probe2,1,487,NaN,car,car,true,0487_fc_dnn_true_car_35_n04285008_3631.png,n04285008_3631.png,1.0,6.2189813,2.873375,2.365701
alexnet_w1_mlp_simclrhn_probe2,1,488,NaN,clock,clock,true,0488_fc_dnn_true_clock_35_n03196217_7663.png,n03196217_7663.png,1.0,1.7679421,0.8860741,0.6235748
alexnet_w1_mlp_simclrhn_probe2,1,489,NaN,elephant,bicycle,false,0489_fc_dnn_false_bicycle_35_n03792782_801.png,n03792782_801.png,0.0,0.47182104,1.1280777,-0.46404356
alexnet_w1_mlp_simclrhn_probe2,1,490,NaN,bear,bear,false,0490_fc_dnn_false_bear_35_n02133161_6983.png,n02133161_6983.png,1.0,1.5884262,0.47646353,0.78627634
alexnet_w1_mlp_simclrhn_probe2,1,491,NaN,keyboard,keyboard,true,0491_fc_dnn_true_keyboard_35_n03085013_20825.png,n03085013_20825.png,1.0,11.489169,0.6600772,7.6573243
alexnet_w1_mlp_simclrhn_probe2,1,492,NaN,clock,clock,true,0492_fc_dnn_true_clock_35_n03196217_1219.png,n03196217_1219.png,1.0,2.1841094,1.1106684,0.75903744
alexnet_w1_mlp_simclrhn_probe2,1,493,NaN,airplane,airplane,true,0493_fc_dnn_true_airplane_35_n02690373_18864.png,n02690373_18864.png,1.0,5.4039674,3.6622481,1.2315816
alexnet_w1_mlp_simclrhn_probe2,1,494,NaN,knife,airplane,false,0494_fc_dnn_false_airplane_35_n02690373_1019.png,n02690373_1019.png,0.0,0.6087353,1.4353266,-0.5844883
alexnet_w1_mlp_simclrhn_probe2,1,495,NaN,bird,bird,true,0495_fc_dnn_true_bird_35_n02013706_10478.png,n02013706_10478.png,1.0,2.5616748,-5.0291014,5.36749
alexnet_w1_mlp_simclrhn_probe2,1,496,NaN,bear,bear,true,0496_fc_dnn_true_bear_35_n02132136_258.png,n02132136_258.png,1.0,1.681396,0.5862412,0.77439135
alexnet_w1_mlp_simclrhn_probe2,1,497,NaN,bird,chair,false,0497_fc_dnn_false_chair_35_n04099969_16350.png,n04099969_16350.png,0.0,-6.640645,-1.6327605,-3.541109
alexnet_w1_mlp_simclrhn_probe2,1,498,NaN,chair,chair,true,0498_fc_dnn_true_chair_35_n04099969_16456.png,n04099969_16456.png,1.0,2.7867436,0.47024184,1.6380142
alexnet_w1_mlp_simclrhn_probe2,1,499,NaN,bottle,bottle,false,0499_fc_dnn_false_bottle_35_n03983396_12027.png,n03983396_12027.png,1.0,2.8921983,1.555749,0.94501233
alexnet_w1_mlp_simclrhn_probe2,1,500,NaN,chair,chair,true,0500_fc_dnn_true_chair_35_n02791124_5438.png,n02791124_5438.png,1.0,4.73228,-0.19768788,3.486014
alexnet_w1_mlp_simclrhn_probe2,1,501,NaN,elephant,elephant,true,0501_fc_dnn_true_elephant_35_n02504458_4939.png,n02504458_4939.png,1.0,13.71911,3.4535975,7.2588134
alexnet_w1_mlp_simclrhn_probe2,1,502,NaN,keyboard,keyboard,false,0502_fc_dnn_false_keyboard_35_n04505470_2600.png,n04505470_2600.png,1.0,8.630942,-0.12829679,6.1937175
alexnet_w1_mlp_simclrhn_probe2,1,503,NaN,chair,chair,true,0503_fc_dnn_true_chair_35_n03376595_7394.png,n03376595_7394.png,1.0,2.123804,-0.3297124,1.7348982
alexnet_w1_mlp_simclrhn_probe2,1,504,NaN,knife,bicycle,false,0504_fc_dnn_false_bicycle_35_n02835271_9772.png,n02835271_9772.png,0.0,-0.19235241,0.37095013,-0.39831504
alexnet_w1_mlp_simclrhn_probe2,1,505,NaN,car,car,true,0505_fc_dnn_true_car_35_n02814533_55937.png,n02814533_55937.png,1.0,4.340857,1.8181655,1.7838123
alexnet_w1_mlp_simclrhn_probe2,1,506,NaN,boat,airplane,true,0506_fc_dnn_true_airplane_35_n02690373_3920.png,n02690373_3920.png,0.0,4.7708807,4.9757113,-0.14483714
alexnet_w1_mlp_simclrhn_probe2,1,507,NaN,oven,oven,false,0507_fc_dnn_false_oven_35_n04111531_6400.png,n04111531_6400.png,1.0,1.8144825,-0.91087925,1.9271219
alexnet_w1_mlp_simclrhn_probe2,1,508,NaN,bicycle,truck,false,0508_fc_dnn_false_truck_35_n03417042_4587.png,n03417042_4587.png,0.0,-0.39982694,5.386194,-4.091335
alexnet_w1_mlp_simclrhn_probe2,1,509,NaN,bicycle,knife,true,0509_fc_dnn_true_knife_35_n03041632_31849.png,n03041632_31849.png,0.0,-0.7938959,0.369166,-0.8224089
alexnet_w1_mlp_simclrhn_probe2,1,510,NaN,bear,cat,true,0510_fc_dnn_true_cat_35_n02125311_8541.png,n02125311_8541.png,0.0,-0.6794625,3.8498366,-3.2026982
alexnet_w1_mlp_simclrhn_probe2,1,511,NaN,airplane,airplane,true,0511_fc_dnn_true_airplane_35_n02690373_2162.png,n02690373_2162.png,1.0,13.222,3.9367232,6.565682
alexnet_w1_mlp_simclrhn_probe2,1,512,NaN,dog,dog,true,0512_fc_dnn_true_dog_35_n02108551_11297.png,n02108551_11297.png,1.0,2.9331136,0.34701312,1.8286493
alexnet_w1_mlp_simclrhn_probe2,1,513,NaN,car,car,true,0513_fc_dnn_true_car_35_n02814533_34396.png,n02814533_34396.png,1.0,16.00577,10.593462,3.8270795
alexnet_w1_mlp_simclrhn_probe2,1,514,NaN,elephant,elephant,true,0514_fc_dnn_true_elephant_35_n02504013_6431.png,n02504013_6431.png,1.0,7.0942044,2.3636115,3.3450344
alexnet_w1_mlp_simclrhn_probe2,1,515,NaN,bicycle,bicycle,false,0515_fc_dnn_false_bicycle_35_n03792782_51723.png,n03792782_51723.png,1.0,3.1925592,-0.20036781,2.3991618
alexnet_w1_mlp_simclrhn_probe2,1,516,NaN,dog,dog,false,0516_fc_dnn_false_dog_35_n02093754_5867.png,n02093754_5867.png,1.0,1.795288,-0.32046044,1.49606
alexnet_w1_mlp_simclrhn_probe2,1,517,NaN,oven,clock,true,0517_fc_dnn_true_clock_35_n04548280_3245.png,n04548280_3245.png,0.0,-0.81146497,-0.09331323,-0.50781
alexnet_w1_mlp_simclrhn_probe2,1,518,NaN,airplane,airplane,true,0518_fc_dnn_true_airplane_35_n02690373_9762.png,n02690373_9762.png,1.0,8.536072,1.550607,4.93947
alexnet_w1_mlp_simclrhn_probe2,1,519,NaN,airplane,bird,true,0519_fc_dnn_true_bird_35_n02002724_2909.png,n02002724_2909.png,0.0,1.8840387,3.3004537,-1.0015566
alexnet_w1_mlp_simclrhn_probe2,1,520,NaN,knife,bottle,true,0520_fc_dnn_true_bottle_35_n04557648_10123.png,n04557648_10123.png,0.0,-3.3681495,-1.3852686,-1.4021086
alexnet_w1_mlp_simclrhn_probe2,1,521,NaN,elephant,elephant,true,0521_fc_dnn_true_elephant_35_n02504013_5432.png,n02504013_5432.png,1.0,5.226511,0.91930735,3.045653
alexnet_w1_mlp_simclrhn_probe2,1,522,NaN,cat,cat,false,0522_fc_dnn_false_cat_35_n02123597_4998.png,n02123597_4998.png,1.0,0.9958623,0.7009749,0.2085169
alexnet_w1_mlp_simclrhn_probe2,1,523,NaN,bottle,bottle,true,0523_fc_dnn_true_bottle_35_n04557648_11594.png,n04557648_11594.png,1.0,1.8793842,0.23848309,1.1602923
alexnet_w1_mlp_simclrhn_probe2,1,524,NaN,oven,clock,false,0524_fc_dnn_false_clock_35_n03196217_2567.png,n03196217_2567.png,0.0,0.09627386,0.10029739,-0.0028450652
alexnet_w1_mlp_simclrhn_probe2,1,525,NaN,keyboard,truck,false,0525_fc_dnn_false_truck_35_n03796401_9136.png,n03796401_9136.png,0.0,-1.7337027,2.6308112,-3.0861773
alexnet_w1_mlp_simclrhn_probe2,1,526,NaN,boat,boat,false,0526_fc_dnn_false_boat_35_n03344393_8492.png,n03344393_8492.png,1.0,14.37438,0.014641166,10.15387
alexnet_w1_mlp_simclrhn_probe2,1,527,NaN,cat,cat,false,0527_fc_dnn_false_cat_35_n02123159_8267.png,n02123159_8267.png,1.0,4.3233457,-3.395741,5.4582186
alexnet_w1_mlp_simclrhn_probe2,1,528,NaN,knife,bottle,false,0528_fc_dnn_false_bottle_35_n04557648_12039.png,n04557648_12039.png,0.0,-1.3135799,-0.6137929,-0.49482417
alexnet_w1_mlp_simclrhn_probe2,1,529,NaN,keyboard,keyboard,false,0529_fc_dnn_false_keyboard_35_n04505470_2828.png,n04505470_2828.png,1.0,10.589991,1.1375244,6.6839027
alexnet_w1_mlp_simclrhn_probe2,1,530,NaN,boat,boat,true,0530_fc_dnn_true_boat_35_n02951358_31198.png,n02951358_31198.png,1.0,2.8876355,-0.1732001,2.1643376
alexnet_w1_mlp_simclrhn_probe2,1,531,NaN,oven,oven,false,0531_fc_dnn_false_oven_35_n04111531_5801.png,n04111531_5801.png,1.0,0.9938469,-1.6172993,1.8463593
alexnet_w1_mlp_simclrhn_probe2,1,532,NaN,bicycle,bicycle,false,0532_fc_dnn_false_bicycle_35_n02835271_9672.png,n02835271_9672.png,1.0,6.1665173,-2.3334608,6.010392
alexnet_w1_mlp_simclrhn_probe2,1,533,NaN,keyboard,keyboard,false,0533_fc_dnn_false_keyboard_35_n03085013_23865.png,n03085013_23865.png,1.0,1.6759361,1.5145944,0.114085786
alexnet_w1_mlp_simclrhn_probe2,1,534,NaN,keyboard,bottle,true,0534_fc_dnn_true_bottle_35_n04591713_7133.png,n04591713_7133.png,0.0,-0.45882988,3.7446756,-2.9723272
alexnet_w1_mlp_simclrhn_probe2,1,535,NaN,car,car,true,0535_fc_dnn_true_car_35_n04285008_10006.png,n04285008_10006.png,1.0,11.006393,6.396696,3.2595482
alexnet_w1_mlp_simclrhn_probe2,1,536,NaN,airplane,airplane,true,0536_fc_dnn_true_airplane_35_n02690373_2431.png,n02690373_2431.png,1.0,4.0328217,1.5051308,1.7873474
alexnet_w1_mlp_simclrhn_probe2,1,537,NaN,boat,boat,true,0537_fc_dnn_true_boat_35_n04612504_15440.png,n04612504_15440.png,1.0,1.4977229,-0.9391424,1.723124
alexnet_w1_mlp_simclrhn_probe2,1,538,NaN,bicycle,bicycle,true,0538_fc_dnn_true_bicycle_35_n02835271_5648.png,n02835271_5648.png,1.0,4.2960844,-1.2378687,3.913096
alexnet_w1_mlp_simclrhn_probe2,1,539,NaN,airplane,airplane,false,0539_fc_dnn_false_airplane_35_n02690373_3173.png,n02690373_3173.png,1.0,13.191439,3.3243382,6.977094
alexnet_w1_mlp_simclrhn_probe2,1,540,NaN,oven,oven,false,0540_fc_dnn_false_oven_35_n04111531_82.png,n04111531_82.png,1.0,6.4077587,-0.12436715,4.618911
alexnet_w1_mlp_simclrhn_probe2,1,541,NaN,oven,chair,false,0541_fc_dnn_false_chair_35_n02791124_2057.png,n02791124_2057.png,0.0,0.16185367,0.8790488,-0.50713354
alexnet_w1_mlp_simclrhn_probe2,1,542,NaN,oven,elephant,true,0542_fc_dnn_true_elephant_35_n02504458_12175.png,n02504458_12175.png,0.0,-2.3728766,-1.5459282,-0.5847408
alexnet_w1_mlp_simclrhn_probe2,1,543,NaN,boat,boat,false,0543_fc_dnn_false_boat_35_n03344393_6869.png,n03344393_6869.png,1.0,3.5947633,0.9751988,1.8523118
alexnet_w1_mlp_simclrhn_probe2,1,544,NaN,truck,truck,false,0544_fc_dnn_false_truck_35_n03417042_1000.png,n03417042_1000.png,1.0,2.9621418,-0.09061893,2.1586277
alexnet_w1_mlp_simclrhn_probe2,1,545,NaN,boat,boat,true,0545_fc_dnn_true_boat_35_n03344393_6890.png,n03344393_6890.png,1.0,3.304959,2.9599824,0.24393535
alexnet_w1_mlp_simclrhn_probe2,1,546,NaN,elephant,elephant,false,0546_fc_dnn_false_elephant_35_n02504458_4139.png,n02504458_4139.png,1.0,7.5515947,1.0663233,4.5857797
alexnet_w1_mlp_simclrhn_probe2,1,547,NaN,bear,bear,false,0547_fc_dnn_false_bear_35_n02132136_7231.png,n02132136_7231.png,1.0,7.0782795,-0.49558812,5.3555336
alexnet_w1_mlp_simclrhn_probe2,1,548,NaN,elephant,bird,false,0548_fc_dnn_false_bird_35_n01860187_1815.png,n01860187_1815.png,0.0,-2.173864,0.8070785,-2.1078446
alexnet_w1_mlp_simclrhn_probe2,1,549,NaN,knife,keyboard,true,0549_fc_dnn_true_keyboard_35_n03085013_18891.png,n03085013_18891.png,0.0,-1.3438677,-0.60062957,-0.5255487
alexnet_w1_mlp_simclrhn_probe2,1,550,NaN,bird,bird,false,0550_fc_dnn_false_bird_35_n01828970_2276.png,n01828970_2276.png,1.0,4.8007164,-7.5174966,8.710292
alexnet_w1_mlp_simclrhn_probe2,1,551,NaN,elephant,elephant,false,0551_fc_dnn_false_elephant_35_n02504013_1720.png,n02504013_1720.png,1.0,11.967516,4.6937127,5.143356
alexnet_w1_mlp_simclrhn_probe2,1,552,NaN,knife,knife,false,0552_fc_dnn_false_knife_35_n03041632_16104.png,n03041632_16104.png,1.0,1.2608931,-0.50422174,1.2481246
alexnet_w1_mlp_simclrhn_probe2,1,553,NaN,bicycle,chair,false,0553_fc_dnn_false_chair_35_n03376595_635.png,n03376595_635.png,0.0,1.5552466,1.9237664,-0.26058283
alexnet_w1_mlp_simclrhn_probe2,1,554,NaN,bottle,bottle,true,0554_fc_dnn_true_bottle_35_n03983396_6116.png,n03983396_6116.png,1.0,6.7238746,2.3275087,3.1087003
alexnet_w1_mlp_simclrhn_probe2,1,555,NaN,bear,dog,true,0555_fc_dnn_true_dog_35_n02113624_2530.png,n02113624_2530.png,0.0,-0.13330406,0.49870807,-0.44690007
alexnet_w1_mlp_simclrhn_probe2,1,556,NaN,bird,bird,true,0556_fc_dnn_true_bird_35_n01592084_3972.png,n01592084_3972.png,1.0,-0.5353126,-2.3387415,1.2752168
alexnet_w1_mlp_simclrhn_probe2,1,557,NaN,boat,airplane,true,0557_fc_dnn_true_airplane_35_n02690373_5130.png,n02690373_5130.png,0.0,2.279345,2.7192664,-0.3110714
alexnet_w1_mlp_simclrhn_probe2,1,558,NaN,airplane,bird,true,0558_fc_dnn_true_bird_35_n01833805_7514.png,n01833805_7514.png,0.0,-0.029185325,0.8031345,-0.588539
alexnet_w1_mlp_simclrhn_probe2,1,559,NaN,truck,truck,false,0559_fc_dnn_false_truck_35_n03417042_16238.png,n03417042_16238.png,1.0,5.07714,3.0068476,1.4639177
alexnet_w1_mlp_simclrhn_probe2,1,560,NaN,keyboard,keyboard,true,0560_fc_dnn_true_keyboard_35_n04505470_8620.png,n04505470_8620.png,1.0,11.276316,5.1289334,4.3468556
alexnet_w1_mlp_simclrhn_probe2,1,561,NaN,keyboard,clock,true,0561_fc_dnn_true_clock_35_n03196217_7888.png,n03196217_7888.png,0.0,4.267482,4.3335233,-0.046698373
alexnet_w1_mlp_simclrhn_probe2,1,562,NaN,knife,bottle,true,0562_fc_dnn_true_bottle_35_n04591713_5411.png,n04591713_5411.png,0.0,-2.6743066,-0.31635863,-1.6673211
alexnet_w1_mlp_simclrhn_probe2,1,563,NaN,clock,clock,false,0563_fc_dnn_false_clock_35_n03196217_2639.png,n03196217_2639.png,1.0,2.2834003,2.0102465,0.1931489
alexnet_w1_mlp_simclrhn_probe2,1,564,NaN,oven,elephant,true,0564_fc_dnn_true_elephant_35_n02504458_6437.png,n02504458_6437.png,0.0,0.52921927,1.0314703,-0.35514513
alexnet_w1_mlp_simclrhn_probe2,1,565,NaN,truck,truck,true,0565_fc_dnn_true_truck_35_n03417042_27586.png,n03417042_27586.png,1.0,6.0477543,2.3069453,2.6451514
alexnet_w1_mlp_simclrhn_probe2,1,566,NaN,chair,keyboard,false,0566_fc_dnn_false_keyboard_35_n03085013_24124.png,n03085013_24124.png,0.0,-2.2805538,1.2785003,-2.5166314
alexnet_w1_mlp_simclrhn_probe2,1,567,NaN,dog,cat,false,0567_fc_dnn_false_cat_35_n02123597_9663.png,n02123597_9663.png,0.0,-2.808996,-2.1291034,-0.48075664
alexnet_w1_mlp_simclrhn_probe2,1,568,NaN,keyboard,keyboard,true,0568_fc_dnn_true_keyboard_35_n04505470_1833.png,n04505470_1833.png,1.0,3.3237848,1.1984874,1.5028124
alexnet_w1_mlp_simclrhn_probe2,1,569,NaN,car,car,true,0569_fc_dnn_true_car_35_n04285008_4109.png,n04285008_4109.png,1.0,14.75327,9.585294,3.6543112
alexnet_w1_mlp_simclrhn_probe2,1,570,NaN,bicycle,bird,false,0570_fc_dnn_false_bird_35_n01558993_869.png,n01558993_869.png,0.0,-3.2640994,-1.2227352,-1.4434625
alexnet_w1_mlp_simclrhn_probe2,1,571,NaN,truck,truck,true,0571_fc_dnn_true_truck_35_n03796401_6980.png,n03796401_6980.png,1.0,4.211014,2.0440428,1.5322798
alexnet_w1_mlp_simclrhn_probe2,1,572,NaN,truck,truck,true,0572_fc_dnn_true_truck_35_n03796401_19058.png,n03796401_19058.png,1.0,6.9196014,0.26663008,4.704361
alexnet_w1_mlp_simclrhn_probe2,1,573,NaN,elephant,bear,false,0573_fc_dnn_false_bear_35_n02134418_5033.png,n02134418_5033.png,0.0,-0.29538912,0.5349788,-0.5871588
alexnet_w1_mlp_simclrhn_probe2,1,574,NaN,truck,truck,false,0574_fc_dnn_false_truck_35_n03417042_6204.png,n03417042_6204.png,1.0,9.012896,6.571966,1.7259978
alexnet_w1_mlp_simclrhn_probe2,1,575,NaN,bicycle,bicycle,true,0575_fc_dnn_true_bicycle_35_n03792782_7388.png,n03792782_7388.png,1.0,-0.64538777,-0.82647854,0.12805052
alexnet_w1_mlp_simclrhn_probe2,1,576,NaN,truck,truck,true,0576_fc_dnn_true_truck_35_n03417042_1561.png,n03417042_1561.png,1.0,10.785734,6.0001984,3.383885
alexnet_w1_mlp_simclrhn_probe2,1,577,NaN,elephant,elephant,true,0577_fc_dnn_true_elephant_35_n02504458_5501.png,n02504458_5501.png,1.0,21.229582,6.6023526,10.343014
alexnet_w1_mlp_simclrhn_probe2,1,578,NaN,boat,boat,true,0578_fc_dnn_true_boat_35_n03662601_34124.png,n03662601_34124.png,1.0,3.9913974,0.86539674,2.2104163
alexnet_w1_mlp_simclrhn_probe2,1,579,NaN,knife,knife,false,0579_fc_dnn_false_knife_35_n03041632_37949.png,n03041632_37949.png,1.0,0.14667696,-2.112923,1.5977784
alexnet_w1_mlp_simclrhn_probe2,1,580,NaN,airplane,airplane,false,0580_fc_dnn_false_airplane_35_n02690373_13585.png,n02690373_13585.png,1.0,12.318439,-1.3604078,9.672405
alexnet_w1_mlp_simclrhn_probe2,1,581,NaN,knife,knife,false,0581_fc_dnn_false_knife_35_n03041632_16932.png,n03041632_16932.png,1.0,-0.38896814,-1.2905991,0.6375494
alexnet_w1_mlp_simclrhn_probe2,1,582,NaN,elephant,chair,false,0582_fc_dnn_false_chair_35_n04429376_9501.png,n04429376_9501.png,0.0,-1.2711769,-0.33829087,-0.6596501
alexnet_w1_mlp_simclrhn_probe2,1,583,NaN,bird,bird,false,0583_fc_dnn_false_bird_35_n01532829_10530.png,n01532829_10530.png,1.0,2.8660567,-4.8592944,5.4626484
alexnet_w1_mlp_simclrhn_probe2,1,584,NaN,oven,oven,false,0584_fc_dnn_false_oven_35_n04111531_1562.png,n04111531_1562.png,1.0,5.1472073,-0.74508214,4.1664777
alexnet_w1_mlp_simclrhn_probe2,1,585,NaN,keyboard,clock,false,0585_fc_dnn_false_clock_35_n02708093_260.png,n02708093_260.png,0.0,-0.48651814,1.7773644,-1.6008068
alexnet_w1_mlp_simclrhn_probe2,1,586,NaN,bottle,bottle,true,0586_fc_dnn_true_bottle_35_n04579145_1457.png,n04579145_1457.png,1.0,1.6714213,-0.09323522,1.2478006
alexnet_w1_mlp_simclrhn_probe2,1,587,NaN,bicycle,chair,true,0587_fc_dnn_true_chair_35_n03376595_9897.png,n03376595_9897.png,0.0,1.1331313,1.8897486,-0.53500926
alexnet_w1_mlp_simclrhn_probe2,1,588,NaN,bird,bird,true,0588_fc_dnn_true_bird_35_n01601694_4224.png,n01601694_4224.png,1.0,1.4335748,-1.6497097,2.1802113
alexnet_w1_mlp_simclrhn_probe2,1,589,NaN,cat,cat,false,0589_fc_dnn_false_cat_35_n02123159_358.png,n02123159_358.png,1.0,7.5237255,-4.5034432,8.504493
alexnet_w1_mlp_simclrhn_probe2,1,590,NaN,bottle,bottle,true,0590_fc_dnn_true_bottle_35_n03983396_11788.png,n03983396_11788.png,1.0,7.3043513,-0.036563754,5.190811
alexnet_w1_mlp_simclrhn_probe2,1,591,NaN,cat,cat,true,0591_fc_dnn_true_cat_35_n02124075_8341.png,n02124075_8341.png,1.0,1.7798413,-5.2032237,4.9377728
alexnet_w1_mlp_simclrhn_probe2,1,592,NaN,dog,dog,false,0592_fc_dnn_false_dog_35_n02109525_49924.png,n02109525_49924.png,1.0,4.5489273,-1.5389506,4.3047795
alexnet_w1_mlp_simclrhn_probe2,1,593,NaN,airplane,oven,false,0593_fc_dnn_false_oven_35_n04111531_797.png,n04111531_797.png,0.0,-0.27388835,0.10881521,-0.27061227
alexnet_w1_mlp_simclrhn_probe2,1,594,NaN,bicycle,bicycle,true,0594_fc_dnn_true_bicycle_35_n02835271_15930.png,n02835271_15930.png,1.0,6.001751,-1.3332602,5.186636
alexnet_w1_mlp_simclrhn_probe2,1,595,NaN,knife,knife,true,0595_fc_dnn_true_knife_35_n03041632_13656.png,n03041632_13656.png,1.0,1.2421383,-0.63983804,1.3307582
alexnet_w1_mlp_simclrhn_probe2,1,596,NaN,clock,clock,false,0596_fc_dnn_false_clock_35_n02708093_8104.png,n02708093_8104.png,1.0,-0.781842,-1.1111898,0.2328841
alexnet_w1_mlp_simclrhn_probe2,1,597,NaN,knife,truck,true,0597_fc_dnn_true_truck_35_n03796401_3148.png,n03796401_3148.png,0.0,-3.5705273,0.7940407,-3.0862155
alexnet_w1_mlp_simclrhn_probe2,1,598,NaN,bicycle,bottle,false,0598_fc_dnn_false_bottle_35_n04560804_15263.png,n04560804_15263.png,0.0,-5.8279114,-0.83667064,-3.52934
alexnet_w1_mlp_simclrhn_probe2,1,599,NaN,airplane,airplane,true,0599_fc_dnn_true_airplane_35_n02690373_5003.png,n02690373_5003.png,1.0,2.61653,0.23559678,1.6835741
alexnet_w1_mlp_simclrhn_probe2,1,600,NaN,boat,boat,false,0600_fc_dnn_false_boat_35_n03344393_994.png,n03344393_994.png,1.0,2.487639,1.4826193,0.7106562
alexnet_w1_mlp_simclrhn_probe2,1,601,NaN,bicycle,bicycle,true,0601_fc_dnn_true_bicycle_35_n03792782_5959.png,n03792782_5959.png,1.0,9.455816,-1.2415857,7.5642056
alexnet_w1_mlp_simclrhn_probe2,1,602,NaN,car,car,false,0602_fc_dnn_false_car_35_n04285008_9383.png,n04285008_9383.png,1.0,6.6359687,2.2689037,3.0879812
alexnet_w1_mlp_simclrhn_probe2,1,603,NaN,clock,clock,true,0603_fc_dnn_true_clock_35_n03196217_5627.png,n03196217_5627.png,1.0,1.3775469,0.9112626,0.3297128
alexnet_w1_mlp_simclrhn_probe2,1,604,NaN,knife,bird,true,0604_fc_dnn_true_bird_35_n01534433_13846.png,n01534433_13846.png,0.0,-3.1738913,-2.8555164,-0.22512503
alexnet_w1_mlp_simclrhn_probe2,1,605,NaN,dog,dog,true,0605_fc_dnn_true_dog_35_n02105056_11269.png,n02105056_11269.png,1.0,-0.20962116,-1.5538116,0.9504861
alexnet_w1_mlp_simclrhn_probe2,1,606,NaN,airplane,airplane,false,0606_fc_dnn_false_airplane_35_n02690373_9659.png,n02690373_9659.png,1.0,2.7926102,0.94223785,1.3084109
alexnet_w1_mlp_simclrhn_probe2,1,607,NaN,chair,car,false,0607_fc_dnn_false_car_35_n04285008_3269.png,n04285008_3269.png,0.0,-4.361441,2.9361172,-5.160153
alexnet_w1_mlp_simclrhn_probe2,1,608,NaN,bottle,bottle,true,0608_fc_dnn_true_bottle_35_n02823428_3178.png,n02823428_3178.png,1.0,1.9613876,-0.41664588,1.6815237
alexnet_w1_mlp_simclrhn_probe2,1,609,NaN,elephant,elephant,false,0609_fc_dnn_false_elephant_35_n02504458_4849.png,n02504458_4849.png,1.0,4.227891,0.9214887,2.3379796
alexnet_w1_mlp_simclrhn_probe2,1,610,NaN,bear,bear,true,0610_fc_dnn_true_bear_35_n02134418_643.png,n02134418_643.png,1.0,2.0379891,-0.51536024,1.8054907
alexnet_w1_mlp_simclrhn_probe2,1,611,NaN,boat,boat,true,0611_fc_dnn_true_boat_35_n03344393_7773.png,n03344393_7773.png,1.0,4.762124,-1.7727659,4.6208653
alexnet_w1_mlp_simclrhn_probe2,1,612,NaN,car,car,true,0612_fc_dnn_true_car_35_n02814533_26516.png,n02814533_26516.png,1.0,15.10553,9.563644,3.9187047
alexnet_w1_mlp_simclrhn_probe2,1,613,NaN,chair,cat,false,0613_fc_dnn_false_cat_35_n02123597_3314.png,n02123597_3314.png,0.0,-2.4596107,0.2975549,-1.9496106
alexnet_w1_mlp_simclrhn_probe2,1,614,NaN,bicycle,bicycle,true,0614_fc_dnn_true_bicycle_35_n02835271_6539.png,n02835271_6539.png,1.0,9.602806,-2.2407165,8.374636
alexnet_w1_mlp_simclrhn_probe2,1,615,NaN,bear,bear,true,0615_fc_dnn_true_bear_35_n02132136_3090.png,n02132136_3090.png,1.0,9.904917,-0.24116167,7.1743608
alexnet_w1_mlp_simclrhn_probe2,1,616,NaN,car,car,true,0616_fc_dnn_true_car_35_n03100240_9171.png,n03100240_9171.png,1.0,8.370044,5.398707,2.1010525
alexnet_w1_mlp_simclrhn_probe2,1,617,NaN,cat,cat,false,0617_fc_dnn_false_cat_35_n02123045_12060.png,n02123045_12060.png,1.0,4.6044116,-1.786668,4.5191755
alexnet_w1_mlp_simclrhn_probe2,1,618,NaN,truck,truck,false,0618_fc_dnn_false_truck_35_n03796401_26801.png,n03796401_26801.png,1.0,1.0943211,-0.3538499,1.0240116
alexnet_w1_mlp_simclrhn_probe2,1,619,NaN,cat,cat,false,0619_fc_dnn_false_cat_35_n02123045_15010.png,n02123045_15010.png,1.0,4.1927032,-3.7262406,5.599539
alexnet_w1_mlp_simclrhn_probe2,1,620,NaN,chair,knife,true,0620_fc_dnn_true_knife_35_n03041632_24883.png,n03041632_24883.png,0.0,-1.218623,1.0179967,-1.581529
alexnet_w1_mlp_simclrhn_probe2,1,621,NaN,cat,cat,true,0621_fc_dnn_true_cat_35_n02123597_4040.png,n02123597_4040.png,1.0,-0.78123254,-0.85569274,0.05265132
alexnet_w1_mlp_simclrhn_probe2,1,622,NaN,bird,bird,true,0622_fc_dnn_true_bird_35_n01843383_3019.png,n01843383_3019.png,1.0,0.4925977,-2.3321915,1.9974276
alexnet_w1_mlp_simclrhn_probe2,1,623,NaN,bear,bear,true,0623_fc_dnn_true_bear_35_n02132136_8619.png,n02132136_8619.png,1.0,6.2391195,2.7594092,2.4605267
alexnet_w1_mlp_simclrhn_probe2,1,624,NaN,knife,airplane,false,0624_fc_dnn_false_airplane_35_n02690373_1912.png,n02690373_1912.png,0.0,1.5722867,1.6276883,-0.03917482
alexnet_w1_mlp_simclrhn_probe2,1,625,NaN,truck,truck,true,0625_fc_dnn_true_truck_35_n03417042_22828.png,n03417042_22828.png,1.0,7.793542,0.16237707,5.3960485
