subj,session,trial,rt,object_response,category,condition,imagename,filename,is_correct,targ_act,max_nontarg_act,decision_margin
alexnet,1,1,NaN,knife,knife,true,0001_fc_dnn_true_knife_35_n03041632_86251.png,n03041632_86251.png,1.0,18.971792,5.0474434,9.846002
alexnet,1,2,NaN,car,car,false,0002_fc_dnn_false_car_35_n03100240_16866.png,n03100240_16866.png,1.0,18.059853,9.54734,6.019255
alexnet,1,3,NaN,keyboard,keyboard,false,0003_fc_dnn_false_keyboard_35_n03085013_21127.png,n03085013_21127.png,1.0,8.265909,5.872578,1.6923406
alexnet,1,4,NaN,truck,truck,true,0004_fc_dnn_true_truck_35_n03417042_10694.png,n03417042_10694.png,1.0,13.761076,6.6989403,4.9936843
alexnet,1,5,NaN,bird,bird,true,0005_fc_dnn_true_bird_35_n01614925_1962.png,n01614925_1962.png,1.0,9.121561,4.0403285,3.592974
alexnet,1,6,NaN,chair,knife,false,0006_fc_dnn_false_knife_35_n03041632_99875.png,n03041632_99875.png,0.0,0.78345513,3.3036456,-1.7820438
alexnet,1,7,NaN,bicycle,bicycle,true,0007_fc_dnn_true_bicycle_35_n03792782_14935.png,n03792782_14935.png,1.0,10.400918,3.9243162,4.579649
alexnet,1,8,NaN,elephant,elephant,false,0008_fc_dnn_false_elephant_35_n02504013_5027.png,n02504013_5027.png,1.0,5.859721,3.6563385,1.5580269
alexnet,1,9,NaN,bottle,dog,false,0009_fc_dnn_false_dog_35_n02090721_129.png,n02090721_129.png,0.0,1.4375306,2.8772888,-1.0180628
alexnet,1,10,NaN,airplane,airplane,true,0010_fc_dnn_true_airplane_35_n02690373_9241.png,n02690373_9241.png,1.0,25.330938,9.563785,11.149061
alexnet,1,11,NaN,truck,truck,true,0011_fc_dnn_true_truck_35_n04467665_62080.png,n04467665_62080.png,1.0,15.026021,12.006664,2.1350076
alexnet,1,12,NaN,keyboard,keyboard,true,0012_fc_dnn_true_keyboard_35_n04505470_2669.png,n04505470_2669.png,1.0,6.7543244,4.3315225,1.7131797
alexnet,1,13,NaN,oven,oven,false,0013_fc_dnn_false_oven_35_n04111531_688.png,n04111531_688.png,1.0,2.2595787,1.7841005,0.33621386
alexnet,1,14,NaN,car,car,true,0014_fc_dnn_true_car_35_n03100240_21982.png,n03100240_21982.png,1.0,19.5475,11.100205,5.97314
alexnet,1,15,NaN,bicycle,bicycle,true,0015_fc_dnn_true_bicycle_35_n02835271_4191.png,n02835271_4191.png,1.0,13.960541,3.9473953,7.0803633
alexnet,1,16,NaN,car,car,true,0016_fc_dnn_true_car_35_n02814533_25278.png,n02814533_25278.png,1.0,14.406593,8.847425,3.9309254
alexnet,1,17,NaN,clock,knife,false,0017_fc_dnn_false_knife_35_n03041632_23087.png,n03041632_23087.png,0.0,1.9719284,5.2002726,-2.2827842
alexnet,1,18,NaN,clock,clock,true,0018_fc_dnn_true_clock_35_n03196217_11252.png,n03196217_11252.png,1.0,10.330864,8.032945,1.6248744
alexnet,1,19,NaN,boat,boat,false,0019_fc_dnn_false_boat_35_n04273569_2040.png,n04273569_2040.png,1.0,11.969242,11.732918,0.16710652
alexnet,1,20,NaN,knife,knife,true,0020_fc_dnn_true_knife_35_n03041632_84869.png,n03041632_84869.png,1.0,17.970024,4.3011737,9.665337
alexnet,1,21,NaN,clock,clock,true,0021_fc_dnn_true_clock_35_n04548280_503.png,n04548280_503.png,1.0,12.857319,7.8854303,3.5156562
alexnet,1,22,NaN,truck,truck,false,0022_fc_dnn_false_truck_35_n03417042_10654.png,n03417042_10654.png,1.0,6.4163065,4.3817677,1.4386362
alexnet,1,23,NaN,boat,boat,true,0023_fc_dnn_true_boat_35_n03344393_2919.png,n03344393_2919.png,1.0,9.946355,8.054922,1.3374449
alexnet,1,24,NaN,chair,chair,false,0024_fc_dnn_false_chair_35_n04099969_7718.png,n04099969_7718.png,1.0,6.018655,1.7473484,3.0202699
alexnet,1,25,NaN,oven,oven,true,0025_fc_dnn_true_oven_35_n04111531_3477.png,n04111531_3477.png,1.0,12.36032,4.0752907,5.8584003
alexnet,1,26,NaN,dog,dog,false,0026_fc_dnn_false_dog_35_n02113712_913.png,n02113712_913.png,1.0,5.9151416,2.1239514,2.6807764
alexnet,1,27,NaN,chair,chair,false,0027_fc_dnn_false_chair_35_n02791124_13701.png,n02791124_13701.png,1.0,6.134073,4.5879793,1.0932531
alexnet,1,28,NaN,airplane,airplane,true,0028_fc_dnn_true_airplane_35_n02690373_8538.png,n02690373_8538.png,1.0,19.601917,6.7888374,9.060216
alexnet,1,29,NaN,dog,knife,true,0029_fc_dnn_true_knife_35_n03041632_98864.png,n03041632_98864.png,0.0,2.705542,2.737899,-0.022879839
alexnet,1,30,NaN,clock,clock,false,0030_fc_dnn_false_clock_35_n04548280_5466.png,n04548280_5466.png,1.0,7.9161773,3.0313277,3.4541104
alexnet,1,31,NaN,keyboard,keyboard,true,0031_fc_dnn_true_keyboard_35_n04505470_4033.png,n04505470_4033.png,1.0,11.863347,5.6371384,4.4025946
alexnet,1,32,NaN,truck,boat,false,0032_fc_dnn_false_boat_35_n03344393_7503.png,n03344393_7503.png,0.0,5.680706,6.84258,-0.82156885
alexnet,1,33,NaN,bottle,bottle,false,0033_fc_dnn_false_bottle_35_n02823428_3402.png,n02823428_3402.png,1.0,9.125398,5.5293713,2.5427747
alexnet,1,34,NaN,boat,boat,true,0034_fc_dnn_true_boat_35_n03662601_15766.png,n03662601_15766.png,1.0,6.4611793,5.668236,0.5606957
alexnet,1,35,NaN,dog,dog,true,0035_fc_dnn_true_dog_35_n02097047_1351.png,n02097047_1351.png,1.0,4.1769686,2.1835322,1.4095724
alexnet,1,36,NaN,keyboard,keyboard,true,0036_fc_dnn_true_keyboard_35_n03085013_23562.png,n03085013_23562.png,1.0,9.58772,6.269699,2.346195
alexnet,1,37,NaN,clock,clock,false,0037_fc_dnn_false_clock_35_n04548280_7872.png,n04548280_7872.png,1.0,4.7976046,4.3359747,0.32642162
alexnet,1,38,NaN,dog,dog,false,0038_fc_dnn_false_dog_35_n02106166_16884.png,n02106166_16884.png,1.0,6.1016374,2.1582181,2.7884185
alexnet,1,39,NaN,oven,oven,true,0039_fc_dnn_true_oven_35_n04111531_3353.png,n04111531_3353.png,1.0,12.884008,2.408329,7.407424
alexnet,1,40,NaN,knife,knife,false,0040_fc_dnn_false_knife_35_n03041632_46185.png,n03041632_46185.png,1.0,9.35858,5.8769393,2.4618917
alexnet,1,41,NaN,knife,knife,true,0041_fc_dnn_true_knife_35_n03041632_14766.png,n03041632_14766.png,1.0,8.09554,4.8125625,2.3214157
alexnet,1,42,NaN,knife,chair,true,0042_fc_dnn_true_chair_35_n02791124_2150.png,n02791124_2150.png,0.0,5.161012,5.483668,-0.22815202
alexnet,1,43,NaN,elephant,elephant,false,0043_fc_dnn_false_elephant_35_n02504458_4631.png,n02504458_4631.png,1.0,10.505519,3.2740355,5.113431
alexnet,1,44,NaN,chair,chair,false,0044_fc_dnn_false_chair_35_n03376595_3223.png,n03376595_3223.png,1.0,5.990947,5.7010646,0.20497766
alexnet,1,45,NaN,car,car,false,0045_fc_dnn_false_car_35_n03100240_5399.png,n03100240_5399.png,1.0,15.015377,7.589526,5.2508698
alexnet,1,46,NaN,bicycle,bottle,true,0046_fc_dnn_true_bottle_35_n04557648_2512.png,n04557648_2512.png,0.0,3.3440907,4.716077,-0.97014076
alexnet,1,47,NaN,bicycle,bicycle,true,0047_fc_dnn_true_bicycle_35_n03792782_8098.png,n03792782_8098.png,1.0,6.2316704,3.0431054,2.254656
alexnet,1,48,NaN,bear,bear,true,0048_fc_dnn_true_bear_35_n02134418_11557.png,n02134418_11557.png,1.0,11.113472,4.3440366,4.7867136
alexnet,1,49,NaN,knife,knife,true,0049_fc_dnn_true_knife_35_n03041632_45569.png,n03041632_45569.png,1.0,7.7524147,2.4378304,3.7579787
alexnet,1,50,NaN,bicycle,bicycle,false,0050_fc_dnn_false_bicycle_35_n03792782_4740.png,n03792782_4740.png,1.0,11.691196,7.7201295,2.8079684
alexnet,1,51,NaN,boat,boat,false,0051_fc_dnn_false_boat_35_n03662601_25404.png,n03662601_25404.png,1.0,6.068392,5.233736,0.59019077
alexnet,1,52,NaN,cat,bird,false,0052_fc_dnn_false_bird_35_n01796340_4853.png,n01796340_4853.png,0.0,3.505392,3.5581996,-0.037340593
alexnet,1,53,NaN,car,clock,true,0053_fc_dnn_true_clock_35_n03196217_5888.png,n03196217_5888.png,0.0,6.048914,6.3721023,-0.22852865
alexnet,1,54,NaN,bicycle,bicycle,true,0054_fc_dnn_true_bicycle_35_n02835271_12871.png,n02835271_12871.png,1.0,15.996936,5.5005126,7.4220924
alexnet,1,55,NaN,keyboard,keyboard,false,0055_fc_dnn_false_keyboard_35_n03085013_28584.png,n03085013_28584.png,1.0,11.321026,5.3507214,4.221643
alexnet,1,56,NaN,cat,cat,true,0056_fc_dnn_true_cat_35_n02123159_6184.png,n02123159_6184.png,1.0,6.4354186,5.325284,0.7849837
alexnet,1,57,NaN,bicycle,bicycle,true,0057_fc_dnn_true_bicycle_35_n02835271_7592.png,n02835271_7592.png,1.0,18.622406,4.7015443,9.843536
alexnet,1,58,NaN,elephant,elephant,false,0058_fc_dnn_false_elephant_35_n02504458_3205.png,n02504458_3205.png,1.0,13.136853,7.1924667,4.203316
alexnet,1,59,NaN,cat,cat,false,0059_fc_dnn_false_cat_35_n02124075_7880.png,n02124075_7880.png,1.0,7.273848,3.332676,2.7868295
alexnet,1,60,NaN,truck,truck,false,0060_fc_dnn_false_truck_35_n04467665_2240.png,n04467665_2240.png,1.0,12.02288,7.6043963,3.1243396
alexnet,1,61,NaN,bottle,bottle,true,0061_fc_dnn_true_bottle_35_n04560804_13316.png,n04560804_13316.png,1.0,7.9587984,3.6688664,3.0334404
alexnet,1,62,NaN,airplane,airplane,false,0062_fc_dnn_false_airplane_35_n02690373_3821.png,n02690373_3821.png,1.0,15.884321,4.229149,8.241451
alexnet,1,63,NaN,oven,knife,true,0063_fc_dnn_true_knife_35_n03041632_17285.png,n03041632_17285.png,0.0,5.87582,7.958098,-1.4723928
alexnet,1,64,NaN,bottle,bottle,false,0064_fc_dnn_false_bottle_35_n02823428_10942.png,n02823428_10942.png,1.0,6.294782,4.251279,1.444975
alexnet,1,65,NaN,bicycle,bicycle,true,0065_fc_dnn_true_bicycle_35_n02835271_3642.png,n02835271_3642.png,1.0,12.287775,4.0412664,5.8311625
alexnet,1,66,NaN,knife,knife,true,0066_fc_dnn_true_knife_35_n03041632_16172.png,n03041632_16172.png,1.0,18.633759,5.416657,9.345902
alexnet,1,67,NaN,bottle,bottle,false,0067_fc_dnn_false_bottle_35_n04560804_2448.png,n04560804_2448.png,1.0,3.6157038,2.2556324,0.96171576
alexnet,1,68,NaN,bottle,oven,false,0068_fc_dnn_false_oven_35_n04111531_4452.png,n04111531_4452.png,0.0,0.2986723,3.4849067,-2.2530081
alexnet,1,69,NaN,keyboard,keyboard,false,0069_fc_dnn_false_keyboard_35_n04505470_912.png,n04505470_912.png,1.0,14.350298,6.699655,5.4098215
alexnet,1,70,NaN,oven,cat,false,0070_fc_dnn_false_cat_35_n02123045_7167.png,n02123045_7167.png,0.0,0.96813315,1.8341911,-0.61239547
alexnet,1,71,NaN,bicycle,bicycle,false,0071_fc_dnn_false_bicycle_35_n03792782_8333.png,n03792782_8333.png,1.0,10.503044,1.882901,6.0953617
alexnet,1,72,NaN,bottle,dog,false,0072_fc_dnn_false_dog_35_n02107683_2904.png,n02107683_2904.png,0.0,1.2721201,3.884775,-1.8474258
alexnet,1,73,NaN,bottle,bottle,true,0073_fc_dnn_true_bottle_35_n04591713_3409.png,n04591713_3409.png,1.0,14.364953,3.2187335,7.8815675
alexnet,1,74,NaN,knife,bottle,false,0074_fc_dnn_false_bottle_35_n04560804_564.png,n04560804_564.png,0.0,1.6030351,2.3697712,-0.5421643
alexnet,1,75,NaN,truck,truck,false,0075_fc_dnn_false_truck_35_n03796401_6503.png,n03796401_6503.png,1.0,11.52217,8.362802,2.234011
alexnet,1,76,NaN,oven,oven,true,0076_fc_dnn_true_oven_35_n04111531_13590.png,n04111531_13590.png,1.0,10.886674,7.5701613,2.3451285
alexnet,1,77,NaN,bird,bird,false,0077_fc_dnn_false_bird_35_n02018795_7504.png,n02018795_7504.png,1.0,2.8657045,1.9340355,0.65878946
alexnet,1,78,NaN,car,car,false,0078_fc_dnn_false_car_35_n03100240_6626.png,n03100240_6626.png,1.0,12.513009,9.997694,1.7785964
alexnet,1,79,NaN,bear,bear,false,0079_fc_dnn_false_bear_35_n02134418_4364.png,n02134418_4364.png,1.0,6.9180975,2.8171172,2.899831
alexnet,1,80,NaN,truck,knife,false,0080_fc_dnn_false_knife_35_n03041632_8051.png,n03041632_8051.png,0.0,3.6618118,6.255081,-1.8337184
alexnet,1,81,NaN,airplane,airplane,true,0081_fc_dnn_true_airplane_35_n02690373_1434.png,n02690373_1434.png,1.0,24.747818,7.9246893,11.895748
alexnet,1,82,NaN,clock,clock,true,0082_fc_dnn_true_clock_35_n04548280_5408.png,n04548280_5408.png,1.0,16.674738,5.932496,7.595912
alexnet,1,83,NaN,cat,cat,false,0083_fc_dnn_false_cat_35_n02123597_3916.png,n02123597_3916.png,1.0,7.9404616,2.9466336,3.5311697
alexnet,1,84,NaN,clock,clock,false,0084_fc_dnn_false_clock_35_n04548280_4542.png,n04548280_4542.png,1.0,7.588829,5.4179068,1.5350739
alexnet,1,85,NaN,airplane,car,true,0085_fc_dnn_true_car_35_n04285008_14161.png,n04285008_14161.png,0.0,2.4163027,6.3565607,-2.786183
alexnet,1,86,NaN,airplane,airplane,false,0086_fc_dnn_false_airplane_35_n02690373_7279.png,n02690373_7279.png,1.0,16.144503,6.533287,6.796156
alexnet,1,87,NaN,elephant,bear,true,0087_fc_dnn_true_bear_35_n02132136_11640.png,n02132136_11640.png,0.0,11.553455,12.28825,-0.5195783
alexnet,1,88,NaN,airplane,airplane,true,0088_fc_dnn_true_airplane_35_n02690373_8350.png,n02690373_8350.png,1.0,20.44265,9.499791,7.7377696
alexnet,1,89,NaN,boat,boat,true,0089_fc_dnn_true_boat_35_n04273569_30568.png,n04273569_30568.png,1.0,20.071712,12.06415,5.662202
alexnet,1,90,NaN,elephant,dog,true,0090_fc_dnn_true_dog_35_n02100583_19533.png,n02100583_19533.png,0.0,7.6123686,8.925261,-0.9283548
alexnet,1,91,NaN,knife,knife,true,0091_fc_dnn_true_knife_35_n03041632_965.png,n03041632_965.png,1.0,16.780502,11.354216,3.8369641
alexnet,1,92,NaN,elephant,elephant,false,0092_fc_dnn_false_elephant_35_n02504458_6109.png,n02504458_6109.png,1.0,7.5078163,3.9491053,2.5163887
alexnet,1,93,NaN,oven,oven,true,0093_fc_dnn_true_oven_35_n04111531_10093.png,n04111531_10093.png,1.0,11.837194,3.1554577,6.138915
alexnet,1,94,NaN,clock,clock,true,0094_fc_dnn_true_clock_35_n03196217_8221.png,n03196217_8221.png,1.0,4.3744636,2.745704,1.151707
alexnet,1,95,NaN,bicycle,bicycle,false,0095_fc_dnn_false_bicycle_35_n03792782_828.png,n03792782_828.png,1.0,9.826544,4.2444086,3.9471657
alexnet,1,96,NaN,knife,knife,true,0096_fc_dnn_true_knife_35_n03041632_7090.png,n03041632_7090.png,1.0,11.984692,5.713293,4.4345484
alexnet,1,97,NaN,elephant,bear,false,0097_fc_dnn_false_bear_35_n02134084_14260.png,n02134084_14260.png,0.0,4.4966526,5.0003967,-0.3562009
alexnet,1,98,NaN,bear,bear,false,0098_fc_dnn_false_bear_35_n02132136_10988.png,n02132136_10988.png,1.0,6.3090863,4.635759,1.1832212
alexnet,1,99,NaN,keyboard,keyboard,false,0099_fc_dnn_false_keyboard_35_n03085013_22980.png,n03085013_22980.png,1.0,3.232463,2.2816176,0.67234915
alexnet,1,100,NaN,bottle,bottle,false,0100_fc_dnn_false_bottle_35_n04557648_3673.png,n04557648_3673.png,1.0,6.282547,0.8865081,3.8155758
alexnet,1,101,NaN,airplane,airplane,true,0101_fc_dnn_true_airplane_35_n02690373_1360.png,n02690373_1360.png,1.0,18.703243,6.7656183,8.441175
alexnet,1,102,NaN,oven,oven,true,0102_fc_dnn_true_oven_35_n04111531_6415.png,n04111531_6415.png,1.0,9.287846,3.5991485,4.0225163
alexnet,1,103,NaN,knife,knife,false,0103_fc_dnn_false_knife_35_n03041632_32054.png,n03041632_32054.png,1.0,11.416029,4.963119,4.5628963
alexnet,1,104,NaN,truck,chair,false,0104_fc_dnn_false_chair_35_n03376595_9136.png,n03376595_9136.png,0.0,6.599013,6.9686317,-0.26136002
alexnet,1,105,NaN,keyboard,keyboard,false,0105_fc_dnn_false_keyboard_35_n03085013_21266.png,n03085013_21266.png,1.0,6.770008,4.4600863,1.6333613
alexnet,1,106,NaN,bicycle,bicycle,true,0106_fc_dnn_true_bicycle_35_n02835271_6137.png,n02835271_6137.png,1.0,13.350662,6.8701005,4.5824494
alexnet,1,107,NaN,car,car,false,0107_fc_dnn_false_car_35_n04285008_14689.png,n04285008_14689.png,1.0,16.049097,9.528107,4.611037
alexnet,1,108,NaN,truck,truck,false,0108_fc_dnn_false_truck_35_n04467665_16276.png,n04467665_16276.png,1.0,11.018828,8.857959,1.5279655
alexnet,1,109,NaN,chair,chair,false,0109_fc_dnn_false_chair_35_n03376595_787.png,n03376595_787.png,1.0,5.483068,3.601417,1.3305281
alexnet,1,110,NaN,bicycle,boat,false,0110_fc_dnn_false_boat_35_n04612504_41355.png,n04612504_41355.png,0.0,5.0746484,5.531415,-0.32298276
alexnet,1,111,NaN,elephant,elephant,true,0111_fc_dnn_true_elephant_35_n02504458_174.png,n02504458_174.png,1.0,21.137342,2.8508213,12.930524
alexnet,1,112,NaN,cat,cat,true,0112_fc_dnn_true_cat_35_n02125311_6746.png,n02125311_6746.png,1.0,9.874007,8.213563,1.1741114
alexnet,1,113,NaN,keyboard,keyboard,false,0113_fc_dnn_false_keyboard_35_n03085013_23287.png,n03085013_23287.png,1.0,12.207041,4.4667506,5.473212
alexnet,1,114,NaN,clock,clock,true,0114_fc_dnn_true_clock_35_n04548280_8071.png,n04548280_8071.png,1.0,15.5704,4.414657,7.8883014
alexnet,1,115,NaN,oven,oven,false,0115_fc_dnn_false_oven_35_n04111531_14543.png,n04111531_14543.png,1.0,8.854275,4.0981503,3.363088
alexnet,1,116,NaN,car,car,false,0116_fc_dnn_false_car_35_n03100240_10791.png,n03100240_10791.png,1.0,16.796646,9.19669,5.373981
alexnet,1,117,NaN,airplane,airplane,true,0117_fc_dnn_true_airplane_35_n02690373_2619.png,n02690373_2619.png,1.0,18.781853,8.265429,7.436235
alexnet,1,118,NaN,keyboard,keyboard,true,0118_fc_dnn_true_keyboard_35_n04505470_3864.png,n04505470_3864.png,1.0,7.39529,3.697772,2.61454
alexnet,1,119,NaN,dog,dog,true,0119_fc_dnn_true_dog_35_n02097658_4387.png,n02097658_4387.png,1.0,6.3976064,3.869683,1.7875118
alexnet,1,120,NaN,clock,clock,true,0120_fc_dnn_true_clock_35_n04548280_309.png,n04548280_309.png,1.0,19.212847,6.83616,8.751638
alexnet,1,121,NaN,dog,dog,true,0121_fc_dnn_true_dog_35_n02108000_5247.png,n02108000_5247.png,1.0,6.5140405,1.9857812,3.201963
alexnet,1,122,NaN,keyboard,keyboard,false,0122_fc_dnn_false_keyboard_35_n04505470_4411.png,n04505470_4411.png,1.0,7.2832165,4.9045,1.6820066
alexnet,1,123,NaN,chair,truck,false,0123_fc_dnn_false_truck_35_n03417042_2155.png,n03417042_2155.png,0.0,3.4267635,7.1322017,-2.6201406
alexnet,1,124,NaN,bear,bear,false,0124_fc_dnn_false_bear_35_n02132136_4237.png,n02132136_4237.png,1.0,9.992614,6.5581493,2.428533
alexnet,1,125,NaN,bird,bird,false,0125_fc_dnn_false_bird_35_n01843065_2350.png,n01843065_2350.png,1.0,3.9801373,0.8842976,2.1890893
alexnet,1,126,NaN,knife,knife,false,0126_fc_dnn_false_knife_35_n03041632_51225.png,n03041632_51225.png,1.0,16.898758,5.8635054,7.803102
alexnet,1,127,NaN,airplane,airplane,false,0127_fc_dnn_false_airplane_35_n02690373_2095.png,n02690373_2095.png,1.0,17.48682,5.1202745,8.744469
alexnet,1,128,NaN,clock,clock,true,0128_fc_dnn_true_clock_35_n02708093_1775.png,n02708093_1775.png,1.0,9.532047,3.5816958,4.2075343
alexnet,1,129,NaN,elephant,elephant,true,0129_fc_dnn_true_elephant_35_n02504458_7950.png,n02504458_7950.png,1.0,32.819283,10.996633,15.430944
alexnet,1,130,NaN,boat,boat,true,0130_fc_dnn_true_boat_35_n03662601_1926.png,n03662601_1926.png,1.0,11.749807,4.289323,5.275359
alexnet,1,131,NaN,elephant,elephant,true,0131_fc_dnn_true_elephant_35_n02504458_6721.png,n02504458_6721.png,1.0,9.0987835,2.503988,4.6632247
alexnet,1,132,NaN,bicycle,bicycle,true,0132_fc_dnn_true_bicycle_35_n02835271_14225.png,n02835271_14225.png,1.0,7.418453,3.056368,3.0844603
alexnet,1,133,NaN,bottle,clock,false,0133_fc_dnn_false_clock_35_n02708093_2744.png,n02708093_2744.png,0.0,7.0348144,8.420282,-0.97967386
alexnet,1,134,NaN,clock,clock,true,0134_fc_dnn_true_clock_35_n02708093_275.png,n02708093_275.png,1.0,24.091661,5.8256283,12.916037
alexnet,1,135,NaN,knife,knife,false,0135_fc_dnn_false_knife_35_n03041632_25512.png,n03041632_25512.png,1.0,7.9309106,4.05453,2.741015
alexnet,1,136,NaN,bird,bird,true,0136_fc_dnn_true_bird_35_n01622779_5441.png,n01622779_5441.png,1.0,4.909453,4.122284,0.55661255
alexnet,1,137,NaN,car,oven,false,0137_fc_dnn_false_oven_35_n04111531_14329.png,n04111531_14329.png,0.0,10.327526,12.165943,-1.2999572
alexnet,1,138,NaN,bottle,bird,false,0138_fc_dnn_false_bird_35_n02007558_13217.png,n02007558_13217.png,0.0,1.3856847,4.573772,-2.2543182
alexnet,1,139,NaN,cat,cat,true,0139_fc_dnn_true_cat_35_n02123597_7908.png,n02123597_7908.png,1.0,10.71284,4.8482094,4.14692
alexnet,1,140,NaN,clock,clock,true,0140_fc_dnn_true_clock_35_n04548280_9828.png,n04548280_9828.png,1.0,15.277341,3.6211302,8.242186
alexnet,1,141,NaN,airplane,bird,false,0141_fc_dnn_false_bird_35_n01833805_4819.png,n01833805_4819.png,0.0,3.2005618,4.001275,-0.5661898
alexnet,1,142,NaN,knife,knife,true,0142_fc_dnn_true_knife_35_n03041632_52929.png,n03041632_52929.png,1.0,6.2988987,4.5854034,1.2116241
alexnet,1,143,NaN,truck,truck,false,0143_fc_dnn_false_truck_35_n04467665_2044.png,n04467665_2044.png,1.0,10.901194,6.9820113,2.7712805
alexnet,1,144,NaN,oven,oven,false,0144_fc_dnn_false_oven_35_n04111531_16583.png,n04111531_16583.png,1.0,14.431066,7.212246,5.1044765
alexnet,1,145,NaN,airplane,airplane,true,0145_fc_dnn_true_airplane_35_n02690373_2796.png,n02690373_2796.png,1.0,13.583424,7.468521,4.3238893
alexnet,1,146,NaN,airplane,airplane,false,0146_fc_dnn_false_airplane_35_n02690373_3362.png,n02690373_3362.png,1.0,23.802605,9.411595,10.175981
alexnet,1,147,NaN,clock,clock,true,0147_fc_dnn_true_clock_35_n02708093_3759.png,n02708093_3759.png,1.0,11.852132,3.9111953,5.6150904
alexnet,1,148,NaN,elephant,elephant,true,0148_fc_dnn_true_elephant_35_n02504013_2558.png,n02504013_2558.png,1.0,18.778763,2.7002206,11.3692465
alexnet,1,149,NaN,bear,bear,false,0149_fc_dnn_false_bear_35_n02134418_896.png,n02134418_896.png,1.0,5.4716187,3.0208924,1.7329252
alexnet,1,150,NaN,truck,truck,false,0150_fc_dnn_false_truck_35_n04467665_56815.png,n04467665_56815.png,1.0,14.970199,6.3658137,6.0842195
alexnet,1,151,NaN,truck,truck,true,0151_fc_dnn_true_truck_35_n03796401_3695.png,n03796401_3695.png,1.0,17.553106,6.540341,7.7872014
alexnet,1,152,NaN,dog,dog,true,0152_fc_dnn_true_dog_35_n02107312_197.png,n02107312_197.png,1.0,3.8240745,3.179471,0.4558035
alexnet,1,153,NaN,bear,bear,false,0153_fc_dnn_false_bear_35_n02133161_13356.png,n02133161_13356.png,1.0,3.6380265,1.9955076,1.1614362
alexnet,1,154,NaN,truck,truck,false,0154_fc_dnn_false_truck_35_n03796401_6923.png,n03796401_6923.png,1.0,5.9624176,4.000693,1.3871489
alexnet,1,155,NaN,elephant,elephant,true,0155_fc_dnn_true_elephant_35_n02504458_7660.png,n02504458_7660.png,1.0,15.502223,5.8338037,6.8366046
alexnet,1,156,NaN,bicycle,bicycle,false,0156_fc_dnn_false_bicycle_35_n02835271_6554.png,n02835271_6554.png,1.0,14.720681,4.9484243,6.9100294
alexnet,1,157,NaN,boat,boat,true,0157_fc_dnn_true_boat_35_n04273569_2698.png,n04273569_2698.png,1.0,12.459058,3.99128,5.9876227
alexnet,1,158,NaN,dog,bottle,true,0158_fc_dnn_true_bottle_35_n03983396_5055.png,n03983396_5055.png,0.0,3.1576114,4.573206,-1.0009766
alexnet,1,159,NaN,chair,chair,true,0159_fc_dnn_true_chair_35_n04429376_22811.png,n04429376_22811.png,1.0,10.547897,5.1825137,3.7938993
alexnet,1,160,NaN,airplane,knife,false,0160_fc_dnn_false_knife_35_n03041632_5640.png,n03041632_5640.png,0.0,2.6727145,6.0985045,-2.4223995
alexnet,1,161,NaN,elephant,bird,true,0161_fc_dnn_true_bird_35_n01795545_14857.png,n01795545_14857.png,0.0,2.1837544,3.1405063,-0.6765257
alexnet,1,162,NaN,oven,oven,false,0162_fc_dnn_false_oven_35_n04111531_16144.png,n04111531_16144.png,1.0,3.800928,3.218552,0.41180202
alexnet,1,163,NaN,clock,truck,false,0163_fc_dnn_false_truck_35_n04467665_47050.png,n04467665_47050.png,0.0,5.103081,5.871053,-0.5430382
alexnet,1,164,NaN,bottle,bottle,true,0164_fc_dnn_true_bottle_35_n03937543_8063.png,n03937543_8063.png,1.0,8.78045,7.5274563,0.8860003
alexnet,1,165,NaN,bear,bear,false,0165_fc_dnn_false_bear_35_n02134084_1655.png,n02134084_1655.png,1.0,10.568756,6.7582755,2.6944168
alexnet,1,166,NaN,bicycle,car,false,0166_fc_dnn_false_car_35_n03100240_2425.png,n03100240_2425.png,0.0,0.9079981,2.9795666,-1.4648201
alexnet,1,167,NaN,keyboard,keyboard,false,0167_fc_dnn_false_keyboard_35_n03085013_21300.png,n03085013_21300.png,1.0,21.707285,8.01531,9.681688
alexnet,1,168,NaN,bear,bear,false,0168_fc_dnn_false_bear_35_n02132136_2248.png,n02132136_2248.png,1.0,9.372825,6.407864,2.0965438
alexnet,1,169,NaN,knife,knife,false,0169_fc_dnn_false_knife_35_n03041632_27832.png,n03041632_27832.png,1.0,6.5725617,2.514816,2.8692596
alexnet,1,170,NaN,keyboard,keyboard,true,0170_fc_dnn_true_keyboard_35_n04505470_4682.png,n04505470_4682.png,1.0,18.546854,9.497619,6.3987756
alexnet,1,171,NaN,chair,truck,false,0171_fc_dnn_false_truck_35_n03417042_12908.png,n03417042_12908.png,0.0,3.620512,4.5694504,-0.6710008
alexnet,1,172,NaN,elephant,elephant,false,0172_fc_dnn_false_elephant_35_n02504013_2148.png,n02504013_2148.png,1.0,7.173626,4.98168,1.5499399
alexnet,1,173,NaN,boat,boat,true,0173_fc_dnn_true_boat_35_n02951358_20379.png,n02951358_20379.png,1.0,5.9569545,4.564574,0.98456186
alexnet,1,174,NaN,cat,cat,true,0174_fc_dnn_true_cat_35_n02123394_6521.png,n02123394_6521.png,1.0,7.9420524,3.1536684,3.3858988
alexnet,1,175,NaN,boat,boat,true,0175_fc_dnn_true_boat_35_n03662601_9602.png,n03662601_9602.png,1.0,15.028275,9.674173,3.7859213
alexnet,1,176,NaN,clock,clock,true,0176_fc_dnn_true_clock_35_n04548280_3997.png,n04548280_3997.png,1.0,15.051726,4.6897187,7.3270454
alexnet,1,177,NaN,car,car,false,0177_fc_dnn_false_car_35_n03100240_12694.png,n03100240_12694.png,1.0,15.478885,6.874785,6.0840173
alexnet,1,178,NaN,airplane,bird,false,0178_fc_dnn_false_bird_35_n02002556_25052.png,n02002556_25052.png,0.0,2.7552712,3.7894087,-0.73124564
alexnet,1,179,NaN,chair,chair,true,0179_fc_dnn_true_chair_35_n04429376_22734.png,n04429376_22734.png,1.0,5.2272406,2.454839,1.960384
alexnet,1,180,NaN,boat,boat,true,0180_fc_dnn_true_boat_35_n04612504_5334.png,n04612504_5334.png,1.0,14.854184,6.7140665,5.7559323
alexnet,1,181,NaN,knife,keyboard,true,0181_fc_dnn_true_keyboard_35_n03085013_15484.png,n03085013_15484.png,0.0,7.0527077,9.09133,-1.4415234
alexnet,1,182,NaN,bear,bear,true,0182_fc_dnn_true_bear_35_n02134418_1809.png,n02134418_1809.png,1.0,17.890274,5.796494,8.551595
alexnet,1,183,NaN,bottle,bottle,true,0183_fc_dnn_true_bottle_35_n04560804_6392.png,n04560804_6392.png,1.0,4.89352,3.7782607,0.78860736
alexnet,1,184,NaN,boat,boat,false,0184_fc_dnn_false_boat_35_n02951358_29495.png,n02951358_29495.png,1.0,4.301898,4.2432156,0.041494753
alexnet,1,185,NaN,dog,dog,false,0185_fc_dnn_false_dog_35_n02086646_8449.png,n02086646_8449.png,1.0,7.5818224,2.5046632,3.5900936
alexnet,1,186,NaN,bird,bird,true,0186_fc_dnn_true_bird_35_n02037110_4043.png,n02037110_4043.png,1.0,7.850093,3.9707146,2.7431347
alexnet,1,187,NaN,elephant,elephant,true,0187_fc_dnn_true_elephant_35_n02504458_4819.png,n02504458_4819.png,1.0,22.031391,1.9991581,14.1649275
alexnet,1,188,NaN,bird,bird,true,0188_fc_dnn_true_bird_35_n01829413_282.png,n01829413_282.png,1.0,13.420175,2.8052642,7.505875
alexnet,1,189,NaN,bottle,bird,false,0189_fc_dnn_false_bird_35_n02007558_22160.png,n02007558_22160.png,0.0,-2.0545266,4.190507,-4.4159055
alexnet,1,190,NaN,truck,truck,false,0190_fc_dnn_false_truck_35_n03417042_3066.png,n03417042_3066.png,1.0,5.299652,3.1864567,1.4942548
alexnet,1,191,NaN,boat,boat,true,0191_fc_dnn_true_boat_35_n04612504_254.png,n04612504_254.png,1.0,11.36543,6.9859,3.0967953
alexnet,1,192,NaN,keyboard,keyboard,false,0192_fc_dnn_false_keyboard_35_n03085013_20704.png,n03085013_20704.png,1.0,8.217072,6.3808203,1.2984258
alexnet,1,193,NaN,chair,chair,true,0193_fc_dnn_true_chair_35_n03376595_3015.png,n03376595_3015.png,1.0,8.174936,3.7306266,3.1426015
alexnet,1,194,NaN,keyboard,bottle,false,0194_fc_dnn_false_bottle_35_n03983396_3782.png,n03983396_3782.png,0.0,4.076504,6.589917,-1.7772514
alexnet,1,195,NaN,bird,bird,false,0195_fc_dnn_false_bird_35_n01592084_4087.png,n01592084_4087.png,1.0,6.4187055,2.5187223,2.7577045
alexnet,1,196,NaN,bird,bird,false,0196_fc_dnn_false_bird_35_n02013706_651.png,n02013706_651.png,1.0,8.268179,1.0037829,5.136704
alexnet,1,197,NaN,keyboard,keyboard,true,0197_fc_dnn_true_keyboard_35_n04505470_2825.png,n04505470_2825.png,1.0,16.756073,9.260062,5.3004804
alexnet,1,198,NaN,cat,cat,false,0198_fc_dnn_false_cat_35_n02123597_23346.png,n02123597_23346.png,1.0,4.6652684,2.7094035,1.3830054
alexnet,1,199,NaN,cat,cat,false,0199_fc_dnn_false_cat_35_n02124075_3592.png,n02124075_3592.png,1.0,8.804171,2.2216449,4.6545486
alexnet,1,200,NaN,airplane,airplane,false,0200_fc_dnn_false_airplane_35_n02690373_5415.png,n02690373_5415.png,1.0,21.438255,6.856848,10.310613
alexnet,1,201,NaN,cat,cat,true,0201_fc_dnn_true_cat_35_n02123597_4591.png,n02123597_4591.png,1.0,8.088012,5.1065645,2.1082015
alexnet,1,202,NaN,elephant,elephant,false,0202_fc_dnn_false_elephant_35_n02504013_2228.png,n02504013_2228.png,1.0,8.918518,7.120637,1.271294
alexnet,1,203,NaN,knife,knife,false,0203_fc_dnn_false_knife_35_n03041632_47743.png,n03041632_47743.png,1.0,6.1709785,6.097004,0.05230795
alexnet,1,204,NaN,bear,bear,false,0204_fc_dnn_false_bear_35_n02134418_1105.png,n02134418_1105.png,1.0,6.3800244,3.9510956,1.7175121
alexnet,1,205,NaN,bottle,bottle,true,0205_fc_dnn_true_bottle_35_n04591713_1174.png,n04591713_1174.png,1.0,8.669534,3.853921,3.4051526
alexnet,1,206,NaN,keyboard,keyboard,true,0206_fc_dnn_true_keyboard_35_n04505470_8544.png,n04505470_8544.png,1.0,11.896991,6.7740045,3.6224985
alexnet,1,207,NaN,bear,bear,true,0207_fc_dnn_true_bear_35_n02134418_379.png,n02134418_379.png,1.0,21.970402,6.523997,10.922258
alexnet,1,208,NaN,bottle,knife,false,0208_fc_dnn_false_knife_35_n03041632_33198.png,n03041632_33198.png,0.0,0.41253972,3.1107447,-1.907919
alexnet,1,209,NaN,bear,bear,true,0209_fc_dnn_true_bear_35_n02134084_4490.png,n02134084_4490.png,1.0,12.571568,5.8539233,4.750092
alexnet,1,210,NaN,car,car,true,0210_fc_dnn_true_car_35_n02814533_23592.png,n02814533_23592.png,1.0,14.436641,8.171298,4.4302664
alexnet,1,211,NaN,dog,dog,false,0211_fc_dnn_false_dog_35_n02102973_7095.png,n02102973_7095.png,1.0,5.1476974,4.8087616,0.23966384
alexnet,1,212,NaN,elephant,elephant,true,0212_fc_dnn_true_elephant_35_n02504013_3810.png,n02504013_3810.png,1.0,21.566723,9.081036,8.828714
alexnet,1,213,NaN,truck,truck,false,0213_fc_dnn_false_truck_35_n03417042_28742.png,n03417042_28742.png,1.0,10.488586,6.380321,2.9049823
alexnet,1,214,NaN,bicycle,bicycle,false,0214_fc_dnn_false_bicycle_35_n03792782_4382.png,n03792782_4382.png,1.0,14.700305,2.070734,8.930455
alexnet,1,215,NaN,keyboard,keyboard,false,0215_fc_dnn_false_keyboard_35_n04505470_2868.png,n04505470_2868.png,1.0,14.702011,9.794903,3.4698496
alexnet,1,216,NaN,elephant,bear,true,0216_fc_dnn_true_bear_35_n02132136_4817.png,n02132136_4817.png,0.0,9.111512,10.534903,-1.006489
alexnet,1,217,NaN,bicycle,bicycle,true,0217_fc_dnn_true_bicycle_35_n03792782_1989.png,n03792782_1989.png,1.0,12.885711,3.5885944,6.5740542
alexnet,1,218,NaN,truck,truck,true,0218_fc_dnn_true_truck_35_n03417042_4883.png,n03417042_4883.png,1.0,8.68754,2.9137528,4.0826845
alexnet,1,219,NaN,bicycle,bicycle,true,0219_fc_dnn_true_bicycle_35_n03792782_6614.png,n03792782_6614.png,1.0,12.666468,2.5421631,7.1589646
alexnet,1,220,NaN,car,car,true,0220_fc_dnn_true_car_35_n04285008_8581.png,n04285008_8581.png,1.0,14.857945,7.3304367,5.3227525
alexnet,1,221,NaN,truck,truck,true,0221_fc_dnn_true_truck_35_n04467665_22051.png,n04467665_22051.png,1.0,19.133001,9.0369215,7.1390066
alexnet,1,222,NaN,keyboard,keyboard,true,0222_fc_dnn_true_keyboard_35_n04505470_4516.png,n04505470_4516.png,1.0,18.107698,8.606824,6.718133
alexnet,1,223,NaN,clock,clock,true,0223_fc_dnn_true_clock_35_n02708093_3355.png,n02708093_3355.png,1.0,7.5807266,4.5813446,2.1208835
alexnet,1,224,NaN,truck,chair,false,0224_fc_dnn_false_chair_35_n02791124_11404.png,n02791124_11404.png,0.0,3.9652143,4.319434,-0.2504713
alexnet,1,225,NaN,boat,boat,true,0225_fc_dnn_true_boat_35_n03344393_1145.png,n03344393_1145.png,1.0,13.24719,6.104398,5.0507174
alexnet,1,226,NaN,keyboard,keyboard,false,0226_fc_dnn_false_keyboard_35_n04505470_4627.png,n04505470_4627.png,1.0,8.348455,6.368164,1.4002775
alexnet,1,227,NaN,chair,chair,true,0227_fc_dnn_true_chair_35_n03376595_4354.png,n03376595_4354.png,1.0,6.4544663,2.4353316,2.8419573
alexnet,1,228,NaN,keyboard,keyboard,false,0228_fc_dnn_false_keyboard_35_n03085013_3231.png,n03085013_3231.png,1.0,15.967775,5.000859,7.7547817
alexnet,1,229,NaN,car,car,false,0229_fc_dnn_false_car_35_n03100240_7454.png,n03100240_7454.png,1.0,14.772899,8.764643,4.2484784
alexnet,1,230,NaN,bicycle,chair,false,0230_fc_dnn_false_chair_35_n03376595_4212.png,n03376595_4212.png,0.0,5.84266,7.3967957,-1.09894
alexnet,1,231,NaN,airplane,airplane,true,0231_fc_dnn_true_airplane_35_n02690373_4175.png,n02690373_4175.png,1.0,18.121838,4.3645287,9.727886
alexnet,1,232,NaN,bicycle,bird,false,0232_fc_dnn_false_bird_35_n01614925_19918.png,n01614925_19918.png,0.0,2.7869906,3.2981322,-0.36143166
alexnet,1,233,NaN,dog,dog,false,0233_fc_dnn_false_dog_35_n02086240_1183.png,n02086240_1183.png,1.0,4.9873896,1.6112045,2.3873234
alexnet,1,234,NaN,car,car,false,0234_fc_dnn_false_car_35_n02814533_1344.png,n02814533_1344.png,1.0,11.811211,9.854325,1.383727
alexnet,1,235,NaN,bottle,bottle,true,0235_fc_dnn_true_bottle_35_n03983396_1321.png,n03983396_1321.png,1.0,3.7916577,1.8341292,1.3841817
alexnet,1,236,NaN,cat,cat,true,0236_fc_dnn_true_cat_35_n02123597_6291.png,n02123597_6291.png,1.0,7.1608486,2.8991914,3.0134468
alexnet,1,237,NaN,airplane,airplane,true,0237_fc_dnn_true_airplane_35_n02690373_7698.png,n02690373_7698.png,1.0,8.515619,6.809953,1.2060881
alexnet,1,238,NaN,airplane,airplane,false,0238_fc_dnn_false_airplane_35_n02690373_4191.png,n02690373_4191.png,1.0,6.871477,3.7188838,2.2292202
alexnet,1,239,NaN,bear,bear,true,0239_fc_dnn_true_bear_35_n02134418_6204.png,n02134418_6204.png,1.0,7.8124466,3.7083852,2.9020095
alexnet,1,240,NaN,bear,bear,true,0240_fc_dnn_true_bear_35_n02132136_14829.png,n02132136_14829.png,1.0,6.3953114,5.4930973,0.6379617
alexnet,1,241,NaN,car,car,false,0241_fc_dnn_false_car_35_n04285008_2409.png,n04285008_2409.png,1.0,12.688321,10.0141115,1.8909518
alexnet,1,242,NaN,bird,bird,true,0242_fc_dnn_true_bird_35_n02037110_3761.png,n02037110_3761.png,1.0,15.881478,4.53729,8.021553
alexnet,1,243,NaN,boat,boat,false,0243_fc_dnn_false_boat_35_n02951358_3067.png,n02951358_3067.png,1.0,7.1674867,5.6035986,1.1058359
alexnet,1,244,NaN,chair,chair,false,0244_fc_dnn_false_chair_35_n03376595_14748.png,n03376595_14748.png,1.0,16.022243,5.4543447,7.472633
alexnet,1,245,NaN,elephant,elephant,true,0245_fc_dnn_true_elephant_35_n02504458_5951.png,n02504458_5951.png,1.0,16.332727,6.575842,6.89916
alexnet,1,246,NaN,airplane,clock,false,0246_fc_dnn_false_clock_35_n02708093_2006.png,n02708093_2006.png,0.0,4.0740266,6.2127748,-1.5123234
alexnet,1,247,NaN,car,car,false,0247_fc_dnn_false_car_35_n03100240_18646.png,n03100240_18646.png,1.0,13.771664,8.8581085,3.4744081
alexnet,1,248,NaN,bicycle,bicycle,false,0248_fc_dnn_false_bicycle_35_n03792782_5864.png,n03792782_5864.png,1.0,11.926621,4.3792367,5.3368073
alexnet,1,249,NaN,clock,chair,false,0249_fc_dnn_false_chair_35_n04429376_36830.png,n04429376_36830.png,0.0,2.6122315,5.583505,-2.1010077
alexnet,1,250,NaN,boat,boat,true,0250_fc_dnn_true_boat_35_n04273569_9282.png,n04273569_9282.png,1.0,17.170256,5.2510633,8.428142
alexnet,1,251,NaN,bird,bird,true,0251_fc_dnn_true_bird_35_n01622779_1609.png,n01622779_1609.png,1.0,9.399637,2.9929583,4.530206
alexnet,1,252,NaN,dog,dog,true,0252_fc_dnn_true_dog_35_n02088094_9498.png,n02088094_9498.png,1.0,4.4267616,3.794293,0.44722292
alexnet,1,253,NaN,car,car,true,0253_fc_dnn_true_car_35_n04285008_5525.png,n04285008_5525.png,1.0,15.684611,10.527775,3.646434
alexnet,1,254,NaN,knife,knife,true,0254_fc_dnn_true_knife_35_n03041632_29343.png,n03041632_29343.png,1.0,8.516762,1.6171652,4.8787518
alexnet,1,255,NaN,knife,knife,true,0255_fc_dnn_true_knife_35_n03041632_86338.png,n03041632_86338.png,1.0,7.2606573,3.9487944,2.3418407
alexnet,1,256,NaN,keyboard,keyboard,false,0256_fc_dnn_false_keyboard_35_n03085013_20691.png,n03085013_20691.png,1.0,11.704737,6.0144677,4.0236278
alexnet,1,257,NaN,cat,cat,true,0257_fc_dnn_true_cat_35_n02124075_1957.png,n02124075_1957.png,1.0,6.2180037,1.8983577,3.054451
alexnet,1,258,NaN,bear,bear,false,0258_fc_dnn_false_bear_35_n02134418_195.png,n02134418_195.png,1.0,10.969439,6.982108,2.8194685
alexnet,1,259,NaN,chair,chair,true,0259_fc_dnn_true_chair_35_n02791124_1376.png,n02791124_1376.png,1.0,9.963848,5.756017,2.975386
alexnet,1,260,NaN,elephant,elephant,false,0260_fc_dnn_false_elephant_35_n02504458_8060.png,n02504458_8060.png,1.0,6.567049,2.084299,3.1697829
alexnet,1,261,NaN,oven,oven,false,0261_fc_dnn_false_oven_35_n04111531_6479.png,n04111531_6479.png,1.0,5.3140697,1.8099864,2.4777613
alexnet,1,262,NaN,bear,bear,true,0262_fc_dnn_true_bear_35_n02132136_4070.png,n02132136_4070.png,1.0,5.108333,3.4452596,1.1759706
alexnet,1,263,NaN,cat,cat,false,0263_fc_dnn_false_cat_35_n02123597_1153.png,n02123597_1153.png,1.0,6.610377,3.4858298,2.2093885
alexnet,1,264,NaN,truck,truck,false,0264_fc_dnn_false_truck_35_n04467665_49656.png,n04467665_49656.png,1.0,11.90527,7.8047624,2.8994966
alexnet,1,265,NaN,dog,dog,true,0265_fc_dnn_true_dog_35_n02108915_10239.png,n02108915_10239.png,1.0,8.522957,3.7844698,3.3506165
alexnet,1,266,NaN,bottle,chair,false,0266_fc_dnn_false_chair_35_n04429376_6835.png,n04429376_6835.png,0.0,5.055896,5.5571527,-0.35444218
alexnet,1,267,NaN,truck,truck,true,0267_fc_dnn_true_truck_35_n04467665_54079.png,n04467665_54079.png,1.0,8.819606,5.113318,2.6207414
alexnet,1,268,NaN,clock,clock,false,0268_fc_dnn_false_clock_35_n03196217_4464.png,n03196217_4464.png,1.0,11.082292,5.3120365,4.0801864
alexnet,1,269,NaN,dog,dog,true,0269_fc_dnn_true_dog_35_n02102318_9359.png,n02102318_9359.png,1.0,7.219206,3.7375488,2.4619033
alexnet,1,270,NaN,bicycle,bicycle,true,0270_fc_dnn_true_bicycle_35_n03792782_12578.png,n03792782_12578.png,1.0,13.696463,3.9396002,6.8991437
alexnet,1,271,NaN,bicycle,bicycle,true,0271_fc_dnn_true_bicycle_35_n02835271_12752.png,n02835271_12752.png,1.0,21.595665,2.4374626,13.546896
alexnet,1,272,NaN,oven,oven,true,0272_fc_dnn_true_oven_35_n04111531_20056.png,n04111531_20056.png,1.0,13.453745,5.336705,5.739614
alexnet,1,273,NaN,oven,oven,true,0273_fc_dnn_true_oven_35_n04111531_12510.png,n04111531_12510.png,1.0,19.573935,7.323841,8.662125
alexnet,1,274,NaN,oven,oven,false,0274_fc_dnn_false_oven_35_n04111531_11079.png,n04111531_11079.png,1.0,9.002193,5.404631,2.5438607
alexnet,1,275,NaN,cat,cat,true,0275_fc_dnn_true_cat_35_n02124075_4377.png,n02124075_4377.png,1.0,9.004407,0.9940294,5.6641927
alexnet,1,276,NaN,knife,knife,true,0276_fc_dnn_true_knife_35_n03041632_20517.png,n03041632_20517.png,1.0,8.263088,4.8037558,2.4461174
alexnet,1,277,NaN,bottle,knife,false,0277_fc_dnn_false_knife_35_n03041632_362.png,n03041632_362.png,0.0,-0.7802827,3.429224,-2.9765706
alexnet,1,278,NaN,airplane,airplane,false,0278_fc_dnn_false_airplane_35_n02690373_6807.png,n02690373_6807.png,1.0,14.388213,9.477398,3.4724708
alexnet,1,279,NaN,elephant,elephant,false,0279_fc_dnn_false_elephant_35_n02504013_1494.png,n02504013_1494.png,1.0,19.072668,8.81536,7.253012
alexnet,1,280,NaN,chair,oven,false,0280_fc_dnn_false_oven_35_n04111531_3181.png,n04111531_3181.png,0.0,0.26031137,2.932914,-1.8898154
alexnet,1,281,NaN,truck,truck,false,0281_fc_dnn_false_truck_35_n03796401_6727.png,n03796401_6727.png,1.0,12.529196,10.319885,1.5622184
alexnet,1,282,NaN,dog,dog,true,0282_fc_dnn_true_dog_35_n02113023_6956.png,n02113023_6956.png,1.0,5.2108274,3.7632797,1.0235708
alexnet,1,283,NaN,elephant,elephant,false,0283_fc_dnn_false_elephant_35_n02504013_1519.png,n02504013_1519.png,1.0,2.4128544,1.0867339,0.9377088
alexnet,1,284,NaN,bear,oven,false,0284_fc_dnn_false_oven_35_n04111531_8082.png,n04111531_8082.png,0.0,1.1832033,2.471617,-0.911046
alexnet,1,285,NaN,oven,oven,false,0285_fc_dnn_false_oven_35_n04111531_550.png,n04111531_550.png,1.0,5.173704,4.9775286,0.13871709
alexnet,1,286,NaN,keyboard,clock,false,0286_fc_dnn_false_clock_35_n02708093_2242.png,n02708093_2242.png,0.0,0.36138567,3.4655466,-2.1949732
alexnet,1,287,NaN,airplane,airplane,true,0287_fc_dnn_true_airplane_35_n02690373_10809.png,n02690373_10809.png,1.0,24.627363,10.030902,10.321257
alexnet,1,288,NaN,bird,bird,false,0288_fc_dnn_false_bird_35_n02037110_6501.png,n02037110_6501.png,1.0,10.42655,2.8934965,5.326673
alexnet,1,289,NaN,airplane,airplane,false,0289_fc_dnn_false_airplane_35_n02690373_12756.png,n02690373_12756.png,1.0,13.760637,3.787022,7.0524116
alexnet,1,290,NaN,bottle,bottle,false,0290_fc_dnn_false_bottle_35_n03983396_5413.png,n03983396_5413.png,1.0,8.0352545,3.4880424,3.2153647
alexnet,1,291,NaN,bird,bird,true,0291_fc_dnn_true_bird_35_n01560419_631.png,n01560419_631.png,1.0,13.901167,2.466931,8.085226
alexnet,1,292,NaN,chair,cat,true,0292_fc_dnn_true_cat_35_n02123394_4734.png,n02123394_4734.png,0.0,2.9331818,3.8783326,-0.66832256
alexnet,1,293,NaN,bottle,bottle,true,0293_fc_dnn_true_bottle_35_n03937543_469.png,n03937543_469.png,1.0,7.756047,5.174192,1.8256471
alexnet,1,294,NaN,clock,clock,true,0294_fc_dnn_true_clock_35_n04548280_1055.png,n04548280_1055.png,1.0,9.734675,5.4974847,2.9961464
alexnet,1,295,NaN,oven,chair,true,0295_fc_dnn_true_chair_35_n02791124_15934.png,n02791124_15934.png,0.0,4.6954546,5.2455516,-0.38897732
alexnet,1,296,NaN,keyboard,keyboard,true,0296_fc_dnn_true_keyboard_35_n03085013_22187.png,n03085013_22187.png,1.0,8.307168,6.882652,1.0072851
alexnet,1,297,NaN,bear,dog,false,0297_fc_dnn_false_dog_35_n02099601_8560.png,n02099601_8560.png,0.0,5.069862,5.221018,-0.1068834
alexnet,1,298,NaN,truck,truck,true,0298_fc_dnn_true_truck_35_n03417042_11091.png,n03417042_11091.png,1.0,14.260107,7.8678355,4.5200186
alexnet,1,299,NaN,bird,bird,true,0299_fc_dnn_true_bird_35_n02013706_7132.png,n02013706_7132.png,1.0,4.521009,4.456661,0.045500726
alexnet,1,300,NaN,car,car,false,0300_fc_dnn_false_car_35_n02814533_4978.png,n02814533_4978.png,1.0,11.724711,8.62565,2.1913671
alexnet,1,301,NaN,bear,bear,true,0301_fc_dnn_true_bear_35_n02134418_6244.png,n02134418_6244.png,1.0,12.031759,6.2015185,4.122603
alexnet,1,302,NaN,bicycle,bicycle,false,0302_fc_dnn_false_bicycle_35_n03792782_50569.png,n03792782_50569.png,1.0,19.072094,3.1076803,11.288546
alexnet,1,303,NaN,car,car,true,0303_fc_dnn_true_car_35_n03100240_2632.png,n03100240_2632.png,1.0,9.353269,5.9742928,2.3892968
alexnet,1,304,NaN,knife,knife,false,0304_fc_dnn_false_knife_35_n03041632_11285.png,n03041632_11285.png,1.0,7.7351503,4.0006475,2.6406922
alexnet,1,305,NaN,knife,knife,false,0305_fc_dnn_false_knife_35_n03041632_39952.png,n03041632_39952.png,1.0,6.932446,2.4673076,3.1573298
alexnet,1,306,NaN,chair,chair,true,0306_fc_dnn_true_chair_35_n04099969_9745.png,n04099969_9745.png,1.0,4.7234406,2.1900713,1.7913626
alexnet,1,307,NaN,car,car,true,0307_fc_dnn_true_car_35_n03100240_49.png,n03100240_49.png,1.0,17.566853,11.9118595,3.998684
alexnet,1,308,NaN,bird,bird,true,0308_fc_dnn_true_bird_35_n01817953_5953.png,n01817953_5953.png,1.0,8.384326,5.030614,2.3714325
alexnet,1,309,NaN,bear,bear,false,0309_fc_dnn_false_bear_35_n02134418_5253.png,n02134418_5253.png,1.0,13.334622,6.2714725,4.9944015
alexnet,1,310,NaN,bicycle,bicycle,false,0310_fc_dnn_false_bicycle_35_n03792782_7576.png,n03792782_7576.png,1.0,11.544032,2.2087882,6.6010146
alexnet,1,311,NaN,bottle,keyboard,true,0311_fc_dnn_true_keyboard_35_n03085013_5157.png,n03085013_5157.png,0.0,5.881179,6.660647,-0.55116713
alexnet,1,312,NaN,clock,boat,true,0312_fc_dnn_true_boat_35_n03344393_7050.png,n03344393_7050.png,0.0,5.5376472,5.902639,-0.25808808
alexnet,1,313,NaN,bicycle,bicycle,false,0313_fc_dnn_false_bicycle_35_n03792782_51335.png,n03792782_51335.png,1.0,9.790953,2.1855092,5.3778605
alexnet,1,314,NaN,cat,cat,true,0314_fc_dnn_true_cat_35_n02124075_7230.png,n02124075_7230.png,1.0,9.812659,3.5781245,4.408482
alexnet,1,315,NaN,airplane,truck,true,0315_fc_dnn_true_truck_35_n04467665_68020.png,n04467665_68020.png,0.0,8.39998,12.457455,-2.8690681
alexnet,1,316,NaN,elephant,elephant,true,0316_fc_dnn_true_elephant_35_n02504458_2970.png,n02504458_2970.png,1.0,8.020107,2.3570886,4.004359
alexnet,1,317,NaN,bicycle,bicycle,false,0317_fc_dnn_false_bicycle_35_n02835271_2714.png,n02835271_2714.png,1.0,11.868921,3.2363744,6.104133
alexnet,1,318,NaN,elephant,elephant,true,0318_fc_dnn_true_elephant_35_n02504013_3307.png,n02504013_3307.png,1.0,19.666492,9.1478815,7.4377813
alexnet,1,319,NaN,truck,truck,true,0319_fc_dnn_true_truck_35_n03796401_3940.png,n03796401_3940.png,1.0,11.785049,6.822164,3.50929
alexnet,1,320,NaN,truck,chair,false,0320_fc_dnn_false_chair_35_n04429376_5362.png,n04429376_5362.png,0.0,2.9094777,4.5205226,-1.1391808
alexnet,1,321,NaN,cat,cat,false,0321_fc_dnn_false_cat_35_n02123159_1165.png,n02123159_1165.png,1.0,4.4804964,2.3989289,1.4718906
alexnet,1,322,NaN,boat,boat,true,0322_fc_dnn_true_boat_35_n03662601_4665.png,n03662601_4665.png,1.0,10.799399,10.4647255,0.23665017
alexnet,1,323,NaN,cat,cat,true,0323_fc_dnn_true_cat_35_n02124075_5067.png,n02124075_5067.png,1.0,8.397676,4.059818,3.0673294
alexnet,1,324,NaN,knife,knife,true,0324_fc_dnn_true_knife_35_n03041632_22480.png,n03041632_22480.png,1.0,6.134424,3.9075909,1.574609
alexnet,1,325,NaN,bicycle,bottle,false,0325_fc_dnn_false_bottle_35_n04560804_2539.png,n04560804_2539.png,0.0,5.0070796,7.5694313,-1.8118563
alexnet,1,326,NaN,oven,oven,true,0326_fc_dnn_true_oven_35_n04111531_8681.png,n04111531_8681.png,1.0,9.736058,4.5625415,3.6582289
alexnet,1,327,NaN,car,car,false,0327_fc_dnn_false_car_35_n03100240_23804.png,n03100240_23804.png,1.0,18.614704,10.292269,5.8848505
alexnet,1,328,NaN,oven,oven,true,0328_fc_dnn_true_oven_35_n04111531_547.png,n04111531_547.png,1.0,15.315592,3.6960032,8.21629
alexnet,1,329,NaN,boat,boat,false,0329_fc_dnn_false_boat_35_n04273569_9873.png,n04273569_9873.png,1.0,10.652105,6.713791,2.7848089
alexnet,1,330,NaN,cat,cat,false,0330_fc_dnn_false_cat_35_n02123597_13140.png,n02123597_13140.png,1.0,6.359276,3.7465596,1.8474693
alexnet,1,331,NaN,bear,bear,true,0331_fc_dnn_true_bear_35_n02134418_1330.png,n02134418_1330.png,1.0,11.415487,4.3451257,4.9995008
alexnet,1,332,NaN,clock,chair,false,0332_fc_dnn_false_chair_35_n04429376_6272.png,n04429376_6272.png,0.0,4.2730885,5.6565433,-0.97825027
alexnet,1,333,NaN,bear,bear,false,0333_fc_dnn_false_bear_35_n02134084_22997.png,n02134084_22997.png,1.0,4.295474,2.8454123,1.0253485
alexnet,1,334,NaN,clock,clock,false,0334_fc_dnn_false_clock_35_n03196217_3508.png,n03196217_3508.png,1.0,6.936705,6.1225853,0.57566965
alexnet,1,335,NaN,chair,chair,true,0335_fc_dnn_true_chair_35_n02791124_958.png,n02791124_958.png,1.0,5.6917605,4.261198,1.0115604
alexnet,1,336,NaN,boat,boat,false,0336_fc_dnn_false_boat_35_n03344393_4012.png,n03344393_4012.png,1.0,7.8840294,6.3086557,1.1139574
alexnet,1,337,NaN,airplane,airplane,true,0337_fc_dnn_true_airplane_35_n02690373_4921.png,n02690373_4921.png,1.0,18.324934,5.4291363,9.118706
alexnet,1,338,NaN,bear,cat,false,0338_fc_dnn_false_cat_35_n02125311_28052.png,n02125311_28052.png,0.0,4.303081,7.3542147,-2.1574774
alexnet,1,339,NaN,airplane,airplane,false,0339_fc_dnn_false_airplane_35_n02690373_1837.png,n02690373_1837.png,1.0,8.803665,3.7345595,3.584399
alexnet,1,340,NaN,elephant,elephant,false,0340_fc_dnn_false_elephant_35_n02504458_5191.png,n02504458_5191.png,1.0,10.716513,3.5033698,5.1004624
alexnet,1,341,NaN,bird,bird,false,0341_fc_dnn_false_bird_35_n01855672_2187.png,n01855672_2187.png,1.0,6.2436523,4.303023,1.3722323
alexnet,1,342,NaN,clock,clock,true,0342_fc_dnn_true_clock_35_n04548280_7794.png,n04548280_7794.png,1.0,9.98827,2.611159,5.216405
alexnet,1,343,NaN,clock,clock,false,0343_fc_dnn_false_clock_35_n03196217_8489.png,n03196217_8489.png,1.0,4.254173,4.028597,0.15950626
alexnet,1,344,NaN,bottle,knife,false,0344_fc_dnn_false_knife_35_n03041632_21590.png,n03041632_21590.png,0.0,1.5191493,3.8507807,-1.6487124
alexnet,1,345,NaN,elephant,elephant,false,0345_fc_dnn_false_elephant_35_n02504458_1249.png,n02504458_1249.png,1.0,17.258595,1.9499178,10.824869
alexnet,1,346,NaN,bottle,keyboard,false,0346_fc_dnn_false_keyboard_35_n04505470_4549.png,n04505470_4549.png,0.0,4.852289,5.1058755,-0.17931259
alexnet,1,347,NaN,elephant,elephant,false,0347_fc_dnn_false_elephant_35_n02504013_3771.png,n02504013_3771.png,1.0,9.282455,4.852505,3.132448
alexnet,1,348,NaN,bicycle,bicycle,true,0348_fc_dnn_true_bicycle_35_n02835271_19552.png,n02835271_19552.png,1.0,16.570942,5.7444825,7.655463
alexnet,1,349,NaN,bear,bear,true,0349_fc_dnn_true_bear_35_n02134084_4477.png,n02134084_4477.png,1.0,8.48552,5.7680244,1.9215598
alexnet,1,350,NaN,elephant,elephant,false,0350_fc_dnn_false_elephant_35_n02504013_10149.png,n02504013_10149.png,1.0,19.692074,4.9280043,10.439774
alexnet,1,351,NaN,boat,boat,true,0351_fc_dnn_true_boat_35_n04273569_709.png,n04273569_709.png,1.0,14.150187,9.844618,3.0444968
alexnet,1,352,NaN,car,car,false,0352_fc_dnn_false_car_35_n03100240_7120.png,n03100240_7120.png,1.0,19.314875,11.225418,5.7201095
alexnet,1,353,NaN,car,boat,false,0353_fc_dnn_false_boat_35_n02951358_12867.png,n02951358_12867.png,0.0,3.9629204,8.003723,-2.8572793
alexnet,1,354,NaN,bird,bird,true,0354_fc_dnn_true_bird_35_n01558993_38999.png,n01558993_38999.png,1.0,11.41235,3.254893,5.768193
alexnet,1,355,NaN,bicycle,bicycle,false,0355_fc_dnn_false_bicycle_35_n03792782_4210.png,n03792782_4210.png,1.0,7.958579,5.6321106,1.6450616
alexnet,1,356,NaN,dog,dog,false,0356_fc_dnn_false_dog_35_n02102318_11997.png,n02102318_11997.png,1.0,6.0435824,4.863158,0.834686
alexnet,1,357,NaN,knife,clock,false,0357_fc_dnn_false_clock_35_n02708093_6813.png,n02708093_6813.png,0.0,0.44941866,3.85317,-2.4068158
alexnet,1,358,NaN,bottle,oven,false,0358_fc_dnn_false_oven_35_n04111531_8036.png,n04111531_8036.png,0.0,-0.67024374,3.3452594,-2.8393893
alexnet,1,359,NaN,clock,clock,false,0359_fc_dnn_false_clock_35_n02708093_3454.png,n02708093_3454.png,1.0,15.360164,5.4252853,7.02502
alexnet,1,360,NaN,keyboard,keyboard,true,0360_fc_dnn_true_keyboard_35_n03085013_21641.png,n03085013_21641.png,1.0,15.395484,6.180495,6.515981
alexnet,1,361,NaN,chair,chair,false,0361_fc_dnn_false_chair_35_n02791124_139.png,n02791124_139.png,1.0,6.502005,3.4204462,2.1789913
alexnet,1,362,NaN,bear,bear,false,0362_fc_dnn_false_bear_35_n02134084_6821.png,n02134084_6821.png,1.0,5.1376934,5.106784,0.021856345
alexnet,1,363,NaN,cat,cat,false,0363_fc_dnn_false_cat_35_n02124075_5874.png,n02124075_5874.png,1.0,12.50951,2.7239025,6.9194694
alexnet,1,364,NaN,chair,chair,false,0364_fc_dnn_false_chair_35_n04099969_8604.png,n04099969_8604.png,1.0,7.9414806,5.3718996,1.8169682
alexnet,1,365,NaN,bicycle,bicycle,true,0365_fc_dnn_true_bicycle_35_n02835271_15524.png,n02835271_15524.png,1.0,16.32383,8.10337,5.812743
alexnet,1,366,NaN,chair,chair,false,0366_fc_dnn_false_chair_35_n04429376_55163.png,n04429376_55163.png,1.0,6.5030684,4.9786344,1.0779377
alexnet,1,367,NaN,dog,dog,true,0367_fc_dnn_true_dog_35_n02106662_10632.png,n02106662_10632.png,1.0,9.468352,2.9764585,4.590462
alexnet,1,368,NaN,car,car,false,0368_fc_dnn_false_car_35_n03100240_9675.png,n03100240_9675.png,1.0,17.17263,9.92083,5.1277976
alexnet,1,369,NaN,bird,bird,true,0369_fc_dnn_true_bird_35_n02011460_22291.png,n02011460_22291.png,1.0,8.432671,3.1197019,3.7568362
alexnet,1,370,NaN,cat,dog,false,0370_fc_dnn_false_dog_35_n02106662_56099.png,n02106662_56099.png,0.0,2.1778092,4.4383655,-1.5984547
alexnet,1,371,NaN,keyboard,keyboard,false,0371_fc_dnn_false_keyboard_35_n04505470_3970.png,n04505470_3970.png,1.0,11.963865,6.2732086,4.023902
alexnet,1,372,NaN,boat,boat,false,0372_fc_dnn_false_boat_35_n03662601_32803.png,n03662601_32803.png,1.0,10.769243,4.885045,4.1607566
alexnet,1,373,NaN,bottle,bottle,false,0373_fc_dnn_false_bottle_35_n02823428_4043.png,n02823428_4043.png,1.0,16.938208,3.876948,9.235705
alexnet,1,374,NaN,airplane,airplane,true,0374_fc_dnn_true_airplane_35_n02690373_5221.png,n02690373_5221.png,1.0,22.852264,8.506058,10.1443
alexnet,1,375,NaN,bottle,knife,false,0375_fc_dnn_false_knife_35_n03041632_90125.png,n03041632_90125.png,0.0,0.2832967,5.3862944,-3.6083643
alexnet,1,376,NaN,oven,oven,false,0376_fc_dnn_false_oven_35_n04111531_11230.png,n04111531_11230.png,1.0,9.479847,7.635504,1.3041476
alexnet,1,377,NaN,keyboard,keyboard,true,0377_fc_dnn_true_keyboard_35_n04505470_3002.png,n04505470_3002.png,1.0,9.5399685,4.2901483,3.7121835
alexnet,1,378,NaN,bicycle,bicycle,true,0378_fc_dnn_true_bicycle_35_n02835271_12237.png,n02835271_12237.png,1.0,15.237536,2.3984516,9.078604
alexnet,1,379,NaN,keyboard,dog,false,0379_fc_dnn_false_dog_35_n02088238_9947.png,n02088238_9947.png,0.0,0.54635495,3.054985,-1.7738694
alexnet,1,380,NaN,airplane,airplane,false,0380_fc_dnn_false_airplane_35_n02690373_2075.png,n02690373_2075.png,1.0,6.692537,4.8417444,1.3087078
alexnet,1,381,NaN,bicycle,bicycle,false,0381_fc_dnn_false_bicycle_35_n02835271_12930.png,n02835271_12930.png,1.0,12.795549,2.7939644,7.072189
alexnet,1,382,NaN,elephant,dog,false,0382_fc_dnn_false_dog_35_n02096294_4609.png,n02096294_4609.png,0.0,2.7093763,4.30829,-1.1306027
alexnet,1,383,NaN,knife,knife,false,0383_fc_dnn_false_knife_35_n03041632_15754.png,n03041632_15754.png,1.0,8.492429,4.7071724,2.6765804
alexnet,1,384,NaN,bird,bird,true,0384_fc_dnn_true_bird_35_n01819313_5634.png,n01819313_5634.png,1.0,3.6455247,3.5112662,0.094935104
alexnet,1,385,NaN,clock,clock,true,0385_fc_dnn_true_clock_35_n02708093_8386.png,n02708093_8386.png,1.0,11.45942,5.0643945,4.521966
alexnet,1,386,NaN,bottle,bottle,false,0386_fc_dnn_false_bottle_35_n04579145_6435.png,n04579145_6435.png,1.0,9.85278,4.5221624,3.7693162
alexnet,1,387,NaN,airplane,airplane,true,0387_fc_dnn_true_airplane_35_n02690373_9531.png,n02690373_9531.png,1.0,19.2551,10.39621,6.2641816
alexnet,1,388,NaN,bottle,bottle,true,0388_fc_dnn_true_bottle_35_n04591713_5518.png,n04591713_5518.png,1.0,4.435423,3.488691,0.6694405
alexnet,1,389,NaN,airplane,airplane,false,0389_fc_dnn_false_airplane_35_n02690373_12896.png,n02690373_12896.png,1.0,21.404318,5.615973,11.164046
alexnet,1,390,NaN,truck,truck,false,0390_fc_dnn_false_truck_35_n03796401_124.png,n03796401_124.png,1.0,6.7557955,6.081987,0.47645462
alexnet,1,391,NaN,bicycle,bicycle,true,0391_fc_dnn_true_bicycle_35_n03792782_7050.png,n03792782_7050.png,1.0,6.3186536,2.7410347,2.5297587
alexnet,1,392,NaN,bicycle,bicycle,true,0392_fc_dnn_true_bicycle_35_n02835271_13729.png,n02835271_13729.png,1.0,14.615932,4.420566,7.2092123
alexnet,1,393,NaN,bird,bird,false,0393_fc_dnn_false_bird_35_n02027492_3922.png,n02027492_3922.png,1.0,6.0298285,2.0685523,2.8010454
alexnet,1,394,NaN,elephant,elephant,true,0394_fc_dnn_true_elephant_35_n02504013_9809.png,n02504013_9809.png,1.0,9.762058,3.8020475,4.214364
alexnet,1,395,NaN,keyboard,keyboard,false,0395_fc_dnn_false_keyboard_35_n04505470_5086.png,n04505470_5086.png,1.0,9.126437,2.9242375,4.3856177
alexnet,1,396,NaN,keyboard,keyboard,true,0396_fc_dnn_true_keyboard_35_n03085013_19439.png,n03085013_19439.png,1.0,13.656038,9.394477,3.013379
alexnet,1,397,NaN,airplane,airplane,false,0397_fc_dnn_false_airplane_35_n02690373_9926.png,n02690373_9926.png,1.0,11.9829,3.7395265,5.828945
alexnet,1,398,NaN,elephant,elephant,true,0398_fc_dnn_true_elephant_35_n02504458_3197.png,n02504458_3197.png,1.0,34.68198,13.109793,15.25384
alexnet,1,399,NaN,dog,dog,false,0399_fc_dnn_false_dog_35_n02110185_14056.png,n02110185_14056.png,1.0,6.511582,5.9619484,0.38864958
alexnet,1,400,NaN,airplane,airplane,true,0400_fc_dnn_true_airplane_35_n02690373_2823.png,n02690373_2823.png,1.0,29.298264,11.313317,12.7172785
alexnet,1,401,NaN,bicycle,bicycle,false,0401_fc_dnn_false_bicycle_35_n02835271_14157.png,n02835271_14157.png,1.0,14.682649,6.153839,6.0307794
alexnet,1,402,NaN,chair,chair,true,0402_fc_dnn_true_chair_35_n03376595_606.png,n03376595_606.png,1.0,10.762647,3.0202866,5.4746757
alexnet,1,403,NaN,airplane,airplane,false,0403_fc_dnn_false_airplane_35_n02690373_1442.png,n02690373_1442.png,1.0,19.80436,4.77606,10.626613
alexnet,1,404,NaN,keyboard,keyboard,true,0404_fc_dnn_true_keyboard_35_n04505470_10035.png,n04505470_10035.png,1.0,16.987518,8.258333,6.1724663
alexnet,1,405,NaN,elephant,bear,true,0405_fc_dnn_true_bear_35_n02133161_13278.png,n02133161_13278.png,0.0,12.505255,13.041471,-0.37916183
alexnet,1,406,NaN,elephant,bear,true,0406_fc_dnn_true_bear_35_n02134418_2657.png,n02134418_2657.png,0.0,5.317034,5.4012985,-0.05958418
alexnet,1,407,NaN,bear,bear,false,0407_fc_dnn_false_bear_35_n02133161_12894.png,n02133161_12894.png,1.0,9.44339,4.569069,3.4466655
alexnet,1,408,NaN,car,clock,false,0408_fc_dnn_false_clock_35_n03196217_6195.png,n03196217_6195.png,0.0,5.422684,6.6027884,-0.8344597
alexnet,1,409,NaN,bottle,bottle,true,0409_fc_dnn_true_bottle_35_n04591713_13349.png,n04591713_13349.png,1.0,14.311653,10.237011,2.8812072
alexnet,1,410,NaN,airplane,boat,false,0410_fc_dnn_false_boat_35_n04273569_16295.png,n04273569_16295.png,0.0,7.4048758,8.127388,-0.51089334
alexnet,1,411,NaN,elephant,elephant,false,0411_fc_dnn_false_elephant_35_n02504013_2672.png,n02504013_2672.png,1.0,19.843699,7.521482,8.713122
alexnet,1,412,NaN,bear,bear,true,0412_fc_dnn_true_bear_35_n02134084_22292.png,n02134084_22292.png,1.0,9.5707,3.4432068,4.332792
alexnet,1,413,NaN,airplane,airplane,false,0413_fc_dnn_false_airplane_35_n02690373_997.png,n02690373_997.png,1.0,10.440741,4.3836193,4.2830315
alexnet,1,414,NaN,knife,knife,true,0414_fc_dnn_true_knife_35_n03041632_29337.png,n03041632_29337.png,1.0,7.808364,2.0764763,4.0530567
alexnet,1,415,NaN,elephant,elephant,true,0415_fc_dnn_true_elephant_35_n02504458_3261.png,n02504458_3261.png,1.0,15.717276,5.6254783,7.135978
alexnet,1,416,NaN,oven,oven,true,0416_fc_dnn_true_oven_35_n04111531_22120.png,n04111531_22120.png,1.0,16.527405,8.402387,5.7452555
alexnet,1,417,NaN,bear,bear,true,0417_fc_dnn_true_bear_35_n02134418_830.png,n02134418_830.png,1.0,8.972727,3.682272,3.7409165
alexnet,1,418,NaN,truck,truck,false,0418_fc_dnn_false_truck_35_n03417042_2124.png,n03417042_2124.png,1.0,11.140897,7.0718093,2.8772795
alexnet,1,419,NaN,bicycle,bicycle,false,0419_fc_dnn_false_bicycle_35_n02835271_14585.png,n02835271_14585.png,1.0,15.600955,5.1974716,7.356374
alexnet,1,420,NaN,oven,oven,true,0420_fc_dnn_true_oven_35_n04111531_2855.png,n04111531_2855.png,1.0,10.740567,4.976942,4.0754986
alexnet,1,421,NaN,cat,cat,false,0421_fc_dnn_false_cat_35_n02123394_4383.png,n02123394_4383.png,1.0,8.982907,4.6641674,3.0538104
alexnet,1,422,NaN,bear,cat,true,0422_fc_dnn_true_cat_35_n02125311_17068.png,n02125311_17068.png,0.0,5.8528843,6.023019,-0.120303296
alexnet,1,423,NaN,bird,bird,false,0423_fc_dnn_false_bird_35_n01560419_2291.png,n01560419_2291.png,1.0,11.534051,3.7616935,5.495887
alexnet,1,424,NaN,dog,bird,false,0424_fc_dnn_false_bird_35_n01829413_2459.png,n01829413_2459.png,0.0,2.7885654,4.4762917,-1.1934026
alexnet,1,425,NaN,oven,oven,true,0425_fc_dnn_true_oven_35_n04111531_13822.png,n04111531_13822.png,1.0,19.547586,1.8560183,12.509829
alexnet,1,426,NaN,bear,bear,false,0426_fc_dnn_false_bear_35_n02133161_5067.png,n02133161_5067.png,1.0,6.695895,5.779078,0.64828765
alexnet,1,427,NaN,chair,chair,false,0427_fc_dnn_false_chair_35_n02791124_885.png,n02791124_885.png,1.0,4.708574,4.174472,0.37766713
alexnet,1,428,NaN,dog,dog,true,0428_fc_dnn_true_dog_35_n02107312_7182.png,n02107312_7182.png,1.0,4.5424285,2.149495,1.6920596
alexnet,1,429,NaN,truck,truck,true,0429_fc_dnn_true_truck_35_n04467665_13989.png,n04467665_13989.png,1.0,9.516646,5.219161,3.0387812
alexnet,1,430,NaN,dog,dog,true,0430_fc_dnn_true_dog_35_n02102480_10232.png,n02102480_10232.png,1.0,10.69889,4.230761,4.5736575
alexnet,1,431,NaN,oven,oven,false,0431_fc_dnn_false_oven_35_n04111531_643.png,n04111531_643.png,1.0,9.275108,4.8874474,3.1025448
alexnet,1,432,NaN,boat,boat,true,0432_fc_dnn_true_boat_35_n02951358_31514.png,n02951358_31514.png,1.0,13.273977,8.22246,3.5719624
alexnet,1,433,NaN,oven,oven,true,0433_fc_dnn_true_oven_35_n04111531_1898.png,n04111531_1898.png,1.0,16.430923,6.198518,7.2354035
alexnet,1,434,NaN,car,car,true,0434_fc_dnn_true_car_35_n03100240_5865.png,n03100240_5865.png,1.0,15.413132,10.161297,3.713608
alexnet,1,435,NaN,keyboard,keyboard,true,0435_fc_dnn_true_keyboard_35_n04505470_4369.png,n04505470_4369.png,1.0,20.248665,11.358976,6.2859592
alexnet,1,436,NaN,bottle,cat,false,0436_fc_dnn_false_cat_35_n02123394_1942.png,n02123394_1942.png,0.0,3.1004212,4.2392893,-0.80530137
alexnet,1,437,NaN,car,car,true,0437_fc_dnn_true_car_35_n04285008_2900.png,n04285008_2900.png,1.0,16.129358,9.207994,4.8941436
alexnet,1,438,NaN,airplane,airplane,true,0438_fc_dnn_true_airplane_35_n02690373_10926.png,n02690373_10926.png,1.0,22.43803,6.918132,10.974226
alexnet,1,439,NaN,knife,knife,true,0439_fc_dnn_true_knife_35_n03041632_11613.png,n03041632_11613.png,1.0,7.188115,3.352597,2.712121
alexnet,1,440,NaN,knife,knife,true,0440_fc_dnn_true_knife_35_n03041632_24817.png,n03041632_24817.png,1.0,7.795047,3.7188048,2.8823383
alexnet,1,441,NaN,bicycle,bicycle,true,0441_fc_dnn_true_bicycle_35_n02835271_3042.png,n02835271_3042.png,1.0,20.230967,3.10192,12.112065
alexnet,1,442,NaN,dog,dog,true,0442_fc_dnn_true_dog_35_n02102177_7737.png,n02102177_7737.png,1.0,8.841228,3.5451508,3.744892
alexnet,1,443,NaN,oven,oven,true,0443_fc_dnn_true_oven_35_n04111531_21460.png,n04111531_21460.png,1.0,14.010247,4.5506654,6.6889343
alexnet,1,444,NaN,keyboard,keyboard,false,0444_fc_dnn_false_keyboard_35_n04505470_7388.png,n04505470_7388.png,1.0,8.3181505,5.036564,2.3204322
alexnet,1,445,NaN,bird,bird,true,0445_fc_dnn_true_bird_35_n01828970_25642.png,n01828970_25642.png,1.0,12.392738,1.267118,7.8670015
alexnet,1,446,NaN,bicycle,bicycle,false,0446_fc_dnn_false_bicycle_35_n02835271_608.png,n02835271_608.png,1.0,9.203974,4.0380554,3.6528559
alexnet,1,447,NaN,boat,boat,true,0447_fc_dnn_true_boat_35_n04273569_26182.png,n04273569_26182.png,1.0,15.220442,12.875648,1.6580199
alexnet,1,448,NaN,cat,cat,false,0448_fc_dnn_false_cat_35_n02123045_9384.png,n02123045_9384.png,1.0,7.7707005,1.4770653,4.4502726
alexnet,1,449,NaN,airplane,airplane,true,0449_fc_dnn_true_airplane_35_n02690373_9529.png,n02690373_9529.png,1.0,25.73134,8.020306,12.523593
alexnet,1,450,NaN,keyboard,cat,true,0450_fc_dnn_true_cat_35_n02123597_5081.png,n02123597_5081.png,0.0,3.2821534,5.4279413,-1.5173012
alexnet,1,451,NaN,airplane,oven,false,0451_fc_dnn_false_oven_35_n04111531_4998.png,n04111531_4998.png,0.0,2.7952223,3.1916056,-0.28028533
alexnet,1,452,NaN,clock,clock,true,0452_fc_dnn_true_clock_35_n04548280_1245.png,n04548280_1245.png,1.0,20.396378,4.2971706,11.383859
alexnet,1,453,NaN,cat,dog,true,0453_fc_dnn_true_dog_35_n02104365_8609.png,n02104365_8609.png,0.0,2.922155,3.1286144,-0.14598893
alexnet,1,454,NaN,clock,clock,false,0454_fc_dnn_false_clock_35_n02708093_6414.png,n02708093_6414.png,1.0,8.219866,2.3542547,4.1476135
alexnet,1,455,NaN,elephant,bird,true,0455_fc_dnn_true_bird_35_n01798484_9155.png,n01798484_9155.png,0.0,3.4527526,4.457749,-0.7106397
alexnet,1,456,NaN,oven,oven,true,0456_fc_dnn_true_oven_35_n04111531_10724.png,n04111531_10724.png,1.0,7.152774,3.541646,2.553453
alexnet,1,457,NaN,boat,boat,true,0457_fc_dnn_true_boat_35_n02951358_32687.png,n02951358_32687.png,1.0,14.561699,5.978776,6.069043
alexnet,1,458,NaN,bicycle,bicycle,true,0458_fc_dnn_true_bicycle_35_n02835271_31.png,n02835271_31.png,1.0,9.988691,2.899737,5.0126476
alexnet,1,459,NaN,bottle,bottle,true,0459_fc_dnn_true_bottle_35_n04557648_4420.png,n04557648_4420.png,1.0,4.097134,3.8568854,0.16988148
alexnet,1,460,NaN,bear,bear,true,0460_fc_dnn_true_bear_35_n02133161_713.png,n02133161_713.png,1.0,11.16335,5.962968,3.6772256
alexnet,1,461,NaN,airplane,airplane,false,0461_fc_dnn_false_airplane_35_n02690373_5967.png,n02690373_5967.png,1.0,15.837579,3.4498086,8.759476
alexnet,1,462,NaN,bird,bird,true,0462_fc_dnn_true_bird_35_n01795545_4502.png,n01795545_4502.png,1.0,6.1778092,3.7485323,1.7177582
alexnet,1,463,NaN,cat,cat,true,0463_fc_dnn_true_cat_35_n02124075_11466.png,n02124075_11466.png,1.0,9.590043,4.3179493,3.7279334
alexnet,1,464,NaN,clock,keyboard,true,0464_fc_dnn_true_keyboard_35_n03085013_21769.png,n03085013_21769.png,0.0,3.6462207,4.2456236,-0.42384186
alexnet,1,465,NaN,car,car,false,0465_fc_dnn_false_car_35_n03100240_15097.png,n03100240_15097.png,1.0,6.9594884,3.1581497,2.6879523
alexnet,1,466,NaN,cat,dog,false,0466_fc_dnn_false_dog_35_n02093647_3072.png,n02093647_3072.png,0.0,1.677146,2.3765242,-0.49453512
alexnet,1,467,NaN,bicycle,bicycle,false,0467_fc_dnn_false_bicycle_35_n02835271_12701.png,n02835271_12701.png,1.0,10.307272,3.383636,4.89575
alexnet,1,468,NaN,dog,bear,false,0468_fc_dnn_false_bear_35_n02134084_3227.png,n02134084_3227.png,0.0,3.732664,3.9677274,-0.16621487
alexnet,1,469,NaN,cat,cat,true,0469_fc_dnn_true_cat_35_n02123394_5001.png,n02123394_5001.png,1.0,5.729029,2.0832498,2.5779552
alexnet,1,470,NaN,keyboard,keyboard,true,0470_fc_dnn_true_keyboard_35_n03085013_6862.png,n03085013_6862.png,1.0,12.945658,4.841629,5.730414
alexnet,1,471,NaN,chair,chair,true,0471_fc_dnn_true_chair_35_n04099969_45461.png,n04099969_45461.png,1.0,10.778706,4.295554,4.5842805
alexnet,1,472,NaN,bicycle,bicycle,false,0472_fc_dnn_false_bicycle_35_n03792782_485.png,n03792782_485.png,1.0,13.243969,4.212574,6.386161
alexnet,1,473,NaN,oven,oven,true,0473_fc_dnn_true_oven_35_n04111531_1674.png,n04111531_1674.png,1.0,6.1073017,4.8176975,0.9118879
alexnet,1,474,NaN,airplane,airplane,true,0474_fc_dnn_true_airplane_35_n02690373_866.png,n02690373_866.png,1.0,22.600845,6.54046,11.356407
alexnet,1,475,NaN,bottle,oven,false,0475_fc_dnn_false_oven_35_n04111531_9297.png,n04111531_9297.png,0.0,-1.449764,1.8942375,-2.364566
alexnet,1,476,NaN,elephant,elephant,false,0476_fc_dnn_false_elephant_35_n02504458_6878.png,n02504458_6878.png,1.0,6.2544246,2.5570016,2.6144729
alexnet,1,477,NaN,car,car,true,0477_fc_dnn_true_car_35_n03100240_3151.png,n03100240_3151.png,1.0,11.175054,8.657021,1.7805183
alexnet,1,478,NaN,airplane,airplane,false,0478_fc_dnn_false_airplane_35_n02690373_6363.png,n02690373_6363.png,1.0,11.585906,6.0144734,3.9395978
alexnet,1,479,NaN,car,car,true,0479_fc_dnn_true_car_35_n04285008_15049.png,n04285008_15049.png,1.0,11.114001,7.4974666,2.5572762
alexnet,1,480,NaN,truck,truck,true,0480_fc_dnn_true_truck_35_n04467665_2505.png,n04467665_2505.png,1.0,6.833835,5.296918,1.0867646
alexnet,1,481,NaN,oven,bottle,true,0481_fc_dnn_true_bottle_35_n04591713_4030.png,n04591713_4030.png,0.0,3.4472725,6.93519,-2.4663303
alexnet,1,482,NaN,oven,oven,true,0482_fc_dnn_true_oven_35_n04111531_12929.png,n04111531_12929.png,1.0,6.556953,4.3999605,1.525224
alexnet,1,483,NaN,cat,cat,true,0483_fc_dnn_true_cat_35_n02125311_53315.png,n02125311_53315.png,1.0,6.395357,3.80222,1.8336248
alexnet,1,484,NaN,knife,dog,true,0484_fc_dnn_true_dog_35_n02087046_4409.png,n02087046_4409.png,0.0,4.643905,4.96887,-0.22978497
alexnet,1,485,NaN,cat,oven,false,0485_fc_dnn_false_oven_35_n04111531_21120.png,n04111531_21120.png,0.0,1.8563317,4.3686676,-1.7764897
alexnet,1,486,NaN,car,elephant,false,0486_fc_dnn_false_elephant_35_n02504013_5934.png,n02504013_5934.png,0.0,1.9303302,5.455015,-2.4923286
alexnet,1,487,NaN,car,car,true,0487_fc_dnn_true_car_35_n04285008_3631.png,n04285008_3631.png,1.0,13.671444,9.480589,2.963382
alexnet,1,488,NaN,clock,clock,true,0488_fc_dnn_true_clock_35_n03196217_7663.png,n03196217_7663.png,1.0,10.500768,7.5858207,2.061179
alexnet,1,489,NaN,bicycle,bicycle,false,0489_fc_dnn_false_bicycle_35_n03792782_801.png,n03792782_801.png,1.0,6.0835958,3.6998858,1.6855375
alexnet,1,490,NaN,cat,bear,false,0490_fc_dnn_false_bear_35_n02133161_6983.png,n02133161_6983.png,0.0,4.108736,6.382816,-1.6080173
alexnet,1,491,NaN,keyboard,keyboard,true,0491_fc_dnn_true_keyboard_35_n03085013_20825.png,n03085013_20825.png,1.0,16.495544,5.3321953,7.89368
alexnet,1,492,NaN,clock,clock,true,0492_fc_dnn_true_clock_35_n03196217_1219.png,n03196217_1219.png,1.0,7.1858063,4.74376,1.7267874
alexnet,1,493,NaN,airplane,airplane,true,0493_fc_dnn_true_airplane_35_n02690373_18864.png,n02690373_18864.png,1.0,18.612469,9.739595,6.274069
alexnet,1,494,NaN,bird,airplane,false,0494_fc_dnn_false_airplane_35_n02690373_1019.png,n02690373_1019.png,0.0,3.6141253,3.7171152,-0.072824866
alexnet,1,495,NaN,bird,bird,true,0495_fc_dnn_true_bird_35_n02013706_10478.png,n02013706_10478.png,1.0,7.8576417,2.8810513,3.5189807
alexnet,1,496,NaN,elephant,bear,true,0496_fc_dnn_true_bear_35_n02132136_258.png,n02132136_258.png,0.0,7.0580883,8.111102,-0.7445932
alexnet,1,497,NaN,bottle,chair,false,0497_fc_dnn_false_chair_35_n04099969_16350.png,n04099969_16350.png,0.0,-1.4181312,1.7106769,-2.2124014
alexnet,1,498,NaN,chair,chair,true,0498_fc_dnn_true_chair_35_n04099969_16456.png,n04099969_16456.png,1.0,10.82032,1.899172,6.3082047
alexnet,1,499,NaN,bottle,bottle,false,0499_fc_dnn_false_bottle_35_n03983396_12027.png,n03983396_12027.png,1.0,5.860512,5.135149,0.51290894
alexnet,1,500,NaN,chair,chair,true,0500_fc_dnn_true_chair_35_n02791124_5438.png,n02791124_5438.png,1.0,20.994267,7.1534576,9.78693
alexnet,1,501,NaN,elephant,elephant,true,0501_fc_dnn_true_elephant_35_n02504458_4939.png,n02504458_4939.png,1.0,21.681366,6.717288,10.581202
alexnet,1,502,NaN,keyboard,keyboard,false,0502_fc_dnn_false_keyboard_35_n04505470_2600.png,n04505470_2600.png,1.0,15.019871,7.4160113,5.3767405
alexnet,1,503,NaN,oven,chair,true,0503_fc_dnn_true_chair_35_n03376595_7394.png,n03376595_7394.png,0.0,5.9797006,7.3077383,-0.9390645
alexnet,1,504,NaN,bicycle,bicycle,false,0504_fc_dnn_false_bicycle_35_n02835271_9772.png,n02835271_9772.png,1.0,9.356412,3.0331118,4.4712486
alexnet,1,505,NaN,car,car,true,0505_fc_dnn_true_car_35_n02814533_55937.png,n02814533_55937.png,1.0,13.806636,9.91041,2.7550478
alexnet,1,506,NaN,airplane,airplane,true,0506_fc_dnn_true_airplane_35_n02690373_3920.png,n02690373_3920.png,1.0,11.70198,6.7876396,3.4749632
alexnet,1,507,NaN,oven,oven,false,0507_fc_dnn_false_oven_35_n04111531_6400.png,n04111531_6400.png,1.0,4.063502,1.9578071,1.4889511
alexnet,1,508,NaN,bicycle,truck,false,0508_fc_dnn_false_truck_35_n03417042_4587.png,n03417042_4587.png,0.0,6.187434,10.1644745,-2.8121922
alexnet,1,509,NaN,knife,knife,true,0509_fc_dnn_true_knife_35_n03041632_31849.png,n03041632_31849.png,1.0,8.42033,2.832962,3.950866
alexnet,1,510,NaN,bear,cat,true,0510_fc_dnn_true_cat_35_n02125311_8541.png,n02125311_8541.png,0.0,3.6607294,5.483536,-1.2889187
alexnet,1,511,NaN,airplane,airplane,true,0511_fc_dnn_true_airplane_35_n02690373_2162.png,n02690373_2162.png,1.0,30.989382,10.939515,14.177396
alexnet,1,512,NaN,bear,dog,true,0512_fc_dnn_true_dog_35_n02108551_11297.png,n02108551_11297.png,0.0,7.456039,8.005365,-0.38843244
alexnet,1,513,NaN,car,car,true,0513_fc_dnn_true_car_35_n02814533_34396.png,n02814533_34396.png,1.0,18.601763,11.321755,5.1477427
alexnet,1,514,NaN,elephant,elephant,true,0514_fc_dnn_true_elephant_35_n02504013_6431.png,n02504013_6431.png,1.0,15.785849,3.3067584,8.824049
alexnet,1,515,NaN,bicycle,bicycle,false,0515_fc_dnn_false_bicycle_35_n03792782_51723.png,n03792782_51723.png,1.0,8.722601,3.6117644,3.613907
alexnet,1,516,NaN,dog,dog,false,0516_fc_dnn_false_dog_35_n02093754_5867.png,n02093754_5867.png,1.0,5.592824,5.086082,0.3583207
alexnet,1,517,NaN,clock,clock,true,0517_fc_dnn_true_clock_35_n04548280_3245.png,n04548280_3245.png,1.0,9.306252,5.001714,3.0437675
alexnet,1,518,NaN,airplane,airplane,true,0518_fc_dnn_true_airplane_35_n02690373_9762.png,n02690373_9762.png,1.0,24.425037,10.500584,9.846076
alexnet,1,519,NaN,airplane,bird,true,0519_fc_dnn_true_bird_35_n02002724_2909.png,n02002724_2909.png,0.0,10.825793,12.624749,-1.272054
alexnet,1,520,NaN,knife,bottle,true,0520_fc_dnn_true_bottle_35_n04557648_10123.png,n04557648_10123.png,0.0,1.4249268,2.6331933,-0.85437346
alexnet,1,521,NaN,elephant,elephant,true,0521_fc_dnn_true_elephant_35_n02504013_5432.png,n02504013_5432.png,1.0,14.420464,8.013539,4.53038
alexnet,1,522,NaN,cat,cat,false,0522_fc_dnn_false_cat_35_n02123597_4998.png,n02123597_4998.png,1.0,9.694277,3.2785153,4.5366287
alexnet,1,523,NaN,bottle,bottle,true,0523_fc_dnn_true_bottle_35_n04557648_11594.png,n04557648_11594.png,1.0,5.123355,2.950202,1.5366513
alexnet,1,524,NaN,keyboard,clock,false,0524_fc_dnn_false_clock_35_n03196217_2567.png,n03196217_2567.png,0.0,6.3619804,7.1835856,-0.5809626
alexnet,1,525,NaN,truck,truck,false,0525_fc_dnn_false_truck_35_n03796401_9136.png,n03796401_9136.png,1.0,4.39328,3.8963835,0.3513589
alexnet,1,526,NaN,boat,boat,false,0526_fc_dnn_false_boat_35_n03344393_8492.png,n03344393_8492.png,1.0,12.082773,6.070166,4.2515554
alexnet,1,527,NaN,cat,cat,false,0527_fc_dnn_false_cat_35_n02123159_8267.png,n02123159_8267.png,1.0,7.1277394,1.7440293,3.8068578
alexnet,1,528,NaN,bottle,bottle,false,0528_fc_dnn_false_bottle_35_n04557648_12039.png,n04557648_12039.png,1.0,9.469649,3.4471016,4.2585845
alexnet,1,529,NaN,keyboard,keyboard,false,0529_fc_dnn_false_keyboard_35_n04505470_2828.png,n04505470_2828.png,1.0,18.497852,11.343667,5.058773
alexnet,1,530,NaN,boat,boat,true,0530_fc_dnn_true_boat_35_n02951358_31198.png,n02951358_31198.png,1.0,9.10672,4.5110736,3.2496128
alexnet,1,531,NaN,oven,oven,false,0531_fc_dnn_false_oven_35_n04111531_5801.png,n04111531_5801.png,1.0,2.882384,1.7170895,0.82398766
alexnet,1,532,NaN,bicycle,bicycle,false,0532_fc_dnn_false_bicycle_35_n02835271_9672.png,n02835271_9672.png,1.0,12.0258045,3.4549656,6.060498
alexnet,1,533,NaN,keyboard,keyboard,false,0533_fc_dnn_false_keyboard_35_n03085013_23865.png,n03085013_23865.png,1.0,6.7263575,3.9838855,1.9392205
alexnet,1,534,NaN,keyboard,bottle,true,0534_fc_dnn_true_bottle_35_n04591713_7133.png,n04591713_7133.png,0.0,6.0090876,7.095729,-0.76837146
alexnet,1,535,NaN,car,car,true,0535_fc_dnn_true_car_35_n04285008_10006.png,n04285008_10006.png,1.0,16.889524,6.9446073,7.032119
alexnet,1,536,NaN,airplane,airplane,true,0536_fc_dnn_true_airplane_35_n02690373_2431.png,n02690373_2431.png,1.0,13.084768,5.0089326,5.710479
alexnet,1,537,NaN,boat,boat,true,0537_fc_dnn_true_boat_35_n04612504_15440.png,n04612504_15440.png,1.0,5.79926,4.2432027,1.1002988
alexnet,1,538,NaN,bicycle,bicycle,true,0538_fc_dnn_true_bicycle_35_n02835271_5648.png,n02835271_5648.png,1.0,13.956443,3.8878596,7.1195636
alexnet,1,539,NaN,airplane,airplane,false,0539_fc_dnn_false_airplane_35_n02690373_3173.png,n02690373_3173.png,1.0,13.335285,5.813675,5.3185816
alexnet,1,540,NaN,oven,oven,false,0540_fc_dnn_false_oven_35_n04111531_82.png,n04111531_82.png,1.0,6.100608,4.128195,1.3947067
alexnet,1,541,NaN,chair,chair,false,0541_fc_dnn_false_chair_35_n02791124_2057.png,n02791124_2057.png,1.0,4.0050964,2.752729,0.8855576
alexnet,1,542,NaN,elephant,elephant,true,0542_fc_dnn_true_elephant_35_n02504458_12175.png,n02504458_12175.png,1.0,11.932483,1.6371758,7.2798815
alexnet,1,543,NaN,clock,boat,false,0543_fc_dnn_false_boat_35_n03344393_6869.png,n03344393_6869.png,0.0,2.4715734,7.1533732,-3.3105326
alexnet,1,544,NaN,truck,truck,false,0544_fc_dnn_false_truck_35_n03417042_1000.png,n03417042_1000.png,1.0,6.672412,5.3402486,0.94198173
alexnet,1,545,NaN,airplane,boat,true,0545_fc_dnn_true_boat_35_n03344393_6890.png,n03344393_6890.png,0.0,9.2984295,11.867628,-1.8166978
alexnet,1,546,NaN,elephant,elephant,false,0546_fc_dnn_false_elephant_35_n02504458_4139.png,n02504458_4139.png,1.0,11.797739,2.087308,6.866312
alexnet,1,547,NaN,bear,bear,false,0547_fc_dnn_false_bear_35_n02132136_7231.png,n02132136_7231.png,1.0,15.449064,3.7754376,8.254501
alexnet,1,548,NaN,cat,bird,false,0548_fc_dnn_false_bird_35_n01860187_1815.png,n01860187_1815.png,0.0,1.8905156,3.6783268,-1.2641735
alexnet,1,549,NaN,keyboard,keyboard,true,0549_fc_dnn_true_keyboard_35_n03085013_18891.png,n03085013_18891.png,1.0,5.280913,3.2718632,1.4206127
alexnet,1,550,NaN,bird,bird,false,0550_fc_dnn_false_bird_35_n01828970_2276.png,n01828970_2276.png,1.0,4.960246,2.575639,1.6861719
alexnet,1,551,NaN,elephant,elephant,false,0551_fc_dnn_false_elephant_35_n02504013_1720.png,n02504013_1720.png,1.0,14.922988,8.564187,4.4963512
alexnet,1,552,NaN,knife,knife,false,0552_fc_dnn_false_knife_35_n03041632_16104.png,n03041632_16104.png,1.0,5.2063622,3.700332,1.0649242
alexnet,1,553,NaN,chair,chair,false,0553_fc_dnn_false_chair_35_n03376595_635.png,n03376595_635.png,1.0,6.830525,4.836204,1.4101979
alexnet,1,554,NaN,bottle,bottle,true,0554_fc_dnn_true_bottle_35_n03983396_6116.png,n03983396_6116.png,1.0,8.40239,4.8824368,2.4889824
alexnet,1,555,NaN,dog,dog,true,0555_fc_dnn_true_dog_35_n02113624_2530.png,n02113624_2530.png,1.0,6.644888,3.3664763,2.3181872
alexnet,1,556,NaN,bird,bird,true,0556_fc_dnn_true_bird_35_n01592084_3972.png,n01592084_3972.png,1.0,6.877014,1.8170666,3.5779233
alexnet,1,557,NaN,airplane,airplane,true,0557_fc_dnn_true_airplane_35_n02690373_5130.png,n02690373_5130.png,1.0,11.219876,7.8892593,2.3551018
alexnet,1,558,NaN,bird,bird,true,0558_fc_dnn_true_bird_35_n01833805_7514.png,n01833805_7514.png,1.0,5.617354,4.3700128,0.8820034
alexnet,1,559,NaN,truck,truck,false,0559_fc_dnn_false_truck_35_n03417042_16238.png,n03417042_16238.png,1.0,10.393134,7.730943,1.8824533
alexnet,1,560,NaN,keyboard,keyboard,true,0560_fc_dnn_true_keyboard_35_n04505470_8620.png,n04505470_8620.png,1.0,20.988922,13.148551,5.5439796
alexnet,1,561,NaN,clock,clock,true,0561_fc_dnn_true_clock_35_n03196217_7888.png,n03196217_7888.png,1.0,9.225268,7.3842363,1.3018062
alexnet,1,562,NaN,knife,bottle,true,0562_fc_dnn_true_bottle_35_n04591713_5411.png,n04591713_5411.png,0.0,1.3870363,2.7844453,-0.9881174
alexnet,1,563,NaN,clock,clock,false,0563_fc_dnn_false_clock_35_n03196217_2639.png,n03196217_2639.png,1.0,10.037731,7.242134,1.9767857
alexnet,1,564,NaN,elephant,elephant,true,0564_fc_dnn_true_elephant_35_n02504458_6437.png,n02504458_6437.png,1.0,6.782511,4.806754,1.3970712
alexnet,1,565,NaN,truck,truck,true,0565_fc_dnn_true_truck_35_n03417042_27586.png,n03417042_27586.png,1.0,11.51747,5.8851027,3.9826853
alexnet,1,566,NaN,clock,keyboard,false,0566_fc_dnn_false_keyboard_35_n03085013_24124.png,n03085013_24124.png,0.0,0.4992972,3.641823,-2.2221014
alexnet,1,567,NaN,car,cat,false,0567_fc_dnn_false_cat_35_n02123597_9663.png,n02123597_9663.png,0.0,2.159149,4.7356973,-1.8218949
alexnet,1,568,NaN,keyboard,keyboard,true,0568_fc_dnn_true_keyboard_35_n04505470_1833.png,n04505470_1833.png,1.0,13.79658,4.553015,6.536187
alexnet,1,569,NaN,car,car,true,0569_fc_dnn_true_car_35_n04285008_4109.png,n04285008_4109.png,1.0,13.791631,7.8231525,4.2203517
alexnet,1,570,NaN,bicycle,bird,false,0570_fc_dnn_false_bird_35_n01558993_869.png,n01558993_869.png,0.0,-0.2543528,3.4450183,-2.6158504
alexnet,1,571,NaN,truck,truck,true,0571_fc_dnn_true_truck_35_n03796401_6980.png,n03796401_6980.png,1.0,12.417511,7.781546,3.2781222
alexnet,1,572,NaN,truck,truck,true,0572_fc_dnn_true_truck_35_n03796401_19058.png,n03796401_19058.png,1.0,16.392262,6.462503,7.0213995
alexnet,1,573,NaN,bottle,bear,false,0573_fc_dnn_false_bear_35_n02134418_5033.png,n02134418_5033.png,0.0,1.2914917,1.9249622,-0.44793123
alexnet,1,574,NaN,truck,truck,false,0574_fc_dnn_false_truck_35_n03417042_6204.png,n03417042_6204.png,1.0,7.1968193,4.6765237,1.7821182
alexnet,1,575,NaN,bicycle,bicycle,true,0575_fc_dnn_true_bicycle_35_n03792782_7388.png,n03792782_7388.png,1.0,8.295763,3.840714,3.1501954
alexnet,1,576,NaN,truck,truck,true,0576_fc_dnn_true_truck_35_n03417042_1561.png,n03417042_1561.png,1.0,12.791634,7.656483,3.6310997
alexnet,1,577,NaN,elephant,elephant,true,0577_fc_dnn_true_elephant_35_n02504458_5501.png,n02504458_5501.png,1.0,17.32288,4.366033,9.161874
alexnet,1,578,NaN,boat,boat,true,0578_fc_dnn_true_boat_35_n03662601_34124.png,n03662601_34124.png,1.0,15.707018,6.225557,6.7044053
alexnet,1,579,NaN,bicycle,knife,false,0579_fc_dnn_false_knife_35_n03041632_37949.png,n03041632_37949.png,0.0,1.4502951,3.334633,-1.3324282
alexnet,1,580,NaN,airplane,airplane,false,0580_fc_dnn_false_airplane_35_n02690373_13585.png,n02690373_13585.png,1.0,19.698174,5.3260736,10.162609
alexnet,1,581,NaN,elephant,knife,false,0581_fc_dnn_false_knife_35_n03041632_16932.png,n03041632_16932.png,0.0,-1.1840271,6.5050054,-5.4369674
alexnet,1,582,NaN,bottle,chair,false,0582_fc_dnn_false_chair_35_n04429376_9501.png,n04429376_9501.png,0.0,2.0377672,7.1042395,-3.5825367
alexnet,1,583,NaN,bird,bird,false,0583_fc_dnn_false_bird_35_n01532829_10530.png,n01532829_10530.png,1.0,2.3805687,1.2160017,0.8234732
alexnet,1,584,NaN,clock,oven,false,0584_fc_dnn_false_oven_35_n04111531_1562.png,n04111531_1562.png,0.0,0.935624,2.8736165,-1.3703676
alexnet,1,585,NaN,keyboard,clock,false,0585_fc_dnn_false_clock_35_n02708093_260.png,n02708093_260.png,0.0,5.336674,5.3797984,-0.030493414
alexnet,1,586,NaN,bottle,bottle,true,0586_fc_dnn_true_bottle_35_n04579145_1457.png,n04579145_1457.png,1.0,9.471099,2.0492465,5.248042
alexnet,1,587,NaN,chair,chair,true,0587_fc_dnn_true_chair_35_n03376595_9897.png,n03376595_9897.png,1.0,7.3887076,5.7843513,1.1344513
alexnet,1,588,NaN,bird,bird,true,0588_fc_dnn_true_bird_35_n01601694_4224.png,n01601694_4224.png,1.0,7.928232,5.0666485,2.0234454
alexnet,1,589,NaN,cat,cat,false,0589_fc_dnn_false_cat_35_n02123159_358.png,n02123159_358.png,1.0,6.3844724,1.8785284,3.1861837
alexnet,1,590,NaN,bottle,bottle,true,0590_fc_dnn_true_bottle_35_n03983396_11788.png,n03983396_11788.png,1.0,8.085558,3.4079368,3.3075776
alexnet,1,591,NaN,cat,cat,true,0591_fc_dnn_true_cat_35_n02124075_8341.png,n02124075_8341.png,1.0,8.394803,2.2669003,4.3330817
alexnet,1,592,NaN,dog,dog,false,0592_fc_dnn_false_dog_35_n02109525_49924.png,n02109525_49924.png,1.0,6.447451,1.9802519,3.158787
alexnet,1,593,NaN,airplane,oven,false,0593_fc_dnn_false_oven_35_n04111531_797.png,n04111531_797.png,0.0,2.932701,3.3754401,-0.31306377
alexnet,1,594,NaN,bicycle,bicycle,true,0594_fc_dnn_true_bicycle_35_n02835271_15930.png,n02835271_15930.png,1.0,14.998401,6.103543,6.289614
alexnet,1,595,NaN,knife,knife,true,0595_fc_dnn_true_knife_35_n03041632_13656.png,n03041632_13656.png,1.0,8.256943,2.6082952,3.994197
alexnet,1,596,NaN,clock,clock,false,0596_fc_dnn_false_clock_35_n02708093_8104.png,n02708093_8104.png,1.0,5.475218,1.9295723,2.50715
alexnet,1,597,NaN,boat,truck,true,0597_fc_dnn_true_truck_35_n03796401_3148.png,n03796401_3148.png,0.0,2.708925,5.5969048,-2.0421102
alexnet,1,598,NaN,bicycle,bottle,false,0598_fc_dnn_false_bottle_35_n04560804_15263.png,n04560804_15263.png,0.0,1.5279276,4.8879247,-2.3758767
alexnet,1,599,NaN,airplane,airplane,true,0599_fc_dnn_true_airplane_35_n02690373_5003.png,n02690373_5003.png,1.0,16.470951,5.2373786,7.943335
alexnet,1,600,NaN,boat,boat,false,0600_fc_dnn_false_boat_35_n03344393_994.png,n03344393_994.png,1.0,9.212092,8.041558,0.8276926
alexnet,1,601,NaN,bicycle,bicycle,true,0601_fc_dnn_true_bicycle_35_n03792782_5959.png,n03792782_5959.png,1.0,17.404625,2.541127,10.51008
alexnet,1,602,NaN,car,car,false,0602_fc_dnn_false_car_35_n04285008_9383.png,n04285008_9383.png,1.0,9.902162,5.509658,3.1059692
alexnet,1,603,NaN,clock,clock,true,0603_fc_dnn_true_clock_35_n03196217_5627.png,n03196217_5627.png,1.0,5.106414,4.7099757,0.2803241
alexnet,1,604,NaN,knife,bird,true,0604_fc_dnn_true_bird_35_n01534433_13846.png,n01534433_13846.png,0.0,3.9152234,3.9719322,-0.040099185
alexnet,1,605,NaN,dog,dog,true,0605_fc_dnn_true_dog_35_n02105056_11269.png,n02105056_11269.png,1.0,5.684909,5.313935,0.26231828
alexnet,1,606,NaN,airplane,airplane,false,0606_fc_dnn_false_airplane_35_n02690373_9659.png,n02690373_9659.png,1.0,5.937317,4.0003915,1.3696132
alexnet,1,607,NaN,bottle,car,false,0607_fc_dnn_false_car_35_n04285008_3269.png,n04285008_3269.png,0.0,3.6013634,3.6393497,-0.026860356
alexnet,1,608,NaN,bottle,bottle,true,0608_fc_dnn_true_bottle_35_n02823428_3178.png,n02823428_3178.png,1.0,7.5671134,2.8290558,3.3503127
alexnet,1,609,NaN,elephant,elephant,false,0609_fc_dnn_false_elephant_35_n02504458_4849.png,n02504458_4849.png,1.0,8.362795,2.639303,4.0471196
alexnet,1,610,NaN,bear,bear,true,0610_fc_dnn_true_bear_35_n02134418_643.png,n02134418_643.png,1.0,8.728041,5.261958,2.4508905
alexnet,1,611,NaN,boat,boat,true,0611_fc_dnn_true_boat_35_n03344393_7773.png,n03344393_7773.png,1.0,12.87529,6.6304264,4.4157853
alexnet,1,612,NaN,car,car,true,0612_fc_dnn_true_car_35_n02814533_26516.png,n02814533_26516.png,1.0,21.358747,12.870389,6.002176
alexnet,1,613,NaN,bottle,cat,false,0613_fc_dnn_false_cat_35_n02123597_3314.png,n02123597_3314.png,0.0,-1.2050444,2.2466848,-2.4407413
alexnet,1,614,NaN,bicycle,bicycle,true,0614_fc_dnn_true_bicycle_35_n02835271_6539.png,n02835271_6539.png,1.0,16.751621,2.8618731,9.821535
alexnet,1,615,NaN,bear,bear,true,0615_fc_dnn_true_bear_35_n02132136_3090.png,n02132136_3090.png,1.0,24.935392,6.4933124,13.04052
alexnet,1,616,NaN,car,car,true,0616_fc_dnn_true_car_35_n03100240_9171.png,n03100240_9171.png,1.0,17.878347,8.945026,6.316812
alexnet,1,617,NaN,cat,cat,false,0617_fc_dnn_false_cat_35_n02123045_12060.png,n02123045_12060.png,1.0,8.538517,4.4675245,2.8786263
alexnet,1,618,NaN,truck,truck,false,0618_fc_dnn_false_truck_35_n03796401_26801.png,n03796401_26801.png,1.0,5.5113463,4.680526,0.5874789
alexnet,1,619,NaN,cat,cat,false,0619_fc_dnn_false_cat_35_n02123045_15010.png,n02123045_15010.png,1.0,7.945383,3.3536217,3.2468657
alexnet,1,620,NaN,knife,knife,true,0620_fc_dnn_true_knife_35_n03041632_24883.png,n03041632_24883.png,1.0,9.543261,6.0136275,2.4958274
alexnet,1,621,NaN,cat,cat,true,0621_fc_dnn_true_cat_35_n02123597_4040.png,n02123597_4040.png,1.0,6.186047,4.530337,1.170764
alexnet,1,622,NaN,bird,bird,true,0622_fc_dnn_true_bird_35_n01843383_3019.png,n01843383_3019.png,1.0,5.1582565,2.8717115,1.6168315
alexnet,1,623,NaN,bear,bear,true,0623_fc_dnn_true_bear_35_n02132136_8619.png,n02132136_8619.png,1.0,13.393133,8.464996,3.484719
alexnet,1,624,NaN,airplane,airplane,false,0624_fc_dnn_false_airplane_35_n02690373_1912.png,n02690373_1912.png,1.0,4.410693,2.693945,1.2139243
alexnet,1,625,NaN,truck,truck,true,0625_fc_dnn_true_truck_35_n03417042_22828.png,n03417042_22828.png,1.0,15.140562,5.043401,7.1397715
alexnet,1,626,NaN,car,car,true,0626_fc_dnn_true_car_35_n03100240_2909.png,n03100240_2909.png,1.0,18.862894,9.091387,6.909499
alexnet,1,627,NaN,oven,oven,true,0627_fc_dnn_true_oven_35_n04111531_22563.png,n04111531_22563.png,1.0,14.511364,4.3679132,7.172503
alexnet,1,628,NaN,truck,truck,false,0628_fc_dnn_false_truck_35_n03796401_18074.png,n03796401_18074.png,1.0,9.728176,8.541632,0.83901364
alexnet,1,629,NaN,cat,cat,true,0629_fc_dnn_true_cat_35_n02123159_3092.png,n02123159_3092.png,1.0,5.477543,1.7312962,2.6489966
alexnet,1,630,NaN,bird,bird,false,0630_fc_dnn_false_bird_35_n02009912_5983.png,n02009912_5983.png,1.0,6.8558006,2.3513436,3.185132
alexnet,1,631,NaN,keyboard,keyboard,true,0631_fc_dnn_true_keyboard_35_n03085013_19916.png,n03085013_19916.png,1.0,9.739787,6.6561494,2.1804612
alexnet,1,632,NaN,bottle,bottle,false,0632_fc_dnn_false_bottle_35_n04591713_4035.png,n04591713_4035.png,1.0,6.7936597,2.7719862,2.8437524
alexnet,1,633,NaN,chair,chair,false,0633_fc_dnn_false_chair_35_n04099969_6189.png,n04099969_6189.png,1.0,5.3892403,3.6576512,1.2244184
alexnet,1,634,NaN,bottle,oven,true,0634_fc_dnn_true_oven_35_n04111531_7064.png,n04111531_7064.png,0.0,2.712103,5.1818457,-1.7463719
alexnet,1,635,NaN,boat,boat,false,0635_fc_dnn_false_boat_35_n03344393_595.png,n03344393_595.png,1.0,6.005451,5.9890757,0.0115792565
alexnet,1,636,NaN,elephant,elephant,true,0636_fc_dnn_true_elephant_35_n02504458_3099.png,n02504458_3099.png,1.0,11.105034,3.167195,5.6129
alexnet,1,637,NaN,bottle,chair,false,0637_fc_dnn_false_chair_35_n04429376_19617.png,n04429376_19617.png,0.0,2.2562208,4.308679,-1.4513072
alexnet,1,638,NaN,knife,knife,false,0638_fc_dnn_false_knife_35_n03041632_51766.png,n03041632_51766.png,1.0,10.983731,5.04558,4.1989074
alexnet,1,639,NaN,bear,bear,true,0639_fc_dnn_true_bear_35_n02133161_1571.png,n02133161_1571.png,1.0,10.5024185,10.361304,0.09978283
alexnet,1,640,NaN,bear,bear,false,0640_fc_dnn_false_bear_35_n02132136_8525.png,n02132136_8525.png,1.0,3.6551526,2.290378,0.9650413
alexnet,1,641,NaN,bird,bird,true,0641_fc_dnn_true_bird_35_n01560419_9124.png,n01560419_9124.png,1.0,7.9437594,3.2548077,3.3155894
alexnet,1,642,NaN,car,car,false,0642_fc_dnn_false_car_35_n02814533_2555.png,n02814533_2555.png,1.0,16.601542,10.74209,4.1432576
alexnet,1,643,NaN,cat,cat,false,0643_fc_dnn_false_cat_35_n02125311_31100.png,n02125311_31100.png,1.0,8.274894,4.710262,2.5205755
alexnet,1,644,NaN,car,car,true,0644_fc_dnn_true_car_35_n02814533_46508.png,n02814533_46508.png,1.0,16.20553,9.679905,4.614314
alexnet,1,645,NaN,bicycle,bicycle,true,0645_fc_dnn_true_bicycle_35_n03792782_51156.png,n03792782_51156.png,1.0,22.40987,2.8244443,13.848988
alexnet,1,646,NaN,elephant,elephant,false,0646_fc_dnn_false_elephant_35_n02504013_637.png,n02504013_637.png,1.0,9.448811,4.5847015,3.4394445
alexnet,1,647,NaN,clock,clock,false,0647_fc_dnn_false_clock_35_n04548280_7321.png,n04548280_7321.png,1.0,15.885409,4.861494,7.7950854
alexnet,1,648,NaN,airplane,airplane,true,0648_fc_dnn_true_airplane_35_n02690373_2447.png,n02690373_2447.png,1.0,14.979328,9.04187,4.1984167
alexnet,1,649,NaN,elephant,elephant,false,0649_fc_dnn_false_elephant_35_n02504458_477.png,n02504458_477.png,1.0,7.4666944,2.7559967,3.3309662
alexnet,1,650,NaN,bicycle,bottle,false,0650_fc_dnn_false_bottle_35_n04557648_2063.png,n04557648_2063.png,0.0,0.97148407,2.2490387,-0.9033676
alexnet,1,651,NaN,chair,chair,true,0651_fc_dnn_true_chair_35_n04099969_14155.png,n04099969_14155.png,1.0,19.630127,7.4017706,8.646754
alexnet,1,652,NaN,bear,bear,false,0652_fc_dnn_false_bear_35_n02134084_21407.png,n02134084_21407.png,1.0,6.416307,4.043865,1.6775697
alexnet,1,653,NaN,car,boat,false,0653_fc_dnn_false_boat_35_n03662601_4418.png,n03662601_4418.png,0.0,3.1494803,8.704211,-3.927788
alexnet,1,654,NaN,car,car,true,0654_fc_dnn_true_car_35_n03100240_9497.png,n03100240_9497.png,1.0,13.863568,8.460657,3.8204353
alexnet,1,655,NaN,airplane,airplane,false,0655_fc_dnn_false_airplane_35_n02690373_4199.png,n02690373_4199.png,1.0,14.099473,6.9027452,5.0888553
alexnet,1,656,NaN,bicycle,boat,false,0656_fc_dnn_false_boat_35_n03662601_4612.png,n03662601_4612.png,0.0,2.612831,7.3986173,-3.3840618
alexnet,1,657,NaN,bicycle,bicycle,true,0657_fc_dnn_true_bicycle_35_n02835271_9531.png,n02835271_9531.png,1.0,11.931316,3.6229477,5.874904
alexnet,1,658,NaN,bird,bird,false,0658_fc_dnn_false_bird_35_n02037110_21381.png,n02037110_21381.png,1.0,5.1164,3.1462102,1.3931345
alexnet,1,659,NaN,bottle,bottle,false,0659_fc_dnn_false_bottle_35_n04560804_6576.png,n04560804_6576.png,1.0,3.654906,0.95305896,1.9104944
alexnet,1,660,NaN,bottle,bottle,false,0660_fc_dnn_false_bottle_35_n02823428_4358.png,n02823428_4358.png,1.0,11.97872,6.2795973,4.029888
alexnet,1,661,NaN,bottle,bottle,false,0661_fc_dnn_false_bottle_35_n04579145_961.png,n04579145_961.png,1.0,6.5028996,2.1660972,3.0665824
alexnet,1,662,NaN,car,car,true,0662_fc_dnn_true_car_35_n02814533_58462.png,n02814533_58462.png,1.0,14.444305,9.215595,3.6972566
alexnet,1,663,NaN,cat,bird,false,0663_fc_dnn_false_bird_35_n01796340_4643.png,n01796340_4643.png,0.0,2.647301,3.2482994,-0.42497006
alexnet,1,664,NaN,bicycle,dog,false,0664_fc_dnn_false_dog_35_n02091134_7695.png,n02091134_7695.png,0.0,-0.1334914,7.9729867,-5.7321453
alexnet,1,665,NaN,dog,dog,false,0665_fc_dnn_false_dog_35_n02097209_1133.png,n02097209_1133.png,1.0,2.7637544,2.7624264,0.0009390318
alexnet,1,666,NaN,elephant,elephant,true,0666_fc_dnn_true_elephant_35_n02504458_4861.png,n02504458_4861.png,1.0,18.956596,4.614045,10.141715
alexnet,1,667,NaN,elephant,dog,false,0667_fc_dnn_false_dog_35_n02110806_3673.png,n02110806_3673.png,0.0,4.1673594,5.073416,-0.640679
alexnet,1,668,NaN,car,car,false,0668_fc_dnn_false_car_35_n04285008_863.png,n04285008_863.png,1.0,7.9875283,3.098078,3.4573634
alexnet,1,669,NaN,elephant,bicycle,false,0669_fc_dnn_false_bicycle_35_n03792782_52427.png,n03792782_52427.png,0.0,2.5254998,4.1776547,-1.16825
alexnet,1,670,NaN,keyboard,keyboard,true,0670_fc_dnn_true_keyboard_35_n03085013_22796.png,n03085013_22796.png,1.0,12.351679,4.8393307,5.312032
alexnet,1,671,NaN,bottle,bottle,false,0671_fc_dnn_false_bottle_35_n03983396_22979.png,n03983396_22979.png,1.0,9.168712,1.3554894,5.5247827
alexnet,1,672,NaN,dog,dog,true,0672_fc_dnn_true_dog_35_n02109047_4167.png,n02109047_4167.png,1.0,6.257887,2.611144,2.5786366
alexnet,1,673,NaN,bottle,bottle,true,0673_fc_dnn_true_bottle_35_n04560804_15843.png,n04560804_15843.png,1.0,7.125016,4.9096384,1.5665087
alexnet,1,674,NaN,airplane,airplane,true,0674_fc_dnn_true_airplane_35_n02690373_3383.png,n02690373_3383.png,1.0,25.587635,8.825662,11.852506
alexnet,1,675,NaN,truck,truck,true,0675_fc_dnn_true_truck_35_n03796401_7380.png,n03796401_7380.png,1.0,4.357384,3.8990388,0.32409915
alexnet,1,676,NaN,clock,clock,true,0676_fc_dnn_true_clock_35_n03196217_11054.png,n03196217_11054.png,1.0,9.812347,4.3024426,3.8960912
alexnet,1,677,NaN,airplane,airplane,true,0677_fc_dnn_true_airplane_35_n02690373_599.png,n02690373_599.png,1.0,9.836693,5.785518,2.864613
alexnet,1,678,NaN,chair,chair,true,0678_fc_dnn_true_chair_35_n04429376_2693.png,n04429376_2693.png,1.0,12.488878,2.156509,7.306088
alexnet,1,679,NaN,clock,clock,false,0679_fc_dnn_false_clock_35_n02708093_5265.png,n02708093_5265.png,1.0,20.71419,3.9692664,11.840448
alexnet,1,680,NaN,knife,knife,true,0680_fc_dnn_true_knife_35_n03041632_48149.png,n03041632_48149.png,1.0,8.857033,4.438817,3.1241503
alexnet,1,681,NaN,dog,dog,true,0681_fc_dnn_true_dog_35_n02096585_9543.png,n02096585_9543.png,1.0,5.5377,4.103388,1.014212
alexnet,1,682,NaN,boat,boat,false,0682_fc_dnn_false_boat_35_n04612504_20927.png,n04612504_20927.png,1.0,9.412001,3.8176088,3.9558325
alexnet,1,683,NaN,airplane,oven,false,0683_fc_dnn_false_oven_35_n04111531_2150.png,n04111531_2150.png,0.0,5.176742,7.0311594,-1.3112711
alexnet,1,684,NaN,bird,bird,false,0684_fc_dnn_false_bird_35_n01797886_12436.png,n01797886_12436.png,1.0,4.1791124,2.6055768,1.1126578
alexnet,1,685,NaN,truck,truck,false,0685_fc_dnn_false_truck_35_n04467665_197.png,n04467665_197.png,1.0,14.484464,5.8983707,6.071285
alexnet,1,686,NaN,chair,chair,false,0686_fc_dnn_false_chair_35_n02791124_2091.png,n02791124_2091.png,1.0,7.049802,4.7059493,1.657354
alexnet,1,687,NaN,chair,chair,false,0687_fc_dnn_false_chair_35_n03376595_1810.png,n03376595_1810.png,1.0,9.73046,4.099927,3.9813883
alexnet,1,688,NaN,keyboard,keyboard,false,0688_fc_dnn_false_keyboard_35_n03085013_24439.png,n03085013_24439.png,1.0,6.886967,4.038818,2.0139458
alexnet,1,689,NaN,bottle,bottle,false,0689_fc_dnn_false_bottle_35_n03983396_18753.png,n03983396_18753.png,1.0,5.577207,3.3618083,1.5665236
alexnet,1,690,NaN,clock,clock,false,0690_fc_dnn_false_clock_35_n02708093_2054.png,n02708093_2054.png,1.0,5.374664,3.565307,1.2794086
alexnet,1,691,NaN,bear,bear,true,0691_fc_dnn_true_bear_35_n02132136_7872.png,n02132136_7872.png,1.0,9.472893,5.779217,2.6118233
alexnet,1,692,NaN,bicycle,elephant,true,0692_fc_dnn_true_elephant_35_n02504458_5144.png,n02504458_5144.png,0.0,4.465031,4.953286,-0.34524843
alexnet,1,693,NaN,elephant,oven,false,0693_fc_dnn_false_oven_35_n04111531_6500.png,n04111531_6500.png,0.0,2.5274913,3.7637877,-0.8741936
alexnet,1,694,NaN,elephant,elephant,false,0694_fc_dnn_false_elephant_35_n02504458_209.png,n02504458_209.png,1.0,8.1419735,5.438891,1.911368
alexnet,1,695,NaN,oven,oven,true,0695_fc_dnn_true_oven_35_n04111531_12769.png,n04111531_12769.png,1.0,21.92691,7.9538727,9.88043
alexnet,1,696,NaN,elephant,dog,false,0696_fc_dnn_false_dog_35_n02107574_3387.png,n02107574_3387.png,0.0,5.1865144,6.1497335,-0.6810988
alexnet,1,697,NaN,airplane,airplane,true,0697_fc_dnn_true_airplane_35_n02690373_4706.png,n02690373_4706.png,1.0,27.290398,8.670572,13.166205
alexnet,1,698,NaN,dog,dog,false,0698_fc_dnn_false_dog_35_n02096585_9834.png,n02096585_9834.png,1.0,5.9984097,0.7434814,3.7157958
alexnet,1,699,NaN,chair,chair,true,0699_fc_dnn_true_chair_35_n04429376_29312.png,n04429376_29312.png,1.0,7.630062,3.4495761,2.95605
alexnet,1,700,NaN,elephant,elephant,false,0700_fc_dnn_false_elephant_35_n02504013_5774.png,n02504013_5774.png,1.0,9.191015,5.082585,2.9050992
alexnet,1,701,NaN,elephant,elephant,true,0701_fc_dnn_true_elephant_35_n02504458_5187.png,n02504458_5187.png,1.0,20.980198,6.503665,10.236455
alexnet,1,702,NaN,oven,oven,true,0702_fc_dnn_true_oven_35_n04111531_12820.png,n04111531_12820.png,1.0,7.016337,4.7037277,1.6352617
alexnet,1,703,NaN,truck,truck,false,0703_fc_dnn_false_truck_35_n04467665_11888.png,n04467665_11888.png,1.0,8.201761,3.9549658,3.002938
alexnet,1,704,NaN,truck,truck,true,0704_fc_dnn_true_truck_35_n03796401_3434.png,n03796401_3434.png,1.0,7.480682,6.1405425,0.94762164
alexnet,1,705,NaN,elephant,elephant,false,0705_fc_dnn_false_elephant_35_n02504458_3491.png,n02504458_3491.png,1.0,7.627335,4.0447445,2.5332742
alexnet,1,706,NaN,elephant,bear,false,0706_fc_dnn_false_bear_35_n02134084_4677.png,n02134084_4677.png,0.0,5.4260583,5.644138,-0.15420555
alexnet,1,707,NaN,cat,cat,false,0707_fc_dnn_false_cat_35_n02125311_2401.png,n02125311_2401.png,1.0,10.020347,4.4364853,3.9483862
alexnet,1,708,NaN,car,car,true,0708_fc_dnn_true_car_35_n04285008_16701.png,n04285008_16701.png,1.0,18.825186,10.159262,6.1277337
alexnet,1,709,NaN,bear,bear,true,0709_fc_dnn_true_bear_35_n02133161_10632.png,n02133161_10632.png,1.0,5.2513967,2.9331305,1.6392617
alexnet,1,710,NaN,bird,bird,true,0710_fc_dnn_true_bird_35_n01592084_6081.png,n01592084_6081.png,1.0,5.1560125,3.0556502,1.4851805
alexnet,1,711,NaN,bottle,bottle,false,0711_fc_dnn_false_bottle_35_n04560804_15832.png,n04560804_15832.png,1.0,3.6468244,2.5392096,0.78320193
alexnet,1,712,NaN,oven,oven,true,0712_fc_dnn_true_oven_35_n04111531_11116.png,n04111531_11116.png,1.0,16.554924,4.2629714,8.691723
alexnet,1,713,NaN,boat,boat,false,0713_fc_dnn_false_boat_35_n03662601_10811.png,n03662601_10811.png,1.0,6.5877748,3.0876904,2.4749334
alexnet,1,714,NaN,bottle,bottle,false,0714_fc_dnn_false_bottle_35_n03937543_211.png,n03937543_211.png,1.0,13.581352,3.452769,7.1619897
alexnet,1,715,NaN,airplane,boat,false,0715_fc_dnn_false_boat_35_n03344393_1595.png,n03344393_1595.png,0.0,4.041419,4.9704485,-0.65692306
alexnet,1,716,NaN,bicycle,bicycle,true,0716_fc_dnn_true_bicycle_35_n02835271_10293.png,n02835271_10293.png,1.0,16.782299,3.3932056,9.467519
alexnet,1,717,NaN,boat,cat,false,0717_fc_dnn_false_cat_35_n02123159_6170.png,n02123159_6170.png,0.0,2.8489816,3.994027,-0.8096693
alexnet,1,718,NaN,boat,boat,false,0718_fc_dnn_false_boat_35_n03662601_12323.png,n03662601_12323.png,1.0,7.501027,6.644038,0.60598266
alexnet,1,719,NaN,oven,oven,true,0719_fc_dnn_true_oven_35_n04111531_17809.png,n04111531_17809.png,1.0,10.22517,4.448017,4.085064
alexnet,1,720,NaN,bear,bear,false,0720_fc_dnn_false_bear_35_n02134084_6783.png,n02134084_6783.png,1.0,3.3137143,2.8110387,0.3554453
alexnet,1,721,NaN,airplane,airplane,false,0721_fc_dnn_false_airplane_35_n02690373_2203.png,n02690373_2203.png,1.0,13.740438,5.3929334,5.902578
alexnet,1,722,NaN,knife,knife,false,0722_fc_dnn_false_knife_35_n03041632_38610.png,n03041632_38610.png,1.0,10.843763,9.573128,0.89847505
alexnet,1,723,NaN,bicycle,bicycle,true,0723_fc_dnn_true_bicycle_35_n03792782_634.png,n03792782_634.png,1.0,8.861026,2.5225105,4.482007
alexnet,1,724,NaN,bicycle,bicycle,true,0724_fc_dnn_true_bicycle_35_n03792782_47426.png,n03792782_47426.png,1.0,18.018837,4.4191527,9.616428
alexnet,1,725,NaN,bicycle,bird,false,0725_fc_dnn_false_bird_35_n02013706_16546.png,n02013706_16546.png,0.0,1.3686173,1.7190363,-0.24778369
alexnet,1,726,NaN,clock,clock,false,0726_fc_dnn_false_clock_35_n02708093_616.png,n02708093_616.png,1.0,6.3468566,4.898089,1.0244335
alexnet,1,727,NaN,bear,bear,true,0727_fc_dnn_true_bear_35_n02134418_9289.png,n02134418_9289.png,1.0,16.357868,6.826628,6.739605
alexnet,1,728,NaN,boat,boat,false,0728_fc_dnn_false_boat_35_n02951358_5118.png,n02951358_5118.png,1.0,3.8849845,3.5803945,0.21537764
alexnet,1,729,NaN,clock,clock,false,0729_fc_dnn_false_clock_35_n04548280_2291.png,n04548280_2291.png,1.0,12.807945,6.047486,4.780367
alexnet,1,730,NaN,bird,bird,true,0730_fc_dnn_true_bird_35_n01833805_1104.png,n01833805_1104.png,1.0,3.0872927,3.0143402,0.051585216
alexnet,1,731,NaN,bird,bird,false,0731_fc_dnn_false_bird_35_n01843383_12917.png,n01843383_12917.png,1.0,4.051088,2.8911946,0.82016844
alexnet,1,732,NaN,knife,knife,true,0732_fc_dnn_true_knife_35_n03041632_30286.png,n03041632_30286.png,1.0,7.7874947,7.6531496,0.0949963
alexnet,1,733,NaN,clock,clock,true,0733_fc_dnn_true_clock_35_n04548280_12615.png,n04548280_12615.png,1.0,9.431237,4.407996,3.5519679
alexnet,1,734,NaN,knife,knife,true,0734_fc_dnn_true_knife_35_n03041632_22190.png,n03041632_22190.png,1.0,4.322137,3.4220054,0.6364891
alexnet,1,735,NaN,boat,boat,true,0735_fc_dnn_true_boat_35_n04273569_11645.png,n04273569_11645.png,1.0,17.01117,8.521457,6.0031333
alexnet,1,736,NaN,keyboard,keyboard,false,0736_fc_dnn_false_keyboard_35_n04505470_8148.png,n04505470_8148.png,1.0,14.382261,7.957981,4.542652
alexnet,1,737,NaN,bird,bird,true,0737_fc_dnn_true_bird_35_n02027492_4976.png,n02027492_4976.png,1.0,6.0440555,1.6581205,3.1013243
