subj,session,trial,rt,object_response,category,condition,imagename,filename,is_correct,targ_act,max_nontarg_act,decision_margin
alexnet_w3_mlp_simclrhn_probe3,1,1,NaN,knife,knife,true,0001_fc_dnn_true_knife_35_n03041632_86251.png,n03041632_86251.png,1.0,3.5228286,0.45770255,2.1673713
alexnet_w3_mlp_simclrhn_probe3,1,2,NaN,car,car,false,0002_fc_dnn_false_car_35_n03100240_16866.png,n03100240_16866.png,1.0,10.325652,6.099148,2.98859
alexnet_w3_mlp_simclrhn_probe3,1,3,NaN,knife,keyboard,false,0003_fc_dnn_false_keyboard_35_n03085013_21127.png,n03085013_21127.png,0.0,3.055151,3.372929,-0.22470306
alexnet_w3_mlp_simclrhn_probe3,1,4,NaN,truck,truck,true,0004_fc_dnn_true_truck_35_n03417042_10694.png,n03417042_10694.png,1.0,7.9758368,1.3874142,4.6587186
alexnet_w3_mlp_simclrhn_probe3,1,5,NaN,bird,bird,true,0005_fc_dnn_true_bird_35_n01614925_1962.png,n01614925_1962.png,1.0,3.540025,2.8825011,0.4649396
alexnet_w3_mlp_simclrhn_probe3,1,6,NaN,knife,knife,false,0006_fc_dnn_false_knife_35_n03041632_99875.png,n03041632_99875.png,1.0,2.416605,1.2737694,0.80810684
alexnet_w3_mlp_simclrhn_probe3,1,7,NaN,bicycle,bicycle,true,0007_fc_dnn_true_bicycle_35_n03792782_14935.png,n03792782_14935.png,1.0,3.1907814,0.3287237,2.0237803
alexnet_w3_mlp_simclrhn_probe3,1,8,NaN,elephant,elephant,false,0008_fc_dnn_false_elephant_35_n02504013_5027.png,n02504013_5027.png,1.0,4.731729,0.8124857,2.7713237
alexnet_w3_mlp_simclrhn_probe3,1,9,NaN,cat,dog,false,0009_fc_dnn_false_dog_35_n02090721_129.png,n02090721_129.png,0.0,1.7812381,3.4053156,-1.1483963
alexnet_w3_mlp_simclrhn_probe3,1,10,NaN,airplane,airplane,true,0010_fc_dnn_true_airplane_35_n02690373_9241.png,n02690373_9241.png,1.0,14.179807,3.2067838,7.7590985
alexnet_w3_mlp_simclrhn_probe3,1,11,NaN,truck,truck,true,0011_fc_dnn_true_truck_35_n04467665_62080.png,n04467665_62080.png,1.0,9.703993,5.6769032,2.8475823
alexnet_w3_mlp_simclrhn_probe3,1,12,NaN,keyboard,keyboard,true,0012_fc_dnn_true_keyboard_35_n04505470_2669.png,n04505470_2669.png,1.0,2.2562232,1.5173075,0.5224923
alexnet_w3_mlp_simclrhn_probe3,1,13,NaN,oven,oven,false,0013_fc_dnn_false_oven_35_n04111531_688.png,n04111531_688.png,1.0,2.3619404,0.99143404,0.9690943
alexnet_w3_mlp_simclrhn_probe3,1,14,NaN,car,car,true,0014_fc_dnn_true_car_35_n03100240_21982.png,n03100240_21982.png,1.0,13.303981,4.594222,6.1587296
alexnet_w3_mlp_simclrhn_probe3,1,15,NaN,bicycle,bicycle,true,0015_fc_dnn_true_bicycle_35_n02835271_4191.png,n02835271_4191.png,1.0,12.215487,1.4286222,7.6274652
alexnet_w3_mlp_simclrhn_probe3,1,16,NaN,car,car,true,0016_fc_dnn_true_car_35_n02814533_25278.png,n02814533_25278.png,1.0,8.990921,7.282867,1.2077767
alexnet_w3_mlp_simclrhn_probe3,1,17,NaN,oven,knife,false,0017_fc_dnn_false_knife_35_n03041632_23087.png,n03041632_23087.png,0.0,0.30647802,2.296874,-1.4074225
alexnet_w3_mlp_simclrhn_probe3,1,18,NaN,keyboard,clock,true,0018_fc_dnn_true_clock_35_n03196217_11252.png,n03196217_11252.png,0.0,1.371573,2.5617955,-0.8416144
alexnet_w3_mlp_simclrhn_probe3,1,19,NaN,boat,boat,false,0019_fc_dnn_false_boat_35_n04273569_2040.png,n04273569_2040.png,1.0,12.542603,5.9655952,4.6506467
alexnet_w3_mlp_simclrhn_probe3,1,20,NaN,knife,knife,true,0020_fc_dnn_true_knife_35_n03041632_84869.png,n03041632_84869.png,1.0,2.88486,1.7197766,0.8238384
alexnet_w3_mlp_simclrhn_probe3,1,21,NaN,clock,clock,true,0021_fc_dnn_true_clock_35_n04548280_503.png,n04548280_503.png,1.0,7.1258445,0.9791865,4.3463435
alexnet_w3_mlp_simclrhn_probe3,1,22,NaN,truck,truck,false,0022_fc_dnn_false_truck_35_n03417042_10654.png,n03417042_10654.png,1.0,6.5976973,2.5671635,2.8500178
alexnet_w3_mlp_simclrhn_probe3,1,23,NaN,boat,boat,true,0023_fc_dnn_true_boat_35_n03344393_2919.png,n03344393_2919.png,1.0,5.1159406,2.5756502,1.7962565
alexnet_w3_mlp_simclrhn_probe3,1,24,NaN,chair,chair,false,0024_fc_dnn_false_chair_35_n04099969_7718.png,n04099969_7718.png,1.0,3.7864501,1.804879,1.4011824
alexnet_w3_mlp_simclrhn_probe3,1,25,NaN,oven,oven,true,0025_fc_dnn_true_oven_35_n04111531_3477.png,n04111531_3477.png,1.0,5.0236044,1.442986,2.5318797
alexnet_w3_mlp_simclrhn_probe3,1,26,NaN,bear,dog,false,0026_fc_dnn_false_dog_35_n02113712_913.png,n02113712_913.png,0.0,1.3227121,2.377176,-0.74561864
alexnet_w3_mlp_simclrhn_probe3,1,27,NaN,chair,chair,false,0027_fc_dnn_false_chair_35_n02791124_13701.png,n02791124_13701.png,1.0,4.6510873,3.1144712,1.0865517
alexnet_w3_mlp_simclrhn_probe3,1,28,NaN,airplane,airplane,true,0028_fc_dnn_true_airplane_35_n02690373_8538.png,n02690373_8538.png,1.0,8.53966,2.4419732,4.311716
alexnet_w3_mlp_simclrhn_probe3,1,29,NaN,oven,knife,true,0029_fc_dnn_true_knife_35_n03041632_98864.png,n03041632_98864.png,0.0,1.0153625,2.1482074,-0.8010423
alexnet_w3_mlp_simclrhn_probe3,1,30,NaN,clock,clock,false,0030_fc_dnn_false_clock_35_n04548280_5466.png,n04548280_5466.png,1.0,1.61406,1.3331009,0.1986681
alexnet_w3_mlp_simclrhn_probe3,1,31,NaN,keyboard,keyboard,true,0031_fc_dnn_true_keyboard_35_n04505470_4033.png,n04505470_4033.png,1.0,13.206149,2.8462658,7.325544
alexnet_w3_mlp_simclrhn_probe3,1,32,NaN,boat,boat,false,0032_fc_dnn_false_boat_35_n03344393_7503.png,n03344393_7503.png,1.0,3.34519,1.3985467,1.3764848
alexnet_w3_mlp_simclrhn_probe3,1,33,NaN,bottle,bottle,false,0033_fc_dnn_false_bottle_35_n02823428_3402.png,n02823428_3402.png,1.0,4.2236524,1.9388967,1.6155663
alexnet_w3_mlp_simclrhn_probe3,1,34,NaN,oven,boat,true,0034_fc_dnn_true_boat_35_n03662601_15766.png,n03662601_15766.png,0.0,0.22763297,2.2829528,-1.4533306
alexnet_w3_mlp_simclrhn_probe3,1,35,NaN,dog,dog,true,0035_fc_dnn_true_dog_35_n02097047_1351.png,n02097047_1351.png,1.0,2.3043687,1.0039935,0.91950417
alexnet_w3_mlp_simclrhn_probe3,1,36,NaN,knife,keyboard,true,0036_fc_dnn_true_keyboard_35_n03085013_23562.png,n03085013_23562.png,0.0,1.0563184,2.4416106,-0.9795495
alexnet_w3_mlp_simclrhn_probe3,1,37,NaN,oven,clock,false,0037_fc_dnn_false_clock_35_n04548280_7872.png,n04548280_7872.png,0.0,1.4127733,3.1218762,-1.2085184
alexnet_w3_mlp_simclrhn_probe3,1,38,NaN,boat,dog,false,0038_fc_dnn_false_dog_35_n02106166_16884.png,n02106166_16884.png,0.0,2.2175488,2.544792,-0.23139581
alexnet_w3_mlp_simclrhn_probe3,1,39,NaN,oven,oven,true,0039_fc_dnn_true_oven_35_n04111531_3353.png,n04111531_3353.png,1.0,1.6752601,0.89244556,0.55353343
alexnet_w3_mlp_simclrhn_probe3,1,40,NaN,bottle,knife,false,0040_fc_dnn_false_knife_35_n03041632_46185.png,n03041632_46185.png,0.0,1.0252532,1.7821856,-0.535232
alexnet_w3_mlp_simclrhn_probe3,1,41,NaN,knife,knife,true,0041_fc_dnn_true_knife_35_n03041632_14766.png,n03041632_14766.png,1.0,3.5400004,1.3842825,1.5243227
alexnet_w3_mlp_simclrhn_probe3,1,42,NaN,oven,chair,true,0042_fc_dnn_true_chair_35_n02791124_2150.png,n02791124_2150.png,0.0,0.29395851,2.1881137,-1.33937
alexnet_w3_mlp_simclrhn_probe3,1,43,NaN,elephant,elephant,false,0043_fc_dnn_false_elephant_35_n02504458_4631.png,n02504458_4631.png,1.0,4.692335,1.4608111,2.2850325
alexnet_w3_mlp_simclrhn_probe3,1,44,NaN,chair,chair,false,0044_fc_dnn_false_chair_35_n03376595_3223.png,n03376595_3223.png,1.0,2.0678458,1.5054114,0.3977012
alexnet_w3_mlp_simclrhn_probe3,1,45,NaN,car,car,false,0045_fc_dnn_false_car_35_n03100240_5399.png,n03100240_5399.png,1.0,13.174637,6.809973,4.5004973
alexnet_w3_mlp_simclrhn_probe3,1,46,NaN,oven,bottle,true,0046_fc_dnn_true_bottle_35_n04557648_2512.png,n04557648_2512.png,0.0,0.26564044,3.3554354,-2.184815
alexnet_w3_mlp_simclrhn_probe3,1,47,NaN,bicycle,bicycle,true,0047_fc_dnn_true_bicycle_35_n03792782_8098.png,n03792782_8098.png,1.0,0.8900624,0.72293025,0.11818027
alexnet_w3_mlp_simclrhn_probe3,1,48,NaN,bear,bear,true,0048_fc_dnn_true_bear_35_n02134418_11557.png,n02134418_11557.png,1.0,6.450278,0.57062626,4.1575418
alexnet_w3_mlp_simclrhn_probe3,1,49,NaN,knife,knife,true,0049_fc_dnn_true_knife_35_n03041632_45569.png,n03041632_45569.png,1.0,2.1761239,0.332852,1.30339
alexnet_w3_mlp_simclrhn_probe3,1,50,NaN,oven,bicycle,false,0050_fc_dnn_false_bicycle_35_n03792782_4740.png,n03792782_4740.png,0.0,0.6987066,1.8807937,-0.8358618
alexnet_w3_mlp_simclrhn_probe3,1,51,NaN,boat,boat,false,0051_fc_dnn_false_boat_35_n03662601_25404.png,n03662601_25404.png,1.0,8.735086,4.32882,3.1157007
alexnet_w3_mlp_simclrhn_probe3,1,52,NaN,bird,bird,false,0052_fc_dnn_false_bird_35_n01796340_4853.png,n01796340_4853.png,1.0,2.146556,1.1996751,0.6695458
alexnet_w3_mlp_simclrhn_probe3,1,53,NaN,clock,clock,true,0053_fc_dnn_true_clock_35_n03196217_5888.png,n03196217_5888.png,1.0,1.6941171,1.5108676,0.12957695
alexnet_w3_mlp_simclrhn_probe3,1,54,NaN,bicycle,bicycle,true,0054_fc_dnn_true_bicycle_35_n02835271_12871.png,n02835271_12871.png,1.0,14.919373,5.7656746,6.472642
alexnet_w3_mlp_simclrhn_probe3,1,55,NaN,keyboard,keyboard,false,0055_fc_dnn_false_keyboard_35_n03085013_28584.png,n03085013_28584.png,1.0,4.2539973,1.1877358,2.1681743
alexnet_w3_mlp_simclrhn_probe3,1,56,NaN,bear,cat,true,0056_fc_dnn_true_cat_35_n02123159_6184.png,n02123159_6184.png,0.0,0.46832514,4.1232023,-2.5843885
alexnet_w3_mlp_simclrhn_probe3,1,57,NaN,bicycle,bicycle,true,0057_fc_dnn_true_bicycle_35_n02835271_7592.png,n02835271_7592.png,1.0,20.207504,1.7911806,13.022308
alexnet_w3_mlp_simclrhn_probe3,1,58,NaN,elephant,elephant,false,0058_fc_dnn_false_elephant_35_n02504458_3205.png,n02504458_3205.png,1.0,13.071791,4.444324,6.10054
alexnet_w3_mlp_simclrhn_probe3,1,59,NaN,cat,cat,false,0059_fc_dnn_false_cat_35_n02124075_7880.png,n02124075_7880.png,1.0,2.7910051,2.1314323,0.46638843
alexnet_w3_mlp_simclrhn_probe3,1,60,NaN,truck,truck,false,0060_fc_dnn_false_truck_35_n04467665_2240.png,n04467665_2240.png,1.0,11.340115,1.6854376,6.826888
alexnet_w3_mlp_simclrhn_probe3,1,61,NaN,bottle,bottle,true,0061_fc_dnn_true_bottle_35_n04560804_13316.png,n04560804_13316.png,1.0,2.7628853,1.6284987,0.8021325
alexnet_w3_mlp_simclrhn_probe3,1,62,NaN,airplane,airplane,false,0062_fc_dnn_false_airplane_35_n02690373_3821.png,n02690373_3821.png,1.0,14.031034,1.3650829,8.956181
alexnet_w3_mlp_simclrhn_probe3,1,63,NaN,chair,knife,true,0063_fc_dnn_true_knife_35_n03041632_17285.png,n03041632_17285.png,0.0,1.7342108,2.9703002,-0.87404716
alexnet_w3_mlp_simclrhn_probe3,1,64,NaN,bottle,bottle,false,0064_fc_dnn_false_bottle_35_n02823428_10942.png,n02823428_10942.png,1.0,3.79551,2.332879,1.0342363
alexnet_w3_mlp_simclrhn_probe3,1,65,NaN,bicycle,bicycle,true,0065_fc_dnn_true_bicycle_35_n02835271_3642.png,n02835271_3642.png,1.0,15.192157,1.93749,9.372465
alexnet_w3_mlp_simclrhn_probe3,1,66,NaN,knife,knife,true,0066_fc_dnn_true_knife_35_n03041632_16172.png,n03041632_16172.png,1.0,2.3571959,0.5903603,1.2493415
alexnet_w3_mlp_simclrhn_probe3,1,67,NaN,bicycle,bottle,false,0067_fc_dnn_false_bottle_35_n04560804_2448.png,n04560804_2448.png,0.0,-0.33307126,5.7416344,-4.2954655
alexnet_w3_mlp_simclrhn_probe3,1,68,NaN,oven,oven,false,0068_fc_dnn_false_oven_35_n04111531_4452.png,n04111531_4452.png,1.0,5.850087,0.6175044,3.6999946
alexnet_w3_mlp_simclrhn_probe3,1,69,NaN,keyboard,keyboard,false,0069_fc_dnn_false_keyboard_35_n04505470_912.png,n04505470_912.png,1.0,11.663223,2.0733047,6.7810965
alexnet_w3_mlp_simclrhn_probe3,1,70,NaN,elephant,cat,false,0070_fc_dnn_false_cat_35_n02123045_7167.png,n02123045_7167.png,0.0,0.2761725,1.5400172,-0.8936732
alexnet_w3_mlp_simclrhn_probe3,1,71,NaN,bicycle,bicycle,false,0071_fc_dnn_false_bicycle_35_n03792782_8333.png,n03792782_8333.png,1.0,2.5030682,0.70975435,1.2680644
alexnet_w3_mlp_simclrhn_probe3,1,72,NaN,bear,dog,false,0072_fc_dnn_false_dog_35_n02107683_2904.png,n02107683_2904.png,0.0,1.235767,2.3813586,-0.8100556
alexnet_w3_mlp_simclrhn_probe3,1,73,NaN,bottle,bottle,true,0073_fc_dnn_true_bottle_35_n04591713_3409.png,n04591713_3409.png,1.0,8.325969,3.3346133,3.5294213
alexnet_w3_mlp_simclrhn_probe3,1,74,NaN,elephant,bottle,false,0074_fc_dnn_false_bottle_35_n04560804_564.png,n04560804_564.png,0.0,0.19601454,1.4870435,-0.9128954
alexnet_w3_mlp_simclrhn_probe3,1,75,NaN,truck,truck,false,0075_fc_dnn_false_truck_35_n03796401_6503.png,n03796401_6503.png,1.0,10.135756,1.7118616,5.9565926
alexnet_w3_mlp_simclrhn_probe3,1,76,NaN,oven,oven,true,0076_fc_dnn_true_oven_35_n04111531_13590.png,n04111531_13590.png,1.0,6.4955673,1.6576186,3.4209464
alexnet_w3_mlp_simclrhn_probe3,1,77,NaN,bird,bird,false,0077_fc_dnn_false_bird_35_n02018795_7504.png,n02018795_7504.png,1.0,2.8575804,0.49358037,1.6716005
alexnet_w3_mlp_simclrhn_probe3,1,78,NaN,car,car,false,0078_fc_dnn_false_car_35_n03100240_6626.png,n03100240_6626.png,1.0,9.764989,9.086101,0.48004654
alexnet_w3_mlp_simclrhn_probe3,1,79,NaN,bear,bear,false,0079_fc_dnn_false_bear_35_n02134418_4364.png,n02134418_4364.png,1.0,9.876462,5.1798625,3.3209975
alexnet_w3_mlp_simclrhn_probe3,1,80,NaN,airplane,knife,false,0080_fc_dnn_false_knife_35_n03041632_8051.png,n03041632_8051.png,0.0,1.0172788,2.165053,-0.81159884
alexnet_w3_mlp_simclrhn_probe3,1,81,NaN,airplane,airplane,true,0081_fc_dnn_true_airplane_35_n02690373_1434.png,n02690373_1434.png,1.0,12.445574,1.9122453,7.4481883
alexnet_w3_mlp_simclrhn_probe3,1,82,NaN,clock,clock,true,0082_fc_dnn_true_clock_35_n04548280_5408.png,n04548280_5408.png,1.0,5.968277,1.4642553,3.1848242
alexnet_w3_mlp_simclrhn_probe3,1,83,NaN,elephant,cat,false,0083_fc_dnn_false_cat_35_n02123597_3916.png,n02123597_3916.png,0.0,1.2281127,1.2898085,-0.04362553
alexnet_w3_mlp_simclrhn_probe3,1,84,NaN,clock,clock,false,0084_fc_dnn_false_clock_35_n04548280_4542.png,n04548280_4542.png,1.0,2.0452328,0.97800946,0.7546409
alexnet_w3_mlp_simclrhn_probe3,1,85,NaN,airplane,car,true,0085_fc_dnn_true_car_35_n04285008_14161.png,n04285008_14161.png,0.0,1.043801,3.266313,-1.5715535
alexnet_w3_mlp_simclrhn_probe3,1,86,NaN,airplane,airplane,false,0086_fc_dnn_false_airplane_35_n02690373_7279.png,n02690373_7279.png,1.0,8.039415,4.2801943,2.6581707
alexnet_w3_mlp_simclrhn_probe3,1,87,NaN,elephant,bear,true,0087_fc_dnn_true_bear_35_n02132136_11640.png,n02132136_11640.png,0.0,4.4807167,6.0481386,-1.1083347
alexnet_w3_mlp_simclrhn_probe3,1,88,NaN,airplane,airplane,true,0088_fc_dnn_true_airplane_35_n02690373_8350.png,n02690373_8350.png,1.0,7.8839936,3.1812155,3.3253663
alexnet_w3_mlp_simclrhn_probe3,1,89,NaN,boat,boat,true,0089_fc_dnn_true_boat_35_n04273569_30568.png,n04273569_30568.png,1.0,10.628515,7.4554176,2.2437189
alexnet_w3_mlp_simclrhn_probe3,1,90,NaN,elephant,dog,true,0090_fc_dnn_true_dog_35_n02100583_19533.png,n02100583_19533.png,0.0,2.1810503,2.4824224,-0.21310222
alexnet_w3_mlp_simclrhn_probe3,1,91,NaN,knife,knife,true,0091_fc_dnn_true_knife_35_n03041632_965.png,n03041632_965.png,1.0,2.5837884,1.1006278,1.0487529
alexnet_w3_mlp_simclrhn_probe3,1,92,NaN,elephant,elephant,false,0092_fc_dnn_false_elephant_35_n02504458_6109.png,n02504458_6109.png,1.0,18.23983,6.8372893,8.062814
alexnet_w3_mlp_simclrhn_probe3,1,93,NaN,oven,oven,true,0093_fc_dnn_true_oven_35_n04111531_10093.png,n04111531_10093.png,1.0,1.4437823,0.6362657,0.5710005
alexnet_w3_mlp_simclrhn_probe3,1,94,NaN,clock,clock,true,0094_fc_dnn_true_clock_35_n03196217_8221.png,n03196217_8221.png,1.0,1.9067813,0.8253168,0.7647109
alexnet_w3_mlp_simclrhn_probe3,1,95,NaN,bicycle,bicycle,false,0095_fc_dnn_false_bicycle_35_n03792782_828.png,n03792782_828.png,1.0,9.633642,2.2691712,5.2074676
alexnet_w3_mlp_simclrhn_probe3,1,96,NaN,knife,knife,true,0096_fc_dnn_true_knife_35_n03041632_7090.png,n03041632_7090.png,1.0,2.181235,1.1216319,0.7492526
alexnet_w3_mlp_simclrhn_probe3,1,97,NaN,elephant,bear,false,0097_fc_dnn_false_bear_35_n02134084_14260.png,n02134084_14260.png,0.0,0.8038049,1.1332235,-0.23293418
alexnet_w3_mlp_simclrhn_probe3,1,98,NaN,elephant,bear,false,0098_fc_dnn_false_bear_35_n02132136_10988.png,n02132136_10988.png,0.0,4.7735605,4.9438977,-0.12044659
alexnet_w3_mlp_simclrhn_probe3,1,99,NaN,knife,keyboard,false,0099_fc_dnn_false_keyboard_35_n03085013_22980.png,n03085013_22980.png,0.0,1.001209,1.1547097,-0.10854137
alexnet_w3_mlp_simclrhn_probe3,1,100,NaN,chair,bottle,false,0100_fc_dnn_false_bottle_35_n04557648_3673.png,n04557648_3673.png,0.0,2.5411975,2.7439516,-0.14336875
alexnet_w3_mlp_simclrhn_probe3,1,101,NaN,airplane,airplane,true,0101_fc_dnn_true_airplane_35_n02690373_1360.png,n02690373_1360.png,1.0,11.932248,2.3728983,6.7594814
alexnet_w3_mlp_simclrhn_probe3,1,102,NaN,bicycle,oven,true,0102_fc_dnn_true_oven_35_n04111531_6415.png,n04111531_6415.png,0.0,-0.17648794,4.1726713,-3.07532
alexnet_w3_mlp_simclrhn_probe3,1,103,NaN,knife,knife,false,0103_fc_dnn_false_knife_35_n03041632_32054.png,n03041632_32054.png,1.0,2.6409664,0.76138884,1.3290621
alexnet_w3_mlp_simclrhn_probe3,1,104,NaN,chair,chair,false,0104_fc_dnn_false_chair_35_n03376595_9136.png,n03376595_9136.png,1.0,1.7624931,1.3915119,0.26232335
alexnet_w3_mlp_simclrhn_probe3,1,105,NaN,keyboard,keyboard,false,0105_fc_dnn_false_keyboard_35_n03085013_21266.png,n03085013_21266.png,1.0,2.6178663,2.1025593,0.36437705
alexnet_w3_mlp_simclrhn_probe3,1,106,NaN,bicycle,bicycle,true,0106_fc_dnn_true_bicycle_35_n02835271_6137.png,n02835271_6137.png,1.0,14.187374,1.6772743,8.845976
alexnet_w3_mlp_simclrhn_probe3,1,107,NaN,car,car,false,0107_fc_dnn_false_car_35_n04285008_14689.png,n04285008_14689.png,1.0,17.351957,11.264505,4.3044786
alexnet_w3_mlp_simclrhn_probe3,1,108,NaN,truck,truck,false,0108_fc_dnn_false_truck_35_n04467665_16276.png,n04467665_16276.png,1.0,12.071127,3.4669056,6.0841036
alexnet_w3_mlp_simclrhn_probe3,1,109,NaN,chair,chair,false,0109_fc_dnn_false_chair_35_n03376595_787.png,n03376595_787.png,1.0,3.0741632,1.3453774,1.2224362
alexnet_w3_mlp_simclrhn_probe3,1,110,NaN,boat,boat,false,0110_fc_dnn_false_boat_35_n04612504_41355.png,n04612504_41355.png,1.0,7.626937,5.898931,1.2218847
alexnet_w3_mlp_simclrhn_probe3,1,111,NaN,elephant,elephant,true,0111_fc_dnn_true_elephant_35_n02504458_174.png,n02504458_174.png,1.0,14.682537,4.3096156,7.334763
alexnet_w3_mlp_simclrhn_probe3,1,112,NaN,cat,cat,true,0112_fc_dnn_true_cat_35_n02125311_6746.png,n02125311_6746.png,1.0,3.8037128,1.4195852,1.6858329
alexnet_w3_mlp_simclrhn_probe3,1,113,NaN,keyboard,keyboard,false,0113_fc_dnn_false_keyboard_35_n03085013_23287.png,n03085013_23287.png,1.0,5.89108,1.0667268,3.4113328
alexnet_w3_mlp_simclrhn_probe3,1,114,NaN,clock,clock,true,0114_fc_dnn_true_clock_35_n04548280_8071.png,n04548280_8071.png,1.0,4.720663,3.2744808,1.0226053
alexnet_w3_mlp_simclrhn_probe3,1,115,NaN,oven,oven,false,0115_fc_dnn_false_oven_35_n04111531_14543.png,n04111531_14543.png,1.0,7.035286,1.2091823,4.1196775
alexnet_w3_mlp_simclrhn_probe3,1,116,NaN,car,car,false,0116_fc_dnn_false_car_35_n03100240_10791.png,n03100240_10791.png,1.0,12.917056,4.824412,5.7223635
alexnet_w3_mlp_simclrhn_probe3,1,117,NaN,airplane,airplane,true,0117_fc_dnn_true_airplane_35_n02690373_2619.png,n02690373_2619.png,1.0,10.730463,1.7882051,6.323131
alexnet_w3_mlp_simclrhn_probe3,1,118,NaN,keyboard,keyboard,true,0118_fc_dnn_true_keyboard_35_n04505470_3864.png,n04505470_3864.png,1.0,3.5964603,1.5594274,1.4403999
alexnet_w3_mlp_simclrhn_probe3,1,119,NaN,bear,dog,true,0119_fc_dnn_true_dog_35_n02097658_4387.png,n02097658_4387.png,0.0,0.6453367,0.6631993,-0.012630778
alexnet_w3_mlp_simclrhn_probe3,1,120,NaN,oven,clock,true,0120_fc_dnn_true_clock_35_n04548280_309.png,n04548280_309.png,0.0,4.136623,5.123762,-0.6980128
alexnet_w3_mlp_simclrhn_probe3,1,121,NaN,chair,dog,true,0121_fc_dnn_true_dog_35_n02108000_5247.png,n02108000_5247.png,0.0,0.33811688,1.1439531,-0.56981224
alexnet_w3_mlp_simclrhn_probe3,1,122,NaN,keyboard,keyboard,false,0122_fc_dnn_false_keyboard_35_n04505470_4411.png,n04505470_4411.png,1.0,3.4876745,3.384204,0.07316474
alexnet_w3_mlp_simclrhn_probe3,1,123,NaN,oven,truck,false,0123_fc_dnn_false_truck_35_n03417042_2155.png,n03417042_2155.png,0.0,1.914333,2.8891747,-0.6893172
alexnet_w3_mlp_simclrhn_probe3,1,124,NaN,bear,bear,false,0124_fc_dnn_false_bear_35_n02132136_4237.png,n02132136_4237.png,1.0,8.485582,7.151885,0.9430664
alexnet_w3_mlp_simclrhn_probe3,1,125,NaN,bird,bird,false,0125_fc_dnn_false_bird_35_n01843065_2350.png,n01843065_2350.png,1.0,3.6704006,0.21034798,2.446627
alexnet_w3_mlp_simclrhn_probe3,1,126,NaN,knife,knife,false,0126_fc_dnn_false_knife_35_n03041632_51225.png,n03041632_51225.png,1.0,2.60015,1.3247476,0.9018458
alexnet_w3_mlp_simclrhn_probe3,1,127,NaN,airplane,airplane,false,0127_fc_dnn_false_airplane_35_n02690373_2095.png,n02690373_2095.png,1.0,11.367092,2.5057988,6.265881
alexnet_w3_mlp_simclrhn_probe3,1,128,NaN,clock,clock,true,0128_fc_dnn_true_clock_35_n02708093_1775.png,n02708093_1775.png,1.0,7.0303993,1.2094636,4.116023
alexnet_w3_mlp_simclrhn_probe3,1,129,NaN,elephant,elephant,true,0129_fc_dnn_true_elephant_35_n02504458_7950.png,n02504458_7950.png,1.0,26.997734,8.041682,13.403953
alexnet_w3_mlp_simclrhn_probe3,1,130,NaN,boat,boat,true,0130_fc_dnn_true_boat_35_n03662601_1926.png,n03662601_1926.png,1.0,8.344383,1.05468,5.1545987
alexnet_w3_mlp_simclrhn_probe3,1,131,NaN,bicycle,elephant,true,0131_fc_dnn_true_elephant_35_n02504458_6721.png,n02504458_6721.png,0.0,2.2625785,2.6676164,-0.28640503
alexnet_w3_mlp_simclrhn_probe3,1,132,NaN,bicycle,bicycle,true,0132_fc_dnn_true_bicycle_35_n02835271_14225.png,n02835271_14225.png,1.0,3.9742072,0.609498,2.3792088
alexnet_w3_mlp_simclrhn_probe3,1,133,NaN,clock,clock,false,0133_fc_dnn_false_clock_35_n02708093_2744.png,n02708093_2744.png,1.0,1.4274529,0.52549726,0.637779
alexnet_w3_mlp_simclrhn_probe3,1,134,NaN,clock,clock,true,0134_fc_dnn_true_clock_35_n02708093_275.png,n02708093_275.png,1.0,11.2033,0.97919834,7.229532
alexnet_w3_mlp_simclrhn_probe3,1,135,NaN,knife,knife,false,0135_fc_dnn_false_knife_35_n03041632_25512.png,n03041632_25512.png,1.0,1.0231797,0.5511606,0.3337679
alexnet_w3_mlp_simclrhn_probe3,1,136,NaN,bird,bird,true,0136_fc_dnn_true_bird_35_n01622779_5441.png,n01622779_5441.png,1.0,1.1486766,0.56388044,0.41351336
alexnet_w3_mlp_simclrhn_probe3,1,137,NaN,keyboard,oven,false,0137_fc_dnn_false_oven_35_n04111531_14329.png,n04111531_14329.png,0.0,0.4407218,3.3812985,-2.0793018
alexnet_w3_mlp_simclrhn_probe3,1,138,NaN,bird,bird,false,0138_fc_dnn_false_bird_35_n02007558_13217.png,n02007558_13217.png,1.0,4.0836525,0.42928505,2.584028
alexnet_w3_mlp_simclrhn_probe3,1,139,NaN,cat,cat,true,0139_fc_dnn_true_cat_35_n02123597_7908.png,n02123597_7908.png,1.0,1.9078115,1.5740523,0.23600338
alexnet_w3_mlp_simclrhn_probe3,1,140,NaN,clock,clock,true,0140_fc_dnn_true_clock_35_n04548280_9828.png,n04548280_9828.png,1.0,8.032353,0.722242,5.1690297
alexnet_w3_mlp_simclrhn_probe3,1,141,NaN,bird,bird,false,0141_fc_dnn_false_bird_35_n01833805_4819.png,n01833805_4819.png,1.0,0.37028125,0.19831003,0.12160201
alexnet_w3_mlp_simclrhn_probe3,1,142,NaN,oven,knife,true,0142_fc_dnn_true_knife_35_n03041632_52929.png,n03041632_52929.png,0.0,2.1032367,2.1143847,-0.007882809
alexnet_w3_mlp_simclrhn_probe3,1,143,NaN,truck,truck,false,0143_fc_dnn_false_truck_35_n04467665_2044.png,n04467665_2044.png,1.0,11.2529335,0.70528513,7.458314
alexnet_w3_mlp_simclrhn_probe3,1,144,NaN,oven,oven,false,0144_fc_dnn_false_oven_35_n04111531_16583.png,n04111531_16583.png,1.0,4.612142,3.3048897,0.9243671
alexnet_w3_mlp_simclrhn_probe3,1,145,NaN,airplane,airplane,true,0145_fc_dnn_true_airplane_35_n02690373_2796.png,n02690373_2796.png,1.0,7.6677866,4.9808536,1.8999486
alexnet_w3_mlp_simclrhn_probe3,1,146,NaN,airplane,airplane,false,0146_fc_dnn_false_airplane_35_n02690373_3362.png,n02690373_3362.png,1.0,13.803841,4.62288,6.4919195
alexnet_w3_mlp_simclrhn_probe3,1,147,NaN,clock,clock,true,0147_fc_dnn_true_clock_35_n02708093_3759.png,n02708093_3759.png,1.0,7.918466,0.87314326,4.981796
alexnet_w3_mlp_simclrhn_probe3,1,148,NaN,elephant,elephant,true,0148_fc_dnn_true_elephant_35_n02504013_2558.png,n02504013_2558.png,1.0,7.086273,2.667667,3.1244266
alexnet_w3_mlp_simclrhn_probe3,1,149,NaN,bear,bear,false,0149_fc_dnn_false_bear_35_n02134418_896.png,n02134418_896.png,1.0,1.1525968,0.7679988,0.27195188
alexnet_w3_mlp_simclrhn_probe3,1,150,NaN,truck,truck,false,0150_fc_dnn_false_truck_35_n04467665_56815.png,n04467665_56815.png,1.0,11.006618,2.3611808,6.1132474
alexnet_w3_mlp_simclrhn_probe3,1,151,NaN,truck,truck,true,0151_fc_dnn_true_truck_35_n03796401_3695.png,n03796401_3695.png,1.0,4.7636123,0.63745874,2.9176311
alexnet_w3_mlp_simclrhn_probe3,1,152,NaN,dog,dog,true,0152_fc_dnn_true_dog_35_n02107312_197.png,n02107312_197.png,1.0,0.6143816,0.5141043,0.070906766
alexnet_w3_mlp_simclrhn_probe3,1,153,NaN,bear,bear,false,0153_fc_dnn_false_bear_35_n02133161_13356.png,n02133161_13356.png,1.0,3.0850136,0.6424237,1.727172
alexnet_w3_mlp_simclrhn_probe3,1,154,NaN,truck,truck,false,0154_fc_dnn_false_truck_35_n03796401_6923.png,n03796401_6923.png,1.0,2.0881052,1.6387613,0.31773415
alexnet_w3_mlp_simclrhn_probe3,1,155,NaN,elephant,elephant,true,0155_fc_dnn_true_elephant_35_n02504458_7660.png,n02504458_7660.png,1.0,4.2687225,2.1670845,1.4860826
alexnet_w3_mlp_simclrhn_probe3,1,156,NaN,bicycle,bicycle,false,0156_fc_dnn_false_bicycle_35_n02835271_6554.png,n02835271_6554.png,1.0,18.030437,1.7721313,11.496359
alexnet_w3_mlp_simclrhn_probe3,1,157,NaN,boat,boat,true,0157_fc_dnn_true_boat_35_n04273569_2698.png,n04273569_2698.png,1.0,7.5896225,2.4663312,3.6227138
alexnet_w3_mlp_simclrhn_probe3,1,158,NaN,dog,bottle,true,0158_fc_dnn_true_bottle_35_n03983396_5055.png,n03983396_5055.png,0.0,-0.02660093,1.7766718,-1.2751064
alexnet_w3_mlp_simclrhn_probe3,1,159,NaN,chair,chair,true,0159_fc_dnn_true_chair_35_n04429376_22811.png,n04429376_22811.png,1.0,3.4289713,0.8829113,1.8003364
alexnet_w3_mlp_simclrhn_probe3,1,160,NaN,knife,knife,false,0160_fc_dnn_false_knife_35_n03041632_5640.png,n03041632_5640.png,1.0,3.0723004,1.4569831,1.1422019
alexnet_w3_mlp_simclrhn_probe3,1,161,NaN,bird,bird,true,0161_fc_dnn_true_bird_35_n01795545_14857.png,n01795545_14857.png,1.0,1.4278653,0.7437376,0.48375133
alexnet_w3_mlp_simclrhn_probe3,1,162,NaN,oven,oven,false,0162_fc_dnn_false_oven_35_n04111531_16144.png,n04111531_16144.png,1.0,6.990812,1.1308753,4.143601
alexnet_w3_mlp_simclrhn_probe3,1,163,NaN,car,truck,false,0163_fc_dnn_false_truck_35_n04467665_47050.png,n04467665_47050.png,0.0,0.3848027,1.0111307,-0.44288078
alexnet_w3_mlp_simclrhn_probe3,1,164,NaN,clock,bottle,true,0164_fc_dnn_true_bottle_35_n03937543_8063.png,n03937543_8063.png,0.0,1.9503988,4.248423,-1.6249485
alexnet_w3_mlp_simclrhn_probe3,1,165,NaN,bear,bear,false,0165_fc_dnn_false_bear_35_n02134084_1655.png,n02134084_1655.png,1.0,2.6502774,2.1134188,0.37961632
alexnet_w3_mlp_simclrhn_probe3,1,166,NaN,oven,car,false,0166_fc_dnn_false_car_35_n03100240_2425.png,n03100240_2425.png,0.0,-0.19573122,2.685911,-2.0376287
alexnet_w3_mlp_simclrhn_probe3,1,167,NaN,keyboard,keyboard,false,0167_fc_dnn_false_keyboard_35_n03085013_21300.png,n03085013_21300.png,1.0,4.1784077,1.532619,1.8708551
alexnet_w3_mlp_simclrhn_probe3,1,168,NaN,bear,bear,false,0168_fc_dnn_false_bear_35_n02132136_2248.png,n02132136_2248.png,1.0,4.12294,1.5549492,1.8158437
alexnet_w3_mlp_simclrhn_probe3,1,169,NaN,knife,knife,false,0169_fc_dnn_false_knife_35_n03041632_27832.png,n03041632_27832.png,1.0,2.0848794,1.1879165,0.63424855
alexnet_w3_mlp_simclrhn_probe3,1,170,NaN,keyboard,keyboard,true,0170_fc_dnn_true_keyboard_35_n04505470_4682.png,n04505470_4682.png,1.0,13.469145,2.7304,7.5934396
alexnet_w3_mlp_simclrhn_probe3,1,171,NaN,boat,truck,false,0171_fc_dnn_false_truck_35_n03417042_12908.png,n03417042_12908.png,0.0,0.9825542,1.2229869,-0.17001162
alexnet_w3_mlp_simclrhn_probe3,1,172,NaN,elephant,elephant,false,0172_fc_dnn_false_elephant_35_n02504013_2148.png,n02504013_2148.png,1.0,4.308123,1.8769294,1.7191137
alexnet_w3_mlp_simclrhn_probe3,1,173,NaN,boat,boat,true,0173_fc_dnn_true_boat_35_n02951358_20379.png,n02951358_20379.png,1.0,2.0343182,0.46632385,1.1087395
alexnet_w3_mlp_simclrhn_probe3,1,174,NaN,cat,cat,true,0174_fc_dnn_true_cat_35_n02123394_6521.png,n02123394_6521.png,1.0,1.6689668,0.8565507,0.5744649
alexnet_w3_mlp_simclrhn_probe3,1,175,NaN,boat,boat,true,0175_fc_dnn_true_boat_35_n03662601_9602.png,n03662601_9602.png,1.0,11.411585,1.7601715,6.8245797
alexnet_w3_mlp_simclrhn_probe3,1,176,NaN,clock,clock,true,0176_fc_dnn_true_clock_35_n04548280_3997.png,n04548280_3997.png,1.0,7.9780784,0.7914364,5.0817237
alexnet_w3_mlp_simclrhn_probe3,1,177,NaN,car,car,false,0177_fc_dnn_false_car_35_n03100240_12694.png,n03100240_12694.png,1.0,12.3097725,1.8977982,7.3623776
alexnet_w3_mlp_simclrhn_probe3,1,178,NaN,bird,bird,false,0178_fc_dnn_false_bird_35_n02002556_25052.png,n02002556_25052.png,1.0,4.5593853,0.85740834,2.6176932
alexnet_w3_mlp_simclrhn_probe3,1,179,NaN,oven,chair,true,0179_fc_dnn_true_chair_35_n04429376_22734.png,n04429376_22734.png,0.0,1.3820413,2.573634,-0.8425832
alexnet_w3_mlp_simclrhn_probe3,1,180,NaN,boat,boat,true,0180_fc_dnn_true_boat_35_n04612504_5334.png,n04612504_5334.png,1.0,9.702759,5.6373377,2.874687
alexnet_w3_mlp_simclrhn_probe3,1,181,NaN,keyboard,keyboard,true,0181_fc_dnn_true_keyboard_35_n03085013_15484.png,n03085013_15484.png,1.0,5.613986,2.2572203,2.373592
alexnet_w3_mlp_simclrhn_probe3,1,182,NaN,bear,bear,true,0182_fc_dnn_true_bear_35_n02134418_1809.png,n02134418_1809.png,1.0,9.100908,3.6795015,3.8335135
alexnet_w3_mlp_simclrhn_probe3,1,183,NaN,keyboard,bottle,true,0183_fc_dnn_true_bottle_35_n04560804_6392.png,n04560804_6392.png,0.0,1.6321344,1.7052376,-0.051691763
alexnet_w3_mlp_simclrhn_probe3,1,184,NaN,boat,boat,false,0184_fc_dnn_false_boat_35_n02951358_29495.png,n02951358_29495.png,1.0,10.036255,3.345995,4.730728
alexnet_w3_mlp_simclrhn_probe3,1,185,NaN,dog,dog,false,0185_fc_dnn_false_dog_35_n02086646_8449.png,n02086646_8449.png,1.0,3.4016883,1.0033697,1.6958675
alexnet_w3_mlp_simclrhn_probe3,1,186,NaN,bear,bird,true,0186_fc_dnn_true_bird_35_n02037110_4043.png,n02037110_4043.png,0.0,1.9862487,2.064747,-0.055506725
alexnet_w3_mlp_simclrhn_probe3,1,187,NaN,elephant,elephant,true,0187_fc_dnn_true_elephant_35_n02504458_4819.png,n02504458_4819.png,1.0,12.206744,3.8530324,5.9069667
alexnet_w3_mlp_simclrhn_probe3,1,188,NaN,bird,bird,true,0188_fc_dnn_true_bird_35_n01829413_282.png,n01829413_282.png,1.0,4.7954082,0.8189943,2.8117492
alexnet_w3_mlp_simclrhn_probe3,1,189,NaN,bird,bird,false,0189_fc_dnn_false_bird_35_n02007558_22160.png,n02007558_22160.png,1.0,2.5190756,1.268662,0.884176
alexnet_w3_mlp_simclrhn_probe3,1,190,NaN,truck,truck,false,0190_fc_dnn_false_truck_35_n03417042_3066.png,n03417042_3066.png,1.0,2.4900787,2.3364654,0.10862103
alexnet_w3_mlp_simclrhn_probe3,1,191,NaN,boat,boat,true,0191_fc_dnn_true_boat_35_n04612504_254.png,n04612504_254.png,1.0,10.300653,3.4412613,4.8503227
alexnet_w3_mlp_simclrhn_probe3,1,192,NaN,keyboard,keyboard,false,0192_fc_dnn_false_keyboard_35_n03085013_20704.png,n03085013_20704.png,1.0,4.0215607,1.6954219,1.6448286
alexnet_w3_mlp_simclrhn_probe3,1,193,NaN,knife,chair,true,0193_fc_dnn_true_chair_35_n03376595_3015.png,n03376595_3015.png,0.0,1.8265258,1.9736434,-0.10402787
alexnet_w3_mlp_simclrhn_probe3,1,194,NaN,keyboard,bottle,false,0194_fc_dnn_false_bottle_35_n03983396_3782.png,n03983396_3782.png,0.0,0.678841,6.704131,-4.2605233
alexnet_w3_mlp_simclrhn_probe3,1,195,NaN,bird,bird,false,0195_fc_dnn_false_bird_35_n01592084_4087.png,n01592084_4087.png,1.0,2.4485872,0.27661327,1.5358175
alexnet_w3_mlp_simclrhn_probe3,1,196,NaN,bird,bird,false,0196_fc_dnn_false_bird_35_n02013706_651.png,n02013706_651.png,1.0,4.5336103,0.24833965,3.030144
alexnet_w3_mlp_simclrhn_probe3,1,197,NaN,keyboard,keyboard,true,0197_fc_dnn_true_keyboard_35_n04505470_2825.png,n04505470_2825.png,1.0,8.220605,2.8268924,3.8139307
alexnet_w3_mlp_simclrhn_probe3,1,198,NaN,oven,cat,false,0198_fc_dnn_false_cat_35_n02123597_23346.png,n02123597_23346.png,0.0,1.2183102,1.6213548,-0.28499556
alexnet_w3_mlp_simclrhn_probe3,1,199,NaN,cat,cat,false,0199_fc_dnn_false_cat_35_n02124075_3592.png,n02124075_3592.png,1.0,3.4415567,0.59038883,2.0160801
alexnet_w3_mlp_simclrhn_probe3,1,200,NaN,airplane,airplane,false,0200_fc_dnn_false_airplane_35_n02690373_5415.png,n02690373_5415.png,1.0,9.770502,1.150088,6.095553
alexnet_w3_mlp_simclrhn_probe3,1,201,NaN,chair,cat,true,0201_fc_dnn_true_cat_35_n02123597_4591.png,n02123597_4591.png,0.0,1.6106509,1.7940009,-0.129648
alexnet_w3_mlp_simclrhn_probe3,1,202,NaN,elephant,elephant,false,0202_fc_dnn_false_elephant_35_n02504013_2228.png,n02504013_2228.png,1.0,8.272484,3.8076866,3.1570883
alexnet_w3_mlp_simclrhn_probe3,1,203,NaN,knife,knife,false,0203_fc_dnn_false_knife_35_n03041632_47743.png,n03041632_47743.png,1.0,2.3452349,1.1207768,0.8658226
alexnet_w3_mlp_simclrhn_probe3,1,204,NaN,bear,bear,false,0204_fc_dnn_false_bear_35_n02134418_1105.png,n02134418_1105.png,1.0,6.2765694,2.8624969,2.4141138
alexnet_w3_mlp_simclrhn_probe3,1,205,NaN,bottle,bottle,true,0205_fc_dnn_true_bottle_35_n04591713_1174.png,n04591713_1174.png,1.0,6.692654,4.167255,1.7857269
alexnet_w3_mlp_simclrhn_probe3,1,206,NaN,keyboard,keyboard,true,0206_fc_dnn_true_keyboard_35_n04505470_8544.png,n04505470_8544.png,1.0,6.3225737,4.347667,1.3964697
alexnet_w3_mlp_simclrhn_probe3,1,207,NaN,bear,bear,true,0207_fc_dnn_true_bear_35_n02134418_379.png,n02134418_379.png,1.0,13.06991,2.9012282,7.1903443
alexnet_w3_mlp_simclrhn_probe3,1,208,NaN,bottle,knife,false,0208_fc_dnn_false_knife_35_n03041632_33198.png,n03041632_33198.png,0.0,1.1172792,2.2140317,-0.77552116
alexnet_w3_mlp_simclrhn_probe3,1,209,NaN,bear,bear,true,0209_fc_dnn_true_bear_35_n02134084_4490.png,n02134084_4490.png,1.0,3.2669656,2.2257028,0.736284
alexnet_w3_mlp_simclrhn_probe3,1,210,NaN,car,car,true,0210_fc_dnn_true_car_35_n02814533_23592.png,n02814533_23592.png,1.0,3.4200008,1.3629959,1.4545221
alexnet_w3_mlp_simclrhn_probe3,1,211,NaN,bear,dog,false,0211_fc_dnn_false_dog_35_n02102973_7095.png,n02102973_7095.png,0.0,1.065856,4.1688886,-2.1941755
alexnet_w3_mlp_simclrhn_probe3,1,212,NaN,elephant,elephant,true,0212_fc_dnn_true_elephant_35_n02504013_3810.png,n02504013_3810.png,1.0,19.942356,8.12396,8.356869
alexnet_w3_mlp_simclrhn_probe3,1,213,NaN,truck,truck,false,0213_fc_dnn_false_truck_35_n03417042_28742.png,n03417042_28742.png,1.0,6.9728723,0.35108376,4.6823115
alexnet_w3_mlp_simclrhn_probe3,1,214,NaN,bicycle,bicycle,false,0214_fc_dnn_false_bicycle_35_n03792782_4382.png,n03792782_4382.png,1.0,15.633699,0.77933896,10.503619
alexnet_w3_mlp_simclrhn_probe3,1,215,NaN,keyboard,keyboard,false,0215_fc_dnn_false_keyboard_35_n04505470_2868.png,n04505470_2868.png,1.0,5.417913,2.6411145,1.9634931
alexnet_w3_mlp_simclrhn_probe3,1,216,NaN,bear,bear,true,0216_fc_dnn_true_bear_35_n02132136_4817.png,n02132136_4817.png,1.0,6.722579,3.507391,2.2734814
alexnet_w3_mlp_simclrhn_probe3,1,217,NaN,bicycle,bicycle,true,0217_fc_dnn_true_bicycle_35_n03792782_1989.png,n03792782_1989.png,1.0,6.4207363,1.9170173,3.1846101
alexnet_w3_mlp_simclrhn_probe3,1,218,NaN,truck,truck,true,0218_fc_dnn_true_truck_35_n03417042_4883.png,n03417042_4883.png,1.0,5.9889584,1.1980942,3.3876524
alexnet_w3_mlp_simclrhn_probe3,1,219,NaN,bicycle,bicycle,true,0219_fc_dnn_true_bicycle_35_n03792782_6614.png,n03792782_6614.png,1.0,11.842434,2.2210965,6.8033133
alexnet_w3_mlp_simclrhn_probe3,1,220,NaN,car,car,true,0220_fc_dnn_true_car_35_n04285008_8581.png,n04285008_8581.png,1.0,16.078497,6.386964,6.8529487
alexnet_w3_mlp_simclrhn_probe3,1,221,NaN,truck,truck,true,0221_fc_dnn_true_truck_35_n04467665_22051.png,n04467665_22051.png,1.0,8.878361,0.37895435,6.0099883
alexnet_w3_mlp_simclrhn_probe3,1,222,NaN,keyboard,keyboard,true,0222_fc_dnn_true_keyboard_35_n04505470_4516.png,n04505470_4516.png,1.0,7.975333,2.4478025,3.9085546
alexnet_w3_mlp_simclrhn_probe3,1,223,NaN,clock,clock,true,0223_fc_dnn_true_clock_35_n02708093_3355.png,n02708093_3355.png,1.0,2.1433609,0.8300678,0.9286384
alexnet_w3_mlp_simclrhn_probe3,1,224,NaN,oven,chair,false,0224_fc_dnn_false_chair_35_n02791124_11404.png,n02791124_11404.png,0.0,2.3198311,2.3259895,-0.0043546124
alexnet_w3_mlp_simclrhn_probe3,1,225,NaN,boat,boat,true,0225_fc_dnn_true_boat_35_n03344393_1145.png,n03344393_1145.png,1.0,7.113673,5.281686,1.2954108
alexnet_w3_mlp_simclrhn_probe3,1,226,NaN,chair,keyboard,false,0226_fc_dnn_false_keyboard_35_n04505470_4627.png,n04505470_4627.png,0.0,1.312545,3.5785117,-1.6022806
alexnet_w3_mlp_simclrhn_probe3,1,227,NaN,knife,chair,true,0227_fc_dnn_true_chair_35_n03376595_4354.png,n03376595_4354.png,0.0,2.245302,3.5661883,-0.9340077
alexnet_w3_mlp_simclrhn_probe3,1,228,NaN,keyboard,keyboard,false,0228_fc_dnn_false_keyboard_35_n03085013_3231.png,n03085013_3231.png,1.0,11.515144,1.7236581,6.923627
alexnet_w3_mlp_simclrhn_probe3,1,229,NaN,car,car,false,0229_fc_dnn_false_car_35_n03100240_7454.png,n03100240_7454.png,1.0,8.024967,4.2641516,2.6592982
alexnet_w3_mlp_simclrhn_probe3,1,230,NaN,bicycle,chair,false,0230_fc_dnn_false_chair_35_n03376595_4212.png,n03376595_4212.png,0.0,0.10291324,2.3635106,-1.5984838
alexnet_w3_mlp_simclrhn_probe3,1,231,NaN,airplane,airplane,true,0231_fc_dnn_true_airplane_35_n02690373_4175.png,n02690373_4175.png,1.0,13.351313,1.7389629,8.211171
alexnet_w3_mlp_simclrhn_probe3,1,232,NaN,bear,bird,false,0232_fc_dnn_false_bird_35_n01614925_19918.png,n01614925_19918.png,0.0,-0.045441203,1.5122032,-1.1014209
alexnet_w3_mlp_simclrhn_probe3,1,233,NaN,elephant,dog,false,0233_fc_dnn_false_dog_35_n02086240_1183.png,n02086240_1183.png,0.0,-0.50182414,2.526075,-2.141048
alexnet_w3_mlp_simclrhn_probe3,1,234,NaN,car,car,false,0234_fc_dnn_false_car_35_n02814533_1344.png,n02814533_1344.png,1.0,7.3838544,3.5705385,2.6964216
alexnet_w3_mlp_simclrhn_probe3,1,235,NaN,oven,bottle,true,0235_fc_dnn_true_bottle_35_n03983396_1321.png,n03983396_1321.png,0.0,0.3740714,2.065781,-1.1962194
alexnet_w3_mlp_simclrhn_probe3,1,236,NaN,cat,cat,true,0236_fc_dnn_true_cat_35_n02123597_6291.png,n02123597_6291.png,1.0,3.743191,1.1191579,1.8554715
alexnet_w3_mlp_simclrhn_probe3,1,237,NaN,knife,airplane,true,0237_fc_dnn_true_airplane_35_n02690373_7698.png,n02690373_7698.png,0.0,0.48648342,2.1606917,-1.1838441
alexnet_w3_mlp_simclrhn_probe3,1,238,NaN,airplane,airplane,false,0238_fc_dnn_false_airplane_35_n02690373_4191.png,n02690373_4191.png,1.0,2.0256104,0.8258291,0.8483736
alexnet_w3_mlp_simclrhn_probe3,1,239,NaN,bear,bear,true,0239_fc_dnn_true_bear_35_n02134418_6204.png,n02134418_6204.png,1.0,1.6866909,1.2671546,0.296657
alexnet_w3_mlp_simclrhn_probe3,1,240,NaN,elephant,bear,true,0240_fc_dnn_true_bear_35_n02132136_14829.png,n02132136_14829.png,0.0,2.415811,2.8039958,-0.2744881
alexnet_w3_mlp_simclrhn_probe3,1,241,NaN,car,car,false,0241_fc_dnn_false_car_35_n04285008_2409.png,n04285008_2409.png,1.0,8.699874,4.675433,2.8457093
alexnet_w3_mlp_simclrhn_probe3,1,242,NaN,bird,bird,true,0242_fc_dnn_true_bird_35_n02037110_3761.png,n02037110_3761.png,1.0,6.013235,0.21661091,4.098832
alexnet_w3_mlp_simclrhn_probe3,1,243,NaN,boat,boat,false,0243_fc_dnn_false_boat_35_n02951358_3067.png,n02951358_3067.png,1.0,3.6030304,1.5262582,1.4684998
alexnet_w3_mlp_simclrhn_probe3,1,244,NaN,chair,chair,false,0244_fc_dnn_false_chair_35_n03376595_14748.png,n03376595_14748.png,1.0,4.875081,1.9121547,2.0951054
alexnet_w3_mlp_simclrhn_probe3,1,245,NaN,elephant,elephant,true,0245_fc_dnn_true_elephant_35_n02504458_5951.png,n02504458_5951.png,1.0,9.028895,4.0032735,3.5536513
alexnet_w3_mlp_simclrhn_probe3,1,246,NaN,clock,clock,false,0246_fc_dnn_false_clock_35_n02708093_2006.png,n02708093_2006.png,1.0,2.4833615,1.559274,0.65342855
alexnet_w3_mlp_simclrhn_probe3,1,247,NaN,car,car,false,0247_fc_dnn_false_car_35_n03100240_18646.png,n03100240_18646.png,1.0,8.663398,1.772658,4.872489
alexnet_w3_mlp_simclrhn_probe3,1,248,NaN,bicycle,bicycle,false,0248_fc_dnn_false_bicycle_35_n03792782_5864.png,n03792782_5864.png,1.0,12.36662,1.5341022,7.6597466
alexnet_w3_mlp_simclrhn_probe3,1,249,NaN,oven,chair,false,0249_fc_dnn_false_chair_35_n04429376_36830.png,n04429376_36830.png,0.0,1.3660134,2.511112,-0.809707
alexnet_w3_mlp_simclrhn_probe3,1,250,NaN,boat,boat,true,0250_fc_dnn_true_boat_35_n04273569_9282.png,n04273569_9282.png,1.0,6.569852,2.1044908,3.1574872
alexnet_w3_mlp_simclrhn_probe3,1,251,NaN,bird,bird,true,0251_fc_dnn_true_bird_35_n01622779_1609.png,n01622779_1609.png,1.0,1.36555,0.8306001,0.37826675
alexnet_w3_mlp_simclrhn_probe3,1,252,NaN,bicycle,dog,true,0252_fc_dnn_true_dog_35_n02088094_9498.png,n02088094_9498.png,0.0,1.7388369,2.2314925,-0.34836015
alexnet_w3_mlp_simclrhn_probe3,1,253,NaN,car,car,true,0253_fc_dnn_true_car_35_n04285008_5525.png,n04285008_5525.png,1.0,6.0314355,2.1720247,2.7290156
alexnet_w3_mlp_simclrhn_probe3,1,254,NaN,knife,knife,true,0254_fc_dnn_true_knife_35_n03041632_29343.png,n03041632_29343.png,1.0,2.0462499,0.17901143,1.3203369
alexnet_w3_mlp_simclrhn_probe3,1,255,NaN,oven,knife,true,0255_fc_dnn_true_knife_35_n03041632_86338.png,n03041632_86338.png,0.0,1.1358907,1.9769952,-0.5947507
alexnet_w3_mlp_simclrhn_probe3,1,256,NaN,keyboard,keyboard,false,0256_fc_dnn_false_keyboard_35_n03085013_20691.png,n03085013_20691.png,1.0,5.324806,1.3712767,2.7955675
alexnet_w3_mlp_simclrhn_probe3,1,257,NaN,cat,cat,true,0257_fc_dnn_true_cat_35_n02124075_1957.png,n02124075_1957.png,1.0,1.3095218,1.2039917,0.07462108
alexnet_w3_mlp_simclrhn_probe3,1,258,NaN,cat,bear,false,0258_fc_dnn_false_bear_35_n02134418_195.png,n02134418_195.png,0.0,2.1261406,2.2727926,-0.10369861
alexnet_w3_mlp_simclrhn_probe3,1,259,NaN,chair,chair,true,0259_fc_dnn_true_chair_35_n02791124_1376.png,n02791124_1376.png,1.0,3.0016437,1.7627234,0.8760489
alexnet_w3_mlp_simclrhn_probe3,1,260,NaN,elephant,elephant,false,0260_fc_dnn_false_elephant_35_n02504458_8060.png,n02504458_8060.png,1.0,11.271168,3.627836,5.4046516
alexnet_w3_mlp_simclrhn_probe3,1,261,NaN,oven,oven,false,0261_fc_dnn_false_oven_35_n04111531_6479.png,n04111531_6479.png,1.0,2.283874,0.46597892,1.285446
alexnet_w3_mlp_simclrhn_probe3,1,262,NaN,bird,bear,true,0262_fc_dnn_true_bear_35_n02132136_4070.png,n02132136_4070.png,0.0,-0.0442601,0.43061557,-0.33578783
alexnet_w3_mlp_simclrhn_probe3,1,263,NaN,cat,cat,false,0263_fc_dnn_false_cat_35_n02123597_1153.png,n02123597_1153.png,1.0,1.473787,1.0910447,0.27063966
alexnet_w3_mlp_simclrhn_probe3,1,264,NaN,truck,truck,false,0264_fc_dnn_false_truck_35_n04467665_49656.png,n04467665_49656.png,1.0,8.148088,3.8943968,3.0078142
alexnet_w3_mlp_simclrhn_probe3,1,265,NaN,dog,dog,true,0265_fc_dnn_true_dog_35_n02108915_10239.png,n02108915_10239.png,1.0,2.689781,0.8813365,1.2787634
alexnet_w3_mlp_simclrhn_probe3,1,266,NaN,oven,chair,false,0266_fc_dnn_false_chair_35_n04429376_6835.png,n04429376_6835.png,0.0,1.9409825,3.0026932,-0.75074285
alexnet_w3_mlp_simclrhn_probe3,1,267,NaN,truck,truck,true,0267_fc_dnn_true_truck_35_n04467665_54079.png,n04467665_54079.png,1.0,3.1971788,2.5064075,0.4884491
alexnet_w3_mlp_simclrhn_probe3,1,268,NaN,clock,clock,false,0268_fc_dnn_false_clock_35_n03196217_4464.png,n03196217_4464.png,1.0,6.7988973,4.2789145,1.781897
alexnet_w3_mlp_simclrhn_probe3,1,269,NaN,dog,dog,true,0269_fc_dnn_true_dog_35_n02102318_9359.png,n02102318_9359.png,1.0,0.9205246,0.3878534,0.37665543
alexnet_w3_mlp_simclrhn_probe3,1,270,NaN,bicycle,bicycle,true,0270_fc_dnn_true_bicycle_35_n03792782_12578.png,n03792782_12578.png,1.0,8.957732,1.5282751,5.25342
alexnet_w3_mlp_simclrhn_probe3,1,271,NaN,bicycle,bicycle,true,0271_fc_dnn_true_bicycle_35_n02835271_12752.png,n02835271_12752.png,1.0,14.223309,0.7271063,9.543257
alexnet_w3_mlp_simclrhn_probe3,1,272,NaN,oven,oven,true,0272_fc_dnn_true_oven_35_n04111531_20056.png,n04111531_20056.png,1.0,2.2177086,0.76451576,1.0275625
alexnet_w3_mlp_simclrhn_probe3,1,273,NaN,oven,oven,true,0273_fc_dnn_true_oven_35_n04111531_12510.png,n04111531_12510.png,1.0,2.0318835,1.2107211,0.5806495
alexnet_w3_mlp_simclrhn_probe3,1,274,NaN,oven,oven,false,0274_fc_dnn_false_oven_35_n04111531_11079.png,n04111531_11079.png,1.0,5.8925676,1.9232612,2.8067236
alexnet_w3_mlp_simclrhn_probe3,1,275,NaN,cat,cat,true,0275_fc_dnn_true_cat_35_n02124075_4377.png,n02124075_4377.png,1.0,5.783109,0.98131096,3.3953843
alexnet_w3_mlp_simclrhn_probe3,1,276,NaN,knife,knife,true,0276_fc_dnn_true_knife_35_n03041632_20517.png,n03041632_20517.png,1.0,2.2923102,1.5058511,0.55611056
alexnet_w3_mlp_simclrhn_probe3,1,277,NaN,knife,knife,false,0277_fc_dnn_false_knife_35_n03041632_362.png,n03041632_362.png,1.0,2.3663723,0.6841414,1.1895169
alexnet_w3_mlp_simclrhn_probe3,1,278,NaN,airplane,airplane,false,0278_fc_dnn_false_airplane_35_n02690373_6807.png,n02690373_6807.png,1.0,6.8559914,3.7473478,2.198143
alexnet_w3_mlp_simclrhn_probe3,1,279,NaN,elephant,elephant,false,0279_fc_dnn_false_elephant_35_n02504013_1494.png,n02504013_1494.png,1.0,18.866058,7.2203016,8.234794
alexnet_w3_mlp_simclrhn_probe3,1,280,NaN,oven,oven,false,0280_fc_dnn_false_oven_35_n04111531_3181.png,n04111531_3181.png,1.0,2.2033958,1.0507499,0.8150438
alexnet_w3_mlp_simclrhn_probe3,1,281,NaN,car,truck,false,0281_fc_dnn_false_truck_35_n03796401_6727.png,n03796401_6727.png,0.0,4.287104,10.0303335,-4.0610766
alexnet_w3_mlp_simclrhn_probe3,1,282,NaN,elephant,dog,true,0282_fc_dnn_true_dog_35_n02113023_6956.png,n02113023_6956.png,0.0,1.8634341,2.2457547,-0.27034152
alexnet_w3_mlp_simclrhn_probe3,1,283,NaN,elephant,elephant,false,0283_fc_dnn_false_elephant_35_n02504013_1519.png,n02504013_1519.png,1.0,0.6486752,0.32344714,0.22997098
alexnet_w3_mlp_simclrhn_probe3,1,284,NaN,oven,oven,false,0284_fc_dnn_false_oven_35_n04111531_8082.png,n04111531_8082.png,1.0,2.8967652,2.4393287,0.3234565
alexnet_w3_mlp_simclrhn_probe3,1,285,NaN,oven,oven,false,0285_fc_dnn_false_oven_35_n04111531_550.png,n04111531_550.png,1.0,3.3447096,1.9638022,0.976449
alexnet_w3_mlp_simclrhn_probe3,1,286,NaN,bottle,clock,false,0286_fc_dnn_false_clock_35_n02708093_2242.png,n02708093_2242.png,0.0,-0.37159228,0.34120777,-0.50402576
alexnet_w3_mlp_simclrhn_probe3,1,287,NaN,airplane,airplane,true,0287_fc_dnn_true_airplane_35_n02690373_10809.png,n02690373_10809.png,1.0,12.425829,0.8772804,8.166058
alexnet_w3_mlp_simclrhn_probe3,1,288,NaN,bird,bird,false,0288_fc_dnn_false_bird_35_n02037110_6501.png,n02037110_6501.png,1.0,6.056938,0.91561425,3.6354651
alexnet_w3_mlp_simclrhn_probe3,1,289,NaN,airplane,airplane,false,0289_fc_dnn_false_airplane_35_n02690373_12756.png,n02690373_12756.png,1.0,6.969387,1.4248465,3.9205823
alexnet_w3_mlp_simclrhn_probe3,1,290,NaN,oven,bottle,false,0290_fc_dnn_false_bottle_35_n03983396_5413.png,n03983396_5413.png,0.0,1.3056185,2.2729733,-0.68402314
alexnet_w3_mlp_simclrhn_probe3,1,291,NaN,bird,bird,true,0291_fc_dnn_true_bird_35_n01560419_631.png,n01560419_631.png,1.0,4.1203666,0.8268743,2.3288507
alexnet_w3_mlp_simclrhn_probe3,1,292,NaN,oven,cat,true,0292_fc_dnn_true_cat_35_n02123394_4734.png,n02123394_4734.png,0.0,1.155794,1.1967008,-0.028925467
alexnet_w3_mlp_simclrhn_probe3,1,293,NaN,bottle,bottle,true,0293_fc_dnn_true_bottle_35_n03937543_469.png,n03937543_469.png,1.0,2.8761477,1.202277,1.1836054
alexnet_w3_mlp_simclrhn_probe3,1,294,NaN,clock,clock,true,0294_fc_dnn_true_clock_35_n04548280_1055.png,n04548280_1055.png,1.0,5.335295,1.248401,2.8898706
alexnet_w3_mlp_simclrhn_probe3,1,295,NaN,chair,chair,true,0295_fc_dnn_true_chair_35_n02791124_15934.png,n02791124_15934.png,1.0,1.8133144,1.5609531,0.17844638
alexnet_w3_mlp_simclrhn_probe3,1,296,NaN,cat,keyboard,true,0296_fc_dnn_true_keyboard_35_n03085013_22187.png,n03085013_22187.png,0.0,1.2491279,12.105035,-7.6762857
alexnet_w3_mlp_simclrhn_probe3,1,297,NaN,dog,dog,false,0297_fc_dnn_false_dog_35_n02099601_8560.png,n02099601_8560.png,1.0,3.5096328,2.471771,0.73387915
alexnet_w3_mlp_simclrhn_probe3,1,298,NaN,truck,truck,true,0298_fc_dnn_true_truck_35_n03417042_11091.png,n03417042_11091.png,1.0,7.2059174,0.67846084,4.6156087
alexnet_w3_mlp_simclrhn_probe3,1,299,NaN,bird,bird,true,0299_fc_dnn_true_bird_35_n02013706_7132.png,n02013706_7132.png,1.0,3.2284248,1.7742581,1.0282512
alexnet_w3_mlp_simclrhn_probe3,1,300,NaN,car,car,false,0300_fc_dnn_false_car_35_n02814533_4978.png,n02814533_4978.png,1.0,9.0361395,3.8783906,3.6470795
alexnet_w3_mlp_simclrhn_probe3,1,301,NaN,bear,bear,true,0301_fc_dnn_true_bear_35_n02134418_6244.png,n02134418_6244.png,1.0,5.7150354,1.3076603,3.116485
alexnet_w3_mlp_simclrhn_probe3,1,302,NaN,bicycle,bicycle,false,0302_fc_dnn_false_bicycle_35_n03792782_50569.png,n03792782_50569.png,1.0,12.9478655,3.796731,6.4708295
alexnet_w3_mlp_simclrhn_probe3,1,303,NaN,car,car,true,0303_fc_dnn_true_car_35_n03100240_2632.png,n03100240_2632.png,1.0,7.7911744,5.68048,1.4924864
alexnet_w3_mlp_simclrhn_probe3,1,304,NaN,knife,knife,false,0304_fc_dnn_false_knife_35_n03041632_11285.png,n03041632_11285.png,1.0,2.1372297,0.892239,0.8803414
alexnet_w3_mlp_simclrhn_probe3,1,305,NaN,knife,knife,false,0305_fc_dnn_false_knife_35_n03041632_39952.png,n03041632_39952.png,1.0,3.1337476,0.65496576,1.7527634
alexnet_w3_mlp_simclrhn_probe3,1,306,NaN,chair,chair,true,0306_fc_dnn_true_chair_35_n04099969_9745.png,n04099969_9745.png,1.0,2.2521672,0.56493366,1.1930543
alexnet_w3_mlp_simclrhn_probe3,1,307,NaN,car,car,true,0307_fc_dnn_true_car_35_n03100240_49.png,n03100240_49.png,1.0,14.211316,11.171839,2.149235
alexnet_w3_mlp_simclrhn_probe3,1,308,NaN,bird,bird,true,0308_fc_dnn_true_bird_35_n01817953_5953.png,n01817953_5953.png,1.0,5.611394,2.9403508,1.8887128
alexnet_w3_mlp_simclrhn_probe3,1,309,NaN,bear,bear,false,0309_fc_dnn_false_bear_35_n02134418_5253.png,n02134418_5253.png,1.0,2.8555696,1.3507885,1.0640409
alexnet_w3_mlp_simclrhn_probe3,1,310,NaN,bicycle,bicycle,false,0310_fc_dnn_false_bicycle_35_n03792782_7576.png,n03792782_7576.png,1.0,11.916215,0.9740456,7.7372823
alexnet_w3_mlp_simclrhn_probe3,1,311,NaN,clock,keyboard,true,0311_fc_dnn_true_keyboard_35_n03085013_5157.png,n03085013_5157.png,0.0,0.9246992,3.0141757,-1.477483
alexnet_w3_mlp_simclrhn_probe3,1,312,NaN,airplane,boat,true,0312_fc_dnn_true_boat_35_n03344393_7050.png,n03344393_7050.png,0.0,0.20291789,2.4340928,-1.5776789
alexnet_w3_mlp_simclrhn_probe3,1,313,NaN,bicycle,bicycle,false,0313_fc_dnn_false_bicycle_35_n03792782_51335.png,n03792782_51335.png,1.0,8.023071,0.79652905,5.109937
alexnet_w3_mlp_simclrhn_probe3,1,314,NaN,cat,cat,true,0314_fc_dnn_true_cat_35_n02124075_7230.png,n02124075_7230.png,1.0,5.981901,0.63855296,3.7783177
alexnet_w3_mlp_simclrhn_probe3,1,315,NaN,airplane,truck,true,0315_fc_dnn_true_truck_35_n04467665_68020.png,n04467665_68020.png,0.0,1.7094524,2.248247,-0.38098526
alexnet_w3_mlp_simclrhn_probe3,1,316,NaN,elephant,elephant,true,0316_fc_dnn_true_elephant_35_n02504458_2970.png,n02504458_2970.png,1.0,1.0229967,0.68422604,0.23954701
alexnet_w3_mlp_simclrhn_probe3,1,317,NaN,bicycle,bicycle,false,0317_fc_dnn_false_bicycle_35_n02835271_2714.png,n02835271_2714.png,1.0,17.246265,2.3883088,10.506163
alexnet_w3_mlp_simclrhn_probe3,1,318,NaN,elephant,elephant,true,0318_fc_dnn_true_elephant_35_n02504013_3307.png,n02504013_3307.png,1.0,13.324094,6.311144,4.9589047
alexnet_w3_mlp_simclrhn_probe3,1,319,NaN,truck,truck,true,0319_fc_dnn_true_truck_35_n03796401_3940.png,n03796401_3940.png,1.0,7.930393,2.9989202,3.487078
alexnet_w3_mlp_simclrhn_probe3,1,320,NaN,oven,chair,false,0320_fc_dnn_false_chair_35_n04429376_5362.png,n04429376_5362.png,0.0,2.9367013,5.3640795,-1.7164156
alexnet_w3_mlp_simclrhn_probe3,1,321,NaN,cat,cat,false,0321_fc_dnn_false_cat_35_n02123159_1165.png,n02123159_1165.png,1.0,4.023597,2.309863,1.2117927
alexnet_w3_mlp_simclrhn_probe3,1,322,NaN,airplane,boat,true,0322_fc_dnn_true_boat_35_n03662601_4665.png,n03662601_4665.png,0.0,4.3289957,5.5999966,-0.8987333
alexnet_w3_mlp_simclrhn_probe3,1,323,NaN,cat,cat,true,0323_fc_dnn_true_cat_35_n02124075_5067.png,n02124075_5067.png,1.0,8.030151,1.214276,4.819552
alexnet_w3_mlp_simclrhn_probe3,1,324,NaN,knife,knife,true,0324_fc_dnn_true_knife_35_n03041632_22480.png,n03041632_22480.png,1.0,2.6300478,0.3805886,1.5906079
alexnet_w3_mlp_simclrhn_probe3,1,325,NaN,bicycle,bottle,false,0325_fc_dnn_false_bottle_35_n04560804_2539.png,n04560804_2539.png,0.0,-0.0011156286,5.944295,-4.2040405
alexnet_w3_mlp_simclrhn_probe3,1,326,NaN,oven,oven,true,0326_fc_dnn_true_oven_35_n04111531_8681.png,n04111531_8681.png,1.0,4.8228765,2.0111089,1.98822
alexnet_w3_mlp_simclrhn_probe3,1,327,NaN,car,car,false,0327_fc_dnn_false_car_35_n03100240_23804.png,n03100240_23804.png,1.0,16.197123,9.56678,4.68836
alexnet_w3_mlp_simclrhn_probe3,1,328,NaN,oven,oven,true,0328_fc_dnn_true_oven_35_n04111531_547.png,n04111531_547.png,1.0,4.9015007,1.4121536,2.467341
alexnet_w3_mlp_simclrhn_probe3,1,329,NaN,boat,boat,false,0329_fc_dnn_false_boat_35_n04273569_9873.png,n04273569_9873.png,1.0,7.8218145,1.1439075,4.7219934
alexnet_w3_mlp_simclrhn_probe3,1,330,NaN,cat,cat,false,0330_fc_dnn_false_cat_35_n02123597_13140.png,n02123597_13140.png,1.0,2.4811862,1.3985288,0.76555437
alexnet_w3_mlp_simclrhn_probe3,1,331,NaN,bear,bear,true,0331_fc_dnn_true_bear_35_n02134418_1330.png,n02134418_1330.png,1.0,4.5655107,1.5191357,2.1541126
alexnet_w3_mlp_simclrhn_probe3,1,332,NaN,oven,chair,false,0332_fc_dnn_false_chair_35_n04429376_6272.png,n04429376_6272.png,0.0,2.5181804,4.7339306,-1.566772
alexnet_w3_mlp_simclrhn_probe3,1,333,NaN,bear,bear,false,0333_fc_dnn_false_bear_35_n02134084_22997.png,n02134084_22997.png,1.0,3.9450698,1.6889833,1.595294
alexnet_w3_mlp_simclrhn_probe3,1,334,NaN,oven,clock,false,0334_fc_dnn_false_clock_35_n03196217_3508.png,n03196217_3508.png,0.0,1.1939118,3.2269125,-1.4375486
alexnet_w3_mlp_simclrhn_probe3,1,335,NaN,chair,chair,true,0335_fc_dnn_true_chair_35_n02791124_958.png,n02791124_958.png,1.0,1.827546,1.089956,0.5215549
alexnet_w3_mlp_simclrhn_probe3,1,336,NaN,boat,boat,false,0336_fc_dnn_false_boat_35_n03344393_4012.png,n03344393_4012.png,1.0,4.236947,2.2817292,1.3825479
alexnet_w3_mlp_simclrhn_probe3,1,337,NaN,airplane,airplane,true,0337_fc_dnn_true_airplane_35_n02690373_4921.png,n02690373_4921.png,1.0,13.981275,2.8139503,7.8964906
alexnet_w3_mlp_simclrhn_probe3,1,338,NaN,bear,cat,false,0338_fc_dnn_false_cat_35_n02125311_28052.png,n02125311_28052.png,0.0,1.3053206,2.3119307,-0.7117808
alexnet_w3_mlp_simclrhn_probe3,1,339,NaN,airplane,airplane,false,0339_fc_dnn_false_airplane_35_n02690373_1837.png,n02690373_1837.png,1.0,2.7523232,2.0219338,0.5164633
alexnet_w3_mlp_simclrhn_probe3,1,340,NaN,elephant,elephant,false,0340_fc_dnn_false_elephant_35_n02504458_5191.png,n02504458_5191.png,1.0,13.220861,3.6258347,6.784709
alexnet_w3_mlp_simclrhn_probe3,1,341,NaN,bird,bird,false,0341_fc_dnn_false_bird_35_n01855672_2187.png,n01855672_2187.png,1.0,2.881395,1.1696641,1.2103766
alexnet_w3_mlp_simclrhn_probe3,1,342,NaN,clock,clock,true,0342_fc_dnn_true_clock_35_n04548280_7794.png,n04548280_7794.png,1.0,5.288731,2.179967,2.1982284
alexnet_w3_mlp_simclrhn_probe3,1,343,NaN,keyboard,clock,false,0343_fc_dnn_false_clock_35_n03196217_8489.png,n03196217_8489.png,0.0,0.25111213,2.9816754,-1.9307997
alexnet_w3_mlp_simclrhn_probe3,1,344,NaN,knife,knife,false,0344_fc_dnn_false_knife_35_n03041632_21590.png,n03041632_21590.png,1.0,1.5279187,1.3353692,0.13615304
alexnet_w3_mlp_simclrhn_probe3,1,345,NaN,elephant,elephant,false,0345_fc_dnn_false_elephant_35_n02504458_1249.png,n02504458_1249.png,1.0,25.602505,6.3108826,13.641237
alexnet_w3_mlp_simclrhn_probe3,1,346,NaN,keyboard,keyboard,false,0346_fc_dnn_false_keyboard_35_n04505470_4549.png,n04505470_4549.png,1.0,3.5533438,2.1973119,0.9588594
alexnet_w3_mlp_simclrhn_probe3,1,347,NaN,elephant,elephant,false,0347_fc_dnn_false_elephant_35_n02504013_3771.png,n02504013_3771.png,1.0,12.808893,4.209847,6.0804443
alexnet_w3_mlp_simclrhn_probe3,1,348,NaN,bicycle,bicycle,true,0348_fc_dnn_true_bicycle_35_n02835271_19552.png,n02835271_19552.png,1.0,14.349862,5.5889974,6.1948667
alexnet_w3_mlp_simclrhn_probe3,1,349,NaN,elephant,bear,true,0349_fc_dnn_true_bear_35_n02134084_4477.png,n02134084_4477.png,0.0,2.039039,2.6766222,-0.45083946
alexnet_w3_mlp_simclrhn_probe3,1,350,NaN,elephant,elephant,false,0350_fc_dnn_false_elephant_35_n02504013_10149.png,n02504013_10149.png,1.0,31.735542,9.679291,15.596126
alexnet_w3_mlp_simclrhn_probe3,1,351,NaN,boat,boat,true,0351_fc_dnn_true_boat_35_n04273569_709.png,n04273569_709.png,1.0,7.435028,5.5398097,1.3401217
alexnet_w3_mlp_simclrhn_probe3,1,352,NaN,car,car,false,0352_fc_dnn_false_car_35_n03100240_7120.png,n03100240_7120.png,1.0,17.936115,10.491676,5.2640133
alexnet_w3_mlp_simclrhn_probe3,1,353,NaN,car,boat,false,0353_fc_dnn_false_boat_35_n02951358_12867.png,n02951358_12867.png,0.0,1.8890272,9.985177,-5.724842
alexnet_w3_mlp_simclrhn_probe3,1,354,NaN,bird,bird,true,0354_fc_dnn_true_bird_35_n01558993_38999.png,n01558993_38999.png,1.0,3.0152397,0.6644118,1.6622864
alexnet_w3_mlp_simclrhn_probe3,1,355,NaN,bicycle,bicycle,false,0355_fc_dnn_false_bicycle_35_n03792782_4210.png,n03792782_4210.png,1.0,4.5744996,0.8467991,2.6358824
alexnet_w3_mlp_simclrhn_probe3,1,356,NaN,dog,dog,false,0356_fc_dnn_false_dog_35_n02102318_11997.png,n02102318_11997.png,1.0,3.1801624,2.017587,0.822065
alexnet_w3_mlp_simclrhn_probe3,1,357,NaN,oven,clock,false,0357_fc_dnn_false_clock_35_n02708093_6813.png,n02708093_6813.png,0.0,0.1818143,1.930706,-1.2366532
alexnet_w3_mlp_simclrhn_probe3,1,358,NaN,oven,oven,false,0358_fc_dnn_false_oven_35_n04111531_8036.png,n04111531_8036.png,1.0,5.569602,0.6182044,3.5011668
alexnet_w3_mlp_simclrhn_probe3,1,359,NaN,clock,clock,false,0359_fc_dnn_false_clock_35_n02708093_3454.png,n02708093_3454.png,1.0,12.227588,0.5706164,8.242723
alexnet_w3_mlp_simclrhn_probe3,1,360,NaN,keyboard,keyboard,true,0360_fc_dnn_true_keyboard_35_n03085013_21641.png,n03085013_21641.png,1.0,16.094666,2.2637665,9.7799225
alexnet_w3_mlp_simclrhn_probe3,1,361,NaN,oven,chair,false,0361_fc_dnn_false_chair_35_n02791124_139.png,n02791124_139.png,0.0,1.9975748,4.2697573,-1.6066756
alexnet_w3_mlp_simclrhn_probe3,1,362,NaN,bear,bear,false,0362_fc_dnn_false_bear_35_n02134084_6821.png,n02134084_6821.png,1.0,2.132896,1.5444199,0.41611543
alexnet_w3_mlp_simclrhn_probe3,1,363,NaN,cat,cat,false,0363_fc_dnn_false_cat_35_n02124075_5874.png,n02124075_5874.png,1.0,5.7263618,0.9204259,3.39831
alexnet_w3_mlp_simclrhn_probe3,1,364,NaN,chair,chair,false,0364_fc_dnn_false_chair_35_n04099969_8604.png,n04099969_8604.png,1.0,4.378584,2.6419952,1.2279537
alexnet_w3_mlp_simclrhn_probe3,1,365,NaN,bicycle,bicycle,true,0365_fc_dnn_true_bicycle_35_n02835271_15524.png,n02835271_15524.png,1.0,17.033466,3.8746047,9.30472
alexnet_w3_mlp_simclrhn_probe3,1,366,NaN,chair,chair,false,0366_fc_dnn_false_chair_35_n04429376_55163.png,n04429376_55163.png,1.0,5.3739014,3.508251,1.3192141
alexnet_w3_mlp_simclrhn_probe3,1,367,NaN,dog,dog,true,0367_fc_dnn_true_dog_35_n02106662_10632.png,n02106662_10632.png,1.0,2.196733,0.8657851,0.9411223
alexnet_w3_mlp_simclrhn_probe3,1,368,NaN,car,car,false,0368_fc_dnn_false_car_35_n03100240_9675.png,n03100240_9675.png,1.0,10.905564,1.4693522,6.67241
alexnet_w3_mlp_simclrhn_probe3,1,369,NaN,bird,bird,true,0369_fc_dnn_true_bird_35_n02011460_22291.png,n02011460_22291.png,1.0,4.430615,0.0851195,3.072729
alexnet_w3_mlp_simclrhn_probe3,1,370,NaN,cat,dog,false,0370_fc_dnn_false_dog_35_n02106662_56099.png,n02106662_56099.png,0.0,0.2589243,3.0066855,-1.9429606
alexnet_w3_mlp_simclrhn_probe3,1,371,NaN,keyboard,keyboard,false,0371_fc_dnn_false_keyboard_35_n04505470_3970.png,n04505470_3970.png,1.0,15.94767,4.4753213,8.112176
alexnet_w3_mlp_simclrhn_probe3,1,372,NaN,boat,boat,false,0372_fc_dnn_false_boat_35_n03662601_32803.png,n03662601_32803.png,1.0,13.69312,1.8173001,8.397473
alexnet_w3_mlp_simclrhn_probe3,1,373,NaN,bottle,bottle,false,0373_fc_dnn_false_bottle_35_n02823428_4043.png,n02823428_4043.png,1.0,7.177542,2.3061717,3.4445791
alexnet_w3_mlp_simclrhn_probe3,1,374,NaN,airplane,airplane,true,0374_fc_dnn_true_airplane_35_n02690373_5221.png,n02690373_5221.png,1.0,16.462122,3.2418137,9.34817
alexnet_w3_mlp_simclrhn_probe3,1,375,NaN,keyboard,knife,false,0375_fc_dnn_false_knife_35_n03041632_90125.png,n03041632_90125.png,0.0,0.3793815,2.9118137,-1.7907001
alexnet_w3_mlp_simclrhn_probe3,1,376,NaN,oven,oven,false,0376_fc_dnn_false_oven_35_n04111531_11230.png,n04111531_11230.png,1.0,6.621172,1.7731335,3.428081
alexnet_w3_mlp_simclrhn_probe3,1,377,NaN,keyboard,keyboard,true,0377_fc_dnn_true_keyboard_35_n04505470_3002.png,n04505470_3002.png,1.0,2.9282916,0.9817389,1.3764206
alexnet_w3_mlp_simclrhn_probe3,1,378,NaN,bicycle,bicycle,true,0378_fc_dnn_true_bicycle_35_n02835271_12237.png,n02835271_12237.png,1.0,10.705084,1.2460332,6.6885595
alexnet_w3_mlp_simclrhn_probe3,1,379,NaN,oven,dog,false,0379_fc_dnn_false_dog_35_n02088238_9947.png,n02088238_9947.png,0.0,0.33420035,2.6303144,-1.6235977
alexnet_w3_mlp_simclrhn_probe3,1,380,NaN,airplane,airplane,false,0380_fc_dnn_false_airplane_35_n02690373_2075.png,n02690373_2075.png,1.0,1.0247203,0.9239744,0.07123812
alexnet_w3_mlp_simclrhn_probe3,1,381,NaN,bicycle,bicycle,false,0381_fc_dnn_false_bicycle_35_n02835271_12930.png,n02835271_12930.png,1.0,17.221533,2.026229,10.744702
alexnet_w3_mlp_simclrhn_probe3,1,382,NaN,dog,dog,false,0382_fc_dnn_false_dog_35_n02096294_4609.png,n02096294_4609.png,1.0,2.577941,1.8930359,0.484301
alexnet_w3_mlp_simclrhn_probe3,1,383,NaN,oven,knife,false,0383_fc_dnn_false_knife_35_n03041632_15754.png,n03041632_15754.png,0.0,1.1349504,2.355423,-0.86300445
alexnet_w3_mlp_simclrhn_probe3,1,384,NaN,bird,bird,true,0384_fc_dnn_true_bird_35_n01819313_5634.png,n01819313_5634.png,1.0,2.8771615,2.3348076,0.3835021
alexnet_w3_mlp_simclrhn_probe3,1,385,NaN,clock,clock,true,0385_fc_dnn_true_clock_35_n02708093_8386.png,n02708093_8386.png,1.0,4.9125843,0.42021608,3.176584
alexnet_w3_mlp_simclrhn_probe3,1,386,NaN,bottle,bottle,false,0386_fc_dnn_false_bottle_35_n04579145_6435.png,n04579145_6435.png,1.0,7.183459,1.9752733,3.6827435
alexnet_w3_mlp_simclrhn_probe3,1,387,NaN,airplane,airplane,true,0387_fc_dnn_true_airplane_35_n02690373_9531.png,n02690373_9531.png,1.0,3.699988,2.2685964,1.0121466
alexnet_w3_mlp_simclrhn_probe3,1,388,NaN,chair,bottle,true,0388_fc_dnn_true_bottle_35_n04591713_5518.png,n04591713_5518.png,0.0,0.77358377,2.8818238,-1.4907509
alexnet_w3_mlp_simclrhn_probe3,1,389,NaN,airplane,airplane,false,0389_fc_dnn_false_airplane_35_n02690373_12896.png,n02690373_12896.png,1.0,6.591403,1.7863977,3.3976517
alexnet_w3_mlp_simclrhn_probe3,1,390,NaN,truck,truck,false,0390_fc_dnn_false_truck_35_n03796401_124.png,n03796401_124.png,1.0,4.561906,3.0689135,1.0557051
alexnet_w3_mlp_simclrhn_probe3,1,391,NaN,bicycle,bicycle,true,0391_fc_dnn_true_bicycle_35_n03792782_7050.png,n03792782_7050.png,1.0,1.4252309,0.7542327,0.47446737
alexnet_w3_mlp_simclrhn_probe3,1,392,NaN,bicycle,bicycle,true,0392_fc_dnn_true_bicycle_35_n02835271_13729.png,n02835271_13729.png,1.0,15.025724,2.8822966,8.5867
alexnet_w3_mlp_simclrhn_probe3,1,393,NaN,bird,bird,false,0393_fc_dnn_false_bird_35_n02027492_3922.png,n02027492_3922.png,1.0,2.6453865,0.73548007,1.3505077
alexnet_w3_mlp_simclrhn_probe3,1,394,NaN,elephant,elephant,true,0394_fc_dnn_true_elephant_35_n02504013_9809.png,n02504013_9809.png,1.0,16.958443,5.776002,7.90718
alexnet_w3_mlp_simclrhn_probe3,1,395,NaN,keyboard,keyboard,false,0395_fc_dnn_false_keyboard_35_n04505470_5086.png,n04505470_5086.png,1.0,10.624758,3.2396054,5.222091
alexnet_w3_mlp_simclrhn_probe3,1,396,NaN,keyboard,keyboard,true,0396_fc_dnn_true_keyboard_35_n03085013_19439.png,n03085013_19439.png,1.0,4.5510235,0.88810194,2.5900767
alexnet_w3_mlp_simclrhn_probe3,1,397,NaN,airplane,airplane,false,0397_fc_dnn_false_airplane_35_n02690373_9926.png,n02690373_9926.png,1.0,8.787207,1.0303333,5.4849377
alexnet_w3_mlp_simclrhn_probe3,1,398,NaN,elephant,elephant,true,0398_fc_dnn_true_elephant_35_n02504458_3197.png,n02504458_3197.png,1.0,21.624557,7.760733,9.803205
alexnet_w3_mlp_simclrhn_probe3,1,399,NaN,dog,dog,false,0399_fc_dnn_false_dog_35_n02110185_14056.png,n02110185_14056.png,1.0,3.3504124,0.43884802,2.0587869
alexnet_w3_mlp_simclrhn_probe3,1,400,NaN,airplane,airplane,true,0400_fc_dnn_true_airplane_35_n02690373_2823.png,n02690373_2823.png,1.0,15.670444,6.172235,6.716248
alexnet_w3_mlp_simclrhn_probe3,1,401,NaN,bicycle,bicycle,false,0401_fc_dnn_false_bicycle_35_n02835271_14157.png,n02835271_14157.png,1.0,24.405052,2.0633566,15.797965
alexnet_w3_mlp_simclrhn_probe3,1,402,NaN,bicycle,chair,true,0402_fc_dnn_true_chair_35_n03376595_606.png,n03376595_606.png,0.0,3.0000367,3.1669955,-0.118057705
alexnet_w3_mlp_simclrhn_probe3,1,403,NaN,airplane,airplane,false,0403_fc_dnn_false_airplane_35_n02690373_1442.png,n02690373_1442.png,1.0,7.5365887,1.210559,4.473179
alexnet_w3_mlp_simclrhn_probe3,1,404,NaN,keyboard,keyboard,true,0404_fc_dnn_true_keyboard_35_n04505470_10035.png,n04505470_10035.png,1.0,7.3443127,2.8064544,3.2087502
alexnet_w3_mlp_simclrhn_probe3,1,405,NaN,bear,bear,true,0405_fc_dnn_true_bear_35_n02133161_13278.png,n02133161_13278.png,1.0,6.590654,5.535214,0.74630874
alexnet_w3_mlp_simclrhn_probe3,1,406,NaN,bear,bear,true,0406_fc_dnn_true_bear_35_n02134418_2657.png,n02134418_2657.png,1.0,1.2521706,1.2429831,0.006496515
alexnet_w3_mlp_simclrhn_probe3,1,407,NaN,bear,bear,false,0407_fc_dnn_false_bear_35_n02133161_12894.png,n02133161_12894.png,1.0,5.3753476,1.4317002,2.78858
alexnet_w3_mlp_simclrhn_probe3,1,408,NaN,car,clock,false,0408_fc_dnn_false_clock_35_n03196217_6195.png,n03196217_6195.png,0.0,3.317352,5.2826934,-1.3897063
alexnet_w3_mlp_simclrhn_probe3,1,409,NaN,bottle,bottle,true,0409_fc_dnn_true_bottle_35_n04591713_13349.png,n04591713_13349.png,1.0,6.8614416,3.6669784,2.2588267
alexnet_w3_mlp_simclrhn_probe3,1,410,NaN,airplane,boat,false,0410_fc_dnn_false_boat_35_n04273569_16295.png,n04273569_16295.png,0.0,2.8321006,3.998768,-0.8249585
alexnet_w3_mlp_simclrhn_probe3,1,411,NaN,elephant,elephant,false,0411_fc_dnn_false_elephant_35_n02504013_2672.png,n02504013_2672.png,1.0,14.584237,4.474366,7.1487584
alexnet_w3_mlp_simclrhn_probe3,1,412,NaN,bear,bear,true,0412_fc_dnn_true_bear_35_n02134084_22292.png,n02134084_22292.png,1.0,5.7920623,5.1617885,0.4456709
alexnet_w3_mlp_simclrhn_probe3,1,413,NaN,airplane,airplane,false,0413_fc_dnn_false_airplane_35_n02690373_997.png,n02690373_997.png,1.0,10.067545,3.4435616,4.6838636
alexnet_w3_mlp_simclrhn_probe3,1,414,NaN,knife,knife,true,0414_fc_dnn_true_knife_35_n03041632_29337.png,n03041632_29337.png,1.0,1.532501,0.9069294,0.44234595
alexnet_w3_mlp_simclrhn_probe3,1,415,NaN,elephant,elephant,true,0415_fc_dnn_true_elephant_35_n02504458_3261.png,n02504458_3261.png,1.0,3.647376,1.3452656,1.6278379
alexnet_w3_mlp_simclrhn_probe3,1,416,NaN,oven,oven,true,0416_fc_dnn_true_oven_35_n04111531_22120.png,n04111531_22120.png,1.0,3.947569,1.1565782,1.9735286
alexnet_w3_mlp_simclrhn_probe3,1,417,NaN,bear,bear,true,0417_fc_dnn_true_bear_35_n02134418_830.png,n02134418_830.png,1.0,4.6111903,2.8434377,1.2499899
alexnet_w3_mlp_simclrhn_probe3,1,418,NaN,truck,truck,false,0418_fc_dnn_false_truck_35_n03417042_2124.png,n03417042_2124.png,1.0,8.910805,1.5429703,5.209846
alexnet_w3_mlp_simclrhn_probe3,1,419,NaN,bicycle,bicycle,false,0419_fc_dnn_false_bicycle_35_n02835271_14585.png,n02835271_14585.png,1.0,13.074497,0.60130286,8.8198805
alexnet_w3_mlp_simclrhn_probe3,1,420,NaN,oven,oven,true,0420_fc_dnn_true_oven_35_n04111531_2855.png,n04111531_2855.png,1.0,4.008405,0.5324752,2.4578538
alexnet_w3_mlp_simclrhn_probe3,1,421,NaN,cat,cat,false,0421_fc_dnn_false_cat_35_n02123394_4383.png,n02123394_4383.png,1.0,2.83732,1.491909,0.9513493
alexnet_w3_mlp_simclrhn_probe3,1,422,NaN,cat,cat,true,0422_fc_dnn_true_cat_35_n02125311_17068.png,n02125311_17068.png,1.0,3.5652134,1.9410971,1.1484237
alexnet_w3_mlp_simclrhn_probe3,1,423,NaN,bird,bird,false,0423_fc_dnn_false_bird_35_n01560419_2291.png,n01560419_2291.png,1.0,4.0886936,1.7332406,1.6655568
alexnet_w3_mlp_simclrhn_probe3,1,424,NaN,bird,bird,false,0424_fc_dnn_false_bird_35_n01829413_2459.png,n01829413_2459.png,1.0,3.9297905,1.5547041,1.6794397
alexnet_w3_mlp_simclrhn_probe3,1,425,NaN,oven,oven,true,0425_fc_dnn_true_oven_35_n04111531_13822.png,n04111531_13822.png,1.0,5.3572364,2.0018632,2.3726072
alexnet_w3_mlp_simclrhn_probe3,1,426,NaN,bear,bear,false,0426_fc_dnn_false_bear_35_n02133161_5067.png,n02133161_5067.png,1.0,10.867189,4.932925,4.1961584
alexnet_w3_mlp_simclrhn_probe3,1,427,NaN,oven,chair,false,0427_fc_dnn_false_chair_35_n02791124_885.png,n02791124_885.png,0.0,1.2389412,1.4805622,-0.17085186
alexnet_w3_mlp_simclrhn_probe3,1,428,NaN,cat,dog,true,0428_fc_dnn_true_dog_35_n02107312_7182.png,n02107312_7182.png,0.0,2.074013,3.6424434,-1.1090478
alexnet_w3_mlp_simclrhn_probe3,1,429,NaN,truck,truck,true,0429_fc_dnn_true_truck_35_n04467665_13989.png,n04467665_13989.png,1.0,4.536257,2.757662,1.2576565
alexnet_w3_mlp_simclrhn_probe3,1,430,NaN,bicycle,dog,true,0430_fc_dnn_true_dog_35_n02102480_10232.png,n02102480_10232.png,0.0,1.3274025,1.6141974,-0.20279463
alexnet_w3_mlp_simclrhn_probe3,1,431,NaN,oven,oven,false,0431_fc_dnn_false_oven_35_n04111531_643.png,n04111531_643.png,1.0,8.063389,1.4959555,4.6438766
alexnet_w3_mlp_simclrhn_probe3,1,432,NaN,boat,boat,true,0432_fc_dnn_true_boat_35_n02951358_31514.png,n02951358_31514.png,1.0,7.684493,1.8747773,4.1080894
alexnet_w3_mlp_simclrhn_probe3,1,433,NaN,oven,oven,true,0433_fc_dnn_true_oven_35_n04111531_1898.png,n04111531_1898.png,1.0,6.801092,2.8223941,2.8133645
alexnet_w3_mlp_simclrhn_probe3,1,434,NaN,car,car,true,0434_fc_dnn_true_car_35_n03100240_5865.png,n03100240_5865.png,1.0,4.105023,1.1765085,2.0707724
alexnet_w3_mlp_simclrhn_probe3,1,435,NaN,keyboard,keyboard,true,0435_fc_dnn_true_keyboard_35_n04505470_4369.png,n04505470_4369.png,1.0,17.551113,2.58355,10.583666
alexnet_w3_mlp_simclrhn_probe3,1,436,NaN,cat,cat,false,0436_fc_dnn_false_cat_35_n02123394_1942.png,n02123394_1942.png,1.0,6.038161,1.8585129,2.9554574
alexnet_w3_mlp_simclrhn_probe3,1,437,NaN,car,car,true,0437_fc_dnn_true_car_35_n04285008_2900.png,n04285008_2900.png,1.0,11.753991,8.428126,2.3517416
alexnet_w3_mlp_simclrhn_probe3,1,438,NaN,airplane,airplane,true,0438_fc_dnn_true_airplane_35_n02690373_10926.png,n02690373_10926.png,1.0,10.260927,0.8229345,6.673669
alexnet_w3_mlp_simclrhn_probe3,1,439,NaN,knife,knife,true,0439_fc_dnn_true_knife_35_n03041632_11613.png,n03041632_11613.png,1.0,1.0889935,0.2990831,0.558551
alexnet_w3_mlp_simclrhn_probe3,1,440,NaN,knife,knife,true,0440_fc_dnn_true_knife_35_n03041632_24817.png,n03041632_24817.png,1.0,1.7839835,0.7909334,0.7021925
alexnet_w3_mlp_simclrhn_probe3,1,441,NaN,bicycle,bicycle,true,0441_fc_dnn_true_bicycle_35_n02835271_3042.png,n02835271_3042.png,1.0,14.849098,1.6031342,9.366311
alexnet_w3_mlp_simclrhn_probe3,1,442,NaN,dog,dog,true,0442_fc_dnn_true_dog_35_n02102177_7737.png,n02102177_7737.png,1.0,3.0652611,0.57923967,1.7578827
alexnet_w3_mlp_simclrhn_probe3,1,443,NaN,oven,oven,true,0443_fc_dnn_true_oven_35_n04111531_21460.png,n04111531_21460.png,1.0,2.6638713,0.9777266,1.1922843
alexnet_w3_mlp_simclrhn_probe3,1,444,NaN,oven,keyboard,false,0444_fc_dnn_false_keyboard_35_n04505470_7388.png,n04505470_7388.png,0.0,2.4022632,3.8098435,-0.99530965
alexnet_w3_mlp_simclrhn_probe3,1,445,NaN,bird,bird,true,0445_fc_dnn_true_bird_35_n01828970_25642.png,n01828970_25642.png,1.0,3.6765118,1.5387431,1.5116308
alexnet_w3_mlp_simclrhn_probe3,1,446,NaN,bicycle,bicycle,false,0446_fc_dnn_false_bicycle_35_n02835271_608.png,n02835271_608.png,1.0,7.1083302,1.630968,3.87308
alexnet_w3_mlp_simclrhn_probe3,1,447,NaN,airplane,boat,true,0447_fc_dnn_true_boat_35_n04273569_26182.png,n04273569_26182.png,0.0,5.5232286,6.961602,-1.0170838
alexnet_w3_mlp_simclrhn_probe3,1,448,NaN,cat,cat,false,0448_fc_dnn_false_cat_35_n02123045_9384.png,n02123045_9384.png,1.0,6.977772,1.2780005,4.0303473
alexnet_w3_mlp_simclrhn_probe3,1,449,NaN,airplane,airplane,true,0449_fc_dnn_true_airplane_35_n02690373_9529.png,n02690373_9529.png,1.0,11.543753,1.2168686,7.30221
alexnet_w3_mlp_simclrhn_probe3,1,450,NaN,chair,cat,true,0450_fc_dnn_true_cat_35_n02123597_5081.png,n02123597_5081.png,0.0,0.37862408,1.8817506,-1.062871
alexnet_w3_mlp_simclrhn_probe3,1,451,NaN,oven,oven,false,0451_fc_dnn_false_oven_35_n04111531_4998.png,n04111531_4998.png,1.0,4.7794685,0.7960074,2.8167324
alexnet_w3_mlp_simclrhn_probe3,1,452,NaN,oven,clock,true,0452_fc_dnn_true_clock_35_n04548280_1245.png,n04548280_1245.png,0.0,4.5669713,5.5930147,-0.7255223
alexnet_w3_mlp_simclrhn_probe3,1,453,NaN,knife,dog,true,0453_fc_dnn_true_dog_35_n02104365_8609.png,n02104365_8609.png,0.0,0.6549359,0.84768564,-0.13629465
alexnet_w3_mlp_simclrhn_probe3,1,454,NaN,clock,clock,false,0454_fc_dnn_false_clock_35_n02708093_6414.png,n02708093_6414.png,1.0,7.4589286,3.0423746,3.1229753
alexnet_w3_mlp_simclrhn_probe3,1,455,NaN,bird,bird,true,0455_fc_dnn_true_bird_35_n01798484_9155.png,n01798484_9155.png,1.0,2.353313,0.76061636,1.1262066
alexnet_w3_mlp_simclrhn_probe3,1,456,NaN,bicycle,oven,true,0456_fc_dnn_true_oven_35_n04111531_10724.png,n04111531_10724.png,0.0,0.28921205,4.776494,-3.1729875
alexnet_w3_mlp_simclrhn_probe3,1,457,NaN,boat,boat,true,0457_fc_dnn_true_boat_35_n02951358_32687.png,n02951358_32687.png,1.0,5.8591814,3.5231435,1.6518283
alexnet_w3_mlp_simclrhn_probe3,1,458,NaN,bicycle,bicycle,true,0458_fc_dnn_true_bicycle_35_n02835271_31.png,n02835271_31.png,1.0,4.962178,1.402571,2.5170224
alexnet_w3_mlp_simclrhn_probe3,1,459,NaN,oven,bottle,true,0459_fc_dnn_true_bottle_35_n04557648_4420.png,n04557648_4420.png,0.0,0.66374534,1.6715366,-0.7126161
alexnet_w3_mlp_simclrhn_probe3,1,460,NaN,bear,bear,true,0460_fc_dnn_true_bear_35_n02133161_713.png,n02133161_713.png,1.0,4.929722,0.8821978,2.8620317
alexnet_w3_mlp_simclrhn_probe3,1,461,NaN,airplane,airplane,false,0461_fc_dnn_false_airplane_35_n02690373_5967.png,n02690373_5967.png,1.0,11.458338,1.2490728,7.2190404
alexnet_w3_mlp_simclrhn_probe3,1,462,NaN,bird,bird,true,0462_fc_dnn_true_bird_35_n01795545_4502.png,n01795545_4502.png,1.0,1.3144581,0.17306462,0.8070871
alexnet_w3_mlp_simclrhn_probe3,1,463,NaN,bear,cat,true,0463_fc_dnn_true_cat_35_n02124075_11466.png,n02124075_11466.png,0.0,3.1822119,5.4188347,-1.5815312
alexnet_w3_mlp_simclrhn_probe3,1,464,NaN,keyboard,keyboard,true,0464_fc_dnn_true_keyboard_35_n03085013_21769.png,n03085013_21769.png,1.0,2.4052014,2.2105656,0.13762835
alexnet_w3_mlp_simclrhn_probe3,1,465,NaN,keyboard,car,false,0465_fc_dnn_false_car_35_n03100240_15097.png,n03100240_15097.png,0.0,2.657073,3.3001509,-0.45472473
alexnet_w3_mlp_simclrhn_probe3,1,466,NaN,bear,dog,false,0466_fc_dnn_false_dog_35_n02093647_3072.png,n02093647_3072.png,0.0,0.3844887,0.9828439,-0.423101
alexnet_w3_mlp_simclrhn_probe3,1,467,NaN,bicycle,bicycle,false,0467_fc_dnn_false_bicycle_35_n02835271_12701.png,n02835271_12701.png,1.0,5.0475054,2.4774582,1.8172978
alexnet_w3_mlp_simclrhn_probe3,1,468,NaN,bear,bear,false,0468_fc_dnn_false_bear_35_n02134084_3227.png,n02134084_3227.png,1.0,2.6872842,1.6044956,0.7656472
alexnet_w3_mlp_simclrhn_probe3,1,469,NaN,cat,cat,true,0469_fc_dnn_true_cat_35_n02123394_5001.png,n02123394_5001.png,1.0,3.5481064,1.0584335,1.7604647
alexnet_w3_mlp_simclrhn_probe3,1,470,NaN,keyboard,keyboard,true,0470_fc_dnn_true_keyboard_35_n03085013_6862.png,n03085013_6862.png,1.0,5.1481094,2.907898,1.5840688
alexnet_w3_mlp_simclrhn_probe3,1,471,NaN,chair,chair,true,0471_fc_dnn_true_chair_35_n04099969_45461.png,n04099969_45461.png,1.0,3.7178063,2.1236753,1.1272209
alexnet_w3_mlp_simclrhn_probe3,1,472,NaN,bicycle,bicycle,false,0472_fc_dnn_false_bicycle_35_n03792782_485.png,n03792782_485.png,1.0,9.219369,1.5944171,5.3916554
alexnet_w3_mlp_simclrhn_probe3,1,473,NaN,chair,oven,true,0473_fc_dnn_true_oven_35_n04111531_1674.png,n04111531_1674.png,0.0,1.718843,4.606433,-2.0418344
alexnet_w3_mlp_simclrhn_probe3,1,474,NaN,airplane,airplane,true,0474_fc_dnn_true_airplane_35_n02690373_866.png,n02690373_866.png,1.0,13.482664,2.5209148,7.7511272
alexnet_w3_mlp_simclrhn_probe3,1,475,NaN,oven,oven,false,0475_fc_dnn_false_oven_35_n04111531_9297.png,n04111531_9297.png,1.0,2.3036964,0.8398876,1.0350691
alexnet_w3_mlp_simclrhn_probe3,1,476,NaN,elephant,elephant,false,0476_fc_dnn_false_elephant_35_n02504458_6878.png,n02504458_6878.png,1.0,14.221338,5.3134,6.2988634
alexnet_w3_mlp_simclrhn_probe3,1,477,NaN,car,car,true,0477_fc_dnn_true_car_35_n03100240_3151.png,n03100240_3151.png,1.0,4.393337,2.6793308,1.2119852
alexnet_w3_mlp_simclrhn_probe3,1,478,NaN,airplane,airplane,false,0478_fc_dnn_false_airplane_35_n02690373_6363.png,n02690373_6363.png,1.0,8.767677,3.9443665,3.410596
alexnet_w3_mlp_simclrhn_probe3,1,479,NaN,car,car,true,0479_fc_dnn_true_car_35_n04285008_15049.png,n04285008_15049.png,1.0,12.133105,6.2396226,4.1673217
alexnet_w3_mlp_simclrhn_probe3,1,480,NaN,airplane,truck,true,0480_fc_dnn_true_truck_35_n04467665_2505.png,n04467665_2505.png,0.0,0.62539417,1.4398923,-0.57593715
alexnet_w3_mlp_simclrhn_probe3,1,481,NaN,bicycle,bottle,true,0481_fc_dnn_true_bottle_35_n04591713_4030.png,n04591713_4030.png,0.0,0.3679046,1.4077818,-0.73530424
alexnet_w3_mlp_simclrhn_probe3,1,482,NaN,oven,oven,true,0482_fc_dnn_true_oven_35_n04111531_12929.png,n04111531_12929.png,1.0,3.7582278,1.6287211,1.5057886
alexnet_w3_mlp_simclrhn_probe3,1,483,NaN,bear,cat,true,0483_fc_dnn_true_cat_35_n02125311_53315.png,n02125311_53315.png,0.0,3.2926161,3.5660827,-0.19337007
alexnet_w3_mlp_simclrhn_probe3,1,484,NaN,cat,dog,true,0484_fc_dnn_true_dog_35_n02087046_4409.png,n02087046_4409.png,0.0,1.0476872,1.3972596,-0.24718504
alexnet_w3_mlp_simclrhn_probe3,1,485,NaN,oven,oven,false,0485_fc_dnn_false_oven_35_n04111531_21120.png,n04111531_21120.png,1.0,6.2521753,1.4420873,3.401246
alexnet_w3_mlp_simclrhn_probe3,1,486,NaN,elephant,elephant,false,0486_fc_dnn_false_elephant_35_n02504013_5934.png,n02504013_5934.png,1.0,1.3555176,0.6506344,0.49842772
alexnet_w3_mlp_simclrhn_probe3,1,487,NaN,car,car,true,0487_fc_dnn_true_car_35_n04285008_3631.png,n04285008_3631.png,1.0,6.754869,4.3324995,1.7128739
alexnet_w3_mlp_simclrhn_probe3,1,488,NaN,clock,clock,true,0488_fc_dnn_true_clock_35_n03196217_7663.png,n03196217_7663.png,1.0,1.7212375,1.0121449,0.5014042
alexnet_w3_mlp_simclrhn_probe3,1,489,NaN,elephant,bicycle,false,0489_fc_dnn_false_bicycle_35_n03792782_801.png,n03792782_801.png,0.0,1.069822,1.7726773,-0.49699378
alexnet_w3_mlp_simclrhn_probe3,1,490,NaN,bear,bear,false,0490_fc_dnn_false_bear_35_n02133161_6983.png,n02133161_6983.png,1.0,3.1195085,0.87294734,1.5885586
alexnet_w3_mlp_simclrhn_probe3,1,491,NaN,keyboard,keyboard,true,0491_fc_dnn_true_keyboard_35_n03085013_20825.png,n03085013_20825.png,1.0,10.926544,1.1592373,6.9065294
alexnet_w3_mlp_simclrhn_probe3,1,492,NaN,clock,clock,true,0492_fc_dnn_true_clock_35_n03196217_1219.png,n03196217_1219.png,1.0,3.2033222,2.2436182,0.6786132
alexnet_w3_mlp_simclrhn_probe3,1,493,NaN,airplane,airplane,true,0493_fc_dnn_true_airplane_35_n02690373_18864.png,n02690373_18864.png,1.0,5.298619,4.2848306,0.71685654
alexnet_w3_mlp_simclrhn_probe3,1,494,NaN,knife,airplane,false,0494_fc_dnn_false_airplane_35_n02690373_1019.png,n02690373_1019.png,0.0,-0.01764832,1.0875759,-0.7815116
alexnet_w3_mlp_simclrhn_probe3,1,495,NaN,bird,bird,true,0495_fc_dnn_true_bird_35_n02013706_10478.png,n02013706_10478.png,1.0,4.255968,0.0661343,2.9626598
alexnet_w3_mlp_simclrhn_probe3,1,496,NaN,bear,bear,true,0496_fc_dnn_true_bear_35_n02132136_258.png,n02132136_258.png,1.0,3.4486513,3.304219,0.102129065
alexnet_w3_mlp_simclrhn_probe3,1,497,NaN,bird,chair,false,0497_fc_dnn_false_chair_35_n04099969_16350.png,n04099969_16350.png,0.0,-0.5144591,1.1031083,-1.1437929
alexnet_w3_mlp_simclrhn_probe3,1,498,NaN,chair,chair,true,0498_fc_dnn_true_chair_35_n04099969_16456.png,n04099969_16456.png,1.0,3.8090591,1.6949313,1.4949142
alexnet_w3_mlp_simclrhn_probe3,1,499,NaN,bottle,bottle,false,0499_fc_dnn_false_bottle_35_n03983396_12027.png,n03983396_12027.png,1.0,4.0839,3.2970614,0.55637884
alexnet_w3_mlp_simclrhn_probe3,1,500,NaN,chair,chair,true,0500_fc_dnn_true_chair_35_n02791124_5438.png,n02791124_5438.png,1.0,5.291504,1.3284687,2.802289
alexnet_w3_mlp_simclrhn_probe3,1,501,NaN,elephant,elephant,true,0501_fc_dnn_true_elephant_35_n02504458_4939.png,n02504458_4939.png,1.0,16.646069,5.949505,7.563613
alexnet_w3_mlp_simclrhn_probe3,1,502,NaN,keyboard,keyboard,false,0502_fc_dnn_false_keyboard_35_n04505470_2600.png,n04505470_2600.png,1.0,10.641836,3.1184359,5.3198476
alexnet_w3_mlp_simclrhn_probe3,1,503,NaN,chair,chair,true,0503_fc_dnn_true_chair_35_n03376595_7394.png,n03376595_7394.png,1.0,3.9697773,2.656875,0.92836225
alexnet_w3_mlp_simclrhn_probe3,1,504,NaN,knife,bicycle,false,0504_fc_dnn_false_bicycle_35_n02835271_9772.png,n02835271_9772.png,0.0,1.2518795,1.8007599,-0.3881171
alexnet_w3_mlp_simclrhn_probe3,1,505,NaN,car,car,true,0505_fc_dnn_true_car_35_n02814533_55937.png,n02814533_55937.png,1.0,4.2813716,2.705182,1.1145343
alexnet_w3_mlp_simclrhn_probe3,1,506,NaN,airplane,airplane,true,0506_fc_dnn_true_airplane_35_n02690373_3920.png,n02690373_3920.png,1.0,5.248306,5.1671576,0.057380408
alexnet_w3_mlp_simclrhn_probe3,1,507,NaN,oven,oven,false,0507_fc_dnn_false_oven_35_n04111531_6400.png,n04111531_6400.png,1.0,2.521078,1.918239,0.42627162
alexnet_w3_mlp_simclrhn_probe3,1,508,NaN,bicycle,truck,false,0508_fc_dnn_false_truck_35_n03417042_4587.png,n03417042_4587.png,0.0,0.40143216,7.664304,-5.135626
alexnet_w3_mlp_simclrhn_probe3,1,509,NaN,bicycle,knife,true,0509_fc_dnn_true_knife_35_n03041632_31849.png,n03041632_31849.png,0.0,0.5542698,1.8786204,-0.9364573
alexnet_w3_mlp_simclrhn_probe3,1,510,NaN,bear,cat,true,0510_fc_dnn_true_cat_35_n02125311_8541.png,n02125311_8541.png,0.0,0.4267391,6.0190835,-3.9543846
alexnet_w3_mlp_simclrhn_probe3,1,511,NaN,airplane,airplane,true,0511_fc_dnn_true_airplane_35_n02690373_2162.png,n02690373_2162.png,1.0,15.05434,5.6253552,6.6672997
alexnet_w3_mlp_simclrhn_probe3,1,512,NaN,bear,dog,true,0512_fc_dnn_true_dog_35_n02108551_11297.png,n02108551_11297.png,0.0,2.0856507,2.6076164,-0.36908552
alexnet_w3_mlp_simclrhn_probe3,1,513,NaN,car,car,true,0513_fc_dnn_true_car_35_n02814533_34396.png,n02814533_34396.png,1.0,15.381001,4.128398,7.9567924
alexnet_w3_mlp_simclrhn_probe3,1,514,NaN,elephant,elephant,true,0514_fc_dnn_true_elephant_35_n02504013_6431.png,n02504013_6431.png,1.0,9.4569435,3.6734607,4.08954
alexnet_w3_mlp_simclrhn_probe3,1,515,NaN,bicycle,bicycle,false,0515_fc_dnn_false_bicycle_35_n03792782_51723.png,n03792782_51723.png,1.0,4.850469,1.9404393,2.0577018
alexnet_w3_mlp_simclrhn_probe3,1,516,NaN,bear,dog,false,0516_fc_dnn_false_dog_35_n02093754_5867.png,n02093754_5867.png,0.0,0.93270063,2.1171772,-0.8375515
alexnet_w3_mlp_simclrhn_probe3,1,517,NaN,oven,clock,true,0517_fc_dnn_true_clock_35_n04548280_3245.png,n04548280_3245.png,0.0,0.20756912,1.0222256,-0.57604915
alexnet_w3_mlp_simclrhn_probe3,1,518,NaN,airplane,airplane,true,0518_fc_dnn_true_airplane_35_n02690373_9762.png,n02690373_9762.png,1.0,9.388439,2.2756433,5.029506
alexnet_w3_mlp_simclrhn_probe3,1,519,NaN,airplane,bird,true,0519_fc_dnn_true_bird_35_n02002724_2909.png,n02002724_2909.png,0.0,2.1864026,4.0375824,-1.3089819
alexnet_w3_mlp_simclrhn_probe3,1,520,NaN,knife,bottle,true,0520_fc_dnn_true_bottle_35_n04557648_10123.png,n04557648_10123.png,0.0,-0.1621285,1.233001,-0.9865055
alexnet_w3_mlp_simclrhn_probe3,1,521,NaN,elephant,elephant,true,0521_fc_dnn_true_elephant_35_n02504013_5432.png,n02504013_5432.png,1.0,7.06757,2.5872433,3.1680694
alexnet_w3_mlp_simclrhn_probe3,1,522,NaN,bear,cat,false,0522_fc_dnn_false_cat_35_n02123597_4998.png,n02123597_4998.png,0.0,2.2627306,2.3281858,-0.046283815
alexnet_w3_mlp_simclrhn_probe3,1,523,NaN,bottle,bottle,true,0523_fc_dnn_true_bottle_35_n04557648_11594.png,n04557648_11594.png,1.0,2.6697981,1.4535419,0.8600231
alexnet_w3_mlp_simclrhn_probe3,1,524,NaN,oven,clock,false,0524_fc_dnn_false_clock_35_n03196217_2567.png,n03196217_2567.png,0.0,1.0044808,2.4812927,-1.0442637
alexnet_w3_mlp_simclrhn_probe3,1,525,NaN,keyboard,truck,false,0525_fc_dnn_false_truck_35_n03796401_9136.png,n03796401_9136.png,0.0,0.64536977,2.6773431,-1.4368222
alexnet_w3_mlp_simclrhn_probe3,1,526,NaN,boat,boat,false,0526_fc_dnn_false_boat_35_n03344393_8492.png,n03344393_8492.png,1.0,17.226822,1.7838544,10.919827
alexnet_w3_mlp_simclrhn_probe3,1,527,NaN,cat,cat,false,0527_fc_dnn_false_cat_35_n02123159_8267.png,n02123159_8267.png,1.0,9.709472,1.1861142,6.026924
alexnet_w3_mlp_simclrhn_probe3,1,528,NaN,knife,bottle,false,0528_fc_dnn_false_bottle_35_n04557648_12039.png,n04557648_12039.png,0.0,0.8174971,1.0284591,-0.14917266
alexnet_w3_mlp_simclrhn_probe3,1,529,NaN,keyboard,keyboard,false,0529_fc_dnn_false_keyboard_35_n04505470_2828.png,n04505470_2828.png,1.0,11.061419,1.3010998,6.9015875
alexnet_w3_mlp_simclrhn_probe3,1,530,NaN,boat,boat,true,0530_fc_dnn_true_boat_35_n02951358_31198.png,n02951358_31198.png,1.0,4.694659,1.966691,1.9289649
alexnet_w3_mlp_simclrhn_probe3,1,531,NaN,oven,oven,false,0531_fc_dnn_false_oven_35_n04111531_5801.png,n04111531_5801.png,1.0,2.2529187,1.0533686,0.84821004
alexnet_w3_mlp_simclrhn_probe3,1,532,NaN,bicycle,bicycle,false,0532_fc_dnn_false_bicycle_35_n02835271_9672.png,n02835271_9672.png,1.0,7.5916862,0.45469052,5.046618
alexnet_w3_mlp_simclrhn_probe3,1,533,NaN,keyboard,keyboard,false,0533_fc_dnn_false_keyboard_35_n03085013_23865.png,n03085013_23865.png,1.0,2.5434618,2.1810699,0.25624982
alexnet_w3_mlp_simclrhn_probe3,1,534,NaN,keyboard,bottle,true,0534_fc_dnn_true_bottle_35_n04591713_7133.png,n04591713_7133.png,0.0,0.76742935,4.246174,-2.4598439
alexnet_w3_mlp_simclrhn_probe3,1,535,NaN,car,car,true,0535_fc_dnn_true_car_35_n04285008_10006.png,n04285008_10006.png,1.0,12.133125,5.7609987,4.505774
alexnet_w3_mlp_simclrhn_probe3,1,536,NaN,airplane,airplane,true,0536_fc_dnn_true_airplane_35_n02690373_2431.png,n02690373_2431.png,1.0,3.834398,1.2745929,1.8100556
alexnet_w3_mlp_simclrhn_probe3,1,537,NaN,boat,boat,true,0537_fc_dnn_true_boat_35_n04612504_15440.png,n04612504_15440.png,1.0,1.9292091,0.35584325,1.1125377
alexnet_w3_mlp_simclrhn_probe3,1,538,NaN,bicycle,bicycle,true,0538_fc_dnn_true_bicycle_35_n02835271_5648.png,n02835271_5648.png,1.0,7.210094,2.213149,3.5333736
alexnet_w3_mlp_simclrhn_probe3,1,539,NaN,airplane,airplane,false,0539_fc_dnn_false_airplane_35_n02690373_3173.png,n02690373_3173.png,1.0,15.077934,4.0925927,7.76781
alexnet_w3_mlp_simclrhn_probe3,1,540,NaN,oven,oven,false,0540_fc_dnn_false_oven_35_n04111531_82.png,n04111531_82.png,1.0,7.1264963,1.343898,4.088915
alexnet_w3_mlp_simclrhn_probe3,1,541,NaN,oven,chair,false,0541_fc_dnn_false_chair_35_n02791124_2057.png,n02791124_2057.png,0.0,1.5559905,3.063368,-1.065877
alexnet_w3_mlp_simclrhn_probe3,1,542,NaN,oven,elephant,true,0542_fc_dnn_true_elephant_35_n02504458_12175.png,n02504458_12175.png,0.0,0.33486617,0.9196891,-0.4135323
alexnet_w3_mlp_simclrhn_probe3,1,543,NaN,boat,boat,false,0543_fc_dnn_false_boat_35_n03344393_6869.png,n03344393_6869.png,1.0,5.336331,1.2181884,2.9119666
alexnet_w3_mlp_simclrhn_probe3,1,544,NaN,truck,truck,false,0544_fc_dnn_false_truck_35_n03417042_1000.png,n03417042_1000.png,1.0,2.446813,1.3606273,0.76804936
alexnet_w3_mlp_simclrhn_probe3,1,545,NaN,boat,boat,true,0545_fc_dnn_true_boat_35_n03344393_6890.png,n03344393_6890.png,1.0,4.59435,3.773831,0.58019453
alexnet_w3_mlp_simclrhn_probe3,1,546,NaN,elephant,elephant,false,0546_fc_dnn_false_elephant_35_n02504458_4139.png,n02504458_4139.png,1.0,9.160173,4.129616,3.5571415
alexnet_w3_mlp_simclrhn_probe3,1,547,NaN,bear,bear,false,0547_fc_dnn_false_bear_35_n02132136_7231.png,n02132136_7231.png,1.0,6.9658217,1.5858407,3.8042212
alexnet_w3_mlp_simclrhn_probe3,1,548,NaN,elephant,bird,false,0548_fc_dnn_false_bird_35_n01860187_1815.png,n01860187_1815.png,0.0,1.3579823,2.5414038,-0.8368054
alexnet_w3_mlp_simclrhn_probe3,1,549,NaN,knife,keyboard,true,0549_fc_dnn_true_keyboard_35_n03085013_18891.png,n03085013_18891.png,0.0,0.047816783,0.31214458,-0.18690798
alexnet_w3_mlp_simclrhn_probe3,1,550,NaN,bird,bird,false,0550_fc_dnn_false_bird_35_n01828970_2276.png,n01828970_2276.png,1.0,4.1604843,0.28560874,2.739951
alexnet_w3_mlp_simclrhn_probe3,1,551,NaN,elephant,elephant,false,0551_fc_dnn_false_elephant_35_n02504013_1720.png,n02504013_1720.png,1.0,14.89581,6.609072,5.859608
alexnet_w3_mlp_simclrhn_probe3,1,552,NaN,knife,knife,false,0552_fc_dnn_false_knife_35_n03041632_16104.png,n03041632_16104.png,1.0,2.0518196,1.2562835,0.56252897
alexnet_w3_mlp_simclrhn_probe3,1,553,NaN,chair,chair,false,0553_fc_dnn_false_chair_35_n03376595_635.png,n03376595_635.png,1.0,3.2395072,2.9714046,0.1895772
alexnet_w3_mlp_simclrhn_probe3,1,554,NaN,bottle,bottle,true,0554_fc_dnn_true_bottle_35_n03983396_6116.png,n03983396_6116.png,1.0,7.706119,4.868112,2.006774
alexnet_w3_mlp_simclrhn_probe3,1,555,NaN,bear,dog,true,0555_fc_dnn_true_dog_35_n02113624_2530.png,n02113624_2530.png,0.0,0.23051864,1.4933298,-0.89294237
alexnet_w3_mlp_simclrhn_probe3,1,556,NaN,bird,bird,true,0556_fc_dnn_true_bird_35_n01592084_3972.png,n01592084_3972.png,1.0,1.3520101,0.5286547,0.5822002
alexnet_w3_mlp_simclrhn_probe3,1,557,NaN,boat,airplane,true,0557_fc_dnn_true_airplane_35_n02690373_5130.png,n02690373_5130.png,0.0,2.8797455,4.4647017,-1.1207333
alexnet_w3_mlp_simclrhn_probe3,1,558,NaN,airplane,bird,true,0558_fc_dnn_true_bird_35_n01833805_7514.png,n01833805_7514.png,0.0,0.49205345,1.2385716,-0.5278681
alexnet_w3_mlp_simclrhn_probe3,1,559,NaN,truck,truck,false,0559_fc_dnn_false_truck_35_n03417042_16238.png,n03417042_16238.png,1.0,6.494116,4.0585613,1.7221972
alexnet_w3_mlp_simclrhn_probe3,1,560,NaN,keyboard,keyboard,true,0560_fc_dnn_true_keyboard_35_n04505470_8620.png,n04505470_8620.png,1.0,15.054883,4.0807357,7.7598944
alexnet_w3_mlp_simclrhn_probe3,1,561,NaN,clock,clock,true,0561_fc_dnn_true_clock_35_n03196217_7888.png,n03196217_7888.png,1.0,4.776359,4.345068,0.30496886
alexnet_w3_mlp_simclrhn_probe3,1,562,NaN,elephant,bottle,true,0562_fc_dnn_true_bottle_35_n04591713_5411.png,n04591713_5411.png,0.0,-0.31465545,1.0739228,-0.98187304
alexnet_w3_mlp_simclrhn_probe3,1,563,NaN,clock,clock,false,0563_fc_dnn_false_clock_35_n03196217_2639.png,n03196217_2639.png,1.0,2.4538543,2.3135705,0.099195644
alexnet_w3_mlp_simclrhn_probe3,1,564,NaN,oven,elephant,true,0564_fc_dnn_true_elephant_35_n02504458_6437.png,n02504458_6437.png,0.0,1.6734729,1.8140879,-0.09942981
alexnet_w3_mlp_simclrhn_probe3,1,565,NaN,truck,truck,true,0565_fc_dnn_true_truck_35_n03417042_27586.png,n03417042_27586.png,1.0,7.093895,1.3697127,4.047608
alexnet_w3_mlp_simclrhn_probe3,1,566,NaN,chair,keyboard,false,0566_fc_dnn_false_keyboard_35_n03085013_24124.png,n03085013_24124.png,0.0,-0.047753304,2.9036484,-2.0869563
alexnet_w3_mlp_simclrhn_probe3,1,567,NaN,chair,cat,false,0567_fc_dnn_false_cat_35_n02123597_9663.png,n02123597_9663.png,0.0,1.4867234,1.5768166,-0.06370547
alexnet_w3_mlp_simclrhn_probe3,1,568,NaN,keyboard,keyboard,true,0568_fc_dnn_true_keyboard_35_n04505470_1833.png,n04505470_1833.png,1.0,4.8676367,2.4388506,1.7174112
alexnet_w3_mlp_simclrhn_probe3,1,569,NaN,car,car,true,0569_fc_dnn_true_car_35_n04285008_4109.png,n04285008_4109.png,1.0,17.078447,8.85231,5.8167577
alexnet_w3_mlp_simclrhn_probe3,1,570,NaN,bicycle,bird,false,0570_fc_dnn_false_bird_35_n01558993_869.png,n01558993_869.png,0.0,0.0053847674,0.96214813,-0.6765339
alexnet_w3_mlp_simclrhn_probe3,1,571,NaN,truck,truck,true,0571_fc_dnn_true_truck_35_n03796401_6980.png,n03796401_6980.png,1.0,4.9285784,1.6381779,2.3266644
alexnet_w3_mlp_simclrhn_probe3,1,572,NaN,truck,truck,true,0572_fc_dnn_true_truck_35_n03796401_19058.png,n03796401_19058.png,1.0,6.4463634,0.6930021,4.0682406
alexnet_w3_mlp_simclrhn_probe3,1,573,NaN,elephant,bear,false,0573_fc_dnn_false_bear_35_n02134418_5033.png,n02134418_5033.png,0.0,1.9141908,2.1725616,-0.1826958
alexnet_w3_mlp_simclrhn_probe3,1,574,NaN,truck,truck,false,0574_fc_dnn_false_truck_35_n03417042_6204.png,n03417042_6204.png,1.0,13.348994,7.5195947,4.122008
alexnet_w3_mlp_simclrhn_probe3,1,575,NaN,bicycle,bicycle,true,0575_fc_dnn_true_bicycle_35_n03792782_7388.png,n03792782_7388.png,1.0,1.1268624,0.88853496,0.16852295
alexnet_w3_mlp_simclrhn_probe3,1,576,NaN,truck,truck,true,0576_fc_dnn_true_truck_35_n03417042_1561.png,n03417042_1561.png,1.0,11.260595,3.802762,5.2734847
alexnet_w3_mlp_simclrhn_probe3,1,577,NaN,elephant,elephant,true,0577_fc_dnn_true_elephant_35_n02504458_5501.png,n02504458_5501.png,1.0,27.042215,9.669901,12.284081
alexnet_w3_mlp_simclrhn_probe3,1,578,NaN,boat,boat,true,0578_fc_dnn_true_boat_35_n03662601_34124.png,n03662601_34124.png,1.0,5.462304,2.4126558,2.156427
alexnet_w3_mlp_simclrhn_probe3,1,579,NaN,knife,knife,false,0579_fc_dnn_false_knife_35_n03041632_37949.png,n03041632_37949.png,1.0,1.8636397,0.528381,0.94417053
alexnet_w3_mlp_simclrhn_probe3,1,580,NaN,airplane,airplane,false,0580_fc_dnn_false_airplane_35_n02690373_13585.png,n02690373_13585.png,1.0,14.052846,0.6708381,9.462508
alexnet_w3_mlp_simclrhn_probe3,1,581,NaN,elephant,knife,false,0581_fc_dnn_false_knife_35_n03041632_16932.png,n03041632_16932.png,0.0,1.2830788,1.9846764,-0.49610442
alexnet_w3_mlp_simclrhn_probe3,1,582,NaN,elephant,chair,false,0582_fc_dnn_false_chair_35_n04429376_9501.png,n04429376_9501.png,0.0,0.12560123,1.2998168,-0.8302958
alexnet_w3_mlp_simclrhn_probe3,1,583,NaN,bird,bird,false,0583_fc_dnn_false_bird_35_n01532829_10530.png,n01532829_10530.png,1.0,2.7047048,0.3315341,1.6780851
alexnet_w3_mlp_simclrhn_probe3,1,584,NaN,oven,oven,false,0584_fc_dnn_false_oven_35_n04111531_1562.png,n04111531_1562.png,1.0,7.196029,1.2217103,4.2244816
alexnet_w3_mlp_simclrhn_probe3,1,585,NaN,keyboard,clock,false,0585_fc_dnn_false_clock_35_n02708093_260.png,n02708093_260.png,0.0,1.0371984,3.547737,-1.7752188
alexnet_w3_mlp_simclrhn_probe3,1,586,NaN,bottle,bottle,true,0586_fc_dnn_true_bottle_35_n04579145_1457.png,n04579145_1457.png,1.0,2.7682264,1.9638319,0.5687928
alexnet_w3_mlp_simclrhn_probe3,1,587,NaN,bicycle,chair,true,0587_fc_dnn_true_chair_35_n03376595_9897.png,n03376595_9897.png,0.0,2.5028381,2.978334,-0.3362263
alexnet_w3_mlp_simclrhn_probe3,1,588,NaN,bird,bird,true,0588_fc_dnn_true_bird_35_n01601694_4224.png,n01601694_4224.png,1.0,2.5865376,0.99015313,1.1288143
alexnet_w3_mlp_simclrhn_probe3,1,589,NaN,cat,cat,false,0589_fc_dnn_false_cat_35_n02123159_358.png,n02123159_358.png,1.0,14.25671,1.7075104,8.873625
alexnet_w3_mlp_simclrhn_probe3,1,590,NaN,bottle,bottle,true,0590_fc_dnn_true_bottle_35_n03983396_11788.png,n03983396_11788.png,1.0,8.28628,2.8201091,3.8651662
alexnet_w3_mlp_simclrhn_probe3,1,591,NaN,cat,cat,true,0591_fc_dnn_true_cat_35_n02124075_8341.png,n02124075_8341.png,1.0,5.3921456,0.8206753,3.2325177
alexnet_w3_mlp_simclrhn_probe3,1,592,NaN,dog,dog,false,0592_fc_dnn_false_dog_35_n02109525_49924.png,n02109525_49924.png,1.0,4.037537,1.6297174,1.7025857
alexnet_w3_mlp_simclrhn_probe3,1,593,NaN,bear,oven,false,0593_fc_dnn_false_oven_35_n04111531_797.png,n04111531_797.png,0.0,0.59275746,0.8258493,-0.16482082
alexnet_w3_mlp_simclrhn_probe3,1,594,NaN,bicycle,bicycle,true,0594_fc_dnn_true_bicycle_35_n02835271_15930.png,n02835271_15930.png,1.0,7.33743,1.3865803,4.207886
alexnet_w3_mlp_simclrhn_probe3,1,595,NaN,knife,knife,true,0595_fc_dnn_true_knife_35_n03041632_13656.png,n03041632_13656.png,1.0,1.6730921,1.6005812,0.051272992
alexnet_w3_mlp_simclrhn_probe3,1,596,NaN,knife,clock,false,0596_fc_dnn_false_clock_35_n02708093_8104.png,n02708093_8104.png,0.0,0.34236392,1.1536481,-0.57366455
alexnet_w3_mlp_simclrhn_probe3,1,597,NaN,bicycle,truck,true,0597_fc_dnn_true_truck_35_n03796401_3148.png,n03796401_3148.png,0.0,-0.6080233,2.216879,-1.9975075
alexnet_w3_mlp_simclrhn_probe3,1,598,NaN,elephant,bottle,false,0598_fc_dnn_false_bottle_35_n04560804_15263.png,n04560804_15263.png,0.0,-1.1699661,1.4095523,-1.8239949
alexnet_w3_mlp_simclrhn_probe3,1,599,NaN,airplane,airplane,true,0599_fc_dnn_true_airplane_35_n02690373_5003.png,n02690373_5003.png,1.0,2.1064754,1.1881692,0.6493405
alexnet_w3_mlp_simclrhn_probe3,1,600,NaN,boat,boat,false,0600_fc_dnn_false_boat_35_n03344393_994.png,n03344393_994.png,1.0,3.2988358,1.7213359,1.1154609
alexnet_w3_mlp_simclrhn_probe3,1,601,NaN,bicycle,bicycle,true,0601_fc_dnn_true_bicycle_35_n03792782_5959.png,n03792782_5959.png,1.0,10.968542,1.0463219,7.0160694
alexnet_w3_mlp_simclrhn_probe3,1,602,NaN,car,car,false,0602_fc_dnn_false_car_35_n04285008_9383.png,n04285008_9383.png,1.0,7.538076,2.183714,3.7861056
alexnet_w3_mlp_simclrhn_probe3,1,603,NaN,clock,clock,true,0603_fc_dnn_true_clock_35_n03196217_5627.png,n03196217_5627.png,1.0,2.4113185,2.2795818,0.09315196
alexnet_w3_mlp_simclrhn_probe3,1,604,NaN,bottle,bird,true,0604_fc_dnn_true_bird_35_n01534433_13846.png,n01534433_13846.png,0.0,0.23158896,0.38390717,-0.10770524
alexnet_w3_mlp_simclrhn_probe3,1,605,NaN,oven,dog,true,0605_fc_dnn_true_dog_35_n02105056_11269.png,n02105056_11269.png,0.0,1.0603187,1.3438011,-0.20045236
alexnet_w3_mlp_simclrhn_probe3,1,606,NaN,airplane,airplane,false,0606_fc_dnn_false_airplane_35_n02690373_9659.png,n02690373_9659.png,1.0,3.220859,1.9985716,0.86428773
alexnet_w3_mlp_simclrhn_probe3,1,607,NaN,chair,car,false,0607_fc_dnn_false_car_35_n04285008_3269.png,n04285008_3269.png,0.0,-0.39574766,4.9862165,-3.8056235
alexnet_w3_mlp_simclrhn_probe3,1,608,NaN,bottle,bottle,true,0608_fc_dnn_true_bottle_35_n02823428_3178.png,n02823428_3178.png,1.0,3.101708,2.0116286,0.7708025
alexnet_w3_mlp_simclrhn_probe3,1,609,NaN,elephant,elephant,false,0609_fc_dnn_false_elephant_35_n02504458_4849.png,n02504458_4849.png,1.0,5.459367,3.2802067,1.5408989
alexnet_w3_mlp_simclrhn_probe3,1,610,NaN,bear,bear,true,0610_fc_dnn_true_bear_35_n02134418_643.png,n02134418_643.png,1.0,3.5756087,1.3815043,1.5514661
alexnet_w3_mlp_simclrhn_probe3,1,611,NaN,boat,boat,true,0611_fc_dnn_true_boat_35_n03344393_7773.png,n03344393_7773.png,1.0,6.917437,1.0443879,4.152873
alexnet_w3_mlp_simclrhn_probe3,1,612,NaN,car,car,true,0612_fc_dnn_true_car_35_n02814533_26516.png,n02814533_26516.png,1.0,17.215464,8.967038,5.8325176
alexnet_w3_mlp_simclrhn_probe3,1,613,NaN,chair,cat,false,0613_fc_dnn_false_cat_35_n02123597_3314.png,n02123597_3314.png,0.0,-0.051879164,1.8006064,-1.309905
alexnet_w3_mlp_simclrhn_probe3,1,614,NaN,bicycle,bicycle,true,0614_fc_dnn_true_bicycle_35_n02835271_6539.png,n02835271_6539.png,1.0,11.717361,1.6283712,7.1339936
alexnet_w3_mlp_simclrhn_probe3,1,615,NaN,bear,bear,true,0615_fc_dnn_true_bear_35_n02132136_3090.png,n02132136_3090.png,1.0,11.464517,6.3115554,3.643694
alexnet_w3_mlp_simclrhn_probe3,1,616,NaN,car,car,true,0616_fc_dnn_true_car_35_n03100240_9171.png,n03100240_9171.png,1.0,10.5786495,7.166061,2.4130645
alexnet_w3_mlp_simclrhn_probe3,1,617,NaN,cat,cat,false,0617_fc_dnn_false_cat_35_n02123045_12060.png,n02123045_12060.png,1.0,8.343064,1.7756578,4.643858
alexnet_w3_mlp_simclrhn_probe3,1,618,NaN,truck,truck,false,0618_fc_dnn_false_truck_35_n03796401_26801.png,n03796401_26801.png,1.0,2.431871,1.3502389,0.76482934
alexnet_w3_mlp_simclrhn_probe3,1,619,NaN,cat,cat,false,0619_fc_dnn_false_cat_35_n02123045_15010.png,n02123045_15010.png,1.0,9.731765,1.4757059,5.8379154
alexnet_w3_mlp_simclrhn_probe3,1,620,NaN,chair,knife,true,0620_fc_dnn_true_knife_35_n03041632_24883.png,n03041632_24883.png,0.0,0.5378058,2.4603152,-1.3594195
alexnet_w3_mlp_simclrhn_probe3,1,621,NaN,elephant,cat,true,0621_fc_dnn_true_cat_35_n02123597_4040.png,n02123597_4040.png,0.0,0.90089875,1.1708798,-0.19090547
alexnet_w3_mlp_simclrhn_probe3,1,622,NaN,bird,bird,true,0622_fc_dnn_true_bird_35_n01843383_3019.png,n01843383_3019.png,1.0,2.7922747,0.86046004,1.3659992
alexnet_w3_mlp_simclrhn_probe3,1,623,NaN,bear,bear,true,0623_fc_dnn_true_bear_35_n02132136_8619.png,n02132136_8619.png,1.0,8.917629,5.688965,2.2830105
alexnet_w3_mlp_simclrhn_probe3,1,624,NaN,knife,airplane,false,0624_fc_dnn_false_airplane_35_n02690373_1912.png,n02690373_1912.png,0.0,1.2140036,1.5492415,-0.23704906
alexnet_w3_mlp_simclrhn_probe3,1,625,NaN,truck,truck,true,0625_fc_dnn_true_truck_35_n03417042_22828.png,n03417042_22828.png,1.0,6.414832,1.8219178,3.2476811
alexnet_w3_mlp_simclrhn_probe3,1,626,NaN,car,car,true,0626_fc_dnn_true_car_35_n03100240_2909.png,n03100240_2909.png,1.0,17.806578,8.453611,6.613546
alexnet_w3_mlp_simclrhn_probe3,1,627,NaN,oven,oven,true,0627_fc_dnn_true_oven_35_n04111531_22563.png,n04111531_22563.png,1.0,2.7043827,0.8583277,1.305358
alexnet_w3_mlp_simclrhn_probe3,1,628,NaN,truck,truck,false,0628_fc_dnn_false_truck_35_n03796401_18074.png,n03796401_18074.png,1.0,7.4494805,4.86616,1.8266835
