subj,session,trial,rt,object_response,category,condition,imagename,filename,is_correct,targ_act,max_nontarg_act,decision_margin
alexnet_w1_mlp_simclrhn_probe3,1,1,NaN,knife,knife,true,0001_fc_dnn_true_knife_35_n03041632_86251.png,n03041632_86251.png,1.0,3.320104,0.90817136,1.7054938
alexnet_w1_mlp_simclrhn_probe3,1,2,NaN,car,car,false,0002_fc_dnn_false_car_35_n03100240_16866.png,n03100240_16866.png,1.0,12.8266115,10.057905,1.9577711
alexnet_w1_mlp_simclrhn_probe3,1,3,NaN,knife,keyboard,false,0003_fc_dnn_false_keyboard_35_n03085013_21127.png,n03085013_21127.png,0.0,3.1693811,3.9283056,-0.53664064
alexnet_w1_mlp_simclrhn_probe3,1,4,NaN,truck,truck,true,0004_fc_dnn_true_truck_35_n03417042_10694.png,n03417042_10694.png,1.0,8.388669,2.216627,4.3642926
alexnet_w1_mlp_simclrhn_probe3,1,5,NaN,bird,bird,true,0005_fc_dnn_true_bird_35_n01614925_1962.png,n01614925_1962.png,1.0,3.9145966,1.989866,1.36099
alexnet_w1_mlp_simclrhn_probe3,1,6,NaN,knife,knife,false,0006_fc_dnn_false_knife_35_n03041632_99875.png,n03041632_99875.png,1.0,3.1662323,0.6792486,1.7585632
alexnet_w1_mlp_simclrhn_probe3,1,7,NaN,bicycle,bicycle,true,0007_fc_dnn_true_bicycle_35_n03792782_14935.png,n03792782_14935.png,1.0,3.2488444,0.74998784,1.7669585
alexnet_w1_mlp_simclrhn_probe3,1,8,NaN,elephant,elephant,false,0008_fc_dnn_false_elephant_35_n02504013_5027.png,n02504013_5027.png,1.0,3.052569,0.7737008,1.6114032
alexnet_w1_mlp_simclrhn_probe3,1,9,NaN,cat,dog,false,0009_fc_dnn_false_dog_35_n02090721_129.png,n02090721_129.png,0.0,2.1193788,3.624232,-1.0640919
alexnet_w1_mlp_simclrhn_probe3,1,10,NaN,airplane,airplane,true,0010_fc_dnn_true_airplane_35_n02690373_9241.png,n02690373_9241.png,1.0,10.777117,3.4610353,5.173251
alexnet_w1_mlp_simclrhn_probe3,1,11,NaN,truck,truck,true,0011_fc_dnn_true_truck_35_n04467665_62080.png,n04467665_62080.png,1.0,8.20837,3.8444338,3.0857692
alexnet_w1_mlp_simclrhn_probe3,1,12,NaN,keyboard,keyboard,true,0012_fc_dnn_true_keyboard_35_n04505470_2669.png,n04505470_2669.png,1.0,3.128263,1.9584639,0.8271729
alexnet_w1_mlp_simclrhn_probe3,1,13,NaN,oven,oven,false,0013_fc_dnn_false_oven_35_n04111531_688.png,n04111531_688.png,1.0,2.541569,1.2150788,0.9379702
alexnet_w1_mlp_simclrhn_probe3,1,14,NaN,car,car,true,0014_fc_dnn_true_car_35_n03100240_21982.png,n03100240_21982.png,1.0,15.636284,8.049013,5.3650107
alexnet_w1_mlp_simclrhn_probe3,1,15,NaN,bicycle,bicycle,true,0015_fc_dnn_true_bicycle_35_n02835271_4191.png,n02835271_4191.png,1.0,7.9761753,1.1966312,4.7938614
alexnet_w1_mlp_simclrhn_probe3,1,16,NaN,car,car,true,0016_fc_dnn_true_car_35_n02814533_25278.png,n02814533_25278.png,1.0,6.971853,5.478816,1.0557364
alexnet_w1_mlp_simclrhn_probe3,1,17,NaN,oven,knife,false,0017_fc_dnn_false_knife_35_n03041632_23087.png,n03041632_23087.png,0.0,-0.10958038,2.4940786,-1.8410649
alexnet_w1_mlp_simclrhn_probe3,1,18,NaN,keyboard,clock,true,0018_fc_dnn_true_clock_35_n03196217_11252.png,n03196217_11252.png,0.0,1.8584155,3.5821939,-1.2188954
alexnet_w1_mlp_simclrhn_probe3,1,19,NaN,boat,boat,false,0019_fc_dnn_false_boat_35_n04273569_2040.png,n04273569_2040.png,1.0,10.571119,6.394474,2.9533343
alexnet_w1_mlp_simclrhn_probe3,1,20,NaN,knife,knife,true,0020_fc_dnn_true_knife_35_n03041632_84869.png,n03041632_84869.png,1.0,2.9430878,1.4654523,1.044846
alexnet_w1_mlp_simclrhn_probe3,1,21,NaN,clock,clock,true,0021_fc_dnn_true_clock_35_n04548280_503.png,n04548280_503.png,1.0,6.8073063,0.9362997,4.1514287
alexnet_w1_mlp_simclrhn_probe3,1,22,NaN,truck,truck,false,0022_fc_dnn_false_truck_35_n03417042_10654.png,n03417042_10654.png,1.0,6.025371,3.0968506,2.0707767
alexnet_w1_mlp_simclrhn_probe3,1,23,NaN,boat,boat,true,0023_fc_dnn_true_boat_35_n03344393_2919.png,n03344393_2919.png,1.0,5.1212783,5.0094895,0.079046585
alexnet_w1_mlp_simclrhn_probe3,1,24,NaN,chair,chair,false,0024_fc_dnn_false_chair_35_n04099969_7718.png,n04099969_7718.png,1.0,3.3924448,1.8657932,1.0795057
alexnet_w1_mlp_simclrhn_probe3,1,25,NaN,oven,oven,true,0025_fc_dnn_true_oven_35_n04111531_3477.png,n04111531_3477.png,1.0,5.3929286,2.0680704,2.3510299
alexnet_w1_mlp_simclrhn_probe3,1,26,NaN,bear,dog,false,0026_fc_dnn_false_dog_35_n02113712_913.png,n02113712_913.png,0.0,2.220129,3.0139935,-0.56134695
alexnet_w1_mlp_simclrhn_probe3,1,27,NaN,chair,chair,false,0027_fc_dnn_false_chair_35_n02791124_13701.png,n02791124_13701.png,1.0,4.826033,3.7670014,0.7488485
alexnet_w1_mlp_simclrhn_probe3,1,28,NaN,airplane,airplane,true,0028_fc_dnn_true_airplane_35_n02690373_8538.png,n02690373_8538.png,1.0,6.547948,2.938112,2.5525393
alexnet_w1_mlp_simclrhn_probe3,1,29,NaN,oven,knife,true,0029_fc_dnn_true_knife_35_n03041632_98864.png,n03041632_98864.png,0.0,1.2647643,1.3539982,-0.06309788
alexnet_w1_mlp_simclrhn_probe3,1,30,NaN,airplane,clock,false,0030_fc_dnn_false_clock_35_n04548280_5466.png,n04548280_5466.png,0.0,1.1416272,1.9600399,-0.57870513
alexnet_w1_mlp_simclrhn_probe3,1,31,NaN,keyboard,keyboard,true,0031_fc_dnn_true_keyboard_35_n04505470_4033.png,n04505470_4033.png,1.0,13.755235,4.440144,6.5867634
alexnet_w1_mlp_simclrhn_probe3,1,32,NaN,boat,boat,false,0032_fc_dnn_false_boat_35_n03344393_7503.png,n03344393_7503.png,1.0,1.9193084,1.1606131,0.53647864
alexnet_w1_mlp_simclrhn_probe3,1,33,NaN,bottle,bottle,false,0033_fc_dnn_false_bottle_35_n02823428_3402.png,n02823428_3402.png,1.0,4.6743608,1.948892,1.9271973
alexnet_w1_mlp_simclrhn_probe3,1,34,NaN,oven,boat,true,0034_fc_dnn_true_boat_35_n03662601_15766.png,n03662601_15766.png,0.0,0.22576904,2.443044,-1.5678501
alexnet_w1_mlp_simclrhn_probe3,1,35,NaN,dog,dog,true,0035_fc_dnn_true_dog_35_n02097047_1351.png,n02097047_1351.png,1.0,2.8306086,0.6449284,1.5455093
alexnet_w1_mlp_simclrhn_probe3,1,36,NaN,knife,keyboard,true,0036_fc_dnn_true_keyboard_35_n03085013_23562.png,n03085013_23562.png,0.0,1.1809509,2.9912534,-1.2800772
alexnet_w1_mlp_simclrhn_probe3,1,37,NaN,oven,clock,false,0037_fc_dnn_false_clock_35_n04548280_7872.png,n04548280_7872.png,0.0,1.1063691,4.501671,-2.400841
alexnet_w1_mlp_simclrhn_probe3,1,38,NaN,dog,dog,false,0038_fc_dnn_false_dog_35_n02106166_16884.png,n02106166_16884.png,1.0,2.3794374,2.1525009,0.1604684
alexnet_w1_mlp_simclrhn_probe3,1,39,NaN,oven,oven,true,0039_fc_dnn_true_oven_35_n04111531_3353.png,n04111531_3353.png,1.0,1.515506,1.0205872,0.34996048
alexnet_w1_mlp_simclrhn_probe3,1,40,NaN,bottle,knife,false,0040_fc_dnn_false_knife_35_n03041632_46185.png,n03041632_46185.png,0.0,0.81692857,1.8451158,-0.7270382
alexnet_w1_mlp_simclrhn_probe3,1,41,NaN,knife,knife,true,0041_fc_dnn_true_knife_35_n03041632_14766.png,n03041632_14766.png,1.0,3.3109112,2.460901,0.60104793
alexnet_w1_mlp_simclrhn_probe3,1,42,NaN,knife,chair,true,0042_fc_dnn_true_chair_35_n02791124_2150.png,n02791124_2150.png,0.0,0.45614213,1.6420069,-0.838533
alexnet_w1_mlp_simclrhn_probe3,1,43,NaN,elephant,elephant,false,0043_fc_dnn_false_elephant_35_n02504458_4631.png,n02504458_4631.png,1.0,2.409608,1.737216,0.47545287
alexnet_w1_mlp_simclrhn_probe3,1,44,NaN,chair,chair,false,0044_fc_dnn_false_chair_35_n03376595_3223.png,n03376595_3223.png,1.0,1.9293623,1.8839875,0.032084797
alexnet_w1_mlp_simclrhn_probe3,1,45,NaN,car,car,false,0045_fc_dnn_false_car_35_n03100240_5399.png,n03100240_5399.png,1.0,14.973579,9.094217,4.1573367
alexnet_w1_mlp_simclrhn_probe3,1,46,NaN,oven,bottle,true,0046_fc_dnn_true_bottle_35_n04557648_2512.png,n04557648_2512.png,0.0,0.14680716,3.8498363,-2.618437
alexnet_w1_mlp_simclrhn_probe3,1,47,NaN,elephant,bicycle,true,0047_fc_dnn_true_bicycle_35_n03792782_8098.png,n03792782_8098.png,0.0,1.1921859,1.2239594,-0.022467306
alexnet_w1_mlp_simclrhn_probe3,1,48,NaN,bear,bear,true,0048_fc_dnn_true_bear_35_n02134418_11557.png,n02134418_11557.png,1.0,7.6857405,1.5808223,4.316829
alexnet_w1_mlp_simclrhn_probe3,1,49,NaN,knife,knife,true,0049_fc_dnn_true_knife_35_n03041632_45569.png,n03041632_45569.png,1.0,1.9513073,0.6101832,0.94831795
alexnet_w1_mlp_simclrhn_probe3,1,50,NaN,oven,bicycle,false,0050_fc_dnn_false_bicycle_35_n03792782_4740.png,n03792782_4740.png,0.0,0.715264,2.745818,-1.4358184
alexnet_w1_mlp_simclrhn_probe3,1,51,NaN,boat,boat,false,0051_fc_dnn_false_boat_35_n03662601_25404.png,n03662601_25404.png,1.0,8.095718,4.8171887,2.3182707
alexnet_w1_mlp_simclrhn_probe3,1,52,NaN,bird,bird,false,0052_fc_dnn_false_bird_35_n01796340_4853.png,n01796340_4853.png,1.0,0.79693204,0.61073756,0.13165939
alexnet_w1_mlp_simclrhn_probe3,1,53,NaN,oven,clock,true,0053_fc_dnn_true_clock_35_n03196217_5888.png,n03196217_5888.png,0.0,2.1078393,2.461628,-0.25016633
alexnet_w1_mlp_simclrhn_probe3,1,54,NaN,bicycle,bicycle,true,0054_fc_dnn_true_bicycle_35_n02835271_12871.png,n02835271_12871.png,1.0,12.9367,6.685976,4.4199295
alexnet_w1_mlp_simclrhn_probe3,1,55,NaN,keyboard,keyboard,false,0055_fc_dnn_false_keyboard_35_n03085013_28584.png,n03085013_28584.png,1.0,4.5845876,1.2074724,2.3879812
alexnet_w1_mlp_simclrhn_probe3,1,56,NaN,bear,cat,true,0056_fc_dnn_true_cat_35_n02123159_6184.png,n02123159_6184.png,0.0,0.6169272,3.9178033,-2.3340719
alexnet_w1_mlp_simclrhn_probe3,1,57,NaN,bicycle,bicycle,true,0057_fc_dnn_true_bicycle_35_n02835271_7592.png,n02835271_7592.png,1.0,18.125988,4.1792636,9.861823
alexnet_w1_mlp_simclrhn_probe3,1,58,NaN,elephant,elephant,false,0058_fc_dnn_false_elephant_35_n02504458_3205.png,n02504458_3205.png,1.0,12.639899,5.223091,5.2444754
alexnet_w1_mlp_simclrhn_probe3,1,59,NaN,cat,cat,false,0059_fc_dnn_false_cat_35_n02124075_7880.png,n02124075_7880.png,1.0,3.1666098,2.789198,0.26687047
alexnet_w1_mlp_simclrhn_probe3,1,60,NaN,truck,truck,false,0060_fc_dnn_false_truck_35_n04467665_2240.png,n04467665_2240.png,1.0,14.745867,4.6188855,7.1608577
alexnet_w1_mlp_simclrhn_probe3,1,61,NaN,bottle,bottle,true,0061_fc_dnn_true_bottle_35_n04560804_13316.png,n04560804_13316.png,1.0,3.3623073,1.3310184,1.4363382
alexnet_w1_mlp_simclrhn_probe3,1,62,NaN,airplane,airplane,false,0062_fc_dnn_false_airplane_35_n02690373_3821.png,n02690373_3821.png,1.0,10.91518,2.1208074,6.2185607
alexnet_w1_mlp_simclrhn_probe3,1,63,NaN,chair,knife,true,0063_fc_dnn_true_knife_35_n03041632_17285.png,n03041632_17285.png,0.0,1.94954,2.7934012,-0.5967
alexnet_w1_mlp_simclrhn_probe3,1,64,NaN,chair,bottle,false,0064_fc_dnn_false_bottle_35_n02823428_10942.png,n02823428_10942.png,0.0,2.6826034,2.89018,-0.14677893
alexnet_w1_mlp_simclrhn_probe3,1,65,NaN,bicycle,bicycle,true,0065_fc_dnn_true_bicycle_35_n02835271_3642.png,n02835271_3642.png,1.0,12.845323,2.3391163,7.42901
alexnet_w1_mlp_simclrhn_probe3,1,66,NaN,knife,knife,true,0066_fc_dnn_true_knife_35_n03041632_16172.png,n03041632_16172.png,1.0,2.0308702,0.6554605,0.97256154
alexnet_w1_mlp_simclrhn_probe3,1,67,NaN,bicycle,bottle,false,0067_fc_dnn_false_bottle_35_n04560804_2448.png,n04560804_2448.png,0.0,-0.20969261,3.9141352,-2.9159868
alexnet_w1_mlp_simclrhn_probe3,1,68,NaN,oven,oven,false,0068_fc_dnn_false_oven_35_n04111531_4452.png,n04111531_4452.png,1.0,6.771672,1.0971721,4.012477
alexnet_w1_mlp_simclrhn_probe3,1,69,NaN,keyboard,keyboard,false,0069_fc_dnn_false_keyboard_35_n04505470_912.png,n04505470_912.png,1.0,11.551073,3.0370436,6.020328
alexnet_w1_mlp_simclrhn_probe3,1,70,NaN,elephant,cat,false,0070_fc_dnn_false_cat_35_n02123045_7167.png,n02123045_7167.png,0.0,0.40997374,1.7137053,-0.92187744
alexnet_w1_mlp_simclrhn_probe3,1,71,NaN,bicycle,bicycle,false,0071_fc_dnn_false_bicycle_35_n03792782_8333.png,n03792782_8333.png,1.0,2.503737,1.3263537,0.83253574
alexnet_w1_mlp_simclrhn_probe3,1,72,NaN,bear,dog,false,0072_fc_dnn_false_dog_35_n02107683_2904.png,n02107683_2904.png,0.0,1.1776615,2.3868706,-0.85503995
alexnet_w1_mlp_simclrhn_probe3,1,73,NaN,bottle,bottle,true,0073_fc_dnn_true_bottle_35_n04591713_3409.png,n04591713_3409.png,1.0,7.8739786,2.235322,3.9871323
alexnet_w1_mlp_simclrhn_probe3,1,74,NaN,elephant,bottle,false,0074_fc_dnn_false_bottle_35_n04560804_564.png,n04560804_564.png,0.0,0.20850876,2.1291218,-1.3580785
alexnet_w1_mlp_simclrhn_probe3,1,75,NaN,truck,truck,false,0075_fc_dnn_false_truck_35_n03796401_6503.png,n03796401_6503.png,1.0,8.766039,2.3850138,4.5120664
alexnet_w1_mlp_simclrhn_probe3,1,76,NaN,oven,oven,true,0076_fc_dnn_true_oven_35_n04111531_13590.png,n04111531_13590.png,1.0,6.6669235,2.173627,3.1772406
alexnet_w1_mlp_simclrhn_probe3,1,77,NaN,bird,bird,false,0077_fc_dnn_false_bird_35_n02018795_7504.png,n02018795_7504.png,1.0,2.7122521,0.36955494,1.656537
alexnet_w1_mlp_simclrhn_probe3,1,78,NaN,truck,car,false,0078_fc_dnn_false_car_35_n03100240_6626.png,n03100240_6626.png,0.0,8.443044,11.011957,-1.8164961
alexnet_w1_mlp_simclrhn_probe3,1,79,NaN,bear,bear,false,0079_fc_dnn_false_bear_35_n02134418_4364.png,n02134418_4364.png,1.0,7.761293,5.6491976,1.493477
alexnet_w1_mlp_simclrhn_probe3,1,80,NaN,airplane,knife,false,0080_fc_dnn_false_knife_35_n03041632_8051.png,n03041632_8051.png,0.0,0.8132197,3.5660436,-1.9465405
alexnet_w1_mlp_simclrhn_probe3,1,81,NaN,airplane,airplane,true,0081_fc_dnn_true_airplane_35_n02690373_1434.png,n02690373_1434.png,1.0,7.6569037,2.8290534,3.4138057
alexnet_w1_mlp_simclrhn_probe3,1,82,NaN,clock,clock,true,0082_fc_dnn_true_clock_35_n04548280_5408.png,n04548280_5408.png,1.0,5.313187,1.7172124,2.5427382
alexnet_w1_mlp_simclrhn_probe3,1,83,NaN,cat,cat,false,0083_fc_dnn_false_cat_35_n02123597_3916.png,n02123597_3916.png,1.0,2.0695162,1.7328433,0.2380637
alexnet_w1_mlp_simclrhn_probe3,1,84,NaN,clock,clock,false,0084_fc_dnn_false_clock_35_n04548280_4542.png,n04548280_4542.png,1.0,2.287669,1.214567,0.7587977
alexnet_w1_mlp_simclrhn_probe3,1,85,NaN,airplane,car,true,0085_fc_dnn_true_car_35_n04285008_14161.png,n04285008_14161.png,0.0,0.520607,2.368851,-1.3069059
alexnet_w1_mlp_simclrhn_probe3,1,86,NaN,airplane,airplane,false,0086_fc_dnn_false_airplane_35_n02690373_7279.png,n02690373_7279.png,1.0,6.0775576,3.900592,1.539347
alexnet_w1_mlp_simclrhn_probe3,1,87,NaN,elephant,bear,true,0087_fc_dnn_true_bear_35_n02132136_11640.png,n02132136_11640.png,0.0,4.1776295,5.2318053,-0.7454149
alexnet_w1_mlp_simclrhn_probe3,1,88,NaN,airplane,airplane,true,0088_fc_dnn_true_airplane_35_n02690373_8350.png,n02690373_8350.png,1.0,6.356484,2.8184204,2.5017889
alexnet_w1_mlp_simclrhn_probe3,1,89,NaN,boat,boat,true,0089_fc_dnn_true_boat_35_n04273569_30568.png,n04273569_30568.png,1.0,8.606519,8.372604,0.16540244
alexnet_w1_mlp_simclrhn_probe3,1,90,NaN,elephant,dog,true,0090_fc_dnn_true_dog_35_n02100583_19533.png,n02100583_19533.png,0.0,2.3539557,6.1268997,-2.6678743
alexnet_w1_mlp_simclrhn_probe3,1,91,NaN,knife,knife,true,0091_fc_dnn_true_knife_35_n03041632_965.png,n03041632_965.png,1.0,2.9309058,1.6773303,0.8864118
alexnet_w1_mlp_simclrhn_probe3,1,92,NaN,elephant,elephant,false,0092_fc_dnn_false_elephant_35_n02504458_6109.png,n02504458_6109.png,1.0,15.160927,6.693341,5.987488
alexnet_w1_mlp_simclrhn_probe3,1,93,NaN,oven,oven,true,0093_fc_dnn_true_oven_35_n04111531_10093.png,n04111531_10093.png,1.0,1.3903403,0.8025565,0.41562593
alexnet_w1_mlp_simclrhn_probe3,1,94,NaN,clock,clock,true,0094_fc_dnn_true_clock_35_n03196217_8221.png,n03196217_8221.png,1.0,2.2538898,1.5777028,0.47813645
alexnet_w1_mlp_simclrhn_probe3,1,95,NaN,bicycle,bicycle,false,0095_fc_dnn_false_bicycle_35_n03792782_828.png,n03792782_828.png,1.0,8.043164,1.6344144,4.5316706
alexnet_w1_mlp_simclrhn_probe3,1,96,NaN,knife,knife,true,0096_fc_dnn_true_knife_35_n03041632_7090.png,n03041632_7090.png,1.0,1.8269279,1.2911906,0.37882346
alexnet_w1_mlp_simclrhn_probe3,1,97,NaN,oven,bear,false,0097_fc_dnn_false_bear_35_n02134084_14260.png,n02134084_14260.png,0.0,0.9661547,1.5952137,-0.44481185
alexnet_w1_mlp_simclrhn_probe3,1,98,NaN,elephant,bear,false,0098_fc_dnn_false_bear_35_n02132136_10988.png,n02132136_10988.png,0.0,4.559747,4.6642103,-0.07386657
alexnet_w1_mlp_simclrhn_probe3,1,99,NaN,knife,keyboard,false,0099_fc_dnn_false_keyboard_35_n03085013_22980.png,n03085013_22980.png,0.0,0.67243445,1.3311048,-0.46575025
alexnet_w1_mlp_simclrhn_probe3,1,100,NaN,bottle,bottle,false,0100_fc_dnn_false_bottle_35_n04557648_3673.png,n04557648_3673.png,1.0,3.779227,3.076131,0.4971639
alexnet_w1_mlp_simclrhn_probe3,1,101,NaN,airplane,airplane,true,0101_fc_dnn_true_airplane_35_n02690373_1360.png,n02690373_1360.png,1.0,10.573654,3.532491,4.9788547
alexnet_w1_mlp_simclrhn_probe3,1,102,NaN,bicycle,oven,true,0102_fc_dnn_true_oven_35_n04111531_6415.png,n04111531_6415.png,0.0,-0.8765129,4.960585,-4.127452
alexnet_w1_mlp_simclrhn_probe3,1,103,NaN,knife,knife,false,0103_fc_dnn_false_knife_35_n03041632_32054.png,n03041632_32054.png,1.0,2.819709,0.93648607,1.3316398
alexnet_w1_mlp_simclrhn_probe3,1,104,NaN,clock,chair,false,0104_fc_dnn_false_chair_35_n03376595_9136.png,n03376595_9136.png,0.0,1.645429,1.6581273,-0.0089790495
alexnet_w1_mlp_simclrhn_probe3,1,105,NaN,car,keyboard,false,0105_fc_dnn_false_keyboard_35_n03085013_21266.png,n03085013_21266.png,0.0,2.2287276,2.4576921,-0.1619024
alexnet_w1_mlp_simclrhn_probe3,1,106,NaN,bicycle,bicycle,true,0106_fc_dnn_true_bicycle_35_n02835271_6137.png,n02835271_6137.png,1.0,12.186941,4.039507,5.761106
alexnet_w1_mlp_simclrhn_probe3,1,107,NaN,car,car,false,0107_fc_dnn_false_car_35_n04285008_14689.png,n04285008_14689.png,1.0,19.228342,14.381174,3.4274654
alexnet_w1_mlp_simclrhn_probe3,1,108,NaN,truck,truck,false,0108_fc_dnn_false_truck_35_n04467665_16276.png,n04467665_16276.png,1.0,11.8061905,4.752693,4.987576
alexnet_w1_mlp_simclrhn_probe3,1,109,NaN,chair,chair,false,0109_fc_dnn_false_chair_35_n03376595_787.png,n03376595_787.png,1.0,3.1177208,1.8326263,0.90869904
alexnet_w1_mlp_simclrhn_probe3,1,110,NaN,bicycle,boat,false,0110_fc_dnn_false_boat_35_n04612504_41355.png,n04612504_41355.png,0.0,5.7069755,8.676055,-2.0994563
alexnet_w1_mlp_simclrhn_probe3,1,111,NaN,elephant,elephant,true,0111_fc_dnn_true_elephant_35_n02504458_174.png,n02504458_174.png,1.0,10.574724,2.2079206,5.916224
alexnet_w1_mlp_simclrhn_probe3,1,112,NaN,cat,cat,true,0112_fc_dnn_true_cat_35_n02125311_6746.png,n02125311_6746.png,1.0,3.237466,3.1391644,0.06950977
alexnet_w1_mlp_simclrhn_probe3,1,113,NaN,keyboard,keyboard,false,0113_fc_dnn_false_keyboard_35_n03085013_23287.png,n03085013_23287.png,1.0,4.855546,1.9616493,2.046294
alexnet_w1_mlp_simclrhn_probe3,1,114,NaN,clock,clock,true,0114_fc_dnn_true_clock_35_n04548280_8071.png,n04548280_8071.png,1.0,4.4445553,3.0497043,0.9863086
alexnet_w1_mlp_simclrhn_probe3,1,115,NaN,oven,oven,false,0115_fc_dnn_false_oven_35_n04111531_14543.png,n04111531_14543.png,1.0,7.2818856,1.3945358,4.1629853
alexnet_w1_mlp_simclrhn_probe3,1,116,NaN,car,car,false,0116_fc_dnn_false_car_35_n03100240_10791.png,n03100240_10791.png,1.0,14.182927,8.005131,4.368362
alexnet_w1_mlp_simclrhn_probe3,1,117,NaN,airplane,airplane,true,0117_fc_dnn_true_airplane_35_n02690373_2619.png,n02690373_2619.png,1.0,6.9036083,2.902698,2.8290708
alexnet_w1_mlp_simclrhn_probe3,1,118,NaN,keyboard,keyboard,true,0118_fc_dnn_true_keyboard_35_n04505470_3864.png,n04505470_3864.png,1.0,3.711986,1.6965878,1.4251018
alexnet_w1_mlp_simclrhn_probe3,1,119,NaN,bear,dog,true,0119_fc_dnn_true_dog_35_n02097658_4387.png,n02097658_4387.png,0.0,1.381461,2.2528305,-0.6161513
alexnet_w1_mlp_simclrhn_probe3,1,120,NaN,clock,clock,true,0120_fc_dnn_true_clock_35_n04548280_309.png,n04548280_309.png,1.0,4.7873063,3.9302533,0.606028
alexnet_w1_mlp_simclrhn_probe3,1,121,NaN,dog,dog,true,0121_fc_dnn_true_dog_35_n02108000_5247.png,n02108000_5247.png,1.0,1.8719052,0.96954656,0.6380639
alexnet_w1_mlp_simclrhn_probe3,1,122,NaN,oven,keyboard,false,0122_fc_dnn_false_keyboard_35_n04505470_4411.png,n04505470_4411.png,0.0,2.9913259,4.5078573,-1.0723497
alexnet_w1_mlp_simclrhn_probe3,1,123,NaN,oven,truck,false,0123_fc_dnn_false_truck_35_n03417042_2155.png,n03417042_2155.png,0.0,2.0037627,4.1268654,-1.5012603
alexnet_w1_mlp_simclrhn_probe3,1,124,NaN,bear,bear,false,0124_fc_dnn_false_bear_35_n02132136_4237.png,n02132136_4237.png,1.0,7.5109506,4.833456,1.8932745
alexnet_w1_mlp_simclrhn_probe3,1,125,NaN,bird,bird,false,0125_fc_dnn_false_bird_35_n01843065_2350.png,n01843065_2350.png,1.0,2.891188,0.4806502,1.7045076
alexnet_w1_mlp_simclrhn_probe3,1,126,NaN,knife,knife,false,0126_fc_dnn_false_knife_35_n03041632_51225.png,n03041632_51225.png,1.0,2.362397,1.3495181,0.7162135
alexnet_w1_mlp_simclrhn_probe3,1,127,NaN,airplane,airplane,false,0127_fc_dnn_false_airplane_35_n02690373_2095.png,n02690373_2095.png,1.0,7.665272,2.495028,3.6559148
alexnet_w1_mlp_simclrhn_probe3,1,128,NaN,clock,clock,true,0128_fc_dnn_true_clock_35_n02708093_1775.png,n02708093_1775.png,1.0,5.552822,1.4745405,2.8837805
alexnet_w1_mlp_simclrhn_probe3,1,129,NaN,elephant,elephant,true,0129_fc_dnn_true_elephant_35_n02504458_7950.png,n02504458_7950.png,1.0,22.35183,7.2399974,10.6856785
alexnet_w1_mlp_simclrhn_probe3,1,130,NaN,boat,boat,true,0130_fc_dnn_true_boat_35_n03662601_1926.png,n03662601_1926.png,1.0,7.664323,2.1905994,3.870507
alexnet_w1_mlp_simclrhn_probe3,1,131,NaN,elephant,elephant,true,0131_fc_dnn_true_elephant_35_n02504458_6721.png,n02504458_6721.png,1.0,2.9176266,2.0372443,0.6225243
alexnet_w1_mlp_simclrhn_probe3,1,132,NaN,bicycle,bicycle,true,0132_fc_dnn_true_bicycle_35_n02835271_14225.png,n02835271_14225.png,1.0,4.212431,0.6707542,2.5043437
alexnet_w1_mlp_simclrhn_probe3,1,133,NaN,clock,clock,false,0133_fc_dnn_false_clock_35_n02708093_2744.png,n02708093_2744.png,1.0,1.7050848,1.1401756,0.39945114
alexnet_w1_mlp_simclrhn_probe3,1,134,NaN,clock,clock,true,0134_fc_dnn_true_clock_35_n02708093_275.png,n02708093_275.png,1.0,10.312844,1.6045809,6.1576724
alexnet_w1_mlp_simclrhn_probe3,1,135,NaN,knife,knife,false,0135_fc_dnn_false_knife_35_n03041632_25512.png,n03041632_25512.png,1.0,0.75875145,0.7052017,0.037865404
alexnet_w1_mlp_simclrhn_probe3,1,136,NaN,bicycle,bird,true,0136_fc_dnn_true_bird_35_n01622779_5441.png,n01622779_5441.png,0.0,0.4438916,0.91002387,-0.32960528
alexnet_w1_mlp_simclrhn_probe3,1,137,NaN,keyboard,oven,false,0137_fc_dnn_false_oven_35_n04111531_14329.png,n04111531_14329.png,0.0,0.19648445,4.359464,-2.9436712
alexnet_w1_mlp_simclrhn_probe3,1,138,NaN,bird,bird,false,0138_fc_dnn_false_bird_35_n02007558_13217.png,n02007558_13217.png,1.0,5.2325883,0.88426775,3.074727
alexnet_w1_mlp_simclrhn_probe3,1,139,NaN,bear,cat,true,0139_fc_dnn_true_cat_35_n02123597_7908.png,n02123597_7908.png,0.0,1.9933125,2.0258698,-0.023021536
alexnet_w1_mlp_simclrhn_probe3,1,140,NaN,clock,clock,true,0140_fc_dnn_true_clock_35_n04548280_9828.png,n04548280_9828.png,1.0,8.323594,0.67769784,5.4064655
alexnet_w1_mlp_simclrhn_probe3,1,141,NaN,bird,bird,false,0141_fc_dnn_false_bird_35_n01833805_4819.png,n01833805_4819.png,1.0,0.5020172,0.32643417,0.12415595
alexnet_w1_mlp_simclrhn_probe3,1,142,NaN,oven,knife,true,0142_fc_dnn_true_knife_35_n03041632_52929.png,n03041632_52929.png,0.0,1.500849,1.6196482,-0.08400373
alexnet_w1_mlp_simclrhn_probe3,1,143,NaN,truck,truck,false,0143_fc_dnn_false_truck_35_n04467665_2044.png,n04467665_2044.png,1.0,11.505972,1.2717376,7.2366962
alexnet_w1_mlp_simclrhn_probe3,1,144,NaN,oven,oven,false,0144_fc_dnn_false_oven_35_n04111531_16583.png,n04111531_16583.png,1.0,5.2390184,3.2418222,1.412231
alexnet_w1_mlp_simclrhn_probe3,1,145,NaN,airplane,airplane,true,0145_fc_dnn_true_airplane_35_n02690373_2796.png,n02690373_2796.png,1.0,7.3321714,5.1710243,1.5281618
alexnet_w1_mlp_simclrhn_probe3,1,146,NaN,airplane,airplane,false,0146_fc_dnn_false_airplane_35_n02690373_3362.png,n02690373_3362.png,1.0,7.799922,4.34069,2.4460464
alexnet_w1_mlp_simclrhn_probe3,1,147,NaN,clock,clock,true,0147_fc_dnn_true_clock_35_n02708093_3759.png,n02708093_3759.png,1.0,7.832718,1.4747685,4.495749
alexnet_w1_mlp_simclrhn_probe3,1,148,NaN,elephant,elephant,true,0148_fc_dnn_true_elephant_35_n02504013_2558.png,n02504013_2558.png,1.0,7.674939,3.0537093,3.2677033
alexnet_w1_mlp_simclrhn_probe3,1,149,NaN,bear,bear,false,0149_fc_dnn_false_bear_35_n02134418_896.png,n02134418_896.png,1.0,0.9829329,0.68948114,0.20750175
alexnet_w1_mlp_simclrhn_probe3,1,150,NaN,truck,truck,false,0150_fc_dnn_false_truck_35_n04467665_56815.png,n04467665_56815.png,1.0,9.724712,3.6435456,4.3000345
alexnet_w1_mlp_simclrhn_probe3,1,151,NaN,truck,truck,true,0151_fc_dnn_true_truck_35_n03796401_3695.png,n03796401_3695.png,1.0,4.7679462,0.59805214,2.9485605
alexnet_w1_mlp_simclrhn_probe3,1,152,NaN,dog,dog,true,0152_fc_dnn_true_dog_35_n02107312_197.png,n02107312_197.png,1.0,1.0755517,0.9814739,0.06652307
alexnet_w1_mlp_simclrhn_probe3,1,153,NaN,bear,bear,false,0153_fc_dnn_false_bear_35_n02133161_13356.png,n02133161_13356.png,1.0,2.7658434,0.7841675,1.4012564
alexnet_w1_mlp_simclrhn_probe3,1,154,NaN,truck,truck,false,0154_fc_dnn_false_truck_35_n03796401_6923.png,n03796401_6923.png,1.0,2.51432,2.2712505,0.17187603
alexnet_w1_mlp_simclrhn_probe3,1,155,NaN,elephant,elephant,true,0155_fc_dnn_true_elephant_35_n02504458_7660.png,n02504458_7660.png,1.0,3.7122424,2.2529204,1.0318965
alexnet_w1_mlp_simclrhn_probe3,1,156,NaN,bicycle,bicycle,false,0156_fc_dnn_false_bicycle_35_n02835271_6554.png,n02835271_6554.png,1.0,18.449165,3.6104143,10.492581
alexnet_w1_mlp_simclrhn_probe3,1,157,NaN,boat,boat,true,0157_fc_dnn_true_boat_35_n04273569_2698.png,n04273569_2698.png,1.0,6.4774413,3.0861402,2.3980122
alexnet_w1_mlp_simclrhn_probe3,1,158,NaN,dog,bottle,true,0158_fc_dnn_true_bottle_35_n03983396_5055.png,n03983396_5055.png,0.0,-0.21226868,1.8224577,-1.4387689
alexnet_w1_mlp_simclrhn_probe3,1,159,NaN,chair,chair,true,0159_fc_dnn_true_chair_35_n04429376_22811.png,n04429376_22811.png,1.0,3.0845356,1.3628945,1.2173841
alexnet_w1_mlp_simclrhn_probe3,1,160,NaN,knife,knife,false,0160_fc_dnn_false_knife_35_n03041632_5640.png,n03041632_5640.png,1.0,3.4270287,2.342484,0.7668889
alexnet_w1_mlp_simclrhn_probe3,1,161,NaN,oven,bird,true,0161_fc_dnn_true_bird_35_n01795545_14857.png,n01795545_14857.png,0.0,0.75547105,1.1966937,-0.3119915
alexnet_w1_mlp_simclrhn_probe3,1,162,NaN,oven,oven,false,0162_fc_dnn_false_oven_35_n04111531_16144.png,n04111531_16144.png,1.0,8.773134,2.39176,4.5123134
alexnet_w1_mlp_simclrhn_probe3,1,163,NaN,car,truck,false,0163_fc_dnn_false_truck_35_n04467665_47050.png,n04467665_47050.png,0.0,0.32225132,1.2198578,-0.63470364
alexnet_w1_mlp_simclrhn_probe3,1,164,NaN,clock,bottle,true,0164_fc_dnn_true_bottle_35_n03937543_8063.png,n03937543_8063.png,0.0,1.3948563,5.91305,-3.1948454
alexnet_w1_mlp_simclrhn_probe3,1,165,NaN,bear,bear,false,0165_fc_dnn_false_bear_35_n02134084_1655.png,n02134084_1655.png,1.0,2.6268375,2.6231651,0.0025967518
alexnet_w1_mlp_simclrhn_probe3,1,166,NaN,oven,car,false,0166_fc_dnn_false_car_35_n03100240_2425.png,n03100240_2425.png,0.0,-0.023334006,3.312046,-2.35847
alexnet_w1_mlp_simclrhn_probe3,1,167,NaN,keyboard,keyboard,false,0167_fc_dnn_false_keyboard_35_n03085013_21300.png,n03085013_21300.png,1.0,5.0265255,1.9922279,2.1455724
alexnet_w1_mlp_simclrhn_probe3,1,168,NaN,bear,bear,false,0168_fc_dnn_false_bear_35_n02132136_2248.png,n02132136_2248.png,1.0,3.2371361,2.0076647,0.8693676
alexnet_w1_mlp_simclrhn_probe3,1,169,NaN,knife,knife,false,0169_fc_dnn_false_knife_35_n03041632_27832.png,n03041632_27832.png,1.0,2.3602667,1.593478,0.5422015
alexnet_w1_mlp_simclrhn_probe3,1,170,NaN,keyboard,keyboard,true,0170_fc_dnn_true_keyboard_35_n04505470_4682.png,n04505470_4682.png,1.0,13.04817,4.2370973,6.2303696
alexnet_w1_mlp_simclrhn_probe3,1,171,NaN,boat,truck,false,0171_fc_dnn_false_truck_35_n03417042_12908.png,n03417042_12908.png,0.0,1.3124013,2.4198549,-0.78308797
alexnet_w1_mlp_simclrhn_probe3,1,172,NaN,elephant,elephant,false,0172_fc_dnn_false_elephant_35_n02504013_2148.png,n02504013_2148.png,1.0,3.885901,1.6390392,1.5887713
alexnet_w1_mlp_simclrhn_probe3,1,173,NaN,airplane,boat,true,0173_fc_dnn_true_boat_35_n02951358_20379.png,n02951358_20379.png,0.0,2.0898461,2.4647377,-0.26508835
alexnet_w1_mlp_simclrhn_probe3,1,174,NaN,cat,cat,true,0174_fc_dnn_true_cat_35_n02123394_6521.png,n02123394_6521.png,1.0,2.0850015,1.1912614,0.6319697
alexnet_w1_mlp_simclrhn_probe3,1,175,NaN,boat,boat,true,0175_fc_dnn_true_boat_35_n03662601_9602.png,n03662601_9602.png,1.0,8.542489,2.64947,4.1669936
alexnet_w1_mlp_simclrhn_probe3,1,176,NaN,clock,clock,true,0176_fc_dnn_true_clock_35_n04548280_3997.png,n04548280_3997.png,1.0,6.9435477,1.1291504,4.1113997
alexnet_w1_mlp_simclrhn_probe3,1,177,NaN,car,car,false,0177_fc_dnn_false_car_35_n03100240_12694.png,n03100240_12694.png,1.0,15.329108,4.8831987,7.3863735
alexnet_w1_mlp_simclrhn_probe3,1,178,NaN,bird,bird,false,0178_fc_dnn_false_bird_35_n02002556_25052.png,n02002556_25052.png,1.0,3.48395,1.628037,1.3123286
alexnet_w1_mlp_simclrhn_probe3,1,179,NaN,oven,chair,true,0179_fc_dnn_true_chair_35_n04429376_22734.png,n04429376_22734.png,0.0,1.3482025,2.3538227,-0.7110809
alexnet_w1_mlp_simclrhn_probe3,1,180,NaN,boat,boat,true,0180_fc_dnn_true_boat_35_n04612504_5334.png,n04612504_5334.png,1.0,11.355602,4.5290413,4.8271074
alexnet_w1_mlp_simclrhn_probe3,1,181,NaN,keyboard,keyboard,true,0181_fc_dnn_true_keyboard_35_n03085013_15484.png,n03085013_15484.png,1.0,5.898905,2.3347187,2.52026
alexnet_w1_mlp_simclrhn_probe3,1,182,NaN,bear,bear,true,0182_fc_dnn_true_bear_35_n02134418_1809.png,n02134418_1809.png,1.0,7.8018227,3.4038725,3.1098204
alexnet_w1_mlp_simclrhn_probe3,1,183,NaN,keyboard,bottle,true,0183_fc_dnn_true_bottle_35_n04560804_6392.png,n04560804_6392.png,0.0,1.6745253,1.858642,-0.13019018
alexnet_w1_mlp_simclrhn_probe3,1,184,NaN,boat,boat,false,0184_fc_dnn_false_boat_35_n02951358_29495.png,n02951358_29495.png,1.0,9.110547,3.1977487,4.1809797
alexnet_w1_mlp_simclrhn_probe3,1,185,NaN,dog,dog,false,0185_fc_dnn_false_dog_35_n02086646_8449.png,n02086646_8449.png,1.0,4.3233905,2.8359194,1.051801
alexnet_w1_mlp_simclrhn_probe3,1,186,NaN,bear,bird,true,0186_fc_dnn_true_bird_35_n02037110_4043.png,n02037110_4043.png,0.0,0.48984846,2.7915413,-1.6275427
alexnet_w1_mlp_simclrhn_probe3,1,187,NaN,elephant,elephant,true,0187_fc_dnn_true_elephant_35_n02504458_4819.png,n02504458_4819.png,1.0,8.056929,2.8704417,3.6674004
alexnet_w1_mlp_simclrhn_probe3,1,188,NaN,bird,bird,true,0188_fc_dnn_true_bird_35_n01829413_282.png,n01829413_282.png,1.0,4.5210586,0.38496295,2.9246612
alexnet_w1_mlp_simclrhn_probe3,1,189,NaN,elephant,bird,false,0189_fc_dnn_false_bird_35_n02007558_22160.png,n02007558_22160.png,0.0,1.269752,2.1255994,-0.6051755
alexnet_w1_mlp_simclrhn_probe3,1,190,NaN,boat,truck,false,0190_fc_dnn_false_truck_35_n03417042_3066.png,n03417042_3066.png,0.0,1.7891102,2.7756612,-0.69759697
alexnet_w1_mlp_simclrhn_probe3,1,191,NaN,boat,boat,true,0191_fc_dnn_true_boat_35_n04612504_254.png,n04612504_254.png,1.0,10.9628525,3.0626726,5.586271
alexnet_w1_mlp_simclrhn_probe3,1,192,NaN,keyboard,keyboard,false,0192_fc_dnn_false_keyboard_35_n03085013_20704.png,n03085013_20704.png,1.0,3.9659574,1.840232,1.5031148
alexnet_w1_mlp_simclrhn_probe3,1,193,NaN,knife,chair,true,0193_fc_dnn_true_chair_35_n03376595_3015.png,n03376595_3015.png,0.0,1.9636378,2.5560813,-0.4189208
alexnet_w1_mlp_simclrhn_probe3,1,194,NaN,keyboard,bottle,false,0194_fc_dnn_false_bottle_35_n03983396_3782.png,n03983396_3782.png,0.0,0.76404124,6.401432,-3.9862373
alexnet_w1_mlp_simclrhn_probe3,1,195,NaN,bird,bird,false,0195_fc_dnn_false_bird_35_n01592084_4087.png,n01592084_4087.png,1.0,2.4014704,0.44648468,1.3823837
alexnet_w1_mlp_simclrhn_probe3,1,196,NaN,bird,bird,false,0196_fc_dnn_false_bird_35_n02013706_651.png,n02013706_651.png,1.0,4.2417135,0.031501487,2.9770696
alexnet_w1_mlp_simclrhn_probe3,1,197,NaN,keyboard,keyboard,true,0197_fc_dnn_true_keyboard_35_n04505470_2825.png,n04505470_2825.png,1.0,7.175574,3.2485828,2.776802
alexnet_w1_mlp_simclrhn_probe3,1,198,NaN,oven,cat,false,0198_fc_dnn_false_cat_35_n02123597_23346.png,n02123597_23346.png,0.0,1.3187617,1.7629478,-0.314087
alexnet_w1_mlp_simclrhn_probe3,1,199,NaN,cat,cat,false,0199_fc_dnn_false_cat_35_n02124075_3592.png,n02124075_3592.png,1.0,3.3443706,0.7195613,1.8560205
alexnet_w1_mlp_simclrhn_probe3,1,200,NaN,airplane,airplane,false,0200_fc_dnn_false_airplane_35_n02690373_5415.png,n02690373_5415.png,1.0,6.9330554,1.7484012,3.6661043
alexnet_w1_mlp_simclrhn_probe3,1,201,NaN,cat,cat,true,0201_fc_dnn_true_cat_35_n02123597_4591.png,n02123597_4591.png,1.0,1.7108208,1.4945844,0.1529022
alexnet_w1_mlp_simclrhn_probe3,1,202,NaN,elephant,elephant,false,0202_fc_dnn_false_elephant_35_n02504013_2228.png,n02504013_2228.png,1.0,8.373606,4.364007,2.8352146
alexnet_w1_mlp_simclrhn_probe3,1,203,NaN,knife,knife,false,0203_fc_dnn_false_knife_35_n03041632_47743.png,n03041632_47743.png,1.0,2.4635196,1.0506752,0.9990319
alexnet_w1_mlp_simclrhn_probe3,1,204,NaN,bear,bear,false,0204_fc_dnn_false_bear_35_n02134418_1105.png,n02134418_1105.png,1.0,6.3259134,2.5186858,2.6921165
alexnet_w1_mlp_simclrhn_probe3,1,205,NaN,bottle,bottle,true,0205_fc_dnn_true_bottle_35_n04591713_1174.png,n04591713_1174.png,1.0,4.753098,4.559136,0.13715191
alexnet_w1_mlp_simclrhn_probe3,1,206,NaN,keyboard,keyboard,true,0206_fc_dnn_true_keyboard_35_n04505470_8544.png,n04505470_8544.png,1.0,4.240162,3.376717,0.61054766
alexnet_w1_mlp_simclrhn_probe3,1,207,NaN,bear,bear,true,0207_fc_dnn_true_bear_35_n02134418_379.png,n02134418_379.png,1.0,12.608795,4.630217,5.641707
alexnet_w1_mlp_simclrhn_probe3,1,208,NaN,bottle,knife,false,0208_fc_dnn_false_knife_35_n03041632_33198.png,n03041632_33198.png,0.0,0.81833005,2.487971,-1.1806145
alexnet_w1_mlp_simclrhn_probe3,1,209,NaN,bird,bear,true,0209_fc_dnn_true_bear_35_n02134084_4490.png,n02134084_4490.png,0.0,2.9080918,3.202219,-0.20797937
alexnet_w1_mlp_simclrhn_probe3,1,210,NaN,car,car,true,0210_fc_dnn_true_car_35_n02814533_23592.png,n02814533_23592.png,1.0,3.0753415,2.297152,0.55026305
alexnet_w1_mlp_simclrhn_probe3,1,211,NaN,bear,dog,false,0211_fc_dnn_false_dog_35_n02102973_7095.png,n02102973_7095.png,0.0,1.5989949,5.4343605,-2.7120132
alexnet_w1_mlp_simclrhn_probe3,1,212,NaN,elephant,elephant,true,0212_fc_dnn_true_elephant_35_n02504013_3810.png,n02504013_3810.png,1.0,17.330643,7.0891976,7.2417955
alexnet_w1_mlp_simclrhn_probe3,1,213,NaN,truck,truck,false,0213_fc_dnn_false_truck_35_n03417042_28742.png,n03417042_28742.png,1.0,8.263359,2.0343063,4.4046054
alexnet_w1_mlp_simclrhn_probe3,1,214,NaN,bicycle,bicycle,false,0214_fc_dnn_false_bicycle_35_n03792782_4382.png,n03792782_4382.png,1.0,13.657701,1.1312565,8.857534
alexnet_w1_mlp_simclrhn_probe3,1,215,NaN,keyboard,keyboard,false,0215_fc_dnn_false_keyboard_35_n04505470_2868.png,n04505470_2868.png,1.0,5.6045866,3.2601662,1.6577556
alexnet_w1_mlp_simclrhn_probe3,1,216,NaN,bear,bear,true,0216_fc_dnn_true_bear_35_n02132136_4817.png,n02132136_4817.png,1.0,7.0567865,3.2915657,2.6624134
alexnet_w1_mlp_simclrhn_probe3,1,217,NaN,bicycle,bicycle,true,0217_fc_dnn_true_bicycle_35_n03792782_1989.png,n03792782_1989.png,1.0,6.673252,1.8374422,3.4194338
alexnet_w1_mlp_simclrhn_probe3,1,218,NaN,truck,truck,true,0218_fc_dnn_true_truck_35_n03417042_4883.png,n03417042_4883.png,1.0,6.075008,1.5852144,3.1747637
alexnet_w1_mlp_simclrhn_probe3,1,219,NaN,bicycle,bicycle,true,0219_fc_dnn_true_bicycle_35_n03792782_6614.png,n03792782_6614.png,1.0,8.31213,1.7132059,4.666144
alexnet_w1_mlp_simclrhn_probe3,1,220,NaN,car,car,true,0220_fc_dnn_true_car_35_n04285008_8581.png,n04285008_8581.png,1.0,20.528734,11.6443615,6.2822003
alexnet_w1_mlp_simclrhn_probe3,1,221,NaN,truck,truck,true,0221_fc_dnn_true_truck_35_n04467665_22051.png,n04467665_22051.png,1.0,11.430248,2.2540376,6.4885607
alexnet_w1_mlp_simclrhn_probe3,1,222,NaN,keyboard,keyboard,true,0222_fc_dnn_true_keyboard_35_n04505470_4516.png,n04505470_4516.png,1.0,6.8124967,3.289007,2.4914834
alexnet_w1_mlp_simclrhn_probe3,1,223,NaN,clock,clock,true,0223_fc_dnn_true_clock_35_n02708093_3355.png,n02708093_3355.png,1.0,1.9328939,0.92753416,0.7108966
alexnet_w1_mlp_simclrhn_probe3,1,224,NaN,oven,chair,false,0224_fc_dnn_false_chair_35_n02791124_11404.png,n02791124_11404.png,0.0,2.9907947,3.513948,-0.36992526
alexnet_w1_mlp_simclrhn_probe3,1,225,NaN,airplane,boat,true,0225_fc_dnn_true_boat_35_n03344393_1145.png,n03344393_1145.png,0.0,6.3657393,6.571006,-0.14514531
alexnet_w1_mlp_simclrhn_probe3,1,226,NaN,chair,keyboard,false,0226_fc_dnn_false_keyboard_35_n04505470_4627.png,n04505470_4627.png,0.0,1.4445025,3.5396724,-1.481509
alexnet_w1_mlp_simclrhn_probe3,1,227,NaN,knife,chair,true,0227_fc_dnn_true_chair_35_n03376595_4354.png,n03376595_4354.png,0.0,2.0010946,3.8852332,-1.3322872
alexnet_w1_mlp_simclrhn_probe3,1,228,NaN,keyboard,keyboard,false,0228_fc_dnn_false_keyboard_35_n03085013_3231.png,n03085013_3231.png,1.0,10.578265,1.8229936,6.1909122
alexnet_w1_mlp_simclrhn_probe3,1,229,NaN,car,car,false,0229_fc_dnn_false_car_35_n03100240_7454.png,n03100240_7454.png,1.0,9.326234,5.8906856,2.4292996
alexnet_w1_mlp_simclrhn_probe3,1,230,NaN,truck,chair,false,0230_fc_dnn_false_chair_35_n03376595_4212.png,n03376595_4212.png,0.0,0.6822134,1.8398631,-0.81858194
alexnet_w1_mlp_simclrhn_probe3,1,231,NaN,airplane,airplane,true,0231_fc_dnn_true_airplane_35_n02690373_4175.png,n02690373_4175.png,1.0,10.074894,2.3721607,5.446655
alexnet_w1_mlp_simclrhn_probe3,1,232,NaN,bear,bird,false,0232_fc_dnn_false_bird_35_n01614925_19918.png,n01614925_19918.png,0.0,0.3589121,2.464818,-1.4891005
alexnet_w1_mlp_simclrhn_probe3,1,233,NaN,oven,dog,false,0233_fc_dnn_false_dog_35_n02086240_1183.png,n02086240_1183.png,0.0,0.3586017,1.7021406,-0.9500255
alexnet_w1_mlp_simclrhn_probe3,1,234,NaN,car,car,false,0234_fc_dnn_false_car_35_n02814533_1344.png,n02814533_1344.png,1.0,8.201008,6.00846,1.5503654
alexnet_w1_mlp_simclrhn_probe3,1,235,NaN,oven,bottle,true,0235_fc_dnn_true_bottle_35_n03983396_1321.png,n03983396_1321.png,0.0,0.36892587,1.9652328,-1.1287595
alexnet_w1_mlp_simclrhn_probe3,1,236,NaN,cat,cat,true,0236_fc_dnn_true_cat_35_n02123597_6291.png,n02123597_6291.png,1.0,4.5661125,1.9346054,1.8607566
alexnet_w1_mlp_simclrhn_probe3,1,237,NaN,knife,airplane,true,0237_fc_dnn_true_airplane_35_n02690373_7698.png,n02690373_7698.png,0.0,0.69501245,2.1427872,-1.0237314
alexnet_w1_mlp_simclrhn_probe3,1,238,NaN,airplane,airplane,false,0238_fc_dnn_false_airplane_35_n02690373_4191.png,n02690373_4191.png,1.0,1.9106185,0.7824271,0.79775184
alexnet_w1_mlp_simclrhn_probe3,1,239,NaN,cat,bear,true,0239_fc_dnn_true_bear_35_n02134418_6204.png,n02134418_6204.png,0.0,1.2636887,1.8021654,-0.38076055
alexnet_w1_mlp_simclrhn_probe3,1,240,NaN,elephant,bear,true,0240_fc_dnn_true_bear_35_n02132136_14829.png,n02132136_14829.png,0.0,2.3506453,2.4195766,-0.04874182
alexnet_w1_mlp_simclrhn_probe3,1,241,NaN,car,car,false,0241_fc_dnn_false_car_35_n04285008_2409.png,n04285008_2409.png,1.0,9.132821,5.809867,2.3496835
alexnet_w1_mlp_simclrhn_probe3,1,242,NaN,bird,bird,true,0242_fc_dnn_true_bird_35_n02037110_3761.png,n02037110_3761.png,1.0,6.5417514,1.3241372,3.6894104
alexnet_w1_mlp_simclrhn_probe3,1,243,NaN,boat,boat,false,0243_fc_dnn_false_boat_35_n02951358_3067.png,n02951358_3067.png,1.0,2.556105,1.6989194,0.60612166
alexnet_w1_mlp_simclrhn_probe3,1,244,NaN,chair,chair,false,0244_fc_dnn_false_chair_35_n03376595_14748.png,n03376595_14748.png,1.0,4.2897596,3.6813345,0.43022156
alexnet_w1_mlp_simclrhn_probe3,1,245,NaN,elephant,elephant,true,0245_fc_dnn_true_elephant_35_n02504458_5951.png,n02504458_5951.png,1.0,8.081277,4.3231134,2.657423
alexnet_w1_mlp_simclrhn_probe3,1,246,NaN,airplane,clock,false,0246_fc_dnn_false_clock_35_n02708093_2006.png,n02708093_2006.png,0.0,2.0943937,3.0280635,-0.6602043
alexnet_w1_mlp_simclrhn_probe3,1,247,NaN,car,car,false,0247_fc_dnn_false_car_35_n03100240_18646.png,n03100240_18646.png,1.0,6.9120116,2.0300894,3.4520404
alexnet_w1_mlp_simclrhn_probe3,1,248,NaN,bicycle,bicycle,false,0248_fc_dnn_false_bicycle_35_n03792782_5864.png,n03792782_5864.png,1.0,11.113968,2.0712078,6.394197
alexnet_w1_mlp_simclrhn_probe3,1,249,NaN,oven,chair,false,0249_fc_dnn_false_chair_35_n04429376_36830.png,n04429376_36830.png,0.0,1.5145123,3.2323365,-1.2146852
alexnet_w1_mlp_simclrhn_probe3,1,250,NaN,boat,boat,true,0250_fc_dnn_true_boat_35_n04273569_9282.png,n04273569_9282.png,1.0,4.715628,2.4044025,1.6342833
alexnet_w1_mlp_simclrhn_probe3,1,251,NaN,cat,bird,true,0251_fc_dnn_true_bird_35_n01622779_1609.png,n01622779_1609.png,0.0,0.83344567,1.6126219,-0.55096084
alexnet_w1_mlp_simclrhn_probe3,1,252,NaN,bicycle,dog,true,0252_fc_dnn_true_dog_35_n02088094_9498.png,n02088094_9498.png,0.0,1.5662727,2.485731,-0.6501551
alexnet_w1_mlp_simclrhn_probe3,1,253,NaN,car,car,true,0253_fc_dnn_true_car_35_n04285008_5525.png,n04285008_5525.png,1.0,5.492556,1.7281692,2.6618235
alexnet_w1_mlp_simclrhn_probe3,1,254,NaN,knife,knife,true,0254_fc_dnn_true_knife_35_n03041632_29343.png,n03041632_29343.png,1.0,1.5634143,0.5662533,0.70509934
alexnet_w1_mlp_simclrhn_probe3,1,255,NaN,oven,knife,true,0255_fc_dnn_true_knife_35_n03041632_86338.png,n03041632_86338.png,0.0,1.1953114,2.2115793,-0.7186099
alexnet_w1_mlp_simclrhn_probe3,1,256,NaN,keyboard,keyboard,false,0256_fc_dnn_false_keyboard_35_n03085013_20691.png,n03085013_20691.png,1.0,4.8761063,2.3457654,1.7892213
alexnet_w1_mlp_simclrhn_probe3,1,257,NaN,keyboard,cat,true,0257_fc_dnn_true_cat_35_n02124075_1957.png,n02124075_1957.png,0.0,1.3135883,1.7203681,-0.28763682
alexnet_w1_mlp_simclrhn_probe3,1,258,NaN,cat,bear,false,0258_fc_dnn_false_bear_35_n02134418_195.png,n02134418_195.png,0.0,2.4646664,2.4685621,-0.002754718
alexnet_w1_mlp_simclrhn_probe3,1,259,NaN,chair,chair,true,0259_fc_dnn_true_chair_35_n02791124_1376.png,n02791124_1376.png,1.0,3.3154938,1.7482322,1.1082213
alexnet_w1_mlp_simclrhn_probe3,1,260,NaN,elephant,elephant,false,0260_fc_dnn_false_elephant_35_n02504458_8060.png,n02504458_8060.png,1.0,9.687461,4.102208,3.9493701
alexnet_w1_mlp_simclrhn_probe3,1,261,NaN,oven,oven,false,0261_fc_dnn_false_oven_35_n04111531_6479.png,n04111531_6479.png,1.0,2.0205636,0.43030035,1.124486
alexnet_w1_mlp_simclrhn_probe3,1,262,NaN,bird,bear,true,0262_fc_dnn_true_bear_35_n02132136_4070.png,n02132136_4070.png,0.0,0.25256684,0.81004083,-0.39419368
alexnet_w1_mlp_simclrhn_probe3,1,263,NaN,dog,cat,false,0263_fc_dnn_false_cat_35_n02123597_1153.png,n02123597_1153.png,0.0,1.4871715,1.7345169,-0.17489956
alexnet_w1_mlp_simclrhn_probe3,1,264,NaN,truck,truck,false,0264_fc_dnn_false_truck_35_n04467665_49656.png,n04467665_49656.png,1.0,9.148485,3.7399347,3.8244226
alexnet_w1_mlp_simclrhn_probe3,1,265,NaN,dog,dog,true,0265_fc_dnn_true_dog_35_n02108915_10239.png,n02108915_10239.png,1.0,2.805927,1.6682788,0.80443877
alexnet_w1_mlp_simclrhn_probe3,1,266,NaN,oven,chair,false,0266_fc_dnn_false_chair_35_n04429376_6835.png,n04429376_6835.png,0.0,2.2287025,3.1870341,-0.67764276
alexnet_w1_mlp_simclrhn_probe3,1,267,NaN,truck,truck,true,0267_fc_dnn_true_truck_35_n04467665_54079.png,n04467665_54079.png,1.0,3.298846,2.4604733,0.59281904
alexnet_w1_mlp_simclrhn_probe3,1,268,NaN,clock,clock,false,0268_fc_dnn_false_clock_35_n03196217_4464.png,n03196217_4464.png,1.0,7.1909633,4.8296356,1.6697109
alexnet_w1_mlp_simclrhn_probe3,1,269,NaN,elephant,dog,true,0269_fc_dnn_true_dog_35_n02102318_9359.png,n02102318_9359.png,0.0,1.0495127,2.7873006,-1.2288016
alexnet_w1_mlp_simclrhn_probe3,1,270,NaN,bicycle,bicycle,true,0270_fc_dnn_true_bicycle_35_n03792782_12578.png,n03792782_12578.png,1.0,7.8484135,1.6144965,4.4080453
alexnet_w1_mlp_simclrhn_probe3,1,271,NaN,bicycle,bicycle,true,0271_fc_dnn_true_bicycle_35_n02835271_12752.png,n02835271_12752.png,1.0,14.726812,1.6518408,9.245401
alexnet_w1_mlp_simclrhn_probe3,1,272,NaN,oven,oven,true,0272_fc_dnn_true_oven_35_n04111531_20056.png,n04111531_20056.png,1.0,2.284186,0.7783658,1.0647756
alexnet_w1_mlp_simclrhn_probe3,1,273,NaN,oven,oven,true,0273_fc_dnn_true_oven_35_n04111531_12510.png,n04111531_12510.png,1.0,1.3680128,0.83025193,0.38025436
alexnet_w1_mlp_simclrhn_probe3,1,274,NaN,oven,oven,false,0274_fc_dnn_false_oven_35_n04111531_11079.png,n04111531_11079.png,1.0,7.2749085,2.4586282,3.4056246
alexnet_w1_mlp_simclrhn_probe3,1,275,NaN,cat,cat,true,0275_fc_dnn_true_cat_35_n02124075_4377.png,n02124075_4377.png,1.0,3.7609642,0.84172225,2.064216
alexnet_w1_mlp_simclrhn_probe3,1,276,NaN,airplane,knife,true,0276_fc_dnn_true_knife_35_n03041632_20517.png,n03041632_20517.png,0.0,2.0011315,2.2450225,-0.17245698
alexnet_w1_mlp_simclrhn_probe3,1,277,NaN,knife,knife,false,0277_fc_dnn_false_knife_35_n03041632_362.png,n03041632_362.png,1.0,3.2539132,0.861657,1.6915807
alexnet_w1_mlp_simclrhn_probe3,1,278,NaN,airplane,airplane,false,0278_fc_dnn_false_airplane_35_n02690373_6807.png,n02690373_6807.png,1.0,8.328813,4.1976266,2.9211898
alexnet_w1_mlp_simclrhn_probe3,1,279,NaN,elephant,elephant,false,0279_fc_dnn_false_elephant_35_n02504013_1494.png,n02504013_1494.png,1.0,14.681381,6.469084,5.806971
alexnet_w1_mlp_simclrhn_probe3,1,280,NaN,oven,oven,false,0280_fc_dnn_false_oven_35_n04111531_3181.png,n04111531_3181.png,1.0,2.3038318,1.6612186,0.45439613
alexnet_w1_mlp_simclrhn_probe3,1,281,NaN,car,truck,false,0281_fc_dnn_false_truck_35_n03796401_6727.png,n03796401_6727.png,0.0,7.587591,13.796613,-4.3904414
alexnet_w1_mlp_simclrhn_probe3,1,282,NaN,elephant,dog,true,0282_fc_dnn_true_dog_35_n02113023_6956.png,n02113023_6956.png,0.0,2.55477,4.758587,-1.5583339
alexnet_w1_mlp_simclrhn_probe3,1,283,NaN,elephant,elephant,false,0283_fc_dnn_false_elephant_35_n02504013_1519.png,n02504013_1519.png,1.0,1.6749923,1.27765,0.28096345
alexnet_w1_mlp_simclrhn_probe3,1,284,NaN,oven,oven,false,0284_fc_dnn_false_oven_35_n04111531_8082.png,n04111531_8082.png,1.0,3.0270329,2.6772385,0.24734199
alexnet_w1_mlp_simclrhn_probe3,1,285,NaN,oven,oven,false,0285_fc_dnn_false_oven_35_n04111531_550.png,n04111531_550.png,1.0,2.9678423,2.2676115,0.495138
alexnet_w1_mlp_simclrhn_probe3,1,286,NaN,bird,clock,false,0286_fc_dnn_false_clock_35_n02708093_2242.png,n02708093_2242.png,0.0,-0.58653784,0.6165083,-0.8506821
alexnet_w1_mlp_simclrhn_probe3,1,287,NaN,airplane,airplane,true,0287_fc_dnn_true_airplane_35_n02690373_10809.png,n02690373_10809.png,1.0,9.16978,1.3474307,5.531236
alexnet_w1_mlp_simclrhn_probe3,1,288,NaN,bird,bird,false,0288_fc_dnn_false_bird_35_n02037110_6501.png,n02037110_6501.png,1.0,4.469138,0.63578373,2.710591
alexnet_w1_mlp_simclrhn_probe3,1,289,NaN,airplane,airplane,false,0289_fc_dnn_false_airplane_35_n02690373_12756.png,n02690373_12756.png,1.0,7.551308,2.1779838,3.7995143
alexnet_w1_mlp_simclrhn_probe3,1,290,NaN,oven,bottle,false,0290_fc_dnn_false_bottle_35_n03983396_5413.png,n03983396_5413.png,0.0,1.3421428,2.6250677,-0.90716493
alexnet_w1_mlp_simclrhn_probe3,1,291,NaN,bird,bird,true,0291_fc_dnn_true_bird_35_n01560419_631.png,n01560419_631.png,1.0,6.222059,1.7321347,3.1748557
alexnet_w1_mlp_simclrhn_probe3,1,292,NaN,oven,cat,true,0292_fc_dnn_true_cat_35_n02123394_4734.png,n02123394_4734.png,0.0,1.1683816,1.2081534,-0.028122908
alexnet_w1_mlp_simclrhn_probe3,1,293,NaN,bottle,bottle,true,0293_fc_dnn_true_bottle_35_n03937543_469.png,n03937543_469.png,1.0,1.5335513,0.97075,0.39796066
alexnet_w1_mlp_simclrhn_probe3,1,294,NaN,clock,clock,true,0294_fc_dnn_true_clock_35_n04548280_1055.png,n04548280_1055.png,1.0,5.2756824,1.9187281,2.3737252
alexnet_w1_mlp_simclrhn_probe3,1,295,NaN,chair,chair,true,0295_fc_dnn_true_chair_35_n02791124_15934.png,n02791124_15934.png,1.0,1.7197492,1.4438221,0.1951099
alexnet_w1_mlp_simclrhn_probe3,1,296,NaN,cat,keyboard,true,0296_fc_dnn_true_keyboard_35_n03085013_22187.png,n03085013_22187.png,0.0,1.3486226,6.48821,-3.634237
alexnet_w1_mlp_simclrhn_probe3,1,297,NaN,cat,dog,false,0297_fc_dnn_false_dog_35_n02099601_8560.png,n02099601_8560.png,0.0,3.5466986,3.5801532,-0.023656014
alexnet_w1_mlp_simclrhn_probe3,1,298,NaN,truck,truck,true,0298_fc_dnn_true_truck_35_n03417042_11091.png,n03417042_11091.png,1.0,6.9690638,1.6904266,3.73256
alexnet_w1_mlp_simclrhn_probe3,1,299,NaN,bird,bird,true,0299_fc_dnn_true_bird_35_n02013706_7132.png,n02013706_7132.png,1.0,3.5064893,2.388185,0.7907605
alexnet_w1_mlp_simclrhn_probe3,1,300,NaN,car,car,false,0300_fc_dnn_false_car_35_n02814533_4978.png,n02814533_4978.png,1.0,8.879985,5.725758,2.2303753
alexnet_w1_mlp_simclrhn_probe3,1,301,NaN,bear,bear,true,0301_fc_dnn_true_bear_35_n02134418_6244.png,n02134418_6244.png,1.0,5.676377,2.2215495,2.442932
alexnet_w1_mlp_simclrhn_probe3,1,302,NaN,bicycle,bicycle,false,0302_fc_dnn_false_bicycle_35_n03792782_50569.png,n03792782_50569.png,1.0,13.171179,4.2078004,6.338066
alexnet_w1_mlp_simclrhn_probe3,1,303,NaN,car,car,true,0303_fc_dnn_true_car_35_n03100240_2632.png,n03100240_2632.png,1.0,8.192912,6.129071,1.459356
alexnet_w1_mlp_simclrhn_probe3,1,304,NaN,knife,knife,false,0304_fc_dnn_false_knife_35_n03041632_11285.png,n03041632_11285.png,1.0,1.9972298,1.1365391,0.60860026
alexnet_w1_mlp_simclrhn_probe3,1,305,NaN,knife,knife,false,0305_fc_dnn_false_knife_35_n03041632_39952.png,n03041632_39952.png,1.0,3.2142444,0.5556815,1.8798879
alexnet_w1_mlp_simclrhn_probe3,1,306,NaN,chair,chair,true,0306_fc_dnn_true_chair_35_n04099969_9745.png,n04099969_9745.png,1.0,1.7898653,1.1768588,0.43346104
alexnet_w1_mlp_simclrhn_probe3,1,307,NaN,car,car,true,0307_fc_dnn_true_car_35_n03100240_49.png,n03100240_49.png,1.0,17.342087,15.262206,1.4706978
alexnet_w1_mlp_simclrhn_probe3,1,308,NaN,cat,bird,true,0308_fc_dnn_true_bird_35_n01817953_5953.png,n01817953_5953.png,0.0,2.312071,3.083523,-0.5454989
alexnet_w1_mlp_simclrhn_probe3,1,309,NaN,bear,bear,false,0309_fc_dnn_false_bear_35_n02134418_5253.png,n02134418_5253.png,1.0,3.7031155,2.7037933,0.7066275
alexnet_w1_mlp_simclrhn_probe3,1,310,NaN,bicycle,bicycle,false,0310_fc_dnn_false_bicycle_35_n03792782_7576.png,n03792782_7576.png,1.0,9.958361,0.94473594,6.3735957
alexnet_w1_mlp_simclrhn_probe3,1,311,NaN,bottle,keyboard,true,0311_fc_dnn_true_keyboard_35_n03085013_5157.png,n03085013_5157.png,0.0,0.2820242,2.7196841,-1.723686
alexnet_w1_mlp_simclrhn_probe3,1,312,NaN,airplane,boat,true,0312_fc_dnn_true_boat_35_n03344393_7050.png,n03344393_7050.png,0.0,0.2810556,3.1407554,-2.022113
alexnet_w1_mlp_simclrhn_probe3,1,313,NaN,bicycle,bicycle,false,0313_fc_dnn_false_bicycle_35_n03792782_51335.png,n03792782_51335.png,1.0,9.415884,1.020799,5.936222
alexnet_w1_mlp_simclrhn_probe3,1,314,NaN,cat,cat,true,0314_fc_dnn_true_cat_35_n02124075_7230.png,n02124075_7230.png,1.0,3.8565896,0.7441989,2.2007926
alexnet_w1_mlp_simclrhn_probe3,1,315,NaN,airplane,truck,true,0315_fc_dnn_true_truck_35_n04467665_68020.png,n04467665_68020.png,0.0,1.6175121,3.8632314,-1.5879635
alexnet_w1_mlp_simclrhn_probe3,1,316,NaN,elephant,elephant,true,0316_fc_dnn_true_elephant_35_n02504458_2970.png,n02504458_2970.png,1.0,1.7752982,1.0770607,0.49372852
alexnet_w1_mlp_simclrhn_probe3,1,317,NaN,bicycle,bicycle,false,0317_fc_dnn_false_bicycle_35_n02835271_2714.png,n02835271_2714.png,1.0,15.549698,3.601004,8.449003
alexnet_w1_mlp_simclrhn_probe3,1,318,NaN,elephant,elephant,true,0318_fc_dnn_true_elephant_35_n02504013_3307.png,n02504013_3307.png,1.0,10.537813,6.8600135,2.6005971
alexnet_w1_mlp_simclrhn_probe3,1,319,NaN,truck,truck,true,0319_fc_dnn_true_truck_35_n03796401_3940.png,n03796401_3940.png,1.0,8.1529665,4.8605733,2.3280735
alexnet_w1_mlp_simclrhn_probe3,1,320,NaN,oven,chair,false,0320_fc_dnn_false_chair_35_n04429376_5362.png,n04429376_5362.png,0.0,2.6256237,5.159972,-1.792055
alexnet_w1_mlp_simclrhn_probe3,1,321,NaN,cat,cat,false,0321_fc_dnn_false_cat_35_n02123159_1165.png,n02123159_1165.png,1.0,4.0509305,2.434287,1.1431396
alexnet_w1_mlp_simclrhn_probe3,1,322,NaN,airplane,boat,true,0322_fc_dnn_true_boat_35_n03662601_4665.png,n03662601_4665.png,0.0,3.1737468,5.315087,-1.5141561
alexnet_w1_mlp_simclrhn_probe3,1,323,NaN,cat,cat,true,0323_fc_dnn_true_cat_35_n02124075_5067.png,n02124075_5067.png,1.0,3.9599497,2.8182676,0.8072912
alexnet_w1_mlp_simclrhn_probe3,1,324,NaN,knife,knife,true,0324_fc_dnn_true_knife_35_n03041632_22480.png,n03041632_22480.png,1.0,1.950594,0.77745765,0.8295326
alexnet_w1_mlp_simclrhn_probe3,1,325,NaN,bicycle,bottle,false,0325_fc_dnn_false_bottle_35_n04560804_2539.png,n04560804_2539.png,0.0,-0.0070120147,4.387206,-3.1071813
alexnet_w1_mlp_simclrhn_probe3,1,326,NaN,oven,oven,true,0326_fc_dnn_true_oven_35_n04111531_8681.png,n04111531_8681.png,1.0,4.151191,2.346312,1.2762424
alexnet_w1_mlp_simclrhn_probe3,1,327,NaN,car,car,false,0327_fc_dnn_false_car_35_n03100240_23804.png,n03100240_23804.png,1.0,17.10586,10.838728,4.4315314
alexnet_w1_mlp_simclrhn_probe3,1,328,NaN,oven,oven,true,0328_fc_dnn_true_oven_35_n04111531_547.png,n04111531_547.png,1.0,6.736017,1.8696957,3.441009
alexnet_w1_mlp_simclrhn_probe3,1,329,NaN,boat,boat,false,0329_fc_dnn_false_boat_35_n04273569_9873.png,n04273569_9873.png,1.0,9.596782,2.650312,4.9118958
alexnet_w1_mlp_simclrhn_probe3,1,330,NaN,cat,cat,false,0330_fc_dnn_false_cat_35_n02123597_13140.png,n02123597_13140.png,1.0,2.7655554,1.8830615,0.6240174
alexnet_w1_mlp_simclrhn_probe3,1,331,NaN,bear,bear,true,0331_fc_dnn_true_bear_35_n02134418_1330.png,n02134418_1330.png,1.0,4.1623917,2.103383,1.4559389
alexnet_w1_mlp_simclrhn_probe3,1,332,NaN,oven,chair,false,0332_fc_dnn_false_chair_35_n04429376_6272.png,n04429376_6272.png,0.0,2.4478564,4.1250925,-1.185985
alexnet_w1_mlp_simclrhn_probe3,1,333,NaN,bear,bear,false,0333_fc_dnn_false_bear_35_n02134084_22997.png,n02134084_22997.png,1.0,4.0041595,1.8991187,1.4884887
alexnet_w1_mlp_simclrhn_probe3,1,334,NaN,oven,clock,false,0334_fc_dnn_false_clock_35_n03196217_3508.png,n03196217_3508.png,0.0,1.1691314,3.8794994,-1.9165198
alexnet_w1_mlp_simclrhn_probe3,1,335,NaN,truck,chair,true,0335_fc_dnn_true_chair_35_n02791124_958.png,n02791124_958.png,0.0,1.1669325,2.1042495,-0.6627832
alexnet_w1_mlp_simclrhn_probe3,1,336,NaN,boat,boat,false,0336_fc_dnn_false_boat_35_n03344393_4012.png,n03344393_4012.png,1.0,3.8569393,2.4388254,1.002758
alexnet_w1_mlp_simclrhn_probe3,1,337,NaN,airplane,airplane,true,0337_fc_dnn_true_airplane_35_n02690373_4921.png,n02690373_4921.png,1.0,11.843069,3.9524941,5.579479
alexnet_w1_mlp_simclrhn_probe3,1,338,NaN,bear,cat,false,0338_fc_dnn_false_cat_35_n02125311_28052.png,n02125311_28052.png,0.0,1.7264816,2.4580207,-0.5172763
alexnet_w1_mlp_simclrhn_probe3,1,339,NaN,airplane,airplane,false,0339_fc_dnn_false_airplane_35_n02690373_1837.png,n02690373_1837.png,1.0,2.3017395,1.6423044,0.46629098
alexnet_w1_mlp_simclrhn_probe3,1,340,NaN,elephant,elephant,false,0340_fc_dnn_false_elephant_35_n02504458_5191.png,n02504458_5191.png,1.0,12.415953,3.37699,6.391512
alexnet_w1_mlp_simclrhn_probe3,1,341,NaN,bird,bird,false,0341_fc_dnn_false_bird_35_n01855672_2187.png,n01855672_2187.png,1.0,2.1646705,1.3027179,0.6094925
alexnet_w1_mlp_simclrhn_probe3,1,342,NaN,clock,clock,true,0342_fc_dnn_true_clock_35_n04548280_7794.png,n04548280_7794.png,1.0,4.966331,2.4768143,1.7603542
alexnet_w1_mlp_simclrhn_probe3,1,343,NaN,keyboard,clock,false,0343_fc_dnn_false_clock_35_n03196217_8489.png,n03196217_8489.png,0.0,-0.15525384,3.4633167,-2.5587158
alexnet_w1_mlp_simclrhn_probe3,1,344,NaN,knife,knife,false,0344_fc_dnn_false_knife_35_n03041632_21590.png,n03041632_21590.png,1.0,1.8789991,1.8529499,0.018419607
alexnet_w1_mlp_simclrhn_probe3,1,345,NaN,elephant,elephant,false,0345_fc_dnn_false_elephant_35_n02504458_1249.png,n02504458_1249.png,1.0,19.961311,4.9030104,10.647827
alexnet_w1_mlp_simclrhn_probe3,1,346,NaN,keyboard,keyboard,false,0346_fc_dnn_false_keyboard_35_n04505470_4549.png,n04505470_4549.png,1.0,5.962518,3.570742,1.6912413
alexnet_w1_mlp_simclrhn_probe3,1,347,NaN,elephant,elephant,false,0347_fc_dnn_false_elephant_35_n02504013_3771.png,n02504013_3771.png,1.0,8.758309,2.7559557,4.244305
alexnet_w1_mlp_simclrhn_probe3,1,348,NaN,bicycle,bicycle,true,0348_fc_dnn_true_bicycle_35_n02835271_19552.png,n02835271_19552.png,1.0,15.153881,5.9964395,6.4752893
alexnet_w1_mlp_simclrhn_probe3,1,349,NaN,elephant,bear,true,0349_fc_dnn_true_bear_35_n02134084_4477.png,n02134084_4477.png,0.0,1.8811197,2.857504,-0.6904079
alexnet_w1_mlp_simclrhn_probe3,1,350,NaN,elephant,elephant,false,0350_fc_dnn_false_elephant_35_n02504013_10149.png,n02504013_10149.png,1.0,24.967907,8.933649,11.337933
alexnet_w1_mlp_simclrhn_probe3,1,351,NaN,boat,boat,true,0351_fc_dnn_true_boat_35_n04273569_709.png,n04273569_709.png,1.0,6.9772134,5.4108143,1.1076114
alexnet_w1_mlp_simclrhn_probe3,1,352,NaN,car,car,false,0352_fc_dnn_false_car_35_n03100240_7120.png,n03100240_7120.png,1.0,19.823359,12.0938225,5.4656076
alexnet_w1_mlp_simclrhn_probe3,1,353,NaN,car,boat,false,0353_fc_dnn_false_boat_35_n02951358_12867.png,n02951358_12867.png,0.0,1.9915329,10.295545,-5.871823
alexnet_w1_mlp_simclrhn_probe3,1,354,NaN,bird,bird,true,0354_fc_dnn_true_bird_35_n01558993_38999.png,n01558993_38999.png,1.0,2.9120083,0.71596956,1.5528339
alexnet_w1_mlp_simclrhn_probe3,1,355,NaN,bicycle,bicycle,false,0355_fc_dnn_false_bicycle_35_n03792782_4210.png,n03792782_4210.png,1.0,4.2407627,2.4767084,1.2473748
alexnet_w1_mlp_simclrhn_probe3,1,356,NaN,dog,dog,false,0356_fc_dnn_false_dog_35_n02102318_11997.png,n02102318_11997.png,1.0,4.131576,2.3954568,1.2276217
alexnet_w1_mlp_simclrhn_probe3,1,357,NaN,cat,clock,false,0357_fc_dnn_false_clock_35_n02708093_6813.png,n02708093_6813.png,0.0,0.7378591,1.9333076,-0.84530985
alexnet_w1_mlp_simclrhn_probe3,1,358,NaN,oven,oven,false,0358_fc_dnn_false_oven_35_n04111531_8036.png,n04111531_8036.png,1.0,5.527273,0.68706834,3.4225416
alexnet_w1_mlp_simclrhn_probe3,1,359,NaN,clock,clock,false,0359_fc_dnn_false_clock_35_n02708093_3454.png,n02708093_3454.png,1.0,13.819298,1.1355942,8.968733
alexnet_w1_mlp_simclrhn_probe3,1,360,NaN,keyboard,keyboard,true,0360_fc_dnn_true_keyboard_35_n03085013_21641.png,n03085013_21641.png,1.0,11.994468,1.8991985,7.1384335
alexnet_w1_mlp_simclrhn_probe3,1,361,NaN,oven,chair,false,0361_fc_dnn_false_chair_35_n02791124_139.png,n02791124_139.png,0.0,1.5242361,3.6695485,-1.5169649
alexnet_w1_mlp_simclrhn_probe3,1,362,NaN,bear,bear,false,0362_fc_dnn_false_bear_35_n02134084_6821.png,n02134084_6821.png,1.0,2.524641,2.4701464,0.038533516
alexnet_w1_mlp_simclrhn_probe3,1,363,NaN,cat,cat,false,0363_fc_dnn_false_cat_35_n02124075_5874.png,n02124075_5874.png,1.0,5.394338,1.026757,3.0883465
alexnet_w1_mlp_simclrhn_probe3,1,364,NaN,boat,chair,false,0364_fc_dnn_false_chair_35_n04099969_8604.png,n04099969_8604.png,0.0,2.8629932,3.748294,-0.62600225
alexnet_w1_mlp_simclrhn_probe3,1,365,NaN,bicycle,bicycle,true,0365_fc_dnn_true_bicycle_35_n02835271_15524.png,n02835271_15524.png,1.0,12.96643,3.1179345,6.963938
alexnet_w1_mlp_simclrhn_probe3,1,366,NaN,chair,chair,false,0366_fc_dnn_false_chair_35_n04429376_55163.png,n04429376_55163.png,1.0,6.433115,4.5963116,1.2988162
alexnet_w1_mlp_simclrhn_probe3,1,367,NaN,dog,dog,true,0367_fc_dnn_true_dog_35_n02106662_10632.png,n02106662_10632.png,1.0,3.1100628,1.086775,1.4306805
alexnet_w1_mlp_simclrhn_probe3,1,368,NaN,car,car,false,0368_fc_dnn_false_car_35_n03100240_9675.png,n03100240_9675.png,1.0,13.416222,3.8178618,6.7870655
alexnet_w1_mlp_simclrhn_probe3,1,369,NaN,bird,bird,true,0369_fc_dnn_true_bird_35_n02011460_22291.png,n02011460_22291.png,1.0,4.4835525,0.047894195,3.1364841
alexnet_w1_mlp_simclrhn_probe3,1,370,NaN,cat,dog,false,0370_fc_dnn_false_dog_35_n02106662_56099.png,n02106662_56099.png,0.0,1.2343333,2.91653,-1.1894927
alexnet_w1_mlp_simclrhn_probe3,1,371,NaN,keyboard,keyboard,false,0371_fc_dnn_false_keyboard_35_n04505470_3970.png,n04505470_3970.png,1.0,14.495737,5.738445,6.1923404
alexnet_w1_mlp_simclrhn_probe3,1,372,NaN,boat,boat,false,0372_fc_dnn_false_boat_35_n03662601_32803.png,n03662601_32803.png,1.0,11.062828,2.9161534,5.760569
alexnet_w1_mlp_simclrhn_probe3,1,373,NaN,bottle,bottle,false,0373_fc_dnn_false_bottle_35_n02823428_4043.png,n02823428_4043.png,1.0,7.3127794,2.9360962,3.0947824
alexnet_w1_mlp_simclrhn_probe3,1,374,NaN,airplane,airplane,true,0374_fc_dnn_true_airplane_35_n02690373_5221.png,n02690373_5221.png,1.0,11.5324335,3.9089484,5.3906183
alexnet_w1_mlp_simclrhn_probe3,1,375,NaN,keyboard,knife,false,0375_fc_dnn_false_knife_35_n03041632_90125.png,n03041632_90125.png,0.0,0.25603354,3.3887253,-2.2151477
alexnet_w1_mlp_simclrhn_probe3,1,376,NaN,oven,oven,false,0376_fc_dnn_false_oven_35_n04111531_11230.png,n04111531_11230.png,1.0,9.187841,2.3264623,4.851728
alexnet_w1_mlp_simclrhn_probe3,1,377,NaN,keyboard,keyboard,true,0377_fc_dnn_true_keyboard_35_n04505470_3002.png,n04505470_3002.png,1.0,3.3867278,1.4901717,1.3410677
alexnet_w1_mlp_simclrhn_probe3,1,378,NaN,bicycle,bicycle,true,0378_fc_dnn_true_bicycle_35_n02835271_12237.png,n02835271_12237.png,1.0,11.200525,1.4247732,6.912501
alexnet_w1_mlp_simclrhn_probe3,1,379,NaN,oven,dog,false,0379_fc_dnn_false_dog_35_n02088238_9947.png,n02088238_9947.png,0.0,0.27430397,3.016413,-1.9389639
alexnet_w1_mlp_simclrhn_probe3,1,380,NaN,elephant,airplane,false,0380_fc_dnn_false_airplane_35_n02690373_2075.png,n02690373_2075.png,0.0,1.1794555,1.3955353,-0.15279151
alexnet_w1_mlp_simclrhn_probe3,1,381,NaN,bicycle,bicycle,false,0381_fc_dnn_false_bicycle_35_n02835271_12930.png,n02835271_12930.png,1.0,12.654839,1.8713535,7.625076
alexnet_w1_mlp_simclrhn_probe3,1,382,NaN,dog,dog,false,0382_fc_dnn_false_dog_35_n02096294_4609.png,n02096294_4609.png,1.0,2.767698,2.3888886,0.26785874
alexnet_w1_mlp_simclrhn_probe3,1,383,NaN,oven,knife,false,0383_fc_dnn_false_knife_35_n03041632_15754.png,n03041632_15754.png,0.0,1.2474968,2.383606,-0.80335045
alexnet_w1_mlp_simclrhn_probe3,1,384,NaN,elephant,bird,true,0384_fc_dnn_true_bird_35_n01819313_5634.png,n01819313_5634.png,0.0,1.8789443,2.7164612,-0.59221387
alexnet_w1_mlp_simclrhn_probe3,1,385,NaN,clock,clock,true,0385_fc_dnn_true_clock_35_n02708093_8386.png,n02708093_8386.png,1.0,4.408484,0.66139644,2.649591
alexnet_w1_mlp_simclrhn_probe3,1,386,NaN,bottle,bottle,false,0386_fc_dnn_false_bottle_35_n04579145_6435.png,n04579145_6435.png,1.0,7.5573344,3.2388783,3.0536096
alexnet_w1_mlp_simclrhn_probe3,1,387,NaN,airplane,airplane,true,0387_fc_dnn_true_airplane_35_n02690373_9531.png,n02690373_9531.png,1.0,5.386659,3.532919,1.3107923
alexnet_w1_mlp_simclrhn_probe3,1,388,NaN,chair,bottle,true,0388_fc_dnn_true_bottle_35_n04591713_5518.png,n04591713_5518.png,0.0,1.077572,3.758699,-1.8958431
alexnet_w1_mlp_simclrhn_probe3,1,389,NaN,airplane,airplane,false,0389_fc_dnn_false_airplane_35_n02690373_12896.png,n02690373_12896.png,1.0,5.666528,2.25304,2.4137006
alexnet_w1_mlp_simclrhn_probe3,1,390,NaN,truck,truck,false,0390_fc_dnn_false_truck_35_n03796401_124.png,n03796401_124.png,1.0,3.4684868,2.0681798,0.99016654
alexnet_w1_mlp_simclrhn_probe3,1,391,NaN,bicycle,bicycle,true,0391_fc_dnn_true_bicycle_35_n03792782_7050.png,n03792782_7050.png,1.0,1.8572981,0.95080894,0.64098465
alexnet_w1_mlp_simclrhn_probe3,1,392,NaN,bicycle,bicycle,true,0392_fc_dnn_true_bicycle_35_n02835271_13729.png,n02835271_13729.png,1.0,12.263823,3.1937246,6.413528
alexnet_w1_mlp_simclrhn_probe3,1,393,NaN,bird,bird,false,0393_fc_dnn_false_bird_35_n02027492_3922.png,n02027492_3922.png,1.0,2.635323,1.2937033,0.9486684
alexnet_w1_mlp_simclrhn_probe3,1,394,NaN,elephant,elephant,true,0394_fc_dnn_true_elephant_35_n02504013_9809.png,n02504013_9809.png,1.0,12.725674,4.725521,5.6569624
alexnet_w1_mlp_simclrhn_probe3,1,395,NaN,keyboard,keyboard,false,0395_fc_dnn_false_keyboard_35_n04505470_5086.png,n04505470_5086.png,1.0,6.0917478,1.7953826,3.0379891
alexnet_w1_mlp_simclrhn_probe3,1,396,NaN,keyboard,keyboard,true,0396_fc_dnn_true_keyboard_35_n03085013_19439.png,n03085013_19439.png,1.0,5.6266994,1.3256166,3.0413246
alexnet_w1_mlp_simclrhn_probe3,1,397,NaN,airplane,airplane,false,0397_fc_dnn_false_airplane_35_n02690373_9926.png,n02690373_9926.png,1.0,6.6848097,1.0091382,4.013306
alexnet_w1_mlp_simclrhn_probe3,1,398,NaN,elephant,elephant,true,0398_fc_dnn_true_elephant_35_n02504458_3197.png,n02504458_3197.png,1.0,21.158556,8.663076,8.835638
alexnet_w1_mlp_simclrhn_probe3,1,399,NaN,dog,dog,false,0399_fc_dnn_false_dog_35_n02110185_14056.png,n02110185_14056.png,1.0,4.2479935,1.7037957,1.7990196
alexnet_w1_mlp_simclrhn_probe3,1,400,NaN,airplane,airplane,true,0400_fc_dnn_true_airplane_35_n02690373_2823.png,n02690373_2823.png,1.0,11.466778,6.5119443,3.5035965
alexnet_w1_mlp_simclrhn_probe3,1,401,NaN,bicycle,bicycle,false,0401_fc_dnn_false_bicycle_35_n02835271_14157.png,n02835271_14157.png,1.0,25.252857,4.040363,14.999498
alexnet_w1_mlp_simclrhn_probe3,1,402,NaN,bicycle,chair,true,0402_fc_dnn_true_chair_35_n03376595_606.png,n03376595_606.png,0.0,2.6107345,2.8547208,-0.17252442
alexnet_w1_mlp_simclrhn_probe3,1,403,NaN,airplane,airplane,false,0403_fc_dnn_false_airplane_35_n02690373_1442.png,n02690373_1442.png,1.0,6.263854,1.5266666,3.3496974
alexnet_w1_mlp_simclrhn_probe3,1,404,NaN,keyboard,keyboard,true,0404_fc_dnn_true_keyboard_35_n04505470_10035.png,n04505470_10035.png,1.0,6.070945,3.4957907,1.8209089
alexnet_w1_mlp_simclrhn_probe3,1,405,NaN,elephant,bear,true,0405_fc_dnn_true_bear_35_n02133161_13278.png,n02133161_13278.png,0.0,5.3931956,6.378661,-0.6968294
alexnet_w1_mlp_simclrhn_probe3,1,406,NaN,elephant,bear,true,0406_fc_dnn_true_bear_35_n02134418_2657.png,n02134418_2657.png,0.0,1.0805206,1.4381582,-0.25288793
alexnet_w1_mlp_simclrhn_probe3,1,407,NaN,bear,bear,false,0407_fc_dnn_false_bear_35_n02133161_12894.png,n02133161_12894.png,1.0,3.6722562,1.9610469,1.2100077
alexnet_w1_mlp_simclrhn_probe3,1,408,NaN,car,clock,false,0408_fc_dnn_false_clock_35_n03196217_6195.png,n03196217_6195.png,0.0,3.444482,5.404721,-1.3860981
alexnet_w1_mlp_simclrhn_probe3,1,409,NaN,bottle,bottle,true,0409_fc_dnn_true_bottle_35_n04591713_13349.png,n04591713_13349.png,1.0,5.475758,4.559143,0.6481447
alexnet_w1_mlp_simclrhn_probe3,1,410,NaN,airplane,boat,false,0410_fc_dnn_false_boat_35_n04273569_16295.png,n04273569_16295.png,0.0,2.8172326,3.0996795,-0.1997201
alexnet_w1_mlp_simclrhn_probe3,1,411,NaN,elephant,elephant,false,0411_fc_dnn_false_elephant_35_n02504013_2672.png,n02504013_2672.png,1.0,13.71628,4.568929,6.4681535
alexnet_w1_mlp_simclrhn_probe3,1,412,NaN,elephant,bear,true,0412_fc_dnn_true_bear_35_n02134084_22292.png,n02134084_22292.png,0.0,5.59073,5.6260633,-0.024984315
alexnet_w1_mlp_simclrhn_probe3,1,413,NaN,airplane,airplane,false,0413_fc_dnn_false_airplane_35_n02690373_997.png,n02690373_997.png,1.0,8.1508255,3.8733134,3.024658
alexnet_w1_mlp_simclrhn_probe3,1,414,NaN,knife,knife,true,0414_fc_dnn_true_knife_35_n03041632_29337.png,n03041632_29337.png,1.0,1.8239487,1.3190176,0.3570402
alexnet_w1_mlp_simclrhn_probe3,1,415,NaN,elephant,elephant,true,0415_fc_dnn_true_elephant_35_n02504458_3261.png,n02504458_3261.png,1.0,3.5339086,1.8473598,1.1925701
alexnet_w1_mlp_simclrhn_probe3,1,416,NaN,oven,oven,true,0416_fc_dnn_true_oven_35_n04111531_22120.png,n04111531_22120.png,1.0,5.476878,1.6516987,2.7048104
alexnet_w1_mlp_simclrhn_probe3,1,417,NaN,bear,bear,true,0417_fc_dnn_true_bear_35_n02134418_830.png,n02134418_830.png,1.0,2.5621274,1.7173297,0.5973621
alexnet_w1_mlp_simclrhn_probe3,1,418,NaN,truck,truck,false,0418_fc_dnn_false_truck_35_n03417042_2124.png,n03417042_2124.png,1.0,10.329399,2.3734856,5.6256804
alexnet_w1_mlp_simclrhn_probe3,1,419,NaN,bicycle,bicycle,false,0419_fc_dnn_false_bicycle_35_n02835271_14585.png,n02835271_14585.png,1.0,12.732147,1.8107206,7.7226152
alexnet_w1_mlp_simclrhn_probe3,1,420,NaN,oven,oven,true,0420_fc_dnn_true_oven_35_n04111531_2855.png,n04111531_2855.png,1.0,3.9591424,0.48537531,2.4563243
alexnet_w1_mlp_simclrhn_probe3,1,421,NaN,cat,cat,false,0421_fc_dnn_false_cat_35_n02123394_4383.png,n02123394_4383.png,1.0,2.4260352,1.6744969,0.53141785
alexnet_w1_mlp_simclrhn_probe3,1,422,NaN,cat,cat,true,0422_fc_dnn_true_cat_35_n02125311_17068.png,n02125311_17068.png,1.0,3.9275541,3.6815615,0.17394309
alexnet_w1_mlp_simclrhn_probe3,1,423,NaN,bird,bird,false,0423_fc_dnn_false_bird_35_n01560419_2291.png,n01560419_2291.png,1.0,4.714238,1.1176779,2.543152
alexnet_w1_mlp_simclrhn_probe3,1,424,NaN,bird,bird,false,0424_fc_dnn_false_bird_35_n01829413_2459.png,n01829413_2459.png,1.0,2.2347126,2.1076443,0.08985084
alexnet_w1_mlp_simclrhn_probe3,1,425,NaN,oven,oven,true,0425_fc_dnn_true_oven_35_n04111531_13822.png,n04111531_13822.png,1.0,5.729498,1.8537084,2.7405972
alexnet_w1_mlp_simclrhn_probe3,1,426,NaN,bear,bear,false,0426_fc_dnn_false_bear_35_n02133161_5067.png,n02133161_5067.png,1.0,8.631925,4.9909782,2.574538
alexnet_w1_mlp_simclrhn_probe3,1,427,NaN,knife,chair,false,0427_fc_dnn_false_chair_35_n02791124_885.png,n02791124_885.png,0.0,0.8063461,1.2649084,-0.32425252
alexnet_w1_mlp_simclrhn_probe3,1,428,NaN,cat,dog,true,0428_fc_dnn_true_dog_35_n02107312_7182.png,n02107312_7182.png,0.0,2.4507039,4.302936,-1.309726
alexnet_w1_mlp_simclrhn_probe3,1,429,NaN,truck,truck,true,0429_fc_dnn_true_truck_35_n04467665_13989.png,n04467665_13989.png,1.0,4.6282477,3.9448388,0.48324314
alexnet_w1_mlp_simclrhn_probe3,1,430,NaN,bicycle,dog,true,0430_fc_dnn_true_dog_35_n02102480_10232.png,n02102480_10232.png,0.0,1.7852926,2.6793227,-0.63217473
alexnet_w1_mlp_simclrhn_probe3,1,431,NaN,oven,oven,false,0431_fc_dnn_false_oven_35_n04111531_643.png,n04111531_643.png,1.0,8.688977,2.6689038,4.256835
alexnet_w1_mlp_simclrhn_probe3,1,432,NaN,boat,boat,true,0432_fc_dnn_true_boat_35_n02951358_31514.png,n02951358_31514.png,1.0,4.721905,2.663351,1.4556177
alexnet_w1_mlp_simclrhn_probe3,1,433,NaN,oven,oven,true,0433_fc_dnn_true_oven_35_n04111531_1898.png,n04111531_1898.png,1.0,8.467571,3.6445298,3.4104054
alexnet_w1_mlp_simclrhn_probe3,1,434,NaN,car,car,true,0434_fc_dnn_true_car_35_n03100240_5865.png,n03100240_5865.png,1.0,4.3454633,1.9349632,1.704481
alexnet_w1_mlp_simclrhn_probe3,1,435,NaN,keyboard,keyboard,true,0435_fc_dnn_true_keyboard_35_n04505470_4369.png,n04505470_4369.png,1.0,14.134497,4.2830787,6.9660044
alexnet_w1_mlp_simclrhn_probe3,1,436,NaN,cat,cat,false,0436_fc_dnn_false_cat_35_n02123394_1942.png,n02123394_1942.png,1.0,5.0630946,2.5267825,1.7934436
alexnet_w1_mlp_simclrhn_probe3,1,437,NaN,car,car,true,0437_fc_dnn_true_car_35_n04285008_2900.png,n04285008_2900.png,1.0,11.481105,9.268795,1.5643393
alexnet_w1_mlp_simclrhn_probe3,1,438,NaN,airplane,airplane,true,0438_fc_dnn_true_airplane_35_n02690373_10926.png,n02690373_10926.png,1.0,8.700142,1.437406,5.13553
alexnet_w1_mlp_simclrhn_probe3,1,439,NaN,knife,knife,true,0439_fc_dnn_true_knife_35_n03041632_11613.png,n03041632_11613.png,1.0,1.5691454,0.58421063,0.6964541
alexnet_w1_mlp_simclrhn_probe3,1,440,NaN,knife,knife,true,0440_fc_dnn_true_knife_35_n03041632_24817.png,n03041632_24817.png,1.0,1.8793864,0.9774818,0.6377429
alexnet_w1_mlp_simclrhn_probe3,1,441,NaN,bicycle,bicycle,true,0441_fc_dnn_true_bicycle_35_n02835271_3042.png,n02835271_3042.png,1.0,14.275167,1.6682637,8.914428
alexnet_w1_mlp_simclrhn_probe3,1,442,NaN,dog,dog,true,0442_fc_dnn_true_dog_35_n02102177_7737.png,n02102177_7737.png,1.0,2.118519,1.4991318,0.43797293
alexnet_w1_mlp_simclrhn_probe3,1,443,NaN,oven,oven,true,0443_fc_dnn_true_oven_35_n04111531_21460.png,n04111531_21460.png,1.0,2.3650723,0.96777034,0.9880417
alexnet_w1_mlp_simclrhn_probe3,1,444,NaN,oven,keyboard,false,0444_fc_dnn_false_keyboard_35_n04505470_7388.png,n04505470_7388.png,0.0,0.9292803,4.167374,-2.289678
alexnet_w1_mlp_simclrhn_probe3,1,445,NaN,bird,bird,true,0445_fc_dnn_true_bird_35_n01828970_25642.png,n01828970_25642.png,1.0,4.459146,0.9940932,2.4501624
alexnet_w1_mlp_simclrhn_probe3,1,446,NaN,bicycle,bicycle,false,0446_fc_dnn_false_bicycle_35_n02835271_608.png,n02835271_608.png,1.0,5.5818405,1.1430883,3.1386719
alexnet_w1_mlp_simclrhn_probe3,1,447,NaN,airplane,boat,true,0447_fc_dnn_true_boat_35_n04273569_26182.png,n04273569_26182.png,0.0,5.1349463,7.9535017,-1.9930196
alexnet_w1_mlp_simclrhn_probe3,1,448,NaN,cat,cat,false,0448_fc_dnn_false_cat_35_n02123045_9384.png,n02123045_9384.png,1.0,6.6245365,1.5280278,3.6037762
alexnet_w1_mlp_simclrhn_probe3,1,449,NaN,airplane,airplane,true,0449_fc_dnn_true_airplane_35_n02690373_9529.png,n02690373_9529.png,1.0,7.334179,1.524342,4.1081753
alexnet_w1_mlp_simclrhn_probe3,1,450,NaN,knife,cat,true,0450_fc_dnn_true_cat_35_n02123597_5081.png,n02123597_5081.png,0.0,0.5577478,1.7958163,-0.8754467
alexnet_w1_mlp_simclrhn_probe3,1,451,NaN,oven,oven,false,0451_fc_dnn_false_oven_35_n04111531_4998.png,n04111531_4998.png,1.0,5.3938007,1.1908251,2.9719527
alexnet_w1_mlp_simclrhn_probe3,1,452,NaN,clock,clock,true,0452_fc_dnn_true_clock_35_n04548280_1245.png,n04548280_1245.png,1.0,5.0869794,4.709553,0.26688093
alexnet_w1_mlp_simclrhn_probe3,1,453,NaN,dog,dog,true,0453_fc_dnn_true_dog_35_n02104365_8609.png,n02104365_8609.png,1.0,0.9039051,0.8051838,0.06980648
alexnet_w1_mlp_simclrhn_probe3,1,454,NaN,clock,clock,false,0454_fc_dnn_false_clock_35_n02708093_6414.png,n02708093_6414.png,1.0,7.2701097,2.802467,3.1591005
alexnet_w1_mlp_simclrhn_probe3,1,455,NaN,cat,bird,true,0455_fc_dnn_true_bird_35_n01798484_9155.png,n01798484_9155.png,0.0,1.6688222,2.299532,-0.44597915
alexnet_w1_mlp_simclrhn_probe3,1,456,NaN,bicycle,oven,true,0456_fc_dnn_true_oven_35_n04111531_10724.png,n04111531_10724.png,0.0,-0.3131718,5.50865,-4.1166496
alexnet_w1_mlp_simclrhn_probe3,1,457,NaN,boat,boat,true,0457_fc_dnn_true_boat_35_n02951358_32687.png,n02951358_32687.png,1.0,5.024801,4.434595,0.41733843
alexnet_w1_mlp_simclrhn_probe3,1,458,NaN,bicycle,bicycle,true,0458_fc_dnn_true_bicycle_35_n02835271_31.png,n02835271_31.png,1.0,4.1898136,2.199059,1.4076761
alexnet_w1_mlp_simclrhn_probe3,1,459,NaN,elephant,bottle,true,0459_fc_dnn_true_bottle_35_n04557648_4420.png,n04557648_4420.png,0.0,-0.031999204,2.9573517,-2.1137903
alexnet_w1_mlp_simclrhn_probe3,1,460,NaN,bear,bear,true,0460_fc_dnn_true_bear_35_n02133161_713.png,n02133161_713.png,1.0,4.975647,2.7765503,1.5549963
alexnet_w1_mlp_simclrhn_probe3,1,461,NaN,airplane,airplane,false,0461_fc_dnn_false_airplane_35_n02690373_5967.png,n02690373_5967.png,1.0,9.052759,1.6476152,5.2362275
alexnet_w1_mlp_simclrhn_probe3,1,462,NaN,bird,bird,true,0462_fc_dnn_true_bird_35_n01795545_4502.png,n01795545_4502.png,1.0,1.3808305,0.230485,0.81341714
alexnet_w1_mlp_simclrhn_probe3,1,463,NaN,bear,cat,true,0463_fc_dnn_true_cat_35_n02124075_11466.png,n02124075_11466.png,0.0,2.67678,4.7990513,-1.5006725
alexnet_w1_mlp_simclrhn_probe3,1,464,NaN,clock,keyboard,true,0464_fc_dnn_true_keyboard_35_n03085013_21769.png,n03085013_21769.png,0.0,2.1133194,2.6098676,-0.35111257
alexnet_w1_mlp_simclrhn_probe3,1,465,NaN,keyboard,car,false,0465_fc_dnn_false_car_35_n03100240_15097.png,n03100240_15097.png,0.0,2.2643883,3.8381977,-1.1128513
alexnet_w1_mlp_simclrhn_probe3,1,466,NaN,bear,dog,false,0466_fc_dnn_false_dog_35_n02093647_3072.png,n02093647_3072.png,0.0,0.34892052,1.4127392,-0.75223345
alexnet_w1_mlp_simclrhn_probe3,1,467,NaN,elephant,bicycle,false,0467_fc_dnn_false_bicycle_35_n02835271_12701.png,n02835271_12701.png,0.0,4.5356083,5.0930905,-0.3941995
alexnet_w1_mlp_simclrhn_probe3,1,468,NaN,bear,bear,false,0468_fc_dnn_false_bear_35_n02134084_3227.png,n02134084_3227.png,1.0,3.1559436,2.0312986,0.7952441
alexnet_w1_mlp_simclrhn_probe3,1,469,NaN,cat,cat,true,0469_fc_dnn_true_cat_35_n02123394_5001.png,n02123394_5001.png,1.0,4.2059216,1.3071618,2.0497327
alexnet_w1_mlp_simclrhn_probe3,1,470,NaN,keyboard,keyboard,true,0470_fc_dnn_true_keyboard_35_n03085013_6862.png,n03085013_6862.png,1.0,4.481168,4.392194,0.06291412
alexnet_w1_mlp_simclrhn_probe3,1,471,NaN,chair,chair,true,0471_fc_dnn_true_chair_35_n04099969_45461.png,n04099969_45461.png,1.0,3.3330147,2.5766535,0.5348282
alexnet_w1_mlp_simclrhn_probe3,1,472,NaN,bicycle,bicycle,false,0472_fc_dnn_false_bicycle_35_n03792782_485.png,n03792782_485.png,1.0,7.475871,1.4244679,4.2789884
alexnet_w1_mlp_simclrhn_probe3,1,473,NaN,chair,oven,true,0473_fc_dnn_true_oven_35_n04111531_1674.png,n04111531_1674.png,0.0,1.0363085,4.6465545,-2.5528295
alexnet_w1_mlp_simclrhn_probe3,1,474,NaN,airplane,airplane,true,0474_fc_dnn_true_airplane_35_n02690373_866.png,n02690373_866.png,1.0,10.503238,3.3793252,5.0373673
alexnet_w1_mlp_simclrhn_probe3,1,475,NaN,oven,oven,false,0475_fc_dnn_false_oven_35_n04111531_9297.png,n04111531_9297.png,1.0,2.4151933,0.9233312,1.0549058
alexnet_w1_mlp_simclrhn_probe3,1,476,NaN,elephant,elephant,false,0476_fc_dnn_false_elephant_35_n02504458_6878.png,n02504458_6878.png,1.0,10.923489,4.34693,4.650329
alexnet_w1_mlp_simclrhn_probe3,1,477,NaN,car,car,true,0477_fc_dnn_true_car_35_n03100240_3151.png,n03100240_3151.png,1.0,5.188144,3.7081027,1.0465474
alexnet_w1_mlp_simclrhn_probe3,1,478,NaN,airplane,airplane,false,0478_fc_dnn_false_airplane_35_n02690373_6363.png,n02690373_6363.png,1.0,7.5788784,3.2893443,3.0331588
alexnet_w1_mlp_simclrhn_probe3,1,479,NaN,car,car,true,0479_fc_dnn_true_car_35_n04285008_15049.png,n04285008_15049.png,1.0,13.138443,9.062767,2.8819382
alexnet_w1_mlp_simclrhn_probe3,1,480,NaN,airplane,truck,true,0480_fc_dnn_true_truck_35_n04467665_2505.png,n04467665_2505.png,0.0,0.087641776,1.1713715,-0.76631266
alexnet_w1_mlp_simclrhn_probe3,1,481,NaN,bicycle,bottle,true,0481_fc_dnn_true_bottle_35_n04591713_4030.png,n04591713_4030.png,0.0,0.10970526,2.415344,-1.6303328
alexnet_w1_mlp_simclrhn_probe3,1,482,NaN,oven,oven,true,0482_fc_dnn_true_oven_35_n04111531_12929.png,n04111531_12929.png,1.0,3.6410933,2.0760932,1.1066222
alexnet_w1_mlp_simclrhn_probe3,1,483,NaN,bear,cat,true,0483_fc_dnn_true_cat_35_n02125311_53315.png,n02125311_53315.png,0.0,3.2967732,4.595413,-0.9182772
alexnet_w1_mlp_simclrhn_probe3,1,484,NaN,cat,dog,true,0484_fc_dnn_true_dog_35_n02087046_4409.png,n02087046_4409.png,0.0,1.0229398,2.2182422,-0.84520644
alexnet_w1_mlp_simclrhn_probe3,1,485,NaN,oven,oven,false,0485_fc_dnn_false_oven_35_n04111531_21120.png,n04111531_21120.png,1.0,5.2012544,1.1756045,2.8465645
alexnet_w1_mlp_simclrhn_probe3,1,486,NaN,elephant,elephant,false,0486_fc_dnn_false_elephant_35_n02504013_5934.png,n02504013_5934.png,1.0,1.9807075,1.1784003,0.5673169
alexnet_w1_mlp_simclrhn_probe3,1,487,NaN,car,car,true,0487_fc_dnn_true_car_35_n04285008_3631.png,n04285008_3631.png,1.0,8.7756405,4.0652514,3.330748
alexnet_w1_mlp_simclrhn_probe3,1,488,NaN,clock,clock,true,0488_fc_dnn_true_clock_35_n03196217_7663.png,n03196217_7663.png,1.0,1.8806225,1.4098322,0.332899
alexnet_w1_mlp_simclrhn_probe3,1,489,NaN,bear,bicycle,false,0489_fc_dnn_false_bicycle_35_n03792782_801.png,n03792782_801.png,0.0,2.000274,2.9270165,-0.655306
alexnet_w1_mlp_simclrhn_probe3,1,490,NaN,bear,bear,false,0490_fc_dnn_false_bear_35_n02133161_6983.png,n02133161_6983.png,1.0,2.115337,1.966266,0.10540902
alexnet_w1_mlp_simclrhn_probe3,1,491,NaN,keyboard,keyboard,true,0491_fc_dnn_true_keyboard_35_n03085013_20825.png,n03085013_20825.png,1.0,9.943245,1.4977224,5.971886
alexnet_w1_mlp_simclrhn_probe3,1,492,NaN,clock,clock,true,0492_fc_dnn_true_clock_35_n03196217_1219.png,n03196217_1219.png,1.0,3.2566414,2.4084554,0.5997581
alexnet_w1_mlp_simclrhn_probe3,1,493,NaN,airplane,airplane,true,0493_fc_dnn_true_airplane_35_n02690373_18864.png,n02690373_18864.png,1.0,4.2668333,3.4628842,0.56847787
alexnet_w1_mlp_simclrhn_probe3,1,494,NaN,knife,airplane,false,0494_fc_dnn_false_airplane_35_n02690373_1019.png,n02690373_1019.png,0.0,0.66103315,1.7412062,-0.7637977
alexnet_w1_mlp_simclrhn_probe3,1,495,NaN,bird,bird,true,0495_fc_dnn_true_bird_35_n02013706_10478.png,n02013706_10478.png,1.0,2.5417092,0.24472909,1.6242102
alexnet_w1_mlp_simclrhn_probe3,1,496,NaN,cat,bear,true,0496_fc_dnn_true_bear_35_n02132136_258.png,n02132136_258.png,0.0,2.5733576,2.7220933,-0.10517207
alexnet_w1_mlp_simclrhn_probe3,1,497,NaN,bird,chair,false,0497_fc_dnn_false_chair_35_n04099969_16350.png,n04099969_16350.png,0.0,-0.3805856,0.69966555,-0.76385295
alexnet_w1_mlp_simclrhn_probe3,1,498,NaN,chair,chair,true,0498_fc_dnn_true_chair_35_n04099969_16456.png,n04099969_16456.png,1.0,3.7560945,2.4360704,0.93339795
alexnet_w1_mlp_simclrhn_probe3,1,499,NaN,bottle,bottle,false,0499_fc_dnn_false_bottle_35_n03983396_12027.png,n03983396_12027.png,1.0,4.1638446,4.0902,0.052074622
alexnet_w1_mlp_simclrhn_probe3,1,500,NaN,chair,chair,true,0500_fc_dnn_true_chair_35_n02791124_5438.png,n02791124_5438.png,1.0,4.8947105,1.3766838,2.4876206
alexnet_w1_mlp_simclrhn_probe3,1,501,NaN,elephant,elephant,true,0501_fc_dnn_true_elephant_35_n02504458_4939.png,n02504458_4939.png,1.0,16.342535,6.560193,6.9171605
alexnet_w1_mlp_simclrhn_probe3,1,502,NaN,keyboard,keyboard,false,0502_fc_dnn_false_keyboard_35_n04505470_2600.png,n04505470_2600.png,1.0,9.812045,4.043375,4.079066
alexnet_w1_mlp_simclrhn_probe3,1,503,NaN,chair,chair,true,0503_fc_dnn_true_chair_35_n03376595_7394.png,n03376595_7394.png,1.0,3.2951148,1.4736762,1.2879516
alexnet_w1_mlp_simclrhn_probe3,1,504,NaN,knife,bicycle,false,0504_fc_dnn_false_bicycle_35_n02835271_9772.png,n02835271_9772.png,0.0,0.59068966,2.3407688,-1.2374928
alexnet_w1_mlp_simclrhn_probe3,1,505,NaN,car,car,true,0505_fc_dnn_true_car_35_n02814533_55937.png,n02814533_55937.png,1.0,5.0215926,3.6375346,0.9786768
alexnet_w1_mlp_simclrhn_probe3,1,506,NaN,boat,airplane,true,0506_fc_dnn_true_airplane_35_n02690373_3920.png,n02690373_3920.png,0.0,4.6612415,5.417589,-0.5348186
alexnet_w1_mlp_simclrhn_probe3,1,507,NaN,oven,oven,false,0507_fc_dnn_false_oven_35_n04111531_6400.png,n04111531_6400.png,1.0,2.5774405,2.1890912,0.2746044
alexnet_w1_mlp_simclrhn_probe3,1,508,NaN,bicycle,truck,false,0508_fc_dnn_false_truck_35_n03417042_4587.png,n03417042_4587.png,0.0,1.5322107,8.830102,-5.1603885
alexnet_w1_mlp_simclrhn_probe3,1,509,NaN,bicycle,knife,true,0509_fc_dnn_true_knife_35_n03041632_31849.png,n03041632_31849.png,0.0,0.42518035,3.800353,-2.3866074
alexnet_w1_mlp_simclrhn_probe3,1,510,NaN,bear,cat,true,0510_fc_dnn_true_cat_35_n02125311_8541.png,n02125311_8541.png,0.0,1.9358374,4.8900204,-2.088923
alexnet_w1_mlp_simclrhn_probe3,1,511,NaN,airplane,airplane,true,0511_fc_dnn_true_airplane_35_n02690373_2162.png,n02690373_2162.png,1.0,10.955307,5.7983413,3.6465256
alexnet_w1_mlp_simclrhn_probe3,1,512,NaN,bear,dog,true,0512_fc_dnn_true_dog_35_n02108551_11297.png,n02108551_11297.png,0.0,2.9886332,3.513946,-0.37145233
alexnet_w1_mlp_simclrhn_probe3,1,513,NaN,car,car,true,0513_fc_dnn_true_car_35_n02814533_34396.png,n02814533_34396.png,1.0,20.016846,10.094832,7.015923
alexnet_w1_mlp_simclrhn_probe3,1,514,NaN,elephant,elephant,true,0514_fc_dnn_true_elephant_35_n02504013_6431.png,n02504013_6431.png,1.0,7.0925374,3.678868,2.4138288
alexnet_w1_mlp_simclrhn_probe3,1,515,NaN,bicycle,bicycle,false,0515_fc_dnn_false_bicycle_35_n03792782_51723.png,n03792782_51723.png,1.0,5.399876,1.5191747,2.7440705
alexnet_w1_mlp_simclrhn_probe3,1,516,NaN,bear,dog,false,0516_fc_dnn_false_dog_35_n02093754_5867.png,n02093754_5867.png,0.0,1.547889,4.58879,-2.1502416
alexnet_w1_mlp_simclrhn_probe3,1,517,NaN,oven,clock,true,0517_fc_dnn_true_clock_35_n04548280_3245.png,n04548280_3245.png,0.0,0.40074626,1.0825601,-0.4821152
alexnet_w1_mlp_simclrhn_probe3,1,518,NaN,airplane,airplane,true,0518_fc_dnn_true_airplane_35_n02690373_9762.png,n02690373_9762.png,1.0,9.480821,3.0783672,4.5272183
alexnet_w1_mlp_simclrhn_probe3,1,519,NaN,airplane,bird,true,0519_fc_dnn_true_bird_35_n02002724_2909.png,n02002724_2909.png,0.0,3.195892,5.382352,-1.5460606
alexnet_w1_mlp_simclrhn_probe3,1,520,NaN,knife,bottle,true,0520_fc_dnn_true_bottle_35_n04557648_10123.png,n04557648_10123.png,0.0,-0.48846573,1.2440028,-1.2250403
alexnet_w1_mlp_simclrhn_probe3,1,521,NaN,elephant,elephant,true,0521_fc_dnn_true_elephant_35_n02504013_5432.png,n02504013_5432.png,1.0,4.77267,2.473249,1.6259362
alexnet_w1_mlp_simclrhn_probe3,1,522,NaN,bear,cat,false,0522_fc_dnn_false_cat_35_n02123597_4998.png,n02123597_4998.png,0.0,3.0690215,3.6011794,-0.37629247
alexnet_w1_mlp_simclrhn_probe3,1,523,NaN,bottle,bottle,true,0523_fc_dnn_true_bottle_35_n04557648_11594.png,n04557648_11594.png,1.0,2.502535,1.8011248,0.49597198
alexnet_w1_mlp_simclrhn_probe3,1,524,NaN,oven,clock,false,0524_fc_dnn_false_clock_35_n03196217_2567.png,n03196217_2567.png,0.0,1.2468845,3.1458185,-1.3427491
alexnet_w1_mlp_simclrhn_probe3,1,525,NaN,keyboard,truck,false,0525_fc_dnn_false_truck_35_n03796401_9136.png,n03796401_9136.png,0.0,0.435494,2.6993213,-1.6007677
alexnet_w1_mlp_simclrhn_probe3,1,526,NaN,boat,boat,false,0526_fc_dnn_false_boat_35_n03344393_8492.png,n03344393_8492.png,1.0,13.792941,1.4809661,8.705881
alexnet_w1_mlp_simclrhn_probe3,1,527,NaN,cat,cat,false,0527_fc_dnn_false_cat_35_n02123159_8267.png,n02123159_8267.png,1.0,9.255332,1.3253225,5.6073637
alexnet_w1_mlp_simclrhn_probe3,1,528,NaN,keyboard,bottle,false,0528_fc_dnn_false_bottle_35_n04557648_12039.png,n04557648_12039.png,0.0,0.58601695,1.222625,-0.4501499
alexnet_w1_mlp_simclrhn_probe3,1,529,NaN,keyboard,keyboard,false,0529_fc_dnn_false_keyboard_35_n04505470_2828.png,n04505470_2828.png,1.0,10.310772,1.5848837,6.170135
alexnet_w1_mlp_simclrhn_probe3,1,530,NaN,boat,boat,true,0530_fc_dnn_true_boat_35_n02951358_31198.png,n02951358_31198.png,1.0,4.6467743,2.709878,1.3695925
alexnet_w1_mlp_simclrhn_probe3,1,531,NaN,oven,oven,false,0531_fc_dnn_false_oven_35_n04111531_5801.png,n04111531_5801.png,1.0,2.5524273,1.226169,0.93780625
alexnet_w1_mlp_simclrhn_probe3,1,532,NaN,bicycle,bicycle,false,0532_fc_dnn_false_bicycle_35_n02835271_9672.png,n02835271_9672.png,1.0,7.4735947,1.1114287,4.4987307
alexnet_w1_mlp_simclrhn_probe3,1,533,NaN,keyboard,keyboard,false,0533_fc_dnn_false_keyboard_35_n03085013_23865.png,n03085013_23865.png,1.0,3.381774,2.8022397,0.40979263
alexnet_w1_mlp_simclrhn_probe3,1,534,NaN,keyboard,bottle,true,0534_fc_dnn_true_bottle_35_n04591713_7133.png,n04591713_7133.png,0.0,0.67177874,4.57639,-2.760977
alexnet_w1_mlp_simclrhn_probe3,1,535,NaN,car,car,true,0535_fc_dnn_true_car_35_n04285008_10006.png,n04285008_10006.png,1.0,13.01807,7.2465615,4.081073
alexnet_w1_mlp_simclrhn_probe3,1,536,NaN,airplane,airplane,true,0536_fc_dnn_true_airplane_35_n02690373_2431.png,n02690373_2431.png,1.0,4.9139814,2.1102357,1.9825476
alexnet_w1_mlp_simclrhn_probe3,1,537,NaN,boat,boat,true,0537_fc_dnn_true_boat_35_n04612504_15440.png,n04612504_15440.png,1.0,1.7325941,1.1256986,0.42913997
alexnet_w1_mlp_simclrhn_probe3,1,538,NaN,bicycle,bicycle,true,0538_fc_dnn_true_bicycle_35_n02835271_5648.png,n02835271_5648.png,1.0,6.495474,1.7154852,3.3799624
alexnet_w1_mlp_simclrhn_probe3,1,539,NaN,airplane,airplane,false,0539_fc_dnn_false_airplane_35_n02690373_3173.png,n02690373_3173.png,1.0,11.870671,4.188859,5.431862
alexnet_w1_mlp_simclrhn_probe3,1,540,NaN,oven,oven,false,0540_fc_dnn_false_oven_35_n04111531_82.png,n04111531_82.png,1.0,7.5796595,2.1559567,3.8351371
alexnet_w1_mlp_simclrhn_probe3,1,541,NaN,oven,chair,false,0541_fc_dnn_false_chair_35_n02791124_2057.png,n02791124_2057.png,0.0,1.352651,3.004106,-1.1677551
alexnet_w1_mlp_simclrhn_probe3,1,542,NaN,oven,elephant,true,0542_fc_dnn_true_elephant_35_n02504458_12175.png,n02504458_12175.png,0.0,0.30718446,1.16045,-0.60334986
alexnet_w1_mlp_simclrhn_probe3,1,543,NaN,boat,boat,false,0543_fc_dnn_false_boat_35_n03344393_6869.png,n03344393_6869.png,1.0,4.9278016,1.3957455,2.497541
alexnet_w1_mlp_simclrhn_probe3,1,544,NaN,truck,truck,false,0544_fc_dnn_false_truck_35_n03417042_1000.png,n03417042_1000.png,1.0,3.8104963,2.188568,1.1468765
alexnet_w1_mlp_simclrhn_probe3,1,545,NaN,boat,boat,true,0545_fc_dnn_true_boat_35_n03344393_6890.png,n03344393_6890.png,1.0,3.8594747,3.6386034,0.15617953
alexnet_w1_mlp_simclrhn_probe3,1,546,NaN,elephant,elephant,false,0546_fc_dnn_false_elephant_35_n02504458_4139.png,n02504458_4139.png,1.0,6.7179837,3.473644,2.2940946
alexnet_w1_mlp_simclrhn_probe3,1,547,NaN,bear,bear,false,0547_fc_dnn_false_bear_35_n02132136_7231.png,n02132136_7231.png,1.0,4.9326277,1.2959466,2.571522
alexnet_w1_mlp_simclrhn_probe3,1,548,NaN,elephant,bird,false,0548_fc_dnn_false_bird_35_n01860187_1815.png,n01860187_1815.png,0.0,1.2568953,2.363823,-0.78271604
alexnet_w1_mlp_simclrhn_probe3,1,549,NaN,knife,keyboard,true,0549_fc_dnn_true_keyboard_35_n03085013_18891.png,n03085013_18891.png,0.0,0.2869378,0.32024053,-0.023548583
alexnet_w1_mlp_simclrhn_probe3,1,550,NaN,bird,bird,false,0550_fc_dnn_false_bird_35_n01828970_2276.png,n01828970_2276.png,1.0,6.0183187,0.25254136,4.07702
alexnet_w1_mlp_simclrhn_probe3,1,551,NaN,elephant,elephant,false,0551_fc_dnn_false_elephant_35_n02504013_1720.png,n02504013_1720.png,1.0,10.299225,5.1209874,3.661567
alexnet_w1_mlp_simclrhn_probe3,1,552,NaN,knife,knife,false,0552_fc_dnn_false_knife_35_n03041632_16104.png,n03041632_16104.png,1.0,2.1731908,1.455096,0.5077697
alexnet_w1_mlp_simclrhn_probe3,1,553,NaN,bicycle,chair,false,0553_fc_dnn_false_chair_35_n03376595_635.png,n03376595_635.png,0.0,2.475906,2.6919193,-0.15274456
alexnet_w1_mlp_simclrhn_probe3,1,554,NaN,bottle,bottle,true,0554_fc_dnn_true_bottle_35_n03983396_6116.png,n03983396_6116.png,1.0,4.6578383,3.3776448,0.90523356
alexnet_w1_mlp_simclrhn_probe3,1,555,NaN,bear,dog,true,0555_fc_dnn_true_dog_35_n02113624_2530.png,n02113624_2530.png,0.0,0.61584276,2.0036902,-0.9813563
alexnet_w1_mlp_simclrhn_probe3,1,556,NaN,bird,bird,true,0556_fc_dnn_true_bird_35_n01592084_3972.png,n01592084_3972.png,1.0,0.60786337,0.5420122,0.046563797
alexnet_w1_mlp_simclrhn_probe3,1,557,NaN,boat,airplane,true,0557_fc_dnn_true_airplane_35_n02690373_5130.png,n02690373_5130.png,0.0,3.6297474,3.8688912,-0.16910024
alexnet_w1_mlp_simclrhn_probe3,1,558,NaN,airplane,bird,true,0558_fc_dnn_true_bird_35_n01833805_7514.png,n01833805_7514.png,0.0,0.54223263,3.2146103,-1.8896563
alexnet_w1_mlp_simclrhn_probe3,1,559,NaN,truck,truck,false,0559_fc_dnn_false_truck_35_n03417042_16238.png,n03417042_16238.png,1.0,6.750141,5.6870117,0.75174606
alexnet_w1_mlp_simclrhn_probe3,1,560,NaN,keyboard,keyboard,true,0560_fc_dnn_true_keyboard_35_n04505470_8620.png,n04505470_8620.png,1.0,12.874481,5.047761,5.534327
alexnet_w1_mlp_simclrhn_probe3,1,561,NaN,keyboard,clock,true,0561_fc_dnn_true_clock_35_n03196217_7888.png,n03196217_7888.png,0.0,4.4587116,5.2752833,-0.5774034
alexnet_w1_mlp_simclrhn_probe3,1,562,NaN,elephant,bottle,true,0562_fc_dnn_true_bottle_35_n04591713_5411.png,n04591713_5411.png,0.0,-0.041158456,2.2266254,-1.6035653
alexnet_w1_mlp_simclrhn_probe3,1,563,NaN,keyboard,clock,false,0563_fc_dnn_false_clock_35_n03196217_2639.png,n03196217_2639.png,0.0,2.4206471,2.541521,-0.08547077
alexnet_w1_mlp_simclrhn_probe3,1,564,NaN,elephant,elephant,true,0564_fc_dnn_true_elephant_35_n02504458_6437.png,n02504458_6437.png,1.0,2.1197147,1.5748448,0.3852812
alexnet_w1_mlp_simclrhn_probe3,1,565,NaN,truck,truck,true,0565_fc_dnn_true_truck_35_n03417042_27586.png,n03417042_27586.png,1.0,7.3768706,2.1393013,3.7035208
alexnet_w1_mlp_simclrhn_probe3,1,566,NaN,chair,keyboard,false,0566_fc_dnn_false_keyboard_35_n03085013_24124.png,n03085013_24124.png,0.0,-0.85519004,3.1050048,-2.8002806
alexnet_w1_mlp_simclrhn_probe3,1,567,NaN,chair,cat,false,0567_fc_dnn_false_cat_35_n02123597_9663.png,n02123597_9663.png,0.0,0.11786846,2.869619,-1.9457815
alexnet_w1_mlp_simclrhn_probe3,1,568,NaN,keyboard,keyboard,true,0568_fc_dnn_true_keyboard_35_n04505470_1833.png,n04505470_1833.png,1.0,4.550009,2.803492,1.2349738
alexnet_w1_mlp_simclrhn_probe3,1,569,NaN,car,car,true,0569_fc_dnn_true_car_35_n04285008_4109.png,n04285008_4109.png,1.0,17.027092,11.105647,4.1870937
alexnet_w1_mlp_simclrhn_probe3,1,570,NaN,bicycle,bird,false,0570_fc_dnn_false_bird_35_n01558993_869.png,n01558993_869.png,0.0,0.19205661,1.287005,-0.7742454
alexnet_w1_mlp_simclrhn_probe3,1,571,NaN,truck,truck,true,0571_fc_dnn_true_truck_35_n03796401_6980.png,n03796401_6980.png,1.0,4.875834,3.3364422,1.0885143
alexnet_w1_mlp_simclrhn_probe3,1,572,NaN,truck,truck,true,0572_fc_dnn_true_truck_35_n03796401_19058.png,n03796401_19058.png,1.0,6.5224776,0.509302,4.2519574
alexnet_w1_mlp_simclrhn_probe3,1,573,NaN,elephant,bear,false,0573_fc_dnn_false_bear_35_n02134418_5033.png,n02134418_5033.png,0.0,2.0759296,2.9248745,-0.6002947
alexnet_w1_mlp_simclrhn_probe3,1,574,NaN,truck,truck,false,0574_fc_dnn_false_truck_35_n03417042_6204.png,n03417042_6204.png,1.0,12.064472,6.571935,3.8838103
alexnet_w1_mlp_simclrhn_probe3,1,575,NaN,bicycle,bicycle,true,0575_fc_dnn_true_bicycle_35_n03792782_7388.png,n03792782_7388.png,1.0,2.2819562,0.7678807,1.070613
alexnet_w1_mlp_simclrhn_probe3,1,576,NaN,truck,truck,true,0576_fc_dnn_true_truck_35_n03417042_1561.png,n03417042_1561.png,1.0,12.074467,5.655884,4.538624
alexnet_w1_mlp_simclrhn_probe3,1,577,NaN,elephant,elephant,true,0577_fc_dnn_true_elephant_35_n02504458_5501.png,n02504458_5501.png,1.0,20.9333,8.4458275,8.829977
alexnet_w1_mlp_simclrhn_probe3,1,578,NaN,boat,boat,true,0578_fc_dnn_true_boat_35_n03662601_34124.png,n03662601_34124.png,1.0,4.3187943,3.050166,0.89705575
alexnet_w1_mlp_simclrhn_probe3,1,579,NaN,knife,knife,false,0579_fc_dnn_false_knife_35_n03041632_37949.png,n03041632_37949.png,1.0,1.5149035,0.62853336,0.6267584
alexnet_w1_mlp_simclrhn_probe3,1,580,NaN,airplane,airplane,false,0580_fc_dnn_false_airplane_35_n02690373_13585.png,n02690373_13585.png,1.0,8.622884,0.9677175,5.41302
alexnet_w1_mlp_simclrhn_probe3,1,581,NaN,elephant,knife,false,0581_fc_dnn_false_knife_35_n03041632_16932.png,n03041632_16932.png,0.0,0.9460183,2.5037487,-1.1014818
alexnet_w1_mlp_simclrhn_probe3,1,582,NaN,elephant,chair,false,0582_fc_dnn_false_chair_35_n04429376_9501.png,n04429376_9501.png,0.0,0.05223772,1.9337194,-1.3304085
alexnet_w1_mlp_simclrhn_probe3,1,583,NaN,bird,bird,false,0583_fc_dnn_false_bird_35_n01532829_10530.png,n01532829_10530.png,1.0,2.7473054,0.6662712,1.4715134
alexnet_w1_mlp_simclrhn_probe3,1,584,NaN,oven,oven,false,0584_fc_dnn_false_oven_35_n04111531_1562.png,n04111531_1562.png,1.0,5.7402554,1.0618267,3.3081486
alexnet_w1_mlp_simclrhn_probe3,1,585,NaN,keyboard,clock,false,0585_fc_dnn_false_clock_35_n02708093_260.png,n02708093_260.png,0.0,0.58820236,4.324532,-2.641984
alexnet_w1_mlp_simclrhn_probe3,1,586,NaN,bottle,bottle,true,0586_fc_dnn_true_bottle_35_n04579145_1457.png,n04579145_1457.png,1.0,3.0666237,1.6605595,0.99423754
alexnet_w1_mlp_simclrhn_probe3,1,587,NaN,bicycle,chair,true,0587_fc_dnn_true_chair_35_n03376595_9897.png,n03376595_9897.png,0.0,1.7398686,3.2303302,-1.0539155
alexnet_w1_mlp_simclrhn_probe3,1,588,NaN,bird,bird,true,0588_fc_dnn_true_bird_35_n01601694_4224.png,n01601694_4224.png,1.0,3.3058455,1.9245924,0.97669345
alexnet_w1_mlp_simclrhn_probe3,1,589,NaN,cat,cat,false,0589_fc_dnn_false_cat_35_n02123159_358.png,n02123159_358.png,1.0,13.103268,1.1840585,8.428154
alexnet_w1_mlp_simclrhn_probe3,1,590,NaN,bottle,bottle,true,0590_fc_dnn_true_bottle_35_n03983396_11788.png,n03983396_11788.png,1.0,7.8933473,3.2735317,3.2667031
alexnet_w1_mlp_simclrhn_probe3,1,591,NaN,cat,cat,true,0591_fc_dnn_true_cat_35_n02124075_8341.png,n02124075_8341.png,1.0,2.7527218,0.9235484,1.2934209
alexnet_w1_mlp_simclrhn_probe3,1,592,NaN,dog,dog,false,0592_fc_dnn_false_dog_35_n02109525_49924.png,n02109525_49924.png,1.0,4.4312987,2.8966608,1.0851529
alexnet_w1_mlp_simclrhn_probe3,1,593,NaN,bear,oven,false,0593_fc_dnn_false_oven_35_n04111531_797.png,n04111531_797.png,0.0,0.5658307,0.98187137,-0.29418516
alexnet_w1_mlp_simclrhn_probe3,1,594,NaN,bicycle,bicycle,true,0594_fc_dnn_true_bicycle_35_n02835271_15930.png,n02835271_15930.png,1.0,8.272518,1.4593508,4.817637
alexnet_w1_mlp_simclrhn_probe3,1,595,NaN,airplane,knife,true,0595_fc_dnn_true_knife_35_n03041632_13656.png,n03041632_13656.png,0.0,2.0234616,2.102773,-0.056081608
alexnet_w1_mlp_simclrhn_probe3,1,596,NaN,knife,clock,false,0596_fc_dnn_false_clock_35_n02708093_8104.png,n02708093_8104.png,0.0,0.27035227,1.311973,-0.7365371
alexnet_w1_mlp_simclrhn_probe3,1,597,NaN,airplane,truck,true,0597_fc_dnn_true_truck_35_n03796401_3148.png,n03796401_3148.png,0.0,-0.51428306,2.5890524,-2.1943896
alexnet_w1_mlp_simclrhn_probe3,1,598,NaN,elephant,bottle,false,0598_fc_dnn_false_bottle_35_n04560804_15263.png,n04560804_15263.png,0.0,-1.7118514,1.4811399,-2.2577858
alexnet_w1_mlp_simclrhn_probe3,1,599,NaN,airplane,airplane,true,0599_fc_dnn_true_airplane_35_n02690373_5003.png,n02690373_5003.png,1.0,2.4768171,1.4862927,0.70040655
alexnet_w1_mlp_simclrhn_probe3,1,600,NaN,boat,boat,false,0600_fc_dnn_false_boat_35_n03344393_994.png,n03344393_994.png,1.0,2.9021928,1.668112,0.8726269
alexnet_w1_mlp_simclrhn_probe3,1,601,NaN,bicycle,bicycle,true,0601_fc_dnn_true_bicycle_35_n03792782_5959.png,n03792782_5959.png,1.0,10.3955555,1.4220828,6.3452034
alexnet_w1_mlp_simclrhn_probe3,1,602,NaN,car,car,false,0602_fc_dnn_false_car_35_n04285008_9383.png,n04285008_9383.png,1.0,8.343915,2.9764714,3.7953558
alexnet_w1_mlp_simclrhn_probe3,1,603,NaN,clock,clock,true,0603_fc_dnn_true_clock_35_n03196217_5627.png,n03196217_5627.png,1.0,2.30999,2.1259747,0.13011844
alexnet_w1_mlp_simclrhn_probe3,1,604,NaN,bottle,bird,true,0604_fc_dnn_true_bird_35_n01534433_13846.png,n01534433_13846.png,0.0,0.31676844,0.5338,-0.1534645
alexnet_w1_mlp_simclrhn_probe3,1,605,NaN,dog,dog,true,0605_fc_dnn_true_dog_35_n02105056_11269.png,n02105056_11269.png,1.0,1.8225764,1.527501,0.20864983
alexnet_w1_mlp_simclrhn_probe3,1,606,NaN,airplane,airplane,false,0606_fc_dnn_false_airplane_35_n02690373_9659.png,n02690373_9659.png,1.0,4.0574007,2.937161,0.7921291
alexnet_w1_mlp_simclrhn_probe3,1,607,NaN,chair,car,false,0607_fc_dnn_false_car_35_n04285008_3269.png,n04285008_3269.png,0.0,-1.1836101,5.5786395,-4.7816324
alexnet_w1_mlp_simclrhn_probe3,1,608,NaN,oven,bottle,true,0608_fc_dnn_true_bottle_35_n02823428_3178.png,n02823428_3178.png,0.0,2.4561698,2.5476892,-0.064713955
alexnet_w1_mlp_simclrhn_probe3,1,609,NaN,elephant,elephant,false,0609_fc_dnn_false_elephant_35_n02504458_4849.png,n02504458_4849.png,1.0,3.152855,2.4662492,0.48550355
alexnet_w1_mlp_simclrhn_probe3,1,610,NaN,bear,bear,true,0610_fc_dnn_true_bear_35_n02134418_643.png,n02134418_643.png,1.0,2.853035,1.767009,0.76793635
alexnet_w1_mlp_simclrhn_probe3,1,611,NaN,boat,boat,true,0611_fc_dnn_true_boat_35_n03344393_7773.png,n03344393_7773.png,1.0,3.0290914,1.4367548,1.125952
alexnet_w1_mlp_simclrhn_probe3,1,612,NaN,car,car,true,0612_fc_dnn_true_car_35_n02814533_26516.png,n02814533_26516.png,1.0,18.810337,11.116224,5.4405594
alexnet_w1_mlp_simclrhn_probe3,1,613,NaN,bicycle,cat,false,0613_fc_dnn_false_cat_35_n02123597_3314.png,n02123597_3314.png,0.0,0.120560385,1.7187575,-1.1300961
alexnet_w1_mlp_simclrhn_probe3,1,614,NaN,bicycle,bicycle,true,0614_fc_dnn_true_bicycle_35_n02835271_6539.png,n02835271_6539.png,1.0,10.057019,2.2314928,5.5334826
alexnet_w1_mlp_simclrhn_probe3,1,615,NaN,bear,bear,true,0615_fc_dnn_true_bear_35_n02132136_3090.png,n02132136_3090.png,1.0,10.300076,7.5211296,1.9650116
alexnet_w1_mlp_simclrhn_probe3,1,616,NaN,car,car,true,0616_fc_dnn_true_car_35_n03100240_9171.png,n03100240_9171.png,1.0,11.632705,7.2643433,3.0888982
alexnet_w1_mlp_simclrhn_probe3,1,617,NaN,cat,cat,false,0617_fc_dnn_false_cat_35_n02123045_12060.png,n02123045_12060.png,1.0,6.194668,2.0697055,2.9167888
alexnet_w1_mlp_simclrhn_probe3,1,618,NaN,truck,truck,false,0618_fc_dnn_false_truck_35_n03796401_26801.png,n03796401_26801.png,1.0,2.0311818,1.4368086,0.42028534
alexnet_w1_mlp_simclrhn_probe3,1,619,NaN,cat,cat,false,0619_fc_dnn_false_cat_35_n02123045_15010.png,n02123045_15010.png,1.0,4.7477717,1.4415843,2.3378277
alexnet_w1_mlp_simclrhn_probe3,1,620,NaN,keyboard,knife,true,0620_fc_dnn_true_knife_35_n03041632_24883.png,n03041632_24883.png,0.0,0.37492347,2.933343,-1.8090758
alexnet_w1_mlp_simclrhn_probe3,1,621,NaN,cat,cat,true,0621_fc_dnn_true_cat_35_n02123597_4040.png,n02123597_4040.png,1.0,1.7986854,1.3903649,0.28872624
alexnet_w1_mlp_simclrhn_probe3,1,622,NaN,bird,bird,true,0622_fc_dnn_true_bird_35_n01843383_3019.png,n01843383_3019.png,1.0,3.0066729,1.1011626,1.3473992
alexnet_w1_mlp_simclrhn_probe3,1,623,NaN,bear,bear,true,0623_fc_dnn_true_bear_35_n02132136_8619.png,n02132136_8619.png,1.0,7.03892,4.9801564,1.4557656
alexnet_w1_mlp_simclrhn_probe3,1,624,NaN,knife,airplane,false,0624_fc_dnn_false_airplane_35_n02690373_1912.png,n02690373_1912.png,0.0,1.7054769,2.0032508,-0.21055798
alexnet_w1_mlp_simclrhn_probe3,1,625,NaN,truck,truck,true,0625_fc_dnn_true_truck_35_n03417042_22828.png,n03417042_22828.png,1.0,6.872591,3.3927321,2.4606318
alexnet_w1_mlp_simclrhn_probe3,1,626,NaN,car,car,true,0626_fc_dnn_true_car_35_n03100240_2909.png,n03100240_2909.png,1.0,19.828642,12.667512,5.0636835
alexnet_w1_mlp_simclrhn_probe3,1,627,NaN,oven,oven,true,0627_fc_dnn_true_oven_35_n04111531_22563.png,n04111531_22563.png,1.0,2.6217062,1.180014,1.0194304
