subj,session,trial,rt,object_response,category,condition,imagename,filename,is_correct,targ_act,max_nontarg_act,decision_margin
alexnet_w1_mlp_simclrhn_probe0,1,1,NaN,knife,knife,true,0001_fc_dnn_true_knife_35_n03041632_86251.png,n03041632_86251.png,1.0,1.4711941,-3.7447274,3.6882133
alexnet_w1_mlp_simclrhn_probe0,1,2,NaN,car,car,false,0002_fc_dnn_false_car_35_n03100240_16866.png,n03100240_16866.png,1.0,6.7293057,3.6887507,2.149997
alexnet_w1_mlp_simclrhn_probe0,1,3,NaN,knife,keyboard,false,0003_fc_dnn_false_keyboard_35_n03085013_21127.png,n03085013_21127.png,0.0,-4.3288193,-0.3126912,-2.8398314
alexnet_w1_mlp_simclrhn_probe0,1,4,NaN,truck,truck,true,0004_fc_dnn_true_truck_35_n03417042_10694.png,n03417042_10694.png,1.0,3.4595006,-0.5455337,2.8319871
alexnet_w1_mlp_simclrhn_probe0,1,5,NaN,bird,bird,true,0005_fc_dnn_true_bird_35_n01614925_1962.png,n01614925_1962.png,1.0,-2.196706,-5.913122,2.627903
alexnet_w1_mlp_simclrhn_probe0,1,6,NaN,knife,knife,false,0006_fc_dnn_false_knife_35_n03041632_99875.png,n03041632_99875.png,1.0,-6.8560586,-8.420504,1.1062297
alexnet_w1_mlp_simclrhn_probe0,1,7,NaN,bicycle,bicycle,true,0007_fc_dnn_true_bicycle_35_n03792782_14935.png,n03792782_14935.png,1.0,-2.2697334,-6.8148723,3.2138987
alexnet_w1_mlp_simclrhn_probe0,1,8,NaN,elephant,elephant,false,0008_fc_dnn_false_elephant_35_n02504013_5027.png,n02504013_5027.png,1.0,-3.4191806,-7.119872,2.616784
alexnet_w1_mlp_simclrhn_probe0,1,9,NaN,cat,dog,false,0009_fc_dnn_false_dog_35_n02090721_129.png,n02090721_129.png,0.0,-8.826997,-7.5017056,-0.9371224
alexnet_w1_mlp_simclrhn_probe0,1,10,NaN,airplane,airplane,true,0010_fc_dnn_true_airplane_35_n02690373_9241.png,n02690373_9241.png,1.0,8.239616,1.7519993,4.587438
alexnet_w1_mlp_simclrhn_probe0,1,11,NaN,truck,truck,true,0011_fc_dnn_true_truck_35_n04467665_62080.png,n04467665_62080.png,1.0,2.523479,0.5685578,1.382338
alexnet_w1_mlp_simclrhn_probe0,1,12,NaN,bottle,keyboard,true,0012_fc_dnn_true_keyboard_35_n04505470_2669.png,n04505470_2669.png,0.0,-0.95909595,-0.43557146,-0.37018776
alexnet_w1_mlp_simclrhn_probe0,1,13,NaN,oven,oven,false,0013_fc_dnn_false_oven_35_n04111531_688.png,n04111531_688.png,1.0,-1.2503607,-6.336013,3.5960994
alexnet_w1_mlp_simclrhn_probe0,1,14,NaN,car,car,true,0014_fc_dnn_true_car_35_n03100240_21982.png,n03100240_21982.png,1.0,8.681125,2.8912263,4.0940766
alexnet_w1_mlp_simclrhn_probe0,1,15,NaN,bicycle,bicycle,true,0015_fc_dnn_true_bicycle_35_n02835271_4191.png,n02835271_4191.png,1.0,0.13119528,-7.6323967,5.4896884
alexnet_w1_mlp_simclrhn_probe0,1,16,NaN,car,car,true,0016_fc_dnn_true_car_35_n02814533_25278.png,n02814533_25278.png,1.0,1.1949358,-1.539909,1.9338273
alexnet_w1_mlp_simclrhn_probe0,1,17,NaN,bottle,knife,false,0017_fc_dnn_false_knife_35_n03041632_23087.png,n03041632_23087.png,0.0,-8.590198,-6.0560846,-1.7918885
alexnet_w1_mlp_simclrhn_probe0,1,18,NaN,clock,clock,true,0018_fc_dnn_true_clock_35_n03196217_11252.png,n03196217_11252.png,1.0,1.8678174,1.6269461,0.17032173
alexnet_w1_mlp_simclrhn_probe0,1,19,NaN,boat,boat,false,0019_fc_dnn_false_boat_35_n04273569_2040.png,n04273569_2040.png,1.0,3.1086326,-1.2661431,3.0934339
alexnet_w1_mlp_simclrhn_probe0,1,20,NaN,knife,knife,true,0020_fc_dnn_true_knife_35_n03041632_84869.png,n03041632_84869.png,1.0,-0.50057364,-5.0917816,3.2464743
alexnet_w1_mlp_simclrhn_probe0,1,21,NaN,clock,clock,true,0021_fc_dnn_true_clock_35_n04548280_503.png,n04548280_503.png,1.0,3.5210304,-0.8120053,3.0639188
alexnet_w1_mlp_simclrhn_probe0,1,22,NaN,truck,truck,false,0022_fc_dnn_false_truck_35_n03417042_10654.png,n03417042_10654.png,1.0,-2.324451,-3.2810287,0.6764026
alexnet_w1_mlp_simclrhn_probe0,1,23,NaN,airplane,boat,true,0023_fc_dnn_true_boat_35_n03344393_2919.png,n03344393_2919.png,0.0,-0.1053092,2.1335244,-1.5830945
alexnet_w1_mlp_simclrhn_probe0,1,24,NaN,chair,chair,false,0024_fc_dnn_false_chair_35_n04099969_7718.png,n04099969_7718.png,1.0,-1.2484566,-3.4350972,1.5461885
alexnet_w1_mlp_simclrhn_probe0,1,25,NaN,oven,oven,true,0025_fc_dnn_true_oven_35_n04111531_3477.png,n04111531_3477.png,1.0,1.0269356,-3.7283292,3.36248
alexnet_w1_mlp_simclrhn_probe0,1,26,NaN,dog,dog,false,0026_fc_dnn_false_dog_35_n02113712_913.png,n02113712_913.png,1.0,-3.6176724,-5.9154334,1.6247624
alexnet_w1_mlp_simclrhn_probe0,1,27,NaN,truck,chair,false,0027_fc_dnn_false_chair_35_n02791124_13701.png,n02791124_13701.png,0.0,-3.8182487,-3.8066735,-0.008184918
alexnet_w1_mlp_simclrhn_probe0,1,28,NaN,airplane,airplane,true,0028_fc_dnn_true_airplane_35_n02690373_8538.png,n02690373_8538.png,1.0,3.0725133,-1.6540619,3.3421936
alexnet_w1_mlp_simclrhn_probe0,1,29,NaN,knife,knife,true,0029_fc_dnn_true_knife_35_n03041632_98864.png,n03041632_98864.png,1.0,-7.2318645,-7.3586164,0.08962713
alexnet_w1_mlp_simclrhn_probe0,1,30,NaN,boat,clock,false,0030_fc_dnn_false_clock_35_n04548280_5466.png,n04548280_5466.png,0.0,-2.841217,-1.4233559,-1.0025792
alexnet_w1_mlp_simclrhn_probe0,1,31,NaN,keyboard,keyboard,true,0031_fc_dnn_true_keyboard_35_n04505470_4033.png,n04505470_4033.png,1.0,9.083621,0.54070264,6.0407553
alexnet_w1_mlp_simclrhn_probe0,1,32,NaN,boat,boat,false,0032_fc_dnn_false_boat_35_n03344393_7503.png,n03344393_7503.png,1.0,-1.3863024,-2.2489452,0.60998064
alexnet_w1_mlp_simclrhn_probe0,1,33,NaN,bottle,bottle,false,0033_fc_dnn_false_bottle_35_n02823428_3402.png,n02823428_3402.png,1.0,0.9365061,-5.261381,4.3825684
alexnet_w1_mlp_simclrhn_probe0,1,34,NaN,clock,boat,true,0034_fc_dnn_true_boat_35_n03662601_15766.png,n03662601_15766.png,0.0,-3.8213983,-0.34365368,-2.4591367
alexnet_w1_mlp_simclrhn_probe0,1,35,NaN,dog,dog,true,0035_fc_dnn_true_dog_35_n02097047_1351.png,n02097047_1351.png,1.0,-2.0381298,-4.4769826,1.7245294
alexnet_w1_mlp_simclrhn_probe0,1,36,NaN,chair,keyboard,true,0036_fc_dnn_true_keyboard_35_n03085013_23562.png,n03085013_23562.png,0.0,-6.8199396,-3.9083128,-2.0588312
alexnet_w1_mlp_simclrhn_probe0,1,37,NaN,chair,clock,false,0037_fc_dnn_false_clock_35_n04548280_7872.png,n04548280_7872.png,0.0,-4.711401,-4.055277,-0.46394983
alexnet_w1_mlp_simclrhn_probe0,1,38,NaN,bicycle,dog,false,0038_fc_dnn_false_dog_35_n02106166_16884.png,n02106166_16884.png,0.0,-2.6945355,-2.495844,-0.14049618
alexnet_w1_mlp_simclrhn_probe0,1,39,NaN,oven,oven,true,0039_fc_dnn_true_oven_35_n04111531_3353.png,n04111531_3353.png,1.0,0.15342864,-2.7724805,2.0689301
alexnet_w1_mlp_simclrhn_probe0,1,40,NaN,bottle,knife,false,0040_fc_dnn_false_knife_35_n03041632_46185.png,n03041632_46185.png,0.0,-2.5779476,0.34115598,-2.064118
alexnet_w1_mlp_simclrhn_probe0,1,41,NaN,knife,knife,true,0041_fc_dnn_true_knife_35_n03041632_14766.png,n03041632_14766.png,1.0,0.6421243,-1.3197324,1.3872422
alexnet_w1_mlp_simclrhn_probe0,1,42,NaN,knife,chair,true,0042_fc_dnn_true_chair_35_n02791124_2150.png,n02791124_2150.png,0.0,-7.4026012,-4.7310367,-1.8890815
alexnet_w1_mlp_simclrhn_probe0,1,43,NaN,elephant,elephant,false,0043_fc_dnn_false_elephant_35_n02504458_4631.png,n02504458_4631.png,1.0,-1.4685516,-4.6634865,2.25916
alexnet_w1_mlp_simclrhn_probe0,1,44,NaN,chair,chair,false,0044_fc_dnn_false_chair_35_n03376595_3223.png,n03376595_3223.png,1.0,-2.442849,-4.8815866,1.724448
alexnet_w1_mlp_simclrhn_probe0,1,45,NaN,car,car,false,0045_fc_dnn_false_car_35_n03100240_5399.png,n03100240_5399.png,1.0,9.421352,3.8854158,3.914498
alexnet_w1_mlp_simclrhn_probe0,1,46,NaN,oven,bottle,true,0046_fc_dnn_true_bottle_35_n04557648_2512.png,n04557648_2512.png,0.0,-8.886616,-0.3726967,-6.02025
alexnet_w1_mlp_simclrhn_probe0,1,47,NaN,elephant,bicycle,true,0047_fc_dnn_true_bicycle_35_n03792782_8098.png,n03792782_8098.png,0.0,-2.4976015,-2.0343,-0.32760358
alexnet_w1_mlp_simclrhn_probe0,1,48,NaN,bear,bear,true,0048_fc_dnn_true_bear_35_n02134418_11557.png,n02134418_11557.png,1.0,-0.22746396,-4.6079497,3.097471
alexnet_w1_mlp_simclrhn_probe0,1,49,NaN,knife,knife,true,0049_fc_dnn_true_knife_35_n03041632_45569.png,n03041632_45569.png,1.0,-1.0883027,-3.2354238,1.5182438
alexnet_w1_mlp_simclrhn_probe0,1,50,NaN,bicycle,bicycle,false,0050_fc_dnn_false_bicycle_35_n03792782_4740.png,n03792782_4740.png,1.0,-5.572425,-8.190391,1.8511814
alexnet_w1_mlp_simclrhn_probe0,1,51,NaN,boat,boat,false,0051_fc_dnn_false_boat_35_n03662601_25404.png,n03662601_25404.png,1.0,5.5143433,0.9901247,3.1991057
alexnet_w1_mlp_simclrhn_probe0,1,52,NaN,bird,bird,false,0052_fc_dnn_false_bird_35_n01796340_4853.png,n01796340_4853.png,1.0,-4.633889,-8.346232,2.6250231
alexnet_w1_mlp_simclrhn_probe0,1,53,NaN,clock,clock,true,0053_fc_dnn_true_clock_35_n03196217_5888.png,n03196217_5888.png,1.0,0.17401879,-0.25155526,0.3009263
alexnet_w1_mlp_simclrhn_probe0,1,54,NaN,bicycle,bicycle,true,0054_fc_dnn_true_bicycle_35_n02835271_12871.png,n02835271_12871.png,1.0,5.98575,-2.985358,6.3435316
alexnet_w1_mlp_simclrhn_probe0,1,55,NaN,keyboard,keyboard,false,0055_fc_dnn_false_keyboard_35_n03085013_28584.png,n03085013_28584.png,1.0,4.989195,0.7351365,3.0080736
alexnet_w1_mlp_simclrhn_probe0,1,56,NaN,bear,cat,true,0056_fc_dnn_true_cat_35_n02123159_6184.png,n02123159_6184.png,0.0,-6.196197,-4.388648,-1.2781302
alexnet_w1_mlp_simclrhn_probe0,1,57,NaN,bicycle,bicycle,true,0057_fc_dnn_true_bicycle_35_n02835271_7592.png,n02835271_7592.png,1.0,5.345956,-6.1055408,8.09743
alexnet_w1_mlp_simclrhn_probe0,1,58,NaN,elephant,elephant,false,0058_fc_dnn_false_elephant_35_n02504458_3205.png,n02504458_3205.png,1.0,3.0999897,-3.2757854,4.508354
alexnet_w1_mlp_simclrhn_probe0,1,59,NaN,cat,cat,false,0059_fc_dnn_false_cat_35_n02124075_7880.png,n02124075_7880.png,1.0,-4.7165866,-5.7574406,0.73599494
alexnet_w1_mlp_simclrhn_probe0,1,60,NaN,truck,truck,false,0060_fc_dnn_false_truck_35_n04467665_2240.png,n04467665_2240.png,1.0,5.347294,-2.05944,5.2373514
alexnet_w1_mlp_simclrhn_probe0,1,61,NaN,bottle,bottle,true,0061_fc_dnn_true_bottle_35_n04560804_13316.png,n04560804_13316.png,1.0,0.7535769,-4.5038166,3.7175386
alexnet_w1_mlp_simclrhn_probe0,1,62,NaN,airplane,airplane,false,0062_fc_dnn_false_airplane_35_n02690373_3821.png,n02690373_3821.png,1.0,8.90496,-1.8548222,7.608315
alexnet_w1_mlp_simclrhn_probe0,1,63,NaN,knife,knife,true,0063_fc_dnn_true_knife_35_n03041632_17285.png,n03041632_17285.png,1.0,-3.316369,-3.8414617,0.37129655
alexnet_w1_mlp_simclrhn_probe0,1,64,NaN,chair,bottle,false,0064_fc_dnn_false_bottle_35_n02823428_10942.png,n02823428_10942.png,0.0,-5.870201,-4.0920324,-1.2573551
alexnet_w1_mlp_simclrhn_probe0,1,65,NaN,bicycle,bicycle,true,0065_fc_dnn_true_bicycle_35_n02835271_3642.png,n02835271_3642.png,1.0,3.7143297,-7.2296243,7.7385445
alexnet_w1_mlp_simclrhn_probe0,1,66,NaN,knife,knife,true,0066_fc_dnn_true_knife_35_n03041632_16172.png,n03041632_16172.png,1.0,0.7638837,-3.7771153,3.210971
alexnet_w1_mlp_simclrhn_probe0,1,67,NaN,bicycle,bottle,false,0067_fc_dnn_false_bottle_35_n04560804_2448.png,n04560804_2448.png,0.0,-13.457598,-6.054003,-5.235132
alexnet_w1_mlp_simclrhn_probe0,1,68,NaN,oven,oven,false,0068_fc_dnn_false_oven_35_n04111531_4452.png,n04111531_4452.png,1.0,2.763961,-5.4070816,5.7777996
alexnet_w1_mlp_simclrhn_probe0,1,69,NaN,keyboard,keyboard,false,0069_fc_dnn_false_keyboard_35_n04505470_912.png,n04505470_912.png,1.0,8.774088,0.97431916,5.5152698
alexnet_w1_mlp_simclrhn_probe0,1,70,NaN,oven,cat,false,0070_fc_dnn_false_cat_35_n02123045_7167.png,n02123045_7167.png,0.0,-7.439789,-5.914567,-1.0784947
alexnet_w1_mlp_simclrhn_probe0,1,71,NaN,bicycle,bicycle,false,0071_fc_dnn_false_bicycle_35_n03792782_8333.png,n03792782_8333.png,1.0,-2.915696,-6.2462664,2.355069
alexnet_w1_mlp_simclrhn_probe0,1,72,NaN,bear,dog,false,0072_fc_dnn_false_dog_35_n02107683_2904.png,n02107683_2904.png,0.0,-3.1200042,-2.6965537,-0.2994247
alexnet_w1_mlp_simclrhn_probe0,1,73,NaN,bottle,bottle,true,0073_fc_dnn_true_bottle_35_n04591713_3409.png,n04591713_3409.png,1.0,0.33598083,-5.222707,3.9305859
alexnet_w1_mlp_simclrhn_probe0,1,74,NaN,chair,bottle,false,0074_fc_dnn_false_bottle_35_n04560804_564.png,n04560804_564.png,0.0,-9.865113,-6.9409595,-2.067689
alexnet_w1_mlp_simclrhn_probe0,1,75,NaN,truck,truck,false,0075_fc_dnn_false_truck_35_n03796401_6503.png,n03796401_6503.png,1.0,2.0253906,-2.136117,2.9426303
alexnet_w1_mlp_simclrhn_probe0,1,76,NaN,oven,oven,true,0076_fc_dnn_true_oven_35_n04111531_13590.png,n04111531_13590.png,1.0,2.6108594,-3.766439,4.509431
alexnet_w1_mlp_simclrhn_probe0,1,77,NaN,bird,bird,false,0077_fc_dnn_false_bird_35_n02018795_7504.png,n02018795_7504.png,1.0,-7.877514,-10.437814,1.8104055
alexnet_w1_mlp_simclrhn_probe0,1,78,NaN,car,car,false,0078_fc_dnn_false_car_35_n03100240_6626.png,n03100240_6626.png,1.0,5.7492905,4.5161896,0.871934
alexnet_w1_mlp_simclrhn_probe0,1,79,NaN,bear,bear,false,0079_fc_dnn_false_bear_35_n02134418_4364.png,n02134418_4364.png,1.0,0.93298227,-3.0389028,2.8085468
alexnet_w1_mlp_simclrhn_probe0,1,80,NaN,car,knife,false,0080_fc_dnn_false_knife_35_n03041632_8051.png,n03041632_8051.png,0.0,-4.9725304,-0.20428818,-3.3716567
alexnet_w1_mlp_simclrhn_probe0,1,81,NaN,airplane,airplane,true,0081_fc_dnn_true_airplane_35_n02690373_1434.png,n02690373_1434.png,1.0,5.4718747,-1.5995337,5.000241
alexnet_w1_mlp_simclrhn_probe0,1,82,NaN,clock,clock,true,0082_fc_dnn_true_clock_35_n04548280_5408.png,n04548280_5408.png,1.0,5.542404,-2.0018547,5.3345966
alexnet_w1_mlp_simclrhn_probe0,1,83,NaN,cat,cat,false,0083_fc_dnn_false_cat_35_n02123597_3916.png,n02123597_3916.png,1.0,-4.2008877,-5.759786,1.1023077
alexnet_w1_mlp_simclrhn_probe0,1,84,NaN,clock,clock,false,0084_fc_dnn_false_clock_35_n04548280_4542.png,n04548280_4542.png,1.0,2.9295413,-1.5173365,3.1444175
alexnet_w1_mlp_simclrhn_probe0,1,85,NaN,airplane,car,true,0085_fc_dnn_true_car_35_n04285008_14161.png,n04285008_14161.png,0.0,-10.692842,-7.5236864,-2.240931
alexnet_w1_mlp_simclrhn_probe0,1,86,NaN,airplane,airplane,false,0086_fc_dnn_false_airplane_35_n02690373_7279.png,n02690373_7279.png,1.0,5.620559,1.3263099,3.036493
alexnet_w1_mlp_simclrhn_probe0,1,87,NaN,elephant,bear,true,0087_fc_dnn_true_bear_35_n02132136_11640.png,n02132136_11640.png,0.0,-2.6255562,-1.4543686,-0.82815474
alexnet_w1_mlp_simclrhn_probe0,1,88,NaN,airplane,airplane,true,0088_fc_dnn_true_airplane_35_n02690373_8350.png,n02690373_8350.png,1.0,3.1013525,-1.5583768,3.294926
alexnet_w1_mlp_simclrhn_probe0,1,89,NaN,boat,boat,true,0089_fc_dnn_true_boat_35_n04273569_30568.png,n04273569_30568.png,1.0,2.6963208,0.41508958,1.6130741
alexnet_w1_mlp_simclrhn_probe0,1,90,NaN,elephant,dog,true,0090_fc_dnn_true_dog_35_n02100583_19533.png,n02100583_19533.png,0.0,-3.695107,-2.9376788,-0.5355826
alexnet_w1_mlp_simclrhn_probe0,1,91,NaN,knife,knife,true,0091_fc_dnn_true_knife_35_n03041632_965.png,n03041632_965.png,1.0,2.1778095,1.1876473,0.7001504
alexnet_w1_mlp_simclrhn_probe0,1,92,NaN,elephant,elephant,false,0092_fc_dnn_false_elephant_35_n02504458_6109.png,n02504458_6109.png,1.0,6.4916496,-0.5854499,5.004265
alexnet_w1_mlp_simclrhn_probe0,1,93,NaN,oven,oven,true,0093_fc_dnn_true_oven_35_n04111531_10093.png,n04111531_10093.png,1.0,-0.32083923,-3.9986837,2.6006289
alexnet_w1_mlp_simclrhn_probe0,1,94,NaN,airplane,clock,true,0094_fc_dnn_true_clock_35_n03196217_8221.png,n03196217_8221.png,0.0,0.33517233,2.5963557,-1.598898
alexnet_w1_mlp_simclrhn_probe0,1,95,NaN,bicycle,bicycle,false,0095_fc_dnn_false_bicycle_35_n03792782_828.png,n03792782_828.png,1.0,0.696031,-7.821292,6.0226564
alexnet_w1_mlp_simclrhn_probe0,1,96,NaN,knife,knife,true,0096_fc_dnn_true_knife_35_n03041632_7090.png,n03041632_7090.png,1.0,-0.64160866,-1.4791974,0.59226465
alexnet_w1_mlp_simclrhn_probe0,1,97,NaN,elephant,bear,false,0097_fc_dnn_false_bear_35_n02134084_14260.png,n02134084_14260.png,0.0,-3.3090317,-3.3027935,-0.0044110892
alexnet_w1_mlp_simclrhn_probe0,1,98,NaN,bear,bear,false,0098_fc_dnn_false_bear_35_n02132136_10988.png,n02132136_10988.png,1.0,1.0717968,0.019795315,0.7438774
alexnet_w1_mlp_simclrhn_probe0,1,99,NaN,boat,keyboard,false,0099_fc_dnn_false_keyboard_35_n03085013_22980.png,n03085013_22980.png,0.0,-4.2694263,-3.5464725,-0.51120555
alexnet_w1_mlp_simclrhn_probe0,1,100,NaN,bottle,bottle,false,0100_fc_dnn_false_bottle_35_n04557648_3673.png,n04557648_3673.png,1.0,-1.6313947,-5.3898487,2.6576283
alexnet_w1_mlp_simclrhn_probe0,1,101,NaN,airplane,airplane,true,0101_fc_dnn_true_airplane_35_n02690373_1360.png,n02690373_1360.png,1.0,7.8655176,-0.33882535,5.801347
alexnet_w1_mlp_simclrhn_probe0,1,102,NaN,car,oven,true,0102_fc_dnn_true_oven_35_n04111531_6415.png,n04111531_6415.png,0.0,-10.059842,-2.8954325,-5.066003
alexnet_w1_mlp_simclrhn_probe0,1,103,NaN,knife,knife,false,0103_fc_dnn_false_knife_35_n03041632_32054.png,n03041632_32054.png,1.0,0.5681534,-1.4748758,1.4446399
alexnet_w1_mlp_simclrhn_probe0,1,104,NaN,chair,chair,false,0104_fc_dnn_false_chair_35_n03376595_9136.png,n03376595_9136.png,1.0,-0.37448102,-1.09444,0.50908786
alexnet_w1_mlp_simclrhn_probe0,1,105,NaN,keyboard,keyboard,false,0105_fc_dnn_false_keyboard_35_n03085013_21266.png,n03085013_21266.png,1.0,-2.5807981,-3.145669,0.39942402
alexnet_w1_mlp_simclrhn_probe0,1,106,NaN,bicycle,bicycle,true,0106_fc_dnn_true_bicycle_35_n02835271_6137.png,n02835271_6137.png,1.0,2.496694,-3.3388004,4.126318
alexnet_w1_mlp_simclrhn_probe0,1,107,NaN,car,car,false,0107_fc_dnn_false_car_35_n04285008_14689.png,n04285008_14689.png,1.0,8.613736,6.1416183,1.7480514
alexnet_w1_mlp_simclrhn_probe0,1,108,NaN,truck,truck,false,0108_fc_dnn_false_truck_35_n04467665_16276.png,n04467665_16276.png,1.0,7.102277,2.8712718,2.9917722
alexnet_w1_mlp_simclrhn_probe0,1,109,NaN,chair,chair,false,0109_fc_dnn_false_chair_35_n03376595_787.png,n03376595_787.png,1.0,-1.4891665,-5.4097433,2.7722664
alexnet_w1_mlp_simclrhn_probe0,1,110,NaN,bicycle,boat,false,0110_fc_dnn_false_boat_35_n04612504_41355.png,n04612504_41355.png,0.0,-3.443193,1.9733294,-3.8300598
alexnet_w1_mlp_simclrhn_probe0,1,111,NaN,elephant,elephant,true,0111_fc_dnn_true_elephant_35_n02504458_174.png,n02504458_174.png,1.0,6.013465,-4.4892745,7.426558
alexnet_w1_mlp_simclrhn_probe0,1,112,NaN,cat,cat,true,0112_fc_dnn_true_cat_35_n02125311_6746.png,n02125311_6746.png,1.0,1.5536789,-0.42668003,1.4003252
alexnet_w1_mlp_simclrhn_probe0,1,113,NaN,keyboard,keyboard,false,0113_fc_dnn_false_keyboard_35_n03085013_23287.png,n03085013_23287.png,1.0,1.0191683,-2.7075644,2.635198
alexnet_w1_mlp_simclrhn_probe0,1,114,NaN,clock,clock,true,0114_fc_dnn_true_clock_35_n04548280_8071.png,n04548280_8071.png,1.0,-0.14342754,-2.4827936,1.6541816
alexnet_w1_mlp_simclrhn_probe0,1,115,NaN,oven,oven,false,0115_fc_dnn_false_oven_35_n04111531_14543.png,n04111531_14543.png,1.0,2.4202423,-3.475768,4.169109
alexnet_w1_mlp_simclrhn_probe0,1,116,NaN,car,car,false,0116_fc_dnn_false_car_35_n03100240_10791.png,n03100240_10791.png,1.0,6.6216636,0.6230247,4.241678
alexnet_w1_mlp_simclrhn_probe0,1,117,NaN,airplane,airplane,true,0117_fc_dnn_true_airplane_35_n02690373_2619.png,n02690373_2619.png,1.0,5.78078,-0.29764834,4.298098
alexnet_w1_mlp_simclrhn_probe0,1,118,NaN,knife,keyboard,true,0118_fc_dnn_true_keyboard_35_n04505470_3864.png,n04505470_3864.png,0.0,-7.327882,-7.3094893,-0.013005506
alexnet_w1_mlp_simclrhn_probe0,1,119,NaN,bear,dog,true,0119_fc_dnn_true_dog_35_n02097658_4387.png,n02097658_4387.png,0.0,-2.065,-0.8172064,-0.8823234
alexnet_w1_mlp_simclrhn_probe0,1,120,NaN,clock,clock,true,0120_fc_dnn_true_clock_35_n04548280_309.png,n04548280_309.png,1.0,3.1263058,0.9513144,1.5379512
alexnet_w1_mlp_simclrhn_probe0,1,121,NaN,dog,dog,true,0121_fc_dnn_true_dog_35_n02108000_5247.png,n02108000_5247.png,1.0,0.37119314,-3.3734622,2.6478713
alexnet_w1_mlp_simclrhn_probe0,1,122,NaN,keyboard,keyboard,false,0122_fc_dnn_false_keyboard_35_n04505470_4411.png,n04505470_4411.png,1.0,-1.7218751,-1.8542521,0.0936047
alexnet_w1_mlp_simclrhn_probe0,1,123,NaN,oven,truck,false,0123_fc_dnn_false_truck_35_n03417042_2155.png,n03417042_2155.png,0.0,-2.5113535,-0.4702263,-1.4432949
alexnet_w1_mlp_simclrhn_probe0,1,124,NaN,bear,bear,false,0124_fc_dnn_false_bear_35_n02132136_4237.png,n02132136_4237.png,1.0,2.0466595,-1.6908308,2.6428046
alexnet_w1_mlp_simclrhn_probe0,1,125,NaN,bird,bird,false,0125_fc_dnn_false_bird_35_n01843065_2350.png,n01843065_2350.png,1.0,-7.8912644,-10.559343,1.8866167
alexnet_w1_mlp_simclrhn_probe0,1,126,NaN,knife,knife,false,0126_fc_dnn_false_knife_35_n03041632_51225.png,n03041632_51225.png,1.0,1.4688449,-1.2297322,1.908182
alexnet_w1_mlp_simclrhn_probe0,1,127,NaN,airplane,airplane,false,0127_fc_dnn_false_airplane_35_n02690373_2095.png,n02690373_2095.png,1.0,4.9848056,-5.5899153,7.4774566
alexnet_w1_mlp_simclrhn_probe0,1,128,NaN,clock,clock,true,0128_fc_dnn_true_clock_35_n02708093_1775.png,n02708093_1775.png,1.0,0.8170083,-3.2954185,2.907925
alexnet_w1_mlp_simclrhn_probe0,1,129,NaN,elephant,elephant,true,0129_fc_dnn_true_elephant_35_n02504458_7950.png,n02504458_7950.png,1.0,11.5291,-0.2423755,8.32369
alexnet_w1_mlp_simclrhn_probe0,1,130,NaN,boat,boat,true,0130_fc_dnn_true_boat_35_n03662601_1926.png,n03662601_1926.png,1.0,1.0510166,-2.8924325,2.7884395
alexnet_w1_mlp_simclrhn_probe0,1,131,NaN,elephant,elephant,true,0131_fc_dnn_true_elephant_35_n02504458_6721.png,n02504458_6721.png,1.0,-3.4712677,-5.9381266,1.7443327
alexnet_w1_mlp_simclrhn_probe0,1,132,NaN,bicycle,bicycle,true,0132_fc_dnn_true_bicycle_35_n02835271_14225.png,n02835271_14225.png,1.0,-4.62425,-6.4199986,1.2697861
alexnet_w1_mlp_simclrhn_probe0,1,133,NaN,bottle,clock,false,0133_fc_dnn_false_clock_35_n02708093_2744.png,n02708093_2744.png,0.0,-3.8692143,-2.2534168,-1.1425414
alexnet_w1_mlp_simclrhn_probe0,1,134,NaN,clock,clock,true,0134_fc_dnn_true_clock_35_n02708093_275.png,n02708093_275.png,1.0,7.6471534,-0.94716567,6.0771017
alexnet_w1_mlp_simclrhn_probe0,1,135,NaN,knife,knife,false,0135_fc_dnn_false_knife_35_n03041632_25512.png,n03041632_25512.png,1.0,-2.0769753,-3.590231,1.0700333
alexnet_w1_mlp_simclrhn_probe0,1,136,NaN,oven,bird,true,0136_fc_dnn_true_bird_35_n01622779_5441.png,n01622779_5441.png,0.0,-8.26433,-4.0363245,-2.9896514
alexnet_w1_mlp_simclrhn_probe0,1,137,NaN,car,oven,false,0137_fc_dnn_false_oven_35_n04111531_14329.png,n04111531_14329.png,0.0,-6.024385,2.9212224,-6.3254995
alexnet_w1_mlp_simclrhn_probe0,1,138,NaN,bird,bird,false,0138_fc_dnn_false_bird_35_n02007558_13217.png,n02007558_13217.png,1.0,-1.7333182,-7.0532684,3.7617729
alexnet_w1_mlp_simclrhn_probe0,1,139,NaN,cat,cat,true,0139_fc_dnn_true_cat_35_n02123597_7908.png,n02123597_7908.png,1.0,-5.413969,-6.725124,0.92712647
alexnet_w1_mlp_simclrhn_probe0,1,140,NaN,clock,clock,true,0140_fc_dnn_true_clock_35_n04548280_9828.png,n04548280_9828.png,1.0,6.649179,-2.0321443,6.1386223
alexnet_w1_mlp_simclrhn_probe0,1,141,NaN,bird,bird,false,0141_fc_dnn_false_bird_35_n01833805_4819.png,n01833805_4819.png,1.0,-1.2417431,-1.620752,0.26799977
alexnet_w1_mlp_simclrhn_probe0,1,142,NaN,knife,knife,true,0142_fc_dnn_true_knife_35_n03041632_52929.png,n03041632_52929.png,1.0,-5.6720963,-7.6504054,1.3988758
alexnet_w1_mlp_simclrhn_probe0,1,143,NaN,truck,truck,false,0143_fc_dnn_false_truck_35_n04467665_2044.png,n04467665_2044.png,1.0,2.713162,-4.6694274,5.220279
alexnet_w1_mlp_simclrhn_probe0,1,144,NaN,oven,oven,false,0144_fc_dnn_false_oven_35_n04111531_16583.png,n04111531_16583.png,1.0,1.6943036,-0.6567192,1.6624241
alexnet_w1_mlp_simclrhn_probe0,1,145,NaN,airplane,airplane,true,0145_fc_dnn_true_airplane_35_n02690373_2796.png,n02690373_2796.png,1.0,2.975117,-2.7347913,4.037515
alexnet_w1_mlp_simclrhn_probe0,1,146,NaN,airplane,airplane,false,0146_fc_dnn_false_airplane_35_n02690373_3362.png,n02690373_3362.png,1.0,5.2469225,-1.6948789,4.908595
alexnet_w1_mlp_simclrhn_probe0,1,147,NaN,clock,clock,true,0147_fc_dnn_true_clock_35_n02708093_3759.png,n02708093_3759.png,1.0,2.6787326,-0.59839803,2.3172812
alexnet_w1_mlp_simclrhn_probe0,1,148,NaN,elephant,elephant,true,0148_fc_dnn_true_elephant_35_n02504013_2558.png,n02504013_2558.png,1.0,-0.09489161,-7.753461,5.4154263
alexnet_w1_mlp_simclrhn_probe0,1,149,NaN,bear,bear,false,0149_fc_dnn_false_bear_35_n02134418_896.png,n02134418_896.png,1.0,-1.1813428,-1.9847422,0.5680891
alexnet_w1_mlp_simclrhn_probe0,1,150,NaN,truck,truck,false,0150_fc_dnn_false_truck_35_n04467665_56815.png,n04467665_56815.png,1.0,4.187615,-0.76326877,3.5008037
alexnet_w1_mlp_simclrhn_probe0,1,151,NaN,truck,truck,true,0151_fc_dnn_true_truck_35_n03796401_3695.png,n03796401_3695.png,1.0,0.97774714,-3.814241,3.3884473
alexnet_w1_mlp_simclrhn_probe0,1,152,NaN,elephant,dog,true,0152_fc_dnn_true_dog_35_n02107312_197.png,n02107312_197.png,0.0,-4.611673,-3.590599,-0.7220082
alexnet_w1_mlp_simclrhn_probe0,1,153,NaN,bear,bear,false,0153_fc_dnn_false_bear_35_n02133161_13356.png,n02133161_13356.png,1.0,-0.610746,-3.3314042,1.9237959
alexnet_w1_mlp_simclrhn_probe0,1,154,NaN,truck,truck,false,0154_fc_dnn_false_truck_35_n03796401_6923.png,n03796401_6923.png,1.0,-3.7600093,-4.392807,0.44745556
alexnet_w1_mlp_simclrhn_probe0,1,155,NaN,elephant,elephant,true,0155_fc_dnn_true_elephant_35_n02504458_7660.png,n02504458_7660.png,1.0,1.5717239,-1.5329888,2.1953635
alexnet_w1_mlp_simclrhn_probe0,1,156,NaN,bicycle,bicycle,false,0156_fc_dnn_false_bicycle_35_n02835271_6554.png,n02835271_6554.png,1.0,7.839219,-5.5423737,9.462215
alexnet_w1_mlp_simclrhn_probe0,1,157,NaN,boat,boat,true,0157_fc_dnn_true_boat_35_n04273569_2698.png,n04273569_2698.png,1.0,2.617796,-1.3069149,2.7751896
alexnet_w1_mlp_simclrhn_probe0,1,158,NaN,dog,bottle,true,0158_fc_dnn_true_bottle_35_n03983396_5055.png,n03983396_5055.png,0.0,-12.656308,-6.207516,-4.5599847
alexnet_w1_mlp_simclrhn_probe0,1,159,NaN,chair,chair,true,0159_fc_dnn_true_chair_35_n04429376_22811.png,n04429376_22811.png,1.0,0.2523406,-1.7859893,1.4413168
alexnet_w1_mlp_simclrhn_probe0,1,160,NaN,knife,knife,false,0160_fc_dnn_false_knife_35_n03041632_5640.png,n03041632_5640.png,1.0,-2.4562368,-2.529373,0.051715028
alexnet_w1_mlp_simclrhn_probe0,1,161,NaN,elephant,bird,true,0161_fc_dnn_true_bird_35_n01795545_14857.png,n01795545_14857.png,0.0,-7.0577955,-4.972231,-1.4747169
alexnet_w1_mlp_simclrhn_probe0,1,162,NaN,oven,oven,false,0162_fc_dnn_false_oven_35_n04111531_16144.png,n04111531_16144.png,1.0,3.690153,-10.308774,9.898736
alexnet_w1_mlp_simclrhn_probe0,1,163,NaN,truck,truck,false,0163_fc_dnn_false_truck_35_n04467665_47050.png,n04467665_47050.png,1.0,-2.5270512,-2.9231327,0.28007188
alexnet_w1_mlp_simclrhn_probe0,1,164,NaN,clock,bottle,true,0164_fc_dnn_true_bottle_35_n03937543_8063.png,n03937543_8063.png,0.0,2.489414,2.9268425,-0.30930865
alexnet_w1_mlp_simclrhn_probe0,1,165,NaN,bear,bear,false,0165_fc_dnn_false_bear_35_n02134084_1655.png,n02134084_1655.png,1.0,-0.26681775,-1.3433976,0.7612569
alexnet_w1_mlp_simclrhn_probe0,1,166,NaN,elephant,car,false,0166_fc_dnn_false_car_35_n03100240_2425.png,n03100240_2425.png,0.0,-10.244611,-5.8841963,-3.0832787
alexnet_w1_mlp_simclrhn_probe0,1,167,NaN,keyboard,keyboard,false,0167_fc_dnn_false_keyboard_35_n03085013_21300.png,n03085013_21300.png,1.0,4.7334733,0.5369546,2.967387
alexnet_w1_mlp_simclrhn_probe0,1,168,NaN,bear,bear,false,0168_fc_dnn_false_bear_35_n02132136_2248.png,n02132136_2248.png,1.0,2.1386647,0.46546388,1.1831317
alexnet_w1_mlp_simclrhn_probe0,1,169,NaN,knife,knife,false,0169_fc_dnn_false_knife_35_n03041632_27832.png,n03041632_27832.png,1.0,-1.8714035,-8.22451,4.492325
alexnet_w1_mlp_simclrhn_probe0,1,170,NaN,keyboard,keyboard,true,0170_fc_dnn_true_keyboard_35_n04505470_4682.png,n04505470_4682.png,1.0,8.569583,2.2358758,4.478607
alexnet_w1_mlp_simclrhn_probe0,1,171,NaN,boat,truck,false,0171_fc_dnn_false_truck_35_n03417042_12908.png,n03417042_12908.png,0.0,-3.9177346,-2.3861284,-1.0830091
alexnet_w1_mlp_simclrhn_probe0,1,172,NaN,elephant,elephant,false,0172_fc_dnn_false_elephant_35_n02504013_2148.png,n02504013_2148.png,1.0,-2.7889495,-5.736586,2.0842938
alexnet_w1_mlp_simclrhn_probe0,1,173,NaN,airplane,boat,true,0173_fc_dnn_true_boat_35_n02951358_20379.png,n02951358_20379.png,0.0,-2.0365021,-0.39108238,-1.1634874
alexnet_w1_mlp_simclrhn_probe0,1,174,NaN,cat,cat,true,0174_fc_dnn_true_cat_35_n02123394_6521.png,n02123394_6521.png,1.0,-1.02186,-2.136733,0.7883343
alexnet_w1_mlp_simclrhn_probe0,1,175,NaN,boat,boat,true,0175_fc_dnn_true_boat_35_n03662601_9602.png,n03662601_9602.png,1.0,1.9592774,-0.3420924,1.6273141
alexnet_w1_mlp_simclrhn_probe0,1,176,NaN,clock,clock,true,0176_fc_dnn_true_clock_35_n04548280_3997.png,n04548280_3997.png,1.0,6.04104,-1.1179245,5.0621524
alexnet_w1_mlp_simclrhn_probe0,1,177,NaN,car,car,false,0177_fc_dnn_false_car_35_n03100240_12694.png,n03100240_12694.png,1.0,8.773837,-0.53920984,6.585319
alexnet_w1_mlp_simclrhn_probe0,1,178,NaN,bird,bird,false,0178_fc_dnn_false_bird_35_n02002556_25052.png,n02002556_25052.png,1.0,-2.5202243,-8.473526,4.20962
alexnet_w1_mlp_simclrhn_probe0,1,179,NaN,elephant,chair,true,0179_fc_dnn_true_chair_35_n04429376_22734.png,n04429376_22734.png,0.0,-3.8890257,-3.3092923,-0.40993342
alexnet_w1_mlp_simclrhn_probe0,1,180,NaN,boat,boat,true,0180_fc_dnn_true_boat_35_n04612504_5334.png,n04612504_5334.png,1.0,5.368812,-1.0712953,4.5538435
alexnet_w1_mlp_simclrhn_probe0,1,181,NaN,keyboard,keyboard,true,0181_fc_dnn_true_keyboard_35_n03085013_15484.png,n03085013_15484.png,1.0,2.9187808,1.25021,1.1798577
alexnet_w1_mlp_simclrhn_probe0,1,182,NaN,bear,bear,true,0182_fc_dnn_true_bear_35_n02134418_1809.png,n02134418_1809.png,1.0,-0.5341447,-4.000137,2.4508266
alexnet_w1_mlp_simclrhn_probe0,1,183,NaN,keyboard,bottle,true,0183_fc_dnn_true_bottle_35_n04560804_6392.png,n04560804_6392.png,0.0,-3.0745902,-2.8947477,-0.12716784
alexnet_w1_mlp_simclrhn_probe0,1,184,NaN,boat,boat,false,0184_fc_dnn_false_boat_35_n02951358_29495.png,n02951358_29495.png,1.0,-0.44214195,-2.049341,1.1364613
alexnet_w1_mlp_simclrhn_probe0,1,185,NaN,dog,dog,false,0185_fc_dnn_false_dog_35_n02086646_8449.png,n02086646_8449.png,1.0,-3.771342,-6.098395,1.6454749
alexnet_w1_mlp_simclrhn_probe0,1,186,NaN,bear,bird,true,0186_fc_dnn_true_bird_35_n02037110_4043.png,n02037110_4043.png,0.0,-9.28606,-4.0782065,-3.6825087
alexnet_w1_mlp_simclrhn_probe0,1,187,NaN,elephant,elephant,true,0187_fc_dnn_true_elephant_35_n02504458_4819.png,n02504458_4819.png,1.0,2.6177688,-3.7327447,4.4904914
alexnet_w1_mlp_simclrhn_probe0,1,188,NaN,bird,bird,true,0188_fc_dnn_true_bird_35_n01829413_282.png,n01829413_282.png,1.0,-2.139929,-8.311317,4.363831
alexnet_w1_mlp_simclrhn_probe0,1,189,NaN,bird,bird,false,0189_fc_dnn_false_bird_35_n02007558_22160.png,n02007558_22160.png,1.0,-4.650347,-5.5560985,0.6404629
alexnet_w1_mlp_simclrhn_probe0,1,190,NaN,truck,truck,false,0190_fc_dnn_false_truck_35_n03417042_3066.png,n03417042_3066.png,1.0,-5.222474,-6.368622,0.8104488
alexnet_w1_mlp_simclrhn_probe0,1,191,NaN,boat,boat,true,0191_fc_dnn_true_boat_35_n04612504_254.png,n04612504_254.png,1.0,-0.4490757,-3.7429206,2.3291001
alexnet_w1_mlp_simclrhn_probe0,1,192,NaN,keyboard,keyboard,false,0192_fc_dnn_false_keyboard_35_n03085013_20704.png,n03085013_20704.png,1.0,-2.7469845,-5.392193,1.8704448
alexnet_w1_mlp_simclrhn_probe0,1,193,NaN,chair,chair,true,0193_fc_dnn_true_chair_35_n03376595_3015.png,n03376595_3015.png,1.0,-1.8420076,-2.5053258,0.4690368
alexnet_w1_mlp_simclrhn_probe0,1,194,NaN,keyboard,bottle,false,0194_fc_dnn_false_bottle_35_n03983396_3782.png,n03983396_3782.png,0.0,-7.2380075,3.9471045,-7.9090686
alexnet_w1_mlp_simclrhn_probe0,1,195,NaN,bird,bird,false,0195_fc_dnn_false_bird_35_n01592084_4087.png,n01592084_4087.png,1.0,-2.8324056,-6.961685,2.9198418
alexnet_w1_mlp_simclrhn_probe0,1,196,NaN,bird,bird,false,0196_fc_dnn_false_bird_35_n02013706_651.png,n02013706_651.png,1.0,-3.7538393,-9.694097,4.200396
alexnet_w1_mlp_simclrhn_probe0,1,197,NaN,keyboard,keyboard,true,0197_fc_dnn_true_keyboard_35_n04505470_2825.png,n04505470_2825.png,1.0,2.9870167,-4.043903,4.971611
alexnet_w1_mlp_simclrhn_probe0,1,198,NaN,cat,cat,false,0198_fc_dnn_false_cat_35_n02123597_23346.png,n02123597_23346.png,1.0,-5.6561356,-5.856236,0.14149237
alexnet_w1_mlp_simclrhn_probe0,1,199,NaN,cat,cat,false,0199_fc_dnn_false_cat_35_n02124075_3592.png,n02124075_3592.png,1.0,-1.9680341,-6.479909,3.1903772
alexnet_w1_mlp_simclrhn_probe0,1,200,NaN,airplane,airplane,false,0200_fc_dnn_false_airplane_35_n02690373_5415.png,n02690373_5415.png,1.0,6.475915,-1.294249,5.4943357
alexnet_w1_mlp_simclrhn_probe0,1,201,NaN,cat,cat,true,0201_fc_dnn_true_cat_35_n02123597_4591.png,n02123597_4591.png,1.0,-2.1834216,-4.7682943,1.8277811
alexnet_w1_mlp_simclrhn_probe0,1,202,NaN,elephant,elephant,false,0202_fc_dnn_false_elephant_35_n02504013_2228.png,n02504013_2228.png,1.0,1.908356,-0.053701907,1.3873844
alexnet_w1_mlp_simclrhn_probe0,1,203,NaN,knife,knife,false,0203_fc_dnn_false_knife_35_n03041632_47743.png,n03041632_47743.png,1.0,-4.3330755,-6.6643744,1.6484772
alexnet_w1_mlp_simclrhn_probe0,1,204,NaN,bear,bear,false,0204_fc_dnn_false_bear_35_n02134418_1105.png,n02134418_1105.png,1.0,0.20456672,-2.8388977,2.1520543
alexnet_w1_mlp_simclrhn_probe0,1,205,NaN,bottle,bottle,true,0205_fc_dnn_true_bottle_35_n04591713_1174.png,n04591713_1174.png,1.0,-3.314514,-5.2831793,1.3920567
alexnet_w1_mlp_simclrhn_probe0,1,206,NaN,keyboard,keyboard,true,0206_fc_dnn_true_keyboard_35_n04505470_8544.png,n04505470_8544.png,1.0,-3.7706313,-6.8383713,2.1692197
alexnet_w1_mlp_simclrhn_probe0,1,207,NaN,bear,bear,true,0207_fc_dnn_true_bear_35_n02134418_379.png,n02134418_379.png,1.0,8.033874,-0.22768718,5.8418055
alexnet_w1_mlp_simclrhn_probe0,1,208,NaN,bottle,knife,false,0208_fc_dnn_false_knife_35_n03041632_33198.png,n03041632_33198.png,0.0,-10.302492,-6.7636085,-2.5023687
alexnet_w1_mlp_simclrhn_probe0,1,209,NaN,bird,bear,true,0209_fc_dnn_true_bear_35_n02134084_4490.png,n02134084_4490.png,0.0,-3.5399423,-2.9155517,-0.44151083
alexnet_w1_mlp_simclrhn_probe0,1,210,NaN,car,car,true,0210_fc_dnn_true_car_35_n02814533_23592.png,n02814533_23592.png,1.0,3.6433506,-0.67244375,3.0517275
alexnet_w1_mlp_simclrhn_probe0,1,211,NaN,bear,dog,false,0211_fc_dnn_false_dog_35_n02102973_7095.png,n02102973_7095.png,0.0,-2.4701805,-1.5447109,-0.6544059
alexnet_w1_mlp_simclrhn_probe0,1,212,NaN,elephant,elephant,true,0212_fc_dnn_true_elephant_35_n02504013_3810.png,n02504013_3810.png,1.0,7.518074,-2.1136823,6.81068
alexnet_w1_mlp_simclrhn_probe0,1,213,NaN,truck,truck,false,0213_fc_dnn_false_truck_35_n03417042_28742.png,n03417042_28742.png,1.0,-1.0331514,-3.5575535,1.7850219
alexnet_w1_mlp_simclrhn_probe0,1,214,NaN,bicycle,bicycle,false,0214_fc_dnn_false_bicycle_35_n03792782_4382.png,n03792782_4382.png,1.0,4.4891434,-8.555102,9.223675
alexnet_w1_mlp_simclrhn_probe0,1,215,NaN,keyboard,keyboard,false,0215_fc_dnn_false_keyboard_35_n04505470_2868.png,n04505470_2868.png,1.0,-2.5969079,-4.3763285,1.2582405
alexnet_w1_mlp_simclrhn_probe0,1,216,NaN,bear,bear,true,0216_fc_dnn_true_bear_35_n02132136_4817.png,n02132136_4817.png,1.0,2.4480257,-0.73911595,2.2536495
alexnet_w1_mlp_simclrhn_probe0,1,217,NaN,bicycle,bicycle,true,0217_fc_dnn_true_bicycle_35_n03792782_1989.png,n03792782_1989.png,1.0,0.9955908,-4.098608,3.6021426
alexnet_w1_mlp_simclrhn_probe0,1,218,NaN,truck,truck,true,0218_fc_dnn_true_truck_35_n03417042_4883.png,n03417042_4883.png,1.0,1.049136,-2.3279064,2.3879294
alexnet_w1_mlp_simclrhn_probe0,1,219,NaN,bicycle,bicycle,true,0219_fc_dnn_true_bicycle_35_n03792782_6614.png,n03792782_6614.png,1.0,0.68792564,-8.379093,6.4113503
alexnet_w1_mlp_simclrhn_probe0,1,220,NaN,car,car,true,0220_fc_dnn_true_car_35_n04285008_8581.png,n04285008_8581.png,1.0,9.388137,2.6078556,4.7943826
alexnet_w1_mlp_simclrhn_probe0,1,221,NaN,truck,truck,true,0221_fc_dnn_true_truck_35_n04467665_22051.png,n04467665_22051.png,1.0,5.4022765,-1.8231114,5.109121
alexnet_w1_mlp_simclrhn_probe0,1,222,NaN,keyboard,keyboard,true,0222_fc_dnn_true_keyboard_35_n04505470_4516.png,n04505470_4516.png,1.0,5.1782722,-2.271458,5.2677546
alexnet_w1_mlp_simclrhn_probe0,1,223,NaN,clock,clock,true,0223_fc_dnn_true_clock_35_n02708093_3355.png,n02708093_3355.png,1.0,-1.8845979,-4.0747004,1.5486364
alexnet_w1_mlp_simclrhn_probe0,1,224,NaN,truck,chair,false,0224_fc_dnn_false_chair_35_n02791124_11404.png,n02791124_11404.png,0.0,-7.320199,-6.3882203,-0.65900844
alexnet_w1_mlp_simclrhn_probe0,1,225,NaN,boat,boat,true,0225_fc_dnn_true_boat_35_n03344393_1145.png,n03344393_1145.png,1.0,2.2255797,1.0294957,0.84575915
alexnet_w1_mlp_simclrhn_probe0,1,226,NaN,chair,keyboard,false,0226_fc_dnn_false_keyboard_35_n04505470_4627.png,n04505470_4627.png,0.0,-3.7270741,-3.2325635,-0.34967184
alexnet_w1_mlp_simclrhn_probe0,1,227,NaN,knife,chair,true,0227_fc_dnn_true_chair_35_n03376595_4354.png,n03376595_4354.png,0.0,-1.444242,0.3996992,-1.3038634
alexnet_w1_mlp_simclrhn_probe0,1,228,NaN,keyboard,keyboard,false,0228_fc_dnn_false_keyboard_35_n03085013_3231.png,n03085013_3231.png,1.0,6.610126,-1.0312034,5.403236
alexnet_w1_mlp_simclrhn_probe0,1,229,NaN,car,car,false,0229_fc_dnn_false_car_35_n03100240_7454.png,n03100240_7454.png,1.0,1.9378752,-1.3283062,2.309539
alexnet_w1_mlp_simclrhn_probe0,1,230,NaN,boat,chair,false,0230_fc_dnn_false_chair_35_n03376595_4212.png,n03376595_4212.png,0.0,-5.3812375,-2.2791243,-2.1935253
alexnet_w1_mlp_simclrhn_probe0,1,231,NaN,airplane,airplane,true,0231_fc_dnn_true_airplane_35_n02690373_4175.png,n02690373_4175.png,1.0,7.261489,-4.855634,8.5681
alexnet_w1_mlp_simclrhn_probe0,1,232,NaN,cat,bird,false,0232_fc_dnn_false_bird_35_n01614925_19918.png,n01614925_19918.png,0.0,-10.028739,-6.319718,-2.622674
alexnet_w1_mlp_simclrhn_probe0,1,233,NaN,dog,dog,false,0233_fc_dnn_false_dog_35_n02086240_1183.png,n02086240_1183.png,1.0,0.07326976,-1.0681906,0.80713433
alexnet_w1_mlp_simclrhn_probe0,1,234,NaN,car,car,false,0234_fc_dnn_false_car_35_n02814533_1344.png,n02814533_1344.png,1.0,2.4979298,1.0391023,1.0315468
alexnet_w1_mlp_simclrhn_probe0,1,235,NaN,oven,bottle,true,0235_fc_dnn_true_bottle_35_n03983396_1321.png,n03983396_1321.png,0.0,-6.8131995,-2.6124167,-2.970402
alexnet_w1_mlp_simclrhn_probe0,1,236,NaN,cat,cat,true,0236_fc_dnn_true_cat_35_n02123597_6291.png,n02123597_6291.png,1.0,-3.5182936,-6.17284,1.8770479
alexnet_w1_mlp_simclrhn_probe0,1,237,NaN,car,airplane,true,0237_fc_dnn_true_airplane_35_n02690373_7698.png,n02690373_7698.png,0.0,-3.0021055,-1.669692,-0.9421586
alexnet_w1_mlp_simclrhn_probe0,1,238,NaN,airplane,airplane,false,0238_fc_dnn_false_airplane_35_n02690373_4191.png,n02690373_4191.png,1.0,-0.55133873,-5.1183853,3.2293897
alexnet_w1_mlp_simclrhn_probe0,1,239,NaN,cat,bear,true,0239_fc_dnn_true_bear_35_n02134418_6204.png,n02134418_6204.png,0.0,-2.4441316,-1.3572189,-0.7685634
alexnet_w1_mlp_simclrhn_probe0,1,240,NaN,elephant,bear,true,0240_fc_dnn_true_bear_35_n02132136_14829.png,n02132136_14829.png,0.0,-3.9569643,-0.8094487,-2.2256296
alexnet_w1_mlp_simclrhn_probe0,1,241,NaN,car,car,false,0241_fc_dnn_false_car_35_n04285008_2409.png,n04285008_2409.png,1.0,2.5230644,1.7171451,0.569871
alexnet_w1_mlp_simclrhn_probe0,1,242,NaN,bird,bird,true,0242_fc_dnn_true_bird_35_n02037110_3761.png,n02037110_3761.png,1.0,-1.2843508,-8.772066,5.2946143
alexnet_w1_mlp_simclrhn_probe0,1,243,NaN,boat,boat,false,0243_fc_dnn_false_boat_35_n02951358_3067.png,n02951358_3067.png,1.0,-1.9092118,-3.7700202,1.3157903
alexnet_w1_mlp_simclrhn_probe0,1,244,NaN,chair,chair,false,0244_fc_dnn_false_chair_35_n03376595_14748.png,n03376595_14748.png,1.0,2.5035858,-2.8000097,3.7502084
alexnet_w1_mlp_simclrhn_probe0,1,245,NaN,elephant,elephant,true,0245_fc_dnn_true_elephant_35_n02504458_5951.png,n02504458_5951.png,1.0,3.5716386,-1.6669271,3.7042253
alexnet_w1_mlp_simclrhn_probe0,1,246,NaN,clock,clock,false,0246_fc_dnn_false_clock_35_n02708093_2006.png,n02708093_2006.png,1.0,-3.1687145,-4.350109,0.83537215
alexnet_w1_mlp_simclrhn_probe0,1,247,NaN,car,car,false,0247_fc_dnn_false_car_35_n03100240_18646.png,n03100240_18646.png,1.0,4.649933,-1.1016917,4.067013
alexnet_w1_mlp_simclrhn_probe0,1,248,NaN,bicycle,bicycle,false,0248_fc_dnn_false_bicycle_35_n03792782_5864.png,n03792782_5864.png,1.0,1.5513052,-6.2305746,5.50262
alexnet_w1_mlp_simclrhn_probe0,1,249,NaN,truck,chair,false,0249_fc_dnn_false_chair_35_n04429376_36830.png,n04429376_36830.png,0.0,-6.0158877,-3.1128306,-2.0527713
alexnet_w1_mlp_simclrhn_probe0,1,250,NaN,boat,boat,true,0250_fc_dnn_true_boat_35_n04273569_9282.png,n04273569_9282.png,1.0,0.175239,-2.401862,1.8222857
alexnet_w1_mlp_simclrhn_probe0,1,251,NaN,cat,bird,true,0251_fc_dnn_true_bird_35_n01622779_1609.png,n01622779_1609.png,0.0,-6.0300612,-4.3828483,-1.1647555
alexnet_w1_mlp_simclrhn_probe0,1,252,NaN,bicycle,dog,true,0252_fc_dnn_true_dog_35_n02088094_9498.png,n02088094_9498.png,0.0,-6.378674,-4.4103036,-1.3918481
alexnet_w1_mlp_simclrhn_probe0,1,253,NaN,car,car,true,0253_fc_dnn_true_car_35_n04285008_5525.png,n04285008_5525.png,1.0,2.389856,-1.9898005,3.096885
alexnet_w1_mlp_simclrhn_probe0,1,254,NaN,knife,knife,true,0254_fc_dnn_true_knife_35_n03041632_29343.png,n03041632_29343.png,1.0,-7.462699,-8.517622,0.74594325
alexnet_w1_mlp_simclrhn_probe0,1,255,NaN,oven,knife,true,0255_fc_dnn_true_knife_35_n03041632_86338.png,n03041632_86338.png,0.0,-3.2022102,-2.1491306,-0.74463975
alexnet_w1_mlp_simclrhn_probe0,1,256,NaN,keyboard,keyboard,false,0256_fc_dnn_false_keyboard_35_n03085013_20691.png,n03085013_20691.png,1.0,2.2543528,1.069703,0.83767396
alexnet_w1_mlp_simclrhn_probe0,1,257,NaN,cat,cat,true,0257_fc_dnn_true_cat_35_n02124075_1957.png,n02124075_1957.png,1.0,-6.051087,-7.3858075,0.94379
alexnet_w1_mlp_simclrhn_probe0,1,258,NaN,bear,bear,false,0258_fc_dnn_false_bear_35_n02134418_195.png,n02134418_195.png,1.0,0.78750527,-0.11790881,0.64022446
alexnet_w1_mlp_simclrhn_probe0,1,259,NaN,chair,chair,true,0259_fc_dnn_true_chair_35_n02791124_1376.png,n02791124_1376.png,1.0,-2.3799748,-3.880331,1.060912
alexnet_w1_mlp_simclrhn_probe0,1,260,NaN,elephant,elephant,false,0260_fc_dnn_false_elephant_35_n02504458_8060.png,n02504458_8060.png,1.0,1.0585463,-4.149832,3.6828794
alexnet_w1_mlp_simclrhn_probe0,1,261,NaN,oven,oven,false,0261_fc_dnn_false_oven_35_n04111531_6479.png,n04111531_6479.png,1.0,-1.1218987,-4.8307652,2.6225648
alexnet_w1_mlp_simclrhn_probe0,1,262,NaN,bear,bear,true,0262_fc_dnn_true_bear_35_n02132136_4070.png,n02132136_4070.png,1.0,-0.9815085,-1.0495448,0.048108943
alexnet_w1_mlp_simclrhn_probe0,1,263,NaN,cat,cat,false,0263_fc_dnn_false_cat_35_n02123597_1153.png,n02123597_1153.png,1.0,-0.9126684,-2.0887108,0.8315875
alexnet_w1_mlp_simclrhn_probe0,1,264,NaN,truck,truck,false,0264_fc_dnn_false_truck_35_n04467665_49656.png,n04467665_49656.png,1.0,1.4976168,-0.6869502,1.5447222
alexnet_w1_mlp_simclrhn_probe0,1,265,NaN,dog,dog,true,0265_fc_dnn_true_dog_35_n02108915_10239.png,n02108915_10239.png,1.0,-2.7460759,-6.1903195,2.4354482
alexnet_w1_mlp_simclrhn_probe0,1,266,NaN,chair,chair,false,0266_fc_dnn_false_chair_35_n04429376_6835.png,n04429376_6835.png,1.0,-1.3961134,-3.2272968,1.2948422
alexnet_w1_mlp_simclrhn_probe0,1,267,NaN,truck,truck,true,0267_fc_dnn_true_truck_35_n04467665_54079.png,n04467665_54079.png,1.0,-3.2552927,-3.9820747,0.51391256
alexnet_w1_mlp_simclrhn_probe0,1,268,NaN,clock,clock,false,0268_fc_dnn_false_clock_35_n03196217_4464.png,n03196217_4464.png,1.0,6.1142974,0.06618577,4.276661
alexnet_w1_mlp_simclrhn_probe0,1,269,NaN,elephant,dog,true,0269_fc_dnn_true_dog_35_n02102318_9359.png,n02102318_9359.png,0.0,-1.9360671,-1.2743561,-0.46790034
alexnet_w1_mlp_simclrhn_probe0,1,270,NaN,bicycle,bicycle,true,0270_fc_dnn_true_bicycle_35_n03792782_12578.png,n03792782_12578.png,1.0,-0.77921104,-9.783944,6.367308
alexnet_w1_mlp_simclrhn_probe0,1,271,NaN,bicycle,bicycle,true,0271_fc_dnn_true_bicycle_35_n02835271_12752.png,n02835271_12752.png,1.0,3.214521,-6.9193416,7.165723
alexnet_w1_mlp_simclrhn_probe0,1,272,NaN,oven,oven,true,0272_fc_dnn_true_oven_35_n04111531_20056.png,n04111531_20056.png,1.0,0.69072556,-5.3476057,4.269745
alexnet_w1_mlp_simclrhn_probe0,1,273,NaN,oven,oven,true,0273_fc_dnn_true_oven_35_n04111531_12510.png,n04111531_12510.png,1.0,-3.7408638,-8.187473,3.1442277
alexnet_w1_mlp_simclrhn_probe0,1,274,NaN,oven,oven,false,0274_fc_dnn_false_oven_35_n04111531_11079.png,n04111531_11079.png,1.0,2.755021,-3.2066972,4.215572
alexnet_w1_mlp_simclrhn_probe0,1,275,NaN,cat,cat,true,0275_fc_dnn_true_cat_35_n02124075_4377.png,n02124075_4377.png,1.0,-2.525342,-5.94074,2.4150512
alexnet_w1_mlp_simclrhn_probe0,1,276,NaN,airplane,knife,true,0276_fc_dnn_true_knife_35_n03041632_20517.png,n03041632_20517.png,0.0,-1.0071921,-0.793811,-0.15088323
alexnet_w1_mlp_simclrhn_probe0,1,277,NaN,knife,knife,false,0277_fc_dnn_false_knife_35_n03041632_362.png,n03041632_362.png,1.0,-3.5111747,-8.865441,3.7860384
alexnet_w1_mlp_simclrhn_probe0,1,278,NaN,airplane,airplane,false,0278_fc_dnn_false_airplane_35_n02690373_6807.png,n02690373_6807.png,1.0,4.9574904,0.41000795,3.2155557
alexnet_w1_mlp_simclrhn_probe0,1,279,NaN,elephant,elephant,false,0279_fc_dnn_false_elephant_35_n02504013_1494.png,n02504013_1494.png,1.0,4.5249553,-0.99764585,3.9050689
alexnet_w1_mlp_simclrhn_probe0,1,280,NaN,oven,oven,false,0280_fc_dnn_false_oven_35_n04111531_3181.png,n04111531_3181.png,1.0,-7.0245147,-8.054931,0.72861415
alexnet_w1_mlp_simclrhn_probe0,1,281,NaN,car,truck,false,0281_fc_dnn_false_truck_35_n03796401_6727.png,n03796401_6727.png,0.0,4.687407,6.8262134,-1.5123645
alexnet_w1_mlp_simclrhn_probe0,1,282,NaN,elephant,dog,true,0282_fc_dnn_true_dog_35_n02113023_6956.png,n02113023_6956.png,0.0,-4.3179827,-2.4725382,-1.3049263
alexnet_w1_mlp_simclrhn_probe0,1,283,NaN,elephant,elephant,false,0283_fc_dnn_false_elephant_35_n02504013_1519.png,n02504013_1519.png,1.0,-8.099831,-8.346352,0.17431667
alexnet_w1_mlp_simclrhn_probe0,1,284,NaN,oven,oven,false,0284_fc_dnn_false_oven_35_n04111531_8082.png,n04111531_8082.png,1.0,-2.3416924,-3.3406253,0.7063522
alexnet_w1_mlp_simclrhn_probe0,1,285,NaN,oven,oven,false,0285_fc_dnn_false_oven_35_n04111531_550.png,n04111531_550.png,1.0,-1.3220968,-3.0028381,1.1884636
alexnet_w1_mlp_simclrhn_probe0,1,286,NaN,knife,clock,false,0286_fc_dnn_false_clock_35_n02708093_2242.png,n02708093_2242.png,0.0,-8.101605,-7.010766,-0.77133995
alexnet_w1_mlp_simclrhn_probe0,1,287,NaN,airplane,airplane,true,0287_fc_dnn_true_airplane_35_n02690373_10809.png,n02690373_10809.png,1.0,6.0304103,-2.9403923,6.343315
alexnet_w1_mlp_simclrhn_probe0,1,288,NaN,bird,bird,false,0288_fc_dnn_false_bird_35_n02037110_6501.png,n02037110_6501.png,1.0,0.017117068,-3.7263124,2.6470044
alexnet_w1_mlp_simclrhn_probe0,1,289,NaN,airplane,airplane,false,0289_fc_dnn_false_airplane_35_n02690373_12756.png,n02690373_12756.png,1.0,5.4874034,-1.0895659,4.6506195
alexnet_w1_mlp_simclrhn_probe0,1,290,NaN,elephant,bottle,false,0290_fc_dnn_false_bottle_35_n03983396_5413.png,n03983396_5413.png,0.0,-3.5774233,-2.9805293,-0.42206782
alexnet_w1_mlp_simclrhn_probe0,1,291,NaN,bird,bird,true,0291_fc_dnn_true_bird_35_n01560419_631.png,n01560419_631.png,1.0,-0.7119746,-7.369725,4.707741
alexnet_w1_mlp_simclrhn_probe0,1,292,NaN,knife,cat,true,0292_fc_dnn_true_cat_35_n02123394_4734.png,n02123394_4734.png,0.0,-4.3270774,-2.0159085,-1.6342432
alexnet_w1_mlp_simclrhn_probe0,1,293,NaN,bottle,bottle,true,0293_fc_dnn_true_bottle_35_n03937543_469.png,n03937543_469.png,1.0,-3.8952718,-5.525152,1.1524996
alexnet_w1_mlp_simclrhn_probe0,1,294,NaN,clock,clock,true,0294_fc_dnn_true_clock_35_n04548280_1055.png,n04548280_1055.png,1.0,-2.2602906,-5.0071235,1.9423041
alexnet_w1_mlp_simclrhn_probe0,1,295,NaN,chair,chair,true,0295_fc_dnn_true_chair_35_n02791124_15934.png,n02791124_15934.png,1.0,-6.0744505,-6.629427,0.39242762
alexnet_w1_mlp_simclrhn_probe0,1,296,NaN,cat,keyboard,true,0296_fc_dnn_true_keyboard_35_n03085013_22187.png,n03085013_22187.png,0.0,-9.428521,-3.791856,-3.9857244
alexnet_w1_mlp_simclrhn_probe0,1,297,NaN,dog,dog,false,0297_fc_dnn_false_dog_35_n02099601_8560.png,n02099601_8560.png,1.0,-2.9101207,-3.403798,0.34908262
alexnet_w1_mlp_simclrhn_probe0,1,298,NaN,truck,truck,true,0298_fc_dnn_true_truck_35_n03417042_11091.png,n03417042_11091.png,1.0,3.843394,0.19934995,2.5767283
alexnet_w1_mlp_simclrhn_probe0,1,299,NaN,bicycle,bird,true,0299_fc_dnn_true_bird_35_n02013706_7132.png,n02013706_7132.png,0.0,-5.3380184,-3.8456266,-1.0552804
alexnet_w1_mlp_simclrhn_probe0,1,300,NaN,truck,car,false,0300_fc_dnn_false_car_35_n02814533_4978.png,n02814533_4978.png,0.0,-3.346095,-3.34024,-0.0041401694
alexnet_w1_mlp_simclrhn_probe0,1,301,NaN,bear,bear,true,0301_fc_dnn_true_bear_35_n02134418_6244.png,n02134418_6244.png,1.0,-0.37121302,-2.3853528,1.424212
alexnet_w1_mlp_simclrhn_probe0,1,302,NaN,bicycle,bicycle,false,0302_fc_dnn_false_bicycle_35_n03792782_50569.png,n03792782_50569.png,1.0,5.840765,-6.029606,8.39362
alexnet_w1_mlp_simclrhn_probe0,1,303,NaN,car,car,true,0303_fc_dnn_true_car_35_n03100240_2632.png,n03100240_2632.png,1.0,3.3054912,0.16439474,2.2210908
alexnet_w1_mlp_simclrhn_probe0,1,304,NaN,knife,knife,false,0304_fc_dnn_false_knife_35_n03041632_11285.png,n03041632_11285.png,1.0,-0.39169204,-3.3110948,2.0643294
alexnet_w1_mlp_simclrhn_probe0,1,305,NaN,knife,knife,false,0305_fc_dnn_false_knife_35_n03041632_39952.png,n03041632_39952.png,1.0,1.1592307,-3.7393806,3.4638412
alexnet_w1_mlp_simclrhn_probe0,1,306,NaN,knife,chair,true,0306_fc_dnn_true_chair_35_n04099969_9745.png,n04099969_9745.png,0.0,-3.163497,-1.9956986,-0.82575816
alexnet_w1_mlp_simclrhn_probe0,1,307,NaN,car,car,true,0307_fc_dnn_true_car_35_n03100240_49.png,n03100240_49.png,1.0,11.220998,7.9114547,2.3402004
alexnet_w1_mlp_simclrhn_probe0,1,308,NaN,keyboard,bird,true,0308_fc_dnn_true_bird_35_n01817953_5953.png,n01817953_5953.png,0.0,-13.554772,-7.6812983,-4.1531734
alexnet_w1_mlp_simclrhn_probe0,1,309,NaN,bear,bear,false,0309_fc_dnn_false_bear_35_n02134418_5253.png,n02134418_5253.png,1.0,0.4048904,-1.3315582,1.2278546
alexnet_w1_mlp_simclrhn_probe0,1,310,NaN,bicycle,bicycle,false,0310_fc_dnn_false_bicycle_35_n03792782_7576.png,n03792782_7576.png,1.0,3.0238535,-7.8442483,7.684909
alexnet_w1_mlp_simclrhn_probe0,1,311,NaN,clock,keyboard,true,0311_fc_dnn_true_keyboard_35_n03085013_5157.png,n03085013_5157.png,0.0,-3.4356782,-0.2948716,-2.2208858
alexnet_w1_mlp_simclrhn_probe0,1,312,NaN,airplane,boat,true,0312_fc_dnn_true_boat_35_n03344393_7050.png,n03344393_7050.png,0.0,-2.3549902,-0.5979898,-1.2423869
alexnet_w1_mlp_simclrhn_probe0,1,313,NaN,bicycle,bicycle,false,0313_fc_dnn_false_bicycle_35_n03792782_51335.png,n03792782_51335.png,1.0,0.8215357,-9.174098,7.067981
alexnet_w1_mlp_simclrhn_probe0,1,314,NaN,cat,cat,true,0314_fc_dnn_true_cat_35_n02124075_7230.png,n02124075_7230.png,1.0,-4.7232366,-7.7701874,2.1545196
alexnet_w1_mlp_simclrhn_probe0,1,315,NaN,airplane,truck,true,0315_fc_dnn_true_truck_35_n04467665_68020.png,n04467665_68020.png,0.0,-3.3968902,1.127201,-3.1990156
alexnet_w1_mlp_simclrhn_probe0,1,316,NaN,elephant,elephant,true,0316_fc_dnn_true_elephant_35_n02504458_2970.png,n02504458_2970.png,1.0,-3.1328106,-4.002907,0.61525095
alexnet_w1_mlp_simclrhn_probe0,1,317,NaN,bicycle,bicycle,false,0317_fc_dnn_false_bicycle_35_n02835271_2714.png,n02835271_2714.png,1.0,3.244258,-7.802503,7.8112392
alexnet_w1_mlp_simclrhn_probe0,1,318,NaN,elephant,elephant,true,0318_fc_dnn_true_elephant_35_n02504013_3307.png,n02504013_3307.png,1.0,3.0129352,-1.2302436,3.0003805
alexnet_w1_mlp_simclrhn_probe0,1,319,NaN,truck,truck,true,0319_fc_dnn_true_truck_35_n03796401_3940.png,n03796401_3940.png,1.0,3.600845,0.14860682,2.441101
alexnet_w1_mlp_simclrhn_probe0,1,320,NaN,oven,chair,false,0320_fc_dnn_false_chair_35_n04429376_5362.png,n04429376_5362.png,0.0,-1.9016001,0.90726185,-1.9861654
alexnet_w1_mlp_simclrhn_probe0,1,321,NaN,cat,cat,false,0321_fc_dnn_false_cat_35_n02123159_1165.png,n02123159_1165.png,1.0,-1.9974022,-5.089098,2.1861591
alexnet_w1_mlp_simclrhn_probe0,1,322,NaN,boat,boat,true,0322_fc_dnn_true_boat_35_n03662601_4665.png,n03662601_4665.png,1.0,0.80400085,0.56610274,0.16821937
alexnet_w1_mlp_simclrhn_probe0,1,323,NaN,cat,cat,true,0323_fc_dnn_true_cat_35_n02124075_5067.png,n02124075_5067.png,1.0,-2.684924,-5.9306984,2.2951093
alexnet_w1_mlp_simclrhn_probe0,1,324,NaN,knife,knife,true,0324_fc_dnn_true_knife_35_n03041632_22480.png,n03041632_22480.png,1.0,-6.7317867,-9.121321,1.6896558
alexnet_w1_mlp_simclrhn_probe0,1,325,NaN,bicycle,bottle,false,0325_fc_dnn_false_bottle_35_n04560804_2539.png,n04560804_2539.png,0.0,-7.451118,-2.6012774,-3.4293551
alexnet_w1_mlp_simclrhn_probe0,1,326,NaN,oven,oven,true,0326_fc_dnn_true_oven_35_n04111531_8681.png,n04111531_8681.png,1.0,-0.042312622,-5.139241,3.6040728
alexnet_w1_mlp_simclrhn_probe0,1,327,NaN,car,car,false,0327_fc_dnn_false_car_35_n03100240_23804.png,n03100240_23804.png,1.0,10.361252,6.458092,2.7599506
alexnet_w1_mlp_simclrhn_probe0,1,328,NaN,oven,oven,true,0328_fc_dnn_true_oven_35_n04111531_547.png,n04111531_547.png,1.0,4.6267033,-2.279373,4.8833337
alexnet_w1_mlp_simclrhn_probe0,1,329,NaN,boat,boat,false,0329_fc_dnn_false_boat_35_n04273569_9873.png,n04273569_9873.png,1.0,1.5915258,-2.0425513,2.5696807
alexnet_w1_mlp_simclrhn_probe0,1,330,NaN,cat,cat,false,0330_fc_dnn_false_cat_35_n02123597_13140.png,n02123597_13140.png,1.0,-2.2542658,-4.468338,1.5655855
alexnet_w1_mlp_simclrhn_probe0,1,331,NaN,bear,bear,true,0331_fc_dnn_true_bear_35_n02134418_1330.png,n02134418_1330.png,1.0,-0.6509376,-2.4057605,1.2408472
alexnet_w1_mlp_simclrhn_probe0,1,332,NaN,truck,chair,false,0332_fc_dnn_false_chair_35_n04429376_6272.png,n04429376_6272.png,0.0,-4.1818132,-2.7767062,-0.99356073
alexnet_w1_mlp_simclrhn_probe0,1,333,NaN,bear,bear,false,0333_fc_dnn_false_bear_35_n02134084_22997.png,n02134084_22997.png,1.0,-3.9910402,-5.2997317,0.92538464
alexnet_w1_mlp_simclrhn_probe0,1,334,NaN,oven,clock,false,0334_fc_dnn_false_clock_35_n03196217_3508.png,n03196217_3508.png,0.0,-0.8090032,1.5234003,-1.6492583
alexnet_w1_mlp_simclrhn_probe0,1,335,NaN,truck,chair,true,0335_fc_dnn_true_chair_35_n02791124_958.png,n02791124_958.png,0.0,-5.126868,-2.2769623,-2.0151875
alexnet_w1_mlp_simclrhn_probe0,1,336,NaN,boat,boat,false,0336_fc_dnn_false_boat_35_n03344393_4012.png,n03344393_4012.png,1.0,0.63284856,0.07990229,0.39099208
alexnet_w1_mlp_simclrhn_probe0,1,337,NaN,airplane,airplane,true,0337_fc_dnn_true_airplane_35_n02690373_4921.png,n02690373_4921.png,1.0,7.6316595,0.27376437,5.2028174
alexnet_w1_mlp_simclrhn_probe0,1,338,NaN,cat,cat,false,0338_fc_dnn_false_cat_35_n02125311_28052.png,n02125311_28052.png,1.0,-1.6434546,-2.1753025,0.3760733
alexnet_w1_mlp_simclrhn_probe0,1,339,NaN,airplane,airplane,false,0339_fc_dnn_false_airplane_35_n02690373_1837.png,n02690373_1837.png,1.0,-1.5941398,-4.1773477,1.8266038
alexnet_w1_mlp_simclrhn_probe0,1,340,NaN,elephant,elephant,false,0340_fc_dnn_false_elephant_35_n02504458_5191.png,n02504458_5191.png,1.0,4.3381596,-5.3683534,6.863541
alexnet_w1_mlp_simclrhn_probe0,1,341,NaN,bird,bird,false,0341_fc_dnn_false_bird_35_n01855672_2187.png,n01855672_2187.png,1.0,-3.4228904,-4.446123,0.72353476
alexnet_w1_mlp_simclrhn_probe0,1,342,NaN,clock,clock,true,0342_fc_dnn_true_clock_35_n04548280_7794.png,n04548280_7794.png,1.0,5.759323,-4.9836655,7.5964403
alexnet_w1_mlp_simclrhn_probe0,1,343,NaN,keyboard,clock,false,0343_fc_dnn_false_clock_35_n03196217_8489.png,n03196217_8489.png,0.0,-10.283238,-5.8058653,-3.165981
alexnet_w1_mlp_simclrhn_probe0,1,344,NaN,knife,knife,false,0344_fc_dnn_false_knife_35_n03041632_21590.png,n03041632_21590.png,1.0,-4.7640214,-5.6247754,0.608645
alexnet_w1_mlp_simclrhn_probe0,1,345,NaN,elephant,elephant,false,0345_fc_dnn_false_elephant_35_n02504458_1249.png,n02504458_1249.png,1.0,9.044171,-6.9833236,11.33315
alexnet_w1_mlp_simclrhn_probe0,1,346,NaN,keyboard,keyboard,false,0346_fc_dnn_false_keyboard_35_n04505470_4549.png,n04505470_4549.png,1.0,2.499435,1.5059835,0.70247626
alexnet_w1_mlp_simclrhn_probe0,1,347,NaN,elephant,elephant,false,0347_fc_dnn_false_elephant_35_n02504013_3771.png,n02504013_3771.png,1.0,0.68403894,-4.929828,3.9696038
alexnet_w1_mlp_simclrhn_probe0,1,348,NaN,bicycle,bicycle,true,0348_fc_dnn_true_bicycle_35_n02835271_19552.png,n02835271_19552.png,1.0,7.9708285,-3.7886252,8.315189
alexnet_w1_mlp_simclrhn_probe0,1,349,NaN,cat,bear,true,0349_fc_dnn_true_bear_35_n02134084_4477.png,n02134084_4477.png,0.0,-7.1937037,-4.891649,-1.6277987
alexnet_w1_mlp_simclrhn_probe0,1,350,NaN,elephant,elephant,false,0350_fc_dnn_false_elephant_35_n02504013_10149.png,n02504013_10149.png,1.0,10.102049,-4.6377645,10.422622
alexnet_w1_mlp_simclrhn_probe0,1,351,NaN,boat,boat,true,0351_fc_dnn_true_boat_35_n04273569_709.png,n04273569_709.png,1.0,4.3195906,1.4030066,2.0623364
alexnet_w1_mlp_simclrhn_probe0,1,352,NaN,car,car,false,0352_fc_dnn_false_car_35_n03100240_7120.png,n03100240_7120.png,1.0,11.140396,4.977281,4.3579807
alexnet_w1_mlp_simclrhn_probe0,1,353,NaN,car,boat,false,0353_fc_dnn_false_boat_35_n02951358_12867.png,n02951358_12867.png,0.0,-5.305529,1.0562947,-4.498489
alexnet_w1_mlp_simclrhn_probe0,1,354,NaN,bird,bird,true,0354_fc_dnn_true_bird_35_n01558993_38999.png,n01558993_38999.png,1.0,0.0116442805,-6.999218,4.9574285
alexnet_w1_mlp_simclrhn_probe0,1,355,NaN,bicycle,bicycle,false,0355_fc_dnn_false_bicycle_35_n03792782_4210.png,n03792782_4210.png,1.0,0.1030328,-4.0926657,2.9668067
alexnet_w1_mlp_simclrhn_probe0,1,356,NaN,dog,dog,false,0356_fc_dnn_false_dog_35_n02102318_11997.png,n02102318_11997.png,1.0,-0.87337285,-1.6027963,0.51578027
alexnet_w1_mlp_simclrhn_probe0,1,357,NaN,elephant,clock,false,0357_fc_dnn_false_clock_35_n02708093_6813.png,n02708093_6813.png,0.0,-10.013759,-5.2158775,-3.3926144
alexnet_w1_mlp_simclrhn_probe0,1,358,NaN,oven,oven,false,0358_fc_dnn_false_oven_35_n04111531_8036.png,n04111531_8036.png,1.0,2.5294125,-6.362291,6.287384
alexnet_w1_mlp_simclrhn_probe0,1,359,NaN,clock,clock,false,0359_fc_dnn_false_clock_35_n02708093_3454.png,n02708093_3454.png,1.0,13.57185,0.9601679,8.917806
alexnet_w1_mlp_simclrhn_probe0,1,360,NaN,keyboard,keyboard,true,0360_fc_dnn_true_keyboard_35_n03085013_21641.png,n03085013_21641.png,1.0,11.001804,-2.9271846,9.849283
alexnet_w1_mlp_simclrhn_probe0,1,361,NaN,bicycle,chair,false,0361_fc_dnn_false_chair_35_n02791124_139.png,n02791124_139.png,0.0,-8.271104,-7.0406876,-0.8700357
alexnet_w1_mlp_simclrhn_probe0,1,362,NaN,cat,bear,false,0362_fc_dnn_false_bear_35_n02134084_6821.png,n02134084_6821.png,0.0,-5.721802,-3.1361535,-1.8283298
alexnet_w1_mlp_simclrhn_probe0,1,363,NaN,cat,cat,false,0363_fc_dnn_false_cat_35_n02124075_5874.png,n02124075_5874.png,1.0,1.3117809,-4.7742157,4.3034496
alexnet_w1_mlp_simclrhn_probe0,1,364,NaN,chair,chair,false,0364_fc_dnn_false_chair_35_n04099969_8604.png,n04099969_8604.png,1.0,-1.9022942,-4.366562,1.7425004
alexnet_w1_mlp_simclrhn_probe0,1,365,NaN,bicycle,bicycle,true,0365_fc_dnn_true_bicycle_35_n02835271_15524.png,n02835271_15524.png,1.0,6.281174,-5.9024987,8.615158
alexnet_w1_mlp_simclrhn_probe0,1,366,NaN,chair,chair,false,0366_fc_dnn_false_chair_35_n04429376_55163.png,n04429376_55163.png,1.0,-1.8765383,-5.203243,2.3523355
alexnet_w1_mlp_simclrhn_probe0,1,367,NaN,dog,dog,true,0367_fc_dnn_true_dog_35_n02106662_10632.png,n02106662_10632.png,1.0,0.49063808,-2.3004918,1.9736269
alexnet_w1_mlp_simclrhn_probe0,1,368,NaN,car,car,false,0368_fc_dnn_false_car_35_n03100240_9675.png,n03100240_9675.png,1.0,9.290494,2.193331,5.018452
alexnet_w1_mlp_simclrhn_probe0,1,369,NaN,bird,bird,true,0369_fc_dnn_true_bird_35_n02011460_22291.png,n02011460_22291.png,1.0,-1.3387076,-6.912136,3.9410093
alexnet_w1_mlp_simclrhn_probe0,1,370,NaN,cat,dog,false,0370_fc_dnn_false_dog_35_n02106662_56099.png,n02106662_56099.png,0.0,-5.068903,-0.7144607,-3.0790555
alexnet_w1_mlp_simclrhn_probe0,1,371,NaN,keyboard,keyboard,false,0371_fc_dnn_false_keyboard_35_n04505470_3970.png,n04505470_3970.png,1.0,10.38458,0.75207967,6.811206
alexnet_w1_mlp_simclrhn_probe0,1,372,NaN,boat,boat,false,0372_fc_dnn_false_boat_35_n03662601_32803.png,n03662601_32803.png,1.0,3.5292459,-1.0390098,3.2302444
alexnet_w1_mlp_simclrhn_probe0,1,373,NaN,bottle,bottle,false,0373_fc_dnn_false_bottle_35_n02823428_4043.png,n02823428_4043.png,1.0,0.86628383,-6.4916606,5.2028527
alexnet_w1_mlp_simclrhn_probe0,1,374,NaN,airplane,airplane,true,0374_fc_dnn_true_airplane_35_n02690373_5221.png,n02690373_5221.png,1.0,8.3311405,-2.4410446,7.6170855
alexnet_w1_mlp_simclrhn_probe0,1,375,NaN,bottle,knife,false,0375_fc_dnn_false_knife_35_n03041632_90125.png,n03041632_90125.png,0.0,-5.985128,-1.8542273,-2.9209876
alexnet_w1_mlp_simclrhn_probe0,1,376,NaN,oven,oven,false,0376_fc_dnn_false_oven_35_n04111531_11230.png,n04111531_11230.png,1.0,4.5190363,-1.4282417,4.205361
alexnet_w1_mlp_simclrhn_probe0,1,377,NaN,keyboard,keyboard,true,0377_fc_dnn_true_keyboard_35_n04505470_3002.png,n04505470_3002.png,1.0,-3.9818015,-6.48964,1.7733098
alexnet_w1_mlp_simclrhn_probe0,1,378,NaN,bicycle,bicycle,true,0378_fc_dnn_true_bicycle_35_n02835271_12237.png,n02835271_12237.png,1.0,3.6269283,-6.4325933,7.1131563
alexnet_w1_mlp_simclrhn_probe0,1,379,NaN,oven,dog,false,0379_fc_dnn_false_dog_35_n02088238_9947.png,n02088238_9947.png,0.0,-11.296757,-3.2116487,-5.717035
alexnet_w1_mlp_simclrhn_probe0,1,380,NaN,airplane,airplane,false,0380_fc_dnn_false_airplane_35_n02690373_2075.png,n02690373_2075.png,1.0,-0.9527858,-2.8304229,1.32769
alexnet_w1_mlp_simclrhn_probe0,1,381,NaN,bicycle,bicycle,false,0381_fc_dnn_false_bicycle_35_n02835271_12930.png,n02835271_12930.png,1.0,4.7184706,-6.4935384,7.928088
alexnet_w1_mlp_simclrhn_probe0,1,382,NaN,dog,dog,false,0382_fc_dnn_false_dog_35_n02096294_4609.png,n02096294_4609.png,1.0,-4.335275,-5.4897327,0.8163248
alexnet_w1_mlp_simclrhn_probe0,1,383,NaN,knife,knife,false,0383_fc_dnn_false_knife_35_n03041632_15754.png,n03041632_15754.png,1.0,-0.9924911,-1.1577874,0.116882145
alexnet_w1_mlp_simclrhn_probe0,1,384,NaN,elephant,bird,true,0384_fc_dnn_true_bird_35_n01819313_5634.png,n01819313_5634.png,0.0,-3.9487364,-2.6176622,-0.94121164
alexnet_w1_mlp_simclrhn_probe0,1,385,NaN,clock,clock,true,0385_fc_dnn_true_clock_35_n02708093_8386.png,n02708093_8386.png,1.0,2.005636,-2.4878402,3.1773674
alexnet_w1_mlp_simclrhn_probe0,1,386,NaN,bottle,bottle,false,0386_fc_dnn_false_bottle_35_n04579145_6435.png,n04579145_6435.png,1.0,2.8299203,-1.6169342,3.144401
alexnet_w1_mlp_simclrhn_probe0,1,387,NaN,airplane,airplane,true,0387_fc_dnn_true_airplane_35_n02690373_9531.png,n02690373_9531.png,1.0,2.606293,-0.5715423,2.247069
alexnet_w1_mlp_simclrhn_probe0,1,388,NaN,chair,bottle,true,0388_fc_dnn_true_bottle_35_n04591713_5518.png,n04591713_5518.png,0.0,-5.3593483,-4.4324937,-0.6553852
alexnet_w1_mlp_simclrhn_probe0,1,389,NaN,airplane,airplane,false,0389_fc_dnn_false_airplane_35_n02690373_12896.png,n02690373_12896.png,1.0,6.078066,-2.2551854,5.8924985
alexnet_w1_mlp_simclrhn_probe0,1,390,NaN,truck,truck,false,0390_fc_dnn_false_truck_35_n03796401_124.png,n03796401_124.png,1.0,-2.9066334,-4.5365996,1.1525602
alexnet_w1_mlp_simclrhn_probe0,1,391,NaN,bicycle,bicycle,true,0391_fc_dnn_true_bicycle_35_n03792782_7050.png,n03792782_7050.png,1.0,-1.6721746,-3.680891,1.4203771
alexnet_w1_mlp_simclrhn_probe0,1,392,NaN,bicycle,bicycle,true,0392_fc_dnn_true_bicycle_35_n02835271_13729.png,n02835271_13729.png,1.0,2.6206844,-6.2444606,6.2686043
alexnet_w1_mlp_simclrhn_probe0,1,393,NaN,bird,bird,false,0393_fc_dnn_false_bird_35_n02027492_3922.png,n02027492_3922.png,1.0,-2.0034757,-2.0746806,0.05034947
alexnet_w1_mlp_simclrhn_probe0,1,394,NaN,elephant,elephant,true,0394_fc_dnn_true_elephant_35_n02504013_9809.png,n02504013_9809.png,1.0,1.5764334,-7.9825425,6.759217
alexnet_w1_mlp_simclrhn_probe0,1,395,NaN,keyboard,keyboard,false,0395_fc_dnn_false_keyboard_35_n04505470_5086.png,n04505470_5086.png,1.0,1.5159695,-2.9649413,3.1684825
alexnet_w1_mlp_simclrhn_probe0,1,396,NaN,knife,keyboard,true,0396_fc_dnn_true_keyboard_35_n03085013_19439.png,n03085013_19439.png,0.0,-3.7679234,-2.9267764,-0.59478074
alexnet_w1_mlp_simclrhn_probe0,1,397,NaN,airplane,airplane,false,0397_fc_dnn_false_airplane_35_n02690373_9926.png,n02690373_9926.png,1.0,6.3414326,-5.211018,8.168816
alexnet_w1_mlp_simclrhn_probe0,1,398,NaN,elephant,elephant,true,0398_fc_dnn_true_elephant_35_n02504458_3197.png,n02504458_3197.png,1.0,12.699578,-0.49923503,9.332971
alexnet_w1_mlp_simclrhn_probe0,1,399,NaN,dog,dog,false,0399_fc_dnn_false_dog_35_n02110185_14056.png,n02110185_14056.png,1.0,-2.198968,-4.7565722,1.8084993
alexnet_w1_mlp_simclrhn_probe0,1,400,NaN,airplane,airplane,true,0400_fc_dnn_true_airplane_35_n02690373_2823.png,n02690373_2823.png,1.0,8.952766,1.0252748,5.605583
alexnet_w1_mlp_simclrhn_probe0,1,401,NaN,bicycle,bicycle,false,0401_fc_dnn_false_bicycle_35_n02835271_14157.png,n02835271_14157.png,1.0,11.845153,-10.882248,16.0707
alexnet_w1_mlp_simclrhn_probe0,1,402,NaN,chair,chair,true,0402_fc_dnn_true_chair_35_n03376595_606.png,n03376595_606.png,1.0,-3.5797849,-4.0225005,0.31304723
alexnet_w1_mlp_simclrhn_probe0,1,403,NaN,airplane,airplane,false,0403_fc_dnn_false_airplane_35_n02690373_1442.png,n02690373_1442.png,1.0,0.87523764,-4.279851,3.645198
alexnet_w1_mlp_simclrhn_probe0,1,404,NaN,keyboard,keyboard,true,0404_fc_dnn_true_keyboard_35_n04505470_10035.png,n04505470_10035.png,1.0,2.8385963,-1.1275634,2.8044984
alexnet_w1_mlp_simclrhn_probe0,1,405,NaN,elephant,bear,true,0405_fc_dnn_true_bear_35_n02133161_13278.png,n02133161_13278.png,0.0,-1.9862773,-0.5781657,-0.9956853
alexnet_w1_mlp_simclrhn_probe0,1,406,NaN,elephant,bear,true,0406_fc_dnn_true_bear_35_n02134418_2657.png,n02134418_2657.png,0.0,-2.1001196,-1.988631,-0.07883433
alexnet_w1_mlp_simclrhn_probe0,1,407,NaN,bear,bear,false,0407_fc_dnn_false_bear_35_n02133161_12894.png,n02133161_12894.png,1.0,-3.0983505,-5.947959,2.0149775
alexnet_w1_mlp_simclrhn_probe0,1,408,NaN,car,clock,false,0408_fc_dnn_false_clock_35_n03196217_6195.png,n03196217_6195.png,0.0,-0.46141854,1.5038766,-1.3896735
alexnet_w1_mlp_simclrhn_probe0,1,409,NaN,bottle,bottle,true,0409_fc_dnn_true_bottle_35_n04591713_13349.png,n04591713_13349.png,1.0,2.7524517,-0.53689325,2.325918
alexnet_w1_mlp_simclrhn_probe0,1,410,NaN,boat,boat,false,0410_fc_dnn_false_boat_35_n04273569_16295.png,n04273569_16295.png,1.0,-0.66122615,-1.0878041,0.30163616
alexnet_w1_mlp_simclrhn_probe0,1,411,NaN,elephant,elephant,false,0411_fc_dnn_false_elephant_35_n02504013_2672.png,n02504013_2672.png,1.0,4.498423,-4.3320146,6.2440624
alexnet_w1_mlp_simclrhn_probe0,1,412,NaN,bear,bear,true,0412_fc_dnn_true_bear_35_n02134084_22292.png,n02134084_22292.png,1.0,-2.641958,-3.466032,0.58270836
alexnet_w1_mlp_simclrhn_probe0,1,413,NaN,airplane,airplane,false,0413_fc_dnn_false_airplane_35_n02690373_997.png,n02690373_997.png,1.0,5.936842,-1.8007091,5.471275
alexnet_w1_mlp_simclrhn_probe0,1,414,NaN,knife,knife,true,0414_fc_dnn_true_knife_35_n03041632_29337.png,n03041632_29337.png,1.0,-3.949699,-5.979244,1.4351053
alexnet_w1_mlp_simclrhn_probe0,1,415,NaN,elephant,elephant,true,0415_fc_dnn_true_elephant_35_n02504458_3261.png,n02504458_3261.png,1.0,1.7030342,-2.2949233,2.826983
alexnet_w1_mlp_simclrhn_probe0,1,416,NaN,oven,oven,true,0416_fc_dnn_true_oven_35_n04111531_22120.png,n04111531_22120.png,1.0,4.1917543,-0.6726635,3.439663
alexnet_w1_mlp_simclrhn_probe0,1,417,NaN,bear,bear,true,0417_fc_dnn_true_bear_35_n02134418_830.png,n02134418_830.png,1.0,-2.8505971,-3.1229522,0.19258413
alexnet_w1_mlp_simclrhn_probe0,1,418,NaN,truck,truck,false,0418_fc_dnn_false_truck_35_n03417042_2124.png,n03417042_2124.png,1.0,2.4244623,-0.7613527,2.2527115
alexnet_w1_mlp_simclrhn_probe0,1,419,NaN,bicycle,bicycle,false,0419_fc_dnn_false_bicycle_35_n02835271_14585.png,n02835271_14585.png,1.0,4.1854687,-6.3546023,7.452956
alexnet_w1_mlp_simclrhn_probe0,1,420,NaN,oven,oven,true,0420_fc_dnn_true_oven_35_n04111531_2855.png,n04111531_2855.png,1.0,0.74355334,-4.986292,4.0516124
alexnet_w1_mlp_simclrhn_probe0,1,421,NaN,dog,cat,false,0421_fc_dnn_false_cat_35_n02123394_4383.png,n02123394_4383.png,0.0,-1.8487835,-1.5053086,-0.24287342
alexnet_w1_mlp_simclrhn_probe0,1,422,NaN,cat,cat,true,0422_fc_dnn_true_cat_35_n02125311_17068.png,n02125311_17068.png,1.0,-2.0694673,-2.9631972,0.6319625
alexnet_w1_mlp_simclrhn_probe0,1,423,NaN,bird,bird,false,0423_fc_dnn_false_bird_35_n01560419_2291.png,n01560419_2291.png,1.0,0.3062525,-4.0607576,3.0879426
alexnet_w1_mlp_simclrhn_probe0,1,424,NaN,bicycle,bird,false,0424_fc_dnn_false_bird_35_n01829413_2459.png,n01829413_2459.png,0.0,-5.701984,-4.894221,-0.5711748
alexnet_w1_mlp_simclrhn_probe0,1,425,NaN,oven,oven,true,0425_fc_dnn_true_oven_35_n04111531_13822.png,n04111531_13822.png,1.0,3.7307448,-5.537301,6.553498
alexnet_w1_mlp_simclrhn_probe0,1,426,NaN,bear,bear,false,0426_fc_dnn_false_bear_35_n02133161_5067.png,n02133161_5067.png,1.0,1.8753655,-1.2368948,2.2007005
alexnet_w1_mlp_simclrhn_probe0,1,427,NaN,bottle,chair,false,0427_fc_dnn_false_chair_35_n02791124_885.png,n02791124_885.png,0.0,-4.8460965,-3.31444,-1.0830448
alexnet_w1_mlp_simclrhn_probe0,1,428,NaN,cat,dog,true,0428_fc_dnn_true_dog_35_n02107312_7182.png,n02107312_7182.png,0.0,-6.414072,-3.4027584,-2.1293204
alexnet_w1_mlp_simclrhn_probe0,1,429,NaN,airplane,truck,true,0429_fc_dnn_true_truck_35_n04467665_13989.png,n04467665_13989.png,0.0,-0.6717791,0.49419844,-0.8244706
alexnet_w1_mlp_simclrhn_probe0,1,430,NaN,bicycle,dog,true,0430_fc_dnn_true_dog_35_n02102480_10232.png,n02102480_10232.png,0.0,-4.510237,-1.7821655,-1.929038
alexnet_w1_mlp_simclrhn_probe0,1,431,NaN,oven,oven,false,0431_fc_dnn_false_oven_35_n04111531_643.png,n04111531_643.png,1.0,7.9860954,-1.3209014,6.581041
alexnet_w1_mlp_simclrhn_probe0,1,432,NaN,bicycle,boat,true,0432_fc_dnn_true_boat_35_n02951358_31514.png,n02951358_31514.png,0.0,-2.1500802,-0.5778916,-1.1117053
alexnet_w1_mlp_simclrhn_probe0,1,433,NaN,oven,oven,true,0433_fc_dnn_true_oven_35_n04111531_1898.png,n04111531_1898.png,1.0,7.281401,-1.2155733,6.008269
alexnet_w1_mlp_simclrhn_probe0,1,434,NaN,car,car,true,0434_fc_dnn_true_car_35_n03100240_5865.png,n03100240_5865.png,1.0,4.6907887,-0.5376899,3.6970925
alexnet_w1_mlp_simclrhn_probe0,1,435,NaN,keyboard,keyboard,true,0435_fc_dnn_true_keyboard_35_n04505470_4369.png,n04505470_4369.png,1.0,10.670747,-0.26574254,7.733266
alexnet_w1_mlp_simclrhn_probe0,1,436,NaN,cat,cat,false,0436_fc_dnn_false_cat_35_n02123394_1942.png,n02123394_1942.png,1.0,-1.8254524,-5.6727023,2.7204165
alexnet_w1_mlp_simclrhn_probe0,1,437,NaN,car,car,true,0437_fc_dnn_true_car_35_n04285008_2900.png,n04285008_2900.png,1.0,1.7622865,0.42742878,0.94388694
alexnet_w1_mlp_simclrhn_probe0,1,438,NaN,airplane,airplane,true,0438_fc_dnn_true_airplane_35_n02690373_10926.png,n02690373_10926.png,1.0,7.422783,-0.8706143,5.8643174
alexnet_w1_mlp_simclrhn_probe0,1,439,NaN,bottle,knife,true,0439_fc_dnn_true_knife_35_n03041632_11613.png,n03041632_11613.png,0.0,-4.5853796,-4.2878447,-0.21038897
alexnet_w1_mlp_simclrhn_probe0,1,440,NaN,knife,knife,true,0440_fc_dnn_true_knife_35_n03041632_24817.png,n03041632_24817.png,1.0,-4.8026047,-7.995406,2.2576516
alexnet_w1_mlp_simclrhn_probe0,1,441,NaN,bicycle,bicycle,true,0441_fc_dnn_true_bicycle_35_n02835271_3042.png,n02835271_3042.png,1.0,6.306713,-7.8512597,10.011198
alexnet_w1_mlp_simclrhn_probe0,1,442,NaN,bear,dog,true,0442_fc_dnn_true_dog_35_n02102177_7737.png,n02102177_7737.png,0.0,-2.8447084,-2.690478,-0.10905733
alexnet_w1_mlp_simclrhn_probe0,1,443,NaN,oven,oven,true,0443_fc_dnn_true_oven_35_n04111531_21460.png,n04111531_21460.png,1.0,-2.0828505,-6.4325686,3.0757153
alexnet_w1_mlp_simclrhn_probe0,1,444,NaN,chair,keyboard,false,0444_fc_dnn_false_keyboard_35_n04505470_7388.png,n04505470_7388.png,0.0,-7.1980014,-2.536468,-3.296202
alexnet_w1_mlp_simclrhn_probe0,1,445,NaN,bird,bird,true,0445_fc_dnn_true_bird_35_n01828970_25642.png,n01828970_25642.png,1.0,1.8147686,-4.149497,4.217373
alexnet_w1_mlp_simclrhn_probe0,1,446,NaN,bicycle,bicycle,false,0446_fc_dnn_false_bicycle_35_n02835271_608.png,n02835271_608.png,1.0,-3.2887905,-8.928238,3.9876914
alexnet_w1_mlp_simclrhn_probe0,1,447,NaN,boat,boat,true,0447_fc_dnn_true_boat_35_n04273569_26182.png,n04273569_26182.png,1.0,1.9872621,1.2522678,0.5197195
alexnet_w1_mlp_simclrhn_probe0,1,448,NaN,cat,cat,false,0448_fc_dnn_false_cat_35_n02123045_9384.png,n02123045_9384.png,1.0,-0.6471336,-5.572691,3.482895
alexnet_w1_mlp_simclrhn_probe0,1,449,NaN,airplane,airplane,true,0449_fc_dnn_true_airplane_35_n02690373_9529.png,n02690373_9529.png,1.0,6.678079,-5.129141,8.348966
alexnet_w1_mlp_simclrhn_probe0,1,450,NaN,knife,cat,true,0450_fc_dnn_true_cat_35_n02123597_5081.png,n02123597_5081.png,0.0,-6.9785876,-5.1547475,-1.2896497
alexnet_w1_mlp_simclrhn_probe0,1,451,NaN,oven,oven,false,0451_fc_dnn_false_oven_35_n04111531_4998.png,n04111531_4998.png,1.0,1.4493197,-4.895023,4.486128
alexnet_w1_mlp_simclrhn_probe0,1,452,NaN,clock,clock,true,0452_fc_dnn_true_clock_35_n04548280_1245.png,n04548280_1245.png,1.0,4.376947,-0.65684545,3.559429
alexnet_w1_mlp_simclrhn_probe0,1,453,NaN,bicycle,dog,true,0453_fc_dnn_true_dog_35_n02104365_8609.png,n02104365_8609.png,0.0,-5.7916875,-3.7628665,-1.4345931
alexnet_w1_mlp_simclrhn_probe0,1,454,NaN,clock,clock,false,0454_fc_dnn_false_clock_35_n02708093_6414.png,n02708093_6414.png,1.0,3.602463,-4.10569,5.450487
alexnet_w1_mlp_simclrhn_probe0,1,455,NaN,bird,bird,true,0455_fc_dnn_true_bird_35_n01798484_9155.png,n01798484_9155.png,1.0,-6.549992,-7.0380588,0.34511527
alexnet_w1_mlp_simclrhn_probe0,1,456,NaN,bicycle,oven,true,0456_fc_dnn_true_oven_35_n04111531_10724.png,n04111531_10724.png,0.0,-8.262315,-1.6162369,-4.699487
alexnet_w1_mlp_simclrhn_probe0,1,457,NaN,bicycle,boat,true,0457_fc_dnn_true_boat_35_n02951358_32687.png,n02951358_32687.png,0.0,-2.1964688,-1.6087868,-0.41555393
alexnet_w1_mlp_simclrhn_probe0,1,458,NaN,bicycle,bicycle,true,0458_fc_dnn_true_bicycle_35_n02835271_31.png,n02835271_31.png,1.0,1.3225247,-4.8969097,4.3978043
alexnet_w1_mlp_simclrhn_probe0,1,459,NaN,elephant,bottle,true,0459_fc_dnn_true_bottle_35_n04557648_4420.png,n04557648_4420.png,0.0,-6.441982,-3.8515124,-1.8317385
alexnet_w1_mlp_simclrhn_probe0,1,460,NaN,bear,bear,true,0460_fc_dnn_true_bear_35_n02133161_713.png,n02133161_713.png,1.0,4.4564943,2.5592356,1.3415645
alexnet_w1_mlp_simclrhn_probe0,1,461,NaN,airplane,airplane,false,0461_fc_dnn_false_airplane_35_n02690373_5967.png,n02690373_5967.png,1.0,4.2505164,-2.9740133,5.108514
alexnet_w1_mlp_simclrhn_probe0,1,462,NaN,bird,bird,true,0462_fc_dnn_true_bird_35_n01795545_4502.png,n01795545_4502.png,1.0,-1.1636533,-2.9412963,1.2569835
alexnet_w1_mlp_simclrhn_probe0,1,463,NaN,elephant,cat,true,0463_fc_dnn_true_cat_35_n02124075_11466.png,n02124075_11466.png,0.0,-4.7107234,-3.8115823,-0.63578874
alexnet_w1_mlp_simclrhn_probe0,1,464,NaN,clock,keyboard,true,0464_fc_dnn_true_keyboard_35_n03085013_21769.png,n03085013_21769.png,0.0,-4.400468,-3.209299,-0.84228355
alexnet_w1_mlp_simclrhn_probe0,1,465,NaN,car,car,false,0465_fc_dnn_false_car_35_n03100240_15097.png,n03100240_15097.png,1.0,-3.708397,-4.660878,0.67350596
alexnet_w1_mlp_simclrhn_probe0,1,466,NaN,bear,dog,false,0466_fc_dnn_false_dog_35_n02093647_3072.png,n02093647_3072.png,0.0,-5.963424,-3.5931773,-1.6760176
alexnet_w1_mlp_simclrhn_probe0,1,467,NaN,bicycle,bicycle,false,0467_fc_dnn_false_bicycle_35_n02835271_12701.png,n02835271_12701.png,1.0,1.4438177,-1.9811633,2.4218273
alexnet_w1_mlp_simclrhn_probe0,1,468,NaN,dog,bear,false,0468_fc_dnn_false_bear_35_n02134084_3227.png,n02134084_3227.png,0.0,-2.1047153,-1.974869,-0.091815226
alexnet_w1_mlp_simclrhn_probe0,1,469,NaN,cat,cat,true,0469_fc_dnn_true_cat_35_n02123394_5001.png,n02123394_5001.png,1.0,-0.7258987,-5.2010446,3.164406
alexnet_w1_mlp_simclrhn_probe0,1,470,NaN,keyboard,keyboard,true,0470_fc_dnn_true_keyboard_35_n03085013_6862.png,n03085013_6862.png,1.0,-0.688834,-2.2871857,1.1302054
alexnet_w1_mlp_simclrhn_probe0,1,471,NaN,chair,chair,true,0471_fc_dnn_true_chair_35_n04099969_45461.png,n04099969_45461.png,1.0,0.30622554,-3.1728442,2.4600737
alexnet_w1_mlp_simclrhn_probe0,1,472,NaN,bicycle,bicycle,false,0472_fc_dnn_false_bicycle_35_n03792782_485.png,n03792782_485.png,1.0,0.9560516,-6.0789623,4.9745064
alexnet_w1_mlp_simclrhn_probe0,1,473,NaN,chair,oven,true,0473_fc_dnn_true_oven_35_n04111531_1674.png,n04111531_1674.png,0.0,-3.946778,-2.167858,-1.2578865
alexnet_w1_mlp_simclrhn_probe0,1,474,NaN,airplane,airplane,true,0474_fc_dnn_true_airplane_35_n02690373_866.png,n02690373_866.png,1.0,10.458119,-3.8776524,10.136922
alexnet_w1_mlp_simclrhn_probe0,1,475,NaN,oven,oven,false,0475_fc_dnn_false_oven_35_n04111531_9297.png,n04111531_9297.png,1.0,-2.5854244,-4.885067,1.6260929
alexnet_w1_mlp_simclrhn_probe0,1,476,NaN,elephant,elephant,false,0476_fc_dnn_false_elephant_35_n02504458_6878.png,n02504458_6878.png,1.0,2.8968854,-4.468688,5.208247
alexnet_w1_mlp_simclrhn_probe0,1,477,NaN,car,car,true,0477_fc_dnn_true_car_35_n03100240_3151.png,n03100240_3151.png,1.0,1.7794079,-0.36098137,1.5134838
alexnet_w1_mlp_simclrhn_probe0,1,478,NaN,airplane,airplane,false,0478_fc_dnn_false_airplane_35_n02690373_6363.png,n02690373_6363.png,1.0,5.8855324,-0.6844405,4.6456723
alexnet_w1_mlp_simclrhn_probe0,1,479,NaN,car,car,true,0479_fc_dnn_true_car_35_n04285008_15049.png,n04285008_15049.png,1.0,3.496751,0.055517554,2.4333196
alexnet_w1_mlp_simclrhn_probe0,1,480,NaN,elephant,truck,true,0480_fc_dnn_true_truck_35_n04467665_2505.png,n04467665_2505.png,0.0,-8.030912,-4.243697,-2.6779656
alexnet_w1_mlp_simclrhn_probe0,1,481,NaN,bicycle,bottle,true,0481_fc_dnn_true_bottle_35_n04591713_4030.png,n04591713_4030.png,0.0,-10.387879,-7.3520684,-2.1466424
alexnet_w1_mlp_simclrhn_probe0,1,482,NaN,oven,oven,true,0482_fc_dnn_true_oven_35_n04111531_12929.png,n04111531_12929.png,1.0,-0.9784867,-4.642684,2.5909786
alexnet_w1_mlp_simclrhn_probe0,1,483,NaN,dog,cat,true,0483_fc_dnn_true_cat_35_n02125311_53315.png,n02125311_53315.png,0.0,-2.095934,-1.7569212,-0.23971821
alexnet_w1_mlp_simclrhn_probe0,1,484,NaN,cat,dog,true,0484_fc_dnn_true_dog_35_n02087046_4409.png,n02087046_4409.png,0.0,-8.859745,-7.0354896,-1.2899435
alexnet_w1_mlp_simclrhn_probe0,1,485,NaN,oven,oven,false,0485_fc_dnn_false_oven_35_n04111531_21120.png,n04111531_21120.png,1.0,3.5610294,-3.0488577,4.6738963
alexnet_w1_mlp_simclrhn_probe0,1,486,NaN,elephant,elephant,false,0486_fc_dnn_false_elephant_35_n02504013_5934.png,n02504013_5934.png,1.0,-1.3943702,-3.2732873,1.328595
alexnet_w1_mlp_simclrhn_probe0,1,487,NaN,car,car,true,0487_fc_dnn_true_car_35_n04285008_3631.png,n04285008_3631.png,1.0,2.0316966,-0.7252964,1.9494884
alexnet_w1_mlp_simclrhn_probe0,1,488,NaN,clock,clock,true,0488_fc_dnn_true_clock_35_n03196217_7663.png,n03196217_7663.png,1.0,1.472154,-0.7348923,1.5606174
alexnet_w1_mlp_simclrhn_probe0,1,489,NaN,bear,bicycle,false,0489_fc_dnn_false_bicycle_35_n03792782_801.png,n03792782_801.png,0.0,-1.9114319,-0.62942225,-0.9065177
alexnet_w1_mlp_simclrhn_probe0,1,490,NaN,elephant,bear,false,0490_fc_dnn_false_bear_35_n02133161_6983.png,n02133161_6983.png,0.0,-2.3590875,-1.344849,-0.7171749
alexnet_w1_mlp_simclrhn_probe0,1,491,NaN,keyboard,keyboard,true,0491_fc_dnn_true_keyboard_35_n03085013_20825.png,n03085013_20825.png,1.0,8.642614,0.1190362,6.0270805
alexnet_w1_mlp_simclrhn_probe0,1,492,NaN,clock,clock,true,0492_fc_dnn_true_clock_35_n03196217_1219.png,n03196217_1219.png,1.0,-2.394076,-3.4343603,0.735592
alexnet_w1_mlp_simclrhn_probe0,1,493,NaN,airplane,airplane,true,0493_fc_dnn_true_airplane_35_n02690373_18864.png,n02690373_18864.png,1.0,3.7052171,1.3715231,1.6501709
alexnet_w1_mlp_simclrhn_probe0,1,494,NaN,keyboard,airplane,false,0494_fc_dnn_false_airplane_35_n02690373_1019.png,n02690373_1019.png,0.0,-0.2769375,0.097034216,-0.26443794
alexnet_w1_mlp_simclrhn_probe0,1,495,NaN,bird,bird,true,0495_fc_dnn_true_bird_35_n02013706_10478.png,n02013706_10478.png,1.0,-6.2335024,-9.809792,2.5288184
alexnet_w1_mlp_simclrhn_probe0,1,496,NaN,cat,bear,true,0496_fc_dnn_true_bear_35_n02132136_258.png,n02132136_258.png,0.0,-2.901951,-1.9208568,-0.6937384
alexnet_w1_mlp_simclrhn_probe0,1,497,NaN,bird,chair,false,0497_fc_dnn_false_chair_35_n04099969_16350.png,n04099969_16350.png,0.0,-13.075716,-8.254512,-3.4091063
alexnet_w1_mlp_simclrhn_probe0,1,498,NaN,chair,chair,true,0498_fc_dnn_true_chair_35_n04099969_16456.png,n04099969_16456.png,1.0,0.36678517,-1.7382939,1.4885157
alexnet_w1_mlp_simclrhn_probe0,1,499,NaN,bottle,bottle,false,0499_fc_dnn_false_bottle_35_n03983396_12027.png,n03983396_12027.png,1.0,-1.0515908,-5.6321416,3.2389386
alexnet_w1_mlp_simclrhn_probe0,1,500,NaN,chair,chair,true,0500_fc_dnn_true_chair_35_n02791124_5438.png,n02791124_5438.png,1.0,1.2355516,-1.8096254,2.1532652
alexnet_w1_mlp_simclrhn_probe0,1,501,NaN,elephant,elephant,true,0501_fc_dnn_true_elephant_35_n02504458_4939.png,n02504458_4939.png,1.0,4.153354,-2.2640579,4.5377955
alexnet_w1_mlp_simclrhn_probe0,1,502,NaN,keyboard,keyboard,false,0502_fc_dnn_false_keyboard_35_n04505470_2600.png,n04505470_2600.png,1.0,3.7775009,-4.3306403,5.7333217
alexnet_w1_mlp_simclrhn_probe0,1,503,NaN,chair,chair,true,0503_fc_dnn_true_chair_35_n03376595_7394.png,n03376595_7394.png,1.0,-2.8526092,-3.3853772,0.3767239
alexnet_w1_mlp_simclrhn_probe0,1,504,NaN,bicycle,bicycle,false,0504_fc_dnn_false_bicycle_35_n02835271_9772.png,n02835271_9772.png,1.0,-5.4693956,-8.637008,2.23984
alexnet_w1_mlp_simclrhn_probe0,1,505,NaN,car,car,true,0505_fc_dnn_true_car_35_n02814533_55937.png,n02814533_55937.png,1.0,3.6982698,-0.24049509,2.7851276
alexnet_w1_mlp_simclrhn_probe0,1,506,NaN,airplane,airplane,true,0506_fc_dnn_true_airplane_35_n02690373_3920.png,n02690373_3920.png,1.0,2.5692356,1.7936604,0.54841447
alexnet_w1_mlp_simclrhn_probe0,1,507,NaN,oven,oven,false,0507_fc_dnn_false_oven_35_n04111531_6400.png,n04111531_6400.png,1.0,-1.91121,-6.577504,3.2995682
alexnet_w1_mlp_simclrhn_probe0,1,508,NaN,bicycle,truck,false,0508_fc_dnn_false_truck_35_n03417042_4587.png,n03417042_4587.png,0.0,-6.779803,-0.93690044,-4.131556
alexnet_w1_mlp_simclrhn_probe0,1,509,NaN,bicycle,knife,true,0509_fc_dnn_true_knife_35_n03041632_31849.png,n03041632_31849.png,0.0,-6.597991,-2.7203336,-2.7419178
alexnet_w1_mlp_simclrhn_probe0,1,510,NaN,dog,cat,true,0510_fc_dnn_true_cat_35_n02125311_8541.png,n02125311_8541.png,0.0,-5.4347625,-4.541852,-0.63138306
alexnet_w1_mlp_simclrhn_probe0,1,511,NaN,airplane,airplane,true,0511_fc_dnn_true_airplane_35_n02690373_2162.png,n02690373_2162.png,1.0,9.650914,2.1605308,5.2965007
alexnet_w1_mlp_simclrhn_probe0,1,512,NaN,bear,dog,true,0512_fc_dnn_true_dog_35_n02108551_11297.png,n02108551_11297.png,0.0,-1.4896936,-0.5458949,-0.6673665
alexnet_w1_mlp_simclrhn_probe0,1,513,NaN,car,car,true,0513_fc_dnn_true_car_35_n02814533_34396.png,n02814533_34396.png,1.0,12.301953,7.8806906,3.1263049
alexnet_w1_mlp_simclrhn_probe0,1,514,NaN,elephant,elephant,true,0514_fc_dnn_true_elephant_35_n02504013_6431.png,n02504013_6431.png,1.0,0.15675253,-3.3105397,2.451746
alexnet_w1_mlp_simclrhn_probe0,1,515,NaN,bicycle,bicycle,false,0515_fc_dnn_false_bicycle_35_n03792782_51723.png,n03792782_51723.png,1.0,-2.8612113,-6.875917,2.8388257
alexnet_w1_mlp_simclrhn_probe0,1,516,NaN,dog,dog,false,0516_fc_dnn_false_dog_35_n02093754_5867.png,n02093754_5867.png,1.0,-0.8076773,-2.0771103,0.89762473
alexnet_w1_mlp_simclrhn_probe0,1,517,NaN,clock,clock,true,0517_fc_dnn_true_clock_35_n04548280_3245.png,n04548280_3245.png,1.0,-4.612005,-4.920315,0.21800779
alexnet_w1_mlp_simclrhn_probe0,1,518,NaN,airplane,airplane,true,0518_fc_dnn_true_airplane_35_n02690373_9762.png,n02690373_9762.png,1.0,6.369892,-0.03938,4.53204
alexnet_w1_mlp_simclrhn_probe0,1,519,NaN,airplane,bird,true,0519_fc_dnn_true_bird_35_n02002724_2909.png,n02002724_2909.png,0.0,-0.3960846,2.5692997,-2.0968432
alexnet_w1_mlp_simclrhn_probe0,1,520,NaN,dog,bottle,true,0520_fc_dnn_true_bottle_35_n04557648_10123.png,n04557648_10123.png,0.0,-9.726829,-7.255853,-1.7472435
alexnet_w1_mlp_simclrhn_probe0,1,521,NaN,elephant,elephant,true,0521_fc_dnn_true_elephant_35_n02504013_5432.png,n02504013_5432.png,1.0,1.6369364,-1.7512499,2.3958097
alexnet_w1_mlp_simclrhn_probe0,1,522,NaN,cat,cat,false,0522_fc_dnn_false_cat_35_n02123597_4998.png,n02123597_4998.png,1.0,-3.6104887,-6.0470614,1.7229172
alexnet_w1_mlp_simclrhn_probe0,1,523,NaN,bottle,bottle,true,0523_fc_dnn_true_bottle_35_n04557648_11594.png,n04557648_11594.png,1.0,-1.2168224,-2.415522,0.8476087
alexnet_w1_mlp_simclrhn_probe0,1,524,NaN,clock,clock,false,0524_fc_dnn_false_clock_35_n03196217_2567.png,n03196217_2567.png,1.0,-4.0562778,-4.2545185,0.14017738
alexnet_w1_mlp_simclrhn_probe0,1,525,NaN,knife,truck,false,0525_fc_dnn_false_truck_35_n03796401_9136.png,n03796401_9136.png,0.0,-8.602461,-4.3019753,-3.0409026
alexnet_w1_mlp_simclrhn_probe0,1,526,NaN,boat,boat,false,0526_fc_dnn_false_boat_35_n03344393_8492.png,n03344393_8492.png,1.0,5.6843863,-2.8655732,6.0457344
alexnet_w1_mlp_simclrhn_probe0,1,527,NaN,cat,cat,false,0527_fc_dnn_false_cat_35_n02123159_8267.png,n02123159_8267.png,1.0,-5.6559405,-7.2861185,1.15271
alexnet_w1_mlp_simclrhn_probe0,1,528,NaN,knife,bottle,false,0528_fc_dnn_false_bottle_35_n04557648_12039.png,n04557648_12039.png,0.0,-7.38905,-4.699267,-1.901964
alexnet_w1_mlp_simclrhn_probe0,1,529,NaN,keyboard,keyboard,false,0529_fc_dnn_false_keyboard_35_n04505470_2828.png,n04505470_2828.png,1.0,9.41613,-1.2217966,7.5221505
alexnet_w1_mlp_simclrhn_probe0,1,530,NaN,boat,boat,true,0530_fc_dnn_true_boat_35_n02951358_31198.png,n02951358_31198.png,1.0,-3.145252,-3.1570706,0.008357046
alexnet_w1_mlp_simclrhn_probe0,1,531,NaN,oven,oven,false,0531_fc_dnn_false_oven_35_n04111531_5801.png,n04111531_5801.png,1.0,-4.8653374,-6.3998303,1.0850503
alexnet_w1_mlp_simclrhn_probe0,1,532,NaN,bicycle,bicycle,false,0532_fc_dnn_false_bicycle_35_n02835271_9672.png,n02835271_9672.png,1.0,2.8039703,-9.421324,8.644588
alexnet_w1_mlp_simclrhn_probe0,1,533,NaN,keyboard,keyboard,false,0533_fc_dnn_false_keyboard_35_n03085013_23865.png,n03085013_23865.png,1.0,-1.6910131,-2.1324182,0.31212053
alexnet_w1_mlp_simclrhn_probe0,1,534,NaN,keyboard,bottle,true,0534_fc_dnn_true_bottle_35_n04591713_7133.png,n04591713_7133.png,0.0,-2.5083864,3.2332337,-4.0599384
alexnet_w1_mlp_simclrhn_probe0,1,535,NaN,car,car,true,0535_fc_dnn_true_car_35_n04285008_10006.png,n04285008_10006.png,1.0,9.318465,2.8795707,4.5529857
alexnet_w1_mlp_simclrhn_probe0,1,536,NaN,airplane,airplane,true,0536_fc_dnn_true_airplane_35_n02690373_2431.png,n02690373_2431.png,1.0,1.2657729,-0.41328296,1.1872718
alexnet_w1_mlp_simclrhn_probe0,1,537,NaN,boat,boat,true,0537_fc_dnn_true_boat_35_n04612504_15440.png,n04612504_15440.png,1.0,-0.94233286,-2.1103864,0.8259386
alexnet_w1_mlp_simclrhn_probe0,1,538,NaN,bicycle,bicycle,true,0538_fc_dnn_true_bicycle_35_n02835271_5648.png,n02835271_5648.png,1.0,-0.58280724,-6.6606865,4.29771
alexnet_w1_mlp_simclrhn_probe0,1,539,NaN,airplane,airplane,false,0539_fc_dnn_false_airplane_35_n02690373_3173.png,n02690373_3173.png,1.0,8.152281,-0.5956491,6.1857204
alexnet_w1_mlp_simclrhn_probe0,1,540,NaN,oven,oven,false,0540_fc_dnn_false_oven_35_n04111531_82.png,n04111531_82.png,1.0,1.5572261,-5.841609,5.2317667
alexnet_w1_mlp_simclrhn_probe0,1,541,NaN,bicycle,chair,false,0541_fc_dnn_false_chair_35_n02791124_2057.png,n02791124_2057.png,0.0,-7.396511,-6.4621835,-0.6606694
alexnet_w1_mlp_simclrhn_probe0,1,542,NaN,elephant,elephant,true,0542_fc_dnn_true_elephant_35_n02504458_12175.png,n02504458_12175.png,1.0,-2.932479,-6.559247,2.5645123
alexnet_w1_mlp_simclrhn_probe0,1,543,NaN,boat,boat,false,0543_fc_dnn_false_boat_35_n03344393_6869.png,n03344393_6869.png,1.0,-1.4431199,-2.8770313,1.0139285
alexnet_w1_mlp_simclrhn_probe0,1,544,NaN,truck,truck,false,0544_fc_dnn_false_truck_35_n03417042_1000.png,n03417042_1000.png,1.0,-1.470818,-3.4483054,1.3982947
alexnet_w1_mlp_simclrhn_probe0,1,545,NaN,airplane,boat,true,0545_fc_dnn_true_boat_35_n03344393_6890.png,n03344393_6890.png,0.0,-1.1952404,-0.78329486,-0.29128948
alexnet_w1_mlp_simclrhn_probe0,1,546,NaN,elephant,elephant,false,0546_fc_dnn_false_elephant_35_n02504458_4139.png,n02504458_4139.png,1.0,-1.6849755,-6.028549,3.0713704
alexnet_w1_mlp_simclrhn_probe0,1,547,NaN,bear,bear,false,0547_fc_dnn_false_bear_35_n02132136_7231.png,n02132136_7231.png,1.0,5.868933,1.3578995,3.1897824
alexnet_w1_mlp_simclrhn_probe0,1,548,NaN,elephant,bird,false,0548_fc_dnn_false_bird_35_n01860187_1815.png,n01860187_1815.png,0.0,-6.8124003,-1.2489777,-3.933934
alexnet_w1_mlp_simclrhn_probe0,1,549,NaN,knife,keyboard,true,0549_fc_dnn_true_keyboard_35_n03085013_18891.png,n03085013_18891.png,0.0,-2.9605718,-2.6243248,-0.23776251
alexnet_w1_mlp_simclrhn_probe0,1,550,NaN,bird,bird,false,0550_fc_dnn_false_bird_35_n01828970_2276.png,n01828970_2276.png,1.0,-3.6875384,-7.648727,2.8009834
alexnet_w1_mlp_simclrhn_probe0,1,551,NaN,elephant,elephant,false,0551_fc_dnn_false_elephant_35_n02504013_1720.png,n02504013_1720.png,1.0,4.8261337,-2.5751293,5.2334833
alexnet_w1_mlp_simclrhn_probe0,1,552,NaN,knife,knife,false,0552_fc_dnn_false_knife_35_n03041632_16104.png,n03041632_16104.png,1.0,-1.7173557,-5.440831,2.6328948
alexnet_w1_mlp_simclrhn_probe0,1,553,NaN,chair,chair,false,0553_fc_dnn_false_chair_35_n03376595_635.png,n03376595_635.png,1.0,-3.3613062,-3.640654,0.1975288
alexnet_w1_mlp_simclrhn_probe0,1,554,NaN,bottle,bottle,true,0554_fc_dnn_true_bottle_35_n03983396_6116.png,n03983396_6116.png,1.0,-2.1647415,-5.9682436,2.6894822
alexnet_w1_mlp_simclrhn_probe0,1,555,NaN,bear,dog,true,0555_fc_dnn_true_dog_35_n02113624_2530.png,n02113624_2530.png,0.0,-1.4775171,-1.2649672,-0.1502955
alexnet_w1_mlp_simclrhn_probe0,1,556,NaN,bird,bird,true,0556_fc_dnn_true_bird_35_n01592084_3972.png,n01592084_3972.png,1.0,-5.316952,-5.5679092,0.17745341
alexnet_w1_mlp_simclrhn_probe0,1,557,NaN,airplane,airplane,true,0557_fc_dnn_true_airplane_35_n02690373_5130.png,n02690373_5130.png,1.0,-0.3792399,-2.6679082,1.618333
alexnet_w1_mlp_simclrhn_probe0,1,558,NaN,airplane,bird,true,0558_fc_dnn_true_bird_35_n01833805_7514.png,n01833805_7514.png,0.0,-2.0044467,0.0217477,-1.4327358
alexnet_w1_mlp_simclrhn_probe0,1,559,NaN,truck,truck,false,0559_fc_dnn_false_truck_35_n03417042_16238.png,n03417042_16238.png,1.0,-0.18436413,-1.1702576,0.69713193
alexnet_w1_mlp_simclrhn_probe0,1,560,NaN,keyboard,keyboard,true,0560_fc_dnn_true_keyboard_35_n04505470_8620.png,n04505470_8620.png,1.0,4.5982127,4.259969,0.23917426
alexnet_w1_mlp_simclrhn_probe0,1,561,NaN,keyboard,clock,true,0561_fc_dnn_true_clock_35_n03196217_7888.png,n03196217_7888.png,0.0,1.6546406,1.6667616,-0.008570899
alexnet_w1_mlp_simclrhn_probe0,1,562,NaN,elephant,bottle,true,0562_fc_dnn_true_bottle_35_n04591713_5411.png,n04591713_5411.png,0.0,-7.798861,-5.183045,-1.8496614
alexnet_w1_mlp_simclrhn_probe0,1,563,NaN,clock,clock,false,0563_fc_dnn_false_clock_35_n03196217_2639.png,n03196217_2639.png,1.0,1.5473462,0.09117198,1.0296707
alexnet_w1_mlp_simclrhn_probe0,1,564,NaN,elephant,elephant,true,0564_fc_dnn_true_elephant_35_n02504458_6437.png,n02504458_6437.png,1.0,-0.94968283,-2.721921,1.2531617
alexnet_w1_mlp_simclrhn_probe0,1,565,NaN,truck,truck,true,0565_fc_dnn_true_truck_35_n03417042_27586.png,n03417042_27586.png,1.0,3.1536102,-1.9248155,3.5909894
alexnet_w1_mlp_simclrhn_probe0,1,566,NaN,chair,keyboard,false,0566_fc_dnn_false_keyboard_35_n03085013_24124.png,n03085013_24124.png,0.0,-9.536554,-4.100168,-3.8441055
alexnet_w1_mlp_simclrhn_probe0,1,567,NaN,chair,cat,false,0567_fc_dnn_false_cat_35_n02123597_9663.png,n02123597_9663.png,0.0,-9.637158,-4.6125307,-3.5529485
alexnet_w1_mlp_simclrhn_probe0,1,568,NaN,keyboard,keyboard,true,0568_fc_dnn_true_keyboard_35_n04505470_1833.png,n04505470_1833.png,1.0,-2.80406,-3.608611,0.56890357
alexnet_w1_mlp_simclrhn_probe0,1,569,NaN,car,car,true,0569_fc_dnn_true_car_35_n04285008_4109.png,n04285008_4109.png,1.0,7.2889934,2.6203916,3.3012002
alexnet_w1_mlp_simclrhn_probe0,1,570,NaN,bicycle,bird,false,0570_fc_dnn_false_bird_35_n01558993_869.png,n01558993_869.png,0.0,-5.815741,-4.6440816,-0.82848835
alexnet_w1_mlp_simclrhn_probe0,1,571,NaN,car,truck,true,0571_fc_dnn_true_truck_35_n03796401_6980.png,n03796401_6980.png,0.0,1.0216353,1.1268731,-0.074414395
alexnet_w1_mlp_simclrhn_probe0,1,572,NaN,truck,truck,true,0572_fc_dnn_true_truck_35_n03796401_19058.png,n03796401_19058.png,1.0,3.5801392,-1.7957226,3.8013084
alexnet_w1_mlp_simclrhn_probe0,1,573,NaN,elephant,bear,false,0573_fc_dnn_false_bear_35_n02134418_5033.png,n02134418_5033.png,0.0,-4.656041,-3.073007,-1.1193742
alexnet_w1_mlp_simclrhn_probe0,1,574,NaN,truck,truck,false,0574_fc_dnn_false_truck_35_n03417042_6204.png,n03417042_6204.png,1.0,-2.4344482,-6.371128,2.783653
alexnet_w1_mlp_simclrhn_probe0,1,575,NaN,bicycle,bicycle,true,0575_fc_dnn_true_bicycle_35_n03792782_7388.png,n03792782_7388.png,1.0,-4.1734247,-6.14833,1.3964691
alexnet_w1_mlp_simclrhn_probe0,1,576,NaN,truck,truck,true,0576_fc_dnn_true_truck_35_n03417042_1561.png,n03417042_1561.png,1.0,4.7161574,1.8159193,2.050778
alexnet_w1_mlp_simclrhn_probe0,1,577,NaN,elephant,elephant,true,0577_fc_dnn_true_elephant_35_n02504458_5501.png,n02504458_5501.png,1.0,9.6488,-1.774615,8.077575
alexnet_w1_mlp_simclrhn_probe0,1,578,NaN,boat,boat,true,0578_fc_dnn_true_boat_35_n03662601_34124.png,n03662601_34124.png,1.0,-1.6829822,-1.7036815,0.014636589
alexnet_w1_mlp_simclrhn_probe0,1,579,NaN,knife,knife,false,0579_fc_dnn_false_knife_35_n03041632_37949.png,n03041632_37949.png,1.0,-6.4226246,-8.814267,1.6911467
alexnet_w1_mlp_simclrhn_probe0,1,580,NaN,airplane,airplane,false,0580_fc_dnn_false_airplane_35_n02690373_13585.png,n02690373_13585.png,1.0,7.0632806,-3.5316525,7.491749
alexnet_w1_mlp_simclrhn_probe0,1,581,NaN,elephant,knife,false,0581_fc_dnn_false_knife_35_n03041632_16932.png,n03041632_16932.png,0.0,-7.694054,-5.358178,-1.6517137
alexnet_w1_mlp_simclrhn_probe0,1,582,NaN,elephant,chair,false,0582_fc_dnn_false_chair_35_n04429376_9501.png,n04429376_9501.png,0.0,-7.5364847,-5.4167805,-1.4988573
alexnet_w1_mlp_simclrhn_probe0,1,583,NaN,bird,bird,false,0583_fc_dnn_false_bird_35_n01532829_10530.png,n01532829_10530.png,1.0,-1.9978557,-6.996057,3.5342622
alexnet_w1_mlp_simclrhn_probe0,1,584,NaN,oven,oven,false,0584_fc_dnn_false_oven_35_n04111531_1562.png,n04111531_1562.png,1.0,-3.464337,-6.4281106,2.0957043
alexnet_w1_mlp_simclrhn_probe0,1,585,NaN,keyboard,clock,false,0585_fc_dnn_false_clock_35_n02708093_260.png,n02708093_260.png,0.0,-2.7872727,1.4449084,-2.992604
alexnet_w1_mlp_simclrhn_probe0,1,586,NaN,bottle,bottle,true,0586_fc_dnn_true_bottle_35_n04579145_1457.png,n04579145_1457.png,1.0,-1.0334371,-3.8175933,1.9686959
alexnet_w1_mlp_simclrhn_probe0,1,587,NaN,bicycle,chair,true,0587_fc_dnn_true_chair_35_n03376595_9897.png,n03376595_9897.png,0.0,-2.9942622,-2.2536187,-0.52371407
alexnet_w1_mlp_simclrhn_probe0,1,588,NaN,elephant,bird,true,0588_fc_dnn_true_bird_35_n01601694_4224.png,n01601694_4224.png,0.0,-2.3942373,-1.6558836,-0.52209496
alexnet_w1_mlp_simclrhn_probe0,1,589,NaN,cat,cat,false,0589_fc_dnn_false_cat_35_n02123159_358.png,n02123159_358.png,1.0,-1.357262,-8.916478,5.345173
alexnet_w1_mlp_simclrhn_probe0,1,590,NaN,bottle,bottle,true,0590_fc_dnn_true_bottle_35_n03983396_11788.png,n03983396_11788.png,1.0,0.9274715,-2.9183047,2.7193744
alexnet_w1_mlp_simclrhn_probe0,1,591,NaN,cat,cat,true,0591_fc_dnn_true_cat_35_n02124075_8341.png,n02124075_8341.png,1.0,-3.9601195,-7.529031,2.5236015
alexnet_w1_mlp_simclrhn_probe0,1,592,NaN,elephant,dog,false,0592_fc_dnn_false_dog_35_n02109525_49924.png,n02109525_49924.png,0.0,-0.25863677,0.23614559,-0.34986398
alexnet_w1_mlp_simclrhn_probe0,1,593,NaN,oven,oven,false,0593_fc_dnn_false_oven_35_n04111531_797.png,n04111531_797.png,1.0,-1.8719597,-2.243308,0.26258296
alexnet_w1_mlp_simclrhn_probe0,1,594,NaN,bicycle,bicycle,true,0594_fc_dnn_true_bicycle_35_n02835271_15930.png,n02835271_15930.png,1.0,1.351158,-6.1053524,5.272549
alexnet_w1_mlp_simclrhn_probe0,1,595,NaN,knife,knife,true,0595_fc_dnn_true_knife_35_n03041632_13656.png,n03041632_13656.png,1.0,0.36108363,-4.5350556,3.4620934
alexnet_w1_mlp_simclrhn_probe0,1,596,NaN,knife,clock,false,0596_fc_dnn_false_clock_35_n02708093_8104.png,n02708093_8104.png,0.0,-5.9206657,-3.6430664,-1.6105059
alexnet_w1_mlp_simclrhn_probe0,1,597,NaN,bicycle,truck,true,0597_fc_dnn_true_truck_35_n03796401_3148.png,n03796401_3148.png,0.0,-7.0362144,-2.4218225,-3.2628677
alexnet_w1_mlp_simclrhn_probe0,1,598,NaN,bicycle,bottle,false,0598_fc_dnn_false_bottle_35_n04560804_15263.png,n04560804_15263.png,0.0,-12.268756,-6.916128,-3.7848794
alexnet_w1_mlp_simclrhn_probe0,1,599,NaN,airplane,airplane,true,0599_fc_dnn_true_airplane_35_n02690373_5003.png,n02690373_5003.png,1.0,1.466899,-1.0067608,1.7491418
alexnet_w1_mlp_simclrhn_probe0,1,600,NaN,airplane,boat,false,0600_fc_dnn_false_boat_35_n03344393_994.png,n03344393_994.png,0.0,-2.0364366,-1.965317,-0.050289113
alexnet_w1_mlp_simclrhn_probe0,1,601,NaN,bicycle,bicycle,true,0601_fc_dnn_true_bicycle_35_n03792782_5959.png,n03792782_5959.png,1.0,1.3735355,-6.250518,5.39102
alexnet_w1_mlp_simclrhn_probe0,1,602,NaN,car,car,false,0602_fc_dnn_false_car_35_n04285008_9383.png,n04285008_9383.png,1.0,2.0988302,-3.2176652,3.75933
alexnet_w1_mlp_simclrhn_probe0,1,603,NaN,chair,clock,true,0603_fc_dnn_true_clock_35_n03196217_5627.png,n03196217_5627.png,0.0,-1.4504452,-1.0414268,-0.28921968
alexnet_w1_mlp_simclrhn_probe0,1,604,NaN,bird,bird,true,0604_fc_dnn_true_bird_35_n01534433_13846.png,n01534433_13846.png,1.0,-7.238361,-7.2769275,0.027270697
alexnet_w1_mlp_simclrhn_probe0,1,605,NaN,dog,dog,true,0605_fc_dnn_true_dog_35_n02105056_11269.png,n02105056_11269.png,1.0,-4.524979,-5.69007,0.8238438
alexnet_w1_mlp_simclrhn_probe0,1,606,NaN,airplane,airplane,false,0606_fc_dnn_false_airplane_35_n02690373_9659.png,n02690373_9659.png,1.0,-0.64305127,-1.0730976,0.30408868
alexnet_w1_mlp_simclrhn_probe0,1,607,NaN,chair,car,false,0607_fc_dnn_false_car_35_n04285008_3269.png,n04285008_3269.png,0.0,-10.7759695,-0.79169,-7.059952
alexnet_w1_mlp_simclrhn_probe0,1,608,NaN,bottle,bottle,true,0608_fc_dnn_true_bottle_35_n02823428_3178.png,n02823428_3178.png,1.0,-3.6277292,-6.352025,1.9263681
alexnet_w1_mlp_simclrhn_probe0,1,609,NaN,elephant,elephant,false,0609_fc_dnn_false_elephant_35_n02504458_4849.png,n02504458_4849.png,1.0,0.5652701,-3.0812275,2.5784633
alexnet_w1_mlp_simclrhn_probe0,1,610,NaN,bear,bear,true,0610_fc_dnn_true_bear_35_n02134418_643.png,n02134418_643.png,1.0,-2.101001,-3.8354006,1.2264057
alexnet_w1_mlp_simclrhn_probe0,1,611,NaN,boat,boat,true,0611_fc_dnn_true_boat_35_n03344393_7773.png,n03344393_7773.png,1.0,-0.5994398,-4.3899984,2.6803298
alexnet_w1_mlp_simclrhn_probe0,1,612,NaN,car,car,true,0612_fc_dnn_true_car_35_n02814533_26516.png,n02814533_26516.png,1.0,10.007846,4.698556,3.754235
alexnet_w1_mlp_simclrhn_probe0,1,613,NaN,bicycle,cat,false,0613_fc_dnn_false_cat_35_n02123597_3314.png,n02123597_3314.png,0.0,-7.711151,-4.02199,-2.6086311
alexnet_w1_mlp_simclrhn_probe0,1,614,NaN,bicycle,bicycle,true,0614_fc_dnn_true_bicycle_35_n02835271_6539.png,n02835271_6539.png,1.0,0.8804287,-8.674736,6.7565217
alexnet_w1_mlp_simclrhn_probe0,1,615,NaN,bear,bear,true,0615_fc_dnn_true_bear_35_n02132136_3090.png,n02132136_3090.png,1.0,3.9743397,-1.3205504,3.744053
alexnet_w1_mlp_simclrhn_probe0,1,616,NaN,car,car,true,0616_fc_dnn_true_car_35_n03100240_9171.png,n03100240_9171.png,1.0,7.099499,2.8336215,3.016431
alexnet_w1_mlp_simclrhn_probe0,1,617,NaN,cat,cat,false,0617_fc_dnn_false_cat_35_n02123045_12060.png,n02123045_12060.png,1.0,-5.078687,-7.3973784,1.6395624
alexnet_w1_mlp_simclrhn_probe0,1,618,NaN,truck,truck,false,0618_fc_dnn_false_truck_35_n03796401_26801.png,n03796401_26801.png,1.0,-2.3254352,-3.1992307,0.61786675
alexnet_w1_mlp_simclrhn_probe0,1,619,NaN,cat,cat,false,0619_fc_dnn_false_cat_35_n02123045_15010.png,n02123045_15010.png,1.0,-5.135301,-9.282868,2.9327729
alexnet_w1_mlp_simclrhn_probe0,1,620,NaN,keyboard,knife,true,0620_fc_dnn_true_knife_35_n03041632_24883.png,n03041632_24883.png,0.0,-7.682229,-2.20088,-3.875899
alexnet_w1_mlp_simclrhn_probe0,1,621,NaN,cat,cat,true,0621_fc_dnn_true_cat_35_n02123597_4040.png,n02123597_4040.png,1.0,-4.98045,-5.2793064,0.21132329
alexnet_w1_mlp_simclrhn_probe0,1,622,NaN,bird,bird,true,0622_fc_dnn_true_bird_35_n01843383_3019.png,n01843383_3019.png,1.0,-7.3738785,-7.518792,0.102469444
alexnet_w1_mlp_simclrhn_probe0,1,623,NaN,bear,bear,true,0623_fc_dnn_true_bear_35_n02132136_8619.png,n02132136_8619.png,1.0,1.6959602,0.4960184,0.84848696
