subj,session,trial,rt,object_response,category,condition,imagename,filename,is_correct,targ_act,max_nontarg_act,decision_margin
alexnet2023_baseline_pgd,1,1,NaN,knife,knife,true,0001_fc_dnn_true_knife_35_n03041632_86251.png,n03041632_86251.png,1.0,20.009232,2.6442783,12.278877
alexnet2023_baseline_pgd,1,2,NaN,car,car,false,0002_fc_dnn_false_car_35_n03100240_16866.png,n03100240_16866.png,1.0,18.48452,10.2522545,5.8210907
alexnet2023_baseline_pgd,1,3,NaN,knife,keyboard,false,0003_fc_dnn_false_keyboard_35_n03085013_21127.png,n03085013_21127.png,0.0,4.4970846,7.457488,-2.0933213
alexnet2023_baseline_pgd,1,4,NaN,truck,truck,true,0004_fc_dnn_true_truck_35_n03417042_10694.png,n03417042_10694.png,1.0,13.423445,6.1924424,5.113091
alexnet2023_baseline_pgd,1,5,NaN,bird,bird,true,0005_fc_dnn_true_bird_35_n01614925_1962.png,n01614925_1962.png,1.0,8.490177,6.3276205,1.5291585
alexnet2023_baseline_pgd,1,6,NaN,chair,knife,false,0006_fc_dnn_false_knife_35_n03041632_99875.png,n03041632_99875.png,0.0,3.3087945,3.616944,-0.21789466
alexnet2023_baseline_pgd,1,7,NaN,bicycle,bicycle,true,0007_fc_dnn_true_bicycle_35_n03792782_14935.png,n03792782_14935.png,1.0,10.867077,4.6732593,4.3796906
alexnet2023_baseline_pgd,1,8,NaN,elephant,elephant,false,0008_fc_dnn_false_elephant_35_n02504013_5027.png,n02504013_5027.png,1.0,9.796146,6.0904775,2.6203036
alexnet2023_baseline_pgd,1,9,NaN,knife,dog,false,0009_fc_dnn_false_dog_35_n02090721_129.png,n02090721_129.png,0.0,-0.6857542,2.9678729,-2.5835044
alexnet2023_baseline_pgd,1,10,NaN,airplane,airplane,true,0010_fc_dnn_true_airplane_35_n02690373_9241.png,n02690373_9241.png,1.0,24.491232,8.132298,11.5675125
alexnet2023_baseline_pgd,1,11,NaN,truck,truck,true,0011_fc_dnn_true_truck_35_n04467665_62080.png,n04467665_62080.png,1.0,14.684092,10.620896,2.873113
alexnet2023_baseline_pgd,1,12,NaN,keyboard,keyboard,true,0012_fc_dnn_true_keyboard_35_n04505470_2669.png,n04505470_2669.png,1.0,7.734873,4.3060565,2.4245393
alexnet2023_baseline_pgd,1,13,NaN,oven,oven,false,0013_fc_dnn_false_oven_35_n04111531_688.png,n04111531_688.png,1.0,6.795113,5.343522,1.0264299
alexnet2023_baseline_pgd,1,14,NaN,car,car,true,0014_fc_dnn_true_car_35_n03100240_21982.png,n03100240_21982.png,1.0,22.115753,11.465912,7.5305753
alexnet2023_baseline_pgd,1,15,NaN,bicycle,bicycle,true,0015_fc_dnn_true_bicycle_35_n02835271_4191.png,n02835271_4191.png,1.0,15.620629,2.401937,9.347028
alexnet2023_baseline_pgd,1,16,NaN,car,car,true,0016_fc_dnn_true_car_35_n02814533_25278.png,n02814533_25278.png,1.0,18.516037,10.692413,5.5321374
alexnet2023_baseline_pgd,1,17,NaN,knife,knife,false,0017_fc_dnn_false_knife_35_n03041632_23087.png,n03041632_23087.png,1.0,6.9522123,3.1609128,2.6808536
alexnet2023_baseline_pgd,1,18,NaN,clock,clock,true,0018_fc_dnn_true_clock_35_n03196217_11252.png,n03196217_11252.png,1.0,6.735618,6.2696333,0.32950103
alexnet2023_baseline_pgd,1,19,NaN,boat,boat,false,0019_fc_dnn_false_boat_35_n04273569_2040.png,n04273569_2040.png,1.0,11.381369,11.154148,0.16066918
alexnet2023_baseline_pgd,1,20,NaN,knife,knife,true,0020_fc_dnn_true_knife_35_n03041632_84869.png,n03041632_84869.png,1.0,17.094887,4.115664,9.177697
alexnet2023_baseline_pgd,1,21,NaN,clock,clock,true,0021_fc_dnn_true_clock_35_n04548280_503.png,n04548280_503.png,1.0,11.866359,4.2005754,5.4205275
alexnet2023_baseline_pgd,1,22,NaN,truck,truck,false,0022_fc_dnn_false_truck_35_n03417042_10654.png,n03417042_10654.png,1.0,9.085024,5.884264,2.263279
alexnet2023_baseline_pgd,1,23,NaN,boat,boat,true,0023_fc_dnn_true_boat_35_n03344393_2919.png,n03344393_2919.png,1.0,11.629065,9.184574,1.7285157
alexnet2023_baseline_pgd,1,24,NaN,chair,chair,false,0024_fc_dnn_false_chair_35_n04099969_7718.png,n04099969_7718.png,1.0,9.811665,3.3023663,4.602769
alexnet2023_baseline_pgd,1,25,NaN,oven,oven,true,0025_fc_dnn_true_oven_35_n04111531_3477.png,n04111531_3477.png,1.0,12.727865,1.4147727,7.999564
alexnet2023_baseline_pgd,1,26,NaN,dog,dog,false,0026_fc_dnn_false_dog_35_n02113712_913.png,n02113712_913.png,1.0,6.570704,3.640481,2.0719805
alexnet2023_baseline_pgd,1,27,NaN,chair,chair,false,0027_fc_dnn_false_chair_35_n02791124_13701.png,n02791124_13701.png,1.0,6.7165003,4.1955876,1.7825545
alexnet2023_baseline_pgd,1,28,NaN,airplane,airplane,true,0028_fc_dnn_true_airplane_35_n02690373_8538.png,n02690373_8538.png,1.0,18.881044,7.7018986,7.90485
alexnet2023_baseline_pgd,1,29,NaN,knife,knife,true,0029_fc_dnn_true_knife_35_n03041632_98864.png,n03041632_98864.png,1.0,6.761006,2.64391,2.9112265
alexnet2023_baseline_pgd,1,30,NaN,clock,clock,false,0030_fc_dnn_false_clock_35_n04548280_5466.png,n04548280_5466.png,1.0,5.0203643,3.0121033,1.4200549
alexnet2023_baseline_pgd,1,31,NaN,keyboard,keyboard,true,0031_fc_dnn_true_keyboard_35_n04505470_4033.png,n04505470_4033.png,1.0,17.84091,4.77347,9.240076
alexnet2023_baseline_pgd,1,32,NaN,boat,boat,false,0032_fc_dnn_false_boat_35_n03344393_7503.png,n03344393_7503.png,1.0,5.730193,3.684591,1.4464592
alexnet2023_baseline_pgd,1,33,NaN,bottle,bottle,false,0033_fc_dnn_false_bottle_35_n02823428_3402.png,n02823428_3402.png,1.0,10.825358,7.8531346,2.1016796
alexnet2023_baseline_pgd,1,34,NaN,car,boat,true,0034_fc_dnn_true_boat_35_n03662601_15766.png,n03662601_15766.png,0.0,7.4733634,8.883424,-0.9970633
alexnet2023_baseline_pgd,1,35,NaN,dog,dog,true,0035_fc_dnn_true_dog_35_n02097047_1351.png,n02097047_1351.png,1.0,5.357243,4.451838,0.6402181
alexnet2023_baseline_pgd,1,36,NaN,keyboard,keyboard,true,0036_fc_dnn_true_keyboard_35_n03085013_23562.png,n03085013_23562.png,1.0,8.311818,6.478778,1.2961552
alexnet2023_baseline_pgd,1,37,NaN,chair,clock,false,0037_fc_dnn_false_clock_35_n04548280_7872.png,n04548280_7872.png,0.0,3.7803173,4.6049304,-0.58308953
alexnet2023_baseline_pgd,1,38,NaN,dog,dog,false,0038_fc_dnn_false_dog_35_n02106166_16884.png,n02106166_16884.png,1.0,6.8213224,2.7754238,2.8608823
alexnet2023_baseline_pgd,1,39,NaN,oven,oven,true,0039_fc_dnn_true_oven_35_n04111531_3353.png,n04111531_3353.png,1.0,11.84422,3.010482,6.2463965
alexnet2023_baseline_pgd,1,40,NaN,knife,knife,false,0040_fc_dnn_false_knife_35_n03041632_46185.png,n03041632_46185.png,1.0,8.635685,4.921646,2.6262221
alexnet2023_baseline_pgd,1,41,NaN,knife,knife,true,0041_fc_dnn_true_knife_35_n03041632_14766.png,n03041632_14766.png,1.0,14.842139,2.7054899,8.581907
alexnet2023_baseline_pgd,1,42,NaN,chair,chair,true,0042_fc_dnn_true_chair_35_n02791124_2150.png,n02791124_2150.png,1.0,6.818146,4.3712344,1.730228
alexnet2023_baseline_pgd,1,43,NaN,elephant,elephant,false,0043_fc_dnn_false_elephant_35_n02504458_4631.png,n02504458_4631.png,1.0,12.697624,3.0708995,6.807122
alexnet2023_baseline_pgd,1,44,NaN,chair,chair,false,0044_fc_dnn_false_chair_35_n03376595_3223.png,n03376595_3223.png,1.0,7.0977783,5.083684,1.4241798
alexnet2023_baseline_pgd,1,45,NaN,car,car,false,0045_fc_dnn_false_car_35_n03100240_5399.png,n03100240_5399.png,1.0,19.06139,9.351578,6.8658743
alexnet2023_baseline_pgd,1,46,NaN,bottle,bottle,true,0046_fc_dnn_true_bottle_35_n04557648_2512.png,n04557648_2512.png,1.0,3.588246,3.3437347,0.17289566
alexnet2023_baseline_pgd,1,47,NaN,bicycle,bicycle,true,0047_fc_dnn_true_bicycle_35_n03792782_8098.png,n03792782_8098.png,1.0,6.4837084,2.6585,2.704831
alexnet2023_baseline_pgd,1,48,NaN,bear,bear,true,0048_fc_dnn_true_bear_35_n02134418_11557.png,n02134418_11557.png,1.0,11.746258,3.9184358,5.5351057
alexnet2023_baseline_pgd,1,49,NaN,knife,knife,true,0049_fc_dnn_true_knife_35_n03041632_45569.png,n03041632_45569.png,1.0,9.290733,2.0864697,5.094184
alexnet2023_baseline_pgd,1,50,NaN,bicycle,bicycle,false,0050_fc_dnn_false_bicycle_35_n03792782_4740.png,n03792782_4740.png,1.0,10.5675335,4.249309,4.4676595
alexnet2023_baseline_pgd,1,51,NaN,boat,boat,false,0051_fc_dnn_false_boat_35_n03662601_25404.png,n03662601_25404.png,1.0,4.3572793,3.811244,0.38610527
alexnet2023_baseline_pgd,1,52,NaN,bird,bird,false,0052_fc_dnn_false_bird_35_n01796340_4853.png,n01796340_4853.png,1.0,4.83337,2.8159516,1.4265304
alexnet2023_baseline_pgd,1,53,NaN,car,clock,true,0053_fc_dnn_true_clock_35_n03196217_5888.png,n03196217_5888.png,0.0,4.7613387,6.073824,-0.9280672
alexnet2023_baseline_pgd,1,54,NaN,bicycle,bicycle,true,0054_fc_dnn_true_bicycle_35_n02835271_12871.png,n02835271_12871.png,1.0,18.17985,4.6341634,9.578247
alexnet2023_baseline_pgd,1,55,NaN,keyboard,keyboard,false,0055_fc_dnn_false_keyboard_35_n03085013_28584.png,n03085013_28584.png,1.0,11.555574,4.3378434,5.103707
alexnet2023_baseline_pgd,1,56,NaN,oven,cat,true,0056_fc_dnn_true_cat_35_n02123159_6184.png,n02123159_6184.png,0.0,4.133193,6.4870353,-1.6644179
alexnet2023_baseline_pgd,1,57,NaN,bicycle,bicycle,true,0057_fc_dnn_true_bicycle_35_n02835271_7592.png,n02835271_7592.png,1.0,21.4664,4.6723194,11.875209
alexnet2023_baseline_pgd,1,58,NaN,elephant,elephant,false,0058_fc_dnn_false_elephant_35_n02504458_3205.png,n02504458_3205.png,1.0,16.833767,5.291602,8.161543
alexnet2023_baseline_pgd,1,59,NaN,cat,cat,false,0059_fc_dnn_false_cat_35_n02124075_7880.png,n02124075_7880.png,1.0,7.380089,5.1354213,1.5872197
alexnet2023_baseline_pgd,1,60,NaN,truck,truck,false,0060_fc_dnn_false_truck_35_n04467665_2240.png,n04467665_2240.png,1.0,13.76576,9.190118,3.235468
alexnet2023_baseline_pgd,1,61,NaN,bottle,bottle,true,0061_fc_dnn_true_bottle_35_n04560804_13316.png,n04560804_13316.png,1.0,6.4254584,3.962187,1.7417959
alexnet2023_baseline_pgd,1,62,NaN,airplane,airplane,false,0062_fc_dnn_false_airplane_35_n02690373_3821.png,n02690373_3821.png,1.0,18.080849,3.969067,9.978537
alexnet2023_baseline_pgd,1,63,NaN,knife,knife,true,0063_fc_dnn_true_knife_35_n03041632_17285.png,n03041632_17285.png,1.0,7.558756,4.899001,1.8807306
alexnet2023_baseline_pgd,1,64,NaN,bottle,bottle,false,0064_fc_dnn_false_bottle_35_n02823428_10942.png,n02823428_10942.png,1.0,8.147924,2.1351514,4.2516727
alexnet2023_baseline_pgd,1,65,NaN,bicycle,bicycle,true,0065_fc_dnn_true_bicycle_35_n02835271_3642.png,n02835271_3642.png,1.0,17.089256,2.3366394,10.431676
alexnet2023_baseline_pgd,1,66,NaN,knife,knife,true,0066_fc_dnn_true_knife_35_n03041632_16172.png,n03041632_16172.png,1.0,15.793505,1.5675204,10.05929
alexnet2023_baseline_pgd,1,67,NaN,bicycle,bottle,false,0067_fc_dnn_false_bottle_35_n04560804_2448.png,n04560804_2448.png,0.0,2.6111028,2.8273826,-0.15293288
alexnet2023_baseline_pgd,1,68,NaN,oven,oven,false,0068_fc_dnn_false_oven_35_n04111531_4452.png,n04111531_4452.png,1.0,5.8341637,3.9824948,1.3093276
alexnet2023_baseline_pgd,1,69,NaN,keyboard,keyboard,false,0069_fc_dnn_false_keyboard_35_n04505470_912.png,n04505470_912.png,1.0,12.557875,4.6855526,5.566572
alexnet2023_baseline_pgd,1,70,NaN,elephant,cat,false,0070_fc_dnn_false_cat_35_n02123045_7167.png,n02123045_7167.png,0.0,1.2799169,1.3218104,-0.029623166
alexnet2023_baseline_pgd,1,71,NaN,bicycle,bicycle,false,0071_fc_dnn_false_bicycle_35_n03792782_8333.png,n03792782_8333.png,1.0,9.029331,2.6973634,4.4773774
alexnet2023_baseline_pgd,1,72,NaN,bear,dog,false,0072_fc_dnn_false_dog_35_n02107683_2904.png,n02107683_2904.png,0.0,2.4599128,4.021017,-1.1038674
alexnet2023_baseline_pgd,1,73,NaN,bottle,bottle,true,0073_fc_dnn_true_bottle_35_n04591713_3409.png,n04591713_3409.png,1.0,11.728658,3.1997838,6.030824
alexnet2023_baseline_pgd,1,74,NaN,knife,bottle,false,0074_fc_dnn_false_bottle_35_n04560804_564.png,n04560804_564.png,0.0,2.3307261,5.462335,-2.214382
alexnet2023_baseline_pgd,1,75,NaN,truck,truck,false,0075_fc_dnn_false_truck_35_n03796401_6503.png,n03796401_6503.png,1.0,13.95957,9.735703,2.9867246
alexnet2023_baseline_pgd,1,76,NaN,oven,oven,true,0076_fc_dnn_true_oven_35_n04111531_13590.png,n04111531_13590.png,1.0,13.213088,6.2514524,4.92262
alexnet2023_baseline_pgd,1,77,NaN,bird,bird,false,0077_fc_dnn_false_bird_35_n02018795_7504.png,n02018795_7504.png,1.0,6.28427,1.7274376,3.222167
alexnet2023_baseline_pgd,1,78,NaN,car,car,false,0078_fc_dnn_false_car_35_n03100240_6626.png,n03100240_6626.png,1.0,15.792031,14.260163,1.0831943
alexnet2023_baseline_pgd,1,79,NaN,bear,bear,false,0079_fc_dnn_false_bear_35_n02134418_4364.png,n02134418_4364.png,1.0,10.304235,7.364892,2.0784297
alexnet2023_baseline_pgd,1,80,NaN,knife,knife,false,0080_fc_dnn_false_knife_35_n03041632_8051.png,n03041632_8051.png,1.0,5.8924813,2.9844196,2.0563102
alexnet2023_baseline_pgd,1,81,NaN,airplane,airplane,true,0081_fc_dnn_true_airplane_35_n02690373_1434.png,n02690373_1434.png,1.0,20.721737,7.8040447,9.134188
alexnet2023_baseline_pgd,1,82,NaN,clock,clock,true,0082_fc_dnn_true_clock_35_n04548280_5408.png,n04548280_5408.png,1.0,13.272614,8.363174,3.4714978
alexnet2023_baseline_pgd,1,83,NaN,cat,cat,false,0083_fc_dnn_false_cat_35_n02123597_3916.png,n02123597_3916.png,1.0,6.775497,3.7000132,2.1746955
alexnet2023_baseline_pgd,1,84,NaN,clock,clock,false,0084_fc_dnn_false_clock_35_n04548280_4542.png,n04548280_4542.png,1.0,7.893046,6.534567,0.96058977
alexnet2023_baseline_pgd,1,85,NaN,boat,car,true,0085_fc_dnn_true_car_35_n04285008_14161.png,n04285008_14161.png,0.0,3.9017313,3.942582,-0.028885765
alexnet2023_baseline_pgd,1,86,NaN,airplane,airplane,false,0086_fc_dnn_false_airplane_35_n02690373_7279.png,n02690373_7279.png,1.0,15.493037,7.323498,5.7767367
alexnet2023_baseline_pgd,1,87,NaN,bear,bear,true,0087_fc_dnn_true_bear_35_n02132136_11640.png,n02132136_11640.png,1.0,10.308095,6.945364,2.37781
alexnet2023_baseline_pgd,1,88,NaN,airplane,airplane,true,0088_fc_dnn_true_airplane_35_n02690373_8350.png,n02690373_8350.png,1.0,18.64105,6.7464767,8.410733
alexnet2023_baseline_pgd,1,89,NaN,boat,boat,true,0089_fc_dnn_true_boat_35_n04273569_30568.png,n04273569_30568.png,1.0,19.68522,13.851358,4.1251636
alexnet2023_baseline_pgd,1,90,NaN,dog,dog,true,0090_fc_dnn_true_dog_35_n02100583_19533.png,n02100583_19533.png,1.0,7.8570747,7.630934,0.15990582
alexnet2023_baseline_pgd,1,91,NaN,knife,knife,true,0091_fc_dnn_true_knife_35_n03041632_965.png,n03041632_965.png,1.0,16.804543,9.887542,4.8910584
alexnet2023_baseline_pgd,1,92,NaN,elephant,elephant,false,0092_fc_dnn_false_elephant_35_n02504458_6109.png,n02504458_6109.png,1.0,18.734125,6.797374,8.440558
alexnet2023_baseline_pgd,1,93,NaN,oven,oven,true,0093_fc_dnn_true_oven_35_n04111531_10093.png,n04111531_10093.png,1.0,15.890033,3.735741,8.594382
alexnet2023_baseline_pgd,1,94,NaN,clock,clock,true,0094_fc_dnn_true_clock_35_n03196217_8221.png,n03196217_8221.png,1.0,7.2477417,2.7791262,3.1597884
alexnet2023_baseline_pgd,1,95,NaN,bicycle,bicycle,false,0095_fc_dnn_false_bicycle_35_n03792782_828.png,n03792782_828.png,1.0,11.6185055,3.4587524,5.769817
alexnet2023_baseline_pgd,1,96,NaN,knife,knife,true,0096_fc_dnn_true_knife_35_n03041632_7090.png,n03041632_7090.png,1.0,14.775887,4.4997544,7.266323
alexnet2023_baseline_pgd,1,97,NaN,elephant,bear,false,0097_fc_dnn_false_bear_35_n02134084_14260.png,n02134084_14260.png,0.0,3.0580306,3.1891189,-0.092693396
alexnet2023_baseline_pgd,1,98,NaN,elephant,bear,false,0098_fc_dnn_false_bear_35_n02132136_10988.png,n02132136_10988.png,0.0,8.818904,10.906536,-1.4761789
alexnet2023_baseline_pgd,1,99,NaN,boat,keyboard,false,0099_fc_dnn_false_keyboard_35_n03085013_22980.png,n03085013_22980.png,0.0,3.6621184,4.168152,-0.35781968
alexnet2023_baseline_pgd,1,100,NaN,bottle,bottle,false,0100_fc_dnn_false_bottle_35_n04557648_3673.png,n04557648_3673.png,1.0,8.1709385,0.89409965,5.145502
alexnet2023_baseline_pgd,1,101,NaN,airplane,airplane,true,0101_fc_dnn_true_airplane_35_n02690373_1360.png,n02690373_1360.png,1.0,22.646872,7.25339,10.884836
alexnet2023_baseline_pgd,1,102,NaN,oven,oven,true,0102_fc_dnn_true_oven_35_n04111531_6415.png,n04111531_6415.png,1.0,8.249226,4.389309,2.7293732
alexnet2023_baseline_pgd,1,103,NaN,knife,knife,false,0103_fc_dnn_false_knife_35_n03041632_32054.png,n03041632_32054.png,1.0,14.521446,2.833658,8.264514
alexnet2023_baseline_pgd,1,104,NaN,chair,chair,false,0104_fc_dnn_false_chair_35_n03376595_9136.png,n03376595_9136.png,1.0,7.0282183,3.721389,2.3382814
alexnet2023_baseline_pgd,1,105,NaN,chair,keyboard,false,0105_fc_dnn_false_keyboard_35_n03085013_21266.png,n03085013_21266.png,0.0,5.4486365,7.1301513,-1.1890105
alexnet2023_baseline_pgd,1,106,NaN,bicycle,bicycle,true,0106_fc_dnn_true_bicycle_35_n02835271_6137.png,n02835271_6137.png,1.0,15.506707,8.515451,4.9435644
alexnet2023_baseline_pgd,1,107,NaN,car,car,false,0107_fc_dnn_false_car_35_n04285008_14689.png,n04285008_14689.png,1.0,19.258955,12.953851,4.458382
alexnet2023_baseline_pgd,1,108,NaN,truck,truck,false,0108_fc_dnn_false_truck_35_n04467665_16276.png,n04467665_16276.png,1.0,16.812248,12.361283,3.1473076
alexnet2023_baseline_pgd,1,109,NaN,chair,chair,false,0109_fc_dnn_false_chair_35_n03376595_787.png,n03376595_787.png,1.0,6.623163,3.731016,2.045057
alexnet2023_baseline_pgd,1,110,NaN,boat,boat,false,0110_fc_dnn_false_boat_35_n04612504_41355.png,n04612504_41355.png,1.0,6.0594697,5.226685,0.58886766
alexnet2023_baseline_pgd,1,111,NaN,elephant,elephant,true,0111_fc_dnn_true_elephant_35_n02504458_174.png,n02504458_174.png,1.0,22.852295,3.7601776,13.500166
alexnet2023_baseline_pgd,1,112,NaN,cat,cat,true,0112_fc_dnn_true_cat_35_n02125311_6746.png,n02125311_6746.png,1.0,11.250369,7.07052,2.9555998
alexnet2023_baseline_pgd,1,113,NaN,keyboard,keyboard,false,0113_fc_dnn_false_keyboard_35_n03085013_23287.png,n03085013_23287.png,1.0,8.99287,3.6144137,3.8031433
alexnet2023_baseline_pgd,1,114,NaN,clock,clock,true,0114_fc_dnn_true_clock_35_n04548280_8071.png,n04548280_8071.png,1.0,13.121373,4.2192564,6.2947474
alexnet2023_baseline_pgd,1,115,NaN,oven,oven,false,0115_fc_dnn_false_oven_35_n04111531_14543.png,n04111531_14543.png,1.0,6.733452,2.5835438,2.9344282
alexnet2023_baseline_pgd,1,116,NaN,car,car,false,0116_fc_dnn_false_car_35_n03100240_10791.png,n03100240_10791.png,1.0,16.91828,10.738066,4.3700714
alexnet2023_baseline_pgd,1,117,NaN,airplane,airplane,true,0117_fc_dnn_true_airplane_35_n02690373_2619.png,n02690373_2619.png,1.0,23.595688,9.491604,9.973094
alexnet2023_baseline_pgd,1,118,NaN,keyboard,keyboard,true,0118_fc_dnn_true_keyboard_35_n04505470_3864.png,n04505470_3864.png,1.0,8.810261,2.9467318,4.1461415
alexnet2023_baseline_pgd,1,119,NaN,bear,dog,true,0119_fc_dnn_true_dog_35_n02097658_4387.png,n02097658_4387.png,0.0,5.509184,7.813469,-1.6293756
alexnet2023_baseline_pgd,1,120,NaN,clock,clock,true,0120_fc_dnn_true_clock_35_n04548280_309.png,n04548280_309.png,1.0,16.440292,5.905986,7.4488797
alexnet2023_baseline_pgd,1,121,NaN,dog,dog,true,0121_fc_dnn_true_dog_35_n02108000_5247.png,n02108000_5247.png,1.0,9.486737,3.4224637,4.2880893
alexnet2023_baseline_pgd,1,122,NaN,keyboard,keyboard,false,0122_fc_dnn_false_keyboard_35_n04505470_4411.png,n04505470_4411.png,1.0,9.671954,5.300434,3.0911314
alexnet2023_baseline_pgd,1,123,NaN,oven,truck,false,0123_fc_dnn_false_truck_35_n03417042_2155.png,n03417042_2155.png,0.0,5.1774287,6.0589633,-0.6233391
alexnet2023_baseline_pgd,1,124,NaN,elephant,bear,false,0124_fc_dnn_false_bear_35_n02132136_4237.png,n02132136_4237.png,0.0,14.677365,15.245251,-0.40155563
alexnet2023_baseline_pgd,1,125,NaN,bird,bird,false,0125_fc_dnn_false_bird_35_n01843065_2350.png,n01843065_2350.png,1.0,7.156595,0.13309371,4.9663653
alexnet2023_baseline_pgd,1,126,NaN,knife,knife,false,0126_fc_dnn_false_knife_35_n03041632_51225.png,n03041632_51225.png,1.0,20.141417,3.9032476,11.48212
alexnet2023_baseline_pgd,1,127,NaN,airplane,airplane,false,0127_fc_dnn_false_airplane_35_n02690373_2095.png,n02690373_2095.png,1.0,14.977043,5.2572355,6.872942
alexnet2023_baseline_pgd,1,128,NaN,clock,clock,true,0128_fc_dnn_true_clock_35_n02708093_1775.png,n02708093_1775.png,1.0,10.035423,4.8675747,3.6542208
alexnet2023_baseline_pgd,1,129,NaN,elephant,elephant,true,0129_fc_dnn_true_elephant_35_n02504458_7950.png,n02504458_7950.png,1.0,31.816715,13.920769,12.6543455
alexnet2023_baseline_pgd,1,130,NaN,boat,boat,true,0130_fc_dnn_true_boat_35_n03662601_1926.png,n03662601_1926.png,1.0,13.446661,7.931705,3.8996627
alexnet2023_baseline_pgd,1,131,NaN,elephant,elephant,true,0131_fc_dnn_true_elephant_35_n02504458_6721.png,n02504458_6721.png,1.0,11.341818,3.7844818,5.3438435
alexnet2023_baseline_pgd,1,132,NaN,bicycle,bicycle,true,0132_fc_dnn_true_bicycle_35_n02835271_14225.png,n02835271_14225.png,1.0,8.987844,3.7230866,3.7227461
alexnet2023_baseline_pgd,1,133,NaN,clock,clock,false,0133_fc_dnn_false_clock_35_n02708093_2744.png,n02708093_2744.png,1.0,6.5776234,5.648713,0.6568388
alexnet2023_baseline_pgd,1,134,NaN,clock,clock,true,0134_fc_dnn_true_clock_35_n02708093_275.png,n02708093_275.png,1.0,16.51584,5.5077543,7.7838926
alexnet2023_baseline_pgd,1,135,NaN,knife,knife,false,0135_fc_dnn_false_knife_35_n03041632_25512.png,n03041632_25512.png,1.0,8.938238,2.3870082,4.632419
alexnet2023_baseline_pgd,1,136,NaN,oven,bird,true,0136_fc_dnn_true_bird_35_n01622779_5441.png,n01622779_5441.png,0.0,1.5634731,2.3929281,-0.5865133
alexnet2023_baseline_pgd,1,137,NaN,oven,oven,false,0137_fc_dnn_false_oven_35_n04111531_14329.png,n04111531_14329.png,1.0,11.161094,10.164719,0.7045436
alexnet2023_baseline_pgd,1,138,NaN,bird,bird,false,0138_fc_dnn_false_bird_35_n02007558_13217.png,n02007558_13217.png,1.0,4.6321306,3.5398562,0.77235466
alexnet2023_baseline_pgd,1,139,NaN,cat,cat,true,0139_fc_dnn_true_cat_35_n02123597_7908.png,n02123597_7908.png,1.0,10.232482,4.832465,3.8183885
alexnet2023_baseline_pgd,1,140,NaN,clock,clock,true,0140_fc_dnn_true_clock_35_n04548280_9828.png,n04548280_9828.png,1.0,16.632288,4.0947924,8.865348
alexnet2023_baseline_pgd,1,141,NaN,bird,bird,false,0141_fc_dnn_false_bird_35_n01833805_4819.png,n01833805_4819.png,1.0,5.1967063,2.7465656,1.7325112
alexnet2023_baseline_pgd,1,142,NaN,knife,knife,true,0142_fc_dnn_true_knife_35_n03041632_52929.png,n03041632_52929.png,1.0,7.9536123,2.4044054,3.9238818
alexnet2023_baseline_pgd,1,143,NaN,truck,truck,false,0143_fc_dnn_false_truck_35_n04467665_2044.png,n04467665_2044.png,1.0,11.741497,3.4649422,5.8524084
alexnet2023_baseline_pgd,1,144,NaN,oven,oven,false,0144_fc_dnn_false_oven_35_n04111531_16583.png,n04111531_16583.png,1.0,13.323132,7.58222,4.0594373
alexnet2023_baseline_pgd,1,145,NaN,airplane,airplane,true,0145_fc_dnn_true_airplane_35_n02690373_2796.png,n02690373_2796.png,1.0,17.999353,7.24869,7.601867
alexnet2023_baseline_pgd,1,146,NaN,airplane,airplane,false,0146_fc_dnn_false_airplane_35_n02690373_3362.png,n02690373_3362.png,1.0,22.676382,6.37556,11.5264225
alexnet2023_baseline_pgd,1,147,NaN,clock,clock,true,0147_fc_dnn_true_clock_35_n02708093_3759.png,n02708093_3759.png,1.0,12.257508,4.3186865,5.613595
alexnet2023_baseline_pgd,1,148,NaN,elephant,elephant,true,0148_fc_dnn_true_elephant_35_n02504013_2558.png,n02504013_2558.png,1.0,16.16908,3.591421,8.893748
alexnet2023_baseline_pgd,1,149,NaN,elephant,bear,false,0149_fc_dnn_false_bear_35_n02134418_896.png,n02134418_896.png,0.0,4.2117825,4.6260614,-0.29293948
alexnet2023_baseline_pgd,1,150,NaN,truck,truck,false,0150_fc_dnn_false_truck_35_n04467665_56815.png,n04467665_56815.png,1.0,17.90593,8.456933,6.6814494
alexnet2023_baseline_pgd,1,151,NaN,truck,truck,true,0151_fc_dnn_true_truck_35_n03796401_3695.png,n03796401_3695.png,1.0,12.62417,4.9839664,5.40244
alexnet2023_baseline_pgd,1,152,NaN,elephant,dog,true,0152_fc_dnn_true_dog_35_n02107312_197.png,n02107312_197.png,0.0,1.69268,5.6356273,-2.788085
alexnet2023_baseline_pgd,1,153,NaN,bear,bear,false,0153_fc_dnn_false_bear_35_n02133161_13356.png,n02133161_13356.png,1.0,3.4359345,1.7337459,1.2036291
alexnet2023_baseline_pgd,1,154,NaN,truck,truck,false,0154_fc_dnn_false_truck_35_n03796401_6923.png,n03796401_6923.png,1.0,6.6859,5.2736635,0.99860215
alexnet2023_baseline_pgd,1,155,NaN,elephant,elephant,true,0155_fc_dnn_true_elephant_35_n02504458_7660.png,n02504458_7660.png,1.0,14.478884,5.660069,6.235844
alexnet2023_baseline_pgd,1,156,NaN,bicycle,bicycle,false,0156_fc_dnn_false_bicycle_35_n02835271_6554.png,n02835271_6554.png,1.0,19.008581,2.5359519,11.647908
alexnet2023_baseline_pgd,1,157,NaN,boat,boat,true,0157_fc_dnn_true_boat_35_n04273569_2698.png,n04273569_2698.png,1.0,13.646379,4.9390707,6.156997
alexnet2023_baseline_pgd,1,158,NaN,dog,bottle,true,0158_fc_dnn_true_bottle_35_n03983396_5055.png,n03983396_5055.png,0.0,4.545621,5.344212,-0.5646892
alexnet2023_baseline_pgd,1,159,NaN,chair,chair,true,0159_fc_dnn_true_chair_35_n04429376_22811.png,n04429376_22811.png,1.0,11.011513,6.171959,3.4220815
alexnet2023_baseline_pgd,1,160,NaN,knife,knife,false,0160_fc_dnn_false_knife_35_n03041632_5640.png,n03041632_5640.png,1.0,5.71396,3.3180327,1.6941766
alexnet2023_baseline_pgd,1,161,NaN,elephant,bird,true,0161_fc_dnn_true_bird_35_n01795545_14857.png,n01795545_14857.png,0.0,3.2368035,3.7392907,-0.3553121
alexnet2023_baseline_pgd,1,162,NaN,oven,oven,false,0162_fc_dnn_false_oven_35_n04111531_16144.png,n04111531_16144.png,1.0,7.2173543,2.425546,3.38832
alexnet2023_baseline_pgd,1,163,NaN,truck,truck,false,0163_fc_dnn_false_truck_35_n04467665_47050.png,n04467665_47050.png,1.0,5.2021623,3.3292587,1.3243428
alexnet2023_baseline_pgd,1,164,NaN,bottle,bottle,true,0164_fc_dnn_true_bottle_35_n03937543_8063.png,n03937543_8063.png,1.0,10.152422,7.467581,1.8984694
alexnet2023_baseline_pgd,1,165,NaN,bear,bear,false,0165_fc_dnn_false_bear_35_n02134084_1655.png,n02134084_1655.png,1.0,11.385782,7.8582673,2.4943297
alexnet2023_baseline_pgd,1,166,NaN,elephant,car,false,0166_fc_dnn_false_car_35_n03100240_2425.png,n03100240_2425.png,0.0,1.4832197,3.9951606,-1.7762105
alexnet2023_baseline_pgd,1,167,NaN,keyboard,keyboard,false,0167_fc_dnn_false_keyboard_35_n03085013_21300.png,n03085013_21300.png,1.0,17.183067,2.9315994,10.07731
alexnet2023_baseline_pgd,1,168,NaN,bear,bear,false,0168_fc_dnn_false_bear_35_n02132136_2248.png,n02132136_2248.png,1.0,12.918586,7.105995,4.110122
alexnet2023_baseline_pgd,1,169,NaN,knife,knife,false,0169_fc_dnn_false_knife_35_n03041632_27832.png,n03041632_27832.png,1.0,10.575888,4.1565814,4.539135
alexnet2023_baseline_pgd,1,170,NaN,keyboard,keyboard,true,0170_fc_dnn_true_keyboard_35_n04505470_4682.png,n04505470_4682.png,1.0,19.373337,7.582449,8.337417
alexnet2023_baseline_pgd,1,171,NaN,truck,truck,false,0171_fc_dnn_false_truck_35_n03417042_12908.png,n03417042_12908.png,1.0,4.2884912,3.824189,0.32831132
alexnet2023_baseline_pgd,1,172,NaN,elephant,elephant,false,0172_fc_dnn_false_elephant_35_n02504013_2148.png,n02504013_2148.png,1.0,9.4387665,7.845066,1.1269164
alexnet2023_baseline_pgd,1,173,NaN,boat,boat,true,0173_fc_dnn_true_boat_35_n02951358_20379.png,n02951358_20379.png,1.0,7.643519,4.669544,2.1029177
alexnet2023_baseline_pgd,1,174,NaN,cat,cat,true,0174_fc_dnn_true_cat_35_n02123394_6521.png,n02123394_6521.png,1.0,5.9209123,3.0456083,2.033147
alexnet2023_baseline_pgd,1,175,NaN,boat,boat,true,0175_fc_dnn_true_boat_35_n03662601_9602.png,n03662601_9602.png,1.0,17.616062,7.803642,6.938429
alexnet2023_baseline_pgd,1,176,NaN,clock,clock,true,0176_fc_dnn_true_clock_35_n04548280_3997.png,n04548280_3997.png,1.0,15.445775,3.658234,8.335051
alexnet2023_baseline_pgd,1,177,NaN,car,car,false,0177_fc_dnn_false_car_35_n03100240_12694.png,n03100240_12694.png,1.0,17.472704,9.44496,5.6764727
alexnet2023_baseline_pgd,1,178,NaN,bird,bird,false,0178_fc_dnn_false_bird_35_n02002556_25052.png,n02002556_25052.png,1.0,7.2807336,3.3861737,2.7538698
alexnet2023_baseline_pgd,1,179,NaN,chair,chair,true,0179_fc_dnn_true_chair_35_n04429376_22734.png,n04429376_22734.png,1.0,6.129634,2.0051332,2.9164624
alexnet2023_baseline_pgd,1,180,NaN,boat,boat,true,0180_fc_dnn_true_boat_35_n04612504_5334.png,n04612504_5334.png,1.0,14.906634,10.574627,3.063192
alexnet2023_baseline_pgd,1,181,NaN,keyboard,keyboard,true,0181_fc_dnn_true_keyboard_35_n03085013_15484.png,n03085013_15484.png,1.0,7.451019,6.973291,0.33780465
alexnet2023_baseline_pgd,1,182,NaN,bear,bear,true,0182_fc_dnn_true_bear_35_n02134418_1809.png,n02134418_1809.png,1.0,18.000174,10.223238,5.499124
alexnet2023_baseline_pgd,1,183,NaN,bottle,bottle,true,0183_fc_dnn_true_bottle_35_n04560804_6392.png,n04560804_6392.png,1.0,7.0562406,4.670758,1.6867911
alexnet2023_baseline_pgd,1,184,NaN,boat,boat,false,0184_fc_dnn_false_boat_35_n02951358_29495.png,n02951358_29495.png,1.0,5.5977325,4.6673985,0.65784556
alexnet2023_baseline_pgd,1,185,NaN,dog,dog,false,0185_fc_dnn_false_dog_35_n02086646_8449.png,n02086646_8449.png,1.0,12.52234,3.8984137,6.098037
alexnet2023_baseline_pgd,1,186,NaN,dog,bird,true,0186_fc_dnn_true_bird_35_n02037110_4043.png,n02037110_4043.png,0.0,4.1344714,6.662923,-1.7878852
alexnet2023_baseline_pgd,1,187,NaN,elephant,elephant,true,0187_fc_dnn_true_elephant_35_n02504458_4819.png,n02504458_4819.png,1.0,19.645935,3.746755,11.242418
alexnet2023_baseline_pgd,1,188,NaN,bird,bird,true,0188_fc_dnn_true_bird_35_n01829413_282.png,n01829413_282.png,1.0,12.162427,2.7353055,6.6659813
alexnet2023_baseline_pgd,1,189,NaN,bottle,bird,false,0189_fc_dnn_false_bird_35_n02007558_22160.png,n02007558_22160.png,0.0,-1.8813978,4.008551,-4.164823
alexnet2023_baseline_pgd,1,190,NaN,car,truck,false,0190_fc_dnn_false_truck_35_n03417042_3066.png,n03417042_3066.png,0.0,5.642127,6.131453,-0.34600574
alexnet2023_baseline_pgd,1,191,NaN,boat,boat,true,0191_fc_dnn_true_boat_35_n04612504_254.png,n04612504_254.png,1.0,12.0443735,7.372767,3.3033247
alexnet2023_baseline_pgd,1,192,NaN,bottle,keyboard,false,0192_fc_dnn_false_keyboard_35_n03085013_20704.png,n03085013_20704.png,0.0,4.8916426,9.133039,-2.9991205
alexnet2023_baseline_pgd,1,193,NaN,chair,chair,true,0193_fc_dnn_true_chair_35_n03376595_3015.png,n03376595_3015.png,1.0,6.0707808,3.999206,1.4648246
alexnet2023_baseline_pgd,1,194,NaN,keyboard,bottle,false,0194_fc_dnn_false_bottle_35_n03983396_3782.png,n03983396_3782.png,0.0,2.626566,5.0532413,-1.7159187
alexnet2023_baseline_pgd,1,195,NaN,bird,bird,false,0195_fc_dnn_false_bird_35_n01592084_4087.png,n01592084_4087.png,1.0,7.73421,4.3819017,2.37044
alexnet2023_baseline_pgd,1,196,NaN,bird,bird,false,0196_fc_dnn_false_bird_35_n02013706_651.png,n02013706_651.png,1.0,8.280728,0.9078039,5.2134447
alexnet2023_baseline_pgd,1,197,NaN,keyboard,keyboard,true,0197_fc_dnn_true_keyboard_35_n04505470_2825.png,n04505470_2825.png,1.0,19.184763,7.416962,8.321093
alexnet2023_baseline_pgd,1,198,NaN,cat,cat,false,0198_fc_dnn_false_cat_35_n02123597_23346.png,n02123597_23346.png,1.0,4.7543135,4.733014,0.015060924
alexnet2023_baseline_pgd,1,199,NaN,cat,cat,false,0199_fc_dnn_false_cat_35_n02124075_3592.png,n02124075_3592.png,1.0,8.065049,6.3059487,1.2438719
alexnet2023_baseline_pgd,1,200,NaN,airplane,airplane,false,0200_fc_dnn_false_airplane_35_n02690373_5415.png,n02690373_5415.png,1.0,18.338558,6.6091547,8.293941
alexnet2023_baseline_pgd,1,201,NaN,cat,cat,true,0201_fc_dnn_true_cat_35_n02123597_4591.png,n02123597_4591.png,1.0,9.120843,7.847897,0.9001087
alexnet2023_baseline_pgd,1,202,NaN,elephant,elephant,false,0202_fc_dnn_false_elephant_35_n02504013_2228.png,n02504013_2228.png,1.0,16.603931,8.028894,6.063467
alexnet2023_baseline_pgd,1,203,NaN,knife,knife,false,0203_fc_dnn_false_knife_35_n03041632_47743.png,n03041632_47743.png,1.0,9.723861,4.9852867,3.350678
alexnet2023_baseline_pgd,1,204,NaN,bear,bear,false,0204_fc_dnn_false_bear_35_n02134418_1105.png,n02134418_1105.png,1.0,7.6642656,5.509352,1.5237539
alexnet2023_baseline_pgd,1,205,NaN,bottle,bottle,true,0205_fc_dnn_true_bottle_35_n04591713_1174.png,n04591713_1174.png,1.0,8.813338,4.700422,2.908271
alexnet2023_baseline_pgd,1,206,NaN,keyboard,keyboard,true,0206_fc_dnn_true_keyboard_35_n04505470_8544.png,n04505470_8544.png,1.0,9.602545,2.7179668,4.8681316
alexnet2023_baseline_pgd,1,207,NaN,bear,bear,true,0207_fc_dnn_true_bear_35_n02134418_379.png,n02134418_379.png,1.0,14.794937,7.931637,4.8530865
alexnet2023_baseline_pgd,1,208,NaN,bottle,knife,false,0208_fc_dnn_false_knife_35_n03041632_33198.png,n03041632_33198.png,0.0,1.813073,5.9394135,-2.9177632
alexnet2023_baseline_pgd,1,209,NaN,bear,bear,true,0209_fc_dnn_true_bear_35_n02134084_4490.png,n02134084_4490.png,1.0,10.644917,5.8121037,3.4173148
alexnet2023_baseline_pgd,1,210,NaN,car,car,true,0210_fc_dnn_true_car_35_n02814533_23592.png,n02814533_23592.png,1.0,17.309862,10.813123,4.5938888
alexnet2023_baseline_pgd,1,211,NaN,dog,dog,false,0211_fc_dnn_false_dog_35_n02102973_7095.png,n02102973_7095.png,1.0,5.148404,3.4775202,1.1814934
alexnet2023_baseline_pgd,1,212,NaN,elephant,elephant,true,0212_fc_dnn_true_elephant_35_n02504013_3810.png,n02504013_3810.png,1.0,21.811172,9.858057,8.452129
alexnet2023_baseline_pgd,1,213,NaN,truck,truck,false,0213_fc_dnn_false_truck_35_n03417042_28742.png,n03417042_28742.png,1.0,9.700337,6.4626975,2.2893572
alexnet2023_baseline_pgd,1,214,NaN,bicycle,bicycle,false,0214_fc_dnn_false_bicycle_35_n03792782_4382.png,n03792782_4382.png,1.0,11.885326,1.7754097,7.148791
alexnet2023_baseline_pgd,1,215,NaN,keyboard,keyboard,false,0215_fc_dnn_false_keyboard_35_n04505470_2868.png,n04505470_2868.png,1.0,9.909524,4.332796,3.9433422
alexnet2023_baseline_pgd,1,216,NaN,elephant,bear,true,0216_fc_dnn_true_bear_35_n02132136_4817.png,n02132136_4817.png,0.0,10.162224,10.849283,-0.48582438
alexnet2023_baseline_pgd,1,217,NaN,bicycle,bicycle,true,0217_fc_dnn_true_bicycle_35_n03792782_1989.png,n03792782_1989.png,1.0,13.450649,8.107804,3.777962
alexnet2023_baseline_pgd,1,218,NaN,truck,truck,true,0218_fc_dnn_true_truck_35_n03417042_4883.png,n03417042_4883.png,1.0,9.482897,3.917515,3.9353194
alexnet2023_baseline_pgd,1,219,NaN,bicycle,bicycle,true,0219_fc_dnn_true_bicycle_35_n03792782_6614.png,n03792782_6614.png,1.0,17.199684,0.6887538,11.674992
alexnet2023_baseline_pgd,1,220,NaN,car,car,true,0220_fc_dnn_true_car_35_n04285008_8581.png,n04285008_8581.png,1.0,19.790018,9.338394,7.390414
alexnet2023_baseline_pgd,1,221,NaN,truck,truck,true,0221_fc_dnn_true_truck_35_n04467665_22051.png,n04467665_22051.png,1.0,18.608631,9.02354,6.7776833
alexnet2023_baseline_pgd,1,222,NaN,keyboard,keyboard,true,0222_fc_dnn_true_keyboard_35_n04505470_4516.png,n04505470_4516.png,1.0,19.13277,9.912299,6.519858
alexnet2023_baseline_pgd,1,223,NaN,clock,clock,true,0223_fc_dnn_true_clock_35_n02708093_3355.png,n02708093_3355.png,1.0,8.062842,3.7205417,3.07047
alexnet2023_baseline_pgd,1,224,NaN,chair,chair,false,0224_fc_dnn_false_chair_35_n02791124_11404.png,n02791124_11404.png,1.0,3.530917,3.0636911,0.33037853
alexnet2023_baseline_pgd,1,225,NaN,boat,boat,true,0225_fc_dnn_true_boat_35_n03344393_1145.png,n03344393_1145.png,1.0,11.160482,3.632389,5.323166
alexnet2023_baseline_pgd,1,226,NaN,chair,keyboard,false,0226_fc_dnn_false_keyboard_35_n04505470_4627.png,n04505470_4627.png,0.0,3.1979008,6.0453453,-2.0134473
alexnet2023_baseline_pgd,1,227,NaN,chair,chair,true,0227_fc_dnn_true_chair_35_n03376595_4354.png,n03376595_4354.png,1.0,5.9699755,3.1852014,1.9691327
alexnet2023_baseline_pgd,1,228,NaN,keyboard,keyboard,false,0228_fc_dnn_false_keyboard_35_n03085013_3231.png,n03085013_3231.png,1.0,13.639881,3.7075639,7.0232096
alexnet2023_baseline_pgd,1,229,NaN,car,car,false,0229_fc_dnn_false_car_35_n03100240_7454.png,n03100240_7454.png,1.0,13.661157,7.531026,4.334657
alexnet2023_baseline_pgd,1,230,NaN,bicycle,chair,false,0230_fc_dnn_false_chair_35_n03376595_4212.png,n03376595_4212.png,0.0,4.8069983,4.9228606,-0.08192707
alexnet2023_baseline_pgd,1,231,NaN,airplane,airplane,true,0231_fc_dnn_true_airplane_35_n02690373_4175.png,n02690373_4175.png,1.0,24.58514,6.7333593,12.623115
alexnet2023_baseline_pgd,1,232,NaN,elephant,bird,false,0232_fc_dnn_false_bird_35_n01614925_19918.png,n01614925_19918.png,0.0,2.7398977,4.284439,-1.0921557
alexnet2023_baseline_pgd,1,233,NaN,dog,dog,false,0233_fc_dnn_false_dog_35_n02086240_1183.png,n02086240_1183.png,1.0,6.5793104,2.5625095,2.8403072
alexnet2023_baseline_pgd,1,234,NaN,car,car,false,0234_fc_dnn_false_car_35_n02814533_1344.png,n02814533_1344.png,1.0,11.032776,8.992652,1.4425855
alexnet2023_baseline_pgd,1,235,NaN,bottle,bottle,true,0235_fc_dnn_true_bottle_35_n03983396_1321.png,n03983396_1321.png,1.0,3.6066124,2.0397573,1.107934
alexnet2023_baseline_pgd,1,236,NaN,cat,cat,true,0236_fc_dnn_true_cat_35_n02123597_6291.png,n02123597_6291.png,1.0,9.525241,3.5868335,4.199088
alexnet2023_baseline_pgd,1,237,NaN,airplane,airplane,true,0237_fc_dnn_true_airplane_35_n02690373_7698.png,n02690373_7698.png,1.0,8.609113,5.491091,2.2047746
alexnet2023_baseline_pgd,1,238,NaN,airplane,airplane,false,0238_fc_dnn_false_airplane_35_n02690373_4191.png,n02690373_4191.png,1.0,5.4622164,3.6191218,1.3032647
alexnet2023_baseline_pgd,1,239,NaN,bear,bear,true,0239_fc_dnn_true_bear_35_n02134418_6204.png,n02134418_6204.png,1.0,8.38816,3.5610292,3.4132967
alexnet2023_baseline_pgd,1,240,NaN,bear,bear,true,0240_fc_dnn_true_bear_35_n02132136_14829.png,n02132136_14829.png,1.0,7.4152484,5.8220286,1.1265765
alexnet2023_baseline_pgd,1,241,NaN,car,car,false,0241_fc_dnn_false_car_35_n04285008_2409.png,n04285008_2409.png,1.0,11.969064,10.654196,0.92975205
alexnet2023_baseline_pgd,1,242,NaN,bird,bird,true,0242_fc_dnn_true_bird_35_n02037110_3761.png,n02037110_3761.png,1.0,12.938175,4.7841444,5.7657704
alexnet2023_baseline_pgd,1,243,NaN,boat,boat,false,0243_fc_dnn_false_boat_35_n02951358_3067.png,n02951358_3067.png,1.0,4.7160683,2.037624,1.8939462
alexnet2023_baseline_pgd,1,244,NaN,chair,chair,false,0244_fc_dnn_false_chair_35_n03376595_14748.png,n03376595_14748.png,1.0,13.515384,4.6809607,6.2468805
alexnet2023_baseline_pgd,1,245,NaN,elephant,elephant,true,0245_fc_dnn_true_elephant_35_n02504458_5951.png,n02504458_5951.png,1.0,18.605652,7.8019795,7.6393504
alexnet2023_baseline_pgd,1,246,NaN,truck,clock,false,0246_fc_dnn_false_clock_35_n02708093_2006.png,n02708093_2006.png,0.0,4.196802,5.412676,-0.8597526
alexnet2023_baseline_pgd,1,247,NaN,car,car,false,0247_fc_dnn_false_car_35_n03100240_18646.png,n03100240_18646.png,1.0,17.272009,11.205661,4.289556
alexnet2023_baseline_pgd,1,248,NaN,bicycle,bicycle,false,0248_fc_dnn_false_bicycle_35_n03792782_5864.png,n03792782_5864.png,1.0,11.421889,5.240671,4.3707814
alexnet2023_baseline_pgd,1,249,NaN,clock,chair,false,0249_fc_dnn_false_chair_35_n04429376_36830.png,n04429376_36830.png,0.0,3.2902265,4.463715,-0.8297818
alexnet2023_baseline_pgd,1,250,NaN,boat,boat,true,0250_fc_dnn_true_boat_35_n04273569_9282.png,n04273569_9282.png,1.0,13.330122,4.8590736,5.989936
alexnet2023_baseline_pgd,1,251,NaN,bird,bird,true,0251_fc_dnn_true_bird_35_n01622779_1609.png,n01622779_1609.png,1.0,4.0664706,3.9673462,0.07009156
alexnet2023_baseline_pgd,1,252,NaN,dog,dog,true,0252_fc_dnn_true_dog_35_n02088094_9498.png,n02088094_9498.png,1.0,5.053034,4.1753054,0.6206478
alexnet2023_baseline_pgd,1,253,NaN,car,car,true,0253_fc_dnn_true_car_35_n04285008_5525.png,n04285008_5525.png,1.0,17.82645,10.171998,5.412515
alexnet2023_baseline_pgd,1,254,NaN,knife,knife,true,0254_fc_dnn_true_knife_35_n03041632_29343.png,n03041632_29343.png,1.0,7.4244695,2.405498,3.5489488
alexnet2023_baseline_pgd,1,255,NaN,knife,knife,true,0255_fc_dnn_true_knife_35_n03041632_86338.png,n03041632_86338.png,1.0,8.57474,7.7622623,0.5745088
alexnet2023_baseline_pgd,1,256,NaN,keyboard,keyboard,false,0256_fc_dnn_false_keyboard_35_n03085013_20691.png,n03085013_20691.png,1.0,10.611786,7.9589114,1.8758656
alexnet2023_baseline_pgd,1,257,NaN,cat,cat,true,0257_fc_dnn_true_cat_35_n02124075_1957.png,n02124075_1957.png,1.0,8.697749,2.989189,4.0365615
alexnet2023_baseline_pgd,1,258,NaN,bear,bear,false,0258_fc_dnn_false_bear_35_n02134418_195.png,n02134418_195.png,1.0,6.8424892,4.4978333,1.6579221
alexnet2023_baseline_pgd,1,259,NaN,chair,chair,true,0259_fc_dnn_true_chair_35_n02791124_1376.png,n02791124_1376.png,1.0,9.902353,6.929373,2.1022148
alexnet2023_baseline_pgd,1,260,NaN,elephant,elephant,false,0260_fc_dnn_false_elephant_35_n02504458_8060.png,n02504458_8060.png,1.0,9.906988,2.93935,4.926864
alexnet2023_baseline_pgd,1,261,NaN,oven,oven,false,0261_fc_dnn_false_oven_35_n04111531_6479.png,n04111531_6479.png,1.0,5.3561187,1.5705388,2.6768093
alexnet2023_baseline_pgd,1,262,NaN,bird,bear,true,0262_fc_dnn_true_bear_35_n02132136_4070.png,n02132136_4070.png,0.0,4.339088,4.363154,-0.017017212
alexnet2023_baseline_pgd,1,263,NaN,cat,cat,false,0263_fc_dnn_false_cat_35_n02123597_1153.png,n02123597_1153.png,1.0,5.7014937,5.4266653,0.19433305
alexnet2023_baseline_pgd,1,264,NaN,truck,truck,false,0264_fc_dnn_false_truck_35_n04467665_49656.png,n04467665_49656.png,1.0,11.490242,6.784926,3.327161
alexnet2023_baseline_pgd,1,265,NaN,dog,dog,true,0265_fc_dnn_true_dog_35_n02108915_10239.png,n02108915_10239.png,1.0,7.085116,4.6154118,1.7463446
alexnet2023_baseline_pgd,1,266,NaN,chair,chair,false,0266_fc_dnn_false_chair_35_n04429376_6835.png,n04429376_6835.png,1.0,5.9543247,4.0093174,1.375328
alexnet2023_baseline_pgd,1,267,NaN,truck,truck,true,0267_fc_dnn_true_truck_35_n04467665_54079.png,n04467665_54079.png,1.0,6.6995425,6.5523834,0.1040572
alexnet2023_baseline_pgd,1,268,NaN,clock,clock,false,0268_fc_dnn_false_clock_35_n03196217_4464.png,n03196217_4464.png,1.0,7.549091,6.3574405,0.84262407
alexnet2023_baseline_pgd,1,269,NaN,dog,dog,true,0269_fc_dnn_true_dog_35_n02102318_9359.png,n02102318_9359.png,1.0,9.51721,8.381766,0.8028799
alexnet2023_baseline_pgd,1,270,NaN,bicycle,bicycle,true,0270_fc_dnn_true_bicycle_35_n03792782_12578.png,n03792782_12578.png,1.0,17.580418,3.4373655,10.0006485
alexnet2023_baseline_pgd,1,271,NaN,bicycle,bicycle,true,0271_fc_dnn_true_bicycle_35_n02835271_12752.png,n02835271_12752.png,1.0,19.46436,0.96978885,13.077636
alexnet2023_baseline_pgd,1,272,NaN,oven,oven,true,0272_fc_dnn_true_oven_35_n04111531_20056.png,n04111531_20056.png,1.0,11.303881,4.198538,5.024236
alexnet2023_baseline_pgd,1,273,NaN,oven,oven,true,0273_fc_dnn_true_oven_35_n04111531_12510.png,n04111531_12510.png,1.0,18.065632,5.1411448,9.138992
alexnet2023_baseline_pgd,1,274,NaN,oven,oven,false,0274_fc_dnn_false_oven_35_n04111531_11079.png,n04111531_11079.png,1.0,8.064555,3.9229474,2.928559
alexnet2023_baseline_pgd,1,275,NaN,cat,cat,true,0275_fc_dnn_true_cat_35_n02124075_4377.png,n02124075_4377.png,1.0,9.3308325,1.469531,5.5587797
alexnet2023_baseline_pgd,1,276,NaN,knife,knife,true,0276_fc_dnn_true_knife_35_n03041632_20517.png,n03041632_20517.png,1.0,8.1772,6.037701,1.5128545
alexnet2023_baseline_pgd,1,277,NaN,knife,knife,false,0277_fc_dnn_false_knife_35_n03041632_362.png,n03041632_362.png,1.0,2.845006,2.7829492,0.04388077
alexnet2023_baseline_pgd,1,278,NaN,airplane,airplane,false,0278_fc_dnn_false_airplane_35_n02690373_6807.png,n02690373_6807.png,1.0,13.848902,9.2629795,3.2427368
alexnet2023_baseline_pgd,1,279,NaN,elephant,elephant,false,0279_fc_dnn_false_elephant_35_n02504013_1494.png,n02504013_1494.png,1.0,23.980656,13.1741,7.641389
alexnet2023_baseline_pgd,1,280,NaN,bicycle,oven,false,0280_fc_dnn_false_oven_35_n04111531_3181.png,n04111531_3181.png,0.0,2.6754491,3.7613125,-0.7678214
alexnet2023_baseline_pgd,1,281,NaN,truck,truck,false,0281_fc_dnn_false_truck_35_n03796401_6727.png,n03796401_6727.png,1.0,16.199368,14.357712,1.3022473
alexnet2023_baseline_pgd,1,282,NaN,dog,dog,true,0282_fc_dnn_true_dog_35_n02113023_6956.png,n02113023_6956.png,1.0,9.951372,5.211822,3.3513682
alexnet2023_baseline_pgd,1,283,NaN,elephant,elephant,false,0283_fc_dnn_false_elephant_35_n02504013_1519.png,n02504013_1519.png,1.0,4.526235,1.7970414,1.9298314
alexnet2023_baseline_pgd,1,284,NaN,airplane,oven,false,0284_fc_dnn_false_oven_35_n04111531_8082.png,n04111531_8082.png,0.0,2.770568,5.5451293,-1.9619112
alexnet2023_baseline_pgd,1,285,NaN,oven,oven,false,0285_fc_dnn_false_oven_35_n04111531_550.png,n04111531_550.png,1.0,4.3517475,4.0016108,0.24758407
alexnet2023_baseline_pgd,1,286,NaN,elephant,clock,false,0286_fc_dnn_false_clock_35_n02708093_2242.png,n02708093_2242.png,0.0,-0.34647036,2.7430248,-2.184603
alexnet2023_baseline_pgd,1,287,NaN,airplane,airplane,true,0287_fc_dnn_true_airplane_35_n02690373_10809.png,n02690373_10809.png,1.0,22.617605,7.4412985,10.73127
alexnet2023_baseline_pgd,1,288,NaN,bird,bird,false,0288_fc_dnn_false_bird_35_n02037110_6501.png,n02037110_6501.png,1.0,14.394491,2.1914122,8.6288805
alexnet2023_baseline_pgd,1,289,NaN,airplane,airplane,false,0289_fc_dnn_false_airplane_35_n02690373_12756.png,n02690373_12756.png,1.0,11.358492,2.886176,5.990832
alexnet2023_baseline_pgd,1,290,NaN,bottle,bottle,false,0290_fc_dnn_false_bottle_35_n03983396_5413.png,n03983396_5413.png,1.0,5.6886287,3.0074944,1.8958483
alexnet2023_baseline_pgd,1,291,NaN,bird,bird,true,0291_fc_dnn_true_bird_35_n01560419_631.png,n01560419_631.png,1.0,15.159806,2.9512022,8.632787
alexnet2023_baseline_pgd,1,292,NaN,cat,cat,true,0292_fc_dnn_true_cat_35_n02123394_4734.png,n02123394_4734.png,1.0,4.1454983,2.5026348,1.16168
alexnet2023_baseline_pgd,1,293,NaN,bottle,bottle,true,0293_fc_dnn_true_bottle_35_n03937543_469.png,n03937543_469.png,1.0,7.7380266,2.0411358,4.0283103
alexnet2023_baseline_pgd,1,294,NaN,clock,clock,true,0294_fc_dnn_true_clock_35_n04548280_1055.png,n04548280_1055.png,1.0,8.732085,6.206157,1.7861009
alexnet2023_baseline_pgd,1,295,NaN,chair,chair,true,0295_fc_dnn_true_chair_35_n02791124_15934.png,n02791124_15934.png,1.0,5.088618,4.687939,0.28332257
alexnet2023_baseline_pgd,1,296,NaN,cat,keyboard,true,0296_fc_dnn_true_keyboard_35_n03085013_22187.png,n03085013_22187.png,0.0,6.8034034,7.473219,-0.4736311
alexnet2023_baseline_pgd,1,297,NaN,dog,dog,false,0297_fc_dnn_false_dog_35_n02099601_8560.png,n02099601_8560.png,1.0,5.708167,3.3642783,1.6573796
alexnet2023_baseline_pgd,1,298,NaN,truck,truck,true,0298_fc_dnn_true_truck_35_n03417042_11091.png,n03417042_11091.png,1.0,15.046908,9.64697,3.8183331
alexnet2023_baseline_pgd,1,299,NaN,bird,bird,true,0299_fc_dnn_true_bird_35_n02013706_7132.png,n02013706_7132.png,1.0,4.7207,3.9505692,0.5445646
alexnet2023_baseline_pgd,1,300,NaN,car,car,false,0300_fc_dnn_false_car_35_n02814533_4978.png,n02814533_4978.png,1.0,11.925952,8.678639,2.2961967
alexnet2023_baseline_pgd,1,301,NaN,bear,bear,true,0301_fc_dnn_true_bear_35_n02134418_6244.png,n02134418_6244.png,1.0,11.844152,6.992341,3.4307487
alexnet2023_baseline_pgd,1,302,NaN,bicycle,bicycle,false,0302_fc_dnn_false_bicycle_35_n03792782_50569.png,n03792782_50569.png,1.0,16.717613,1.5629323,10.715978
alexnet2023_baseline_pgd,1,303,NaN,car,car,true,0303_fc_dnn_true_car_35_n03100240_2632.png,n03100240_2632.png,1.0,13.159473,8.397949,3.3669062
alexnet2023_baseline_pgd,1,304,NaN,knife,knife,false,0304_fc_dnn_false_knife_35_n03041632_11285.png,n03041632_11285.png,1.0,11.777209,3.2788482,6.009249
alexnet2023_baseline_pgd,1,305,NaN,knife,knife,false,0305_fc_dnn_false_knife_35_n03041632_39952.png,n03041632_39952.png,1.0,8.274144,2.7998283,3.8709257
alexnet2023_baseline_pgd,1,306,NaN,chair,chair,true,0306_fc_dnn_true_chair_35_n04099969_9745.png,n04099969_9745.png,1.0,4.40709,1.3133534,2.1876023
alexnet2023_baseline_pgd,1,307,NaN,car,car,true,0307_fc_dnn_true_car_35_n03100240_49.png,n03100240_49.png,1.0,22.131659,12.958427,6.486454
alexnet2023_baseline_pgd,1,308,NaN,bird,bird,true,0308_fc_dnn_true_bird_35_n01817953_5953.png,n01817953_5953.png,1.0,8.416469,1.4581105,4.9203024
alexnet2023_baseline_pgd,1,309,NaN,bear,bear,false,0309_fc_dnn_false_bear_35_n02134418_5253.png,n02134418_5253.png,1.0,13.58214,9.862304,2.6303215
alexnet2023_baseline_pgd,1,310,NaN,bicycle,bicycle,false,0310_fc_dnn_false_bicycle_35_n03792782_7576.png,n03792782_7576.png,1.0,14.995722,2.6622267,8.721098
alexnet2023_baseline_pgd,1,311,NaN,clock,keyboard,true,0311_fc_dnn_true_keyboard_35_n03085013_5157.png,n03085013_5157.png,0.0,3.4622564,4.785263,-0.935507
alexnet2023_baseline_pgd,1,312,NaN,truck,boat,true,0312_fc_dnn_true_boat_35_n03344393_7050.png,n03344393_7050.png,0.0,2.8210304,4.217413,-0.9873916
alexnet2023_baseline_pgd,1,313,NaN,bicycle,bicycle,false,0313_fc_dnn_false_bicycle_35_n03792782_51335.png,n03792782_51335.png,1.0,10.72106,2.3331718,5.9311323
alexnet2023_baseline_pgd,1,314,NaN,cat,cat,true,0314_fc_dnn_true_cat_35_n02124075_7230.png,n02124075_7230.png,1.0,10.541218,1.4945276,6.396976
alexnet2023_baseline_pgd,1,315,NaN,airplane,truck,true,0315_fc_dnn_true_truck_35_n04467665_68020.png,n04467665_68020.png,0.0,8.6891575,11.499042,-1.9868882
alexnet2023_baseline_pgd,1,316,NaN,elephant,elephant,true,0316_fc_dnn_true_elephant_35_n02504458_2970.png,n02504458_2970.png,1.0,10.641348,4.125075,4.607701
alexnet2023_baseline_pgd,1,317,NaN,bicycle,bicycle,false,0317_fc_dnn_false_bicycle_35_n02835271_2714.png,n02835271_2714.png,1.0,12.106588,3.7388487,5.9168854
alexnet2023_baseline_pgd,1,318,NaN,elephant,elephant,true,0318_fc_dnn_true_elephant_35_n02504013_3307.png,n02504013_3307.png,1.0,19.136446,7.7489676,8.052163
alexnet2023_baseline_pgd,1,319,NaN,truck,truck,true,0319_fc_dnn_true_truck_35_n03796401_3940.png,n03796401_3940.png,1.0,14.195166,9.593191,3.2540874
alexnet2023_baseline_pgd,1,320,NaN,truck,chair,false,0320_fc_dnn_false_chair_35_n04429376_5362.png,n04429376_5362.png,0.0,4.8103976,6.271558,-1.0331963
alexnet2023_baseline_pgd,1,321,NaN,cat,cat,false,0321_fc_dnn_false_cat_35_n02123159_1165.png,n02123159_1165.png,1.0,5.56747,4.2890124,0.90400606
alexnet2023_baseline_pgd,1,322,NaN,boat,boat,true,0322_fc_dnn_true_boat_35_n03662601_4665.png,n03662601_4665.png,1.0,12.314972,7.102673,3.685652
alexnet2023_baseline_pgd,1,323,NaN,cat,cat,true,0323_fc_dnn_true_cat_35_n02124075_5067.png,n02124075_5067.png,1.0,9.44789,1.6619343,5.505502
alexnet2023_baseline_pgd,1,324,NaN,knife,knife,true,0324_fc_dnn_true_knife_35_n03041632_22480.png,n03041632_22480.png,1.0,4.7397857,2.2365344,1.770066
alexnet2023_baseline_pgd,1,325,NaN,bottle,bottle,false,0325_fc_dnn_false_bottle_35_n04560804_2539.png,n04560804_2539.png,1.0,5.8758435,5.7895365,0.0610283
alexnet2023_baseline_pgd,1,326,NaN,oven,oven,true,0326_fc_dnn_true_oven_35_n04111531_8681.png,n04111531_8681.png,1.0,14.320589,3.5117717,7.6429877
alexnet2023_baseline_pgd,1,327,NaN,car,car,false,0327_fc_dnn_false_car_35_n03100240_23804.png,n03100240_23804.png,1.0,16.065407,7.7070284,5.910266
alexnet2023_baseline_pgd,1,328,NaN,oven,oven,true,0328_fc_dnn_true_oven_35_n04111531_547.png,n04111531_547.png,1.0,14.009641,2.3808117,8.222824
alexnet2023_baseline_pgd,1,329,NaN,boat,boat,false,0329_fc_dnn_false_boat_35_n04273569_9873.png,n04273569_9873.png,1.0,9.917985,6.8110714,2.1969197
alexnet2023_baseline_pgd,1,330,NaN,cat,cat,false,0330_fc_dnn_false_cat_35_n02123597_13140.png,n02123597_13140.png,1.0,9.363168,6.2678647,2.1887097
alexnet2023_baseline_pgd,1,331,NaN,bear,bear,true,0331_fc_dnn_true_bear_35_n02134418_1330.png,n02134418_1330.png,1.0,5.896401,2.3228621,2.5268736
alexnet2023_baseline_pgd,1,332,NaN,chair,chair,false,0332_fc_dnn_false_chair_35_n04429376_6272.png,n04429376_6272.png,1.0,5.58645,4.42033,0.82457143
alexnet2023_baseline_pgd,1,333,NaN,bear,bear,false,0333_fc_dnn_false_bear_35_n02134084_22997.png,n02134084_22997.png,1.0,7.4143353,5.4981804,1.3549261
alexnet2023_baseline_pgd,1,334,NaN,clock,clock,false,0334_fc_dnn_false_clock_35_n03196217_3508.png,n03196217_3508.png,1.0,4.4000688,3.6131198,0.5564569
alexnet2023_baseline_pgd,1,335,NaN,chair,chair,true,0335_fc_dnn_true_chair_35_n02791124_958.png,n02791124_958.png,1.0,4.4440184,3.3108926,0.8012409
alexnet2023_baseline_pgd,1,336,NaN,boat,boat,false,0336_fc_dnn_false_boat_35_n03344393_4012.png,n03344393_4012.png,1.0,8.574115,6.5706124,1.4166901
alexnet2023_baseline_pgd,1,337,NaN,airplane,airplane,true,0337_fc_dnn_true_airplane_35_n02690373_4921.png,n02690373_4921.png,1.0,17.520782,6.9127593,7.5010047
alexnet2023_baseline_pgd,1,338,NaN,elephant,cat,false,0338_fc_dnn_false_cat_35_n02125311_28052.png,n02125311_28052.png,0.0,3.1500006,7.732305,-3.2401786
alexnet2023_baseline_pgd,1,339,NaN,airplane,airplane,false,0339_fc_dnn_false_airplane_35_n02690373_1837.png,n02690373_1837.png,1.0,6.662097,3.4774573,2.2518804
alexnet2023_baseline_pgd,1,340,NaN,elephant,elephant,false,0340_fc_dnn_false_elephant_35_n02504458_5191.png,n02504458_5191.png,1.0,14.452571,4.4641457,7.0628834
alexnet2023_baseline_pgd,1,341,NaN,bird,bird,false,0341_fc_dnn_false_bird_35_n01855672_2187.png,n01855672_2187.png,1.0,6.554112,3.0229032,2.4969418
alexnet2023_baseline_pgd,1,342,NaN,clock,clock,true,0342_fc_dnn_true_clock_35_n04548280_7794.png,n04548280_7794.png,1.0,14.208226,6.683326,5.320908
alexnet2023_baseline_pgd,1,343,NaN,knife,clock,false,0343_fc_dnn_false_clock_35_n03196217_8489.png,n03196217_8489.png,0.0,3.2496002,4.5500946,-0.91958845
alexnet2023_baseline_pgd,1,344,NaN,knife,knife,false,0344_fc_dnn_false_knife_35_n03041632_21590.png,n03041632_21590.png,1.0,5.007248,4.2595415,0.5287083
alexnet2023_baseline_pgd,1,345,NaN,elephant,elephant,false,0345_fc_dnn_false_elephant_35_n02504458_1249.png,n02504458_1249.png,1.0,24.594814,5.234302,13.689949
alexnet2023_baseline_pgd,1,346,NaN,bottle,keyboard,false,0346_fc_dnn_false_keyboard_35_n04505470_4549.png,n04505470_4549.png,0.0,4.4398785,5.7654777,-0.9373402
alexnet2023_baseline_pgd,1,347,NaN,elephant,elephant,false,0347_fc_dnn_false_elephant_35_n02504013_3771.png,n02504013_3771.png,1.0,15.426027,4.8174634,7.501388
alexnet2023_baseline_pgd,1,348,NaN,bicycle,bicycle,true,0348_fc_dnn_true_bicycle_35_n02835271_19552.png,n02835271_19552.png,1.0,18.021376,4.339636,9.674451
alexnet2023_baseline_pgd,1,349,NaN,elephant,bear,true,0349_fc_dnn_true_bear_35_n02134084_4477.png,n02134084_4477.png,0.0,6.496323,7.284452,-0.55729127
alexnet2023_baseline_pgd,1,350,NaN,elephant,elephant,false,0350_fc_dnn_false_elephant_35_n02504013_10149.png,n02504013_10149.png,1.0,21.6362,8.422305,9.343635
alexnet2023_baseline_pgd,1,351,NaN,boat,boat,true,0351_fc_dnn_true_boat_35_n04273569_709.png,n04273569_709.png,1.0,16.669989,12.147196,3.1980975
alexnet2023_baseline_pgd,1,352,NaN,car,car,false,0352_fc_dnn_false_car_35_n03100240_7120.png,n03100240_7120.png,1.0,19.582336,12.283458,5.1610866
alexnet2023_baseline_pgd,1,353,NaN,car,boat,false,0353_fc_dnn_false_boat_35_n02951358_12867.png,n02951358_12867.png,0.0,4.0120625,10.626187,-4.6768928
alexnet2023_baseline_pgd,1,354,NaN,bird,bird,true,0354_fc_dnn_true_bird_35_n01558993_38999.png,n01558993_38999.png,1.0,9.327656,6.004464,2.3498514
alexnet2023_baseline_pgd,1,355,NaN,bicycle,bicycle,false,0355_fc_dnn_false_bicycle_35_n03792782_4210.png,n03792782_4210.png,1.0,9.3295,4.800386,3.2025673
alexnet2023_baseline_pgd,1,356,NaN,bear,dog,false,0356_fc_dnn_false_dog_35_n02102318_11997.png,n02102318_11997.png,0.0,5.05183,5.9545383,-0.6383113
alexnet2023_baseline_pgd,1,357,NaN,elephant,clock,false,0357_fc_dnn_false_clock_35_n02708093_6813.png,n02708093_6813.png,0.0,-0.3158791,1.43906,-1.2409294
alexnet2023_baseline_pgd,1,358,NaN,oven,oven,false,0358_fc_dnn_false_oven_35_n04111531_8036.png,n04111531_8036.png,1.0,3.5929077,2.5351124,0.7479742
alexnet2023_baseline_pgd,1,359,NaN,clock,clock,false,0359_fc_dnn_false_clock_35_n02708093_3454.png,n02708093_3454.png,1.0,19.412277,7.7981086,8.212458
alexnet2023_baseline_pgd,1,360,NaN,keyboard,keyboard,true,0360_fc_dnn_true_keyboard_35_n03085013_21641.png,n03085013_21641.png,1.0,15.715969,5.4083743,7.28857
alexnet2023_baseline_pgd,1,361,NaN,knife,chair,false,0361_fc_dnn_false_chair_35_n02791124_139.png,n02791124_139.png,0.0,3.3013005,3.8992317,-0.42280117
alexnet2023_baseline_pgd,1,362,NaN,bear,bear,false,0362_fc_dnn_false_bear_35_n02134084_6821.png,n02134084_6821.png,1.0,9.024515,7.012262,1.4228779
alexnet2023_baseline_pgd,1,363,NaN,cat,cat,false,0363_fc_dnn_false_cat_35_n02124075_5874.png,n02124075_5874.png,1.0,10.652499,4.318278,4.478971
alexnet2023_baseline_pgd,1,364,NaN,chair,chair,false,0364_fc_dnn_false_chair_35_n04099969_8604.png,n04099969_8604.png,1.0,5.642957,3.576715,1.461054
alexnet2023_baseline_pgd,1,365,NaN,bicycle,bicycle,true,0365_fc_dnn_true_bicycle_35_n02835271_15524.png,n02835271_15524.png,1.0,16.196104,6.437069,6.90068
alexnet2023_baseline_pgd,1,366,NaN,chair,chair,false,0366_fc_dnn_false_chair_35_n04429376_55163.png,n04429376_55163.png,1.0,7.865391,4.262262,2.547797
alexnet2023_baseline_pgd,1,367,NaN,dog,dog,true,0367_fc_dnn_true_dog_35_n02106662_10632.png,n02106662_10632.png,1.0,11.9822855,4.894537,5.011795
alexnet2023_baseline_pgd,1,368,NaN,car,car,false,0368_fc_dnn_false_car_35_n03100240_9675.png,n03100240_9675.png,1.0,22.076303,11.021968,7.816596
alexnet2023_baseline_pgd,1,369,NaN,bird,bird,true,0369_fc_dnn_true_bird_35_n02011460_22291.png,n02011460_22291.png,1.0,5.504242,2.5488708,2.089763
alexnet2023_baseline_pgd,1,370,NaN,elephant,dog,false,0370_fc_dnn_false_dog_35_n02106662_56099.png,n02106662_56099.png,0.0,1.5420116,2.637943,-0.77494055
alexnet2023_baseline_pgd,1,371,NaN,keyboard,keyboard,false,0371_fc_dnn_false_keyboard_35_n04505470_3970.png,n04505470_3970.png,1.0,7.9748697,5.530657,1.7283195
alexnet2023_baseline_pgd,1,372,NaN,bicycle,boat,false,0372_fc_dnn_false_boat_35_n03662601_32803.png,n03662601_32803.png,0.0,8.077312,9.787325,-1.2091614
alexnet2023_baseline_pgd,1,373,NaN,bottle,bottle,false,0373_fc_dnn_false_bottle_35_n02823428_4043.png,n02823428_4043.png,1.0,10.816963,4.3040233,4.6053443
alexnet2023_baseline_pgd,1,374,NaN,airplane,airplane,true,0374_fc_dnn_true_airplane_35_n02690373_5221.png,n02690373_5221.png,1.0,16.442883,7.687237,6.1911764
alexnet2023_baseline_pgd,1,375,NaN,knife,knife,false,0375_fc_dnn_false_knife_35_n03041632_90125.png,n03041632_90125.png,1.0,6.3499336,5.394261,0.6757627
alexnet2023_baseline_pgd,1,376,NaN,oven,oven,false,0376_fc_dnn_false_oven_35_n04111531_11230.png,n04111531_11230.png,1.0,9.946244,6.427325,2.488252
alexnet2023_baseline_pgd,1,377,NaN,keyboard,keyboard,true,0377_fc_dnn_true_keyboard_35_n04505470_3002.png,n04505470_3002.png,1.0,7.909545,2.6802316,3.697683
alexnet2023_baseline_pgd,1,378,NaN,bicycle,bicycle,true,0378_fc_dnn_true_bicycle_35_n02835271_12237.png,n02835271_12237.png,1.0,15.081064,4.811406,7.261745
alexnet2023_baseline_pgd,1,379,NaN,elephant,dog,false,0379_fc_dnn_false_dog_35_n02088238_9947.png,n02088238_9947.png,0.0,2.0447233,2.5278702,-0.34163645
alexnet2023_baseline_pgd,1,380,NaN,elephant,airplane,false,0380_fc_dnn_false_airplane_35_n02690373_2075.png,n02690373_2075.png,0.0,5.0834618,6.8132277,-1.2231293
alexnet2023_baseline_pgd,1,381,NaN,bicycle,bicycle,false,0381_fc_dnn_false_bicycle_35_n02835271_12930.png,n02835271_12930.png,1.0,15.302273,4.587123,7.576755
alexnet2023_baseline_pgd,1,382,NaN,elephant,dog,false,0382_fc_dnn_false_dog_35_n02096294_4609.png,n02096294_4609.png,0.0,4.1128416,7.2120123,-2.1914446
alexnet2023_baseline_pgd,1,383,NaN,knife,knife,false,0383_fc_dnn_false_knife_35_n03041632_15754.png,n03041632_15754.png,1.0,8.911204,3.7225163,3.6689568
alexnet2023_baseline_pgd,1,384,NaN,cat,bird,true,0384_fc_dnn_true_bird_35_n01819313_5634.png,n01819313_5634.png,0.0,3.2169952,4.239721,-0.7231762
alexnet2023_baseline_pgd,1,385,NaN,clock,clock,true,0385_fc_dnn_true_clock_35_n02708093_8386.png,n02708093_8386.png,1.0,9.479478,4.48611,3.5308442
alexnet2023_baseline_pgd,1,386,NaN,bottle,bottle,false,0386_fc_dnn_false_bottle_35_n04579145_6435.png,n04579145_6435.png,1.0,7.862921,2.565281,3.7459974
alexnet2023_baseline_pgd,1,387,NaN,airplane,airplane,true,0387_fc_dnn_true_airplane_35_n02690373_9531.png,n02690373_9531.png,1.0,17.325748,6.9353495,7.3471217
alexnet2023_baseline_pgd,1,388,NaN,bicycle,bottle,true,0388_fc_dnn_true_bottle_35_n04591713_5518.png,n04591713_5518.png,0.0,2.8770065,5.2913084,-1.7071693
alexnet2023_baseline_pgd,1,389,NaN,airplane,airplane,false,0389_fc_dnn_false_airplane_35_n02690373_12896.png,n02690373_12896.png,1.0,21.375042,5.495711,11.228383
alexnet2023_baseline_pgd,1,390,NaN,truck,truck,false,0390_fc_dnn_false_truck_35_n03796401_124.png,n03796401_124.png,1.0,8.376092,7.5249457,0.6018513
alexnet2023_baseline_pgd,1,391,NaN,bicycle,bicycle,true,0391_fc_dnn_true_bicycle_35_n03792782_7050.png,n03792782_7050.png,1.0,6.351268,3.3905907,2.093515
alexnet2023_baseline_pgd,1,392,NaN,bicycle,bicycle,true,0392_fc_dnn_true_bicycle_35_n02835271_13729.png,n02835271_13729.png,1.0,13.440342,2.3193233,7.8637476
alexnet2023_baseline_pgd,1,393,NaN,bird,bird,false,0393_fc_dnn_false_bird_35_n02027492_3922.png,n02027492_3922.png,1.0,6.6033516,2.5729408,2.8499308
alexnet2023_baseline_pgd,1,394,NaN,elephant,elephant,true,0394_fc_dnn_true_elephant_35_n02504013_9809.png,n02504013_9809.png,1.0,15.24353,4.1553736,7.840511
alexnet2023_baseline_pgd,1,395,NaN,keyboard,keyboard,false,0395_fc_dnn_false_keyboard_35_n04505470_5086.png,n04505470_5086.png,1.0,10.139878,3.7469232,4.5205016
alexnet2023_baseline_pgd,1,396,NaN,keyboard,keyboard,true,0396_fc_dnn_true_keyboard_35_n03085013_19439.png,n03085013_19439.png,1.0,10.384592,5.5048723,3.450483
alexnet2023_baseline_pgd,1,397,NaN,airplane,airplane,false,0397_fc_dnn_false_airplane_35_n02690373_9926.png,n02690373_9926.png,1.0,12.432976,4.7555423,5.4287653
alexnet2023_baseline_pgd,1,398,NaN,elephant,elephant,true,0398_fc_dnn_true_elephant_35_n02504458_3197.png,n02504458_3197.png,1.0,25.46492,9.057034,11.602128
alexnet2023_baseline_pgd,1,399,NaN,dog,dog,false,0399_fc_dnn_false_dog_35_n02110185_14056.png,n02110185_14056.png,1.0,8.305681,3.335804,3.514234
alexnet2023_baseline_pgd,1,400,NaN,airplane,airplane,true,0400_fc_dnn_true_airplane_35_n02690373_2823.png,n02690373_2823.png,1.0,28.836945,10.12838,13.228953
alexnet2023_baseline_pgd,1,401,NaN,bicycle,bicycle,false,0401_fc_dnn_false_bicycle_35_n02835271_14157.png,n02835271_14157.png,1.0,18.800209,4.479608,10.126194
alexnet2023_baseline_pgd,1,402,NaN,chair,chair,true,0402_fc_dnn_true_chair_35_n03376595_606.png,n03376595_606.png,1.0,7.1737585,2.536565,3.2789912
alexnet2023_baseline_pgd,1,403,NaN,airplane,airplane,false,0403_fc_dnn_false_airplane_35_n02690373_1442.png,n02690373_1442.png,1.0,18.319094,3.1983829,10.691957
alexnet2023_baseline_pgd,1,404,NaN,keyboard,keyboard,true,0404_fc_dnn_true_keyboard_35_n04505470_10035.png,n04505470_10035.png,1.0,11.907787,5.879145,4.2628937
alexnet2023_baseline_pgd,1,405,NaN,bear,bear,true,0405_fc_dnn_true_bear_35_n02133161_13278.png,n02133161_13278.png,1.0,12.625657,10.601074,1.4315963
alexnet2023_baseline_pgd,1,406,NaN,elephant,bear,true,0406_fc_dnn_true_bear_35_n02134418_2657.png,n02134418_2657.png,0.0,5.2767916,8.175235,-2.0495088
alexnet2023_baseline_pgd,1,407,NaN,bear,bear,false,0407_fc_dnn_false_bear_35_n02133161_12894.png,n02133161_12894.png,1.0,10.610038,5.799678,3.4014382
alexnet2023_baseline_pgd,1,408,NaN,car,clock,false,0408_fc_dnn_false_clock_35_n03196217_6195.png,n03196217_6195.png,0.0,7.647663,9.21326,-1.107044
alexnet2023_baseline_pgd,1,409,NaN,bottle,bottle,true,0409_fc_dnn_true_bottle_35_n04591713_13349.png,n04591713_13349.png,1.0,13.629121,4.0603695,6.766129
alexnet2023_baseline_pgd,1,410,NaN,boat,boat,false,0410_fc_dnn_false_boat_35_n04273569_16295.png,n04273569_16295.png,1.0,8.507281,8.466062,0.029146738
alexnet2023_baseline_pgd,1,411,NaN,elephant,elephant,false,0411_fc_dnn_false_elephant_35_n02504013_2672.png,n02504013_2672.png,1.0,18.714642,6.7737436,8.44349
alexnet2023_baseline_pgd,1,412,NaN,bear,bear,true,0412_fc_dnn_true_bear_35_n02134084_22292.png,n02134084_22292.png,1.0,12.581751,5.850417,4.759772
alexnet2023_baseline_pgd,1,413,NaN,airplane,airplane,false,0413_fc_dnn_false_airplane_35_n02690373_997.png,n02690373_997.png,1.0,10.057992,6.7931595,2.3085852
alexnet2023_baseline_pgd,1,414,NaN,knife,knife,true,0414_fc_dnn_true_knife_35_n03041632_29337.png,n03041632_29337.png,1.0,9.42829,2.928785,4.5958443
alexnet2023_baseline_pgd,1,415,NaN,elephant,elephant,true,0415_fc_dnn_true_elephant_35_n02504458_3261.png,n02504458_3261.png,1.0,17.594887,4.578378,9.2040615
alexnet2023_baseline_pgd,1,416,NaN,oven,oven,true,0416_fc_dnn_true_oven_35_n04111531_22120.png,n04111531_22120.png,1.0,18.278126,7.358734,7.721176
alexnet2023_baseline_pgd,1,417,NaN,bear,bear,true,0417_fc_dnn_true_bear_35_n02134418_830.png,n02134418_830.png,1.0,9.264688,7.715578,1.0953858
alexnet2023_baseline_pgd,1,418,NaN,truck,truck,false,0418_fc_dnn_false_truck_35_n03417042_2124.png,n03417042_2124.png,1.0,11.572631,8.109628,2.448713
alexnet2023_baseline_pgd,1,419,NaN,bicycle,bicycle,false,0419_fc_dnn_false_bicycle_35_n02835271_14585.png,n02835271_14585.png,1.0,14.356461,4.3254743,7.092979
alexnet2023_baseline_pgd,1,420,NaN,oven,oven,true,0420_fc_dnn_true_oven_35_n04111531_2855.png,n04111531_2855.png,1.0,9.012848,5.3052144,2.621693
alexnet2023_baseline_pgd,1,421,NaN,cat,cat,false,0421_fc_dnn_false_cat_35_n02123394_4383.png,n02123394_4383.png,1.0,6.679447,4.534799,1.5164952
alexnet2023_baseline_pgd,1,422,NaN,cat,cat,true,0422_fc_dnn_true_cat_35_n02125311_17068.png,n02125311_17068.png,1.0,6.0343833,5.560399,0.33515748
alexnet2023_baseline_pgd,1,423,NaN,bird,bird,false,0423_fc_dnn_false_bird_35_n01560419_2291.png,n01560419_2291.png,1.0,11.44067,1.5240923,7.0120792
alexnet2023_baseline_pgd,1,424,NaN,elephant,bird,false,0424_fc_dnn_false_bird_35_n01829413_2459.png,n01829413_2459.png,0.0,3.2825572,4.0111866,-0.51521873
alexnet2023_baseline_pgd,1,425,NaN,oven,oven,true,0425_fc_dnn_true_oven_35_n04111531_13822.png,n04111531_13822.png,1.0,17.572224,3.3788424,10.036237
alexnet2023_baseline_pgd,1,426,NaN,bear,bear,false,0426_fc_dnn_false_bear_35_n02133161_5067.png,n02133161_5067.png,1.0,13.967361,9.472374,3.1784363
alexnet2023_baseline_pgd,1,427,NaN,chair,chair,false,0427_fc_dnn_false_chair_35_n02791124_885.png,n02791124_885.png,1.0,4.18164,2.6431353,1.0878872
alexnet2023_baseline_pgd,1,428,NaN,cat,dog,true,0428_fc_dnn_true_dog_35_n02107312_7182.png,n02107312_7182.png,0.0,2.9186468,3.3668659,-0.31693873
alexnet2023_baseline_pgd,1,429,NaN,truck,truck,true,0429_fc_dnn_true_truck_35_n04467665_13989.png,n04467665_13989.png,1.0,9.171186,7.0320263,1.5126147
alexnet2023_baseline_pgd,1,430,NaN,dog,dog,true,0430_fc_dnn_true_dog_35_n02102480_10232.png,n02102480_10232.png,1.0,8.194986,5.564536,1.8600092
alexnet2023_baseline_pgd,1,431,NaN,oven,oven,false,0431_fc_dnn_false_oven_35_n04111531_643.png,n04111531_643.png,1.0,9.235721,5.8436794,2.3985355
alexnet2023_baseline_pgd,1,432,NaN,boat,boat,true,0432_fc_dnn_true_boat_35_n02951358_31514.png,n02951358_31514.png,1.0,10.545095,9.817664,0.51437163
alexnet2023_baseline_pgd,1,433,NaN,oven,oven,true,0433_fc_dnn_true_oven_35_n04111531_1898.png,n04111531_1898.png,1.0,17.963686,5.8932543,8.535085
alexnet2023_baseline_pgd,1,434,NaN,car,car,true,0434_fc_dnn_true_car_35_n03100240_5865.png,n03100240_5865.png,1.0,16.90955,12.373329,3.2075922
alexnet2023_baseline_pgd,1,435,NaN,keyboard,keyboard,true,0435_fc_dnn_true_keyboard_35_n04505470_4369.png,n04505470_4369.png,1.0,19.995356,9.626542,7.3318586
alexnet2023_baseline_pgd,1,436,NaN,bottle,cat,false,0436_fc_dnn_false_cat_35_n02123394_1942.png,n02123394_1942.png,0.0,0.5301524,3.0565116,-1.7864058
alexnet2023_baseline_pgd,1,437,NaN,car,car,true,0437_fc_dnn_true_car_35_n04285008_2900.png,n04285008_2900.png,1.0,16.92286,9.73098,5.085427
alexnet2023_baseline_pgd,1,438,NaN,airplane,airplane,true,0438_fc_dnn_true_airplane_35_n02690373_10926.png,n02690373_10926.png,1.0,21.519918,6.8779473,10.353437
alexnet2023_baseline_pgd,1,439,NaN,knife,knife,true,0439_fc_dnn_true_knife_35_n03041632_11613.png,n03041632_11613.png,1.0,5.533373,4.3724875,0.8208699
alexnet2023_baseline_pgd,1,440,NaN,elephant,knife,true,0440_fc_dnn_true_knife_35_n03041632_24817.png,n03041632_24817.png,0.0,4.092463,4.746565,-0.46251985
alexnet2023_baseline_pgd,1,441,NaN,bicycle,bicycle,true,0441_fc_dnn_true_bicycle_35_n02835271_3042.png,n02835271_3042.png,1.0,18.946957,2.9777305,11.291948
alexnet2023_baseline_pgd,1,442,NaN,dog,dog,true,0442_fc_dnn_true_dog_35_n02102177_7737.png,n02102177_7737.png,1.0,9.267356,6.9685435,1.6255058
alexnet2023_baseline_pgd,1,443,NaN,oven,oven,true,0443_fc_dnn_true_oven_35_n04111531_21460.png,n04111531_21460.png,1.0,16.980793,4.7438126,8.652852
alexnet2023_baseline_pgd,1,444,NaN,oven,keyboard,false,0444_fc_dnn_false_keyboard_35_n04505470_7388.png,n04505470_7388.png,0.0,7.7507057,7.932276,-0.12838942
alexnet2023_baseline_pgd,1,445,NaN,bird,bird,true,0445_fc_dnn_true_bird_35_n01828970_25642.png,n01828970_25642.png,1.0,12.069443,3.8705778,5.797473
alexnet2023_baseline_pgd,1,446,NaN,bicycle,bicycle,false,0446_fc_dnn_false_bicycle_35_n02835271_608.png,n02835271_608.png,1.0,7.5997686,2.536788,3.580068
alexnet2023_baseline_pgd,1,447,NaN,boat,boat,true,0447_fc_dnn_true_boat_35_n04273569_26182.png,n04273569_26182.png,1.0,14.778964,13.553705,0.86638886
alexnet2023_baseline_pgd,1,448,NaN,cat,cat,false,0448_fc_dnn_false_cat_35_n02123045_9384.png,n02123045_9384.png,1.0,8.36004,3.841385,3.1951716
alexnet2023_baseline_pgd,1,449,NaN,airplane,airplane,true,0449_fc_dnn_true_airplane_35_n02690373_9529.png,n02690373_9529.png,1.0,30.229797,7.80803,15.854585
alexnet2023_baseline_pgd,1,450,NaN,knife,cat,true,0450_fc_dnn_true_cat_35_n02123597_5081.png,n02123597_5081.png,0.0,0.8929226,3.5845013,-1.9032335
alexnet2023_baseline_pgd,1,451,NaN,oven,oven,false,0451_fc_dnn_false_oven_35_n04111531_4998.png,n04111531_4998.png,1.0,6.171946,5.130116,0.7366851
alexnet2023_baseline_pgd,1,452,NaN,clock,clock,true,0452_fc_dnn_true_clock_35_n04548280_1245.png,n04548280_1245.png,1.0,17.823452,5.5695267,8.664834
alexnet2023_baseline_pgd,1,453,NaN,dog,dog,true,0453_fc_dnn_true_dog_35_n02104365_8609.png,n02104365_8609.png,1.0,4.632914,3.863057,0.54437125
alexnet2023_baseline_pgd,1,454,NaN,clock,clock,false,0454_fc_dnn_false_clock_35_n02708093_6414.png,n02708093_6414.png,1.0,7.4855285,2.2280312,3.717612
alexnet2023_baseline_pgd,1,455,NaN,bird,bird,true,0455_fc_dnn_true_bird_35_n01798484_9155.png,n01798484_9155.png,1.0,4.7477846,2.1858065,1.8115921
alexnet2023_baseline_pgd,1,456,NaN,oven,oven,true,0456_fc_dnn_true_oven_35_n04111531_10724.png,n04111531_10724.png,1.0,8.982811,3.2714496,4.0385423
alexnet2023_baseline_pgd,1,457,NaN,boat,boat,true,0457_fc_dnn_true_boat_35_n02951358_32687.png,n02951358_32687.png,1.0,11.473501,4.1692643,5.1648755
alexnet2023_baseline_pgd,1,458,NaN,bicycle,bicycle,true,0458_fc_dnn_true_bicycle_35_n02835271_31.png,n02835271_31.png,1.0,13.692112,6.472745,5.1048636
alexnet2023_baseline_pgd,1,459,NaN,bottle,bottle,true,0459_fc_dnn_true_bottle_35_n04557648_4420.png,n04557648_4420.png,1.0,3.3823094,2.9182892,0.3281119
alexnet2023_baseline_pgd,1,460,NaN,bear,bear,true,0460_fc_dnn_true_bear_35_n02133161_713.png,n02133161_713.png,1.0,14.811687,11.421103,2.3975058
alexnet2023_baseline_pgd,1,461,NaN,airplane,airplane,false,0461_fc_dnn_false_airplane_35_n02690373_5967.png,n02690373_5967.png,1.0,19.500437,5.8257833,9.66944
alexnet2023_baseline_pgd,1,462,NaN,bird,bird,true,0462_fc_dnn_true_bird_35_n01795545_4502.png,n01795545_4502.png,1.0,6.778829,4.3733025,1.7009642
alexnet2023_baseline_pgd,1,463,NaN,cat,cat,true,0463_fc_dnn_true_cat_35_n02124075_11466.png,n02124075_11466.png,1.0,9.034852,5.618803,2.4155114
alexnet2023_baseline_pgd,1,464,NaN,keyboard,keyboard,true,0464_fc_dnn_true_keyboard_35_n03085013_21769.png,n03085013_21769.png,1.0,5.2641573,5.148756,0.08160102
alexnet2023_baseline_pgd,1,465,NaN,car,car,false,0465_fc_dnn_false_car_35_n03100240_15097.png,n03100240_15097.png,1.0,7.9037576,4.712776,2.2563646
alexnet2023_baseline_pgd,1,466,NaN,bear,dog,false,0466_fc_dnn_false_dog_35_n02093647_3072.png,n02093647_3072.png,0.0,1.6325608,3.4411678,-1.2788783
alexnet2023_baseline_pgd,1,467,NaN,bicycle,bicycle,false,0467_fc_dnn_false_bicycle_35_n02835271_12701.png,n02835271_12701.png,1.0,10.31923,4.5761423,4.0609765
alexnet2023_baseline_pgd,1,468,NaN,dog,bear,false,0468_fc_dnn_false_bear_35_n02134084_3227.png,n02134084_3227.png,0.0,4.95036,5.2573237,-0.21705627
alexnet2023_baseline_pgd,1,469,NaN,cat,cat,true,0469_fc_dnn_true_cat_35_n02123394_5001.png,n02123394_5001.png,1.0,8.3991995,4.341096,2.8695126
alexnet2023_baseline_pgd,1,470,NaN,keyboard,keyboard,true,0470_fc_dnn_true_keyboard_35_n03085013_6862.png,n03085013_6862.png,1.0,9.259708,2.1373403,5.036275
alexnet2023_baseline_pgd,1,471,NaN,chair,chair,true,0471_fc_dnn_true_chair_35_n04099969_45461.png,n04099969_45461.png,1.0,10.94491,1.936578,6.369853
alexnet2023_baseline_pgd,1,472,NaN,bicycle,bicycle,false,0472_fc_dnn_false_bicycle_35_n03792782_485.png,n03792782_485.png,1.0,12.705052,1.484516,7.9341173
alexnet2023_baseline_pgd,1,473,NaN,oven,oven,true,0473_fc_dnn_true_oven_35_n04111531_1674.png,n04111531_1674.png,1.0,8.203885,5.588029,1.8496897
alexnet2023_baseline_pgd,1,474,NaN,airplane,airplane,true,0474_fc_dnn_true_airplane_35_n02690373_866.png,n02690373_866.png,1.0,23.285715,4.636519,13.186974
alexnet2023_baseline_pgd,1,475,NaN,bear,oven,false,0475_fc_dnn_false_oven_35_n04111531_9297.png,n04111531_9297.png,0.0,-1.1409934,1.561879,-1.9112194
alexnet2023_baseline_pgd,1,476,NaN,elephant,elephant,false,0476_fc_dnn_false_elephant_35_n02504458_6878.png,n02504458_6878.png,1.0,12.299854,4.7761207,5.320083
alexnet2023_baseline_pgd,1,477,NaN,car,car,true,0477_fc_dnn_true_car_35_n03100240_3151.png,n03100240_3151.png,1.0,13.38976,6.9024787,4.5872006
alexnet2023_baseline_pgd,1,478,NaN,airplane,airplane,false,0478_fc_dnn_false_airplane_35_n02690373_6363.png,n02690373_6363.png,1.0,11.171327,5.618956,3.9261189
alexnet2023_baseline_pgd,1,479,NaN,car,car,true,0479_fc_dnn_true_car_35_n04285008_15049.png,n04285008_15049.png,1.0,16.584106,10.067921,4.6076393
alexnet2023_baseline_pgd,1,480,NaN,truck,truck,true,0480_fc_dnn_true_truck_35_n04467665_2505.png,n04467665_2505.png,1.0,8.675484,6.1479506,1.7872357
alexnet2023_baseline_pgd,1,481,NaN,oven,bottle,true,0481_fc_dnn_true_bottle_35_n04591713_4030.png,n04591713_4030.png,0.0,2.9182885,5.5468884,-1.8587009
alexnet2023_baseline_pgd,1,482,NaN,oven,oven,true,0482_fc_dnn_true_oven_35_n04111531_12929.png,n04111531_12929.png,1.0,10.055714,4.447092,3.9658945
alexnet2023_baseline_pgd,1,483,NaN,cat,cat,true,0483_fc_dnn_true_cat_35_n02125311_53315.png,n02125311_53315.png,1.0,8.7775755,7.477643,0.91919106
alexnet2023_baseline_pgd,1,484,NaN,dog,dog,true,0484_fc_dnn_true_dog_35_n02087046_4409.png,n02087046_4409.png,1.0,6.7423735,4.6944895,1.4480727
alexnet2023_baseline_pgd,1,485,NaN,oven,oven,false,0485_fc_dnn_false_oven_35_n04111531_21120.png,n04111531_21120.png,1.0,3.514687,3.1907654,0.22904722
alexnet2023_baseline_pgd,1,486,NaN,elephant,elephant,false,0486_fc_dnn_false_elephant_35_n02504013_5934.png,n02504013_5934.png,1.0,7.8640757,3.5982437,3.0163987
alexnet2023_baseline_pgd,1,487,NaN,car,car,true,0487_fc_dnn_true_car_35_n04285008_3631.png,n04285008_3631.png,1.0,15.986226,9.936472,4.277822
alexnet2023_baseline_pgd,1,488,NaN,clock,clock,true,0488_fc_dnn_true_clock_35_n03196217_7663.png,n03196217_7663.png,1.0,8.369418,6.2564297,1.4941086
alexnet2023_baseline_pgd,1,489,NaN,bicycle,bicycle,false,0489_fc_dnn_false_bicycle_35_n03792782_801.png,n03792782_801.png,1.0,5.176929,5.062797,0.08070346
alexnet2023_baseline_pgd,1,490,NaN,cat,bear,false,0490_fc_dnn_false_bear_35_n02133161_6983.png,n02133161_6983.png,0.0,3.469988,6.9020333,-2.4268224
alexnet2023_baseline_pgd,1,491,NaN,keyboard,keyboard,true,0491_fc_dnn_true_keyboard_35_n03085013_20825.png,n03085013_20825.png,1.0,13.402233,4.994194,5.9453816
alexnet2023_baseline_pgd,1,492,NaN,clock,clock,true,0492_fc_dnn_true_clock_35_n03196217_1219.png,n03196217_1219.png,1.0,7.670834,5.8744774,1.270216
alexnet2023_baseline_pgd,1,493,NaN,airplane,airplane,true,0493_fc_dnn_true_airplane_35_n02690373_18864.png,n02690373_18864.png,1.0,18.3905,8.367773,7.0871377
alexnet2023_baseline_pgd,1,494,NaN,airplane,airplane,false,0494_fc_dnn_false_airplane_35_n02690373_1019.png,n02690373_1019.png,1.0,7.8980913,1.0372412,4.8513536
alexnet2023_baseline_pgd,1,495,NaN,bird,bird,true,0495_fc_dnn_true_bird_35_n02013706_10478.png,n02013706_10478.png,1.0,7.2411146,1.5149714,4.048995
alexnet2023_baseline_pgd,1,496,NaN,elephant,bear,true,0496_fc_dnn_true_bear_35_n02132136_258.png,n02132136_258.png,0.0,5.2548585,5.90886,-0.46244904
alexnet2023_baseline_pgd,1,497,NaN,cat,chair,false,0497_fc_dnn_false_chair_35_n04099969_16350.png,n04099969_16350.png,0.0,-1.912014,3.1794055,-3.600177
alexnet2023_baseline_pgd,1,498,NaN,chair,chair,true,0498_fc_dnn_true_chair_35_n04099969_16456.png,n04099969_16456.png,1.0,10.233743,2.8179746,5.24374
alexnet2023_baseline_pgd,1,499,NaN,bottle,bottle,false,0499_fc_dnn_false_bottle_35_n03983396_12027.png,n03983396_12027.png,1.0,5.950519,4.217806,1.2252133
alexnet2023_baseline_pgd,1,500,NaN,chair,chair,true,0500_fc_dnn_true_chair_35_n02791124_5438.png,n02791124_5438.png,1.0,15.326787,4.031486,7.9869843
alexnet2023_baseline_pgd,1,501,NaN,elephant,elephant,true,0501_fc_dnn_true_elephant_35_n02504458_4939.png,n02504458_4939.png,1.0,21.665564,7.3326983,10.134866
alexnet2023_baseline_pgd,1,502,NaN,keyboard,keyboard,false,0502_fc_dnn_false_keyboard_35_n04505470_2600.png,n04505470_2600.png,1.0,13.9763,6.2505236,5.4629493
alexnet2023_baseline_pgd,1,503,NaN,chair,chair,true,0503_fc_dnn_true_chair_35_n03376595_7394.png,n03376595_7394.png,1.0,6.670278,5.3050485,0.96536314
alexnet2023_baseline_pgd,1,504,NaN,bicycle,bicycle,false,0504_fc_dnn_false_bicycle_35_n02835271_9772.png,n02835271_9772.png,1.0,6.3296704,3.5936902,1.9346303
alexnet2023_baseline_pgd,1,505,NaN,car,car,true,0505_fc_dnn_true_car_35_n02814533_55937.png,n02814533_55937.png,1.0,15.076373,9.132029,4.203286
alexnet2023_baseline_pgd,1,506,NaN,airplane,airplane,true,0506_fc_dnn_true_airplane_35_n02690373_3920.png,n02690373_3920.png,1.0,11.555853,8.186094,2.3827791
alexnet2023_baseline_pgd,1,507,NaN,oven,oven,false,0507_fc_dnn_false_oven_35_n04111531_6400.png,n04111531_6400.png,1.0,9.535477,3.8951027,3.9883468
alexnet2023_baseline_pgd,1,508,NaN,bicycle,truck,false,0508_fc_dnn_false_truck_35_n03417042_4587.png,n03417042_4587.png,0.0,5.080397,8.862581,-2.6744082
alexnet2023_baseline_pgd,1,509,NaN,knife,knife,true,0509_fc_dnn_true_knife_35_n03041632_31849.png,n03041632_31849.png,1.0,10.061959,3.4770103,4.6562624
alexnet2023_baseline_pgd,1,510,NaN,bear,cat,true,0510_fc_dnn_true_cat_35_n02125311_8541.png,n02125311_8541.png,0.0,5.0888247,8.93506,-2.7196987
alexnet2023_baseline_pgd,1,511,NaN,airplane,airplane,true,0511_fc_dnn_true_airplane_35_n02690373_2162.png,n02690373_2162.png,1.0,31.663849,11.952458,13.938059
alexnet2023_baseline_pgd,1,512,NaN,bear,dog,true,0512_fc_dnn_true_dog_35_n02108551_11297.png,n02108551_11297.png,0.0,7.4246798,7.6452374,-0.15595785
alexnet2023_baseline_pgd,1,513,NaN,car,car,true,0513_fc_dnn_true_car_35_n02814533_34396.png,n02814533_34396.png,1.0,23.791132,15.245269,6.042838
alexnet2023_baseline_pgd,1,514,NaN,elephant,elephant,true,0514_fc_dnn_true_elephant_35_n02504013_6431.png,n02504013_6431.png,1.0,15.405228,3.7642896,8.231386
alexnet2023_baseline_pgd,1,515,NaN,bicycle,bicycle,false,0515_fc_dnn_false_bicycle_35_n03792782_51723.png,n03792782_51723.png,1.0,11.242285,2.044509,6.50381
alexnet2023_baseline_pgd,1,516,NaN,dog,dog,false,0516_fc_dnn_false_dog_35_n02093754_5867.png,n02093754_5867.png,1.0,7.4118595,6.193661,0.8613963
alexnet2023_baseline_pgd,1,517,NaN,clock,clock,true,0517_fc_dnn_true_clock_35_n04548280_3245.png,n04548280_3245.png,1.0,8.4367485,3.678884,3.3643184
alexnet2023_baseline_pgd,1,518,NaN,airplane,airplane,true,0518_fc_dnn_true_airplane_35_n02690373_9762.png,n02690373_9762.png,1.0,22.213112,8.782205,9.497086
alexnet2023_baseline_pgd,1,519,NaN,bird,bird,true,0519_fc_dnn_true_bird_35_n02002724_2909.png,n02002724_2909.png,1.0,12.6463585,9.435817,2.270196
alexnet2023_baseline_pgd,1,520,NaN,knife,bottle,true,0520_fc_dnn_true_bottle_35_n04557648_10123.png,n04557648_10123.png,0.0,1.6953709,2.4972577,-0.5670196
alexnet2023_baseline_pgd,1,521,NaN,elephant,elephant,true,0521_fc_dnn_true_elephant_35_n02504013_5432.png,n02504013_5432.png,1.0,15.461853,9.1911335,4.434068
alexnet2023_baseline_pgd,1,522,NaN,cat,cat,false,0522_fc_dnn_false_cat_35_n02123597_4998.png,n02123597_4998.png,1.0,10.960786,3.612863,5.195766
alexnet2023_baseline_pgd,1,523,NaN,bottle,bottle,true,0523_fc_dnn_true_bottle_35_n04557648_11594.png,n04557648_11594.png,1.0,5.079483,2.3837514,1.9061701
alexnet2023_baseline_pgd,1,524,NaN,truck,clock,false,0524_fc_dnn_false_clock_35_n03196217_2567.png,n03196217_2567.png,0.0,3.7243264,3.730731,-0.0045287632
alexnet2023_baseline_pgd,1,525,NaN,truck,truck,false,0525_fc_dnn_false_truck_35_n03796401_9136.png,n03796401_9136.png,1.0,3.3502426,2.8289218,0.3686295
alexnet2023_baseline_pgd,1,526,NaN,boat,boat,false,0526_fc_dnn_false_boat_35_n03344393_8492.png,n03344393_8492.png,1.0,8.377378,4.500391,2.741444
alexnet2023_baseline_pgd,1,527,NaN,cat,cat,false,0527_fc_dnn_false_cat_35_n02123159_8267.png,n02123159_8267.png,1.0,5.1125627,3.8141284,0.9181317
alexnet2023_baseline_pgd,1,528,NaN,bottle,bottle,false,0528_fc_dnn_false_bottle_35_n04557648_12039.png,n04557648_12039.png,1.0,7.067196,2.8709545,2.9671907
alexnet2023_baseline_pgd,1,529,NaN,keyboard,keyboard,false,0529_fc_dnn_false_keyboard_35_n04505470_2828.png,n04505470_2828.png,1.0,16.579979,6.778494,6.9306965
alexnet2023_baseline_pgd,1,530,NaN,boat,boat,true,0530_fc_dnn_true_boat_35_n02951358_31198.png,n02951358_31198.png,1.0,10.762327,2.3168232,5.9718733
alexnet2023_baseline_pgd,1,531,NaN,oven,oven,false,0531_fc_dnn_false_oven_35_n04111531_5801.png,n04111531_5801.png,1.0,4.180152,0.50879794,2.5960393
alexnet2023_baseline_pgd,1,532,NaN,bicycle,bicycle,false,0532_fc_dnn_false_bicycle_35_n02835271_9672.png,n02835271_9672.png,1.0,14.940456,2.9611387,8.470657
alexnet2023_baseline_pgd,1,533,NaN,bottle,keyboard,false,0533_fc_dnn_false_keyboard_35_n03085013_23865.png,n03085013_23865.png,0.0,4.2439375,5.616244,-0.97036713
alexnet2023_baseline_pgd,1,534,NaN,keyboard,bottle,true,0534_fc_dnn_true_bottle_35_n04591713_7133.png,n04591713_7133.png,0.0,5.008258,7.9875402,-2.1066709
alexnet2023_baseline_pgd,1,535,NaN,car,car,true,0535_fc_dnn_true_car_35_n04285008_10006.png,n04285008_10006.png,1.0,22.270956,9.623516,8.94309
alexnet2023_baseline_pgd,1,536,NaN,airplane,airplane,true,0536_fc_dnn_true_airplane_35_n02690373_2431.png,n02690373_2431.png,1.0,11.65621,5.3363147,4.468841
alexnet2023_baseline_pgd,1,537,NaN,boat,boat,true,0537_fc_dnn_true_boat_35_n04612504_15440.png,n04612504_15440.png,1.0,5.3243775,2.6883671,1.8639408
alexnet2023_baseline_pgd,1,538,NaN,bicycle,bicycle,true,0538_fc_dnn_true_bicycle_35_n02835271_5648.png,n02835271_5648.png,1.0,14.368065,3.607683,7.608739
alexnet2023_baseline_pgd,1,539,NaN,airplane,airplane,false,0539_fc_dnn_false_airplane_35_n02690373_3173.png,n02690373_3173.png,1.0,22.26939,9.286212,9.180493
alexnet2023_baseline_pgd,1,540,NaN,oven,oven,false,0540_fc_dnn_false_oven_35_n04111531_82.png,n04111531_82.png,1.0,6.8380475,3.6601658,2.2471018
alexnet2023_baseline_pgd,1,541,NaN,bottle,chair,false,0541_fc_dnn_false_chair_35_n02791124_2057.png,n02791124_2057.png,0.0,3.610635,3.667946,-0.040525038
alexnet2023_baseline_pgd,1,542,NaN,elephant,elephant,true,0542_fc_dnn_true_elephant_35_n02504458_12175.png,n02504458_12175.png,1.0,11.610303,3.380025,5.8196855
alexnet2023_baseline_pgd,1,543,NaN,bottle,boat,false,0543_fc_dnn_false_boat_35_n03344393_6869.png,n03344393_6869.png,0.0,2.639563,7.56055,-3.4796634
alexnet2023_baseline_pgd,1,544,NaN,truck,truck,false,0544_fc_dnn_false_truck_35_n03417042_1000.png,n03417042_1000.png,1.0,11.889238,9.908681,1.4004656
alexnet2023_baseline_pgd,1,545,NaN,boat,boat,true,0545_fc_dnn_true_boat_35_n03344393_6890.png,n03344393_6890.png,1.0,5.288402,5.234009,0.038461868
alexnet2023_baseline_pgd,1,546,NaN,elephant,elephant,false,0546_fc_dnn_false_elephant_35_n02504458_4139.png,n02504458_4139.png,1.0,9.575562,4.6636777,3.4732263
alexnet2023_baseline_pgd,1,547,NaN,bear,bear,false,0547_fc_dnn_false_bear_35_n02132136_7231.png,n02132136_7231.png,1.0,19.83022,6.428741,9.476276
alexnet2023_baseline_pgd,1,548,NaN,elephant,bird,false,0548_fc_dnn_false_bird_35_n01860187_1815.png,n01860187_1815.png,0.0,4.7140326,5.2996173,-0.41407087
alexnet2023_baseline_pgd,1,549,NaN,knife,keyboard,true,0549_fc_dnn_true_keyboard_35_n03085013_18891.png,n03085013_18891.png,0.0,4.239602,4.4952474,-0.1807685
alexnet2023_baseline_pgd,1,550,NaN,bird,bird,false,0550_fc_dnn_false_bird_35_n01828970_2276.png,n01828970_2276.png,1.0,6.603652,1.3608116,3.707248
alexnet2023_baseline_pgd,1,551,NaN,elephant,elephant,false,0551_fc_dnn_false_elephant_35_n02504013_1720.png,n02504013_1720.png,1.0,14.462839,10.243303,2.9836624
alexnet2023_baseline_pgd,1,552,NaN,knife,knife,false,0552_fc_dnn_false_knife_35_n03041632_16104.png,n03041632_16104.png,1.0,10.504877,3.8438625,4.7100487
alexnet2023_baseline_pgd,1,553,NaN,chair,chair,false,0553_fc_dnn_false_chair_35_n03376595_635.png,n03376595_635.png,1.0,4.12498,3.6204355,0.35676685
alexnet2023_baseline_pgd,1,554,NaN,bottle,bottle,true,0554_fc_dnn_true_bottle_35_n03983396_6116.png,n03983396_6116.png,1.0,7.0013876,3.904475,2.189848
alexnet2023_baseline_pgd,1,555,NaN,dog,dog,true,0555_fc_dnn_true_dog_35_n02113624_2530.png,n02113624_2530.png,1.0,6.0222406,3.7801719,1.5853821
alexnet2023_baseline_pgd,1,556,NaN,bird,bird,true,0556_fc_dnn_true_bird_35_n01592084_3972.png,n01592084_3972.png,1.0,4.2473693,2.8950863,0.95620847
alexnet2023_baseline_pgd,1,557,NaN,airplane,airplane,true,0557_fc_dnn_true_airplane_35_n02690373_5130.png,n02690373_5130.png,1.0,16.076866,5.490442,7.485732
alexnet2023_baseline_pgd,1,558,NaN,bird,bird,true,0558_fc_dnn_true_bird_35_n01833805_7514.png,n01833805_7514.png,1.0,7.861362,6.4481206,0.9993126
alexnet2023_baseline_pgd,1,559,NaN,car,truck,false,0559_fc_dnn_false_truck_35_n03417042_16238.png,n03417042_16238.png,0.0,12.237995,12.838749,-0.4247971
alexnet2023_baseline_pgd,1,560,NaN,keyboard,keyboard,true,0560_fc_dnn_true_keyboard_35_n04505470_8620.png,n04505470_8620.png,1.0,16.446922,12.097861,3.0752506
alexnet2023_baseline_pgd,1,561,NaN,clock,clock,true,0561_fc_dnn_true_clock_35_n03196217_7888.png,n03196217_7888.png,1.0,7.6177773,4.5366,2.1787214
alexnet2023_baseline_pgd,1,562,NaN,knife,bottle,true,0562_fc_dnn_true_bottle_35_n04591713_5411.png,n04591713_5411.png,0.0,2.7647107,3.096867,-0.23487006
alexnet2023_baseline_pgd,1,563,NaN,clock,clock,false,0563_fc_dnn_false_clock_35_n03196217_2639.png,n03196217_2639.png,1.0,8.225521,6.1400743,1.4746336
alexnet2023_baseline_pgd,1,564,NaN,elephant,elephant,true,0564_fc_dnn_true_elephant_35_n02504458_6437.png,n02504458_6437.png,1.0,7.7450852,3.228718,3.1935537
alexnet2023_baseline_pgd,1,565,NaN,truck,truck,true,0565_fc_dnn_true_truck_35_n03417042_27586.png,n03417042_27586.png,1.0,13.282818,5.2544656,5.676903
alexnet2023_baseline_pgd,1,566,NaN,bottle,keyboard,false,0566_fc_dnn_false_keyboard_35_n03085013_24124.png,n03085013_24124.png,0.0,0.1848017,2.6580508,-1.7488512
alexnet2023_baseline_pgd,1,567,NaN,cat,cat,false,0567_fc_dnn_false_cat_35_n02123597_9663.png,n02123597_9663.png,1.0,4.9210176,2.6932795,1.5752487
alexnet2023_baseline_pgd,1,568,NaN,keyboard,keyboard,true,0568_fc_dnn_true_keyboard_35_n04505470_1833.png,n04505470_1833.png,1.0,13.734873,7.218643,4.6076703
alexnet2023_baseline_pgd,1,569,NaN,car,car,true,0569_fc_dnn_true_car_35_n04285008_4109.png,n04285008_4109.png,1.0,21.035007,12.580877,5.977973
alexnet2023_baseline_pgd,1,570,NaN,bicycle,bird,false,0570_fc_dnn_false_bird_35_n01558993_869.png,n01558993_869.png,0.0,-0.68083525,0.8446388,-1.0786731
alexnet2023_baseline_pgd,1,571,NaN,truck,truck,true,0571_fc_dnn_true_truck_35_n03796401_6980.png,n03796401_6980.png,1.0,8.152926,7.084518,0.7554789
alexnet2023_baseline_pgd,1,572,NaN,truck,truck,true,0572_fc_dnn_true_truck_35_n03796401_19058.png,n03796401_19058.png,1.0,16.237247,8.757588,5.2889175
alexnet2023_baseline_pgd,1,573,NaN,bear,bear,false,0573_fc_dnn_false_bear_35_n02134418_5033.png,n02134418_5033.png,1.0,4.412408,4.1580324,0.17987062
alexnet2023_baseline_pgd,1,574,NaN,truck,truck,false,0574_fc_dnn_false_truck_35_n03417042_6204.png,n03417042_6204.png,1.0,7.551449,4.987103,1.8132664
alexnet2023_baseline_pgd,1,575,NaN,bicycle,bicycle,true,0575_fc_dnn_true_bicycle_35_n03792782_7388.png,n03792782_7388.png,1.0,7.8784757,2.5084312,3.7971952
alexnet2023_baseline_pgd,1,576,NaN,truck,truck,true,0576_fc_dnn_true_truck_35_n03417042_1561.png,n03417042_1561.png,1.0,19.219728,12.593223,4.6856475
alexnet2023_baseline_pgd,1,577,NaN,elephant,elephant,true,0577_fc_dnn_true_elephant_35_n02504458_5501.png,n02504458_5501.png,1.0,22.55447,7.6316233,10.552047
alexnet2023_baseline_pgd,1,578,NaN,boat,boat,true,0578_fc_dnn_true_boat_35_n03662601_34124.png,n03662601_34124.png,1.0,14.29344,7.5443845,4.772303
alexnet2023_baseline_pgd,1,579,NaN,knife,knife,false,0579_fc_dnn_false_knife_35_n03041632_37949.png,n03041632_37949.png,1.0,3.4575813,2.7847521,0.47576207
alexnet2023_baseline_pgd,1,580,NaN,airplane,airplane,false,0580_fc_dnn_false_airplane_35_n02690373_13585.png,n02690373_13585.png,1.0,20.260508,3.3983207,11.923367
alexnet2023_baseline_pgd,1,581,NaN,bottle,knife,false,0581_fc_dnn_false_knife_35_n03041632_16932.png,n03041632_16932.png,0.0,1.5462568,2.4119306,-0.6121238
alexnet2023_baseline_pgd,1,582,NaN,bottle,chair,false,0582_fc_dnn_false_chair_35_n04429376_9501.png,n04429376_9501.png,0.0,0.81830895,4.519365,-2.6170418
alexnet2023_baseline_pgd,1,583,NaN,bird,bird,false,0583_fc_dnn_false_bird_35_n01532829_10530.png,n01532829_10530.png,1.0,3.120161,2.7624898,0.25291178
alexnet2023_baseline_pgd,1,584,NaN,bicycle,oven,false,0584_fc_dnn_false_oven_35_n04111531_1562.png,n04111531_1562.png,0.0,2.9291158,3.003995,-0.05294757
alexnet2023_baseline_pgd,1,585,NaN,clock,clock,false,0585_fc_dnn_false_clock_35_n02708093_260.png,n02708093_260.png,1.0,4.2967186,3.7388256,0.39448994
alexnet2023_baseline_pgd,1,586,NaN,bottle,bottle,true,0586_fc_dnn_true_bottle_35_n04579145_1457.png,n04579145_1457.png,1.0,7.339676,2.804156,3.2070968
alexnet2023_baseline_pgd,1,587,NaN,chair,chair,true,0587_fc_dnn_true_chair_35_n03376595_9897.png,n03376595_9897.png,1.0,4.487684,3.4976616,0.7000514
alexnet2023_baseline_pgd,1,588,NaN,bird,bird,true,0588_fc_dnn_true_bird_35_n01601694_4224.png,n01601694_4224.png,1.0,7.138857,4.9686522,1.5345664
alexnet2023_baseline_pgd,1,589,NaN,cat,cat,false,0589_fc_dnn_false_cat_35_n02123159_358.png,n02123159_358.png,1.0,9.223916,4.4470615,3.3777463
alexnet2023_baseline_pgd,1,590,NaN,bottle,bottle,true,0590_fc_dnn_true_bottle_35_n03983396_11788.png,n03983396_11788.png,1.0,10.92676,3.560553,5.208695
alexnet2023_baseline_pgd,1,591,NaN,cat,cat,true,0591_fc_dnn_true_cat_35_n02124075_8341.png,n02124075_8341.png,1.0,9.886565,2.032995,5.553313
alexnet2023_baseline_pgd,1,592,NaN,dog,dog,false,0592_fc_dnn_false_dog_35_n02109525_49924.png,n02109525_49924.png,1.0,7.114457,5.57656,1.0874575
alexnet2023_baseline_pgd,1,593,NaN,airplane,oven,false,0593_fc_dnn_false_oven_35_n04111531_797.png,n04111531_797.png,0.0,3.0709395,3.8973098,-0.584332
alexnet2023_baseline_pgd,1,594,NaN,bicycle,bicycle,true,0594_fc_dnn_true_bicycle_35_n02835271_15930.png,n02835271_15930.png,1.0,14.738926,4.163088,7.478247
alexnet2023_baseline_pgd,1,595,NaN,knife,knife,true,0595_fc_dnn_true_knife_35_n03041632_13656.png,n03041632_13656.png,1.0,9.976514,1.6308969,5.9012427
alexnet2023_baseline_pgd,1,596,NaN,clock,clock,false,0596_fc_dnn_false_clock_35_n02708093_8104.png,n02708093_8104.png,1.0,5.7517333,2.00795,2.6472545
alexnet2023_baseline_pgd,1,597,NaN,knife,truck,true,0597_fc_dnn_true_truck_35_n03796401_3148.png,n03796401_3148.png,0.0,1.4304268,5.803591,-3.0922942
alexnet2023_baseline_pgd,1,598,NaN,bicycle,bottle,false,0598_fc_dnn_false_bottle_35_n04560804_15263.png,n04560804_15263.png,0.0,2.493995,4.271393,-1.2568101
alexnet2023_baseline_pgd,1,599,NaN,airplane,airplane,true,0599_fc_dnn_true_airplane_35_n02690373_5003.png,n02690373_5003.png,1.0,17.998135,6.840416,7.8896985
alexnet2023_baseline_pgd,1,600,NaN,boat,boat,false,0600_fc_dnn_false_boat_35_n03344393_994.png,n03344393_994.png,1.0,6.9141326,3.4698567,2.4354708
alexnet2023_baseline_pgd,1,601,NaN,bicycle,bicycle,true,0601_fc_dnn_true_bicycle_35_n03792782_5959.png,n03792782_5959.png,1.0,16.696518,1.2528434,10.920327
alexnet2023_baseline_pgd,1,602,NaN,car,car,false,0602_fc_dnn_false_car_35_n04285008_9383.png,n04285008_9383.png,1.0,13.36573,6.287465,5.0050893
alexnet2023_baseline_pgd,1,603,NaN,chair,clock,true,0603_fc_dnn_true_clock_35_n03196217_5627.png,n03196217_5627.png,0.0,3.80548,5.8569074,-1.4505782
alexnet2023_baseline_pgd,1,604,NaN,bird,bird,true,0604_fc_dnn_true_bird_35_n01534433_13846.png,n01534433_13846.png,1.0,6.195896,3.1811984,2.1317134
alexnet2023_baseline_pgd,1,605,NaN,dog,dog,true,0605_fc_dnn_true_dog_35_n02105056_11269.png,n02105056_11269.png,1.0,3.9282956,3.7344286,0.13708465
alexnet2023_baseline_pgd,1,606,NaN,airplane,airplane,false,0606_fc_dnn_false_airplane_35_n02690373_9659.png,n02690373_9659.png,1.0,9.172058,4.578231,3.2483265
alexnet2023_baseline_pgd,1,607,NaN,chair,car,false,0607_fc_dnn_false_car_35_n04285008_3269.png,n04285008_3269.png,0.0,3.8466198,4.487484,-0.4531594
alexnet2023_baseline_pgd,1,608,NaN,bottle,bottle,true,0608_fc_dnn_true_bottle_35_n02823428_3178.png,n02823428_3178.png,1.0,7.0165215,2.8538017,2.9434874
alexnet2023_baseline_pgd,1,609,NaN,elephant,elephant,false,0609_fc_dnn_false_elephant_35_n02504458_4849.png,n02504458_4849.png,1.0,13.956339,2.479602,8.115278
alexnet2023_baseline_pgd,1,610,NaN,bear,bear,true,0610_fc_dnn_true_bear_35_n02134418_643.png,n02134418_643.png,1.0,8.184197,6.1294327,1.4529381
alexnet2023_baseline_pgd,1,611,NaN,boat,boat,true,0611_fc_dnn_true_boat_35_n03344393_7773.png,n03344393_7773.png,1.0,12.948034,3.1281946,6.943675
alexnet2023_baseline_pgd,1,612,NaN,car,car,true,0612_fc_dnn_true_car_35_n02814533_26516.png,n02814533_26516.png,1.0,24.542025,15.544981,6.361871
alexnet2023_baseline_pgd,1,613,NaN,bicycle,cat,false,0613_fc_dnn_false_cat_35_n02123597_3314.png,n02123597_3314.png,0.0,-0.39487198,2.5003178,-2.0472083
alexnet2023_baseline_pgd,1,614,NaN,bicycle,bicycle,true,0614_fc_dnn_true_bicycle_35_n02835271_6539.png,n02835271_6539.png,1.0,12.861013,2.7015522,7.183824
alexnet2023_baseline_pgd,1,615,NaN,bear,bear,true,0615_fc_dnn_true_bear_35_n02132136_3090.png,n02132136_3090.png,1.0,22.752802,10.280115,8.819522
alexnet2023_baseline_pgd,1,616,NaN,car,car,true,0616_fc_dnn_true_car_35_n03100240_9171.png,n03100240_9171.png,1.0,20.92285,10.093833,7.6572714
alexnet2023_baseline_pgd,1,617,NaN,cat,cat,false,0617_fc_dnn_false_cat_35_n02123045_12060.png,n02123045_12060.png,1.0,6.728905,1.8793967,3.4291203
alexnet2023_baseline_pgd,1,618,NaN,truck,truck,false,0618_fc_dnn_false_truck_35_n03796401_26801.png,n03796401_26801.png,1.0,4.4364347,3.8216681,0.43470564
alexnet2023_baseline_pgd,1,619,NaN,cat,cat,false,0619_fc_dnn_false_cat_35_n02123045_15010.png,n02123045_15010.png,1.0,7.32934,0.33178133,4.9480214
alexnet2023_baseline_pgd,1,620,NaN,knife,knife,true,0620_fc_dnn_true_knife_35_n03041632_24883.png,n03041632_24883.png,1.0,15.473793,5.4417624,7.0937166
alexnet2023_baseline_pgd,1,621,NaN,cat,cat,true,0621_fc_dnn_true_cat_35_n02123597_4040.png,n02123597_4040.png,1.0,5.6826763,4.796252,0.62679684
alexnet2023_baseline_pgd,1,622,NaN,bird,bird,true,0622_fc_dnn_true_bird_35_n01843383_3019.png,n01843383_3019.png,1.0,5.465704,3.7576957,1.2077442
alexnet2023_baseline_pgd,1,623,NaN,bear,bear,true,0623_fc_dnn_true_bear_35_n02132136_8619.png,n02132136_8619.png,1.0,14.537245,8.820605,4.0422745
alexnet2023_baseline_pgd,1,624,NaN,airplane,airplane,false,0624_fc_dnn_false_airplane_35_n02690373_1912.png,n02690373_1912.png,1.0,7.2361298,2.0686119,3.653987
alexnet2023_baseline_pgd,1,625,NaN,truck,truck,true,0625_fc_dnn_true_truck_35_n03417042_22828.png,n03417042_22828.png,1.0,14.318314,6.7123365,5.378238
alexnet2023_baseline_pgd,1,626,NaN,car,car,true,0626_fc_dnn_true_car_35_n03100240_2909.png,n03100240_2909.png,1.0,16.91926,9.009792,5.5928383
alexnet2023_baseline_pgd,1,627,NaN,oven,oven,true,0627_fc_dnn_true_oven_35_n04111531_22563.png,n04111531_22563.png,1.0,14.861951,2.9638155,8.413252
alexnet2023_baseline_pgd,1,628,NaN,truck,truck,false,0628_fc_dnn_false_truck_35_n03796401_18074.png,n03796401_18074.png,1.0,14.133228,12.649781,1.0489556
alexnet2023_baseline_pgd,1,629,NaN,cat,cat,true,0629_fc_dnn_true_cat_35_n02123159_3092.png,n02123159_3092.png,1.0,7.419514,3.2984118,2.9140594
alexnet2023_baseline_pgd,1,630,NaN,bird,bird,false,0630_fc_dnn_false_bird_35_n02009912_5983.png,n02009912_5983.png,1.0,8.084175,3.3881009,3.3206263
alexnet2023_baseline_pgd,1,631,NaN,keyboard,keyboard,true,0631_fc_dnn_true_keyboard_35_n03085013_19916.png,n03085013_19916.png,1.0,9.831831,7.244959,1.8291948
alexnet2023_baseline_pgd,1,632,NaN,bottle,bottle,false,0632_fc_dnn_false_bottle_35_n04591713_4035.png,n04591713_4035.png,1.0,5.2339444,2.4186995,1.9906788
alexnet2023_baseline_pgd,1,633,NaN,chair,chair,false,0633_fc_dnn_false_chair_35_n04099969_6189.png,n04099969_6189.png,1.0,5.2828493,3.602974,1.1878513
alexnet2023_baseline_pgd,1,634,NaN,knife,oven,true,0634_fc_dnn_true_oven_35_n04111531_7064.png,n04111531_7064.png,0.0,4.543238,5.0287595,-0.34331542
alexnet2023_baseline_pgd,1,635,NaN,boat,boat,false,0635_fc_dnn_false_boat_35_n03344393_595.png,n03344393_595.png,1.0,9.438708,5.501436,2.784072
alexnet2023_baseline_pgd,1,636,NaN,elephant,elephant,true,0636_fc_dnn_true_elephant_35_n02504458_3099.png,n02504458_3099.png,1.0,17.167334,3.9295878,9.360499
alexnet2023_baseline_pgd,1,637,NaN,chair,chair,false,0637_fc_dnn_false_chair_35_n04429376_19617.png,n04429376_19617.png,1.0,3.935142,3.2496567,0.48471135
alexnet2023_baseline_pgd,1,638,NaN,knife,knife,false,0638_fc_dnn_false_knife_35_n03041632_51766.png,n03041632_51766.png,1.0,12.447283,4.8750367,5.354387
alexnet2023_baseline_pgd,1,639,NaN,elephant,bear,true,0639_fc_dnn_true_bear_35_n02133161_1571.png,n02133161_1571.png,0.0,9.506903,9.865642,-0.2536667
alexnet2023_baseline_pgd,1,640,NaN,bear,bear,false,0640_fc_dnn_false_bear_35_n02132136_8525.png,n02132136_8525.png,1.0,3.7733383,2.7429805,0.728573
alexnet2023_baseline_pgd,1,641,NaN,bird,bird,true,0641_fc_dnn_true_bird_35_n01560419_9124.png,n01560419_9124.png,1.0,9.863002,6.148583,2.6264908
alexnet2023_baseline_pgd,1,642,NaN,car,car,false,0642_fc_dnn_false_car_35_n02814533_2555.png,n02814533_2555.png,1.0,20.390228,14.808254,3.9470518
alexnet2023_baseline_pgd,1,643,NaN,elephant,cat,false,0643_fc_dnn_false_cat_35_n02125311_31100.png,n02125311_31100.png,0.0,5.117054,9.741373,-3.2698874
alexnet2023_baseline_pgd,1,644,NaN,car,car,true,0644_fc_dnn_true_car_35_n02814533_46508.png,n02814533_46508.png,1.0,24.3249,12.067514,8.66728
alexnet2023_baseline_pgd,1,645,NaN,bicycle,bicycle,true,0645_fc_dnn_true_bicycle_35_n03792782_51156.png,n03792782_51156.png,1.0,21.319508,3.9309497,12.2955675
alexnet2023_baseline_pgd,1,646,NaN,elephant,elephant,false,0646_fc_dnn_false_elephant_35_n02504013_637.png,n02504013_637.png,1.0,11.100027,5.296673,4.1035914
alexnet2023_baseline_pgd,1,647,NaN,clock,clock,false,0647_fc_dnn_false_clock_35_n04548280_7321.png,n04548280_7321.png,1.0,11.784032,5.5960393,4.3755717
alexnet2023_baseline_pgd,1,648,NaN,airplane,airplane,true,0648_fc_dnn_true_airplane_35_n02690373_2447.png,n02690373_2447.png,1.0,16.85205,8.6509075,5.799084
alexnet2023_baseline_pgd,1,649,NaN,elephant,elephant,false,0649_fc_dnn_false_elephant_35_n02504458_477.png,n02504458_477.png,1.0,9.779923,5.9061804,2.73915
alexnet2023_baseline_pgd,1,650,NaN,dog,bottle,false,0650_fc_dnn_false_bottle_35_n04557648_2063.png,n04557648_2063.png,0.0,0.26774138,2.2578025,-1.4071857
alexnet2023_baseline_pgd,1,651,NaN,chair,chair,true,0651_fc_dnn_true_chair_35_n04099969_14155.png,n04099969_14155.png,1.0,19.585068,7.6914253,8.410075
alexnet2023_baseline_pgd,1,652,NaN,bear,bear,false,0652_fc_dnn_false_bear_35_n02134084_21407.png,n02134084_21407.png,1.0,8.780392,6.1433268,1.8646865
alexnet2023_baseline_pgd,1,653,NaN,airplane,boat,false,0653_fc_dnn_false_boat_35_n03662601_4418.png,n03662601_4418.png,0.0,3.3701298,7.1086206,-2.6435122
alexnet2023_baseline_pgd,1,654,NaN,car,car,true,0654_fc_dnn_true_car_35_n03100240_9497.png,n03100240_9497.png,1.0,12.959186,6.0948277,4.853834
alexnet2023_baseline_pgd,1,655,NaN,airplane,airplane,false,0655_fc_dnn_false_airplane_35_n02690373_4199.png,n02690373_4199.png,1.0,16.740911,5.747789,7.773311
alexnet2023_baseline_pgd,1,656,NaN,boat,boat,false,0656_fc_dnn_false_boat_35_n03662601_4612.png,n03662601_4612.png,1.0,3.8801308,3.247913,0.44704556
