subj,session,trial,rt,object_response,category,condition,imagename,filename,is_correct,targ_act,max_nontarg_act,decision_margin
vit_b_16,1,1,NaN,knife,knife,true,0001_fc_dnn_true_knife_35_n03041632_86251.png,n03041632_86251.png,1.0,8.69033,0.5495674,5.756388
vit_b_16,1,2,NaN,car,car,false,0002_fc_dnn_false_car_35_n03100240_16866.png,n03100240_16866.png,1.0,5.322676,0.2186334,3.6091034
vit_b_16,1,3,NaN,keyboard,keyboard,false,0003_fc_dnn_false_keyboard_35_n03085013_21127.png,n03085013_21127.png,1.0,5.4218802,0.3402725,3.5932393
vit_b_16,1,4,NaN,truck,truck,true,0004_fc_dnn_true_truck_35_n03417042_10694.png,n03417042_10694.png,1.0,1.2875624,0.2662511,0.72217613
vit_b_16,1,5,NaN,bird,bird,true,0005_fc_dnn_true_bird_35_n01614925_1962.png,n01614925_1962.png,1.0,0.90074486,0.31074443,0.4171933
vit_b_16,1,6,NaN,knife,knife,false,0006_fc_dnn_false_knife_35_n03041632_99875.png,n03041632_99875.png,1.0,4.6524696,0.47535744,2.9536643
vit_b_16,1,7,NaN,bicycle,bicycle,true,0007_fc_dnn_true_bicycle_35_n03792782_14935.png,n03792782_14935.png,1.0,5.153796,0.530022,3.269502
vit_b_16,1,8,NaN,elephant,elephant,false,0008_fc_dnn_false_elephant_35_n02504013_5027.png,n02504013_5027.png,1.0,7.226658,0.34246096,4.867862
vit_b_16,1,9,NaN,dog,dog,false,0009_fc_dnn_false_dog_35_n02090721_129.png,n02090721_129.png,1.0,1.3752548,0.5541994,0.5805738
vit_b_16,1,10,NaN,airplane,airplane,true,0010_fc_dnn_true_airplane_35_n02690373_9241.png,n02690373_9241.png,1.0,9.246715,0.5318851,6.162315
vit_b_16,1,11,NaN,truck,truck,true,0011_fc_dnn_true_truck_35_n04467665_62080.png,n04467665_62080.png,1.0,2.8601213,0.16425307,1.9062668
vit_b_16,1,12,NaN,keyboard,keyboard,true,0012_fc_dnn_true_keyboard_35_n04505470_2669.png,n04505470_2669.png,1.0,4.8576927,0.41813397,3.1392424
vit_b_16,1,13,NaN,oven,oven,false,0013_fc_dnn_false_oven_35_n04111531_688.png,n04111531_688.png,1.0,3.4458375,1.7688684,1.1857963
vit_b_16,1,14,NaN,car,car,true,0014_fc_dnn_true_car_35_n03100240_21982.png,n03100240_21982.png,1.0,6.040026,1.0640602,3.5185394
vit_b_16,1,15,NaN,bicycle,bicycle,true,0015_fc_dnn_true_bicycle_35_n02835271_4191.png,n02835271_4191.png,1.0,5.5968394,0.28212583,3.75807
vit_b_16,1,16,NaN,car,car,true,0016_fc_dnn_true_car_35_n02814533_25278.png,n02814533_25278.png,1.0,4.967579,0.4165678,3.218051
vit_b_16,1,17,NaN,knife,knife,false,0017_fc_dnn_false_knife_35_n03041632_23087.png,n03041632_23087.png,1.0,3.3336349,0.27964383,2.1594977
vit_b_16,1,18,NaN,clock,clock,true,0018_fc_dnn_true_clock_35_n03196217_11252.png,n03196217_11252.png,1.0,4.395822,0.6140145,2.6741416
vit_b_16,1,19,NaN,boat,boat,false,0019_fc_dnn_false_boat_35_n04273569_2040.png,n04273569_2040.png,1.0,2.0123665,0.6390666,0.97106975
vit_b_16,1,20,NaN,knife,knife,true,0020_fc_dnn_true_knife_35_n03041632_84869.png,n03041632_84869.png,1.0,9.472785,0.2391604,6.5291586
vit_b_16,1,21,NaN,clock,clock,true,0021_fc_dnn_true_clock_35_n04548280_503.png,n04548280_503.png,1.0,6.016932,0.5597174,3.8588333
vit_b_16,1,22,NaN,truck,truck,false,0022_fc_dnn_false_truck_35_n03417042_10654.png,n03417042_10654.png,1.0,2.2360659,0.47892866,1.2424836
vit_b_16,1,23,NaN,boat,boat,true,0023_fc_dnn_true_boat_35_n03344393_2919.png,n03344393_2919.png,1.0,3.093135,0.3742942,1.9225109
vit_b_16,1,24,NaN,chair,chair,false,0024_fc_dnn_false_chair_35_n04099969_7718.png,n04099969_7718.png,1.0,2.6451988,0.3092251,1.6517829
vit_b_16,1,25,NaN,oven,oven,true,0025_fc_dnn_true_oven_35_n04111531_3477.png,n04111531_3477.png,1.0,8.913847,1.2087369,5.4483356
vit_b_16,1,26,NaN,dog,dog,false,0026_fc_dnn_false_dog_35_n02113712_913.png,n02113712_913.png,1.0,0.7136652,0.2871713,0.30157673
vit_b_16,1,27,NaN,chair,chair,false,0027_fc_dnn_false_chair_35_n02791124_13701.png,n02791124_13701.png,1.0,1.9565419,1.2141643,0.52494025
vit_b_16,1,28,NaN,airplane,airplane,true,0028_fc_dnn_true_airplane_35_n02690373_8538.png,n02690373_8538.png,1.0,9.304612,0.33396026,6.343209
vit_b_16,1,29,NaN,knife,knife,true,0029_fc_dnn_true_knife_35_n03041632_98864.png,n03041632_98864.png,1.0,6.50358,2.0349731,3.1597824
vit_b_16,1,30,NaN,clock,clock,false,0030_fc_dnn_false_clock_35_n04548280_5466.png,n04548280_5466.png,1.0,5.938277,0.6004454,3.774417
vit_b_16,1,31,NaN,keyboard,keyboard,true,0031_fc_dnn_true_keyboard_35_n04505470_4033.png,n04505470_4033.png,1.0,5.244131,0.34815907,3.4619753
vit_b_16,1,32,NaN,boat,boat,false,0032_fc_dnn_false_boat_35_n03344393_7503.png,n03344393_7503.png,1.0,2.8855114,0.31092626,1.8205067
vit_b_16,1,33,NaN,bottle,bottle,false,0033_fc_dnn_false_bottle_35_n02823428_3402.png,n02823428_3402.png,1.0,3.6744015,0.30138427,2.3850834
vit_b_16,1,34,NaN,boat,boat,true,0034_fc_dnn_true_boat_35_n03662601_15766.png,n03662601_15766.png,1.0,3.1000714,1.9855039,0.78811824
vit_b_16,1,35,NaN,airplane,dog,true,0035_fc_dnn_true_dog_35_n02097047_1351.png,n02097047_1351.png,0.0,0.26721558,0.6629671,-0.2798386
vit_b_16,1,36,NaN,keyboard,keyboard,true,0036_fc_dnn_true_keyboard_35_n03085013_23562.png,n03085013_23562.png,1.0,7.499548,0.645846,4.846299
vit_b_16,1,37,NaN,clock,clock,false,0037_fc_dnn_false_clock_35_n04548280_7872.png,n04548280_7872.png,1.0,6.0244517,0.5797447,3.8499892
vit_b_16,1,38,NaN,cat,dog,false,0038_fc_dnn_false_dog_35_n02106166_16884.png,n02106166_16884.png,0.0,0.5000476,0.688142,-0.13300282
vit_b_16,1,39,NaN,oven,oven,true,0039_fc_dnn_true_oven_35_n04111531_3353.png,n04111531_3353.png,1.0,9.225855,0.81347334,5.948452
vit_b_16,1,40,NaN,knife,knife,false,0040_fc_dnn_false_knife_35_n03041632_46185.png,n03041632_46185.png,1.0,10.078841,0.23755519,6.95884
vit_b_16,1,41,NaN,knife,knife,true,0041_fc_dnn_true_knife_35_n03041632_14766.png,n03041632_14766.png,1.0,8.995949,0.29409537,6.15314
vit_b_16,1,42,NaN,chair,chair,true,0042_fc_dnn_true_chair_35_n02791124_2150.png,n02791124_2150.png,1.0,2.7263412,0.20862213,1.7802962
vit_b_16,1,43,NaN,elephant,elephant,false,0043_fc_dnn_false_elephant_35_n02504458_4631.png,n02504458_4631.png,1.0,7.672546,0.3186814,5.199968
vit_b_16,1,44,NaN,chair,chair,false,0044_fc_dnn_false_chair_35_n03376595_3223.png,n03376595_3223.png,1.0,3.15402,1.4680122,1.1921877
vit_b_16,1,45,NaN,car,car,false,0045_fc_dnn_false_car_35_n03100240_5399.png,n03100240_5399.png,1.0,5.8551536,0.28586102,3.9380846
vit_b_16,1,46,NaN,bottle,bottle,true,0046_fc_dnn_true_bottle_35_n04557648_2512.png,n04557648_2512.png,1.0,3.0557466,0.16094469,2.0469341
vit_b_16,1,47,NaN,bicycle,bicycle,true,0047_fc_dnn_true_bicycle_35_n03792782_8098.png,n03792782_8098.png,1.0,5.63031,0.76118255,3.442993
vit_b_16,1,48,NaN,bear,bear,true,0048_fc_dnn_true_bear_35_n02134418_11557.png,n02134418_11557.png,1.0,2.8949776,0.27214283,1.8546243
vit_b_16,1,49,NaN,knife,knife,true,0049_fc_dnn_true_knife_35_n03041632_45569.png,n03041632_45569.png,1.0,9.214345,0.44287407,6.202367
vit_b_16,1,50,NaN,bicycle,bicycle,false,0050_fc_dnn_false_bicycle_35_n03792782_4740.png,n03792782_4740.png,1.0,6.5730324,0.41634363,4.3534365
vit_b_16,1,51,NaN,boat,boat,false,0051_fc_dnn_false_boat_35_n03662601_25404.png,n03662601_25404.png,1.0,5.497743,2.2569544,2.2915838
vit_b_16,1,52,NaN,elephant,bird,false,0052_fc_dnn_false_bird_35_n01796340_4853.png,n01796340_4853.png,0.0,-0.047075048,0.4605539,-0.3589479
vit_b_16,1,53,NaN,clock,clock,true,0053_fc_dnn_true_clock_35_n03196217_5888.png,n03196217_5888.png,1.0,5.7566986,0.24889274,3.8946068
vit_b_16,1,54,NaN,bicycle,bicycle,true,0054_fc_dnn_true_bicycle_35_n02835271_12871.png,n02835271_12871.png,1.0,4.7447095,0.288654,3.1509073
vit_b_16,1,55,NaN,keyboard,keyboard,false,0055_fc_dnn_false_keyboard_35_n03085013_28584.png,n03085013_28584.png,1.0,7.031872,2.5346208,3.1800368
vit_b_16,1,56,NaN,cat,cat,true,0056_fc_dnn_true_cat_35_n02123159_6184.png,n02123159_6184.png,1.0,4.0595226,0.69542944,2.3787732
vit_b_16,1,57,NaN,bicycle,bicycle,true,0057_fc_dnn_true_bicycle_35_n02835271_7592.png,n02835271_7592.png,1.0,4.953166,0.35159075,3.2538052
vit_b_16,1,58,NaN,elephant,elephant,false,0058_fc_dnn_false_elephant_35_n02504458_3205.png,n02504458_3205.png,1.0,7.9620585,0.16221786,5.5153203
vit_b_16,1,59,NaN,cat,cat,false,0059_fc_dnn_false_cat_35_n02124075_7880.png,n02124075_7880.png,1.0,4.014687,0.44255304,2.5258803
vit_b_16,1,60,NaN,truck,truck,false,0060_fc_dnn_false_truck_35_n04467665_2240.png,n04467665_2240.png,1.0,2.9629257,0.5272926,1.7222527
vit_b_16,1,61,NaN,bottle,bottle,true,0061_fc_dnn_true_bottle_35_n04560804_13316.png,n04560804_13316.png,1.0,1.6137923,0.34339446,0.89830697
vit_b_16,1,62,NaN,airplane,airplane,false,0062_fc_dnn_false_airplane_35_n02690373_3821.png,n02690373_3821.png,1.0,8.849376,0.4660215,5.9279265
vit_b_16,1,63,NaN,knife,knife,true,0063_fc_dnn_true_knife_35_n03041632_17285.png,n03041632_17285.png,1.0,10.01876,0.61016357,6.652882
vit_b_16,1,64,NaN,bottle,bottle,false,0064_fc_dnn_false_bottle_35_n02823428_10942.png,n02823428_10942.png,1.0,3.0416837,0.13628289,2.0544286
vit_b_16,1,65,NaN,bicycle,bicycle,true,0065_fc_dnn_true_bicycle_35_n02835271_3642.png,n02835271_3642.png,1.0,5.1144805,0.61995167,3.1781118
vit_b_16,1,66,NaN,knife,knife,true,0066_fc_dnn_true_knife_35_n03041632_16172.png,n03041632_16172.png,1.0,9.273589,0.77439517,6.009838
vit_b_16,1,67,NaN,airplane,bottle,false,0067_fc_dnn_false_bottle_35_n04560804_2448.png,n04560804_2448.png,0.0,0.50862455,1.3765701,-0.6137302
vit_b_16,1,68,NaN,oven,oven,false,0068_fc_dnn_false_oven_35_n04111531_4452.png,n04111531_4452.png,1.0,8.546051,0.38963372,5.767458
vit_b_16,1,69,NaN,keyboard,keyboard,false,0069_fc_dnn_false_keyboard_35_n04505470_912.png,n04505470_912.png,1.0,4.7783647,0.42256865,3.0800128
vit_b_16,1,70,NaN,cat,cat,false,0070_fc_dnn_false_cat_35_n02123045_7167.png,n02123045_7167.png,1.0,5.049561,0.456793,3.2475777
vit_b_16,1,71,NaN,bicycle,bicycle,false,0071_fc_dnn_false_bicycle_35_n03792782_8333.png,n03792782_8333.png,1.0,6.688152,0.57607853,4.3218884
vit_b_16,1,72,NaN,dog,dog,false,0072_fc_dnn_false_dog_35_n02107683_2904.png,n02107683_2904.png,1.0,1.3982534,0.14450242,0.8865359
vit_b_16,1,73,NaN,bottle,bottle,true,0073_fc_dnn_true_bottle_35_n04591713_3409.png,n04591713_3409.png,1.0,3.1665826,0.7700784,1.6945844
vit_b_16,1,74,NaN,bottle,bottle,false,0074_fc_dnn_false_bottle_35_n04560804_564.png,n04560804_564.png,1.0,1.8670813,1.2220957,0.45607367
vit_b_16,1,75,NaN,truck,truck,false,0075_fc_dnn_false_truck_35_n03796401_6503.png,n03796401_6503.png,1.0,2.7939,0.1926824,1.8393385
vit_b_16,1,76,NaN,oven,oven,true,0076_fc_dnn_true_oven_35_n04111531_13590.png,n04111531_13590.png,1.0,9.001545,0.8122769,5.790687
vit_b_16,1,77,NaN,car,bird,false,0077_fc_dnn_false_bird_35_n02018795_7504.png,n02018795_7504.png,0.0,0.2671564,0.44266975,-0.12410669
vit_b_16,1,78,NaN,car,car,false,0078_fc_dnn_false_car_35_n03100240_6626.png,n03100240_6626.png,1.0,3.4683354,1.209535,1.5972131
vit_b_16,1,79,NaN,bear,bear,false,0079_fc_dnn_false_bear_35_n02134418_4364.png,n02134418_4364.png,1.0,3.3671117,0.1300906,2.2889194
vit_b_16,1,80,NaN,knife,knife,false,0080_fc_dnn_false_knife_35_n03041632_8051.png,n03041632_8051.png,1.0,8.931523,3.1018112,4.122229
vit_b_16,1,81,NaN,airplane,airplane,true,0081_fc_dnn_true_airplane_35_n02690373_1434.png,n02690373_1434.png,1.0,9.317815,0.30954793,6.3698063
vit_b_16,1,82,NaN,clock,clock,true,0082_fc_dnn_true_clock_35_n04548280_5408.png,n04548280_5408.png,1.0,4.1501164,0.60817516,2.5045307
vit_b_16,1,83,NaN,cat,cat,false,0083_fc_dnn_false_cat_35_n02123597_3916.png,n02123597_3916.png,1.0,2.1464221,0.33415434,1.2814668
vit_b_16,1,84,NaN,clock,clock,false,0084_fc_dnn_false_clock_35_n04548280_4542.png,n04548280_4542.png,1.0,5.8578935,0.62621295,3.6993568
vit_b_16,1,85,NaN,car,car,true,0085_fc_dnn_true_car_35_n04285008_14161.png,n04285008_14161.png,1.0,2.211582,1.3867102,0.58327246
vit_b_16,1,86,NaN,airplane,airplane,false,0086_fc_dnn_false_airplane_35_n02690373_7279.png,n02690373_7279.png,1.0,9.411218,0.4960762,6.303957
vit_b_16,1,87,NaN,bear,bear,true,0087_fc_dnn_true_bear_35_n02132136_11640.png,n02132136_11640.png,1.0,3.5697951,0.8388066,1.9311005
vit_b_16,1,88,NaN,airplane,airplane,true,0088_fc_dnn_true_airplane_35_n02690373_8350.png,n02690373_8350.png,1.0,8.961743,0.22211495,6.179851
vit_b_16,1,89,NaN,boat,boat,true,0089_fc_dnn_true_boat_35_n04273569_30568.png,n04273569_30568.png,1.0,2.874984,0.7547677,1.4992194
vit_b_16,1,90,NaN,knife,dog,true,0090_fc_dnn_true_dog_35_n02100583_19533.png,n02100583_19533.png,0.0,-0.16390389,0.3655699,-0.3743945
vit_b_16,1,91,NaN,knife,knife,true,0091_fc_dnn_true_knife_35_n03041632_965.png,n03041632_965.png,1.0,9.238224,0.547567,6.145222
vit_b_16,1,92,NaN,elephant,elephant,false,0092_fc_dnn_false_elephant_35_n02504458_6109.png,n02504458_6109.png,1.0,7.7429647,0.20650527,5.3290815
vit_b_16,1,93,NaN,oven,oven,true,0093_fc_dnn_true_oven_35_n04111531_10093.png,n04111531_10093.png,1.0,9.808518,0.7737905,6.3885174
vit_b_16,1,94,NaN,knife,clock,true,0094_fc_dnn_true_clock_35_n03196217_8221.png,n03196217_8221.png,0.0,1.9765435,4.019722,-1.4447454
vit_b_16,1,95,NaN,bicycle,bicycle,false,0095_fc_dnn_false_bicycle_35_n03792782_828.png,n03792782_828.png,1.0,7.1557274,0.23925121,4.8906875
vit_b_16,1,96,NaN,knife,knife,true,0096_fc_dnn_true_knife_35_n03041632_7090.png,n03041632_7090.png,1.0,9.237031,0.60802877,6.1016264
vit_b_16,1,97,NaN,bear,bear,false,0097_fc_dnn_false_bear_35_n02134084_14260.png,n02134084_14260.png,1.0,4.425428,1.8688929,1.8077433
vit_b_16,1,98,NaN,bear,bear,false,0098_fc_dnn_false_bear_35_n02132136_10988.png,n02132136_10988.png,1.0,6.2560587,3.623384,1.8615822
vit_b_16,1,99,NaN,keyboard,keyboard,false,0099_fc_dnn_false_keyboard_35_n03085013_22980.png,n03085013_22980.png,1.0,4.3569145,0.7826203,2.5274076
vit_b_16,1,100,NaN,bottle,bottle,false,0100_fc_dnn_false_bottle_35_n04557648_3673.png,n04557648_3673.png,1.0,3.2156448,0.852369,1.6710883
vit_b_16,1,101,NaN,airplane,airplane,true,0101_fc_dnn_true_airplane_35_n02690373_1360.png,n02690373_1360.png,1.0,8.977942,0.2949245,6.139821
vit_b_16,1,102,NaN,oven,oven,true,0102_fc_dnn_true_oven_35_n04111531_6415.png,n04111531_6415.png,1.0,9.106934,0.8137508,5.864166
vit_b_16,1,103,NaN,knife,knife,false,0103_fc_dnn_false_knife_35_n03041632_32054.png,n03041632_32054.png,1.0,9.0704565,0.5699638,6.0107565
vit_b_16,1,104,NaN,chair,chair,false,0104_fc_dnn_false_chair_35_n03376595_9136.png,n03376595_9136.png,1.0,2.865491,0.5493002,1.6377941
vit_b_16,1,105,NaN,keyboard,keyboard,false,0105_fc_dnn_false_keyboard_35_n03085013_21266.png,n03085013_21266.png,1.0,4.507003,0.33267108,2.9516983
vit_b_16,1,106,NaN,bicycle,bicycle,true,0106_fc_dnn_true_bicycle_35_n02835271_6137.png,n02835271_6137.png,1.0,5.469613,2.411626,2.1623235
vit_b_16,1,107,NaN,car,car,false,0107_fc_dnn_false_car_35_n04285008_14689.png,n04285008_14689.png,1.0,6.4614506,0.605621,4.140697
vit_b_16,1,108,NaN,truck,truck,false,0108_fc_dnn_false_truck_35_n04467665_16276.png,n04467665_16276.png,1.0,2.249172,0.5279043,1.21712
vit_b_16,1,109,NaN,chair,chair,false,0109_fc_dnn_false_chair_35_n03376595_787.png,n03376595_787.png,1.0,3.224842,0.1755991,2.1561403
vit_b_16,1,110,NaN,boat,boat,false,0110_fc_dnn_false_boat_35_n04612504_41355.png,n04612504_41355.png,1.0,1.7455384,1.0509195,0.4911697
vit_b_16,1,111,NaN,elephant,elephant,true,0111_fc_dnn_true_elephant_35_n02504458_174.png,n02504458_174.png,1.0,7.147148,0.10842234,4.977131
vit_b_16,1,112,NaN,cat,cat,true,0112_fc_dnn_true_cat_35_n02125311_6746.png,n02125311_6746.png,1.0,1.5405773,0.21452346,0.9376617
vit_b_16,1,113,NaN,keyboard,keyboard,false,0113_fc_dnn_false_keyboard_35_n03085013_23287.png,n03085013_23287.png,1.0,7.238543,0.67163956,4.643502
vit_b_16,1,114,NaN,clock,clock,true,0114_fc_dnn_true_clock_35_n04548280_8071.png,n04548280_8071.png,1.0,4.8431067,0.13652435,3.3280566
vit_b_16,1,115,NaN,oven,oven,false,0115_fc_dnn_false_oven_35_n04111531_14543.png,n04111531_14543.png,1.0,9.641945,0.8803905,6.195355
vit_b_16,1,116,NaN,car,car,false,0116_fc_dnn_false_car_35_n03100240_10791.png,n03100240_10791.png,1.0,5.859459,0.41180468,3.8520734
vit_b_16,1,117,NaN,airplane,airplane,true,0117_fc_dnn_true_airplane_35_n02690373_2619.png,n02690373_2619.png,1.0,9.03755,0.40915433,6.1011972
vit_b_16,1,118,NaN,keyboard,keyboard,true,0118_fc_dnn_true_keyboard_35_n04505470_3864.png,n04505470_3864.png,1.0,6.9440475,0.92913955,4.2531824
vit_b_16,1,119,NaN,oven,dog,true,0119_fc_dnn_true_dog_35_n02097658_4387.png,n02097658_4387.png,0.0,0.050376814,0.19051906,-0.09909554
vit_b_16,1,120,NaN,clock,clock,true,0120_fc_dnn_true_clock_35_n04548280_309.png,n04548280_309.png,1.0,4.8098316,0.22879,3.2392857
vit_b_16,1,121,NaN,clock,dog,true,0121_fc_dnn_true_dog_35_n02108000_5247.png,n02108000_5247.png,0.0,0.047357034,0.32746732,-0.19806789
vit_b_16,1,122,NaN,keyboard,keyboard,false,0122_fc_dnn_false_keyboard_35_n04505470_4411.png,n04505470_4411.png,1.0,5.398937,0.4005526,3.5343916
vit_b_16,1,123,NaN,truck,truck,false,0123_fc_dnn_false_truck_35_n03417042_2155.png,n03417042_2155.png,1.0,1.8860296,1.1019862,0.5544024
vit_b_16,1,124,NaN,bear,bear,false,0124_fc_dnn_false_bear_35_n02132136_4237.png,n02132136_4237.png,1.0,5.4351254,0.58322936,3.4308085
vit_b_16,1,125,NaN,knife,bird,false,0125_fc_dnn_false_bird_35_n01843065_2350.png,n01843065_2350.png,0.0,0.13535812,0.52918136,-0.27847508
vit_b_16,1,126,NaN,knife,knife,false,0126_fc_dnn_false_knife_35_n03041632_51225.png,n03041632_51225.png,1.0,9.148023,0.50311345,6.112874
vit_b_16,1,127,NaN,airplane,airplane,false,0127_fc_dnn_false_airplane_35_n02690373_2095.png,n02690373_2095.png,1.0,8.969712,0.053649854,6.3046083
vit_b_16,1,128,NaN,clock,clock,true,0128_fc_dnn_true_clock_35_n02708093_1775.png,n02708093_1775.png,1.0,6.273653,2.035377,2.9969137
vit_b_16,1,129,NaN,elephant,elephant,true,0129_fc_dnn_true_elephant_35_n02504458_7950.png,n02504458_7950.png,1.0,7.296752,0.37565643,4.8939533
vit_b_16,1,130,NaN,boat,boat,true,0130_fc_dnn_true_boat_35_n03662601_1926.png,n03662601_1926.png,1.0,1.787131,0.3155835,1.0405412
vit_b_16,1,131,NaN,elephant,elephant,true,0131_fc_dnn_true_elephant_35_n02504458_6721.png,n02504458_6721.png,1.0,6.961233,0.28295988,4.7222524
vit_b_16,1,132,NaN,bicycle,bicycle,true,0132_fc_dnn_true_bicycle_35_n02835271_14225.png,n02835271_14225.png,1.0,7.865682,1.1720093,4.7331414
vit_b_16,1,133,NaN,clock,clock,false,0133_fc_dnn_false_clock_35_n02708093_2744.png,n02708093_2744.png,1.0,5.1629615,0.3666702,3.3914902
vit_b_16,1,134,NaN,clock,clock,true,0134_fc_dnn_true_clock_35_n02708093_275.png,n02708093_275.png,1.0,6.032854,0.40600535,3.978783
vit_b_16,1,135,NaN,knife,knife,false,0135_fc_dnn_false_knife_35_n03041632_25512.png,n03041632_25512.png,1.0,9.521471,0.48745227,6.3880157
vit_b_16,1,136,NaN,knife,bird,true,0136_fc_dnn_true_bird_35_n01622779_5441.png,n01622779_5441.png,0.0,0.27682248,0.36529106,-0.062556736
vit_b_16,1,137,NaN,oven,oven,false,0137_fc_dnn_false_oven_35_n04111531_14329.png,n04111531_14329.png,1.0,7.622055,1.6729318,4.2066655
vit_b_16,1,138,NaN,knife,bird,false,0138_fc_dnn_false_bird_35_n02007558_13217.png,n02007558_13217.png,0.0,0.32398075,0.35546437,-0.022262283
vit_b_16,1,139,NaN,cat,cat,true,0139_fc_dnn_true_cat_35_n02123597_7908.png,n02123597_7908.png,1.0,2.161823,0.20580734,1.383112
vit_b_16,1,140,NaN,clock,clock,true,0140_fc_dnn_true_clock_35_n04548280_9828.png,n04548280_9828.png,1.0,6.0577903,0.13996018,4.184538
vit_b_16,1,141,NaN,bicycle,bird,false,0141_fc_dnn_false_bird_35_n01833805_4819.png,n01833805_4819.png,0.0,-0.22127664,0.36495525,-0.41452855
vit_b_16,1,142,NaN,knife,knife,true,0142_fc_dnn_true_knife_35_n03041632_52929.png,n03041632_52929.png,1.0,8.255535,0.11999284,5.752697
vit_b_16,1,143,NaN,truck,truck,false,0143_fc_dnn_false_truck_35_n04467665_2044.png,n04467665_2044.png,1.0,2.091011,0.67905354,0.99840474
vit_b_16,1,144,NaN,oven,oven,false,0144_fc_dnn_false_oven_35_n04111531_16583.png,n04111531_16583.png,1.0,9.867417,0.6166728,6.5412645
vit_b_16,1,145,NaN,airplane,airplane,true,0145_fc_dnn_true_airplane_35_n02690373_2796.png,n02690373_2796.png,1.0,8.896707,0.2502764,6.1139493
vit_b_16,1,146,NaN,airplane,airplane,false,0146_fc_dnn_false_airplane_35_n02690373_3362.png,n02690373_3362.png,1.0,8.880429,0.3151477,6.056569
vit_b_16,1,147,NaN,clock,clock,true,0147_fc_dnn_true_clock_35_n02708093_3759.png,n02708093_3759.png,1.0,6.3108134,0.2427291,4.2907834
vit_b_16,1,148,NaN,elephant,elephant,true,0148_fc_dnn_true_elephant_35_n02504013_2558.png,n02504013_2558.png,1.0,5.782241,0.3292336,3.8558586
vit_b_16,1,149,NaN,bear,bear,false,0149_fc_dnn_false_bear_35_n02134418_896.png,n02134418_896.png,1.0,3.0047467,0.59054214,1.7071005
vit_b_16,1,150,NaN,truck,truck,false,0150_fc_dnn_false_truck_35_n04467665_56815.png,n04467665_56815.png,1.0,1.8243303,0.53409207,0.91233623
vit_b_16,1,151,NaN,truck,truck,true,0151_fc_dnn_true_truck_35_n03796401_3695.png,n03796401_3695.png,1.0,2.2048874,0.36196464,1.3031431
vit_b_16,1,152,NaN,airplane,dog,true,0152_fc_dnn_true_dog_35_n02107312_197.png,n02107312_197.png,0.0,-0.2777219,0.31546235,-0.4194446
vit_b_16,1,153,NaN,bear,bear,false,0153_fc_dnn_false_bear_35_n02133161_13356.png,n02133161_13356.png,1.0,5.0729923,0.7764431,3.0381193
vit_b_16,1,154,NaN,truck,truck,false,0154_fc_dnn_false_truck_35_n03796401_6923.png,n03796401_6923.png,1.0,4.6360416,0.27633935,3.0827749
vit_b_16,1,155,NaN,elephant,elephant,true,0155_fc_dnn_true_elephant_35_n02504458_7660.png,n02504458_7660.png,1.0,7.485834,0.37637216,5.0271487
vit_b_16,1,156,NaN,bicycle,bicycle,false,0156_fc_dnn_false_bicycle_35_n02835271_6554.png,n02835271_6554.png,1.0,5.097236,0.5837052,3.1915483
vit_b_16,1,157,NaN,boat,boat,true,0157_fc_dnn_true_boat_35_n04273569_2698.png,n04273569_2698.png,1.0,2.0935428,0.48336813,1.1385654
vit_b_16,1,158,NaN,bottle,bottle,true,0158_fc_dnn_true_bottle_35_n03983396_5055.png,n03983396_5055.png,1.0,2.9347346,0.8073233,1.504307
vit_b_16,1,159,NaN,chair,chair,true,0159_fc_dnn_true_chair_35_n04429376_22811.png,n04429376_22811.png,1.0,2.5809984,0.22050329,1.6691221
vit_b_16,1,160,NaN,knife,knife,false,0160_fc_dnn_false_knife_35_n03041632_5640.png,n03041632_5640.png,1.0,9.439558,0.4888752,6.3290887
vit_b_16,1,161,NaN,bear,bird,true,0161_fc_dnn_true_bird_35_n01795545_14857.png,n01795545_14857.png,0.0,0.5163155,1.2992419,-0.5536126
vit_b_16,1,162,NaN,oven,oven,false,0162_fc_dnn_false_oven_35_n04111531_16144.png,n04111531_16144.png,1.0,9.12409,0.9943064,5.7486253
vit_b_16,1,163,NaN,truck,truck,false,0163_fc_dnn_false_truck_35_n04467665_47050.png,n04467665_47050.png,1.0,1.7492682,1.430266,0.22556859
vit_b_16,1,164,NaN,bottle,bottle,true,0164_fc_dnn_true_bottle_35_n03937543_8063.png,n03937543_8063.png,1.0,1.1891816,0.2641551,0.6540925
vit_b_16,1,165,NaN,bear,bear,false,0165_fc_dnn_false_bear_35_n02134084_1655.png,n02134084_1655.png,1.0,3.5591311,0.3120352,2.2960436
vit_b_16,1,166,NaN,car,car,false,0166_fc_dnn_false_car_35_n03100240_2425.png,n03100240_2425.png,1.0,4.171204,3.0658212,0.7816238
vit_b_16,1,167,NaN,keyboard,keyboard,false,0167_fc_dnn_false_keyboard_35_n03085013_21300.png,n03085013_21300.png,1.0,7.111269,0.7571879,4.493014
vit_b_16,1,168,NaN,bear,bear,false,0168_fc_dnn_false_bear_35_n02132136_2248.png,n02132136_2248.png,1.0,6.3426123,0.56669295,4.084192
vit_b_16,1,169,NaN,knife,knife,false,0169_fc_dnn_false_knife_35_n03041632_27832.png,n03041632_27832.png,1.0,9.683391,0.52780646,6.4739757
vit_b_16,1,170,NaN,keyboard,keyboard,true,0170_fc_dnn_true_keyboard_35_n04505470_4682.png,n04505470_4682.png,1.0,5.041651,0.43217522,3.2593915
vit_b_16,1,171,NaN,truck,truck,false,0171_fc_dnn_false_truck_35_n03417042_12908.png,n03417042_12908.png,1.0,2.7233913,0.98415685,1.2298245
vit_b_16,1,172,NaN,elephant,elephant,false,0172_fc_dnn_false_elephant_35_n02504013_2148.png,n02504013_2148.png,1.0,7.63982,1.162582,4.580099
vit_b_16,1,173,NaN,boat,boat,true,0173_fc_dnn_true_boat_35_n02951358_20379.png,n02951358_20379.png,1.0,2.7591145,0.10122695,1.8794103
vit_b_16,1,174,NaN,cat,cat,true,0174_fc_dnn_true_cat_35_n02123394_6521.png,n02123394_6521.png,1.0,1.4242777,0.2057964,0.8615964
vit_b_16,1,175,NaN,boat,boat,true,0175_fc_dnn_true_boat_35_n03662601_9602.png,n03662601_9602.png,1.0,1.9013392,0.31255436,1.1234405
vit_b_16,1,176,NaN,clock,clock,true,0176_fc_dnn_true_clock_35_n04548280_3997.png,n04548280_3997.png,1.0,5.9337106,0.2770378,3.999872
vit_b_16,1,177,NaN,car,car,false,0177_fc_dnn_false_car_35_n03100240_12694.png,n03100240_12694.png,1.0,5.567021,0.5049747,3.5794072
vit_b_16,1,178,NaN,bird,bird,false,0178_fc_dnn_false_bird_35_n02002556_25052.png,n02002556_25052.png,1.0,0.35548252,0.18985824,0.11711405
vit_b_16,1,179,NaN,chair,chair,true,0179_fc_dnn_true_chair_35_n04429376_22734.png,n04429376_22734.png,1.0,2.8310332,0.57060903,1.5983613
vit_b_16,1,180,NaN,boat,boat,true,0180_fc_dnn_true_boat_35_n04612504_5334.png,n04612504_5334.png,1.0,2.2774715,0.3252607,1.3804216
vit_b_16,1,181,NaN,keyboard,keyboard,true,0181_fc_dnn_true_keyboard_35_n03085013_15484.png,n03085013_15484.png,1.0,7.364587,0.5139637,4.844122
vit_b_16,1,182,NaN,bear,bear,true,0182_fc_dnn_true_bear_35_n02134418_1809.png,n02134418_1809.png,1.0,3.074672,0.17355596,2.051399
vit_b_16,1,183,NaN,bottle,bottle,true,0183_fc_dnn_true_bottle_35_n04560804_6392.png,n04560804_6392.png,1.0,2.5723784,1.1941727,0.97453856
vit_b_16,1,184,NaN,boat,boat,false,0184_fc_dnn_false_boat_35_n02951358_29495.png,n02951358_29495.png,1.0,3.0280774,0.8361567,1.5499221
vit_b_16,1,185,NaN,airplane,dog,false,0185_fc_dnn_false_dog_35_n02086646_8449.png,n02086646_8449.png,0.0,0.16505593,0.7946888,-0.4452177
vit_b_16,1,186,NaN,bear,bird,true,0186_fc_dnn_true_bird_35_n02037110_4043.png,n02037110_4043.png,0.0,-0.15833005,0.57132185,-0.51594186
vit_b_16,1,187,NaN,elephant,elephant,true,0187_fc_dnn_true_elephant_35_n02504458_4819.png,n02504458_4819.png,1.0,7.403613,0.24505454,5.0618653
vit_b_16,1,188,NaN,bird,bird,true,0188_fc_dnn_true_bird_35_n01829413_282.png,n01829413_282.png,1.0,0.3233908,0.12092145,0.14316747
vit_b_16,1,189,NaN,airplane,bird,false,0189_fc_dnn_false_bird_35_n02007558_22160.png,n02007558_22160.png,0.0,0.12972996,0.64649963,-0.36541134
vit_b_16,1,190,NaN,truck,truck,false,0190_fc_dnn_false_truck_35_n03417042_3066.png,n03417042_3066.png,1.0,3.0049517,1.2047302,1.2729489
vit_b_16,1,191,NaN,boat,boat,true,0191_fc_dnn_true_boat_35_n04612504_254.png,n04612504_254.png,1.0,2.1507068,0.22067074,1.3647416
vit_b_16,1,192,NaN,keyboard,keyboard,false,0192_fc_dnn_false_keyboard_35_n03085013_20704.png,n03085013_20704.png,1.0,1.6192806,0.462943,0.8176542
vit_b_16,1,193,NaN,chair,chair,true,0193_fc_dnn_true_chair_35_n03376595_3015.png,n03376595_3015.png,1.0,2.7991056,0.22325613,1.8214008
vit_b_16,1,194,NaN,keyboard,bottle,false,0194_fc_dnn_false_bottle_35_n03983396_3782.png,n03983396_3782.png,0.0,3.150942,4.3760705,-0.86629665
vit_b_16,1,195,NaN,bird,bird,false,0195_fc_dnn_false_bird_35_n01592084_4087.png,n01592084_4087.png,1.0,0.6779846,0.36095652,0.22417271
vit_b_16,1,196,NaN,keyboard,bird,false,0196_fc_dnn_false_bird_35_n02013706_651.png,n02013706_651.png,0.0,-0.05214378,0.3107484,-0.25660354
vit_b_16,1,197,NaN,keyboard,keyboard,true,0197_fc_dnn_true_keyboard_35_n04505470_2825.png,n04505470_2825.png,1.0,4.861289,0.462039,3.1107395
vit_b_16,1,198,NaN,cat,cat,false,0198_fc_dnn_false_cat_35_n02123597_23346.png,n02123597_23346.png,1.0,4.0403695,0.553691,2.465454
vit_b_16,1,199,NaN,cat,cat,false,0199_fc_dnn_false_cat_35_n02124075_3592.png,n02124075_3592.png,1.0,3.8427718,0.5348029,2.3390872
vit_b_16,1,200,NaN,airplane,airplane,false,0200_fc_dnn_false_airplane_35_n02690373_5415.png,n02690373_5415.png,1.0,8.9039,0.4780634,5.9579663
vit_b_16,1,201,NaN,cat,cat,true,0201_fc_dnn_true_cat_35_n02123597_4591.png,n02123597_4591.png,1.0,2.1124158,0.40396938,1.2080541
vit_b_16,1,202,NaN,elephant,elephant,false,0202_fc_dnn_false_elephant_35_n02504013_2228.png,n02504013_2228.png,1.0,8.064539,0.17990902,5.5752754
vit_b_16,1,203,NaN,knife,knife,false,0203_fc_dnn_false_knife_35_n03041632_47743.png,n03041632_47743.png,1.0,9.294848,0.20785365,6.425476
vit_b_16,1,204,NaN,bear,bear,false,0204_fc_dnn_false_bear_35_n02134418_1105.png,n02134418_1105.png,1.0,3.246806,0.8696625,1.6808943
vit_b_16,1,205,NaN,bottle,bottle,true,0205_fc_dnn_true_bottle_35_n04591713_1174.png,n04591713_1174.png,1.0,2.1214695,0.4303736,1.1957854
vit_b_16,1,206,NaN,keyboard,keyboard,true,0206_fc_dnn_true_keyboard_35_n04505470_8544.png,n04505470_8544.png,1.0,5.1432433,0.6709948,3.1623573
vit_b_16,1,207,NaN,bear,bear,true,0207_fc_dnn_true_bear_35_n02134418_379.png,n02134418_379.png,1.0,2.4966345,0.5375425,1.3852872
vit_b_16,1,208,NaN,knife,knife,false,0208_fc_dnn_false_knife_35_n03041632_33198.png,n03041632_33198.png,1.0,2.22618,0.57777256,1.1656001
vit_b_16,1,209,NaN,bear,bear,true,0209_fc_dnn_true_bear_35_n02134084_4490.png,n02134084_4490.png,1.0,3.0558438,0.33475432,1.924101
vit_b_16,1,210,NaN,car,car,true,0210_fc_dnn_true_car_35_n02814533_23592.png,n02814533_23592.png,1.0,4.3922215,1.1774851,2.273162
vit_b_16,1,211,NaN,dog,dog,false,0211_fc_dnn_false_dog_35_n02102973_7095.png,n02102973_7095.png,1.0,0.2978378,0.24045329,0.040576972
vit_b_16,1,212,NaN,elephant,elephant,true,0212_fc_dnn_true_elephant_35_n02504013_3810.png,n02504013_3810.png,1.0,6.7807126,0.4972934,4.4430485
vit_b_16,1,213,NaN,truck,truck,false,0213_fc_dnn_false_truck_35_n03417042_28742.png,n03417042_28742.png,1.0,1.280211,0.48630795,0.5613742
vit_b_16,1,214,NaN,bicycle,bicycle,false,0214_fc_dnn_false_bicycle_35_n03792782_4382.png,n03792782_4382.png,1.0,6.5492644,1.3407103,3.6830041
vit_b_16,1,215,NaN,keyboard,keyboard,false,0215_fc_dnn_false_keyboard_35_n04505470_2868.png,n04505470_2868.png,1.0,5.0974913,0.240718,3.4342575
vit_b_16,1,216,NaN,bear,bear,true,0216_fc_dnn_true_bear_35_n02132136_4817.png,n02132136_4817.png,1.0,3.63411,0.3022742,2.3559637
vit_b_16,1,217,NaN,bicycle,bicycle,true,0217_fc_dnn_true_bicycle_35_n03792782_1989.png,n03792782_1989.png,1.0,5.896742,0.44619104,3.8541217
vit_b_16,1,218,NaN,keyboard,truck,true,0218_fc_dnn_true_truck_35_n03417042_4883.png,n03417042_4883.png,0.0,0.39675474,0.44351524,-0.033064667
vit_b_16,1,219,NaN,bicycle,bicycle,true,0219_fc_dnn_true_bicycle_35_n03792782_6614.png,n03792782_6614.png,1.0,6.919338,0.371648,4.629916
vit_b_16,1,220,NaN,car,car,true,0220_fc_dnn_true_car_35_n04285008_8581.png,n04285008_8581.png,1.0,5.8812003,0.15181997,4.051284
vit_b_16,1,221,NaN,truck,truck,true,0221_fc_dnn_true_truck_35_n04467665_22051.png,n04467665_22051.png,1.0,1.5888876,1.3920892,0.13915743
vit_b_16,1,222,NaN,keyboard,keyboard,true,0222_fc_dnn_true_keyboard_35_n04505470_4516.png,n04505470_4516.png,1.0,5.111453,0.25332218,3.4352174
vit_b_16,1,223,NaN,clock,clock,true,0223_fc_dnn_true_clock_35_n02708093_3355.png,n02708093_3355.png,1.0,6.305597,1.4867526,3.4074376
vit_b_16,1,224,NaN,chair,chair,false,0224_fc_dnn_false_chair_35_n02791124_11404.png,n02791124_11404.png,1.0,1.7941432,0.47289354,0.93426466
vit_b_16,1,225,NaN,boat,boat,true,0225_fc_dnn_true_boat_35_n03344393_1145.png,n03344393_1145.png,1.0,2.2763178,0.25734234,1.4276313
vit_b_16,1,226,NaN,keyboard,keyboard,false,0226_fc_dnn_false_keyboard_35_n04505470_4627.png,n04505470_4627.png,1.0,6.411609,2.0694153,3.0703945
vit_b_16,1,227,NaN,chair,chair,true,0227_fc_dnn_true_chair_35_n03376595_4354.png,n03376595_4354.png,1.0,2.1688495,0.25401407,1.3539932
vit_b_16,1,228,NaN,keyboard,keyboard,false,0228_fc_dnn_false_keyboard_35_n03085013_3231.png,n03085013_3231.png,1.0,7.782578,0.6674997,5.0311203
vit_b_16,1,229,NaN,car,car,false,0229_fc_dnn_false_car_35_n03100240_7454.png,n03100240_7454.png,1.0,6.2503753,0.8834903,3.794961
vit_b_16,1,230,NaN,chair,chair,false,0230_fc_dnn_false_chair_35_n03376595_4212.png,n03376595_4212.png,1.0,2.9145277,1.6897805,0.86602706
vit_b_16,1,231,NaN,airplane,airplane,true,0231_fc_dnn_true_airplane_35_n02690373_4175.png,n02690373_4175.png,1.0,9.408906,0.54287827,6.2692285
vit_b_16,1,232,NaN,clock,bird,false,0232_fc_dnn_false_bird_35_n01614925_19918.png,n01614925_19918.png,0.0,0.5191288,1.3901491,-0.6159044
vit_b_16,1,233,NaN,dog,dog,false,0233_fc_dnn_false_dog_35_n02086240_1183.png,n02086240_1183.png,1.0,1.0584356,0.37466028,0.48350215
vit_b_16,1,234,NaN,car,car,false,0234_fc_dnn_false_car_35_n02814533_1344.png,n02814533_1344.png,1.0,3.9233227,1.831864,1.4788847
vit_b_16,1,235,NaN,bottle,bottle,true,0235_fc_dnn_true_bottle_35_n03983396_1321.png,n03983396_1321.png,1.0,3.5076327,0.38134325,2.2106204
vit_b_16,1,236,NaN,cat,cat,true,0236_fc_dnn_true_cat_35_n02123597_6291.png,n02123597_6291.png,1.0,2.272503,0.46752274,1.2763138
vit_b_16,1,237,NaN,airplane,airplane,true,0237_fc_dnn_true_airplane_35_n02690373_7698.png,n02690373_7698.png,1.0,8.8315525,3.2202957,3.9677577
vit_b_16,1,238,NaN,airplane,airplane,false,0238_fc_dnn_false_airplane_35_n02690373_4191.png,n02690373_4191.png,1.0,8.833753,0.35463086,5.995645
vit_b_16,1,239,NaN,bear,bear,true,0239_fc_dnn_true_bear_35_n02134418_6204.png,n02134418_6204.png,1.0,3.4757776,0.22884248,2.29593
vit_b_16,1,240,NaN,bear,bear,true,0240_fc_dnn_true_bear_35_n02132136_14829.png,n02132136_14829.png,1.0,2.9347625,0.9640028,1.3935375
vit_b_16,1,241,NaN,car,car,false,0241_fc_dnn_false_car_35_n04285008_2409.png,n04285008_2409.png,1.0,5.482807,0.12986398,3.7851026
vit_b_16,1,242,NaN,bear,bird,true,0242_fc_dnn_true_bird_35_n02037110_3761.png,n02037110_3761.png,0.0,0.15866587,0.4625091,-0.2148496
vit_b_16,1,243,NaN,boat,boat,false,0243_fc_dnn_false_boat_35_n02951358_3067.png,n02951358_3067.png,1.0,2.0777736,0.76990014,0.92480624
vit_b_16,1,244,NaN,chair,chair,false,0244_fc_dnn_false_chair_35_n03376595_14748.png,n03376595_14748.png,1.0,3.8291807,0.41029352,2.4175184
vit_b_16,1,245,NaN,elephant,elephant,true,0245_fc_dnn_true_elephant_35_n02504458_5951.png,n02504458_5951.png,1.0,7.1010056,0.08929539,4.958028
vit_b_16,1,246,NaN,clock,clock,false,0246_fc_dnn_false_clock_35_n02708093_2006.png,n02708093_2006.png,1.0,5.3752847,1.0733229,3.0419464
vit_b_16,1,247,NaN,car,car,false,0247_fc_dnn_false_car_35_n03100240_18646.png,n03100240_18646.png,1.0,5.5476966,1.0657034,3.1692479
vit_b_16,1,248,NaN,bicycle,bicycle,false,0248_fc_dnn_false_bicycle_35_n03792782_5864.png,n03792782_5864.png,1.0,8.175254,0.3707547,5.5186143
vit_b_16,1,249,NaN,chair,chair,false,0249_fc_dnn_false_chair_35_n04429376_36830.png,n04429376_36830.png,1.0,1.9333978,1.2969221,0.45005628
vit_b_16,1,250,NaN,boat,boat,true,0250_fc_dnn_true_boat_35_n04273569_9282.png,n04273569_9282.png,1.0,2.779906,0.33626637,1.7279142
vit_b_16,1,251,NaN,bird,bird,true,0251_fc_dnn_true_bird_35_n01622779_1609.png,n01622779_1609.png,1.0,0.23457159,0.17040305,0.045374013
vit_b_16,1,252,NaN,dog,dog,true,0252_fc_dnn_true_dog_35_n02088094_9498.png,n02088094_9498.png,1.0,1.1825737,0.17278704,0.714027
vit_b_16,1,253,NaN,car,car,true,0253_fc_dnn_true_car_35_n04285008_5525.png,n04285008_5525.png,1.0,6.143664,0.06974498,4.2949095
vit_b_16,1,254,NaN,knife,knife,true,0254_fc_dnn_true_knife_35_n03041632_29343.png,n03041632_29343.png,1.0,9.794147,1.5147506,5.8544173
vit_b_16,1,255,NaN,knife,knife,true,0255_fc_dnn_true_knife_35_n03041632_86338.png,n03041632_86338.png,1.0,9.696116,2.1384418,5.344083
vit_b_16,1,256,NaN,keyboard,keyboard,false,0256_fc_dnn_false_keyboard_35_n03085013_20691.png,n03085013_20691.png,1.0,3.6431355,0.49584103,2.2254734
vit_b_16,1,257,NaN,cat,cat,true,0257_fc_dnn_true_cat_35_n02124075_1957.png,n02124075_1957.png,1.0,4.7858796,0.74493545,2.857379
vit_b_16,1,258,NaN,bear,bear,false,0258_fc_dnn_false_bear_35_n02134418_195.png,n02134418_195.png,1.0,3.848124,0.04675608,2.687973
vit_b_16,1,259,NaN,chair,chair,true,0259_fc_dnn_true_chair_35_n02791124_1376.png,n02791124_1376.png,1.0,2.7103827,0.043724712,1.8856119
vit_b_16,1,260,NaN,elephant,elephant,false,0260_fc_dnn_false_elephant_35_n02504458_8060.png,n02504458_8060.png,1.0,7.406143,0.29324174,5.029581
vit_b_16,1,261,NaN,oven,oven,false,0261_fc_dnn_false_oven_35_n04111531_6479.png,n04111531_6479.png,1.0,5.4521313,0.7195796,3.3464193
vit_b_16,1,262,NaN,bear,bear,true,0262_fc_dnn_true_bear_35_n02132136_4070.png,n02132136_4070.png,1.0,3.250734,0.40045923,2.0154486
vit_b_16,1,263,NaN,cat,cat,false,0263_fc_dnn_false_cat_35_n02123597_1153.png,n02123597_1153.png,1.0,2.3612673,0.396084,1.3895944
vit_b_16,1,264,NaN,truck,truck,false,0264_fc_dnn_false_truck_35_n04467665_49656.png,n04467665_49656.png,1.0,2.823182,0.30901694,1.7777833
vit_b_16,1,265,NaN,elephant,dog,true,0265_fc_dnn_true_dog_35_n02108915_10239.png,n02108915_10239.png,0.0,0.43816864,0.80622274,-0.26025355
vit_b_16,1,266,NaN,chair,chair,false,0266_fc_dnn_false_chair_35_n04429376_6835.png,n04429376_6835.png,1.0,3.3103018,1.5504742,1.2443861
vit_b_16,1,267,NaN,truck,truck,true,0267_fc_dnn_true_truck_35_n04467665_54079.png,n04467665_54079.png,1.0,2.3730068,0.4811664,1.3377333
vit_b_16,1,268,NaN,clock,clock,false,0268_fc_dnn_false_clock_35_n03196217_4464.png,n03196217_4464.png,1.0,4.404723,0.24486238,2.9414656
vit_b_16,1,269,NaN,car,dog,true,0269_fc_dnn_true_dog_35_n02102318_9359.png,n02102318_9359.png,0.0,0.2879165,0.5983328,-0.21949749
vit_b_16,1,270,NaN,bicycle,bicycle,true,0270_fc_dnn_true_bicycle_35_n03792782_12578.png,n03792782_12578.png,1.0,7.238989,0.44540206,4.8037915
vit_b_16,1,271,NaN,bicycle,bicycle,true,0271_fc_dnn_true_bicycle_35_n02835271_12752.png,n02835271_12752.png,1.0,6.500529,0.25702038,4.4148273
vit_b_16,1,272,NaN,oven,oven,true,0272_fc_dnn_true_oven_35_n04111531_20056.png,n04111531_20056.png,1.0,7.9762626,1.5092866,4.5728426
vit_b_16,1,273,NaN,oven,oven,true,0273_fc_dnn_true_oven_35_n04111531_12510.png,n04111531_12510.png,1.0,9.003204,0.24445122,6.1933737
vit_b_16,1,274,NaN,oven,oven,false,0274_fc_dnn_false_oven_35_n04111531_11079.png,n04111531_11079.png,1.0,9.798949,0.1106136,6.850688
vit_b_16,1,275,NaN,cat,cat,true,0275_fc_dnn_true_cat_35_n02124075_4377.png,n02124075_4377.png,1.0,3.406895,0.39453626,2.1300592
vit_b_16,1,276,NaN,knife,knife,true,0276_fc_dnn_true_knife_35_n03041632_20517.png,n03041632_20517.png,1.0,8.754428,0.7906414,5.6312475
vit_b_16,1,277,NaN,knife,knife,false,0277_fc_dnn_false_knife_35_n03041632_362.png,n03041632_362.png,1.0,9.686031,0.9373461,6.1862545
vit_b_16,1,278,NaN,airplane,airplane,false,0278_fc_dnn_false_airplane_35_n02690373_6807.png,n02690373_6807.png,1.0,9.489147,0.8840757,6.0847044
vit_b_16,1,279,NaN,elephant,elephant,false,0279_fc_dnn_false_elephant_35_n02504013_1494.png,n02504013_1494.png,1.0,7.732733,0.92080426,4.816761
vit_b_16,1,280,NaN,knife,oven,false,0280_fc_dnn_false_oven_35_n04111531_3181.png,n04111531_3181.png,0.0,0.8257939,2.2621915,-1.0156865
vit_b_16,1,281,NaN,truck,truck,false,0281_fc_dnn_false_truck_35_n03796401_6727.png,n03796401_6727.png,1.0,1.3254122,0.9039619,0.29801035
vit_b_16,1,282,NaN,dog,dog,true,0282_fc_dnn_true_dog_35_n02113023_6956.png,n02113023_6956.png,1.0,0.43977913,0.21019411,0.16234113
vit_b_16,1,283,NaN,elephant,elephant,false,0283_fc_dnn_false_elephant_35_n02504013_1519.png,n02504013_1519.png,1.0,2.4302292,0.24478512,1.5453423
vit_b_16,1,284,NaN,oven,oven,false,0284_fc_dnn_false_oven_35_n04111531_8082.png,n04111531_8082.png,1.0,8.660552,0.7194413,5.6152134
vit_b_16,1,285,NaN,oven,oven,false,0285_fc_dnn_false_oven_35_n04111531_550.png,n04111531_550.png,1.0,7.8236194,0.57941884,5.1224236
vit_b_16,1,286,NaN,clock,clock,false,0286_fc_dnn_false_clock_35_n02708093_2242.png,n02708093_2242.png,1.0,5.4349213,0.39591497,3.5631156
vit_b_16,1,287,NaN,airplane,airplane,true,0287_fc_dnn_true_airplane_35_n02690373_10809.png,n02690373_10809.png,1.0,9.2422285,0.7777828,5.985267
vit_b_16,1,288,NaN,bird,bird,false,0288_fc_dnn_false_bird_35_n02037110_6501.png,n02037110_6501.png,1.0,0.6545828,0.5497901,0.07409964
vit_b_16,1,289,NaN,airplane,airplane,false,0289_fc_dnn_false_airplane_35_n02690373_12756.png,n02690373_12756.png,1.0,9.290604,0.48442096,6.2269115
vit_b_16,1,290,NaN,bottle,bottle,false,0290_fc_dnn_false_bottle_35_n03983396_5413.png,n03983396_5413.png,1.0,2.9952958,0.65215,1.6568544
vit_b_16,1,291,NaN,bird,bird,true,0291_fc_dnn_true_bird_35_n01560419_631.png,n01560419_631.png,1.0,0.22940685,0.2079426,0.015177513
vit_b_16,1,292,NaN,cat,cat,true,0292_fc_dnn_true_cat_35_n02123394_4734.png,n02123394_4734.png,1.0,2.3346322,0.90499014,1.0109096
vit_b_16,1,293,NaN,dog,bottle,true,0293_fc_dnn_true_bottle_35_n03937543_469.png,n03937543_469.png,0.0,-0.09080489,0.4272551,-0.3663237
vit_b_16,1,294,NaN,clock,clock,true,0294_fc_dnn_true_clock_35_n04548280_1055.png,n04548280_1055.png,1.0,5.589831,0.3979754,3.6711962
vit_b_16,1,295,NaN,chair,chair,true,0295_fc_dnn_true_chair_35_n02791124_15934.png,n02791124_15934.png,1.0,3.364843,0.48506767,2.0363088
vit_b_16,1,296,NaN,keyboard,keyboard,true,0296_fc_dnn_true_keyboard_35_n03085013_22187.png,n03085013_22187.png,1.0,5.8840866,3.1004145,1.9683534
vit_b_16,1,297,NaN,bottle,dog,false,0297_fc_dnn_false_dog_35_n02099601_8560.png,n02099601_8560.png,0.0,0.30875602,0.35809067,-0.034884863
vit_b_16,1,298,NaN,truck,truck,true,0298_fc_dnn_true_truck_35_n03417042_11091.png,n03417042_11091.png,1.0,1.503171,0.21636394,0.90991
vit_b_16,1,299,NaN,car,bird,true,0299_fc_dnn_true_bird_35_n02013706_7132.png,n02013706_7132.png,0.0,-0.21365717,0.43925014,-0.4616752
vit_b_16,1,300,NaN,car,car,false,0300_fc_dnn_false_car_35_n02814533_4978.png,n02814533_4978.png,1.0,4.7063465,1.4673514,2.2903154
vit_b_16,1,301,NaN,bear,bear,true,0301_fc_dnn_true_bear_35_n02134418_6244.png,n02134418_6244.png,1.0,2.376189,0.26302245,1.4942344
vit_b_16,1,302,NaN,bicycle,bicycle,false,0302_fc_dnn_false_bicycle_35_n03792782_50569.png,n03792782_50569.png,1.0,6.7537565,1.5001161,3.7148848
vit_b_16,1,303,NaN,car,car,true,0303_fc_dnn_true_car_35_n03100240_2632.png,n03100240_2632.png,1.0,7.6074433,1.6702049,4.1982617
vit_b_16,1,304,NaN,knife,knife,false,0304_fc_dnn_false_knife_35_n03041632_11285.png,n03041632_11285.png,1.0,8.8446455,0.92471015,5.60024
vit_b_16,1,305,NaN,knife,knife,false,0305_fc_dnn_false_knife_35_n03041632_39952.png,n03041632_39952.png,1.0,8.651309,1.0772308,5.355682
vit_b_16,1,306,NaN,chair,chair,true,0306_fc_dnn_true_chair_35_n04099969_9745.png,n04099969_9745.png,1.0,4.0091114,1.0516691,2.0912275
vit_b_16,1,307,NaN,car,car,true,0307_fc_dnn_true_car_35_n03100240_49.png,n03100240_49.png,1.0,5.931997,0.54575604,3.8086476
vit_b_16,1,308,NaN,bird,bird,true,0308_fc_dnn_true_bird_35_n01817953_5953.png,n01817953_5953.png,1.0,0.31687233,0.2819023,0.024727535
vit_b_16,1,309,NaN,bear,bear,false,0309_fc_dnn_false_bear_35_n02134418_5253.png,n02134418_5253.png,1.0,3.2938662,0.6773983,1.8501222
vit_b_16,1,310,NaN,bicycle,bicycle,false,0310_fc_dnn_false_bicycle_35_n03792782_7576.png,n03792782_7576.png,1.0,8.068409,1.6329085,4.550586
vit_b_16,1,311,NaN,keyboard,keyboard,true,0311_fc_dnn_true_keyboard_35_n03085013_5157.png,n03085013_5157.png,1.0,7.538521,0.2386588,5.161782
vit_b_16,1,312,NaN,boat,boat,true,0312_fc_dnn_true_boat_35_n03344393_7050.png,n03344393_7050.png,1.0,1.9310741,0.673557,0.8891989
vit_b_16,1,313,NaN,bicycle,bicycle,false,0313_fc_dnn_false_bicycle_35_n03792782_51335.png,n03792782_51335.png,1.0,6.668174,1.5942484,3.5878072
vit_b_16,1,314,NaN,cat,cat,true,0314_fc_dnn_true_cat_35_n02124075_7230.png,n02124075_7230.png,1.0,2.9640923,0.62935895,1.6509057
vit_b_16,1,315,NaN,truck,truck,true,0315_fc_dnn_true_truck_35_n04467665_68020.png,n04467665_68020.png,1.0,2.1153412,0.6215193,1.0562916
vit_b_16,1,316,NaN,elephant,elephant,true,0316_fc_dnn_true_elephant_35_n02504458_2970.png,n02504458_2970.png,1.0,7.9383965,1.1857438,4.7748466
vit_b_16,1,317,NaN,bicycle,bicycle,false,0317_fc_dnn_false_bicycle_35_n02835271_2714.png,n02835271_2714.png,1.0,5.012403,0.1127065,3.4646087
vit_b_16,1,318,NaN,elephant,elephant,true,0318_fc_dnn_true_elephant_35_n02504013_3307.png,n02504013_3307.png,1.0,5.109402,0.1723068,3.4910536
vit_b_16,1,319,NaN,truck,truck,true,0319_fc_dnn_true_truck_35_n03796401_3940.png,n03796401_3940.png,1.0,1.6776681,0.1858962,1.0548421
vit_b_16,1,320,NaN,chair,chair,false,0320_fc_dnn_false_chair_35_n04429376_5362.png,n04429376_5362.png,1.0,2.7682226,0.90826577,1.315188
vit_b_16,1,321,NaN,cat,cat,false,0321_fc_dnn_false_cat_35_n02123159_1165.png,n02123159_1165.png,1.0,4.5451236,0.6987513,2.719796
vit_b_16,1,322,NaN,boat,boat,true,0322_fc_dnn_true_boat_35_n03662601_4665.png,n03662601_4665.png,1.0,2.004333,0.30842444,1.1991885
vit_b_16,1,323,NaN,cat,cat,true,0323_fc_dnn_true_cat_35_n02124075_5067.png,n02124075_5067.png,1.0,2.3681762,0.4310788,1.3697348
vit_b_16,1,324,NaN,knife,knife,true,0324_fc_dnn_true_knife_35_n03041632_22480.png,n03041632_22480.png,1.0,7.515301,1.6602644,4.1401362
vit_b_16,1,325,NaN,bicycle,bottle,false,0325_fc_dnn_false_bottle_35_n04560804_2539.png,n04560804_2539.png,0.0,1.2158518,5.0055485,-2.6797202
vit_b_16,1,326,NaN,oven,oven,true,0326_fc_dnn_true_oven_35_n04111531_8681.png,n04111531_8681.png,1.0,9.005908,0.7708001,5.8231006
vit_b_16,1,327,NaN,car,car,false,0327_fc_dnn_false_car_35_n03100240_23804.png,n03100240_23804.png,1.0,5.6461587,0.4644763,3.664003
vit_b_16,1,328,NaN,oven,oven,true,0328_fc_dnn_true_oven_35_n04111531_547.png,n04111531_547.png,1.0,8.580406,0.47855875,5.7288713
vit_b_16,1,329,NaN,boat,boat,false,0329_fc_dnn_false_boat_35_n04273569_9873.png,n04273569_9873.png,1.0,1.9178778,0.430556,1.0516953
vit_b_16,1,330,NaN,cat,cat,false,0330_fc_dnn_false_cat_35_n02123597_13140.png,n02123597_13140.png,1.0,3.8083382,0.4651859,2.3639657
vit_b_16,1,331,NaN,bear,bear,true,0331_fc_dnn_true_bear_35_n02134418_1330.png,n02134418_1330.png,1.0,3.0634978,0.26502785,1.9788171
vit_b_16,1,332,NaN,chair,chair,false,0332_fc_dnn_false_chair_35_n04429376_6272.png,n04429376_6272.png,1.0,2.485092,1.0203253,1.0357465
vit_b_16,1,333,NaN,bear,bear,false,0333_fc_dnn_false_bear_35_n02134084_22997.png,n02134084_22997.png,1.0,3.1468854,0.40977377,1.9354302
vit_b_16,1,334,NaN,clock,clock,false,0334_fc_dnn_false_clock_35_n03196217_3508.png,n03196217_3508.png,1.0,2.9518745,0.6358129,1.6377028
vit_b_16,1,335,NaN,chair,chair,true,0335_fc_dnn_true_chair_35_n02791124_958.png,n02791124_958.png,1.0,1.6044643,0.9463077,0.465387
vit_b_16,1,336,NaN,boat,boat,false,0336_fc_dnn_false_boat_35_n03344393_4012.png,n03344393_4012.png,1.0,2.8599489,0.7213364,1.5122274
vit_b_16,1,337,NaN,airplane,airplane,true,0337_fc_dnn_true_airplane_35_n02690373_4921.png,n02690373_4921.png,1.0,9.117116,0.6088347,6.016264
vit_b_16,1,338,NaN,bear,cat,false,0338_fc_dnn_false_cat_35_n02125311_28052.png,n02125311_28052.png,0.0,1.5863339,2.7299492,-0.8086582
vit_b_16,1,339,NaN,airplane,airplane,false,0339_fc_dnn_false_airplane_35_n02690373_1837.png,n02690373_1837.png,1.0,8.252894,0.3647015,5.577795
vit_b_16,1,340,NaN,elephant,elephant,false,0340_fc_dnn_false_elephant_35_n02504458_5191.png,n02504458_5191.png,1.0,7.856329,0.707825,5.0547557
vit_b_16,1,341,NaN,bicycle,bird,false,0341_fc_dnn_false_bird_35_n01855672_2187.png,n01855672_2187.png,0.0,0.1717582,0.4615819,-0.2049363
vit_b_16,1,342,NaN,clock,clock,true,0342_fc_dnn_true_clock_35_n04548280_7794.png,n04548280_7794.png,1.0,6.0751367,0.57454425,3.889506
vit_b_16,1,343,NaN,clock,clock,false,0343_fc_dnn_false_clock_35_n03196217_8489.png,n03196217_8489.png,1.0,3.6449957,1.1449562,1.767795
vit_b_16,1,344,NaN,knife,knife,false,0344_fc_dnn_false_knife_35_n03041632_21590.png,n03041632_21590.png,1.0,4.0169997,1.9440155,1.4658213
vit_b_16,1,345,NaN,elephant,elephant,false,0345_fc_dnn_false_elephant_35_n02504458_1249.png,n02504458_1249.png,1.0,7.2398224,0.93951124,4.454993
vit_b_16,1,346,NaN,keyboard,keyboard,false,0346_fc_dnn_false_keyboard_35_n04505470_4549.png,n04505470_4549.png,1.0,5.1749163,1.0993204,2.8818815
vit_b_16,1,347,NaN,elephant,elephant,false,0347_fc_dnn_false_elephant_35_n02504013_3771.png,n02504013_3771.png,1.0,6.704606,0.57564116,4.3338327
vit_b_16,1,348,NaN,bicycle,bicycle,true,0348_fc_dnn_true_bicycle_35_n02835271_19552.png,n02835271_19552.png,1.0,5.376825,0.1692578,3.682306
vit_b_16,1,349,NaN,bear,bear,true,0349_fc_dnn_true_bear_35_n02134084_4477.png,n02134084_4477.png,1.0,3.7710154,0.24498773,2.493278
vit_b_16,1,350,NaN,elephant,elephant,false,0350_fc_dnn_false_elephant_35_n02504013_10149.png,n02504013_10149.png,1.0,7.152356,0.35925332,4.803449
vit_b_16,1,351,NaN,boat,boat,true,0351_fc_dnn_true_boat_35_n04273569_709.png,n04273569_709.png,1.0,3.6903458,0.23920897,2.4403224
vit_b_16,1,352,NaN,car,car,false,0352_fc_dnn_false_car_35_n03100240_7120.png,n03100240_7120.png,1.0,6.1782455,0.2191707,4.213702
vit_b_16,1,353,NaN,truck,boat,false,0353_fc_dnn_false_boat_35_n02951358_12867.png,n02951358_12867.png,0.0,1.8617728,2.4460537,-0.41314903
vit_b_16,1,354,NaN,elephant,bird,true,0354_fc_dnn_true_bird_35_n01558993_38999.png,n01558993_38999.png,0.0,0.11663628,0.25968105,-0.10114793
vit_b_16,1,355,NaN,bicycle,bicycle,false,0355_fc_dnn_false_bicycle_35_n03792782_4210.png,n03792782_4210.png,1.0,6.705283,0.8628455,4.1312275
vit_b_16,1,356,NaN,knife,dog,false,0356_fc_dnn_false_dog_35_n02102318_11997.png,n02102318_11997.png,0.0,0.25178725,0.4122251,-0.1134467
vit_b_16,1,357,NaN,clock,clock,false,0357_fc_dnn_false_clock_35_n02708093_6813.png,n02708093_6813.png,1.0,1.8886646,0.65398026,0.87305367
vit_b_16,1,358,NaN,oven,oven,false,0358_fc_dnn_false_oven_35_n04111531_8036.png,n04111531_8036.png,1.0,9.667797,1.7258407,5.6158113
vit_b_16,1,359,NaN,clock,clock,false,0359_fc_dnn_false_clock_35_n02708093_3454.png,n02708093_3454.png,1.0,6.0378823,0.4672638,3.9390223
vit_b_16,1,360,NaN,keyboard,keyboard,true,0360_fc_dnn_true_keyboard_35_n03085013_21641.png,n03085013_21641.png,1.0,7.01663,0.28144956,4.762492
vit_b_16,1,361,NaN,chair,chair,false,0361_fc_dnn_false_chair_35_n02791124_139.png,n02791124_139.png,1.0,1.5344143,0.8985208,0.4496446
vit_b_16,1,362,NaN,bear,bear,false,0362_fc_dnn_false_bear_35_n02134084_6821.png,n02134084_6821.png,1.0,2.886769,0.51700956,1.6756731
vit_b_16,1,363,NaN,cat,cat,false,0363_fc_dnn_false_cat_35_n02124075_5874.png,n02124075_5874.png,1.0,3.8269424,0.36189115,2.4501612
vit_b_16,1,364,NaN,chair,chair,false,0364_fc_dnn_false_chair_35_n04099969_8604.png,n04099969_8604.png,1.0,3.1257265,0.3128499,1.989004
vit_b_16,1,365,NaN,bicycle,bicycle,true,0365_fc_dnn_true_bicycle_35_n02835271_15524.png,n02835271_15524.png,1.0,5.5471935,0.116271794,3.8402414
vit_b_16,1,366,NaN,chair,chair,false,0366_fc_dnn_false_chair_35_n04429376_55163.png,n04429376_55163.png,1.0,4.479094,0.5383183,2.7865493
vit_b_16,1,367,NaN,clock,dog,true,0367_fc_dnn_true_dog_35_n02106662_10632.png,n02106662_10632.png,0.0,0.3015098,0.5044766,-0.14351921
vit_b_16,1,368,NaN,car,car,false,0368_fc_dnn_false_car_35_n03100240_9675.png,n03100240_9675.png,1.0,5.5447106,0.16994327,3.8005345
vit_b_16,1,369,NaN,bicycle,bird,true,0369_fc_dnn_true_bird_35_n02011460_22291.png,n02011460_22291.png,0.0,0.17971966,0.2058709,-0.018491719
vit_b_16,1,370,NaN,bottle,dog,false,0370_fc_dnn_false_dog_35_n02106662_56099.png,n02106662_56099.png,0.0,0.18754052,0.38768345,-0.14152242
vit_b_16,1,371,NaN,keyboard,keyboard,false,0371_fc_dnn_false_keyboard_35_n04505470_3970.png,n04505470_3970.png,1.0,6.8004165,1.1003484,4.0305567
vit_b_16,1,372,NaN,boat,boat,false,0372_fc_dnn_false_boat_35_n03662601_32803.png,n03662601_32803.png,1.0,4.917732,0.66601837,3.0064154
vit_b_16,1,373,NaN,bottle,bottle,false,0373_fc_dnn_false_bottle_35_n02823428_4043.png,n02823428_4043.png,1.0,3.6572516,0.44476962,2.2715678
vit_b_16,1,374,NaN,airplane,airplane,true,0374_fc_dnn_true_airplane_35_n02690373_5221.png,n02690373_5221.png,1.0,9.138564,0.5195506,6.094563
vit_b_16,1,375,NaN,knife,knife,false,0375_fc_dnn_false_knife_35_n03041632_90125.png,n03041632_90125.png,1.0,3.1354403,0.6810378,1.7355247
vit_b_16,1,376,NaN,oven,oven,false,0376_fc_dnn_false_oven_35_n04111531_11230.png,n04111531_11230.png,1.0,9.041334,0.059138745,6.351372
vit_b_16,1,377,NaN,keyboard,keyboard,true,0377_fc_dnn_true_keyboard_35_n04505470_3002.png,n04505470_3002.png,1.0,5.190755,0.34261352,3.4281535
vit_b_16,1,378,NaN,bicycle,bicycle,true,0378_fc_dnn_true_bicycle_35_n02835271_12237.png,n02835271_12237.png,1.0,5.6206694,0.25501686,3.7940893
vit_b_16,1,379,NaN,dog,dog,false,0379_fc_dnn_false_dog_35_n02088238_9947.png,n02088238_9947.png,1.0,0.55555177,0.5174485,0.02694309
vit_b_16,1,380,NaN,airplane,airplane,false,0380_fc_dnn_false_airplane_35_n02690373_2075.png,n02690373_2075.png,1.0,5.0561705,1.856601,2.2624373
vit_b_16,1,381,NaN,bicycle,bicycle,false,0381_fc_dnn_false_bicycle_35_n02835271_12930.png,n02835271_12930.png,1.0,5.301259,0.6061676,3.319931
vit_b_16,1,382,NaN,dog,dog,false,0382_fc_dnn_false_dog_35_n02096294_4609.png,n02096294_4609.png,1.0,1.1482043,0.42814514,0.50915873
vit_b_16,1,383,NaN,knife,knife,false,0383_fc_dnn_false_knife_35_n03041632_15754.png,n03041632_15754.png,1.0,9.055986,0.6315259,5.956993
vit_b_16,1,384,NaN,bird,bird,true,0384_fc_dnn_true_bird_35_n01819313_5634.png,n01819313_5634.png,1.0,0.16604494,0.15338884,0.008949209
vit_b_16,1,385,NaN,clock,clock,true,0385_fc_dnn_true_clock_35_n02708093_8386.png,n02708093_8386.png,1.0,6.278071,0.24303795,4.2674127
vit_b_16,1,386,NaN,bottle,bottle,false,0386_fc_dnn_false_bottle_35_n04579145_6435.png,n04579145_6435.png,1.0,1.8284484,0.41365469,1.0004102
vit_b_16,1,387,NaN,airplane,airplane,true,0387_fc_dnn_true_airplane_35_n02690373_9531.png,n02690373_9531.png,1.0,9.182595,1.1192325,5.7016587
vit_b_16,1,388,NaN,bottle,bottle,true,0388_fc_dnn_true_bottle_35_n04591713_5518.png,n04591713_5518.png,1.0,2.275359,0.7901376,1.0502101
vit_b_16,1,389,NaN,airplane,airplane,false,0389_fc_dnn_false_airplane_35_n02690373_12896.png,n02690373_12896.png,1.0,8.992666,1.447869,5.3349776
vit_b_16,1,390,NaN,truck,truck,false,0390_fc_dnn_false_truck_35_n03796401_124.png,n03796401_124.png,1.0,3.468171,1.1493076,1.6396841
vit_b_16,1,391,NaN,bicycle,bicycle,true,0391_fc_dnn_true_bicycle_35_n03792782_7050.png,n03792782_7050.png,1.0,6.4332952,0.18812831,4.416
vit_b_16,1,392,NaN,bicycle,bicycle,true,0392_fc_dnn_true_bicycle_35_n02835271_13729.png,n02835271_13729.png,1.0,5.7574434,0.38104662,3.8016865
vit_b_16,1,393,NaN,bird,bird,false,0393_fc_dnn_false_bird_35_n02027492_3922.png,n02027492_3922.png,1.0,0.81819916,0.337788,0.339702
vit_b_16,1,394,NaN,elephant,elephant,true,0394_fc_dnn_true_elephant_35_n02504013_9809.png,n02504013_9809.png,1.0,6.5102596,0.30079135,4.390757
vit_b_16,1,395,NaN,keyboard,keyboard,false,0395_fc_dnn_false_keyboard_35_n04505470_5086.png,n04505470_5086.png,1.0,5.0308776,0.5634092,3.1589773
vit_b_16,1,396,NaN,keyboard,keyboard,true,0396_fc_dnn_true_keyboard_35_n03085013_19439.png,n03085013_19439.png,1.0,6.754486,0.324643,4.5465856
vit_b_16,1,397,NaN,airplane,airplane,false,0397_fc_dnn_false_airplane_35_n02690373_9926.png,n02690373_9926.png,1.0,9.191268,0.25232533,6.3207874
vit_b_16,1,398,NaN,elephant,elephant,true,0398_fc_dnn_true_elephant_35_n02504458_3197.png,n02504458_3197.png,1.0,7.225054,0.32254174,4.880813
vit_b_16,1,399,NaN,dog,dog,false,0399_fc_dnn_false_dog_35_n02110185_14056.png,n02110185_14056.png,1.0,0.90195197,0.07407743,0.5853957
vit_b_16,1,400,NaN,airplane,airplane,true,0400_fc_dnn_true_airplane_35_n02690373_2823.png,n02690373_2823.png,1.0,9.057029,0.36314514,6.1475043
vit_b_16,1,401,NaN,bicycle,bicycle,false,0401_fc_dnn_false_bicycle_35_n02835271_14157.png,n02835271_14157.png,1.0,5.9794073,0.9937529,3.5253901
vit_b_16,1,402,NaN,chair,chair,true,0402_fc_dnn_true_chair_35_n03376595_606.png,n03376595_606.png,1.0,3.5923872,0.22510388,2.381029
vit_b_16,1,403,NaN,airplane,airplane,false,0403_fc_dnn_false_airplane_35_n02690373_1442.png,n02690373_1442.png,1.0,9.203288,0.35433596,6.2571545
vit_b_16,1,404,NaN,keyboard,keyboard,true,0404_fc_dnn_true_keyboard_35_n04505470_10035.png,n04505470_10035.png,1.0,6.412254,0.27365214,4.340647
vit_b_16,1,405,NaN,bear,bear,true,0405_fc_dnn_true_bear_35_n02133161_13278.png,n02133161_13278.png,1.0,5.3367786,0.74308753,3.24823
vit_b_16,1,406,NaN,bear,bear,true,0406_fc_dnn_true_bear_35_n02134418_2657.png,n02134418_2657.png,1.0,4.428585,0.7514268,2.6001437
vit_b_16,1,407,NaN,bear,bear,false,0407_fc_dnn_false_bear_35_n02133161_12894.png,n02133161_12894.png,1.0,5.7675276,0.24540594,3.9047296
vit_b_16,1,408,NaN,clock,clock,false,0408_fc_dnn_false_clock_35_n03196217_6195.png,n03196217_6195.png,1.0,3.815709,0.14684588,2.594278
vit_b_16,1,409,NaN,bottle,bottle,true,0409_fc_dnn_true_bottle_35_n04591713_13349.png,n04591713_13349.png,1.0,3.0338576,0.86952204,1.5304164
vit_b_16,1,410,NaN,boat,boat,false,0410_fc_dnn_false_boat_35_n04273569_16295.png,n04273569_16295.png,1.0,2.08488,0.48085856,1.1342145
vit_b_16,1,411,NaN,elephant,elephant,false,0411_fc_dnn_false_elephant_35_n02504013_2672.png,n02504013_2672.png,1.0,6.8774304,0.36576247,4.604445
vit_b_16,1,412,NaN,bear,bear,true,0412_fc_dnn_true_bear_35_n02134084_22292.png,n02134084_22292.png,1.0,2.8839498,0.43179265,1.7339369
vit_b_16,1,413,NaN,airplane,airplane,false,0413_fc_dnn_false_airplane_35_n02690373_997.png,n02690373_997.png,1.0,9.512639,0.7786906,6.1758347
vit_b_16,1,414,NaN,knife,knife,true,0414_fc_dnn_true_knife_35_n03041632_29337.png,n03041632_29337.png,1.0,9.189576,0.7242042,5.9859223
vit_b_16,1,415,NaN,elephant,elephant,true,0415_fc_dnn_true_elephant_35_n02504458_3261.png,n02504458_3261.png,1.0,7.952468,0.24140973,5.452542
vit_b_16,1,416,NaN,oven,oven,true,0416_fc_dnn_true_oven_35_n04111531_22120.png,n04111531_22120.png,1.0,9.987256,0.3846284,6.7900834
vit_b_16,1,417,NaN,bear,bear,true,0417_fc_dnn_true_bear_35_n02134418_830.png,n02134418_830.png,1.0,2.73584,0.18443108,1.8041186
vit_b_16,1,418,NaN,truck,truck,false,0418_fc_dnn_false_truck_35_n03417042_2124.png,n03417042_2124.png,1.0,3.0170283,0.6138303,1.6993176
vit_b_16,1,419,NaN,bicycle,bicycle,false,0419_fc_dnn_false_bicycle_35_n02835271_14585.png,n02835271_14585.png,1.0,5.554487,0.8029677,3.3598318
vit_b_16,1,420,NaN,oven,oven,true,0420_fc_dnn_true_oven_35_n04111531_2855.png,n04111531_2855.png,1.0,9.201819,0.76972926,5.962388
vit_b_16,1,421,NaN,cat,cat,false,0421_fc_dnn_false_cat_35_n02123394_4383.png,n02123394_4383.png,1.0,2.4044638,0.417099,1.4052792
vit_b_16,1,422,NaN,cat,cat,true,0422_fc_dnn_true_cat_35_n02125311_17068.png,n02125311_17068.png,1.0,1.0964174,1.0050004,0.06464163
vit_b_16,1,423,NaN,car,bird,false,0423_fc_dnn_false_bird_35_n01560419_2291.png,n01560419_2291.png,0.0,0.43170422,0.6008008,-0.11956935
vit_b_16,1,424,NaN,bird,bird,false,0424_fc_dnn_false_bird_35_n01829413_2459.png,n01829413_2459.png,1.0,0.88157886,0.40807676,0.33481655
vit_b_16,1,425,NaN,oven,oven,true,0425_fc_dnn_true_oven_35_n04111531_13822.png,n04111531_13822.png,1.0,9.218802,0.13390815,6.4239902
vit_b_16,1,426,NaN,bear,bear,false,0426_fc_dnn_false_bear_35_n02133161_5067.png,n02133161_5067.png,1.0,5.948127,0.36142787,3.9503927
vit_b_16,1,427,NaN,chair,chair,false,0427_fc_dnn_false_chair_35_n02791124_885.png,n02791124_885.png,1.0,2.0095155,0.2056328,1.2755377
vit_b_16,1,428,NaN,airplane,dog,true,0428_fc_dnn_true_dog_35_n02107312_7182.png,n02107312_7182.png,0.0,-0.12324105,0.5850773,-0.5008567
vit_b_16,1,429,NaN,truck,truck,true,0429_fc_dnn_true_truck_35_n04467665_13989.png,n04467665_13989.png,1.0,3.0415523,1.8469992,0.8446766
vit_b_16,1,430,NaN,oven,dog,true,0430_fc_dnn_true_dog_35_n02102480_10232.png,n02102480_10232.png,0.0,-0.47312972,0.44010454,-0.64575416
vit_b_16,1,431,NaN,oven,oven,false,0431_fc_dnn_false_oven_35_n04111531_643.png,n04111531_643.png,1.0,6.9334087,0.7492252,4.372878
vit_b_16,1,432,NaN,boat,boat,true,0432_fc_dnn_true_boat_35_n02951358_31514.png,n02951358_31514.png,1.0,1.9395351,0.4520123,1.0518376
vit_b_16,1,433,NaN,oven,oven,true,0433_fc_dnn_true_oven_35_n04111531_1898.png,n04111531_1898.png,1.0,9.128687,0.014571229,6.444653
vit_b_16,1,434,NaN,car,car,true,0434_fc_dnn_true_car_35_n03100240_5865.png,n03100240_5865.png,1.0,6.4371667,0.11322377,4.471703
vit_b_16,1,435,NaN,keyboard,keyboard,true,0435_fc_dnn_true_keyboard_35_n04505470_4369.png,n04505470_4369.png,1.0,4.993551,0.42141736,3.2329867
vit_b_16,1,436,NaN,keyboard,cat,false,0436_fc_dnn_false_cat_35_n02123394_1942.png,n02123394_1942.png,0.0,1.2533045,1.6645136,-0.29076874
vit_b_16,1,437,NaN,car,car,true,0437_fc_dnn_true_car_35_n04285008_2900.png,n04285008_2900.png,1.0,5.4963746,0.25173047,3.7085235
vit_b_16,1,438,NaN,airplane,airplane,true,0438_fc_dnn_true_airplane_35_n02690373_10926.png,n02690373_10926.png,1.0,9.363204,0.4300179,6.3167167
vit_b_16,1,439,NaN,knife,knife,true,0439_fc_dnn_true_knife_35_n03041632_11613.png,n03041632_11613.png,1.0,7.730436,0.28881064,5.2620234
vit_b_16,1,440,NaN,knife,knife,true,0440_fc_dnn_true_knife_35_n03041632_24817.png,n03041632_24817.png,1.0,10.0937395,0.37624234,6.871308
vit_b_16,1,441,NaN,bicycle,bicycle,true,0441_fc_dnn_true_bicycle_35_n02835271_3042.png,n02835271_3042.png,1.0,6.2803574,0.23771425,4.272794
vit_b_16,1,442,NaN,cat,dog,true,0442_fc_dnn_true_dog_35_n02102177_7737.png,n02102177_7737.png,0.0,0.014956934,0.15374221,-0.09813601
vit_b_16,1,443,NaN,oven,oven,true,0443_fc_dnn_true_oven_35_n04111531_21460.png,n04111531_21460.png,1.0,9.27112,0.048084576,6.5216713
vit_b_16,1,444,NaN,keyboard,keyboard,false,0444_fc_dnn_false_keyboard_35_n04505470_7388.png,n04505470_7388.png,1.0,5.3643837,0.23396471,3.627754
vit_b_16,1,445,NaN,bird,bird,true,0445_fc_dnn_true_bird_35_n01828970_25642.png,n01828970_25642.png,1.0,0.4162004,0.07647723,0.24022056
vit_b_16,1,446,NaN,bicycle,bicycle,false,0446_fc_dnn_false_bicycle_35_n02835271_608.png,n02835271_608.png,1.0,5.7980785,0.32894462,3.8672616
vit_b_16,1,447,NaN,boat,boat,true,0447_fc_dnn_true_boat_35_n04273569_26182.png,n04273569_26182.png,1.0,2.6875052,0.9484816,1.2296754
vit_b_16,1,448,NaN,cat,cat,false,0448_fc_dnn_false_cat_35_n02123045_9384.png,n02123045_9384.png,1.0,4.3650546,0.25731152,2.9046133
vit_b_16,1,449,NaN,airplane,airplane,true,0449_fc_dnn_true_airplane_35_n02690373_9529.png,n02690373_9529.png,1.0,9.090452,0.4415334,6.1157093
vit_b_16,1,450,NaN,cat,cat,true,0450_fc_dnn_true_cat_35_n02123597_5081.png,n02123597_5081.png,1.0,2.0814817,0.463169,1.1443199
vit_b_16,1,451,NaN,oven,oven,false,0451_fc_dnn_false_oven_35_n04111531_4998.png,n04111531_4998.png,1.0,10.569235,0.566188,7.0732226
vit_b_16,1,452,NaN,clock,clock,true,0452_fc_dnn_true_clock_35_n04548280_1245.png,n04548280_1245.png,1.0,5.4689994,0.27862492,3.670149
vit_b_16,1,453,NaN,dog,dog,true,0453_fc_dnn_true_dog_35_n02104365_8609.png,n02104365_8609.png,1.0,0.38042173,0.20758243,0.122215845
vit_b_16,1,454,NaN,clock,clock,false,0454_fc_dnn_false_clock_35_n02708093_6414.png,n02708093_6414.png,1.0,5.916815,0.84012455,3.5897622
vit_b_16,1,455,NaN,bird,bird,true,0455_fc_dnn_true_bird_35_n01798484_9155.png,n01798484_9155.png,1.0,0.42824146,0.20598572,0.15715854
vit_b_16,1,456,NaN,oven,oven,true,0456_fc_dnn_true_oven_35_n04111531_10724.png,n04111531_10724.png,1.0,9.139876,1.4682643,5.424649
vit_b_16,1,457,NaN,boat,boat,true,0457_fc_dnn_true_boat_35_n02951358_32687.png,n02951358_32687.png,1.0,1.5995809,0.5131224,0.7682421
vit_b_16,1,458,NaN,bicycle,bicycle,true,0458_fc_dnn_true_bicycle_35_n02835271_31.png,n02835271_31.png,1.0,5.2428594,0.5012001,3.3528595
vit_b_16,1,459,NaN,bottle,bottle,true,0459_fc_dnn_true_bottle_35_n04557648_4420.png,n04557648_4420.png,1.0,3.2374651,1.2565826,1.4006954
vit_b_16,1,460,NaN,bear,bear,true,0460_fc_dnn_true_bear_35_n02133161_713.png,n02133161_713.png,1.0,4.482418,0.07737696,3.1148345
vit_b_16,1,461,NaN,airplane,airplane,false,0461_fc_dnn_false_airplane_35_n02690373_5967.png,n02690373_5967.png,1.0,8.787826,0.29087207,6.008254
vit_b_16,1,462,NaN,bird,bird,true,0462_fc_dnn_true_bird_35_n01795545_4502.png,n01795545_4502.png,1.0,0.25519416,0.2547009,0.00034878624
vit_b_16,1,463,NaN,cat,cat,true,0463_fc_dnn_true_cat_35_n02124075_11466.png,n02124075_11466.png,1.0,5.223302,0.41280794,3.401533
vit_b_16,1,464,NaN,keyboard,keyboard,true,0464_fc_dnn_true_keyboard_35_n03085013_21769.png,n03085013_21769.png,1.0,5.3062487,3.4020183,1.3464942
vit_b_16,1,465,NaN,car,car,false,0465_fc_dnn_false_car_35_n03100240_15097.png,n03100240_15097.png,1.0,6.1781287,0.6046906,3.941016
vit_b_16,1,466,NaN,knife,dog,false,0466_fc_dnn_false_dog_35_n02093647_3072.png,n02093647_3072.png,0.0,0.014845642,0.66070545,-0.45669183
vit_b_16,1,467,NaN,bicycle,bicycle,false,0467_fc_dnn_false_bicycle_35_n02835271_12701.png,n02835271_12701.png,1.0,6.7532554,0.6024396,4.3492837
vit_b_16,1,468,NaN,bear,bear,false,0468_fc_dnn_false_bear_35_n02134084_3227.png,n02134084_3227.png,1.0,3.0900495,0.8372836,1.592946
vit_b_16,1,469,NaN,cat,cat,true,0469_fc_dnn_true_cat_35_n02123394_5001.png,n02123394_5001.png,1.0,2.184084,0.9532696,0.87031716
vit_b_16,1,470,NaN,keyboard,keyboard,true,0470_fc_dnn_true_keyboard_35_n03085013_6862.png,n03085013_6862.png,1.0,4.601823,0.23507519,3.087757
vit_b_16,1,471,NaN,chair,chair,true,0471_fc_dnn_true_chair_35_n04099969_45461.png,n04099969_45461.png,1.0,2.8677444,0.39234135,1.7503743
vit_b_16,1,472,NaN,bicycle,bicycle,false,0472_fc_dnn_false_bicycle_35_n03792782_485.png,n03792782_485.png,1.0,7.2904325,1.0235225,4.4313745
vit_b_16,1,473,NaN,oven,oven,true,0473_fc_dnn_true_oven_35_n04111531_1674.png,n04111531_1674.png,1.0,9.171562,1.8384486,5.1852946
vit_b_16,1,474,NaN,airplane,airplane,true,0474_fc_dnn_true_airplane_35_n02690373_866.png,n02690373_866.png,1.0,8.999239,0.1990198,6.222695
vit_b_16,1,475,NaN,oven,oven,false,0475_fc_dnn_false_oven_35_n04111531_9297.png,n04111531_9297.png,1.0,5.740829,0.42556268,3.7584608
vit_b_16,1,476,NaN,elephant,elephant,false,0476_fc_dnn_false_elephant_35_n02504458_6878.png,n02504458_6878.png,1.0,7.278466,0.3222839,4.918764
vit_b_16,1,477,NaN,car,car,true,0477_fc_dnn_true_car_35_n03100240_3151.png,n03100240_3151.png,1.0,7.170212,0.61390567,4.6360083
vit_b_16,1,478,NaN,airplane,airplane,false,0478_fc_dnn_false_airplane_35_n02690373_6363.png,n02690373_6363.png,1.0,8.865575,0.40841946,5.980112
vit_b_16,1,479,NaN,car,car,true,0479_fc_dnn_true_car_35_n04285008_15049.png,n04285008_15049.png,1.0,5.302031,0.3338586,3.5130286
vit_b_16,1,480,NaN,truck,truck,true,0480_fc_dnn_true_truck_35_n04467665_2505.png,n04467665_2505.png,1.0,2.0620337,0.63280344,1.0106184
vit_b_16,1,481,NaN,knife,bottle,true,0481_fc_dnn_true_bottle_35_n04591713_4030.png,n04591713_4030.png,0.0,1.4635199,4.257108,-1.9753652
vit_b_16,1,482,NaN,oven,oven,true,0482_fc_dnn_true_oven_35_n04111531_12929.png,n04111531_12929.png,1.0,9.167468,1.0406389,5.7465363
vit_b_16,1,483,NaN,cat,cat,true,0483_fc_dnn_true_cat_35_n02125311_53315.png,n02125311_53315.png,1.0,1.325646,0.33169374,0.70283043
vit_b_16,1,484,NaN,dog,dog,true,0484_fc_dnn_true_dog_35_n02087046_4409.png,n02087046_4409.png,1.0,1.2107453,0.48073325,0.5161965
vit_b_16,1,485,NaN,oven,oven,false,0485_fc_dnn_false_oven_35_n04111531_21120.png,n04111531_21120.png,1.0,4.76745,0.5512128,2.98133
vit_b_16,1,486,NaN,elephant,elephant,false,0486_fc_dnn_false_elephant_35_n02504013_5934.png,n02504013_5934.png,1.0,5.969946,1.7176232,3.0068462
vit_b_16,1,487,NaN,car,car,true,0487_fc_dnn_true_car_35_n04285008_3631.png,n04285008_3631.png,1.0,4.597605,0.7391842,2.7283158
vit_b_16,1,488,NaN,clock,clock,true,0488_fc_dnn_true_clock_35_n03196217_7663.png,n03196217_7663.png,1.0,2.3587205,0.9194927,1.0176878
vit_b_16,1,489,NaN,bicycle,bicycle,false,0489_fc_dnn_false_bicycle_35_n03792782_801.png,n03792782_801.png,1.0,2.6862004,0.5379305,1.5190562
vit_b_16,1,490,NaN,bear,bear,false,0490_fc_dnn_false_bear_35_n02133161_6983.png,n02133161_6983.png,1.0,4.8658895,0.39673257,3.1601715
vit_b_16,1,491,NaN,keyboard,keyboard,true,0491_fc_dnn_true_keyboard_35_n03085013_20825.png,n03085013_20825.png,1.0,6.522345,0.50173056,4.2572174
vit_b_16,1,492,NaN,clock,clock,true,0492_fc_dnn_true_clock_35_n03196217_1219.png,n03196217_1219.png,1.0,6.3337593,3.085361,2.2969644
vit_b_16,1,493,NaN,airplane,airplane,true,0493_fc_dnn_true_airplane_35_n02690373_18864.png,n02690373_18864.png,1.0,9.121673,0.3188349,6.224546
vit_b_16,1,494,NaN,airplane,airplane,false,0494_fc_dnn_false_airplane_35_n02690373_1019.png,n02690373_1019.png,1.0,7.079376,0.66152555,4.5381055
vit_b_16,1,495,NaN,airplane,bird,true,0495_fc_dnn_true_bird_35_n02013706_10478.png,n02013706_10478.png,0.0,0.21366636,0.5345454,-0.22689575
vit_b_16,1,496,NaN,bear,bear,true,0496_fc_dnn_true_bear_35_n02132136_258.png,n02132136_258.png,1.0,4.1597376,0.2863525,2.738897
vit_b_16,1,497,NaN,chair,chair,false,0497_fc_dnn_false_chair_35_n04099969_16350.png,n04099969_16350.png,1.0,2.7005708,0.42146242,1.6115731
vit_b_16,1,498,NaN,chair,chair,true,0498_fc_dnn_true_chair_35_n04099969_16456.png,n04099969_16456.png,1.0,3.8823361,0.47419092,2.4099226
vit_b_16,1,499,NaN,bottle,bottle,false,0499_fc_dnn_false_bottle_35_n03983396_12027.png,n03983396_12027.png,1.0,3.657035,0.7829266,2.0323017
vit_b_16,1,500,NaN,chair,chair,true,0500_fc_dnn_true_chair_35_n02791124_5438.png,n02791124_5438.png,1.0,3.5122118,0.15031423,2.3772206
vit_b_16,1,501,NaN,elephant,elephant,true,0501_fc_dnn_true_elephant_35_n02504458_4939.png,n02504458_4939.png,1.0,8.006158,0.2494602,5.4848137
vit_b_16,1,502,NaN,keyboard,keyboard,false,0502_fc_dnn_false_keyboard_35_n04505470_2600.png,n04505470_2600.png,1.0,5.044385,0.47173682,3.2333505
vit_b_16,1,503,NaN,chair,chair,true,0503_fc_dnn_true_chair_35_n03376595_7394.png,n03376595_7394.png,1.0,2.756285,2.7347078,0.015257328
vit_b_16,1,504,NaN,bicycle,bicycle,false,0504_fc_dnn_false_bicycle_35_n02835271_9772.png,n02835271_9772.png,1.0,5.921903,0.1886097,4.054051
vit_b_16,1,505,NaN,car,car,true,0505_fc_dnn_true_car_35_n02814533_55937.png,n02814533_55937.png,1.0,3.4509974,0.6352911,1.9910051
vit_b_16,1,506,NaN,airplane,airplane,true,0506_fc_dnn_true_airplane_35_n02690373_3920.png,n02690373_3920.png,1.0,7.383726,2.2069554,3.6605296
vit_b_16,1,507,NaN,oven,oven,false,0507_fc_dnn_false_oven_35_n04111531_6400.png,n04111531_6400.png,1.0,3.475477,1.0013565,1.7494675
vit_b_16,1,508,NaN,bicycle,truck,false,0508_fc_dnn_false_truck_35_n03417042_4587.png,n03417042_4587.png,0.0,1.5693653,2.1167498,-0.3870593
vit_b_16,1,509,NaN,knife,knife,true,0509_fc_dnn_true_knife_35_n03041632_31849.png,n03041632_31849.png,1.0,10.472486,1.3730204,6.4342937
vit_b_16,1,510,NaN,bear,cat,true,0510_fc_dnn_true_cat_35_n02125311_8541.png,n02125311_8541.png,0.0,2.119814,3.1585624,-0.73450613
vit_b_16,1,511,NaN,airplane,airplane,true,0511_fc_dnn_true_airplane_35_n02690373_2162.png,n02690373_2162.png,1.0,9.098711,0.5143269,6.070076
vit_b_16,1,512,NaN,knife,dog,true,0512_fc_dnn_true_dog_35_n02108551_11297.png,n02108551_11297.png,0.0,-0.020990307,0.53900236,-0.39597464
vit_b_16,1,513,NaN,car,car,true,0513_fc_dnn_true_car_35_n02814533_34396.png,n02814533_34396.png,1.0,3.1389093,0.82068455,1.6392326
vit_b_16,1,514,NaN,elephant,elephant,true,0514_fc_dnn_true_elephant_35_n02504013_6431.png,n02504013_6431.png,1.0,6.69905,0.09773209,4.6678367
vit_b_16,1,515,NaN,bicycle,bicycle,false,0515_fc_dnn_false_bicycle_35_n03792782_51723.png,n03792782_51723.png,1.0,6.46033,0.79768527,4.0040946
vit_b_16,1,516,NaN,airplane,dog,false,0516_fc_dnn_false_dog_35_n02093754_5867.png,n02093754_5867.png,0.0,0.47063863,0.4778846,-0.005123666
vit_b_16,1,517,NaN,clock,clock,true,0517_fc_dnn_true_clock_35_n04548280_3245.png,n04548280_3245.png,1.0,5.6505704,1.973613,2.6000016
vit_b_16,1,518,NaN,airplane,airplane,true,0518_fc_dnn_true_airplane_35_n02690373_9762.png,n02690373_9762.png,1.0,8.923577,0.21494746,6.1579313
vit_b_16,1,519,NaN,oven,bird,true,0519_fc_dnn_true_bird_35_n02002724_2909.png,n02002724_2909.png,0.0,0.10059993,0.4595926,-0.25384617
vit_b_16,1,520,NaN,bottle,bottle,true,0520_fc_dnn_true_bottle_35_n04557648_10123.png,n04557648_10123.png,1.0,2.7352564,0.54620194,1.5478953
vit_b_16,1,521,NaN,elephant,elephant,true,0521_fc_dnn_true_elephant_35_n02504013_5432.png,n02504013_5432.png,1.0,6.496277,0.37202638,4.330499
vit_b_16,1,522,NaN,cat,cat,false,0522_fc_dnn_false_cat_35_n02123597_4998.png,n02123597_4998.png,1.0,3.2009048,0.36629945,2.0043688
vit_b_16,1,523,NaN,bottle,bottle,true,0523_fc_dnn_true_bottle_35_n04557648_11594.png,n04557648_11594.png,1.0,3.0381553,1.3714591,1.1785322
vit_b_16,1,524,NaN,clock,clock,false,0524_fc_dnn_false_clock_35_n03196217_2567.png,n03196217_2567.png,1.0,3.3239467,1.5698307,1.2403474
vit_b_16,1,525,NaN,truck,truck,false,0525_fc_dnn_false_truck_35_n03796401_9136.png,n03796401_9136.png,1.0,1.6625999,1.5815458,0.0573139
vit_b_16,1,526,NaN,boat,boat,false,0526_fc_dnn_false_boat_35_n03344393_8492.png,n03344393_8492.png,1.0,3.743812,0.20634937,2.501364
vit_b_16,1,527,NaN,cat,cat,false,0527_fc_dnn_false_cat_35_n02123159_8267.png,n02123159_8267.png,1.0,1.599268,0.14193855,1.0304875
vit_b_16,1,528,NaN,bottle,bottle,false,0528_fc_dnn_false_bottle_35_n04557648_12039.png,n04557648_12039.png,1.0,2.9965177,0.5735091,1.7133257
vit_b_16,1,529,NaN,keyboard,keyboard,false,0529_fc_dnn_false_keyboard_35_n04505470_2828.png,n04505470_2828.png,1.0,5.5151424,0.32289413,3.671474
vit_b_16,1,530,NaN,boat,boat,true,0530_fc_dnn_true_boat_35_n02951358_31198.png,n02951358_31198.png,1.0,1.9347832,1.8265406,0.0765391
vit_b_16,1,531,NaN,oven,oven,false,0531_fc_dnn_false_oven_35_n04111531_5801.png,n04111531_5801.png,1.0,6.037098,1.1743045,3.4385142
vit_b_16,1,532,NaN,bicycle,bicycle,false,0532_fc_dnn_false_bicycle_35_n02835271_9672.png,n02835271_9672.png,1.0,5.0958347,0.5894256,3.1865125
vit_b_16,1,533,NaN,keyboard,keyboard,false,0533_fc_dnn_false_keyboard_35_n03085013_23865.png,n03085013_23865.png,1.0,5.215637,0.6988215,3.193871
vit_b_16,1,534,NaN,bottle,bottle,true,0534_fc_dnn_true_bottle_35_n04591713_7133.png,n04591713_7133.png,1.0,2.0045104,1.1122713,0.6309083
vit_b_16,1,535,NaN,car,car,true,0535_fc_dnn_true_car_35_n04285008_10006.png,n04285008_10006.png,1.0,6.002369,0.32681906,4.01322
vit_b_16,1,536,NaN,airplane,airplane,true,0536_fc_dnn_true_airplane_35_n02690373_2431.png,n02690373_2431.png,1.0,9.702839,0.30420062,6.645841
vit_b_16,1,537,NaN,boat,boat,true,0537_fc_dnn_true_boat_35_n04612504_15440.png,n04612504_15440.png,1.0,2.4010215,0.17412068,1.5746567
vit_b_16,1,538,NaN,bicycle,bicycle,true,0538_fc_dnn_true_bicycle_35_n02835271_5648.png,n02835271_5648.png,1.0,5.9473553,0.32614586,3.9747956
vit_b_16,1,539,NaN,airplane,airplane,false,0539_fc_dnn_false_airplane_35_n02690373_3173.png,n02690373_3173.png,1.0,9.002782,0.17580116,6.241618
vit_b_16,1,540,NaN,oven,oven,false,0540_fc_dnn_false_oven_35_n04111531_82.png,n04111531_82.png,1.0,4.88088,1.6350996,2.2951133
vit_b_16,1,541,NaN,chair,chair,false,0541_fc_dnn_false_chair_35_n02791124_2057.png,n02791124_2057.png,1.0,2.477018,0.09071209,1.6873732
vit_b_16,1,542,NaN,elephant,elephant,true,0542_fc_dnn_true_elephant_35_n02504458_12175.png,n02504458_12175.png,1.0,7.0227985,0.09796373,4.896598
vit_b_16,1,543,NaN,boat,boat,false,0543_fc_dnn_false_boat_35_n03344393_6869.png,n03344393_6869.png,1.0,2.604684,0.60935915,1.4109079
vit_b_16,1,544,NaN,truck,truck,false,0544_fc_dnn_false_truck_35_n03417042_1000.png,n03417042_1000.png,1.0,2.0871997,0.15875012,1.3636198
vit_b_16,1,545,NaN,boat,boat,true,0545_fc_dnn_true_boat_35_n03344393_6890.png,n03344393_6890.png,1.0,3.5821376,0.5776803,2.1244721
vit_b_16,1,546,NaN,elephant,elephant,false,0546_fc_dnn_false_elephant_35_n02504458_4139.png,n02504458_4139.png,1.0,8.648988,1.3753288,5.1432533
vit_b_16,1,547,NaN,bear,bear,false,0547_fc_dnn_false_bear_35_n02132136_7231.png,n02132136_7231.png,1.0,5.890879,0.43010902,3.8613477
vit_b_16,1,548,NaN,bird,bird,false,0548_fc_dnn_false_bird_35_n01860187_1815.png,n01860187_1815.png,1.0,1.2314943,1.0132536,0.15431951
vit_b_16,1,549,NaN,keyboard,keyboard,true,0549_fc_dnn_true_keyboard_35_n03085013_18891.png,n03085013_18891.png,1.0,7.1801395,0.8752923,4.4582005
vit_b_16,1,550,NaN,bottle,bird,false,0550_fc_dnn_false_bird_35_n01828970_2276.png,n01828970_2276.png,0.0,0.17189011,0.30433676,-0.093653925
vit_b_16,1,551,NaN,elephant,elephant,false,0551_fc_dnn_false_elephant_35_n02504013_1720.png,n02504013_1720.png,1.0,7.5464687,0.8851743,4.7102466
vit_b_16,1,552,NaN,knife,knife,false,0552_fc_dnn_false_knife_35_n03041632_16104.png,n03041632_16104.png,1.0,8.14399,0.8376937,5.1663313
vit_b_16,1,553,NaN,chair,chair,false,0553_fc_dnn_false_chair_35_n03376595_635.png,n03376595_635.png,1.0,3.001882,0.8462589,1.5242558
vit_b_16,1,554,NaN,bottle,bottle,true,0554_fc_dnn_true_bottle_35_n03983396_6116.png,n03983396_6116.png,1.0,2.810902,0.93063504,1.3295497
vit_b_16,1,555,NaN,knife,dog,true,0555_fc_dnn_true_dog_35_n02113624_2530.png,n02113624_2530.png,0.0,-0.19570889,0.64632654,-0.595409
vit_b_16,1,556,NaN,elephant,bird,true,0556_fc_dnn_true_bird_35_n01592084_3972.png,n01592084_3972.png,0.0,0.1772532,0.30962938,-0.093604095
vit_b_16,1,557,NaN,airplane,airplane,true,0557_fc_dnn_true_airplane_35_n02690373_5130.png,n02690373_5130.png,1.0,8.998862,0.9869944,5.665246
vit_b_16,1,558,NaN,bird,bird,true,0558_fc_dnn_true_bird_35_n01833805_7514.png,n01833805_7514.png,1.0,0.21468915,0.17277628,0.029636875
vit_b_16,1,559,NaN,truck,truck,false,0559_fc_dnn_false_truck_35_n03417042_16238.png,n03417042_16238.png,1.0,1.6380014,0.29993355,0.9461569
vit_b_16,1,560,NaN,keyboard,keyboard,true,0560_fc_dnn_true_keyboard_35_n04505470_8620.png,n04505470_8620.png,1.0,5.0884256,0.32230276,3.3701577
vit_b_16,1,561,NaN,clock,clock,true,0561_fc_dnn_true_clock_35_n03196217_7888.png,n03196217_7888.png,1.0,4.550599,0.049118333,3.1830275
vit_b_16,1,562,NaN,cat,bottle,true,0562_fc_dnn_true_bottle_35_n04591713_5411.png,n04591713_5411.png,0.0,0.49707016,1.3369588,-0.5938909
vit_b_16,1,563,NaN,clock,clock,false,0563_fc_dnn_false_clock_35_n03196217_2639.png,n03196217_2639.png,1.0,4.961906,0.25425872,3.3288095
vit_b_16,1,564,NaN,elephant,elephant,true,0564_fc_dnn_true_elephant_35_n02504458_6437.png,n02504458_6437.png,1.0,8.032974,0.3722241,5.416969
vit_b_16,1,565,NaN,truck,truck,true,0565_fc_dnn_true_truck_35_n03417042_27586.png,n03417042_27586.png,1.0,2.9515185,-0.019204145,2.1006181
vit_b_16,1,566,NaN,keyboard,keyboard,false,0566_fc_dnn_false_keyboard_35_n03085013_24124.png,n03085013_24124.png,1.0,3.6779797,2.7574933,0.65088224
vit_b_16,1,567,NaN,cat,cat,false,0567_fc_dnn_false_cat_35_n02123597_9663.png,n02123597_9663.png,1.0,4.7183566,1.5275472,2.256243
vit_b_16,1,568,NaN,keyboard,keyboard,true,0568_fc_dnn_true_keyboard_35_n04505470_1833.png,n04505470_1833.png,1.0,5.059632,0.6795029,3.097219
vit_b_16,1,569,NaN,car,car,true,0569_fc_dnn_true_car_35_n04285008_4109.png,n04285008_4109.png,1.0,6.171814,0.18677157,4.2320642
vit_b_16,1,570,NaN,boat,bird,false,0570_fc_dnn_false_bird_35_n01558993_869.png,n01558993_869.png,0.0,0.058704935,0.2206902,-0.11454089
vit_b_16,1,571,NaN,truck,truck,true,0571_fc_dnn_true_truck_35_n03796401_6980.png,n03796401_6980.png,1.0,1.548648,0.40695822,0.8072966
vit_b_16,1,572,NaN,truck,truck,true,0572_fc_dnn_true_truck_35_n03796401_19058.png,n03796401_19058.png,1.0,1.2905754,0.21549432,0.76019716
vit_b_16,1,573,NaN,bear,bear,false,0573_fc_dnn_false_bear_35_n02134418_5033.png,n02134418_5033.png,1.0,3.3758476,1.2746208,1.4857918
vit_b_16,1,574,NaN,truck,truck,false,0574_fc_dnn_false_truck_35_n03417042_6204.png,n03417042_6204.png,1.0,3.57649,0.30968696,2.3099787
vit_b_16,1,575,NaN,bicycle,bicycle,true,0575_fc_dnn_true_bicycle_35_n03792782_7388.png,n03792782_7388.png,1.0,6.6225924,0.7815475,4.1302423
vit_b_16,1,576,NaN,truck,truck,true,0576_fc_dnn_true_truck_35_n03417042_1561.png,n03417042_1561.png,1.0,2.0677972,1.4432219,0.44164142
vit_b_16,1,577,NaN,elephant,elephant,true,0577_fc_dnn_true_elephant_35_n02504458_5501.png,n02504458_5501.png,1.0,7.5227156,0.40775418,5.031038
vit_b_16,1,578,NaN,boat,boat,true,0578_fc_dnn_true_boat_35_n03662601_34124.png,n03662601_34124.png,1.0,4.641168,0.48153222,2.9413068
vit_b_16,1,579,NaN,knife,knife,false,0579_fc_dnn_false_knife_35_n03041632_37949.png,n03041632_37949.png,1.0,8.345679,0.5706674,5.4977636
vit_b_16,1,580,NaN,airplane,airplane,false,0580_fc_dnn_false_airplane_35_n02690373_13585.png,n02690373_13585.png,1.0,9.069195,0.37164018,6.1500998
vit_b_16,1,581,NaN,knife,knife,false,0581_fc_dnn_false_knife_35_n03041632_16932.png,n03041632_16932.png,1.0,9.561789,0.693342,6.270939
vit_b_16,1,582,NaN,chair,chair,false,0582_fc_dnn_false_chair_35_n04429376_9501.png,n04429376_9501.png,1.0,2.687717,0.18510011,1.7696174
vit_b_16,1,583,NaN,bottle,bird,false,0583_fc_dnn_false_bird_35_n01532829_10530.png,n01532829_10530.png,0.0,0.7705164,1.2273573,-0.32303527
vit_b_16,1,584,NaN,bicycle,oven,false,0584_fc_dnn_false_oven_35_n04111531_1562.png,n04111531_1562.png,0.0,0.5506311,0.79589194,-0.1734256
vit_b_16,1,585,NaN,clock,clock,false,0585_fc_dnn_false_clock_35_n02708093_260.png,n02708093_260.png,1.0,5.2206836,1.6099327,2.5531864
vit_b_16,1,586,NaN,bottle,bottle,true,0586_fc_dnn_true_bottle_35_n04579145_1457.png,n04579145_1457.png,1.0,2.8157387,0.39069343,1.714766
vit_b_16,1,587,NaN,chair,chair,true,0587_fc_dnn_true_chair_35_n03376595_9897.png,n03376595_9897.png,1.0,2.379723,0.43771523,1.3732069
vit_b_16,1,588,NaN,bicycle,bird,true,0588_fc_dnn_true_bird_35_n01601694_4224.png,n01601694_4224.png,0.0,0.37393835,0.8993677,-0.37153468
vit_b_16,1,589,NaN,cat,cat,false,0589_fc_dnn_false_cat_35_n02123159_358.png,n02123159_358.png,1.0,1.9329247,0.33499882,1.1299043
vit_b_16,1,590,NaN,bottle,bottle,true,0590_fc_dnn_true_bottle_35_n03983396_11788.png,n03983396_11788.png,1.0,1.5675714,0.45681924,0.78542036
vit_b_16,1,591,NaN,cat,cat,true,0591_fc_dnn_true_cat_35_n02124075_8341.png,n02124075_8341.png,1.0,3.0249536,0.21223244,1.9888943
vit_b_16,1,592,NaN,airplane,dog,false,0592_fc_dnn_false_dog_35_n02109525_49924.png,n02109525_49924.png,0.0,0.1553781,0.78244114,-0.44340053
vit_b_16,1,593,NaN,oven,oven,false,0593_fc_dnn_false_oven_35_n04111531_797.png,n04111531_797.png,1.0,1.898489,1.3735671,0.37117583
vit_b_16,1,594,NaN,bicycle,bicycle,true,0594_fc_dnn_true_bicycle_35_n02835271_15930.png,n02835271_15930.png,1.0,5.775609,0.31278923,3.8627968
vit_b_16,1,595,NaN,knife,knife,true,0595_fc_dnn_true_knife_35_n03041632_13656.png,n03041632_13656.png,1.0,9.855983,1.0218174,6.2466984
vit_b_16,1,596,NaN,clock,clock,false,0596_fc_dnn_false_clock_35_n02708093_8104.png,n02708093_8104.png,1.0,3.666911,0.49689245,2.2415416
vit_b_16,1,597,NaN,truck,truck,true,0597_fc_dnn_true_truck_35_n03796401_3148.png,n03796401_3148.png,1.0,2.780477,1.5674154,0.8577642
vit_b_16,1,598,NaN,knife,bottle,false,0598_fc_dnn_false_bottle_35_n04560804_15263.png,n04560804_15263.png,0.0,0.97796834,1.2312998,-0.17913237
vit_b_16,1,599,NaN,airplane,airplane,true,0599_fc_dnn_true_airplane_35_n02690373_5003.png,n02690373_5003.png,1.0,9.127143,0.4583335,6.1297746
vit_b_16,1,600,NaN,boat,boat,false,0600_fc_dnn_false_boat_35_n03344393_994.png,n03344393_994.png,1.0,3.9211586,0.7631421,2.2330549
vit_b_16,1,601,NaN,bicycle,bicycle,true,0601_fc_dnn_true_bicycle_35_n03792782_5959.png,n03792782_5959.png,1.0,7.3399806,0.27051467,4.9988675
vit_b_16,1,602,NaN,car,car,false,0602_fc_dnn_false_car_35_n04285008_9383.png,n04285008_9383.png,1.0,5.749546,0.69427,3.57462
vit_b_16,1,603,NaN,clock,clock,true,0603_fc_dnn_true_clock_35_n03196217_5627.png,n03196217_5627.png,1.0,4.3504863,2.4319737,1.3565933
vit_b_16,1,604,NaN,bird,bird,true,0604_fc_dnn_true_bird_35_n01534433_13846.png,n01534433_13846.png,1.0,0.46281385,0.33193237,0.09254719
vit_b_16,1,605,NaN,dog,dog,true,0605_fc_dnn_true_dog_35_n02105056_11269.png,n02105056_11269.png,1.0,0.89909387,0.85869825,0.028564015
vit_b_16,1,606,NaN,airplane,airplane,false,0606_fc_dnn_false_airplane_35_n02690373_9659.png,n02690373_9659.png,1.0,9.773348,1.7185234,5.6956215
vit_b_16,1,607,NaN,car,car,false,0607_fc_dnn_false_car_35_n04285008_3269.png,n04285008_3269.png,1.0,2.2585561,1.2988805,0.67859316
vit_b_16,1,608,NaN,bottle,bottle,true,0608_fc_dnn_true_bottle_35_n02823428_3178.png,n02823428_3178.png,1.0,2.0494132,0.4925539,1.1008657
vit_b_16,1,609,NaN,elephant,elephant,false,0609_fc_dnn_false_elephant_35_n02504458_4849.png,n02504458_4849.png,1.0,7.094962,0.40428647,4.7310224
vit_b_16,1,610,NaN,bear,bear,true,0610_fc_dnn_true_bear_35_n02134418_643.png,n02134418_643.png,1.0,2.001204,0.26285926,1.2291954
vit_b_16,1,611,NaN,boat,boat,true,0611_fc_dnn_true_boat_35_n03344393_7773.png,n03344393_7773.png,1.0,2.4546065,0.09421025,1.6690524
vit_b_16,1,612,NaN,car,car,true,0612_fc_dnn_true_car_35_n02814533_26516.png,n02814533_26516.png,1.0,7.1281548,1.5417025,3.9502184
vit_b_16,1,613,NaN,chair,cat,false,0613_fc_dnn_false_cat_35_n02123597_3314.png,n02123597_3314.png,0.0,0.3384032,2.2916265,-1.3811374
vit_b_16,1,614,NaN,bicycle,bicycle,true,0614_fc_dnn_true_bicycle_35_n02835271_6539.png,n02835271_6539.png,1.0,4.618906,0.35743493,3.0133152
vit_b_16,1,615,NaN,bear,bear,true,0615_fc_dnn_true_bear_35_n02132136_3090.png,n02132136_3090.png,1.0,4.2136626,0.11834,2.8958304
vit_b_16,1,616,NaN,car,car,true,0616_fc_dnn_true_car_35_n03100240_9171.png,n03100240_9171.png,1.0,5.2731676,0.51234835,3.3664079
vit_b_16,1,617,NaN,cat,cat,false,0617_fc_dnn_false_cat_35_n02123045_12060.png,n02123045_12060.png,1.0,4.4414544,0.5564165,2.7471366
vit_b_16,1,618,NaN,truck,truck,false,0618_fc_dnn_false_truck_35_n03796401_26801.png,n03796401_26801.png,1.0,4.2804394,0.3680805,2.7664554
vit_b_16,1,619,NaN,cat,cat,false,0619_fc_dnn_false_cat_35_n02123045_15010.png,n02123045_15010.png,1.0,4.182359,0.46102372,2.6313815
vit_b_16,1,620,NaN,knife,knife,true,0620_fc_dnn_true_knife_35_n03041632_24883.png,n03041632_24883.png,1.0,11.35382,0.5113693,7.66677
vit_b_16,1,621,NaN,cat,cat,true,0621_fc_dnn_true_cat_35_n02123597_4040.png,n02123597_4040.png,1.0,1.6443008,0.9534584,0.48849934
vit_b_16,1,622,NaN,bird,bird,true,0622_fc_dnn_true_bird_35_n01843383_3019.png,n01843383_3019.png,1.0,0.61696196,0.36224487,0.18011218
vit_b_16,1,623,NaN,bear,bear,true,0623_fc_dnn_true_bear_35_n02132136_8619.png,n02132136_8619.png,1.0,4.5792084,0.37503803,2.9727974
vit_b_16,1,624,NaN,airplane,airplane,false,0624_fc_dnn_false_airplane_35_n02690373_1912.png,n02690373_1912.png,1.0,7.0428114,1.2141725,4.1214705
vit_b_16,1,625,NaN,truck,truck,true,0625_fc_dnn_true_truck_35_n03417042_22828.png,n03417042_22828.png,1.0,1.2349454,0.16289766,0.75805223
vit_b_16,1,626,NaN,car,car,true,0626_fc_dnn_true_car_35_n03100240_2909.png,n03100240_2909.png,1.0,6.550093,0.5072813,4.2729135
vit_b_16,1,627,NaN,oven,oven,true,0627_fc_dnn_true_oven_35_n04111531_22563.png,n04111531_22563.png,1.0,10.074251,0.020536311,7.10905
vit_b_16,1,628,NaN,truck,truck,false,0628_fc_dnn_false_truck_35_n03796401_18074.png,n03796401_18074.png,1.0,1.723856,0.4969425,0.86755884
vit_b_16,1,629,NaN,cat,cat,true,0629_fc_dnn_true_cat_35_n02123159_3092.png,n02123159_3092.png,1.0,4.29895,0.43039444,2.735482
vit_b_16,1,630,NaN,bear,bird,false,0630_fc_dnn_false_bird_35_n02009912_5983.png,n02009912_5983.png,0.0,0.42466205,0.6247724,-0.1414994
vit_b_16,1,631,NaN,keyboard,keyboard,true,0631_fc_dnn_true_keyboard_35_n03085013_19916.png,n03085013_19916.png,1.0,4.2464027,0.47810093,2.6645918
vit_b_16,1,632,NaN,bottle,bottle,false,0632_fc_dnn_false_bottle_35_n04591713_4035.png,n04591713_4035.png,1.0,2.2010124,0.48151526,1.2158681
vit_b_16,1,633,NaN,chair,chair,false,0633_fc_dnn_false_chair_35_n04099969_6189.png,n04099969_6189.png,1.0,3.4189782,0.16366255,2.3018558
vit_b_16,1,634,NaN,oven,oven,true,0634_fc_dnn_true_oven_35_n04111531_7064.png,n04111531_7064.png,1.0,9.185669,1.8339435,5.1984553
vit_b_16,1,635,NaN,boat,boat,false,0635_fc_dnn_false_boat_35_n03344393_595.png,n03344393_595.png,1.0,3.184394,0.2698211,2.0609143
vit_b_16,1,636,NaN,elephant,elephant,true,0636_fc_dnn_true_elephant_35_n02504458_3099.png,n02504458_3099.png,1.0,7.4610596,0.33880663,5.0361934
vit_b_16,1,637,NaN,chair,chair,false,0637_fc_dnn_false_chair_35_n04429376_19617.png,n04429376_19617.png,1.0,4.4241414,0.58021367,2.7180674
vit_b_16,1,638,NaN,knife,knife,false,0638_fc_dnn_false_knife_35_n03041632_51766.png,n03041632_51766.png,1.0,9.107833,0.6964082,5.9477754
vit_b_16,1,639,NaN,bear,bear,true,0639_fc_dnn_true_bear_35_n02133161_1571.png,n02133161_1571.png,1.0,3.85055,0.036487706,2.6969492
vit_b_16,1,640,NaN,bear,bear,false,0640_fc_dnn_false_bear_35_n02132136_8525.png,n02132136_8525.png,1.0,6.784069,0.75071216,4.2662277
vit_b_16,1,641,NaN,car,bird,true,0641_fc_dnn_true_bird_35_n01560419_9124.png,n01560419_9124.png,0.0,0.060810246,0.19382934,-0.0940587
vit_b_16,1,642,NaN,car,car,false,0642_fc_dnn_false_car_35_n02814533_2555.png,n02814533_2555.png,1.0,4.4276977,1.0139561,2.4138799
vit_b_16,1,643,NaN,cat,cat,false,0643_fc_dnn_false_cat_35_n02125311_31100.png,n02125311_31100.png,1.0,1.8130584,0.56731546,0.88087326
vit_b_16,1,644,NaN,car,car,true,0644_fc_dnn_true_car_35_n02814533_46508.png,n02814533_46508.png,1.0,3.2372777,0.7963258,1.7260137
vit_b_16,1,645,NaN,bicycle,bicycle,true,0645_fc_dnn_true_bicycle_35_n03792782_51156.png,n03792782_51156.png,1.0,5.8629203,0.5134552,3.782643
vit_b_16,1,646,NaN,elephant,elephant,false,0646_fc_dnn_false_elephant_35_n02504013_637.png,n02504013_637.png,1.0,7.535376,0.46107832,5.002284
vit_b_16,1,647,NaN,clock,clock,false,0647_fc_dnn_false_clock_35_n04548280_7321.png,n04548280_7321.png,1.0,5.869581,0.46153736,3.8240645
vit_b_16,1,648,NaN,airplane,airplane,true,0648_fc_dnn_true_airplane_35_n02690373_2447.png,n02690373_2447.png,1.0,9.027784,0.38792348,6.1093044
vit_b_16,1,649,NaN,elephant,elephant,false,0649_fc_dnn_false_elephant_35_n02504458_477.png,n02504458_477.png,1.0,7.606678,0.5444888,4.993722
vit_b_16,1,650,NaN,bottle,bottle,false,0650_fc_dnn_false_bottle_35_n04557648_2063.png,n04557648_2063.png,1.0,2.9275289,1.1650919,1.2462312
vit_b_16,1,651,NaN,chair,chair,true,0651_fc_dnn_true_chair_35_n04099969_14155.png,n04099969_14155.png,1.0,5.3987236,0.16440728,3.7012208
vit_b_16,1,652,NaN,bear,bear,false,0652_fc_dnn_false_bear_35_n02134084_21407.png,n02134084_21407.png,1.0,3.1129565,0.78688586,1.6447804
vit_b_16,1,653,NaN,boat,boat,false,0653_fc_dnn_false_boat_35_n03662601_4418.png,n03662601_4418.png,1.0,3.8157132,1.2716889,1.7988968
vit_b_16,1,654,NaN,car,car,true,0654_fc_dnn_true_car_35_n03100240_9497.png,n03100240_9497.png,1.0,6.064257,0.63138676,3.8416195
vit_b_16,1,655,NaN,airplane,airplane,false,0655_fc_dnn_false_airplane_35_n02690373_4199.png,n02690373_4199.png,1.0,9.010505,0.18649496,6.239517
vit_b_16,1,656,NaN,truck,boat,false,0656_fc_dnn_false_boat_35_n03662601_4612.png,n03662601_4612.png,0.0,2.4951754,2.9917166,-0.3511077
vit_b_16,1,657,NaN,bicycle,bicycle,true,0657_fc_dnn_true_bicycle_35_n02835271_9531.png,n02835271_9531.png,1.0,6.0210495,1.1506083,3.4439223
vit_b_16,1,658,NaN,bear,bird,false,0658_fc_dnn_false_bird_35_n02037110_21381.png,n02037110_21381.png,0.0,0.24423788,0.37879443,-0.09514585
vit_b_16,1,659,NaN,bottle,bottle,false,0659_fc_dnn_false_bottle_35_n04560804_6576.png,n04560804_6576.png,1.0,1.9834315,1.4579085,0.37160084
vit_b_16,1,660,NaN,bottle,bottle,false,0660_fc_dnn_false_bottle_35_n02823428_4358.png,n02823428_4358.png,1.0,3.5890603,0.40445825,2.2518537
vit_b_16,1,661,NaN,bottle,bottle,false,0661_fc_dnn_false_bottle_35_n04579145_961.png,n04579145_961.png,1.0,1.3261099,0.30758867,0.7202033
vit_b_16,1,662,NaN,car,car,true,0662_fc_dnn_true_car_35_n02814533_58462.png,n02814533_58462.png,1.0,5.8628426,0.58786786,3.7299705
vit_b_16,1,663,NaN,bear,bird,false,0663_fc_dnn_false_bird_35_n01796340_4643.png,n01796340_4643.png,0.0,1.0362105,1.4185778,-0.27037448
vit_b_16,1,664,NaN,airplane,dog,false,0664_fc_dnn_false_dog_35_n02091134_7695.png,n02091134_7695.png,0.0,-0.0947193,0.49038827,-0.41373354
vit_b_16,1,665,NaN,airplane,dog,false,0665_fc_dnn_false_dog_35_n02097209_1133.png,n02097209_1133.png,0.0,0.29374668,0.75872743,-0.32879105
vit_b_16,1,666,NaN,elephant,elephant,true,0666_fc_dnn_true_elephant_35_n02504458_4861.png,n02504458_4861.png,1.0,7.653353,0.30189782,5.198264
vit_b_16,1,667,NaN,cat,dog,false,0667_fc_dnn_false_dog_35_n02110806_3673.png,n02110806_3673.png,0.0,0.48249388,0.5011586,-0.013197948
vit_b_16,1,668,NaN,car,car,false,0668_fc_dnn_false_car_35_n04285008_863.png,n04285008_863.png,1.0,4.3901916,0.34741327,2.8586762
vit_b_16,1,669,NaN,bicycle,bicycle,false,0669_fc_dnn_false_bicycle_35_n03792782_52427.png,n03792782_52427.png,1.0,4.5665708,0.41293377,2.937065
vit_b_16,1,670,NaN,keyboard,keyboard,true,0670_fc_dnn_true_keyboard_35_n03085013_22796.png,n03085013_22796.png,1.0,7.6144495,0.41931224,5.0877304
vit_b_16,1,671,NaN,bottle,bottle,false,0671_fc_dnn_false_bottle_35_n03983396_22979.png,n03983396_22979.png,1.0,2.933456,0.90270776,1.4359558
vit_b_16,1,672,NaN,clock,dog,true,0672_fc_dnn_true_dog_35_n02109047_4167.png,n02109047_4167.png,0.0,-0.18715796,0.3003955,-0.34475234
vit_b_16,1,673,NaN,bottle,bottle,true,0673_fc_dnn_true_bottle_35_n04560804_15843.png,n04560804_15843.png,1.0,2.0917418,0.4091953,1.1897401
vit_b_16,1,674,NaN,airplane,airplane,true,0674_fc_dnn_true_airplane_35_n02690373_3383.png,n02690373_3383.png,1.0,9.381954,0.25196975,6.4558744
vit_b_16,1,675,NaN,truck,truck,true,0675_fc_dnn_true_truck_35_n03796401_7380.png,n03796401_7380.png,1.0,2.5929327,0.44948572,1.5156459
vit_b_16,1,676,NaN,clock,clock,true,0676_fc_dnn_true_clock_35_n03196217_11054.png,n03196217_11054.png,1.0,4.631904,0.16730191,3.1569505
vit_b_16,1,677,NaN,airplane,airplane,true,0677_fc_dnn_true_airplane_35_n02690373_599.png,n02690373_599.png,1.0,9.107794,0.20280123,6.296781
vit_b_16,1,678,NaN,chair,chair,true,0678_fc_dnn_true_chair_35_n04429376_2693.png,n04429376_2693.png,1.0,2.4917095,0.59801936,1.3390411
vit_b_16,1,679,NaN,clock,clock,false,0679_fc_dnn_false_clock_35_n02708093_5265.png,n02708093_5265.png,1.0,5.996036,0.17096439,4.118948
vit_b_16,1,680,NaN,knife,knife,true,0680_fc_dnn_true_knife_35_n03041632_48149.png,n03041632_48149.png,1.0,8.573358,0.5182949,5.6957893
vit_b_16,1,681,NaN,airplane,dog,true,0681_fc_dnn_true_dog_35_n02096585_9543.png,n02096585_9543.png,0.0,0.14963728,0.2938516,-0.101974934
vit_b_16,1,682,NaN,boat,boat,false,0682_fc_dnn_false_boat_35_n04612504_20927.png,n04612504_20927.png,1.0,2.277137,0.7784683,1.0597188
vit_b_16,1,683,NaN,oven,oven,false,0683_fc_dnn_false_oven_35_n04111531_2150.png,n04111531_2150.png,1.0,2.710303,1.8704726,0.59384984
vit_b_16,1,684,NaN,bird,bird,false,0684_fc_dnn_false_bird_35_n01797886_12436.png,n01797886_12436.png,1.0,0.37176237,0.16167633,0.14855327
vit_b_16,1,685,NaN,truck,truck,false,0685_fc_dnn_false_truck_35_n04467665_197.png,n04467665_197.png,1.0,3.1230927,0.52136767,1.8396975
vit_b_16,1,686,NaN,chair,chair,false,0686_fc_dnn_false_chair_35_n02791124_2091.png,n02791124_2091.png,1.0,1.608375,0.11973247,1.0526292
vit_b_16,1,687,NaN,chair,chair,false,0687_fc_dnn_false_chair_35_n03376595_1810.png,n03376595_1810.png,1.0,3.2283607,0.4608697,1.9569116
vit_b_16,1,688,NaN,keyboard,keyboard,false,0688_fc_dnn_false_keyboard_35_n03085013_24439.png,n03085013_24439.png,1.0,5.946762,0.48370466,3.862965
vit_b_16,1,689,NaN,bottle,bottle,false,0689_fc_dnn_false_bottle_35_n03983396_18753.png,n03983396_18753.png,1.0,1.0174763,0.8052578,0.15006116
vit_b_16,1,690,NaN,clock,clock,false,0690_fc_dnn_false_clock_35_n02708093_2054.png,n02708093_2054.png,1.0,5.1173096,0.64680445,3.1611247
vit_b_16,1,691,NaN,bear,bear,true,0691_fc_dnn_true_bear_35_n02132136_7872.png,n02132136_7872.png,1.0,3.9943588,0.24381876,2.6520324
vit_b_16,1,692,NaN,elephant,elephant,true,0692_fc_dnn_true_elephant_35_n02504458_5144.png,n02504458_5144.png,1.0,7.9629707,0.69157517,5.141653
vit_b_16,1,693,NaN,bicycle,oven,false,0693_fc_dnn_false_oven_35_n04111531_6500.png,n04111531_6500.png,0.0,0.14206088,0.806572,-0.46988034
vit_b_16,1,694,NaN,elephant,elephant,false,0694_fc_dnn_false_elephant_35_n02504458_209.png,n02504458_209.png,1.0,8.080237,0.22255042,5.556224
vit_b_16,1,695,NaN,oven,oven,true,0695_fc_dnn_true_oven_35_n04111531_12769.png,n04111531_12769.png,1.0,9.138792,1.1611394,5.6410522
vit_b_16,1,696,NaN,dog,dog,false,0696_fc_dnn_false_dog_35_n02107574_3387.png,n02107574_3387.png,1.0,1.0012411,0.045389295,0.6758893
vit_b_16,1,697,NaN,airplane,airplane,true,0697_fc_dnn_true_airplane_35_n02690373_4706.png,n02690373_4706.png,1.0,9.003995,0.61234075,5.9337955
vit_b_16,1,698,NaN,car,dog,false,0698_fc_dnn_false_dog_35_n02096585_9834.png,n02096585_9834.png,0.0,-0.22647142,0.5215544,-0.5289341
vit_b_16,1,699,NaN,chair,chair,true,0699_fc_dnn_true_chair_35_n04429376_29312.png,n04429376_29312.png,1.0,2.4719198,0.20016678,1.606372
vit_b_16,1,700,NaN,elephant,elephant,false,0700_fc_dnn_false_elephant_35_n02504013_5774.png,n02504013_5774.png,1.0,8.155123,0.70799184,5.265917
vit_b_16,1,701,NaN,elephant,elephant,true,0701_fc_dnn_true_elephant_35_n02504458_5187.png,n02504458_5187.png,1.0,6.984229,0.2254587,4.7791724
vit_b_16,1,702,NaN,oven,oven,true,0702_fc_dnn_true_oven_35_n04111531_12820.png,n04111531_12820.png,1.0,9.41906,0.75590825,6.1257734
vit_b_16,1,703,NaN,truck,truck,false,0703_fc_dnn_false_truck_35_n04467665_11888.png,n04467665_11888.png,1.0,2.8385074,0.56553036,1.6072376
vit_b_16,1,704,NaN,truck,truck,true,0704_fc_dnn_true_truck_35_n03796401_3434.png,n03796401_3434.png,1.0,1.4577787,0.4517827,0.7113466
vit_b_16,1,705,NaN,elephant,elephant,false,0705_fc_dnn_false_elephant_35_n02504458_3491.png,n02504458_3491.png,1.0,7.0269566,0.8093449,4.3965154
vit_b_16,1,706,NaN,bear,bear,false,0706_fc_dnn_false_bear_35_n02134084_4677.png,n02134084_4677.png,1.0,2.18879,1.5174733,0.47469264
vit_b_16,1,707,NaN,cat,cat,false,0707_fc_dnn_false_cat_35_n02125311_2401.png,n02125311_2401.png,1.0,1.9286828,0.4144246,1.0707422
vit_b_16,1,708,NaN,car,car,true,0708_fc_dnn_true_car_35_n04285008_16701.png,n04285008_16701.png,1.0,6.2425194,0.10293147,4.3413444
vit_b_16,1,709,NaN,bear,bear,true,0709_fc_dnn_true_bear_35_n02133161_10632.png,n02133161_10632.png,1.0,5.439517,1.3448802,2.8953457
vit_b_16,1,710,NaN,bird,bird,true,0710_fc_dnn_true_bird_35_n01592084_6081.png,n01592084_6081.png,1.0,0.44523332,0.42574704,0.013778879
vit_b_16,1,711,NaN,bottle,bottle,false,0711_fc_dnn_false_bottle_35_n04560804_15832.png,n04560804_15832.png,1.0,2.0165868,1.0834953,0.65979534
vit_b_16,1,712,NaN,oven,oven,true,0712_fc_dnn_true_oven_35_n04111531_11116.png,n04111531_11116.png,1.0,8.675674,0.38687825,5.8610644
vit_b_16,1,713,NaN,boat,boat,false,0713_fc_dnn_false_boat_35_n03662601_10811.png,n03662601_10811.png,1.0,4.491169,1.8252778,1.8850697
vit_b_16,1,714,NaN,bottle,bottle,false,0714_fc_dnn_false_bottle_35_n03937543_211.png,n03937543_211.png,1.0,1.5720739,0.39674976,0.8310797
vit_b_16,1,715,NaN,boat,boat,false,0715_fc_dnn_false_boat_35_n03344393_1595.png,n03344393_1595.png,1.0,2.6773727,0.8364551,1.3017254
vit_b_16,1,716,NaN,bicycle,bicycle,true,0716_fc_dnn_true_bicycle_35_n02835271_10293.png,n02835271_10293.png,1.0,5.058819,1.0483204,2.8358507
vit_b_16,1,717,NaN,airplane,cat,false,0717_fc_dnn_false_cat_35_n02123159_6170.png,n02123159_6170.png,0.0,1.4330477,1.5121797,-0.055954833
vit_b_16,1,718,NaN,boat,boat,false,0718_fc_dnn_false_boat_35_n03662601_12323.png,n03662601_12323.png,1.0,3.3034585,0.4103073,2.0457668
vit_b_16,1,719,NaN,oven,oven,true,0719_fc_dnn_true_oven_35_n04111531_17809.png,n04111531_17809.png,1.0,9.255327,0.4168043,6.2497797
vit_b_16,1,720,NaN,bear,bear,false,0720_fc_dnn_false_bear_35_n02134084_6783.png,n02134084_6783.png,1.0,4.522233,1.3355744,2.253308
vit_b_16,1,721,NaN,airplane,airplane,false,0721_fc_dnn_false_airplane_35_n02690373_2203.png,n02690373_2203.png,1.0,9.060185,0.4678782,6.075679
vit_b_16,1,722,NaN,knife,knife,false,0722_fc_dnn_false_knife_35_n03041632_38610.png,n03041632_38610.png,1.0,8.65805,0.8753701,5.5031857
vit_b_16,1,723,NaN,bicycle,bicycle,true,0723_fc_dnn_true_bicycle_35_n03792782_634.png,n03792782_634.png,1.0,6.1186595,0.4136119,4.034078
vit_b_16,1,724,NaN,bicycle,bicycle,true,0724_fc_dnn_true_bicycle_35_n03792782_47426.png,n03792782_47426.png,1.0,6.1401024,0.892012,3.7109604
vit_b_16,1,725,NaN,airplane,bird,false,0725_fc_dnn_false_bird_35_n02013706_16546.png,n02013706_16546.png,0.0,0.14954388,0.77576303,-0.44280383
vit_b_16,1,726,NaN,clock,clock,false,0726_fc_dnn_false_clock_35_n02708093_616.png,n02708093_616.png,1.0,6.4393635,0.507462,4.194488
vit_b_16,1,727,NaN,bear,bear,true,0727_fc_dnn_true_bear_35_n02134418_9289.png,n02134418_9289.png,1.0,2.9997087,0.24820884,1.9456043
