subj,session,trial,rt,object_response,category,condition,imagename,filename,is_correct,targ_act,max_nontarg_act,decision_margin
alexnet_w1_mlp_simclrhn_probe1,1,1,NaN,knife,knife,true,0001_fc_dnn_true_knife_35_n03041632_86251.png,n03041632_86251.png,1.0,2.9478445,-3.4641318,4.533952
alexnet_w1_mlp_simclrhn_probe1,1,2,NaN,car,car,false,0002_fc_dnn_false_car_35_n03100240_16866.png,n03100240_16866.png,1.0,10.086878,6.37358,2.625698
alexnet_w1_mlp_simclrhn_probe1,1,3,NaN,knife,keyboard,false,0003_fc_dnn_false_keyboard_35_n03085013_21127.png,n03085013_21127.png,0.0,0.26714897,2.298954,-1.4367031
alexnet_w1_mlp_simclrhn_probe1,1,4,NaN,truck,truck,true,0004_fc_dnn_true_truck_35_n03417042_10694.png,n03417042_10694.png,1.0,7.3930798,3.2383945,2.937806
alexnet_w1_mlp_simclrhn_probe1,1,5,NaN,bird,bird,true,0005_fc_dnn_true_bird_35_n01614925_1962.png,n01614925_1962.png,1.0,0.5153236,-3.6001148,2.9100544
alexnet_w1_mlp_simclrhn_probe1,1,6,NaN,knife,knife,false,0006_fc_dnn_false_knife_35_n03041632_99875.png,n03041632_99875.png,1.0,-0.5467118,-3.568096,2.1364412
alexnet_w1_mlp_simclrhn_probe1,1,7,NaN,bicycle,bicycle,true,0007_fc_dnn_true_bicycle_35_n03792782_14935.png,n03792782_14935.png,1.0,2.456224,-3.564317,4.2571654
alexnet_w1_mlp_simclrhn_probe1,1,8,NaN,elephant,elephant,false,0008_fc_dnn_false_elephant_35_n02504013_5027.png,n02504013_5027.png,1.0,1.4473014,-2.1098535,2.5152884
alexnet_w1_mlp_simclrhn_probe1,1,9,NaN,cat,dog,false,0009_fc_dnn_false_dog_35_n02090721_129.png,n02090721_129.png,0.0,-2.6441853,-1.0871215,-1.1010104
alexnet_w1_mlp_simclrhn_probe1,1,10,NaN,airplane,airplane,true,0010_fc_dnn_true_airplane_35_n02690373_9241.png,n02690373_9241.png,1.0,9.891022,3.6554809,4.4091935
alexnet_w1_mlp_simclrhn_probe1,1,11,NaN,truck,truck,true,0011_fc_dnn_true_truck_35_n04467665_62080.png,n04467665_62080.png,1.0,4.6398573,3.5955274,0.73845273
alexnet_w1_mlp_simclrhn_probe1,1,12,NaN,keyboard,keyboard,true,0012_fc_dnn_true_keyboard_35_n04505470_2669.png,n04505470_2669.png,1.0,2.3113241,1.5193615,0.56000215
alexnet_w1_mlp_simclrhn_probe1,1,13,NaN,oven,oven,false,0013_fc_dnn_false_oven_35_n04111531_688.png,n04111531_688.png,1.0,1.5902071,-3.696343,3.7381554
alexnet_w1_mlp_simclrhn_probe1,1,14,NaN,car,car,true,0014_fc_dnn_true_car_35_n03100240_21982.png,n03100240_21982.png,1.0,13.5408745,8.15651,3.8073204
alexnet_w1_mlp_simclrhn_probe1,1,15,NaN,bicycle,bicycle,true,0015_fc_dnn_true_bicycle_35_n02835271_4191.png,n02835271_4191.png,1.0,6.2829514,-4.322772,7.499379
alexnet_w1_mlp_simclrhn_probe1,1,16,NaN,car,car,true,0016_fc_dnn_true_car_35_n02814533_25278.png,n02814533_25278.png,1.0,4.3199043,1.7007556,1.8520179
alexnet_w1_mlp_simclrhn_probe1,1,17,NaN,bottle,knife,false,0017_fc_dnn_false_knife_35_n03041632_23087.png,n03041632_23087.png,0.0,-2.9330783,-1.5206662,-0.9987261
alexnet_w1_mlp_simclrhn_probe1,1,18,NaN,keyboard,clock,true,0018_fc_dnn_true_clock_35_n03196217_11252.png,n03196217_11252.png,0.0,2.204058,3.3730795,-0.82662314
alexnet_w1_mlp_simclrhn_probe1,1,19,NaN,boat,boat,false,0019_fc_dnn_false_boat_35_n04273569_2040.png,n04273569_2040.png,1.0,5.444708,2.56205,2.038347
alexnet_w1_mlp_simclrhn_probe1,1,20,NaN,knife,knife,true,0020_fc_dnn_true_knife_35_n03041632_84869.png,n03041632_84869.png,1.0,1.2700659,-2.532887,2.6890938
alexnet_w1_mlp_simclrhn_probe1,1,21,NaN,clock,clock,true,0021_fc_dnn_true_clock_35_n04548280_503.png,n04548280_503.png,1.0,4.683192,-2.5296643,5.10026
alexnet_w1_mlp_simclrhn_probe1,1,22,NaN,truck,truck,false,0022_fc_dnn_false_truck_35_n03417042_10654.png,n03417042_10654.png,1.0,2.3219757,0.8883405,1.0137333
alexnet_w1_mlp_simclrhn_probe1,1,23,NaN,airplane,boat,true,0023_fc_dnn_true_boat_35_n03344393_2919.png,n03344393_2919.png,0.0,2.8445399,4.0080194,-0.8227043
alexnet_w1_mlp_simclrhn_probe1,1,24,NaN,chair,chair,false,0024_fc_dnn_false_chair_35_n04099969_7718.png,n04099969_7718.png,1.0,2.1695013,-0.64777696,1.9921167
alexnet_w1_mlp_simclrhn_probe1,1,25,NaN,oven,oven,true,0025_fc_dnn_true_oven_35_n04111531_3477.png,n04111531_3477.png,1.0,4.0396423,-1.199157,3.7043905
alexnet_w1_mlp_simclrhn_probe1,1,26,NaN,dog,dog,false,0026_fc_dnn_false_dog_35_n02113712_913.png,n02113712_913.png,1.0,0.24395524,-2.5763628,1.994266
alexnet_w1_mlp_simclrhn_probe1,1,27,NaN,chair,chair,false,0027_fc_dnn_false_chair_35_n02791124_13701.png,n02791124_13701.png,1.0,1.088547,-0.28381371,0.9704056
alexnet_w1_mlp_simclrhn_probe1,1,28,NaN,airplane,airplane,true,0028_fc_dnn_true_airplane_35_n02690373_8538.png,n02690373_8538.png,1.0,5.4490166,0.9186735,3.2034364
alexnet_w1_mlp_simclrhn_probe1,1,29,NaN,knife,knife,true,0029_fc_dnn_true_knife_35_n03041632_98864.png,n03041632_98864.png,1.0,-2.1960115,-2.3964112,0.14170395
alexnet_w1_mlp_simclrhn_probe1,1,30,NaN,clock,clock,false,0030_fc_dnn_false_clock_35_n04548280_5466.png,n04548280_5466.png,1.0,-0.52184224,-0.55741274,0.025152143
alexnet_w1_mlp_simclrhn_probe1,1,31,NaN,keyboard,keyboard,true,0031_fc_dnn_true_keyboard_35_n04505470_4033.png,n04505470_4033.png,1.0,11.459105,2.3842425,6.4168963
alexnet_w1_mlp_simclrhn_probe1,1,32,NaN,boat,boat,false,0032_fc_dnn_false_boat_35_n03344393_7503.png,n03344393_7503.png,1.0,0.42788187,-0.9286176,0.95918995
alexnet_w1_mlp_simclrhn_probe1,1,33,NaN,bottle,bottle,false,0033_fc_dnn_false_bottle_35_n02823428_3402.png,n02823428_3402.png,1.0,3.8942027,-1.2965344,3.6704056
alexnet_w1_mlp_simclrhn_probe1,1,34,NaN,clock,boat,true,0034_fc_dnn_true_boat_35_n03662601_15766.png,n03662601_15766.png,0.0,-2.8916516,0.9962365,-2.7491522
alexnet_w1_mlp_simclrhn_probe1,1,35,NaN,dog,dog,true,0035_fc_dnn_true_dog_35_n02097047_1351.png,n02097047_1351.png,1.0,2.7762735,-0.25091526,2.1405458
alexnet_w1_mlp_simclrhn_probe1,1,36,NaN,knife,keyboard,true,0036_fc_dnn_true_keyboard_35_n03085013_23562.png,n03085013_23562.png,0.0,-3.205478,-0.65920997,-1.8004833
alexnet_w1_mlp_simclrhn_probe1,1,37,NaN,chair,clock,false,0037_fc_dnn_false_clock_35_n04548280_7872.png,n04548280_7872.png,0.0,-3.0289676,-0.6174048,-1.7052325
alexnet_w1_mlp_simclrhn_probe1,1,38,NaN,dog,dog,false,0038_fc_dnn_false_dog_35_n02106166_16884.png,n02106166_16884.png,1.0,-0.6869625,-2.7159457,1.4347078
alexnet_w1_mlp_simclrhn_probe1,1,39,NaN,oven,oven,true,0039_fc_dnn_true_oven_35_n04111531_3353.png,n04111531_3353.png,1.0,0.6947189,-1.027062,1.217483
alexnet_w1_mlp_simclrhn_probe1,1,40,NaN,bottle,knife,false,0040_fc_dnn_false_knife_35_n03041632_46185.png,n03041632_46185.png,0.0,-0.92032164,1.0631484,-1.4025251
alexnet_w1_mlp_simclrhn_probe1,1,41,NaN,knife,knife,true,0041_fc_dnn_true_knife_35_n03041632_14766.png,n03041632_14766.png,1.0,1.3961141,-0.42783618,1.2897277
alexnet_w1_mlp_simclrhn_probe1,1,42,NaN,knife,chair,true,0042_fc_dnn_true_chair_35_n02791124_2150.png,n02791124_2150.png,0.0,-3.7557673,-1.2926909,-1.7416582
alexnet_w1_mlp_simclrhn_probe1,1,43,NaN,elephant,elephant,false,0043_fc_dnn_false_elephant_35_n02504458_4631.png,n02504458_4631.png,1.0,2.8416672,-1.4012513,3.0001965
alexnet_w1_mlp_simclrhn_probe1,1,44,NaN,chair,chair,false,0044_fc_dnn_false_chair_35_n03376595_3223.png,n03376595_3223.png,1.0,0.8615179,-1.5162444,1.6813319
alexnet_w1_mlp_simclrhn_probe1,1,45,NaN,car,car,false,0045_fc_dnn_false_car_35_n03100240_5399.png,n03100240_5399.png,1.0,13.224633,7.3062506,4.1849284
alexnet_w1_mlp_simclrhn_probe1,1,46,NaN,oven,bottle,true,0046_fc_dnn_true_bottle_35_n04557648_2512.png,n04557648_2512.png,0.0,-4.8098187,3.4823124,-5.8634224
alexnet_w1_mlp_simclrhn_probe1,1,47,NaN,elephant,bicycle,true,0047_fc_dnn_true_bicycle_35_n03792782_8098.png,n03792782_8098.png,0.0,-1.434279,-0.65824485,-0.548739
alexnet_w1_mlp_simclrhn_probe1,1,48,NaN,bear,bear,true,0048_fc_dnn_true_bear_35_n02134418_11557.png,n02134418_11557.png,1.0,4.755936,0.092159,3.2977886
alexnet_w1_mlp_simclrhn_probe1,1,49,NaN,knife,knife,true,0049_fc_dnn_true_knife_35_n03041632_45569.png,n03041632_45569.png,1.0,-0.2621784,-1.0699414,0.5711747
alexnet_w1_mlp_simclrhn_probe1,1,50,NaN,bicycle,bicycle,false,0050_fc_dnn_false_bicycle_35_n03792782_4740.png,n03792782_4740.png,1.0,-1.7292204,-2.4255288,0.49236438
alexnet_w1_mlp_simclrhn_probe1,1,51,NaN,boat,boat,false,0051_fc_dnn_false_boat_35_n03662601_25404.png,n03662601_25404.png,1.0,5.4197683,3.5943546,1.2907624
alexnet_w1_mlp_simclrhn_probe1,1,52,NaN,bird,bird,false,0052_fc_dnn_false_bird_35_n01796340_4853.png,n01796340_4853.png,1.0,-1.8587983,-6.053806,2.9663181
alexnet_w1_mlp_simclrhn_probe1,1,53,NaN,clock,clock,true,0053_fc_dnn_true_clock_35_n03196217_5888.png,n03196217_5888.png,1.0,0.16726875,-0.32538265,0.34835714
alexnet_w1_mlp_simclrhn_probe1,1,54,NaN,bicycle,bicycle,true,0054_fc_dnn_true_bicycle_35_n02835271_12871.png,n02835271_12871.png,1.0,9.993461,0.7987685,6.50163
alexnet_w1_mlp_simclrhn_probe1,1,55,NaN,keyboard,keyboard,false,0055_fc_dnn_false_keyboard_35_n03085013_28584.png,n03085013_28584.png,1.0,4.3349695,0.10606282,2.9902885
alexnet_w1_mlp_simclrhn_probe1,1,56,NaN,bear,cat,true,0056_fc_dnn_true_cat_35_n02123159_6184.png,n02123159_6184.png,0.0,-1.5347701,0.21380413,-1.2364287
alexnet_w1_mlp_simclrhn_probe1,1,57,NaN,bicycle,bicycle,true,0057_fc_dnn_true_bicycle_35_n02835271_7592.png,n02835271_7592.png,1.0,10.730816,0.6765217,7.10946
alexnet_w1_mlp_simclrhn_probe1,1,58,NaN,elephant,elephant,false,0058_fc_dnn_false_elephant_35_n02504458_3205.png,n02504458_3205.png,1.0,7.4385223,1.0811337,4.4953527
alexnet_w1_mlp_simclrhn_probe1,1,59,NaN,cat,cat,false,0059_fc_dnn_false_cat_35_n02124075_7880.png,n02124075_7880.png,1.0,0.83057123,-0.43960586,0.89815086
alexnet_w1_mlp_simclrhn_probe1,1,60,NaN,truck,truck,false,0060_fc_dnn_false_truck_35_n04467665_2240.png,n04467665_2240.png,1.0,12.716967,6.4275208,4.44731
alexnet_w1_mlp_simclrhn_probe1,1,61,NaN,bottle,bottle,true,0061_fc_dnn_true_bottle_35_n04560804_13316.png,n04560804_13316.png,1.0,1.9063265,-2.5030172,3.117877
alexnet_w1_mlp_simclrhn_probe1,1,62,NaN,airplane,airplane,false,0062_fc_dnn_false_airplane_35_n02690373_3821.png,n02690373_3821.png,1.0,9.070953,-0.9580561,7.091581
alexnet_w1_mlp_simclrhn_probe1,1,63,NaN,chair,knife,true,0063_fc_dnn_true_knife_35_n03041632_17285.png,n03041632_17285.png,0.0,0.2894433,0.35486537,-0.046260383
alexnet_w1_mlp_simclrhn_probe1,1,64,NaN,chair,bottle,false,0064_fc_dnn_false_bottle_35_n02823428_10942.png,n02823428_10942.png,0.0,-1.1280375,-0.3130608,-0.5762755
alexnet_w1_mlp_simclrhn_probe1,1,65,NaN,bicycle,bicycle,true,0065_fc_dnn_true_bicycle_35_n02835271_3642.png,n02835271_3642.png,1.0,9.0394125,-1.5718876,7.5033226
alexnet_w1_mlp_simclrhn_probe1,1,66,NaN,knife,knife,true,0066_fc_dnn_true_knife_35_n03041632_16172.png,n03041632_16172.png,1.0,1.9431967,-1.6535534,2.5432863
alexnet_w1_mlp_simclrhn_probe1,1,67,NaN,bicycle,bottle,false,0067_fc_dnn_false_bottle_35_n04560804_2448.png,n04560804_2448.png,0.0,-7.3719673,-0.047935247,-5.1788726
alexnet_w1_mlp_simclrhn_probe1,1,68,NaN,oven,oven,false,0068_fc_dnn_false_oven_35_n04111531_4452.png,n04111531_4452.png,1.0,7.4206038,-3.481113,7.708678
alexnet_w1_mlp_simclrhn_probe1,1,69,NaN,keyboard,keyboard,false,0069_fc_dnn_false_keyboard_35_n04505470_912.png,n04505470_912.png,1.0,9.776367,0.9616171,6.2329693
alexnet_w1_mlp_simclrhn_probe1,1,70,NaN,oven,cat,false,0070_fc_dnn_false_cat_35_n02123045_7167.png,n02123045_7167.png,0.0,-2.4650009,-0.2689938,-1.5528115
alexnet_w1_mlp_simclrhn_probe1,1,71,NaN,bicycle,bicycle,false,0071_fc_dnn_false_bicycle_35_n03792782_8333.png,n03792782_8333.png,1.0,1.0754561,-3.63268,3.329155
alexnet_w1_mlp_simclrhn_probe1,1,72,NaN,bear,dog,false,0072_fc_dnn_false_dog_35_n02107683_2904.png,n02107683_2904.png,0.0,-1.9194808,-1.5939205,-0.23020592
alexnet_w1_mlp_simclrhn_probe1,1,73,NaN,bottle,bottle,true,0073_fc_dnn_true_bottle_35_n04591713_3409.png,n04591713_3409.png,1.0,4.9828,-2.327288,5.169013
alexnet_w1_mlp_simclrhn_probe1,1,74,NaN,knife,bottle,false,0074_fc_dnn_false_bottle_35_n04560804_564.png,n04560804_564.png,0.0,-4.5253634,-1.6299748,-2.047349
alexnet_w1_mlp_simclrhn_probe1,1,75,NaN,truck,truck,false,0075_fc_dnn_false_truck_35_n03796401_6503.png,n03796401_6503.png,1.0,7.3934517,3.687745,2.6203303
alexnet_w1_mlp_simclrhn_probe1,1,76,NaN,oven,oven,true,0076_fc_dnn_true_oven_35_n04111531_13590.png,n04111531_13590.png,1.0,4.943029,0.58642834,3.080582
alexnet_w1_mlp_simclrhn_probe1,1,77,NaN,bird,bird,false,0077_fc_dnn_false_bird_35_n02018795_7504.png,n02018795_7504.png,1.0,-2.475214,-5.7217674,2.29566
alexnet_w1_mlp_simclrhn_probe1,1,78,NaN,car,car,false,0078_fc_dnn_false_car_35_n03100240_6626.png,n03100240_6626.png,1.0,12.452416,11.756409,0.4921518
alexnet_w1_mlp_simclrhn_probe1,1,79,NaN,bear,bear,false,0079_fc_dnn_false_bear_35_n02134418_4364.png,n02134418_4364.png,1.0,4.3277397,1.7348021,1.8334837
alexnet_w1_mlp_simclrhn_probe1,1,80,NaN,airplane,knife,false,0080_fc_dnn_false_knife_35_n03041632_8051.png,n03041632_8051.png,0.0,-1.6776814,1.669031,-2.3664832
alexnet_w1_mlp_simclrhn_probe1,1,81,NaN,airplane,airplane,true,0081_fc_dnn_true_airplane_35_n02690373_1434.png,n02690373_1434.png,1.0,7.6002812,-0.13078777,5.4666915
alexnet_w1_mlp_simclrhn_probe1,1,82,NaN,clock,clock,true,0082_fc_dnn_true_clock_35_n04548280_5408.png,n04548280_5408.png,1.0,7.4555507,0.82010776,4.6919665
alexnet_w1_mlp_simclrhn_probe1,1,83,NaN,cat,cat,false,0083_fc_dnn_false_cat_35_n02123597_3916.png,n02123597_3916.png,1.0,-0.0023788412,-0.6843151,0.48220176
alexnet_w1_mlp_simclrhn_probe1,1,84,NaN,clock,clock,false,0084_fc_dnn_false_clock_35_n04548280_4542.png,n04548280_4542.png,1.0,2.6615489,-0.7021608,2.378502
alexnet_w1_mlp_simclrhn_probe1,1,85,NaN,airplane,car,true,0085_fc_dnn_true_car_35_n04285008_14161.png,n04285008_14161.png,0.0,-5.264844,-1.3935385,-2.7374263
alexnet_w1_mlp_simclrhn_probe1,1,86,NaN,airplane,airplane,false,0086_fc_dnn_false_airplane_35_n02690373_7279.png,n02690373_7279.png,1.0,5.9108562,2.8018372,2.1984084
alexnet_w1_mlp_simclrhn_probe1,1,87,NaN,elephant,bear,true,0087_fc_dnn_true_bear_35_n02132136_11640.png,n02132136_11640.png,0.0,1.202254,2.930863,-1.222311
alexnet_w1_mlp_simclrhn_probe1,1,88,NaN,airplane,airplane,true,0088_fc_dnn_true_airplane_35_n02690373_8350.png,n02690373_8350.png,1.0,3.8416378,0.11028192,2.638467
alexnet_w1_mlp_simclrhn_probe1,1,89,NaN,airplane,boat,true,0089_fc_dnn_true_boat_35_n04273569_30568.png,n04273569_30568.png,0.0,4.429246,4.4707975,-0.029381411
alexnet_w1_mlp_simclrhn_probe1,1,90,NaN,elephant,dog,true,0090_fc_dnn_true_dog_35_n02100583_19533.png,n02100583_19533.png,0.0,0.67452866,2.27769,-1.1336063
alexnet_w1_mlp_simclrhn_probe1,1,91,NaN,knife,knife,true,0091_fc_dnn_true_knife_35_n03041632_965.png,n03041632_965.png,1.0,2.289386,1.0500777,0.87632334
alexnet_w1_mlp_simclrhn_probe1,1,92,NaN,elephant,elephant,false,0092_fc_dnn_false_elephant_35_n02504458_6109.png,n02504458_6109.png,1.0,11.258784,2.9756207,5.857081
alexnet_w1_mlp_simclrhn_probe1,1,93,NaN,oven,oven,true,0093_fc_dnn_true_oven_35_n04111531_10093.png,n04111531_10093.png,1.0,1.0329888,-1.6133573,1.8712493
alexnet_w1_mlp_simclrhn_probe1,1,94,NaN,clock,clock,true,0094_fc_dnn_true_clock_35_n03196217_8221.png,n03196217_8221.png,1.0,0.68670267,0.4621314,0.15879586
alexnet_w1_mlp_simclrhn_probe1,1,95,NaN,bicycle,bicycle,false,0095_fc_dnn_false_bicycle_35_n03792782_828.png,n03792782_828.png,1.0,5.25098,-3.93998,6.49899
alexnet_w1_mlp_simclrhn_probe1,1,96,NaN,knife,knife,true,0096_fc_dnn_true_knife_35_n03041632_7090.png,n03041632_7090.png,1.0,0.67066175,-0.46636215,0.80399734
alexnet_w1_mlp_simclrhn_probe1,1,97,NaN,elephant,bear,false,0097_fc_dnn_false_bear_35_n02134084_14260.png,n02134084_14260.png,0.0,-1.2892381,-0.13189974,-0.8183618
alexnet_w1_mlp_simclrhn_probe1,1,98,NaN,bear,bear,false,0098_fc_dnn_false_bear_35_n02132136_10988.png,n02132136_10988.png,1.0,2.3514907,2.1432464,0.14725098
alexnet_w1_mlp_simclrhn_probe1,1,99,NaN,chair,keyboard,false,0099_fc_dnn_false_keyboard_35_n03085013_22980.png,n03085013_22980.png,0.0,-1.6383795,-0.65970874,-0.6920247
alexnet_w1_mlp_simclrhn_probe1,1,100,NaN,bottle,bottle,false,0100_fc_dnn_false_bottle_35_n04557648_3673.png,n04557648_3673.png,1.0,1.665474,-1.3098067,2.1038413
alexnet_w1_mlp_simclrhn_probe1,1,101,NaN,airplane,airplane,true,0101_fc_dnn_true_airplane_35_n02690373_1360.png,n02690373_1360.png,1.0,9.262564,1.7091233,5.3410892
alexnet_w1_mlp_simclrhn_probe1,1,102,NaN,car,oven,true,0102_fc_dnn_true_oven_35_n04111531_6415.png,n04111531_6415.png,0.0,-5.1931825,0.83225566,-4.260628
alexnet_w1_mlp_simclrhn_probe1,1,103,NaN,knife,knife,false,0103_fc_dnn_false_knife_35_n03041632_32054.png,n03041632_32054.png,1.0,1.6482232,-1.1050974,1.9468918
alexnet_w1_mlp_simclrhn_probe1,1,104,NaN,car,chair,false,0104_fc_dnn_false_chair_35_n03376595_9136.png,n03376595_9136.png,0.0,0.39514443,0.47731102,-0.058100548
alexnet_w1_mlp_simclrhn_probe1,1,105,NaN,keyboard,keyboard,false,0105_fc_dnn_false_keyboard_35_n03085013_21266.png,n03085013_21266.png,1.0,-0.32431436,-0.9296785,0.4280571
alexnet_w1_mlp_simclrhn_probe1,1,106,NaN,bicycle,bicycle,true,0106_fc_dnn_true_bicycle_35_n02835271_6137.png,n02835271_6137.png,1.0,7.528062,2.499216,3.555931
alexnet_w1_mlp_simclrhn_probe1,1,107,NaN,car,car,false,0107_fc_dnn_false_car_35_n04285008_14689.png,n04285008_14689.png,1.0,15.272553,12.052694,2.2767842
alexnet_w1_mlp_simclrhn_probe1,1,108,NaN,truck,truck,false,0108_fc_dnn_false_truck_35_n04467665_16276.png,n04467665_16276.png,1.0,12.720554,8.684272,2.8540828
alexnet_w1_mlp_simclrhn_probe1,1,109,NaN,chair,chair,false,0109_fc_dnn_false_chair_35_n03376595_787.png,n03376595_787.png,1.0,0.7451631,-1.9479406,1.904312
alexnet_w1_mlp_simclrhn_probe1,1,110,NaN,bicycle,boat,false,0110_fc_dnn_false_boat_35_n04612504_41355.png,n04612504_41355.png,0.0,1.0439405,4.8104763,-2.663343
alexnet_w1_mlp_simclrhn_probe1,1,111,NaN,elephant,elephant,true,0111_fc_dnn_true_elephant_35_n02504458_174.png,n02504458_174.png,1.0,8.279669,-3.5865843,8.390708
alexnet_w1_mlp_simclrhn_probe1,1,112,NaN,cat,cat,true,0112_fc_dnn_true_cat_35_n02125311_6746.png,n02125311_6746.png,1.0,2.8767703,0.88414615,1.408998
alexnet_w1_mlp_simclrhn_probe1,1,113,NaN,keyboard,keyboard,false,0113_fc_dnn_false_keyboard_35_n03085013_23287.png,n03085013_23287.png,1.0,1.6740078,-1.2799392,2.088756
alexnet_w1_mlp_simclrhn_probe1,1,114,NaN,clock,clock,true,0114_fc_dnn_true_clock_35_n04548280_8071.png,n04548280_8071.png,1.0,1.6238581,0.15523301,1.0384748
alexnet_w1_mlp_simclrhn_probe1,1,115,NaN,oven,oven,false,0115_fc_dnn_false_oven_35_n04111531_14543.png,n04111531_14543.png,1.0,5.977646,-1.7271805,5.448135
alexnet_w1_mlp_simclrhn_probe1,1,116,NaN,car,car,false,0116_fc_dnn_false_car_35_n03100240_10791.png,n03100240_10791.png,1.0,11.888497,6.258071,3.9813128
alexnet_w1_mlp_simclrhn_probe1,1,117,NaN,airplane,airplane,true,0117_fc_dnn_true_airplane_35_n02690373_2619.png,n02690373_2619.png,1.0,5.6299496,1.1351357,3.1783135
alexnet_w1_mlp_simclrhn_probe1,1,118,NaN,knife,keyboard,true,0118_fc_dnn_true_keyboard_35_n04505470_3864.png,n04505470_3864.png,0.0,-3.3989491,-2.8674245,-0.3758447
alexnet_w1_mlp_simclrhn_probe1,1,119,NaN,bear,dog,true,0119_fc_dnn_true_dog_35_n02097658_4387.png,n02097658_4387.png,0.0,0.69985557,1.5799044,-0.6222885
alexnet_w1_mlp_simclrhn_probe1,1,120,NaN,clock,clock,true,0120_fc_dnn_true_clock_35_n04548280_309.png,n04548280_309.png,1.0,3.8688,1.5303096,1.6535625
alexnet_w1_mlp_simclrhn_probe1,1,121,NaN,dog,dog,true,0121_fc_dnn_true_dog_35_n02108000_5247.png,n02108000_5247.png,1.0,4.019405,0.64544314,2.3857512
alexnet_w1_mlp_simclrhn_probe1,1,122,NaN,keyboard,keyboard,false,0122_fc_dnn_false_keyboard_35_n04505470_4411.png,n04505470_4411.png,1.0,1.2534993,0.8821726,0.2625676
alexnet_w1_mlp_simclrhn_probe1,1,123,NaN,oven,truck,false,0123_fc_dnn_false_truck_35_n03417042_2155.png,n03417042_2155.png,0.0,-0.5003071,2.1506758,-1.8745279
alexnet_w1_mlp_simclrhn_probe1,1,124,NaN,bear,bear,false,0124_fc_dnn_false_bear_35_n02132136_4237.png,n02132136_4237.png,1.0,5.658463,2.3358412,2.3494484
alexnet_w1_mlp_simclrhn_probe1,1,125,NaN,bird,bird,false,0125_fc_dnn_false_bird_35_n01843065_2350.png,n01843065_2350.png,1.0,-1.5504913,-6.961675,3.826285
alexnet_w1_mlp_simclrhn_probe1,1,126,NaN,knife,knife,false,0126_fc_dnn_false_knife_35_n03041632_51225.png,n03041632_51225.png,1.0,1.9707022,-0.33913216,1.6332995
alexnet_w1_mlp_simclrhn_probe1,1,127,NaN,airplane,airplane,false,0127_fc_dnn_false_airplane_35_n02690373_2095.png,n02690373_2095.png,1.0,8.401728,-1.1511543,6.754908
alexnet_w1_mlp_simclrhn_probe1,1,128,NaN,clock,clock,true,0128_fc_dnn_true_clock_35_n02708093_1775.png,n02708093_1775.png,1.0,3.427209,-0.37837148,2.6909518
alexnet_w1_mlp_simclrhn_probe1,1,129,NaN,elephant,elephant,true,0129_fc_dnn_true_elephant_35_n02504458_7950.png,n02504458_7950.png,1.0,15.22967,2.3892918,9.079518
alexnet_w1_mlp_simclrhn_probe1,1,130,NaN,boat,boat,true,0130_fc_dnn_true_boat_35_n03662601_1926.png,n03662601_1926.png,1.0,4.151536,0.7612874,2.3972678
alexnet_w1_mlp_simclrhn_probe1,1,131,NaN,elephant,elephant,true,0131_fc_dnn_true_elephant_35_n02504458_6721.png,n02504458_6721.png,1.0,0.1865781,-1.7932384,1.3999417
alexnet_w1_mlp_simclrhn_probe1,1,132,NaN,bicycle,bicycle,true,0132_fc_dnn_true_bicycle_35_n02835271_14225.png,n02835271_14225.png,1.0,0.5684959,-3.6281664,2.9674885
alexnet_w1_mlp_simclrhn_probe1,1,133,NaN,clock,clock,false,0133_fc_dnn_false_clock_35_n02708093_2744.png,n02708093_2744.png,1.0,-2.0569263,-2.067424,0.0074230717
alexnet_w1_mlp_simclrhn_probe1,1,134,NaN,clock,clock,true,0134_fc_dnn_true_clock_35_n02708093_275.png,n02708093_275.png,1.0,9.492591,0.19461973,6.5746584
alexnet_w1_mlp_simclrhn_probe1,1,135,NaN,knife,knife,false,0135_fc_dnn_false_knife_35_n03041632_25512.png,n03041632_25512.png,1.0,0.014925525,-2.2545123,1.6047349
alexnet_w1_mlp_simclrhn_probe1,1,136,NaN,oven,bird,true,0136_fc_dnn_true_bird_35_n01622779_5441.png,n01622779_5441.png,0.0,-3.5020144,-0.8640128,-1.8653489
alexnet_w1_mlp_simclrhn_probe1,1,137,NaN,car,oven,false,0137_fc_dnn_false_oven_35_n04111531_14329.png,n04111531_14329.png,0.0,-4.721176,4.7066,-6.666445
alexnet_w1_mlp_simclrhn_probe1,1,138,NaN,bird,bird,false,0138_fc_dnn_false_bird_35_n02007558_13217.png,n02007558_13217.png,1.0,1.0156364,-6.1727576,5.0829625
alexnet_w1_mlp_simclrhn_probe1,1,139,NaN,cat,cat,true,0139_fc_dnn_true_cat_35_n02123597_7908.png,n02123597_7908.png,1.0,-1.0278561,-1.5219606,0.34938467
alexnet_w1_mlp_simclrhn_probe1,1,140,NaN,clock,clock,true,0140_fc_dnn_true_clock_35_n04548280_9828.png,n04548280_9828.png,1.0,7.625129,-0.4492579,5.709454
alexnet_w1_mlp_simclrhn_probe1,1,141,NaN,bird,bird,false,0141_fc_dnn_false_bird_35_n01833805_4819.png,n01833805_4819.png,1.0,-0.50170076,-2.5572171,1.4534695
alexnet_w1_mlp_simclrhn_probe1,1,142,NaN,knife,knife,true,0142_fc_dnn_true_knife_35_n03041632_52929.png,n03041632_52929.png,1.0,-0.09150776,-1.8403139,1.2365927
alexnet_w1_mlp_simclrhn_probe1,1,143,NaN,truck,truck,false,0143_fc_dnn_false_truck_35_n04467665_2044.png,n04467665_2044.png,1.0,8.661579,1.7621937,4.8786025
alexnet_w1_mlp_simclrhn_probe1,1,144,NaN,oven,oven,false,0144_fc_dnn_false_oven_35_n04111531_16583.png,n04111531_16583.png,1.0,3.7890286,1.3887225,1.6972729
alexnet_w1_mlp_simclrhn_probe1,1,145,NaN,airplane,airplane,true,0145_fc_dnn_true_airplane_35_n02690373_2796.png,n02690373_2796.png,1.0,5.4717803,1.6772856,2.6831129
alexnet_w1_mlp_simclrhn_probe1,1,146,NaN,airplane,airplane,false,0146_fc_dnn_false_airplane_35_n02690373_3362.png,n02690373_3362.png,1.0,7.206422,1.3230971,4.1601386
alexnet_w1_mlp_simclrhn_probe1,1,147,NaN,clock,clock,true,0147_fc_dnn_true_clock_35_n02708093_3759.png,n02708093_3759.png,1.0,5.059259,0.6468813,3.1200223
alexnet_w1_mlp_simclrhn_probe1,1,148,NaN,elephant,elephant,true,0148_fc_dnn_true_elephant_35_n02504013_2558.png,n02504013_2558.png,1.0,4.9348397,-1.5203753,4.5645266
alexnet_w1_mlp_simclrhn_probe1,1,149,NaN,bear,bear,false,0149_fc_dnn_false_bear_35_n02134418_896.png,n02134418_896.png,1.0,-0.17074594,-0.52342564,0.24938221
alexnet_w1_mlp_simclrhn_probe1,1,150,NaN,truck,truck,false,0150_fc_dnn_false_truck_35_n04467665_56815.png,n04467665_56815.png,1.0,8.676054,2.7828686,4.1671114
alexnet_w1_mlp_simclrhn_probe1,1,151,NaN,truck,truck,true,0151_fc_dnn_true_truck_35_n03796401_3695.png,n03796401_3695.png,1.0,4.7490425,-1.3236983,4.294076
alexnet_w1_mlp_simclrhn_probe1,1,152,NaN,elephant,dog,true,0152_fc_dnn_true_dog_35_n02107312_197.png,n02107312_197.png,0.0,-0.8768811,-0.55010897,-0.23106281
alexnet_w1_mlp_simclrhn_probe1,1,153,NaN,bear,bear,false,0153_fc_dnn_false_bear_35_n02133161_13356.png,n02133161_13356.png,1.0,0.7618256,-1.6081735,1.6758425
alexnet_w1_mlp_simclrhn_probe1,1,154,NaN,truck,truck,false,0154_fc_dnn_false_truck_35_n03796401_6923.png,n03796401_6923.png,1.0,0.6610805,-0.2660773,0.65559953
alexnet_w1_mlp_simclrhn_probe1,1,155,NaN,elephant,elephant,true,0155_fc_dnn_true_elephant_35_n02504458_7660.png,n02504458_7660.png,1.0,3.2574959,0.37025478,2.0415878
alexnet_w1_mlp_simclrhn_probe1,1,156,NaN,bicycle,bicycle,false,0156_fc_dnn_false_bicycle_35_n02835271_6554.png,n02835271_6554.png,1.0,12.672524,-0.9773259,9.651902
alexnet_w1_mlp_simclrhn_probe1,1,157,NaN,boat,boat,true,0157_fc_dnn_true_boat_35_n04273569_2698.png,n04273569_2698.png,1.0,3.6201408,-0.54700154,2.9466147
alexnet_w1_mlp_simclrhn_probe1,1,158,NaN,dog,bottle,true,0158_fc_dnn_true_bottle_35_n03983396_5055.png,n03983396_5055.png,0.0,-7.4781914,-1.804989,-4.01156
alexnet_w1_mlp_simclrhn_probe1,1,159,NaN,chair,chair,true,0159_fc_dnn_true_chair_35_n04429376_22811.png,n04429376_22811.png,1.0,1.5205019,-1.0402592,1.8107315
alexnet_w1_mlp_simclrhn_probe1,1,160,NaN,knife,knife,false,0160_fc_dnn_false_knife_35_n03041632_5640.png,n03041632_5640.png,1.0,0.39231417,-1.5883278,1.4005253
alexnet_w1_mlp_simclrhn_probe1,1,161,NaN,oven,bird,true,0161_fc_dnn_true_bird_35_n01795545_14857.png,n01795545_14857.png,0.0,-2.5285993,-1.531515,-0.70504504
alexnet_w1_mlp_simclrhn_probe1,1,162,NaN,oven,oven,false,0162_fc_dnn_false_oven_35_n04111531_16144.png,n04111531_16144.png,1.0,9.492752,-5.0647283,10.293693
alexnet_w1_mlp_simclrhn_probe1,1,163,NaN,car,truck,false,0163_fc_dnn_false_truck_35_n04467665_47050.png,n04467665_47050.png,0.0,-1.4986002,-1.1947751,-0.21483682
alexnet_w1_mlp_simclrhn_probe1,1,164,NaN,clock,bottle,true,0164_fc_dnn_true_bottle_35_n03937543_8063.png,n03937543_8063.png,0.0,3.409563,4.622298,-0.8575329
alexnet_w1_mlp_simclrhn_probe1,1,165,NaN,bear,bear,false,0165_fc_dnn_false_bear_35_n02134084_1655.png,n02134084_1655.png,1.0,1.546588,0.73648846,0.57282686
alexnet_w1_mlp_simclrhn_probe1,1,166,NaN,chair,car,false,0166_fc_dnn_false_car_35_n03100240_2425.png,n03100240_2425.png,0.0,-4.6863613,-1.8458829,-2.0085216
alexnet_w1_mlp_simclrhn_probe1,1,167,NaN,keyboard,keyboard,false,0167_fc_dnn_false_keyboard_35_n03085013_21300.png,n03085013_21300.png,1.0,3.346845,0.057284076,2.3260708
alexnet_w1_mlp_simclrhn_probe1,1,168,NaN,bear,bear,false,0168_fc_dnn_false_bear_35_n02132136_2248.png,n02132136_2248.png,1.0,3.6559114,1.6029835,1.4516393
alexnet_w1_mlp_simclrhn_probe1,1,169,NaN,knife,knife,false,0169_fc_dnn_false_knife_35_n03041632_27832.png,n03041632_27832.png,1.0,0.85077596,-2.8737774,2.633657
alexnet_w1_mlp_simclrhn_probe1,1,170,NaN,keyboard,keyboard,true,0170_fc_dnn_true_keyboard_35_n04505470_4682.png,n04505470_4682.png,1.0,10.69217,2.6370022,5.695864
alexnet_w1_mlp_simclrhn_probe1,1,171,NaN,boat,truck,false,0171_fc_dnn_false_truck_35_n03417042_12908.png,n03417042_12908.png,0.0,-1.1070547,0.29626083,-0.99229395
alexnet_w1_mlp_simclrhn_probe1,1,172,NaN,elephant,elephant,false,0172_fc_dnn_false_elephant_35_n02504013_2148.png,n02504013_2148.png,1.0,2.165736,-1.6534921,2.7006023
alexnet_w1_mlp_simclrhn_probe1,1,173,NaN,airplane,boat,true,0173_fc_dnn_true_boat_35_n02951358_20379.png,n02951358_20379.png,0.0,-1.0970329,-0.44387528,-0.46185216
alexnet_w1_mlp_simclrhn_probe1,1,174,NaN,cat,cat,true,0174_fc_dnn_true_cat_35_n02123394_6521.png,n02123394_6521.png,1.0,0.38971794,-0.56221265,0.67311656
alexnet_w1_mlp_simclrhn_probe1,1,175,NaN,boat,boat,true,0175_fc_dnn_true_boat_35_n03662601_9602.png,n03662601_9602.png,1.0,5.68088,2.917555,1.9539659
alexnet_w1_mlp_simclrhn_probe1,1,176,NaN,clock,clock,true,0176_fc_dnn_true_clock_35_n04548280_3997.png,n04548280_3997.png,1.0,6.3704376,-0.5102412,4.8653746
alexnet_w1_mlp_simclrhn_probe1,1,177,NaN,car,car,false,0177_fc_dnn_false_car_35_n03100240_12694.png,n03100240_12694.png,1.0,13.41433,5.139225,5.8513827
alexnet_w1_mlp_simclrhn_probe1,1,178,NaN,bird,bird,false,0178_fc_dnn_false_bird_35_n02002556_25052.png,n02002556_25052.png,1.0,0.9727233,-5.77829,4.7736874
alexnet_w1_mlp_simclrhn_probe1,1,179,NaN,oven,chair,true,0179_fc_dnn_true_chair_35_n04429376_22734.png,n04429376_22734.png,0.0,-1.6916597,-1.0961877,-0.4210623
alexnet_w1_mlp_simclrhn_probe1,1,180,NaN,boat,boat,true,0180_fc_dnn_true_boat_35_n04612504_5334.png,n04612504_5334.png,1.0,6.928575,1.7267628,3.6782367
alexnet_w1_mlp_simclrhn_probe1,1,181,NaN,keyboard,keyboard,true,0181_fc_dnn_true_keyboard_35_n03085013_15484.png,n03085013_15484.png,1.0,2.7051473,1.3841106,0.93411404
alexnet_w1_mlp_simclrhn_probe1,1,182,NaN,bear,bear,true,0182_fc_dnn_true_bear_35_n02134418_1809.png,n02134418_1809.png,1.0,3.869983,-0.84563446,3.334445
alexnet_w1_mlp_simclrhn_probe1,1,183,NaN,bottle,bottle,true,0183_fc_dnn_true_bottle_35_n04560804_6392.png,n04560804_6392.png,1.0,-0.5317013,-0.6227232,0.0643622
alexnet_w1_mlp_simclrhn_probe1,1,184,NaN,boat,boat,false,0184_fc_dnn_false_boat_35_n02951358_29495.png,n02951358_29495.png,1.0,2.1131642,-1.278298,2.3981261
alexnet_w1_mlp_simclrhn_probe1,1,185,NaN,dog,dog,false,0185_fc_dnn_false_dog_35_n02086646_8449.png,n02086646_8449.png,1.0,2.5904105,-1.3977542,2.8200583
alexnet_w1_mlp_simclrhn_probe1,1,186,NaN,bear,bird,true,0186_fc_dnn_true_bird_35_n02037110_4043.png,n02037110_4043.png,0.0,-3.6844757,0.5430825,-2.989335
alexnet_w1_mlp_simclrhn_probe1,1,187,NaN,elephant,elephant,true,0187_fc_dnn_true_elephant_35_n02504458_4819.png,n02504458_4819.png,1.0,5.767907,-0.22501667,4.237637
alexnet_w1_mlp_simclrhn_probe1,1,188,NaN,bird,bird,true,0188_fc_dnn_true_bird_35_n01829413_282.png,n01829413_282.png,1.0,1.8796605,-5.7997365,5.430154
alexnet_w1_mlp_simclrhn_probe1,1,189,NaN,elephant,bird,false,0189_fc_dnn_false_bird_35_n02007558_22160.png,n02007558_22160.png,0.0,-2.0982852,-0.18634668,-1.3519447
alexnet_w1_mlp_simclrhn_probe1,1,190,NaN,truck,truck,false,0190_fc_dnn_false_truck_35_n03417042_3066.png,n03417042_3066.png,1.0,0.14597398,-0.07763557,0.15811583
alexnet_w1_mlp_simclrhn_probe1,1,191,NaN,boat,boat,true,0191_fc_dnn_true_boat_35_n04612504_254.png,n04612504_254.png,1.0,3.1535385,-1.2279316,3.0981674
alexnet_w1_mlp_simclrhn_probe1,1,192,NaN,keyboard,keyboard,false,0192_fc_dnn_false_keyboard_35_n03085013_20704.png,n03085013_20704.png,1.0,0.12669897,-2.731457,2.0210216
alexnet_w1_mlp_simclrhn_probe1,1,193,NaN,knife,chair,true,0193_fc_dnn_true_chair_35_n03376595_3015.png,n03376595_3015.png,0.0,-0.619452,-0.23227245,-0.2737773
alexnet_w1_mlp_simclrhn_probe1,1,194,NaN,keyboard,bottle,false,0194_fc_dnn_false_bottle_35_n03983396_3782.png,n03983396_3782.png,0.0,-5.2767096,4.317869,-6.784392
alexnet_w1_mlp_simclrhn_probe1,1,195,NaN,bird,bird,false,0195_fc_dnn_false_bird_35_n01592084_4087.png,n01592084_4087.png,1.0,0.19329083,-4.906063,3.6057878
alexnet_w1_mlp_simclrhn_probe1,1,196,NaN,bird,bird,false,0196_fc_dnn_false_bird_35_n02013706_651.png,n02013706_651.png,1.0,0.40452588,-8.129995,6.0348177
alexnet_w1_mlp_simclrhn_probe1,1,197,NaN,keyboard,keyboard,true,0197_fc_dnn_true_keyboard_35_n04505470_2825.png,n04505470_2825.png,1.0,4.5635166,-2.0279057,4.6608396
alexnet_w1_mlp_simclrhn_probe1,1,198,NaN,cat,cat,false,0198_fc_dnn_false_cat_35_n02123597_23346.png,n02123597_23346.png,1.0,-0.8527557,-1.3773047,0.37091213
alexnet_w1_mlp_simclrhn_probe1,1,199,NaN,cat,cat,false,0199_fc_dnn_false_cat_35_n02124075_3592.png,n02124075_3592.png,1.0,0.26087865,-4.400797,3.2963023
alexnet_w1_mlp_simclrhn_probe1,1,200,NaN,airplane,airplane,false,0200_fc_dnn_false_airplane_35_n02690373_5415.png,n02690373_5415.png,1.0,6.039263,-0.7714354,4.815891
alexnet_w1_mlp_simclrhn_probe1,1,201,NaN,cat,cat,true,0201_fc_dnn_true_cat_35_n02123597_4591.png,n02123597_4591.png,1.0,1.0135859,-0.93109465,1.3750968
alexnet_w1_mlp_simclrhn_probe1,1,202,NaN,elephant,elephant,false,0202_fc_dnn_false_elephant_35_n02504013_2228.png,n02504013_2228.png,1.0,5.489503,2.223646,2.3093097
alexnet_w1_mlp_simclrhn_probe1,1,203,NaN,knife,knife,false,0203_fc_dnn_false_knife_35_n03041632_47743.png,n03041632_47743.png,1.0,0.93738186,-2.5810916,2.4879365
alexnet_w1_mlp_simclrhn_probe1,1,204,NaN,bear,bear,false,0204_fc_dnn_false_bear_35_n02134418_1105.png,n02134418_1105.png,1.0,4.261274,0.7285535,2.4980106
alexnet_w1_mlp_simclrhn_probe1,1,205,NaN,bottle,bottle,true,0205_fc_dnn_true_bottle_35_n04591713_1174.png,n04591713_1174.png,1.0,1.0893241,-0.022532344,0.78620124
alexnet_w1_mlp_simclrhn_probe1,1,206,NaN,keyboard,keyboard,true,0206_fc_dnn_true_keyboard_35_n04505470_8544.png,n04505470_8544.png,1.0,-0.5035825,-1.2373117,0.51882493
alexnet_w1_mlp_simclrhn_probe1,1,207,NaN,bear,bear,true,0207_fc_dnn_true_bear_35_n02134418_379.png,n02134418_379.png,1.0,10.479069,1.5601543,6.3066254
alexnet_w1_mlp_simclrhn_probe1,1,208,NaN,bottle,knife,false,0208_fc_dnn_false_knife_35_n03041632_33198.png,n03041632_33198.png,0.0,-2.651241,-0.46269557,-1.5475354
alexnet_w1_mlp_simclrhn_probe1,1,209,NaN,bear,bear,true,0209_fc_dnn_true_bear_35_n02134084_4490.png,n02134084_4490.png,1.0,0.17778772,0.1270992,0.035842195
alexnet_w1_mlp_simclrhn_probe1,1,210,NaN,car,car,true,0210_fc_dnn_true_car_35_n02814533_23592.png,n02814533_23592.png,1.0,5.807013,0.50081265,3.7520504
alexnet_w1_mlp_simclrhn_probe1,1,211,NaN,bear,dog,false,0211_fc_dnn_false_dog_35_n02102973_7095.png,n02102973_7095.png,0.0,-0.09004443,1.6300352,-1.21628
alexnet_w1_mlp_simclrhn_probe1,1,212,NaN,elephant,elephant,true,0212_fc_dnn_true_elephant_35_n02504013_3810.png,n02504013_3810.png,1.0,13.15877,2.9411857,7.2249227
alexnet_w1_mlp_simclrhn_probe1,1,213,NaN,truck,truck,false,0213_fc_dnn_false_truck_35_n03417042_28742.png,n03417042_28742.png,1.0,5.941093,3.2478306,1.9044241
alexnet_w1_mlp_simclrhn_probe1,1,214,NaN,bicycle,bicycle,false,0214_fc_dnn_false_bicycle_35_n03792782_4382.png,n03792782_4382.png,1.0,9.64138,-3.5592086,9.334227
alexnet_w1_mlp_simclrhn_probe1,1,215,NaN,keyboard,keyboard,false,0215_fc_dnn_false_keyboard_35_n04505470_2868.png,n04505470_2868.png,1.0,1.2096057,-1.75842,2.098711
alexnet_w1_mlp_simclrhn_probe1,1,216,NaN,bear,bear,true,0216_fc_dnn_true_bear_35_n02132136_4817.png,n02132136_4817.png,1.0,2.3807726,0.70281994,1.1864917
alexnet_w1_mlp_simclrhn_probe1,1,217,NaN,bicycle,bicycle,true,0217_fc_dnn_true_bicycle_35_n03792782_1989.png,n03792782_1989.png,1.0,4.339798,-2.014782,4.4933667
alexnet_w1_mlp_simclrhn_probe1,1,218,NaN,truck,truck,true,0218_fc_dnn_true_truck_35_n03417042_4883.png,n03417042_4883.png,1.0,4.9062195,1.2004849,2.6203501
alexnet_w1_mlp_simclrhn_probe1,1,219,NaN,bicycle,bicycle,true,0219_fc_dnn_true_bicycle_35_n03792782_6614.png,n03792782_6614.png,1.0,5.7861357,-3.4345462,6.520007
alexnet_w1_mlp_simclrhn_probe1,1,220,NaN,car,car,true,0220_fc_dnn_true_car_35_n04285008_8581.png,n04285008_8581.png,1.0,16.017653,8.631639,5.2227006
alexnet_w1_mlp_simclrhn_probe1,1,221,NaN,truck,truck,true,0221_fc_dnn_true_truck_35_n04467665_22051.png,n04467665_22051.png,1.0,10.940273,4.9293017,4.2503986
alexnet_w1_mlp_simclrhn_probe1,1,222,NaN,keyboard,keyboard,true,0222_fc_dnn_true_keyboard_35_n04505470_4516.png,n04505470_4516.png,1.0,5.901653,-1.6548544,5.3432574
alexnet_w1_mlp_simclrhn_probe1,1,223,NaN,clock,clock,true,0223_fc_dnn_true_clock_35_n02708093_3355.png,n02708093_3355.png,1.0,0.26327053,-0.9731318,0.8742685
alexnet_w1_mlp_simclrhn_probe1,1,224,NaN,truck,chair,false,0224_fc_dnn_false_chair_35_n02791124_11404.png,n02791124_11404.png,0.0,-1.1849673,-0.7993496,-0.27267286
alexnet_w1_mlp_simclrhn_probe1,1,225,NaN,boat,boat,true,0225_fc_dnn_true_boat_35_n03344393_1145.png,n03344393_1145.png,1.0,3.548571,2.8245225,0.5119797
alexnet_w1_mlp_simclrhn_probe1,1,226,NaN,chair,keyboard,false,0226_fc_dnn_false_keyboard_35_n04505470_4627.png,n04505470_4627.png,0.0,-0.08452442,0.5494299,-0.4482734
alexnet_w1_mlp_simclrhn_probe1,1,227,NaN,knife,chair,true,0227_fc_dnn_true_chair_35_n03376595_4354.png,n03376595_4354.png,0.0,-0.9627553,1.6329517,-1.8354421
alexnet_w1_mlp_simclrhn_probe1,1,228,NaN,keyboard,keyboard,false,0228_fc_dnn_false_keyboard_35_n03085013_3231.png,n03085013_3231.png,1.0,7.823939,0.022584362,5.516391
alexnet_w1_mlp_simclrhn_probe1,1,229,NaN,car,car,false,0229_fc_dnn_false_car_35_n03100240_7454.png,n03100240_7454.png,1.0,6.629278,2.9907937,2.572797
alexnet_w1_mlp_simclrhn_probe1,1,230,NaN,boat,chair,false,0230_fc_dnn_false_chair_35_n03376595_4212.png,n03376595_4212.png,0.0,-2.4096968,-0.53386444,-1.3264138
alexnet_w1_mlp_simclrhn_probe1,1,231,NaN,airplane,airplane,true,0231_fc_dnn_true_airplane_35_n02690373_4175.png,n02690373_4175.png,1.0,9.637354,-2.1104903,8.306981
alexnet_w1_mlp_simclrhn_probe1,1,232,NaN,oven,bird,false,0232_fc_dnn_false_bird_35_n01614925_19918.png,n01614925_19918.png,0.0,-4.5491166,-1.2327734,-2.3450089
alexnet_w1_mlp_simclrhn_probe1,1,233,NaN,dog,dog,false,0233_fc_dnn_false_dog_35_n02086240_1183.png,n02086240_1183.png,1.0,2.282574,1.008623,0.90081936
alexnet_w1_mlp_simclrhn_probe1,1,234,NaN,car,car,false,0234_fc_dnn_false_car_35_n02814533_1344.png,n02814533_1344.png,1.0,7.026694,5.537001,1.0533718
alexnet_w1_mlp_simclrhn_probe1,1,235,NaN,oven,bottle,true,0235_fc_dnn_true_bottle_35_n03983396_1321.png,n03983396_1321.png,0.0,-4.1130066,0.890314,-3.537882
alexnet_w1_mlp_simclrhn_probe1,1,236,NaN,cat,cat,true,0236_fc_dnn_true_cat_35_n02123597_6291.png,n02123597_6291.png,1.0,1.5919857,-1.4887377,2.1784003
alexnet_w1_mlp_simclrhn_probe1,1,237,NaN,car,airplane,true,0237_fc_dnn_true_airplane_35_n02690373_7698.png,n02690373_7698.png,0.0,-3.3850927,0.32855922,-2.6259484
alexnet_w1_mlp_simclrhn_probe1,1,238,NaN,airplane,airplane,false,0238_fc_dnn_false_airplane_35_n02690373_4191.png,n02690373_4191.png,1.0,2.9159617,-2.1593919,3.5888171
alexnet_w1_mlp_simclrhn_probe1,1,239,NaN,cat,bear,true,0239_fc_dnn_true_bear_35_n02134418_6204.png,n02134418_6204.png,0.0,-0.14781469,0.61315197,-0.5380847
alexnet_w1_mlp_simclrhn_probe1,1,240,NaN,elephant,bear,true,0240_fc_dnn_true_bear_35_n02132136_14829.png,n02132136_14829.png,0.0,-0.91887087,1.2473617,-1.5317578
alexnet_w1_mlp_simclrhn_probe1,1,241,NaN,car,car,false,0241_fc_dnn_false_car_35_n04285008_2409.png,n04285008_2409.png,1.0,8.090992,6.8903522,0.8489805
alexnet_w1_mlp_simclrhn_probe1,1,242,NaN,bird,bird,true,0242_fc_dnn_true_bird_35_n02037110_3761.png,n02037110_3761.png,1.0,3.91703,-4.126227,5.6874413
alexnet_w1_mlp_simclrhn_probe1,1,243,NaN,boat,boat,false,0243_fc_dnn_false_boat_35_n02951358_3067.png,n02951358_3067.png,1.0,-0.3093509,-1.533274,0.8654444
alexnet_w1_mlp_simclrhn_probe1,1,244,NaN,chair,chair,false,0244_fc_dnn_false_chair_35_n03376595_14748.png,n03376595_14748.png,1.0,4.067647,-0.31701574,3.1004248
alexnet_w1_mlp_simclrhn_probe1,1,245,NaN,elephant,elephant,true,0245_fc_dnn_true_elephant_35_n02504458_5951.png,n02504458_5951.png,1.0,6.5863376,0.75515294,4.12327
alexnet_w1_mlp_simclrhn_probe1,1,246,NaN,clock,clock,false,0246_fc_dnn_false_clock_35_n02708093_2006.png,n02708093_2006.png,1.0,-0.4760016,-1.4084679,0.65935326
alexnet_w1_mlp_simclrhn_probe1,1,247,NaN,car,car,false,0247_fc_dnn_false_car_35_n03100240_18646.png,n03100240_18646.png,1.0,9.362502,2.6614897,4.7383313
alexnet_w1_mlp_simclrhn_probe1,1,248,NaN,bicycle,bicycle,false,0248_fc_dnn_false_bicycle_35_n03792782_5864.png,n03792782_5864.png,1.0,6.5656524,-0.54949224,5.031167
alexnet_w1_mlp_simclrhn_probe1,1,249,NaN,truck,chair,false,0249_fc_dnn_false_chair_35_n04429376_36830.png,n04429376_36830.png,0.0,-3.4776027,-0.96997607,-1.7731597
alexnet_w1_mlp_simclrhn_probe1,1,250,NaN,boat,boat,true,0250_fc_dnn_true_boat_35_n04273569_9282.png,n04273569_9282.png,1.0,1.0432596,-2.4358745,2.4601192
alexnet_w1_mlp_simclrhn_probe1,1,251,NaN,cat,bird,true,0251_fc_dnn_true_bird_35_n01622779_1609.png,n01622779_1609.png,0.0,-2.0459085,-0.8392306,-0.85325015
alexnet_w1_mlp_simclrhn_probe1,1,252,NaN,bicycle,dog,true,0252_fc_dnn_true_dog_35_n02088094_9498.png,n02088094_9498.png,0.0,-2.4209766,-1.1172056,-0.92190534
alexnet_w1_mlp_simclrhn_probe1,1,253,NaN,car,car,true,0253_fc_dnn_true_car_35_n04285008_5525.png,n04285008_5525.png,1.0,5.09969,0.85665053,3.000282
alexnet_w1_mlp_simclrhn_probe1,1,254,NaN,knife,knife,true,0254_fc_dnn_true_knife_35_n03041632_29343.png,n03041632_29343.png,1.0,-1.4313302,-3.2246666,1.2680804
alexnet_w1_mlp_simclrhn_probe1,1,255,NaN,oven,knife,true,0255_fc_dnn_true_knife_35_n03041632_86338.png,n03041632_86338.png,0.0,-1.1264598,1.2049556,-1.6485597
alexnet_w1_mlp_simclrhn_probe1,1,256,NaN,keyboard,keyboard,false,0256_fc_dnn_false_keyboard_35_n03085013_20691.png,n03085013_20691.png,1.0,3.4395382,0.687262,1.9461532
alexnet_w1_mlp_simclrhn_probe1,1,257,NaN,cat,cat,true,0257_fc_dnn_true_cat_35_n02124075_1957.png,n02124075_1957.png,1.0,-4.399342,-5.8126965,0.9993925
alexnet_w1_mlp_simclrhn_probe1,1,258,NaN,bear,bear,false,0258_fc_dnn_false_bear_35_n02134418_195.png,n02134418_195.png,1.0,2.4439743,1.806856,0.45051062
alexnet_w1_mlp_simclrhn_probe1,1,259,NaN,chair,chair,true,0259_fc_dnn_true_chair_35_n02791124_1376.png,n02791124_1376.png,1.0,1.3527641,-0.4308793,1.2612264
alexnet_w1_mlp_simclrhn_probe1,1,260,NaN,elephant,elephant,false,0260_fc_dnn_false_elephant_35_n02504458_8060.png,n02504458_8060.png,1.0,4.7971754,-0.9341722,4.052675
alexnet_w1_mlp_simclrhn_probe1,1,261,NaN,oven,oven,false,0261_fc_dnn_false_oven_35_n04111531_6479.png,n04111531_6479.png,1.0,1.446147,-2.5748231,2.8432555
alexnet_w1_mlp_simclrhn_probe1,1,262,NaN,elephant,bear,true,0262_fc_dnn_true_bear_35_n02132136_4070.png,n02132136_4070.png,0.0,-2.3076763,-1.3766012,-0.65836954
alexnet_w1_mlp_simclrhn_probe1,1,263,NaN,cat,cat,false,0263_fc_dnn_false_cat_35_n02123597_1153.png,n02123597_1153.png,1.0,1.3264793,1.1576313,0.119393595
alexnet_w1_mlp_simclrhn_probe1,1,264,NaN,truck,truck,false,0264_fc_dnn_false_truck_35_n04467665_49656.png,n04467665_49656.png,1.0,6.5211253,4.548952,1.3945371
alexnet_w1_mlp_simclrhn_probe1,1,265,NaN,dog,dog,true,0265_fc_dnn_true_dog_35_n02108915_10239.png,n02108915_10239.png,1.0,2.0563245,-2.4996684,3.2215736
alexnet_w1_mlp_simclrhn_probe1,1,266,NaN,chair,chair,false,0266_fc_dnn_false_chair_35_n04429376_6835.png,n04429376_6835.png,1.0,0.6102781,-1.5303475,1.5136508
alexnet_w1_mlp_simclrhn_probe1,1,267,NaN,truck,truck,true,0267_fc_dnn_true_truck_35_n04467665_54079.png,n04467665_54079.png,1.0,1.3767018,-0.37077755,1.2356546
alexnet_w1_mlp_simclrhn_probe1,1,268,NaN,clock,clock,false,0268_fc_dnn_false_clock_35_n03196217_4464.png,n03196217_4464.png,1.0,6.772171,3.4399226,2.3562555
alexnet_w1_mlp_simclrhn_probe1,1,269,NaN,elephant,dog,true,0269_fc_dnn_true_dog_35_n02102318_9359.png,n02102318_9359.png,0.0,0.79364043,1.1684921,-0.26506016
alexnet_w1_mlp_simclrhn_probe1,1,270,NaN,bicycle,bicycle,true,0270_fc_dnn_true_bicycle_35_n03792782_12578.png,n03792782_12578.png,1.0,5.105678,-5.422962,7.4448733
alexnet_w1_mlp_simclrhn_probe1,1,271,NaN,bicycle,bicycle,true,0271_fc_dnn_true_bicycle_35_n02835271_12752.png,n02835271_12752.png,1.0,9.082869,-4.335043,9.487896
alexnet_w1_mlp_simclrhn_probe1,1,272,NaN,oven,oven,true,0272_fc_dnn_true_oven_35_n04111531_20056.png,n04111531_20056.png,1.0,2.6423345,-2.790388,3.841515
alexnet_w1_mlp_simclrhn_probe1,1,273,NaN,oven,oven,true,0273_fc_dnn_true_oven_35_n04111531_12510.png,n04111531_12510.png,1.0,1.2735746,-4.1178703,3.8123274
alexnet_w1_mlp_simclrhn_probe1,1,274,NaN,oven,oven,false,0274_fc_dnn_false_oven_35_n04111531_11079.png,n04111531_11079.png,1.0,5.070791,-1.4070454,4.580522
alexnet_w1_mlp_simclrhn_probe1,1,275,NaN,cat,cat,true,0275_fc_dnn_true_cat_35_n02124075_4377.png,n02124075_4377.png,1.0,1.2752696,-2.6222663,2.755974
alexnet_w1_mlp_simclrhn_probe1,1,276,NaN,airplane,knife,true,0276_fc_dnn_true_knife_35_n03041632_20517.png,n03041632_20517.png,0.0,0.17086028,1.6191645,-1.0241057
alexnet_w1_mlp_simclrhn_probe1,1,277,NaN,knife,knife,false,0277_fc_dnn_false_knife_35_n03041632_362.png,n03041632_362.png,1.0,0.44548452,-5.2759666,4.045677
alexnet_w1_mlp_simclrhn_probe1,1,278,NaN,airplane,airplane,false,0278_fc_dnn_false_airplane_35_n02690373_6807.png,n02690373_6807.png,1.0,5.8898096,2.7584288,2.2142205
alexnet_w1_mlp_simclrhn_probe1,1,279,NaN,elephant,elephant,false,0279_fc_dnn_false_elephant_35_n02504013_1494.png,n02504013_1494.png,1.0,9.673944,2.787918,4.869156
alexnet_w1_mlp_simclrhn_probe1,1,280,NaN,oven,oven,false,0280_fc_dnn_false_oven_35_n04111531_3181.png,n04111531_3181.png,1.0,-0.84519494,-2.7994697,1.381881
alexnet_w1_mlp_simclrhn_probe1,1,281,NaN,car,truck,false,0281_fc_dnn_false_truck_35_n03796401_6727.png,n03796401_6727.png,0.0,9.891729,12.01814,-1.5035993
alexnet_w1_mlp_simclrhn_probe1,1,282,NaN,elephant,dog,true,0282_fc_dnn_true_dog_35_n02113023_6956.png,n02113023_6956.png,0.0,0.27619982,2.0286975,-1.239203
alexnet_w1_mlp_simclrhn_probe1,1,283,NaN,elephant,elephant,false,0283_fc_dnn_false_elephant_35_n02504013_1519.png,n02504013_1519.png,1.0,-2.1026049,-2.8297613,0.5141772
alexnet_w1_mlp_simclrhn_probe1,1,284,NaN,oven,oven,false,0284_fc_dnn_false_oven_35_n04111531_8082.png,n04111531_8082.png,1.0,1.2123972,-1.4162002,1.858699
alexnet_w1_mlp_simclrhn_probe1,1,285,NaN,oven,oven,false,0285_fc_dnn_false_oven_35_n04111531_550.png,n04111531_550.png,1.0,1.2447062,-0.33316487,1.1157234
alexnet_w1_mlp_simclrhn_probe1,1,286,NaN,knife,clock,false,0286_fc_dnn_false_clock_35_n02708093_2242.png,n02708093_2242.png,0.0,-4.7165465,-2.6057146,-1.4925836
alexnet_w1_mlp_simclrhn_probe1,1,287,NaN,airplane,airplane,true,0287_fc_dnn_true_airplane_35_n02690373_10809.png,n02690373_10809.png,1.0,6.5798616,-0.73325044,5.171151
alexnet_w1_mlp_simclrhn_probe1,1,288,NaN,bird,bird,false,0288_fc_dnn_false_bird_35_n02037110_6501.png,n02037110_6501.png,1.0,2.2845008,-6.4866085,6.2021112
alexnet_w1_mlp_simclrhn_probe1,1,289,NaN,airplane,airplane,false,0289_fc_dnn_false_airplane_35_n02690373_12756.png,n02690373_12756.png,1.0,5.955781,-0.09214397,4.276529
alexnet_w1_mlp_simclrhn_probe1,1,290,NaN,oven,bottle,false,0290_fc_dnn_false_bottle_35_n03983396_5413.png,n03983396_5413.png,0.0,-3.0740638,0.25064206,-2.350922
alexnet_w1_mlp_simclrhn_probe1,1,291,NaN,bird,bird,true,0291_fc_dnn_true_bird_35_n01560419_631.png,n01560419_631.png,1.0,2.9238455,-4.9972878,5.601087
alexnet_w1_mlp_simclrhn_probe1,1,292,NaN,cat,cat,true,0292_fc_dnn_true_cat_35_n02123394_4734.png,n02123394_4734.png,1.0,-0.9220516,-0.9407997,0.013256912
alexnet_w1_mlp_simclrhn_probe1,1,293,NaN,bottle,bottle,true,0293_fc_dnn_true_bottle_35_n03937543_469.png,n03937543_469.png,1.0,-0.7817741,-1.5598924,0.55021274
alexnet_w1_mlp_simclrhn_probe1,1,294,NaN,clock,clock,true,0294_fc_dnn_true_clock_35_n04548280_1055.png,n04548280_1055.png,1.0,2.1518934,-0.81874657,2.1005597
alexnet_w1_mlp_simclrhn_probe1,1,295,NaN,knife,chair,true,0295_fc_dnn_true_chair_35_n02791124_15934.png,n02791124_15934.png,0.0,-1.4674524,-0.24141043,-0.86694264
alexnet_w1_mlp_simclrhn_probe1,1,296,NaN,cat,keyboard,true,0296_fc_dnn_true_keyboard_35_n03085013_22187.png,n03085013_22187.png,0.0,-5.0477295,2.5037966,-5.3397355
alexnet_w1_mlp_simclrhn_probe1,1,297,NaN,dog,dog,false,0297_fc_dnn_false_dog_35_n02099601_8560.png,n02099601_8560.png,1.0,2.175831,1.848816,0.23123455
alexnet_w1_mlp_simclrhn_probe1,1,298,NaN,truck,truck,true,0298_fc_dnn_true_truck_35_n03417042_11091.png,n03417042_11091.png,1.0,6.7516055,2.606339,2.9311461
alexnet_w1_mlp_simclrhn_probe1,1,299,NaN,bicycle,bird,true,0299_fc_dnn_true_bird_35_n02013706_7132.png,n02013706_7132.png,0.0,-2.4071486,-0.67887235,-1.2220758
alexnet_w1_mlp_simclrhn_probe1,1,300,NaN,car,car,false,0300_fc_dnn_false_car_35_n02814533_4978.png,n02814533_4978.png,1.0,4.3844357,3.4733555,0.64423096
alexnet_w1_mlp_simclrhn_probe1,1,301,NaN,bear,bear,true,0301_fc_dnn_true_bear_35_n02134418_6244.png,n02134418_6244.png,1.0,3.7131033,0.44246092,2.3126934
alexnet_w1_mlp_simclrhn_probe1,1,302,NaN,bicycle,bicycle,false,0302_fc_dnn_false_bicycle_35_n03792782_50569.png,n03792782_50569.png,1.0,9.734171,-0.9915134,7.584204
alexnet_w1_mlp_simclrhn_probe1,1,303,NaN,car,car,true,0303_fc_dnn_true_car_35_n03100240_2632.png,n03100240_2632.png,1.0,6.0787597,3.6212366,1.7377313
alexnet_w1_mlp_simclrhn_probe1,1,304,NaN,knife,knife,false,0304_fc_dnn_false_knife_35_n03041632_11285.png,n03041632_11285.png,1.0,1.2656735,-1.6772346,2.0809505
alexnet_w1_mlp_simclrhn_probe1,1,305,NaN,knife,knife,false,0305_fc_dnn_false_knife_35_n03041632_39952.png,n03041632_39952.png,1.0,3.1220727,-2.0631392,3.6664987
alexnet_w1_mlp_simclrhn_probe1,1,306,NaN,knife,chair,true,0306_fc_dnn_true_chair_35_n04099969_9745.png,n04099969_9745.png,0.0,-0.8101028,-0.34467152,-0.32910964
alexnet_w1_mlp_simclrhn_probe1,1,307,NaN,car,car,true,0307_fc_dnn_true_car_35_n03100240_49.png,n03100240_49.png,1.0,15.985766,13.602011,1.6855699
alexnet_w1_mlp_simclrhn_probe1,1,308,NaN,cat,bird,true,0308_fc_dnn_true_bird_35_n01817953_5953.png,n01817953_5953.png,0.0,-6.3069057,-2.7378254,-2.523721
alexnet_w1_mlp_simclrhn_probe1,1,309,NaN,bear,bear,false,0309_fc_dnn_false_bear_35_n02134418_5253.png,n02134418_5253.png,1.0,2.5023365,1.5639347,0.6635503
alexnet_w1_mlp_simclrhn_probe1,1,310,NaN,bicycle,bicycle,false,0310_fc_dnn_false_bicycle_35_n03792782_7576.png,n03792782_7576.png,1.0,7.37821,-3.4663002,7.6682267
alexnet_w1_mlp_simclrhn_probe1,1,311,NaN,clock,keyboard,true,0311_fc_dnn_true_keyboard_35_n03085013_5157.png,n03085013_5157.png,0.0,-2.2139468,0.85806274,-2.1722388
alexnet_w1_mlp_simclrhn_probe1,1,312,NaN,airplane,boat,true,0312_fc_dnn_true_boat_35_n03344393_7050.png,n03344393_7050.png,0.0,0.14924262,2.6552825,-1.7720379
alexnet_w1_mlp_simclrhn_probe1,1,313,NaN,bicycle,bicycle,false,0313_fc_dnn_false_bicycle_35_n03792782_51335.png,n03792782_51335.png,1.0,5.1010966,-3.0404875,5.7569695
alexnet_w1_mlp_simclrhn_probe1,1,314,NaN,cat,cat,true,0314_fc_dnn_true_cat_35_n02124075_7230.png,n02124075_7230.png,1.0,0.92877656,-1.8799433,1.9860649
alexnet_w1_mlp_simclrhn_probe1,1,315,NaN,airplane,truck,true,0315_fc_dnn_true_truck_35_n04467665_68020.png,n04467665_68020.png,0.0,-1.0350655,2.7534213,-2.678865
alexnet_w1_mlp_simclrhn_probe1,1,316,NaN,elephant,elephant,true,0316_fc_dnn_true_elephant_35_n02504458_2970.png,n02504458_2970.png,1.0,-0.34095812,-0.8997613,0.39513353
alexnet_w1_mlp_simclrhn_probe1,1,317,NaN,bicycle,bicycle,false,0317_fc_dnn_false_bicycle_35_n02835271_2714.png,n02835271_2714.png,1.0,10.143034,-2.0920944,8.651543
alexnet_w1_mlp_simclrhn_probe1,1,318,NaN,elephant,elephant,true,0318_fc_dnn_true_elephant_35_n02504013_3307.png,n02504013_3307.png,1.0,6.5478015,3.1931481,2.3720982
alexnet_w1_mlp_simclrhn_probe1,1,319,NaN,truck,truck,true,0319_fc_dnn_true_truck_35_n03796401_3940.png,n03796401_3940.png,1.0,6.184525,3.2392693,2.0826104
alexnet_w1_mlp_simclrhn_probe1,1,320,NaN,oven,chair,false,0320_fc_dnn_false_chair_35_n04429376_5362.png,n04429376_5362.png,0.0,0.26135045,3.3729072,-2.200203
alexnet_w1_mlp_simclrhn_probe1,1,321,NaN,cat,cat,false,0321_fc_dnn_false_cat_35_n02123159_1165.png,n02123159_1165.png,1.0,1.6320409,-1.1870909,1.9934273
alexnet_w1_mlp_simclrhn_probe1,1,322,NaN,airplane,boat,true,0322_fc_dnn_true_boat_35_n03662601_4665.png,n03662601_4665.png,0.0,0.9700664,1.6726338,-0.49679014
alexnet_w1_mlp_simclrhn_probe1,1,323,NaN,cat,cat,true,0323_fc_dnn_true_cat_35_n02124075_5067.png,n02124075_5067.png,1.0,1.8171067,-0.9442924,1.9526042
alexnet_w1_mlp_simclrhn_probe1,1,324,NaN,knife,knife,true,0324_fc_dnn_true_knife_35_n03041632_22480.png,n03041632_22480.png,1.0,-1.3168288,-5.9041815,3.2437482
alexnet_w1_mlp_simclrhn_probe1,1,325,NaN,bicycle,bottle,false,0325_fc_dnn_false_bottle_35_n04560804_2539.png,n04560804_2539.png,0.0,-4.2439566,1.7611914,-4.2462807
alexnet_w1_mlp_simclrhn_probe1,1,326,NaN,oven,oven,true,0326_fc_dnn_true_oven_35_n04111531_8681.png,n04111531_8681.png,1.0,1.7817645,-1.6023,2.3928952
alexnet_w1_mlp_simclrhn_probe1,1,327,NaN,car,car,false,0327_fc_dnn_false_car_35_n03100240_23804.png,n03100240_23804.png,1.0,15.310758,11.351325,2.7997417
alexnet_w1_mlp_simclrhn_probe1,1,328,NaN,oven,oven,true,0328_fc_dnn_true_oven_35_n04111531_547.png,n04111531_547.png,1.0,5.535427,-1.6044803,5.048677
alexnet_w1_mlp_simclrhn_probe1,1,329,NaN,boat,boat,false,0329_fc_dnn_false_boat_35_n04273569_9873.png,n04273569_9873.png,1.0,3.7584484,-1.308997,3.583225
alexnet_w1_mlp_simclrhn_probe1,1,330,NaN,cat,cat,false,0330_fc_dnn_false_cat_35_n02123597_13140.png,n02123597_13140.png,1.0,1.4779121,0.13828118,0.94726205
alexnet_w1_mlp_simclrhn_probe1,1,331,NaN,bear,bear,true,0331_fc_dnn_true_bear_35_n02134418_1330.png,n02134418_1330.png,1.0,1.6347713,-0.86403143,1.7669203
alexnet_w1_mlp_simclrhn_probe1,1,332,NaN,oven,chair,false,0332_fc_dnn_false_chair_35_n04429376_6272.png,n04429376_6272.png,0.0,-0.32316148,0.46518525,-0.55744535
alexnet_w1_mlp_simclrhn_probe1,1,333,NaN,bear,bear,false,0333_fc_dnn_false_bear_35_n02134084_22997.png,n02134084_22997.png,1.0,-0.7372681,-1.5757858,0.59292156
alexnet_w1_mlp_simclrhn_probe1,1,334,NaN,oven,clock,false,0334_fc_dnn_false_clock_35_n03196217_3508.png,n03196217_3508.png,0.0,-0.13067047,1.8930078,-1.4309567
alexnet_w1_mlp_simclrhn_probe1,1,335,NaN,truck,chair,true,0335_fc_dnn_true_chair_35_n02791124_958.png,n02791124_958.png,0.0,-1.6053393,0.15427181,-1.244233
alexnet_w1_mlp_simclrhn_probe1,1,336,NaN,boat,boat,false,0336_fc_dnn_false_boat_35_n03344393_4012.png,n03344393_4012.png,1.0,1.8472344,0.61765146,0.8694464
alexnet_w1_mlp_simclrhn_probe1,1,337,NaN,airplane,airplane,true,0337_fc_dnn_true_airplane_35_n02690373_4921.png,n02690373_4921.png,1.0,9.218354,2.6864014,4.6187882
alexnet_w1_mlp_simclrhn_probe1,1,338,NaN,bear,cat,false,0338_fc_dnn_false_cat_35_n02125311_28052.png,n02125311_28052.png,0.0,0.43798065,0.9747354,-0.37954292
alexnet_w1_mlp_simclrhn_probe1,1,339,NaN,airplane,airplane,false,0339_fc_dnn_false_airplane_35_n02690373_1837.png,n02690373_1837.png,1.0,0.92411005,-1.0790939,1.4164791
alexnet_w1_mlp_simclrhn_probe1,1,340,NaN,elephant,elephant,false,0340_fc_dnn_false_elephant_35_n02504458_5191.png,n02504458_5191.png,1.0,8.797615,-1.8393778,7.5214896
alexnet_w1_mlp_simclrhn_probe1,1,341,NaN,bird,bird,false,0341_fc_dnn_false_bird_35_n01855672_2187.png,n01855672_2187.png,1.0,-1.6602241,-2.9675057,0.9243877
alexnet_w1_mlp_simclrhn_probe1,1,342,NaN,clock,clock,true,0342_fc_dnn_true_clock_35_n04548280_7794.png,n04548280_7794.png,1.0,6.0390725,-3.3210995,6.6186414
alexnet_w1_mlp_simclrhn_probe1,1,343,NaN,keyboard,clock,false,0343_fc_dnn_false_clock_35_n03196217_8489.png,n03196217_8489.png,0.0,-4.5013604,0.9126268,-3.828267
alexnet_w1_mlp_simclrhn_probe1,1,344,NaN,knife,knife,false,0344_fc_dnn_false_knife_35_n03041632_21590.png,n03041632_21590.png,1.0,-0.7510712,-1.6991091,0.670364
alexnet_w1_mlp_simclrhn_probe1,1,345,NaN,elephant,elephant,false,0345_fc_dnn_false_elephant_35_n02504458_1249.png,n02504458_1249.png,1.0,13.915887,-2.6094842,11.685203
alexnet_w1_mlp_simclrhn_probe1,1,346,NaN,keyboard,keyboard,false,0346_fc_dnn_false_keyboard_35_n04505470_4549.png,n04505470_4549.png,1.0,2.6060383,1.9350214,0.47448063
alexnet_w1_mlp_simclrhn_probe1,1,347,NaN,elephant,elephant,false,0347_fc_dnn_false_elephant_35_n02504013_3771.png,n02504013_3771.png,1.0,5.2708073,-1.3914878,4.710954
alexnet_w1_mlp_simclrhn_probe1,1,348,NaN,bicycle,bicycle,true,0348_fc_dnn_true_bicycle_35_n02835271_19552.png,n02835271_19552.png,1.0,12.700494,0.33797964,8.741618
alexnet_w1_mlp_simclrhn_probe1,1,349,NaN,elephant,bear,true,0349_fc_dnn_true_bear_35_n02134084_4477.png,n02134084_4477.png,0.0,-2.5326517,0.07921985,-1.8468721
alexnet_w1_mlp_simclrhn_probe1,1,350,NaN,elephant,elephant,false,0350_fc_dnn_false_elephant_35_n02504013_10149.png,n02504013_10149.png,1.0,15.533881,-0.16953,11.103989
alexnet_w1_mlp_simclrhn_probe1,1,351,NaN,boat,boat,true,0351_fc_dnn_true_boat_35_n04273569_709.png,n04273569_709.png,1.0,4.672575,2.6167812,1.4536657
alexnet_w1_mlp_simclrhn_probe1,1,352,NaN,car,car,false,0352_fc_dnn_false_car_35_n03100240_7120.png,n03100240_7120.png,1.0,16.633444,11.740444,3.4598732
alexnet_w1_mlp_simclrhn_probe1,1,353,NaN,car,boat,false,0353_fc_dnn_false_boat_35_n02951358_12867.png,n02951358_12867.png,0.0,-1.0142292,5.880474,-4.875292
alexnet_w1_mlp_simclrhn_probe1,1,354,NaN,bird,bird,true,0354_fc_dnn_true_bird_35_n01558993_38999.png,n01558993_38999.png,1.0,1.5608885,-7.6811748,6.5351257
alexnet_w1_mlp_simclrhn_probe1,1,355,NaN,bicycle,bicycle,false,0355_fc_dnn_false_bicycle_35_n03792782_4210.png,n03792782_4210.png,1.0,3.6163068,-1.4036851,3.5496705
alexnet_w1_mlp_simclrhn_probe1,1,356,NaN,dog,dog,false,0356_fc_dnn_false_dog_35_n02102318_11997.png,n02102318_11997.png,1.0,3.2515128,1.0305545,1.5704546
alexnet_w1_mlp_simclrhn_probe1,1,357,NaN,knife,clock,false,0357_fc_dnn_false_clock_35_n02708093_6813.png,n02708093_6813.png,0.0,-5.9952826,-2.614822,-2.3903468
alexnet_w1_mlp_simclrhn_probe1,1,358,NaN,oven,oven,false,0358_fc_dnn_false_oven_35_n04111531_8036.png,n04111531_8036.png,1.0,6.2642703,-3.3555784,6.80226
alexnet_w1_mlp_simclrhn_probe1,1,359,NaN,clock,clock,false,0359_fc_dnn_false_clock_35_n02708093_3454.png,n02708093_3454.png,1.0,14.004277,1.6640681,8.725845
alexnet_w1_mlp_simclrhn_probe1,1,360,NaN,keyboard,keyboard,true,0360_fc_dnn_true_keyboard_35_n03085013_21641.png,n03085013_21641.png,1.0,11.123496,-2.8199377,9.859497
alexnet_w1_mlp_simclrhn_probe1,1,361,NaN,oven,chair,false,0361_fc_dnn_false_chair_35_n02791124_139.png,n02791124_139.png,0.0,-2.1679034,-1.503658,-0.4696924
alexnet_w1_mlp_simclrhn_probe1,1,362,NaN,cat,bear,false,0362_fc_dnn_false_bear_35_n02134084_6821.png,n02134084_6821.png,0.0,-1.6319178,0.85119194,-1.7558237
alexnet_w1_mlp_simclrhn_probe1,1,363,NaN,cat,cat,false,0363_fc_dnn_false_cat_35_n02124075_5874.png,n02124075_5874.png,1.0,3.9197018,-1.8093066,4.051021
alexnet_w1_mlp_simclrhn_probe1,1,364,NaN,chair,chair,false,0364_fc_dnn_false_chair_35_n04099969_8604.png,n04099969_8604.png,1.0,0.701262,0.2592004,0.31258476
alexnet_w1_mlp_simclrhn_probe1,1,365,NaN,bicycle,bicycle,true,0365_fc_dnn_true_bicycle_35_n02835271_15524.png,n02835271_15524.png,1.0,8.4709015,-3.6185012,8.548499
alexnet_w1_mlp_simclrhn_probe1,1,366,NaN,chair,chair,false,0366_fc_dnn_false_chair_35_n04429376_55163.png,n04429376_55163.png,1.0,3.5800858,0.89459234,1.8989307
alexnet_w1_mlp_simclrhn_probe1,1,367,NaN,dog,dog,true,0367_fc_dnn_true_dog_35_n02106662_10632.png,n02106662_10632.png,1.0,2.877898,-1.8313557,3.3299453
alexnet_w1_mlp_simclrhn_probe1,1,368,NaN,car,car,false,0368_fc_dnn_false_car_35_n03100240_9675.png,n03100240_9675.png,1.0,14.11242,6.492679,5.3879704
alexnet_w1_mlp_simclrhn_probe1,1,369,NaN,bird,bird,true,0369_fc_dnn_true_bird_35_n02011460_22291.png,n02011460_22291.png,1.0,2.0015714,-5.4988837,5.3036227
alexnet_w1_mlp_simclrhn_probe1,1,370,NaN,cat,dog,false,0370_fc_dnn_false_dog_35_n02106662_56099.png,n02106662_56099.png,0.0,-0.804633,3.5600185,-3.0862749
alexnet_w1_mlp_simclrhn_probe1,1,371,NaN,keyboard,keyboard,false,0371_fc_dnn_false_keyboard_35_n04505470_3970.png,n04505470_3970.png,1.0,10.269455,2.7470121,5.3191705
alexnet_w1_mlp_simclrhn_probe1,1,372,NaN,boat,boat,false,0372_fc_dnn_false_boat_35_n03662601_32803.png,n03662601_32803.png,1.0,5.4119806,-0.8905757,4.4565806
alexnet_w1_mlp_simclrhn_probe1,1,373,NaN,bottle,bottle,false,0373_fc_dnn_false_bottle_35_n02823428_4043.png,n02823428_4043.png,1.0,4.61986,-1.834125,4.563657
alexnet_w1_mlp_simclrhn_probe1,1,374,NaN,airplane,airplane,true,0374_fc_dnn_true_airplane_35_n02690373_5221.png,n02690373_5221.png,1.0,10.668918,0.47684258,7.2068853
alexnet_w1_mlp_simclrhn_probe1,1,375,NaN,bottle,knife,false,0375_fc_dnn_false_knife_35_n03041632_90125.png,n03041632_90125.png,0.0,-2.0722504,1.1892706,-2.3062437
alexnet_w1_mlp_simclrhn_probe1,1,376,NaN,oven,oven,false,0376_fc_dnn_false_oven_35_n04111531_11230.png,n04111531_11230.png,1.0,6.587123,-0.2561208,4.838904
alexnet_w1_mlp_simclrhn_probe1,1,377,NaN,keyboard,keyboard,true,0377_fc_dnn_true_keyboard_35_n04505470_3002.png,n04505470_3002.png,1.0,-1.614131,-2.6087527,0.7033038
alexnet_w1_mlp_simclrhn_probe1,1,378,NaN,bicycle,bicycle,true,0378_fc_dnn_true_bicycle_35_n02835271_12237.png,n02835271_12237.png,1.0,6.7555733,-2.229401,6.353336
alexnet_w1_mlp_simclrhn_probe1,1,379,NaN,oven,dog,false,0379_fc_dnn_false_dog_35_n02088238_9947.png,n02088238_9947.png,0.0,-5.9486394,0.37319392,-4.470211
alexnet_w1_mlp_simclrhn_probe1,1,380,NaN,airplane,airplane,false,0380_fc_dnn_false_airplane_35_n02690373_2075.png,n02690373_2075.png,1.0,1.2033458,-0.45755196,1.174432
alexnet_w1_mlp_simclrhn_probe1,1,381,NaN,bicycle,bicycle,false,0381_fc_dnn_false_bicycle_35_n02835271_12930.png,n02835271_12930.png,1.0,8.648875,-2.5660818,7.9301724
alexnet_w1_mlp_simclrhn_probe1,1,382,NaN,dog,dog,false,0382_fc_dnn_false_dog_35_n02096294_4609.png,n02096294_4609.png,1.0,0.09758042,-0.44006577,0.38017327
alexnet_w1_mlp_simclrhn_probe1,1,383,NaN,knife,knife,false,0383_fc_dnn_false_knife_35_n03041632_15754.png,n03041632_15754.png,1.0,-0.4931405,-0.7068296,0.15110102
alexnet_w1_mlp_simclrhn_probe1,1,384,NaN,elephant,bird,true,0384_fc_dnn_true_bird_35_n01819313_5634.png,n01819313_5634.png,0.0,-1.6957973,0.29384232,-1.4068877
alexnet_w1_mlp_simclrhn_probe1,1,385,NaN,clock,clock,true,0385_fc_dnn_true_clock_35_n02708093_8386.png,n02708093_8386.png,1.0,3.1044397,-0.7595857,2.7322786
alexnet_w1_mlp_simclrhn_probe1,1,386,NaN,bottle,bottle,false,0386_fc_dnn_false_bottle_35_n04579145_6435.png,n04579145_6435.png,1.0,5.4066725,0.70561147,3.3241522
alexnet_w1_mlp_simclrhn_probe1,1,387,NaN,airplane,airplane,true,0387_fc_dnn_true_airplane_35_n02690373_9531.png,n02690373_9531.png,1.0,2.4111483,0.6369751,1.25453
alexnet_w1_mlp_simclrhn_probe1,1,388,NaN,chair,bottle,true,0388_fc_dnn_true_bottle_35_n04591713_5518.png,n04591713_5518.png,0.0,-1.3043195,-0.49423498,-0.57281625
alexnet_w1_mlp_simclrhn_probe1,1,389,NaN,airplane,airplane,false,0389_fc_dnn_false_airplane_35_n02690373_12896.png,n02690373_12896.png,1.0,6.0551906,-1.4944739,5.338419
alexnet_w1_mlp_simclrhn_probe1,1,390,NaN,truck,truck,false,0390_fc_dnn_false_truck_35_n03796401_124.png,n03796401_124.png,1.0,1.8322939,0.7787676,0.7449556
alexnet_w1_mlp_simclrhn_probe1,1,391,NaN,bicycle,bicycle,true,0391_fc_dnn_true_bicycle_35_n03792782_7050.png,n03792782_7050.png,1.0,-0.23808771,-2.1895273,1.3798763
alexnet_w1_mlp_simclrhn_probe1,1,392,NaN,bicycle,bicycle,true,0392_fc_dnn_true_bicycle_35_n02835271_13729.png,n02835271_13729.png,1.0,7.610466,-1.9959713,6.7927775
alexnet_w1_mlp_simclrhn_probe1,1,393,NaN,bird,bird,false,0393_fc_dnn_false_bird_35_n02027492_3922.png,n02027492_3922.png,1.0,-0.9522977,-1.7737502,0.58085465
alexnet_w1_mlp_simclrhn_probe1,1,394,NaN,elephant,elephant,true,0394_fc_dnn_true_elephant_35_n02504013_9809.png,n02504013_9809.png,1.0,6.8626404,-1.3674196,5.819531
alexnet_w1_mlp_simclrhn_probe1,1,395,NaN,keyboard,keyboard,false,0395_fc_dnn_false_keyboard_35_n04505470_5086.png,n04505470_5086.png,1.0,3.0758193,-0.7683325,2.7182257
alexnet_w1_mlp_simclrhn_probe1,1,396,NaN,keyboard,keyboard,true,0396_fc_dnn_true_keyboard_35_n03085013_19439.png,n03085013_19439.png,1.0,0.3727153,-2.1063044,1.7529316
alexnet_w1_mlp_simclrhn_probe1,1,397,NaN,airplane,airplane,false,0397_fc_dnn_false_airplane_35_n02690373_9926.png,n02690373_9926.png,1.0,7.766535,-2.7429194,7.431307
alexnet_w1_mlp_simclrhn_probe1,1,398,NaN,elephant,elephant,true,0398_fc_dnn_true_elephant_35_n02504458_3197.png,n02504458_3197.png,1.0,17.214695,3.754076,9.518095
alexnet_w1_mlp_simclrhn_probe1,1,399,NaN,dog,dog,false,0399_fc_dnn_false_dog_35_n02110185_14056.png,n02110185_14056.png,1.0,1.9068258,-1.3247243,2.285051
alexnet_w1_mlp_simclrhn_probe1,1,400,NaN,airplane,airplane,true,0400_fc_dnn_true_airplane_35_n02690373_2823.png,n02690373_2823.png,1.0,9.342868,4.012411,3.7692022
alexnet_w1_mlp_simclrhn_probe1,1,401,NaN,bicycle,bicycle,false,0401_fc_dnn_false_bicycle_35_n02835271_14157.png,n02835271_14157.png,1.0,18.44226,-1.9571029,14.424529
alexnet_w1_mlp_simclrhn_probe1,1,402,NaN,chair,chair,true,0402_fc_dnn_true_chair_35_n03376595_606.png,n03376595_606.png,1.0,0.24385029,-0.9141941,0.818861
alexnet_w1_mlp_simclrhn_probe1,1,403,NaN,airplane,airplane,false,0403_fc_dnn_false_airplane_35_n02690373_1442.png,n02690373_1442.png,1.0,4.3584633,-1.2419808,3.9601119
alexnet_w1_mlp_simclrhn_probe1,1,404,NaN,keyboard,keyboard,true,0404_fc_dnn_true_keyboard_35_n04505470_10035.png,n04505470_10035.png,1.0,6.5185843,1.6705087,3.428107
alexnet_w1_mlp_simclrhn_probe1,1,405,NaN,elephant,bear,true,0405_fc_dnn_true_bear_35_n02133161_13278.png,n02133161_13278.png,0.0,1.5182719,3.046432,-1.0805724
alexnet_w1_mlp_simclrhn_probe1,1,406,NaN,elephant,bear,true,0406_fc_dnn_true_bear_35_n02134418_2657.png,n02134418_2657.png,0.0,-0.63740385,0.09496217,-0.517861
alexnet_w1_mlp_simclrhn_probe1,1,407,NaN,bear,bear,false,0407_fc_dnn_false_bear_35_n02133161_12894.png,n02133161_12894.png,1.0,1.6671008,-0.23415819,1.3443931
alexnet_w1_mlp_simclrhn_probe1,1,408,NaN,car,clock,false,0408_fc_dnn_false_clock_35_n03196217_6195.png,n03196217_6195.png,0.0,1.9176956,4.978809,-2.164534
alexnet_w1_mlp_simclrhn_probe1,1,409,NaN,bottle,bottle,true,0409_fc_dnn_true_bottle_35_n04591713_13349.png,n04591713_13349.png,1.0,4.0746818,1.3350759,1.937194
alexnet_w1_mlp_simclrhn_probe1,1,410,NaN,boat,boat,false,0410_fc_dnn_false_boat_35_n04273569_16295.png,n04273569_16295.png,1.0,0.61364746,0.5498208,0.04513228
alexnet_w1_mlp_simclrhn_probe1,1,411,NaN,elephant,elephant,false,0411_fc_dnn_false_elephant_35_n02504013_2672.png,n02504013_2672.png,1.0,9.796524,0.20052549,6.785396
alexnet_w1_mlp_simclrhn_probe1,1,412,NaN,bear,bear,true,0412_fc_dnn_true_bear_35_n02134084_22292.png,n02134084_22292.png,1.0,2.5230775,1.2100286,0.9284658
alexnet_w1_mlp_simclrhn_probe1,1,413,NaN,airplane,airplane,false,0413_fc_dnn_false_airplane_35_n02690373_997.png,n02690373_997.png,1.0,7.463352,1.1990473,4.4295325
alexnet_w1_mlp_simclrhn_probe1,1,414,NaN,knife,knife,true,0414_fc_dnn_true_knife_35_n03041632_29337.png,n03041632_29337.png,1.0,0.40810883,-1.2232999,1.1535802
alexnet_w1_mlp_simclrhn_probe1,1,415,NaN,elephant,elephant,true,0415_fc_dnn_true_elephant_35_n02504458_3261.png,n02504458_3261.png,1.0,3.1430962,-1.5334731,3.306834
alexnet_w1_mlp_simclrhn_probe1,1,416,NaN,oven,oven,true,0416_fc_dnn_true_oven_35_n04111531_22120.png,n04111531_22120.png,1.0,4.5302258,-0.09306151,3.269158
alexnet_w1_mlp_simclrhn_probe1,1,417,NaN,bear,bear,true,0417_fc_dnn_true_bear_35_n02134418_830.png,n02134418_830.png,1.0,1.5728936,1.1812468,0.27693614
alexnet_w1_mlp_simclrhn_probe1,1,418,NaN,truck,truck,false,0418_fc_dnn_false_truck_35_n03417042_2124.png,n03417042_2124.png,1.0,7.544533,3.260641,3.0291688
alexnet_w1_mlp_simclrhn_probe1,1,419,NaN,bicycle,bicycle,false,0419_fc_dnn_false_bicycle_35_n02835271_14585.png,n02835271_14585.png,1.0,8.581529,-1.8612648,7.3841705
alexnet_w1_mlp_simclrhn_probe1,1,420,NaN,oven,oven,true,0420_fc_dnn_true_oven_35_n04111531_2855.png,n04111531_2855.png,1.0,4.049656,-1.7884281,4.128149
alexnet_w1_mlp_simclrhn_probe1,1,421,NaN,dog,cat,false,0421_fc_dnn_false_cat_35_n02123394_4383.png,n02123394_4383.png,0.0,0.91118866,1.277254,-0.25884727
alexnet_w1_mlp_simclrhn_probe1,1,422,NaN,bear,cat,true,0422_fc_dnn_true_cat_35_n02125311_17068.png,n02125311_17068.png,0.0,0.83379704,0.9262524,-0.065375835
alexnet_w1_mlp_simclrhn_probe1,1,423,NaN,bird,bird,false,0423_fc_dnn_false_bird_35_n01560419_2291.png,n01560419_2291.png,1.0,3.5912092,-4.1810513,5.495818
alexnet_w1_mlp_simclrhn_probe1,1,424,NaN,elephant,bird,false,0424_fc_dnn_false_bird_35_n01829413_2459.png,n01829413_2459.png,0.0,-1.1508534,-0.6981788,-0.32008925
alexnet_w1_mlp_simclrhn_probe1,1,425,NaN,oven,oven,true,0425_fc_dnn_true_oven_35_n04111531_13822.png,n04111531_13822.png,1.0,4.3423986,-3.197027,5.331179
alexnet_w1_mlp_simclrhn_probe1,1,426,NaN,bear,bear,false,0426_fc_dnn_false_bear_35_n02133161_5067.png,n02133161_5067.png,1.0,6.036951,2.5400255,2.4726999
alexnet_w1_mlp_simclrhn_probe1,1,427,NaN,knife,chair,false,0427_fc_dnn_false_chair_35_n02791124_885.png,n02791124_885.png,0.0,-1.5893042,-1.3301003,-0.18328485
alexnet_w1_mlp_simclrhn_probe1,1,428,NaN,cat,dog,true,0428_fc_dnn_true_dog_35_n02107312_7182.png,n02107312_7182.png,0.0,-0.97146773,1.5714006,-1.7980795
alexnet_w1_mlp_simclrhn_probe1,1,429,NaN,airplane,truck,true,0429_fc_dnn_true_truck_35_n04467665_13989.png,n04467665_13989.png,0.0,1.9155784,2.669229,-0.5329115
alexnet_w1_mlp_simclrhn_probe1,1,430,NaN,bicycle,dog,true,0430_fc_dnn_true_dog_35_n02102480_10232.png,n02102480_10232.png,0.0,-0.7783641,1.4779668,-1.595467
alexnet_w1_mlp_simclrhn_probe1,1,431,NaN,oven,oven,false,0431_fc_dnn_false_oven_35_n04111531_643.png,n04111531_643.png,1.0,8.564367,-0.6739557,6.532481
alexnet_w1_mlp_simclrhn_probe1,1,432,NaN,bicycle,boat,true,0432_fc_dnn_true_boat_35_n02951358_31514.png,n02951358_31514.png,0.0,-0.24255304,1.1622536,-0.9933483
alexnet_w1_mlp_simclrhn_probe1,1,433,NaN,oven,oven,true,0433_fc_dnn_true_oven_35_n04111531_1898.png,n04111531_1898.png,1.0,7.294689,1.2930677,4.2437873
alexnet_w1_mlp_simclrhn_probe1,1,434,NaN,car,car,true,0434_fc_dnn_true_car_35_n03100240_5865.png,n03100240_5865.png,1.0,7.270887,2.1851172,3.5961823
alexnet_w1_mlp_simclrhn_probe1,1,435,NaN,keyboard,keyboard,true,0435_fc_dnn_true_keyboard_35_n04505470_4369.png,n04505470_4369.png,1.0,12.263932,2.1879964,7.1247625
alexnet_w1_mlp_simclrhn_probe1,1,436,NaN,cat,cat,false,0436_fc_dnn_false_cat_35_n02123394_1942.png,n02123394_1942.png,1.0,2.3555832,-1.1356997,2.46871
alexnet_w1_mlp_simclrhn_probe1,1,437,NaN,car,car,true,0437_fc_dnn_true_car_35_n04285008_2900.png,n04285008_2900.png,1.0,7.1324425,4.659114,1.7489074
alexnet_w1_mlp_simclrhn_probe1,1,438,NaN,airplane,airplane,true,0438_fc_dnn_true_airplane_35_n02690373_10926.png,n02690373_10926.png,1.0,7.4933753,-0.6264994,5.7416186
alexnet_w1_mlp_simclrhn_probe1,1,439,NaN,knife,knife,true,0439_fc_dnn_true_knife_35_n03041632_11613.png,n03041632_11613.png,1.0,-1.9257848,-2.2952113,0.26122397
alexnet_w1_mlp_simclrhn_probe1,1,440,NaN,knife,knife,true,0440_fc_dnn_true_knife_35_n03041632_24817.png,n03041632_24817.png,1.0,-1.0467474,-3.3052006,1.5969676
alexnet_w1_mlp_simclrhn_probe1,1,441,NaN,bicycle,bicycle,true,0441_fc_dnn_true_bicycle_35_n02835271_3042.png,n02835271_3042.png,1.0,11.067898,-4.422633,10.95346
alexnet_w1_mlp_simclrhn_probe1,1,442,NaN,bear,dog,true,0442_fc_dnn_true_dog_35_n02102177_7737.png,n02102177_7737.png,0.0,-0.0641851,0.24347383,-0.2175477
alexnet_w1_mlp_simclrhn_probe1,1,443,NaN,oven,oven,true,0443_fc_dnn_true_oven_35_n04111531_21460.png,n04111531_21460.png,1.0,1.2527535,-2.91973,2.9503913
alexnet_w1_mlp_simclrhn_probe1,1,444,NaN,chair,keyboard,false,0444_fc_dnn_false_keyboard_35_n04505470_7388.png,n04505470_7388.png,0.0,-2.905933,1.3796263,-3.030348
alexnet_w1_mlp_simclrhn_probe1,1,445,NaN,bird,bird,true,0445_fc_dnn_true_bird_35_n01828970_25642.png,n01828970_25642.png,1.0,3.546706,-5.564474,6.4425774
alexnet_w1_mlp_simclrhn_probe1,1,446,NaN,bicycle,bicycle,false,0446_fc_dnn_false_bicycle_35_n02835271_608.png,n02835271_608.png,1.0,1.5171382,-3.6117194,3.62665
alexnet_w1_mlp_simclrhn_probe1,1,447,NaN,airplane,boat,true,0447_fc_dnn_true_boat_35_n04273569_26182.png,n04273569_26182.png,0.0,3.0203128,3.8128424,-0.56040305
alexnet_w1_mlp_simclrhn_probe1,1,448,NaN,cat,cat,false,0448_fc_dnn_false_cat_35_n02123045_9384.png,n02123045_9384.png,1.0,3.4230325,-1.0918837,3.192528
alexnet_w1_mlp_simclrhn_probe1,1,449,NaN,airplane,airplane,true,0449_fc_dnn_true_airplane_35_n02690373_9529.png,n02690373_9529.png,1.0,7.54667,-2.957,7.427216
alexnet_w1_mlp_simclrhn_probe1,1,450,NaN,chair,cat,true,0450_fc_dnn_true_cat_35_n02123597_5081.png,n02123597_5081.png,0.0,-2.9714556,-1.767905,-0.8510388
alexnet_w1_mlp_simclrhn_probe1,1,451,NaN,oven,oven,false,0451_fc_dnn_false_oven_35_n04111531_4998.png,n04111531_4998.png,1.0,5.945223,-0.83272326,4.792732
alexnet_w1_mlp_simclrhn_probe1,1,452,NaN,clock,clock,true,0452_fc_dnn_true_clock_35_n04548280_1245.png,n04548280_1245.png,1.0,5.1264215,0.4626923,3.2977545
alexnet_w1_mlp_simclrhn_probe1,1,453,NaN,bicycle,dog,true,0453_fc_dnn_true_dog_35_n02104365_8609.png,n02104365_8609.png,0.0,-2.101608,-2.0840006,-0.012450348
alexnet_w1_mlp_simclrhn_probe1,1,454,NaN,clock,clock,false,0454_fc_dnn_false_clock_35_n02708093_6414.png,n02708093_6414.png,1.0,5.7327304,-1.4317224,5.066033
alexnet_w1_mlp_simclrhn_probe1,1,455,NaN,bird,bird,true,0455_fc_dnn_true_bird_35_n01798484_9155.png,n01798484_9155.png,1.0,-2.5326657,-3.6981914,0.8241511
alexnet_w1_mlp_simclrhn_probe1,1,456,NaN,bicycle,oven,true,0456_fc_dnn_true_oven_35_n04111531_10724.png,n04111531_10724.png,0.0,-4.5443892,3.158236,-5.4465785
alexnet_w1_mlp_simclrhn_probe1,1,457,NaN,bicycle,boat,true,0457_fc_dnn_true_boat_35_n02951358_32687.png,n02951358_32687.png,0.0,0.113411985,0.771531,-0.46536043
alexnet_w1_mlp_simclrhn_probe1,1,458,NaN,bicycle,bicycle,true,0458_fc_dnn_true_bicycle_35_n02835271_31.png,n02835271_31.png,1.0,2.6668782,0.19675444,1.7466413
alexnet_w1_mlp_simclrhn_probe1,1,459,NaN,elephant,bottle,true,0459_fc_dnn_true_bottle_35_n04557648_4420.png,n04557648_4420.png,0.0,-2.8356147,0.33443645,-2.2415648
alexnet_w1_mlp_simclrhn_probe1,1,460,NaN,bear,bear,true,0460_fc_dnn_true_bear_35_n02133161_713.png,n02133161_713.png,1.0,5.8247514,3.4165647,1.7028452
alexnet_w1_mlp_simclrhn_probe1,1,461,NaN,airplane,airplane,false,0461_fc_dnn_false_airplane_35_n02690373_5967.png,n02690373_5967.png,1.0,6.5375624,-1.848348,5.9297338
alexnet_w1_mlp_simclrhn_probe1,1,462,NaN,bird,bird,true,0462_fc_dnn_true_bird_35_n01795545_4502.png,n01795545_4502.png,1.0,0.13564785,-2.6076806,1.9398261
alexnet_w1_mlp_simclrhn_probe1,1,463,NaN,bear,cat,true,0463_fc_dnn_true_cat_35_n02124075_11466.png,n02124075_11466.png,0.0,-0.07915715,0.90010333,-0.69244176
alexnet_w1_mlp_simclrhn_probe1,1,464,NaN,truck,keyboard,true,0464_fc_dnn_true_keyboard_35_n03085013_21769.png,n03085013_21769.png,0.0,-1.1219848,-0.3410763,-0.5521857
alexnet_w1_mlp_simclrhn_probe1,1,465,NaN,car,car,false,0465_fc_dnn_false_car_35_n03100240_15097.png,n03100240_15097.png,1.0,-0.06181399,-1.1781085,0.7893394
alexnet_w1_mlp_simclrhn_probe1,1,466,NaN,bear,dog,false,0466_fc_dnn_false_dog_35_n02093647_3072.png,n02093647_3072.png,0.0,-2.2749624,-0.21799225,-1.4544976
alexnet_w1_mlp_simclrhn_probe1,1,467,NaN,bicycle,bicycle,false,0467_fc_dnn_false_bicycle_35_n02835271_12701.png,n02835271_12701.png,1.0,3.4573998,1.9308589,1.0794275
alexnet_w1_mlp_simclrhn_probe1,1,468,NaN,dog,bear,false,0468_fc_dnn_false_bear_35_n02134084_3227.png,n02134084_3227.png,0.0,-1.0592897,0.25686243,-0.93066007
alexnet_w1_mlp_simclrhn_probe1,1,469,NaN,cat,cat,true,0469_fc_dnn_true_cat_35_n02123394_5001.png,n02123394_5001.png,1.0,2.415391,-1.4999858,2.7685895
alexnet_w1_mlp_simclrhn_probe1,1,470,NaN,keyboard,keyboard,true,0470_fc_dnn_true_keyboard_35_n03085013_6862.png,n03085013_6862.png,1.0,2.0156355,0.7775761,0.87544024
alexnet_w1_mlp_simclrhn_probe1,1,471,NaN,chair,chair,true,0471_fc_dnn_true_chair_35_n04099969_45461.png,n04099969_45461.png,1.0,0.9847015,-0.7812597,1.2487231
alexnet_w1_mlp_simclrhn_probe1,1,472,NaN,bicycle,bicycle,false,0472_fc_dnn_false_bicycle_35_n03792782_485.png,n03792782_485.png,1.0,5.7597384,-1.7323292,5.297692
alexnet_w1_mlp_simclrhn_probe1,1,473,NaN,chair,oven,true,0473_fc_dnn_true_oven_35_n04111531_1674.png,n04111531_1674.png,0.0,-0.53516287,1.1020126,-1.157658
alexnet_w1_mlp_simclrhn_probe1,1,474,NaN,airplane,airplane,true,0474_fc_dnn_true_airplane_35_n02690373_866.png,n02690373_866.png,1.0,10.848264,0.09034405,7.606998
alexnet_w1_mlp_simclrhn_probe1,1,475,NaN,oven,oven,false,0475_fc_dnn_false_oven_35_n04111531_9297.png,n04111531_9297.png,1.0,0.78837365,-2.8976672,2.6064246
alexnet_w1_mlp_simclrhn_probe1,1,476,NaN,elephant,elephant,false,0476_fc_dnn_false_elephant_35_n02504458_6878.png,n02504458_6878.png,1.0,6.8169603,-0.5391183,5.2015333
alexnet_w1_mlp_simclrhn_probe1,1,477,NaN,car,car,true,0477_fc_dnn_true_car_35_n03100240_3151.png,n03100240_3151.png,1.0,4.2793927,2.9335933,0.9516239
alexnet_w1_mlp_simclrhn_probe1,1,478,NaN,airplane,airplane,false,0478_fc_dnn_false_airplane_35_n02690373_6363.png,n02690373_6363.png,1.0,6.970071,0.9629299,4.24769
alexnet_w1_mlp_simclrhn_probe1,1,479,NaN,car,car,true,0479_fc_dnn_true_car_35_n04285008_15049.png,n04285008_15049.png,1.0,8.633065,5.5540724,2.1771767
alexnet_w1_mlp_simclrhn_probe1,1,480,NaN,airplane,truck,true,0480_fc_dnn_true_truck_35_n04467665_2505.png,n04467665_2505.png,0.0,-4.4347434,-2.8299937,-1.1347294
alexnet_w1_mlp_simclrhn_probe1,1,481,NaN,bicycle,bottle,true,0481_fc_dnn_true_bottle_35_n04591713_4030.png,n04591713_4030.png,0.0,-4.889946,-0.78648686,-2.901584
alexnet_w1_mlp_simclrhn_probe1,1,482,NaN,oven,oven,true,0482_fc_dnn_true_oven_35_n04111531_12929.png,n04111531_12929.png,1.0,1.209589,-1.8810322,2.1853993
alexnet_w1_mlp_simclrhn_probe1,1,483,NaN,dog,cat,true,0483_fc_dnn_true_cat_35_n02125311_53315.png,n02125311_53315.png,0.0,1.3989347,2.4048007,-0.71125466
alexnet_w1_mlp_simclrhn_probe1,1,484,NaN,cat,dog,true,0484_fc_dnn_true_dog_35_n02087046_4409.png,n02087046_4409.png,0.0,-3.4052124,-1.7010199,-1.205046
alexnet_w1_mlp_simclrhn_probe1,1,485,NaN,oven,oven,false,0485_fc_dnn_false_oven_35_n04111531_21120.png,n04111531_21120.png,1.0,4.4781904,-1.8384767,4.466558
alexnet_w1_mlp_simclrhn_probe1,1,486,NaN,elephant,elephant,false,0486_fc_dnn_false_elephant_35_n02504013_5934.png,n02504013_5934.png,1.0,0.11432785,-1.6506972,1.2480613
alexnet_w1_mlp_simclrhn_probe1,1,487,NaN,car,car,true,0487_fc_dnn_true_car_35_n04285008_3631.png,n04285008_3631.png,1.0,5.283239,2.5666823,1.9208956
alexnet_w1_mlp_simclrhn_probe1,1,488,NaN,clock,clock,true,0488_fc_dnn_true_clock_35_n03196217_7663.png,n03196217_7663.png,1.0,1.8799032,0.5722134,0.92467636
alexnet_w1_mlp_simclrhn_probe1,1,489,NaN,elephant,bicycle,false,0489_fc_dnn_false_bicycle_35_n03792782_801.png,n03792782_801.png,0.0,0.044051528,0.09080431,-0.03305921
alexnet_w1_mlp_simclrhn_probe1,1,490,NaN,elephant,bear,false,0490_fc_dnn_false_bear_35_n02133161_6983.png,n02133161_6983.png,0.0,-0.6271933,1.0985765,-1.2203035
alexnet_w1_mlp_simclrhn_probe1,1,491,NaN,keyboard,keyboard,true,0491_fc_dnn_true_keyboard_35_n03085013_20825.png,n03085013_20825.png,1.0,8.02986,-2.6228151,7.5325785
alexnet_w1_mlp_simclrhn_probe1,1,492,NaN,clock,clock,true,0492_fc_dnn_true_clock_35_n03196217_1219.png,n03196217_1219.png,1.0,0.012517393,-1.2352917,0.88233435
alexnet_w1_mlp_simclrhn_probe1,1,493,NaN,airplane,airplane,true,0493_fc_dnn_true_airplane_35_n02690373_18864.png,n02690373_18864.png,1.0,4.205434,2.7322369,1.0417076
alexnet_w1_mlp_simclrhn_probe1,1,494,NaN,knife,airplane,false,0494_fc_dnn_false_airplane_35_n02690373_1019.png,n02690373_1019.png,0.0,-3.2451346,-0.9773396,-1.6035733
alexnet_w1_mlp_simclrhn_probe1,1,495,NaN,bird,bird,true,0495_fc_dnn_true_bird_35_n02013706_10478.png,n02013706_10478.png,1.0,-0.3384297,-5.9343567,3.9569182
alexnet_w1_mlp_simclrhn_probe1,1,496,NaN,cat,bear,true,0496_fc_dnn_true_bear_35_n02132136_258.png,n02132136_258.png,0.0,0.93694204,1.4558369,-0.36691406
alexnet_w1_mlp_simclrhn_probe1,1,497,NaN,bird,chair,false,0497_fc_dnn_false_chair_35_n04099969_16350.png,n04099969_16350.png,0.0,-7.5729294,-2.812716,-3.3659792
alexnet_w1_mlp_simclrhn_probe1,1,498,NaN,chair,chair,true,0498_fc_dnn_true_chair_35_n04099969_16456.png,n04099969_16456.png,1.0,2.20539,0.027892627,1.5397232
alexnet_w1_mlp_simclrhn_probe1,1,499,NaN,bottle,bottle,false,0499_fc_dnn_false_bottle_35_n03983396_12027.png,n03983396_12027.png,1.0,2.5768352,-0.4538116,2.1429908
alexnet_w1_mlp_simclrhn_probe1,1,500,NaN,chair,chair,true,0500_fc_dnn_true_chair_35_n02791124_5438.png,n02791124_5438.png,1.0,4.333967,1.1571926,2.2463188
alexnet_w1_mlp_simclrhn_probe1,1,501,NaN,elephant,elephant,true,0501_fc_dnn_true_elephant_35_n02504458_4939.png,n02504458_4939.png,1.0,10.507032,2.451693,5.6959853
alexnet_w1_mlp_simclrhn_probe1,1,502,NaN,keyboard,keyboard,false,0502_fc_dnn_false_keyboard_35_n04505470_2600.png,n04505470_2600.png,1.0,5.454083,-0.85677654,4.462452
alexnet_w1_mlp_simclrhn_probe1,1,503,NaN,chair,chair,true,0503_fc_dnn_true_chair_35_n03376595_7394.png,n03376595_7394.png,1.0,0.8283987,-0.6650877,1.0560544
alexnet_w1_mlp_simclrhn_probe1,1,504,NaN,bicycle,bicycle,false,0504_fc_dnn_false_bicycle_35_n02835271_9772.png,n02835271_9772.png,1.0,-1.0317463,-1.6756692,0.45532227
alexnet_w1_mlp_simclrhn_probe1,1,505,NaN,car,car,true,0505_fc_dnn_true_car_35_n02814533_55937.png,n02814533_55937.png,1.0,6.2215385,1.6343442,3.2436364
alexnet_w1_mlp_simclrhn_probe1,1,506,NaN,boat,airplane,true,0506_fc_dnn_true_airplane_35_n02690373_3920.png,n02690373_3920.png,0.0,3.29453,3.471559,-0.1251785
alexnet_w1_mlp_simclrhn_probe1,1,507,NaN,oven,oven,false,0507_fc_dnn_false_oven_35_n04111531_6400.png,n04111531_6400.png,1.0,1.8793261,-3.4082804,3.7389023
alexnet_w1_mlp_simclrhn_probe1,1,508,NaN,bicycle,truck,false,0508_fc_dnn_false_truck_35_n03417042_4587.png,n03417042_4587.png,0.0,-2.0189462,3.7347124,-4.068451
alexnet_w1_mlp_simclrhn_probe1,1,509,NaN,bicycle,knife,true,0509_fc_dnn_true_knife_35_n03041632_31849.png,n03041632_31849.png,0.0,-3.770689,0.78544414,-3.2216728
alexnet_w1_mlp_simclrhn_probe1,1,510,NaN,dog,cat,true,0510_fc_dnn_true_cat_35_n02125311_8541.png,n02125311_8541.png,0.0,0.07792556,0.48543262,-0.28815103
alexnet_w1_mlp_simclrhn_probe1,1,511,NaN,airplane,airplane,true,0511_fc_dnn_true_airplane_35_n02690373_2162.png,n02690373_2162.png,1.0,9.658516,4.6566105,3.5368812
alexnet_w1_mlp_simclrhn_probe1,1,512,NaN,bear,dog,true,0512_fc_dnn_true_dog_35_n02108551_11297.png,n02108551_11297.png,0.0,2.1194057,2.701242,-0.41142035
alexnet_w1_mlp_simclrhn_probe1,1,513,NaN,car,car,true,0513_fc_dnn_true_car_35_n02814533_34396.png,n02814533_34396.png,1.0,18.483152,13.351053,3.6289423
alexnet_w1_mlp_simclrhn_probe1,1,514,NaN,elephant,elephant,true,0514_fc_dnn_true_elephant_35_n02504013_6431.png,n02504013_6431.png,1.0,2.9726343,-0.08468871,2.1618538
alexnet_w1_mlp_simclrhn_probe1,1,515,NaN,bicycle,bicycle,false,0515_fc_dnn_false_bicycle_35_n03792782_51723.png,n03792782_51723.png,1.0,1.8825538,-1.6940069,2.5290103
alexnet_w1_mlp_simclrhn_probe1,1,516,NaN,dog,dog,false,0516_fc_dnn_false_dog_35_n02093754_5867.png,n02093754_5867.png,1.0,2.1673436,1.3210425,0.59842527
alexnet_w1_mlp_simclrhn_probe1,1,517,NaN,clock,clock,true,0517_fc_dnn_true_clock_35_n04548280_3245.png,n04548280_3245.png,1.0,-1.7774199,-2.8063323,0.727551
alexnet_w1_mlp_simclrhn_probe1,1,518,NaN,airplane,airplane,true,0518_fc_dnn_true_airplane_35_n02690373_9762.png,n02690373_9762.png,1.0,7.5017757,2.2287009,3.7286272
alexnet_w1_mlp_simclrhn_probe1,1,519,NaN,airplane,bird,true,0519_fc_dnn_true_bird_35_n02002724_2909.png,n02002724_2909.png,0.0,0.9592665,3.9513423,-2.1157172
alexnet_w1_mlp_simclrhn_probe1,1,520,NaN,dog,bottle,true,0520_fc_dnn_true_bottle_35_n04557648_10123.png,n04557648_10123.png,0.0,-5.018658,-2.207813,-1.9875677
alexnet_w1_mlp_simclrhn_probe1,1,521,NaN,elephant,elephant,true,0521_fc_dnn_true_elephant_35_n02504013_5432.png,n02504013_5432.png,1.0,3.6046515,-0.19505018,2.686795
alexnet_w1_mlp_simclrhn_probe1,1,522,NaN,cat,cat,false,0522_fc_dnn_false_cat_35_n02123597_4998.png,n02123597_4998.png,1.0,0.4239142,-0.7216381,0.8100278
alexnet_w1_mlp_simclrhn_probe1,1,523,NaN,bottle,bottle,true,0523_fc_dnn_true_bottle_35_n04557648_11594.png,n04557648_11594.png,1.0,1.1709356,-0.08131203,0.88547283
alexnet_w1_mlp_simclrhn_probe1,1,524,NaN,truck,clock,false,0524_fc_dnn_false_clock_35_n03196217_2567.png,n03196217_2567.png,0.0,-1.5543594,0.17900833,-1.2256762
alexnet_w1_mlp_simclrhn_probe1,1,525,NaN,knife,truck,false,0525_fc_dnn_false_truck_35_n03796401_9136.png,n03796401_9136.png,0.0,-3.6654758,-0.49854317,-2.2393596
alexnet_w1_mlp_simclrhn_probe1,1,526,NaN,boat,boat,false,0526_fc_dnn_false_boat_35_n03344393_8492.png,n03344393_8492.png,1.0,8.675651,0.15833336,6.0226526
alexnet_w1_mlp_simclrhn_probe1,1,527,NaN,cat,cat,false,0527_fc_dnn_false_cat_35_n02123159_8267.png,n02123159_8267.png,1.0,1.0319699,-3.270553,3.0423434
alexnet_w1_mlp_simclrhn_probe1,1,528,NaN,knife,bottle,false,0528_fc_dnn_false_bottle_35_n04557648_12039.png,n04557648_12039.png,0.0,-3.4377036,-0.5285813,-2.05706
alexnet_w1_mlp_simclrhn_probe1,1,529,NaN,keyboard,keyboard,false,0529_fc_dnn_false_keyboard_35_n04505470_2828.png,n04505470_2828.png,1.0,9.318171,-1.0159382,7.307318
alexnet_w1_mlp_simclrhn_probe1,1,530,NaN,bicycle,boat,true,0530_fc_dnn_true_boat_35_n02951358_31198.png,n02951358_31198.png,0.0,-0.50174004,-0.34041676,-0.114072785
alexnet_w1_mlp_simclrhn_probe1,1,531,NaN,oven,oven,false,0531_fc_dnn_false_oven_35_n04111531_5801.png,n04111531_5801.png,1.0,0.39285532,-2.4610953,2.018048
alexnet_w1_mlp_simclrhn_probe1,1,532,NaN,bicycle,bicycle,false,0532_fc_dnn_false_bicycle_35_n02835271_9672.png,n02835271_9672.png,1.0,6.847542,-4.279331,7.8678875
alexnet_w1_mlp_simclrhn_probe1,1,533,NaN,keyboard,keyboard,false,0533_fc_dnn_false_keyboard_35_n03085013_23865.png,n03085013_23865.png,1.0,1.5154922,0.2512809,0.8939324
alexnet_w1_mlp_simclrhn_probe1,1,534,NaN,keyboard,bottle,true,0534_fc_dnn_true_bottle_35_n04591713_7133.png,n04591713_7133.png,0.0,-1.7128773,3.216839,-3.4858358
alexnet_w1_mlp_simclrhn_probe1,1,535,NaN,car,car,true,0535_fc_dnn_true_car_35_n04285008_10006.png,n04285008_10006.png,1.0,12.56051,6.4173946,4.343838
alexnet_w1_mlp_simclrhn_probe1,1,536,NaN,airplane,airplane,true,0536_fc_dnn_true_airplane_35_n02690373_2431.png,n02690373_2431.png,1.0,2.0263488,0.24321084,1.260869
alexnet_w1_mlp_simclrhn_probe1,1,537,NaN,boat,boat,true,0537_fc_dnn_true_boat_35_n04612504_15440.png,n04612504_15440.png,1.0,-0.15779798,-2.2605,1.4868348
alexnet_w1_mlp_simclrhn_probe1,1,538,NaN,bicycle,bicycle,true,0538_fc_dnn_true_bicycle_35_n02835271_5648.png,n02835271_5648.png,1.0,3.3884504,-1.6440046,3.5584831
alexnet_w1_mlp_simclrhn_probe1,1,539,NaN,airplane,airplane,false,0539_fc_dnn_false_airplane_35_n02690373_3173.png,n02690373_3173.png,1.0,9.985807,1.5519804,5.963617
alexnet_w1_mlp_simclrhn_probe1,1,540,NaN,oven,oven,false,0540_fc_dnn_false_oven_35_n04111531_82.png,n04111531_82.png,1.0,5.886141,-1.4855548,5.212576
alexnet_w1_mlp_simclrhn_probe1,1,541,NaN,oven,chair,false,0541_fc_dnn_false_chair_35_n02791124_2057.png,n02791124_2057.png,0.0,-1.323165,-1.2542841,-0.048706163
alexnet_w1_mlp_simclrhn_probe1,1,542,NaN,elephant,elephant,true,0542_fc_dnn_true_elephant_35_n02504458_12175.png,n02504458_12175.png,1.0,-0.5418079,-2.123731,1.1185884
alexnet_w1_mlp_simclrhn_probe1,1,543,NaN,boat,boat,false,0543_fc_dnn_false_boat_35_n03344393_6869.png,n03344393_6869.png,1.0,0.72309345,-0.43116605,0.8161847
alexnet_w1_mlp_simclrhn_probe1,1,544,NaN,truck,truck,false,0544_fc_dnn_false_truck_35_n03417042_1000.png,n03417042_1000.png,1.0,1.7761579,0.3737789,0.9916317
alexnet_w1_mlp_simclrhn_probe1,1,545,NaN,airplane,boat,true,0545_fc_dnn_true_boat_35_n03344393_6890.png,n03344393_6890.png,0.0,1.3940752,1.7267106,-0.23520875
alexnet_w1_mlp_simclrhn_probe1,1,546,NaN,elephant,elephant,false,0546_fc_dnn_false_elephant_35_n02504458_4139.png,n02504458_4139.png,1.0,4.491432,-0.21634611,3.3289022
alexnet_w1_mlp_simclrhn_probe1,1,547,NaN,bear,bear,false,0547_fc_dnn_false_bear_35_n02132136_7231.png,n02132136_7231.png,1.0,6.7962236,4.08731,1.9154913
alexnet_w1_mlp_simclrhn_probe1,1,548,NaN,elephant,bird,false,0548_fc_dnn_false_bird_35_n01860187_1815.png,n01860187_1815.png,0.0,-3.761838,2.0889802,-4.137153
alexnet_w1_mlp_simclrhn_probe1,1,549,NaN,knife,keyboard,true,0549_fc_dnn_true_keyboard_35_n03085013_18891.png,n03085013_18891.png,0.0,-2.6150932,-1.4386275,-0.83188695
alexnet_w1_mlp_simclrhn_probe1,1,550,NaN,bird,bird,false,0550_fc_dnn_false_bird_35_n01828970_2276.png,n01828970_2276.png,1.0,1.6752218,-4.35752,4.265793
alexnet_w1_mlp_simclrhn_probe1,1,551,NaN,elephant,elephant,false,0551_fc_dnn_false_elephant_35_n02504013_1720.png,n02504013_1720.png,1.0,8.077969,1.6975981,4.5116034
alexnet_w1_mlp_simclrhn_probe1,1,552,NaN,knife,knife,false,0552_fc_dnn_false_knife_35_n03041632_16104.png,n03041632_16104.png,1.0,0.945453,-1.7105937,1.8781086
alexnet_w1_mlp_simclrhn_probe1,1,553,NaN,chair,chair,false,0553_fc_dnn_false_chair_35_n03376595_635.png,n03376595_635.png,1.0,-1.4475226,-1.9008211,0.3205304
alexnet_w1_mlp_simclrhn_probe1,1,554,NaN,bottle,bottle,true,0554_fc_dnn_true_bottle_35_n03983396_6116.png,n03983396_6116.png,1.0,2.1061065,-0.25394976,1.6688119
alexnet_w1_mlp_simclrhn_probe1,1,555,NaN,bear,dog,true,0555_fc_dnn_true_dog_35_n02113624_2530.png,n02113624_2530.png,0.0,-0.03970637,0.25254703,-0.20665437
alexnet_w1_mlp_simclrhn_probe1,1,556,NaN,knife,bird,true,0556_fc_dnn_true_bird_35_n01592084_3972.png,n01592084_3972.png,0.0,-2.7707262,-2.6367707,-0.094720826
alexnet_w1_mlp_simclrhn_probe1,1,557,NaN,airplane,airplane,true,0557_fc_dnn_true_airplane_35_n02690373_5130.png,n02690373_5130.png,1.0,3.0596173,0.67442334,1.6865867
alexnet_w1_mlp_simclrhn_probe1,1,558,NaN,airplane,bird,true,0558_fc_dnn_true_bird_35_n01833805_7514.png,n01833805_7514.png,0.0,-1.546553,0.12253007,-1.18022
alexnet_w1_mlp_simclrhn_probe1,1,559,NaN,truck,truck,false,0559_fc_dnn_false_truck_35_n03417042_16238.png,n03417042_16238.png,1.0,4.4936056,3.6465492,0.5989593
alexnet_w1_mlp_simclrhn_probe1,1,560,NaN,keyboard,keyboard,true,0560_fc_dnn_true_keyboard_35_n04505470_8620.png,n04505470_8620.png,1.0,6.214444,6.189851,0.017390126
alexnet_w1_mlp_simclrhn_probe1,1,561,NaN,keyboard,clock,true,0561_fc_dnn_true_clock_35_n03196217_7888.png,n03196217_7888.png,0.0,2.6455202,3.9313076,-0.909189
alexnet_w1_mlp_simclrhn_probe1,1,562,NaN,elephant,bottle,true,0562_fc_dnn_true_bottle_35_n04591713_5411.png,n04591713_5411.png,0.0,-4.008103,-0.85130227,-2.2321951
alexnet_w1_mlp_simclrhn_probe1,1,563,NaN,clock,clock,false,0563_fc_dnn_false_clock_35_n03196217_2639.png,n03196217_2639.png,1.0,1.4790834,0.5740325,0.6399677
alexnet_w1_mlp_simclrhn_probe1,1,564,NaN,elephant,elephant,true,0564_fc_dnn_true_elephant_35_n02504458_6437.png,n02504458_6437.png,1.0,1.2999651,0.043970227,0.88812256
alexnet_w1_mlp_simclrhn_probe1,1,565,NaN,truck,truck,true,0565_fc_dnn_true_truck_35_n03417042_27586.png,n03417042_27586.png,1.0,6.393939,1.7633063,3.274352
alexnet_w1_mlp_simclrhn_probe1,1,566,NaN,oven,keyboard,false,0566_fc_dnn_false_keyboard_35_n03085013_24124.png,n03085013_24124.png,0.0,-5.5138054,-0.42619616,-3.5974832
alexnet_w1_mlp_simclrhn_probe1,1,567,NaN,chair,cat,false,0567_fc_dnn_false_cat_35_n02123597_9663.png,n02123597_9663.png,0.0,-6.1661677,-0.37778348,-4.093006
alexnet_w1_mlp_simclrhn_probe1,1,568,NaN,car,keyboard,true,0568_fc_dnn_true_keyboard_35_n04505470_1833.png,n04505470_1833.png,0.0,-0.01703471,0.24567418,-0.18576325
alexnet_w1_mlp_simclrhn_probe1,1,569,NaN,car,car,true,0569_fc_dnn_true_car_35_n04285008_4109.png,n04285008_4109.png,1.0,12.654019,7.4739285,3.6628776
alexnet_w1_mlp_simclrhn_probe1,1,570,NaN,bicycle,bird,false,0570_fc_dnn_false_bird_35_n01558993_869.png,n01558993_869.png,0.0,-4.5113206,-1.9743328,-1.7939214
alexnet_w1_mlp_simclrhn_probe1,1,571,NaN,truck,truck,true,0571_fc_dnn_true_truck_35_n03796401_6980.png,n03796401_6980.png,1.0,3.0598316,3.0347328,0.017747533
alexnet_w1_mlp_simclrhn_probe1,1,572,NaN,truck,truck,true,0572_fc_dnn_true_truck_35_n03796401_19058.png,n03796401_19058.png,1.0,6.316504,0.37546626,4.200948
alexnet_w1_mlp_simclrhn_probe1,1,573,NaN,elephant,bear,false,0573_fc_dnn_false_bear_35_n02134418_5033.png,n02134418_5033.png,0.0,-1.4579848,-0.39531502,-0.751421
alexnet_w1_mlp_simclrhn_probe1,1,574,NaN,truck,truck,false,0574_fc_dnn_false_truck_35_n03417042_6204.png,n03417042_6204.png,1.0,5.0142655,2.6638842,1.6619706
alexnet_w1_mlp_simclrhn_probe1,1,575,NaN,bicycle,bicycle,true,0575_fc_dnn_true_bicycle_35_n03792782_7388.png,n03792782_7388.png,1.0,0.25213516,-1.6937847,1.3759731
alexnet_w1_mlp_simclrhn_probe1,1,576,NaN,truck,truck,true,0576_fc_dnn_true_truck_35_n03417042_1561.png,n03417042_1561.png,1.0,9.375183,5.5357194,2.714911
alexnet_w1_mlp_simclrhn_probe1,1,577,NaN,elephant,elephant,true,0577_fc_dnn_true_elephant_35_n02504458_5501.png,n02504458_5501.png,1.0,15.4243,5.1716146,7.2497435
alexnet_w1_mlp_simclrhn_probe1,1,578,NaN,bicycle,boat,true,0578_fc_dnn_true_boat_35_n03662601_34124.png,n03662601_34124.png,0.0,0.07443638,0.47230893,-0.2813384
alexnet_w1_mlp_simclrhn_probe1,1,579,NaN,knife,knife,false,0579_fc_dnn_false_knife_35_n03041632_37949.png,n03041632_37949.png,1.0,-2.1569853,-4.587364,1.7185374
alexnet_w1_mlp_simclrhn_probe1,1,580,NaN,airplane,airplane,false,0580_fc_dnn_false_airplane_35_n02690373_13585.png,n02690373_13585.png,1.0,7.565068,-2.755889,7.298019
alexnet_w1_mlp_simclrhn_probe1,1,581,NaN,elephant,knife,false,0581_fc_dnn_false_knife_35_n03041632_16932.png,n03041632_16932.png,0.0,-2.5058746,0.29938966,-1.9836214
alexnet_w1_mlp_simclrhn_probe1,1,582,NaN,elephant,chair,false,0582_fc_dnn_false_chair_35_n04429376_9501.png,n04429376_9501.png,0.0,-4.3023353,-2.1109648,-1.549533
alexnet_w1_mlp_simclrhn_probe1,1,583,NaN,bird,bird,false,0583_fc_dnn_false_bird_35_n01532829_10530.png,n01532829_10530.png,1.0,0.5364547,-6.5916657,5.0403423
alexnet_w1_mlp_simclrhn_probe1,1,584,NaN,oven,oven,false,0584_fc_dnn_false_oven_35_n04111531_1562.png,n04111531_1562.png,1.0,0.29668832,-3.9413505,2.996746
alexnet_w1_mlp_simclrhn_probe1,1,585,NaN,keyboard,clock,false,0585_fc_dnn_false_clock_35_n02708093_260.png,n02708093_260.png,0.0,-1.2093277,2.4248414,-2.5697455
alexnet_w1_mlp_simclrhn_probe1,1,586,NaN,bottle,bottle,true,0586_fc_dnn_true_bottle_35_n04579145_1457.png,n04579145_1457.png,1.0,1.4376031,-0.9446215,1.6844872
alexnet_w1_mlp_simclrhn_probe1,1,587,NaN,bicycle,chair,true,0587_fc_dnn_true_chair_35_n03376595_9897.png,n03376595_9897.png,0.0,-1.6336756,0.1709435,-1.2760584
alexnet_w1_mlp_simclrhn_probe1,1,588,NaN,elephant,bird,true,0588_fc_dnn_true_bird_35_n01601694_4224.png,n01601694_4224.png,0.0,-0.9948538,-0.86444396,-0.09221368
alexnet_w1_mlp_simclrhn_probe1,1,589,NaN,cat,cat,false,0589_fc_dnn_false_cat_35_n02123159_358.png,n02123159_358.png,1.0,3.523495,-4.696394,5.8123393
alexnet_w1_mlp_simclrhn_probe1,1,590,NaN,bottle,bottle,true,0590_fc_dnn_true_bottle_35_n03983396_11788.png,n03983396_11788.png,1.0,4.8952,0.12004745,3.3765426
alexnet_w1_mlp_simclrhn_probe1,1,591,NaN,cat,cat,true,0591_fc_dnn_true_cat_35_n02124075_8341.png,n02124075_8341.png,1.0,-1.1740994,-5.7772756,3.2549372
alexnet_w1_mlp_simclrhn_probe1,1,592,NaN,dog,dog,false,0592_fc_dnn_false_dog_35_n02109525_49924.png,n02109525_49924.png,1.0,3.9359374,1.9227028,1.4235718
alexnet_w1_mlp_simclrhn_probe1,1,593,NaN,elephant,oven,false,0593_fc_dnn_false_oven_35_n04111531_797.png,n04111531_797.png,0.0,-1.1653515,-0.86717963,-0.21083936
alexnet_w1_mlp_simclrhn_probe1,1,594,NaN,bicycle,bicycle,true,0594_fc_dnn_true_bicycle_35_n02835271_15930.png,n02835271_15930.png,1.0,5.589176,-2.412503,5.658042
alexnet_w1_mlp_simclrhn_probe1,1,595,NaN,knife,knife,true,0595_fc_dnn_true_knife_35_n03041632_13656.png,n03041632_13656.png,1.0,0.88863707,-2.180286,2.1700563
alexnet_w1_mlp_simclrhn_probe1,1,596,NaN,knife,clock,false,0596_fc_dnn_false_clock_35_n02708093_8104.png,n02708093_8104.png,0.0,-3.0491903,-1.9265072,-0.7938568
alexnet_w1_mlp_simclrhn_probe1,1,597,NaN,airplane,truck,true,0597_fc_dnn_true_truck_35_n03796401_3148.png,n03796401_3148.png,0.0,-4.80463,0.2543198,-3.5772176
alexnet_w1_mlp_simclrhn_probe1,1,598,NaN,bicycle,bottle,false,0598_fc_dnn_false_bottle_35_n04560804_15263.png,n04560804_15263.png,0.0,-10.266303,-1.932797,-5.8926783
alexnet_w1_mlp_simclrhn_probe1,1,599,NaN,airplane,airplane,true,0599_fc_dnn_true_airplane_35_n02690373_5003.png,n02690373_5003.png,1.0,2.2823355,-1.3556466,2.5724418
alexnet_w1_mlp_simclrhn_probe1,1,600,NaN,boat,boat,false,0600_fc_dnn_false_boat_35_n03344393_994.png,n03344393_994.png,1.0,0.20500275,-0.12505135,0.2333835
alexnet_w1_mlp_simclrhn_probe1,1,601,NaN,bicycle,bicycle,true,0601_fc_dnn_true_bicycle_35_n03792782_5959.png,n03792782_5959.png,1.0,6.7953663,-2.3374543,6.457879
alexnet_w1_mlp_simclrhn_probe1,1,602,NaN,car,car,false,0602_fc_dnn_false_car_35_n04285008_9383.png,n04285008_9383.png,1.0,6.7683635,1.059711,4.036627
alexnet_w1_mlp_simclrhn_probe1,1,603,NaN,chair,clock,true,0603_fc_dnn_true_clock_35_n03196217_5627.png,n03196217_5627.png,0.0,0.13328642,0.42338467,-0.20513044
alexnet_w1_mlp_simclrhn_probe1,1,604,NaN,bird,bird,true,0604_fc_dnn_true_bird_35_n01534433_13846.png,n01534433_13846.png,1.0,-3.2759993,-4.6611958,0.9794818
alexnet_w1_mlp_simclrhn_probe1,1,605,NaN,dog,dog,true,0605_fc_dnn_true_dog_35_n02105056_11269.png,n02105056_11269.png,1.0,-0.07584928,-1.9780656,1.3450701
alexnet_w1_mlp_simclrhn_probe1,1,606,NaN,airplane,airplane,false,0606_fc_dnn_false_airplane_35_n02690373_9659.png,n02690373_9659.png,1.0,1.7949157,0.7860998,0.7133406
alexnet_w1_mlp_simclrhn_probe1,1,607,NaN,chair,car,false,0607_fc_dnn_false_car_35_n04285008_3269.png,n04285008_3269.png,0.0,-8.869996,2.785887,-8.241954
alexnet_w1_mlp_simclrhn_probe1,1,608,NaN,bottle,bottle,true,0608_fc_dnn_true_bottle_35_n02823428_3178.png,n02823428_3178.png,1.0,1.3006146,-3.0285463,3.061179
alexnet_w1_mlp_simclrhn_probe1,1,609,NaN,elephant,elephant,false,0609_fc_dnn_false_elephant_35_n02504458_4849.png,n02504458_4849.png,1.0,2.488715,-1.051162,2.503071
alexnet_w1_mlp_simclrhn_probe1,1,610,NaN,bear,bear,true,0610_fc_dnn_true_bear_35_n02134418_643.png,n02134418_643.png,1.0,0.7658186,-0.19906884,0.68227845
alexnet_w1_mlp_simclrhn_probe1,1,611,NaN,boat,boat,true,0611_fc_dnn_true_boat_35_n03344393_7773.png,n03344393_7773.png,1.0,2.2161644,-1.9335744,2.9343085
alexnet_w1_mlp_simclrhn_probe1,1,612,NaN,car,car,true,0612_fc_dnn_true_car_35_n02814533_26516.png,n02814533_26516.png,1.0,15.492444,10.60965,3.452657
alexnet_w1_mlp_simclrhn_probe1,1,613,NaN,bicycle,cat,false,0613_fc_dnn_false_cat_35_n02123597_3314.png,n02123597_3314.png,0.0,-3.3399563,-0.4697918,-2.0295126
alexnet_w1_mlp_simclrhn_probe1,1,614,NaN,bicycle,bicycle,true,0614_fc_dnn_true_bicycle_35_n02835271_6539.png,n02835271_6539.png,1.0,5.89972,-2.756639,6.1209702
alexnet_w1_mlp_simclrhn_probe1,1,615,NaN,bear,bear,true,0615_fc_dnn_true_bear_35_n02132136_3090.png,n02132136_3090.png,1.0,8.5239935,1.5633664,4.9219065
alexnet_w1_mlp_simclrhn_probe1,1,616,NaN,car,car,true,0616_fc_dnn_true_car_35_n03100240_9171.png,n03100240_9171.png,1.0,10.004059,6.0580397,2.790257
alexnet_w1_mlp_simclrhn_probe1,1,617,NaN,cat,cat,false,0617_fc_dnn_false_cat_35_n02123045_12060.png,n02123045_12060.png,1.0,1.6142865,-1.6890434,2.335807
alexnet_w1_mlp_simclrhn_probe1,1,618,NaN,truck,truck,false,0618_fc_dnn_false_truck_35_n03796401_26801.png,n03796401_26801.png,1.0,-0.008571878,-1.7082853,1.2018789
alexnet_w1_mlp_simclrhn_probe1,1,619,NaN,cat,cat,false,0619_fc_dnn_false_cat_35_n02123045_15010.png,n02123045_15010.png,1.0,0.7273121,-3.8271523,3.2204926
alexnet_w1_mlp_simclrhn_probe1,1,620,NaN,chair,knife,true,0620_fc_dnn_true_knife_35_n03041632_24883.png,n03041632_24883.png,0.0,-3.502903,0.15553528,-2.5869064
alexnet_w1_mlp_simclrhn_probe1,1,621,NaN,cat,cat,true,0621_fc_dnn_true_cat_35_n02123597_4040.png,n02123597_4040.png,1.0,-1.6775979,-1.9776812,0.21219093
alexnet_w1_mlp_simclrhn_probe1,1,622,NaN,bird,bird,true,0622_fc_dnn_true_bird_35_n01843383_3019.png,n01843383_3019.png,1.0,-1.8142715,-3.3890905,1.1135653
alexnet_w1_mlp_simclrhn_probe1,1,623,NaN,bear,bear,true,0623_fc_dnn_true_bear_35_n02132136_8619.png,n02132136_8619.png,1.0,4.562985,2.875331,1.1933516
alexnet_w1_mlp_simclrhn_probe1,1,624,NaN,knife,airplane,false,0624_fc_dnn_false_airplane_35_n02690373_1912.png,n02690373_1912.png,0.0,0.5260465,0.55842984,-0.022898467
