subj,session,trial,rt,object_response,category,condition,imagename,filename,is_correct,targ_act,max_nontarg_act,decision_margin
alexnet_w1_mlp_simclrhn_probe2,1,1,NaN,knife,knife,true,0001_fc_dnn_true_knife_35_n03041632_86251.png,n03041632_86251.png,1.0,3.393967,-1.1467084,3.2107422
alexnet_w1_mlp_simclrhn_probe2,1,2,NaN,car,car,false,0002_fc_dnn_false_car_35_n03100240_16866.png,n03100240_16866.png,1.0,9.687596,6.3892236,2.3323019
alexnet_w1_mlp_simclrhn_probe2,1,3,NaN,knife,keyboard,false,0003_fc_dnn_false_keyboard_35_n03085013_21127.png,n03085013_21127.png,0.0,2.0343418,2.7854648,-0.5311241
alexnet_w1_mlp_simclrhn_probe2,1,4,NaN,truck,truck,true,0004_fc_dnn_true_truck_35_n03417042_10694.png,n03417042_10694.png,1.0,7.1826496,3.1073916,2.8816428
alexnet_w1_mlp_simclrhn_probe2,1,5,NaN,bird,bird,true,0005_fc_dnn_true_bird_35_n01614925_1962.png,n01614925_1962.png,1.0,1.6160315,-3.0297863,3.2850893
alexnet_w1_mlp_simclrhn_probe2,1,6,NaN,knife,knife,false,0006_fc_dnn_false_knife_35_n03041632_99875.png,n03041632_99875.png,1.0,1.0610085,-2.0067725,2.1692488
alexnet_w1_mlp_simclrhn_probe2,1,7,NaN,bicycle,bicycle,true,0007_fc_dnn_true_bicycle_35_n03792782_14935.png,n03792782_14935.png,1.0,1.2310574,-1.9697763,2.2633314
alexnet_w1_mlp_simclrhn_probe2,1,8,NaN,elephant,elephant,false,0008_fc_dnn_false_elephant_35_n02504013_5027.png,n02504013_5027.png,1.0,2.0059595,-0.937256,2.0811677
alexnet_w1_mlp_simclrhn_probe2,1,9,NaN,cat,dog,false,0009_fc_dnn_false_dog_35_n02090721_129.png,n02090721_129.png,0.0,-0.07894864,0.837893,-0.64830494
alexnet_w1_mlp_simclrhn_probe2,1,10,NaN,airplane,airplane,true,0010_fc_dnn_true_airplane_35_n02690373_9241.png,n02690373_9241.png,1.0,8.692446,2.9576774,4.055094
alexnet_w1_mlp_simclrhn_probe2,1,11,NaN,truck,truck,true,0011_fc_dnn_true_truck_35_n04467665_62080.png,n04467665_62080.png,1.0,5.139786,3.3013659,1.2999592
alexnet_w1_mlp_simclrhn_probe2,1,12,NaN,keyboard,keyboard,true,0012_fc_dnn_true_keyboard_35_n04505470_2669.png,n04505470_2669.png,1.0,1.8422402,1.1878126,0.46275023
alexnet_w1_mlp_simclrhn_probe2,1,13,NaN,oven,oven,false,0013_fc_dnn_false_oven_35_n04111531_688.png,n04111531_688.png,1.0,2.1794477,-1.214937,2.4001925
alexnet_w1_mlp_simclrhn_probe2,1,14,NaN,car,car,true,0014_fc_dnn_true_car_35_n03100240_21982.png,n03100240_21982.png,1.0,12.157124,7.564465,3.2475
alexnet_w1_mlp_simclrhn_probe2,1,15,NaN,bicycle,bicycle,true,0015_fc_dnn_true_bicycle_35_n02835271_4191.png,n02835271_4191.png,1.0,5.906583,-2.6438248,6.046051
alexnet_w1_mlp_simclrhn_probe2,1,16,NaN,car,car,true,0016_fc_dnn_true_car_35_n02814533_25278.png,n02814533_25278.png,1.0,3.8270595,2.5230365,0.92208356
alexnet_w1_mlp_simclrhn_probe2,1,17,NaN,bottle,knife,false,0017_fc_dnn_false_knife_35_n03041632_23087.png,n03041632_23087.png,0.0,-2.5949764,-0.16433252,-1.7187247
alexnet_w1_mlp_simclrhn_probe2,1,18,NaN,keyboard,clock,true,0018_fc_dnn_true_clock_35_n03196217_11252.png,n03196217_11252.png,0.0,1.3375689,4.136549,-1.979178
alexnet_w1_mlp_simclrhn_probe2,1,19,NaN,boat,boat,false,0019_fc_dnn_false_boat_35_n04273569_2040.png,n04273569_2040.png,1.0,7.0383463,3.642951,2.400907
alexnet_w1_mlp_simclrhn_probe2,1,20,NaN,knife,knife,true,0020_fc_dnn_true_knife_35_n03041632_84869.png,n03041632_84869.png,1.0,1.4101838,-1.373699,1.9685023
alexnet_w1_mlp_simclrhn_probe2,1,21,NaN,clock,clock,true,0021_fc_dnn_true_clock_35_n04548280_503.png,n04548280_503.png,1.0,5.190043,-2.0967288,5.152526
alexnet_w1_mlp_simclrhn_probe2,1,22,NaN,truck,truck,false,0022_fc_dnn_false_truck_35_n03417042_10654.png,n03417042_10654.png,1.0,3.5561004,2.105432,1.0257775
alexnet_w1_mlp_simclrhn_probe2,1,23,NaN,boat,boat,true,0023_fc_dnn_true_boat_35_n03344393_2919.png,n03344393_2919.png,1.0,2.94835,2.2407897,0.5003207
alexnet_w1_mlp_simclrhn_probe2,1,24,NaN,chair,chair,false,0024_fc_dnn_false_chair_35_n04099969_7718.png,n04099969_7718.png,1.0,1.6723348,-0.3564375,1.4345587
alexnet_w1_mlp_simclrhn_probe2,1,25,NaN,oven,oven,true,0025_fc_dnn_true_oven_35_n04111531_3477.png,n04111531_3477.png,1.0,4.0187054,-0.027904317,2.8613853
alexnet_w1_mlp_simclrhn_probe2,1,26,NaN,dog,dog,false,0026_fc_dnn_false_dog_35_n02113712_913.png,n02113712_913.png,1.0,0.709873,-1.4621524,1.535854
alexnet_w1_mlp_simclrhn_probe2,1,27,NaN,chair,chair,false,0027_fc_dnn_false_chair_35_n02791124_13701.png,n02791124_13701.png,1.0,2.5677528,2.0076678,0.39603996
alexnet_w1_mlp_simclrhn_probe2,1,28,NaN,airplane,airplane,true,0028_fc_dnn_true_airplane_35_n02690373_8538.png,n02690373_8538.png,1.0,4.9230003,1.5472106,2.3870437
alexnet_w1_mlp_simclrhn_probe2,1,29,NaN,knife,knife,true,0029_fc_dnn_true_knife_35_n03041632_98864.png,n03041632_98864.png,1.0,-1.1608284,-1.5508761,0.27580544
alexnet_w1_mlp_simclrhn_probe2,1,30,NaN,clock,clock,false,0030_fc_dnn_false_clock_35_n04548280_5466.png,n04548280_5466.png,1.0,-0.15517427,-0.5786849,0.29946727
alexnet_w1_mlp_simclrhn_probe2,1,31,NaN,keyboard,keyboard,true,0031_fc_dnn_true_keyboard_35_n04505470_4033.png,n04505470_4033.png,1.0,11.41024,1.9975021,6.655811
alexnet_w1_mlp_simclrhn_probe2,1,32,NaN,boat,boat,false,0032_fc_dnn_false_boat_35_n03344393_7503.png,n03344393_7503.png,1.0,1.0949805,0.26746327,0.585143
alexnet_w1_mlp_simclrhn_probe2,1,33,NaN,bottle,bottle,false,0033_fc_dnn_false_bottle_35_n02823428_3402.png,n02823428_3402.png,1.0,3.4158378,-0.010578851,2.4228425
alexnet_w1_mlp_simclrhn_probe2,1,34,NaN,oven,boat,true,0034_fc_dnn_true_boat_35_n03662601_15766.png,n03662601_15766.png,0.0,-2.2777848,1.2383248,-2.486265
alexnet_w1_mlp_simclrhn_probe2,1,35,NaN,dog,dog,true,0035_fc_dnn_true_dog_35_n02097047_1351.png,n02097047_1351.png,1.0,2.6779068,-0.9323322,2.5528245
alexnet_w1_mlp_simclrhn_probe2,1,36,NaN,knife,keyboard,true,0036_fc_dnn_true_keyboard_35_n03085013_23562.png,n03085013_23562.png,0.0,-3.282612,0.8333675,-2.910437
alexnet_w1_mlp_simclrhn_probe2,1,37,NaN,oven,clock,false,0037_fc_dnn_false_clock_35_n04548280_7872.png,n04548280_7872.png,0.0,-1.2932223,1.388565,-1.89631
alexnet_w1_mlp_simclrhn_probe2,1,38,NaN,dog,dog,false,0038_fc_dnn_false_dog_35_n02106166_16884.png,n02106166_16884.png,1.0,0.8381814,-3.2340684,2.8795156
alexnet_w1_mlp_simclrhn_probe2,1,39,NaN,oven,oven,true,0039_fc_dnn_true_oven_35_n04111531_3353.png,n04111531_3353.png,1.0,0.7506951,0.36789143,0.27068308
alexnet_w1_mlp_simclrhn_probe2,1,40,NaN,bottle,knife,false,0040_fc_dnn_false_knife_35_n03041632_46185.png,n03041632_46185.png,0.0,-0.12277451,0.9746009,-0.7759616
alexnet_w1_mlp_simclrhn_probe2,1,41,NaN,knife,knife,true,0041_fc_dnn_true_knife_35_n03041632_14766.png,n03041632_14766.png,1.0,1.9674678,0.024944762,1.3735712
alexnet_w1_mlp_simclrhn_probe2,1,42,NaN,knife,chair,true,0042_fc_dnn_true_chair_35_n02791124_2150.png,n02791124_2150.png,0.0,-1.319498,-0.028940096,-0.91256225
alexnet_w1_mlp_simclrhn_probe2,1,43,NaN,elephant,elephant,false,0043_fc_dnn_false_elephant_35_n02504458_4631.png,n02504458_4631.png,1.0,0.4102365,-0.47906882,0.62883383
alexnet_w1_mlp_simclrhn_probe2,1,44,NaN,chair,chair,false,0044_fc_dnn_false_chair_35_n03376595_3223.png,n03376595_3223.png,1.0,0.71480733,-0.13056636,0.5977695
alexnet_w1_mlp_simclrhn_probe2,1,45,NaN,car,car,false,0045_fc_dnn_false_car_35_n03100240_5399.png,n03100240_5399.png,1.0,11.965652,7.2230983,3.3534923
alexnet_w1_mlp_simclrhn_probe2,1,46,NaN,oven,bottle,true,0046_fc_dnn_true_bottle_35_n04557648_2512.png,n04557648_2512.png,0.0,-4.0115266,3.8557363,-5.562995
alexnet_w1_mlp_simclrhn_probe2,1,47,NaN,elephant,bicycle,true,0047_fc_dnn_true_bicycle_35_n03792782_8098.png,n03792782_8098.png,0.0,-0.17461574,0.587149,-0.538649
alexnet_w1_mlp_simclrhn_probe2,1,48,NaN,bear,bear,true,0048_fc_dnn_true_bear_35_n02134418_11557.png,n02134418_11557.png,1.0,5.4646034,0.3449613,3.6201339
alexnet_w1_mlp_simclrhn_probe2,1,49,NaN,knife,knife,true,0049_fc_dnn_true_knife_35_n03041632_45569.png,n03041632_45569.png,1.0,0.92410225,-0.7501521,1.1838766
alexnet_w1_mlp_simclrhn_probe2,1,50,NaN,clock,bicycle,false,0050_fc_dnn_false_bicycle_35_n03792782_4740.png,n03792782_4740.png,0.0,-3.0159059,-0.6214173,-1.6931591
alexnet_w1_mlp_simclrhn_probe2,1,51,NaN,boat,boat,false,0051_fc_dnn_false_boat_35_n03662601_25404.png,n03662601_25404.png,1.0,5.7164536,3.315057,1.6980438
alexnet_w1_mlp_simclrhn_probe2,1,52,NaN,bird,bird,false,0052_fc_dnn_false_bird_35_n01796340_4853.png,n01796340_4853.png,1.0,-0.7921086,-3.7490659,2.0908847
alexnet_w1_mlp_simclrhn_probe2,1,53,NaN,oven,clock,true,0053_fc_dnn_true_clock_35_n03196217_5888.png,n03196217_5888.png,0.0,1.0935335,1.9979192,-0.6394973
alexnet_w1_mlp_simclrhn_probe2,1,54,NaN,bicycle,bicycle,true,0054_fc_dnn_true_bicycle_35_n02835271_12871.png,n02835271_12871.png,1.0,9.002632,2.789169,4.393582
alexnet_w1_mlp_simclrhn_probe2,1,55,NaN,keyboard,keyboard,false,0055_fc_dnn_false_keyboard_35_n03085013_28584.png,n03085013_28584.png,1.0,4.5001755,0.795922,2.6193027
alexnet_w1_mlp_simclrhn_probe2,1,56,NaN,bear,cat,true,0056_fc_dnn_true_cat_35_n02123159_6184.png,n02123159_6184.png,0.0,-1.3864037,1.9896752,-2.3872483
alexnet_w1_mlp_simclrhn_probe2,1,57,NaN,bicycle,bicycle,true,0057_fc_dnn_true_bicycle_35_n02835271_7592.png,n02835271_7592.png,1.0,12.801895,1.3240849,8.116037
alexnet_w1_mlp_simclrhn_probe2,1,58,NaN,elephant,elephant,false,0058_fc_dnn_false_elephant_35_n02504458_3205.png,n02504458_3205.png,1.0,9.410059,3.0661085,4.4858503
alexnet_w1_mlp_simclrhn_probe2,1,59,NaN,cat,cat,false,0059_fc_dnn_false_cat_35_n02124075_7880.png,n02124075_7880.png,1.0,1.3979648,1.0214239,0.26625463
alexnet_w1_mlp_simclrhn_probe2,1,60,NaN,truck,truck,false,0060_fc_dnn_false_truck_35_n04467665_2240.png,n04467665_2240.png,1.0,12.437611,5.6877275,4.772888
alexnet_w1_mlp_simclrhn_probe2,1,61,NaN,bottle,bottle,true,0061_fc_dnn_true_bottle_35_n04560804_13316.png,n04560804_13316.png,1.0,1.2820412,-1.8159502,2.190611
alexnet_w1_mlp_simclrhn_probe2,1,62,NaN,airplane,airplane,false,0062_fc_dnn_false_airplane_35_n02690373_3821.png,n02690373_3821.png,1.0,8.736574,-0.36732903,6.4374313
alexnet_w1_mlp_simclrhn_probe2,1,63,NaN,chair,knife,true,0063_fc_dnn_true_knife_35_n03041632_17285.png,n03041632_17285.png,0.0,0.7369268,0.91040295,-0.12266617
alexnet_w1_mlp_simclrhn_probe2,1,64,NaN,bottle,bottle,false,0064_fc_dnn_false_bottle_35_n02823428_10942.png,n02823428_10942.png,1.0,0.6784299,0.62982947,0.0343657
alexnet_w1_mlp_simclrhn_probe2,1,65,NaN,bicycle,bicycle,true,0065_fc_dnn_true_bicycle_35_n02835271_3642.png,n02835271_3642.png,1.0,9.506867,-1.4697558,7.761645
alexnet_w1_mlp_simclrhn_probe2,1,66,NaN,knife,knife,true,0066_fc_dnn_true_knife_35_n03041632_16172.png,n03041632_16172.png,1.0,1.5247511,-1.2033105,1.9290309
alexnet_w1_mlp_simclrhn_probe2,1,67,NaN,bicycle,bottle,false,0067_fc_dnn_false_bottle_35_n04560804_2448.png,n04560804_2448.png,0.0,-6.7679214,1.0488605,-5.5273
alexnet_w1_mlp_simclrhn_probe2,1,68,NaN,oven,oven,false,0068_fc_dnn_false_oven_35_n04111531_4452.png,n04111531_4452.png,1.0,7.099064,-3.0116181,7.1493316
alexnet_w1_mlp_simclrhn_probe2,1,69,NaN,keyboard,keyboard,false,0069_fc_dnn_false_keyboard_35_n04505470_912.png,n04505470_912.png,1.0,9.841999,0.48588178,6.615774
alexnet_w1_mlp_simclrhn_probe2,1,70,NaN,elephant,cat,false,0070_fc_dnn_false_cat_35_n02123045_7167.png,n02123045_7167.png,0.0,-1.8050175,-0.6356902,-0.82683927
alexnet_w1_mlp_simclrhn_probe2,1,71,NaN,bicycle,bicycle,false,0071_fc_dnn_false_bicycle_35_n03792782_8333.png,n03792782_8333.png,1.0,0.43872786,-0.8631645,0.9205769
alexnet_w1_mlp_simclrhn_probe2,1,72,NaN,bear,dog,false,0072_fc_dnn_false_dog_35_n02107683_2904.png,n02107683_2904.png,0.0,-0.9714367,-0.37702957,-0.42030928
alexnet_w1_mlp_simclrhn_probe2,1,73,NaN,bottle,bottle,true,0073_fc_dnn_true_bottle_35_n04591713_3409.png,n04591713_3409.png,1.0,5.9087367,0.4704365,3.845459
alexnet_w1_mlp_simclrhn_probe2,1,74,NaN,elephant,bottle,false,0074_fc_dnn_false_bottle_35_n04560804_564.png,n04560804_564.png,0.0,-3.3689656,-1.163835,-1.5592628
alexnet_w1_mlp_simclrhn_probe2,1,75,NaN,truck,truck,false,0075_fc_dnn_false_truck_35_n03796401_6503.png,n03796401_6503.png,1.0,7.1320953,2.9638188,2.9474168
alexnet_w1_mlp_simclrhn_probe2,1,76,NaN,oven,oven,true,0076_fc_dnn_true_oven_35_n04111531_13590.png,n04111531_13590.png,1.0,4.9835615,1.3037412,2.602026
alexnet_w1_mlp_simclrhn_probe2,1,77,NaN,bird,bird,false,0077_fc_dnn_false_bird_35_n02018795_7504.png,n02018795_7504.png,1.0,-0.5562046,-3.025766,1.7462436
alexnet_w1_mlp_simclrhn_probe2,1,78,NaN,truck,car,false,0078_fc_dnn_false_car_35_n03100240_6626.png,n03100240_6626.png,0.0,9.947721,10.945635,-0.705632
alexnet_w1_mlp_simclrhn_probe2,1,79,NaN,bear,bear,false,0079_fc_dnn_false_bear_35_n02134418_4364.png,n02134418_4364.png,1.0,5.3971896,2.1571739,2.291037
alexnet_w1_mlp_simclrhn_probe2,1,80,NaN,airplane,knife,false,0080_fc_dnn_false_knife_35_n03041632_8051.png,n03041632_8051.png,0.0,-1.8556356,2.5065928,-3.0845613
alexnet_w1_mlp_simclrhn_probe2,1,81,NaN,airplane,airplane,true,0081_fc_dnn_true_airplane_35_n02690373_1434.png,n02690373_1434.png,1.0,6.4932523,0.55530775,4.198761
alexnet_w1_mlp_simclrhn_probe2,1,82,NaN,clock,clock,true,0082_fc_dnn_true_clock_35_n04548280_5408.png,n04548280_5408.png,1.0,5.17851,1.6402264,2.5019445
alexnet_w1_mlp_simclrhn_probe2,1,83,NaN,dog,cat,false,0083_fc_dnn_false_cat_35_n02123597_3916.png,n02123597_3916.png,0.0,-0.034933742,0.050524827,-0.060428336
alexnet_w1_mlp_simclrhn_probe2,1,84,NaN,clock,clock,false,0084_fc_dnn_false_clock_35_n04548280_4542.png,n04548280_4542.png,1.0,1.4601784,-0.049524575,1.0675212
alexnet_w1_mlp_simclrhn_probe2,1,85,NaN,airplane,car,true,0085_fc_dnn_true_car_35_n04285008_14161.png,n04285008_14161.png,0.0,-2.9159176,-0.42356876,-1.7623569
alexnet_w1_mlp_simclrhn_probe2,1,86,NaN,airplane,airplane,false,0086_fc_dnn_false_airplane_35_n02690373_7279.png,n02690373_7279.png,1.0,5.799937,3.0880418,1.9175993
alexnet_w1_mlp_simclrhn_probe2,1,87,NaN,elephant,bear,true,0087_fc_dnn_true_bear_35_n02132136_11640.png,n02132136_11640.png,0.0,1.9530389,3.7582238,-1.2764585
alexnet_w1_mlp_simclrhn_probe2,1,88,NaN,airplane,airplane,true,0088_fc_dnn_true_airplane_35_n02690373_8350.png,n02690373_8350.png,1.0,4.339354,0.7016031,2.5722783
alexnet_w1_mlp_simclrhn_probe2,1,89,NaN,airplane,boat,true,0089_fc_dnn_true_boat_35_n04273569_30568.png,n04273569_30568.png,0.0,4.9034553,6.2339926,-0.94083196
alexnet_w1_mlp_simclrhn_probe2,1,90,NaN,elephant,dog,true,0090_fc_dnn_true_dog_35_n02100583_19533.png,n02100583_19533.png,0.0,1.2037117,2.460873,-0.8889472
alexnet_w1_mlp_simclrhn_probe2,1,91,NaN,knife,knife,true,0091_fc_dnn_true_knife_35_n03041632_965.png,n03041632_965.png,1.0,2.5052524,1.149648,0.95855707
alexnet_w1_mlp_simclrhn_probe2,1,92,NaN,elephant,elephant,false,0092_fc_dnn_false_elephant_35_n02504458_6109.png,n02504458_6109.png,1.0,12.087591,3.9267576,5.770581
alexnet_w1_mlp_simclrhn_probe2,1,93,NaN,oven,oven,true,0093_fc_dnn_true_oven_35_n04111531_10093.png,n04111531_10093.png,1.0,1.086431,-1.0411217,1.504407
alexnet_w1_mlp_simclrhn_probe2,1,94,NaN,clock,clock,true,0094_fc_dnn_true_clock_35_n03196217_8221.png,n03196217_8221.png,1.0,1.4569664,0.49610704,0.6794302
alexnet_w1_mlp_simclrhn_probe2,1,95,NaN,bicycle,bicycle,false,0095_fc_dnn_false_bicycle_35_n03792782_828.png,n03792782_828.png,1.0,6.080597,-2.6069484,6.1430225
alexnet_w1_mlp_simclrhn_probe2,1,96,NaN,knife,knife,true,0096_fc_dnn_true_knife_35_n03041632_7090.png,n03041632_7090.png,1.0,0.93284595,-0.08776491,0.7216808
alexnet_w1_mlp_simclrhn_probe2,1,97,NaN,elephant,bear,false,0097_fc_dnn_false_bear_35_n02134084_14260.png,n02134084_14260.png,0.0,-0.1576393,0.622447,-0.55160433
alexnet_w1_mlp_simclrhn_probe2,1,98,NaN,elephant,bear,false,0098_fc_dnn_false_bear_35_n02132136_10988.png,n02132136_10988.png,0.0,2.158178,2.9086695,-0.53067756
alexnet_w1_mlp_simclrhn_probe2,1,99,NaN,chair,keyboard,false,0099_fc_dnn_false_keyboard_35_n03085013_22980.png,n03085013_22980.png,0.0,-2.8031747,-0.8555644,-1.3771685
alexnet_w1_mlp_simclrhn_probe2,1,100,NaN,bottle,bottle,false,0100_fc_dnn_false_bottle_35_n04557648_3673.png,n04557648_3673.png,1.0,1.7413151,0.2658118,1.0433384
alexnet_w1_mlp_simclrhn_probe2,1,101,NaN,airplane,airplane,true,0101_fc_dnn_true_airplane_35_n02690373_1360.png,n02690373_1360.png,1.0,8.763975,2.3321908,4.5479584
alexnet_w1_mlp_simclrhn_probe2,1,102,NaN,bicycle,oven,true,0102_fc_dnn_true_oven_35_n04111531_6415.png,n04111531_6415.png,0.0,-3.9213037,1.7142122,-3.9849117
alexnet_w1_mlp_simclrhn_probe2,1,103,NaN,knife,knife,false,0103_fc_dnn_false_knife_35_n03041632_32054.png,n03041632_32054.png,1.0,2.203824,0.09983639,1.487744
alexnet_w1_mlp_simclrhn_probe2,1,104,NaN,chair,chair,false,0104_fc_dnn_false_chair_35_n03376595_9136.png,n03376595_9136.png,1.0,0.7215898,0.33426845,0.27387756
alexnet_w1_mlp_simclrhn_probe2,1,105,NaN,keyboard,keyboard,false,0105_fc_dnn_false_keyboard_35_n03085013_21266.png,n03085013_21266.png,1.0,1.0449266,0.65123206,0.27838412
alexnet_w1_mlp_simclrhn_probe2,1,106,NaN,bicycle,bicycle,true,0106_fc_dnn_true_bicycle_35_n02835271_6137.png,n02835271_6137.png,1.0,8.12594,1.5054888,4.681366
alexnet_w1_mlp_simclrhn_probe2,1,107,NaN,car,car,false,0107_fc_dnn_false_car_35_n04285008_14689.png,n04285008_14689.png,1.0,14.438794,11.533082,2.0546489
alexnet_w1_mlp_simclrhn_probe2,1,108,NaN,truck,truck,false,0108_fc_dnn_false_truck_35_n04467665_16276.png,n04467665_16276.png,1.0,11.252224,6.433483,3.4073644
alexnet_w1_mlp_simclrhn_probe2,1,109,NaN,chair,chair,false,0109_fc_dnn_false_chair_35_n03376595_787.png,n03376595_787.png,1.0,0.77832806,0.039569706,0.522381
alexnet_w1_mlp_simclrhn_probe2,1,110,NaN,bicycle,boat,false,0110_fc_dnn_false_boat_35_n04612504_41355.png,n04612504_41355.png,0.0,2.0217218,5.488635,-2.451478
alexnet_w1_mlp_simclrhn_probe2,1,111,NaN,elephant,elephant,true,0111_fc_dnn_true_elephant_35_n02504458_174.png,n02504458_174.png,1.0,8.242511,-2.201368,7.384938
alexnet_w1_mlp_simclrhn_probe2,1,112,NaN,cat,cat,true,0112_fc_dnn_true_cat_35_n02125311_6746.png,n02125311_6746.png,1.0,2.4760363,1.7157929,0.5375733
alexnet_w1_mlp_simclrhn_probe2,1,113,NaN,keyboard,keyboard,false,0113_fc_dnn_false_keyboard_35_n03085013_23287.png,n03085013_23287.png,1.0,3.6930141,-0.45439905,2.9326642
alexnet_w1_mlp_simclrhn_probe2,1,114,NaN,clock,clock,true,0114_fc_dnn_true_clock_35_n04548280_8071.png,n04548280_8071.png,1.0,2.4184382,1.0392846,0.9752089
alexnet_w1_mlp_simclrhn_probe2,1,115,NaN,oven,oven,false,0115_fc_dnn_false_oven_35_n04111531_14543.png,n04111531_14543.png,1.0,6.0126443,-1.0746745,5.0114913
alexnet_w1_mlp_simclrhn_probe2,1,116,NaN,car,car,false,0116_fc_dnn_false_car_35_n03100240_10791.png,n03100240_10791.png,1.0,10.693788,6.2251096,3.1598325
alexnet_w1_mlp_simclrhn_probe2,1,117,NaN,airplane,airplane,true,0117_fc_dnn_true_airplane_35_n02690373_2619.png,n02690373_2619.png,1.0,5.7470675,2.4328065,2.3435364
alexnet_w1_mlp_simclrhn_probe2,1,118,NaN,keyboard,keyboard,true,0118_fc_dnn_true_keyboard_35_n04505470_3864.png,n04505470_3864.png,1.0,0.16461408,-0.43765286,0.42586702
alexnet_w1_mlp_simclrhn_probe2,1,119,NaN,bear,dog,true,0119_fc_dnn_true_dog_35_n02097658_4387.png,n02097658_4387.png,0.0,0.6640506,0.9190316,-0.18029882
alexnet_w1_mlp_simclrhn_probe2,1,120,NaN,clock,clock,true,0120_fc_dnn_true_clock_35_n04548280_309.png,n04548280_309.png,1.0,3.9102843,1.4567777,1.734891
alexnet_w1_mlp_simclrhn_probe2,1,121,NaN,dog,dog,true,0121_fc_dnn_true_dog_35_n02108000_5247.png,n02108000_5247.png,1.0,2.9542642,-2.6783915,3.982889
alexnet_w1_mlp_simclrhn_probe2,1,122,NaN,oven,keyboard,false,0122_fc_dnn_false_keyboard_35_n04505470_4411.png,n04505470_4411.png,0.0,1.578212,2.44819,-0.6151673
alexnet_w1_mlp_simclrhn_probe2,1,123,NaN,oven,truck,false,0123_fc_dnn_false_truck_35_n03417042_2155.png,n03417042_2155.png,0.0,0.28110385,2.6768818,-1.6940708
alexnet_w1_mlp_simclrhn_probe2,1,124,NaN,bear,bear,false,0124_fc_dnn_false_bear_35_n02132136_4237.png,n02132136_4237.png,1.0,5.1891723,2.0152242,2.2443202
alexnet_w1_mlp_simclrhn_probe2,1,125,NaN,bird,bird,false,0125_fc_dnn_false_bird_35_n01843065_2350.png,n01843065_2350.png,1.0,-0.047409438,-4.7836123,3.3490012
alexnet_w1_mlp_simclrhn_probe2,1,126,NaN,knife,knife,false,0126_fc_dnn_false_knife_35_n03041632_51225.png,n03041632_51225.png,1.0,1.9171607,0.12530243,1.2670352
alexnet_w1_mlp_simclrhn_probe2,1,127,NaN,airplane,airplane,false,0127_fc_dnn_false_airplane_35_n02690373_2095.png,n02690373_2095.png,1.0,6.9085293,0.658415,4.4194984
alexnet_w1_mlp_simclrhn_probe2,1,128,NaN,clock,clock,true,0128_fc_dnn_true_clock_35_n02708093_1775.png,n02708093_1775.png,1.0,3.2526915,-0.80953354,2.8724267
alexnet_w1_mlp_simclrhn_probe2,1,129,NaN,elephant,elephant,true,0129_fc_dnn_true_elephant_35_n02504458_7950.png,n02504458_7950.png,1.0,16.683567,4.087926,8.906464
alexnet_w1_mlp_simclrhn_probe2,1,130,NaN,boat,boat,true,0130_fc_dnn_true_boat_35_n03662601_1926.png,n03662601_1926.png,1.0,4.5701823,0.7904854,2.6726494
alexnet_w1_mlp_simclrhn_probe2,1,131,NaN,elephant,elephant,true,0131_fc_dnn_true_elephant_35_n02504458_6721.png,n02504458_6721.png,1.0,0.5816959,-1.0090951,1.1248591
alexnet_w1_mlp_simclrhn_probe2,1,132,NaN,bicycle,bicycle,true,0132_fc_dnn_true_bicycle_35_n02835271_14225.png,n02835271_14225.png,1.0,1.7183068,-1.9539781,2.5966976
alexnet_w1_mlp_simclrhn_probe2,1,133,NaN,clock,clock,false,0133_fc_dnn_false_clock_35_n02708093_2744.png,n02708093_2744.png,1.0,-0.6286686,-2.114286,1.0504901
alexnet_w1_mlp_simclrhn_probe2,1,134,NaN,clock,clock,true,0134_fc_dnn_true_clock_35_n02708093_275.png,n02708093_275.png,1.0,8.016744,-2.2185302,7.2374315
alexnet_w1_mlp_simclrhn_probe2,1,135,NaN,knife,knife,false,0135_fc_dnn_false_knife_35_n03041632_25512.png,n03041632_25512.png,1.0,-0.07635714,-0.9832095,0.6412415
alexnet_w1_mlp_simclrhn_probe2,1,136,NaN,oven,bird,true,0136_fc_dnn_true_bird_35_n01622779_5441.png,n01622779_5441.png,0.0,-2.6129434,-0.70972,-1.3457822
alexnet_w1_mlp_simclrhn_probe2,1,137,NaN,car,oven,false,0137_fc_dnn_false_oven_35_n04111531_14329.png,n04111531_14329.png,0.0,-2.0531883,4.1690936,-4.399818
alexnet_w1_mlp_simclrhn_probe2,1,138,NaN,bird,bird,false,0138_fc_dnn_false_bird_35_n02007558_13217.png,n02007558_13217.png,1.0,3.0394053,-5.101885,5.756762
alexnet_w1_mlp_simclrhn_probe2,1,139,NaN,cat,cat,true,0139_fc_dnn_true_cat_35_n02123597_7908.png,n02123597_7908.png,1.0,-0.012333885,-0.48836523,0.336605
alexnet_w1_mlp_simclrhn_probe2,1,140,NaN,clock,clock,true,0140_fc_dnn_true_clock_35_n04548280_9828.png,n04548280_9828.png,1.0,6.5717025,-0.816854,5.2244983
alexnet_w1_mlp_simclrhn_probe2,1,141,NaN,bird,bird,false,0141_fc_dnn_false_bird_35_n01833805_4819.png,n01833805_4819.png,1.0,0.3986399,-1.2851161,1.1905953
alexnet_w1_mlp_simclrhn_probe2,1,142,NaN,knife,knife,true,0142_fc_dnn_true_knife_35_n03041632_52929.png,n03041632_52929.png,1.0,-0.26607502,-0.69107336,0.30051923
alexnet_w1_mlp_simclrhn_probe2,1,143,NaN,truck,truck,false,0143_fc_dnn_false_truck_35_n04467665_2044.png,n04467665_2044.png,1.0,9.27161,1.4082932,5.560205
alexnet_w1_mlp_simclrhn_probe2,1,144,NaN,oven,oven,false,0144_fc_dnn_false_oven_35_n04111531_16583.png,n04111531_16583.png,1.0,4.370921,1.8974248,1.7490262
alexnet_w1_mlp_simclrhn_probe2,1,145,NaN,airplane,airplane,true,0145_fc_dnn_true_airplane_35_n02690373_2796.png,n02690373_2796.png,1.0,5.925374,2.9215481,2.1240256
alexnet_w1_mlp_simclrhn_probe2,1,146,NaN,airplane,airplane,false,0146_fc_dnn_false_airplane_35_n02690373_3362.png,n02690373_3362.png,1.0,6.749603,2.2067358,3.212292
alexnet_w1_mlp_simclrhn_probe2,1,147,NaN,clock,clock,true,0147_fc_dnn_true_clock_35_n02708093_3759.png,n02708093_3759.png,1.0,5.94265,-0.5193724,4.5693398
alexnet_w1_mlp_simclrhn_probe2,1,148,NaN,elephant,elephant,true,0148_fc_dnn_true_elephant_35_n02504013_2558.png,n02504013_2558.png,1.0,5.243106,-1.6832669,4.897685
alexnet_w1_mlp_simclrhn_probe2,1,149,NaN,bear,bear,false,0149_fc_dnn_false_bear_35_n02134418_896.png,n02134418_896.png,1.0,0.49664718,0.0884218,0.28865895
alexnet_w1_mlp_simclrhn_probe2,1,150,NaN,truck,truck,false,0150_fc_dnn_false_truck_35_n04467665_56815.png,n04467665_56815.png,1.0,8.350879,1.7909784,4.6385503
alexnet_w1_mlp_simclrhn_probe2,1,151,NaN,truck,truck,true,0151_fc_dnn_true_truck_35_n03796401_3695.png,n03796401_3695.png,1.0,4.518686,-1.3792568,4.170475
alexnet_w1_mlp_simclrhn_probe2,1,152,NaN,dog,dog,true,0152_fc_dnn_true_dog_35_n02107312_197.png,n02107312_197.png,1.0,-0.19572726,-0.8917953,0.49219444
alexnet_w1_mlp_simclrhn_probe2,1,153,NaN,bear,bear,false,0153_fc_dnn_false_bear_35_n02133161_13356.png,n02133161_13356.png,1.0,0.12838975,-0.49523726,0.4409709
alexnet_w1_mlp_simclrhn_probe2,1,154,NaN,truck,truck,false,0154_fc_dnn_false_truck_35_n03796401_6923.png,n03796401_6923.png,1.0,0.834764,-0.14662549,0.6939472
alexnet_w1_mlp_simclrhn_probe2,1,155,NaN,elephant,elephant,true,0155_fc_dnn_true_elephant_35_n02504458_7660.png,n02504458_7660.png,1.0,2.5238872,0.7217964,1.2742707
alexnet_w1_mlp_simclrhn_probe2,1,156,NaN,bicycle,bicycle,false,0156_fc_dnn_false_bicycle_35_n02835271_6554.png,n02835271_6554.png,1.0,13.808674,-0.104217134,9.8379
alexnet_w1_mlp_simclrhn_probe2,1,157,NaN,boat,boat,true,0157_fc_dnn_true_boat_35_n04273569_2698.png,n04273569_2698.png,1.0,5.0311775,0.7664984,3.0155835
alexnet_w1_mlp_simclrhn_probe2,1,158,NaN,dog,bottle,true,0158_fc_dnn_true_bottle_35_n03983396_5055.png,n03983396_5055.png,0.0,-6.003513,-0.605706,-3.816826
alexnet_w1_mlp_simclrhn_probe2,1,159,NaN,chair,chair,true,0159_fc_dnn_true_chair_35_n04429376_22811.png,n04429376_22811.png,1.0,1.8503207,-0.42786402,1.6109198
alexnet_w1_mlp_simclrhn_probe2,1,160,NaN,knife,knife,false,0160_fc_dnn_false_knife_35_n03041632_5640.png,n03041632_5640.png,1.0,1.9629002,-0.38522637,1.6603762
alexnet_w1_mlp_simclrhn_probe2,1,161,NaN,oven,bird,true,0161_fc_dnn_true_bird_35_n01795545_14857.png,n01795545_14857.png,0.0,-1.7481837,-1.036788,-0.50303274
alexnet_w1_mlp_simclrhn_probe2,1,162,NaN,oven,oven,false,0162_fc_dnn_false_oven_35_n04111531_16144.png,n04111531_16144.png,1.0,8.745131,-2.9193957,8.248066
alexnet_w1_mlp_simclrhn_probe2,1,163,NaN,car,truck,false,0163_fc_dnn_false_truck_35_n04467665_47050.png,n04467665_47050.png,0.0,-0.90286225,0.34106377,-0.87958854
alexnet_w1_mlp_simclrhn_probe2,1,164,NaN,clock,bottle,true,0164_fc_dnn_true_bottle_35_n03937543_8063.png,n03937543_8063.png,0.0,1.7949406,5.0951695,-2.3336143
alexnet_w1_mlp_simclrhn_probe2,1,165,NaN,bear,bear,false,0165_fc_dnn_false_bear_35_n02134084_1655.png,n02134084_1655.png,1.0,0.8611033,0.6478293,0.1508075
alexnet_w1_mlp_simclrhn_probe2,1,166,NaN,chair,car,false,0166_fc_dnn_false_car_35_n03100240_2425.png,n03100240_2425.png,0.0,-3.3646,0.69948334,-2.8737407
alexnet_w1_mlp_simclrhn_probe2,1,167,NaN,keyboard,keyboard,false,0167_fc_dnn_false_keyboard_35_n03085013_21300.png,n03085013_21300.png,1.0,3.8240316,0.79501295,2.1418397
alexnet_w1_mlp_simclrhn_probe2,1,168,NaN,bear,bear,false,0168_fc_dnn_false_bear_35_n02132136_2248.png,n02132136_2248.png,1.0,2.720377,1.1202945,1.1314292
alexnet_w1_mlp_simclrhn_probe2,1,169,NaN,knife,knife,false,0169_fc_dnn_false_knife_35_n03041632_27832.png,n03041632_27832.png,1.0,0.51250076,-0.4194916,0.6590181
alexnet_w1_mlp_simclrhn_probe2,1,170,NaN,keyboard,keyboard,true,0170_fc_dnn_true_keyboard_35_n04505470_4682.png,n04505470_4682.png,1.0,11.034846,2.5819008,5.977135
alexnet_w1_mlp_simclrhn_probe2,1,171,NaN,boat,truck,false,0171_fc_dnn_false_truck_35_n03417042_12908.png,n03417042_12908.png,0.0,0.1127353,1.2651495,-0.8148799
alexnet_w1_mlp_simclrhn_probe2,1,172,NaN,elephant,elephant,false,0172_fc_dnn_false_elephant_35_n02504013_2148.png,n02504013_2148.png,1.0,2.2196014,-0.527537,1.9425203
alexnet_w1_mlp_simclrhn_probe2,1,173,NaN,airplane,boat,true,0173_fc_dnn_true_boat_35_n02951358_20379.png,n02951358_20379.png,0.0,0.64850056,0.95047563,-0.21352862
alexnet_w1_mlp_simclrhn_probe2,1,174,NaN,cat,cat,true,0174_fc_dnn_true_cat_35_n02123394_6521.png,n02123394_6521.png,1.0,1.1671588,0.1581992,0.7134422
alexnet_w1_mlp_simclrhn_probe2,1,175,NaN,boat,boat,true,0175_fc_dnn_true_boat_35_n03662601_9602.png,n03662601_9602.png,1.0,5.438448,2.702835,1.9343704
alexnet_w1_mlp_simclrhn_probe2,1,176,NaN,clock,clock,true,0176_fc_dnn_true_clock_35_n04548280_3997.png,n04548280_3997.png,1.0,5.14477,-1.1149566,4.4262953
alexnet_w1_mlp_simclrhn_probe2,1,177,NaN,car,car,false,0177_fc_dnn_false_car_35_n03100240_12694.png,n03100240_12694.png,1.0,12.704579,5.1835623,5.3181624
alexnet_w1_mlp_simclrhn_probe2,1,178,NaN,bird,bird,false,0178_fc_dnn_false_bird_35_n02002556_25052.png,n02002556_25052.png,1.0,1.8663123,-2.8379052,3.326384
alexnet_w1_mlp_simclrhn_probe2,1,179,NaN,oven,chair,true,0179_fc_dnn_true_chair_35_n04429376_22734.png,n04429376_22734.png,0.0,0.1331715,0.35944977,-0.1600029
alexnet_w1_mlp_simclrhn_probe2,1,180,NaN,boat,boat,true,0180_fc_dnn_true_boat_35_n04612504_5334.png,n04612504_5334.png,1.0,6.2053814,0.8733561,3.7703114
alexnet_w1_mlp_simclrhn_probe2,1,181,NaN,keyboard,keyboard,true,0181_fc_dnn_true_keyboard_35_n03085013_15484.png,n03085013_15484.png,1.0,3.9947138,0.80855566,2.252954
alexnet_w1_mlp_simclrhn_probe2,1,182,NaN,bear,bear,true,0182_fc_dnn_true_bear_35_n02134418_1809.png,n02134418_1809.png,1.0,4.655429,-0.9004527,3.9286015
alexnet_w1_mlp_simclrhn_probe2,1,183,NaN,bottle,bottle,true,0183_fc_dnn_true_bottle_35_n04560804_6392.png,n04560804_6392.png,1.0,0.4101756,-0.06788987,0.33804333
alexnet_w1_mlp_simclrhn_probe2,1,184,NaN,boat,boat,false,0184_fc_dnn_false_boat_35_n02951358_29495.png,n02951358_29495.png,1.0,5.453024,0.29473197,3.647463
alexnet_w1_mlp_simclrhn_probe2,1,185,NaN,dog,dog,false,0185_fc_dnn_false_dog_35_n02086646_8449.png,n02086646_8449.png,1.0,3.7093847,-0.97175366,3.3100648
alexnet_w1_mlp_simclrhn_probe2,1,186,NaN,bear,bird,true,0186_fc_dnn_true_bird_35_n02037110_4043.png,n02037110_4043.png,0.0,-2.8996823,1.3471543,-3.0029671
alexnet_w1_mlp_simclrhn_probe2,1,187,NaN,elephant,elephant,true,0187_fc_dnn_true_elephant_35_n02504458_4819.png,n02504458_4819.png,1.0,5.7643957,0.91111124,3.4317904
alexnet_w1_mlp_simclrhn_probe2,1,188,NaN,bird,bird,true,0188_fc_dnn_true_bird_35_n01829413_282.png,n01829413_282.png,1.0,2.7310855,-5.0405498,5.495376
alexnet_w1_mlp_simclrhn_probe2,1,189,NaN,elephant,bird,false,0189_fc_dnn_false_bird_35_n02007558_22160.png,n02007558_22160.png,0.0,-1.5500505,0.29212525,-1.3026149
alexnet_w1_mlp_simclrhn_probe2,1,190,NaN,car,truck,false,0190_fc_dnn_false_truck_35_n03417042_3066.png,n03417042_3066.png,0.0,0.7961768,1.0388387,-0.17158791
alexnet_w1_mlp_simclrhn_probe2,1,191,NaN,boat,boat,true,0191_fc_dnn_true_boat_35_n04612504_254.png,n04612504_254.png,1.0,4.8652945,-1.365664,4.405953
alexnet_w1_mlp_simclrhn_probe2,1,192,NaN,keyboard,keyboard,false,0192_fc_dnn_false_keyboard_35_n03085013_20704.png,n03085013_20704.png,1.0,1.5462357,-0.4381179,1.4031498
alexnet_w1_mlp_simclrhn_probe2,1,193,NaN,knife,chair,true,0193_fc_dnn_true_chair_35_n03376595_3015.png,n03376595_3015.png,0.0,-0.21804917,0.84545517,-0.7520111
alexnet_w1_mlp_simclrhn_probe2,1,194,NaN,keyboard,bottle,false,0194_fc_dnn_false_bottle_35_n03983396_3782.png,n03983396_3782.png,0.0,-3.5657475,3.7292333,-5.1583304
alexnet_w1_mlp_simclrhn_probe2,1,195,NaN,bird,bird,false,0195_fc_dnn_false_bird_35_n01592084_4087.png,n01592084_4087.png,1.0,1.4220763,-4.065854,3.8805528
alexnet_w1_mlp_simclrhn_probe2,1,196,NaN,bird,bird,false,0196_fc_dnn_false_bird_35_n02013706_651.png,n02013706_651.png,1.0,2.9183671,-5.461431,5.925412
alexnet_w1_mlp_simclrhn_probe2,1,197,NaN,keyboard,keyboard,true,0197_fc_dnn_true_keyboard_35_n04505470_2825.png,n04505470_2825.png,1.0,6.173628,0.6151682,3.9304247
alexnet_w1_mlp_simclrhn_probe2,1,198,NaN,oven,cat,false,0198_fc_dnn_false_cat_35_n02123597_23346.png,n02123597_23346.png,0.0,-0.71735996,-0.40017152,-0.22428611
alexnet_w1_mlp_simclrhn_probe2,1,199,NaN,cat,cat,false,0199_fc_dnn_false_cat_35_n02124075_3592.png,n02124075_3592.png,1.0,0.6597136,-2.712879,2.384783
alexnet_w1_mlp_simclrhn_probe2,1,200,NaN,airplane,airplane,false,0200_fc_dnn_false_airplane_35_n02690373_5415.png,n02690373_5415.png,1.0,5.881836,0.18478458,4.028424
alexnet_w1_mlp_simclrhn_probe2,1,201,NaN,dog,cat,true,0201_fc_dnn_true_cat_35_n02123597_4591.png,n02123597_4591.png,0.0,0.40003368,1.4136747,-0.7167524
alexnet_w1_mlp_simclrhn_probe2,1,202,NaN,elephant,elephant,false,0202_fc_dnn_false_elephant_35_n02504013_2228.png,n02504013_2228.png,1.0,6.675824,2.8860931,2.6797445
alexnet_w1_mlp_simclrhn_probe2,1,203,NaN,knife,knife,false,0203_fc_dnn_false_knife_35_n03041632_47743.png,n03041632_47743.png,1.0,0.8530751,-2.5612907,2.4143212
alexnet_w1_mlp_simclrhn_probe2,1,204,NaN,bear,bear,false,0204_fc_dnn_false_bear_35_n02134418_1105.png,n02134418_1105.png,1.0,4.5129795,0.5057791,2.8335185
alexnet_w1_mlp_simclrhn_probe2,1,205,NaN,bottle,bottle,true,0205_fc_dnn_true_bottle_35_n04591713_1174.png,n04591713_1174.png,1.0,2.6661375,1.7621005,0.6392507
alexnet_w1_mlp_simclrhn_probe2,1,206,NaN,keyboard,keyboard,true,0206_fc_dnn_true_keyboard_35_n04505470_8544.png,n04505470_8544.png,1.0,0.84234405,-0.37687206,0.862116
alexnet_w1_mlp_simclrhn_probe2,1,207,NaN,bear,bear,true,0207_fc_dnn_true_bear_35_n02134418_379.png,n02134418_379.png,1.0,9.813276,0.37594965,6.6731977
alexnet_w1_mlp_simclrhn_probe2,1,208,NaN,bottle,knife,false,0208_fc_dnn_false_knife_35_n03041632_33198.png,n03041632_33198.png,0.0,-1.4549764,-0.3680499,-0.76857316
alexnet_w1_mlp_simclrhn_probe2,1,209,NaN,bird,bear,true,0209_fc_dnn_true_bear_35_n02134084_4490.png,n02134084_4490.png,0.0,-0.094476044,0.32844463,-0.2990501
alexnet_w1_mlp_simclrhn_probe2,1,210,NaN,car,car,true,0210_fc_dnn_true_car_35_n02814533_23592.png,n02814533_23592.png,1.0,3.7465317,0.9212208,1.9977965
alexnet_w1_mlp_simclrhn_probe2,1,211,NaN,bear,dog,false,0211_fc_dnn_false_dog_35_n02102973_7095.png,n02102973_7095.png,0.0,-0.04615462,2.1288931,-1.5379912
alexnet_w1_mlp_simclrhn_probe2,1,212,NaN,elephant,elephant,true,0212_fc_dnn_true_elephant_35_n02504013_3810.png,n02504013_3810.png,1.0,14.16981,4.4234138,6.8917437
alexnet_w1_mlp_simclrhn_probe2,1,213,NaN,truck,truck,false,0213_fc_dnn_false_truck_35_n03417042_28742.png,n03417042_28742.png,1.0,6.97357,3.4109561,2.5191483
alexnet_w1_mlp_simclrhn_probe2,1,214,NaN,bicycle,bicycle,false,0214_fc_dnn_false_bicycle_35_n03792782_4382.png,n03792782_4382.png,1.0,10.535331,-2.697288,9.356874
alexnet_w1_mlp_simclrhn_probe2,1,215,NaN,keyboard,keyboard,false,0215_fc_dnn_false_keyboard_35_n04505470_2868.png,n04505470_2868.png,1.0,5.798752,1.6334484,2.9453142
alexnet_w1_mlp_simclrhn_probe2,1,216,NaN,bear,bear,true,0216_fc_dnn_true_bear_35_n02132136_4817.png,n02132136_4817.png,1.0,3.272376,0.26785,2.1245208
alexnet_w1_mlp_simclrhn_probe2,1,217,NaN,bicycle,bicycle,true,0217_fc_dnn_true_bicycle_35_n03792782_1989.png,n03792782_1989.png,1.0,5.8321767,-0.56939065,4.526592
alexnet_w1_mlp_simclrhn_probe2,1,218,NaN,truck,truck,true,0218_fc_dnn_true_truck_35_n03417042_4883.png,n03417042_4883.png,1.0,5.01418,0.10543656,3.4710062
alexnet_w1_mlp_simclrhn_probe2,1,219,NaN,bicycle,bicycle,true,0219_fc_dnn_true_bicycle_35_n03792782_6614.png,n03792782_6614.png,1.0,5.9685574,-3.0038812,6.3444724
alexnet_w1_mlp_simclrhn_probe2,1,220,NaN,car,car,true,0220_fc_dnn_true_car_35_n04285008_8581.png,n04285008_8581.png,1.0,14.962995,8.974176,4.234734
alexnet_w1_mlp_simclrhn_probe2,1,221,NaN,truck,truck,true,0221_fc_dnn_true_truck_35_n04467665_22051.png,n04467665_22051.png,1.0,10.05464,3.6119263,4.5556865
alexnet_w1_mlp_simclrhn_probe2,1,222,NaN,keyboard,keyboard,true,0222_fc_dnn_true_keyboard_35_n04505470_4516.png,n04505470_4516.png,1.0,6.994748,1.8460708,3.6406648
alexnet_w1_mlp_simclrhn_probe2,1,223,NaN,clock,clock,true,0223_fc_dnn_true_clock_35_n02708093_3355.png,n02708093_3355.png,1.0,0.1682267,-0.64824355,0.57733166
alexnet_w1_mlp_simclrhn_probe2,1,224,NaN,oven,chair,false,0224_fc_dnn_false_chair_35_n02791124_11404.png,n02791124_11404.png,0.0,0.2270776,1.2418165,-0.71752876
alexnet_w1_mlp_simclrhn_probe2,1,225,NaN,boat,boat,true,0225_fc_dnn_true_boat_35_n03344393_1145.png,n03344393_1145.png,1.0,4.1425257,3.4222016,0.509346
alexnet_w1_mlp_simclrhn_probe2,1,226,NaN,chair,keyboard,false,0226_fc_dnn_false_keyboard_35_n04505470_4627.png,n04505470_4627.png,0.0,-0.39119953,1.7287369,-1.4990215
alexnet_w1_mlp_simclrhn_probe2,1,227,NaN,knife,chair,true,0227_fc_dnn_true_chair_35_n03376595_4354.png,n03376595_4354.png,0.0,-0.25229406,2.8116555,-2.1665397
alexnet_w1_mlp_simclrhn_probe2,1,228,NaN,keyboard,keyboard,false,0228_fc_dnn_false_keyboard_35_n03085013_3231.png,n03085013_3231.png,1.0,9.097862,0.21122533,6.283801
alexnet_w1_mlp_simclrhn_probe2,1,229,NaN,car,car,false,0229_fc_dnn_false_car_35_n03100240_7454.png,n03100240_7454.png,1.0,7.3968034,4.90035,1.765259
alexnet_w1_mlp_simclrhn_probe2,1,230,NaN,bicycle,chair,false,0230_fc_dnn_false_chair_35_n03376595_4212.png,n03376595_4212.png,0.0,-0.9062852,0.2964151,-0.8504376
alexnet_w1_mlp_simclrhn_probe2,1,231,NaN,airplane,airplane,true,0231_fc_dnn_true_airplane_35_n02690373_4175.png,n02690373_4175.png,1.0,9.182275,-0.65332484,6.9548197
alexnet_w1_mlp_simclrhn_probe2,1,232,NaN,oven,bird,false,0232_fc_dnn_false_bird_35_n01614925_19918.png,n01614925_19918.png,0.0,-2.6663299,0.074173525,-1.9378285
alexnet_w1_mlp_simclrhn_probe2,1,233,NaN,dog,dog,false,0233_fc_dnn_false_dog_35_n02086240_1183.png,n02086240_1183.png,1.0,1.2129339,-0.6721229,1.3329364
alexnet_w1_mlp_simclrhn_probe2,1,234,NaN,car,car,false,0234_fc_dnn_false_car_35_n02814533_1344.png,n02814533_1344.png,1.0,7.345697,5.8665648,1.0459044
alexnet_w1_mlp_simclrhn_probe2,1,235,NaN,oven,bottle,true,0235_fc_dnn_true_bottle_35_n03983396_1321.png,n03983396_1321.png,0.0,-2.818105,1.7511556,-3.2309551
alexnet_w1_mlp_simclrhn_probe2,1,236,NaN,cat,cat,true,0236_fc_dnn_true_cat_35_n02123597_6291.png,n02123597_6291.png,1.0,2.7293959,-0.1592451,2.0425775
alexnet_w1_mlp_simclrhn_probe2,1,237,NaN,car,airplane,true,0237_fc_dnn_true_airplane_35_n02690373_7698.png,n02690373_7698.png,0.0,-1.9337857,0.5145958,-1.7312671
alexnet_w1_mlp_simclrhn_probe2,1,238,NaN,airplane,airplane,false,0238_fc_dnn_false_airplane_35_n02690373_4191.png,n02690373_4191.png,1.0,0.7327328,-0.9987736,1.2243599
alexnet_w1_mlp_simclrhn_probe2,1,239,NaN,cat,bear,true,0239_fc_dnn_true_bear_35_n02134418_6204.png,n02134418_6204.png,0.0,-0.09525001,0.39410588,-0.34602687
alexnet_w1_mlp_simclrhn_probe2,1,240,NaN,elephant,bear,true,0240_fc_dnn_true_bear_35_n02132136_14829.png,n02132136_14829.png,0.0,-0.40625772,0.6301211,-0.7328305
alexnet_w1_mlp_simclrhn_probe2,1,241,NaN,car,car,false,0241_fc_dnn_false_car_35_n04285008_2409.png,n04285008_2409.png,1.0,7.9023705,5.7464676,1.5244535
alexnet_w1_mlp_simclrhn_probe2,1,242,NaN,bird,bird,true,0242_fc_dnn_true_bird_35_n02037110_3761.png,n02037110_3761.png,1.0,5.359158,-5.614924,7.759848
alexnet_w1_mlp_simclrhn_probe2,1,243,NaN,boat,boat,false,0243_fc_dnn_false_boat_35_n02951358_3067.png,n02951358_3067.png,1.0,0.69783545,0.09043139,0.42949954
alexnet_w1_mlp_simclrhn_probe2,1,244,NaN,chair,chair,false,0244_fc_dnn_false_chair_35_n03376595_14748.png,n03376595_14748.png,1.0,3.6643035,0.8196584,2.011468
alexnet_w1_mlp_simclrhn_probe2,1,245,NaN,elephant,elephant,true,0245_fc_dnn_true_elephant_35_n02504458_5951.png,n02504458_5951.png,1.0,6.106147,2.2420552,2.7323256
alexnet_w1_mlp_simclrhn_probe2,1,246,NaN,airplane,clock,false,0246_fc_dnn_false_clock_35_n02708093_2006.png,n02708093_2006.png,0.0,0.057040334,1.4066362,-0.95430845
alexnet_w1_mlp_simclrhn_probe2,1,247,NaN,car,car,false,0247_fc_dnn_false_car_35_n03100240_18646.png,n03100240_18646.png,1.0,7.6933885,1.732748,4.2148094
alexnet_w1_mlp_simclrhn_probe2,1,248,NaN,bicycle,bicycle,false,0248_fc_dnn_false_bicycle_35_n03792782_5864.png,n03792782_5864.png,1.0,7.691167,-0.56104,5.8351917
alexnet_w1_mlp_simclrhn_probe2,1,249,NaN,oven,chair,false,0249_fc_dnn_false_chair_35_n04429376_36830.png,n04429376_36830.png,0.0,-0.7600833,0.7080747,-1.0381445
alexnet_w1_mlp_simclrhn_probe2,1,250,NaN,boat,boat,true,0250_fc_dnn_true_boat_35_n04273569_9282.png,n04273569_9282.png,1.0,1.444548,-1.1710684,1.8495201
alexnet_w1_mlp_simclrhn_probe2,1,251,NaN,cat,bird,true,0251_fc_dnn_true_bird_35_n01622779_1609.png,n01622779_1609.png,0.0,-1.6319753,-1.009452,-0.44019046
alexnet_w1_mlp_simclrhn_probe2,1,252,NaN,bicycle,dog,true,0252_fc_dnn_true_dog_35_n02088094_9498.png,n02088094_9498.png,0.0,-1.1564482,0.6539378,-1.2801362
alexnet_w1_mlp_simclrhn_probe2,1,253,NaN,car,car,true,0253_fc_dnn_true_car_35_n04285008_5525.png,n04285008_5525.png,1.0,4.07369,0.54006916,2.4986472
alexnet_w1_mlp_simclrhn_probe2,1,254,NaN,knife,knife,true,0254_fc_dnn_true_knife_35_n03041632_29343.png,n03041632_29343.png,1.0,-0.49269116,-2.6833656,1.5490407
alexnet_w1_mlp_simclrhn_probe2,1,255,NaN,oven,knife,true,0255_fc_dnn_true_knife_35_n03041632_86338.png,n03041632_86338.png,0.0,-1.2997723,2.4929495,-2.6818593
alexnet_w1_mlp_simclrhn_probe2,1,256,NaN,keyboard,keyboard,false,0256_fc_dnn_false_keyboard_35_n03085013_20691.png,n03085013_20691.png,1.0,3.4182725,0.8194276,1.8376609
alexnet_w1_mlp_simclrhn_probe2,1,257,NaN,cat,cat,true,0257_fc_dnn_true_cat_35_n02124075_1957.png,n02124075_1957.png,1.0,-2.0721989,-2.2062247,0.094770566
alexnet_w1_mlp_simclrhn_probe2,1,258,NaN,bear,bear,false,0258_fc_dnn_false_bear_35_n02134418_195.png,n02134418_195.png,1.0,2.387467,2.2648776,0.086683765
alexnet_w1_mlp_simclrhn_probe2,1,259,NaN,chair,chair,true,0259_fc_dnn_true_chair_35_n02791124_1376.png,n02791124_1376.png,1.0,1.5558051,-0.042721123,1.1303288
alexnet_w1_mlp_simclrhn_probe2,1,260,NaN,elephant,elephant,false,0260_fc_dnn_false_elephant_35_n02504458_8060.png,n02504458_8060.png,1.0,6.226346,0.90341294,3.7638822
alexnet_w1_mlp_simclrhn_probe2,1,261,NaN,oven,oven,false,0261_fc_dnn_false_oven_35_n04111531_6479.png,n04111531_6479.png,1.0,0.92097634,-2.1031725,2.1383963
alexnet_w1_mlp_simclrhn_probe2,1,262,NaN,elephant,bear,true,0262_fc_dnn_true_bear_35_n02132136_4070.png,n02132136_4070.png,0.0,-0.73326635,-0.26359206,-0.33210987
alexnet_w1_mlp_simclrhn_probe2,1,263,NaN,dog,cat,false,0263_fc_dnn_false_cat_35_n02123597_1153.png,n02123597_1153.png,0.0,0.40759578,1.1070018,-0.49455476
alexnet_w1_mlp_simclrhn_probe2,1,264,NaN,truck,truck,false,0264_fc_dnn_false_truck_35_n04467665_49656.png,n04467665_49656.png,1.0,6.97377,3.1107676,2.7315552
alexnet_w1_mlp_simclrhn_probe2,1,265,NaN,dog,dog,true,0265_fc_dnn_true_dog_35_n02108915_10239.png,n02108915_10239.png,1.0,2.3921664,-3.1663609,3.9304721
alexnet_w1_mlp_simclrhn_probe2,1,266,NaN,chair,chair,false,0266_fc_dnn_false_chair_35_n04429376_6835.png,n04429376_6835.png,1.0,0.21841317,-0.041284006,0.18363363
alexnet_w1_mlp_simclrhn_probe2,1,267,NaN,truck,truck,true,0267_fc_dnn_true_truck_35_n04467665_54079.png,n04467665_54079.png,1.0,1.563462,0.6845498,0.6214848
alexnet_w1_mlp_simclrhn_probe2,1,268,NaN,clock,clock,false,0268_fc_dnn_false_clock_35_n03196217_4464.png,n03196217_4464.png,1.0,6.334847,3.4504828,2.0395534
alexnet_w1_mlp_simclrhn_probe2,1,269,NaN,dog,dog,true,0269_fc_dnn_true_dog_35_n02102318_9359.png,n02102318_9359.png,1.0,1.5451216,0.74297035,0.56720656
alexnet_w1_mlp_simclrhn_probe2,1,270,NaN,bicycle,bicycle,true,0270_fc_dnn_true_bicycle_35_n03792782_12578.png,n03792782_12578.png,1.0,4.7119703,-2.9768336,5.4368052
alexnet_w1_mlp_simclrhn_probe2,1,271,NaN,bicycle,bicycle,true,0271_fc_dnn_true_bicycle_35_n02835271_12752.png,n02835271_12752.png,1.0,10.912237,-4.0561094,10.58422
alexnet_w1_mlp_simclrhn_probe2,1,272,NaN,oven,oven,true,0272_fc_dnn_true_oven_35_n04111531_20056.png,n04111531_20056.png,1.0,2.0370777,-2.148106,2.9593718
alexnet_w1_mlp_simclrhn_probe2,1,273,NaN,oven,oven,true,0273_fc_dnn_true_oven_35_n04111531_12510.png,n04111531_12510.png,1.0,1.0795838,-1.6666337,1.941869
alexnet_w1_mlp_simclrhn_probe2,1,274,NaN,oven,oven,false,0274_fc_dnn_false_oven_35_n04111531_11079.png,n04111531_11079.png,1.0,5.5574064,0.2476035,3.7545977
alexnet_w1_mlp_simclrhn_probe2,1,275,NaN,cat,cat,true,0275_fc_dnn_true_cat_35_n02124075_4377.png,n02124075_4377.png,1.0,1.5183972,-2.5825624,2.8998165
alexnet_w1_mlp_simclrhn_probe2,1,276,NaN,airplane,knife,true,0276_fc_dnn_true_knife_35_n03041632_20517.png,n03041632_20517.png,0.0,1.4467878,2.1952446,-0.5292388
alexnet_w1_mlp_simclrhn_probe2,1,277,NaN,knife,knife,false,0277_fc_dnn_false_knife_35_n03041632_362.png,n03041632_362.png,1.0,1.4585485,-3.013899,3.162498
alexnet_w1_mlp_simclrhn_probe2,1,278,NaN,airplane,airplane,false,0278_fc_dnn_false_airplane_35_n02690373_6807.png,n02690373_6807.png,1.0,6.340395,3.1932034,2.2254004
alexnet_w1_mlp_simclrhn_probe2,1,279,NaN,elephant,elephant,false,0279_fc_dnn_false_elephant_35_n02504013_1494.png,n02504013_1494.png,1.0,11.331728,3.7641227,5.3511047
alexnet_w1_mlp_simclrhn_probe2,1,280,NaN,oven,oven,false,0280_fc_dnn_false_oven_35_n04111531_3181.png,n04111531_3181.png,1.0,0.34428668,-1.8272402,1.5355015
alexnet_w1_mlp_simclrhn_probe2,1,281,NaN,car,truck,false,0281_fc_dnn_false_truck_35_n03796401_6727.png,n03796401_6727.png,0.0,8.034592,11.287637,-2.3002503
alexnet_w1_mlp_simclrhn_probe2,1,282,NaN,elephant,dog,true,0282_fc_dnn_true_dog_35_n02113023_6956.png,n02113023_6956.png,0.0,1.029459,2.9307833,-1.3444393
alexnet_w1_mlp_simclrhn_probe2,1,283,NaN,bicycle,elephant,false,0283_fc_dnn_false_elephant_35_n02504013_1519.png,n02504013_1519.png,0.0,-1.0149162,-0.68417656,-0.23386823
alexnet_w1_mlp_simclrhn_probe2,1,284,NaN,oven,oven,false,0284_fc_dnn_false_oven_35_n04111531_8082.png,n04111531_8082.png,1.0,2.1509953,0.38781413,1.2467573
alexnet_w1_mlp_simclrhn_probe2,1,285,NaN,oven,oven,false,0285_fc_dnn_false_oven_35_n04111531_550.png,n04111531_550.png,1.0,1.4417268,0.77984226,0.46802306
alexnet_w1_mlp_simclrhn_probe2,1,286,NaN,knife,clock,false,0286_fc_dnn_false_clock_35_n02708093_2242.png,n02708093_2242.png,0.0,-4.5221543,-1.6507015,-2.0304239
alexnet_w1_mlp_simclrhn_probe2,1,287,NaN,airplane,airplane,true,0287_fc_dnn_true_airplane_35_n02690373_10809.png,n02690373_10809.png,1.0,7.205659,-1.277604,5.998573
alexnet_w1_mlp_simclrhn_probe2,1,288,NaN,bird,bird,false,0288_fc_dnn_false_bird_35_n02037110_6501.png,n02037110_6501.png,1.0,2.769181,-3.7455878,4.606637
alexnet_w1_mlp_simclrhn_probe2,1,289,NaN,airplane,airplane,false,0289_fc_dnn_false_airplane_35_n02690373_12756.png,n02690373_12756.png,1.0,6.181312,1.0504805,3.628046
alexnet_w1_mlp_simclrhn_probe2,1,290,NaN,oven,bottle,false,0290_fc_dnn_false_bottle_35_n03983396_5413.png,n03983396_5413.png,0.0,-0.7635235,1.3499811,-1.4944735
alexnet_w1_mlp_simclrhn_probe2,1,291,NaN,bird,bird,true,0291_fc_dnn_true_bird_35_n01560419_631.png,n01560419_631.png,1.0,4.381145,-4.366915,6.185813
alexnet_w1_mlp_simclrhn_probe2,1,292,NaN,cat,cat,true,0292_fc_dnn_true_cat_35_n02123394_4734.png,n02123394_4734.png,1.0,-0.3111256,-0.56213737,0.17749213
alexnet_w1_mlp_simclrhn_probe2,1,293,NaN,bottle,bottle,true,0293_fc_dnn_true_bottle_35_n03937543_469.png,n03937543_469.png,1.0,-0.12840274,-0.8553513,0.5140303
alexnet_w1_mlp_simclrhn_probe2,1,294,NaN,clock,clock,true,0294_fc_dnn_true_clock_35_n04548280_1055.png,n04548280_1055.png,1.0,2.860503,0.14518797,1.9200176
alexnet_w1_mlp_simclrhn_probe2,1,295,NaN,knife,chair,true,0295_fc_dnn_true_chair_35_n02791124_15934.png,n02791124_15934.png,0.0,-0.7752583,-0.17047688,-0.42764503
alexnet_w1_mlp_simclrhn_probe2,1,296,NaN,cat,keyboard,true,0296_fc_dnn_true_keyboard_35_n03085013_22187.png,n03085013_22187.png,0.0,-6.69743,2.6975396,-6.643247
alexnet_w1_mlp_simclrhn_probe2,1,297,NaN,dog,dog,false,0297_fc_dnn_false_dog_35_n02099601_8560.png,n02099601_8560.png,1.0,2.048399,1.6954417,0.24957846
alexnet_w1_mlp_simclrhn_probe2,1,298,NaN,truck,truck,true,0298_fc_dnn_true_truck_35_n03417042_11091.png,n03417042_11091.png,1.0,6.905414,2.9261477,2.8137662
alexnet_w1_mlp_simclrhn_probe2,1,299,NaN,bicycle,bird,true,0299_fc_dnn_true_bird_35_n02013706_7132.png,n02013706_7132.png,0.0,-0.14864387,0.22498876,-0.26419815
alexnet_w1_mlp_simclrhn_probe2,1,300,NaN,car,car,false,0300_fc_dnn_false_car_35_n02814533_4978.png,n02814533_4978.png,1.0,6.509598,4.389304,1.499274
alexnet_w1_mlp_simclrhn_probe2,1,301,NaN,bear,bear,true,0301_fc_dnn_true_bear_35_n02134418_6244.png,n02134418_6244.png,1.0,3.6043386,-0.17695159,2.6737761
alexnet_w1_mlp_simclrhn_probe2,1,302,NaN,bicycle,bicycle,false,0302_fc_dnn_false_bicycle_35_n03792782_50569.png,n03792782_50569.png,1.0,10.320986,0.47713023,6.960657
alexnet_w1_mlp_simclrhn_probe2,1,303,NaN,car,car,true,0303_fc_dnn_true_car_35_n03100240_2632.png,n03100240_2632.png,1.0,4.731825,3.3991842,0.9423193
alexnet_w1_mlp_simclrhn_probe2,1,304,NaN,knife,knife,false,0304_fc_dnn_false_knife_35_n03041632_11285.png,n03041632_11285.png,1.0,1.6908071,-0.5223408,1.5649319
alexnet_w1_mlp_simclrhn_probe2,1,305,NaN,knife,knife,false,0305_fc_dnn_false_knife_35_n03041632_39952.png,n03041632_39952.png,1.0,2.8341465,-1.1107341,2.7894518
alexnet_w1_mlp_simclrhn_probe2,1,306,NaN,chair,chair,true,0306_fc_dnn_true_chair_35_n04099969_9745.png,n04099969_9745.png,1.0,0.38885832,-0.23684746,0.4424408
alexnet_w1_mlp_simclrhn_probe2,1,307,NaN,car,car,true,0307_fc_dnn_true_car_35_n03100240_49.png,n03100240_49.png,1.0,15.144592,13.505723,1.1588556
alexnet_w1_mlp_simclrhn_probe2,1,308,NaN,cat,bird,true,0308_fc_dnn_true_bird_35_n01817953_5953.png,n01817953_5953.png,0.0,-3.6073382,-2.1181223,-1.0530347
alexnet_w1_mlp_simclrhn_probe2,1,309,NaN,bear,bear,false,0309_fc_dnn_false_bear_35_n02134418_5253.png,n02134418_5253.png,1.0,2.8313491,1.619473,0.85692585
alexnet_w1_mlp_simclrhn_probe2,1,310,NaN,bicycle,bicycle,false,0310_fc_dnn_false_bicycle_35_n03792782_7576.png,n03792782_7576.png,1.0,7.5880346,-2.8053813,7.3492546
alexnet_w1_mlp_simclrhn_probe2,1,311,NaN,clock,keyboard,true,0311_fc_dnn_true_keyboard_35_n03085013_5157.png,n03085013_5157.png,0.0,-1.8923163,1.0419345,-2.0748286
alexnet_w1_mlp_simclrhn_probe2,1,312,NaN,airplane,boat,true,0312_fc_dnn_true_boat_35_n03344393_7050.png,n03344393_7050.png,0.0,-0.9647683,1.1836278,-1.5191454
alexnet_w1_mlp_simclrhn_probe2,1,313,NaN,bicycle,bicycle,false,0313_fc_dnn_false_bicycle_35_n03792782_51335.png,n03792782_51335.png,1.0,6.143471,-2.2090738,5.9061413
alexnet_w1_mlp_simclrhn_probe2,1,314,NaN,cat,cat,true,0314_fc_dnn_true_cat_35_n02124075_7230.png,n02124075_7230.png,1.0,1.4757757,-1.3809588,2.0200164
alexnet_w1_mlp_simclrhn_probe2,1,315,NaN,airplane,truck,true,0315_fc_dnn_true_truck_35_n04467665_68020.png,n04467665_68020.png,0.0,-0.87862223,2.6091814,-2.4662497
alexnet_w1_mlp_simclrhn_probe2,1,316,NaN,elephant,elephant,true,0316_fc_dnn_true_elephant_35_n02504458_2970.png,n02504458_2970.png,1.0,0.1441901,-0.8719428,0.7185145
alexnet_w1_mlp_simclrhn_probe2,1,317,NaN,bicycle,bicycle,false,0317_fc_dnn_false_bicycle_35_n02835271_2714.png,n02835271_2714.png,1.0,10.911732,0.26476264,7.528544
alexnet_w1_mlp_simclrhn_probe2,1,318,NaN,elephant,elephant,true,0318_fc_dnn_true_elephant_35_n02504013_3307.png,n02504013_3307.png,1.0,7.486868,4.4419346,2.153093
alexnet_w1_mlp_simclrhn_probe2,1,319,NaN,truck,truck,true,0319_fc_dnn_true_truck_35_n03796401_3940.png,n03796401_3940.png,1.0,6.931486,3.9714015,2.093096
alexnet_w1_mlp_simclrhn_probe2,1,320,NaN,oven,chair,false,0320_fc_dnn_false_chair_35_n04429376_5362.png,n04429376_5362.png,0.0,0.40925735,3.0304956,-1.8534954
alexnet_w1_mlp_simclrhn_probe2,1,321,NaN,cat,cat,false,0321_fc_dnn_false_cat_35_n02123159_1165.png,n02123159_1165.png,1.0,1.9086426,-0.40171057,1.6336665
alexnet_w1_mlp_simclrhn_probe2,1,322,NaN,airplane,boat,true,0322_fc_dnn_true_boat_35_n03662601_4665.png,n03662601_4665.png,0.0,1.7982972,2.9947348,-0.84600914
alexnet_w1_mlp_simclrhn_probe2,1,323,NaN,cat,cat,true,0323_fc_dnn_true_cat_35_n02124075_5067.png,n02124075_5067.png,1.0,2.0970287,-0.3062484,1.6993736
alexnet_w1_mlp_simclrhn_probe2,1,324,NaN,knife,knife,true,0324_fc_dnn_true_knife_35_n03041632_22480.png,n03041632_22480.png,1.0,0.41377974,-4.1839733,3.2511024
alexnet_w1_mlp_simclrhn_probe2,1,325,NaN,bicycle,bottle,false,0325_fc_dnn_false_bottle_35_n04560804_2539.png,n04560804_2539.png,0.0,-3.5826068,2.9282546,-4.603874
alexnet_w1_mlp_simclrhn_probe2,1,326,NaN,oven,oven,true,0326_fc_dnn_true_oven_35_n04111531_8681.png,n04111531_8681.png,1.0,2.25316,-0.78133816,2.1457143
alexnet_w1_mlp_simclrhn_probe2,1,327,NaN,car,car,false,0327_fc_dnn_false_car_35_n03100240_23804.png,n03100240_23804.png,1.0,13.172508,9.620014,2.5119927
alexnet_w1_mlp_simclrhn_probe2,1,328,NaN,oven,oven,true,0328_fc_dnn_true_oven_35_n04111531_547.png,n04111531_547.png,1.0,5.1327887,-0.41192096,3.920702
alexnet_w1_mlp_simclrhn_probe2,1,329,NaN,boat,boat,false,0329_fc_dnn_false_boat_35_n04273569_9873.png,n04273569_9873.png,1.0,5.9704638,0.23909451,4.05269
alexnet_w1_mlp_simclrhn_probe2,1,330,NaN,cat,cat,false,0330_fc_dnn_false_cat_35_n02123597_13140.png,n02123597_13140.png,1.0,1.8783693,0.4361461,1.0198058
alexnet_w1_mlp_simclrhn_probe2,1,331,NaN,bear,bear,true,0331_fc_dnn_true_bear_35_n02134418_1330.png,n02134418_1330.png,1.0,2.157907,-0.5563568,1.9192744
alexnet_w1_mlp_simclrhn_probe2,1,332,NaN,oven,chair,false,0332_fc_dnn_false_chair_35_n04429376_6272.png,n04429376_6272.png,0.0,0.43190205,1.0545483,-0.44027737
alexnet_w1_mlp_simclrhn_probe2,1,333,NaN,bear,bear,false,0333_fc_dnn_false_bear_35_n02134084_22997.png,n02134084_22997.png,1.0,0.82102454,-0.13514526,0.67611414
alexnet_w1_mlp_simclrhn_probe2,1,334,NaN,oven,clock,false,0334_fc_dnn_false_clock_35_n03196217_3508.png,n03196217_3508.png,0.0,0.11370572,2.908115,-1.9759458
alexnet_w1_mlp_simclrhn_probe2,1,335,NaN,truck,chair,true,0335_fc_dnn_true_chair_35_n02791124_958.png,n02791124_958.png,0.0,0.15402275,0.48017555,-0.23062485
alexnet_w1_mlp_simclrhn_probe2,1,336,NaN,boat,boat,false,0336_fc_dnn_false_boat_35_n03344393_4012.png,n03344393_4012.png,1.0,2.8920512,1.3877202,1.0637226
alexnet_w1_mlp_simclrhn_probe2,1,337,NaN,airplane,airplane,true,0337_fc_dnn_true_airplane_35_n02690373_4921.png,n02690373_4921.png,1.0,9.538,2.7543912,4.796736
alexnet_w1_mlp_simclrhn_probe2,1,338,NaN,bear,cat,false,0338_fc_dnn_false_cat_35_n02125311_28052.png,n02125311_28052.png,0.0,0.47618857,1.1074691,-0.44638276
alexnet_w1_mlp_simclrhn_probe2,1,339,NaN,airplane,airplane,false,0339_fc_dnn_false_airplane_35_n02690373_1837.png,n02690373_1837.png,1.0,1.2063802,0.16549732,0.7360154
alexnet_w1_mlp_simclrhn_probe2,1,340,NaN,elephant,elephant,false,0340_fc_dnn_false_elephant_35_n02504458_5191.png,n02504458_5191.png,1.0,9.24551,0.83810693,5.944932
alexnet_w1_mlp_simclrhn_probe2,1,341,NaN,bird,bird,false,0341_fc_dnn_false_bird_35_n01855672_2187.png,n01855672_2187.png,1.0,-0.26425892,-1.212975,0.6708436
alexnet_w1_mlp_simclrhn_probe2,1,342,NaN,clock,clock,true,0342_fc_dnn_true_clock_35_n04548280_7794.png,n04548280_7794.png,1.0,3.6605055,-1.4991477,3.6484258
alexnet_w1_mlp_simclrhn_probe2,1,343,NaN,keyboard,clock,false,0343_fc_dnn_false_clock_35_n03196217_8489.png,n03196217_8489.png,0.0,-3.9869983,1.5377147,-3.906562
alexnet_w1_mlp_simclrhn_probe2,1,344,NaN,knife,knife,false,0344_fc_dnn_false_knife_35_n03041632_21590.png,n03041632_21590.png,1.0,0.14596336,-0.32813057,0.33523503
alexnet_w1_mlp_simclrhn_probe2,1,345,NaN,elephant,elephant,false,0345_fc_dnn_false_elephant_35_n02504458_1249.png,n02504458_1249.png,1.0,14.776771,0.3118992,10.228209
alexnet_w1_mlp_simclrhn_probe2,1,346,NaN,keyboard,keyboard,false,0346_fc_dnn_false_keyboard_35_n04505470_4549.png,n04505470_4549.png,1.0,4.912311,2.0627882,2.014917
alexnet_w1_mlp_simclrhn_probe2,1,347,NaN,elephant,elephant,false,0347_fc_dnn_false_elephant_35_n02504013_3771.png,n02504013_3771.png,1.0,5.5648932,-0.4723145,4.2689505
alexnet_w1_mlp_simclrhn_probe2,1,348,NaN,bicycle,bicycle,true,0348_fc_dnn_true_bicycle_35_n02835271_19552.png,n02835271_19552.png,1.0,12.453247,1.4939935,7.7493625
alexnet_w1_mlp_simclrhn_probe2,1,349,NaN,elephant,bear,true,0349_fc_dnn_true_bear_35_n02134084_4477.png,n02134084_4477.png,0.0,-1.1919221,-0.04263687,-0.81266737
alexnet_w1_mlp_simclrhn_probe2,1,350,NaN,elephant,elephant,false,0350_fc_dnn_false_elephant_35_n02504013_10149.png,n02504013_10149.png,1.0,18.685276,3.9457355,10.422429
alexnet_w1_mlp_simclrhn_probe2,1,351,NaN,boat,boat,true,0351_fc_dnn_true_boat_35_n04273569_709.png,n04273569_709.png,1.0,5.081312,3.6352034,1.0225533
alexnet_w1_mlp_simclrhn_probe2,1,352,NaN,car,car,false,0352_fc_dnn_false_car_35_n03100240_7120.png,n03100240_7120.png,1.0,14.747424,10.394604,3.0779088
alexnet_w1_mlp_simclrhn_probe2,1,353,NaN,car,boat,false,0353_fc_dnn_false_boat_35_n02951358_12867.png,n02951358_12867.png,0.0,-0.550213,6.273168,-4.824859
alexnet_w1_mlp_simclrhn_probe2,1,354,NaN,bird,bird,true,0354_fc_dnn_true_bird_35_n01558993_38999.png,n01558993_38999.png,1.0,2.2648942,-5.057919,5.178011
alexnet_w1_mlp_simclrhn_probe2,1,355,NaN,bicycle,bicycle,false,0355_fc_dnn_false_bicycle_35_n03792782_4210.png,n03792782_4210.png,1.0,2.8518107,0.03327198,1.9930078
alexnet_w1_mlp_simclrhn_probe2,1,356,NaN,dog,dog,false,0356_fc_dnn_false_dog_35_n02102318_11997.png,n02102318_11997.png,1.0,3.841186,0.6129699,2.2826936
alexnet_w1_mlp_simclrhn_probe2,1,357,NaN,knife,clock,false,0357_fc_dnn_false_clock_35_n02708093_6813.png,n02708093_6813.png,0.0,-3.13149,-0.6705429,-1.7401524
alexnet_w1_mlp_simclrhn_probe2,1,358,NaN,oven,oven,false,0358_fc_dnn_false_oven_35_n04111531_8036.png,n04111531_8036.png,1.0,5.651044,-2.025605,5.4282107
alexnet_w1_mlp_simclrhn_probe2,1,359,NaN,clock,clock,false,0359_fc_dnn_false_clock_35_n02708093_3454.png,n02708093_3454.png,1.0,11.66142,-0.39278194,8.523608
alexnet_w1_mlp_simclrhn_probe2,1,360,NaN,keyboard,keyboard,true,0360_fc_dnn_true_keyboard_35_n03085013_21641.png,n03085013_21641.png,1.0,11.829896,-1.0367746,9.09811
alexnet_w1_mlp_simclrhn_probe2,1,361,NaN,oven,chair,false,0361_fc_dnn_false_chair_35_n02791124_139.png,n02791124_139.png,0.0,0.13427821,1.3071041,-0.82931316
alexnet_w1_mlp_simclrhn_probe2,1,362,NaN,dog,bear,false,0362_fc_dnn_false_bear_35_n02134084_6821.png,n02134084_6821.png,0.0,-1.2789423,1.5539275,-2.0031416
alexnet_w1_mlp_simclrhn_probe2,1,363,NaN,cat,cat,false,0363_fc_dnn_false_cat_35_n02124075_5874.png,n02124075_5874.png,1.0,3.913346,-0.39657587,3.047575
alexnet_w1_mlp_simclrhn_probe2,1,364,NaN,boat,chair,false,0364_fc_dnn_false_chair_35_n04099969_8604.png,n04099969_8604.png,0.0,0.41870558,0.45000204,-0.02212994
alexnet_w1_mlp_simclrhn_probe2,1,365,NaN,bicycle,bicycle,true,0365_fc_dnn_true_bicycle_35_n02835271_15524.png,n02835271_15524.png,1.0,9.177882,-2.169733,8.023975
alexnet_w1_mlp_simclrhn_probe2,1,366,NaN,chair,chair,false,0366_fc_dnn_false_chair_35_n04429376_55163.png,n04429376_55163.png,1.0,4.279334,1.8425996,1.7230315
alexnet_w1_mlp_simclrhn_probe2,1,367,NaN,dog,dog,true,0367_fc_dnn_true_dog_35_n02106662_10632.png,n02106662_10632.png,1.0,3.640879,-1.6177919,3.718442
alexnet_w1_mlp_simclrhn_probe2,1,368,NaN,car,car,false,0368_fc_dnn_false_car_35_n03100240_9675.png,n03100240_9675.png,1.0,11.637149,4.846908,4.8014255
alexnet_w1_mlp_simclrhn_probe2,1,369,NaN,bird,bird,true,0369_fc_dnn_true_bird_35_n02011460_22291.png,n02011460_22291.png,1.0,2.9845946,-4.2129807,5.0894547
alexnet_w1_mlp_simclrhn_probe2,1,370,NaN,cat,dog,false,0370_fc_dnn_false_dog_35_n02106662_56099.png,n02106662_56099.png,0.0,0.5664798,2.3907268,-1.2899375
alexnet_w1_mlp_simclrhn_probe2,1,371,NaN,keyboard,keyboard,false,0371_fc_dnn_false_keyboard_35_n04505470_3970.png,n04505470_3970.png,1.0,11.125856,3.5354817,5.3672056
alexnet_w1_mlp_simclrhn_probe2,1,372,NaN,boat,boat,false,0372_fc_dnn_false_boat_35_n03662601_32803.png,n03662601_32803.png,1.0,6.983886,-0.120423615,5.0235057
alexnet_w1_mlp_simclrhn_probe2,1,373,NaN,bottle,bottle,false,0373_fc_dnn_false_bottle_35_n02823428_4043.png,n02823428_4043.png,1.0,4.842819,-0.77683306,3.9736943
alexnet_w1_mlp_simclrhn_probe2,1,374,NaN,airplane,airplane,true,0374_fc_dnn_true_airplane_35_n02690373_5221.png,n02690373_5221.png,1.0,9.503425,2.226754,5.145383
alexnet_w1_mlp_simclrhn_probe2,1,375,NaN,bottle,knife,false,0375_fc_dnn_false_knife_35_n03041632_90125.png,n03041632_90125.png,0.0,-1.733449,1.4387991,-2.2431183
alexnet_w1_mlp_simclrhn_probe2,1,376,NaN,oven,oven,false,0376_fc_dnn_false_oven_35_n04111531_11230.png,n04111531_11230.png,1.0,6.9232693,0.5474546,4.508382
alexnet_w1_mlp_simclrhn_probe2,1,377,NaN,keyboard,keyboard,true,0377_fc_dnn_true_keyboard_35_n04505470_3002.png,n04505470_3002.png,1.0,1.3729829,-1.057862,1.7188668
alexnet_w1_mlp_simclrhn_probe2,1,378,NaN,bicycle,bicycle,true,0378_fc_dnn_true_bicycle_35_n02835271_12237.png,n02835271_12237.png,1.0,8.061895,-2.0559268,7.1543813
alexnet_w1_mlp_simclrhn_probe2,1,379,NaN,oven,dog,false,0379_fc_dnn_false_dog_35_n02088238_9947.png,n02088238_9947.png,0.0,-4.6980805,1.5286267,-4.402947
alexnet_w1_mlp_simclrhn_probe2,1,380,NaN,airplane,airplane,false,0380_fc_dnn_false_airplane_35_n02690373_2075.png,n02690373_2075.png,1.0,0.84900093,0.03715822,0.5740595
alexnet_w1_mlp_simclrhn_probe2,1,381,NaN,bicycle,bicycle,false,0381_fc_dnn_false_bicycle_35_n02835271_12930.png,n02835271_12930.png,1.0,9.140057,-2.5461378,8.263388
alexnet_w1_mlp_simclrhn_probe2,1,382,NaN,dog,dog,false,0382_fc_dnn_false_dog_35_n02096294_4609.png,n02096294_4609.png,1.0,0.65306777,-0.03942168,0.489664
alexnet_w1_mlp_simclrhn_probe2,1,383,NaN,oven,knife,false,0383_fc_dnn_false_knife_35_n03041632_15754.png,n03041632_15754.png,0.0,0.3501786,1.2272975,-0.6202168
alexnet_w1_mlp_simclrhn_probe2,1,384,NaN,elephant,bird,true,0384_fc_dnn_true_bird_35_n01819313_5634.png,n01819313_5634.png,0.0,-0.30653748,0.34185395,-0.45848197
alexnet_w1_mlp_simclrhn_probe2,1,385,NaN,clock,clock,true,0385_fc_dnn_true_clock_35_n02708093_8386.png,n02708093_8386.png,1.0,3.1383846,-0.27862808,2.4161928
alexnet_w1_mlp_simclrhn_probe2,1,386,NaN,bottle,bottle,false,0386_fc_dnn_false_bottle_35_n04579145_6435.png,n04579145_6435.png,1.0,5.650927,0.3174691,3.7713244
alexnet_w1_mlp_simclrhn_probe2,1,387,NaN,airplane,airplane,true,0387_fc_dnn_true_airplane_35_n02690373_9531.png,n02690373_9531.png,1.0,3.2989712,2.191982,0.78275955
alexnet_w1_mlp_simclrhn_probe2,1,388,NaN,chair,bottle,true,0388_fc_dnn_true_bottle_35_n04591713_5518.png,n04591713_5518.png,0.0,-1.5210725,1.1706433,-1.9033304
alexnet_w1_mlp_simclrhn_probe2,1,389,NaN,airplane,airplane,false,0389_fc_dnn_false_airplane_35_n02690373_12896.png,n02690373_12896.png,1.0,5.473859,0.78824794,3.3132272
alexnet_w1_mlp_simclrhn_probe2,1,390,NaN,truck,truck,false,0390_fc_dnn_false_truck_35_n03796401_124.png,n03796401_124.png,1.0,1.6197046,0.59786355,0.72255075
alexnet_w1_mlp_simclrhn_probe2,1,391,NaN,bicycle,bicycle,true,0391_fc_dnn_true_bicycle_35_n03792782_7050.png,n03792782_7050.png,1.0,0.3489319,-0.119695306,0.3313695
alexnet_w1_mlp_simclrhn_probe2,1,392,NaN,bicycle,bicycle,true,0392_fc_dnn_true_bicycle_35_n02835271_13729.png,n02835271_13729.png,1.0,9.22047,0.46284065,6.1925793
alexnet_w1_mlp_simclrhn_probe2,1,393,NaN,bird,bird,false,0393_fc_dnn_false_bird_35_n02027492_3922.png,n02027492_3922.png,1.0,-0.47320276,-1.5801721,0.78274554
alexnet_w1_mlp_simclrhn_probe2,1,394,NaN,elephant,elephant,true,0394_fc_dnn_true_elephant_35_n02504013_9809.png,n02504013_9809.png,1.0,8.46067,-0.19447987,6.1201158
alexnet_w1_mlp_simclrhn_probe2,1,395,NaN,keyboard,keyboard,false,0395_fc_dnn_false_keyboard_35_n04505470_5086.png,n04505470_5086.png,1.0,3.6514373,-0.51644367,2.9471369
alexnet_w1_mlp_simclrhn_probe2,1,396,NaN,keyboard,keyboard,true,0396_fc_dnn_true_keyboard_35_n03085013_19439.png,n03085013_19439.png,1.0,3.7616568,-0.10710521,2.735628
alexnet_w1_mlp_simclrhn_probe2,1,397,NaN,airplane,airplane,false,0397_fc_dnn_false_airplane_35_n02690373_9926.png,n02690373_9926.png,1.0,6.2643332,-0.50731945,4.7882814
alexnet_w1_mlp_simclrhn_probe2,1,398,NaN,elephant,elephant,true,0398_fc_dnn_true_elephant_35_n02504458_3197.png,n02504458_3197.png,1.0,16.923018,5.677678,7.951656
alexnet_w1_mlp_simclrhn_probe2,1,399,NaN,dog,dog,false,0399_fc_dnn_false_dog_35_n02110185_14056.png,n02110185_14056.png,1.0,3.4553812,-2.3190901,4.083168
alexnet_w1_mlp_simclrhn_probe2,1,400,NaN,airplane,airplane,true,0400_fc_dnn_true_airplane_35_n02690373_2823.png,n02690373_2823.png,1.0,9.047426,4.585607,3.1549826
alexnet_w1_mlp_simclrhn_probe2,1,401,NaN,bicycle,bicycle,false,0401_fc_dnn_false_bicycle_35_n02835271_14157.png,n02835271_14157.png,1.0,19.097496,-0.9113689,14.148405
alexnet_w1_mlp_simclrhn_probe2,1,402,NaN,chair,chair,true,0402_fc_dnn_true_chair_35_n03376595_606.png,n03376595_606.png,1.0,1.3394909,0.76171017,0.40855268
alexnet_w1_mlp_simclrhn_probe2,1,403,NaN,airplane,airplane,false,0403_fc_dnn_false_airplane_35_n02690373_1442.png,n02690373_1442.png,1.0,5.325664,-1.6269236,4.916222
alexnet_w1_mlp_simclrhn_probe2,1,404,NaN,keyboard,keyboard,true,0404_fc_dnn_true_keyboard_35_n04505470_10035.png,n04505470_10035.png,1.0,5.379296,2.1338007,2.2949116
alexnet_w1_mlp_simclrhn_probe2,1,405,NaN,elephant,bear,true,0405_fc_dnn_true_bear_35_n02133161_13278.png,n02133161_13278.png,0.0,2.5726933,4.3300085,-1.2426095
alexnet_w1_mlp_simclrhn_probe2,1,406,NaN,elephant,bear,true,0406_fc_dnn_true_bear_35_n02134418_2657.png,n02134418_2657.png,0.0,0.26203755,0.5158204,-0.17945157
alexnet_w1_mlp_simclrhn_probe2,1,407,NaN,bear,bear,false,0407_fc_dnn_false_bear_35_n02133161_12894.png,n02133161_12894.png,1.0,1.4137042,0.36133024,0.74414074
alexnet_w1_mlp_simclrhn_probe2,1,408,NaN,car,clock,false,0408_fc_dnn_false_clock_35_n03196217_6195.png,n03196217_6195.png,0.0,1.1977528,4.2191763,-2.136469
alexnet_w1_mlp_simclrhn_probe2,1,409,NaN,bottle,bottle,true,0409_fc_dnn_true_bottle_35_n04591713_13349.png,n04591713_13349.png,1.0,2.9018414,1.5742848,0.9387243
alexnet_w1_mlp_simclrhn_probe2,1,410,NaN,boat,boat,false,0410_fc_dnn_false_boat_35_n04273569_16295.png,n04273569_16295.png,1.0,1.7449582,1.7249875,0.014121386
alexnet_w1_mlp_simclrhn_probe2,1,411,NaN,elephant,elephant,false,0411_fc_dnn_false_elephant_35_n02504013_2672.png,n02504013_2672.png,1.0,10.177245,1.128227,6.398622
alexnet_w1_mlp_simclrhn_probe2,1,412,NaN,bear,bear,true,0412_fc_dnn_true_bear_35_n02134084_22292.png,n02134084_22292.png,1.0,2.3003194,1.7132244,0.41513887
alexnet_w1_mlp_simclrhn_probe2,1,413,NaN,airplane,airplane,false,0413_fc_dnn_false_airplane_35_n02690373_997.png,n02690373_997.png,1.0,7.302763,2.8846116,3.1241047
alexnet_w1_mlp_simclrhn_probe2,1,414,NaN,oven,knife,true,0414_fc_dnn_true_knife_35_n03041632_29337.png,n03041632_29337.png,0.0,0.027729679,0.26982746,-0.17118898
alexnet_w1_mlp_simclrhn_probe2,1,415,NaN,elephant,elephant,true,0415_fc_dnn_true_elephant_35_n02504458_3261.png,n02504458_3261.png,1.0,2.72371,-0.04214704,1.9557564
alexnet_w1_mlp_simclrhn_probe2,1,416,NaN,oven,oven,true,0416_fc_dnn_true_oven_35_n04111531_22120.png,n04111531_22120.png,1.0,5.3485394,1.7519404,2.5431798
alexnet_w1_mlp_simclrhn_probe2,1,417,NaN,bear,bear,true,0417_fc_dnn_true_bear_35_n02134418_830.png,n02134418_830.png,1.0,0.82686067,0.5459793,0.1986131
alexnet_w1_mlp_simclrhn_probe2,1,418,NaN,truck,truck,false,0418_fc_dnn_false_truck_35_n03417042_2124.png,n03417042_2124.png,1.0,8.895759,3.972927,3.4809675
alexnet_w1_mlp_simclrhn_probe2,1,419,NaN,bicycle,bicycle,false,0419_fc_dnn_false_bicycle_35_n02835271_14585.png,n02835271_14585.png,1.0,8.983543,-0.23759878,6.520332
alexnet_w1_mlp_simclrhn_probe2,1,420,NaN,oven,oven,true,0420_fc_dnn_true_oven_35_n04111531_2855.png,n04111531_2855.png,1.0,4.164027,-2.3896582,4.6341553
alexnet_w1_mlp_simclrhn_probe2,1,421,NaN,cat,cat,false,0421_fc_dnn_false_cat_35_n02123394_4383.png,n02123394_4383.png,1.0,1.6685733,1.0548842,0.43394372
alexnet_w1_mlp_simclrhn_probe2,1,422,NaN,bear,cat,true,0422_fc_dnn_true_cat_35_n02125311_17068.png,n02125311_17068.png,0.0,1.8140274,1.9493732,-0.095703945
alexnet_w1_mlp_simclrhn_probe2,1,423,NaN,bird,bird,false,0423_fc_dnn_false_bird_35_n01560419_2291.png,n01560419_2291.png,1.0,4.373339,-2.537068,4.886396
alexnet_w1_mlp_simclrhn_probe2,1,424,NaN,bird,bird,false,0424_fc_dnn_false_bird_35_n01829413_2459.png,n01829413_2459.png,1.0,-0.18041965,-0.25858653,0.055272326
alexnet_w1_mlp_simclrhn_probe2,1,425,NaN,oven,oven,true,0425_fc_dnn_true_oven_35_n04111531_13822.png,n04111531_13822.png,1.0,3.1071696,-0.95707065,2.873852
alexnet_w1_mlp_simclrhn_probe2,1,426,NaN,bear,bear,false,0426_fc_dnn_false_bear_35_n02133161_5067.png,n02133161_5067.png,1.0,6.2927012,0.8722101,3.8328662
alexnet_w1_mlp_simclrhn_probe2,1,427,NaN,knife,chair,false,0427_fc_dnn_false_chair_35_n02791124_885.png,n02791124_885.png,0.0,-0.6389571,-0.22711757,-0.29121453
alexnet_w1_mlp_simclrhn_probe2,1,428,NaN,cat,dog,true,0428_fc_dnn_true_dog_35_n02107312_7182.png,n02107312_7182.png,0.0,-0.38420683,1.9331323,-1.6386063
alexnet_w1_mlp_simclrhn_probe2,1,429,NaN,truck,truck,true,0429_fc_dnn_true_truck_35_n04467665_13989.png,n04467665_13989.png,1.0,2.1525736,1.3556781,0.5634902
alexnet_w1_mlp_simclrhn_probe2,1,430,NaN,dog,dog,true,0430_fc_dnn_true_dog_35_n02102480_10232.png,n02102480_10232.png,1.0,0.15338688,0.041900262,0.07883294
alexnet_w1_mlp_simclrhn_probe2,1,431,NaN,oven,oven,false,0431_fc_dnn_false_oven_35_n04111531_643.png,n04111531_643.png,1.0,7.0892773,0.91365266,4.366826
alexnet_w1_mlp_simclrhn_probe2,1,432,NaN,boat,boat,true,0432_fc_dnn_true_boat_35_n02951358_31514.png,n02951358_31514.png,1.0,2.0056093,0.8833141,0.7935825
alexnet_w1_mlp_simclrhn_probe2,1,433,NaN,oven,oven,true,0433_fc_dnn_true_oven_35_n04111531_1898.png,n04111531_1898.png,1.0,7.205975,1.4599705,4.063039
alexnet_w1_mlp_simclrhn_probe2,1,434,NaN,car,car,true,0434_fc_dnn_true_car_35_n03100240_5865.png,n03100240_5865.png,1.0,4.7765822,-0.0044130385,3.3806744
alexnet_w1_mlp_simclrhn_probe2,1,435,NaN,keyboard,keyboard,true,0435_fc_dnn_true_keyboard_35_n04505470_4369.png,n04505470_4369.png,1.0,12.320452,2.6302767,6.851989
alexnet_w1_mlp_simclrhn_probe2,1,436,NaN,cat,cat,false,0436_fc_dnn_false_cat_35_n02123394_1942.png,n02123394_1942.png,1.0,2.7717001,0.38450035,1.6880052
alexnet_w1_mlp_simclrhn_probe2,1,437,NaN,car,car,true,0437_fc_dnn_true_car_35_n04285008_2900.png,n04285008_2900.png,1.0,8.135695,5.8831615,1.592782
alexnet_w1_mlp_simclrhn_probe2,1,438,NaN,airplane,airplane,true,0438_fc_dnn_true_airplane_35_n02690373_10926.png,n02690373_10926.png,1.0,7.468499,-0.2055172,5.426349
alexnet_w1_mlp_simclrhn_probe2,1,439,NaN,knife,knife,true,0439_fc_dnn_true_knife_35_n03041632_11613.png,n03041632_11613.png,1.0,-0.40145436,-1.865386,1.035156
alexnet_w1_mlp_simclrhn_probe2,1,440,NaN,knife,knife,true,0440_fc_dnn_true_knife_35_n03041632_24817.png,n03041632_24817.png,1.0,-0.6231835,-2.2030964,1.1171671
alexnet_w1_mlp_simclrhn_probe2,1,441,NaN,bicycle,bicycle,true,0441_fc_dnn_true_bicycle_35_n02835271_3042.png,n02835271_3042.png,1.0,10.492953,-1.5698353,8.52968
alexnet_w1_mlp_simclrhn_probe2,1,442,NaN,dog,dog,true,0442_fc_dnn_true_dog_35_n02102177_7737.png,n02102177_7737.png,1.0,0.69061774,0.07651084,0.43423915
alexnet_w1_mlp_simclrhn_probe2,1,443,NaN,oven,oven,true,0443_fc_dnn_true_oven_35_n04111531_21460.png,n04111531_21460.png,1.0,1.0636392,-1.9280685,2.1154568
alexnet_w1_mlp_simclrhn_probe2,1,444,NaN,chair,keyboard,false,0444_fc_dnn_false_keyboard_35_n04505470_7388.png,n04505470_7388.png,0.0,-2.6445246,2.00791,-3.289768
alexnet_w1_mlp_simclrhn_probe2,1,445,NaN,bird,bird,true,0445_fc_dnn_true_bird_35_n01828970_25642.png,n01828970_25642.png,1.0,3.939247,-4.972769,6.301747
alexnet_w1_mlp_simclrhn_probe2,1,446,NaN,bicycle,bicycle,false,0446_fc_dnn_false_bicycle_35_n02835271_608.png,n02835271_608.png,1.0,2.7142997,-2.4976544,3.685408
alexnet_w1_mlp_simclrhn_probe2,1,447,NaN,airplane,boat,true,0447_fc_dnn_true_boat_35_n04273569_26182.png,n04273569_26182.png,0.0,3.7308528,5.6555758,-1.3609847
alexnet_w1_mlp_simclrhn_probe2,1,448,NaN,cat,cat,false,0448_fc_dnn_false_cat_35_n02123045_9384.png,n02123045_9384.png,1.0,4.122718,-0.5139569,3.2786243
alexnet_w1_mlp_simclrhn_probe2,1,449,NaN,airplane,airplane,true,0449_fc_dnn_true_airplane_35_n02690373_9529.png,n02690373_9529.png,1.0,6.658596,-0.7350217,5.2280774
alexnet_w1_mlp_simclrhn_probe2,1,450,NaN,knife,cat,true,0450_fc_dnn_true_cat_35_n02123597_5081.png,n02123597_5081.png,0.0,-2.147894,-0.026288405,-1.5002016
alexnet_w1_mlp_simclrhn_probe2,1,451,NaN,oven,oven,false,0451_fc_dnn_false_oven_35_n04111531_4998.png,n04111531_4998.png,1.0,4.3464556,-0.5569751,3.4672494
alexnet_w1_mlp_simclrhn_probe2,1,452,NaN,clock,clock,true,0452_fc_dnn_true_clock_35_n04548280_1245.png,n04548280_1245.png,1.0,4.2670474,1.4503092,1.9917346
alexnet_w1_mlp_simclrhn_probe2,1,453,NaN,dog,dog,true,0453_fc_dnn_true_dog_35_n02104365_8609.png,n02104365_8609.png,1.0,-0.8805577,-1.4634169,0.4121437
alexnet_w1_mlp_simclrhn_probe2,1,454,NaN,clock,clock,false,0454_fc_dnn_false_clock_35_n02708093_6414.png,n02708093_6414.png,1.0,5.065557,-0.7165553,4.0885706
alexnet_w1_mlp_simclrhn_probe2,1,455,NaN,bird,bird,true,0455_fc_dnn_true_bird_35_n01798484_9155.png,n01798484_9155.png,1.0,-0.9720243,-1.4559463,0.34218454
alexnet_w1_mlp_simclrhn_probe2,1,456,NaN,bicycle,oven,true,0456_fc_dnn_true_oven_35_n04111531_10724.png,n04111531_10724.png,0.0,-2.4527478,3.5595994,-4.2513714
alexnet_w1_mlp_simclrhn_probe2,1,457,NaN,bicycle,boat,true,0457_fc_dnn_true_boat_35_n02951358_32687.png,n02951358_32687.png,0.0,1.230678,1.6085153,-0.26717132
alexnet_w1_mlp_simclrhn_probe2,1,458,NaN,bicycle,bicycle,true,0458_fc_dnn_true_bicycle_35_n02835271_31.png,n02835271_31.png,1.0,2.0865424,0.22754332,1.3145108
alexnet_w1_mlp_simclrhn_probe2,1,459,NaN,elephant,bottle,true,0459_fc_dnn_true_bottle_35_n04557648_4420.png,n04557648_4420.png,0.0,-2.6818986,0.33800894,-2.1353972
alexnet_w1_mlp_simclrhn_probe2,1,460,NaN,bear,bear,true,0460_fc_dnn_true_bear_35_n02133161_713.png,n02133161_713.png,1.0,4.0481625,1.9286684,1.4987086
alexnet_w1_mlp_simclrhn_probe2,1,461,NaN,airplane,airplane,false,0461_fc_dnn_false_airplane_35_n02690373_5967.png,n02690373_5967.png,1.0,8.122419,-0.88552076,6.369576
alexnet_w1_mlp_simclrhn_probe2,1,462,NaN,bird,bird,true,0462_fc_dnn_true_bird_35_n01795545_4502.png,n01795545_4502.png,1.0,0.7571368,-1.4861792,1.5862641
alexnet_w1_mlp_simclrhn_probe2,1,463,NaN,bear,cat,true,0463_fc_dnn_true_cat_35_n02124075_11466.png,n02124075_11466.png,0.0,0.2745799,1.7198502,-1.0219605
alexnet_w1_mlp_simclrhn_probe2,1,464,NaN,clock,keyboard,true,0464_fc_dnn_true_keyboard_35_n03085013_21769.png,n03085013_21769.png,0.0,-0.76997435,0.47755256,-0.88213474
alexnet_w1_mlp_simclrhn_probe2,1,465,NaN,keyboard,car,false,0465_fc_dnn_false_car_35_n03100240_15097.png,n03100240_15097.png,0.0,1.3668579,1.7269813,-0.2546457
alexnet_w1_mlp_simclrhn_probe2,1,466,NaN,bear,dog,false,0466_fc_dnn_false_dog_35_n02093647_3072.png,n02093647_3072.png,0.0,-1.634137,-0.23654242,-0.9882486
alexnet_w1_mlp_simclrhn_probe2,1,467,NaN,bicycle,bicycle,false,0467_fc_dnn_false_bicycle_35_n02835271_12701.png,n02835271_12701.png,1.0,3.9158487,3.0424924,0.6175562
alexnet_w1_mlp_simclrhn_probe2,1,468,NaN,dog,bear,false,0468_fc_dnn_false_bear_35_n02134084_3227.png,n02134084_3227.png,0.0,1.2778355,1.3279572,-0.03544137
alexnet_w1_mlp_simclrhn_probe2,1,469,NaN,cat,cat,true,0469_fc_dnn_true_cat_35_n02123394_5001.png,n02123394_5001.png,1.0,2.6852148,-0.6465642,2.3559237
alexnet_w1_mlp_simclrhn_probe2,1,470,NaN,oven,keyboard,true,0470_fc_dnn_true_keyboard_35_n03085013_6862.png,n03085013_6862.png,0.0,2.663526,2.7224736,-0.04168222
alexnet_w1_mlp_simclrhn_probe2,1,471,NaN,chair,chair,true,0471_fc_dnn_true_chair_35_n04099969_45461.png,n04099969_45461.png,1.0,1.9906992,1.2590309,0.5173676
alexnet_w1_mlp_simclrhn_probe2,1,472,NaN,bicycle,bicycle,false,0472_fc_dnn_false_bicycle_35_n03792782_485.png,n03792782_485.png,1.0,4.9132743,-2.048652,4.9228253
alexnet_w1_mlp_simclrhn_probe2,1,473,NaN,chair,oven,true,0473_fc_dnn_true_oven_35_n04111531_1674.png,n04111531_1674.png,0.0,-0.16614482,2.4807892,-1.871665
alexnet_w1_mlp_simclrhn_probe2,1,474,NaN,airplane,airplane,true,0474_fc_dnn_true_airplane_35_n02690373_866.png,n02690373_866.png,1.0,8.612897,1.213227,5.2323565
alexnet_w1_mlp_simclrhn_probe2,1,475,NaN,oven,oven,false,0475_fc_dnn_false_oven_35_n04111531_9297.png,n04111531_9297.png,1.0,1.365197,-1.6762071,2.1505973
alexnet_w1_mlp_simclrhn_probe2,1,476,NaN,elephant,elephant,false,0476_fc_dnn_false_elephant_35_n02504458_6878.png,n02504458_6878.png,1.0,7.152634,0.8750943,4.438891
alexnet_w1_mlp_simclrhn_probe2,1,477,NaN,car,car,true,0477_fc_dnn_true_car_35_n03100240_3151.png,n03100240_3151.png,1.0,3.675209,2.8502626,0.5833252
alexnet_w1_mlp_simclrhn_probe2,1,478,NaN,airplane,airplane,false,0478_fc_dnn_false_airplane_35_n02690373_6363.png,n02690373_6363.png,1.0,5.6738954,1.4595693,2.9799786
alexnet_w1_mlp_simclrhn_probe2,1,479,NaN,car,car,true,0479_fc_dnn_true_car_35_n04285008_15049.png,n04285008_15049.png,1.0,10.110922,6.9034996,2.26799
alexnet_w1_mlp_simclrhn_probe2,1,480,NaN,elephant,truck,true,0480_fc_dnn_true_truck_35_n04467665_2505.png,n04467665_2505.png,0.0,-2.4374316,-1.3168026,-0.79240435
alexnet_w1_mlp_simclrhn_probe2,1,481,NaN,knife,bottle,true,0481_fc_dnn_true_bottle_35_n04591713_4030.png,n04591713_4030.png,0.0,-3.4145389,-0.6659041,-1.9435784
alexnet_w1_mlp_simclrhn_probe2,1,482,NaN,oven,oven,true,0482_fc_dnn_true_oven_35_n04111531_12929.png,n04111531_12929.png,1.0,1.6697661,-0.13962024,1.2794293
alexnet_w1_mlp_simclrhn_probe2,1,483,NaN,bear,cat,true,0483_fc_dnn_true_cat_35_n02125311_53315.png,n02125311_53315.png,0.0,0.59932846,2.4392707,-1.3010356
alexnet_w1_mlp_simclrhn_probe2,1,484,NaN,cat,dog,true,0484_fc_dnn_true_dog_35_n02087046_4409.png,n02087046_4409.png,0.0,-2.185535,-0.8878606,-0.9175944
alexnet_w1_mlp_simclrhn_probe2,1,485,NaN,oven,oven,false,0485_fc_dnn_false_oven_35_n04111531_21120.png,n04111531_21120.png,1.0,3.6756217,-0.4039144,2.8846676
alexnet_w1_mlp_simclrhn_probe2,1,486,NaN,elephant,elephant,false,0486_fc_dnn_false_elephant_35_n02504013_5934.png,n02504013_5934.png,1.0,1.1155423,0.37224406,0.52559125
alexnet_w1_mlp_simclrhn_probe2,1,487,NaN,car,car,true,0487_fc_dnn_true_car_35_n04285008_3631.png,n04285008_3631.png,1.0,5.8429074,2.6009974,2.2923765
alexnet_w1_mlp_simclrhn_probe2,1,488,NaN,clock,clock,true,0488_fc_dnn_true_clock_35_n03196217_7663.png,n03196217_7663.png,1.0,1.5522274,0.7571715,0.5621894
alexnet_w1_mlp_simclrhn_probe2,1,489,NaN,elephant,bicycle,false,0489_fc_dnn_false_bicycle_35_n03792782_801.png,n03792782_801.png,0.0,0.5504377,1.7491148,-0.8475927
alexnet_w1_mlp_simclrhn_probe2,1,490,NaN,elephant,bear,false,0490_fc_dnn_false_bear_35_n02133161_6983.png,n02133161_6983.png,0.0,0.38133633,0.84542537,-0.32816052
alexnet_w1_mlp_simclrhn_probe2,1,491,NaN,keyboard,keyboard,true,0491_fc_dnn_true_keyboard_35_n03085013_20825.png,n03085013_20825.png,1.0,9.534368,-0.8381897,7.334506
alexnet_w1_mlp_simclrhn_probe2,1,492,NaN,clock,clock,true,0492_fc_dnn_true_clock_35_n03196217_1219.png,n03196217_1219.png,1.0,1.9269623,-0.20610344,1.5083052
alexnet_w1_mlp_simclrhn_probe2,1,493,NaN,airplane,airplane,true,0493_fc_dnn_true_airplane_35_n02690373_18864.png,n02690373_18864.png,1.0,3.8426645,2.7229483,0.7917589
alexnet_w1_mlp_simclrhn_probe2,1,494,NaN,knife,airplane,false,0494_fc_dnn_false_airplane_35_n02690373_1019.png,n02690373_1019.png,0.0,-0.21916723,1.8039489,-1.4305592
alexnet_w1_mlp_simclrhn_probe2,1,495,NaN,bird,bird,true,0495_fc_dnn_true_bird_35_n02013706_10478.png,n02013706_10478.png,1.0,0.2531771,-4.591434,3.4256575
alexnet_w1_mlp_simclrhn_probe2,1,496,NaN,cat,bear,true,0496_fc_dnn_true_bear_35_n02132136_258.png,n02132136_258.png,0.0,1.2627985,1.6828696,-0.29703507
alexnet_w1_mlp_simclrhn_probe2,1,497,NaN,oven,chair,false,0497_fc_dnn_false_chair_35_n04099969_16350.png,n04099969_16350.png,0.0,-6.466005,-1.864014,-3.254099
alexnet_w1_mlp_simclrhn_probe2,1,498,NaN,chair,chair,true,0498_fc_dnn_true_chair_35_n04099969_16456.png,n04099969_16456.png,1.0,2.408001,1.2058423,0.85005456
alexnet_w1_mlp_simclrhn_probe2,1,499,NaN,bottle,bottle,false,0499_fc_dnn_false_bottle_35_n03983396_12027.png,n03983396_12027.png,1.0,2.3464317,1.9143546,0.3055247
alexnet_w1_mlp_simclrhn_probe2,1,500,NaN,chair,chair,true,0500_fc_dnn_true_chair_35_n02791124_5438.png,n02791124_5438.png,1.0,3.931982,-0.0010049343,2.7810419
alexnet_w1_mlp_simclrhn_probe2,1,501,NaN,elephant,elephant,true,0501_fc_dnn_true_elephant_35_n02504458_4939.png,n02504458_4939.png,1.0,13.71515,3.9192917,6.926718
alexnet_w1_mlp_simclrhn_probe2,1,502,NaN,keyboard,keyboard,false,0502_fc_dnn_false_keyboard_35_n04505470_2600.png,n04505470_2600.png,1.0,7.4478326,-0.2816173,5.4655466
alexnet_w1_mlp_simclrhn_probe2,1,503,NaN,chair,chair,true,0503_fc_dnn_true_chair_35_n03376595_7394.png,n03376595_7394.png,1.0,1.6638665,-0.17377405,1.2994081
alexnet_w1_mlp_simclrhn_probe2,1,504,NaN,knife,bicycle,false,0504_fc_dnn_false_bicycle_35_n02835271_9772.png,n02835271_9772.png,0.0,-0.8038241,0.6318395,-1.0151676
alexnet_w1_mlp_simclrhn_probe2,1,505,NaN,car,car,true,0505_fc_dnn_true_car_35_n02814533_55937.png,n02814533_55937.png,1.0,5.3128247,1.8518934,2.447248
alexnet_w1_mlp_simclrhn_probe2,1,506,NaN,boat,airplane,true,0506_fc_dnn_true_airplane_35_n02690373_3920.png,n02690373_3920.png,0.0,3.0993001,4.146952,-0.7408019
alexnet_w1_mlp_simclrhn_probe2,1,507,NaN,oven,oven,false,0507_fc_dnn_false_oven_35_n04111531_6400.png,n04111531_6400.png,1.0,1.7738059,-0.43711615,1.563358
alexnet_w1_mlp_simclrhn_probe2,1,508,NaN,bicycle,truck,false,0508_fc_dnn_false_truck_35_n03417042_4587.png,n03417042_4587.png,0.0,-0.69441116,5.0649567,-4.0724883
alexnet_w1_mlp_simclrhn_probe2,1,509,NaN,bicycle,knife,true,0509_fc_dnn_true_knife_35_n03041632_31849.png,n03041632_31849.png,0.0,-2.060378,2.0905895,-2.9351773
alexnet_w1_mlp_simclrhn_probe2,1,510,NaN,bear,cat,true,0510_fc_dnn_true_cat_35_n02125311_8541.png,n02125311_8541.png,0.0,-0.18912221,1.803771,-1.4091884
alexnet_w1_mlp_simclrhn_probe2,1,511,NaN,airplane,airplane,true,0511_fc_dnn_true_airplane_35_n02690373_2162.png,n02690373_2162.png,1.0,8.809874,4.5630717,3.0029423
alexnet_w1_mlp_simclrhn_probe2,1,512,NaN,dog,dog,true,0512_fc_dnn_true_dog_35_n02108551_11297.png,n02108551_11297.png,1.0,2.235009,1.951132,0.20073128
alexnet_w1_mlp_simclrhn_probe2,1,513,NaN,car,car,true,0513_fc_dnn_true_car_35_n02814533_34396.png,n02814533_34396.png,1.0,16.089647,10.583372,3.8935246
alexnet_w1_mlp_simclrhn_probe2,1,514,NaN,elephant,elephant,true,0514_fc_dnn_true_elephant_35_n02504013_6431.png,n02504013_6431.png,1.0,4.2806273,1.2872379,2.116646
alexnet_w1_mlp_simclrhn_probe2,1,515,NaN,bicycle,bicycle,false,0515_fc_dnn_false_bicycle_35_n03792782_51723.png,n03792782_51723.png,1.0,2.9988985,-1.0018842,2.828981
alexnet_w1_mlp_simclrhn_probe2,1,516,NaN,bear,dog,false,0516_fc_dnn_false_dog_35_n02093754_5867.png,n02093754_5867.png,0.0,1.6303687,1.6602516,-0.021130407
alexnet_w1_mlp_simclrhn_probe2,1,517,NaN,oven,clock,true,0517_fc_dnn_true_clock_35_n04548280_3245.png,n04548280_3245.png,0.0,-0.74564743,-0.29433256,-0.3191278
alexnet_w1_mlp_simclrhn_probe2,1,518,NaN,airplane,airplane,true,0518_fc_dnn_true_airplane_35_n02690373_9762.png,n02690373_9762.png,1.0,7.7556086,2.39087,3.793443
alexnet_w1_mlp_simclrhn_probe2,1,519,NaN,airplane,bird,true,0519_fc_dnn_true_bird_35_n02002724_2909.png,n02002724_2909.png,0.0,1.8772197,4.3127003,-1.7221448
alexnet_w1_mlp_simclrhn_probe2,1,520,NaN,dog,bottle,true,0520_fc_dnn_true_bottle_35_n04557648_10123.png,n04557648_10123.png,0.0,-4.172545,-1.7498375,-1.713113
alexnet_w1_mlp_simclrhn_probe2,1,521,NaN,elephant,elephant,true,0521_fc_dnn_true_elephant_35_n02504013_5432.png,n02504013_5432.png,1.0,3.294548,0.5756196,1.9225727
alexnet_w1_mlp_simclrhn_probe2,1,522,NaN,cat,cat,false,0522_fc_dnn_false_cat_35_n02123597_4998.png,n02123597_4998.png,1.0,0.79940075,0.7299653,0.049098257
alexnet_w1_mlp_simclrhn_probe2,1,523,NaN,bottle,bottle,true,0523_fc_dnn_true_bottle_35_n04557648_11594.png,n04557648_11594.png,1.0,1.3198789,0.3843779,0.66149914
alexnet_w1_mlp_simclrhn_probe2,1,524,NaN,oven,clock,false,0524_fc_dnn_false_clock_35_n03196217_2567.png,n03196217_2567.png,0.0,-0.48677835,0.3995162,-0.6267049
alexnet_w1_mlp_simclrhn_probe2,1,525,NaN,keyboard,truck,false,0525_fc_dnn_false_truck_35_n03796401_9136.png,n03796401_9136.png,0.0,-3.043871,1.0939732,-2.9258976
alexnet_w1_mlp_simclrhn_probe2,1,526,NaN,boat,boat,false,0526_fc_dnn_false_boat_35_n03344393_8492.png,n03344393_8492.png,1.0,9.13388,-1.0109057,7.173446
alexnet_w1_mlp_simclrhn_probe2,1,527,NaN,cat,cat,false,0527_fc_dnn_false_cat_35_n02123159_8267.png,n02123159_8267.png,1.0,2.7347815,-3.7744794,4.6027427
alexnet_w1_mlp_simclrhn_probe2,1,528,NaN,knife,bottle,false,0528_fc_dnn_false_bottle_35_n04557648_12039.png,n04557648_12039.png,0.0,-2.260628,-0.83651125,-1.0070026
alexnet_w1_mlp_simclrhn_probe2,1,529,NaN,keyboard,keyboard,false,0529_fc_dnn_false_keyboard_35_n04505470_2828.png,n04505470_2828.png,1.0,8.682397,0.5942333,5.7191954
alexnet_w1_mlp_simclrhn_probe2,1,530,NaN,boat,boat,true,0530_fc_dnn_true_boat_35_n02951358_31198.png,n02951358_31198.png,1.0,2.0403116,0.7907392,0.8835811
alexnet_w1_mlp_simclrhn_probe2,1,531,NaN,oven,oven,false,0531_fc_dnn_false_oven_35_n04111531_5801.png,n04111531_5801.png,1.0,0.8123924,-2.1139565,2.0692413
alexnet_w1_mlp_simclrhn_probe2,1,532,NaN,bicycle,bicycle,false,0532_fc_dnn_false_bicycle_35_n02835271_9672.png,n02835271_9672.png,1.0,5.6732044,-1.8137541,5.2940793
alexnet_w1_mlp_simclrhn_probe2,1,533,NaN,keyboard,keyboard,false,0533_fc_dnn_false_keyboard_35_n03085013_23865.png,n03085013_23865.png,1.0,1.5888569,1.1907614,0.28149602
alexnet_w1_mlp_simclrhn_probe2,1,534,NaN,keyboard,bottle,true,0534_fc_dnn_true_bottle_35_n04591713_7133.png,n04591713_7133.png,0.0,-0.809972,2.9126034,-2.6322584
alexnet_w1_mlp_simclrhn_probe2,1,535,NaN,car,car,true,0535_fc_dnn_true_car_35_n04285008_10006.png,n04285008_10006.png,1.0,10.691525,6.1424694,3.2166684
alexnet_w1_mlp_simclrhn_probe2,1,536,NaN,airplane,airplane,true,0536_fc_dnn_true_airplane_35_n02690373_2431.png,n02690373_2431.png,1.0,3.9965878,1.5468516,1.7322251
alexnet_w1_mlp_simclrhn_probe2,1,537,NaN,boat,boat,true,0537_fc_dnn_true_boat_35_n04612504_15440.png,n04612504_15440.png,1.0,0.9095972,-0.6676251,1.1152647
alexnet_w1_mlp_simclrhn_probe2,1,538,NaN,bicycle,bicycle,true,0538_fc_dnn_true_bicycle_35_n02835271_5648.png,n02835271_5648.png,1.0,3.7075543,-1.3320783,3.5635586
alexnet_w1_mlp_simclrhn_probe2,1,539,NaN,airplane,airplane,false,0539_fc_dnn_false_airplane_35_n02690373_3173.png,n02690373_3173.png,1.0,9.726938,2.3483508,5.2174497
alexnet_w1_mlp_simclrhn_probe2,1,540,NaN,oven,oven,false,0540_fc_dnn_false_oven_35_n04111531_82.png,n04111531_82.png,1.0,5.9132414,-0.57330877,4.5866838
alexnet_w1_mlp_simclrhn_probe2,1,541,NaN,oven,chair,false,0541_fc_dnn_false_chair_35_n02791124_2057.png,n02791124_2057.png,0.0,-0.5609041,0.6780214,-0.8760526
alexnet_w1_mlp_simclrhn_probe2,1,542,NaN,oven,elephant,true,0542_fc_dnn_true_elephant_35_n02504458_12175.png,n02504458_12175.png,0.0,-2.8270867,-1.127156,-1.2020326
alexnet_w1_mlp_simclrhn_probe2,1,543,NaN,boat,boat,false,0543_fc_dnn_false_boat_35_n03344393_6869.png,n03344393_6869.png,1.0,2.477247,0.12125382,1.6659389
alexnet_w1_mlp_simclrhn_probe2,1,544,NaN,truck,truck,false,0544_fc_dnn_false_truck_35_n03417042_1000.png,n03417042_1000.png,1.0,2.6936035,0.42800424,1.6020206
alexnet_w1_mlp_simclrhn_probe2,1,545,NaN,boat,boat,true,0545_fc_dnn_true_boat_35_n03344393_6890.png,n03344393_6890.png,1.0,1.8470093,1.8386985,0.0058766194
alexnet_w1_mlp_simclrhn_probe2,1,546,NaN,elephant,elephant,false,0546_fc_dnn_false_elephant_35_n02504458_4139.png,n02504458_4139.png,1.0,4.2674494,-0.19650838,3.1564949
alexnet_w1_mlp_simclrhn_probe2,1,547,NaN,bear,bear,false,0547_fc_dnn_false_bear_35_n02132136_7231.png,n02132136_7231.png,1.0,4.605643,2.2011187,1.7002553
alexnet_w1_mlp_simclrhn_probe2,1,548,NaN,elephant,bird,false,0548_fc_dnn_false_bird_35_n01860187_1815.png,n01860187_1815.png,0.0,-2.1286461,1.1644806,-2.328592
alexnet_w1_mlp_simclrhn_probe2,1,549,NaN,knife,keyboard,true,0549_fc_dnn_true_keyboard_35_n03085013_18891.png,n03085013_18891.png,0.0,-1.4166191,-0.88170826,-0.37823907
alexnet_w1_mlp_simclrhn_probe2,1,550,NaN,bird,bird,false,0550_fc_dnn_false_bird_35_n01828970_2276.png,n01828970_2276.png,1.0,3.432018,-7.498628,7.729134
alexnet_w1_mlp_simclrhn_probe2,1,551,NaN,elephant,elephant,false,0551_fc_dnn_false_elephant_35_n02504013_1720.png,n02504013_1720.png,1.0,8.072818,2.5791302,3.8846238
alexnet_w1_mlp_simclrhn_probe2,1,552,NaN,knife,knife,false,0552_fc_dnn_false_knife_35_n03041632_16104.png,n03041632_16104.png,1.0,0.9051282,-0.7152073,1.1457502
alexnet_w1_mlp_simclrhn_probe2,1,553,NaN,bicycle,chair,false,0553_fc_dnn_false_chair_35_n03376595_635.png,n03376595_635.png,0.0,0.41018593,0.8000051,-0.27564377
alexnet_w1_mlp_simclrhn_probe2,1,554,NaN,bottle,bottle,true,0554_fc_dnn_true_bottle_35_n03983396_6116.png,n03983396_6116.png,1.0,2.399221,0.96253276,1.015892
alexnet_w1_mlp_simclrhn_probe2,1,555,NaN,bear,dog,true,0555_fc_dnn_true_dog_35_n02113624_2530.png,n02113624_2530.png,0.0,0.20125909,1.3905554,-0.8409594
alexnet_w1_mlp_simclrhn_probe2,1,556,NaN,knife,bird,true,0556_fc_dnn_true_bird_35_n01592084_3972.png,n01592084_3972.png,0.0,-1.9583106,-1.8382468,-0.08489791
alexnet_w1_mlp_simclrhn_probe2,1,557,NaN,airplane,airplane,true,0557_fc_dnn_true_airplane_35_n02690373_5130.png,n02690373_5130.png,1.0,2.0602045,1.4599454,0.42444727
alexnet_w1_mlp_simclrhn_probe2,1,558,NaN,airplane,bird,true,0558_fc_dnn_true_bird_35_n01833805_7514.png,n01833805_7514.png,0.0,-1.176319,1.3329117,-1.774294
alexnet_w1_mlp_simclrhn_probe2,1,559,NaN,truck,truck,false,0559_fc_dnn_false_truck_35_n03417042_16238.png,n03417042_16238.png,1.0,5.100996,3.939721,0.82114536
alexnet_w1_mlp_simclrhn_probe2,1,560,NaN,keyboard,keyboard,true,0560_fc_dnn_true_keyboard_35_n04505470_8620.png,n04505470_8620.png,1.0,8.814622,5.3740973,2.4328184
alexnet_w1_mlp_simclrhn_probe2,1,561,NaN,keyboard,clock,true,0561_fc_dnn_true_clock_35_n03196217_7888.png,n03196217_7888.png,0.0,3.2788532,4.437766,-0.8194752
alexnet_w1_mlp_simclrhn_probe2,1,562,NaN,elephant,bottle,true,0562_fc_dnn_true_bottle_35_n04591713_5411.png,n04591713_5411.png,0.0,-3.0759158,-0.9397562,-1.510493
alexnet_w1_mlp_simclrhn_probe2,1,563,NaN,clock,clock,false,0563_fc_dnn_false_clock_35_n03196217_2639.png,n03196217_2639.png,1.0,1.8365752,1.6511959,0.13108294
alexnet_w1_mlp_simclrhn_probe2,1,564,NaN,elephant,elephant,true,0564_fc_dnn_true_elephant_35_n02504458_6437.png,n02504458_6437.png,1.0,1.173641,0.6724843,0.3543713
alexnet_w1_mlp_simclrhn_probe2,1,565,NaN,truck,truck,true,0565_fc_dnn_true_truck_35_n03417042_27586.png,n03417042_27586.png,1.0,6.162834,2.151182,2.8366663
alexnet_w1_mlp_simclrhn_probe2,1,566,NaN,oven,keyboard,false,0566_fc_dnn_false_keyboard_35_n03085013_24124.png,n03085013_24124.png,0.0,-4.6201096,0.9281604,-3.9232197
alexnet_w1_mlp_simclrhn_probe2,1,567,NaN,chair,cat,false,0567_fc_dnn_false_cat_35_n02123597_9663.png,n02123597_9663.png,0.0,-6.3179727,-0.39803606,-4.1860275
alexnet_w1_mlp_simclrhn_probe2,1,568,NaN,keyboard,keyboard,true,0568_fc_dnn_true_keyboard_35_n04505470_1833.png,n04505470_1833.png,1.0,1.7419424,1.2009058,0.38257065
alexnet_w1_mlp_simclrhn_probe2,1,569,NaN,car,car,true,0569_fc_dnn_true_car_35_n04285008_4109.png,n04285008_4109.png,1.0,12.517788,8.085482,3.1341138
alexnet_w1_mlp_simclrhn_probe2,1,570,NaN,bicycle,bird,false,0570_fc_dnn_false_bird_35_n01558993_869.png,n01558993_869.png,0.0,-2.2015867,-0.46335557,-1.2291151
alexnet_w1_mlp_simclrhn_probe2,1,571,NaN,truck,truck,true,0571_fc_dnn_true_truck_35_n03796401_6980.png,n03796401_6980.png,1.0,3.2557688,2.4062614,0.6006924
alexnet_w1_mlp_simclrhn_probe2,1,572,NaN,truck,truck,true,0572_fc_dnn_true_truck_35_n03796401_19058.png,n03796401_19058.png,1.0,5.7718143,0.40498304,3.7949228
alexnet_w1_mlp_simclrhn_probe2,1,573,NaN,elephant,bear,false,0573_fc_dnn_false_bear_35_n02134418_5033.png,n02134418_5033.png,0.0,-0.003521353,0.8189533,-0.58157736
alexnet_w1_mlp_simclrhn_probe2,1,574,NaN,truck,truck,false,0574_fc_dnn_false_truck_35_n03417042_6204.png,n03417042_6204.png,1.0,7.512745,4.9538684,1.809399
alexnet_w1_mlp_simclrhn_probe2,1,575,NaN,bicycle,bicycle,true,0575_fc_dnn_true_bicycle_35_n03792782_7388.png,n03792782_7388.png,1.0,0.012148201,-1.8839941,1.340775
alexnet_w1_mlp_simclrhn_probe2,1,576,NaN,truck,truck,true,0576_fc_dnn_true_truck_35_n03417042_1561.png,n03417042_1561.png,1.0,9.352663,5.571247,2.6738648
alexnet_w1_mlp_simclrhn_probe2,1,577,NaN,elephant,elephant,true,0577_fc_dnn_true_elephant_35_n02504458_5501.png,n02504458_5501.png,1.0,15.754587,5.021472,7.5894585
alexnet_w1_mlp_simclrhn_probe2,1,578,NaN,boat,boat,true,0578_fc_dnn_true_boat_35_n03662601_34124.png,n03662601_34124.png,1.0,1.4815887,1.1815151,0.2121841
alexnet_w1_mlp_simclrhn_probe2,1,579,NaN,knife,knife,false,0579_fc_dnn_false_knife_35_n03041632_37949.png,n03041632_37949.png,1.0,-0.46655044,-2.467237,1.4146991
alexnet_w1_mlp_simclrhn_probe2,1,580,NaN,airplane,airplane,false,0580_fc_dnn_false_airplane_35_n02690373_13585.png,n02690373_13585.png,1.0,7.5655427,-1.1698291,6.176841
alexnet_w1_mlp_simclrhn_probe2,1,581,NaN,elephant,knife,false,0581_fc_dnn_false_knife_35_n03041632_16932.png,n03041632_16932.png,0.0,-1.6359993,-0.47251955,-0.8227045
alexnet_w1_mlp_simclrhn_probe2,1,582,NaN,bicycle,chair,false,0582_fc_dnn_false_chair_35_n04429376_9501.png,n04429376_9501.png,0.0,-2.0100784,-0.53003633,-1.0465478
alexnet_w1_mlp_simclrhn_probe2,1,583,NaN,bird,bird,false,0583_fc_dnn_false_bird_35_n01532829_10530.png,n01532829_10530.png,1.0,1.730216,-4.3590593,4.305768
alexnet_w1_mlp_simclrhn_probe2,1,584,NaN,oven,oven,false,0584_fc_dnn_false_oven_35_n04111531_1562.png,n04111531_1562.png,1.0,3.117962,-1.4557223,3.2340832
alexnet_w1_mlp_simclrhn_probe2,1,585,NaN,keyboard,clock,false,0585_fc_dnn_false_clock_35_n02708093_260.png,n02708093_260.png,0.0,-0.8501918,2.2545345,-2.195373
alexnet_w1_mlp_simclrhn_probe2,1,586,NaN,bottle,bottle,true,0586_fc_dnn_true_bottle_35_n04579145_1457.png,n04579145_1457.png,1.0,1.8198595,0.13384962,1.1921891
alexnet_w1_mlp_simclrhn_probe2,1,587,NaN,bicycle,chair,true,0587_fc_dnn_true_chair_35_n03376595_9897.png,n03376595_9897.png,0.0,0.18745828,1.9076586,-1.2163653
alexnet_w1_mlp_simclrhn_probe2,1,588,NaN,bird,bird,true,0588_fc_dnn_true_bird_35_n01601694_4224.png,n01601694_4224.png,1.0,0.035295386,-1.4514577,1.0512933
alexnet_w1_mlp_simclrhn_probe2,1,589,NaN,cat,cat,false,0589_fc_dnn_false_cat_35_n02123159_358.png,n02123159_358.png,1.0,5.5052085,-4.7741327,7.268592
alexnet_w1_mlp_simclrhn_probe2,1,590,NaN,bottle,bottle,true,0590_fc_dnn_true_bottle_35_n03983396_11788.png,n03983396_11788.png,1.0,5.7794333,0.7887302,3.52896
alexnet_w1_mlp_simclrhn_probe2,1,591,NaN,cat,cat,true,0591_fc_dnn_true_cat_35_n02124075_8341.png,n02124075_8341.png,1.0,-0.07300969,-3.4294982,2.3733957
alexnet_w1_mlp_simclrhn_probe2,1,592,NaN,dog,dog,false,0592_fc_dnn_false_dog_35_n02109525_49924.png,n02109525_49924.png,1.0,3.9458857,1.1440672,1.9811848
alexnet_w1_mlp_simclrhn_probe2,1,593,NaN,airplane,oven,false,0593_fc_dnn_false_oven_35_n04111531_797.png,n04111531_797.png,0.0,-0.7109933,-0.30680865,-0.2858017
alexnet_w1_mlp_simclrhn_probe2,1,594,NaN,bicycle,bicycle,true,0594_fc_dnn_true_bicycle_35_n02835271_15930.png,n02835271_15930.png,1.0,6.0742903,-2.0694804,5.7585154
alexnet_w1_mlp_simclrhn_probe2,1,595,NaN,knife,knife,true,0595_fc_dnn_true_knife_35_n03041632_13656.png,n03041632_13656.png,1.0,1.441596,-0.20131765,1.1617154
alexnet_w1_mlp_simclrhn_probe2,1,596,NaN,knife,clock,false,0596_fc_dnn_false_clock_35_n02708093_8104.png,n02708093_8104.png,0.0,-1.9554754,-1.2948871,-0.46710652
alexnet_w1_mlp_simclrhn_probe2,1,597,NaN,airplane,truck,true,0597_fc_dnn_true_truck_35_n03796401_3148.png,n03796401_3148.png,0.0,-2.865745,0.90306157,-2.6649487
alexnet_w1_mlp_simclrhn_probe2,1,598,NaN,bicycle,bottle,false,0598_fc_dnn_false_bottle_35_n04560804_15263.png,n04560804_15263.png,0.0,-6.4256825,-0.8227077,-3.9619017
alexnet_w1_mlp_simclrhn_probe2,1,599,NaN,airplane,airplane,true,0599_fc_dnn_true_airplane_35_n02690373_5003.png,n02690373_5003.png,1.0,1.809661,0.40676695,0.9919959
alexnet_w1_mlp_simclrhn_probe2,1,600,NaN,boat,boat,false,0600_fc_dnn_false_boat_35_n03344393_994.png,n03344393_994.png,1.0,1.2407227,0.8608907,0.26858178
alexnet_w1_mlp_simclrhn_probe2,1,601,NaN,bicycle,bicycle,true,0601_fc_dnn_true_bicycle_35_n03792782_5959.png,n03792782_5959.png,1.0,8.467026,-0.7771224,6.5366
alexnet_w1_mlp_simclrhn_probe2,1,602,NaN,car,car,false,0602_fc_dnn_false_car_35_n04285008_9383.png,n04285008_9383.png,1.0,5.920096,1.3623602,3.2228057
alexnet_w1_mlp_simclrhn_probe2,1,603,NaN,clock,clock,true,0603_fc_dnn_true_clock_35_n03196217_5627.png,n03196217_5627.png,1.0,0.86452645,0.462263,0.28444323
alexnet_w1_mlp_simclrhn_probe2,1,604,NaN,bird,bird,true,0604_fc_dnn_true_bird_35_n01534433_13846.png,n01534433_13846.png,1.0,-2.3954294,-3.3643866,0.6851562
alexnet_w1_mlp_simclrhn_probe2,1,605,NaN,dog,dog,true,0605_fc_dnn_true_dog_35_n02105056_11269.png,n02105056_11269.png,1.0,0.50892776,-1.240395,1.2369579
alexnet_w1_mlp_simclrhn_probe2,1,606,NaN,airplane,airplane,false,0606_fc_dnn_false_airplane_35_n02690373_9659.png,n02690373_9659.png,1.0,2.7374744,1.1008403,1.1572751
alexnet_w1_mlp_simclrhn_probe2,1,607,NaN,chair,car,false,0607_fc_dnn_false_car_35_n04285008_3269.png,n04285008_3269.png,0.0,-5.309526,2.7825162,-5.7219377
alexnet_w1_mlp_simclrhn_probe2,1,608,NaN,bottle,bottle,true,0608_fc_dnn_true_bottle_35_n02823428_3178.png,n02823428_3178.png,1.0,1.1248883,-0.33057362,1.029167
alexnet_w1_mlp_simclrhn_probe2,1,609,NaN,elephant,elephant,false,0609_fc_dnn_false_elephant_35_n02504458_4849.png,n02504458_4849.png,1.0,2.7794418,-0.054451562,2.0038652
alexnet_w1_mlp_simclrhn_probe2,1,610,NaN,bear,bear,true,0610_fc_dnn_true_bear_35_n02134418_643.png,n02134418_643.png,1.0,1.5374403,0.24630648,0.9129695
alexnet_w1_mlp_simclrhn_probe2,1,611,NaN,boat,boat,true,0611_fc_dnn_true_boat_35_n03344393_7773.png,n03344393_7773.png,1.0,0.8985001,-1.2939415,1.5502902
alexnet_w1_mlp_simclrhn_probe2,1,612,NaN,car,car,true,0612_fc_dnn_true_car_35_n02814533_26516.png,n02814533_26516.png,1.0,14.316049,9.575781,3.3518755
alexnet_w1_mlp_simclrhn_probe2,1,613,NaN,bicycle,cat,false,0613_fc_dnn_false_cat_35_n02123597_3314.png,n02123597_3314.png,0.0,-2.925211,-0.26955402,-1.877833
alexnet_w1_mlp_simclrhn_probe2,1,614,NaN,bicycle,bicycle,true,0614_fc_dnn_true_bicycle_35_n02835271_6539.png,n02835271_6539.png,1.0,8.198984,-2.0415697,7.241165
alexnet_w1_mlp_simclrhn_probe2,1,615,NaN,bear,bear,true,0615_fc_dnn_true_bear_35_n02132136_3090.png,n02132136_3090.png,1.0,8.531436,2.3429718,4.375905
alexnet_w1_mlp_simclrhn_probe2,1,616,NaN,car,car,true,0616_fc_dnn_true_car_35_n03100240_9171.png,n03100240_9171.png,1.0,8.421099,5.2822123,2.219528
alexnet_w1_mlp_simclrhn_probe2,1,617,NaN,cat,cat,false,0617_fc_dnn_false_cat_35_n02123045_12060.png,n02123045_12060.png,1.0,3.1527808,-0.9691481,2.9146438
alexnet_w1_mlp_simclrhn_probe2,1,618,NaN,truck,truck,false,0618_fc_dnn_false_truck_35_n03796401_26801.png,n03796401_26801.png,1.0,0.6755149,-0.8993608,1.1136053
alexnet_w1_mlp_simclrhn_probe2,1,619,NaN,cat,cat,false,0619_fc_dnn_false_cat_35_n02123045_15010.png,n02123045_15010.png,1.0,1.0978622,-3.5482783,3.2853177
alexnet_w1_mlp_simclrhn_probe2,1,620,NaN,keyboard,knife,true,0620_fc_dnn_true_knife_35_n03041632_24883.png,n03041632_24883.png,0.0,-2.3443658,0.519377,-2.024972
alexnet_w1_mlp_simclrhn_probe2,1,621,NaN,cat,cat,true,0621_fc_dnn_true_cat_35_n02123597_4040.png,n02123597_4040.png,1.0,-0.45200005,-0.9766693,0.37099722
alexnet_w1_mlp_simclrhn_probe2,1,622,NaN,bird,bird,true,0622_fc_dnn_true_bird_35_n01843383_3019.png,n01843383_3019.png,1.0,0.32716957,-1.6311299,1.3847268
alexnet_w1_mlp_simclrhn_probe2,1,623,NaN,bear,bear,true,0623_fc_dnn_true_bear_35_n02132136_8619.png,n02132136_8619.png,1.0,4.416462,3.1301796,0.9095389
alexnet_w1_mlp_simclrhn_probe2,1,624,NaN,knife,airplane,false,0624_fc_dnn_false_airplane_35_n02690373_1912.png,n02690373_1912.png,0.0,1.6584219,1.9738603,-0.22304863
