subj,session,trial,rt,object_response,category,condition,imagename,filename,is_correct,targ_act,max_nontarg_act,decision_margin
convnext_large,1,1,NaN,knife,knife,true,0001_fc_dnn_true_knife_35_n03041632_86251.png,n03041632_86251.png,1.0,8.25477,0.283037,5.6368666
convnext_large,1,2,NaN,car,car,false,0002_fc_dnn_false_car_35_n03100240_16866.png,n03100240_16866.png,1.0,5.6010356,0.40298167,3.675579
convnext_large,1,3,NaN,keyboard,keyboard,false,0003_fc_dnn_false_keyboard_35_n03085013_21127.png,n03085013_21127.png,1.0,6.174883,0.77225137,3.8202376
convnext_large,1,4,NaN,truck,truck,true,0004_fc_dnn_true_truck_35_n03417042_10694.png,n03417042_10694.png,1.0,1.6065973,0.22012049,0.98038715
convnext_large,1,5,NaN,airplane,bird,true,0005_fc_dnn_true_bird_35_n01614925_1962.png,n01614925_1962.png,0.0,0.5581794,0.92769265,-0.26128533
convnext_large,1,6,NaN,knife,knife,false,0006_fc_dnn_false_knife_35_n03041632_99875.png,n03041632_99875.png,1.0,6.1234803,0.85507256,3.725327
convnext_large,1,7,NaN,bicycle,bicycle,true,0007_fc_dnn_true_bicycle_35_n03792782_14935.png,n03792782_14935.png,1.0,5.0362816,0.5557836,3.1681905
convnext_large,1,8,NaN,elephant,elephant,false,0008_fc_dnn_false_elephant_35_n02504013_5027.png,n02504013_5027.png,1.0,6.196767,0.21892409,4.226973
convnext_large,1,9,NaN,car,dog,false,0009_fc_dnn_false_dog_35_n02090721_129.png,n02090721_129.png,0.0,0.22311361,0.48822138,-0.1874595
convnext_large,1,10,NaN,airplane,airplane,true,0010_fc_dnn_true_airplane_35_n02690373_9241.png,n02690373_9241.png,1.0,8.556562,0.47524604,5.7143536
convnext_large,1,11,NaN,truck,truck,true,0011_fc_dnn_true_truck_35_n04467665_62080.png,n04467665_62080.png,1.0,3.3421214,0.4203825,2.0659814
convnext_large,1,12,NaN,keyboard,keyboard,true,0012_fc_dnn_true_keyboard_35_n04505470_2669.png,n04505470_2669.png,1.0,5.0669365,0.54723775,3.1959095
convnext_large,1,13,NaN,oven,oven,false,0013_fc_dnn_false_oven_35_n04111531_688.png,n04111531_688.png,1.0,5.997086,0.80424833,3.6718907
convnext_large,1,14,NaN,car,car,true,0014_fc_dnn_true_car_35_n03100240_21982.png,n03100240_21982.png,1.0,5.1466312,0.60170877,3.2137454
convnext_large,1,15,NaN,bicycle,bicycle,true,0015_fc_dnn_true_bicycle_35_n02835271_4191.png,n02835271_4191.png,1.0,5.26478,0.5719135,3.3183577
convnext_large,1,16,NaN,car,car,true,0016_fc_dnn_true_car_35_n02814533_25278.png,n02814533_25278.png,1.0,6.1114707,0.6241802,3.8801003
convnext_large,1,17,NaN,knife,knife,false,0017_fc_dnn_false_knife_35_n03041632_23087.png,n03041632_23087.png,1.0,6.63748,0.07683143,4.639079
convnext_large,1,18,NaN,clock,clock,true,0018_fc_dnn_true_clock_35_n03196217_11252.png,n03196217_11252.png,1.0,4.300014,0.6662463,2.5694618
convnext_large,1,19,NaN,boat,boat,false,0019_fc_dnn_false_boat_35_n04273569_2040.png,n04273569_2040.png,1.0,2.326751,0.44322085,1.331857
convnext_large,1,20,NaN,knife,knife,true,0020_fc_dnn_true_knife_35_n03041632_84869.png,n03041632_84869.png,1.0,9.052352,0.24102429,6.23055
convnext_large,1,21,NaN,clock,clock,true,0021_fc_dnn_true_clock_35_n04548280_503.png,n04548280_503.png,1.0,5.600394,0.14609306,3.8567731
convnext_large,1,22,NaN,truck,truck,false,0022_fc_dnn_false_truck_35_n03417042_10654.png,n03417042_10654.png,1.0,2.149695,0.3500383,1.2725494
convnext_large,1,23,NaN,boat,boat,true,0023_fc_dnn_true_boat_35_n03344393_2919.png,n03344393_2919.png,1.0,2.204083,0.89173883,0.9279674
convnext_large,1,24,NaN,chair,chair,false,0024_fc_dnn_false_chair_35_n04099969_7718.png,n04099969_7718.png,1.0,3.2047958,0.531128,1.8905687
convnext_large,1,25,NaN,oven,oven,true,0025_fc_dnn_true_oven_35_n04111531_3477.png,n04111531_3477.png,1.0,8.54494,0.95596445,5.366216
convnext_large,1,26,NaN,dog,dog,false,0026_fc_dnn_false_dog_35_n02113712_913.png,n02113712_913.png,1.0,0.7392659,0.15038496,0.4164017
convnext_large,1,27,NaN,chair,chair,false,0027_fc_dnn_false_chair_35_n02791124_13701.png,n02791124_13701.png,1.0,2.5254111,1.4756325,0.7423056
convnext_large,1,28,NaN,airplane,airplane,true,0028_fc_dnn_true_airplane_35_n02690373_8538.png,n02690373_8538.png,1.0,8.855008,0.5341854,5.8837104
convnext_large,1,29,NaN,knife,knife,true,0029_fc_dnn_true_knife_35_n03041632_98864.png,n03041632_98864.png,1.0,8.308089,0.6165827,5.4387164
convnext_large,1,30,NaN,clock,clock,false,0030_fc_dnn_false_clock_35_n04548280_5466.png,n04548280_5466.png,1.0,5.9235015,0.029834801,4.167452
convnext_large,1,31,NaN,keyboard,keyboard,true,0031_fc_dnn_true_keyboard_35_n04505470_4033.png,n04505470_4033.png,1.0,5.23424,0.5611465,3.3043764
convnext_large,1,32,NaN,boat,boat,false,0032_fc_dnn_false_boat_35_n03344393_7503.png,n03344393_7503.png,1.0,2.6627946,1.2318578,1.0118251
convnext_large,1,33,NaN,bottle,bottle,false,0033_fc_dnn_false_bottle_35_n02823428_3402.png,n02823428_3402.png,1.0,3.312977,0.01588594,2.3313956
convnext_large,1,34,NaN,boat,boat,true,0034_fc_dnn_true_boat_35_n03662601_15766.png,n03662601_15766.png,1.0,2.0852458,0.6936494,0.9840073
convnext_large,1,35,NaN,dog,dog,true,0035_fc_dnn_true_dog_35_n02097047_1351.png,n02097047_1351.png,1.0,0.72647065,0.31232807,0.29284304
convnext_large,1,36,NaN,keyboard,keyboard,true,0036_fc_dnn_true_keyboard_35_n03085013_23562.png,n03085013_23562.png,1.0,6.196703,0.26742226,4.1926346
convnext_large,1,37,NaN,clock,clock,false,0037_fc_dnn_false_clock_35_n04548280_7872.png,n04548280_7872.png,1.0,3.4092872,0.91155124,1.7661661
convnext_large,1,38,NaN,dog,dog,false,0038_fc_dnn_false_dog_35_n02106166_16884.png,n02106166_16884.png,1.0,0.8662072,0.6183443,0.17526552
convnext_large,1,39,NaN,oven,oven,true,0039_fc_dnn_true_oven_35_n04111531_3353.png,n04111531_3353.png,1.0,8.632322,0.56189233,5.7066555
convnext_large,1,40,NaN,knife,knife,false,0040_fc_dnn_false_knife_35_n03041632_46185.png,n03041632_46185.png,1.0,8.888645,0.57816905,5.8763943
convnext_large,1,41,NaN,knife,knife,true,0041_fc_dnn_true_knife_35_n03041632_14766.png,n03041632_14766.png,1.0,8.450327,0.26580992,5.7873273
convnext_large,1,42,NaN,chair,chair,true,0042_fc_dnn_true_chair_35_n02791124_2150.png,n02791124_2150.png,1.0,2.2335212,0.24108641,1.4088643
convnext_large,1,43,NaN,elephant,elephant,false,0043_fc_dnn_false_elephant_35_n02504458_4631.png,n02504458_4631.png,1.0,8.108827,0.55054486,5.3445125
convnext_large,1,44,NaN,chair,chair,false,0044_fc_dnn_false_chair_35_n03376595_3223.png,n03376595_3223.png,1.0,2.6318724,2.3960493,0.16675216
convnext_large,1,45,NaN,car,car,false,0045_fc_dnn_false_car_35_n03100240_5399.png,n03100240_5399.png,1.0,5.365809,0.63543797,3.3448775
convnext_large,1,46,NaN,bottle,bottle,true,0046_fc_dnn_true_bottle_35_n04557648_2512.png,n04557648_2512.png,1.0,2.155302,0.5330924,1.1470755
convnext_large,1,47,NaN,bicycle,bicycle,true,0047_fc_dnn_true_bicycle_35_n03792782_8098.png,n03792782_8098.png,1.0,4.6629395,1.781467,2.0375087
convnext_large,1,48,NaN,bear,bear,true,0048_fc_dnn_true_bear_35_n02134418_11557.png,n02134418_11557.png,1.0,2.6878302,0.28160983,1.7014548
convnext_large,1,49,NaN,knife,knife,true,0049_fc_dnn_true_knife_35_n03041632_45569.png,n03041632_45569.png,1.0,7.833419,0.2252711,5.3797727
convnext_large,1,50,NaN,bicycle,bicycle,false,0050_fc_dnn_false_bicycle_35_n03792782_4740.png,n03792782_4740.png,1.0,7.2196074,0.36080816,4.8499036
convnext_large,1,51,NaN,boat,boat,false,0051_fc_dnn_false_boat_35_n03662601_25404.png,n03662601_25404.png,1.0,4.318156,1.4018698,2.0621257
convnext_large,1,52,NaN,elephant,bird,false,0052_fc_dnn_false_bird_35_n01796340_4853.png,n01796340_4853.png,0.0,0.31064844,0.38715202,-0.054096196
convnext_large,1,53,NaN,clock,clock,true,0053_fc_dnn_true_clock_35_n03196217_5888.png,n03196217_5888.png,1.0,4.6573443,0.20372719,3.1491828
convnext_large,1,54,NaN,bicycle,bicycle,true,0054_fc_dnn_true_bicycle_35_n02835271_12871.png,n02835271_12871.png,1.0,4.9295964,0.61432195,3.0513597
convnext_large,1,55,NaN,keyboard,keyboard,false,0055_fc_dnn_false_keyboard_35_n03085013_28584.png,n03085013_28584.png,1.0,6.5465627,1.1906227,3.7872214
convnext_large,1,56,NaN,cat,cat,true,0056_fc_dnn_true_cat_35_n02123159_6184.png,n02123159_6184.png,1.0,3.2968855,0.8768762,1.7112051
convnext_large,1,57,NaN,bicycle,bicycle,true,0057_fc_dnn_true_bicycle_35_n02835271_7592.png,n02835271_7592.png,1.0,4.9835753,0.6809504,3.0424151
convnext_large,1,58,NaN,elephant,elephant,false,0058_fc_dnn_false_elephant_35_n02504458_3205.png,n02504458_3205.png,1.0,6.768839,0.676105,4.3082137
convnext_large,1,59,NaN,cat,cat,false,0059_fc_dnn_false_cat_35_n02124075_7880.png,n02124075_7880.png,1.0,3.32033,0.91378194,1.7016865
convnext_large,1,60,NaN,truck,truck,false,0060_fc_dnn_false_truck_35_n04467665_2240.png,n04467665_2240.png,1.0,3.0603426,0.3119179,1.9434297
convnext_large,1,61,NaN,bottle,bottle,true,0061_fc_dnn_true_bottle_35_n04560804_13316.png,n04560804_13316.png,1.0,1.0306078,0.58442134,0.31550148
convnext_large,1,62,NaN,airplane,airplane,false,0062_fc_dnn_false_airplane_35_n02690373_3821.png,n02690373_3821.png,1.0,8.237895,0.32532227,5.595034
convnext_large,1,63,NaN,knife,knife,true,0063_fc_dnn_true_knife_35_n03041632_17285.png,n03041632_17285.png,1.0,8.550428,0.64162433,5.592369
convnext_large,1,64,NaN,bottle,bottle,false,0064_fc_dnn_false_bottle_35_n02823428_10942.png,n02823428_10942.png,1.0,2.8485663,0.8655588,1.4021981
convnext_large,1,65,NaN,bicycle,bicycle,true,0065_fc_dnn_true_bicycle_35_n02835271_3642.png,n02835271_3642.png,1.0,4.7553806,0.6798659,2.8818243
convnext_large,1,66,NaN,knife,knife,true,0066_fc_dnn_true_knife_35_n03041632_16172.png,n03041632_16172.png,1.0,8.972177,0.30623284,6.127748
convnext_large,1,67,NaN,bicycle,bottle,false,0067_fc_dnn_false_bottle_35_n04560804_2448.png,n04560804_2448.png,0.0,0.73763734,1.8053235,-0.7549681
convnext_large,1,68,NaN,oven,oven,false,0068_fc_dnn_false_oven_35_n04111531_4452.png,n04111531_4452.png,1.0,8.925526,0.3032992,6.096835
convnext_large,1,69,NaN,keyboard,keyboard,false,0069_fc_dnn_false_keyboard_35_n04505470_912.png,n04505470_912.png,1.0,5.1432805,0.34983492,3.389478
convnext_large,1,70,NaN,cat,cat,false,0070_fc_dnn_false_cat_35_n02123045_7167.png,n02123045_7167.png,1.0,4.01882,1.2324712,1.970246
convnext_large,1,71,NaN,bicycle,bicycle,false,0071_fc_dnn_false_bicycle_35_n03792782_8333.png,n03792782_8333.png,1.0,5.7937403,0.25988647,3.9130259
convnext_large,1,72,NaN,dog,dog,false,0072_fc_dnn_false_dog_35_n02107683_2904.png,n02107683_2904.png,1.0,1.1235282,0.5726231,0.38954878
convnext_large,1,73,NaN,bottle,bottle,true,0073_fc_dnn_true_bottle_35_n04591713_3409.png,n04591713_3409.png,1.0,2.9085057,0.31054386,1.8370365
convnext_large,1,74,NaN,knife,bottle,false,0074_fc_dnn_false_bottle_35_n04560804_564.png,n04560804_564.png,0.0,1.9639051,4.3450766,-1.6837425
convnext_large,1,75,NaN,truck,truck,false,0075_fc_dnn_false_truck_35_n03796401_6503.png,n03796401_6503.png,1.0,2.3878913,0.5922602,1.269703
convnext_large,1,76,NaN,oven,oven,true,0076_fc_dnn_true_oven_35_n04111531_13590.png,n04111531_13590.png,1.0,8.7654705,1.4669044,5.1608653
convnext_large,1,77,NaN,keyboard,bird,false,0077_fc_dnn_false_bird_35_n02018795_7504.png,n02018795_7504.png,0.0,0.21772589,0.4769687,-0.18331237
convnext_large,1,78,NaN,car,car,false,0078_fc_dnn_false_car_35_n03100240_6626.png,n03100240_6626.png,1.0,5.299415,1.3317177,2.8055859
convnext_large,1,79,NaN,bear,bear,false,0079_fc_dnn_false_bear_35_n02134418_4364.png,n02134418_4364.png,1.0,2.691541,0.40051883,1.6199973
convnext_large,1,80,NaN,knife,knife,false,0080_fc_dnn_false_knife_35_n03041632_8051.png,n03041632_8051.png,1.0,6.282358,4.225172,1.4546503
convnext_large,1,81,NaN,airplane,airplane,true,0081_fc_dnn_true_airplane_35_n02690373_1434.png,n02690373_1434.png,1.0,8.884302,0.27412355,6.088316
convnext_large,1,82,NaN,clock,clock,true,0082_fc_dnn_true_clock_35_n04548280_5408.png,n04548280_5408.png,1.0,4.2239113,0.40810332,2.6981838
convnext_large,1,83,NaN,cat,cat,false,0083_fc_dnn_false_cat_35_n02123597_3916.png,n02123597_3916.png,1.0,2.4372149,0.47499374,1.3874999
convnext_large,1,84,NaN,clock,clock,false,0084_fc_dnn_false_clock_35_n04548280_4542.png,n04548280_4542.png,1.0,4.6046033,0.513668,2.892728
convnext_large,1,85,NaN,car,car,true,0085_fc_dnn_true_car_35_n04285008_14161.png,n04285008_14161.png,1.0,3.6075776,1.9250815,1.1897044
convnext_large,1,86,NaN,airplane,airplane,false,0086_fc_dnn_false_airplane_35_n02690373_7279.png,n02690373_7279.png,1.0,9.113823,0.67155504,5.9695854
convnext_large,1,87,NaN,bear,bear,true,0087_fc_dnn_true_bear_35_n02132136_11640.png,n02132136_11640.png,1.0,3.22222,0.5924798,1.8595072
convnext_large,1,88,NaN,airplane,airplane,true,0088_fc_dnn_true_airplane_35_n02690373_8350.png,n02690373_8350.png,1.0,8.476736,0.55146503,5.604013
convnext_large,1,89,NaN,boat,boat,true,0089_fc_dnn_true_boat_35_n04273569_30568.png,n04273569_30568.png,1.0,2.8111799,0.8314013,1.3999149
convnext_large,1,90,NaN,chair,dog,true,0090_fc_dnn_true_dog_35_n02100583_19533.png,n02100583_19533.png,0.0,0.16193454,0.36096358,-0.14073479
convnext_large,1,91,NaN,knife,knife,true,0091_fc_dnn_true_knife_35_n03041632_965.png,n03041632_965.png,1.0,8.455579,0.19562814,5.8406672
convnext_large,1,92,NaN,elephant,elephant,false,0092_fc_dnn_false_elephant_35_n02504458_6109.png,n02504458_6109.png,1.0,6.653581,0.5043346,4.348174
convnext_large,1,93,NaN,oven,oven,true,0093_fc_dnn_true_oven_35_n04111531_10093.png,n04111531_10093.png,1.0,8.800961,0.6489973,5.7643085
convnext_large,1,94,NaN,clock,clock,true,0094_fc_dnn_true_clock_35_n03196217_8221.png,n03196217_8221.png,1.0,3.8172343,1.6601921,1.525259
convnext_large,1,95,NaN,bicycle,bicycle,false,0095_fc_dnn_false_bicycle_35_n03792782_828.png,n03792782_828.png,1.0,5.291481,0.5001449,3.3879862
convnext_large,1,96,NaN,knife,knife,true,0096_fc_dnn_true_knife_35_n03041632_7090.png,n03041632_7090.png,1.0,8.931063,0.30395007,6.10029
convnext_large,1,97,NaN,bear,bear,false,0097_fc_dnn_false_bear_35_n02134084_14260.png,n02134084_14260.png,1.0,3.9190438,1.8928351,1.4327459
convnext_large,1,98,NaN,bear,bear,false,0098_fc_dnn_false_bear_35_n02132136_10988.png,n02132136_10988.png,1.0,4.551843,0.98234695,2.524015
convnext_large,1,99,NaN,keyboard,keyboard,false,0099_fc_dnn_false_keyboard_35_n03085013_22980.png,n03085013_22980.png,1.0,5.7226963,0.7244248,3.5343118
convnext_large,1,100,NaN,bottle,bottle,false,0100_fc_dnn_false_bottle_35_n04557648_3673.png,n04557648_3673.png,1.0,2.1569278,0.73012453,1.0089023
convnext_large,1,101,NaN,airplane,airplane,true,0101_fc_dnn_true_airplane_35_n02690373_1360.png,n02690373_1360.png,1.0,8.675425,0.9081165,5.4923162
convnext_large,1,102,NaN,oven,oven,true,0102_fc_dnn_true_oven_35_n04111531_6415.png,n04111531_6415.png,1.0,8.50137,0.47751874,5.67372
convnext_large,1,103,NaN,knife,knife,false,0103_fc_dnn_false_knife_35_n03041632_32054.png,n03041632_32054.png,1.0,8.805814,0.20498535,6.081704
convnext_large,1,104,NaN,chair,chair,false,0104_fc_dnn_false_chair_35_n03376595_9136.png,n03376595_9136.png,1.0,2.9185226,0.4124346,1.7720718
convnext_large,1,105,NaN,keyboard,keyboard,false,0105_fc_dnn_false_keyboard_35_n03085013_21266.png,n03085013_21266.png,1.0,4.593614,0.37778932,2.9810383
convnext_large,1,106,NaN,bicycle,bicycle,true,0106_fc_dnn_true_bicycle_35_n02835271_6137.png,n02835271_6137.png,1.0,4.501815,2.1916747,1.6335158
convnext_large,1,107,NaN,car,car,false,0107_fc_dnn_false_car_35_n04285008_14689.png,n04285008_14689.png,1.0,5.961269,1.5715308,3.1040137
convnext_large,1,108,NaN,truck,truck,false,0108_fc_dnn_false_truck_35_n04467665_16276.png,n04467665_16276.png,1.0,2.7292325,0.3630019,1.6731778
convnext_large,1,109,NaN,chair,chair,false,0109_fc_dnn_false_chair_35_n03376595_787.png,n03376595_787.png,1.0,2.8131502,0.47664747,1.652157
convnext_large,1,110,NaN,boat,boat,false,0110_fc_dnn_false_boat_35_n04612504_41355.png,n04612504_41355.png,1.0,2.0430217,0.72724175,0.9303969
convnext_large,1,111,NaN,elephant,elephant,true,0111_fc_dnn_true_elephant_35_n02504458_174.png,n02504458_174.png,1.0,6.903804,0.29442975,4.6735334
convnext_large,1,112,NaN,cat,cat,true,0112_fc_dnn_true_cat_35_n02125311_6746.png,n02125311_6746.png,1.0,1.548307,0.48404542,0.75254655
convnext_large,1,113,NaN,keyboard,keyboard,false,0113_fc_dnn_false_keyboard_35_n03085013_23287.png,n03085013_23287.png,1.0,6.8312435,0.9738617,4.1417947
convnext_large,1,114,NaN,clock,clock,true,0114_fc_dnn_true_clock_35_n04548280_8071.png,n04548280_8071.png,1.0,4.2802625,0.15562934,2.9165561
convnext_large,1,115,NaN,oven,oven,false,0115_fc_dnn_false_oven_35_n04111531_14543.png,n04111531_14543.png,1.0,8.209374,0.24861158,5.6291094
convnext_large,1,116,NaN,car,car,false,0116_fc_dnn_false_car_35_n03100240_10791.png,n03100240_10791.png,1.0,5.704655,0.18544394,3.9026718
convnext_large,1,117,NaN,airplane,airplane,true,0117_fc_dnn_true_airplane_35_n02690373_2619.png,n02690373_2619.png,1.0,8.403503,0.48671913,5.598012
convnext_large,1,118,NaN,keyboard,keyboard,true,0118_fc_dnn_true_keyboard_35_n04505470_3864.png,n04505470_3864.png,1.0,5.6246853,0.5509846,3.5876484
convnext_large,1,119,NaN,dog,dog,true,0119_fc_dnn_true_dog_35_n02097658_4387.png,n02097658_4387.png,1.0,0.90463775,0.42870942,0.33653215
convnext_large,1,120,NaN,clock,clock,true,0120_fc_dnn_true_clock_35_n04548280_309.png,n04548280_309.png,1.0,4.049519,0.20431167,2.7189722
convnext_large,1,121,NaN,dog,dog,true,0121_fc_dnn_true_dog_35_n02108000_5247.png,n02108000_5247.png,1.0,0.58819544,0.209363,0.26787502
convnext_large,1,122,NaN,keyboard,keyboard,false,0122_fc_dnn_false_keyboard_35_n04505470_4411.png,n04505470_4411.png,1.0,5.688609,0.45850104,3.698245
convnext_large,1,123,NaN,truck,truck,false,0123_fc_dnn_false_truck_35_n03417042_2155.png,n03417042_2155.png,1.0,1.8823104,1.5369986,0.24417229
convnext_large,1,124,NaN,bear,bear,false,0124_fc_dnn_false_bear_35_n02132136_4237.png,n02132136_4237.png,1.0,4.29324,0.38374352,2.7644315
convnext_large,1,125,NaN,bird,bird,false,0125_fc_dnn_false_bird_35_n01843065_2350.png,n01843065_2350.png,1.0,0.3923871,0.3186305,0.052153796
convnext_large,1,126,NaN,knife,knife,false,0126_fc_dnn_false_knife_35_n03041632_51225.png,n03041632_51225.png,1.0,7.713751,0.23843686,5.2858453
convnext_large,1,127,NaN,airplane,airplane,false,0127_fc_dnn_false_airplane_35_n02690373_2095.png,n02690373_2095.png,1.0,8.863177,0.19833472,6.126969
convnext_large,1,128,NaN,clock,clock,true,0128_fc_dnn_true_clock_35_n02708093_1775.png,n02708093_1775.png,1.0,4.9378366,1.0148827,2.7739475
convnext_large,1,129,NaN,elephant,elephant,true,0129_fc_dnn_true_elephant_35_n02504458_7950.png,n02504458_7950.png,1.0,7.0613313,0.3690998,4.7321224
convnext_large,1,130,NaN,boat,boat,true,0130_fc_dnn_true_boat_35_n03662601_1926.png,n03662601_1926.png,1.0,2.5035675,0.87629014,1.1506588
convnext_large,1,131,NaN,elephant,elephant,true,0131_fc_dnn_true_elephant_35_n02504458_6721.png,n02504458_6721.png,1.0,6.000539,0.47143096,3.9096699
convnext_large,1,132,NaN,bicycle,bicycle,true,0132_fc_dnn_true_bicycle_35_n02835271_14225.png,n02835271_14225.png,1.0,6.1193666,0.41932312,4.0305395
convnext_large,1,133,NaN,clock,clock,false,0133_fc_dnn_false_clock_35_n02708093_2744.png,n02708093_2744.png,1.0,4.099734,0.6920599,2.4095893
convnext_large,1,134,NaN,clock,clock,true,0134_fc_dnn_true_clock_35_n02708093_275.png,n02708093_275.png,1.0,5.3954997,0.33073217,3.5813315
convnext_large,1,135,NaN,knife,knife,false,0135_fc_dnn_false_knife_35_n03041632_25512.png,n03041632_25512.png,1.0,8.142594,0.20109284,5.61549
convnext_large,1,136,NaN,bird,bird,true,0136_fc_dnn_true_bird_35_n01622779_5441.png,n01622779_5441.png,1.0,0.23477212,0.2341532,0.00043764233
convnext_large,1,137,NaN,oven,oven,false,0137_fc_dnn_false_oven_35_n04111531_14329.png,n04111531_14329.png,1.0,8.118453,0.9306793,5.082524
convnext_large,1,138,NaN,bird,bird,false,0138_fc_dnn_false_bird_35_n02007558_13217.png,n02007558_13217.png,1.0,0.48544106,0.4288137,0.040041592
convnext_large,1,139,NaN,cat,cat,true,0139_fc_dnn_true_cat_35_n02123597_7908.png,n02123597_7908.png,1.0,2.3529441,0.58879805,1.2474397
convnext_large,1,140,NaN,clock,clock,true,0140_fc_dnn_true_clock_35_n04548280_9828.png,n04548280_9828.png,1.0,5.1274085,0.28008398,3.427576
convnext_large,1,141,NaN,bird,bird,false,0141_fc_dnn_false_bird_35_n01833805_4819.png,n01833805_4819.png,1.0,0.577268,0.5704283,0.004836393
convnext_large,1,142,NaN,knife,knife,true,0142_fc_dnn_true_knife_35_n03041632_52929.png,n03041632_52929.png,1.0,9.153507,0.8325209,5.8838263
convnext_large,1,143,NaN,truck,truck,false,0143_fc_dnn_false_truck_35_n04467665_2044.png,n04467665_2044.png,1.0,2.6635244,0.4114881,1.5924302
convnext_large,1,144,NaN,oven,oven,false,0144_fc_dnn_false_oven_35_n04111531_16583.png,n04111531_16583.png,1.0,8.804402,0.2152372,6.073457
convnext_large,1,145,NaN,airplane,airplane,true,0145_fc_dnn_true_airplane_35_n02690373_2796.png,n02690373_2796.png,1.0,8.813907,0.62158364,5.792847
convnext_large,1,146,NaN,airplane,airplane,false,0146_fc_dnn_false_airplane_35_n02690373_3362.png,n02690373_3362.png,1.0,8.887026,0.52078193,5.915828
convnext_large,1,147,NaN,clock,clock,true,0147_fc_dnn_true_clock_35_n02708093_3759.png,n02708093_3759.png,1.0,5.279219,0.19282311,3.5966253
convnext_large,1,148,NaN,elephant,elephant,true,0148_fc_dnn_true_elephant_35_n02504013_2558.png,n02504013_2558.png,1.0,6.176635,0.24469072,4.1945176
convnext_large,1,149,NaN,bear,bear,false,0149_fc_dnn_false_bear_35_n02134418_896.png,n02134418_896.png,1.0,3.1905103,1.3370249,1.3106121
convnext_large,1,150,NaN,truck,truck,false,0150_fc_dnn_false_truck_35_n04467665_56815.png,n04467665_56815.png,1.0,2.2403762,0.36823797,1.3238016
convnext_large,1,151,NaN,truck,truck,true,0151_fc_dnn_true_truck_35_n03796401_3695.png,n03796401_3695.png,1.0,2.1685777,0.45314223,1.2129961
convnext_large,1,152,NaN,elephant,dog,true,0152_fc_dnn_true_dog_35_n02107312_197.png,n02107312_197.png,0.0,0.27584144,0.2906083,-0.010441734
convnext_large,1,153,NaN,bear,bear,false,0153_fc_dnn_false_bear_35_n02133161_13356.png,n02133161_13356.png,1.0,4.5936527,0.26570344,3.0603225
convnext_large,1,154,NaN,truck,truck,false,0154_fc_dnn_false_truck_35_n03796401_6923.png,n03796401_6923.png,1.0,2.529739,0.46914175,1.4570622
convnext_large,1,155,NaN,elephant,elephant,true,0155_fc_dnn_true_elephant_35_n02504458_7660.png,n02504458_7660.png,1.0,6.526246,0.27165323,4.422665
convnext_large,1,156,NaN,bicycle,bicycle,false,0156_fc_dnn_false_bicycle_35_n02835271_6554.png,n02835271_6554.png,1.0,5.012989,0.9719622,2.8574376
convnext_large,1,157,NaN,boat,boat,true,0157_fc_dnn_true_boat_35_n04273569_2698.png,n04273569_2698.png,1.0,3.1134052,0.51803315,1.8352053
convnext_large,1,158,NaN,bottle,bottle,true,0158_fc_dnn_true_bottle_35_n03983396_5055.png,n03983396_5055.png,1.0,2.0614183,0.40741453,1.1695573
convnext_large,1,159,NaN,chair,chair,true,0159_fc_dnn_true_chair_35_n04429376_22811.png,n04429376_22811.png,1.0,2.4838119,0.5035145,1.4002817
convnext_large,1,160,NaN,knife,knife,false,0160_fc_dnn_false_knife_35_n03041632_5640.png,n03041632_5640.png,1.0,7.9577975,0.3919638,5.349852
convnext_large,1,161,NaN,clock,bird,true,0161_fc_dnn_true_bird_35_n01795545_14857.png,n01795545_14857.png,0.0,0.1977394,0.41066384,-0.15056032
convnext_large,1,162,NaN,oven,oven,false,0162_fc_dnn_false_oven_35_n04111531_16144.png,n04111531_16144.png,1.0,8.727842,0.26590177,5.9834957
convnext_large,1,163,NaN,truck,truck,false,0163_fc_dnn_false_truck_35_n04467665_47050.png,n04467665_47050.png,1.0,2.0410178,0.9274668,0.7873994
convnext_large,1,164,NaN,bottle,bottle,true,0164_fc_dnn_true_bottle_35_n03937543_8063.png,n03937543_8063.png,1.0,1.4607861,0.9993866,0.32625872
convnext_large,1,165,NaN,bear,bear,false,0165_fc_dnn_false_bear_35_n02134084_1655.png,n02134084_1655.png,1.0,3.0887716,0.42576417,1.8830307
convnext_large,1,166,NaN,car,car,false,0166_fc_dnn_false_car_35_n03100240_2425.png,n03100240_2425.png,1.0,6.0135026,1.4993501,3.191988
convnext_large,1,167,NaN,keyboard,keyboard,false,0167_fc_dnn_false_keyboard_35_n03085013_21300.png,n03085013_21300.png,1.0,6.952156,0.4864542,4.571942
convnext_large,1,168,NaN,bear,bear,false,0168_fc_dnn_false_bear_35_n02132136_2248.png,n02132136_2248.png,1.0,6.428716,0.33663204,4.307754
convnext_large,1,169,NaN,knife,knife,false,0169_fc_dnn_false_knife_35_n03041632_27832.png,n03041632_27832.png,1.0,8.399595,0.2173805,5.7857
convnext_large,1,170,NaN,keyboard,keyboard,true,0170_fc_dnn_true_keyboard_35_n04505470_4682.png,n04505470_4682.png,1.0,5.5929193,0.57643706,3.5471888
convnext_large,1,171,NaN,truck,truck,false,0171_fc_dnn_false_truck_35_n03417042_12908.png,n03417042_12908.png,1.0,1.3352466,0.65000665,0.4845378
convnext_large,1,172,NaN,elephant,elephant,false,0172_fc_dnn_false_elephant_35_n02504013_2148.png,n02504013_2148.png,1.0,6.847481,0.6329872,4.394311
convnext_large,1,173,NaN,boat,boat,true,0173_fc_dnn_true_boat_35_n02951358_20379.png,n02951358_20379.png,1.0,2.1513767,0.21293549,1.370685
convnext_large,1,174,NaN,cat,cat,true,0174_fc_dnn_true_cat_35_n02123394_6521.png,n02123394_6521.png,1.0,1.9037033,0.31997526,1.1198648
convnext_large,1,175,NaN,boat,boat,true,0175_fc_dnn_true_boat_35_n03662601_9602.png,n03662601_9602.png,1.0,2.481423,0.5476341,1.3673952
convnext_large,1,176,NaN,clock,clock,true,0176_fc_dnn_true_clock_35_n04548280_3997.png,n04548280_3997.png,1.0,4.689197,0.16568492,3.1986063
convnext_large,1,177,NaN,car,car,false,0177_fc_dnn_false_car_35_n03100240_12694.png,n03100240_12694.png,1.0,6.172211,0.5774708,3.956079
convnext_large,1,178,NaN,bird,bird,false,0178_fc_dnn_false_bird_35_n02002556_25052.png,n02002556_25052.png,1.0,0.2772492,0.27451465,0.0019336131
convnext_large,1,179,NaN,chair,chair,true,0179_fc_dnn_true_chair_35_n04429376_22734.png,n04429376_22734.png,1.0,3.0930185,0.48556364,1.8437489
convnext_large,1,180,NaN,boat,boat,true,0180_fc_dnn_true_boat_35_n04612504_5334.png,n04612504_5334.png,1.0,2.381412,0.6340465,1.235574
convnext_large,1,181,NaN,keyboard,keyboard,true,0181_fc_dnn_true_keyboard_35_n03085013_15484.png,n03085013_15484.png,1.0,7.1966476,1.2805998,4.1832776
convnext_large,1,182,NaN,bear,bear,true,0182_fc_dnn_true_bear_35_n02134418_1809.png,n02134418_1809.png,1.0,2.7084355,0.38641566,1.641916
convnext_large,1,183,NaN,bottle,bottle,true,0183_fc_dnn_true_bottle_35_n04560804_6392.png,n04560804_6392.png,1.0,1.6761278,0.5567024,0.7915533
convnext_large,1,184,NaN,boat,boat,false,0184_fc_dnn_false_boat_35_n02951358_29495.png,n02951358_29495.png,1.0,2.4646955,0.8594412,1.1350862
convnext_large,1,185,NaN,airplane,dog,false,0185_fc_dnn_false_dog_35_n02086646_8449.png,n02086646_8449.png,0.0,0.61749995,0.75221646,-0.09525896
convnext_large,1,186,NaN,boat,bird,true,0186_fc_dnn_true_bird_35_n02037110_4043.png,n02037110_4043.png,0.0,0.303063,0.38422948,-0.05739337
convnext_large,1,187,NaN,elephant,elephant,true,0187_fc_dnn_true_elephant_35_n02504458_4819.png,n02504458_4819.png,1.0,7.1000495,0.26219633,4.835092
convnext_large,1,188,NaN,oven,bird,true,0188_fc_dnn_true_bird_35_n01829413_282.png,n01829413_282.png,0.0,0.19200121,0.36343837,-0.12122438
convnext_large,1,189,NaN,airplane,bird,false,0189_fc_dnn_false_bird_35_n02007558_22160.png,n02007558_22160.png,0.0,-0.06411886,0.40923485,-0.33471164
convnext_large,1,190,NaN,truck,truck,false,0190_fc_dnn_false_truck_35_n03417042_3066.png,n03417042_3066.png,1.0,1.6619183,0.37210894,0.91203296
convnext_large,1,191,NaN,boat,boat,true,0191_fc_dnn_true_boat_35_n04612504_254.png,n04612504_254.png,1.0,2.6590095,0.37906408,1.6121649
convnext_large,1,192,NaN,keyboard,keyboard,false,0192_fc_dnn_false_keyboard_35_n03085013_20704.png,n03085013_20704.png,1.0,6.5348897,1.6148485,3.4789944
convnext_large,1,193,NaN,chair,chair,true,0193_fc_dnn_true_chair_35_n03376595_3015.png,n03376595_3015.png,1.0,2.7151513,0.1722323,1.7981153
convnext_large,1,194,NaN,bottle,bottle,false,0194_fc_dnn_false_bottle_35_n03983396_3782.png,n03983396_3782.png,1.0,3.134502,1.1239759,1.4216567
convnext_large,1,195,NaN,airplane,bird,false,0195_fc_dnn_false_bird_35_n01592084_4087.png,n01592084_4087.png,0.0,0.526631,0.770226,-0.17224768
convnext_large,1,196,NaN,car,bird,false,0196_fc_dnn_false_bird_35_n02013706_651.png,n02013706_651.png,0.0,0.2441297,0.4258431,-0.12849078
convnext_large,1,197,NaN,keyboard,keyboard,true,0197_fc_dnn_true_keyboard_35_n04505470_2825.png,n04505470_2825.png,1.0,4.643531,0.24733411,3.1085806
convnext_large,1,198,NaN,cat,cat,false,0198_fc_dnn_false_cat_35_n02123597_23346.png,n02123597_23346.png,1.0,2.5587091,0.41482678,1.5159538
convnext_large,1,199,NaN,cat,cat,false,0199_fc_dnn_false_cat_35_n02124075_3592.png,n02124075_3592.png,1.0,3.285826,0.4515398,2.004143
convnext_large,1,200,NaN,airplane,airplane,false,0200_fc_dnn_false_airplane_35_n02690373_5415.png,n02690373_5415.png,1.0,8.239292,0.31167686,5.6056705
convnext_large,1,201,NaN,cat,cat,true,0201_fc_dnn_true_cat_35_n02123597_4591.png,n02123597_4591.png,1.0,1.7700872,0.5244808,0.88077676
convnext_large,1,202,NaN,elephant,elephant,false,0202_fc_dnn_false_elephant_35_n02504013_2228.png,n02504013_2228.png,1.0,5.6034327,0.84275913,3.3663046
convnext_large,1,203,NaN,knife,knife,false,0203_fc_dnn_false_knife_35_n03041632_47743.png,n03041632_47743.png,1.0,9.045141,0.26153854,6.210945
convnext_large,1,204,NaN,bear,bear,false,0204_fc_dnn_false_bear_35_n02134418_1105.png,n02134418_1105.png,1.0,3.4312549,0.2625037,2.2406456
convnext_large,1,205,NaN,bottle,bottle,true,0205_fc_dnn_true_bottle_35_n04591713_1174.png,n04591713_1174.png,1.0,2.9116075,0.7191655,1.5502906
convnext_large,1,206,NaN,keyboard,keyboard,true,0206_fc_dnn_true_keyboard_35_n04505470_8544.png,n04505470_8544.png,1.0,5.3195486,1.0271797,3.0351632
convnext_large,1,207,NaN,bear,bear,true,0207_fc_dnn_true_bear_35_n02134418_379.png,n02134418_379.png,1.0,2.9183354,0.37656406,1.7973038
convnext_large,1,208,NaN,knife,knife,false,0208_fc_dnn_false_knife_35_n03041632_33198.png,n03041632_33198.png,1.0,6.584146,0.58439094,4.2424674
convnext_large,1,209,NaN,bear,bear,true,0209_fc_dnn_true_bear_35_n02134084_4490.png,n02134084_4490.png,1.0,3.0585198,0.47406563,1.8274852
convnext_large,1,210,NaN,car,car,true,0210_fc_dnn_true_car_35_n02814533_23592.png,n02814533_23592.png,1.0,4.293625,1.1949872,2.1910677
convnext_large,1,211,NaN,bear,dog,false,0211_fc_dnn_false_dog_35_n02102973_7095.png,n02102973_7095.png,0.0,0.52185476,0.7528087,-0.1633091
convnext_large,1,212,NaN,elephant,elephant,true,0212_fc_dnn_true_elephant_35_n02504013_3810.png,n02504013_3810.png,1.0,6.480423,0.4564097,4.2596207
convnext_large,1,213,NaN,truck,truck,false,0213_fc_dnn_false_truck_35_n03417042_28742.png,n03417042_28742.png,1.0,2.0418277,0.32778835,1.2120088
convnext_large,1,214,NaN,bicycle,bicycle,false,0214_fc_dnn_false_bicycle_35_n03792782_4382.png,n03792782_4382.png,1.0,5.510497,0.43313158,3.5902395
convnext_large,1,215,NaN,keyboard,keyboard,false,0215_fc_dnn_false_keyboard_35_n04505470_2868.png,n04505470_2868.png,1.0,5.0113363,0.68153644,3.0616307
convnext_large,1,216,NaN,bear,bear,true,0216_fc_dnn_true_bear_35_n02132136_4817.png,n02132136_4817.png,1.0,3.2582982,0.4473092,1.9876693
convnext_large,1,217,NaN,bicycle,bicycle,true,0217_fc_dnn_true_bicycle_35_n03792782_1989.png,n03792782_1989.png,1.0,5.3699737,0.18637289,3.6653595
convnext_large,1,218,NaN,truck,truck,true,0218_fc_dnn_true_truck_35_n03417042_4883.png,n03417042_4883.png,1.0,1.4487094,0.28663105,0.8217135
convnext_large,1,219,NaN,bicycle,bicycle,true,0219_fc_dnn_true_bicycle_35_n03792782_6614.png,n03792782_6614.png,1.0,6.4178376,0.34204996,4.296231
convnext_large,1,220,NaN,car,car,true,0220_fc_dnn_true_car_35_n04285008_8581.png,n04285008_8581.png,1.0,4.3699417,0.54028934,2.7079732
convnext_large,1,221,NaN,truck,truck,true,0221_fc_dnn_true_truck_35_n04467665_22051.png,n04467665_22051.png,1.0,2.296577,0.86370873,1.0131909
convnext_large,1,222,NaN,keyboard,keyboard,true,0222_fc_dnn_true_keyboard_35_n04505470_4516.png,n04505470_4516.png,1.0,4.9612527,0.64258355,3.0537605
convnext_large,1,223,NaN,clock,clock,true,0223_fc_dnn_true_clock_35_n02708093_3355.png,n02708093_3355.png,1.0,5.1424856,1.0223383,2.9133842
convnext_large,1,224,NaN,chair,chair,false,0224_fc_dnn_false_chair_35_n02791124_11404.png,n02791124_11404.png,1.0,2.0895793,0.29508984,1.2688957
convnext_large,1,225,NaN,boat,boat,true,0225_fc_dnn_true_boat_35_n03344393_1145.png,n03344393_1145.png,1.0,2.2331302,0.86664385,0.96625173
convnext_large,1,226,NaN,keyboard,keyboard,false,0226_fc_dnn_false_keyboard_35_n04505470_4627.png,n04505470_4627.png,1.0,4.9347897,0.5769861,3.0814323
convnext_large,1,227,NaN,chair,chair,true,0227_fc_dnn_true_chair_35_n03376595_4354.png,n03376595_4354.png,1.0,2.5196207,0.37132883,1.5190717
convnext_large,1,228,NaN,keyboard,keyboard,false,0228_fc_dnn_false_keyboard_35_n03085013_3231.png,n03085013_3231.png,1.0,6.475845,0.87939394,3.9572883
convnext_large,1,229,NaN,car,car,false,0229_fc_dnn_false_car_35_n03100240_7454.png,n03100240_7454.png,1.0,6.245622,0.51304984,4.053541
convnext_large,1,230,NaN,bicycle,chair,false,0230_fc_dnn_false_chair_35_n03376595_4212.png,n03376595_4212.png,0.0,1.4624531,2.0248873,-0.39770105
convnext_large,1,231,NaN,airplane,airplane,true,0231_fc_dnn_true_airplane_35_n02690373_4175.png,n02690373_4175.png,1.0,8.420022,0.39991552,5.6710715
convnext_large,1,232,NaN,dog,bird,false,0232_fc_dnn_false_bird_35_n01614925_19918.png,n01614925_19918.png,0.0,0.10848646,1.2455297,-0.804011
convnext_large,1,233,NaN,bicycle,dog,false,0233_fc_dnn_false_dog_35_n02086240_1183.png,n02086240_1183.png,0.0,0.388374,0.51461476,-0.0892657
convnext_large,1,234,NaN,car,car,false,0234_fc_dnn_false_car_35_n02814533_1344.png,n02814533_1344.png,1.0,2.8407242,0.8885799,1.3803746
convnext_large,1,235,NaN,bottle,bottle,true,0235_fc_dnn_true_bottle_35_n03983396_1321.png,n03983396_1321.png,1.0,2.1247756,0.5491148,1.1141604
convnext_large,1,236,NaN,cat,cat,true,0236_fc_dnn_true_cat_35_n02123597_6291.png,n02123597_6291.png,1.0,2.0255063,0.75461304,0.8986572
convnext_large,1,237,NaN,airplane,airplane,true,0237_fc_dnn_true_airplane_35_n02690373_7698.png,n02690373_7698.png,1.0,8.968011,2.0774014,4.872397
convnext_large,1,238,NaN,airplane,airplane,false,0238_fc_dnn_false_airplane_35_n02690373_4191.png,n02690373_4191.png,1.0,8.526849,0.68998706,5.541498
convnext_large,1,239,NaN,bear,bear,true,0239_fc_dnn_true_bear_35_n02134418_6204.png,n02134418_6204.png,1.0,3.7730126,0.53001535,2.2931454
convnext_large,1,240,NaN,bear,bear,true,0240_fc_dnn_true_bear_35_n02132136_14829.png,n02132136_14829.png,1.0,3.0803857,0.44705343,1.8620471
convnext_large,1,241,NaN,car,car,false,0241_fc_dnn_false_car_35_n04285008_2409.png,n04285008_2409.png,1.0,5.028745,0.35919267,3.3018723
convnext_large,1,242,NaN,bird,bird,true,0242_fc_dnn_true_bird_35_n02037110_3761.png,n02037110_3761.png,1.0,0.39202535,0.34837714,0.030863948
convnext_large,1,243,NaN,boat,boat,false,0243_fc_dnn_false_boat_35_n02951358_3067.png,n02951358_3067.png,1.0,2.4766214,0.7081626,1.2504892
convnext_large,1,244,NaN,chair,chair,false,0244_fc_dnn_false_chair_35_n03376595_14748.png,n03376595_14748.png,1.0,3.5841432,0.23792058,2.3661368
convnext_large,1,245,NaN,elephant,elephant,true,0245_fc_dnn_true_elephant_35_n02504458_5951.png,n02504458_5951.png,1.0,6.027216,0.4927073,3.9134886
convnext_large,1,246,NaN,clock,clock,false,0246_fc_dnn_false_clock_35_n02708093_2006.png,n02708093_2006.png,1.0,2.8860512,1.0610565,1.2904662
convnext_large,1,247,NaN,car,car,false,0247_fc_dnn_false_car_35_n03100240_18646.png,n03100240_18646.png,1.0,5.505132,0.2492216,3.71649
convnext_large,1,248,NaN,bicycle,bicycle,false,0248_fc_dnn_false_bicycle_35_n03792782_5864.png,n03792782_5864.png,1.0,5.83688,0.609054,3.6966314
convnext_large,1,249,NaN,chair,chair,false,0249_fc_dnn_false_chair_35_n04429376_36830.png,n04429376_36830.png,1.0,2.1546633,0.90143555,0.88616586
convnext_large,1,250,NaN,boat,boat,true,0250_fc_dnn_true_boat_35_n04273569_9282.png,n04273569_9282.png,1.0,2.896805,0.49788007,1.6962962
convnext_large,1,251,NaN,airplane,bird,true,0251_fc_dnn_true_bird_35_n01622779_1609.png,n01622779_1609.png,0.0,0.13015348,0.4493454,-0.22570278
convnext_large,1,252,NaN,dog,dog,true,0252_fc_dnn_true_dog_35_n02088094_9498.png,n02088094_9498.png,1.0,0.8282992,0.26913893,0.39538604
convnext_large,1,253,NaN,car,car,true,0253_fc_dnn_true_car_35_n04285008_5525.png,n04285008_5525.png,1.0,6.41053,0.12041382,4.447784
convnext_large,1,254,NaN,knife,knife,true,0254_fc_dnn_true_knife_35_n03041632_29343.png,n03041632_29343.png,1.0,6.0367913,1.0900954,3.4978423
convnext_large,1,255,NaN,knife,knife,true,0255_fc_dnn_true_knife_35_n03041632_86338.png,n03041632_86338.png,1.0,9.38366,2.035437,5.1959786
convnext_large,1,256,NaN,keyboard,keyboard,false,0256_fc_dnn_false_keyboard_35_n03085013_20691.png,n03085013_20691.png,1.0,4.540099,0.91446763,2.5637088
convnext_large,1,257,NaN,cat,cat,true,0257_fc_dnn_true_cat_35_n02124075_1957.png,n02124075_1957.png,1.0,2.603561,0.92142355,1.1894507
convnext_large,1,258,NaN,bear,bear,false,0258_fc_dnn_false_bear_35_n02134418_195.png,n02134418_195.png,1.0,3.5222483,0.2395546,2.321215
convnext_large,1,259,NaN,chair,chair,true,0259_fc_dnn_true_chair_35_n02791124_1376.png,n02791124_1376.png,1.0,2.564509,0.6683466,1.3407892
convnext_large,1,260,NaN,elephant,elephant,false,0260_fc_dnn_false_elephant_35_n02504458_8060.png,n02504458_8060.png,1.0,6.6397943,0.49222705,4.346987
convnext_large,1,261,NaN,oven,oven,false,0261_fc_dnn_false_oven_35_n04111531_6479.png,n04111531_6479.png,1.0,8.726538,0.3199881,5.9443283
convnext_large,1,262,NaN,bear,bear,true,0262_fc_dnn_true_bear_35_n02132136_4070.png,n02132136_4070.png,1.0,3.3918839,0.754791,1.8647063
convnext_large,1,263,NaN,cat,cat,false,0263_fc_dnn_false_cat_35_n02123597_1153.png,n02123597_1153.png,1.0,2.8736308,0.28236386,1.8323025
convnext_large,1,264,NaN,truck,truck,false,0264_fc_dnn_false_truck_35_n04467665_49656.png,n04467665_49656.png,1.0,2.6359887,0.42891586,1.5606362
convnext_large,1,265,NaN,dog,dog,true,0265_fc_dnn_true_dog_35_n02108915_10239.png,n02108915_10239.png,1.0,0.49995127,0.19139925,0.21817924
convnext_large,1,266,NaN,chair,chair,false,0266_fc_dnn_false_chair_35_n04429376_6835.png,n04429376_6835.png,1.0,2.8924978,1.5253589,0.9667132
convnext_large,1,267,NaN,truck,truck,true,0267_fc_dnn_true_truck_35_n04467665_54079.png,n04467665_54079.png,1.0,2.2139359,0.44264802,1.2524897
convnext_large,1,268,NaN,clock,clock,false,0268_fc_dnn_false_clock_35_n03196217_4464.png,n03196217_4464.png,1.0,4.792009,0.75960827,2.851338
convnext_large,1,269,NaN,dog,dog,true,0269_fc_dnn_true_dog_35_n02102318_9359.png,n02102318_9359.png,1.0,0.83897924,0.39902195,0.3110968
convnext_large,1,270,NaN,bicycle,bicycle,true,0270_fc_dnn_true_bicycle_35_n03792782_12578.png,n03792782_12578.png,1.0,5.714355,0.50078607,3.68655
convnext_large,1,271,NaN,bicycle,bicycle,true,0271_fc_dnn_true_bicycle_35_n02835271_12752.png,n02835271_12752.png,1.0,5.6372414,0.7646618,3.445434
convnext_large,1,272,NaN,oven,oven,true,0272_fc_dnn_true_oven_35_n04111531_20056.png,n04111531_20056.png,1.0,8.176457,1.8940682,4.44232
convnext_large,1,273,NaN,oven,oven,true,0273_fc_dnn_true_oven_35_n04111531_12510.png,n04111531_12510.png,1.0,8.517517,0.45800632,5.698935
convnext_large,1,274,NaN,oven,oven,false,0274_fc_dnn_false_oven_35_n04111531_11079.png,n04111531_11079.png,1.0,9.047548,0.28424117,6.196594
convnext_large,1,275,NaN,cat,cat,true,0275_fc_dnn_true_cat_35_n02124075_4377.png,n02124075_4377.png,1.0,3.8766587,0.58414364,2.3281598
convnext_large,1,276,NaN,knife,knife,true,0276_fc_dnn_true_knife_35_n03041632_20517.png,n03041632_20517.png,1.0,8.448934,0.30634943,5.757676
convnext_large,1,277,NaN,knife,knife,false,0277_fc_dnn_false_knife_35_n03041632_362.png,n03041632_362.png,1.0,7.728363,0.25704566,5.283019
convnext_large,1,278,NaN,airplane,airplane,false,0278_fc_dnn_false_airplane_35_n02690373_6807.png,n02690373_6807.png,1.0,8.855888,0.53530025,5.8835444
convnext_large,1,279,NaN,elephant,elephant,false,0279_fc_dnn_false_elephant_35_n02504013_1494.png,n02504013_1494.png,1.0,7.126564,0.37590447,4.773437
convnext_large,1,280,NaN,oven,oven,false,0280_fc_dnn_false_oven_35_n04111531_3181.png,n04111531_3181.png,1.0,5.0093045,2.2728598,1.9349587
convnext_large,1,281,NaN,truck,truck,false,0281_fc_dnn_false_truck_35_n03796401_6727.png,n03796401_6727.png,1.0,1.673593,0.8076236,0.6123329
convnext_large,1,282,NaN,dog,dog,true,0282_fc_dnn_true_dog_35_n02113023_6956.png,n02113023_6956.png,1.0,0.37601712,0.2470375,0.09120237
convnext_large,1,283,NaN,elephant,elephant,false,0283_fc_dnn_false_elephant_35_n02504013_1519.png,n02504013_1519.png,1.0,5.7833586,0.443271,3.7760122
convnext_large,1,284,NaN,oven,oven,false,0284_fc_dnn_false_oven_35_n04111531_8082.png,n04111531_8082.png,1.0,8.522862,0.99515903,5.3228903
convnext_large,1,285,NaN,oven,oven,false,0285_fc_dnn_false_oven_35_n04111531_550.png,n04111531_550.png,1.0,8.382925,0.87072384,5.3119287
convnext_large,1,286,NaN,clock,clock,false,0286_fc_dnn_false_clock_35_n02708093_2242.png,n02708093_2242.png,1.0,5.234303,0.43295366,3.3950665
convnext_large,1,287,NaN,airplane,airplane,true,0287_fc_dnn_true_airplane_35_n02690373_10809.png,n02690373_10809.png,1.0,7.970978,0.78092504,5.0841355
convnext_large,1,288,NaN,airplane,bird,false,0288_fc_dnn_false_bird_35_n02037110_6501.png,n02037110_6501.png,0.0,0.7221621,1.1272712,-0.28645536
convnext_large,1,289,NaN,airplane,airplane,false,0289_fc_dnn_false_airplane_35_n02690373_12756.png,n02690373_12756.png,1.0,8.908871,0.9247801,5.6456046
convnext_large,1,290,NaN,bottle,bottle,false,0290_fc_dnn_false_bottle_35_n03983396_5413.png,n03983396_5413.png,1.0,2.8082526,0.82645607,1.4013418
convnext_large,1,291,NaN,bird,bird,true,0291_fc_dnn_true_bird_35_n01560419_631.png,n01560419_631.png,1.0,0.46814093,0.24370947,0.15869701
convnext_large,1,292,NaN,cat,cat,true,0292_fc_dnn_true_cat_35_n02123394_4734.png,n02123394_4734.png,1.0,1.2063183,0.48871416,0.50742275
convnext_large,1,293,NaN,bottle,bottle,true,0293_fc_dnn_true_bottle_35_n03937543_469.png,n03937543_469.png,1.0,0.9050933,0.7118433,0.13664839
convnext_large,1,294,NaN,clock,clock,true,0294_fc_dnn_true_clock_35_n04548280_1055.png,n04548280_1055.png,1.0,5.6533113,0.29050857,3.792074
convnext_large,1,295,NaN,chair,chair,true,0295_fc_dnn_true_chair_35_n02791124_15934.png,n02791124_15934.png,1.0,2.9331346,0.55083877,1.6845375
convnext_large,1,296,NaN,keyboard,keyboard,true,0296_fc_dnn_true_keyboard_35_n03085013_22187.png,n03085013_22187.png,1.0,5.7126904,3.3262272,1.6874843
convnext_large,1,297,NaN,dog,dog,false,0297_fc_dnn_false_dog_35_n02099601_8560.png,n02099601_8560.png,1.0,0.9939097,0.25265518,0.52414614
convnext_large,1,298,NaN,truck,truck,true,0298_fc_dnn_true_truck_35_n03417042_11091.png,n03417042_11091.png,1.0,1.7911588,0.5193201,0.8993258
convnext_large,1,299,NaN,dog,bird,true,0299_fc_dnn_true_bird_35_n02013706_7132.png,n02013706_7132.png,0.0,0.49325863,0.60127383,-0.076378286
convnext_large,1,300,NaN,car,car,false,0300_fc_dnn_false_car_35_n02814533_4978.png,n02814533_4978.png,1.0,5.2569194,1.8041079,2.4415064
convnext_large,1,301,NaN,bear,bear,true,0301_fc_dnn_true_bear_35_n02134418_6244.png,n02134418_6244.png,1.0,2.4814136,0.35616502,1.5027778
convnext_large,1,302,NaN,bicycle,bicycle,false,0302_fc_dnn_false_bicycle_35_n03792782_50569.png,n03792782_50569.png,1.0,6.1784735,1.0845438,3.6019523
convnext_large,1,303,NaN,car,car,true,0303_fc_dnn_true_car_35_n03100240_2632.png,n03100240_2632.png,1.0,6.4453263,0.43091536,4.252831
convnext_large,1,304,NaN,knife,knife,false,0304_fc_dnn_false_knife_35_n03041632_11285.png,n03041632_11285.png,1.0,8.655783,0.30830553,5.902558
convnext_large,1,305,NaN,knife,knife,false,0305_fc_dnn_false_knife_35_n03041632_39952.png,n03041632_39952.png,1.0,7.6149406,0.16218641,5.269893
convnext_large,1,306,NaN,chair,chair,true,0306_fc_dnn_true_chair_35_n04099969_9745.png,n04099969_9745.png,1.0,4.1988683,1.2924026,2.0551815
convnext_large,1,307,NaN,car,car,true,0307_fc_dnn_true_car_35_n03100240_49.png,n03100240_49.png,1.0,6.076341,0.540755,3.9142506
convnext_large,1,308,NaN,knife,bird,true,0308_fc_dnn_true_bird_35_n01817953_5953.png,n01817953_5953.png,0.0,0.18489659,0.56128436,-0.26614636
convnext_large,1,309,NaN,bear,bear,false,0309_fc_dnn_false_bear_35_n02134418_5253.png,n02134418_5253.png,1.0,4.9668484,0.42284542,3.2130954
convnext_large,1,310,NaN,bicycle,bicycle,false,0310_fc_dnn_false_bicycle_35_n03792782_7576.png,n03792782_7576.png,1.0,5.7916603,1.1471528,3.2841628
convnext_large,1,311,NaN,keyboard,keyboard,true,0311_fc_dnn_true_keyboard_35_n03085013_5157.png,n03085013_5157.png,1.0,7.8349843,0.6673544,5.0682797
convnext_large,1,312,NaN,boat,boat,true,0312_fc_dnn_true_boat_35_n03344393_7050.png,n03344393_7050.png,1.0,1.8563116,0.6309354,0.86647177
convnext_large,1,313,NaN,bicycle,bicycle,false,0313_fc_dnn_false_bicycle_35_n03792782_51335.png,n03792782_51335.png,1.0,6.985301,2.1437607,3.423486
convnext_large,1,314,NaN,cat,cat,true,0314_fc_dnn_true_cat_35_n02124075_7230.png,n02124075_7230.png,1.0,3.215574,0.98829347,1.5749253
convnext_large,1,315,NaN,truck,truck,true,0315_fc_dnn_true_truck_35_n04467665_68020.png,n04467665_68020.png,1.0,2.1784809,1.1111563,0.7547124
convnext_large,1,316,NaN,elephant,elephant,true,0316_fc_dnn_true_elephant_35_n02504458_2970.png,n02504458_2970.png,1.0,7.48766,0.66067845,4.827405
convnext_large,1,317,NaN,bicycle,bicycle,false,0317_fc_dnn_false_bicycle_35_n02835271_2714.png,n02835271_2714.png,1.0,5.3637915,0.82260996,3.2111003
convnext_large,1,318,NaN,elephant,elephant,true,0318_fc_dnn_true_elephant_35_n02504013_3307.png,n02504013_3307.png,1.0,5.9021883,0.26201868,3.9882023
convnext_large,1,319,NaN,truck,truck,true,0319_fc_dnn_true_truck_35_n03796401_3940.png,n03796401_3940.png,1.0,1.9943756,0.41599128,1.1160862
convnext_large,1,320,NaN,chair,chair,false,0320_fc_dnn_false_chair_35_n04429376_5362.png,n04429376_5362.png,1.0,2.5089843,0.42460302,1.4738802
convnext_large,1,321,NaN,cat,cat,false,0321_fc_dnn_false_cat_35_n02123159_1165.png,n02123159_1165.png,1.0,4.7385883,1.571068,2.2397752
convnext_large,1,322,NaN,boat,boat,true,0322_fc_dnn_true_boat_35_n03662601_4665.png,n03662601_4665.png,1.0,2.7075858,0.9353317,1.2531729
convnext_large,1,323,NaN,cat,cat,true,0323_fc_dnn_true_cat_35_n02124075_5067.png,n02124075_5067.png,1.0,2.614014,0.68562686,1.3635756
convnext_large,1,324,NaN,knife,knife,true,0324_fc_dnn_true_knife_35_n03041632_22480.png,n03041632_22480.png,1.0,8.545544,1.0654231,5.289244
convnext_large,1,325,NaN,bicycle,bottle,false,0325_fc_dnn_false_bottle_35_n04560804_2539.png,n04560804_2539.png,0.0,1.239849,4.801648,-2.5185723
convnext_large,1,326,NaN,oven,oven,true,0326_fc_dnn_true_oven_35_n04111531_8681.png,n04111531_8681.png,1.0,8.333863,0.34515712,5.6488686
convnext_large,1,327,NaN,car,car,false,0327_fc_dnn_false_car_35_n03100240_23804.png,n03100240_23804.png,1.0,5.8112454,1.0967228,3.3336709
convnext_large,1,328,NaN,oven,oven,true,0328_fc_dnn_true_oven_35_n04111531_547.png,n04111531_547.png,1.0,7.7087393,0.79350996,4.889806
convnext_large,1,329,NaN,boat,boat,false,0329_fc_dnn_false_boat_35_n04273569_9873.png,n04273569_9873.png,1.0,2.6708703,0.6192076,1.4507446
convnext_large,1,330,NaN,cat,cat,false,0330_fc_dnn_false_cat_35_n02123597_13140.png,n02123597_13140.png,1.0,3.1573067,0.5708748,1.8288836
convnext_large,1,331,NaN,bear,bear,true,0331_fc_dnn_true_bear_35_n02134418_1330.png,n02134418_1330.png,1.0,3.5335515,0.3004153,2.2861726
convnext_large,1,332,NaN,chair,chair,false,0332_fc_dnn_false_chair_35_n04429376_6272.png,n04429376_6272.png,1.0,2.180914,0.67640966,1.0638452
convnext_large,1,333,NaN,bear,bear,false,0333_fc_dnn_false_bear_35_n02134084_22997.png,n02134084_22997.png,1.0,3.7823203,0.6788857,2.1944597
convnext_large,1,334,NaN,clock,clock,false,0334_fc_dnn_false_clock_35_n03196217_3508.png,n03196217_3508.png,1.0,3.8448012,1.5479133,1.624145
convnext_large,1,335,NaN,chair,chair,true,0335_fc_dnn_true_chair_35_n02791124_958.png,n02791124_958.png,1.0,1.872166,0.38999882,1.0480505
convnext_large,1,336,NaN,boat,boat,false,0336_fc_dnn_false_boat_35_n03344393_4012.png,n03344393_4012.png,1.0,2.1096938,0.7438373,0.96580637
convnext_large,1,337,NaN,airplane,airplane,true,0337_fc_dnn_true_airplane_35_n02690373_4921.png,n02690373_4921.png,1.0,8.284546,0.53757346,5.4779367
convnext_large,1,338,NaN,bear,cat,false,0338_fc_dnn_false_cat_35_n02125311_28052.png,n02125311_28052.png,0.0,1.8332663,2.1521957,-0.22551717
convnext_large,1,339,NaN,airplane,airplane,false,0339_fc_dnn_false_airplane_35_n02690373_1837.png,n02690373_1837.png,1.0,8.826651,0.5334727,5.8641624
convnext_large,1,340,NaN,elephant,elephant,false,0340_fc_dnn_false_elephant_35_n02504458_5191.png,n02504458_5191.png,1.0,7.8423796,0.393219,5.267352
convnext_large,1,341,NaN,boat,bird,false,0341_fc_dnn_false_bird_35_n01855672_2187.png,n01855672_2187.png,0.0,0.33667925,0.6633768,-0.23101006
convnext_large,1,342,NaN,clock,clock,true,0342_fc_dnn_true_clock_35_n04548280_7794.png,n04548280_7794.png,1.0,5.5060325,0.43162853,3.5881453
convnext_large,1,343,NaN,clock,clock,false,0343_fc_dnn_false_clock_35_n03196217_8489.png,n03196217_8489.png,1.0,4.062489,3.6298778,0.30590233
convnext_large,1,344,NaN,knife,knife,false,0344_fc_dnn_false_knife_35_n03041632_21590.png,n03041632_21590.png,1.0,6.6888223,1.0986791,3.9528282
convnext_large,1,345,NaN,elephant,elephant,false,0345_fc_dnn_false_elephant_35_n02504458_1249.png,n02504458_1249.png,1.0,6.3573895,0.39625275,4.2151604
convnext_large,1,346,NaN,keyboard,keyboard,false,0346_fc_dnn_false_keyboard_35_n04505470_4549.png,n04505470_4549.png,1.0,5.066449,0.76399314,3.0422957
convnext_large,1,347,NaN,elephant,elephant,false,0347_fc_dnn_false_elephant_35_n02504013_3771.png,n02504013_3771.png,1.0,5.287594,0.778166,3.1886473
convnext_large,1,348,NaN,bicycle,bicycle,true,0348_fc_dnn_true_bicycle_35_n02835271_19552.png,n02835271_19552.png,1.0,5.1201367,0.77841914,3.070058
convnext_large,1,349,NaN,bear,bear,true,0349_fc_dnn_true_bear_35_n02134084_4477.png,n02134084_4477.png,1.0,3.0733256,0.2421228,2.0019627
convnext_large,1,350,NaN,elephant,elephant,false,0350_fc_dnn_false_elephant_35_n02504013_10149.png,n02504013_10149.png,1.0,6.7025266,0.23371643,4.5741396
convnext_large,1,351,NaN,boat,boat,true,0351_fc_dnn_true_boat_35_n04273569_709.png,n04273569_709.png,1.0,3.1628919,1.2145851,1.377661
convnext_large,1,352,NaN,car,car,false,0352_fc_dnn_false_car_35_n03100240_7120.png,n03100240_7120.png,1.0,5.948215,0.9438034,3.5386536
convnext_large,1,353,NaN,car,boat,false,0353_fc_dnn_false_boat_35_n02951358_12867.png,n02951358_12867.png,0.0,1.7346913,2.8070905,-0.7583008
convnext_large,1,354,NaN,car,bird,true,0354_fc_dnn_true_bird_35_n01558993_38999.png,n01558993_38999.png,0.0,0.19649218,0.42488697,-0.16149952
convnext_large,1,355,NaN,bicycle,bicycle,false,0355_fc_dnn_false_bicycle_35_n03792782_4210.png,n03792782_4210.png,1.0,5.844471,1.9384199,2.7619953
convnext_large,1,356,NaN,dog,dog,false,0356_fc_dnn_false_dog_35_n02102318_11997.png,n02102318_11997.png,1.0,0.3945937,0.23662663,0.11169958
convnext_large,1,357,NaN,clock,clock,false,0357_fc_dnn_false_clock_35_n02708093_6813.png,n02708093_6813.png,1.0,4.3800387,0.53726363,2.7172525
convnext_large,1,358,NaN,oven,oven,false,0358_fc_dnn_false_oven_35_n04111531_8036.png,n04111531_8036.png,1.0,8.182595,1.5154494,4.714384
convnext_large,1,359,NaN,clock,clock,false,0359_fc_dnn_false_clock_35_n02708093_3454.png,n02708093_3454.png,1.0,5.3623548,0.357395,3.5390408
convnext_large,1,360,NaN,keyboard,keyboard,true,0360_fc_dnn_true_keyboard_35_n03085013_21641.png,n03085013_21641.png,1.0,6.070573,0.50426245,3.9359758
convnext_large,1,361,NaN,chair,chair,false,0361_fc_dnn_false_chair_35_n02791124_139.png,n02791124_139.png,1.0,2.205777,0.61948293,1.1216792
convnext_large,1,362,NaN,bear,bear,false,0362_fc_dnn_false_bear_35_n02134084_6821.png,n02134084_6821.png,1.0,3.3284435,0.4233189,2.0542333
convnext_large,1,363,NaN,cat,cat,false,0363_fc_dnn_false_cat_35_n02124075_5874.png,n02124075_5874.png,1.0,3.399867,0.6138366,1.9700211
convnext_large,1,364,NaN,chair,chair,false,0364_fc_dnn_false_chair_35_n04099969_8604.png,n04099969_8604.png,1.0,3.4648907,0.19990402,2.3086944
convnext_large,1,365,NaN,bicycle,bicycle,true,0365_fc_dnn_true_bicycle_35_n02835271_15524.png,n02835271_15524.png,1.0,4.9676485,0.6867869,3.0270264
convnext_large,1,366,NaN,chair,chair,false,0366_fc_dnn_false_chair_35_n04429376_55163.png,n04429376_55163.png,1.0,4.8892927,1.615748,2.3147457
convnext_large,1,367,NaN,dog,dog,true,0367_fc_dnn_true_dog_35_n02106662_10632.png,n02106662_10632.png,1.0,0.5657336,0.030330874,0.3785869
convnext_large,1,368,NaN,car,car,false,0368_fc_dnn_false_car_35_n03100240_9675.png,n03100240_9675.png,1.0,5.912399,0.315355,3.957708
convnext_large,1,369,NaN,knife,bird,true,0369_fc_dnn_true_bird_35_n02011460_22291.png,n02011460_22291.png,0.0,0.27389535,0.30105913,-0.019207688
convnext_large,1,370,NaN,dog,dog,false,0370_fc_dnn_false_dog_35_n02106662_56099.png,n02106662_56099.png,1.0,0.48605868,0.10306177,0.27081972
convnext_large,1,371,NaN,keyboard,keyboard,false,0371_fc_dnn_false_keyboard_35_n04505470_3970.png,n04505470_3970.png,1.0,5.668931,0.692079,3.5191658
convnext_large,1,372,NaN,boat,boat,false,0372_fc_dnn_false_boat_35_n03662601_32803.png,n03662601_32803.png,1.0,4.3083487,0.64504516,2.5903468
convnext_large,1,373,NaN,bottle,bottle,false,0373_fc_dnn_false_bottle_35_n02823428_4043.png,n02823428_4043.png,1.0,3.2789135,1.0512948,1.5751643
convnext_large,1,374,NaN,airplane,airplane,true,0374_fc_dnn_true_airplane_35_n02690373_5221.png,n02690373_5221.png,1.0,8.496519,0.55334586,5.616672
convnext_large,1,375,NaN,knife,knife,false,0375_fc_dnn_false_knife_35_n03041632_90125.png,n03041632_90125.png,1.0,8.222417,0.81075895,5.2408338
convnext_large,1,376,NaN,oven,oven,false,0376_fc_dnn_false_oven_35_n04111531_11230.png,n04111531_11230.png,1.0,8.43434,0.4945818,5.614257
convnext_large,1,377,NaN,keyboard,keyboard,true,0377_fc_dnn_true_keyboard_35_n04505470_3002.png,n04505470_3002.png,1.0,5.4055796,0.38503924,3.5500581
convnext_large,1,378,NaN,bicycle,bicycle,true,0378_fc_dnn_true_bicycle_35_n02835271_12237.png,n02835271_12237.png,1.0,5.0845246,0.64820546,3.1369514
convnext_large,1,379,NaN,keyboard,dog,false,0379_fc_dnn_false_dog_35_n02088238_9947.png,n02088238_9947.png,0.0,0.30504146,1.400265,-0.77444
convnext_large,1,380,NaN,airplane,airplane,false,0380_fc_dnn_false_airplane_35_n02690373_2075.png,n02690373_2075.png,1.0,6.6016374,1.4468933,3.6449547
convnext_large,1,381,NaN,bicycle,bicycle,false,0381_fc_dnn_false_bicycle_35_n02835271_12930.png,n02835271_12930.png,1.0,5.4197373,0.3159566,3.608918
convnext_large,1,382,NaN,dog,dog,false,0382_fc_dnn_false_dog_35_n02096294_4609.png,n02096294_4609.png,1.0,0.7361813,0.22678791,0.36019552
convnext_large,1,383,NaN,knife,knife,false,0383_fc_dnn_false_knife_35_n03041632_15754.png,n03041632_15754.png,1.0,7.83129,0.4664308,5.2077417
convnext_large,1,384,NaN,airplane,bird,true,0384_fc_dnn_true_bird_35_n01819313_5634.png,n01819313_5634.png,0.0,0.0974465,0.25372034,-0.110502295
convnext_large,1,385,NaN,clock,clock,true,0385_fc_dnn_true_clock_35_n02708093_8386.png,n02708093_8386.png,1.0,5.9703884,0.091388784,4.1570807
convnext_large,1,386,NaN,bottle,bottle,false,0386_fc_dnn_false_bottle_35_n04579145_6435.png,n04579145_6435.png,1.0,1.9756995,0.41739893,1.101885
convnext_large,1,387,NaN,airplane,airplane,true,0387_fc_dnn_true_airplane_35_n02690373_9531.png,n02690373_9531.png,1.0,8.241474,1.1077912,5.0442758
convnext_large,1,388,NaN,bicycle,bottle,true,0388_fc_dnn_true_bottle_35_n04591713_5518.png,n04591713_5518.png,0.0,1.8918761,2.658616,-0.542167
convnext_large,1,389,NaN,airplane,airplane,false,0389_fc_dnn_false_airplane_35_n02690373_12896.png,n02690373_12896.png,1.0,8.43679,0.46754092,5.635111
convnext_large,1,390,NaN,truck,truck,false,0390_fc_dnn_false_truck_35_n03796401_124.png,n03796401_124.png,1.0,3.5513353,0.86124057,1.9021842
convnext_large,1,391,NaN,bicycle,bicycle,true,0391_fc_dnn_true_bicycle_35_n03792782_7050.png,n03792782_7050.png,1.0,4.953951,1.5452437,2.41032
convnext_large,1,392,NaN,bicycle,bicycle,true,0392_fc_dnn_true_bicycle_35_n02835271_13729.png,n02835271_13729.png,1.0,5.102675,0.39213997,3.3308513
convnext_large,1,393,NaN,bird,bird,false,0393_fc_dnn_false_bird_35_n02027492_3922.png,n02027492_3922.png,1.0,0.7724404,0.46908474,0.21450482
convnext_large,1,394,NaN,elephant,elephant,true,0394_fc_dnn_true_elephant_35_n02504013_9809.png,n02504013_9809.png,1.0,5.5241823,0.3873392,3.6322968
convnext_large,1,395,NaN,keyboard,keyboard,false,0395_fc_dnn_false_keyboard_35_n04505470_5086.png,n04505470_5086.png,1.0,5.098938,0.66204804,3.137355
convnext_large,1,396,NaN,keyboard,keyboard,true,0396_fc_dnn_true_keyboard_35_n03085013_19439.png,n03085013_19439.png,1.0,6.5652485,0.50003415,4.288754
convnext_large,1,397,NaN,airplane,airplane,false,0397_fc_dnn_false_airplane_35_n02690373_9926.png,n02690373_9926.png,1.0,8.297111,0.20657742,5.720871
convnext_large,1,398,NaN,elephant,elephant,true,0398_fc_dnn_true_elephant_35_n02504458_3197.png,n02504458_3197.png,1.0,7.2296195,0.48975876,4.765801
convnext_large,1,399,NaN,knife,dog,false,0399_fc_dnn_false_dog_35_n02110185_14056.png,n02110185_14056.png,0.0,0.4611933,0.53455913,-0.051877484
convnext_large,1,400,NaN,airplane,airplane,true,0400_fc_dnn_true_airplane_35_n02690373_2823.png,n02690373_2823.png,1.0,8.385971,0.39655352,5.6493716
convnext_large,1,401,NaN,bicycle,bicycle,false,0401_fc_dnn_false_bicycle_35_n02835271_14157.png,n02835271_14157.png,1.0,6.7938952,0.9014798,4.166567
convnext_large,1,402,NaN,chair,chair,true,0402_fc_dnn_true_chair_35_n03376595_606.png,n03376595_606.png,1.0,3.5740688,0.26264018,2.3415337
convnext_large,1,403,NaN,airplane,airplane,false,0403_fc_dnn_false_airplane_35_n02690373_1442.png,n02690373_1442.png,1.0,8.17075,0.43540213,5.469717
convnext_large,1,404,NaN,keyboard,keyboard,true,0404_fc_dnn_true_keyboard_35_n04505470_10035.png,n04505470_10035.png,1.0,6.4584656,0.32807806,4.3348384
convnext_large,1,405,NaN,bear,bear,true,0405_fc_dnn_true_bear_35_n02133161_13278.png,n02133161_13278.png,1.0,5.14888,0.65880585,3.174962
convnext_large,1,406,NaN,bear,bear,true,0406_fc_dnn_true_bear_35_n02134418_2657.png,n02134418_2657.png,1.0,3.258458,0.7723173,1.757967
convnext_large,1,407,NaN,bear,bear,false,0407_fc_dnn_false_bear_35_n02133161_12894.png,n02133161_12894.png,1.0,4.8993254,0.37946355,3.196025
convnext_large,1,408,NaN,clock,clock,false,0408_fc_dnn_false_clock_35_n03196217_6195.png,n03196217_6195.png,1.0,4.2627916,0.7481001,2.4852624
convnext_large,1,409,NaN,bottle,bottle,true,0409_fc_dnn_true_bottle_35_n04591713_13349.png,n04591713_13349.png,1.0,2.6219907,0.43759173,1.5446033
convnext_large,1,410,NaN,airplane,boat,false,0410_fc_dnn_false_boat_35_n04273569_16295.png,n04273569_16295.png,0.0,3.2867596,4.2688394,-0.69443524
convnext_large,1,411,NaN,elephant,elephant,false,0411_fc_dnn_false_elephant_35_n02504013_2672.png,n02504013_2672.png,1.0,6.0294123,0.38284725,3.9927244
convnext_large,1,412,NaN,bear,bear,true,0412_fc_dnn_true_bear_35_n02134084_22292.png,n02134084_22292.png,1.0,3.2781553,0.5514891,1.9280442
convnext_large,1,413,NaN,airplane,airplane,false,0413_fc_dnn_false_airplane_35_n02690373_997.png,n02690373_997.png,1.0,8.658503,0.69215184,5.6330605
convnext_large,1,414,NaN,knife,knife,true,0414_fc_dnn_true_knife_35_n03041632_29337.png,n03041632_29337.png,1.0,7.932868,0.38560477,5.336721
convnext_large,1,415,NaN,elephant,elephant,true,0415_fc_dnn_true_elephant_35_n02504458_3261.png,n02504458_3261.png,1.0,6.568603,0.27612793,4.449452
convnext_large,1,416,NaN,oven,oven,true,0416_fc_dnn_true_oven_35_n04111531_22120.png,n04111531_22120.png,1.0,8.167376,0.44650555,5.45948
convnext_large,1,417,NaN,bear,bear,true,0417_fc_dnn_true_bear_35_n02134418_830.png,n02134418_830.png,1.0,2.6459515,0.31826913,1.6459202
convnext_large,1,418,NaN,truck,truck,false,0418_fc_dnn_false_truck_35_n03417042_2124.png,n03417042_2124.png,1.0,2.7131696,0.29687253,1.70858
convnext_large,1,419,NaN,bicycle,bicycle,false,0419_fc_dnn_false_bicycle_35_n02835271_14585.png,n02835271_14585.png,1.0,4.807055,0.75088245,2.8681471
convnext_large,1,420,NaN,oven,oven,true,0420_fc_dnn_true_oven_35_n04111531_2855.png,n04111531_2855.png,1.0,8.555626,0.77188283,5.5039377
convnext_large,1,421,NaN,cat,cat,false,0421_fc_dnn_false_cat_35_n02123394_4383.png,n02123394_4383.png,1.0,2.0805633,0.24532995,1.297706
convnext_large,1,422,NaN,cat,cat,true,0422_fc_dnn_true_cat_35_n02125311_17068.png,n02125311_17068.png,1.0,1.5837926,0.35290125,0.87037164
convnext_large,1,423,NaN,bird,bird,false,0423_fc_dnn_false_bird_35_n01560419_2291.png,n01560419_2291.png,1.0,0.9165412,0.5095279,0.28780186
convnext_large,1,424,NaN,bicycle,bird,false,0424_fc_dnn_false_bird_35_n01829413_2459.png,n01829413_2459.png,0.0,0.091541216,0.22363378,-0.09340355
convnext_large,1,425,NaN,oven,oven,true,0425_fc_dnn_true_oven_35_n04111531_13822.png,n04111531_13822.png,1.0,8.253478,0.22461821,5.6772614
convnext_large,1,426,NaN,bear,bear,false,0426_fc_dnn_false_bear_35_n02133161_5067.png,n02133161_5067.png,1.0,5.5163274,0.50455886,3.5438554
convnext_large,1,427,NaN,chair,chair,false,0427_fc_dnn_false_chair_35_n02791124_885.png,n02791124_885.png,1.0,2.358175,0.2652391,1.4799293
convnext_large,1,428,NaN,oven,dog,true,0428_fc_dnn_true_dog_35_n02107312_7182.png,n02107312_7182.png,0.0,0.06950485,0.35763845,-0.20374122
convnext_large,1,429,NaN,truck,truck,true,0429_fc_dnn_true_truck_35_n04467665_13989.png,n04467665_13989.png,1.0,1.8132706,0.85775876,0.67564887
convnext_large,1,430,NaN,oven,dog,true,0430_fc_dnn_true_dog_35_n02102480_10232.png,n02102480_10232.png,0.0,0.04058251,0.79447544,-0.5330828
convnext_large,1,431,NaN,oven,oven,false,0431_fc_dnn_false_oven_35_n04111531_643.png,n04111531_643.png,1.0,8.3953085,1.6649145,4.759107
convnext_large,1,432,NaN,boat,boat,true,0432_fc_dnn_true_boat_35_n02951358_31514.png,n02951358_31514.png,1.0,2.4646666,0.2235154,1.5847331
convnext_large,1,433,NaN,oven,oven,true,0433_fc_dnn_true_oven_35_n04111531_1898.png,n04111531_1898.png,1.0,8.396226,0.56967217,5.5342093
convnext_large,1,434,NaN,car,car,true,0434_fc_dnn_true_car_35_n03100240_5865.png,n03100240_5865.png,1.0,6.0491614,0.47946587,3.9383695
convnext_large,1,435,NaN,keyboard,keyboard,true,0435_fc_dnn_true_keyboard_35_n04505470_4369.png,n04505470_4369.png,1.0,5.2958775,0.52617013,3.3726923
convnext_large,1,436,NaN,cat,cat,false,0436_fc_dnn_false_cat_35_n02123394_1942.png,n02123394_1942.png,1.0,1.6565853,0.49643874,0.82034755
convnext_large,1,437,NaN,car,car,true,0437_fc_dnn_true_car_35_n04285008_2900.png,n04285008_2900.png,1.0,4.517202,0.22442874,3.035449
convnext_large,1,438,NaN,airplane,airplane,true,0438_fc_dnn_true_airplane_35_n02690373_10926.png,n02690373_10926.png,1.0,7.7645397,0.5376282,5.110198
convnext_large,1,439,NaN,knife,knife,true,0439_fc_dnn_true_knife_35_n03041632_11613.png,n03041632_11613.png,1.0,8.549849,1.2599094,5.154765
convnext_large,1,440,NaN,knife,knife,true,0440_fc_dnn_true_knife_35_n03041632_24817.png,n03041632_24817.png,1.0,8.5542145,0.31693745,5.8246346
convnext_large,1,441,NaN,bicycle,bicycle,true,0441_fc_dnn_true_bicycle_35_n02835271_3042.png,n02835271_3042.png,1.0,5.4884853,0.541689,3.4979134
convnext_large,1,442,NaN,bicycle,dog,true,0442_fc_dnn_true_dog_35_n02102177_7737.png,n02102177_7737.png,0.0,0.27266034,0.28384444,-0.007908351
convnext_large,1,443,NaN,oven,oven,true,0443_fc_dnn_true_oven_35_n04111531_21460.png,n04111531_21460.png,1.0,7.905547,0.3004913,5.377587
convnext_large,1,444,NaN,keyboard,keyboard,false,0444_fc_dnn_false_keyboard_35_n04505470_7388.png,n04505470_7388.png,1.0,5.0395284,1.1898501,2.7221336
convnext_large,1,445,NaN,bird,bird,true,0445_fc_dnn_true_bird_35_n01828970_25642.png,n01828970_25642.png,1.0,0.7747784,0.35733998,0.29517356
convnext_large,1,446,NaN,bicycle,bicycle,false,0446_fc_dnn_false_bicycle_35_n02835271_608.png,n02835271_608.png,1.0,6.0396094,0.57893276,3.8612816
convnext_large,1,447,NaN,boat,boat,true,0447_fc_dnn_true_boat_35_n04273569_26182.png,n04273569_26182.png,1.0,2.5403388,0.98695767,1.0984063
convnext_large,1,448,NaN,cat,cat,false,0448_fc_dnn_false_cat_35_n02123045_9384.png,n02123045_9384.png,1.0,4.20106,0.5561137,2.577366
convnext_large,1,449,NaN,airplane,airplane,true,0449_fc_dnn_true_airplane_35_n02690373_9529.png,n02690373_9529.png,1.0,8.536552,0.44568145,5.72111
convnext_large,1,450,NaN,cat,cat,true,0450_fc_dnn_true_cat_35_n02123597_5081.png,n02123597_5081.png,1.0,2.1143854,0.7196515,0.98622584
convnext_large,1,451,NaN,oven,oven,false,0451_fc_dnn_false_oven_35_n04111531_4998.png,n04111531_4998.png,1.0,8.891005,0.8132367,5.711845
convnext_large,1,452,NaN,clock,clock,true,0452_fc_dnn_true_clock_35_n04548280_1245.png,n04548280_1245.png,1.0,4.438984,0.1939533,3.00169
convnext_large,1,453,NaN,dog,dog,true,0453_fc_dnn_true_dog_35_n02104365_8609.png,n02104365_8609.png,1.0,0.62690544,0.3469053,0.19799002
convnext_large,1,454,NaN,clock,clock,false,0454_fc_dnn_false_clock_35_n02708093_6414.png,n02708093_6414.png,1.0,5.8118553,1.2016782,3.2598875
convnext_large,1,455,NaN,bird,bird,true,0455_fc_dnn_true_bird_35_n01798484_9155.png,n01798484_9155.png,1.0,0.34390718,0.26930565,0.05275125
convnext_large,1,456,NaN,oven,oven,true,0456_fc_dnn_true_oven_35_n04111531_10724.png,n04111531_10724.png,1.0,8.806936,0.84483314,5.630057
convnext_large,1,457,NaN,boat,boat,true,0457_fc_dnn_true_boat_35_n02951358_32687.png,n02951358_32687.png,1.0,1.9586713,0.2524673,1.2064685
convnext_large,1,458,NaN,bicycle,bicycle,true,0458_fc_dnn_true_bicycle_35_n02835271_31.png,n02835271_31.png,1.0,4.985087,0.41133562,3.2341306
convnext_large,1,459,NaN,bottle,bottle,true,0459_fc_dnn_true_bottle_35_n04557648_4420.png,n04557648_4420.png,1.0,1.7254831,0.959179,0.5418588
convnext_large,1,460,NaN,bear,bear,true,0460_fc_dnn_true_bear_35_n02133161_713.png,n02133161_713.png,1.0,4.2115006,0.26790318,2.7885447
convnext_large,1,461,NaN,airplane,airplane,false,0461_fc_dnn_false_airplane_35_n02690373_5967.png,n02690373_5967.png,1.0,8.053366,0.39373213,5.416179
convnext_large,1,462,NaN,bird,bird,true,0462_fc_dnn_true_bird_35_n01795545_4502.png,n01795545_4502.png,1.0,0.3649777,0.3352331,0.021032605
convnext_large,1,463,NaN,cat,cat,true,0463_fc_dnn_true_cat_35_n02124075_11466.png,n02124075_11466.png,1.0,4.042003,1.1734464,2.0283759
convnext_large,1,464,NaN,keyboard,keyboard,true,0464_fc_dnn_true_keyboard_35_n03085013_21769.png,n03085013_21769.png,1.0,5.873993,1.7016991,2.9502573
convnext_large,1,465,NaN,car,car,false,0465_fc_dnn_false_car_35_n03100240_15097.png,n03100240_15097.png,1.0,5.2516418,0.55386096,3.3218327
convnext_large,1,466,NaN,knife,dog,false,0466_fc_dnn_false_dog_35_n02093647_3072.png,n02093647_3072.png,0.0,0.37843528,0.701995,-0.22879128
convnext_large,1,467,NaN,bicycle,bicycle,false,0467_fc_dnn_false_bicycle_35_n02835271_12701.png,n02835271_12701.png,1.0,5.353405,0.9957824,3.0813046
convnext_large,1,468,NaN,bear,bear,false,0468_fc_dnn_false_bear_35_n02134084_3227.png,n02134084_3227.png,1.0,1.4109478,1.2530512,0.11164979
convnext_large,1,469,NaN,cat,cat,true,0469_fc_dnn_true_cat_35_n02123394_5001.png,n02123394_5001.png,1.0,1.8560408,0.35666567,1.0602183
convnext_large,1,470,NaN,keyboard,keyboard,true,0470_fc_dnn_true_keyboard_35_n03085013_6862.png,n03085013_6862.png,1.0,3.6628897,0.59137875,2.1718862
convnext_large,1,471,NaN,chair,chair,true,0471_fc_dnn_true_chair_35_n04099969_45461.png,n04099969_45461.png,1.0,2.9590642,0.6079153,1.6625135
convnext_large,1,472,NaN,bicycle,bicycle,false,0472_fc_dnn_false_bicycle_35_n03792782_485.png,n03792782_485.png,1.0,6.590747,1.3480052,3.707178
convnext_large,1,473,NaN,oven,oven,true,0473_fc_dnn_true_oven_35_n04111531_1674.png,n04111531_1674.png,1.0,8.125254,0.8651835,5.133645
convnext_large,1,474,NaN,airplane,airplane,true,0474_fc_dnn_true_airplane_35_n02690373_866.png,n02690373_866.png,1.0,8.765011,0.38111562,5.928309
convnext_large,1,475,NaN,oven,oven,false,0475_fc_dnn_false_oven_35_n04111531_9297.png,n04111531_9297.png,1.0,9.511508,0.6496146,6.266305
convnext_large,1,476,NaN,elephant,elephant,false,0476_fc_dnn_false_elephant_35_n02504458_6878.png,n02504458_6878.png,1.0,6.7062674,0.49885926,4.3893003
convnext_large,1,477,NaN,car,car,true,0477_fc_dnn_true_car_35_n03100240_3151.png,n03100240_3151.png,1.0,6.931013,1.0339854,4.1698284
convnext_large,1,478,NaN,airplane,airplane,false,0478_fc_dnn_false_airplane_35_n02690373_6363.png,n02690373_6363.png,1.0,8.1581,0.2831641,5.568421
convnext_large,1,479,NaN,car,car,true,0479_fc_dnn_true_car_35_n04285008_15049.png,n04285008_15049.png,1.0,4.1711383,0.77482426,2.4015567
convnext_large,1,480,NaN,truck,truck,true,0480_fc_dnn_true_truck_35_n04467665_2505.png,n04467665_2505.png,1.0,1.9034717,0.77657247,0.7968381
convnext_large,1,481,NaN,knife,bottle,true,0481_fc_dnn_true_bottle_35_n04591713_4030.png,n04591713_4030.png,0.0,1.3285867,5.5322256,-2.9724216
convnext_large,1,482,NaN,oven,oven,true,0482_fc_dnn_true_oven_35_n04111531_12929.png,n04111531_12929.png,1.0,7.9018526,0.5213218,5.2188234
convnext_large,1,483,NaN,cat,cat,true,0483_fc_dnn_true_cat_35_n02125311_53315.png,n02125311_53315.png,1.0,1.4425992,0.36134076,0.76456517
convnext_large,1,484,NaN,knife,dog,true,0484_fc_dnn_true_dog_35_n02087046_4409.png,n02087046_4409.png,0.0,0.3088828,0.5484762,-0.16941813
convnext_large,1,485,NaN,oven,oven,false,0485_fc_dnn_false_oven_35_n04111531_21120.png,n04111531_21120.png,1.0,8.497779,0.67238146,5.533392
convnext_large,1,486,NaN,elephant,elephant,false,0486_fc_dnn_false_elephant_35_n02504013_5934.png,n02504013_5934.png,1.0,3.7952597,2.3039155,1.0545397
convnext_large,1,487,NaN,car,car,true,0487_fc_dnn_true_car_35_n04285008_3631.png,n04285008_3631.png,1.0,3.9454918,1.5226712,1.7131929
convnext_large,1,488,NaN,clock,clock,true,0488_fc_dnn_true_clock_35_n03196217_7663.png,n03196217_7663.png,1.0,3.0998285,1.0059372,1.4806046
convnext_large,1,489,NaN,bicycle,bicycle,false,0489_fc_dnn_false_bicycle_35_n03792782_801.png,n03792782_801.png,1.0,5.204162,1.0713159,2.9223638
convnext_large,1,490,NaN,bear,bear,false,0490_fc_dnn_false_bear_35_n02133161_6983.png,n02133161_6983.png,1.0,4.4720755,0.7482829,2.633119
convnext_large,1,491,NaN,keyboard,keyboard,true,0491_fc_dnn_true_keyboard_35_n03085013_20825.png,n03085013_20825.png,1.0,6.39524,0.33702815,4.2838025
convnext_large,1,492,NaN,clock,clock,true,0492_fc_dnn_true_clock_35_n03196217_1219.png,n03196217_1219.png,1.0,5.5729384,0.9835633,3.2451782
convnext_large,1,493,NaN,airplane,airplane,true,0493_fc_dnn_true_airplane_35_n02690373_18864.png,n02690373_18864.png,1.0,8.762578,0.55403554,5.8043165
convnext_large,1,494,NaN,airplane,airplane,false,0494_fc_dnn_false_airplane_35_n02690373_1019.png,n02690373_1019.png,1.0,10.046902,1.0281202,6.3772416
convnext_large,1,495,NaN,bird,bird,true,0495_fc_dnn_true_bird_35_n02013706_10478.png,n02013706_10478.png,1.0,0.25616953,0.24268387,0.009535799
convnext_large,1,496,NaN,bear,bear,true,0496_fc_dnn_true_bear_35_n02132136_258.png,n02132136_258.png,1.0,3.9386353,0.3926402,2.5073974
convnext_large,1,497,NaN,chair,chair,false,0497_fc_dnn_false_chair_35_n04099969_16350.png,n04099969_16350.png,1.0,2.346416,0.83780277,1.0667506
convnext_large,1,498,NaN,chair,chair,true,0498_fc_dnn_true_chair_35_n04099969_16456.png,n04099969_16456.png,1.0,2.921609,0.47565442,1.7295511
convnext_large,1,499,NaN,bottle,bottle,false,0499_fc_dnn_false_bottle_35_n03983396_12027.png,n03983396_12027.png,1.0,2.8239782,0.73590916,1.4764878
convnext_large,1,500,NaN,chair,chair,true,0500_fc_dnn_true_chair_35_n02791124_5438.png,n02791124_5438.png,1.0,3.2659934,0.20288146,2.1659472
convnext_large,1,501,NaN,elephant,elephant,true,0501_fc_dnn_true_elephant_35_n02504458_4939.png,n02504458_4939.png,1.0,7.369849,0.34277248,4.9688935
convnext_large,1,502,NaN,keyboard,keyboard,false,0502_fc_dnn_false_keyboard_35_n04505470_2600.png,n04505470_2600.png,1.0,4.9153175,0.3065047,3.2589228
convnext_large,1,503,NaN,chair,chair,true,0503_fc_dnn_true_chair_35_n03376595_7394.png,n03376595_7394.png,1.0,2.354073,0.69056183,1.1762801
convnext_large,1,504,NaN,bicycle,bicycle,false,0504_fc_dnn_false_bicycle_35_n02835271_9772.png,n02835271_9772.png,1.0,6.124853,0.313684,4.109117
convnext_large,1,505,NaN,car,car,true,0505_fc_dnn_true_car_35_n02814533_55937.png,n02814533_55937.png,1.0,4.8909407,1.9661735,2.0681226
convnext_large,1,506,NaN,airplane,airplane,true,0506_fc_dnn_true_airplane_35_n02690373_3920.png,n02690373_3920.png,1.0,8.67927,2.080109,4.6663117
convnext_large,1,507,NaN,oven,oven,false,0507_fc_dnn_false_oven_35_n04111531_6400.png,n04111531_6400.png,1.0,6.9049463,0.80117506,4.316018
convnext_large,1,508,NaN,bicycle,truck,false,0508_fc_dnn_false_truck_35_n03417042_4587.png,n03417042_4587.png,0.0,1.2263612,1.7181871,-0.34777346
convnext_large,1,509,NaN,knife,knife,true,0509_fc_dnn_true_knife_35_n03041632_31849.png,n03041632_31849.png,1.0,8.442494,0.5452755,5.584177
convnext_large,1,510,NaN,cat,cat,true,0510_fc_dnn_true_cat_35_n02125311_8541.png,n02125311_8541.png,1.0,1.9332396,1.4328264,0.35384557
convnext_large,1,511,NaN,airplane,airplane,true,0511_fc_dnn_true_airplane_35_n02690373_2162.png,n02690373_2162.png,1.0,8.769835,0.6095501,5.770193
convnext_large,1,512,NaN,oven,dog,true,0512_fc_dnn_true_dog_35_n02108551_11297.png,n02108551_11297.png,0.0,0.31147105,0.4105635,-0.07006895
convnext_large,1,513,NaN,car,car,true,0513_fc_dnn_true_car_35_n02814533_34396.png,n02814533_34396.png,1.0,4.432672,0.7533436,2.6016781
convnext_large,1,514,NaN,elephant,elephant,true,0514_fc_dnn_true_elephant_35_n02504013_6431.png,n02504013_6431.png,1.0,6.3692565,0.20149283,4.3612676
convnext_large,1,515,NaN,bicycle,bicycle,false,0515_fc_dnn_false_bicycle_35_n03792782_51723.png,n03792782_51723.png,1.0,6.599429,0.16404173,4.550506
convnext_large,1,516,NaN,dog,dog,false,0516_fc_dnn_false_dog_35_n02093754_5867.png,n02093754_5867.png,1.0,0.30643892,0.2655278,0.028928522
convnext_large,1,517,NaN,clock,clock,true,0517_fc_dnn_true_clock_35_n04548280_3245.png,n04548280_3245.png,1.0,5.126821,1.2676929,2.7288156
convnext_large,1,518,NaN,airplane,airplane,true,0518_fc_dnn_true_airplane_35_n02690373_9762.png,n02690373_9762.png,1.0,8.478427,0.40380162,5.7096224
convnext_large,1,519,NaN,airplane,bird,true,0519_fc_dnn_true_bird_35_n02002724_2909.png,n02002724_2909.png,0.0,0.22508678,0.6029996,-0.26722473
convnext_large,1,520,NaN,bottle,bottle,true,0520_fc_dnn_true_bottle_35_n04557648_10123.png,n04557648_10123.png,1.0,3.601431,0.12474557,2.4583879
convnext_large,1,521,NaN,elephant,elephant,true,0521_fc_dnn_true_elephant_35_n02504013_5432.png,n02504013_5432.png,1.0,6.3594065,0.2408143,4.326498
convnext_large,1,522,NaN,cat,cat,false,0522_fc_dnn_false_cat_35_n02123597_4998.png,n02123597_4998.png,1.0,2.6853197,0.5445741,1.5137358
convnext_large,1,523,NaN,bottle,bottle,true,0523_fc_dnn_true_bottle_35_n04557648_11594.png,n04557648_11594.png,1.0,2.5282104,1.4422334,0.76790166
convnext_large,1,524,NaN,clock,clock,false,0524_fc_dnn_false_clock_35_n03196217_2567.png,n03196217_2567.png,1.0,3.5195777,1.5520985,1.391218
convnext_large,1,525,NaN,keyboard,truck,false,0525_fc_dnn_false_truck_35_n03796401_9136.png,n03796401_9136.png,0.0,1.3955414,1.4042795,-0.0061787283
convnext_large,1,526,NaN,boat,boat,false,0526_fc_dnn_false_boat_35_n03344393_8492.png,n03344393_8492.png,1.0,2.8025756,0.30341142,1.7671759
convnext_large,1,527,NaN,cat,cat,false,0527_fc_dnn_false_cat_35_n02123159_8267.png,n02123159_8267.png,1.0,1.7108577,0.34371454,0.96671623
convnext_large,1,528,NaN,bottle,bottle,false,0528_fc_dnn_false_bottle_35_n04557648_12039.png,n04557648_12039.png,1.0,2.3279517,0.33184642,1.4114596
convnext_large,1,529,NaN,keyboard,keyboard,false,0529_fc_dnn_false_keyboard_35_n04505470_2828.png,n04505470_2828.png,1.0,6.092893,0.6432166,3.8535032
convnext_large,1,530,NaN,boat,boat,true,0530_fc_dnn_true_boat_35_n02951358_31198.png,n02951358_31198.png,1.0,2.2841353,0.29047573,1.4097303
convnext_large,1,531,NaN,oven,oven,false,0531_fc_dnn_false_oven_35_n04111531_5801.png,n04111531_5801.png,1.0,8.811282,0.22624657,6.0705366
convnext_large,1,532,NaN,bicycle,bicycle,false,0532_fc_dnn_false_bicycle_35_n02835271_9672.png,n02835271_9672.png,1.0,4.89487,0.77378714,2.9140456
convnext_large,1,533,NaN,keyboard,keyboard,false,0533_fc_dnn_false_keyboard_35_n03085013_23865.png,n03085013_23865.png,1.0,4.698782,0.58415353,2.9094815
convnext_large,1,534,NaN,bottle,bottle,true,0534_fc_dnn_true_bottle_35_n04591713_7133.png,n04591713_7133.png,1.0,3.0783687,0.45979866,1.8516088
convnext_large,1,535,NaN,car,car,true,0535_fc_dnn_true_car_35_n04285008_10006.png,n04285008_10006.png,1.0,4.968861,0.6173795,3.076962
convnext_large,1,536,NaN,airplane,airplane,true,0536_fc_dnn_true_airplane_35_n02690373_2431.png,n02690373_2431.png,1.0,9.38779,0.96206063,5.95789
convnext_large,1,537,NaN,boat,boat,true,0537_fc_dnn_true_boat_35_n04612504_15440.png,n04612504_15440.png,1.0,3.1696935,0.5437113,1.8568499
convnext_large,1,538,NaN,bicycle,bicycle,true,0538_fc_dnn_true_bicycle_35_n02835271_5648.png,n02835271_5648.png,1.0,5.542852,0.9075274,3.2776694
convnext_large,1,539,NaN,airplane,airplane,false,0539_fc_dnn_false_airplane_35_n02690373_3173.png,n02690373_3173.png,1.0,8.846914,0.35416013,6.005284
convnext_large,1,540,NaN,oven,oven,false,0540_fc_dnn_false_oven_35_n04111531_82.png,n04111531_82.png,1.0,9.118082,1.0832725,5.681468
convnext_large,1,541,NaN,chair,chair,false,0541_fc_dnn_false_chair_35_n02791124_2057.png,n02791124_2057.png,1.0,2.966912,0.24775396,1.9227352
convnext_large,1,542,NaN,elephant,elephant,true,0542_fc_dnn_true_elephant_35_n02504458_12175.png,n02504458_12175.png,1.0,6.5299015,0.8266242,4.032826
convnext_large,1,543,NaN,boat,boat,false,0543_fc_dnn_false_boat_35_n03344393_6869.png,n03344393_6869.png,1.0,2.0050714,0.51141566,1.056174
convnext_large,1,544,NaN,truck,truck,false,0544_fc_dnn_false_truck_35_n03417042_1000.png,n03417042_1000.png,1.0,1.832066,0.3475085,1.0497408
convnext_large,1,545,NaN,boat,boat,true,0545_fc_dnn_true_boat_35_n03344393_6890.png,n03344393_6890.png,1.0,2.7911687,0.77732146,1.4240052
convnext_large,1,546,NaN,elephant,elephant,false,0546_fc_dnn_false_elephant_35_n02504458_4139.png,n02504458_4139.png,1.0,7.993209,1.6428144,4.490407
convnext_large,1,547,NaN,bear,bear,false,0547_fc_dnn_false_bear_35_n02132136_7231.png,n02132136_7231.png,1.0,5.1333995,0.4258959,3.328708
convnext_large,1,548,NaN,bird,bird,false,0548_fc_dnn_false_bird_35_n01860187_1815.png,n01860187_1815.png,1.0,0.82623214,0.7574391,0.04864404
convnext_large,1,549,NaN,keyboard,keyboard,true,0549_fc_dnn_true_keyboard_35_n03085013_18891.png,n03085013_18891.png,1.0,6.499596,0.51084423,4.2346873
convnext_large,1,550,NaN,bird,bird,false,0550_fc_dnn_false_bird_35_n01828970_2276.png,n01828970_2276.png,1.0,0.7407997,0.4852255,0.18071827
convnext_large,1,551,NaN,elephant,elephant,false,0551_fc_dnn_false_elephant_35_n02504013_1720.png,n02504013_1720.png,1.0,5.939949,0.5432762,3.8160238
convnext_large,1,552,NaN,knife,knife,false,0552_fc_dnn_false_knife_35_n03041632_16104.png,n03041632_16104.png,1.0,8.799308,0.26274583,6.036261
convnext_large,1,553,NaN,chair,chair,false,0553_fc_dnn_false_chair_35_n03376595_635.png,n03376595_635.png,1.0,3.265465,0.45473883,1.9874836
convnext_large,1,554,NaN,bottle,bottle,true,0554_fc_dnn_true_bottle_35_n03983396_6116.png,n03983396_6116.png,1.0,2.2236953,0.39283708,1.2946123
convnext_large,1,555,NaN,elephant,dog,true,0555_fc_dnn_true_dog_35_n02113624_2530.png,n02113624_2530.png,0.0,0.33685744,0.3472605,-0.0073560793
convnext_large,1,556,NaN,airplane,bird,true,0556_fc_dnn_true_bird_35_n01592084_3972.png,n01592084_3972.png,0.0,0.19434789,0.9100346,-0.5060669
convnext_large,1,557,NaN,airplane,airplane,true,0557_fc_dnn_true_airplane_35_n02690373_5130.png,n02690373_5130.png,1.0,8.653781,0.84331894,5.522831
convnext_large,1,558,NaN,boat,bird,true,0558_fc_dnn_true_bird_35_n01833805_7514.png,n01833805_7514.png,0.0,0.3808067,0.7428707,-0.2560179
convnext_large,1,559,NaN,truck,truck,false,0559_fc_dnn_false_truck_35_n03417042_16238.png,n03417042_16238.png,1.0,2.9041047,0.48132536,1.7131637
convnext_large,1,560,NaN,keyboard,keyboard,true,0560_fc_dnn_true_keyboard_35_n04505470_8620.png,n04505470_8620.png,1.0,5.2377815,0.53977394,3.321993
convnext_large,1,561,NaN,clock,clock,true,0561_fc_dnn_true_clock_35_n03196217_7888.png,n03196217_7888.png,1.0,4.3677354,0.42259884,2.7896328
convnext_large,1,562,NaN,dog,bottle,true,0562_fc_dnn_true_bottle_35_n04591713_5411.png,n04591713_5411.png,0.0,0.4307037,2.243623,-1.2819276
convnext_large,1,563,NaN,clock,clock,false,0563_fc_dnn_false_clock_35_n03196217_2639.png,n03196217_2639.png,1.0,4.9206715,0.34560144,3.235063
convnext_large,1,564,NaN,elephant,elephant,true,0564_fc_dnn_true_elephant_35_n02504458_6437.png,n02504458_6437.png,1.0,6.857028,0.41616923,4.554375
convnext_large,1,565,NaN,truck,truck,true,0565_fc_dnn_true_truck_35_n03417042_27586.png,n03417042_27586.png,1.0,2.776486,0.7250681,1.4505715
convnext_large,1,566,NaN,keyboard,keyboard,false,0566_fc_dnn_false_keyboard_35_n03085013_24124.png,n03085013_24124.png,1.0,4.1313963,2.614169,1.0728418
convnext_large,1,567,NaN,cat,cat,false,0567_fc_dnn_false_cat_35_n02123597_9663.png,n02123597_9663.png,1.0,2.3571587,1.1679285,0.84091276
convnext_large,1,568,NaN,keyboard,keyboard,true,0568_fc_dnn_true_keyboard_35_n04505470_1833.png,n04505470_1833.png,1.0,4.7677937,0.58736,2.9560132
convnext_large,1,569,NaN,car,car,true,0569_fc_dnn_true_car_35_n04285008_4109.png,n04285008_4109.png,1.0,4.9784665,0.29725972,3.310113
convnext_large,1,570,NaN,dog,bird,false,0570_fc_dnn_false_bird_35_n01558993_869.png,n01558993_869.png,0.0,-0.50584966,1.3607533,-1.3198876
convnext_large,1,571,NaN,truck,truck,true,0571_fc_dnn_true_truck_35_n03796401_6980.png,n03796401_6980.png,1.0,1.9708471,0.38738164,1.1196792
convnext_large,1,572,NaN,truck,truck,true,0572_fc_dnn_true_truck_35_n03796401_19058.png,n03796401_19058.png,1.0,1.8416125,0.7689065,0.7585177
convnext_large,1,573,NaN,bear,bear,false,0573_fc_dnn_false_bear_35_n02134418_5033.png,n02134418_5033.png,1.0,3.947455,0.6051054,2.363398
convnext_large,1,574,NaN,truck,truck,false,0574_fc_dnn_false_truck_35_n03417042_6204.png,n03417042_6204.png,1.0,2.1611342,1.092472,0.7556584
convnext_large,1,575,NaN,bicycle,bicycle,true,0575_fc_dnn_true_bicycle_35_n03792782_7388.png,n03792782_7388.png,1.0,6.6226807,0.67555547,4.2052526
convnext_large,1,576,NaN,truck,truck,true,0576_fc_dnn_true_truck_35_n03417042_1561.png,n03417042_1561.png,1.0,1.857743,0.4888113,0.967981
convnext_large,1,577,NaN,elephant,elephant,true,0577_fc_dnn_true_elephant_35_n02504458_5501.png,n02504458_5501.png,1.0,7.154482,0.4106806,4.7685876
convnext_large,1,578,NaN,boat,boat,true,0578_fc_dnn_true_boat_35_n03662601_34124.png,n03662601_34124.png,1.0,4.164323,0.597146,2.5223749
convnext_large,1,579,NaN,knife,knife,false,0579_fc_dnn_false_knife_35_n03041632_37949.png,n03041632_37949.png,1.0,6.869245,0.43109518,4.5524597
convnext_large,1,580,NaN,airplane,airplane,false,0580_fc_dnn_false_airplane_35_n02690373_13585.png,n02690373_13585.png,1.0,8.413992,0.42007208,5.652555
convnext_large,1,581,NaN,knife,knife,false,0581_fc_dnn_false_knife_35_n03041632_16932.png,n03041632_16932.png,1.0,7.8047547,0.44959804,5.2008815
convnext_large,1,582,NaN,chair,chair,false,0582_fc_dnn_false_chair_35_n04429376_9501.png,n04429376_9501.png,1.0,3.283104,0.596116,1.8999873
convnext_large,1,583,NaN,airplane,bird,false,0583_fc_dnn_false_bird_35_n01532829_10530.png,n01532829_10530.png,0.0,0.5361681,1.3809974,-0.5973846
convnext_large,1,584,NaN,oven,oven,false,0584_fc_dnn_false_oven_35_n04111531_1562.png,n04111531_1562.png,1.0,0.46337026,0.42987713,0.02368322
convnext_large,1,585,NaN,clock,clock,false,0585_fc_dnn_false_clock_35_n02708093_260.png,n02708093_260.png,1.0,2.9719646,2.215375,0.53498966
convnext_large,1,586,NaN,bottle,bottle,true,0586_fc_dnn_true_bottle_35_n04579145_1457.png,n04579145_1457.png,1.0,2.153691,0.3577649,1.2699115
convnext_large,1,587,NaN,chair,chair,true,0587_fc_dnn_true_chair_35_n03376595_9897.png,n03376595_9897.png,1.0,2.499279,0.21147928,1.6177188
convnext_large,1,588,NaN,oven,bird,true,0588_fc_dnn_true_bird_35_n01601694_4224.png,n01601694_4224.png,0.0,0.3293786,0.6629582,-0.2358764
convnext_large,1,589,NaN,cat,cat,false,0589_fc_dnn_false_cat_35_n02123159_358.png,n02123159_358.png,1.0,1.6736473,0.32811967,0.95143175
convnext_large,1,590,NaN,bottle,bottle,true,0590_fc_dnn_true_bottle_35_n03983396_11788.png,n03983396_11788.png,1.0,2.9944167,1.351996,1.1613669
convnext_large,1,591,NaN,cat,cat,true,0591_fc_dnn_true_cat_35_n02124075_8341.png,n02124075_8341.png,1.0,2.943406,0.676845,1.6027007
convnext_large,1,592,NaN,dog,dog,false,0592_fc_dnn_false_dog_35_n02109525_49924.png,n02109525_49924.png,1.0,0.6773403,0.28797445,0.27532327
convnext_large,1,593,NaN,oven,oven,false,0593_fc_dnn_false_oven_35_n04111531_797.png,n04111531_797.png,1.0,2.809135,1.5336958,0.9018717
convnext_large,1,594,NaN,bicycle,bicycle,true,0594_fc_dnn_true_bicycle_35_n02835271_15930.png,n02835271_15930.png,1.0,4.979641,0.48020598,3.181581
convnext_large,1,595,NaN,knife,knife,true,0595_fc_dnn_true_knife_35_n03041632_13656.png,n03041632_13656.png,1.0,8.948709,0.33030772,6.0941296
convnext_large,1,596,NaN,clock,clock,false,0596_fc_dnn_false_clock_35_n02708093_8104.png,n02708093_8104.png,1.0,4.223052,0.69101244,2.4975293
convnext_large,1,597,NaN,truck,truck,true,0597_fc_dnn_true_truck_35_n03796401_3148.png,n03796401_3148.png,1.0,2.0935597,0.89590895,0.846867
convnext_large,1,598,NaN,knife,bottle,false,0598_fc_dnn_false_bottle_35_n04560804_15263.png,n04560804_15263.png,0.0,1.0981193,1.437448,-0.23994167
convnext_large,1,599,NaN,airplane,airplane,true,0599_fc_dnn_true_airplane_35_n02690373_5003.png,n02690373_5003.png,1.0,8.253944,0.3304574,5.6027517
convnext_large,1,600,NaN,boat,boat,false,0600_fc_dnn_false_boat_35_n03344393_994.png,n03344393_994.png,1.0,2.345309,0.92304236,1.0056945
convnext_large,1,601,NaN,bicycle,bicycle,true,0601_fc_dnn_true_bicycle_35_n03792782_5959.png,n03792782_5959.png,1.0,6.236484,0.4215244,4.1117973
convnext_large,1,602,NaN,car,car,false,0602_fc_dnn_false_car_35_n04285008_9383.png,n04285008_9383.png,1.0,6.2795396,0.8182305,3.8617287
convnext_large,1,603,NaN,clock,clock,true,0603_fc_dnn_true_clock_35_n03196217_5627.png,n03196217_5627.png,1.0,4.352169,0.3012971,2.864399
convnext_large,1,604,NaN,knife,bird,true,0604_fc_dnn_true_bird_35_n01534433_13846.png,n01534433_13846.png,0.0,0.07998998,0.7024919,-0.44017532
convnext_large,1,605,NaN,dog,dog,true,0605_fc_dnn_true_dog_35_n02105056_11269.png,n02105056_11269.png,1.0,1.0940276,0.50147027,0.41900134
convnext_large,1,606,NaN,airplane,airplane,false,0606_fc_dnn_false_airplane_35_n02690373_9659.png,n02690373_9659.png,1.0,9.125316,1.3783786,5.4779115
convnext_large,1,607,NaN,car,car,false,0607_fc_dnn_false_car_35_n04285008_3269.png,n04285008_3269.png,1.0,3.0815985,0.6351951,1.7298685
convnext_large,1,608,NaN,bottle,bottle,true,0608_fc_dnn_true_bottle_35_n02823428_3178.png,n02823428_3178.png,1.0,3.3509488,0.5358997,1.9905404
convnext_large,1,609,NaN,elephant,elephant,false,0609_fc_dnn_false_elephant_35_n02504458_4849.png,n02504458_4849.png,1.0,7.8447247,0.37535992,5.2816386
convnext_large,1,610,NaN,bear,bear,true,0610_fc_dnn_true_bear_35_n02134418_643.png,n02134418_643.png,1.0,2.4837692,0.2553572,1.5757252
convnext_large,1,611,NaN,boat,boat,true,0611_fc_dnn_true_boat_35_n03344393_7773.png,n03344393_7773.png,1.0,2.5140746,0.6786904,1.2978126
convnext_large,1,612,NaN,car,car,true,0612_fc_dnn_true_car_35_n02814533_26516.png,n02814533_26516.png,1.0,6.773529,1.5128806,3.7198405
convnext_large,1,613,NaN,chair,cat,false,0613_fc_dnn_false_cat_35_n02123597_3314.png,n02123597_3314.png,0.0,0.8827242,2.5450459,-1.1754389
convnext_large,1,614,NaN,bicycle,bicycle,true,0614_fc_dnn_true_bicycle_35_n02835271_6539.png,n02835271_6539.png,1.0,5.3388224,0.23001753,3.6124706
convnext_large,1,615,NaN,bear,bear,true,0615_fc_dnn_true_bear_35_n02132136_3090.png,n02132136_3090.png,1.0,3.7676528,0.4636493,2.3362832
convnext_large,1,616,NaN,car,car,true,0616_fc_dnn_true_car_35_n03100240_9171.png,n03100240_9171.png,1.0,4.701737,0.54484254,2.9393682
convnext_large,1,617,NaN,cat,cat,false,0617_fc_dnn_false_cat_35_n02123045_12060.png,n02123045_12060.png,1.0,3.9978673,0.6796681,2.346321
convnext_large,1,618,NaN,truck,truck,false,0618_fc_dnn_false_truck_35_n03796401_26801.png,n03796401_26801.png,1.0,2.23733,0.33297268,1.346584
convnext_large,1,619,NaN,cat,cat,false,0619_fc_dnn_false_cat_35_n02123045_15010.png,n02123045_15010.png,1.0,4.3051953,0.36297697,2.7875693
convnext_large,1,620,NaN,knife,knife,true,0620_fc_dnn_true_knife_35_n03041632_24883.png,n03041632_24883.png,1.0,8.487332,0.33116972,5.7672777
convnext_large,1,621,NaN,cat,cat,true,0621_fc_dnn_true_cat_35_n02123597_4040.png,n02123597_4040.png,1.0,1.7274423,0.61504674,0.7865824
convnext_large,1,622,NaN,bicycle,bird,true,0622_fc_dnn_true_bird_35_n01843383_3019.png,n01843383_3019.png,0.0,0.3475662,0.63567585,-0.2037243
convnext_large,1,623,NaN,bear,bear,true,0623_fc_dnn_true_bear_35_n02132136_8619.png,n02132136_8619.png,1.0,4.09609,0.61530805,2.4612844
convnext_large,1,624,NaN,airplane,airplane,false,0624_fc_dnn_false_airplane_35_n02690373_1912.png,n02690373_1912.png,1.0,7.788719,1.1134096,4.7201567
convnext_large,1,625,NaN,truck,truck,true,0625_fc_dnn_true_truck_35_n03417042_22828.png,n03417042_22828.png,1.0,1.5319347,0.30883342,0.8648633
convnext_large,1,626,NaN,car,car,true,0626_fc_dnn_true_car_35_n03100240_2909.png,n03100240_2909.png,1.0,5.630853,0.3098975,3.762484
convnext_large,1,627,NaN,oven,oven,true,0627_fc_dnn_true_oven_35_n04111531_22563.png,n04111531_22563.png,1.0,9.180152,1.1855463,5.65304
convnext_large,1,628,NaN,truck,truck,false,0628_fc_dnn_false_truck_35_n03796401_18074.png,n03796401_18074.png,1.0,1.9365798,0.93985075,0.70479393
convnext_large,1,629,NaN,cat,cat,true,0629_fc_dnn_true_cat_35_n02123159_3092.png,n02123159_3092.png,1.0,3.3970823,0.8982524,1.7669395
convnext_large,1,630,NaN,boat,bird,false,0630_fc_dnn_false_bird_35_n02009912_5983.png,n02009912_5983.png,0.0,0.33345747,0.4260357,-0.06546269
convnext_large,1,631,NaN,keyboard,keyboard,true,0631_fc_dnn_true_keyboard_35_n03085013_19916.png,n03085013_19916.png,1.0,4.527357,0.6796966,2.720707
convnext_large,1,632,NaN,bottle,bottle,false,0632_fc_dnn_false_bottle_35_n04591713_4035.png,n04591713_4035.png,1.0,3.0610821,0.4310512,1.8597127
convnext_large,1,633,NaN,chair,chair,false,0633_fc_dnn_false_chair_35_n04099969_6189.png,n04099969_6189.png,1.0,2.5079627,2.0457256,0.326851
convnext_large,1,634,NaN,oven,oven,true,0634_fc_dnn_true_oven_35_n04111531_7064.png,n04111531_7064.png,1.0,8.921416,1.0009899,5.6005874
convnext_large,1,635,NaN,boat,boat,false,0635_fc_dnn_false_boat_35_n03344393_595.png,n03344393_595.png,1.0,3.0487275,0.75346226,1.6229976
convnext_large,1,636,NaN,elephant,elephant,true,0636_fc_dnn_true_elephant_35_n02504458_3099.png,n02504458_3099.png,1.0,7.0147696,0.9225995,4.307815
convnext_large,1,637,NaN,chair,chair,false,0637_fc_dnn_false_chair_35_n04429376_19617.png,n04429376_19617.png,1.0,3.6332183,0.5618367,2.171795
convnext_large,1,638,NaN,knife,knife,false,0638_fc_dnn_false_knife_35_n03041632_51766.png,n03041632_51766.png,1.0,9.219599,0.22263451,6.3618145
convnext_large,1,639,NaN,bear,bear,true,0639_fc_dnn_true_bear_35_n02133161_1571.png,n02133161_1571.png,1.0,4.132104,1.0473537,2.1812477
convnext_large,1,640,NaN,bear,bear,false,0640_fc_dnn_false_bear_35_n02132136_8525.png,n02132136_8525.png,1.0,5.5088043,0.4838004,3.5532143
convnext_large,1,641,NaN,airplane,bird,true,0641_fc_dnn_true_bird_35_n01560419_9124.png,n01560419_9124.png,0.0,0.17614786,0.4630004,-0.20283538
convnext_large,1,642,NaN,car,car,false,0642_fc_dnn_false_car_35_n02814533_2555.png,n02814533_2555.png,1.0,5.472225,1.9359509,2.5005236
convnext_large,1,643,NaN,cat,cat,false,0643_fc_dnn_false_cat_35_n02125311_31100.png,n02125311_31100.png,1.0,1.4382571,0.5663827,0.6165083
convnext_large,1,644,NaN,car,car,true,0644_fc_dnn_true_car_35_n02814533_46508.png,n02814533_46508.png,1.0,5.171824,1.0152965,2.9391088
convnext_large,1,645,NaN,bicycle,bicycle,true,0645_fc_dnn_true_bicycle_35_n03792782_51156.png,n03792782_51156.png,1.0,6.1324577,0.45402375,4.0152593
convnext_large,1,646,NaN,elephant,elephant,false,0646_fc_dnn_false_elephant_35_n02504013_637.png,n02504013_637.png,1.0,6.1009502,0.7602947,3.7764137
convnext_large,1,647,NaN,clock,clock,false,0647_fc_dnn_false_clock_35_n04548280_7321.png,n04548280_7321.png,1.0,5.764637,0.089371376,4.013019
convnext_large,1,648,NaN,airplane,airplane,true,0648_fc_dnn_true_airplane_35_n02690373_2447.png,n02690373_2447.png,1.0,8.6852,0.7924863,5.5809913
convnext_large,1,649,NaN,elephant,elephant,false,0649_fc_dnn_false_elephant_35_n02504458_477.png,n02504458_477.png,1.0,7.124297,0.44472796,4.723169
convnext_large,1,650,NaN,bottle,bottle,false,0650_fc_dnn_false_bottle_35_n04557648_2063.png,n04557648_2063.png,1.0,2.021666,1.4799788,0.38303074
convnext_large,1,651,NaN,chair,chair,true,0651_fc_dnn_true_chair_35_n04099969_14155.png,n04099969_14155.png,1.0,4.886108,0.37531713,3.1896107
convnext_large,1,652,NaN,bear,bear,false,0652_fc_dnn_false_bear_35_n02134084_21407.png,n02134084_21407.png,1.0,3.3578105,0.35572842,2.1227927
convnext_large,1,653,NaN,boat,boat,false,0653_fc_dnn_false_boat_35_n03662601_4418.png,n03662601_4418.png,1.0,3.805263,1.0250486,1.9659084
convnext_large,1,654,NaN,car,car,true,0654_fc_dnn_true_car_35_n03100240_9497.png,n03100240_9497.png,1.0,6.1289406,0.5269176,3.9612286
convnext_large,1,655,NaN,airplane,airplane,false,0655_fc_dnn_false_airplane_35_n02690373_4199.png,n02690373_4199.png,1.0,8.425764,0.51557875,5.5933456
convnext_large,1,656,NaN,truck,boat,false,0656_fc_dnn_false_boat_35_n03662601_4612.png,n03662601_4612.png,0.0,3.3590007,3.5763655,-0.15370011
convnext_large,1,657,NaN,bicycle,bicycle,true,0657_fc_dnn_true_bicycle_35_n02835271_9531.png,n02835271_9531.png,1.0,5.4692183,0.5627325,3.4694092
convnext_large,1,658,NaN,boat,bird,false,0658_fc_dnn_false_bird_35_n02037110_21381.png,n02037110_21381.png,0.0,0.43098783,0.5758031,-0.102399856
convnext_large,1,659,NaN,bottle,bottle,false,0659_fc_dnn_false_bottle_35_n04560804_6576.png,n04560804_6576.png,1.0,1.766759,1.3762323,0.27614415
convnext_large,1,660,NaN,bottle,bottle,false,0660_fc_dnn_false_bottle_35_n02823428_4358.png,n02823428_4358.png,1.0,3.504553,0.85078275,1.876499
convnext_large,1,661,NaN,bottle,bottle,false,0661_fc_dnn_false_bottle_35_n04579145_961.png,n04579145_961.png,1.0,1.8291043,0.6235821,0.8524329
convnext_large,1,662,NaN,car,car,true,0662_fc_dnn_true_car_35_n02814533_58462.png,n02814533_58462.png,1.0,5.3962407,1.7147074,2.6032372
convnext_large,1,663,NaN,elephant,bird,false,0663_fc_dnn_false_bird_35_n01796340_4643.png,n01796340_4643.png,0.0,0.61270833,1.0770882,-0.3283662
convnext_large,1,664,NaN,airplane,dog,false,0664_fc_dnn_false_dog_35_n02091134_7695.png,n02091134_7695.png,0.0,0.30923802,0.5719898,-0.18579355
convnext_large,1,665,NaN,dog,dog,false,0665_fc_dnn_false_dog_35_n02097209_1133.png,n02097209_1133.png,1.0,0.41754028,0.20880939,0.14759503
convnext_large,1,666,NaN,elephant,elephant,true,0666_fc_dnn_true_elephant_35_n02504458_4861.png,n02504458_4861.png,1.0,7.188569,0.25986314,4.8993354
convnext_large,1,667,NaN,knife,dog,false,0667_fc_dnn_false_dog_35_n02110806_3673.png,n02110806_3673.png,0.0,0.22008823,0.32361755,-0.07320628
convnext_large,1,668,NaN,car,car,false,0668_fc_dnn_false_car_35_n04285008_863.png,n04285008_863.png,1.0,4.3570533,0.47405472,2.7456946
convnext_large,1,669,NaN,bicycle,bicycle,false,0669_fc_dnn_false_bicycle_35_n03792782_52427.png,n03792782_52427.png,1.0,5.499194,0.7375406,3.3669975
convnext_large,1,670,NaN,keyboard,keyboard,true,0670_fc_dnn_true_keyboard_35_n03085013_22796.png,n03085013_22796.png,1.0,6.8944845,0.565026,4.475603
convnext_large,1,671,NaN,bottle,bottle,false,0671_fc_dnn_false_bottle_35_n03983396_22979.png,n03983396_22979.png,1.0,2.6792448,0.6960518,1.4023292
convnext_large,1,672,NaN,chair,dog,true,0672_fc_dnn_true_dog_35_n02109047_4167.png,n02109047_4167.png,0.0,0.057676498,0.25554788,-0.1399162
convnext_large,1,673,NaN,bottle,bottle,true,0673_fc_dnn_true_bottle_35_n04560804_15843.png,n04560804_15843.png,1.0,1.4456404,0.59602857,0.6007663
convnext_large,1,674,NaN,airplane,airplane,true,0674_fc_dnn_true_airplane_35_n02690373_3383.png,n02690373_3383.png,1.0,8.060967,0.4710186,5.3669043
convnext_large,1,675,NaN,truck,truck,true,0675_fc_dnn_true_truck_35_n03796401_7380.png,n03796401_7380.png,1.0,1.9730678,0.3475814,1.1493925
convnext_large,1,676,NaN,clock,clock,true,0676_fc_dnn_true_clock_35_n03196217_11054.png,n03196217_11054.png,1.0,4.164085,0.5947796,2.52388
convnext_large,1,677,NaN,airplane,airplane,true,0677_fc_dnn_true_airplane_35_n02690373_599.png,n02690373_599.png,1.0,8.505195,0.52639526,5.6418633
convnext_large,1,678,NaN,chair,chair,true,0678_fc_dnn_true_chair_35_n04429376_2693.png,n04429376_2693.png,1.0,3.275735,0.39577585,2.0364387
convnext_large,1,679,NaN,clock,clock,false,0679_fc_dnn_false_clock_35_n02708093_5265.png,n02708093_5265.png,1.0,5.107783,0.333883,3.375657
convnext_large,1,680,NaN,knife,knife,true,0680_fc_dnn_true_knife_35_n03041632_48149.png,n03041632_48149.png,1.0,8.268434,0.27267116,5.6538577
convnext_large,1,681,NaN,dog,dog,true,0681_fc_dnn_true_dog_35_n02096585_9543.png,n02096585_9543.png,1.0,0.35935304,0.31673974,0.030132152
convnext_large,1,682,NaN,boat,boat,false,0682_fc_dnn_false_boat_35_n04612504_20927.png,n04612504_20927.png,1.0,2.532386,0.4017029,1.5066205
convnext_large,1,683,NaN,oven,oven,false,0683_fc_dnn_false_oven_35_n04111531_2150.png,n04111531_2150.png,1.0,7.0745277,1.0740391,4.242986
convnext_large,1,684,NaN,bicycle,bird,false,0684_fc_dnn_false_bird_35_n01797886_12436.png,n01797886_12436.png,0.0,0.23558572,0.43320018,-0.13973452
convnext_large,1,685,NaN,truck,truck,false,0685_fc_dnn_false_truck_35_n04467665_197.png,n04467665_197.png,1.0,3.3265922,0.38898772,2.0772
convnext_large,1,686,NaN,chair,chair,false,0686_fc_dnn_false_chair_35_n02791124_2091.png,n02791124_2091.png,1.0,2.4676082,0.4942643,1.3953649
convnext_large,1,687,NaN,chair,chair,false,0687_fc_dnn_false_chair_35_n03376595_1810.png,n03376595_1810.png,1.0,3.2364993,0.43491393,1.9810201
convnext_large,1,688,NaN,keyboard,keyboard,false,0688_fc_dnn_false_keyboard_35_n03085013_24439.png,n03085013_24439.png,1.0,6.68707,0.37778172,4.4613404
convnext_large,1,689,NaN,bottle,bottle,false,0689_fc_dnn_false_bottle_35_n03983396_18753.png,n03983396_18753.png,1.0,1.7481029,0.3955466,0.95640177
convnext_large,1,690,NaN,clock,clock,false,0690_fc_dnn_false_clock_35_n02708093_2054.png,n02708093_2054.png,1.0,3.895336,0.829077,2.1681726
convnext_large,1,691,NaN,bear,bear,true,0691_fc_dnn_true_bear_35_n02132136_7872.png,n02132136_7872.png,1.0,4.3980637,0.59115446,2.6918912
convnext_large,1,692,NaN,elephant,elephant,true,0692_fc_dnn_true_elephant_35_n02504458_5144.png,n02504458_5144.png,1.0,5.816828,1.3112866,3.1858988
convnext_large,1,693,NaN,boat,oven,false,0693_fc_dnn_false_oven_35_n04111531_6500.png,n04111531_6500.png,0.0,0.6684887,1.1764051,-0.35915112
convnext_large,1,694,NaN,elephant,elephant,false,0694_fc_dnn_false_elephant_35_n02504458_209.png,n02504458_209.png,1.0,7.0577707,0.6011664,4.565509
convnext_large,1,695,NaN,oven,oven,true,0695_fc_dnn_true_oven_35_n04111531_12769.png,n04111531_12769.png,1.0,8.570031,0.44594786,5.7445946
convnext_large,1,696,NaN,dog,dog,false,0696_fc_dnn_false_dog_35_n02107574_3387.png,n02107574_3387.png,1.0,0.96968615,0.5437031,0.30121553
convnext_large,1,697,NaN,airplane,airplane,true,0697_fc_dnn_true_airplane_35_n02690373_4706.png,n02690373_4706.png,1.0,8.158137,0.7817561,5.2158895
