subj,session,trial,rt,object_response,category,condition,imagename,filename,is_correct,targ_act,max_nontarg_act,decision_margin
alexnet_w1_mlp_simclrhn_probe0,1,1,NaN,oven,oven,1-10-10,0001_eid_dnn_1-10-10_oven_10_n04111531_17072.png,n04111531_17072.png,1.0,1.7441424,-4.538137,4.4422426
alexnet_w1_mlp_simclrhn_probe0,1,2,NaN,bear,airplane,16-10-10,0002_eid_dnn_16-10-10_airplane_10_n02690373_4183.png,n02690373_4183.png,0.0,-4.654719,-4.1187744,-0.37896997
alexnet_w1_mlp_simclrhn_probe0,1,3,NaN,car,car,8-10-10,0003_eid_dnn_8-10-10_car_10_n03100240_1137.png,n03100240_1137.png,1.0,-4.0364738,-4.3384523,0.2135311
alexnet_w1_mlp_simclrhn_probe0,1,4,NaN,clock,clock,2-10-10,0004_eid_dnn_2-10-10_clock_10_n04548280_7083.png,n04548280_7083.png,1.0,-4.078435,-6.0329933,1.3820815
alexnet_w1_mlp_simclrhn_probe0,1,5,NaN,bottle,bottle,2-10-10,0005_eid_dnn_2-10-10_bottle_10_n02823428_7810.png,n02823428_7810.png,1.0,-2.7377055,-3.2228014,0.34301466
alexnet_w1_mlp_simclrhn_probe0,1,6,NaN,bear,dog,128-10-10,0006_eid_dnn_128-10-10_dog_10_n02091244_8368.png,n02091244_8368.png,0.0,-2.9328516,0.3668005,-2.3332064
alexnet_w1_mlp_simclrhn_probe0,1,7,NaN,bicycle,bicycle,1-10-10,0007_eid_dnn_1-10-10_bicycle_10_n02835271_2930.png,n02835271_2930.png,1.0,-1.0558785,-6.5498734,3.884841
alexnet_w1_mlp_simclrhn_probe0,1,8,NaN,cat,knife,4-10-10,0008_eid_dnn_4-10-10_knife_10_n03041632_52848.png,n03041632_52848.png,0.0,-10.617856,-5.9279447,-3.3162682
alexnet_w1_mlp_simclrhn_probe0,1,9,NaN,bottle,bottle,2-10-10,0009_eid_dnn_2-10-10_bottle_10_n02823428_4097.png,n02823428_4097.png,1.0,1.8233719,-3.2494776,3.5870461
alexnet_w1_mlp_simclrhn_probe0,1,10,NaN,dog,dog,8-10-10,0010_eid_dnn_8-10-10_dog_10_n02105641_10264.png,n02105641_10264.png,1.0,-0.8923718,-2.4014668,1.0670913
alexnet_w1_mlp_simclrhn_probe0,1,11,NaN,airplane,boat,8-10-10,0011_eid_dnn_8-10-10_boat_10_n03662601_10278.png,n03662601_10278.png,0.0,-4.2552443,-2.7530103,-1.0622399
alexnet_w1_mlp_simclrhn_probe0,1,12,NaN,bear,truck,32-10-10,0012_eid_dnn_32-10-10_truck_10_n04467665_76958.png,n04467665_76958.png,0.0,-8.103225,-2.2100294,-4.1671185
alexnet_w1_mlp_simclrhn_probe0,1,13,NaN,cat,dog,16-10-10,0013_eid_dnn_16-10-10_dog_10_n02088238_12552.png,n02088238_12552.png,0.0,-2.7142205,-1.6608752,-0.7448276
alexnet_w1_mlp_simclrhn_probe0,1,14,NaN,bear,dog,8-10-10,0014_eid_dnn_8-10-10_dog_10_n02102040_994.png,n02102040_994.png,0.0,-3.766155,-0.7096637,-2.1612659
alexnet_w1_mlp_simclrhn_probe0,1,15,NaN,elephant,bear,128-10-10,0015_eid_dnn_128-10-10_bear_10_n02133161_1944.png,n02133161_1944.png,0.0,-1.8023282,-1.1514951,-0.46020854
alexnet_w1_mlp_simclrhn_probe0,1,16,NaN,airplane,car,16-10-10,0016_eid_dnn_16-10-10_car_10_n02814533_43040.png,n02814533_43040.png,0.0,-8.48217,-3.4733179,-3.5417933
alexnet_w1_mlp_simclrhn_probe0,1,17,NaN,oven,oven,128-10-10,0017_eid_dnn_128-10-10_oven_10_n04111531_18592.png,n04111531_18592.png,1.0,-0.9409417,-1.8569378,0.64770705
alexnet_w1_mlp_simclrhn_probe0,1,18,NaN,oven,chair,16-10-10,0018_eid_dnn_16-10-10_chair_10_n02791124_4294.png,n02791124_4294.png,0.0,-8.947365,-1.8354867,-5.0288577
alexnet_w1_mlp_simclrhn_probe0,1,19,NaN,oven,knife,32-10-10,0019_eid_dnn_32-10-10_knife_10_n03041632_2630.png,n03041632_2630.png,0.0,-4.6243105,-0.041388273,-3.2406154
alexnet_w1_mlp_simclrhn_probe0,1,20,NaN,elephant,elephant,1-10-10,0020_eid_dnn_1-10-10_elephant_10_n02504458_723.png,n02504458_723.png,1.0,5.3087225,-3.2564187,6.05647
alexnet_w1_mlp_simclrhn_probe0,1,21,NaN,chair,chair,4-10-10,0021_eid_dnn_4-10-10_chair_10_n03376595_6107.png,n03376595_6107.png,1.0,-3.744546,-4.2135386,0.33162794
alexnet_w1_mlp_simclrhn_probe0,1,22,NaN,oven,clock,32-10-10,0022_eid_dnn_32-10-10_clock_10_n03196217_1337.png,n03196217_1337.png,0.0,-9.101543,0.10853326,-6.5125074
alexnet_w1_mlp_simclrhn_probe0,1,23,NaN,bear,boat,128-10-10,0023_eid_dnn_128-10-10_boat_10_n02951358_9550.png,n02951358_9550.png,0.0,-7.660665,-1.5997064,-4.285745
alexnet_w1_mlp_simclrhn_probe0,1,24,NaN,bottle,bird,128-10-10,0024_eid_dnn_128-10-10_bird_10_n01616318_2334.png,n01616318_2334.png,0.0,-6.70557,-2.8111084,-2.7538004
alexnet_w1_mlp_simclrhn_probe0,1,25,NaN,oven,bottle,32-10-10,0025_eid_dnn_32-10-10_bottle_10_n03937543_1658.png,n03937543_1658.png,0.0,-3.39731,-1.0897217,-1.6317114
alexnet_w1_mlp_simclrhn_probe0,1,26,NaN,elephant,elephant,2-10-10,0026_eid_dnn_2-10-10_elephant_10_n02504013_6731.png,n02504013_6731.png,1.0,-0.42738616,-1.3875669,0.6789503
alexnet_w1_mlp_simclrhn_probe0,1,27,NaN,keyboard,keyboard,4-10-10,0027_eid_dnn_4-10-10_keyboard_10_n04505470_4447.png,n04505470_4447.png,1.0,4.322248,-1.6972764,4.256447
alexnet_w1_mlp_simclrhn_probe0,1,28,NaN,airplane,airplane,1-10-10,0028_eid_dnn_1-10-10_airplane_10_n02690373_4839.png,n02690373_4839.png,1.0,5.3558702,0.85303056,3.1839883
alexnet_w1_mlp_simclrhn_probe0,1,29,NaN,cat,keyboard,64-10-10,0029_eid_dnn_64-10-10_keyboard_10_n04505470_1651.png,n04505470_1651.png,0.0,-12.232125,-1.6346326,-7.493559
alexnet_w1_mlp_simclrhn_probe0,1,30,NaN,oven,keyboard,32-10-10,0030_eid_dnn_32-10-10_keyboard_10_n03085013_20601.png,n03085013_20601.png,0.0,-4.2804337,-2.2984416,-1.40148
alexnet_w1_mlp_simclrhn_probe0,1,31,NaN,knife,airplane,64-10-10,0031_eid_dnn_64-10-10_airplane_10_n02690373_2217.png,n02690373_2217.png,0.0,-3.6000192,-2.5944085,-0.7110742
alexnet_w1_mlp_simclrhn_probe0,1,32,NaN,bicycle,bicycle,4-10-10,0032_eid_dnn_4-10-10_bicycle_10_n03792782_25019.png,n03792782_25019.png,1.0,-4.752899,-4.802513,0.035082363
alexnet_w1_mlp_simclrhn_probe0,1,33,NaN,cat,cat,8-10-10,0033_eid_dnn_8-10-10_cat_10_n02123597_13890.png,n02123597_13890.png,1.0,-0.7402372,-3.558558,1.9928538
alexnet_w1_mlp_simclrhn_probe0,1,34,NaN,boat,boat,1-10-10,0034_eid_dnn_1-10-10_boat_10_n04612504_214.png,n04612504_214.png,1.0,0.9906839,-0.8739709,1.31851
alexnet_w1_mlp_simclrhn_probe0,1,35,NaN,elephant,chair,128-10-10,0035_eid_dnn_128-10-10_chair_10_n02791124_2555.png,n02791124_2555.png,0.0,-8.049695,-0.26694417,-5.5032363
alexnet_w1_mlp_simclrhn_probe0,1,36,NaN,car,car,4-10-10,0036_eid_dnn_4-10-10_car_10_n04285008_2081.png,n04285008_2081.png,1.0,-4.0395103,-4.4970813,0.3235516
alexnet_w1_mlp_simclrhn_probe0,1,37,NaN,bear,dog,32-10-10,0037_eid_dnn_32-10-10_dog_10_n02094114_8202.png,n02094114_8202.png,0.0,-2.7753382,-2.5617027,-0.15106307
alexnet_w1_mlp_simclrhn_probe0,1,38,NaN,oven,chair,64-10-10,0038_eid_dnn_64-10-10_chair_10_n04099969_4541.png,n04099969_4541.png,0.0,-7.9337473,-1.515995,-4.5380363
alexnet_w1_mlp_simclrhn_probe0,1,39,NaN,oven,boat,128-10-10,0039_eid_dnn_128-10-10_boat_10_n04612504_12864.png,n04612504_12864.png,0.0,-6.306467,-1.2854717,-3.5503798
alexnet_w1_mlp_simclrhn_probe0,1,40,NaN,airplane,airplane,4-10-10,0040_eid_dnn_4-10-10_airplane_10_n02690373_18460.png,n02690373_18460.png,1.0,1.823499,-2.078228,2.7589376
alexnet_w1_mlp_simclrhn_probe0,1,41,NaN,oven,bottle,64-10-10,0041_eid_dnn_64-10-10_bottle_10_n03983396_8982.png,n03983396_8982.png,0.0,-7.223697,-1.1875699,-4.2681866
alexnet_w1_mlp_simclrhn_probe0,1,42,NaN,bear,dog,16-10-10,0042_eid_dnn_16-10-10_dog_10_n02099601_10407.png,n02099601_10407.png,0.0,-2.3638198,-0.23576409,-1.5047628
alexnet_w1_mlp_simclrhn_probe0,1,43,NaN,oven,airplane,32-10-10,0043_eid_dnn_32-10-10_airplane_10_n02690373_5253.png,n02690373_5253.png,0.0,-3.6765099,-1.0283021,-1.8725656
alexnet_w1_mlp_simclrhn_probe0,1,44,NaN,elephant,elephant,2-10-10,0044_eid_dnn_2-10-10_elephant_10_n02504013_2832.png,n02504013_2832.png,1.0,3.438702,1.050416,1.6887734
alexnet_w1_mlp_simclrhn_probe0,1,45,NaN,clock,clock,1-10-10,0045_eid_dnn_1-10-10_clock_10_n02708093_8002.png,n02708093_8002.png,1.0,-1.4668897,-2.414791,0.6702675
alexnet_w1_mlp_simclrhn_probe0,1,46,NaN,chair,chair,2-10-10,0046_eid_dnn_2-10-10_chair_10_n03376595_1766.png,n03376595_1766.png,1.0,0.78357166,-2.8827193,2.5924592
alexnet_w1_mlp_simclrhn_probe0,1,47,NaN,truck,truck,2-10-10,0047_eid_dnn_2-10-10_truck_10_n03417042_17616.png,n03417042_17616.png,1.0,-1.4936578,-2.5489566,0.74620897
alexnet_w1_mlp_simclrhn_probe0,1,48,NaN,bear,bear,16-10-10,0048_eid_dnn_16-10-10_bear_10_n02134418_2804.png,n02134418_2804.png,1.0,0.8206016,-2.8458583,2.592579
alexnet_w1_mlp_simclrhn_probe0,1,49,NaN,oven,car,64-10-10,0049_eid_dnn_64-10-10_car_10_n04285008_12101.png,n04285008_12101.png,0.0,-10.250911,-2.0193121,-5.8206196
alexnet_w1_mlp_simclrhn_probe0,1,50,NaN,bear,bear,16-10-10,0050_eid_dnn_16-10-10_bear_10_n02134418_3828.png,n02134418_3828.png,1.0,0.37862423,-0.59077275,0.6854672
alexnet_w1_mlp_simclrhn_probe0,1,51,NaN,bird,bird,2-10-10,0051_eid_dnn_2-10-10_bird_10_n01530575_5747.png,n01530575_5747.png,1.0,-4.9355507,-6.656786,1.2170972
alexnet_w1_mlp_simclrhn_probe0,1,52,NaN,elephant,truck,128-10-10,0052_eid_dnn_128-10-10_truck_10_n03796401_3386.png,n03796401_3386.png,0.0,-9.387409,-0.49008125,-6.2913613
alexnet_w1_mlp_simclrhn_probe0,1,53,NaN,oven,keyboard,16-10-10,0053_eid_dnn_16-10-10_keyboard_10_n04505470_3234.png,n04505470_3234.png,0.0,-6.754347,-5.378288,-0.97302073
alexnet_w1_mlp_simclrhn_probe0,1,54,NaN,airplane,truck,1-10-10,0054_eid_dnn_1-10-10_truck_10_n04467665_72639.png,n04467665_72639.png,0.0,-1.4996142,1.587859,-2.1831734
alexnet_w1_mlp_simclrhn_probe0,1,55,NaN,oven,chair,32-10-10,0055_eid_dnn_32-10-10_chair_10_n04429376_27524.png,n04429376_27524.png,0.0,-12.828344,-2.3518996,-7.4079647
alexnet_w1_mlp_simclrhn_probe0,1,56,NaN,oven,bottle,64-10-10,0056_eid_dnn_64-10-10_bottle_10_n04557648_11440.png,n04557648_11440.png,0.0,-3.2273123,-2.2209022,-0.7116394
alexnet_w1_mlp_simclrhn_probe0,1,57,NaN,oven,keyboard,32-10-10,0057_eid_dnn_32-10-10_keyboard_10_n03085013_20216.png,n03085013_20216.png,0.0,-9.425203,1.1416733,-7.47191
alexnet_w1_mlp_simclrhn_probe0,1,58,NaN,dog,boat,8-10-10,0058_eid_dnn_8-10-10_boat_10_n02951358_34653.png,n02951358_34653.png,0.0,-6.717761,-2.959541,-2.6574628
alexnet_w1_mlp_simclrhn_probe0,1,59,NaN,keyboard,keyboard,2-10-10,0059_eid_dnn_2-10-10_keyboard_10_n03085013_8932.png,n03085013_8932.png,1.0,1.3417325,-1.7900099,2.2144763
alexnet_w1_mlp_simclrhn_probe0,1,60,NaN,dog,cat,1-10-10,0060_eid_dnn_1-10-10_cat_10_n02125311_35338.png,n02125311_35338.png,0.0,-4.2109017,-3.7179399,-0.3485767
alexnet_w1_mlp_simclrhn_probe0,1,61,NaN,oven,bicycle,16-10-10,0061_eid_dnn_16-10-10_bicycle_10_n03792782_5449.png,n03792782_5449.png,0.0,-6.585202,0.082739234,-4.7149467
alexnet_w1_mlp_simclrhn_probe0,1,62,NaN,bear,bicycle,4-10-10,0062_eid_dnn_4-10-10_bicycle_10_n03792782_9432.png,n03792782_9432.png,0.0,-1.4195905,-1.1401737,-0.19757752
alexnet_w1_mlp_simclrhn_probe0,1,63,NaN,oven,bottle,1-10-10,0063_eid_dnn_1-10-10_bottle_10_n04591713_4291.png,n04591713_4291.png,0.0,-8.5505085,-5.410175,-2.2205513
alexnet_w1_mlp_simclrhn_probe0,1,64,NaN,truck,truck,4-10-10,0064_eid_dnn_4-10-10_truck_10_n04467665_67057.png,n04467665_67057.png,1.0,-4.82249,-6.2347956,0.9986507
alexnet_w1_mlp_simclrhn_probe0,1,65,NaN,knife,keyboard,1-10-10,0065_eid_dnn_1-10-10_keyboard_10_n03085013_22790.png,n03085013_22790.png,0.0,-7.477704,-6.3426905,-0.8025758
alexnet_w1_mlp_simclrhn_probe0,1,66,NaN,bear,dog,4-10-10,0066_eid_dnn_4-10-10_dog_10_n02086079_2896.png,n02086079_2896.png,0.0,-3.2773516,-3.0685377,-0.14765373
alexnet_w1_mlp_simclrhn_probe0,1,67,NaN,knife,knife,8-10-10,0067_eid_dnn_8-10-10_knife_10_n03041632_40508.png,n03041632_40508.png,1.0,-2.6480384,-2.8209035,0.12223412
alexnet_w1_mlp_simclrhn_probe0,1,68,NaN,boat,boat,1-10-10,0068_eid_dnn_1-10-10_boat_10_n03344393_7942.png,n03344393_7942.png,1.0,-1.355787,-2.2596662,0.6391391
alexnet_w1_mlp_simclrhn_probe0,1,69,NaN,bear,bear,2-10-10,0069_eid_dnn_2-10-10_bear_10_n02134418_4352.png,n02134418_4352.png,1.0,0.62063324,-1.7684593,1.6893435
alexnet_w1_mlp_simclrhn_probe0,1,70,NaN,bear,cat,16-10-10,0070_eid_dnn_16-10-10_cat_10_n02123045_5157.png,n02123045_5157.png,0.0,-2.3262825,-0.7309586,-1.1280644
alexnet_w1_mlp_simclrhn_probe0,1,71,NaN,bear,dog,16-10-10,0071_eid_dnn_16-10-10_dog_10_n02109047_14287.png,n02109047_14287.png,0.0,-3.6430278,-2.7448592,-0.6351011
alexnet_w1_mlp_simclrhn_probe0,1,72,NaN,truck,truck,2-10-10,0072_eid_dnn_2-10-10_truck_10_n03417042_14274.png,n03417042_14274.png,1.0,-1.0401336,-3.1585977,1.4979802
alexnet_w1_mlp_simclrhn_probe0,1,73,NaN,airplane,airplane,2-10-10,0073_eid_dnn_2-10-10_airplane_10_n02690373_5885.png,n02690373_5885.png,1.0,-3.8226664,-7.5566025,2.6402915
alexnet_w1_mlp_simclrhn_probe0,1,74,NaN,oven,cat,32-10-10,0074_eid_dnn_32-10-10_cat_10_n02123394_571.png,n02123394_571.png,0.0,-3.4035785,-2.7907128,-0.4333615
alexnet_w1_mlp_simclrhn_probe0,1,75,NaN,cat,cat,32-10-10,0075_eid_dnn_32-10-10_cat_10_n02123045_10171.png,n02123045_10171.png,1.0,-1.1636921,-3.213676,1.4495575
alexnet_w1_mlp_simclrhn_probe0,1,76,NaN,cat,bottle,8-10-10,0076_eid_dnn_8-10-10_bottle_10_n04560804_4909.png,n04560804_4909.png,0.0,-5.1195693,-4.9763694,-0.10125764
alexnet_w1_mlp_simclrhn_probe0,1,77,NaN,knife,keyboard,8-10-10,0077_eid_dnn_8-10-10_keyboard_10_n03085013_7971.png,n03085013_7971.png,0.0,-3.9398952,-3.8416717,-0.06945447
alexnet_w1_mlp_simclrhn_probe0,1,78,NaN,oven,keyboard,16-10-10,0078_eid_dnn_16-10-10_keyboard_10_n03085013_21397.png,n03085013_21397.png,0.0,-7.2759676,-2.1382933,-3.6328845
alexnet_w1_mlp_simclrhn_probe0,1,79,NaN,bear,elephant,32-10-10,0079_eid_dnn_32-10-10_elephant_10_n02504458_4187.png,n02504458_4187.png,0.0,-1.9309131,0.15698665,-1.4763681
alexnet_w1_mlp_simclrhn_probe0,1,80,NaN,bear,clock,8-10-10,0080_eid_dnn_8-10-10_clock_10_n03196217_6689.png,n03196217_6689.png,0.0,-11.646427,-1.2732921,-7.3349137
alexnet_w1_mlp_simclrhn_probe0,1,81,NaN,knife,knife,4-10-10,0081_eid_dnn_4-10-10_knife_10_n03041632_26236.png,n03041632_26236.png,1.0,-4.327833,-5.345101,0.7193169
alexnet_w1_mlp_simclrhn_probe0,1,82,NaN,bicycle,car,8-10-10,0082_eid_dnn_8-10-10_car_10_n03100240_1262.png,n03100240_1262.png,0.0,-6.2003665,-4.025223,-1.5380589
alexnet_w1_mlp_simclrhn_probe0,1,83,NaN,oven,keyboard,64-10-10,0083_eid_dnn_64-10-10_keyboard_10_n04505470_5059.png,n04505470_5059.png,0.0,-7.459893,-1.0139618,-4.557962
alexnet_w1_mlp_simclrhn_probe0,1,84,NaN,bird,bird,1-10-10,0084_eid_dnn_1-10-10_bird_10_n01537544_26417.png,n01537544_26417.png,1.0,-3.6565208,-6.3683167,1.9175292
alexnet_w1_mlp_simclrhn_probe0,1,85,NaN,oven,bird,32-10-10,0085_eid_dnn_32-10-10_bird_10_n02009912_5714.png,n02009912_5714.png,0.0,-8.952261,-3.2102468,-4.060217
alexnet_w1_mlp_simclrhn_probe0,1,86,NaN,bear,chair,128-10-10,0086_eid_dnn_128-10-10_chair_10_n03376595_5972.png,n03376595_5972.png,0.0,-10.373341,-0.9080663,-6.6929603
alexnet_w1_mlp_simclrhn_probe0,1,87,NaN,oven,chair,2-10-10,0087_eid_dnn_2-10-10_chair_10_n04429376_805.png,n04429376_805.png,0.0,-1.8566914,-1.0188009,-0.5924781
alexnet_w1_mlp_simclrhn_probe0,1,88,NaN,bear,bicycle,128-10-10,0088_eid_dnn_128-10-10_bicycle_10_n03792782_4083.png,n03792782_4083.png,0.0,-3.612387,-1.3086919,-1.6289586
alexnet_w1_mlp_simclrhn_probe0,1,89,NaN,clock,clock,1-10-10,0089_eid_dnn_1-10-10_clock_10_n02708093_798.png,n02708093_798.png,1.0,-0.6517716,-2.3807354,1.2225621
alexnet_w1_mlp_simclrhn_probe0,1,90,NaN,bear,bear,1-10-10,0090_eid_dnn_1-10-10_bear_10_n02133161_1660.png,n02133161_1660.png,1.0,0.569417,-2.7479048,2.3457007
alexnet_w1_mlp_simclrhn_probe0,1,91,NaN,oven,car,8-10-10,0091_eid_dnn_8-10-10_car_10_n04285008_9464.png,n04285008_9464.png,0.0,-9.989038,-4.835331,-3.6442215
alexnet_w1_mlp_simclrhn_probe0,1,92,NaN,oven,oven,16-10-10,0092_eid_dnn_16-10-10_oven_10_n04111531_3314.png,n04111531_3314.png,1.0,2.2626393,-1.8634204,2.9175646
alexnet_w1_mlp_simclrhn_probe0,1,93,NaN,oven,cat,128-10-10,0093_eid_dnn_128-10-10_cat_10_n02123394_5753.png,n02123394_5753.png,0.0,-2.0945108,-0.34673578,-1.2358637
alexnet_w1_mlp_simclrhn_probe0,1,94,NaN,bicycle,boat,2-10-10,0094_eid_dnn_2-10-10_boat_10_n02951358_34042.png,n02951358_34042.png,0.0,-1.2960488,-0.15130341,-0.80945724
alexnet_w1_mlp_simclrhn_probe0,1,95,NaN,bear,truck,64-10-10,0095_eid_dnn_64-10-10_truck_10_n03417042_7588.png,n03417042_7588.png,0.0,-8.220306,-1.2936296,-4.8979
alexnet_w1_mlp_simclrhn_probe0,1,96,NaN,oven,truck,32-10-10,0096_eid_dnn_32-10-10_truck_10_n03417042_4200.png,n03417042_4200.png,0.0,-8.606625,1.9667811,-7.476527
alexnet_w1_mlp_simclrhn_probe0,1,97,NaN,airplane,airplane,4-10-10,0097_eid_dnn_4-10-10_airplane_10_n02690373_4335.png,n02690373_4335.png,1.0,2.4994793,-3.6878166,4.375079
alexnet_w1_mlp_simclrhn_probe0,1,98,NaN,oven,elephant,128-10-10,0098_eid_dnn_128-10-10_elephant_10_n02504458_6823.png,n02504458_6823.png,0.0,-3.701906,-2.3792562,-0.9352546
alexnet_w1_mlp_simclrhn_probe0,1,99,NaN,boat,boat,4-10-10,0099_eid_dnn_4-10-10_boat_10_n03344393_4214.png,n03344393_4214.png,1.0,-0.17998227,-1.2034936,0.7237318
alexnet_w1_mlp_simclrhn_probe0,1,100,NaN,keyboard,keyboard,4-10-10,0100_eid_dnn_4-10-10_keyboard_10_n03085013_22949.png,n03085013_22949.png,1.0,2.545659,-0.90995675,2.4434893
alexnet_w1_mlp_simclrhn_probe0,1,101,NaN,elephant,bear,64-10-10,0101_eid_dnn_64-10-10_bear_10_n02132136_31664.png,n02132136_31664.png,0.0,-2.8655,-2.478467,-0.27367365
alexnet_w1_mlp_simclrhn_probe0,1,102,NaN,keyboard,bottle,8-10-10,0102_eid_dnn_8-10-10_bottle_10_n03983396_1985.png,n03983396_1985.png,0.0,-6.8132434,-4.826747,-1.4046651
alexnet_w1_mlp_simclrhn_probe0,1,103,NaN,airplane,airplane,2-10-10,0103_eid_dnn_2-10-10_airplane_10_n02690373_9266.png,n02690373_9266.png,1.0,4.7532988,-2.9242148,5.428822
alexnet_w1_mlp_simclrhn_probe0,1,104,NaN,bear,bottle,128-10-10,0104_eid_dnn_128-10-10_bottle_10_n02823428_5961.png,n02823428_5961.png,0.0,-5.1896057,-1.8330904,-2.3734148
alexnet_w1_mlp_simclrhn_probe0,1,105,NaN,oven,bottle,4-10-10,0105_eid_dnn_4-10-10_bottle_10_n04579145_1856.png,n04579145_1856.png,0.0,-2.0387886,-1.9654355,-0.051868442
alexnet_w1_mlp_simclrhn_probe0,1,106,NaN,oven,clock,64-10-10,0106_eid_dnn_64-10-10_clock_10_n02708093_7810.png,n02708093_7810.png,0.0,-9.129354,-1.4314387,-5.4432483
alexnet_w1_mlp_simclrhn_probe0,1,107,NaN,dog,dog,1-10-10,0107_eid_dnn_1-10-10_dog_10_n02100735_4949.png,n02100735_4949.png,1.0,-2.0941107,-3.0444283,0.67197603
alexnet_w1_mlp_simclrhn_probe0,1,108,NaN,oven,chair,32-10-10,0108_eid_dnn_32-10-10_chair_10_n03376595_7275.png,n03376595_7275.png,0.0,-9.228453,-2.8729727,-4.4940033
alexnet_w1_mlp_simclrhn_probe0,1,109,NaN,bottle,bottle,2-10-10,0109_eid_dnn_2-10-10_bottle_10_n03983396_16741.png,n03983396_16741.png,1.0,-1.858262,-3.4398317,1.1183387
alexnet_w1_mlp_simclrhn_probe0,1,110,NaN,dog,boat,32-10-10,0110_eid_dnn_32-10-10_boat_10_n04612504_8719.png,n04612504_8719.png,0.0,-11.543671,-4.905383,-4.6939783
alexnet_w1_mlp_simclrhn_probe0,1,111,NaN,chair,chair,1-10-10,0111_eid_dnn_1-10-10_chair_10_n02791124_3570.png,n02791124_3570.png,1.0,-1.2213421,-5.942737,3.3385305
alexnet_w1_mlp_simclrhn_probe0,1,112,NaN,bear,bear,32-10-10,0112_eid_dnn_32-10-10_bear_10_n02132136_9557.png,n02132136_9557.png,1.0,0.48167938,-1.2980459,1.2584559
alexnet_w1_mlp_simclrhn_probe0,1,113,NaN,bear,bird,64-10-10,0113_eid_dnn_64-10-10_bird_10_n02002556_5730.png,n02002556_5730.png,0.0,-5.2711973,-0.47172922,-3.3937364
alexnet_w1_mlp_simclrhn_probe0,1,114,NaN,oven,oven,4-10-10,0114_eid_dnn_4-10-10_oven_10_n04111531_8959.png,n04111531_8959.png,1.0,-2.3138554,-5.340439,2.1401176
alexnet_w1_mlp_simclrhn_probe0,1,115,NaN,elephant,cat,128-10-10,0115_eid_dnn_128-10-10_cat_10_n02123159_8101.png,n02123159_8101.png,0.0,-1.5044118,0.68064934,-1.5450716
alexnet_w1_mlp_simclrhn_probe0,1,116,NaN,dog,cat,8-10-10,0116_eid_dnn_8-10-10_cat_10_n02123597_8890.png,n02123597_8890.png,0.0,-3.416888,-2.6154506,-0.5667018
alexnet_w1_mlp_simclrhn_probe0,1,117,NaN,elephant,elephant,1-10-10,0117_eid_dnn_1-10-10_elephant_10_n02504458_220.png,n02504458_220.png,1.0,5.458822,-2.072227,5.325256
alexnet_w1_mlp_simclrhn_probe0,1,118,NaN,oven,bicycle,128-10-10,0118_eid_dnn_128-10-10_bicycle_10_n02835271_2651.png,n02835271_2651.png,0.0,-2.8982718,-1.3883513,-1.067675
alexnet_w1_mlp_simclrhn_probe0,1,119,NaN,oven,keyboard,64-10-10,0119_eid_dnn_64-10-10_keyboard_10_n04505470_1581.png,n04505470_1581.png,0.0,-12.598142,-3.0313768,-6.7647243
alexnet_w1_mlp_simclrhn_probe0,1,120,NaN,elephant,truck,4-10-10,0120_eid_dnn_4-10-10_truck_10_n04467665_1719.png,n04467665_1719.png,0.0,-1.7206799,-1.0881425,-0.44727147
alexnet_w1_mlp_simclrhn_probe0,1,121,NaN,truck,truck,2-10-10,0121_eid_dnn_2-10-10_truck_10_n04467665_30756.png,n04467665_30756.png,1.0,1.6174593,-1.5387398,2.2317698
alexnet_w1_mlp_simclrhn_probe0,1,122,NaN,oven,oven,64-10-10,0122_eid_dnn_64-10-10_oven_10_n04111531_1818.png,n04111531_1818.png,1.0,-1.5529884,-2.5716243,0.72028434
alexnet_w1_mlp_simclrhn_probe0,1,123,NaN,elephant,elephant,64-10-10,0123_eid_dnn_64-10-10_elephant_10_n02504013_2974.png,n02504013_2974.png,1.0,0.47978467,0.06773497,0.29136315
alexnet_w1_mlp_simclrhn_probe0,1,124,NaN,bear,bicycle,128-10-10,0124_eid_dnn_128-10-10_bicycle_10_n03792782_7713.png,n03792782_7713.png,0.0,-4.0222692,-1.2692238,-1.9466972
alexnet_w1_mlp_simclrhn_probe0,1,125,NaN,oven,clock,16-10-10,0125_eid_dnn_16-10-10_clock_10_n04548280_9700.png,n04548280_9700.png,0.0,-7.360842,-1.286736,-4.2950416
alexnet_w1_mlp_simclrhn_probe0,1,126,NaN,oven,bottle,16-10-10,0126_eid_dnn_16-10-10_bottle_10_n04591713_1174.png,n04591713_1174.png,0.0,-8.266707,-2.209528,-4.283073
alexnet_w1_mlp_simclrhn_probe0,1,127,NaN,bear,bear,64-10-10,0127_eid_dnn_64-10-10_bear_10_n02134418_1395.png,n02134418_1395.png,1.0,-0.0077279806,-1.7665596,1.2436818
alexnet_w1_mlp_simclrhn_probe0,1,128,NaN,oven,bottle,128-10-10,0128_eid_dnn_128-10-10_bottle_10_n04591713_36.png,n04591713_36.png,0.0,-5.3428965,-0.973666,-3.0895123
alexnet_w1_mlp_simclrhn_probe0,1,129,NaN,dog,knife,8-10-10,0129_eid_dnn_8-10-10_knife_10_n03041632_21034.png,n03041632_21034.png,0.0,-5.105067,-3.6490319,-1.0295721
alexnet_w1_mlp_simclrhn_probe0,1,130,NaN,bicycle,bicycle,1-10-10,0130_eid_dnn_1-10-10_bicycle_10_n03792782_11115.png,n03792782_11115.png,1.0,8.16743,-7.048367,10.759193
alexnet_w1_mlp_simclrhn_probe0,1,131,NaN,oven,truck,16-10-10,0131_eid_dnn_16-10-10_truck_10_n03417042_5381.png,n03417042_5381.png,0.0,-9.513885,1.2250662,-7.593585
alexnet_w1_mlp_simclrhn_probe0,1,132,NaN,bear,boat,64-10-10,0132_eid_dnn_64-10-10_boat_10_n04612504_15258.png,n04612504_15258.png,0.0,-9.568866,-0.8627773,-6.156134
alexnet_w1_mlp_simclrhn_probe0,1,133,NaN,boat,boat,2-10-10,0133_eid_dnn_2-10-10_boat_10_n03662601_11972.png,n03662601_11972.png,1.0,0.77404237,-0.86760634,1.160821
alexnet_w1_mlp_simclrhn_probe0,1,134,NaN,bear,dog,64-10-10,0134_eid_dnn_64-10-10_dog_10_n02092002_11459.png,n02092002_11459.png,0.0,-1.8743552,-0.48541754,-0.9821273
alexnet_w1_mlp_simclrhn_probe0,1,135,NaN,oven,clock,64-10-10,0135_eid_dnn_64-10-10_clock_10_n04548280_6605.png,n04548280_6605.png,0.0,-6.304505,-3.2390575,-2.1675987
alexnet_w1_mlp_simclrhn_probe0,1,136,NaN,bear,boat,64-10-10,0136_eid_dnn_64-10-10_boat_10_n03662601_5600.png,n03662601_5600.png,0.0,-2.7354329,-1.7697284,-0.68285614
alexnet_w1_mlp_simclrhn_probe0,1,137,NaN,oven,bear,32-10-10,0137_eid_dnn_32-10-10_bear_10_n02134084_8153.png,n02134084_8153.png,0.0,-3.6337996,-2.9850855,-0.45871013
alexnet_w1_mlp_simclrhn_probe0,1,138,NaN,oven,cat,64-10-10,0138_eid_dnn_64-10-10_cat_10_n02124075_9225.png,n02124075_9225.png,0.0,-2.576514,-1.3963501,-0.83450186
alexnet_w1_mlp_simclrhn_probe0,1,139,NaN,oven,bicycle,8-10-10,0139_eid_dnn_8-10-10_bicycle_10_n03792782_3591.png,n03792782_3591.png,0.0,-3.8364177,-0.98766774,-2.0143704
alexnet_w1_mlp_simclrhn_probe0,1,140,NaN,bear,dog,64-10-10,0140_eid_dnn_64-10-10_dog_10_n02107142_31661.png,n02107142_31661.png,0.0,-2.7249815,-0.762372,-1.3877746
alexnet_w1_mlp_simclrhn_probe0,1,141,NaN,elephant,elephant,8-10-10,0141_eid_dnn_8-10-10_elephant_10_n02504458_651.png,n02504458_651.png,1.0,4.0421066,1.825072,1.5676802
alexnet_w1_mlp_simclrhn_probe0,1,142,NaN,bear,dog,128-10-10,0142_eid_dnn_128-10-10_dog_10_n02110958_15217.png,n02110958_15217.png,0.0,-3.0289752,-0.8314231,-1.553904
alexnet_w1_mlp_simclrhn_probe0,1,143,NaN,oven,oven,4-10-10,0143_eid_dnn_4-10-10_oven_10_n04111531_523.png,n04111531_523.png,1.0,-0.6061582,-3.3836076,1.9639534
alexnet_w1_mlp_simclrhn_probe0,1,144,NaN,car,car,4-10-10,0144_eid_dnn_4-10-10_car_10_n02814533_42884.png,n02814533_42884.png,1.0,-1.7800764,-4.6784935,2.0494905
alexnet_w1_mlp_simclrhn_probe0,1,145,NaN,oven,car,64-10-10,0145_eid_dnn_64-10-10_car_10_n04285008_8017.png,n04285008_8017.png,0.0,-9.792324,0.6324648,-7.371439
alexnet_w1_mlp_simclrhn_probe0,1,146,NaN,airplane,car,1-10-10,0146_eid_dnn_1-10-10_car_10_n03100240_16766.png,n03100240_16766.png,0.0,-3.0064285,-2.9700594,-0.025716828
alexnet_w1_mlp_simclrhn_probe0,1,147,NaN,elephant,elephant,8-10-10,0147_eid_dnn_8-10-10_elephant_10_n02504458_4593.png,n02504458_4593.png,1.0,4.2975044,0.76023406,2.5012279
alexnet_w1_mlp_simclrhn_probe0,1,148,NaN,cat,chair,64-10-10,0148_eid_dnn_64-10-10_chair_10_n02791124_1358.png,n02791124_1358.png,0.0,-14.705598,-2.7036464,-8.486661
alexnet_w1_mlp_simclrhn_probe0,1,149,NaN,dog,dog,16-10-10,0149_eid_dnn_16-10-10_dog_10_n02095314_5363.png,n02095314_5363.png,1.0,-1.5671765,-2.3453896,0.5502798
alexnet_w1_mlp_simclrhn_probe0,1,150,NaN,oven,clock,8-10-10,0150_eid_dnn_8-10-10_clock_10_n04548280_1413.png,n04548280_1413.png,0.0,-6.4983354,-4.664601,-1.2966461
alexnet_w1_mlp_simclrhn_probe0,1,151,NaN,dog,dog,1-10-10,0151_eid_dnn_1-10-10_dog_10_n02105641_10948.png,n02105641_10948.png,1.0,-1.7991027,-6.9459434,3.639366
alexnet_w1_mlp_simclrhn_probe0,1,152,NaN,bear,dog,1-10-10,0152_eid_dnn_1-10-10_dog_10_n02113624_1691.png,n02113624_1691.png,0.0,-2.5535781,0.045633912,-1.8379205
alexnet_w1_mlp_simclrhn_probe0,1,153,NaN,car,car,4-10-10,0153_eid_dnn_4-10-10_car_10_n03100240_2235.png,n03100240_2235.png,1.0,-1.3368444,-1.9726918,0.44961196
alexnet_w1_mlp_simclrhn_probe0,1,154,NaN,oven,chair,2-10-10,0154_eid_dnn_2-10-10_chair_10_n04099969_56470.png,n04099969_56470.png,0.0,-5.6425037,-5.104764,-0.38023943
alexnet_w1_mlp_simclrhn_probe0,1,155,NaN,oven,oven,2-10-10,0155_eid_dnn_2-10-10_oven_10_n04111531_5429.png,n04111531_5429.png,1.0,4.2348876,-2.1522188,4.5163665
alexnet_w1_mlp_simclrhn_probe0,1,156,NaN,oven,keyboard,64-10-10,0156_eid_dnn_64-10-10_keyboard_10_n03085013_19317.png,n03085013_19317.png,0.0,-9.889839,-1.1547863,-6.176615
alexnet_w1_mlp_simclrhn_probe0,1,157,NaN,bear,bird,64-10-10,0157_eid_dnn_64-10-10_bird_10_n01601694_19650.png,n01601694_19650.png,0.0,-5.7790747,-3.6040182,-1.5379972
alexnet_w1_mlp_simclrhn_probe0,1,158,NaN,oven,clock,128-10-10,0158_eid_dnn_128-10-10_clock_10_n03196217_11199.png,n03196217_11199.png,0.0,-11.366208,-2.2928877,-6.4158063
alexnet_w1_mlp_simclrhn_probe0,1,159,NaN,cat,bottle,32-10-10,0159_eid_dnn_32-10-10_bottle_10_n03937543_2209.png,n03937543_2209.png,0.0,-8.154061,-2.7866085,-3.7953622
alexnet_w1_mlp_simclrhn_probe0,1,160,NaN,oven,car,64-10-10,0160_eid_dnn_64-10-10_car_10_n03100240_16939.png,n03100240_16939.png,0.0,-9.171479,-0.5159278,-6.1203995
alexnet_w1_mlp_simclrhn_probe0,1,161,NaN,oven,bottle,8-10-10,0161_eid_dnn_8-10-10_bottle_10_n04591713_2501.png,n04591713_2501.png,0.0,-5.1864853,-2.7662947,-1.7113332
alexnet_w1_mlp_simclrhn_probe0,1,162,NaN,airplane,airplane,16-10-10,0162_eid_dnn_16-10-10_airplane_10_n02690373_10395.png,n02690373_10395.png,1.0,-1.5545378,-4.7413325,2.2534041
alexnet_w1_mlp_simclrhn_probe0,1,163,NaN,oven,oven,8-10-10,0163_eid_dnn_8-10-10_oven_10_n04111531_3286.png,n04111531_3286.png,1.0,0.7803304,-3.5850406,3.0867834
alexnet_w1_mlp_simclrhn_probe0,1,164,NaN,oven,boat,64-10-10,0164_eid_dnn_64-10-10_boat_10_n04273569_13401.png,n04273569_13401.png,0.0,-10.782518,-0.3768462,-7.3579216
alexnet_w1_mlp_simclrhn_probe0,1,165,NaN,oven,elephant,64-10-10,0165_eid_dnn_64-10-10_elephant_10_n02504458_12776.png,n02504458_12776.png,0.0,-2.584144,-1.8419999,-0.5247752
alexnet_w1_mlp_simclrhn_probe0,1,166,NaN,bird,bird,2-10-10,0166_eid_dnn_2-10-10_bird_10_n01828970_997.png,n01828970_997.png,1.0,-0.19785371,-2.6556544,1.7379276
alexnet_w1_mlp_simclrhn_probe0,1,167,NaN,bear,bear,8-10-10,0167_eid_dnn_8-10-10_bear_10_n02132136_10318.png,n02132136_10318.png,1.0,0.3179816,-1.5478848,1.3193668
alexnet_w1_mlp_simclrhn_probe0,1,168,NaN,oven,oven,32-10-10,0168_eid_dnn_32-10-10_oven_10_n04111531_7883.png,n04111531_7883.png,1.0,3.8418744,-1.8681846,4.0376215
alexnet_w1_mlp_simclrhn_probe0,1,169,NaN,oven,clock,128-10-10,0169_eid_dnn_128-10-10_clock_10_n02708093_725.png,n02708093_725.png,0.0,-5.452122,-1.6628605,-2.6794128
alexnet_w1_mlp_simclrhn_probe0,1,170,NaN,oven,bottle,16-10-10,0170_eid_dnn_16-10-10_bottle_10_n04557648_2052.png,n04557648_2052.png,0.0,-6.6760798,-0.5651602,-4.3210726
alexnet_w1_mlp_simclrhn_probe0,1,171,NaN,oven,keyboard,32-10-10,0171_eid_dnn_32-10-10_keyboard_10_n04505470_5036.png,n04505470_5036.png,0.0,-9.042846,0.08480871,-6.454226
alexnet_w1_mlp_simclrhn_probe0,1,172,NaN,elephant,elephant,8-10-10,0172_eid_dnn_8-10-10_elephant_10_n02504458_13352.png,n02504458_13352.png,1.0,0.0033732653,-1.0247648,0.7270034
alexnet_w1_mlp_simclrhn_probe0,1,173,NaN,dog,chair,4-10-10,0173_eid_dnn_4-10-10_chair_10_n04429376_30620.png,n04429376_30620.png,0.0,-4.861447,-3.428061,-1.0135568
alexnet_w1_mlp_simclrhn_probe0,1,174,NaN,airplane,boat,16-10-10,0174_eid_dnn_16-10-10_boat_10_n03662601_2980.png,n03662601_2980.png,0.0,-5.0703354,-2.7039456,-1.6732903
alexnet_w1_mlp_simclrhn_probe0,1,175,NaN,dog,boat,8-10-10,0175_eid_dnn_8-10-10_boat_10_n03662601_4734.png,n03662601_4734.png,0.0,-5.3081846,-4.9739885,-0.23631233
alexnet_w1_mlp_simclrhn_probe0,1,176,NaN,bear,bear,2-10-10,0176_eid_dnn_2-10-10_bear_10_n02134418_4754.png,n02134418_4754.png,1.0,-0.9029223,-3.2544534,1.6627836
alexnet_w1_mlp_simclrhn_probe0,1,177,NaN,elephant,elephant,2-10-10,0177_eid_dnn_2-10-10_elephant_10_n02504013_8522.png,n02504013_8522.png,1.0,2.6197658,-1.1444819,2.661725
alexnet_w1_mlp_simclrhn_probe0,1,178,NaN,oven,bottle,64-10-10,0178_eid_dnn_64-10-10_bottle_10_n03937543_4863.png,n03937543_4863.png,0.0,-6.7172446,-1.2249668,-3.8836272
alexnet_w1_mlp_simclrhn_probe0,1,179,NaN,oven,car,16-10-10,0179_eid_dnn_16-10-10_car_10_n04285008_10802.png,n04285008_10802.png,0.0,-9.5755,-0.4341606,-6.463903
alexnet_w1_mlp_simclrhn_probe0,1,180,NaN,oven,knife,64-10-10,0180_eid_dnn_64-10-10_knife_10_n03041632_6708.png,n03041632_6708.png,0.0,-4.216297,0.32011247,-3.207726
alexnet_w1_mlp_simclrhn_probe0,1,181,NaN,elephant,dog,1-10-10,0181_eid_dnn_1-10-10_dog_10_n02107142_61109.png,n02107142_61109.png,0.0,-4.0640926,-1.844991,-1.5691419
alexnet_w1_mlp_simclrhn_probe0,1,182,NaN,keyboard,clock,2-10-10,0182_eid_dnn_2-10-10_clock_10_n03196217_8139.png,n03196217_8139.png,0.0,-5.375911,-2.8934586,-1.7553592
alexnet_w1_mlp_simclrhn_probe0,1,183,NaN,elephant,elephant,1-10-10,0183_eid_dnn_1-10-10_elephant_10_n02504458_6611.png,n02504458_6611.png,1.0,4.735089,-1.2372234,4.2230625
alexnet_w1_mlp_simclrhn_probe0,1,184,NaN,oven,truck,64-10-10,0184_eid_dnn_64-10-10_truck_10_n04467665_4401.png,n04467665_4401.png,0.0,-6.6763973,-2.136548,-3.2101583
alexnet_w1_mlp_simclrhn_probe0,1,185,NaN,boat,boat,4-10-10,0185_eid_dnn_4-10-10_boat_10_n03344393_732.png,n03344393_732.png,1.0,-1.6029012,-1.8057731,0.14345211
alexnet_w1_mlp_simclrhn_probe0,1,186,NaN,knife,knife,4-10-10,0186_eid_dnn_4-10-10_knife_10_n03041632_41381.png,n03041632_41381.png,1.0,-1.7596033,-2.1070225,0.24566253
alexnet_w1_mlp_simclrhn_probe0,1,187,NaN,oven,oven,32-10-10,0187_eid_dnn_32-10-10_oven_10_n04111531_22715.png,n04111531_22715.png,1.0,3.505158,-1.5953307,3.6065903
alexnet_w1_mlp_simclrhn_probe0,1,188,NaN,oven,cat,16-10-10,0188_eid_dnn_16-10-10_cat_10_n02123045_3568.png,n02123045_3568.png,0.0,-3.4792786,-2.3363254,-0.8081899
alexnet_w1_mlp_simclrhn_probe0,1,189,NaN,truck,truck,2-10-10,0189_eid_dnn_2-10-10_truck_10_n03796401_18976.png,n03796401_18976.png,1.0,2.3723369,-0.31282532,1.8986963
alexnet_w1_mlp_simclrhn_probe0,1,190,NaN,oven,oven,8-10-10,0190_eid_dnn_8-10-10_oven_10_n04111531_15710.png,n04111531_15710.png,1.0,0.80714685,-3.5163996,3.057209
alexnet_w1_mlp_simclrhn_probe0,1,191,NaN,bear,elephant,32-10-10,0191_eid_dnn_32-10-10_elephant_10_n02504013_7232.png,n02504013_7232.png,0.0,-2.6947217,-0.5248626,-1.5343221
alexnet_w1_mlp_simclrhn_probe0,1,192,NaN,oven,clock,64-10-10,0192_eid_dnn_64-10-10_clock_10_n02708093_5126.png,n02708093_5126.png,0.0,-4.975616,-1.6105762,-2.3794425
alexnet_w1_mlp_simclrhn_probe0,1,193,NaN,oven,cat,32-10-10,0193_eid_dnn_32-10-10_cat_10_n02123159_1598.png,n02123159_1598.png,0.0,-3.3104274,2.7581658,-4.2911434
alexnet_w1_mlp_simclrhn_probe0,1,194,NaN,car,car,1-10-10,0194_eid_dnn_1-10-10_car_10_n04285008_1661.png,n04285008_1661.png,1.0,7.698687,4.6006827,2.19062
alexnet_w1_mlp_simclrhn_probe0,1,195,NaN,clock,clock,2-10-10,0195_eid_dnn_2-10-10_clock_10_n02708093_5551.png,n02708093_5551.png,1.0,1.4640913,-3.6812503,3.6383061
alexnet_w1_mlp_simclrhn_probe0,1,196,NaN,airplane,airplane,128-10-10,0196_eid_dnn_128-10-10_airplane_10_n02690373_693.png,n02690373_693.png,1.0,-0.16554461,-1.0721728,0.6410829
alexnet_w1_mlp_simclrhn_probe0,1,197,NaN,elephant,elephant,2-10-10,0197_eid_dnn_2-10-10_elephant_10_n02504013_3409.png,n02504013_3409.png,1.0,2.261961,-2.8923168,3.644625
alexnet_w1_mlp_simclrhn_probe0,1,198,NaN,oven,dog,64-10-10,0198_eid_dnn_64-10-10_dog_10_n02113712_8182.png,n02113712_8182.png,0.0,-3.3706186,-1.4960883,-1.3254931
alexnet_w1_mlp_simclrhn_probe0,1,199,NaN,bottle,bottle,1-10-10,0199_eid_dnn_1-10-10_bottle_10_n03983396_8322.png,n03983396_8322.png,1.0,-2.1520922,-3.944007,1.2670751
alexnet_w1_mlp_simclrhn_probe0,1,200,NaN,oven,keyboard,64-10-10,0200_eid_dnn_64-10-10_keyboard_10_n04505470_1040.png,n04505470_1040.png,0.0,-8.669137,-1.5663631,-5.0224195
alexnet_w1_mlp_simclrhn_probe0,1,201,NaN,oven,oven,32-10-10,0201_eid_dnn_32-10-10_oven_10_n04111531_11230.png,n04111531_11230.png,1.0,-0.47067612,-2.5500228,1.4703201
alexnet_w1_mlp_simclrhn_probe0,1,202,NaN,cat,cat,1-10-10,0202_eid_dnn_1-10-10_cat_10_n02123394_6269.png,n02123394_6269.png,1.0,3.4648907,-1.8257173,3.7410247
alexnet_w1_mlp_simclrhn_probe0,1,203,NaN,elephant,elephant,2-10-10,0203_eid_dnn_2-10-10_elephant_10_n02504013_2075.png,n02504013_2075.png,1.0,1.8579352,-2.29869,2.939178
alexnet_w1_mlp_simclrhn_probe0,1,204,NaN,bear,bear,1-10-10,0204_eid_dnn_1-10-10_bear_10_n02133161_3795.png,n02133161_3795.png,1.0,-2.6536148,-4.0217733,0.9674342
alexnet_w1_mlp_simclrhn_probe0,1,205,NaN,oven,oven,2-10-10,0205_eid_dnn_2-10-10_oven_10_n04111531_4322.png,n04111531_4322.png,1.0,0.824288,-0.7250447,1.0955437
alexnet_w1_mlp_simclrhn_probe0,1,206,NaN,oven,bottle,4-10-10,0206_eid_dnn_4-10-10_bottle_10_n03937543_5799.png,n03937543_5799.png,0.0,-5.2242346,-2.1992846,-2.1389627
alexnet_w1_mlp_simclrhn_probe0,1,207,NaN,bottle,keyboard,8-10-10,0207_eid_dnn_8-10-10_keyboard_10_n04505470_4414.png,n04505470_4414.png,0.0,-4.1156693,-3.4047482,-0.5026971
alexnet_w1_mlp_simclrhn_probe0,1,208,NaN,cat,dog,4-10-10,0208_eid_dnn_4-10-10_dog_10_n02091032_8315.png,n02091032_8315.png,0.0,-2.9587011,-2.5060883,-0.32004565
alexnet_w1_mlp_simclrhn_probe0,1,209,NaN,knife,knife,2-10-10,0209_eid_dnn_2-10-10_knife_10_n03041632_39952.png,n03041632_39952.png,1.0,0.10383843,-3.7496052,2.724796
alexnet_w1_mlp_simclrhn_probe0,1,210,NaN,oven,chair,8-10-10,0210_eid_dnn_8-10-10_chair_10_n02791124_634.png,n02791124_634.png,0.0,-7.064603,-5.1635804,-1.3442259
alexnet_w1_mlp_simclrhn_probe0,1,211,NaN,airplane,boat,32-10-10,0211_eid_dnn_32-10-10_boat_10_n03344393_3355.png,n03344393_3355.png,0.0,-4.0929794,-3.1026752,-0.70025086
alexnet_w1_mlp_simclrhn_probe0,1,212,NaN,bear,dog,32-10-10,0212_eid_dnn_32-10-10_dog_10_n02102040_7188.png,n02102040_7188.png,0.0,-2.9255536,-2.4147801,-0.36117136
alexnet_w1_mlp_simclrhn_probe0,1,213,NaN,knife,chair,2-10-10,0213_eid_dnn_2-10-10_chair_10_n02791124_8711.png,n02791124_8711.png,0.0,-4.7198715,-3.9147294,-0.5693215
alexnet_w1_mlp_simclrhn_probe0,1,214,NaN,elephant,bear,64-10-10,0214_eid_dnn_64-10-10_bear_10_n02132136_6002.png,n02132136_6002.png,0.0,-0.52772665,-0.4429264,-0.059962828
alexnet_w1_mlp_simclrhn_probe0,1,215,NaN,bicycle,boat,4-10-10,0215_eid_dnn_4-10-10_boat_10_n02951358_30184.png,n02951358_30184.png,0.0,-3.45117,-1.7812399,-1.1808189
alexnet_w1_mlp_simclrhn_probe0,1,216,NaN,elephant,bottle,128-10-10,0216_eid_dnn_128-10-10_bottle_10_n02823428_3414.png,n02823428_3414.png,0.0,-5.482721,-0.24167988,-3.7059758
alexnet_w1_mlp_simclrhn_probe0,1,217,NaN,elephant,truck,4-10-10,0217_eid_dnn_4-10-10_truck_10_n04467665_13231.png,n04467665_13231.png,0.0,-5.146214,-0.75647044,-3.1040177
alexnet_w1_mlp_simclrhn_probe0,1,218,NaN,boat,chair,4-10-10,0218_eid_dnn_4-10-10_chair_10_n04099969_8063.png,n04099969_8063.png,0.0,-5.2787657,-3.6667569,-1.1398624
alexnet_w1_mlp_simclrhn_probe0,1,219,NaN,bird,bird,4-10-10,0219_eid_dnn_4-10-10_bird_10_n01534433_10234.png,n01534433_10234.png,1.0,-2.271062,-4.104259,1.2962661
alexnet_w1_mlp_simclrhn_probe0,1,220,NaN,elephant,elephant,4-10-10,0220_eid_dnn_4-10-10_elephant_10_n02504013_12533.png,n02504013_12533.png,1.0,-1.8879075,-2.2406204,0.24940567
alexnet_w1_mlp_simclrhn_probe0,1,221,NaN,airplane,knife,16-10-10,0221_eid_dnn_16-10-10_knife_10_n03041632_18995.png,n03041632_18995.png,0.0,-4.410422,-4.2923265,-0.083506055
alexnet_w1_mlp_simclrhn_probe0,1,222,NaN,dog,chair,32-10-10,0222_eid_dnn_32-10-10_chair_10_n04429376_7123.png,n04429376_7123.png,0.0,-12.607614,-3.5003026,-6.4398417
alexnet_w1_mlp_simclrhn_probe0,1,223,NaN,knife,clock,64-10-10,0223_eid_dnn_64-10-10_clock_10_n03196217_9065.png,n03196217_9065.png,0.0,-4.056026,-2.685712,-0.96895826
alexnet_w1_mlp_simclrhn_probe0,1,224,NaN,cat,dog,4-10-10,0224_eid_dnn_4-10-10_dog_10_n02086079_4143.png,n02086079_4143.png,0.0,-1.0978044,1.0508366,-1.5193187
alexnet_w1_mlp_simclrhn_probe0,1,225,NaN,bear,bear,4-10-10,0225_eid_dnn_4-10-10_bear_10_n02132136_20162.png,n02132136_20162.png,1.0,-0.8518685,-1.1666622,0.22259277
alexnet_w1_mlp_simclrhn_probe0,1,226,NaN,knife,bottle,1-10-10,0226_eid_dnn_1-10-10_bottle_10_n03983396_4165.png,n03983396_4165.png,0.0,-6.7787757,-5.5140924,-0.8942661
alexnet_w1_mlp_simclrhn_probe0,1,227,NaN,bird,bird,4-10-10,0227_eid_dnn_4-10-10_bird_10_n01824575_4470.png,n01824575_4470.png,1.0,-2.472741,-3.0389884,0.40039742
alexnet_w1_mlp_simclrhn_probe0,1,228,NaN,oven,oven,64-10-10,0228_eid_dnn_64-10-10_oven_10_n04111531_9695.png,n04111531_9695.png,1.0,1.4646171,-1.0817744,1.8005707
alexnet_w1_mlp_simclrhn_probe0,1,229,NaN,bear,bottle,64-10-10,0229_eid_dnn_64-10-10_bottle_10_n02823428_23181.png,n02823428_23181.png,0.0,-5.823093,-1.5612545,-3.0135748
alexnet_w1_mlp_simclrhn_probe0,1,230,NaN,bicycle,bicycle,2-10-10,0230_eid_dnn_2-10-10_bicycle_10_n02835271_13674.png,n02835271_13674.png,1.0,1.1355635,-6.034892,5.0702777
alexnet_w1_mlp_simclrhn_probe0,1,231,NaN,oven,chair,2-10-10,0231_eid_dnn_2-10-10_chair_10_n04429376_55747.png,n04429376_55747.png,0.0,-2.1967173,-1.7288454,-0.3308354
alexnet_w1_mlp_simclrhn_probe0,1,232,NaN,cat,boat,32-10-10,0232_eid_dnn_32-10-10_boat_10_n02951358_8346.png,n02951358_8346.png,0.0,-14.19254,-1.277888,-9.132038
alexnet_w1_mlp_simclrhn_probe0,1,233,NaN,bear,elephant,16-10-10,0233_eid_dnn_16-10-10_elephant_10_n02504013_1088.png,n02504013_1088.png,0.0,1.006762,1.4229903,-0.29431784
alexnet_w1_mlp_simclrhn_probe0,1,234,NaN,car,car,8-10-10,0234_eid_dnn_8-10-10_car_10_n03100240_11191.png,n03100240_11191.png,1.0,-3.355587,-4.7833176,1.009558
alexnet_w1_mlp_simclrhn_probe0,1,235,NaN,chair,chair,8-10-10,0235_eid_dnn_8-10-10_chair_10_n04099969_19966.png,n04099969_19966.png,1.0,-4.5873346,-5.4396935,0.6027087
alexnet_w1_mlp_simclrhn_probe0,1,236,NaN,oven,bicycle,32-10-10,0236_eid_dnn_32-10-10_bicycle_10_n03792782_15016.png,n03792782_15016.png,0.0,-10.887793,-1.6809444,-6.510225
alexnet_w1_mlp_simclrhn_probe0,1,237,NaN,elephant,boat,128-10-10,0237_eid_dnn_128-10-10_boat_10_n02951358_17867.png,n02951358_17867.png,0.0,-6.964274,-0.3677289,-4.664462
alexnet_w1_mlp_simclrhn_probe0,1,238,NaN,cat,cat,2-10-10,0238_eid_dnn_2-10-10_cat_10_n02123045_2364.png,n02123045_2364.png,1.0,-0.9322112,-6.237975,3.7517416
alexnet_w1_mlp_simclrhn_probe0,1,239,NaN,bear,bear,2-10-10,0239_eid_dnn_2-10-10_bear_10_n02132136_9433.png,n02132136_9433.png,1.0,-0.14942378,-1.4498093,0.9195114
alexnet_w1_mlp_simclrhn_probe0,1,240,NaN,oven,clock,32-10-10,0240_eid_dnn_32-10-10_clock_10_n03196217_3167.png,n03196217_3167.png,0.0,-9.75435,-1.6909416,-5.7016907
alexnet_w1_mlp_simclrhn_probe0,1,241,NaN,oven,clock,32-10-10,0241_eid_dnn_32-10-10_clock_10_n03196217_3129.png,n03196217_3129.png,0.0,-10.354194,-2.651833,-5.4463916
alexnet_w1_mlp_simclrhn_probe0,1,242,NaN,oven,keyboard,128-10-10,0242_eid_dnn_128-10-10_keyboard_10_n03085013_6067.png,n03085013_6067.png,0.0,-7.3888397,-1.5198951,-4.1499705
alexnet_w1_mlp_simclrhn_probe0,1,243,NaN,keyboard,keyboard,2-10-10,0243_eid_dnn_2-10-10_keyboard_10_n03085013_24648.png,n03085013_24648.png,1.0,2.0020142,-1.8022016,2.689987
alexnet_w1_mlp_simclrhn_probe0,1,244,NaN,oven,oven,32-10-10,0244_eid_dnn_32-10-10_oven_10_n04111531_6695.png,n04111531_6695.png,1.0,1.0819392,-2.5951066,2.600064
alexnet_w1_mlp_simclrhn_probe0,1,245,NaN,dog,dog,4-10-10,0245_eid_dnn_4-10-10_dog_10_n02111500_4875.png,n02111500_4875.png,1.0,-1.3004537,-1.3680781,0.047817707
alexnet_w1_mlp_simclrhn_probe0,1,246,NaN,oven,oven,32-10-10,0246_eid_dnn_32-10-10_oven_10_n04111531_13018.png,n04111531_13018.png,1.0,-1.457768,-2.6975994,0.87669325
alexnet_w1_mlp_simclrhn_probe0,1,247,NaN,oven,keyboard,128-10-10,0247_eid_dnn_128-10-10_keyboard_10_n03085013_23030.png,n03085013_23030.png,0.0,-8.69203,-0.77988183,-5.5947337
alexnet_w1_mlp_simclrhn_probe0,1,248,NaN,dog,cat,8-10-10,0248_eid_dnn_8-10-10_cat_10_n02123045_8409.png,n02123045_8409.png,0.0,-2.2573307,-1.0069846,-0.8841282
alexnet_w1_mlp_simclrhn_probe0,1,249,NaN,bicycle,bicycle,4-10-10,0249_eid_dnn_4-10-10_bicycle_10_n03792782_37777.png,n03792782_37777.png,1.0,0.046521693,-4.9557734,3.5371568
alexnet_w1_mlp_simclrhn_probe0,1,250,NaN,elephant,airplane,64-10-10,0250_eid_dnn_64-10-10_airplane_10_n02690373_614.png,n02690373_614.png,0.0,-4.253273,-1.5172977,-1.9346267
alexnet_w1_mlp_simclrhn_probe0,1,251,NaN,oven,keyboard,128-10-10,0251_eid_dnn_128-10-10_keyboard_10_n03085013_19775.png,n03085013_19775.png,0.0,-9.607324,-2.7663345,-4.83731
alexnet_w1_mlp_simclrhn_probe0,1,252,NaN,bear,bear,8-10-10,0252_eid_dnn_8-10-10_bear_10_n02133161_1244.png,n02133161_1244.png,1.0,0.5422008,-1.42911,1.3939273
alexnet_w1_mlp_simclrhn_probe0,1,253,NaN,car,keyboard,2-10-10,0253_eid_dnn_2-10-10_keyboard_10_n04505470_4368.png,n04505470_4368.png,0.0,-2.0971076,-1.9494449,-0.10441334
alexnet_w1_mlp_simclrhn_probe0,1,254,NaN,oven,oven,2-10-10,0254_eid_dnn_2-10-10_oven_10_n04111531_7728.png,n04111531_7728.png,1.0,1.3391273,-3.5488207,3.4563012
alexnet_w1_mlp_simclrhn_probe0,1,255,NaN,oven,clock,8-10-10,0255_eid_dnn_8-10-10_clock_10_n04548280_1.png,n04548280_1.png,0.0,-12.550239,-0.89530593,-8.241282
alexnet_w1_mlp_simclrhn_probe0,1,256,NaN,oven,cat,64-10-10,0256_eid_dnn_64-10-10_cat_10_n02123394_3062.png,n02123394_3062.png,0.0,-2.942299,0.38364065,-2.3517945
alexnet_w1_mlp_simclrhn_probe0,1,257,NaN,elephant,elephant,2-10-10,0257_eid_dnn_2-10-10_elephant_10_n02504013_466.png,n02504013_466.png,1.0,0.51173466,-4.8236747,3.7727041
alexnet_w1_mlp_simclrhn_probe0,1,258,NaN,elephant,elephant,1-10-10,0258_eid_dnn_1-10-10_elephant_10_n02504013_6275.png,n02504013_6275.png,1.0,-1.1171088,-4.826891,2.623212
alexnet_w1_mlp_simclrhn_probe0,1,259,NaN,bird,bird,4-10-10,0259_eid_dnn_4-10-10_bird_10_n01560419_5466.png,n01560419_5466.png,1.0,-4.4502273,-4.498645,0.03423639
alexnet_w1_mlp_simclrhn_probe0,1,260,NaN,dog,truck,8-10-10,0260_eid_dnn_8-10-10_truck_10_n03796401_5227.png,n03796401_5227.png,0.0,-10.621703,-5.1206994,-3.8897972
alexnet_w1_mlp_simclrhn_probe0,1,261,NaN,chair,chair,2-10-10,0261_eid_dnn_2-10-10_chair_10_n04099969_25124.png,n04099969_25124.png,1.0,-0.22121215,-1.211834,0.7004754
alexnet_w1_mlp_simclrhn_probe0,1,262,NaN,elephant,elephant,64-10-10,0262_eid_dnn_64-10-10_elephant_10_n02504013_7209.png,n02504013_7209.png,1.0,-0.55929554,-1.6662426,0.7827298
alexnet_w1_mlp_simclrhn_probe0,1,263,NaN,cat,cat,1-10-10,0263_eid_dnn_1-10-10_cat_10_n02123597_4756.png,n02123597_4756.png,1.0,-2.9960756,-2.999106,0.0021427458
alexnet_w1_mlp_simclrhn_probe0,1,264,NaN,bicycle,bicycle,16-10-10,0264_eid_dnn_16-10-10_bicycle_10_n02835271_4654.png,n02835271_4654.png,1.0,-5.930245,-7.2423625,0.9278073
alexnet_w1_mlp_simclrhn_probe0,1,265,NaN,keyboard,keyboard,1-10-10,0265_eid_dnn_1-10-10_keyboard_10_n04505470_2389.png,n04505470_2389.png,1.0,3.0933335,-4.0726514,5.0671167
alexnet_w1_mlp_simclrhn_probe0,1,266,NaN,oven,knife,128-10-10,0266_eid_dnn_128-10-10_knife_10_n03041632_379.png,n03041632_379.png,0.0,-3.1683965,-0.18284154,-2.1111062
alexnet_w1_mlp_simclrhn_probe0,1,267,NaN,bird,clock,8-10-10,0267_eid_dnn_8-10-10_clock_10_n02708093_899.png,n02708093_899.png,0.0,-6.786674,-3.149553,-2.571833
alexnet_w1_mlp_simclrhn_probe0,1,268,NaN,oven,truck,128-10-10,0268_eid_dnn_128-10-10_truck_10_n03417042_10154.png,n03417042_10154.png,0.0,-11.584148,-0.51814663,-7.8248453
alexnet_w1_mlp_simclrhn_probe0,1,269,NaN,cat,bottle,2-10-10,0269_eid_dnn_2-10-10_bottle_10_n04579145_3415.png,n04579145_3415.png,0.0,-3.8632967,-3.8139184,-0.034915797
alexnet_w1_mlp_simclrhn_probe0,1,270,NaN,bear,chair,16-10-10,0270_eid_dnn_16-10-10_chair_10_n02791124_146.png,n02791124_146.png,0.0,-9.536071,0.043471515,-6.7737594
alexnet_w1_mlp_simclrhn_probe0,1,271,NaN,oven,elephant,128-10-10,0271_eid_dnn_128-10-10_elephant_10_n02504458_2835.png,n02504458_2835.png,0.0,-2.062215,-1.6862686,-0.26583433
alexnet_w1_mlp_simclrhn_probe0,1,272,NaN,bicycle,bicycle,1-10-10,0272_eid_dnn_1-10-10_bicycle_10_n03792782_13835.png,n03792782_13835.png,1.0,-0.052751005,-1.9793961,1.3623438
alexnet_w1_mlp_simclrhn_probe0,1,273,NaN,bear,bicycle,32-10-10,0273_eid_dnn_32-10-10_bicycle_10_n02835271_12926.png,n02835271_12926.png,0.0,-7.201542,0.24176791,-5.263215
alexnet_w1_mlp_simclrhn_probe0,1,274,NaN,dog,dog,2-10-10,0274_eid_dnn_2-10-10_dog_10_n02110185_11605.png,n02110185_11605.png,1.0,-2.1299078,-2.984993,0.6046365
alexnet_w1_mlp_simclrhn_probe0,1,275,NaN,bear,elephant,128-10-10,0275_eid_dnn_128-10-10_elephant_10_n02504458_3091.png,n02504458_3091.png,0.0,-0.66509897,0.38891464,-0.7453002
alexnet_w1_mlp_simclrhn_probe0,1,276,NaN,elephant,chair,128-10-10,0276_eid_dnn_128-10-10_chair_10_n04099969_5233.png,n04099969_5233.png,0.0,-8.5259285,-0.24575269,-5.854969
alexnet_w1_mlp_simclrhn_probe0,1,277,NaN,cat,dog,2-10-10,0277_eid_dnn_2-10-10_dog_10_n02097209_7628.png,n02097209_7628.png,0.0,-2.658707,-1.823291,-0.5907283
alexnet_w1_mlp_simclrhn_probe0,1,278,NaN,bear,cat,8-10-10,0278_eid_dnn_8-10-10_cat_10_n02123597_10941.png,n02123597_10941.png,0.0,-1.4391066,-0.10411179,-0.9439839
alexnet_w1_mlp_simclrhn_probe0,1,279,NaN,oven,clock,16-10-10,0279_eid_dnn_16-10-10_clock_10_n02708093_3006.png,n02708093_3006.png,0.0,-9.331837,-3.0806425,-4.420262
alexnet_w1_mlp_simclrhn_probe0,1,280,NaN,truck,truck,1-10-10,0280_eid_dnn_1-10-10_truck_10_n03796401_26620.png,n03796401_26620.png,1.0,-0.7263358,-1.4038831,0.4790983
alexnet_w1_mlp_simclrhn_probe0,1,281,NaN,oven,bear,128-10-10,0281_eid_dnn_128-10-10_bear_10_n02134418_12733.png,n02134418_12733.png,0.0,-1.411901,-1.3990297,-0.009101359
alexnet_w1_mlp_simclrhn_probe0,1,282,NaN,knife,knife,2-10-10,0282_eid_dnn_2-10-10_knife_10_n03041632_4806.png,n03041632_4806.png,1.0,-2.318694,-3.8530853,1.0849785
alexnet_w1_mlp_simclrhn_probe0,1,283,NaN,oven,oven,4-10-10,0283_eid_dnn_4-10-10_oven_10_n04111531_17922.png,n04111531_17922.png,1.0,-0.6108409,-6.7078667,4.3112483
alexnet_w1_mlp_simclrhn_probe0,1,284,NaN,bottle,bottle,1-10-10,0284_eid_dnn_1-10-10_bottle_10_n04579145_6818.png,n04579145_6818.png,1.0,0.7575194,-4.1195583,3.4486146
alexnet_w1_mlp_simclrhn_probe0,1,285,NaN,keyboard,keyboard,4-10-10,0285_eid_dnn_4-10-10_keyboard_10_n04505470_494.png,n04505470_494.png,1.0,2.109424,-0.5767478,1.8994105
alexnet_w1_mlp_simclrhn_probe0,1,286,NaN,cat,cat,8-10-10,0286_eid_dnn_8-10-10_cat_10_n02123045_10834.png,n02123045_10834.png,1.0,-1.051798,-2.5079427,1.0296499
alexnet_w1_mlp_simclrhn_probe0,1,287,NaN,oven,cat,128-10-10,0287_eid_dnn_128-10-10_cat_10_n02123394_176.png,n02123394_176.png,0.0,-0.81533784,0.70211554,-1.0730016
alexnet_w1_mlp_simclrhn_probe0,1,288,NaN,elephant,chair,128-10-10,0288_eid_dnn_128-10-10_chair_10_n03376595_2891.png,n03376595_2891.png,0.0,-11.374518,-1.9538077,-6.6614485
alexnet_w1_mlp_simclrhn_probe0,1,289,NaN,dog,dog,8-10-10,0289_eid_dnn_8-10-10_dog_10_n02093256_5647.png,n02093256_5647.png,1.0,-1.464215,-2.0403419,0.40738317
alexnet_w1_mlp_simclrhn_probe0,1,290,NaN,oven,knife,64-10-10,0290_eid_dnn_64-10-10_knife_10_n03041632_33326.png,n03041632_33326.png,0.0,-3.9107623,-0.7501507,-2.23489
alexnet_w1_mlp_simclrhn_probe0,1,291,NaN,oven,airplane,8-10-10,0291_eid_dnn_8-10-10_airplane_10_n02690373_2856.png,n02690373_2856.png,0.0,-3.13139,-1.3948383,-1.2279276
alexnet_w1_mlp_simclrhn_probe0,1,292,NaN,oven,bicycle,128-10-10,0292_eid_dnn_128-10-10_bicycle_10_n03792782_9651.png,n03792782_9651.png,0.0,-4.530616,-0.5377801,-2.8233614
alexnet_w1_mlp_simclrhn_probe0,1,293,NaN,bicycle,bicycle,2-10-10,0293_eid_dnn_2-10-10_bicycle_10_n02835271_7438.png,n02835271_7438.png,1.0,-1.5841868,-6.0120206,3.1309512
alexnet_w1_mlp_simclrhn_probe0,1,294,NaN,oven,bicycle,128-10-10,0294_eid_dnn_128-10-10_bicycle_10_n02835271_26639.png,n02835271_26639.png,0.0,-5.191362,-1.9293317,-2.3066037
alexnet_w1_mlp_simclrhn_probe0,1,295,NaN,keyboard,keyboard,8-10-10,0295_eid_dnn_8-10-10_keyboard_10_n04505470_4458.png,n04505470_4458.png,1.0,2.1974604,-1.6678171,2.733164
alexnet_w1_mlp_simclrhn_probe0,1,296,NaN,oven,dog,64-10-10,0296_eid_dnn_64-10-10_dog_10_n02106662_24847.png,n02106662_24847.png,0.0,-3.7492325,-0.8627918,-2.0410218
alexnet_w1_mlp_simclrhn_probe0,1,297,NaN,elephant,chair,32-10-10,0297_eid_dnn_32-10-10_chair_10_n03376595_8995.png,n03376595_8995.png,0.0,-9.774766,-0.9741189,-6.222997
alexnet_w1_mlp_simclrhn_probe0,1,298,NaN,oven,bicycle,64-10-10,0298_eid_dnn_64-10-10_bicycle_10_n03792782_6030.png,n03792782_6030.png,0.0,-3.969883,-1.3061528,-1.8835417
alexnet_w1_mlp_simclrhn_probe0,1,299,NaN,elephant,elephant,4-10-10,0299_eid_dnn_4-10-10_elephant_10_n02504458_7258.png,n02504458_7258.png,1.0,0.0054638833,-1.027853,0.7306654
alexnet_w1_mlp_simclrhn_probe0,1,300,NaN,elephant,boat,128-10-10,0300_eid_dnn_128-10-10_boat_10_n03662601_23903.png,n03662601_23903.png,0.0,-6.7325296,-2.815289,-2.7699075
alexnet_w1_mlp_simclrhn_probe0,1,301,NaN,oven,bird,16-10-10,0301_eid_dnn_16-10-10_bird_10_n02002724_578.png,n02002724_578.png,0.0,-5.269352,-0.6048945,-3.2982695
alexnet_w1_mlp_simclrhn_probe0,1,302,NaN,oven,chair,64-10-10,0302_eid_dnn_64-10-10_chair_10_n03376595_2393.png,n03376595_2393.png,0.0,-6.032655,-1.8968349,-2.9244664
alexnet_w1_mlp_simclrhn_probe0,1,303,NaN,airplane,boat,16-10-10,0303_eid_dnn_16-10-10_boat_10_n03662601_5118.png,n03662601_5118.png,0.0,-2.817967,-0.8995064,-1.3565565
alexnet_w1_mlp_simclrhn_probe0,1,304,NaN,elephant,chair,8-10-10,0304_eid_dnn_8-10-10_chair_10_n04429376_21845.png,n04429376_21845.png,0.0,-6.6126103,-2.6873627,-2.7755692
alexnet_w1_mlp_simclrhn_probe0,1,305,NaN,dog,dog,8-10-10,0305_eid_dnn_8-10-10_dog_10_n02102040_2216.png,n02102040_2216.png,1.0,-3.5038774,-3.5279007,0.016987035
alexnet_w1_mlp_simclrhn_probe0,1,306,NaN,airplane,airplane,8-10-10,0306_eid_dnn_8-10-10_airplane_10_n02690373_3032.png,n02690373_3032.png,1.0,-0.09639394,-1.9815878,1.3330333
alexnet_w1_mlp_simclrhn_probe0,1,307,NaN,dog,dog,8-10-10,0307_eid_dnn_8-10-10_dog_10_n02100735_2228.png,n02100735_2228.png,1.0,-2.5056338,-2.866905,0.25545728
alexnet_w1_mlp_simclrhn_probe0,1,308,NaN,bear,bird,8-10-10,0308_eid_dnn_8-10-10_bird_10_n01532829_13864.png,n01532829_13864.png,0.0,-3.9567325,-3.0806618,-0.61947554
alexnet_w1_mlp_simclrhn_probe0,1,309,NaN,oven,bird,64-10-10,0309_eid_dnn_64-10-10_bird_10_n01601694_13787.png,n01601694_13787.png,0.0,-4.4400487,-0.6830265,-2.656616
alexnet_w1_mlp_simclrhn_probe0,1,310,NaN,bear,bear,64-10-10,0310_eid_dnn_64-10-10_bear_10_n02134084_22150.png,n02134084_22150.png,1.0,-2.739273,-3.2318094,0.34827578
alexnet_w1_mlp_simclrhn_probe0,1,311,NaN,oven,knife,16-10-10,0311_eid_dnn_16-10-10_knife_10_n03041632_29427.png,n03041632_29427.png,0.0,-6.160385,-0.6431778,-3.9012547
alexnet_w1_mlp_simclrhn_probe0,1,312,NaN,bicycle,chair,4-10-10,0312_eid_dnn_4-10-10_chair_10_n02791124_2804.png,n02791124_2804.png,0.0,-4.5223994,-3.871511,-0.46024764
alexnet_w1_mlp_simclrhn_probe0,1,313,NaN,bottle,bottle,4-10-10,0313_eid_dnn_4-10-10_bottle_10_n04591713_5046.png,n04591713_5046.png,1.0,0.6308817,-1.7989862,1.7181761
alexnet_w1_mlp_simclrhn_probe0,1,314,NaN,elephant,bicycle,128-10-10,0314_eid_dnn_128-10-10_bicycle_10_n03792782_4210.png,n03792782_4210.png,0.0,-6.874735,-0.8577652,-4.25464
alexnet_w1_mlp_simclrhn_probe0,1,315,NaN,cat,cat,128-10-10,0315_eid_dnn_128-10-10_cat_10_n02123159_1596.png,n02123159_1596.png,1.0,-1.3243642,-1.7392592,0.2933751
alexnet_w1_mlp_simclrhn_probe0,1,316,NaN,car,car,2-10-10,0316_eid_dnn_2-10-10_car_10_n03100240_17588.png,n03100240_17588.png,1.0,1.9145397,1.7393976,0.12384413
alexnet_w1_mlp_simclrhn_probe0,1,317,NaN,dog,keyboard,4-10-10,0317_eid_dnn_4-10-10_keyboard_10_n03085013_23295.png,n03085013_23295.png,0.0,-11.313211,-3.8414745,-5.283316
alexnet_w1_mlp_simclrhn_probe0,1,318,NaN,oven,oven,32-10-10,0318_eid_dnn_32-10-10_oven_10_n04111531_4879.png,n04111531_4879.png,1.0,0.30450928,-1.3683145,1.182865
alexnet_w1_mlp_simclrhn_probe0,1,319,NaN,oven,keyboard,32-10-10,0319_eid_dnn_32-10-10_keyboard_10_n04505470_4569.png,n04505470_4569.png,0.0,-11.809351,-1.4082164,-7.354713
alexnet_w1_mlp_simclrhn_probe0,1,320,NaN,elephant,truck,8-10-10,0320_eid_dnn_8-10-10_truck_10_n04467665_24190.png,n04467665_24190.png,0.0,-8.520157,-3.8623648,-3.2935565
alexnet_w1_mlp_simclrhn_probe0,1,321,NaN,cat,cat,4-10-10,0321_eid_dnn_4-10-10_cat_10_n02124075_15405.png,n02124075_15405.png,1.0,-2.5525706,-2.6075215,0.038856193
alexnet_w1_mlp_simclrhn_probe0,1,322,NaN,dog,knife,8-10-10,0322_eid_dnn_8-10-10_knife_10_n03041632_24817.png,n03041632_24817.png,0.0,-5.7692375,-3.252782,-1.7794027
alexnet_w1_mlp_simclrhn_probe0,1,323,NaN,bear,elephant,64-10-10,0323_eid_dnn_64-10-10_elephant_10_n02504013_5505.png,n02504013_5505.png,0.0,-1.1885687,-0.44953206,-0.5225779
alexnet_w1_mlp_simclrhn_probe0,1,324,NaN,airplane,airplane,8-10-10,0324_eid_dnn_8-10-10_airplane_10_n02690373_8846.png,n02690373_8846.png,1.0,-0.28087634,-1.5532283,0.8996887
alexnet_w1_mlp_simclrhn_probe0,1,325,NaN,oven,truck,32-10-10,0325_eid_dnn_32-10-10_truck_10_n04467665_50806.png,n04467665_50806.png,0.0,-7.2948813,-1.8349009,-3.8607893
alexnet_w1_mlp_simclrhn_probe0,1,326,NaN,elephant,elephant,4-10-10,0326_eid_dnn_4-10-10_elephant_10_n02504458_5539.png,n02504458_5539.png,1.0,3.3555312,-1.6986054,3.5738144
alexnet_w1_mlp_simclrhn_probe0,1,327,NaN,airplane,boat,1-10-10,0327_eid_dnn_1-10-10_boat_10_n03344393_1178.png,n03344393_1178.png,0.0,0.5408473,0.85288393,-0.22064322
alexnet_w1_mlp_simclrhn_probe0,1,328,NaN,truck,truck,4-10-10,0328_eid_dnn_4-10-10_truck_10_n04467665_10025.png,n04467665_10025.png,1.0,1.5521815,-2.3202662,2.738234
alexnet_w1_mlp_simclrhn_probe0,1,329,NaN,clock,clock,4-10-10,0329_eid_dnn_4-10-10_clock_10_n02708093_2869.png,n02708093_2869.png,1.0,-2.9657507,-4.159263,0.84394073
alexnet_w1_mlp_simclrhn_probe0,1,330,NaN,knife,bottle,8-10-10,0330_eid_dnn_8-10-10_bottle_10_n03983396_4879.png,n03983396_4879.png,0.0,-5.8880424,-5.6363654,-0.17796254
alexnet_w1_mlp_simclrhn_probe0,1,331,NaN,oven,keyboard,128-10-10,0331_eid_dnn_128-10-10_keyboard_10_n03085013_10367.png,n03085013_10367.png,0.0,-6.1548834,-0.7495279,-3.8221636
alexnet_w1_mlp_simclrhn_probe0,1,332,NaN,oven,bird,64-10-10,0332_eid_dnn_64-10-10_bird_10_n01860187_21300.png,n01860187_21300.png,0.0,-5.0901566,-2.155748,-2.0749402
alexnet_w1_mlp_simclrhn_probe0,1,333,NaN,oven,knife,32-10-10,0333_eid_dnn_32-10-10_knife_10_n03041632_5302.png,n03041632_5302.png,0.0,-5.4253926,-2.5914552,-2.0038965
alexnet_w1_mlp_simclrhn_probe0,1,334,NaN,bear,bear,4-10-10,0334_eid_dnn_4-10-10_bear_10_n02134084_5274.png,n02134084_5274.png,1.0,2.4642825,-0.4012728,2.0262537
alexnet_w1_mlp_simclrhn_probe0,1,335,NaN,knife,knife,4-10-10,0335_eid_dnn_4-10-10_knife_10_n03041632_48816.png,n03041632_48816.png,1.0,-2.5217807,-3.0722373,0.38923153
alexnet_w1_mlp_simclrhn_probe0,1,336,NaN,oven,elephant,16-10-10,0336_eid_dnn_16-10-10_elephant_10_n02504013_3295.png,n02504013_3295.png,0.0,-2.930794,-1.4410963,-1.0533754
alexnet_w1_mlp_simclrhn_probe0,1,337,NaN,oven,truck,128-10-10,0337_eid_dnn_128-10-10_truck_10_n03417042_2478.png,n03417042_2478.png,0.0,-5.762595,-0.34649587,-3.8297608
alexnet_w1_mlp_simclrhn_probe0,1,338,NaN,oven,oven,32-10-10,0338_eid_dnn_32-10-10_oven_10_n04111531_5350.png,n04111531_5350.png,1.0,-0.34874663,-2.5777514,1.5761445
alexnet_w1_mlp_simclrhn_probe0,1,339,NaN,elephant,airplane,8-10-10,0339_eid_dnn_8-10-10_airplane_10_n02690373_1663.png,n02690373_1663.png,0.0,-4.411442,-3.946982,-0.32842276
alexnet_w1_mlp_simclrhn_probe0,1,340,NaN,boat,boat,4-10-10,0340_eid_dnn_4-10-10_boat_10_n03344393_1422.png,n03344393_1422.png,1.0,-1.7329369,-2.320224,0.41527477
alexnet_w1_mlp_simclrhn_probe0,1,341,NaN,oven,cat,32-10-10,0341_eid_dnn_32-10-10_cat_10_n02123159_3312.png,n02123159_3312.png,0.0,-2.8417075,-2.5871587,-0.17999318
alexnet_w1_mlp_simclrhn_probe0,1,342,NaN,oven,chair,64-10-10,0342_eid_dnn_64-10-10_chair_10_n03376595_6171.png,n03376595_6171.png,0.0,-11.272906,-0.6106518,-7.5393524
alexnet_w1_mlp_simclrhn_probe0,1,343,NaN,bottle,bottle,8-10-10,0343_eid_dnn_8-10-10_bottle_10_n04591713_1616.png,n04591713_1616.png,1.0,-4.6960206,-4.848398,0.10774724
alexnet_w1_mlp_simclrhn_probe0,1,344,NaN,oven,bear,128-10-10,0344_eid_dnn_128-10-10_bear_10_n02133161_1197.png,n02133161_1197.png,0.0,-2.8935876,-2.453053,-0.311505
alexnet_w1_mlp_simclrhn_probe0,1,345,NaN,oven,truck,4-10-10,0345_eid_dnn_4-10-10_truck_10_n04467665_663.png,n04467665_663.png,0.0,-7.045005,-0.515763,-4.6168714
alexnet_w1_mlp_simclrhn_probe0,1,346,NaN,bear,bear,4-10-10,0346_eid_dnn_4-10-10_bear_10_n02132136_2771.png,n02132136_2771.png,1.0,-2.093299,-3.7471294,1.1694348
alexnet_w1_mlp_simclrhn_probe0,1,347,NaN,cat,cat,16-10-10,0347_eid_dnn_16-10-10_cat_10_n02123394_12.png,n02123394_12.png,1.0,-3.527273,-3.6758509,0.105060466
alexnet_w1_mlp_simclrhn_probe0,1,348,NaN,dog,car,8-10-10,0348_eid_dnn_8-10-10_car_10_n04285008_1795.png,n04285008_1795.png,0.0,-8.557267,-5.6236067,-2.0744114
alexnet_w1_mlp_simclrhn_probe0,1,349,NaN,bear,boat,4-10-10,0349_eid_dnn_4-10-10_boat_10_n04273569_1023.png,n04273569_1023.png,0.0,-3.633622,-2.4725304,-0.8210157
alexnet_w1_mlp_simclrhn_probe0,1,350,NaN,boat,boat,1-10-10,0350_eid_dnn_1-10-10_boat_10_n03662601_21775.png,n03662601_21775.png,1.0,4.38186,-1.6942979,4.296492
alexnet_w1_mlp_simclrhn_probe0,1,351,NaN,bottle,clock,1-10-10,0351_eid_dnn_1-10-10_clock_10_n03196217_71.png,n03196217_71.png,0.0,-2.7198849,-2.2542377,-0.32926232
alexnet_w1_mlp_simclrhn_probe0,1,352,NaN,car,keyboard,4-10-10,0352_eid_dnn_4-10-10_keyboard_10_n04505470_3122.png,n04505470_3122.png,0.0,-2.203156,-1.9013656,-0.21339801
alexnet_w1_mlp_simclrhn_probe0,1,353,NaN,oven,dog,32-10-10,0353_eid_dnn_32-10-10_dog_10_n02099849_4640.png,n02099849_4640.png,0.0,-2.616077,-0.04161188,-1.8204217
alexnet_w1_mlp_simclrhn_probe0,1,354,NaN,oven,bottle,64-10-10,0354_eid_dnn_64-10-10_bottle_10_n02823428_6418.png,n02823428_6418.png,0.0,-5.786262,0.8153094,-4.668016
alexnet_w1_mlp_simclrhn_probe0,1,355,NaN,oven,car,8-10-10,0355_eid_dnn_8-10-10_car_10_n04285008_11704.png,n04285008_11704.png,0.0,-6.1957574,-3.1188264,-2.1757188
alexnet_w1_mlp_simclrhn_probe0,1,356,NaN,knife,clock,32-10-10,0356_eid_dnn_32-10-10_clock_10_n02708093_3544.png,n02708093_3544.png,0.0,-2.3741746,-1.8557657,-0.36657044
alexnet_w1_mlp_simclrhn_probe0,1,357,NaN,cat,clock,8-10-10,0357_eid_dnn_8-10-10_clock_10_n04548280_4599.png,n04548280_4599.png,0.0,-8.804819,-5.3619633,-2.4344668
alexnet_w1_mlp_simclrhn_probe0,1,358,NaN,oven,car,128-10-10,0358_eid_dnn_128-10-10_car_10_n03100240_6259.png,n03100240_6259.png,0.0,-12.909988,1.6320606,-10.282782
alexnet_w1_mlp_simclrhn_probe0,1,359,NaN,boat,boat,8-10-10,0359_eid_dnn_8-10-10_boat_10_n04273569_3401.png,n04273569_3401.png,1.0,-0.34342608,-1.6886559,0.9512211
alexnet_w1_mlp_simclrhn_probe0,1,360,NaN,elephant,truck,64-10-10,0360_eid_dnn_64-10-10_truck_10_n04467665_13898.png,n04467665_13898.png,0.0,-6.474989,-2.5803752,-2.753908
alexnet_w1_mlp_simclrhn_probe0,1,361,NaN,truck,clock,2-10-10,0361_eid_dnn_2-10-10_clock_10_n03196217_1499.png,n03196217_1499.png,0.0,-2.388739,-1.6033392,-0.5553616
alexnet_w1_mlp_simclrhn_probe0,1,362,NaN,car,car,4-10-10,0362_eid_dnn_4-10-10_car_10_n03100240_8702.png,n03100240_8702.png,1.0,-4.3273606,-5.6245117,0.91722435
alexnet_w1_mlp_simclrhn_probe0,1,363,NaN,bear,bear,4-10-10,0363_eid_dnn_4-10-10_bear_10_n02134418_1770.png,n02134418_1770.png,1.0,-0.7528164,-1.8441544,0.77169245
alexnet_w1_mlp_simclrhn_probe0,1,364,NaN,bear,bear,16-10-10,0364_eid_dnn_16-10-10_bear_10_n02132136_32838.png,n02132136_32838.png,1.0,0.7688913,-1.4843918,1.5933118
alexnet_w1_mlp_simclrhn_probe0,1,365,NaN,airplane,truck,4-10-10,0365_eid_dnn_4-10-10_truck_10_n04467665_68331.png,n04467665_68331.png,0.0,-4.297835,-2.2451484,-1.4514686
alexnet_w1_mlp_simclrhn_probe0,1,366,NaN,airplane,airplane,1-10-10,0366_eid_dnn_1-10-10_airplane_10_n02690373_4506.png,n02690373_4506.png,1.0,6.534691,-1.393211,5.605873
alexnet_w1_mlp_simclrhn_probe0,1,367,NaN,car,car,2-10-10,0367_eid_dnn_2-10-10_car_10_n03100240_5308.png,n03100240_5308.png,1.0,1.0624045,-1.8359396,2.0494387
alexnet_w1_mlp_simclrhn_probe0,1,368,NaN,oven,cat,2-10-10,0368_eid_dnn_2-10-10_cat_10_n02124075_15345.png,n02124075_15345.png,0.0,-6.236482,-0.41264623,-4.118074
alexnet_w1_mlp_simclrhn_probe0,1,369,NaN,oven,bicycle,128-10-10,0369_eid_dnn_128-10-10_bicycle_10_n03792782_50972.png,n03792782_50972.png,0.0,-4.047246,-0.59162974,-2.4434898
alexnet_w1_mlp_simclrhn_probe0,1,370,NaN,cat,knife,8-10-10,0370_eid_dnn_8-10-10_knife_10_n03041632_19098.png,n03041632_19098.png,0.0,-4.6683817,-3.674846,-0.70253587
alexnet_w1_mlp_simclrhn_probe0,1,371,NaN,oven,bottle,128-10-10,0371_eid_dnn_128-10-10_bottle_10_n04560804_15963.png,n04560804_15963.png,0.0,-7.2688603,-0.7170185,-4.6328516
alexnet_w1_mlp_simclrhn_probe0,1,372,NaN,oven,bottle,8-10-10,0372_eid_dnn_8-10-10_bottle_10_n04557648_7809.png,n04557648_7809.png,0.0,-5.8347626,-1.6467459,-2.9613752
alexnet_w1_mlp_simclrhn_probe0,1,373,NaN,airplane,airplane,1-10-10,0373_eid_dnn_1-10-10_airplane_10_n02690373_17764.png,n02690373_17764.png,1.0,5.3392415,-2.2382495,5.358095
alexnet_w1_mlp_simclrhn_probe0,1,374,NaN,oven,elephant,64-10-10,0374_eid_dnn_64-10-10_elephant_10_n02504013_7322.png,n02504013_7322.png,0.0,-5.7262907,-0.15760946,-3.9376523
alexnet_w1_mlp_simclrhn_probe0,1,375,NaN,elephant,bear,2-10-10,0375_eid_dnn_2-10-10_bear_10_n02134084_2959.png,n02134084_2959.png,0.0,-0.70255685,-0.68138576,-0.014970223
alexnet_w1_mlp_simclrhn_probe0,1,376,NaN,elephant,bird,2-10-10,0376_eid_dnn_2-10-10_bird_10_n01622779_6563.png,n01622779_6563.png,0.0,-4.22835,-4.078674,-0.105837144
alexnet_w1_mlp_simclrhn_probe0,1,377,NaN,oven,knife,16-10-10,0377_eid_dnn_16-10-10_knife_10_n03041632_19620.png,n03041632_19620.png,0.0,-3.0797822,-2.9869094,-0.06567103
alexnet_w1_mlp_simclrhn_probe0,1,378,NaN,bird,bird,4-10-10,0378_eid_dnn_4-10-10_bird_10_n01530575_35977.png,n01530575_35977.png,1.0,-1.0779413,-2.7676418,1.1947987
alexnet_w1_mlp_simclrhn_probe0,1,379,NaN,oven,cat,128-10-10,0379_eid_dnn_128-10-10_cat_10_n02123394_1757.png,n02123394_1757.png,0.0,-2.2578745,-0.25092542,-1.4191272
alexnet_w1_mlp_simclrhn_probe0,1,380,NaN,oven,dog,2-10-10,0380_eid_dnn_2-10-10_dog_10_n02093647_6358.png,n02093647_6358.png,0.0,-6.141183,-2.889572,-2.2992363
alexnet_w1_mlp_simclrhn_probe0,1,381,NaN,bicycle,boat,1-10-10,0381_eid_dnn_1-10-10_boat_10_n02951358_1470.png,n02951358_1470.png,0.0,-3.9507668,-3.3763795,-0.40615317
alexnet_w1_mlp_simclrhn_probe0,1,382,NaN,bear,elephant,128-10-10,0382_eid_dnn_128-10-10_elephant_10_n02504458_2026.png,n02504458_2026.png,0.0,-0.7893987,-0.3881333,-0.2837375
alexnet_w1_mlp_simclrhn_probe0,1,383,NaN,bear,elephant,32-10-10,0383_eid_dnn_32-10-10_elephant_10_n02504458_3730.png,n02504458_3730.png,0.0,-0.9198221,-0.8271677,-0.06551656
alexnet_w1_mlp_simclrhn_probe0,1,384,NaN,oven,keyboard,8-10-10,0384_eid_dnn_8-10-10_keyboard_10_n03085013_20881.png,n03085013_20881.png,0.0,-4.0370073,1.1804172,-3.6892762
alexnet_w1_mlp_simclrhn_probe0,1,385,NaN,dog,dog,4-10-10,0385_eid_dnn_4-10-10_dog_10_n02105641_8188.png,n02105641_8188.png,1.0,-1.2695595,-2.8298838,1.103316
alexnet_w1_mlp_simclrhn_probe0,1,386,NaN,oven,clock,32-10-10,0386_eid_dnn_32-10-10_clock_10_n03196217_6320.png,n03196217_6320.png,0.0,-12.060945,-4.9793196,-5.0074654
alexnet_w1_mlp_simclrhn_probe0,1,387,NaN,oven,car,32-10-10,0387_eid_dnn_32-10-10_car_10_n04285008_12333.png,n04285008_12333.png,0.0,-13.907382,-0.95168734,-9.161059
alexnet_w1_mlp_simclrhn_probe0,1,388,NaN,knife,knife,2-10-10,0388_eid_dnn_2-10-10_knife_10_n03041632_47743.png,n03041632_47743.png,1.0,-4.3166575,-6.7892227,1.7483677
alexnet_w1_mlp_simclrhn_probe0,1,389,NaN,boat,boat,8-10-10,0389_eid_dnn_8-10-10_boat_10_n04612504_8073.png,n04612504_8073.png,1.0,-0.48670298,-2.5645018,1.4692256
alexnet_w1_mlp_simclrhn_probe0,1,390,NaN,oven,knife,128-10-10,0390_eid_dnn_128-10-10_knife_10_n03041632_20770.png,n03041632_20770.png,0.0,-4.3000565,0.038774252,-3.0680168
alexnet_w1_mlp_simclrhn_probe0,1,391,NaN,oven,car,32-10-10,0391_eid_dnn_32-10-10_car_10_n02814533_28783.png,n02814533_28783.png,0.0,-10.470696,-0.8409172,-6.809282
alexnet_w1_mlp_simclrhn_probe0,1,392,NaN,elephant,car,128-10-10,0392_eid_dnn_128-10-10_car_10_n02814533_13533.png,n02814533_13533.png,0.0,-9.96248,-2.605269,-5.2023335
alexnet_w1_mlp_simclrhn_probe0,1,393,NaN,dog,dog,16-10-10,0393_eid_dnn_16-10-10_dog_10_n02104029_8137.png,n02104029_8137.png,1.0,-2.1415813,-3.0522099,0.64391166
alexnet_w1_mlp_simclrhn_probe0,1,394,NaN,bicycle,bicycle,4-10-10,0394_eid_dnn_4-10-10_bicycle_10_n02835271_3990.png,n02835271_3990.png,1.0,-0.5747816,-4.1897454,2.5561655
alexnet_w1_mlp_simclrhn_probe0,1,395,NaN,bear,bear,4-10-10,0395_eid_dnn_4-10-10_bear_10_n02132136_24311.png,n02132136_24311.png,1.0,0.9401473,-1.4847939,1.7146924
alexnet_w1_mlp_simclrhn_probe0,1,396,NaN,truck,truck,2-10-10,0396_eid_dnn_2-10-10_truck_10_n03796401_6966.png,n03796401_6966.png,1.0,2.9278374,-1.1421219,2.8778958
alexnet_w1_mlp_simclrhn_probe0,1,397,NaN,knife,knife,1-10-10,0397_eid_dnn_1-10-10_knife_10_n03041632_8468.png,n03041632_8468.png,1.0,-4.097444,-4.28645,0.13364732
alexnet_w1_mlp_simclrhn_probe0,1,398,NaN,oven,elephant,128-10-10,0398_eid_dnn_128-10-10_elephant_10_n02504458_6799.png,n02504458_6799.png,0.0,-1.3412285,-1.1127412,-0.16156489
alexnet_w1_mlp_simclrhn_probe0,1,399,NaN,bird,keyboard,16-10-10,0399_eid_dnn_16-10-10_keyboard_10_n03085013_24402.png,n03085013_24402.png,0.0,-12.694577,-4.9692707,-5.462617
alexnet_w1_mlp_simclrhn_probe0,1,400,NaN,bear,knife,16-10-10,0400_eid_dnn_16-10-10_knife_10_n03041632_25772.png,n03041632_25772.png,0.0,-4.768474,-1.2588371,-2.481688
alexnet_w1_mlp_simclrhn_probe0,1,401,NaN,bear,elephant,32-10-10,0401_eid_dnn_32-10-10_elephant_10_n02504458_5839.png,n02504458_5839.png,0.0,-1.7404046,-0.02572748,-1.2124598
alexnet_w1_mlp_simclrhn_probe0,1,402,NaN,bear,elephant,64-10-10,0402_eid_dnn_64-10-10_elephant_10_n02504458_5178.png,n02504458_5178.png,0.0,-2.3284192,-1.9254916,-0.28491288
alexnet_w1_mlp_simclrhn_probe0,1,403,NaN,oven,bicycle,32-10-10,0403_eid_dnn_32-10-10_bicycle_10_n02835271_27014.png,n02835271_27014.png,0.0,-9.575428,-1.396099,-5.783659
alexnet_w1_mlp_simclrhn_probe0,1,404,NaN,oven,car,128-10-10,0404_eid_dnn_128-10-10_car_10_n04285008_15218.png,n04285008_15218.png,0.0,-9.938174,-0.25288337,-6.848535
alexnet_w1_mlp_simclrhn_probe0,1,405,NaN,bicycle,bicycle,8-10-10,0405_eid_dnn_8-10-10_bicycle_10_n02835271_19955.png,n02835271_19955.png,1.0,-4.3661494,-5.0323873,0.47110128
alexnet_w1_mlp_simclrhn_probe0,1,406,NaN,truck,truck,1-10-10,0406_eid_dnn_1-10-10_truck_10_n03796401_874.png,n03796401_874.png,1.0,0.08949798,-2.4542806,1.7987232
alexnet_w1_mlp_simclrhn_probe0,1,407,NaN,elephant,dog,2-10-10,0407_eid_dnn_2-10-10_dog_10_n02108915_6092.png,n02108915_6092.png,0.0,-2.7007942,-2.5492342,-0.10716915
alexnet_w1_mlp_simclrhn_probe0,1,408,NaN,oven,clock,16-10-10,0408_eid_dnn_16-10-10_clock_10_n04548280_6337.png,n04548280_6337.png,0.0,-10.055881,-0.52405167,-6.7400208
alexnet_w1_mlp_simclrhn_probe0,1,409,NaN,elephant,boat,4-10-10,0409_eid_dnn_4-10-10_boat_10_n04273569_1388.png,n04273569_1388.png,0.0,-1.1430644,0.04093272,-0.83721244
alexnet_w1_mlp_simclrhn_probe0,1,410,NaN,oven,clock,64-10-10,0410_eid_dnn_64-10-10_clock_10_n02708093_2676.png,n02708093_2676.png,0.0,-12.881734,0.47139782,-9.44209
alexnet_w1_mlp_simclrhn_probe0,1,411,NaN,cat,dog,64-10-10,0411_eid_dnn_64-10-10_dog_10_n02107683_5424.png,n02107683_5424.png,0.0,-3.266986,-2.9992485,-0.18931893
alexnet_w1_mlp_simclrhn_probe0,1,412,NaN,chair,chair,1-10-10,0412_eid_dnn_1-10-10_chair_10_n04099969_29038.png,n04099969_29038.png,1.0,0.61733764,-3.2984197,2.7688587
alexnet_w1_mlp_simclrhn_probe0,1,413,NaN,oven,clock,16-10-10,0413_eid_dnn_16-10-10_clock_10_n04548280_3219.png,n04548280_3219.png,0.0,-10.375641,-0.4883796,-6.9913497
alexnet_w1_mlp_simclrhn_probe0,1,414,NaN,cat,clock,32-10-10,0414_eid_dnn_32-10-10_clock_10_n03196217_8282.png,n03196217_8282.png,0.0,-7.3103695,-2.7972221,-3.1912773
alexnet_w1_mlp_simclrhn_probe0,1,415,NaN,oven,oven,8-10-10,0415_eid_dnn_8-10-10_oven_10_n04111531_22041.png,n04111531_22041.png,1.0,-0.2291131,-3.5886123,2.3755248
alexnet_w1_mlp_simclrhn_probe0,1,416,NaN,bear,bear,8-10-10,0416_eid_dnn_8-10-10_bear_10_n02134084_6964.png,n02134084_6964.png,1.0,-0.27382433,-1.8368322,1.1052134
alexnet_w1_mlp_simclrhn_probe0,1,417,NaN,oven,bicycle,64-10-10,0417_eid_dnn_64-10-10_bicycle_10_n03792782_11921.png,n03792782_11921.png,0.0,-5.903336,-0.6039792,-3.7472112
alexnet_w1_mlp_simclrhn_probe0,1,418,NaN,airplane,clock,8-10-10,0418_eid_dnn_8-10-10_clock_10_n04548280_1809.png,n04548280_1809.png,0.0,-6.236192,-2.7358723,-2.4751
alexnet_w1_mlp_simclrhn_probe0,1,419,NaN,bird,bird,4-10-10,0419_eid_dnn_4-10-10_bird_10_n01833805_202.png,n01833805_202.png,1.0,-2.0442812,-4.9105096,2.0267296
alexnet_w1_mlp_simclrhn_probe0,1,420,NaN,oven,keyboard,64-10-10,0420_eid_dnn_64-10-10_keyboard_10_n03085013_7511.png,n03085013_7511.png,0.0,-10.477211,-1.614309,-6.267018
alexnet_w1_mlp_simclrhn_probe0,1,421,NaN,bicycle,bird,1-10-10,0421_eid_dnn_1-10-10_bird_10_n02025239_5287.png,n02025239_5287.png,0.0,-3.7743886,-1.9506352,-1.2895883
alexnet_w1_mlp_simclrhn_probe0,1,422,NaN,oven,boat,64-10-10,0422_eid_dnn_64-10-10_boat_10_n03662601_27960.png,n03662601_27960.png,0.0,-5.4259257,-1.8386049,-2.536619
alexnet_w1_mlp_simclrhn_probe0,1,423,NaN,dog,bottle,1-10-10,0423_eid_dnn_1-10-10_bottle_10_n04591713_6855.png,n04591713_6855.png,0.0,-8.928213,-4.2595534,-3.301241
alexnet_w1_mlp_simclrhn_probe0,1,424,NaN,bear,elephant,128-10-10,0424_eid_dnn_128-10-10_elephant_10_n02504013_4424.png,n02504013_4424.png,0.0,-0.95146376,-0.92070806,-0.021747563
alexnet_w1_mlp_simclrhn_probe0,1,425,NaN,clock,clock,2-10-10,0425_eid_dnn_2-10-10_clock_10_n04548280_3295.png,n04548280_3295.png,1.0,-1.5325025,-3.449412,1.3554598
alexnet_w1_mlp_simclrhn_probe0,1,426,NaN,airplane,airplane,1-10-10,0426_eid_dnn_1-10-10_airplane_10_n02690373_6144.png,n02690373_6144.png,1.0,2.7829492,-3.4142497,4.3820815
alexnet_w1_mlp_simclrhn_probe0,1,427,NaN,dog,truck,32-10-10,0427_eid_dnn_32-10-10_truck_10_n04467665_70894.png,n04467665_70894.png,0.0,-7.629627,-2.8135316,-3.4054937
alexnet_w1_mlp_simclrhn_probe0,1,428,NaN,knife,boat,128-10-10,0428_eid_dnn_128-10-10_boat_10_n02951358_30474.png,n02951358_30474.png,0.0,-4.9554915,-1.5076361,-2.438002
alexnet_w1_mlp_simclrhn_probe0,1,429,NaN,bear,bear,4-10-10,0429_eid_dnn_4-10-10_bear_10_n02132136_6434.png,n02132136_6434.png,1.0,3.4958677,0.8491142,1.8715374
alexnet_w1_mlp_simclrhn_probe0,1,430,NaN,oven,keyboard,32-10-10,0430_eid_dnn_32-10-10_keyboard_10_n04505470_5009.png,n04505470_5009.png,0.0,-8.696728,-2.9183986,-4.0858955
alexnet_w1_mlp_simclrhn_probe0,1,431,NaN,keyboard,keyboard,2-10-10,0431_eid_dnn_2-10-10_keyboard_10_n03085013_13005.png,n03085013_13005.png,1.0,2.8919754,-1.9251503,3.4062223
alexnet_w1_mlp_simclrhn_probe0,1,432,NaN,chair,chair,1-10-10,0432_eid_dnn_1-10-10_chair_10_n03376595_6865.png,n03376595_6865.png,1.0,-0.6350244,-3.813006,2.247172
alexnet_w1_mlp_simclrhn_probe0,1,433,NaN,bear,bicycle,32-10-10,0433_eid_dnn_32-10-10_bicycle_10_n02835271_6122.png,n02835271_6122.png,0.0,-7.1881294,-1.3865832,-4.1023126
alexnet_w1_mlp_simclrhn_probe0,1,434,NaN,oven,oven,4-10-10,0434_eid_dnn_4-10-10_oven_10_n04111531_11499.png,n04111531_11499.png,1.0,1.5539781,-1.0821344,1.8640131
alexnet_w1_mlp_simclrhn_probe0,1,435,NaN,bird,bird,1-10-10,0435_eid_dnn_1-10-10_bird_10_n02009229_5765.png,n02009229_5765.png,1.0,-2.0631585,-5.3632054,2.3334856
alexnet_w1_mlp_simclrhn_probe0,1,436,NaN,bear,bottle,32-10-10,0436_eid_dnn_32-10-10_bottle_10_n04560804_2181.png,n04560804_2181.png,0.0,-5.933427,-2.0344408,-2.7569995
alexnet_w1_mlp_simclrhn_probe0,1,437,NaN,bear,bicycle,32-10-10,0437_eid_dnn_32-10-10_bicycle_10_n03792782_3774.png,n03792782_3774.png,0.0,-6.5547338,-1.7559862,-3.393227
alexnet_w1_mlp_simclrhn_probe0,1,438,NaN,airplane,bird,16-10-10,0438_eid_dnn_16-10-10_bird_10_n01614925_1683.png,n01614925_1683.png,0.0,-3.0535157,-1.4244777,-1.1519039
alexnet_w1_mlp_simclrhn_probe0,1,439,NaN,bottle,clock,8-10-10,0439_eid_dnn_8-10-10_clock_10_n02708093_4692.png,n02708093_4692.png,0.0,-5.0202394,-3.8108711,-0.8551525
alexnet_w1_mlp_simclrhn_probe0,1,440,NaN,cat,dog,4-10-10,0440_eid_dnn_4-10-10_dog_10_n02109961_71298.png,n02109961_71298.png,0.0,-3.8069742,-3.0985594,-0.5009249
alexnet_w1_mlp_simclrhn_probe0,1,441,NaN,keyboard,keyboard,2-10-10,0441_eid_dnn_2-10-10_keyboard_10_n03085013_23269.png,n03085013_23269.png,1.0,-2.0129294,-3.6942058,1.1888419
alexnet_w1_mlp_simclrhn_probe0,1,442,NaN,elephant,elephant,2-10-10,0442_eid_dnn_2-10-10_elephant_10_n02504458_5614.png,n02504458_5614.png,1.0,-3.234922,-5.19491,1.3859209
alexnet_w1_mlp_simclrhn_probe0,1,443,NaN,airplane,car,2-10-10,0443_eid_dnn_2-10-10_car_10_n04285008_4640.png,n04285008_4640.png,0.0,-4.154785,0.39012533,-3.213737
alexnet_w1_mlp_simclrhn_probe0,1,444,NaN,oven,oven,128-10-10,0444_eid_dnn_128-10-10_oven_10_n04111531_6346.png,n04111531_6346.png,1.0,0.58195317,-0.93420386,1.0720849
alexnet_w1_mlp_simclrhn_probe0,1,445,NaN,chair,chair,2-10-10,0445_eid_dnn_2-10-10_chair_10_n04099969_14851.png,n04099969_14851.png,1.0,-1.4818857,-5.4883766,2.8330169
alexnet_w1_mlp_simclrhn_probe0,1,446,NaN,knife,bird,64-10-10,0446_eid_dnn_64-10-10_bird_10_n02051845_534.png,n02051845_534.png,0.0,-7.181484,-2.4727867,-3.329552
alexnet_w1_mlp_simclrhn_probe0,1,447,NaN,elephant,bird,128-10-10,0447_eid_dnn_128-10-10_bird_10_n02056570_9342.png,n02056570_9342.png,0.0,-6.398736,-0.87355477,-3.9068933
alexnet_w1_mlp_simclrhn_probe0,1,448,NaN,oven,oven,16-10-10,0448_eid_dnn_16-10-10_oven_10_n04111531_4900.png,n04111531_4900.png,1.0,2.8773675,-3.8280036,4.741413
alexnet_w1_mlp_simclrhn_probe0,1,449,NaN,oven,boat,32-10-10,0449_eid_dnn_32-10-10_boat_10_n02951358_31973.png,n02951358_31973.png,0.0,-8.617103,-1.5734212,-4.9806347
alexnet_w1_mlp_simclrhn_probe0,1,450,NaN,knife,keyboard,4-10-10,0450_eid_dnn_4-10-10_keyboard_10_n03085013_19842.png,n03085013_19842.png,0.0,-10.15373,-6.207434,-2.790453
alexnet_w1_mlp_simclrhn_probe0,1,451,NaN,knife,keyboard,8-10-10,0451_eid_dnn_8-10-10_keyboard_10_n03085013_8296.png,n03085013_8296.png,0.0,-4.0483007,-3.3488827,-0.49456328
alexnet_w1_mlp_simclrhn_probe0,1,452,NaN,oven,car,16-10-10,0452_eid_dnn_16-10-10_car_10_n03100240_3528.png,n03100240_3528.png,0.0,-7.382935,-3.3742614,-2.8345604
alexnet_w1_mlp_simclrhn_probe0,1,453,NaN,oven,cat,8-10-10,0453_eid_dnn_8-10-10_cat_10_n02123159_7210.png,n02123159_7210.png,0.0,-0.5984351,-0.35033047,-0.17543647
alexnet_w1_mlp_simclrhn_probe0,1,454,NaN,knife,knife,16-10-10,0454_eid_dnn_16-10-10_knife_10_n03041632_56172.png,n03041632_56172.png,1.0,-2.975901,-3.3764162,0.2832071
alexnet_w1_mlp_simclrhn_probe0,1,455,NaN,oven,oven,4-10-10,0455_eid_dnn_4-10-10_oven_10_n04111531_2116.png,n04111531_2116.png,1.0,2.8270123,-5.293288,5.7419195
alexnet_w1_mlp_simclrhn_probe0,1,456,NaN,oven,bicycle,8-10-10,0456_eid_dnn_8-10-10_bicycle_10_n02835271_12477.png,n02835271_12477.png,0.0,-5.140671,-3.5773873,-1.1054083
alexnet_w1_mlp_simclrhn_probe0,1,457,NaN,knife,knife,2-10-10,0457_eid_dnn_2-10-10_knife_10_n03041632_42472.png,n03041632_42472.png,1.0,2.072591,-1.1166904,2.2551625
alexnet_w1_mlp_simclrhn_probe0,1,458,NaN,oven,oven,2-10-10,0458_eid_dnn_2-10-10_oven_10_n04111531_8818.png,n04111531_8818.png,1.0,-1.5406797,-2.9566145,1.0012171
alexnet_w1_mlp_simclrhn_probe0,1,459,NaN,elephant,truck,2-10-10,0459_eid_dnn_2-10-10_truck_10_n04467665_67115.png,n04467665_67115.png,0.0,-2.7824006,-0.6524417,-1.5061084
alexnet_w1_mlp_simclrhn_probe0,1,460,NaN,bird,bird,4-10-10,0460_eid_dnn_4-10-10_bird_10_n02011460_3521.png,n02011460_3521.png,1.0,-3.768839,-6.9151974,2.2248116
alexnet_w1_mlp_simclrhn_probe0,1,461,NaN,bear,bear,64-10-10,0461_eid_dnn_64-10-10_bear_10_n02133161_3533.png,n02133161_3533.png,1.0,0.28202856,-2.7745876,2.161354
alexnet_w1_mlp_simclrhn_probe0,1,462,NaN,bear,bird,8-10-10,0462_eid_dnn_8-10-10_bird_10_n02013706_637.png,n02013706_637.png,0.0,-4.7406387,-3.7464926,-0.70296746
alexnet_w1_mlp_simclrhn_probe0,1,463,NaN,bear,bear,64-10-10,0463_eid_dnn_64-10-10_bear_10_n02132136_29636.png,n02132136_29636.png,1.0,0.076403745,-1.7093668,1.2627305
alexnet_w1_mlp_simclrhn_probe0,1,464,NaN,bicycle,bicycle,2-10-10,0464_eid_dnn_2-10-10_bicycle_10_n02835271_634.png,n02835271_634.png,1.0,-0.14301318,-4.0392637,2.7550652
alexnet_w1_mlp_simclrhn_probe0,1,465,NaN,keyboard,keyboard,1-10-10,0465_eid_dnn_1-10-10_keyboard_10_n04505470_4621.png,n04505470_4621.png,1.0,-2.555163,-3.9598718,0.99327916
alexnet_w1_mlp_simclrhn_probe0,1,466,NaN,bear,bear,16-10-10,0466_eid_dnn_16-10-10_bear_10_n02134084_2844.png,n02134084_2844.png,1.0,-2.1122706,-2.3236687,0.14948104
alexnet_w1_mlp_simclrhn_probe0,1,467,NaN,bicycle,bicycle,4-10-10,0467_eid_dnn_4-10-10_bicycle_10_n03792782_17088.png,n03792782_17088.png,1.0,-1.2161624,-4.800132,2.534249
alexnet_w1_mlp_simclrhn_probe0,1,468,NaN,airplane,clock,4-10-10,0468_eid_dnn_4-10-10_clock_10_n03196217_8706.png,n03196217_8706.png,0.0,-7.859821,-1.6533849,-4.388613
alexnet_w1_mlp_simclrhn_probe0,1,469,NaN,oven,oven,4-10-10,0469_eid_dnn_4-10-10_oven_10_n04111531_15052.png,n04111531_15052.png,1.0,1.3032665,-2.7522326,2.867671
alexnet_w1_mlp_simclrhn_probe0,1,470,NaN,oven,bottle,16-10-10,0470_eid_dnn_16-10-10_bottle_10_n04560804_5769.png,n04560804_5769.png,0.0,-7.1472964,-0.47781813,-4.7160335
alexnet_w1_mlp_simclrhn_probe0,1,471,NaN,bear,dog,128-10-10,0471_eid_dnn_128-10-10_dog_10_n02110063_14116.png,n02110063_14116.png,0.0,-2.5829601,-0.62504756,-1.3844533
alexnet_w1_mlp_simclrhn_probe0,1,472,NaN,cat,cat,32-10-10,0472_eid_dnn_32-10-10_cat_10_n02124075_3609.png,n02124075_3609.png,1.0,-1.2190174,-1.7363436,0.36580488
alexnet_w1_mlp_simclrhn_probe0,1,473,NaN,airplane,airplane,32-10-10,0473_eid_dnn_32-10-10_airplane_10_n02690373_10926.png,n02690373_10926.png,1.0,1.0420784,-1.8060704,2.0139453
alexnet_w1_mlp_simclrhn_probe0,1,474,NaN,oven,bird,16-10-10,0474_eid_dnn_16-10-10_bird_10_n02033041_7229.png,n02033041_7229.png,0.0,-4.0040126,-2.5456374,-1.031227
alexnet_w1_mlp_simclrhn_probe0,1,475,NaN,bird,bird,2-10-10,0475_eid_dnn_2-10-10_bird_10_n02006656_611.png,n02006656_611.png,1.0,-3.7293026,-3.9327195,0.14383742
alexnet_w1_mlp_simclrhn_probe0,1,476,NaN,bear,bear,16-10-10,0476_eid_dnn_16-10-10_bear_10_n02133161_958.png,n02133161_958.png,1.0,-1.2844863,-1.5155014,0.16335234
alexnet_w1_mlp_simclrhn_probe0,1,477,NaN,bird,bird,8-10-10,0477_eid_dnn_8-10-10_bird_10_n01843065_148.png,n01843065_148.png,1.0,-1.3190042,-3.315975,1.4120716
alexnet_w1_mlp_simclrhn_probe0,1,478,NaN,oven,cat,32-10-10,0478_eid_dnn_32-10-10_cat_10_n02123597_13623.png,n02123597_13623.png,0.0,-3.3273563,-0.2830847,-2.1526253
alexnet_w1_mlp_simclrhn_probe0,1,479,NaN,bicycle,bicycle,8-10-10,0479_eid_dnn_8-10-10_bicycle_10_n02835271_12957.png,n02835271_12957.png,1.0,-0.90477216,-3.596312,1.9032061
alexnet_w1_mlp_simclrhn_probe0,1,480,NaN,knife,knife,8-10-10,0480_eid_dnn_8-10-10_knife_10_n03041632_96714.png,n03041632_96714.png,1.0,-2.1143045,-3.6379848,1.0774046
alexnet_w1_mlp_simclrhn_probe0,1,481,NaN,elephant,bear,128-10-10,0481_eid_dnn_128-10-10_bear_10_n02133161_3550.png,n02133161_3550.png,0.0,-3.497199,-1.7107433,-1.263215
alexnet_w1_mlp_simclrhn_probe0,1,482,NaN,airplane,airplane,2-10-10,0482_eid_dnn_2-10-10_airplane_10_n02690373_4471.png,n02690373_4471.png,1.0,2.8551834,-2.0457027,3.4654498
alexnet_w1_mlp_simclrhn_probe0,1,483,NaN,oven,airplane,64-10-10,0483_eid_dnn_64-10-10_airplane_10_n02690373_2026.png,n02690373_2026.png,0.0,-4.485525,-2.5039203,-1.4012063
alexnet_w1_mlp_simclrhn_probe0,1,484,NaN,car,car,1-10-10,0484_eid_dnn_1-10-10_car_10_n03100240_18270.png,n03100240_18270.png,1.0,-1.1658152,-2.5238633,0.960285
alexnet_w1_mlp_simclrhn_probe0,1,485,NaN,elephant,elephant,128-10-10,0485_eid_dnn_128-10-10_elephant_10_n02504458_5204.png,n02504458_5204.png,1.0,-0.66316515,-0.74569273,0.058355812
alexnet_w1_mlp_simclrhn_probe0,1,486,NaN,oven,oven,1-10-10,0486_eid_dnn_1-10-10_oven_10_n04111531_10339.png,n04111531_10339.png,1.0,-1.6989553,-4.649455,2.0863185
alexnet_w1_mlp_simclrhn_probe0,1,487,NaN,elephant,elephant,2-10-10,0487_eid_dnn_2-10-10_elephant_10_n02504458_12705.png,n02504458_12705.png,1.0,2.7829204,-2.1041427,3.4556754
alexnet_w1_mlp_simclrhn_probe0,1,488,NaN,bottle,boat,1-10-10,0488_eid_dnn_1-10-10_boat_10_n03344393_9268.png,n03344393_9268.png,0.0,-3.1484642,-2.0655746,-0.7657186
alexnet_w1_mlp_simclrhn_probe0,1,489,NaN,cat,bicycle,16-10-10,0489_eid_dnn_16-10-10_bicycle_10_n02835271_23173.png,n02835271_23173.png,0.0,-7.715831,-5.4486976,-1.6031053
alexnet_w1_mlp_simclrhn_probe0,1,490,NaN,oven,knife,32-10-10,0490_eid_dnn_32-10-10_knife_10_n03041632_43975.png,n03041632_43975.png,0.0,-5.0043006,-1.5498638,-2.4426558
alexnet_w1_mlp_simclrhn_probe0,1,491,NaN,elephant,bicycle,128-10-10,0491_eid_dnn_128-10-10_bicycle_10_n03792782_3299.png,n03792782_3299.png,0.0,-2.726077,-1.4560094,-0.8980735
alexnet_w1_mlp_simclrhn_probe0,1,492,NaN,elephant,boat,32-10-10,0492_eid_dnn_32-10-10_boat_10_n04273569_5679.png,n04273569_5679.png,0.0,-6.8220887,-0.8960278,-4.1903577
alexnet_w1_mlp_simclrhn_probe0,1,493,NaN,oven,bird,32-10-10,0493_eid_dnn_32-10-10_bird_10_n02056570_10127.png,n02056570_10127.png,0.0,-6.4859104,-1.3144274,-3.6567907
alexnet_w1_mlp_simclrhn_probe0,1,494,NaN,bear,bear,32-10-10,0494_eid_dnn_32-10-10_bear_10_n02133161_7688.png,n02133161_7688.png,1.0,-1.8209406,-1.9625142,0.10010762
alexnet_w1_mlp_simclrhn_probe0,1,495,NaN,cat,cat,16-10-10,0495_eid_dnn_16-10-10_cat_10_n02123597_624.png,n02123597_624.png,1.0,-3.0546796,-3.704311,0.4593587
alexnet_w1_mlp_simclrhn_probe0,1,496,NaN,cat,bird,64-10-10,0496_eid_dnn_64-10-10_bird_10_n01560419_3399.png,n01560419_3399.png,0.0,-4.561227,-2.3952866,-1.5315511
alexnet_w1_mlp_simclrhn_probe0,1,497,NaN,oven,cat,32-10-10,0497_eid_dnn_32-10-10_cat_10_n02123045_12762.png,n02123045_12762.png,0.0,-3.240041,-2.2427077,-0.7052211
alexnet_w1_mlp_simclrhn_probe0,1,498,NaN,oven,car,16-10-10,0498_eid_dnn_16-10-10_car_10_n02814533_7247.png,n02814533_7247.png,0.0,-8.4216585,-3.8509667,-3.2319674
alexnet_w1_mlp_simclrhn_probe0,1,499,NaN,bottle,keyboard,4-10-10,0499_eid_dnn_4-10-10_keyboard_10_n03085013_4941.png,n03085013_4941.png,0.0,-4.7064285,-4.15355,-0.39094406
alexnet_w1_mlp_simclrhn_probe0,1,500,NaN,car,truck,4-10-10,0500_eid_dnn_4-10-10_truck_10_n03417042_6420.png,n03417042_6420.png,0.0,-5.505698,-4.4070916,-0.77683216
alexnet_w1_mlp_simclrhn_probe0,1,501,NaN,oven,boat,64-10-10,0501_eid_dnn_64-10-10_boat_10_n03662601_2120.png,n03662601_2120.png,0.0,-7.485574,-2.15137,-3.7718518
alexnet_w1_mlp_simclrhn_probe0,1,502,NaN,elephant,bear,2-10-10,0502_eid_dnn_2-10-10_bear_10_n02134084_7331.png,n02134084_7331.png,0.0,-0.001627475,0.7782444,-0.55145264
alexnet_w1_mlp_simclrhn_probe0,1,503,NaN,oven,bottle,32-10-10,0503_eid_dnn_32-10-10_bottle_10_n02823428_906.png,n02823428_906.png,0.0,-7.445028,-0.040153146,-5.2360373
alexnet_w1_mlp_simclrhn_probe0,1,504,NaN,cat,cat,16-10-10,0504_eid_dnn_16-10-10_cat_10_n02123394_270.png,n02123394_270.png,1.0,-2.0919383,-2.433536,0.24154612
alexnet_w1_mlp_simclrhn_probe0,1,505,NaN,oven,boat,2-10-10,0505_eid_dnn_2-10-10_boat_10_n02951358_1910.png,n02951358_1910.png,0.0,-5.930747,-0.9005112,-3.5569139
alexnet_w1_mlp_simclrhn_probe0,1,506,NaN,oven,knife,4-10-10,0506_eid_dnn_4-10-10_knife_10_n03041632_23678.png,n03041632_23678.png,0.0,-4.287071,-2.872226,-1.0004467
alexnet_w1_mlp_simclrhn_probe0,1,507,NaN,dog,car,16-10-10,0507_eid_dnn_16-10-10_car_10_n02814533_31083.png,n02814533_31083.png,0.0,-8.650396,-3.2389283,-3.8264859
alexnet_w1_mlp_simclrhn_probe0,1,508,NaN,keyboard,keyboard,1-10-10,0508_eid_dnn_1-10-10_keyboard_10_n04505470_2881.png,n04505470_2881.png,1.0,2.5317574,-2.7167566,3.71126
alexnet_w1_mlp_simclrhn_probe0,1,509,NaN,dog,cat,8-10-10,0509_eid_dnn_8-10-10_cat_10_n02125311_2923.png,n02125311_2923.png,0.0,-2.5762117,-1.1630466,-0.99925864
alexnet_w1_mlp_simclrhn_probe0,1,510,NaN,bicycle,bicycle,2-10-10,0510_eid_dnn_2-10-10_bicycle_10_n03792782_2598.png,n03792782_2598.png,1.0,-2.3884962,-4.8654127,1.7514446
alexnet_w1_mlp_simclrhn_probe0,1,511,NaN,car,car,2-10-10,0511_eid_dnn_2-10-10_car_10_n03100240_4460.png,n03100240_4460.png,1.0,1.7519549,-0.10790214,1.3151176
alexnet_w1_mlp_simclrhn_probe0,1,512,NaN,dog,knife,4-10-10,0512_eid_dnn_4-10-10_knife_10_n03041632_29920.png,n03041632_29920.png,0.0,-8.127128,-6.6394005,-1.0519819
alexnet_w1_mlp_simclrhn_probe0,1,513,NaN,bear,bird,32-10-10,0513_eid_dnn_32-10-10_bird_10_n01796340_3845.png,n01796340_3845.png,0.0,-4.3481164,-0.9411917,-2.4090595
alexnet_w1_mlp_simclrhn_probe0,1,514,NaN,oven,keyboard,8-10-10,0514_eid_dnn_8-10-10_keyboard_10_n03085013_21932.png,n03085013_21932.png,0.0,-2.0356157,-1.5945354,-0.3118909
alexnet_w1_mlp_simclrhn_probe0,1,515,NaN,bottle,bottle,1-10-10,0515_eid_dnn_1-10-10_bottle_10_n02823428_64.png,n02823428_64.png,1.0,0.7184086,-2.8454092,2.5199997
alexnet_w1_mlp_simclrhn_probe0,1,516,NaN,oven,chair,8-10-10,0516_eid_dnn_8-10-10_chair_10_n04099969_4374.png,n04099969_4374.png,0.0,-5.222316,-2.2725382,-2.0858078
alexnet_w1_mlp_simclrhn_probe0,1,517,NaN,clock,clock,1-10-10,0517_eid_dnn_1-10-10_clock_10_n02708093_8257.png,n02708093_8257.png,1.0,5.2261147,-3.1462555,5.9201593
alexnet_w1_mlp_simclrhn_probe0,1,518,NaN,airplane,knife,16-10-10,0518_eid_dnn_16-10-10_knife_10_n03041632_45569.png,n03041632_45569.png,0.0,-3.5966203,-3.1164274,-0.33954766
alexnet_w1_mlp_simclrhn_probe0,1,519,NaN,oven,chair,128-10-10,0519_eid_dnn_128-10-10_chair_10_n04099969_1850.png,n04099969_1850.png,0.0,-6.808985,-0.32960898,-4.581611
alexnet_w1_mlp_simclrhn_probe0,1,520,NaN,dog,dog,2-10-10,0520_eid_dnn_2-10-10_dog_10_n02092002_2008.png,n02092002_2008.png,1.0,0.6658481,-1.2945232,1.3861918
alexnet_w1_mlp_simclrhn_probe0,1,521,NaN,bicycle,bicycle,8-10-10,0521_eid_dnn_8-10-10_bicycle_10_n02835271_8105.png,n02835271_8105.png,1.0,-3.9420438,-5.7702904,1.2927656
alexnet_w1_mlp_simclrhn_probe0,1,522,NaN,oven,oven,64-10-10,0522_eid_dnn_64-10-10_oven_10_n04111531_14126.png,n04111531_14126.png,1.0,-1.6064817,-2.069152,0.3271574
alexnet_w1_mlp_simclrhn_probe0,1,523,NaN,cat,elephant,4-10-10,0523_eid_dnn_4-10-10_elephant_10_n02504013_13766.png,n02504013_13766.png,0.0,-3.2432384,-2.366685,-0.61981696
alexnet_w1_mlp_simclrhn_probe0,1,524,NaN,oven,bicycle,64-10-10,0524_eid_dnn_64-10-10_bicycle_10_n02835271_18361.png,n02835271_18361.png,0.0,-6.7388115,-1.2412261,-3.88738
alexnet_w1_mlp_simclrhn_probe0,1,525,NaN,oven,bird,8-10-10,0525_eid_dnn_8-10-10_bird_10_n01582220_4708.png,n01582220_4708.png,0.0,-2.4988859,-0.9105204,-1.123144
alexnet_w1_mlp_simclrhn_probe0,1,526,NaN,dog,chair,16-10-10,0526_eid_dnn_16-10-10_chair_10_n04099969_101.png,n04099969_101.png,0.0,-13.6873455,-3.2900815,-7.3519764
alexnet_w1_mlp_simclrhn_probe0,1,527,NaN,cat,cat,1-10-10,0527_eid_dnn_1-10-10_cat_10_n02124075_724.png,n02124075_724.png,1.0,-1.0912422,-5.906302,3.4047613
alexnet_w1_mlp_simclrhn_probe0,1,528,NaN,oven,bicycle,32-10-10,0528_eid_dnn_32-10-10_bicycle_10_n02835271_43.png,n02835271_43.png,0.0,-7.565831,-1.1785772,-4.5164704
alexnet_w1_mlp_simclrhn_probe0,1,529,NaN,bird,bird,2-10-10,0529_eid_dnn_2-10-10_bird_10_n02017213_5362.png,n02017213_5362.png,1.0,-2.3167477,-2.5251632,0.14737202
alexnet_w1_mlp_simclrhn_probe0,1,530,NaN,oven,dog,1-10-10,0530_eid_dnn_1-10-10_dog_10_n02088466_1769.png,n02088466_1769.png,0.0,-5.3341994,-4.599239,-0.5196956
alexnet_w1_mlp_simclrhn_probe0,1,531,NaN,elephant,bear,1-10-10,0531_eid_dnn_1-10-10_bear_10_n02133161_5653.png,n02133161_5653.png,0.0,0.07842353,1.0052084,-0.6553359
alexnet_w1_mlp_simclrhn_probe0,1,532,NaN,oven,dog,1-10-10,0532_eid_dnn_1-10-10_dog_10_n02098105_4676.png,n02098105_4676.png,0.0,-1.8122281,-1.1229382,-0.4874016
alexnet_w1_mlp_simclrhn_probe0,1,533,NaN,cat,cat,2-10-10,0533_eid_dnn_2-10-10_cat_10_n02123045_3593.png,n02123045_3593.png,1.0,-0.5390332,-3.6475701,2.1980677
alexnet_w1_mlp_simclrhn_probe0,1,534,NaN,knife,bottle,8-10-10,0534_eid_dnn_8-10-10_bottle_10_n04560804_265.png,n04560804_265.png,0.0,-6.4474053,-4.022579,-1.714611
alexnet_w1_mlp_simclrhn_probe0,1,535,NaN,oven,knife,128-10-10,0535_eid_dnn_128-10-10_knife_10_n03041632_1556.png,n03041632_1556.png,0.0,-2.571032,-0.47822055,-1.4798412
alexnet_w1_mlp_simclrhn_probe0,1,536,NaN,elephant,chair,4-10-10,0536_eid_dnn_4-10-10_chair_10_n02791124_9595.png,n02791124_9595.png,0.0,-4.7236853,-3.2232046,-1.0610001
alexnet_w1_mlp_simclrhn_probe0,1,537,NaN,bear,dog,32-10-10,0537_eid_dnn_32-10-10_dog_10_n02107312_2933.png,n02107312_2933.png,0.0,-2.3909857,-0.052273095,-1.6537197
alexnet_w1_mlp_simclrhn_probe0,1,538,NaN,oven,oven,32-10-10,0538_eid_dnn_32-10-10_oven_10_n04111531_101.png,n04111531_101.png,1.0,0.56205314,-3.6758175,2.996627
alexnet_w1_mlp_simclrhn_probe0,1,539,NaN,truck,truck,4-10-10,0539_eid_dnn_4-10-10_truck_10_n03417042_7204.png,n03417042_7204.png,1.0,-3.1162941,-3.794782,0.47976333
alexnet_w1_mlp_simclrhn_probe0,1,540,NaN,oven,bear,64-10-10,0540_eid_dnn_64-10-10_bear_10_n02132136_2120.png,n02132136_2120.png,0.0,-3.5402737,-3.4616492,-0.05559591
alexnet_w1_mlp_simclrhn_probe0,1,541,NaN,oven,airplane,64-10-10,0541_eid_dnn_64-10-10_airplane_10_n02690373_18412.png,n02690373_18412.png,0.0,-4.213929,-1.4754472,-1.9363992
alexnet_w1_mlp_simclrhn_probe0,1,542,NaN,elephant,knife,128-10-10,0542_eid_dnn_128-10-10_knife_10_n03041632_21017.png,n03041632_21017.png,0.0,-4.57481,-2.0360742,-1.7951574
alexnet_w1_mlp_simclrhn_probe0,1,543,NaN,oven,elephant,128-10-10,0543_eid_dnn_128-10-10_elephant_10_n02504458_8414.png,n02504458_8414.png,0.0,-2.5195456,-1.9940363,-0.37159115
alexnet_w1_mlp_simclrhn_probe0,1,544,NaN,oven,bottle,128-10-10,0544_eid_dnn_128-10-10_bottle_10_n04557648_11046.png,n04557648_11046.png,0.0,-5.2120614,-0.74008054,-3.1621683
alexnet_w1_mlp_simclrhn_probe0,1,545,NaN,oven,clock,64-10-10,0545_eid_dnn_64-10-10_clock_10_n03196217_10578.png,n03196217_10578.png,0.0,-11.009892,-0.44542497,-7.4702067
alexnet_w1_mlp_simclrhn_probe0,1,546,NaN,bear,bear,2-10-10,0546_eid_dnn_2-10-10_bear_10_n02134418_3213.png,n02134418_3213.png,1.0,-1.7465137,-2.4975991,0.5310976
alexnet_w1_mlp_simclrhn_probe0,1,547,NaN,bear,clock,64-10-10,0547_eid_dnn_64-10-10_clock_10_n03196217_6289.png,n03196217_6289.png,0.0,-8.608142,-4.7386417,-2.7361498
alexnet_w1_mlp_simclrhn_probe0,1,548,NaN,bear,dog,32-10-10,0548_eid_dnn_32-10-10_dog_10_n02096294_1498.png,n02096294_1498.png,0.0,-2.531668,-0.90099895,-1.1530571
alexnet_w1_mlp_simclrhn_probe0,1,549,NaN,bear,oven,16-10-10,0549_eid_dnn_16-10-10_oven_10_n04111531_519.png,n04111531_519.png,0.0,-2.050436,-1.9202294,-0.09206996
alexnet_w1_mlp_simclrhn_probe0,1,550,NaN,bird,bird,1-10-10,0550_eid_dnn_1-10-10_bird_10_n01531178_14959.png,n01531178_14959.png,1.0,-1.3784196,-3.4584956,1.4708358
alexnet_w1_mlp_simclrhn_probe0,1,551,NaN,bear,bear,32-10-10,0551_eid_dnn_32-10-10_bear_10_n02132136_8754.png,n02132136_8754.png,1.0,0.57797766,-1.4875233,1.4605298
alexnet_w1_mlp_simclrhn_probe0,1,552,NaN,car,car,1-10-10,0552_eid_dnn_1-10-10_car_10_n02814533_73067.png,n02814533_73067.png,1.0,3.602905,1.0299582,1.8193481
alexnet_w1_mlp_simclrhn_probe0,1,553,NaN,oven,cat,8-10-10,0553_eid_dnn_8-10-10_cat_10_n02124075_15378.png,n02124075_15378.png,0.0,-2.4878767,-2.1605945,-0.23142347
alexnet_w1_mlp_simclrhn_probe0,1,554,NaN,oven,bird,128-10-10,0554_eid_dnn_128-10-10_bird_10_n01592084_7569.png,n01592084_7569.png,0.0,-8.354064,-0.70643365,-5.4076915
alexnet_w1_mlp_simclrhn_probe0,1,555,NaN,bear,dog,128-10-10,0555_eid_dnn_128-10-10_dog_10_n02094114_3395.png,n02094114_3395.png,0.0,-2.8736312,-1.4662364,-0.99517846
alexnet_w1_mlp_simclrhn_probe0,1,556,NaN,chair,chair,4-10-10,0556_eid_dnn_4-10-10_chair_10_n03376595_1712.png,n03376595_1712.png,1.0,-3.611046,-3.9780202,0.2594899
alexnet_w1_mlp_simclrhn_probe0,1,557,NaN,oven,bear,64-10-10,0557_eid_dnn_64-10-10_bear_10_n02134084_622.png,n02134084_622.png,0.0,-1.7549987,0.28146654,-1.4399984
alexnet_w1_mlp_simclrhn_probe0,1,558,NaN,bottle,clock,8-10-10,0558_eid_dnn_8-10-10_clock_10_n03196217_4912.png,n03196217_4912.png,0.0,-4.396428,-1.7532562,-1.8690047
alexnet_w1_mlp_simclrhn_probe0,1,559,NaN,oven,car,64-10-10,0559_eid_dnn_64-10-10_car_10_n03100240_18815.png,n03100240_18815.png,0.0,-10.837594,0.41780984,-7.958772
alexnet_w1_mlp_simclrhn_probe0,1,560,NaN,bicycle,chair,2-10-10,0560_eid_dnn_2-10-10_chair_10_n04099969_2020.png,n04099969_2020.png,0.0,-1.8162935,-0.59171355,-0.8659088
alexnet_w1_mlp_simclrhn_probe0,1,561,NaN,bear,bear,1-10-10,0561_eid_dnn_1-10-10_bear_10_n02132136_7647.png,n02132136_7647.png,1.0,2.9928966,-1.6154493,3.2585928
alexnet_w1_mlp_simclrhn_probe0,1,562,NaN,oven,oven,128-10-10,0562_eid_dnn_128-10-10_oven_10_n04111531_2796.png,n04111531_2796.png,1.0,-2.0024757,-2.2928064,0.20529477
alexnet_w1_mlp_simclrhn_probe0,1,563,NaN,oven,truck,64-10-10,0563_eid_dnn_64-10-10_truck_10_n03796401_9472.png,n03796401_9472.png,0.0,-11.450326,0.003828168,-8.09931
alexnet_w1_mlp_simclrhn_probe0,1,564,NaN,chair,chair,4-10-10,0564_eid_dnn_4-10-10_chair_10_n03376595_12433.png,n03376595_12433.png,1.0,-4.796004,-5.071597,0.19487388
alexnet_w1_mlp_simclrhn_probe0,1,565,NaN,truck,truck,4-10-10,0565_eid_dnn_4-10-10_truck_10_n04467665_31539.png,n04467665_31539.png,1.0,-3.2223475,-4.27793,0.7464094
alexnet_w1_mlp_simclrhn_probe0,1,566,NaN,airplane,airplane,32-10-10,0566_eid_dnn_32-10-10_airplane_10_n02690373_10657.png,n02690373_10657.png,1.0,0.99270266,-3.914081,3.46962
alexnet_w1_mlp_simclrhn_probe0,1,567,NaN,oven,truck,16-10-10,0567_eid_dnn_16-10-10_truck_10_n03796401_5963.png,n03796401_5963.png,0.0,-11.02042,-3.805925,-5.1014185
alexnet_w1_mlp_simclrhn_probe0,1,568,NaN,bear,dog,64-10-10,0568_eid_dnn_64-10-10_dog_10_n02096294_2233.png,n02096294_2233.png,0.0,-2.9539666,-0.09341109,-2.0227184
alexnet_w1_mlp_simclrhn_probe0,1,569,NaN,elephant,airplane,128-10-10,0569_eid_dnn_128-10-10_airplane_10_n02690373_4873.png,n02690373_4873.png,0.0,-5.00648,-3.326838,-1.1876864
alexnet_w1_mlp_simclrhn_probe0,1,570,NaN,airplane,truck,1-10-10,0570_eid_dnn_1-10-10_truck_10_n04467665_4825.png,n04467665_4825.png,0.0,0.6707566,2.019274,-0.9535458
alexnet_w1_mlp_simclrhn_probe0,1,571,NaN,cat,chair,16-10-10,0571_eid_dnn_16-10-10_chair_10_n04099969_1704.png,n04099969_1704.png,0.0,-8.692545,-4.8070884,-2.7474327
alexnet_w1_mlp_simclrhn_probe0,1,572,NaN,bicycle,bicycle,2-10-10,0572_eid_dnn_2-10-10_bicycle_10_n02835271_1573.png,n02835271_1573.png,1.0,1.8657303,-3.165991,3.557964
alexnet_w1_mlp_simclrhn_probe0,1,573,NaN,oven,boat,2-10-10,0573_eid_dnn_2-10-10_boat_10_n04273569_12725.png,n04273569_12725.png,0.0,-5.6871414,-3.9784822,-1.2082045
alexnet_w1_mlp_simclrhn_probe0,1,574,NaN,knife,knife,128-10-10,0574_eid_dnn_128-10-10_knife_10_n03041632_11285.png,n03041632_11285.png,1.0,-2.9605668,-3.3700986,0.28958273
alexnet_w1_mlp_simclrhn_probe0,1,575,NaN,keyboard,clock,4-10-10,0575_eid_dnn_4-10-10_clock_10_n03196217_8254.png,n03196217_8254.png,0.0,-4.143433,-1.7604411,-1.6850299
alexnet_w1_mlp_simclrhn_probe0,1,576,NaN,dog,knife,16-10-10,0576_eid_dnn_16-10-10_knife_10_n03041632_15099.png,n03041632_15099.png,0.0,-7.040217,-4.1627784,-2.0346563
alexnet_w1_mlp_simclrhn_probe0,1,577,NaN,bear,cat,64-10-10,0577_eid_dnn_64-10-10_cat_10_n02125311_30452.png,n02125311_30452.png,0.0,-1.1725234,-0.3805141,-0.56003517
alexnet_w1_mlp_simclrhn_probe0,1,578,NaN,bear,bottle,32-10-10,0578_eid_dnn_32-10-10_bottle_10_n04591713_6804.png,n04591713_6804.png,0.0,-6.458469,-2.1059659,-3.0776844
alexnet_w1_mlp_simclrhn_probe0,1,579,NaN,oven,dog,64-10-10,0579_eid_dnn_64-10-10_dog_10_n02088364_14369.png,n02088364_14369.png,0.0,-2.255317,0.045092553,-1.6266352
alexnet_w1_mlp_simclrhn_probe0,1,580,NaN,oven,truck,32-10-10,0580_eid_dnn_32-10-10_truck_10_n03796401_16425.png,n03796401_16425.png,0.0,-11.133444,-1.9284508,-6.508913
alexnet_w1_mlp_simclrhn_probe0,1,581,NaN,oven,truck,64-10-10,0581_eid_dnn_64-10-10_truck_10_n03417042_5406.png,n03417042_5406.png,0.0,-10.85123,-0.9948162,-6.9695373
alexnet_w1_mlp_simclrhn_probe0,1,582,NaN,knife,knife,1-10-10,0582_eid_dnn_1-10-10_knife_10_n03041632_52929.png,n03041632_52929.png,1.0,-5.227009,-6.858051,1.1533209
alexnet_w1_mlp_simclrhn_probe0,1,583,NaN,oven,chair,64-10-10,0583_eid_dnn_64-10-10_chair_10_n03376595_4820.png,n03376595_4820.png,0.0,-5.544836,-2.2443478,-2.3337977
alexnet_w1_mlp_simclrhn_probe0,1,584,NaN,oven,chair,1-10-10,0584_eid_dnn_1-10-10_chair_10_n03376595_787.png,n03376595_787.png,0.0,-2.7039156,-2.6605628,-0.03065509
alexnet_w1_mlp_simclrhn_probe0,1,585,NaN,bicycle,chair,2-10-10,0585_eid_dnn_2-10-10_chair_10_n03376595_7709.png,n03376595_7709.png,0.0,-2.9005046,-2.4568377,-0.3137199
alexnet_w1_mlp_simclrhn_probe0,1,586,NaN,truck,bottle,1-10-10,0586_eid_dnn_1-10-10_bottle_10_n03983396_11006.png,n03983396_11006.png,0.0,-5.582809,-4.932806,-0.45962152
alexnet_w1_mlp_simclrhn_probe0,1,587,NaN,oven,oven,8-10-10,0587_eid_dnn_8-10-10_oven_10_n04111531_458.png,n04111531_458.png,1.0,-3.300422,-4.8521066,1.0972067
alexnet_w1_mlp_simclrhn_probe0,1,588,NaN,oven,cat,128-10-10,0588_eid_dnn_128-10-10_cat_10_n02123045_7829.png,n02123045_7829.png,0.0,-1.6038833,-0.06920791,-1.0851793
alexnet_w1_mlp_simclrhn_probe0,1,589,NaN,bear,bear,1-10-10,0589_eid_dnn_1-10-10_bear_10_n02134418_4685.png,n02134418_4685.png,1.0,0.4039889,-2.0712721,1.7502738
alexnet_w1_mlp_simclrhn_probe0,1,590,NaN,oven,knife,64-10-10,0590_eid_dnn_64-10-10_knife_10_n03041632_1964.png,n03041632_1964.png,0.0,-3.5796554,-3.097406,-0.3410019
alexnet_w1_mlp_simclrhn_probe0,1,591,NaN,oven,car,4-10-10,0591_eid_dnn_4-10-10_car_10_n03100240_17472.png,n03100240_17472.png,0.0,-3.580262,-3.398943,-0.1282119
alexnet_w1_mlp_simclrhn_probe0,1,592,NaN,oven,dog,16-10-10,0592_eid_dnn_16-10-10_dog_10_n02113023_1980.png,n02113023_1980.png,0.0,-3.9414558,-2.4034486,-1.0875354
alexnet_w1_mlp_simclrhn_probe0,1,593,NaN,cat,dog,32-10-10,0593_eid_dnn_32-10-10_dog_10_n02100735_6359.png,n02100735_6359.png,0.0,-2.3645916,-1.6094445,-0.53396964
alexnet_w1_mlp_simclrhn_probe0,1,594,NaN,bicycle,knife,1-10-10,0594_eid_dnn_1-10-10_knife_10_n03041632_31849.png,n03041632_31849.png,0.0,-4.7941008,-2.2198515,-1.8202691
alexnet_w1_mlp_simclrhn_probe0,1,595,NaN,oven,bird,8-10-10,0595_eid_dnn_8-10-10_bird_10_n01532829_23378.png,n01532829_23378.png,0.0,-5.6081357,-2.6489065,-2.0924911
alexnet_w1_mlp_simclrhn_probe0,1,596,NaN,oven,clock,64-10-10,0596_eid_dnn_64-10-10_clock_10_n02708093_5127.png,n02708093_5127.png,0.0,-11.698154,-0.35522103,-8.020665
