subj,session,trial,rt,object_response,category,condition,imagename,filename,is_correct,targ_act,max_nontarg_act,decision_margin
convnext_large,1,1,NaN,oven,oven,1-10-10,0001_eid_dnn_1-10-10_oven_10_n04111531_17072.png,n04111531_17072.png,1.0,8.973344,0.7086226,5.8440404
convnext_large,1,2,NaN,airplane,airplane,16-10-10,0002_eid_dnn_16-10-10_airplane_10_n02690373_4183.png,n02690373_4183.png,1.0,3.92662,2.0598457,1.3200088
convnext_large,1,3,NaN,airplane,car,8-10-10,0003_eid_dnn_8-10-10_car_10_n03100240_1137.png,n03100240_1137.png,0.0,0.5145571,1.0007507,-0.34379074
convnext_large,1,4,NaN,clock,clock,2-10-10,0004_eid_dnn_2-10-10_clock_10_n04548280_7083.png,n04548280_7083.png,1.0,3.349323,0.9700568,1.6823953
convnext_large,1,5,NaN,bottle,bottle,2-10-10,0005_eid_dnn_2-10-10_bottle_10_n02823428_7810.png,n02823428_7810.png,1.0,2.446047,0.49076563,1.3825928
convnext_large,1,6,NaN,cat,dog,128-10-10,0006_eid_dnn_128-10-10_dog_10_n02091244_8368.png,n02091244_8368.png,0.0,1.1017672,1.6860691,-0.41316387
convnext_large,1,7,NaN,bicycle,bicycle,1-10-10,0007_eid_dnn_1-10-10_bicycle_10_n02835271_2930.png,n02835271_2930.png,1.0,7.9910316,0.9674919,4.9663925
convnext_large,1,8,NaN,knife,knife,4-10-10,0008_eid_dnn_4-10-10_knife_10_n03041632_52848.png,n03041632_52848.png,1.0,2.7970467,0.60003716,1.5535204
convnext_large,1,9,NaN,bottle,bottle,2-10-10,0009_eid_dnn_2-10-10_bottle_10_n02823428_4097.png,n02823428_4097.png,1.0,4.174981,0.47235495,2.6181521
convnext_large,1,10,NaN,dog,dog,8-10-10,0010_eid_dnn_8-10-10_dog_10_n02105641_10264.png,n02105641_10264.png,1.0,0.47859648,0.20620136,0.19261245
convnext_large,1,11,NaN,boat,boat,8-10-10,0011_eid_dnn_8-10-10_boat_10_n03662601_10278.png,n03662601_10278.png,1.0,0.86864567,0.76567674,0.07281003
convnext_large,1,12,NaN,airplane,truck,32-10-10,0012_eid_dnn_32-10-10_truck_10_n04467665_76958.png,n04467665_76958.png,0.0,0.70957255,2.5836515,-1.325174
convnext_large,1,13,NaN,dog,dog,16-10-10,0013_eid_dnn_16-10-10_dog_10_n02088238_12552.png,n02088238_12552.png,1.0,1.4977416,1.0595022,0.30988201
convnext_large,1,14,NaN,bear,dog,8-10-10,0014_eid_dnn_8-10-10_dog_10_n02102040_994.png,n02102040_994.png,0.0,1.3606974,3.3747463,-1.4241477
convnext_large,1,15,NaN,cat,bear,128-10-10,0015_eid_dnn_128-10-10_bear_10_n02133161_1944.png,n02133161_1944.png,0.0,-0.03820183,0.94510746,-0.6953047
convnext_large,1,16,NaN,airplane,car,16-10-10,0016_eid_dnn_16-10-10_car_10_n02814533_43040.png,n02814533_43040.png,0.0,0.16319637,3.200285,-2.147546
convnext_large,1,17,NaN,cat,oven,128-10-10,0017_eid_dnn_128-10-10_oven_10_n04111531_18592.png,n04111531_18592.png,0.0,-1.5426674,1.1602072,-1.911221
convnext_large,1,18,NaN,cat,chair,16-10-10,0018_eid_dnn_16-10-10_chair_10_n02791124_4294.png,n02791124_4294.png,0.0,-0.4719277,1.3583021,-1.2941679
convnext_large,1,19,NaN,airplane,knife,32-10-10,0019_eid_dnn_32-10-10_knife_10_n03041632_2630.png,n03041632_2630.png,0.0,0.13058019,1.0264711,-0.63349056
convnext_large,1,20,NaN,elephant,elephant,1-10-10,0020_eid_dnn_1-10-10_elephant_10_n02504458_723.png,n02504458_723.png,1.0,6.8347416,0.6558262,4.369153
convnext_large,1,21,NaN,chair,chair,4-10-10,0021_eid_dnn_4-10-10_chair_10_n03376595_6107.png,n03376595_6107.png,1.0,1.9438976,1.7987688,0.10262159
convnext_large,1,22,NaN,knife,clock,32-10-10,0022_eid_dnn_32-10-10_clock_10_n03196217_1337.png,n03196217_1337.png,0.0,-0.1631653,1.4415065,-1.1346743
convnext_large,1,23,NaN,airplane,boat,128-10-10,0023_eid_dnn_128-10-10_boat_10_n02951358_9550.png,n02951358_9550.png,0.0,0.9363985,1.8332247,-0.6341519
convnext_large,1,24,NaN,airplane,bird,128-10-10,0024_eid_dnn_128-10-10_bird_10_n01616318_2334.png,n01616318_2334.png,0.0,-0.7263323,1.7580674,-1.7567359
convnext_large,1,25,NaN,airplane,bottle,32-10-10,0025_eid_dnn_32-10-10_bottle_10_n03937543_1658.png,n03937543_1658.png,0.0,0.98659104,1.3164763,-0.23326413
convnext_large,1,26,NaN,elephant,elephant,2-10-10,0026_eid_dnn_2-10-10_elephant_10_n02504013_6731.png,n02504013_6731.png,1.0,7.663061,0.2388256,5.2497272
convnext_large,1,27,NaN,keyboard,keyboard,4-10-10,0027_eid_dnn_4-10-10_keyboard_10_n04505470_4447.png,n04505470_4447.png,1.0,5.109014,0.5831398,3.2002764
convnext_large,1,28,NaN,airplane,airplane,1-10-10,0028_eid_dnn_1-10-10_airplane_10_n02690373_4839.png,n02690373_4839.png,1.0,8.209998,0.73213047,5.287651
convnext_large,1,29,NaN,airplane,keyboard,64-10-10,0029_eid_dnn_64-10-10_keyboard_10_n04505470_1651.png,n04505470_1651.png,0.0,0.56943697,2.1267858,-1.1012119
convnext_large,1,30,NaN,knife,keyboard,32-10-10,0030_eid_dnn_32-10-10_keyboard_10_n03085013_20601.png,n03085013_20601.png,0.0,0.41527385,0.69360524,-0.19681002
convnext_large,1,31,NaN,airplane,airplane,64-10-10,0031_eid_dnn_64-10-10_airplane_10_n02690373_2217.png,n02690373_2217.png,1.0,0.87272155,0.37697265,0.35054743
convnext_large,1,32,NaN,bicycle,bicycle,4-10-10,0032_eid_dnn_4-10-10_bicycle_10_n03792782_25019.png,n03792782_25019.png,1.0,4.2739906,0.73025477,2.5057998
convnext_large,1,33,NaN,cat,cat,8-10-10,0033_eid_dnn_8-10-10_cat_10_n02123597_13890.png,n02123597_13890.png,1.0,3.4805734,0.78904283,1.9031997
convnext_large,1,34,NaN,boat,boat,1-10-10,0034_eid_dnn_1-10-10_boat_10_n04612504_214.png,n04612504_214.png,1.0,2.3949573,0.54099107,1.3109521
convnext_large,1,35,NaN,bear,chair,128-10-10,0035_eid_dnn_128-10-10_chair_10_n02791124_2555.png,n02791124_2555.png,0.0,-0.3128028,0.5653243,-0.62092966
convnext_large,1,36,NaN,car,car,4-10-10,0036_eid_dnn_4-10-10_car_10_n04285008_2081.png,n04285008_2081.png,1.0,3.2731886,1.2054722,1.4620963
convnext_large,1,37,NaN,airplane,dog,32-10-10,0037_eid_dnn_32-10-10_dog_10_n02094114_8202.png,n02094114_8202.png,0.0,0.6471575,2.4775882,-1.29431
convnext_large,1,38,NaN,airplane,chair,64-10-10,0038_eid_dnn_64-10-10_chair_10_n04099969_4541.png,n04099969_4541.png,0.0,-0.20073092,3.5005596,-2.6172078
convnext_large,1,39,NaN,airplane,boat,128-10-10,0039_eid_dnn_128-10-10_boat_10_n04612504_12864.png,n04612504_12864.png,0.0,0.04176872,0.62506413,-0.41245213
convnext_large,1,40,NaN,airplane,airplane,4-10-10,0040_eid_dnn_4-10-10_airplane_10_n02690373_18460.png,n02690373_18460.png,1.0,7.895427,0.36801726,5.322683
convnext_large,1,41,NaN,dog,bottle,64-10-10,0041_eid_dnn_64-10-10_bottle_10_n03983396_8982.png,n03983396_8982.png,0.0,0.0020516089,0.8671566,-0.61172163
convnext_large,1,42,NaN,airplane,dog,16-10-10,0042_eid_dnn_16-10-10_dog_10_n02099601_10407.png,n02099601_10407.png,0.0,0.04404514,4.1957536,-2.9357014
convnext_large,1,43,NaN,airplane,airplane,32-10-10,0043_eid_dnn_32-10-10_airplane_10_n02690373_5253.png,n02690373_5253.png,1.0,2.9791436,1.5873476,0.9841484
convnext_large,1,44,NaN,elephant,elephant,2-10-10,0044_eid_dnn_2-10-10_elephant_10_n02504013_2832.png,n02504013_2832.png,1.0,5.9114513,0.5432572,3.7958865
convnext_large,1,45,NaN,clock,clock,1-10-10,0045_eid_dnn_1-10-10_clock_10_n02708093_8002.png,n02708093_8002.png,1.0,4.3321934,0.6123252,2.6303442
convnext_large,1,46,NaN,chair,chair,2-10-10,0046_eid_dnn_2-10-10_chair_10_n03376595_1766.png,n03376595_1766.png,1.0,3.6040978,0.31408978,2.3263872
convnext_large,1,47,NaN,truck,truck,2-10-10,0047_eid_dnn_2-10-10_truck_10_n03417042_17616.png,n03417042_17616.png,1.0,2.1220195,0.3680141,1.2402692
convnext_large,1,48,NaN,airplane,bear,16-10-10,0048_eid_dnn_16-10-10_bear_10_n02134418_2804.png,n02134418_2804.png,0.0,0.25262943,3.475566,-2.2789602
convnext_large,1,49,NaN,airplane,car,64-10-10,0049_eid_dnn_64-10-10_car_10_n04285008_12101.png,n04285008_12101.png,0.0,-0.1877789,1.9109793,-1.4840462
convnext_large,1,50,NaN,bear,bear,16-10-10,0050_eid_dnn_16-10-10_bear_10_n02134418_3828.png,n02134418_3828.png,1.0,1.3693593,1.1735232,0.13847701
convnext_large,1,51,NaN,airplane,bird,2-10-10,0051_eid_dnn_2-10-10_bird_10_n01530575_5747.png,n01530575_5747.png,0.0,0.42372957,0.5863199,-0.11496875
convnext_large,1,52,NaN,cat,truck,128-10-10,0052_eid_dnn_128-10-10_truck_10_n03796401_3386.png,n03796401_3386.png,0.0,-0.9422734,0.71102095,-1.1690557
convnext_large,1,53,NaN,keyboard,keyboard,16-10-10,0053_eid_dnn_16-10-10_keyboard_10_n04505470_3234.png,n04505470_3234.png,1.0,1.962017,1.3947845,0.40109402
convnext_large,1,54,NaN,airplane,truck,1-10-10,0054_eid_dnn_1-10-10_truck_10_n04467665_72639.png,n04467665_72639.png,0.0,2.3043928,3.0188813,-0.5052197
convnext_large,1,55,NaN,airplane,chair,32-10-10,0055_eid_dnn_32-10-10_chair_10_n04429376_27524.png,n04429376_27524.png,0.0,-0.062419113,1.3992782,-1.033576
convnext_large,1,56,NaN,airplane,bottle,64-10-10,0056_eid_dnn_64-10-10_bottle_10_n04557648_11440.png,n04557648_11440.png,0.0,-0.49222818,1.4393071,-1.3658017
convnext_large,1,57,NaN,airplane,keyboard,32-10-10,0057_eid_dnn_32-10-10_keyboard_10_n03085013_20216.png,n03085013_20216.png,0.0,0.33267945,2.2425342,-1.3504711
convnext_large,1,58,NaN,bicycle,boat,8-10-10,0058_eid_dnn_8-10-10_boat_10_n02951358_34653.png,n02951358_34653.png,0.0,0.55481136,1.4709587,-0.64781404
convnext_large,1,59,NaN,keyboard,keyboard,2-10-10,0059_eid_dnn_2-10-10_keyboard_10_n03085013_8932.png,n03085013_8932.png,1.0,7.469356,0.38996047,5.005889
convnext_large,1,60,NaN,cat,cat,1-10-10,0060_eid_dnn_1-10-10_cat_10_n02125311_35338.png,n02125311_35338.png,1.0,1.7011441,0.34311563,0.9602711
convnext_large,1,61,NaN,airplane,bicycle,16-10-10,0061_eid_dnn_16-10-10_bicycle_10_n03792782_5449.png,n03792782_5449.png,0.0,0.60112095,1.3238361,-0.5110368
convnext_large,1,62,NaN,bicycle,bicycle,4-10-10,0062_eid_dnn_4-10-10_bicycle_10_n03792782_9432.png,n03792782_9432.png,1.0,5.286319,0.5457113,3.3521156
convnext_large,1,63,NaN,bottle,bottle,1-10-10,0063_eid_dnn_1-10-10_bottle_10_n04591713_4291.png,n04591713_4291.png,1.0,3.0405622,0.91381913,1.5038345
convnext_large,1,64,NaN,truck,truck,4-10-10,0064_eid_dnn_4-10-10_truck_10_n04467665_67057.png,n04467665_67057.png,1.0,3.2517486,0.6516488,1.8385482
convnext_large,1,65,NaN,keyboard,keyboard,1-10-10,0065_eid_dnn_1-10-10_keyboard_10_n03085013_22790.png,n03085013_22790.png,1.0,7.978919,0.92308146,4.9892306
convnext_large,1,66,NaN,airplane,dog,4-10-10,0066_eid_dnn_4-10-10_dog_10_n02086079_2896.png,n02086079_2896.png,0.0,0.4412227,1.7280623,-0.90993303
convnext_large,1,67,NaN,airplane,knife,8-10-10,0067_eid_dnn_8-10-10_knife_10_n03041632_40508.png,n03041632_40508.png,0.0,0.1427424,2.5647392,-1.7126104
convnext_large,1,68,NaN,boat,boat,1-10-10,0068_eid_dnn_1-10-10_boat_10_n03344393_7942.png,n03344393_7942.png,1.0,2.034642,0.5352204,1.0602512
convnext_large,1,69,NaN,bear,bear,2-10-10,0069_eid_dnn_2-10-10_bear_10_n02134418_4352.png,n02134418_4352.png,1.0,2.5971923,0.54142916,1.4536442
convnext_large,1,70,NaN,dog,cat,16-10-10,0070_eid_dnn_16-10-10_cat_10_n02123045_5157.png,n02123045_5157.png,0.0,0.6097866,1.2320305,-0.43999287
convnext_large,1,71,NaN,dog,dog,16-10-10,0071_eid_dnn_16-10-10_dog_10_n02109047_14287.png,n02109047_14287.png,1.0,1.4708267,1.1724019,0.21101823
convnext_large,1,72,NaN,truck,truck,2-10-10,0072_eid_dnn_2-10-10_truck_10_n03417042_14274.png,n03417042_14274.png,1.0,1.6755842,0.84622324,0.58644676
convnext_large,1,73,NaN,airplane,airplane,2-10-10,0073_eid_dnn_2-10-10_airplane_10_n02690373_5885.png,n02690373_5885.png,1.0,8.378193,0.74492544,5.3975353
convnext_large,1,74,NaN,airplane,cat,32-10-10,0074_eid_dnn_32-10-10_cat_10_n02123394_571.png,n02123394_571.png,0.0,0.17466585,3.2728748,-2.1907647
convnext_large,1,75,NaN,airplane,cat,32-10-10,0075_eid_dnn_32-10-10_cat_10_n02123045_10171.png,n02123045_10171.png,0.0,0.33646247,0.98175406,-0.45629004
convnext_large,1,76,NaN,bottle,bottle,8-10-10,0076_eid_dnn_8-10-10_bottle_10_n04560804_4909.png,n04560804_4909.png,1.0,1.3529171,0.5188601,0.58976734
convnext_large,1,77,NaN,keyboard,keyboard,8-10-10,0077_eid_dnn_8-10-10_keyboard_10_n03085013_7971.png,n03085013_7971.png,1.0,3.221591,0.6689679,1.804977
convnext_large,1,78,NaN,airplane,keyboard,16-10-10,0078_eid_dnn_16-10-10_keyboard_10_n03085013_21397.png,n03085013_21397.png,0.0,0.34868765,2.3784952,-1.4352907
convnext_large,1,79,NaN,airplane,elephant,32-10-10,0079_eid_dnn_32-10-10_elephant_10_n02504458_4187.png,n02504458_4187.png,0.0,-0.63894516,2.3018255,-2.079439
convnext_large,1,80,NaN,elephant,clock,8-10-10,0080_eid_dnn_8-10-10_clock_10_n03196217_6689.png,n03196217_6689.png,0.0,-0.6170284,4.653115,-3.726554
convnext_large,1,81,NaN,knife,knife,4-10-10,0081_eid_dnn_4-10-10_knife_10_n03041632_26236.png,n03041632_26236.png,1.0,3.3937998,1.5103136,1.3318259
convnext_large,1,82,NaN,clock,car,8-10-10,0082_eid_dnn_8-10-10_car_10_n03100240_1262.png,n03100240_1262.png,0.0,0.7402239,1.189239,-0.31750166
convnext_large,1,83,NaN,airplane,keyboard,64-10-10,0083_eid_dnn_64-10-10_keyboard_10_n04505470_5059.png,n04505470_5059.png,0.0,-0.20731984,1.644103,-1.3091537
convnext_large,1,84,NaN,bird,bird,1-10-10,0084_eid_dnn_1-10-10_bird_10_n01537544_26417.png,n01537544_26417.png,1.0,0.9812343,0.4804061,0.35413903
convnext_large,1,85,NaN,airplane,bird,32-10-10,0085_eid_dnn_32-10-10_bird_10_n02009912_5714.png,n02009912_5714.png,0.0,-0.38941324,3.0619664,-2.440494
convnext_large,1,86,NaN,cat,chair,128-10-10,0086_eid_dnn_128-10-10_chair_10_n03376595_5972.png,n03376595_5972.png,0.0,-0.92891026,1.6302408,-1.8095932
convnext_large,1,87,NaN,chair,chair,2-10-10,0087_eid_dnn_2-10-10_chair_10_n04429376_805.png,n04429376_805.png,1.0,3.4732194,0.7731676,1.909225
convnext_large,1,88,NaN,airplane,bicycle,128-10-10,0088_eid_dnn_128-10-10_bicycle_10_n03792782_4083.png,n03792782_4083.png,0.0,0.71329063,2.9385724,-1.5735118
convnext_large,1,89,NaN,clock,clock,1-10-10,0089_eid_dnn_1-10-10_clock_10_n02708093_798.png,n02708093_798.png,1.0,5.36196,0.69975746,3.296675
convnext_large,1,90,NaN,bear,bear,1-10-10,0090_eid_dnn_1-10-10_bear_10_n02133161_1660.png,n02133161_1660.png,1.0,5.3234935,0.29320055,3.5569544
convnext_large,1,91,NaN,airplane,car,8-10-10,0091_eid_dnn_8-10-10_car_10_n04285008_9464.png,n04285008_9464.png,0.0,-0.27913034,1.325281,-1.1344901
convnext_large,1,92,NaN,airplane,oven,16-10-10,0092_eid_dnn_16-10-10_oven_10_n04111531_3314.png,n04111531_3314.png,0.0,0.06453345,2.0266142,-1.3874006
convnext_large,1,93,NaN,cat,cat,128-10-10,0093_eid_dnn_128-10-10_cat_10_n02123394_5753.png,n02123394_5753.png,1.0,0.9597079,0.49474093,0.3287813
convnext_large,1,94,NaN,boat,boat,2-10-10,0094_eid_dnn_2-10-10_boat_10_n02951358_34042.png,n02951358_34042.png,1.0,4.98676,1.7107322,2.3165016
convnext_large,1,95,NaN,airplane,truck,64-10-10,0095_eid_dnn_64-10-10_truck_10_n03417042_7588.png,n03417042_7588.png,0.0,-0.22024941,1.2349175,-1.0289584
convnext_large,1,96,NaN,airplane,truck,32-10-10,0096_eid_dnn_32-10-10_truck_10_n03417042_4200.png,n03417042_4200.png,0.0,0.31452298,2.0745997,-1.2445623
convnext_large,1,97,NaN,airplane,airplane,4-10-10,0097_eid_dnn_4-10-10_airplane_10_n02690373_4335.png,n02690373_4335.png,1.0,8.58907,0.43756992,5.7639813
convnext_large,1,98,NaN,airplane,elephant,128-10-10,0098_eid_dnn_128-10-10_elephant_10_n02504458_6823.png,n02504458_6823.png,0.0,-0.88386285,1.3082923,-1.5500878
convnext_large,1,99,NaN,boat,boat,4-10-10,0099_eid_dnn_4-10-10_boat_10_n03344393_4214.png,n03344393_4214.png,1.0,2.7556567,1.2990867,1.0299506
convnext_large,1,100,NaN,keyboard,keyboard,4-10-10,0100_eid_dnn_4-10-10_keyboard_10_n03085013_22949.png,n03085013_22949.png,1.0,7.2767773,0.4219168,4.8471184
convnext_large,1,101,NaN,airplane,bear,64-10-10,0101_eid_dnn_64-10-10_bear_10_n02132136_31664.png,n02132136_31664.png,0.0,-0.030385882,2.3373864,-1.6742679
convnext_large,1,102,NaN,airplane,bottle,8-10-10,0102_eid_dnn_8-10-10_bottle_10_n03983396_1985.png,n03983396_1985.png,0.0,0.7848741,1.5947735,-0.5726854
convnext_large,1,103,NaN,airplane,airplane,2-10-10,0103_eid_dnn_2-10-10_airplane_10_n02690373_9266.png,n02690373_9266.png,1.0,8.286026,0.58667314,5.4442644
convnext_large,1,104,NaN,airplane,bottle,128-10-10,0104_eid_dnn_128-10-10_bottle_10_n02823428_5961.png,n02823428_5961.png,0.0,-0.42183903,2.6483898,-2.1709797
convnext_large,1,105,NaN,bottle,bottle,4-10-10,0105_eid_dnn_4-10-10_bottle_10_n04579145_1856.png,n04579145_1856.png,1.0,3.676542,0.18189384,2.4710896
convnext_large,1,106,NaN,airplane,clock,64-10-10,0106_eid_dnn_64-10-10_clock_10_n02708093_7810.png,n02708093_7810.png,0.0,0.20476656,2.4566863,-1.5923477
convnext_large,1,107,NaN,elephant,dog,1-10-10,0107_eid_dnn_1-10-10_dog_10_n02100735_4949.png,n02100735_4949.png,0.0,0.3216578,0.4790123,-0.11126644
convnext_large,1,108,NaN,airplane,chair,32-10-10,0108_eid_dnn_32-10-10_chair_10_n03376595_7275.png,n03376595_7275.png,0.0,-0.12394656,1.8002771,-1.3606316
convnext_large,1,109,NaN,bottle,bottle,2-10-10,0109_eid_dnn_2-10-10_bottle_10_n03983396_16741.png,n03983396_16741.png,1.0,3.2817006,0.24123533,2.1499338
convnext_large,1,110,NaN,airplane,boat,32-10-10,0110_eid_dnn_32-10-10_boat_10_n04612504_8719.png,n04612504_8719.png,0.0,0.17633528,1.9616873,-1.2624345
convnext_large,1,111,NaN,chair,chair,1-10-10,0111_eid_dnn_1-10-10_chair_10_n02791124_3570.png,n02791124_3570.png,1.0,2.8015964,0.32904667,1.7483567
convnext_large,1,112,NaN,airplane,bear,32-10-10,0112_eid_dnn_32-10-10_bear_10_n02132136_9557.png,n02132136_9557.png,0.0,-0.59758824,1.5642747,-1.5286679
convnext_large,1,113,NaN,airplane,bird,64-10-10,0113_eid_dnn_64-10-10_bird_10_n02002556_5730.png,n02002556_5730.png,0.0,-0.5950627,2.161003,-1.9488329
convnext_large,1,114,NaN,oven,oven,4-10-10,0114_eid_dnn_4-10-10_oven_10_n04111531_8959.png,n04111531_8959.png,1.0,3.5865479,2.9922776,0.4202125
convnext_large,1,115,NaN,cat,cat,128-10-10,0115_eid_dnn_128-10-10_cat_10_n02123159_8101.png,n02123159_8101.png,1.0,1.2985749,0.971759,0.23109375
convnext_large,1,116,NaN,cat,cat,8-10-10,0116_eid_dnn_8-10-10_cat_10_n02123597_8890.png,n02123597_8890.png,1.0,2.7782843,0.5622229,1.566992
convnext_large,1,117,NaN,elephant,elephant,1-10-10,0117_eid_dnn_1-10-10_elephant_10_n02504458_220.png,n02504458_220.png,1.0,6.434078,0.52016985,4.181765
convnext_large,1,118,NaN,cat,bicycle,128-10-10,0118_eid_dnn_128-10-10_bicycle_10_n02835271_2651.png,n02835271_2651.png,0.0,-1.0874587,1.2680849,-1.6656209
convnext_large,1,119,NaN,airplane,keyboard,64-10-10,0119_eid_dnn_64-10-10_keyboard_10_n04505470_1581.png,n04505470_1581.png,0.0,0.35823023,1.0792168,-0.5098145
convnext_large,1,120,NaN,truck,truck,4-10-10,0120_eid_dnn_4-10-10_truck_10_n04467665_1719.png,n04467665_1719.png,1.0,2.8466358,0.64555925,1.5563961
convnext_large,1,121,NaN,truck,truck,2-10-10,0121_eid_dnn_2-10-10_truck_10_n04467665_30756.png,n04467665_30756.png,1.0,2.3254118,0.41180477,1.3531245
convnext_large,1,122,NaN,airplane,oven,64-10-10,0122_eid_dnn_64-10-10_oven_10_n04111531_1818.png,n04111531_1818.png,0.0,-1.8430768,1.0403156,-2.0388663
convnext_large,1,123,NaN,elephant,elephant,64-10-10,0123_eid_dnn_64-10-10_elephant_10_n02504013_2974.png,n02504013_2974.png,1.0,3.4493291,0.72855675,1.9238765
convnext_large,1,124,NaN,clock,bicycle,128-10-10,0124_eid_dnn_128-10-10_bicycle_10_n03792782_7713.png,n03792782_7713.png,0.0,-0.6406597,0.3993657,-0.735409
convnext_large,1,125,NaN,clock,clock,16-10-10,0125_eid_dnn_16-10-10_clock_10_n04548280_9700.png,n04548280_9700.png,1.0,1.0960163,0.7108723,0.27233794
convnext_large,1,126,NaN,bear,bottle,16-10-10,0126_eid_dnn_16-10-10_bottle_10_n04591713_1174.png,n04591713_1174.png,0.0,0.35044995,1.5507432,-0.8487356
convnext_large,1,127,NaN,airplane,bear,64-10-10,0127_eid_dnn_64-10-10_bear_10_n02134418_1395.png,n02134418_1395.png,0.0,0.432553,2.838373,-1.7011716
convnext_large,1,128,NaN,dog,bottle,128-10-10,0128_eid_dnn_128-10-10_bottle_10_n04591713_36.png,n04591713_36.png,0.0,0.42650053,0.46193737,-0.025057629
convnext_large,1,129,NaN,knife,knife,8-10-10,0129_eid_dnn_8-10-10_knife_10_n03041632_21034.png,n03041632_21034.png,1.0,1.8819411,0.9976728,0.6252721
convnext_large,1,130,NaN,bicycle,bicycle,1-10-10,0130_eid_dnn_1-10-10_bicycle_10_n03792782_11115.png,n03792782_11115.png,1.0,6.758666,0.73092306,4.262258
convnext_large,1,131,NaN,airplane,truck,16-10-10,0131_eid_dnn_16-10-10_truck_10_n03417042_5381.png,n03417042_5381.png,0.0,0.771194,2.8834436,-1.4935861
convnext_large,1,132,NaN,airplane,boat,64-10-10,0132_eid_dnn_64-10-10_boat_10_n04612504_15258.png,n04612504_15258.png,0.0,0.61851025,2.2124126,-1.1270592
convnext_large,1,133,NaN,boat,boat,2-10-10,0133_eid_dnn_2-10-10_boat_10_n03662601_11972.png,n03662601_11972.png,1.0,4.415909,0.67357343,2.6462307
convnext_large,1,134,NaN,airplane,dog,64-10-10,0134_eid_dnn_64-10-10_dog_10_n02092002_11459.png,n02092002_11459.png,0.0,0.6934195,1.9436994,-0.8840814
convnext_large,1,135,NaN,cat,clock,64-10-10,0135_eid_dnn_64-10-10_clock_10_n04548280_6605.png,n04548280_6605.png,0.0,-0.1763338,1.1263081,-0.92110693
convnext_large,1,136,NaN,airplane,boat,64-10-10,0136_eid_dnn_64-10-10_boat_10_n03662601_5600.png,n03662601_5600.png,0.0,1.530987,3.1350372,-1.1342348
convnext_large,1,137,NaN,airplane,bear,32-10-10,0137_eid_dnn_32-10-10_bear_10_n02134084_8153.png,n02134084_8153.png,0.0,-0.27956137,2.1470056,-1.7158419
convnext_large,1,138,NaN,airplane,cat,64-10-10,0138_eid_dnn_64-10-10_cat_10_n02124075_9225.png,n02124075_9225.png,0.0,0.17500627,2.0229053,-1.306662
convnext_large,1,139,NaN,bicycle,bicycle,8-10-10,0139_eid_dnn_8-10-10_bicycle_10_n03792782_3591.png,n03792782_3591.png,1.0,3.4694371,0.35245237,2.2040412
convnext_large,1,140,NaN,airplane,dog,64-10-10,0140_eid_dnn_64-10-10_dog_10_n02107142_31661.png,n02107142_31661.png,0.0,0.6524674,0.87363654,-0.15639019
convnext_large,1,141,NaN,elephant,elephant,8-10-10,0141_eid_dnn_8-10-10_elephant_10_n02504458_651.png,n02504458_651.png,1.0,5.9288893,0.956457,3.5160406
convnext_large,1,142,NaN,cat,dog,128-10-10,0142_eid_dnn_128-10-10_dog_10_n02110958_15217.png,n02110958_15217.png,0.0,0.7534199,1.9959227,-0.8785822
convnext_large,1,143,NaN,bottle,oven,4-10-10,0143_eid_dnn_4-10-10_oven_10_n04111531_523.png,n04111531_523.png,0.0,-0.30320787,0.9812027,-0.90821546
convnext_large,1,144,NaN,car,car,4-10-10,0144_eid_dnn_4-10-10_car_10_n02814533_42884.png,n02814533_42884.png,1.0,4.888413,2.0398617,2.01423
convnext_large,1,145,NaN,airplane,car,64-10-10,0145_eid_dnn_64-10-10_car_10_n04285008_8017.png,n04285008_8017.png,0.0,-0.15774411,1.5659001,-1.2188005
convnext_large,1,146,NaN,car,car,1-10-10,0146_eid_dnn_1-10-10_car_10_n03100240_16766.png,n03100240_16766.png,1.0,4.6564727,2.118283,1.7947712
convnext_large,1,147,NaN,elephant,elephant,8-10-10,0147_eid_dnn_8-10-10_elephant_10_n02504458_4593.png,n02504458_4593.png,1.0,3.9005733,0.8227824,2.1763268
convnext_large,1,148,NaN,airplane,chair,64-10-10,0148_eid_dnn_64-10-10_chair_10_n02791124_1358.png,n02791124_1358.png,0.0,-0.5744262,0.9474839,-1.0761529
convnext_large,1,149,NaN,airplane,dog,16-10-10,0149_eid_dnn_16-10-10_dog_10_n02095314_5363.png,n02095314_5363.png,0.0,0.6066833,1.3022292,-0.4918252
convnext_large,1,150,NaN,clock,clock,8-10-10,0150_eid_dnn_8-10-10_clock_10_n04548280_1413.png,n04548280_1413.png,1.0,3.8194473,0.65132254,2.2402024
convnext_large,1,151,NaN,chair,dog,1-10-10,0151_eid_dnn_1-10-10_dog_10_n02105641_10948.png,n02105641_10948.png,0.0,0.35080543,0.49082348,-0.09900771
convnext_large,1,152,NaN,dog,dog,1-10-10,0152_eid_dnn_1-10-10_dog_10_n02113624_1691.png,n02113624_1691.png,1.0,0.36788598,0.018103324,0.24733369
convnext_large,1,153,NaN,car,car,4-10-10,0153_eid_dnn_4-10-10_car_10_n03100240_2235.png,n03100240_2235.png,1.0,5.543634,2.9407148,1.8405417
convnext_large,1,154,NaN,chair,chair,2-10-10,0154_eid_dnn_2-10-10_chair_10_n04099969_56470.png,n04099969_56470.png,1.0,4.059873,0.7168175,2.3638973
convnext_large,1,155,NaN,oven,oven,2-10-10,0155_eid_dnn_2-10-10_oven_10_n04111531_5429.png,n04111531_5429.png,1.0,8.568413,0.58160186,5.647528
convnext_large,1,156,NaN,airplane,keyboard,64-10-10,0156_eid_dnn_64-10-10_keyboard_10_n03085013_19317.png,n03085013_19317.png,0.0,-0.39922208,1.5586829,-1.3844479
convnext_large,1,157,NaN,airplane,bird,64-10-10,0157_eid_dnn_64-10-10_bird_10_n01601694_19650.png,n01601694_19650.png,0.0,-0.21187751,1.094312,-0.9236154
convnext_large,1,158,NaN,airplane,clock,128-10-10,0158_eid_dnn_128-10-10_clock_10_n03196217_11199.png,n03196217_11199.png,0.0,-0.05710121,0.644722,-0.49626392
convnext_large,1,159,NaN,airplane,bottle,32-10-10,0159_eid_dnn_32-10-10_bottle_10_n03937543_2209.png,n03937543_2209.png,0.0,-0.9640196,2.8694282,-2.710657
convnext_large,1,160,NaN,bear,car,64-10-10,0160_eid_dnn_64-10-10_car_10_n03100240_16939.png,n03100240_16939.png,0.0,-0.29570627,1.1927607,-1.0525051
convnext_large,1,161,NaN,bottle,bottle,8-10-10,0161_eid_dnn_8-10-10_bottle_10_n04591713_2501.png,n04591713_2501.png,1.0,1.818621,0.55760825,0.8916707
convnext_large,1,162,NaN,airplane,airplane,16-10-10,0162_eid_dnn_16-10-10_airplane_10_n02690373_10395.png,n02690373_10395.png,1.0,7.7233205,1.3440329,4.5108376
convnext_large,1,163,NaN,oven,oven,8-10-10,0163_eid_dnn_8-10-10_oven_10_n04111531_3286.png,n04111531_3286.png,1.0,3.0654101,1.1796727,1.3334178
convnext_large,1,164,NaN,airplane,boat,64-10-10,0164_eid_dnn_64-10-10_boat_10_n04273569_13401.png,n04273569_13401.png,0.0,1.1040663,2.2659543,-0.8215789
convnext_large,1,165,NaN,airplane,elephant,64-10-10,0165_eid_dnn_64-10-10_elephant_10_n02504458_12776.png,n02504458_12776.png,0.0,-0.84275186,1.3355217,-1.5402721
convnext_large,1,166,NaN,airplane,bird,2-10-10,0166_eid_dnn_2-10-10_bird_10_n01828970_997.png,n01828970_997.png,0.0,0.9300314,1.6582594,-0.51493496
convnext_large,1,167,NaN,bear,bear,8-10-10,0167_eid_dnn_8-10-10_bear_10_n02132136_10318.png,n02132136_10318.png,1.0,2.3248234,1.1772712,0.8114419
convnext_large,1,168,NaN,airplane,oven,32-10-10,0168_eid_dnn_32-10-10_oven_10_n04111531_7883.png,n04111531_7883.png,0.0,-1.1767893,2.4134562,-2.538687
convnext_large,1,169,NaN,cat,clock,128-10-10,0169_eid_dnn_128-10-10_clock_10_n02708093_725.png,n02708093_725.png,0.0,-0.6368516,0.8603619,-1.0586898
convnext_large,1,170,NaN,airplane,bottle,16-10-10,0170_eid_dnn_16-10-10_bottle_10_n04557648_2052.png,n04557648_2052.png,0.0,0.07212021,1.810636,-1.2293164
convnext_large,1,171,NaN,airplane,keyboard,32-10-10,0171_eid_dnn_32-10-10_keyboard_10_n04505470_5036.png,n04505470_5036.png,0.0,0.2007389,1.9108397,-1.2092239
convnext_large,1,172,NaN,elephant,elephant,8-10-10,0172_eid_dnn_8-10-10_elephant_10_n02504458_13352.png,n02504458_13352.png,1.0,5.797472,0.958374,3.4217591
convnext_large,1,173,NaN,chair,chair,4-10-10,0173_eid_dnn_4-10-10_chair_10_n04429376_30620.png,n04429376_30620.png,1.0,3.394824,0.36118805,2.1451046
convnext_large,1,174,NaN,airplane,boat,16-10-10,0174_eid_dnn_16-10-10_boat_10_n03662601_2980.png,n03662601_2980.png,0.0,2.9999475,4.111533,-0.7860097
convnext_large,1,175,NaN,airplane,boat,8-10-10,0175_eid_dnn_8-10-10_boat_10_n03662601_4734.png,n03662601_4734.png,0.0,1.2387928,2.7943754,-1.0999631
convnext_large,1,176,NaN,bear,bear,2-10-10,0176_eid_dnn_2-10-10_bear_10_n02134418_4754.png,n02134418_4754.png,1.0,4.104623,1.2847192,1.993973
convnext_large,1,177,NaN,elephant,elephant,2-10-10,0177_eid_dnn_2-10-10_elephant_10_n02504013_8522.png,n02504013_8522.png,1.0,6.5403576,0.38689584,4.351155
convnext_large,1,178,NaN,airplane,bottle,64-10-10,0178_eid_dnn_64-10-10_bottle_10_n03937543_4863.png,n03937543_4863.png,0.0,-0.2585322,3.093734,-2.3704102
convnext_large,1,179,NaN,airplane,car,16-10-10,0179_eid_dnn_16-10-10_car_10_n04285008_10802.png,n04285008_10802.png,0.0,0.07207412,3.0282946,-2.0903635
convnext_large,1,180,NaN,airplane,knife,64-10-10,0180_eid_dnn_64-10-10_knife_10_n03041632_6708.png,n03041632_6708.png,0.0,-0.33069095,2.3549001,-1.8989996
convnext_large,1,181,NaN,dog,dog,1-10-10,0181_eid_dnn_1-10-10_dog_10_n02107142_61109.png,n02107142_61109.png,1.0,0.59507346,0.27654168,0.22523598
convnext_large,1,182,NaN,clock,clock,2-10-10,0182_eid_dnn_2-10-10_clock_10_n03196217_8139.png,n03196217_8139.png,1.0,4.7495337,0.081574194,3.300746
convnext_large,1,183,NaN,elephant,elephant,1-10-10,0183_eid_dnn_1-10-10_elephant_10_n02504458_6611.png,n02504458_6611.png,1.0,6.0668507,0.33746287,4.051289
convnext_large,1,184,NaN,airplane,truck,64-10-10,0184_eid_dnn_64-10-10_truck_10_n04467665_4401.png,n04467665_4401.png,0.0,0.52458066,1.7719016,-0.88198906
convnext_large,1,185,NaN,boat,boat,4-10-10,0185_eid_dnn_4-10-10_boat_10_n03344393_732.png,n03344393_732.png,1.0,2.0547976,0.7692689,0.9090061
convnext_large,1,186,NaN,knife,knife,4-10-10,0186_eid_dnn_4-10-10_knife_10_n03041632_41381.png,n03041632_41381.png,1.0,8.328497,0.416633,5.5945325
convnext_large,1,187,NaN,airplane,oven,32-10-10,0187_eid_dnn_32-10-10_oven_10_n04111531_22715.png,n04111531_22715.png,0.0,-0.42541906,3.1051865,-2.4965153
convnext_large,1,188,NaN,cat,cat,16-10-10,0188_eid_dnn_16-10-10_cat_10_n02123045_3568.png,n02123045_3568.png,1.0,2.8336973,0.9007231,1.3668191
convnext_large,1,189,NaN,truck,truck,2-10-10,0189_eid_dnn_2-10-10_truck_10_n03796401_18976.png,n03796401_18976.png,1.0,2.5795145,0.6390162,1.3721396
convnext_large,1,190,NaN,airplane,oven,8-10-10,0190_eid_dnn_8-10-10_oven_10_n04111531_15710.png,n04111531_15710.png,0.0,-0.059598446,0.73901534,-0.56470525
convnext_large,1,191,NaN,airplane,elephant,32-10-10,0191_eid_dnn_32-10-10_elephant_10_n02504013_7232.png,n02504013_7232.png,0.0,-0.38606662,2.7363489,-2.2078812
convnext_large,1,192,NaN,airplane,clock,64-10-10,0192_eid_dnn_64-10-10_clock_10_n02708093_5126.png,n02708093_5126.png,0.0,-0.217139,1.1874516,-0.99319553
convnext_large,1,193,NaN,airplane,cat,32-10-10,0193_eid_dnn_32-10-10_cat_10_n02123159_1598.png,n02123159_1598.png,0.0,0.07958725,3.6486664,-2.52372
convnext_large,1,194,NaN,car,car,1-10-10,0194_eid_dnn_1-10-10_car_10_n04285008_1661.png,n04285008_1661.png,1.0,5.6879253,1.5527027,2.924044
convnext_large,1,195,NaN,clock,clock,2-10-10,0195_eid_dnn_2-10-10_clock_10_n02708093_5551.png,n02708093_5551.png,1.0,5.023605,0.24633324,3.3780413
convnext_large,1,196,NaN,airplane,airplane,128-10-10,0196_eid_dnn_128-10-10_airplane_10_n02690373_693.png,n02690373_693.png,1.0,1.0820816,0.79817724,0.20075066
convnext_large,1,197,NaN,elephant,elephant,2-10-10,0197_eid_dnn_2-10-10_elephant_10_n02504013_3409.png,n02504013_3409.png,1.0,6.087787,0.17502904,4.180951
convnext_large,1,198,NaN,airplane,dog,64-10-10,0198_eid_dnn_64-10-10_dog_10_n02113712_8182.png,n02113712_8182.png,0.0,-0.036563855,1.2546448,-0.9130224
convnext_large,1,199,NaN,bottle,bottle,1-10-10,0199_eid_dnn_1-10-10_bottle_10_n03983396_8322.png,n03983396_8322.png,1.0,4.3847303,0.68186563,2.6183207
convnext_large,1,200,NaN,cat,keyboard,64-10-10,0200_eid_dnn_64-10-10_keyboard_10_n04505470_1040.png,n04505470_1040.png,0.0,0.104529545,1.6118064,-1.0658057
convnext_large,1,201,NaN,airplane,oven,32-10-10,0201_eid_dnn_32-10-10_oven_10_n04111531_11230.png,n04111531_11230.png,0.0,-0.96161866,1.6469553,-1.8445404
convnext_large,1,202,NaN,cat,cat,1-10-10,0202_eid_dnn_1-10-10_cat_10_n02123394_6269.png,n02123394_6269.png,1.0,4.2514706,0.5288233,2.6323092
convnext_large,1,203,NaN,elephant,elephant,2-10-10,0203_eid_dnn_2-10-10_elephant_10_n02504013_2075.png,n02504013_2075.png,1.0,6.224162,0.27240857,4.208525
convnext_large,1,204,NaN,bear,bear,1-10-10,0204_eid_dnn_1-10-10_bear_10_n02133161_3795.png,n02133161_3795.png,1.0,4.607071,1.2642425,2.3637366
convnext_large,1,205,NaN,oven,oven,2-10-10,0205_eid_dnn_2-10-10_oven_10_n04111531_4322.png,n04111531_4322.png,1.0,8.271911,1.6055361,4.713839
convnext_large,1,206,NaN,bottle,bottle,4-10-10,0206_eid_dnn_4-10-10_bottle_10_n03937543_5799.png,n03937543_5799.png,1.0,2.5349479,1.7228878,0.5742132
convnext_large,1,207,NaN,keyboard,keyboard,8-10-10,0207_eid_dnn_8-10-10_keyboard_10_n04505470_4414.png,n04505470_4414.png,1.0,5.9881096,0.8751698,3.6153946
convnext_large,1,208,NaN,dog,dog,4-10-10,0208_eid_dnn_4-10-10_dog_10_n02091032_8315.png,n02091032_8315.png,1.0,1.3378875,0.6050754,0.51817644
convnext_large,1,209,NaN,knife,knife,2-10-10,0209_eid_dnn_2-10-10_knife_10_n03041632_39952.png,n03041632_39952.png,1.0,7.9871063,0.092579655,5.5822735
convnext_large,1,210,NaN,chair,chair,8-10-10,0210_eid_dnn_8-10-10_chair_10_n02791124_634.png,n02791124_634.png,1.0,3.0346127,1.1426412,1.3378259
convnext_large,1,211,NaN,airplane,boat,32-10-10,0211_eid_dnn_32-10-10_boat_10_n03344393_3355.png,n03344393_3355.png,0.0,0.85677624,1.3603716,-0.3560957
convnext_large,1,212,NaN,airplane,dog,32-10-10,0212_eid_dnn_32-10-10_dog_10_n02102040_7188.png,n02102040_7188.png,0.0,0.23475486,1.1254781,-0.6298365
convnext_large,1,213,NaN,chair,chair,2-10-10,0213_eid_dnn_2-10-10_chair_10_n02791124_8711.png,n02791124_8711.png,1.0,3.364665,0.43808016,2.0694082
convnext_large,1,214,NaN,airplane,bear,64-10-10,0214_eid_dnn_64-10-10_bear_10_n02132136_6002.png,n02132136_6002.png,0.0,0.5019803,2.6646066,-1.5292077
convnext_large,1,215,NaN,boat,boat,4-10-10,0215_eid_dnn_4-10-10_boat_10_n02951358_30184.png,n02951358_30184.png,1.0,3.4705906,1.7172642,1.239789
convnext_large,1,216,NaN,cat,bottle,128-10-10,0216_eid_dnn_128-10-10_bottle_10_n02823428_3414.png,n02823428_3414.png,0.0,-0.24147655,0.8190794,-0.7499263
convnext_large,1,217,NaN,airplane,truck,4-10-10,0217_eid_dnn_4-10-10_truck_10_n04467665_13231.png,n04467665_13231.png,0.0,3.7223716,3.9587512,-0.16714564
convnext_large,1,218,NaN,chair,chair,4-10-10,0218_eid_dnn_4-10-10_chair_10_n04099969_8063.png,n04099969_8063.png,1.0,2.2520525,1.1738951,0.76237243
convnext_large,1,219,NaN,bird,bird,4-10-10,0219_eid_dnn_4-10-10_bird_10_n01534433_10234.png,n01534433_10234.png,1.0,1.1456205,0.6306759,0.36412078
convnext_large,1,220,NaN,elephant,elephant,4-10-10,0220_eid_dnn_4-10-10_elephant_10_n02504013_12533.png,n02504013_12533.png,1.0,5.556961,0.7300011,3.4131763
convnext_large,1,221,NaN,airplane,knife,16-10-10,0221_eid_dnn_16-10-10_knife_10_n03041632_18995.png,n03041632_18995.png,0.0,0.6955909,2.234137,-1.0879164
convnext_large,1,222,NaN,airplane,chair,32-10-10,0222_eid_dnn_32-10-10_chair_10_n04429376_7123.png,n04429376_7123.png,0.0,0.05065334,2.0642624,-1.4238366
convnext_large,1,223,NaN,airplane,clock,64-10-10,0223_eid_dnn_64-10-10_clock_10_n03196217_9065.png,n03196217_9065.png,0.0,-0.08516104,1.0204055,-0.78175366
convnext_large,1,224,NaN,chair,dog,4-10-10,0224_eid_dnn_4-10-10_dog_10_n02086079_4143.png,n02086079_4143.png,0.0,0.21931751,0.46033615,-0.17042592
convnext_large,1,225,NaN,bear,bear,4-10-10,0225_eid_dnn_4-10-10_bear_10_n02132136_20162.png,n02132136_20162.png,1.0,5.577754,0.8249822,3.3607173
convnext_large,1,226,NaN,bottle,bottle,1-10-10,0226_eid_dnn_1-10-10_bottle_10_n03983396_4165.png,n03983396_4165.png,1.0,1.4774903,0.20493399,0.8998332
convnext_large,1,227,NaN,bird,bird,4-10-10,0227_eid_dnn_4-10-10_bird_10_n01824575_4470.png,n01824575_4470.png,1.0,1.3272966,0.37125346,0.6760246
convnext_large,1,228,NaN,bear,oven,64-10-10,0228_eid_dnn_64-10-10_oven_10_n04111531_9695.png,n04111531_9695.png,0.0,-1.2776175,2.3287084,-2.5500574
convnext_large,1,229,NaN,airplane,bottle,64-10-10,0229_eid_dnn_64-10-10_bottle_10_n02823428_23181.png,n02823428_23181.png,0.0,-0.341326,2.1192048,-1.739858
convnext_large,1,230,NaN,bicycle,bicycle,2-10-10,0230_eid_dnn_2-10-10_bicycle_10_n02835271_13674.png,n02835271_13674.png,1.0,5.7207217,0.71915567,3.5366414
convnext_large,1,231,NaN,chair,chair,2-10-10,0231_eid_dnn_2-10-10_chair_10_n04429376_55747.png,n04429376_55747.png,1.0,3.5326574,0.25034854,2.3209429
convnext_large,1,232,NaN,bear,boat,32-10-10,0232_eid_dnn_32-10-10_boat_10_n02951358_8346.png,n02951358_8346.png,0.0,-0.5458984,1.2235386,-1.251181
convnext_large,1,233,NaN,elephant,elephant,16-10-10,0233_eid_dnn_16-10-10_elephant_10_n02504013_1088.png,n02504013_1088.png,1.0,3.4656599,2.0870063,0.9748553
convnext_large,1,234,NaN,car,car,8-10-10,0234_eid_dnn_8-10-10_car_10_n03100240_11191.png,n03100240_11191.png,1.0,4.4332848,1.6632476,1.9587121
convnext_large,1,235,NaN,chair,chair,8-10-10,0235_eid_dnn_8-10-10_chair_10_n04099969_19966.png,n04099969_19966.png,1.0,3.5197394,0.72091454,1.979068
convnext_large,1,236,NaN,airplane,bicycle,32-10-10,0236_eid_dnn_32-10-10_bicycle_10_n03792782_15016.png,n03792782_15016.png,0.0,-0.2043949,1.7789867,-1.4024626
convnext_large,1,237,NaN,bear,boat,128-10-10,0237_eid_dnn_128-10-10_boat_10_n02951358_17867.png,n02951358_17867.png,0.0,0.39578876,2.9037843,-1.7734207
convnext_large,1,238,NaN,cat,cat,2-10-10,0238_eid_dnn_2-10-10_cat_10_n02123045_2364.png,n02123045_2364.png,1.0,4.2987847,1.2424583,2.1611493
convnext_large,1,239,NaN,bear,bear,2-10-10,0239_eid_dnn_2-10-10_bear_10_n02132136_9433.png,n02132136_9433.png,1.0,5.7419667,1.0084497,3.3471022
convnext_large,1,240,NaN,airplane,clock,32-10-10,0240_eid_dnn_32-10-10_clock_10_n03196217_3167.png,n03196217_3167.png,0.0,-0.2069816,4.0197186,-2.9887285
convnext_large,1,241,NaN,keyboard,clock,32-10-10,0241_eid_dnn_32-10-10_clock_10_n03196217_3129.png,n03196217_3129.png,0.0,0.22032952,0.5837494,-0.25697666
convnext_large,1,242,NaN,elephant,keyboard,128-10-10,0242_eid_dnn_128-10-10_keyboard_10_n03085013_6067.png,n03085013_6067.png,0.0,-0.8807195,1.1160564,-1.4119338
convnext_large,1,243,NaN,keyboard,keyboard,2-10-10,0243_eid_dnn_2-10-10_keyboard_10_n03085013_24648.png,n03085013_24648.png,1.0,6.5272217,0.36669323,4.3561516
convnext_large,1,244,NaN,airplane,oven,32-10-10,0244_eid_dnn_32-10-10_oven_10_n04111531_6695.png,n04111531_6695.png,0.0,1.2728769,1.6055284,-0.23522013
convnext_large,1,245,NaN,dog,dog,4-10-10,0245_eid_dnn_4-10-10_dog_10_n02111500_4875.png,n02111500_4875.png,1.0,0.9366258,0.3181835,0.43730474
convnext_large,1,246,NaN,airplane,oven,32-10-10,0246_eid_dnn_32-10-10_oven_10_n04111531_13018.png,n04111531_13018.png,0.0,-0.7894884,3.683364,-3.162784
convnext_large,1,247,NaN,dog,keyboard,128-10-10,0247_eid_dnn_128-10-10_keyboard_10_n03085013_23030.png,n03085013_23030.png,0.0,-0.32488215,1.4646847,-1.265415
convnext_large,1,248,NaN,dog,cat,8-10-10,0248_eid_dnn_8-10-10_cat_10_n02123045_8409.png,n02123045_8409.png,0.0,0.06517847,1.2223092,-0.818215
convnext_large,1,249,NaN,bicycle,bicycle,4-10-10,0249_eid_dnn_4-10-10_bicycle_10_n03792782_37777.png,n03792782_37777.png,1.0,6.4609385,0.45327517,4.2480593
convnext_large,1,250,NaN,airplane,airplane,64-10-10,0250_eid_dnn_64-10-10_airplane_10_n02690373_614.png,n02690373_614.png,1.0,2.6099644,2.3871987,0.15751913
convnext_large,1,251,NaN,airplane,keyboard,128-10-10,0251_eid_dnn_128-10-10_keyboard_10_n03085013_19775.png,n03085013_19775.png,0.0,-0.1105677,0.9246936,-0.7320403
convnext_large,1,252,NaN,bear,bear,8-10-10,0252_eid_dnn_8-10-10_bear_10_n02133161_1244.png,n02133161_1244.png,1.0,2.9584494,1.112827,1.3050522
convnext_large,1,253,NaN,keyboard,keyboard,2-10-10,0253_eid_dnn_2-10-10_keyboard_10_n04505470_4368.png,n04505470_4368.png,1.0,4.492683,0.8317852,2.5886457
convnext_large,1,254,NaN,oven,oven,2-10-10,0254_eid_dnn_2-10-10_oven_10_n04111531_7728.png,n04111531_7728.png,1.0,7.574643,1.1061205,4.5739365
convnext_large,1,255,NaN,airplane,clock,8-10-10,0255_eid_dnn_8-10-10_clock_10_n04548280_1.png,n04548280_1.png,0.0,-0.056432903,0.8653878,-0.65182567
convnext_large,1,256,NaN,airplane,cat,64-10-10,0256_eid_dnn_64-10-10_cat_10_n02123394_3062.png,n02123394_3062.png,0.0,0.46237502,2.8682592,-1.701217
convnext_large,1,257,NaN,elephant,elephant,2-10-10,0257_eid_dnn_2-10-10_elephant_10_n02504013_466.png,n02504013_466.png,1.0,6.5208883,0.14594884,4.507763
convnext_large,1,258,NaN,elephant,elephant,1-10-10,0258_eid_dnn_1-10-10_elephant_10_n02504013_6275.png,n02504013_6275.png,1.0,6.472435,0.16573629,4.4595094
convnext_large,1,259,NaN,bird,bird,4-10-10,0259_eid_dnn_4-10-10_bird_10_n01560419_5466.png,n01560419_5466.png,1.0,1.1387385,0.6667799,0.33372515
convnext_large,1,260,NaN,airplane,truck,8-10-10,0260_eid_dnn_8-10-10_truck_10_n03796401_5227.png,n03796401_5227.png,0.0,-0.45294732,0.8379295,-0.9127878
convnext_large,1,261,NaN,chair,chair,2-10-10,0261_eid_dnn_2-10-10_chair_10_n04099969_25124.png,n04099969_25124.png,1.0,2.937885,0.25475264,1.8972611
convnext_large,1,262,NaN,airplane,elephant,64-10-10,0262_eid_dnn_64-10-10_elephant_10_n02504013_7209.png,n02504013_7209.png,0.0,1.1268243,1.88652,-0.537186
convnext_large,1,263,NaN,cat,cat,1-10-10,0263_eid_dnn_1-10-10_cat_10_n02123597_4756.png,n02123597_4756.png,1.0,2.589685,0.74275947,1.3059735
convnext_large,1,264,NaN,airplane,bicycle,16-10-10,0264_eid_dnn_16-10-10_bicycle_10_n02835271_4654.png,n02835271_4654.png,0.0,0.95504737,2.5554628,-1.1316646
convnext_large,1,265,NaN,keyboard,keyboard,1-10-10,0265_eid_dnn_1-10-10_keyboard_10_n04505470_2389.png,n04505470_2389.png,1.0,5.142075,0.41888493,3.3398
convnext_large,1,266,NaN,cat,knife,128-10-10,0266_eid_dnn_128-10-10_knife_10_n03041632_379.png,n03041632_379.png,0.0,-0.02045393,0.95968217,-0.6930609
convnext_large,1,267,NaN,bicycle,clock,8-10-10,0267_eid_dnn_8-10-10_clock_10_n02708093_899.png,n02708093_899.png,0.0,0.8255112,1.7388163,-0.6458042
convnext_large,1,268,NaN,bottle,truck,128-10-10,0268_eid_dnn_128-10-10_truck_10_n03417042_10154.png,n03417042_10154.png,0.0,-0.7152331,0.3344753,-0.7422559
convnext_large,1,269,NaN,bottle,bottle,2-10-10,0269_eid_dnn_2-10-10_bottle_10_n04579145_3415.png,n04579145_3415.png,1.0,1.808629,0.37289235,1.0152191
convnext_large,1,270,NaN,elephant,chair,16-10-10,0270_eid_dnn_16-10-10_chair_10_n02791124_146.png,n02791124_146.png,0.0,0.7334064,1.9999665,-0.8955932
convnext_large,1,271,NaN,cat,elephant,128-10-10,0271_eid_dnn_128-10-10_elephant_10_n02504458_2835.png,n02504458_2835.png,0.0,-0.609226,0.8902519,-1.0602909
convnext_large,1,272,NaN,bicycle,bicycle,1-10-10,0272_eid_dnn_1-10-10_bicycle_10_n03792782_13835.png,n03792782_13835.png,1.0,5.9791884,0.3750994,3.9626896
convnext_large,1,273,NaN,cat,bicycle,32-10-10,0273_eid_dnn_32-10-10_bicycle_10_n02835271_12926.png,n02835271_12926.png,0.0,-0.12120867,1.308971,-1.0112898
convnext_large,1,274,NaN,dog,dog,2-10-10,0274_eid_dnn_2-10-10_dog_10_n02110185_11605.png,n02110185_11605.png,1.0,0.44439793,0.23231044,0.1499685
convnext_large,1,275,NaN,airplane,elephant,128-10-10,0275_eid_dnn_128-10-10_elephant_10_n02504458_3091.png,n02504458_3091.png,0.0,-0.34669074,2.595244,-2.080262
convnext_large,1,276,NaN,airplane,chair,128-10-10,0276_eid_dnn_128-10-10_chair_10_n04099969_5233.png,n04099969_5233.png,0.0,-0.5484535,2.0125508,-1.8109037
convnext_large,1,277,NaN,dog,dog,2-10-10,0277_eid_dnn_2-10-10_dog_10_n02097209_7628.png,n02097209_7628.png,1.0,0.8218846,0.42600927,0.27992612
convnext_large,1,278,NaN,cat,cat,8-10-10,0278_eid_dnn_8-10-10_cat_10_n02123597_10941.png,n02123597_10941.png,1.0,3.604211,0.8974435,1.9139737
convnext_large,1,279,NaN,airplane,clock,16-10-10,0279_eid_dnn_16-10-10_clock_10_n02708093_3006.png,n02708093_3006.png,0.0,0.13652466,1.4963806,-0.96156335
convnext_large,1,280,NaN,truck,truck,1-10-10,0280_eid_dnn_1-10-10_truck_10_n03796401_26620.png,n03796401_26620.png,1.0,2.897717,0.6294291,1.6039218
convnext_large,1,281,NaN,cat,bear,128-10-10,0281_eid_dnn_128-10-10_bear_10_n02134418_12733.png,n02134418_12733.png,0.0,0.025131673,1.5572401,-1.0833642
convnext_large,1,282,NaN,knife,knife,2-10-10,0282_eid_dnn_2-10-10_knife_10_n03041632_4806.png,n03041632_4806.png,1.0,7.4804792,0.16308925,5.174176
convnext_large,1,283,NaN,oven,oven,4-10-10,0283_eid_dnn_4-10-10_oven_10_n04111531_17922.png,n04111531_17922.png,1.0,6.824151,1.5636955,3.719704
convnext_large,1,284,NaN,bottle,bottle,1-10-10,0284_eid_dnn_1-10-10_bottle_10_n04579145_6818.png,n04579145_6818.png,1.0,1.8238798,0.35568106,1.0381733
convnext_large,1,285,NaN,keyboard,keyboard,4-10-10,0285_eid_dnn_4-10-10_keyboard_10_n04505470_494.png,n04505470_494.png,1.0,7.2560725,0.46323237,4.803263
convnext_large,1,286,NaN,cat,cat,8-10-10,0286_eid_dnn_8-10-10_cat_10_n02123045_10834.png,n02123045_10834.png,1.0,4.5061955,0.6504696,2.7264102
convnext_large,1,287,NaN,dog,cat,128-10-10,0287_eid_dnn_128-10-10_cat_10_n02123394_176.png,n02123394_176.png,0.0,0.61286056,0.9298598,-0.22415233
convnext_large,1,288,NaN,cat,chair,128-10-10,0288_eid_dnn_128-10-10_chair_10_n03376595_2891.png,n03376595_2891.png,0.0,-0.64873874,1.6753563,-1.6433834
convnext_large,1,289,NaN,dog,dog,8-10-10,0289_eid_dnn_8-10-10_dog_10_n02093256_5647.png,n02093256_5647.png,1.0,1.0613248,0.41304564,0.45840263
convnext_large,1,290,NaN,cat,knife,64-10-10,0290_eid_dnn_64-10-10_knife_10_n03041632_33326.png,n03041632_33326.png,0.0,-0.26841915,0.8574254,-0.7960923
convnext_large,1,291,NaN,airplane,airplane,8-10-10,0291_eid_dnn_8-10-10_airplane_10_n02690373_2856.png,n02690373_2856.png,1.0,3.9311442,1.9715703,1.3856281
convnext_large,1,292,NaN,airplane,bicycle,128-10-10,0292_eid_dnn_128-10-10_bicycle_10_n03792782_9651.png,n03792782_9651.png,0.0,0.38119096,1.174074,-0.56065303
convnext_large,1,293,NaN,bicycle,bicycle,2-10-10,0293_eid_dnn_2-10-10_bicycle_10_n02835271_7438.png,n02835271_7438.png,1.0,6.2785788,1.13935,3.6339836
convnext_large,1,294,NaN,airplane,bicycle,128-10-10,0294_eid_dnn_128-10-10_bicycle_10_n02835271_26639.png,n02835271_26639.png,0.0,0.2632311,2.1586604,-1.340271
convnext_large,1,295,NaN,keyboard,keyboard,8-10-10,0295_eid_dnn_8-10-10_keyboard_10_n04505470_4458.png,n04505470_4458.png,1.0,5.9196806,0.805354,3.616375
convnext_large,1,296,NaN,airplane,dog,64-10-10,0296_eid_dnn_64-10-10_dog_10_n02106662_24847.png,n02106662_24847.png,0.0,-0.1559965,2.8211205,-2.1051397
convnext_large,1,297,NaN,airplane,chair,32-10-10,0297_eid_dnn_32-10-10_chair_10_n03376595_8995.png,n03376595_8995.png,0.0,-0.25766924,2.496687,-1.947624
convnext_large,1,298,NaN,airplane,bicycle,64-10-10,0298_eid_dnn_64-10-10_bicycle_10_n03792782_6030.png,n03792782_6030.png,0.0,-0.07959972,1.3950996,-1.0427699
convnext_large,1,299,NaN,elephant,elephant,4-10-10,0299_eid_dnn_4-10-10_elephant_10_n02504458_7258.png,n02504458_7258.png,1.0,5.470544,0.78323275,3.3144295
convnext_large,1,300,NaN,cat,boat,128-10-10,0300_eid_dnn_128-10-10_boat_10_n03662601_23903.png,n03662601_23903.png,0.0,0.14329155,0.656055,-0.3625785
convnext_large,1,301,NaN,airplane,bird,16-10-10,0301_eid_dnn_16-10-10_bird_10_n02002724_578.png,n02002724_578.png,0.0,-0.58980507,2.149673,-1.9371036
convnext_large,1,302,NaN,airplane,chair,64-10-10,0302_eid_dnn_64-10-10_chair_10_n03376595_2393.png,n03376595_2393.png,0.0,-0.56013715,1.7969959,-1.6667447
convnext_large,1,303,NaN,airplane,boat,16-10-10,0303_eid_dnn_16-10-10_boat_10_n03662601_5118.png,n03662601_5118.png,0.0,1.684622,2.1093755,-0.30034605
convnext_large,1,304,NaN,chair,chair,8-10-10,0304_eid_dnn_8-10-10_chair_10_n04429376_21845.png,n04429376_21845.png,1.0,1.2291497,0.64431995,0.41353709
convnext_large,1,305,NaN,airplane,dog,8-10-10,0305_eid_dnn_8-10-10_dog_10_n02102040_2216.png,n02102040_2216.png,0.0,0.9448677,2.543662,-1.1305184
convnext_large,1,306,NaN,airplane,airplane,8-10-10,0306_eid_dnn_8-10-10_airplane_10_n02690373_3032.png,n02690373_3032.png,1.0,5.681754,2.794692,2.0414612
convnext_large,1,307,NaN,dog,dog,8-10-10,0307_eid_dnn_8-10-10_dog_10_n02100735_2228.png,n02100735_2228.png,1.0,0.97892344,0.5970871,0.2699991
convnext_large,1,308,NaN,airplane,bird,8-10-10,0308_eid_dnn_8-10-10_bird_10_n01532829_13864.png,n01532829_13864.png,0.0,1.0461016,2.5109003,-1.0357691
convnext_large,1,309,NaN,airplane,bird,64-10-10,0309_eid_dnn_64-10-10_bird_10_n01601694_13787.png,n01601694_13787.png,0.0,-0.7585858,1.6511056,-1.7039092
convnext_large,1,310,NaN,airplane,bear,64-10-10,0310_eid_dnn_64-10-10_bear_10_n02134084_22150.png,n02134084_22150.png,0.0,-0.39560556,2.3216887,-1.9214172
convnext_large,1,311,NaN,airplane,knife,16-10-10,0311_eid_dnn_16-10-10_knife_10_n03041632_29427.png,n03041632_29427.png,0.0,-0.99659055,3.5623806,-3.2236793
convnext_large,1,312,NaN,chair,chair,4-10-10,0312_eid_dnn_4-10-10_chair_10_n02791124_2804.png,n02791124_2804.png,1.0,3.0581117,0.3710106,1.9000674
convnext_large,1,313,NaN,bottle,bottle,4-10-10,0313_eid_dnn_4-10-10_bottle_10_n04591713_5046.png,n04591713_5046.png,1.0,3.0388377,0.42305505,1.8496377
convnext_large,1,314,NaN,cat,bicycle,128-10-10,0314_eid_dnn_128-10-10_bicycle_10_n03792782_4210.png,n03792782_4210.png,0.0,0.3958131,1.7796869,-0.97854656
convnext_large,1,315,NaN,cat,cat,128-10-10,0315_eid_dnn_128-10-10_cat_10_n02123159_1596.png,n02123159_1596.png,1.0,1.3802656,1.1041689,0.19522986
convnext_large,1,316,NaN,car,car,2-10-10,0316_eid_dnn_2-10-10_car_10_n03100240_17588.png,n03100240_17588.png,1.0,5.524765,0.9361475,3.2446425
convnext_large,1,317,NaN,cat,keyboard,4-10-10,0317_eid_dnn_4-10-10_keyboard_10_n03085013_23295.png,n03085013_23295.png,0.0,0.07776725,3.4712503,-2.399555
convnext_large,1,318,NaN,airplane,oven,32-10-10,0318_eid_dnn_32-10-10_oven_10_n04111531_4879.png,n04111531_4879.png,0.0,-0.07448134,2.4030867,-1.7519051
convnext_large,1,319,NaN,airplane,keyboard,32-10-10,0319_eid_dnn_32-10-10_keyboard_10_n04505470_4569.png,n04505470_4569.png,0.0,0.7677894,2.2586384,-1.0541894
convnext_large,1,320,NaN,airplane,truck,8-10-10,0320_eid_dnn_8-10-10_truck_10_n04467665_24190.png,n04467665_24190.png,0.0,1.2606966,1.4064484,-0.103062026
convnext_large,1,321,NaN,cat,cat,4-10-10,0321_eid_dnn_4-10-10_cat_10_n02124075_15405.png,n02124075_15405.png,1.0,5.6203156,0.779286,3.423125
convnext_large,1,322,NaN,knife,knife,8-10-10,0322_eid_dnn_8-10-10_knife_10_n03041632_24817.png,n03041632_24817.png,1.0,3.65381,0.57299083,2.1784682
convnext_large,1,323,NaN,airplane,elephant,64-10-10,0323_eid_dnn_64-10-10_elephant_10_n02504013_5505.png,n02504013_5505.png,0.0,-0.88925004,2.9715242,-2.7299798
convnext_large,1,324,NaN,airplane,airplane,8-10-10,0324_eid_dnn_8-10-10_airplane_10_n02690373_8846.png,n02690373_8846.png,1.0,3.744043,2.1649623,1.1165788
convnext_large,1,325,NaN,airplane,truck,32-10-10,0325_eid_dnn_32-10-10_truck_10_n04467665_50806.png,n04467665_50806.png,0.0,0.57561773,1.9665076,-0.9835077
convnext_large,1,326,NaN,elephant,elephant,4-10-10,0326_eid_dnn_4-10-10_elephant_10_n02504458_5539.png,n02504458_5539.png,1.0,5.383689,0.24206927,3.6356742
convnext_large,1,327,NaN,boat,boat,1-10-10,0327_eid_dnn_1-10-10_boat_10_n03344393_1178.png,n03344393_1178.png,1.0,2.6373181,1.1957259,1.0193597
convnext_large,1,328,NaN,truck,truck,4-10-10,0328_eid_dnn_4-10-10_truck_10_n04467665_10025.png,n04467665_10025.png,1.0,2.773086,0.61586785,1.5253837
convnext_large,1,329,NaN,clock,clock,4-10-10,0329_eid_dnn_4-10-10_clock_10_n02708093_2869.png,n02708093_2869.png,1.0,4.8131547,0.4087726,3.1143687
convnext_large,1,330,NaN,cat,bottle,8-10-10,0330_eid_dnn_8-10-10_bottle_10_n03983396_4879.png,n03983396_4879.png,0.0,-0.18482219,1.4787126,-1.1762967
convnext_large,1,331,NaN,cat,keyboard,128-10-10,0331_eid_dnn_128-10-10_keyboard_10_n03085013_10367.png,n03085013_10367.png,0.0,-0.43324512,0.7663229,-0.84822273
convnext_large,1,332,NaN,airplane,bird,64-10-10,0332_eid_dnn_64-10-10_bird_10_n01860187_21300.png,n01860187_21300.png,0.0,-0.586801,0.95855045,-1.0927285
convnext_large,1,333,NaN,airplane,knife,32-10-10,0333_eid_dnn_32-10-10_knife_10_n03041632_5302.png,n03041632_5302.png,0.0,-0.22236432,1.7135894,-1.368926
convnext_large,1,334,NaN,bear,bear,4-10-10,0334_eid_dnn_4-10-10_bear_10_n02134084_5274.png,n02134084_5274.png,1.0,2.5853806,0.9384322,1.1645683
convnext_large,1,335,NaN,knife,knife,4-10-10,0335_eid_dnn_4-10-10_knife_10_n03041632_48816.png,n03041632_48816.png,1.0,3.8457596,1.8273062,1.4272623
convnext_large,1,336,NaN,airplane,elephant,16-10-10,0336_eid_dnn_16-10-10_elephant_10_n02504013_3295.png,n02504013_3295.png,0.0,-0.1870541,3.0203094,-2.2679486
convnext_large,1,337,NaN,airplane,truck,128-10-10,0337_eid_dnn_128-10-10_truck_10_n03417042_2478.png,n03417042_2478.png,0.0,-0.6829358,0.7974307,-1.0467771
convnext_large,1,338,NaN,airplane,oven,32-10-10,0338_eid_dnn_32-10-10_oven_10_n04111531_5350.png,n04111531_5350.png,0.0,-0.2862903,2.0830076,-1.6753467
convnext_large,1,339,NaN,airplane,airplane,8-10-10,0339_eid_dnn_8-10-10_airplane_10_n02690373_1663.png,n02690373_1663.png,1.0,5.357066,1.3813015,2.8112903
convnext_large,1,340,NaN,boat,boat,4-10-10,0340_eid_dnn_4-10-10_boat_10_n03344393_1422.png,n03344393_1422.png,1.0,3.297585,1.1769974,1.4994819
convnext_large,1,341,NaN,airplane,cat,32-10-10,0341_eid_dnn_32-10-10_cat_10_n02123159_3312.png,n02123159_3312.png,0.0,1.138996,1.1659417,-0.019053495
convnext_large,1,342,NaN,airplane,chair,64-10-10,0342_eid_dnn_64-10-10_chair_10_n03376595_6171.png,n03376595_6171.png,0.0,-0.83582604,1.3761157,-1.564079
convnext_large,1,343,NaN,bottle,bottle,8-10-10,0343_eid_dnn_8-10-10_bottle_10_n04591713_1616.png,n04591713_1616.png,1.0,4.418641,0.972987,2.4364455
convnext_large,1,344,NaN,airplane,bear,128-10-10,0344_eid_dnn_128-10-10_bear_10_n02133161_1197.png,n02133161_1197.png,0.0,-0.15025988,1.8923233,-1.4443245
convnext_large,1,345,NaN,truck,truck,4-10-10,0345_eid_dnn_4-10-10_truck_10_n04467665_663.png,n04467665_663.png,1.0,2.5791225,1.7542633,0.5832636
convnext_large,1,346,NaN,bear,bear,4-10-10,0346_eid_dnn_4-10-10_bear_10_n02132136_2771.png,n02132136_2771.png,1.0,4.236643,0.8895424,2.3667574
convnext_large,1,347,NaN,airplane,cat,16-10-10,0347_eid_dnn_16-10-10_cat_10_n02123394_12.png,n02123394_12.png,0.0,1.0253943,2.5200155,-1.0568568
convnext_large,1,348,NaN,airplane,car,8-10-10,0348_eid_dnn_8-10-10_car_10_n04285008_1795.png,n04285008_1795.png,0.0,0.6302525,1.999565,-0.9682502
convnext_large,1,349,NaN,boat,boat,4-10-10,0349_eid_dnn_4-10-10_boat_10_n04273569_1023.png,n04273569_1023.png,1.0,3.0702307,0.6247582,1.7292103
convnext_large,1,350,NaN,boat,boat,1-10-10,0350_eid_dnn_1-10-10_boat_10_n03662601_21775.png,n03662601_21775.png,1.0,3.5397232,0.6063311,2.0742214
convnext_large,1,351,NaN,clock,clock,1-10-10,0351_eid_dnn_1-10-10_clock_10_n03196217_71.png,n03196217_71.png,1.0,3.821819,0.22291827,2.5448072
convnext_large,1,352,NaN,keyboard,keyboard,4-10-10,0352_eid_dnn_4-10-10_keyboard_10_n04505470_3122.png,n04505470_3122.png,1.0,6.1586623,1.6744577,3.1708117
convnext_large,1,353,NaN,airplane,dog,32-10-10,0353_eid_dnn_32-10-10_dog_10_n02099849_4640.png,n02099849_4640.png,0.0,0.41271713,1.1131188,-0.49525878
convnext_large,1,354,NaN,airplane,bottle,64-10-10,0354_eid_dnn_64-10-10_bottle_10_n02823428_6418.png,n02823428_6418.png,0.0,-0.39705208,2.2182097,-1.8492694
convnext_large,1,355,NaN,bottle,car,8-10-10,0355_eid_dnn_8-10-10_car_10_n04285008_11704.png,n04285008_11704.png,0.0,-0.23030968,0.9215307,-0.8144742
convnext_large,1,356,NaN,chair,clock,32-10-10,0356_eid_dnn_32-10-10_clock_10_n02708093_3544.png,n02708093_3544.png,0.0,0.5696475,0.76450783,-0.13778707
convnext_large,1,357,NaN,dog,clock,8-10-10,0357_eid_dnn_8-10-10_clock_10_n04548280_4599.png,n04548280_4599.png,0.0,-1.6424357,1.8197507,-2.4481354
convnext_large,1,358,NaN,cat,car,128-10-10,0358_eid_dnn_128-10-10_car_10_n03100240_6259.png,n03100240_6259.png,0.0,-0.23063634,1.5063977,-1.2282686
convnext_large,1,359,NaN,airplane,boat,8-10-10,0359_eid_dnn_8-10-10_boat_10_n04273569_3401.png,n04273569_3401.png,0.0,2.6328118,2.6977828,-0.045941416
convnext_large,1,360,NaN,airplane,truck,64-10-10,0360_eid_dnn_64-10-10_truck_10_n04467665_13898.png,n04467665_13898.png,0.0,0.037793487,2.0948625,-1.4545676
convnext_large,1,361,NaN,clock,clock,2-10-10,0361_eid_dnn_2-10-10_clock_10_n03196217_1499.png,n03196217_1499.png,1.0,4.380991,0.545515,2.712091
convnext_large,1,362,NaN,car,car,4-10-10,0362_eid_dnn_4-10-10_car_10_n03100240_8702.png,n03100240_8702.png,1.0,4.3604245,3.1801913,0.8345509
convnext_large,1,363,NaN,bear,bear,4-10-10,0363_eid_dnn_4-10-10_bear_10_n02134418_1770.png,n02134418_1770.png,1.0,3.8377562,0.51632464,2.3486068
convnext_large,1,364,NaN,airplane,bear,16-10-10,0364_eid_dnn_16-10-10_bear_10_n02132136_32838.png,n02132136_32838.png,0.0,0.88401806,2.1294723,-0.8806691
convnext_large,1,365,NaN,airplane,truck,4-10-10,0365_eid_dnn_4-10-10_truck_10_n04467665_68331.png,n04467665_68331.png,0.0,1.4713168,2.9931965,-1.0761315
convnext_large,1,366,NaN,airplane,airplane,1-10-10,0366_eid_dnn_1-10-10_airplane_10_n02690373_4506.png,n02690373_4506.png,1.0,8.528348,0.42255202,5.731663
convnext_large,1,367,NaN,car,car,2-10-10,0367_eid_dnn_2-10-10_car_10_n03100240_5308.png,n03100240_5308.png,1.0,7.0370502,1.560055,3.8728206
convnext_large,1,368,NaN,cat,cat,2-10-10,0368_eid_dnn_2-10-10_cat_10_n02124075_15345.png,n02124075_15345.png,1.0,1.191471,0.71056396,0.34005263
convnext_large,1,369,NaN,airplane,bicycle,128-10-10,0369_eid_dnn_128-10-10_bicycle_10_n03792782_50972.png,n03792782_50972.png,0.0,-0.282583,0.89940274,-0.83579016
convnext_large,1,370,NaN,airplane,knife,8-10-10,0370_eid_dnn_8-10-10_knife_10_n03041632_19098.png,n03041632_19098.png,0.0,-0.051559508,1.378553,-1.0112424
convnext_large,1,371,NaN,dog,bottle,128-10-10,0371_eid_dnn_128-10-10_bottle_10_n04560804_15963.png,n04560804_15963.png,0.0,-0.15631874,1.2658359,-1.0056152
convnext_large,1,372,NaN,oven,bottle,8-10-10,0372_eid_dnn_8-10-10_bottle_10_n04557648_7809.png,n04557648_7809.png,0.0,0.14565112,1.1205367,-0.6893482
convnext_large,1,373,NaN,airplane,airplane,1-10-10,0373_eid_dnn_1-10-10_airplane_10_n02690373_17764.png,n02690373_17764.png,1.0,8.373218,0.3498878,5.673351
convnext_large,1,374,NaN,airplane,elephant,64-10-10,0374_eid_dnn_64-10-10_elephant_10_n02504013_7322.png,n02504013_7322.png,0.0,-0.3830592,2.0821187,-1.7431442
convnext_large,1,375,NaN,bear,bear,2-10-10,0375_eid_dnn_2-10-10_bear_10_n02134084_2959.png,n02134084_2959.png,1.0,3.1982307,0.19011313,2.1270604
convnext_large,1,376,NaN,airplane,bird,2-10-10,0376_eid_dnn_2-10-10_bird_10_n01622779_6563.png,n01622779_6563.png,0.0,0.14042191,0.43325555,-0.20706464
convnext_large,1,377,NaN,airplane,knife,16-10-10,0377_eid_dnn_16-10-10_knife_10_n03041632_19620.png,n03041632_19620.png,0.0,-0.49209967,2.4749916,-2.0980504
convnext_large,1,378,NaN,bird,bird,4-10-10,0378_eid_dnn_4-10-10_bird_10_n01530575_35977.png,n01530575_35977.png,1.0,0.58365333,0.42417598,0.11276752
convnext_large,1,379,NaN,airplane,cat,128-10-10,0379_eid_dnn_128-10-10_cat_10_n02123394_1757.png,n02123394_1757.png,0.0,0.14973466,1.6664618,-1.0724881
convnext_large,1,380,NaN,dog,dog,2-10-10,0380_eid_dnn_2-10-10_dog_10_n02093647_6358.png,n02093647_6358.png,1.0,0.23937023,0.11090175,0.090840936
convnext_large,1,381,NaN,boat,boat,1-10-10,0381_eid_dnn_1-10-10_boat_10_n02951358_1470.png,n02951358_1470.png,1.0,2.0515695,0.51737535,1.0848391
convnext_large,1,382,NaN,airplane,elephant,128-10-10,0382_eid_dnn_128-10-10_elephant_10_n02504458_2026.png,n02504458_2026.png,0.0,-0.45260507,1.9618032,-1.7072444
convnext_large,1,383,NaN,airplane,elephant,32-10-10,0383_eid_dnn_32-10-10_elephant_10_n02504458_3730.png,n02504458_3730.png,0.0,0.659984,2.555265,-1.3401661
convnext_large,1,384,NaN,keyboard,keyboard,8-10-10,0384_eid_dnn_8-10-10_keyboard_10_n03085013_20881.png,n03085013_20881.png,1.0,0.931622,0.5843101,0.24558662
convnext_large,1,385,NaN,keyboard,dog,4-10-10,0385_eid_dnn_4-10-10_dog_10_n02105641_8188.png,n02105641_8188.png,0.0,0.24116206,0.3178441,-0.054222386
convnext_large,1,386,NaN,airplane,clock,32-10-10,0386_eid_dnn_32-10-10_clock_10_n03196217_6320.png,n03196217_6320.png,0.0,-0.010484834,2.2053013,-1.5667975
convnext_large,1,387,NaN,airplane,car,32-10-10,0387_eid_dnn_32-10-10_car_10_n04285008_12333.png,n04285008_12333.png,0.0,0.14463376,3.0459938,-2.0515714
convnext_large,1,388,NaN,knife,knife,2-10-10,0388_eid_dnn_2-10-10_knife_10_n03041632_47743.png,n03041632_47743.png,1.0,8.211288,0.4066006,5.518748
convnext_large,1,389,NaN,airplane,boat,8-10-10,0389_eid_dnn_8-10-10_boat_10_n04612504_8073.png,n04612504_8073.png,0.0,1.8123586,2.1414993,-0.2327376
convnext_large,1,390,NaN,cat,knife,128-10-10,0390_eid_dnn_128-10-10_knife_10_n03041632_20770.png,n03041632_20770.png,0.0,-0.5453266,0.48511994,-0.7286357
convnext_large,1,391,NaN,airplane,car,32-10-10,0391_eid_dnn_32-10-10_car_10_n02814533_28783.png,n02814533_28783.png,0.0,-0.6317685,1.2036872,-1.2978631
convnext_large,1,392,NaN,airplane,car,128-10-10,0392_eid_dnn_128-10-10_car_10_n02814533_13533.png,n02814533_13533.png,0.0,0.22035891,1.5991279,-0.97493684
convnext_large,1,393,NaN,dog,dog,16-10-10,0393_eid_dnn_16-10-10_dog_10_n02104029_8137.png,n02104029_8137.png,1.0,0.55275714,0.1719857,0.26924607
convnext_large,1,394,NaN,bicycle,bicycle,4-10-10,0394_eid_dnn_4-10-10_bicycle_10_n02835271_3990.png,n02835271_3990.png,1.0,6.6640744,0.47162026,4.3787265
convnext_large,1,395,NaN,bear,bear,4-10-10,0395_eid_dnn_4-10-10_bear_10_n02132136_24311.png,n02132136_24311.png,1.0,2.3100479,1.0788608,0.8705808
convnext_large,1,396,NaN,truck,truck,2-10-10,0396_eid_dnn_2-10-10_truck_10_n03796401_6966.png,n03796401_6966.png,1.0,2.2969987,0.40203077,1.3399447
convnext_large,1,397,NaN,knife,knife,1-10-10,0397_eid_dnn_1-10-10_knife_10_n03041632_8468.png,n03041632_8468.png,1.0,8.00667,0.29999647,5.4494414
convnext_large,1,398,NaN,cat,elephant,128-10-10,0398_eid_dnn_128-10-10_elephant_10_n02504458_6799.png,n02504458_6799.png,0.0,-0.97653025,1.0588785,-1.4392513
convnext_large,1,399,NaN,airplane,keyboard,16-10-10,0399_eid_dnn_16-10-10_keyboard_10_n03085013_24402.png,n03085013_24402.png,0.0,1.1051702,5.5206704,-3.12223
convnext_large,1,400,NaN,airplane,knife,16-10-10,0400_eid_dnn_16-10-10_knife_10_n03041632_25772.png,n03041632_25772.png,0.0,-0.18907703,1.824028,-1.4234803
convnext_large,1,401,NaN,airplane,elephant,32-10-10,0401_eid_dnn_32-10-10_elephant_10_n02504458_5839.png,n02504458_5839.png,0.0,-0.25050974,2.0705948,-1.6412687
convnext_large,1,402,NaN,airplane,elephant,64-10-10,0402_eid_dnn_64-10-10_elephant_10_n02504458_5178.png,n02504458_5178.png,0.0,-0.29316404,1.641203,-1.367804
convnext_large,1,403,NaN,airplane,bicycle,32-10-10,0403_eid_dnn_32-10-10_bicycle_10_n02835271_27014.png,n02835271_27014.png,0.0,0.100104615,1.6586785,-1.1020782
convnext_large,1,404,NaN,dog,car,128-10-10,0404_eid_dnn_128-10-10_car_10_n04285008_15218.png,n04285008_15218.png,0.0,-0.10325512,0.69700056,-0.56586623
convnext_large,1,405,NaN,bicycle,bicycle,8-10-10,0405_eid_dnn_8-10-10_bicycle_10_n02835271_19955.png,n02835271_19955.png,1.0,4.7424994,1.5422432,2.2629228
convnext_large,1,406,NaN,truck,truck,1-10-10,0406_eid_dnn_1-10-10_truck_10_n03796401_874.png,n03796401_874.png,1.0,1.8535264,0.44421846,0.99653125
convnext_large,1,407,NaN,dog,dog,2-10-10,0407_eid_dnn_2-10-10_dog_10_n02108915_6092.png,n02108915_6092.png,1.0,0.6432648,0.42391118,0.15510641
convnext_large,1,408,NaN,airplane,clock,16-10-10,0408_eid_dnn_16-10-10_clock_10_n04548280_6337.png,n04548280_6337.png,0.0,0.46528473,1.5077405,-0.7371276
convnext_large,1,409,NaN,boat,boat,4-10-10,0409_eid_dnn_4-10-10_boat_10_n04273569_1388.png,n04273569_1388.png,1.0,3.3658364,2.5774722,0.5574577
convnext_large,1,410,NaN,dog,clock,64-10-10,0410_eid_dnn_64-10-10_clock_10_n02708093_2676.png,n02708093_2676.png,0.0,-0.09223533,0.7305402,-0.58179015
convnext_large,1,411,NaN,airplane,dog,64-10-10,0411_eid_dnn_64-10-10_dog_10_n02107683_5424.png,n02107683_5424.png,0.0,-0.008806128,1.9731662,-1.4014661
convnext_large,1,412,NaN,chair,chair,1-10-10,0412_eid_dnn_1-10-10_chair_10_n04099969_29038.png,n04099969_29038.png,1.0,4.6182594,0.26488692,3.0782993
convnext_large,1,413,NaN,airplane,clock,16-10-10,0413_eid_dnn_16-10-10_clock_10_n04548280_3219.png,n04548280_3219.png,0.0,0.261347,1.3751583,-0.78758353
convnext_large,1,414,NaN,knife,clock,32-10-10,0414_eid_dnn_32-10-10_clock_10_n03196217_8282.png,n03196217_8282.png,0.0,0.2421304,2.8754907,-1.862067
convnext_large,1,415,NaN,airplane,oven,8-10-10,0415_eid_dnn_8-10-10_oven_10_n04111531_22041.png,n04111531_22041.png,0.0,-0.21641849,1.3406368,-1.1010044
convnext_large,1,416,NaN,bear,bear,8-10-10,0416_eid_dnn_8-10-10_bear_10_n02134084_6964.png,n02134084_6964.png,1.0,1.5572673,1.4409676,0.08223634
convnext_large,1,417,NaN,airplane,bicycle,64-10-10,0417_eid_dnn_64-10-10_bicycle_10_n03792782_11921.png,n03792782_11921.png,0.0,0.044289052,1.7386124,-1.1980675
convnext_large,1,418,NaN,knife,clock,8-10-10,0418_eid_dnn_8-10-10_clock_10_n04548280_1809.png,n04548280_1809.png,0.0,2.8198195,3.413113,-0.419522
convnext_large,1,419,NaN,bird,bird,4-10-10,0419_eid_dnn_4-10-10_bird_10_n01833805_202.png,n01833805_202.png,1.0,1.366194,0.68777883,0.47971198
convnext_large,1,420,NaN,cat,keyboard,64-10-10,0420_eid_dnn_64-10-10_keyboard_10_n03085013_7511.png,n03085013_7511.png,0.0,-0.3333454,0.9652006,-0.91821074
convnext_large,1,421,NaN,bird,bird,1-10-10,0421_eid_dnn_1-10-10_bird_10_n02025239_5287.png,n02025239_5287.png,1.0,1.1950164,0.90946573,0.2019148
convnext_large,1,422,NaN,airplane,boat,64-10-10,0422_eid_dnn_64-10-10_boat_10_n03662601_27960.png,n03662601_27960.png,0.0,0.2907084,1.2887387,-0.705714
convnext_large,1,423,NaN,chair,bottle,1-10-10,0423_eid_dnn_1-10-10_bottle_10_n04591713_6855.png,n04591713_6855.png,0.0,-0.4382167,0.6888217,-0.79693645
convnext_large,1,424,NaN,airplane,elephant,128-10-10,0424_eid_dnn_128-10-10_elephant_10_n02504013_4424.png,n02504013_4424.png,0.0,-0.35725468,2.1271355,-1.7567292
convnext_large,1,425,NaN,clock,clock,2-10-10,0425_eid_dnn_2-10-10_clock_10_n04548280_3295.png,n04548280_3295.png,1.0,4.2481728,0.51708734,2.6382759
convnext_large,1,426,NaN,airplane,airplane,1-10-10,0426_eid_dnn_1-10-10_airplane_10_n02690373_6144.png,n02690373_6144.png,1.0,8.919685,0.39740968,6.0261593
convnext_large,1,427,NaN,elephant,truck,32-10-10,0427_eid_dnn_32-10-10_truck_10_n04467665_70894.png,n04467665_70894.png,0.0,0.3824369,1.9400272,-1.1013827
convnext_large,1,428,NaN,airplane,boat,128-10-10,0428_eid_dnn_128-10-10_boat_10_n02951358_30474.png,n02951358_30474.png,0.0,0.77584463,1.9536387,-0.83282614
convnext_large,1,429,NaN,bear,bear,4-10-10,0429_eid_dnn_4-10-10_bear_10_n02132136_6434.png,n02132136_6434.png,1.0,4.7465415,0.57507086,2.9496753
convnext_large,1,430,NaN,cat,keyboard,32-10-10,0430_eid_dnn_32-10-10_keyboard_10_n04505470_5009.png,n04505470_5009.png,0.0,-0.15825865,1.6488897,-1.2778468
convnext_large,1,431,NaN,keyboard,keyboard,2-10-10,0431_eid_dnn_2-10-10_keyboard_10_n03085013_13005.png,n03085013_13005.png,1.0,7.0525055,0.93718934,4.3241816
convnext_large,1,432,NaN,chair,chair,1-10-10,0432_eid_dnn_1-10-10_chair_10_n03376595_6865.png,n03376595_6865.png,1.0,2.67821,0.46273705,1.566576
convnext_large,1,433,NaN,airplane,bicycle,32-10-10,0433_eid_dnn_32-10-10_bicycle_10_n02835271_6122.png,n02835271_6122.png,0.0,0.63129425,3.4141223,-1.9677566
convnext_large,1,434,NaN,airplane,oven,4-10-10,0434_eid_dnn_4-10-10_oven_10_n04111531_11499.png,n04111531_11499.png,0.0,0.16308317,0.8469782,-0.4835868
convnext_large,1,435,NaN,bird,bird,1-10-10,0435_eid_dnn_1-10-10_bird_10_n02009229_5765.png,n02009229_5765.png,1.0,0.84980804,0.630689,0.15494055
convnext_large,1,436,NaN,airplane,bottle,32-10-10,0436_eid_dnn_32-10-10_bottle_10_n04560804_2181.png,n04560804_2181.png,0.0,-0.16718352,1.9805917,-1.5187064
convnext_large,1,437,NaN,airplane,bicycle,32-10-10,0437_eid_dnn_32-10-10_bicycle_10_n03792782_3774.png,n03792782_3774.png,0.0,1.1541498,3.568633,-1.7072976
convnext_large,1,438,NaN,bear,bird,16-10-10,0438_eid_dnn_16-10-10_bird_10_n01614925_1683.png,n01614925_1683.png,0.0,-0.7213784,1.8572109,-1.8233379
convnext_large,1,439,NaN,clock,clock,8-10-10,0439_eid_dnn_8-10-10_clock_10_n02708093_4692.png,n02708093_4692.png,1.0,1.1352845,0.9404818,0.13774635
convnext_large,1,440,NaN,dog,dog,4-10-10,0440_eid_dnn_4-10-10_dog_10_n02109961_71298.png,n02109961_71298.png,1.0,0.90852237,0.38768315,0.36828893
convnext_large,1,441,NaN,keyboard,keyboard,2-10-10,0441_eid_dnn_2-10-10_keyboard_10_n03085013_23269.png,n03085013_23269.png,1.0,7.575368,0.39146376,5.0797873
convnext_large,1,442,NaN,elephant,elephant,2-10-10,0442_eid_dnn_2-10-10_elephant_10_n02504458_5614.png,n02504458_5614.png,1.0,6.122603,0.82440126,3.7463944
convnext_large,1,443,NaN,car,car,2-10-10,0443_eid_dnn_2-10-10_car_10_n04285008_4640.png,n04285008_4640.png,1.0,3.5996253,2.1164205,1.0487843
convnext_large,1,444,NaN,airplane,oven,128-10-10,0444_eid_dnn_128-10-10_oven_10_n04111531_6346.png,n04111531_6346.png,0.0,-1.6528207,1.6979225,-2.3693333
convnext_large,1,445,NaN,chair,chair,2-10-10,0445_eid_dnn_2-10-10_chair_10_n04099969_14851.png,n04099969_14851.png,1.0,3.6861606,0.28638697,2.404003
convnext_large,1,446,NaN,airplane,bird,64-10-10,0446_eid_dnn_64-10-10_bird_10_n02051845_534.png,n02051845_534.png,0.0,-0.6750092,1.5120311,-1.5464711
convnext_large,1,447,NaN,airplane,bird,128-10-10,0447_eid_dnn_128-10-10_bird_10_n02056570_9342.png,n02056570_9342.png,0.0,-0.7770213,1.6038066,-1.6834996
convnext_large,1,448,NaN,airplane,oven,16-10-10,0448_eid_dnn_16-10-10_oven_10_n04111531_4900.png,n04111531_4900.png,0.0,-0.7816985,3.196484,-2.813
convnext_large,1,449,NaN,airplane,boat,32-10-10,0449_eid_dnn_32-10-10_boat_10_n02951358_31973.png,n02951358_31973.png,0.0,1.003322,2.7459807,-1.2322458
convnext_large,1,450,NaN,keyboard,keyboard,4-10-10,0450_eid_dnn_4-10-10_keyboard_10_n03085013_19842.png,n03085013_19842.png,1.0,3.1813211,1.6069094,1.1132772
convnext_large,1,451,NaN,keyboard,keyboard,8-10-10,0451_eid_dnn_8-10-10_keyboard_10_n03085013_8296.png,n03085013_8296.png,1.0,2.9567442,1.4851503,1.040574
convnext_large,1,452,NaN,airplane,car,16-10-10,0452_eid_dnn_16-10-10_car_10_n03100240_3528.png,n03100240_3528.png,0.0,-0.22140203,2.1897264,-1.7049252
convnext_large,1,453,NaN,cat,cat,8-10-10,0453_eid_dnn_8-10-10_cat_10_n02123159_7210.png,n02123159_7210.png,1.0,2.4038775,0.8390149,1.106525
convnext_large,1,454,NaN,knife,knife,16-10-10,0454_eid_dnn_16-10-10_knife_10_n03041632_56172.png,n03041632_56172.png,1.0,6.09431,0.61703557,3.873018
convnext_large,1,455,NaN,oven,oven,4-10-10,0455_eid_dnn_4-10-10_oven_10_n04111531_2116.png,n04111531_2116.png,1.0,5.8284445,1.1285895,3.3232994
convnext_large,1,456,NaN,bicycle,bicycle,8-10-10,0456_eid_dnn_8-10-10_bicycle_10_n02835271_12477.png,n02835271_12477.png,1.0,2.8175256,0.84939045,1.3916817
convnext_large,1,457,NaN,knife,knife,2-10-10,0457_eid_dnn_2-10-10_knife_10_n03041632_42472.png,n03041632_42472.png,1.0,7.828523,0.21761346,5.381726
convnext_large,1,458,NaN,oven,oven,2-10-10,0458_eid_dnn_2-10-10_oven_10_n04111531_8818.png,n04111531_8818.png,1.0,7.0688424,1.2729807,4.0982933
convnext_large,1,459,NaN,truck,truck,2-10-10,0459_eid_dnn_2-10-10_truck_10_n04467665_67115.png,n04467665_67115.png,1.0,2.4046273,1.4743713,0.65779036
convnext_large,1,460,NaN,bird,bird,4-10-10,0460_eid_dnn_4-10-10_bird_10_n02011460_3521.png,n02011460_3521.png,1.0,0.91476357,0.6696926,0.17329137
convnext_large,1,461,NaN,airplane,bear,64-10-10,0461_eid_dnn_64-10-10_bear_10_n02133161_3533.png,n02133161_3533.png,0.0,0.06044565,1.7825322,-1.217699
convnext_large,1,462,NaN,airplane,bird,8-10-10,0462_eid_dnn_8-10-10_bird_10_n02013706_637.png,n02013706_637.png,0.0,0.086777344,0.7628658,-0.47806674
convnext_large,1,463,NaN,airplane,bear,64-10-10,0463_eid_dnn_64-10-10_bear_10_n02132136_29636.png,n02132136_29636.png,0.0,-0.026704274,1.2812803,-0.9248848
convnext_large,1,464,NaN,bicycle,bicycle,2-10-10,0464_eid_dnn_2-10-10_bicycle_10_n02835271_634.png,n02835271_634.png,1.0,5.047115,0.87896657,2.9473257
convnext_large,1,465,NaN,keyboard,keyboard,1-10-10,0465_eid_dnn_1-10-10_keyboard_10_n04505470_4621.png,n04505470_4621.png,1.0,5.5697994,1.3028121,3.0172157
convnext_large,1,466,NaN,airplane,bear,16-10-10,0466_eid_dnn_16-10-10_bear_10_n02134084_2844.png,n02134084_2844.png,0.0,0.3560981,3.0471106,-1.9028331
convnext_large,1,467,NaN,bicycle,bicycle,4-10-10,0467_eid_dnn_4-10-10_bicycle_10_n03792782_17088.png,n03792782_17088.png,1.0,5.1188345,0.6790866,3.139376
convnext_large,1,468,NaN,clock,clock,4-10-10,0468_eid_dnn_4-10-10_clock_10_n03196217_8706.png,n03196217_8706.png,1.0,4.280997,0.8732226,2.4096603
convnext_large,1,469,NaN,oven,oven,4-10-10,0469_eid_dnn_4-10-10_oven_10_n04111531_15052.png,n04111531_15052.png,1.0,2.178914,1.473168,0.49903783
convnext_large,1,470,NaN,airplane,bottle,16-10-10,0470_eid_dnn_16-10-10_bottle_10_n04560804_5769.png,n04560804_5769.png,0.0,-0.50389206,2.983159,-2.4657176
convnext_large,1,471,NaN,airplane,dog,128-10-10,0471_eid_dnn_128-10-10_dog_10_n02110063_14116.png,n02110063_14116.png,0.0,-0.14515263,0.99848306,-0.8086726
convnext_large,1,472,NaN,airplane,cat,32-10-10,0472_eid_dnn_32-10-10_cat_10_n02124075_3609.png,n02124075_3609.png,0.0,0.59200525,2.6478648,-1.4537122
convnext_large,1,473,NaN,airplane,airplane,32-10-10,0473_eid_dnn_32-10-10_airplane_10_n02690373_10926.png,n02690373_10926.png,1.0,0.6367676,0.34560475,0.20588325
convnext_large,1,474,NaN,airplane,bird,16-10-10,0474_eid_dnn_16-10-10_bird_10_n02033041_7229.png,n02033041_7229.png,0.0,-0.15457645,3.282554,-2.4304183
convnext_large,1,475,NaN,bear,bird,2-10-10,0475_eid_dnn_2-10-10_bird_10_n02006656_611.png,n02006656_611.png,0.0,0.25962698,0.2666777,-0.004985614
convnext_large,1,476,NaN,dog,bear,16-10-10,0476_eid_dnn_16-10-10_bear_10_n02133161_958.png,n02133161_958.png,0.0,-0.036039807,0.96893257,-0.7106228
convnext_large,1,477,NaN,airplane,bird,8-10-10,0477_eid_dnn_8-10-10_bird_10_n01843065_148.png,n01843065_148.png,0.0,1.3056873,3.39963,-1.4806411
convnext_large,1,478,NaN,airplane,cat,32-10-10,0478_eid_dnn_32-10-10_cat_10_n02123597_13623.png,n02123597_13623.png,0.0,0.18822165,2.1324682,-1.37479
convnext_large,1,479,NaN,bicycle,bicycle,8-10-10,0479_eid_dnn_8-10-10_bicycle_10_n02835271_12957.png,n02835271_12957.png,1.0,1.2349334,1.0381765,0.1391281
convnext_large,1,480,NaN,knife,knife,8-10-10,0480_eid_dnn_8-10-10_knife_10_n03041632_96714.png,n03041632_96714.png,1.0,2.3527157,1.9167652,0.30826357
convnext_large,1,481,NaN,dog,bear,128-10-10,0481_eid_dnn_128-10-10_bear_10_n02133161_3550.png,n02133161_3550.png,0.0,0.46912086,1.0257386,-0.3935882
convnext_large,1,482,NaN,airplane,airplane,2-10-10,0482_eid_dnn_2-10-10_airplane_10_n02690373_4471.png,n02690373_4471.png,1.0,8.563952,0.32531217,5.8255982
convnext_large,1,483,NaN,airplane,airplane,64-10-10,0483_eid_dnn_64-10-10_airplane_10_n02690373_2026.png,n02690373_2026.png,1.0,2.257094,0.81703883,1.0182728
convnext_large,1,484,NaN,car,car,1-10-10,0484_eid_dnn_1-10-10_car_10_n03100240_18270.png,n03100240_18270.png,1.0,5.9842,1.5401819,3.1423955
convnext_large,1,485,NaN,clock,elephant,128-10-10,0485_eid_dnn_128-10-10_elephant_10_n02504458_5204.png,n02504458_5204.png,0.0,-0.8359671,0.8203407,-1.1711866
convnext_large,1,486,NaN,oven,oven,1-10-10,0486_eid_dnn_1-10-10_oven_10_n04111531_10339.png,n04111531_10339.png,1.0,7.6535454,1.3316562,4.4702506
convnext_large,1,487,NaN,elephant,elephant,2-10-10,0487_eid_dnn_2-10-10_elephant_10_n02504458_12705.png,n02504458_12705.png,1.0,6.9845476,0.72573864,4.4256463
convnext_large,1,488,NaN,boat,boat,1-10-10,0488_eid_dnn_1-10-10_boat_10_n03344393_9268.png,n03344393_9268.png,1.0,1.8521576,0.88488483,0.68396515
convnext_large,1,489,NaN,airplane,bicycle,16-10-10,0489_eid_dnn_16-10-10_bicycle_10_n02835271_23173.png,n02835271_23173.png,0.0,0.43576786,1.6067543,-0.82801247
convnext_large,1,490,NaN,airplane,knife,32-10-10,0490_eid_dnn_32-10-10_knife_10_n03041632_43975.png,n03041632_43975.png,0.0,-0.3444503,1.5450656,-1.3360895
convnext_large,1,491,NaN,bottle,bicycle,128-10-10,0491_eid_dnn_128-10-10_bicycle_10_n03792782_3299.png,n03792782_3299.png,0.0,-0.26499945,0.95120126,-0.8599838
convnext_large,1,492,NaN,airplane,boat,32-10-10,0492_eid_dnn_32-10-10_boat_10_n04273569_5679.png,n04273569_5679.png,0.0,2.7733796,3.6576028,-0.62524027
convnext_large,1,493,NaN,cat,bird,32-10-10,0493_eid_dnn_32-10-10_bird_10_n02056570_10127.png,n02056570_10127.png,0.0,-0.6166021,0.80874276,-1.0078712
convnext_large,1,494,NaN,airplane,bear,32-10-10,0494_eid_dnn_32-10-10_bear_10_n02133161_7688.png,n02133161_7688.png,0.0,0.20156649,2.6836035,-1.7550653
convnext_large,1,495,NaN,airplane,cat,16-10-10,0495_eid_dnn_16-10-10_cat_10_n02123597_624.png,n02123597_624.png,0.0,0.70919085,1.9365278,-0.86785835
convnext_large,1,496,NaN,airplane,bird,64-10-10,0496_eid_dnn_64-10-10_bird_10_n01560419_3399.png,n01560419_3399.png,0.0,-0.67949414,1.7836046,-1.7416738
convnext_large,1,497,NaN,airplane,cat,32-10-10,0497_eid_dnn_32-10-10_cat_10_n02123045_12762.png,n02123045_12762.png,0.0,0.17846145,2.4346251,-1.5953486
convnext_large,1,498,NaN,knife,car,16-10-10,0498_eid_dnn_16-10-10_car_10_n02814533_7247.png,n02814533_7247.png,0.0,0.14616233,2.2161462,-1.4636997
convnext_large,1,499,NaN,keyboard,keyboard,4-10-10,0499_eid_dnn_4-10-10_keyboard_10_n03085013_4941.png,n03085013_4941.png,1.0,7.17677,0.919351,4.4246635
convnext_large,1,500,NaN,truck,truck,4-10-10,0500_eid_dnn_4-10-10_truck_10_n03417042_6420.png,n03417042_6420.png,1.0,2.3378828,0.49736878,1.3014399
convnext_large,1,501,NaN,airplane,boat,64-10-10,0501_eid_dnn_64-10-10_boat_10_n03662601_2120.png,n03662601_2120.png,0.0,0.5987409,1.4128718,-0.5756775
convnext_large,1,502,NaN,bear,bear,2-10-10,0502_eid_dnn_2-10-10_bear_10_n02134084_7331.png,n02134084_7331.png,1.0,3.1837723,0.71120054,1.7483723
convnext_large,1,503,NaN,airplane,bottle,32-10-10,0503_eid_dnn_32-10-10_bottle_10_n02823428_906.png,n02823428_906.png,0.0,-0.52676755,2.1749918,-1.9104323
convnext_large,1,504,NaN,airplane,cat,16-10-10,0504_eid_dnn_16-10-10_cat_10_n02123394_270.png,n02123394_270.png,0.0,0.77637106,3.1501994,-1.6785502
convnext_large,1,505,NaN,boat,boat,2-10-10,0505_eid_dnn_2-10-10_boat_10_n02951358_1910.png,n02951358_1910.png,1.0,2.2403455,0.2908867,1.3784755
convnext_large,1,506,NaN,dog,knife,4-10-10,0506_eid_dnn_4-10-10_knife_10_n03041632_23678.png,n03041632_23678.png,0.0,0.5848852,1.4621711,-0.6203348
convnext_large,1,507,NaN,airplane,car,16-10-10,0507_eid_dnn_16-10-10_car_10_n02814533_31083.png,n02814533_31083.png,0.0,0.7389676,2.917575,-1.5405079
convnext_large,1,508,NaN,keyboard,keyboard,1-10-10,0508_eid_dnn_1-10-10_keyboard_10_n04505470_2881.png,n04505470_2881.png,1.0,6.630082,0.46676633,4.3581223
convnext_large,1,509,NaN,cat,cat,8-10-10,0509_eid_dnn_8-10-10_cat_10_n02125311_2923.png,n02125311_2923.png,1.0,1.3737854,1.2854651,0.062451854
convnext_large,1,510,NaN,bicycle,bicycle,2-10-10,0510_eid_dnn_2-10-10_bicycle_10_n03792782_2598.png,n03792782_2598.png,1.0,6.8723645,0.46803916,4.528542
convnext_large,1,511,NaN,car,car,2-10-10,0511_eid_dnn_2-10-10_car_10_n03100240_4460.png,n03100240_4460.png,1.0,5.9461884,0.48584872,3.8610432
convnext_large,1,512,NaN,knife,knife,4-10-10,0512_eid_dnn_4-10-10_knife_10_n03041632_29920.png,n03041632_29920.png,1.0,5.9317074,1.2589171,3.304162
convnext_large,1,513,NaN,airplane,bird,32-10-10,0513_eid_dnn_32-10-10_bird_10_n01796340_3845.png,n01796340_3845.png,0.0,-0.6629699,1.821317,-1.756656
convnext_large,1,514,NaN,keyboard,keyboard,8-10-10,0514_eid_dnn_8-10-10_keyboard_10_n03085013_21932.png,n03085013_21932.png,1.0,5.4796267,1.4044214,2.8816054
convnext_large,1,515,NaN,bottle,bottle,1-10-10,0515_eid_dnn_1-10-10_bottle_10_n02823428_64.png,n02823428_64.png,1.0,3.2043304,0.72179216,1.7554196
convnext_large,1,516,NaN,airplane,chair,8-10-10,0516_eid_dnn_8-10-10_chair_10_n04099969_4374.png,n04099969_4374.png,0.0,0.6021316,1.1972251,-0.42079464
convnext_large,1,517,NaN,clock,clock,1-10-10,0517_eid_dnn_1-10-10_clock_10_n02708093_8257.png,n02708093_8257.png,1.0,5.2623158,0.62347084,3.2801588
convnext_large,1,518,NaN,airplane,knife,16-10-10,0518_eid_dnn_16-10-10_knife_10_n03041632_45569.png,n03041632_45569.png,0.0,-0.63280374,2.5472674,-2.2486498
convnext_large,1,519,NaN,cat,chair,128-10-10,0519_eid_dnn_128-10-10_chair_10_n04099969_1850.png,n04099969_1850.png,0.0,-0.54747856,1.0524367,-1.1313109
convnext_large,1,520,NaN,dog,dog,2-10-10,0520_eid_dnn_2-10-10_dog_10_n02092002_2008.png,n02092002_2008.png,1.0,0.5240457,0.23423333,0.20492831
convnext_large,1,521,NaN,bicycle,bicycle,8-10-10,0521_eid_dnn_8-10-10_bicycle_10_n02835271_8105.png,n02835271_8105.png,1.0,3.2352476,2.5663598,0.47297513
convnext_large,1,522,NaN,cat,oven,64-10-10,0522_eid_dnn_64-10-10_oven_10_n04111531_14126.png,n04111531_14126.png,0.0,-1.0637946,0.989696,-1.4520372
convnext_large,1,523,NaN,elephant,elephant,4-10-10,0523_eid_dnn_4-10-10_elephant_10_n02504013_13766.png,n02504013_13766.png,1.0,5.059432,1.3534302,2.620539
convnext_large,1,524,NaN,airplane,bicycle,64-10-10,0524_eid_dnn_64-10-10_bicycle_10_n02835271_18361.png,n02835271_18361.png,0.0,-0.60551006,0.9413316,-1.0937822
convnext_large,1,525,NaN,elephant,bird,8-10-10,0525_eid_dnn_8-10-10_bird_10_n01582220_4708.png,n01582220_4708.png,0.0,-0.7316102,0.72027713,-1.0266395
convnext_large,1,526,NaN,airplane,chair,16-10-10,0526_eid_dnn_16-10-10_chair_10_n04099969_101.png,n04099969_101.png,0.0,-0.44973385,1.9020638,-1.6629721
convnext_large,1,527,NaN,cat,cat,1-10-10,0527_eid_dnn_1-10-10_cat_10_n02124075_724.png,n02124075_724.png,1.0,2.9577923,0.82292056,1.5095823
convnext_large,1,528,NaN,bicycle,bicycle,32-10-10,0528_eid_dnn_32-10-10_bicycle_10_n02835271_43.png,n02835271_43.png,1.0,1.1936963,1.191013,0.0018973668
convnext_large,1,529,NaN,bird,bird,2-10-10,0529_eid_dnn_2-10-10_bird_10_n02017213_5362.png,n02017213_5362.png,1.0,1.0224832,0.42318082,0.42377082
convnext_large,1,530,NaN,knife,dog,1-10-10,0530_eid_dnn_1-10-10_dog_10_n02088466_1769.png,n02088466_1769.png,0.0,0.25863448,0.5731226,-0.2223767
convnext_large,1,531,NaN,bear,bear,1-10-10,0531_eid_dnn_1-10-10_bear_10_n02133161_5653.png,n02133161_5653.png,1.0,5.4666367,0.37619928,3.5994828
convnext_large,1,532,NaN,dog,dog,1-10-10,0532_eid_dnn_1-10-10_dog_10_n02098105_4676.png,n02098105_4676.png,1.0,0.7262613,0.110523425,0.43539247
convnext_large,1,533,NaN,cat,cat,2-10-10,0533_eid_dnn_2-10-10_cat_10_n02123045_3593.png,n02123045_3593.png,1.0,4.883353,0.50507826,3.095908
convnext_large,1,534,NaN,airplane,bottle,8-10-10,0534_eid_dnn_8-10-10_bottle_10_n04560804_265.png,n04560804_265.png,0.0,-0.12359897,1.0695224,-0.84366417
convnext_large,1,535,NaN,cat,knife,128-10-10,0535_eid_dnn_128-10-10_knife_10_n03041632_1556.png,n03041632_1556.png,0.0,-0.2853693,1.4353641,-1.2167423
convnext_large,1,536,NaN,chair,chair,4-10-10,0536_eid_dnn_4-10-10_chair_10_n02791124_9595.png,n02791124_9595.png,1.0,2.9112034,0.7098219,1.5566118
convnext_large,1,537,NaN,elephant,dog,32-10-10,0537_eid_dnn_32-10-10_dog_10_n02107312_2933.png,n02107312_2933.png,0.0,0.28142253,4.7769866,-3.1788437
convnext_large,1,538,NaN,airplane,oven,32-10-10,0538_eid_dnn_32-10-10_oven_10_n04111531_101.png,n04111531_101.png,0.0,-0.73798215,1.6201237,-1.6674327
convnext_large,1,539,NaN,truck,truck,4-10-10,0539_eid_dnn_4-10-10_truck_10_n03417042_7204.png,n03417042_7204.png,1.0,3.075853,1.2506862,1.2905879
convnext_large,1,540,NaN,airplane,bear,64-10-10,0540_eid_dnn_64-10-10_bear_10_n02132136_2120.png,n02132136_2120.png,0.0,-0.04649034,2.7687037,-1.9906429
convnext_large,1,541,NaN,airplane,airplane,64-10-10,0541_eid_dnn_64-10-10_airplane_10_n02690373_18412.png,n02690373_18412.png,1.0,1.0994642,0.6719546,0.30229494
convnext_large,1,542,NaN,cat,knife,128-10-10,0542_eid_dnn_128-10-10_knife_10_n03041632_21017.png,n03041632_21017.png,0.0,-0.47138727,0.36909792,-0.5943128
convnext_large,1,543,NaN,cat,elephant,128-10-10,0543_eid_dnn_128-10-10_elephant_10_n02504458_8414.png,n02504458_8414.png,0.0,-0.11678359,1.5132583,-1.1526138
convnext_large,1,544,NaN,airplane,bottle,128-10-10,0544_eid_dnn_128-10-10_bottle_10_n04557648_11046.png,n04557648_11046.png,0.0,-0.19769825,1.5728377,-1.251958
convnext_large,1,545,NaN,cat,clock,64-10-10,0545_eid_dnn_64-10-10_clock_10_n03196217_10578.png,n03196217_10578.png,0.0,-0.32143906,1.0915569,-0.999139
convnext_large,1,546,NaN,bear,bear,2-10-10,0546_eid_dnn_2-10-10_bear_10_n02134418_3213.png,n02134418_3213.png,1.0,2.8930435,0.8324373,1.4570687
convnext_large,1,547,NaN,airplane,clock,64-10-10,0547_eid_dnn_64-10-10_clock_10_n03196217_6289.png,n03196217_6289.png,0.0,-0.6537942,2.1688828,-1.9959341
convnext_large,1,548,NaN,airplane,dog,32-10-10,0548_eid_dnn_32-10-10_dog_10_n02096294_1498.png,n02096294_1498.png,0.0,0.49467754,2.5181432,-1.4308063
convnext_large,1,549,NaN,airplane,oven,16-10-10,0549_eid_dnn_16-10-10_oven_10_n04111531_519.png,n04111531_519.png,0.0,-0.8095145,1.8597367,-1.8874457
convnext_large,1,550,NaN,bird,bird,1-10-10,0550_eid_dnn_1-10-10_bird_10_n01531178_14959.png,n01531178_14959.png,1.0,1.6473641,0.74473953,0.638252
convnext_large,1,551,NaN,airplane,bear,32-10-10,0551_eid_dnn_32-10-10_bear_10_n02132136_8754.png,n02132136_8754.png,0.0,0.2075639,3.3866434,-2.2479486
convnext_large,1,552,NaN,car,car,1-10-10,0552_eid_dnn_1-10-10_car_10_n02814533_73067.png,n02814533_73067.png,1.0,5.1235676,1.968404,2.2310376
convnext_large,1,553,NaN,cat,cat,8-10-10,0553_eid_dnn_8-10-10_cat_10_n02124075_15378.png,n02124075_15378.png,1.0,1.5846103,1.0130317,0.40416712
convnext_large,1,554,NaN,airplane,bird,128-10-10,0554_eid_dnn_128-10-10_bird_10_n01592084_7569.png,n01592084_7569.png,0.0,-0.5328943,1.7318387,-1.6014081
convnext_large,1,555,NaN,airplane,dog,128-10-10,0555_eid_dnn_128-10-10_dog_10_n02094114_3395.png,n02094114_3395.png,0.0,0.3981183,1.8738223,-1.0434804
convnext_large,1,556,NaN,chair,chair,4-10-10,0556_eid_dnn_4-10-10_chair_10_n03376595_1712.png,n03376595_1712.png,1.0,2.8860269,0.8698871,1.4256262
convnext_large,1,557,NaN,airplane,bear,64-10-10,0557_eid_dnn_64-10-10_bear_10_n02134084_622.png,n02134084_622.png,0.0,-0.07724082,1.2509092,-0.9391439
convnext_large,1,558,NaN,knife,clock,8-10-10,0558_eid_dnn_8-10-10_clock_10_n03196217_4912.png,n03196217_4912.png,0.0,1.9850006,2.4070306,-0.29842025
convnext_large,1,559,NaN,airplane,car,64-10-10,0559_eid_dnn_64-10-10_car_10_n03100240_18815.png,n03100240_18815.png,0.0,-0.15618305,2.505417,-1.8820355
convnext_large,1,560,NaN,chair,chair,2-10-10,0560_eid_dnn_2-10-10_chair_10_n04099969_2020.png,n04099969_2020.png,1.0,3.9163458,0.19962424,2.628119
convnext_large,1,561,NaN,bear,bear,1-10-10,0561_eid_dnn_1-10-10_bear_10_n02132136_7647.png,n02132136_7647.png,1.0,5.4641685,0.5983714,3.440638
convnext_large,1,562,NaN,cat,oven,128-10-10,0562_eid_dnn_128-10-10_oven_10_n04111531_2796.png,n04111531_2796.png,0.0,-2.2565975,1.8411013,-2.8975105
convnext_large,1,563,NaN,cat,truck,64-10-10,0563_eid_dnn_64-10-10_truck_10_n03796401_9472.png,n03796401_9472.png,0.0,-0.5075599,1.3099712,-1.2851886
convnext_large,1,564,NaN,chair,chair,4-10-10,0564_eid_dnn_4-10-10_chair_10_n03376595_12433.png,n03376595_12433.png,1.0,4.0837913,1.3719404,1.9175682
convnext_large,1,565,NaN,truck,truck,4-10-10,0565_eid_dnn_4-10-10_truck_10_n04467665_31539.png,n04467665_31539.png,1.0,4.61255,2.0841548,1.7878453
convnext_large,1,566,NaN,airplane,airplane,32-10-10,0566_eid_dnn_32-10-10_airplane_10_n02690373_10657.png,n02690373_10657.png,1.0,3.5517862,1.7355455,1.2842761
convnext_large,1,567,NaN,airplane,truck,16-10-10,0567_eid_dnn_16-10-10_truck_10_n03796401_5963.png,n03796401_5963.png,0.0,-0.1403967,2.9693017,-2.1988888
convnext_large,1,568,NaN,airplane,dog,64-10-10,0568_eid_dnn_64-10-10_dog_10_n02096294_2233.png,n02096294_2233.png,0.0,0.5340577,2.5851848,-1.450366
convnext_large,1,569,NaN,airplane,airplane,128-10-10,0569_eid_dnn_128-10-10_airplane_10_n02690373_4873.png,n02690373_4873.png,1.0,1.4031628,1.2797804,0.08724457
convnext_large,1,570,NaN,truck,truck,1-10-10,0570_eid_dnn_1-10-10_truck_10_n04467665_4825.png,n04467665_4825.png,1.0,3.0439124,0.73926944,1.6296287
convnext_large,1,571,NaN,airplane,chair,16-10-10,0571_eid_dnn_16-10-10_chair_10_n04099969_1704.png,n04099969_1704.png,0.0,0.6800064,1.7443752,-0.7526224
convnext_large,1,572,NaN,bicycle,bicycle,2-10-10,0572_eid_dnn_2-10-10_bicycle_10_n02835271_1573.png,n02835271_1573.png,1.0,5.7917767,1.0752113,3.3351152
convnext_large,1,573,NaN,boat,boat,2-10-10,0573_eid_dnn_2-10-10_boat_10_n04273569_12725.png,n04273569_12725.png,1.0,2.7222033,0.72697484,1.4108396
convnext_large,1,574,NaN,cat,knife,128-10-10,0574_eid_dnn_128-10-10_knife_10_n03041632_11285.png,n03041632_11285.png,0.0,-0.6854878,1.3114763,-1.4120669
convnext_large,1,575,NaN,clock,clock,4-10-10,0575_eid_dnn_4-10-10_clock_10_n03196217_8254.png,n03196217_8254.png,1.0,4.1053834,2.682269,1.0062938
convnext_large,1,576,NaN,airplane,knife,16-10-10,0576_eid_dnn_16-10-10_knife_10_n03041632_15099.png,n03041632_15099.png,0.0,-0.6718766,3.3206422,-2.8231373
convnext_large,1,577,NaN,airplane,cat,64-10-10,0577_eid_dnn_64-10-10_cat_10_n02125311_30452.png,n02125311_30452.png,0.0,0.5537519,1.2125465,-0.46583813
convnext_large,1,578,NaN,airplane,bottle,32-10-10,0578_eid_dnn_32-10-10_bottle_10_n04591713_6804.png,n04591713_6804.png,0.0,-0.3997868,1.9093983,-1.6328404
convnext_large,1,579,NaN,airplane,dog,64-10-10,0579_eid_dnn_64-10-10_dog_10_n02088364_14369.png,n02088364_14369.png,0.0,0.57198083,1.6801462,-0.7835913
convnext_large,1,580,NaN,airplane,truck,32-10-10,0580_eid_dnn_32-10-10_truck_10_n03796401_16425.png,n03796401_16425.png,0.0,-0.23315008,1.8805782,-1.4946316
convnext_large,1,581,NaN,airplane,truck,64-10-10,0581_eid_dnn_64-10-10_truck_10_n03417042_5406.png,n03417042_5406.png,0.0,-0.14647558,1.7377572,-1.3323538
convnext_large,1,582,NaN,knife,knife,1-10-10,0582_eid_dnn_1-10-10_knife_10_n03041632_52929.png,n03041632_52929.png,1.0,4.7440357,0.22711082,3.1939483
convnext_large,1,583,NaN,bear,chair,64-10-10,0583_eid_dnn_64-10-10_chair_10_n03376595_4820.png,n03376595_4820.png,0.0,-0.2547853,1.1139233,-0.96782315
convnext_large,1,584,NaN,chair,chair,1-10-10,0584_eid_dnn_1-10-10_chair_10_n03376595_787.png,n03376595_787.png,1.0,2.6190891,0.22045407,1.6960912
convnext_large,1,585,NaN,chair,chair,2-10-10,0585_eid_dnn_2-10-10_chair_10_n03376595_7709.png,n03376595_7709.png,1.0,3.3691413,0.63145,1.9358401
convnext_large,1,586,NaN,bottle,bottle,1-10-10,0586_eid_dnn_1-10-10_bottle_10_n03983396_11006.png,n03983396_11006.png,1.0,3.4318213,1.0016316,1.7184036
convnext_large,1,587,NaN,oven,oven,8-10-10,0587_eid_dnn_8-10-10_oven_10_n04111531_458.png,n04111531_458.png,1.0,2.6975346,1.3035079,0.9857257
convnext_large,1,588,NaN,cat,cat,128-10-10,0588_eid_dnn_128-10-10_cat_10_n02123045_7829.png,n02123045_7829.png,1.0,1.9003663,1.2441974,0.4639815
convnext_large,1,589,NaN,bear,bear,1-10-10,0589_eid_dnn_1-10-10_bear_10_n02134418_4685.png,n02134418_4685.png,1.0,3.464407,0.87884,1.828272
convnext_large,1,590,NaN,airplane,knife,64-10-10,0590_eid_dnn_64-10-10_knife_10_n03041632_1964.png,n03041632_1964.png,0.0,0.73106825,1.7785107,-0.74065363
convnext_large,1,591,NaN,car,car,4-10-10,0591_eid_dnn_4-10-10_car_10_n03100240_17472.png,n03100240_17472.png,1.0,6.5672393,0.78965557,4.0853686
convnext_large,1,592,NaN,airplane,dog,16-10-10,0592_eid_dnn_16-10-10_dog_10_n02113023_1980.png,n02113023_1980.png,0.0,1.3353727,1.716847,-0.26974303
convnext_large,1,593,NaN,airplane,dog,32-10-10,0593_eid_dnn_32-10-10_dog_10_n02100735_6359.png,n02100735_6359.png,0.0,0.027107703,2.9814987,-2.0890698
convnext_large,1,594,NaN,knife,knife,1-10-10,0594_eid_dnn_1-10-10_knife_10_n03041632_31849.png,n03041632_31849.png,1.0,8.625316,3.0468757,3.9445527
convnext_large,1,595,NaN,airplane,bird,8-10-10,0595_eid_dnn_8-10-10_bird_10_n01532829_23378.png,n01532829_23378.png,0.0,0.2595226,3.0979362,-2.0070615
convnext_large,1,596,NaN,dog,clock,64-10-10,0596_eid_dnn_64-10-10_clock_10_n02708093_5127.png,n02708093_5127.png,0.0,-0.71580124,1.0924658,-1.2786379
convnext_large,1,597,NaN,bear,bear,4-10-10,0597_eid_dnn_4-10-10_bear_10_n02134084_12148.png,n02134084_12148.png,1.0,2.9887521,0.48650724,1.7693543
convnext_large,1,598,NaN,elephant,elephant,4-10-10,0598_eid_dnn_4-10-10_elephant_10_n02504458_63.png,n02504458_63.png,1.0,6.678488,1.1864017,3.8834913
convnext_large,1,599,NaN,airplane,dog,2-10-10,0599_eid_dnn_2-10-10_dog_10_n02108551_13160.png,n02108551_13160.png,0.0,0.46039307,0.5693863,-0.077069856
convnext_large,1,600,NaN,bicycle,bicycle,2-10-10,0600_eid_dnn_2-10-10_bicycle_10_n02835271_3215.png,n02835271_3215.png,1.0,5.5134215,0.38788474,3.624302
convnext_large,1,601,NaN,airplane,bicycle,16-10-10,0601_eid_dnn_16-10-10_bicycle_10_n03792782_14216.png,n03792782_14216.png,0.0,1.9400773,2.8607626,-0.65102285
convnext_large,1,602,NaN,bicycle,bicycle,2-10-10,0602_eid_dnn_2-10-10_bicycle_10_n03792782_25352.png,n03792782_25352.png,1.0,6.10062,0.6597925,3.847246
convnext_large,1,603,NaN,airplane,boat,128-10-10,0603_eid_dnn_128-10-10_boat_10_n04273569_1482.png,n04273569_1482.png,0.0,0.14724073,0.764335,-0.43635157
convnext_large,1,604,NaN,car,car,2-10-10,0604_eid_dnn_2-10-10_car_10_n02814533_59053.png,n02814533_59053.png,1.0,4.3968716,1.7296431,1.8860154
convnext_large,1,605,NaN,bear,airplane,128-10-10,0605_eid_dnn_128-10-10_airplane_10_n02690373_10462.png,n02690373_10462.png,0.0,0.5033015,0.7940612,-0.20559815
convnext_large,1,606,NaN,bottle,bottle,8-10-10,0606_eid_dnn_8-10-10_bottle_10_n04560804_15379.png,n04560804_15379.png,1.0,1.829549,0.48784065,0.94873106
convnext_large,1,607,NaN,airplane,chair,16-10-10,0607_eid_dnn_16-10-10_chair_10_n02791124_1140.png,n02791124_1140.png,0.0,-0.07442428,2.3353076,-1.7039378
convnext_large,1,608,NaN,dog,dog,8-10-10,0608_eid_dnn_8-10-10_dog_10_n02101388_24945.png,n02101388_24945.png,1.0,1.1164303,0.30080009,0.57673764
convnext_large,1,609,NaN,airplane,cat,64-10-10,0609_eid_dnn_64-10-10_cat_10_n02124075_20957.png,n02124075_20957.png,0.0,1.240604,1.2711987,-0.021633726
convnext_large,1,610,NaN,elephant,elephant,1-10-10,0610_eid_dnn_1-10-10_elephant_10_n02504013_8105.png,n02504013_8105.png,1.0,5.6718884,0.8095762,3.438174
convnext_large,1,611,NaN,truck,truck,2-10-10,0611_eid_dnn_2-10-10_truck_10_n03796401_13992.png,n03796401_13992.png,1.0,2.8823004,0.45609856,1.7155838
convnext_large,1,612,NaN,dog,bottle,128-10-10,0612_eid_dnn_128-10-10_bottle_10_n04560804_22426.png,n04560804_22426.png,0.0,-0.15890744,1.3721389,-1.0826132
convnext_large,1,613,NaN,cat,cat,1-10-10,0613_eid_dnn_1-10-10_cat_10_n02123159_2100.png,n02123159_2100.png,1.0,4.0297537,0.8256488,2.2656443
convnext_large,1,614,NaN,airplane,clock,64-10-10,0614_eid_dnn_64-10-10_clock_10_n02708093_6560.png,n02708093_6560.png,0.0,-0.051927358,2.6203403,-1.8895786
convnext_large,1,615,NaN,airplane,bird,1-10-10,0615_eid_dnn_1-10-10_bird_10_n01855032_4905.png,n01855032_4905.png,0.0,0.16232543,0.711298,-0.38818222
convnext_large,1,616,NaN,clock,clock,2-10-10,0616_eid_dnn_2-10-10_clock_10_n04548280_2616.png,n04548280_2616.png,1.0,4.58968,0.8551228,2.6407309
convnext_large,1,617,NaN,truck,truck,2-10-10,0617_eid_dnn_2-10-10_truck_10_n03417042_3789.png,n03417042_3789.png,1.0,2.0248017,0.65430135,0.9690901
convnext_large,1,618,NaN,airplane,oven,64-10-10,0618_eid_dnn_64-10-10_oven_10_n04111531_7356.png,n04111531_7356.png,0.0,-1.4800953,2.1715393,-2.5820956
convnext_large,1,619,NaN,cat,cat,4-10-10,0619_eid_dnn_4-10-10_cat_10_n02124075_18687.png,n02124075_18687.png,1.0,3.5526981,0.53832924,2.1314807
convnext_large,1,620,NaN,keyboard,keyboard,8-10-10,0620_eid_dnn_8-10-10_keyboard_10_n03085013_17884.png,n03085013_17884.png,1.0,6.61137,0.89871585,4.0394564
convnext_large,1,621,NaN,keyboard,keyboard,2-10-10,0621_eid_dnn_2-10-10_keyboard_10_n03085013_4780.png,n03085013_4780.png,1.0,6.773414,0.86317694,4.179169
convnext_large,1,622,NaN,airplane,cat,16-10-10,0622_eid_dnn_16-10-10_cat_10_n02123045_15476.png,n02123045_15476.png,0.0,1.2762209,1.3004937,-0.017163461
convnext_large,1,623,NaN,keyboard,keyboard,4-10-10,0623_eid_dnn_4-10-10_keyboard_10_n03085013_6095.png,n03085013_6095.png,1.0,3.060887,1.6054288,1.0291644
convnext_large,1,624,NaN,airplane,airplane,1-10-10,0624_eid_dnn_1-10-10_airplane_10_n02690373_18848.png,n02690373_18848.png,1.0,8.250583,0.30363834,5.619338
convnext_large,1,625,NaN,airplane,bicycle,16-10-10,0625_eid_dnn_16-10-10_bicycle_10_n02835271_18706.png,n02835271_18706.png,0.0,0.049551144,0.9996717,-0.67183673
convnext_large,1,626,NaN,dog,dog,1-10-10,0626_eid_dnn_1-10-10_dog_10_n02111500_1393.png,n02111500_1393.png,1.0,0.9462252,0.62659496,0.22601274
convnext_large,1,627,NaN,airplane,airplane,2-10-10,0627_eid_dnn_2-10-10_airplane_10_n02690373_5748.png,n02690373_5748.png,1.0,8.279493,0.81071454,5.2812243
convnext_large,1,628,NaN,airplane,dog,128-10-10,0628_eid_dnn_128-10-10_dog_10_n02100877_7049.png,n02100877_7049.png,0.0,0.3305529,1.0184959,-0.48644915
convnext_large,1,629,NaN,airplane,bear,32-10-10,0629_eid_dnn_32-10-10_bear_10_n02134084_6854.png,n02134084_6854.png,0.0,-0.013545126,3.0801768,-2.1875918
convnext_large,1,630,NaN,dog,bottle,16-10-10,0630_eid_dnn_16-10-10_bottle_10_n03983396_11402.png,n03983396_11402.png,0.0,-0.11246785,1.237744,-0.954744
convnext_large,1,631,NaN,cat,cat,64-10-10,0631_eid_dnn_64-10-10_cat_10_n02124075_2813.png,n02124075_2813.png,1.0,0.41983518,0.33158016,0.062405724
convnext_large,1,632,NaN,dog,keyboard,32-10-10,0632_eid_dnn_32-10-10_keyboard_10_n03085013_23814.png,n03085013_23814.png,0.0,-1.1502367,1.6503813,-1.9803362
convnext_large,1,633,NaN,cat,cat,2-10-10,0633_eid_dnn_2-10-10_cat_10_n02125311_30349.png,n02125311_30349.png,1.0,2.4033282,0.63453555,1.2507253
convnext_large,1,634,NaN,dog,bear,16-10-10,0634_eid_dnn_16-10-10_bear_10_n02133161_1234.png,n02133161_1234.png,0.0,0.63313293,1.3192917,-0.48518753
convnext_large,1,635,NaN,bear,oven,128-10-10,0635_eid_dnn_128-10-10_oven_10_n04111531_9779.png,n04111531_9779.png,0.0,-0.502187,1.6541924,-1.5247905
convnext_large,1,636,NaN,airplane,car,64-10-10,0636_eid_dnn_64-10-10_car_10_n02814533_19373.png,n02814533_19373.png,0.0,-0.42648068,2.3112547,-1.9358714
convnext_large,1,637,NaN,boat,bird,4-10-10,0637_eid_dnn_4-10-10_bird_10_n02051845_41380.png,n02051845_41380.png,0.0,0.5791716,0.7132564,-0.09481229
convnext_large,1,638,NaN,airplane,cat,16-10-10,0638_eid_dnn_16-10-10_cat_10_n02123159_2455.png,n02123159_2455.png,0.0,0.44393948,1.1896977,-0.52733076
convnext_large,1,639,NaN,knife,knife,8-10-10,0639_eid_dnn_8-10-10_knife_10_n03041632_23803.png,n03041632_23803.png,1.0,7.287116,2.7982566,3.1741028
convnext_large,1,640,NaN,airplane,boat,16-10-10,0640_eid_dnn_16-10-10_boat_10_n02951358_2013.png,n02951358_2013.png,0.0,1.0699863,2.3621273,-0.9136816
convnext_large,1,641,NaN,dog,bottle,64-10-10,0641_eid_dnn_64-10-10_bottle_10_n04591713_6561.png,n04591713_6561.png,0.0,-0.6444273,0.76045483,-0.99340177
convnext_large,1,642,NaN,cat,elephant,32-10-10,0642_eid_dnn_32-10-10_elephant_10_n02504013_12531.png,n02504013_12531.png,0.0,-0.42320594,0.95039076,-0.97127956
convnext_large,1,643,NaN,airplane,boat,64-10-10,0643_eid_dnn_64-10-10_boat_10_n04612504_4719.png,n04612504_4719.png,0.0,0.97669965,1.530052,-0.39127916
convnext_large,1,644,NaN,airplane,car,32-10-10,0644_eid_dnn_32-10-10_car_10_n02814533_46403.png,n02814533_46403.png,0.0,0.2001502,2.794674,-1.8346053
convnext_large,1,645,NaN,airplane,airplane,8-10-10,0645_eid_dnn_8-10-10_airplane_10_n02690373_8304.png,n02690373_8304.png,1.0,4.4492536,1.225239,2.2797225
convnext_large,1,646,NaN,airplane,boat,16-10-10,0646_eid_dnn_16-10-10_boat_10_n03662601_2686.png,n03662601_2686.png,0.0,1.4701045,1.5638392,-0.06628047
convnext_large,1,647,NaN,dog,dog,2-10-10,0647_eid_dnn_2-10-10_dog_10_n02099849_2787.png,n02099849_2787.png,1.0,1.1320952,0.09330404,0.7345363
convnext_large,1,648,NaN,elephant,elephant,1-10-10,0648_eid_dnn_1-10-10_elephant_10_n02504458_7063.png,n02504458_7063.png,1.0,5.4919643,1.819104,2.5971045
convnext_large,1,649,NaN,chair,chair,1-10-10,0649_eid_dnn_1-10-10_chair_10_n03376595_6938.png,n03376595_6938.png,1.0,2.5261188,0.8078836,1.2149757
convnext_large,1,650,NaN,airplane,chair,8-10-10,0650_eid_dnn_8-10-10_chair_10_n02791124_5191.png,n02791124_5191.png,0.0,0.29379755,1.0780247,-0.55453235
convnext_large,1,651,NaN,boat,boat,2-10-10,0651_eid_dnn_2-10-10_boat_10_n02951358_2350.png,n02951358_2350.png,1.0,3.7023327,1.0478984,1.8769685
convnext_large,1,652,NaN,bear,bear,8-10-10,0652_eid_dnn_8-10-10_bear_10_n02132136_6266.png,n02132136_6266.png,1.0,2.585819,2.1769757,0.28909585
convnext_large,1,653,NaN,airplane,chair,32-10-10,0653_eid_dnn_32-10-10_chair_10_n03376595_8964.png,n03376595_8964.png,0.0,0.007204145,2.8224003,-1.9906445
convnext_large,1,654,NaN,airplane,airplane,2-10-10,0654_eid_dnn_2-10-10_airplane_10_n02690373_4042.png,n02690373_4042.png,1.0,8.900946,0.3708379,6.031697
convnext_large,1,655,NaN,oven,oven,2-10-10,0655_eid_dnn_2-10-10_oven_10_n04111531_845.png,n04111531_845.png,1.0,8.680321,1.0017668,5.429558
convnext_large,1,656,NaN,airplane,car,32-10-10,0656_eid_dnn_32-10-10_car_10_n02814533_49630.png,n02814533_49630.png,0.0,-0.1549155,2.234142,-1.6893189
convnext_large,1,657,NaN,knife,knife,4-10-10,0657_eid_dnn_4-10-10_knife_10_n03041632_40450.png,n03041632_40450.png,1.0,6.97395,0.8296709,4.344661
