subj,session,trial,rt,object_response,category,condition,imagename,filename,is_correct,targ_act,max_nontarg_act,decision_margin
alexnet_w1_mlp_simclrhn_probe3,1,1,NaN,oven,oven,1-10-10,0001_eid_dnn_1-10-10_oven_10_n04111531_17072.png,n04111531_17072.png,1.0,2.2452297,0.5360349,1.2085834
alexnet_w1_mlp_simclrhn_probe3,1,2,NaN,bear,airplane,16-10-10,0002_eid_dnn_16-10-10_airplane_10_n02690373_4183.png,n02690373_4183.png,0.0,0.9157662,1.2120891,-0.20953192
alexnet_w1_mlp_simclrhn_probe3,1,3,NaN,oven,car,8-10-10,0003_eid_dnn_8-10-10_car_10_n03100240_1137.png,n03100240_1137.png,0.0,-0.3945193,1.0648445,-1.031926
alexnet_w1_mlp_simclrhn_probe3,1,4,NaN,clock,clock,2-10-10,0004_eid_dnn_2-10-10_clock_10_n04548280_7083.png,n04548280_7083.png,1.0,2.026243,0.6935421,0.94236183
alexnet_w1_mlp_simclrhn_probe3,1,5,NaN,bottle,bottle,2-10-10,0005_eid_dnn_2-10-10_bottle_10_n02823428_7810.png,n02823428_7810.png,1.0,1.393389,1.1068455,0.20261684
alexnet_w1_mlp_simclrhn_probe3,1,6,NaN,elephant,dog,128-10-10,0006_eid_dnn_128-10-10_dog_10_n02091244_8368.png,n02091244_8368.png,0.0,-0.116974875,0.96996367,-0.76858157
alexnet_w1_mlp_simclrhn_probe3,1,7,NaN,bicycle,bicycle,1-10-10,0007_eid_dnn_1-10-10_bicycle_10_n02835271_2930.png,n02835271_2930.png,1.0,4.797475,1.5889363,2.2687793
alexnet_w1_mlp_simclrhn_probe3,1,8,NaN,cat,knife,4-10-10,0008_eid_dnn_4-10-10_knife_10_n03041632_52848.png,n03041632_52848.png,0.0,-1.423595,1.1765251,-1.8385626
alexnet_w1_mlp_simclrhn_probe3,1,9,NaN,bottle,bottle,2-10-10,0009_eid_dnn_2-10-10_bottle_10_n02823428_4097.png,n02823428_4097.png,1.0,7.6237173,1.1421762,4.583142
alexnet_w1_mlp_simclrhn_probe3,1,10,NaN,dog,dog,8-10-10,0010_eid_dnn_8-10-10_dog_10_n02105641_10264.png,n02105641_10264.png,1.0,0.6441633,0.40776926,0.16715583
alexnet_w1_mlp_simclrhn_probe3,1,11,NaN,elephant,boat,8-10-10,0011_eid_dnn_8-10-10_boat_10_n03662601_10278.png,n03662601_10278.png,0.0,0.05016588,1.593771,-1.0914936
alexnet_w1_mlp_simclrhn_probe3,1,12,NaN,oven,truck,32-10-10,0012_eid_dnn_32-10-10_truck_10_n04467665_76958.png,n04467665_76958.png,0.0,-0.20672247,1.25012,-1.0301433
alexnet_w1_mlp_simclrhn_probe3,1,13,NaN,oven,dog,16-10-10,0013_eid_dnn_16-10-10_dog_10_n02088238_12552.png,n02088238_12552.png,0.0,-0.02740293,1.0269424,-0.7455347
alexnet_w1_mlp_simclrhn_probe3,1,14,NaN,bear,dog,8-10-10,0014_eid_dnn_8-10-10_dog_10_n02102040_994.png,n02102040_994.png,0.0,0.68587893,3.745294,-2.1633332
alexnet_w1_mlp_simclrhn_probe3,1,15,NaN,bear,bear,128-10-10,0015_eid_dnn_128-10-10_bear_10_n02133161_1944.png,n02133161_1944.png,1.0,1.191136,1.0959245,0.067324705
alexnet_w1_mlp_simclrhn_probe3,1,16,NaN,oven,car,16-10-10,0016_eid_dnn_16-10-10_car_10_n02814533_43040.png,n02814533_43040.png,0.0,-0.5899556,0.97396314,-1.1058576
alexnet_w1_mlp_simclrhn_probe3,1,17,NaN,bear,oven,128-10-10,0017_eid_dnn_128-10-10_oven_10_n04111531_18592.png,n04111531_18592.png,0.0,0.6409745,0.71070385,-0.049306083
alexnet_w1_mlp_simclrhn_probe3,1,18,NaN,oven,chair,16-10-10,0018_eid_dnn_16-10-10_chair_10_n02791124_4294.png,n02791124_4294.png,0.0,-0.22823447,1.375375,-1.1339232
alexnet_w1_mlp_simclrhn_probe3,1,19,NaN,oven,knife,32-10-10,0019_eid_dnn_32-10-10_knife_10_n03041632_2630.png,n03041632_2630.png,0.0,-0.027516194,1.2997987,-0.93855345
alexnet_w1_mlp_simclrhn_probe3,1,20,NaN,elephant,elephant,1-10-10,0020_eid_dnn_1-10-10_elephant_10_n02504458_723.png,n02504458_723.png,1.0,12.607457,4.6873937,5.600331
alexnet_w1_mlp_simclrhn_probe3,1,21,NaN,chair,chair,4-10-10,0021_eid_dnn_4-10-10_chair_10_n03376595_6107.png,n03376595_6107.png,1.0,1.5474311,0.8451803,0.49656633
alexnet_w1_mlp_simclrhn_probe3,1,22,NaN,oven,clock,32-10-10,0022_eid_dnn_32-10-10_clock_10_n03196217_1337.png,n03196217_1337.png,0.0,0.009660174,1.6667486,-1.1717385
alexnet_w1_mlp_simclrhn_probe3,1,23,NaN,bear,boat,128-10-10,0023_eid_dnn_128-10-10_boat_10_n02951358_9550.png,n02951358_9550.png,0.0,0.2894777,1.6149294,-0.93723595
alexnet_w1_mlp_simclrhn_probe3,1,24,NaN,bear,bird,128-10-10,0024_eid_dnn_128-10-10_bird_10_n01616318_2334.png,n01616318_2334.png,0.0,-0.48098436,1.1955047,-1.1854568
alexnet_w1_mlp_simclrhn_probe3,1,25,NaN,oven,bottle,32-10-10,0025_eid_dnn_32-10-10_bottle_10_n03937543_1658.png,n03937543_1658.png,0.0,1.007858,1.2399589,-0.16412008
alexnet_w1_mlp_simclrhn_probe3,1,26,NaN,elephant,elephant,2-10-10,0026_eid_dnn_2-10-10_elephant_10_n02504013_6731.png,n02504013_6731.png,1.0,3.070991,2.3507857,0.5092621
alexnet_w1_mlp_simclrhn_probe3,1,27,NaN,keyboard,keyboard,4-10-10,0027_eid_dnn_4-10-10_keyboard_10_n04505470_4447.png,n04505470_4447.png,1.0,8.139657,2.2000241,4.199955
alexnet_w1_mlp_simclrhn_probe3,1,28,NaN,airplane,airplane,1-10-10,0028_eid_dnn_1-10-10_airplane_10_n02690373_4839.png,n02690373_4839.png,1.0,7.306773,3.5865028,2.6306286
alexnet_w1_mlp_simclrhn_probe3,1,29,NaN,oven,keyboard,64-10-10,0029_eid_dnn_64-10-10_keyboard_10_n04505470_1651.png,n04505470_1651.png,0.0,0.050687224,1.1133316,-0.75140303
alexnet_w1_mlp_simclrhn_probe3,1,30,NaN,keyboard,keyboard,32-10-10,0030_eid_dnn_32-10-10_keyboard_10_n03085013_20601.png,n03085013_20601.png,1.0,0.702531,0.59893185,0.07325565
alexnet_w1_mlp_simclrhn_probe3,1,31,NaN,oven,airplane,64-10-10,0031_eid_dnn_64-10-10_airplane_10_n02690373_2217.png,n02690373_2217.png,0.0,0.024078716,0.6434095,-0.437933
alexnet_w1_mlp_simclrhn_probe3,1,32,NaN,bicycle,bicycle,4-10-10,0032_eid_dnn_4-10-10_bicycle_10_n03792782_25019.png,n03792782_25019.png,1.0,1.5230324,0.673477,0.6007264
alexnet_w1_mlp_simclrhn_probe3,1,33,NaN,cat,cat,8-10-10,0033_eid_dnn_8-10-10_cat_10_n02123597_13890.png,n02123597_13890.png,1.0,2.3212512,0.7934228,1.0803378
alexnet_w1_mlp_simclrhn_probe3,1,34,NaN,boat,boat,1-10-10,0034_eid_dnn_1-10-10_boat_10_n04612504_214.png,n04612504_214.png,1.0,8.673853,3.951216,3.3394089
alexnet_w1_mlp_simclrhn_probe3,1,35,NaN,oven,chair,128-10-10,0035_eid_dnn_128-10-10_chair_10_n02791124_2555.png,n02791124_2555.png,0.0,0.06562151,1.0235991,-0.6773925
alexnet_w1_mlp_simclrhn_probe3,1,36,NaN,elephant,car,4-10-10,0036_eid_dnn_4-10-10_car_10_n04285008_2081.png,n04285008_2081.png,0.0,0.84388417,1.8930347,-0.7418614
alexnet_w1_mlp_simclrhn_probe3,1,37,NaN,oven,dog,32-10-10,0037_eid_dnn_32-10-10_dog_10_n02094114_8202.png,n02094114_8202.png,0.0,0.3287689,1.0631485,-0.5192848
alexnet_w1_mlp_simclrhn_probe3,1,38,NaN,oven,chair,64-10-10,0038_eid_dnn_64-10-10_chair_10_n04099969_4541.png,n04099969_4541.png,0.0,-0.33569044,0.9352175,-0.8986676
alexnet_w1_mlp_simclrhn_probe3,1,39,NaN,oven,boat,128-10-10,0039_eid_dnn_128-10-10_boat_10_n04612504_12864.png,n04612504_12864.png,0.0,0.0044335844,1.2450403,-0.8772414
alexnet_w1_mlp_simclrhn_probe3,1,40,NaN,airplane,airplane,4-10-10,0040_eid_dnn_4-10-10_airplane_10_n02690373_18460.png,n02690373_18460.png,1.0,2.2952645,0.2698041,1.4322169
alexnet_w1_mlp_simclrhn_probe3,1,41,NaN,oven,bottle,64-10-10,0041_eid_dnn_64-10-10_bottle_10_n03983396_8982.png,n03983396_8982.png,0.0,-0.024296595,1.2877771,-0.9277762
alexnet_w1_mlp_simclrhn_probe3,1,42,NaN,bear,dog,16-10-10,0042_eid_dnn_16-10-10_dog_10_n02099601_10407.png,n02099601_10407.png,0.0,0.27183926,1.352726,-0.7643024
alexnet_w1_mlp_simclrhn_probe3,1,43,NaN,oven,airplane,32-10-10,0043_eid_dnn_32-10-10_airplane_10_n02690373_5253.png,n02690373_5253.png,0.0,-0.078404225,1.0213711,-0.7776586
alexnet_w1_mlp_simclrhn_probe3,1,44,NaN,elephant,elephant,2-10-10,0044_eid_dnn_2-10-10_elephant_10_n02504013_2832.png,n02504013_2832.png,1.0,13.227259,6.7956586,4.547828
alexnet_w1_mlp_simclrhn_probe3,1,45,NaN,oven,clock,1-10-10,0045_eid_dnn_1-10-10_clock_10_n02708093_8002.png,n02708093_8002.png,0.0,2.9697258,4.8968167,-1.3626591
alexnet_w1_mlp_simclrhn_probe3,1,46,NaN,chair,chair,2-10-10,0046_eid_dnn_2-10-10_chair_10_n03376595_1766.png,n03376595_1766.png,1.0,1.7250065,0.93733704,0.5569664
alexnet_w1_mlp_simclrhn_probe3,1,47,NaN,airplane,truck,2-10-10,0047_eid_dnn_2-10-10_truck_10_n03417042_17616.png,n03417042_17616.png,0.0,4.7608027,5.082597,-0.22754274
alexnet_w1_mlp_simclrhn_probe3,1,48,NaN,bear,bear,16-10-10,0048_eid_dnn_16-10-10_bear_10_n02134418_2804.png,n02134418_2804.png,1.0,2.4246488,0.9643654,1.0325762
alexnet_w1_mlp_simclrhn_probe3,1,49,NaN,bear,car,64-10-10,0049_eid_dnn_64-10-10_car_10_n04285008_12101.png,n04285008_12101.png,0.0,-0.4411939,1.3906434,-1.2953047
alexnet_w1_mlp_simclrhn_probe3,1,50,NaN,oven,bear,16-10-10,0050_eid_dnn_16-10-10_bear_10_n02134418_3828.png,n02134418_3828.png,0.0,0.75300443,0.867558,-0.08100161
alexnet_w1_mlp_simclrhn_probe3,1,51,NaN,bird,bird,2-10-10,0051_eid_dnn_2-10-10_bird_10_n01530575_5747.png,n01530575_5747.png,1.0,3.512632,0.26356357,2.2974381
alexnet_w1_mlp_simclrhn_probe3,1,52,NaN,oven,truck,128-10-10,0052_eid_dnn_128-10-10_truck_10_n03796401_3386.png,n03796401_3386.png,0.0,-0.28736424,1.5241816,-1.2809564
alexnet_w1_mlp_simclrhn_probe3,1,53,NaN,oven,keyboard,16-10-10,0053_eid_dnn_16-10-10_keyboard_10_n04505470_3234.png,n04505470_3234.png,0.0,0.7000152,1.085927,-0.27288088
alexnet_w1_mlp_simclrhn_probe3,1,54,NaN,airplane,truck,1-10-10,0054_eid_dnn_1-10-10_truck_10_n04467665_72639.png,n04467665_72639.png,0.0,0.94339633,4.156753,-2.2721863
alexnet_w1_mlp_simclrhn_probe3,1,55,NaN,oven,chair,32-10-10,0055_eid_dnn_32-10-10_chair_10_n04429376_27524.png,n04429376_27524.png,0.0,-0.08597898,2.1007383,-1.5462426
alexnet_w1_mlp_simclrhn_probe3,1,56,NaN,oven,bottle,64-10-10,0056_eid_dnn_64-10-10_bottle_10_n04557648_11440.png,n04557648_11440.png,0.0,0.15870044,0.7915066,-0.44746155
alexnet_w1_mlp_simclrhn_probe3,1,57,NaN,oven,keyboard,32-10-10,0057_eid_dnn_32-10-10_keyboard_10_n03085013_20216.png,n03085013_20216.png,0.0,-0.20814739,2.0875628,-1.6233122
alexnet_w1_mlp_simclrhn_probe3,1,58,NaN,bear,boat,8-10-10,0058_eid_dnn_8-10-10_boat_10_n02951358_34653.png,n02951358_34653.png,0.0,-0.14230077,1.7602831,-1.34533
alexnet_w1_mlp_simclrhn_probe3,1,59,NaN,keyboard,keyboard,2-10-10,0059_eid_dnn_2-10-10_keyboard_10_n03085013_8932.png,n03085013_8932.png,1.0,1.9576979,1.1384356,0.5793059
alexnet_w1_mlp_simclrhn_probe3,1,60,NaN,bear,cat,1-10-10,0060_eid_dnn_1-10-10_cat_10_n02125311_35338.png,n02125311_35338.png,0.0,0.8976197,0.93516743,-0.026550239
alexnet_w1_mlp_simclrhn_probe3,1,61,NaN,oven,bicycle,16-10-10,0061_eid_dnn_16-10-10_bicycle_10_n03792782_5449.png,n03792782_5449.png,0.0,0.21371314,1.4337358,-0.86268634
alexnet_w1_mlp_simclrhn_probe3,1,62,NaN,bicycle,bicycle,4-10-10,0062_eid_dnn_4-10-10_bicycle_10_n03792782_9432.png,n03792782_9432.png,1.0,1.2484112,0.48103455,0.54261726
alexnet_w1_mlp_simclrhn_probe3,1,63,NaN,oven,bottle,1-10-10,0063_eid_dnn_1-10-10_bottle_10_n04591713_4291.png,n04591713_4291.png,0.0,-0.14159511,1.0903194,-0.8710951
alexnet_w1_mlp_simclrhn_probe3,1,64,NaN,truck,truck,4-10-10,0064_eid_dnn_4-10-10_truck_10_n04467665_67057.png,n04467665_67057.png,1.0,1.6480435,0.86097026,0.55654484
alexnet_w1_mlp_simclrhn_probe3,1,65,NaN,oven,keyboard,1-10-10,0065_eid_dnn_1-10-10_keyboard_10_n03085013_22790.png,n03085013_22790.png,0.0,-0.9031028,1.5363837,-1.7249775
alexnet_w1_mlp_simclrhn_probe3,1,66,NaN,cat,dog,4-10-10,0066_eid_dnn_4-10-10_dog_10_n02086079_2896.png,n02086079_2896.png,0.0,0.37378776,1.1121116,-0.5220738
alexnet_w1_mlp_simclrhn_probe3,1,67,NaN,bear,knife,8-10-10,0067_eid_dnn_8-10-10_knife_10_n03041632_40508.png,n03041632_40508.png,0.0,-0.36265957,0.5055071,-0.61388654
alexnet_w1_mlp_simclrhn_probe3,1,68,NaN,airplane,boat,1-10-10,0068_eid_dnn_1-10-10_boat_10_n03344393_7942.png,n03344393_7942.png,0.0,1.5531094,2.3567944,-0.56829107
alexnet_w1_mlp_simclrhn_probe3,1,69,NaN,bear,bear,2-10-10,0069_eid_dnn_2-10-10_bear_10_n02134418_4352.png,n02134418_4352.png,1.0,3.6769376,1.4660766,1.5633148
alexnet_w1_mlp_simclrhn_probe3,1,70,NaN,oven,cat,16-10-10,0070_eid_dnn_16-10-10_cat_10_n02123045_5157.png,n02123045_5157.png,0.0,-0.06792402,1.6383399,-1.2065108
alexnet_w1_mlp_simclrhn_probe3,1,71,NaN,bear,dog,16-10-10,0071_eid_dnn_16-10-10_dog_10_n02109047_14287.png,n02109047_14287.png,0.0,0.3397934,1.2054807,-0.6121333
alexnet_w1_mlp_simclrhn_probe3,1,72,NaN,truck,truck,2-10-10,0072_eid_dnn_2-10-10_truck_10_n03417042_14274.png,n03417042_14274.png,1.0,2.047125,0.6261765,1.0047624
alexnet_w1_mlp_simclrhn_probe3,1,73,NaN,airplane,airplane,2-10-10,0073_eid_dnn_2-10-10_airplane_10_n02690373_5885.png,n02690373_5885.png,1.0,1.3473152,1.2833136,0.045255937
alexnet_w1_mlp_simclrhn_probe3,1,74,NaN,bear,cat,32-10-10,0074_eid_dnn_32-10-10_cat_10_n02123394_571.png,n02123394_571.png,0.0,0.4951681,0.84805024,-0.24952537
alexnet_w1_mlp_simclrhn_probe3,1,75,NaN,cat,cat,32-10-10,0075_eid_dnn_32-10-10_cat_10_n02123045_10171.png,n02123045_10171.png,1.0,1.0275663,0.79588914,0.1638205
alexnet_w1_mlp_simclrhn_probe3,1,76,NaN,bottle,bottle,8-10-10,0076_eid_dnn_8-10-10_bottle_10_n04560804_4909.png,n04560804_4909.png,1.0,1.309117,0.4468596,0.609708
alexnet_w1_mlp_simclrhn_probe3,1,77,NaN,keyboard,keyboard,8-10-10,0077_eid_dnn_8-10-10_keyboard_10_n03085013_7971.png,n03085013_7971.png,1.0,1.9424298,0.679605,0.89295197
alexnet_w1_mlp_simclrhn_probe3,1,78,NaN,oven,keyboard,16-10-10,0078_eid_dnn_16-10-10_keyboard_10_n03085013_21397.png,n03085013_21397.png,0.0,-0.20640644,1.2164168,-1.006088
alexnet_w1_mlp_simclrhn_probe3,1,79,NaN,bear,elephant,32-10-10,0079_eid_dnn_32-10-10_elephant_10_n02504458_4187.png,n02504458_4187.png,0.0,0.405629,0.91166925,-0.35782447
alexnet_w1_mlp_simclrhn_probe3,1,80,NaN,bear,clock,8-10-10,0080_eid_dnn_8-10-10_clock_10_n03196217_6689.png,n03196217_6689.png,0.0,-0.17554688,1.7146434,-1.3365663
alexnet_w1_mlp_simclrhn_probe3,1,81,NaN,knife,knife,4-10-10,0081_eid_dnn_4-10-10_knife_10_n03041632_26236.png,n03041632_26236.png,1.0,0.4107563,0.2791092,0.093088545
alexnet_w1_mlp_simclrhn_probe3,1,82,NaN,bear,car,8-10-10,0082_eid_dnn_8-10-10_car_10_n03100240_1262.png,n03100240_1262.png,0.0,-0.66679853,0.8351535,-1.0620404
alexnet_w1_mlp_simclrhn_probe3,1,83,NaN,oven,keyboard,64-10-10,0083_eid_dnn_64-10-10_keyboard_10_n04505470_5059.png,n04505470_5059.png,0.0,-0.21242785,1.2118099,-1.0070882
alexnet_w1_mlp_simclrhn_probe3,1,84,NaN,bird,bird,1-10-10,0084_eid_dnn_1-10-10_bird_10_n01537544_26417.png,n01537544_26417.png,1.0,2.5059147,0.18383807,1.6419561
alexnet_w1_mlp_simclrhn_probe3,1,85,NaN,bear,bird,32-10-10,0085_eid_dnn_32-10-10_bird_10_n02009912_5714.png,n02009912_5714.png,0.0,-0.68261594,1.5183423,-1.5563126
alexnet_w1_mlp_simclrhn_probe3,1,86,NaN,bear,chair,128-10-10,0086_eid_dnn_128-10-10_chair_10_n03376595_5972.png,n03376595_5972.png,0.0,-0.048823282,1.527401,-1.1145588
alexnet_w1_mlp_simclrhn_probe3,1,87,NaN,oven,chair,2-10-10,0087_eid_dnn_2-10-10_chair_10_n04429376_805.png,n04429376_805.png,0.0,1.0647765,2.4119034,-0.9525626
alexnet_w1_mlp_simclrhn_probe3,1,88,NaN,bear,bicycle,128-10-10,0088_eid_dnn_128-10-10_bicycle_10_n03792782_4083.png,n03792782_4083.png,0.0,0.17143193,0.76369166,-0.4187909
alexnet_w1_mlp_simclrhn_probe3,1,89,NaN,oven,clock,1-10-10,0089_eid_dnn_1-10-10_clock_10_n02708093_798.png,n02708093_798.png,0.0,1.0290966,1.1955509,-0.11770098
alexnet_w1_mlp_simclrhn_probe3,1,90,NaN,bear,bear,1-10-10,0090_eid_dnn_1-10-10_bear_10_n02133161_1660.png,n02133161_1660.png,1.0,3.6507723,1.2189562,1.7195537
alexnet_w1_mlp_simclrhn_probe3,1,91,NaN,oven,car,8-10-10,0091_eid_dnn_8-10-10_car_10_n04285008_9464.png,n04285008_9464.png,0.0,-0.7994437,1.8713417,-1.8885305
alexnet_w1_mlp_simclrhn_probe3,1,92,NaN,oven,oven,16-10-10,0092_eid_dnn_16-10-10_oven_10_n04111531_3314.png,n04111531_3314.png,1.0,1.3667023,0.74764854,0.43773714
alexnet_w1_mlp_simclrhn_probe3,1,93,NaN,bear,cat,128-10-10,0093_eid_dnn_128-10-10_cat_10_n02123394_5753.png,n02123394_5753.png,0.0,0.23122917,0.83317894,-0.42564276
alexnet_w1_mlp_simclrhn_probe3,1,94,NaN,boat,boat,2-10-10,0094_eid_dnn_2-10-10_boat_10_n02951358_34042.png,n02951358_34042.png,1.0,1.0262663,0.84904677,0.12531316
alexnet_w1_mlp_simclrhn_probe3,1,95,NaN,oven,truck,64-10-10,0095_eid_dnn_64-10-10_truck_10_n03417042_7588.png,n03417042_7588.png,0.0,-0.28128994,1.4634273,-1.2337015
alexnet_w1_mlp_simclrhn_probe3,1,96,NaN,oven,truck,32-10-10,0096_eid_dnn_32-10-10_truck_10_n03417042_4200.png,n03417042_4200.png,0.0,-0.34098634,2.2142484,-1.8068238
alexnet_w1_mlp_simclrhn_probe3,1,97,NaN,airplane,airplane,4-10-10,0097_eid_dnn_4-10-10_airplane_10_n02690373_4335.png,n02690373_4335.png,1.0,4.100929,1.3705502,1.9306693
alexnet_w1_mlp_simclrhn_probe3,1,98,NaN,oven,elephant,128-10-10,0098_eid_dnn_128-10-10_elephant_10_n02504458_6823.png,n02504458_6823.png,0.0,0.089431114,0.58026975,-0.34707534
alexnet_w1_mlp_simclrhn_probe3,1,99,NaN,boat,boat,4-10-10,0099_eid_dnn_4-10-10_boat_10_n03344393_4214.png,n03344393_4214.png,1.0,5.307245,2.295999,2.1292722
alexnet_w1_mlp_simclrhn_probe3,1,100,NaN,keyboard,keyboard,4-10-10,0100_eid_dnn_4-10-10_keyboard_10_n03085013_22949.png,n03085013_22949.png,1.0,4.15213,0.6502305,2.476217
alexnet_w1_mlp_simclrhn_probe3,1,101,NaN,bear,bear,64-10-10,0101_eid_dnn_64-10-10_bear_10_n02132136_31664.png,n02132136_31664.png,1.0,1.4847193,0.9239107,0.39655158
alexnet_w1_mlp_simclrhn_probe3,1,102,NaN,keyboard,bottle,8-10-10,0102_eid_dnn_8-10-10_bottle_10_n03983396_1985.png,n03983396_1985.png,0.0,0.21955751,0.6922835,-0.33426777
alexnet_w1_mlp_simclrhn_probe3,1,103,NaN,airplane,airplane,2-10-10,0103_eid_dnn_2-10-10_airplane_10_n02690373_9266.png,n02690373_9266.png,1.0,5.2401624,1.0366079,2.972362
alexnet_w1_mlp_simclrhn_probe3,1,104,NaN,bear,bottle,128-10-10,0104_eid_dnn_128-10-10_bottle_10_n02823428_5961.png,n02823428_5961.png,0.0,0.083050966,1.096556,-0.71665627
alexnet_w1_mlp_simclrhn_probe3,1,105,NaN,bottle,bottle,4-10-10,0105_eid_dnn_4-10-10_bottle_10_n04579145_1856.png,n04579145_1856.png,1.0,2.802442,1.8690625,0.659999
alexnet_w1_mlp_simclrhn_probe3,1,106,NaN,bear,clock,64-10-10,0106_eid_dnn_64-10-10_clock_10_n02708093_7810.png,n02708093_7810.png,0.0,0.19915217,1.0763345,-0.62026155
alexnet_w1_mlp_simclrhn_probe3,1,107,NaN,bicycle,dog,1-10-10,0107_eid_dnn_1-10-10_dog_10_n02100735_4949.png,n02100735_4949.png,0.0,1.3819257,1.9439319,-0.3973984
alexnet_w1_mlp_simclrhn_probe3,1,108,NaN,oven,chair,32-10-10,0108_eid_dnn_32-10-10_chair_10_n03376595_7275.png,n03376595_7275.png,0.0,-0.4011806,1.2344065,-1.1565348
alexnet_w1_mlp_simclrhn_probe3,1,109,NaN,bottle,bottle,2-10-10,0109_eid_dnn_2-10-10_bottle_10_n03983396_16741.png,n03983396_16741.png,1.0,2.8890324,1.280684,1.137274
alexnet_w1_mlp_simclrhn_probe3,1,110,NaN,oven,boat,32-10-10,0110_eid_dnn_32-10-10_boat_10_n04612504_8719.png,n04612504_8719.png,0.0,0.6165261,1.2669833,-0.45994267
alexnet_w1_mlp_simclrhn_probe3,1,111,NaN,chair,chair,1-10-10,0111_eid_dnn_1-10-10_chair_10_n02791124_3570.png,n02791124_3570.png,1.0,4.5759277,1.9613636,1.8487761
alexnet_w1_mlp_simclrhn_probe3,1,112,NaN,bear,bear,32-10-10,0112_eid_dnn_32-10-10_bear_10_n02132136_9557.png,n02132136_9557.png,1.0,1.5080237,1.1177814,0.275943
alexnet_w1_mlp_simclrhn_probe3,1,113,NaN,bear,bird,64-10-10,0113_eid_dnn_64-10-10_bird_10_n02002556_5730.png,n02002556_5730.png,0.0,-0.53500664,1.0402913,-1.1139039
alexnet_w1_mlp_simclrhn_probe3,1,114,NaN,oven,oven,4-10-10,0114_eid_dnn_4-10-10_oven_10_n04111531_8959.png,n04111531_8959.png,1.0,1.5684202,0.85848516,0.50199986
alexnet_w1_mlp_simclrhn_probe3,1,115,NaN,elephant,cat,128-10-10,0115_eid_dnn_128-10-10_cat_10_n02123159_8101.png,n02123159_8101.png,0.0,0.1508554,0.7407832,-0.41714194
alexnet_w1_mlp_simclrhn_probe3,1,116,NaN,cat,cat,8-10-10,0116_eid_dnn_8-10-10_cat_10_n02123597_8890.png,n02123597_8890.png,1.0,1.1166221,1.0532714,0.044795696
alexnet_w1_mlp_simclrhn_probe3,1,117,NaN,elephant,elephant,1-10-10,0117_eid_dnn_1-10-10_elephant_10_n02504458_220.png,n02504458_220.png,1.0,13.738831,4.7690454,6.3425965
alexnet_w1_mlp_simclrhn_probe3,1,118,NaN,oven,bicycle,128-10-10,0118_eid_dnn_128-10-10_bicycle_10_n02835271_2651.png,n02835271_2651.png,0.0,-0.11116825,0.5936104,-0.49835378
alexnet_w1_mlp_simclrhn_probe3,1,119,NaN,bear,keyboard,64-10-10,0119_eid_dnn_64-10-10_keyboard_10_n04505470_1581.png,n04505470_1581.png,0.0,-0.07034384,1.1395904,-0.85555273
alexnet_w1_mlp_simclrhn_probe3,1,120,NaN,truck,truck,4-10-10,0120_eid_dnn_4-10-10_truck_10_n04467665_1719.png,n04467665_1719.png,1.0,2.571593,2.281191,0.20534518
alexnet_w1_mlp_simclrhn_probe3,1,121,NaN,truck,truck,2-10-10,0121_eid_dnn_2-10-10_truck_10_n04467665_30756.png,n04467665_30756.png,1.0,7.531274,0.89376,4.693431
alexnet_w1_mlp_simclrhn_probe3,1,122,NaN,oven,oven,64-10-10,0122_eid_dnn_64-10-10_oven_10_n04111531_1818.png,n04111531_1818.png,1.0,1.5975453,0.62556195,0.68729603
alexnet_w1_mlp_simclrhn_probe3,1,123,NaN,elephant,elephant,64-10-10,0123_eid_dnn_64-10-10_elephant_10_n02504013_2974.png,n02504013_2974.png,1.0,1.3460584,1.1495632,0.13894308
alexnet_w1_mlp_simclrhn_probe3,1,124,NaN,bear,bicycle,128-10-10,0124_eid_dnn_128-10-10_bicycle_10_n03792782_7713.png,n03792782_7713.png,0.0,0.082965076,0.36787957,-0.20146498
alexnet_w1_mlp_simclrhn_probe3,1,125,NaN,bear,clock,16-10-10,0125_eid_dnn_16-10-10_clock_10_n04548280_9700.png,n04548280_9700.png,0.0,0.25805286,0.70686245,-0.31735632
alexnet_w1_mlp_simclrhn_probe3,1,126,NaN,oven,bottle,16-10-10,0126_eid_dnn_16-10-10_bottle_10_n04591713_1174.png,n04591713_1174.png,0.0,-0.08816368,2.1679006,-1.5952783
alexnet_w1_mlp_simclrhn_probe3,1,127,NaN,oven,bear,64-10-10,0127_eid_dnn_64-10-10_bear_10_n02134418_1395.png,n02134418_1395.png,0.0,1.0473542,1.101796,-0.038496174
alexnet_w1_mlp_simclrhn_probe3,1,128,NaN,bear,bottle,128-10-10,0128_eid_dnn_128-10-10_bottle_10_n04591713_36.png,n04591713_36.png,0.0,0.15626581,1.2258935,-0.756341
alexnet_w1_mlp_simclrhn_probe3,1,129,NaN,oven,knife,8-10-10,0129_eid_dnn_8-10-10_knife_10_n03041632_21034.png,n03041632_21034.png,0.0,-0.06587206,1.0946352,-0.8206026
alexnet_w1_mlp_simclrhn_probe3,1,130,NaN,bicycle,bicycle,1-10-10,0130_eid_dnn_1-10-10_bicycle_10_n03792782_11115.png,n03792782_11115.png,1.0,14.311091,2.4215865,8.40715
alexnet_w1_mlp_simclrhn_probe3,1,131,NaN,oven,truck,16-10-10,0131_eid_dnn_16-10-10_truck_10_n03417042_5381.png,n03417042_5381.png,0.0,-0.22814326,1.5794243,-1.2781433
alexnet_w1_mlp_simclrhn_probe3,1,132,NaN,bear,boat,64-10-10,0132_eid_dnn_64-10-10_boat_10_n04612504_15258.png,n04612504_15258.png,0.0,0.35602182,1.5165008,-0.8205826
alexnet_w1_mlp_simclrhn_probe3,1,133,NaN,boat,boat,2-10-10,0133_eid_dnn_2-10-10_boat_10_n03662601_11972.png,n03662601_11972.png,1.0,4.7456903,2.1694176,1.8217
alexnet_w1_mlp_simclrhn_probe3,1,134,NaN,oven,dog,64-10-10,0134_eid_dnn_64-10-10_dog_10_n02092002_11459.png,n02092002_11459.png,0.0,0.03828909,1.025112,-0.6977892
alexnet_w1_mlp_simclrhn_probe3,1,135,NaN,oven,clock,64-10-10,0135_eid_dnn_64-10-10_clock_10_n04548280_6605.png,n04548280_6605.png,0.0,0.26086858,0.7757611,-0.36408404
alexnet_w1_mlp_simclrhn_probe3,1,136,NaN,bear,boat,64-10-10,0136_eid_dnn_64-10-10_boat_10_n03662601_5600.png,n03662601_5600.png,0.0,0.17403351,0.6095491,-0.30795604
alexnet_w1_mlp_simclrhn_probe3,1,137,NaN,bear,bear,32-10-10,0137_eid_dnn_32-10-10_bear_10_n02134084_8153.png,n02134084_8153.png,1.0,1.5005591,1.0206316,0.33936003
alexnet_w1_mlp_simclrhn_probe3,1,138,NaN,oven,cat,64-10-10,0138_eid_dnn_64-10-10_cat_10_n02124075_9225.png,n02124075_9225.png,0.0,-0.27907822,1.5417209,-1.2874994
alexnet_w1_mlp_simclrhn_probe3,1,139,NaN,oven,bicycle,8-10-10,0139_eid_dnn_8-10-10_bicycle_10_n03792782_3591.png,n03792782_3591.png,0.0,0.1374574,2.0569894,-1.3573141
alexnet_w1_mlp_simclrhn_probe3,1,140,NaN,oven,dog,64-10-10,0140_eid_dnn_64-10-10_dog_10_n02107142_31661.png,n02107142_31661.png,0.0,-0.016356971,1.4726319,-1.0528742
alexnet_w1_mlp_simclrhn_probe3,1,141,NaN,elephant,elephant,8-10-10,0141_eid_dnn_8-10-10_elephant_10_n02504458_651.png,n02504458_651.png,1.0,8.399082,6.0039635,1.6936047
alexnet_w1_mlp_simclrhn_probe3,1,142,NaN,bear,dog,128-10-10,0142_eid_dnn_128-10-10_dog_10_n02110958_15217.png,n02110958_15217.png,0.0,0.04840765,1.1682376,-0.7918393
alexnet_w1_mlp_simclrhn_probe3,1,143,NaN,oven,oven,4-10-10,0143_eid_dnn_4-10-10_oven_10_n04111531_523.png,n04111531_523.png,1.0,2.9823322,1.1880951,1.2687173
alexnet_w1_mlp_simclrhn_probe3,1,144,NaN,car,car,4-10-10,0144_eid_dnn_4-10-10_car_10_n02814533_42884.png,n02814533_42884.png,1.0,1.3387551,0.7915032,0.38696557
alexnet_w1_mlp_simclrhn_probe3,1,145,NaN,oven,car,64-10-10,0145_eid_dnn_64-10-10_car_10_n04285008_8017.png,n04285008_8017.png,0.0,-0.39151838,1.3162184,-1.2075522
alexnet_w1_mlp_simclrhn_probe3,1,146,NaN,car,car,1-10-10,0146_eid_dnn_1-10-10_car_10_n03100240_16766.png,n03100240_16766.png,1.0,3.149618,2.884717,0.18731324
alexnet_w1_mlp_simclrhn_probe3,1,147,NaN,elephant,elephant,8-10-10,0147_eid_dnn_8-10-10_elephant_10_n02504458_4593.png,n02504458_4593.png,1.0,6.008811,2.8921435,2.2038167
alexnet_w1_mlp_simclrhn_probe3,1,148,NaN,oven,chair,64-10-10,0148_eid_dnn_64-10-10_chair_10_n02791124_1358.png,n02791124_1358.png,0.0,-0.35974765,1.2090101,-1.1092793
alexnet_w1_mlp_simclrhn_probe3,1,149,NaN,oven,dog,16-10-10,0149_eid_dnn_16-10-10_dog_10_n02095314_5363.png,n02095314_5363.png,0.0,0.49892282,0.9196451,-0.29749554
alexnet_w1_mlp_simclrhn_probe3,1,150,NaN,bottle,clock,8-10-10,0150_eid_dnn_8-10-10_clock_10_n04548280_1413.png,n04548280_1413.png,0.0,0.36968514,0.8602328,-0.34686956
alexnet_w1_mlp_simclrhn_probe3,1,151,NaN,dog,dog,1-10-10,0151_eid_dnn_1-10-10_dog_10_n02105641_10948.png,n02105641_10948.png,1.0,3.7992082,0.9749535,1.9970497
alexnet_w1_mlp_simclrhn_probe3,1,152,NaN,bear,dog,1-10-10,0152_eid_dnn_1-10-10_dog_10_n02113624_1691.png,n02113624_1691.png,0.0,0.36605287,2.838543,-1.7483145
alexnet_w1_mlp_simclrhn_probe3,1,153,NaN,truck,car,4-10-10,0153_eid_dnn_4-10-10_car_10_n03100240_2235.png,n03100240_2235.png,0.0,2.083741,4.601822,-1.7805521
alexnet_w1_mlp_simclrhn_probe3,1,154,NaN,oven,chair,2-10-10,0154_eid_dnn_2-10-10_chair_10_n04099969_56470.png,n04099969_56470.png,0.0,1.1286191,1.3144126,-0.13137586
alexnet_w1_mlp_simclrhn_probe3,1,155,NaN,oven,oven,2-10-10,0155_eid_dnn_2-10-10_oven_10_n04111531_5429.png,n04111531_5429.png,1.0,6.6064596,1.3869548,3.6907473
alexnet_w1_mlp_simclrhn_probe3,1,156,NaN,oven,keyboard,64-10-10,0156_eid_dnn_64-10-10_keyboard_10_n03085013_19317.png,n03085013_19317.png,0.0,-0.07421824,2.0000608,-1.4667368
alexnet_w1_mlp_simclrhn_probe3,1,157,NaN,bear,bird,64-10-10,0157_eid_dnn_64-10-10_bird_10_n01601694_19650.png,n01601694_19650.png,0.0,-0.35667366,0.46962318,-0.5842801
alexnet_w1_mlp_simclrhn_probe3,1,158,NaN,oven,clock,128-10-10,0158_eid_dnn_128-10-10_clock_10_n03196217_11199.png,n03196217_11199.png,0.0,0.35177243,1.6456063,-0.9148787
alexnet_w1_mlp_simclrhn_probe3,1,159,NaN,oven,bottle,32-10-10,0159_eid_dnn_32-10-10_bottle_10_n03937543_2209.png,n03937543_2209.png,0.0,0.0576148,0.86393046,-0.57015127
alexnet_w1_mlp_simclrhn_probe3,1,160,NaN,oven,car,64-10-10,0160_eid_dnn_64-10-10_car_10_n03100240_16939.png,n03100240_16939.png,0.0,-0.41198492,1.8044565,-1.5672607
alexnet_w1_mlp_simclrhn_probe3,1,161,NaN,oven,bottle,8-10-10,0161_eid_dnn_8-10-10_bottle_10_n04591713_2501.png,n04591713_2501.png,0.0,0.45842537,1.111119,-0.4615241
alexnet_w1_mlp_simclrhn_probe3,1,162,NaN,bear,airplane,16-10-10,0162_eid_dnn_16-10-10_airplane_10_n02690373_10395.png,n02690373_10395.png,0.0,0.6837554,0.7637757,-0.056582905
alexnet_w1_mlp_simclrhn_probe3,1,163,NaN,oven,oven,8-10-10,0163_eid_dnn_8-10-10_oven_10_n04111531_3286.png,n04111531_3286.png,1.0,2.868679,0.39190912,1.7513409
alexnet_w1_mlp_simclrhn_probe3,1,164,NaN,oven,boat,64-10-10,0164_eid_dnn_64-10-10_boat_10_n04273569_13401.png,n04273569_13401.png,0.0,-0.18347585,2.2958183,-1.7531258
alexnet_w1_mlp_simclrhn_probe3,1,165,NaN,oven,elephant,64-10-10,0165_eid_dnn_64-10-10_elephant_10_n02504458_12776.png,n02504458_12776.png,0.0,0.6543111,1.2283777,-0.40592638
alexnet_w1_mlp_simclrhn_probe3,1,166,NaN,bird,bird,2-10-10,0166_eid_dnn_2-10-10_bird_10_n01828970_997.png,n01828970_997.png,1.0,2.6851268,0.7843981,1.3440182
alexnet_w1_mlp_simclrhn_probe3,1,167,NaN,bear,bear,8-10-10,0167_eid_dnn_8-10-10_bear_10_n02132136_10318.png,n02132136_10318.png,1.0,1.9715196,1.2140906,0.5355832
alexnet_w1_mlp_simclrhn_probe3,1,168,NaN,oven,oven,32-10-10,0168_eid_dnn_32-10-10_oven_10_n04111531_7883.png,n04111531_7883.png,1.0,2.1357164,0.63951993,1.0579708
alexnet_w1_mlp_simclrhn_probe3,1,169,NaN,oven,clock,128-10-10,0169_eid_dnn_128-10-10_clock_10_n02708093_725.png,n02708093_725.png,0.0,0.10549599,0.9488971,-0.5963747
alexnet_w1_mlp_simclrhn_probe3,1,170,NaN,oven,bottle,16-10-10,0170_eid_dnn_16-10-10_bottle_10_n04557648_2052.png,n04557648_2052.png,0.0,0.033273913,1.9467282,-1.3530165
alexnet_w1_mlp_simclrhn_probe3,1,171,NaN,oven,keyboard,32-10-10,0171_eid_dnn_32-10-10_keyboard_10_n04505470_5036.png,n04505470_5036.png,0.0,-0.09115279,1.8031263,-1.3394576
alexnet_w1_mlp_simclrhn_probe3,1,172,NaN,elephant,elephant,8-10-10,0172_eid_dnn_8-10-10_elephant_10_n02504458_13352.png,n02504458_13352.png,1.0,4.285593,3.1265526,0.81956536
alexnet_w1_mlp_simclrhn_probe3,1,173,NaN,dog,chair,4-10-10,0173_eid_dnn_4-10-10_chair_10_n04429376_30620.png,n04429376_30620.png,0.0,-0.07250859,1.6251593,-1.2004324
alexnet_w1_mlp_simclrhn_probe3,1,174,NaN,elephant,boat,16-10-10,0174_eid_dnn_16-10-10_boat_10_n03662601_2980.png,n03662601_2980.png,0.0,0.18591437,0.61755985,-0.30521944
alexnet_w1_mlp_simclrhn_probe3,1,175,NaN,bicycle,boat,8-10-10,0175_eid_dnn_8-10-10_boat_10_n03662601_4734.png,n03662601_4734.png,0.0,0.57678366,1.0671444,-0.3467374
alexnet_w1_mlp_simclrhn_probe3,1,176,NaN,bear,bear,2-10-10,0176_eid_dnn_2-10-10_bear_10_n02134418_4754.png,n02134418_4754.png,1.0,4.6284266,3.3582876,0.8981239
alexnet_w1_mlp_simclrhn_probe3,1,177,NaN,elephant,elephant,2-10-10,0177_eid_dnn_2-10-10_elephant_10_n02504013_8522.png,n02504013_8522.png,1.0,9.976034,4.4004126,3.94256
alexnet_w1_mlp_simclrhn_probe3,1,178,NaN,oven,bottle,64-10-10,0178_eid_dnn_64-10-10_bottle_10_n03937543_4863.png,n03937543_4863.png,0.0,0.10208506,2.1237407,-1.4295263
alexnet_w1_mlp_simclrhn_probe3,1,179,NaN,oven,car,16-10-10,0179_eid_dnn_16-10-10_car_10_n04285008_10802.png,n04285008_10802.png,0.0,-0.82870656,2.1138406,-2.080695
alexnet_w1_mlp_simclrhn_probe3,1,180,NaN,oven,knife,64-10-10,0180_eid_dnn_64-10-10_knife_10_n03041632_6708.png,n03041632_6708.png,0.0,0.089170374,1.404062,-0.92976886
alexnet_w1_mlp_simclrhn_probe3,1,181,NaN,elephant,dog,1-10-10,0181_eid_dnn_1-10-10_dog_10_n02107142_61109.png,n02107142_61109.png,0.0,1.0760083,3.4323869,-1.6662112
alexnet_w1_mlp_simclrhn_probe3,1,182,NaN,keyboard,clock,2-10-10,0182_eid_dnn_2-10-10_clock_10_n03196217_8139.png,n03196217_8139.png,0.0,0.12763663,1.1558573,-0.7270618
alexnet_w1_mlp_simclrhn_probe3,1,183,NaN,elephant,elephant,1-10-10,0183_eid_dnn_1-10-10_elephant_10_n02504458_6611.png,n02504458_6611.png,1.0,12.240164,3.4938953,6.1845455
alexnet_w1_mlp_simclrhn_probe3,1,184,NaN,bear,truck,64-10-10,0184_eid_dnn_64-10-10_truck_10_n04467665_4401.png,n04467665_4401.png,0.0,-0.041741513,1.069549,-0.78580105
alexnet_w1_mlp_simclrhn_probe3,1,185,NaN,boat,boat,4-10-10,0185_eid_dnn_4-10-10_boat_10_n03344393_732.png,n03344393_732.png,1.0,2.0274663,1.1712303,0.6054503
alexnet_w1_mlp_simclrhn_probe3,1,186,NaN,knife,knife,4-10-10,0186_eid_dnn_4-10-10_knife_10_n03041632_41381.png,n03041632_41381.png,1.0,0.38328454,0.33732077,0.03250129
alexnet_w1_mlp_simclrhn_probe3,1,187,NaN,oven,oven,32-10-10,0187_eid_dnn_32-10-10_oven_10_n04111531_22715.png,n04111531_22715.png,1.0,1.7981638,1.0874146,0.5025756
alexnet_w1_mlp_simclrhn_probe3,1,188,NaN,oven,cat,16-10-10,0188_eid_dnn_16-10-10_cat_10_n02123045_3568.png,n02123045_3568.png,0.0,0.64137626,1.0138248,-0.26336092
alexnet_w1_mlp_simclrhn_probe3,1,189,NaN,truck,truck,2-10-10,0189_eid_dnn_2-10-10_truck_10_n03796401_18976.png,n03796401_18976.png,1.0,6.075706,4.2391067,1.2986718
alexnet_w1_mlp_simclrhn_probe3,1,190,NaN,oven,oven,8-10-10,0190_eid_dnn_8-10-10_oven_10_n04111531_15710.png,n04111531_15710.png,1.0,2.8467355,0.80315197,1.4450316
alexnet_w1_mlp_simclrhn_probe3,1,191,NaN,bear,elephant,32-10-10,0191_eid_dnn_32-10-10_elephant_10_n02504013_7232.png,n02504013_7232.png,0.0,0.9067597,1.9626873,-0.7466535
alexnet_w1_mlp_simclrhn_probe3,1,192,NaN,oven,clock,64-10-10,0192_eid_dnn_64-10-10_clock_10_n02708093_5126.png,n02708093_5126.png,0.0,0.12473526,0.95591366,-0.5877319
alexnet_w1_mlp_simclrhn_probe3,1,193,NaN,oven,cat,32-10-10,0193_eid_dnn_32-10-10_cat_10_n02123159_1598.png,n02123159_1598.png,0.0,-0.027112076,2.3222837,-1.6612737
alexnet_w1_mlp_simclrhn_probe3,1,194,NaN,car,car,1-10-10,0194_eid_dnn_1-10-10_car_10_n04285008_1661.png,n04285008_1661.png,1.0,10.137128,7.7844605,1.6635871
alexnet_w1_mlp_simclrhn_probe3,1,195,NaN,clock,clock,2-10-10,0195_eid_dnn_2-10-10_clock_10_n02708093_5551.png,n02708093_5551.png,1.0,6.02972,1.1076384,3.4804373
alexnet_w1_mlp_simclrhn_probe3,1,196,NaN,airplane,airplane,128-10-10,0196_eid_dnn_128-10-10_airplane_10_n02690373_693.png,n02690373_693.png,1.0,0.5872072,0.41305327,0.123145424
alexnet_w1_mlp_simclrhn_probe3,1,197,NaN,elephant,elephant,2-10-10,0197_eid_dnn_2-10-10_elephant_10_n02504013_3409.png,n02504013_3409.png,1.0,8.889851,3.4091344,3.8754516
alexnet_w1_mlp_simclrhn_probe3,1,198,NaN,oven,dog,64-10-10,0198_eid_dnn_64-10-10_dog_10_n02113712_8182.png,n02113712_8182.png,0.0,0.15557449,1.2843772,-0.7981841
alexnet_w1_mlp_simclrhn_probe3,1,199,NaN,bottle,bottle,1-10-10,0199_eid_dnn_1-10-10_bottle_10_n03983396_8322.png,n03983396_8322.png,1.0,3.7257068,1.6320366,1.4804485
alexnet_w1_mlp_simclrhn_probe3,1,200,NaN,oven,keyboard,64-10-10,0200_eid_dnn_64-10-10_keyboard_10_n04505470_1040.png,n04505470_1040.png,0.0,-0.011578254,1.0480367,-0.7492609
alexnet_w1_mlp_simclrhn_probe3,1,201,NaN,oven,oven,32-10-10,0201_eid_dnn_32-10-10_oven_10_n04111531_11230.png,n04111531_11230.png,1.0,1.535357,0.33790192,0.8467286
alexnet_w1_mlp_simclrhn_probe3,1,202,NaN,cat,cat,1-10-10,0202_eid_dnn_1-10-10_cat_10_n02123394_6269.png,n02123394_6269.png,1.0,3.881154,1.119569,1.9527357
alexnet_w1_mlp_simclrhn_probe3,1,203,NaN,elephant,elephant,2-10-10,0203_eid_dnn_2-10-10_elephant_10_n02504013_2075.png,n02504013_2075.png,1.0,5.558498,1.8655185,2.6113307
alexnet_w1_mlp_simclrhn_probe3,1,204,NaN,bear,bear,1-10-10,0204_eid_dnn_1-10-10_bear_10_n02133161_3795.png,n02133161_3795.png,1.0,2.6847515,1.5522146,0.8008245
alexnet_w1_mlp_simclrhn_probe3,1,205,NaN,oven,oven,2-10-10,0205_eid_dnn_2-10-10_oven_10_n04111531_4322.png,n04111531_4322.png,1.0,2.6252012,1.9806609,0.45575884
alexnet_w1_mlp_simclrhn_probe3,1,206,NaN,oven,bottle,4-10-10,0206_eid_dnn_4-10-10_bottle_10_n03937543_5799.png,n03937543_5799.png,0.0,0.6290967,1.6324725,-0.7094938
alexnet_w1_mlp_simclrhn_probe3,1,207,NaN,keyboard,keyboard,8-10-10,0207_eid_dnn_8-10-10_keyboard_10_n04505470_4414.png,n04505470_4414.png,1.0,2.1189923,1.78343,0.23727842
alexnet_w1_mlp_simclrhn_probe3,1,208,NaN,cat,dog,4-10-10,0208_eid_dnn_4-10-10_dog_10_n02091032_8315.png,n02091032_8315.png,0.0,1.6444645,2.5318372,-0.6274673
alexnet_w1_mlp_simclrhn_probe3,1,209,NaN,knife,knife,2-10-10,0209_eid_dnn_2-10-10_knife_10_n03041632_39952.png,n03041632_39952.png,1.0,1.5137383,0.2354929,0.903856
alexnet_w1_mlp_simclrhn_probe3,1,210,NaN,dog,chair,8-10-10,0210_eid_dnn_8-10-10_chair_10_n02791124_634.png,n02791124_634.png,0.0,-0.62459683,0.3720631,-0.704745
alexnet_w1_mlp_simclrhn_probe3,1,211,NaN,bear,boat,32-10-10,0211_eid_dnn_32-10-10_boat_10_n03344393_3355.png,n03344393_3355.png,0.0,0.46724406,0.8692017,-0.28422698
alexnet_w1_mlp_simclrhn_probe3,1,212,NaN,bear,dog,32-10-10,0212_eid_dnn_32-10-10_dog_10_n02102040_7188.png,n02102040_7188.png,0.0,0.019054322,0.5193878,-0.3537892
alexnet_w1_mlp_simclrhn_probe3,1,213,NaN,knife,chair,2-10-10,0213_eid_dnn_2-10-10_chair_10_n02791124_8711.png,n02791124_8711.png,0.0,1.5625098,1.6010276,-0.027236221
alexnet_w1_mlp_simclrhn_probe3,1,214,NaN,bear,bear,64-10-10,0214_eid_dnn_64-10-10_bear_10_n02132136_6002.png,n02132136_6002.png,1.0,0.7419779,0.36270982,0.26818302
alexnet_w1_mlp_simclrhn_probe3,1,215,NaN,boat,boat,4-10-10,0215_eid_dnn_4-10-10_boat_10_n02951358_30184.png,n02951358_30184.png,1.0,2.3288703,2.3130064,0.011217468
alexnet_w1_mlp_simclrhn_probe3,1,216,NaN,oven,bottle,128-10-10,0216_eid_dnn_128-10-10_bottle_10_n02823428_3414.png,n02823428_3414.png,0.0,0.12186338,1.1141825,-0.7016756
alexnet_w1_mlp_simclrhn_probe3,1,217,NaN,elephant,truck,4-10-10,0217_eid_dnn_4-10-10_truck_10_n04467665_13231.png,n04467665_13231.png,0.0,-0.008547038,1.4588449,-1.0376028
alexnet_w1_mlp_simclrhn_probe3,1,218,NaN,bicycle,chair,4-10-10,0218_eid_dnn_4-10-10_chair_10_n04099969_8063.png,n04099969_8063.png,0.0,0.7804642,2.2271316,-1.0229484
alexnet_w1_mlp_simclrhn_probe3,1,219,NaN,bird,bird,4-10-10,0219_eid_dnn_4-10-10_bird_10_n01534433_10234.png,n01534433_10234.png,1.0,1.0189774,0.037787646,0.69380593
alexnet_w1_mlp_simclrhn_probe3,1,220,NaN,elephant,elephant,4-10-10,0220_eid_dnn_4-10-10_elephant_10_n02504013_12533.png,n02504013_12533.png,1.0,3.391962,2.7453127,0.45725015
alexnet_w1_mlp_simclrhn_probe3,1,221,NaN,airplane,knife,16-10-10,0221_eid_dnn_16-10-10_knife_10_n03041632_18995.png,n03041632_18995.png,0.0,-0.27951962,0.41042182,-0.48786226
alexnet_w1_mlp_simclrhn_probe3,1,222,NaN,oven,chair,32-10-10,0222_eid_dnn_32-10-10_chair_10_n04429376_7123.png,n04429376_7123.png,0.0,-0.60938394,1.541836,-1.5211421
alexnet_w1_mlp_simclrhn_probe3,1,223,NaN,oven,clock,64-10-10,0223_eid_dnn_64-10-10_clock_10_n03196217_9065.png,n03196217_9065.png,0.0,0.097671926,0.5915486,-0.34922355
alexnet_w1_mlp_simclrhn_probe3,1,224,NaN,cat,dog,4-10-10,0224_eid_dnn_4-10-10_dog_10_n02086079_4143.png,n02086079_4143.png,0.0,1.2589939,2.0510476,-0.5600666
alexnet_w1_mlp_simclrhn_probe3,1,225,NaN,elephant,bear,4-10-10,0225_eid_dnn_4-10-10_bear_10_n02132136_20162.png,n02132136_20162.png,0.0,1.9293754,2.55487,-0.4422914
alexnet_w1_mlp_simclrhn_probe3,1,226,NaN,knife,bottle,1-10-10,0226_eid_dnn_1-10-10_bottle_10_n03983396_4165.png,n03983396_4165.png,0.0,0.1727979,1.0045307,-0.58812386
alexnet_w1_mlp_simclrhn_probe3,1,227,NaN,bird,bird,4-10-10,0227_eid_dnn_4-10-10_bird_10_n01824575_4470.png,n01824575_4470.png,1.0,1.6734577,0.27226147,0.9907954
alexnet_w1_mlp_simclrhn_probe3,1,228,NaN,oven,oven,64-10-10,0228_eid_dnn_64-10-10_oven_10_n04111531_9695.png,n04111531_9695.png,1.0,1.1874466,0.7185412,0.33156618
alexnet_w1_mlp_simclrhn_probe3,1,229,NaN,bear,bottle,64-10-10,0229_eid_dnn_64-10-10_bottle_10_n02823428_23181.png,n02823428_23181.png,0.0,0.16303943,1.6738122,-1.0682776
alexnet_w1_mlp_simclrhn_probe3,1,230,NaN,bicycle,bicycle,2-10-10,0230_eid_dnn_2-10-10_bicycle_10_n02835271_13674.png,n02835271_13674.png,1.0,6.398842,0.7465319,3.9967868
alexnet_w1_mlp_simclrhn_probe3,1,231,NaN,oven,chair,2-10-10,0231_eid_dnn_2-10-10_chair_10_n04429376_55747.png,n04429376_55747.png,0.0,2.615797,4.24154,-1.1495738
alexnet_w1_mlp_simclrhn_probe3,1,232,NaN,oven,boat,32-10-10,0232_eid_dnn_32-10-10_boat_10_n02951358_8346.png,n02951358_8346.png,0.0,-0.4222652,1.3416002,-1.2472411
alexnet_w1_mlp_simclrhn_probe3,1,233,NaN,bear,elephant,16-10-10,0233_eid_dnn_16-10-10_elephant_10_n02504013_1088.png,n02504013_1088.png,0.0,2.321608,3.3729625,-0.7434198
alexnet_w1_mlp_simclrhn_probe3,1,234,NaN,oven,car,8-10-10,0234_eid_dnn_8-10-10_car_10_n03100240_11191.png,n03100240_11191.png,0.0,0.8407561,0.8797644,-0.027583005
alexnet_w1_mlp_simclrhn_probe3,1,235,NaN,oven,chair,8-10-10,0235_eid_dnn_8-10-10_chair_10_n04099969_19966.png,n04099969_19966.png,0.0,1.1564484,1.7373215,-0.41073933
alexnet_w1_mlp_simclrhn_probe3,1,236,NaN,oven,bicycle,32-10-10,0236_eid_dnn_32-10-10_bicycle_10_n03792782_15016.png,n03792782_15016.png,0.0,-0.45952415,1.4309058,-1.3367358
alexnet_w1_mlp_simclrhn_probe3,1,237,NaN,bear,boat,128-10-10,0237_eid_dnn_128-10-10_boat_10_n02951358_17867.png,n02951358_17867.png,0.0,-0.023752898,0.73053324,-0.5333609
alexnet_w1_mlp_simclrhn_probe3,1,238,NaN,cat,cat,2-10-10,0238_eid_dnn_2-10-10_cat_10_n02123045_2364.png,n02123045_2364.png,1.0,6.2279506,1.062711,3.652376
alexnet_w1_mlp_simclrhn_probe3,1,239,NaN,bear,bear,2-10-10,0239_eid_dnn_2-10-10_bear_10_n02132136_9433.png,n02132136_9433.png,1.0,4.5690374,2.5788698,1.407261
alexnet_w1_mlp_simclrhn_probe3,1,240,NaN,oven,clock,32-10-10,0240_eid_dnn_32-10-10_clock_10_n03196217_3167.png,n03196217_3167.png,0.0,0.11620013,1.4127729,-0.91681546
alexnet_w1_mlp_simclrhn_probe3,1,241,NaN,oven,clock,32-10-10,0241_eid_dnn_32-10-10_clock_10_n03196217_3129.png,n03196217_3129.png,0.0,0.24619156,1.1017629,-0.6049803
alexnet_w1_mlp_simclrhn_probe3,1,242,NaN,oven,keyboard,128-10-10,0242_eid_dnn_128-10-10_keyboard_10_n03085013_6067.png,n03085013_6067.png,0.0,-0.25115073,0.18445462,-0.3080195
alexnet_w1_mlp_simclrhn_probe3,1,243,NaN,keyboard,keyboard,2-10-10,0243_eid_dnn_2-10-10_keyboard_10_n03085013_24648.png,n03085013_24648.png,1.0,3.1914282,1.2491063,1.3734291
alexnet_w1_mlp_simclrhn_probe3,1,244,NaN,oven,oven,32-10-10,0244_eid_dnn_32-10-10_oven_10_n04111531_6695.png,n04111531_6695.png,1.0,1.6925766,1.3588543,0.23597734
alexnet_w1_mlp_simclrhn_probe3,1,245,NaN,bear,dog,4-10-10,0245_eid_dnn_4-10-10_dog_10_n02111500_4875.png,n02111500_4875.png,0.0,0.6958855,0.731928,-0.025485905
alexnet_w1_mlp_simclrhn_probe3,1,246,NaN,oven,oven,32-10-10,0246_eid_dnn_32-10-10_oven_10_n04111531_13018.png,n04111531_13018.png,1.0,1.4438363,0.39614272,0.74083126
alexnet_w1_mlp_simclrhn_probe3,1,247,NaN,oven,keyboard,128-10-10,0247_eid_dnn_128-10-10_keyboard_10_n03085013_23030.png,n03085013_23030.png,0.0,-0.11583882,1.2050046,-0.9339773
alexnet_w1_mlp_simclrhn_probe3,1,248,NaN,dog,cat,8-10-10,0248_eid_dnn_8-10-10_cat_10_n02123045_8409.png,n02123045_8409.png,0.0,0.35008013,0.870669,-0.36811194
alexnet_w1_mlp_simclrhn_probe3,1,249,NaN,bicycle,bicycle,4-10-10,0249_eid_dnn_4-10-10_bicycle_10_n03792782_37777.png,n03792782_37777.png,1.0,4.5303297,0.8827006,2.5792632
alexnet_w1_mlp_simclrhn_probe3,1,250,NaN,bear,airplane,64-10-10,0250_eid_dnn_64-10-10_airplane_10_n02690373_614.png,n02690373_614.png,0.0,0.42526567,1.2185768,-0.5609557
alexnet_w1_mlp_simclrhn_probe3,1,251,NaN,oven,keyboard,128-10-10,0251_eid_dnn_128-10-10_keyboard_10_n03085013_19775.png,n03085013_19775.png,0.0,0.09037404,1.3003544,-0.85558534
alexnet_w1_mlp_simclrhn_probe3,1,252,NaN,bear,bear,8-10-10,0252_eid_dnn_8-10-10_bear_10_n02133161_1244.png,n02133161_1244.png,1.0,3.9825633,2.2897058,1.197031
alexnet_w1_mlp_simclrhn_probe3,1,253,NaN,car,keyboard,2-10-10,0253_eid_dnn_2-10-10_keyboard_10_n04505470_4368.png,n04505470_4368.png,0.0,2.5354977,4.6631083,-1.5044479
alexnet_w1_mlp_simclrhn_probe3,1,254,NaN,oven,oven,2-10-10,0254_eid_dnn_2-10-10_oven_10_n04111531_7728.png,n04111531_7728.png,1.0,4.880341,1.7107532,2.2412372
alexnet_w1_mlp_simclrhn_probe3,1,255,NaN,oven,clock,8-10-10,0255_eid_dnn_8-10-10_clock_10_n04548280_1.png,n04548280_1.png,0.0,-0.0031203877,2.1646116,-1.5328181
alexnet_w1_mlp_simclrhn_probe3,1,256,NaN,oven,cat,64-10-10,0256_eid_dnn_64-10-10_cat_10_n02123394_3062.png,n02123394_3062.png,0.0,-0.0782829,1.489274,-1.1084301
alexnet_w1_mlp_simclrhn_probe3,1,257,NaN,elephant,elephant,2-10-10,0257_eid_dnn_2-10-10_elephant_10_n02504013_466.png,n02504013_466.png,1.0,7.0866394,1.7675862,3.7611387
alexnet_w1_mlp_simclrhn_probe3,1,258,NaN,elephant,elephant,1-10-10,0258_eid_dnn_1-10-10_elephant_10_n02504013_6275.png,n02504013_6275.png,1.0,7.275329,3.002256,3.0215192
alexnet_w1_mlp_simclrhn_probe3,1,259,NaN,bird,bird,4-10-10,0259_eid_dnn_4-10-10_bird_10_n01560419_5466.png,n01560419_5466.png,1.0,1.5299591,0.06344039,1.0369853
alexnet_w1_mlp_simclrhn_probe3,1,260,NaN,oven,truck,8-10-10,0260_eid_dnn_8-10-10_truck_10_n03796401_5227.png,n03796401_5227.png,0.0,-0.40395474,1.3177341,-1.2174178
alexnet_w1_mlp_simclrhn_probe3,1,261,NaN,keyboard,chair,2-10-10,0261_eid_dnn_2-10-10_chair_10_n04099969_25124.png,n04099969_25124.png,0.0,2.6930215,3.0389085,-0.244579
alexnet_w1_mlp_simclrhn_probe3,1,262,NaN,bear,elephant,64-10-10,0262_eid_dnn_64-10-10_elephant_10_n02504013_7209.png,n02504013_7209.png,0.0,0.59726804,0.9050878,-0.21766146
alexnet_w1_mlp_simclrhn_probe3,1,263,NaN,cat,cat,1-10-10,0263_eid_dnn_1-10-10_cat_10_n02123597_4756.png,n02123597_4756.png,1.0,2.355622,1.8455237,0.360694
alexnet_w1_mlp_simclrhn_probe3,1,264,NaN,oven,bicycle,16-10-10,0264_eid_dnn_16-10-10_bicycle_10_n02835271_4654.png,n02835271_4654.png,0.0,0.24147266,0.5181762,-0.19565895
alexnet_w1_mlp_simclrhn_probe3,1,265,NaN,keyboard,keyboard,1-10-10,0265_eid_dnn_1-10-10_keyboard_10_n04505470_2389.png,n04505470_2389.png,1.0,6.121341,4.2923574,1.2932868
alexnet_w1_mlp_simclrhn_probe3,1,266,NaN,bear,knife,128-10-10,0266_eid_dnn_128-10-10_knife_10_n03041632_379.png,n03041632_379.png,0.0,0.066173,1.111856,-0.73940957
alexnet_w1_mlp_simclrhn_probe3,1,267,NaN,bicycle,clock,8-10-10,0267_eid_dnn_8-10-10_clock_10_n02708093_899.png,n02708093_899.png,0.0,0.29871443,0.6845161,-0.27280295
alexnet_w1_mlp_simclrhn_probe3,1,268,NaN,oven,truck,128-10-10,0268_eid_dnn_128-10-10_truck_10_n03417042_10154.png,n03417042_10154.png,0.0,-0.3601593,1.2762904,-1.1571447
alexnet_w1_mlp_simclrhn_probe3,1,269,NaN,bottle,bottle,2-10-10,0269_eid_dnn_2-10-10_bottle_10_n04579145_3415.png,n04579145_3415.png,1.0,1.1813211,0.42424008,0.53533715
alexnet_w1_mlp_simclrhn_probe3,1,270,NaN,bear,chair,16-10-10,0270_eid_dnn_16-10-10_chair_10_n02791124_146.png,n02791124_146.png,0.0,-0.51300293,2.4007053,-2.060303
alexnet_w1_mlp_simclrhn_probe3,1,271,NaN,oven,elephant,128-10-10,0271_eid_dnn_128-10-10_elephant_10_n02504458_2835.png,n02504458_2835.png,0.0,0.6386878,1.1749947,-0.37922627
alexnet_w1_mlp_simclrhn_probe3,1,272,NaN,bicycle,bicycle,1-10-10,0272_eid_dnn_1-10-10_bicycle_10_n03792782_13835.png,n03792782_13835.png,1.0,2.7669992,0.95477396,1.2814368
alexnet_w1_mlp_simclrhn_probe3,1,273,NaN,oven,bicycle,32-10-10,0273_eid_dnn_32-10-10_bicycle_10_n02835271_12926.png,n02835271_12926.png,0.0,0.1954245,1.5510769,-0.958591
alexnet_w1_mlp_simclrhn_probe3,1,274,NaN,dog,dog,2-10-10,0274_eid_dnn_2-10-10_dog_10_n02110185_11605.png,n02110185_11605.png,1.0,1.8305161,0.83380055,0.70478433
alexnet_w1_mlp_simclrhn_probe3,1,275,NaN,bear,elephant,128-10-10,0275_eid_dnn_128-10-10_elephant_10_n02504458_3091.png,n02504458_3091.png,0.0,0.777401,1.2159413,-0.31009486
alexnet_w1_mlp_simclrhn_probe3,1,276,NaN,bear,chair,128-10-10,0276_eid_dnn_128-10-10_chair_10_n04099969_5233.png,n04099969_5233.png,0.0,0.07990959,1.6729608,-1.1264573
alexnet_w1_mlp_simclrhn_probe3,1,277,NaN,dog,dog,2-10-10,0277_eid_dnn_2-10-10_dog_10_n02097209_7628.png,n02097209_7628.png,1.0,1.7118285,1.3395193,0.26326236
alexnet_w1_mlp_simclrhn_probe3,1,278,NaN,bear,cat,8-10-10,0278_eid_dnn_8-10-10_cat_10_n02123597_10941.png,n02123597_10941.png,0.0,1.0737735,1.5508432,-0.33733925
alexnet_w1_mlp_simclrhn_probe3,1,279,NaN,clock,clock,16-10-10,0279_eid_dnn_16-10-10_clock_10_n02708093_3006.png,n02708093_3006.png,1.0,0.7658275,0.6352452,0.09233561
alexnet_w1_mlp_simclrhn_probe3,1,280,NaN,truck,truck,1-10-10,0280_eid_dnn_1-10-10_truck_10_n03796401_26620.png,n03796401_26620.png,1.0,1.4493008,0.6759322,0.54685414
alexnet_w1_mlp_simclrhn_probe3,1,281,NaN,oven,bear,128-10-10,0281_eid_dnn_128-10-10_bear_10_n02134418_12733.png,n02134418_12733.png,0.0,1.2814839,1.7070054,-0.30088913
alexnet_w1_mlp_simclrhn_probe3,1,282,NaN,knife,knife,2-10-10,0282_eid_dnn_2-10-10_knife_10_n03041632_4806.png,n03041632_4806.png,1.0,1.0046371,0.34556967,0.46603107
alexnet_w1_mlp_simclrhn_probe3,1,283,NaN,oven,oven,4-10-10,0283_eid_dnn_4-10-10_oven_10_n04111531_17922.png,n04111531_17922.png,1.0,5.4072967,1.3853968,2.8439126
alexnet_w1_mlp_simclrhn_probe3,1,284,NaN,bottle,bottle,1-10-10,0284_eid_dnn_1-10-10_bottle_10_n04579145_6818.png,n04579145_6818.png,1.0,3.6500416,0.30182764,2.367545
alexnet_w1_mlp_simclrhn_probe3,1,285,NaN,keyboard,keyboard,4-10-10,0285_eid_dnn_4-10-10_keyboard_10_n04505470_494.png,n04505470_494.png,1.0,3.273693,1.2959243,1.3984938
alexnet_w1_mlp_simclrhn_probe3,1,286,NaN,cat,cat,8-10-10,0286_eid_dnn_8-10-10_cat_10_n02123045_10834.png,n02123045_10834.png,1.0,2.8705223,2.1646872,0.4991008
alexnet_w1_mlp_simclrhn_probe3,1,287,NaN,oven,cat,128-10-10,0287_eid_dnn_128-10-10_cat_10_n02123394_176.png,n02123394_176.png,0.0,0.5638276,1.1210907,-0.39404452
alexnet_w1_mlp_simclrhn_probe3,1,288,NaN,bear,chair,128-10-10,0288_eid_dnn_128-10-10_chair_10_n03376595_2891.png,n03376595_2891.png,0.0,-0.06642744,1.2680831,-0.9436415
alexnet_w1_mlp_simclrhn_probe3,1,289,NaN,bear,dog,8-10-10,0289_eid_dnn_8-10-10_dog_10_n02093256_5647.png,n02093256_5647.png,0.0,2.1027482,3.4401932,-0.94571644
alexnet_w1_mlp_simclrhn_probe3,1,290,NaN,oven,knife,64-10-10,0290_eid_dnn_64-10-10_knife_10_n03041632_33326.png,n03041632_33326.png,0.0,-0.11072961,0.9649813,-0.76064247
alexnet_w1_mlp_simclrhn_probe3,1,291,NaN,oven,airplane,8-10-10,0291_eid_dnn_8-10-10_airplane_10_n02690373_2856.png,n02690373_2856.png,0.0,-0.73515594,1.6136296,-1.6608421
alexnet_w1_mlp_simclrhn_probe3,1,292,NaN,oven,bicycle,128-10-10,0292_eid_dnn_128-10-10_bicycle_10_n03792782_9651.png,n03792782_9651.png,0.0,0.059047356,0.9840925,-0.6541057
alexnet_w1_mlp_simclrhn_probe3,1,293,NaN,bicycle,bicycle,2-10-10,0293_eid_dnn_2-10-10_bicycle_10_n02835271_7438.png,n02835271_7438.png,1.0,3.89889,0.57185143,2.3525715
alexnet_w1_mlp_simclrhn_probe3,1,294,NaN,oven,bicycle,128-10-10,0294_eid_dnn_128-10-10_bicycle_10_n02835271_26639.png,n02835271_26639.png,0.0,0.2973709,1.4098724,-0.7866574
alexnet_w1_mlp_simclrhn_probe3,1,295,NaN,keyboard,keyboard,8-10-10,0295_eid_dnn_8-10-10_keyboard_10_n04505470_4458.png,n04505470_4458.png,1.0,4.970499,1.2144108,2.6559556
alexnet_w1_mlp_simclrhn_probe3,1,296,NaN,oven,dog,64-10-10,0296_eid_dnn_64-10-10_dog_10_n02106662_24847.png,n02106662_24847.png,0.0,-0.11759536,1.4526347,-1.1103203
alexnet_w1_mlp_simclrhn_probe3,1,297,NaN,bear,chair,32-10-10,0297_eid_dnn_32-10-10_chair_10_n03376595_8995.png,n03376595_8995.png,0.0,-0.1656634,1.453105,-1.1446421
alexnet_w1_mlp_simclrhn_probe3,1,298,NaN,bear,bicycle,64-10-10,0298_eid_dnn_64-10-10_bicycle_10_n03792782_6030.png,n03792782_6030.png,0.0,0.30808228,0.802236,-0.34941947
alexnet_w1_mlp_simclrhn_probe3,1,299,NaN,elephant,elephant,4-10-10,0299_eid_dnn_4-10-10_elephant_10_n02504458_7258.png,n02504458_7258.png,1.0,3.5775695,2.7518985,0.58383757
alexnet_w1_mlp_simclrhn_probe3,1,300,NaN,oven,boat,128-10-10,0300_eid_dnn_128-10-10_boat_10_n03662601_23903.png,n03662601_23903.png,0.0,0.036958616,1.0508475,-0.71692777
alexnet_w1_mlp_simclrhn_probe3,1,301,NaN,oven,bird,16-10-10,0301_eid_dnn_16-10-10_bird_10_n02002724_578.png,n02002724_578.png,0.0,-0.5419476,1.3318872,-1.3250014
alexnet_w1_mlp_simclrhn_probe3,1,302,NaN,oven,chair,64-10-10,0302_eid_dnn_64-10-10_chair_10_n03376595_2393.png,n03376595_2393.png,0.0,-0.083690405,0.72676903,-0.5730814
alexnet_w1_mlp_simclrhn_probe3,1,303,NaN,airplane,boat,16-10-10,0303_eid_dnn_16-10-10_boat_10_n03662601_5118.png,n03662601_5118.png,0.0,0.08611974,0.57460535,-0.34541148
alexnet_w1_mlp_simclrhn_probe3,1,304,NaN,oven,chair,8-10-10,0304_eid_dnn_8-10-10_chair_10_n04429376_21845.png,n04429376_21845.png,0.0,0.024946079,1.296291,-0.8989766
alexnet_w1_mlp_simclrhn_probe3,1,305,NaN,bear,dog,8-10-10,0305_eid_dnn_8-10-10_dog_10_n02102040_2216.png,n02102040_2216.png,0.0,0.4468044,0.6050068,-0.111866
alexnet_w1_mlp_simclrhn_probe3,1,306,NaN,elephant,airplane,8-10-10,0306_eid_dnn_8-10-10_airplane_10_n02690373_3032.png,n02690373_3032.png,0.0,0.22568664,1.6753796,-1.0250877
alexnet_w1_mlp_simclrhn_probe3,1,307,NaN,bear,dog,8-10-10,0307_eid_dnn_8-10-10_dog_10_n02100735_2228.png,n02100735_2228.png,0.0,0.74837565,1.1316853,-0.27104083
alexnet_w1_mlp_simclrhn_probe3,1,308,NaN,bear,bird,8-10-10,0308_eid_dnn_8-10-10_bird_10_n01532829_13864.png,n01532829_13864.png,0.0,0.92904735,1.394328,-0.3290031
alexnet_w1_mlp_simclrhn_probe3,1,309,NaN,bear,bird,64-10-10,0309_eid_dnn_64-10-10_bird_10_n01601694_13787.png,n01601694_13787.png,0.0,-0.45667595,0.7993692,-0.888158
alexnet_w1_mlp_simclrhn_probe3,1,310,NaN,bear,bear,64-10-10,0310_eid_dnn_64-10-10_bear_10_n02134084_22150.png,n02134084_22150.png,1.0,1.6089242,0.9429174,0.4709379
alexnet_w1_mlp_simclrhn_probe3,1,311,NaN,oven,knife,16-10-10,0311_eid_dnn_16-10-10_knife_10_n03041632_29427.png,n03041632_29427.png,0.0,0.15317877,2.0761428,-1.3597409
alexnet_w1_mlp_simclrhn_probe3,1,312,NaN,oven,chair,4-10-10,0312_eid_dnn_4-10-10_chair_10_n02791124_2804.png,n02791124_2804.png,0.0,0.7367625,2.1102633,-0.9712118
alexnet_w1_mlp_simclrhn_probe3,1,313,NaN,bottle,bottle,4-10-10,0313_eid_dnn_4-10-10_bottle_10_n04591713_5046.png,n04591713_5046.png,1.0,6.795303,4.7054863,1.4777235
alexnet_w1_mlp_simclrhn_probe3,1,314,NaN,bear,bicycle,128-10-10,0314_eid_dnn_128-10-10_bicycle_10_n03792782_4210.png,n03792782_4210.png,0.0,0.1323166,1.0948983,-0.6806481
alexnet_w1_mlp_simclrhn_probe3,1,315,NaN,oven,cat,128-10-10,0315_eid_dnn_128-10-10_cat_10_n02123159_1596.png,n02123159_1596.png,0.0,0.39720774,1.0850824,-0.48640084
alexnet_w1_mlp_simclrhn_probe3,1,316,NaN,airplane,car,2-10-10,0316_eid_dnn_2-10-10_car_10_n03100240_17588.png,n03100240_17588.png,0.0,3.672138,5.427362,-1.2411308
alexnet_w1_mlp_simclrhn_probe3,1,317,NaN,dog,keyboard,4-10-10,0317_eid_dnn_4-10-10_keyboard_10_n03085013_23295.png,n03085013_23295.png,0.0,0.07965873,2.7047803,-1.8562413
alexnet_w1_mlp_simclrhn_probe3,1,318,NaN,oven,oven,32-10-10,0318_eid_dnn_32-10-10_oven_10_n04111531_4879.png,n04111531_4879.png,1.0,1.6454942,0.95522916,0.4880911
alexnet_w1_mlp_simclrhn_probe3,1,319,NaN,oven,keyboard,32-10-10,0319_eid_dnn_32-10-10_keyboard_10_n04505470_4569.png,n04505470_4569.png,0.0,-0.101796195,1.9198674,-1.4295322
alexnet_w1_mlp_simclrhn_probe3,1,320,NaN,elephant,truck,8-10-10,0320_eid_dnn_8-10-10_truck_10_n04467665_24190.png,n04467665_24190.png,0.0,-0.03356412,2.1110494,-1.5164708
alexnet_w1_mlp_simclrhn_probe3,1,321,NaN,oven,cat,4-10-10,0321_eid_dnn_4-10-10_cat_10_n02124075_15405.png,n02124075_15405.png,0.0,1.7539393,2.2472634,-0.34883288
alexnet_w1_mlp_simclrhn_probe3,1,322,NaN,cat,knife,8-10-10,0322_eid_dnn_8-10-10_knife_10_n03041632_24817.png,n03041632_24817.png,0.0,0.40465733,0.9211729,-0.3652317
alexnet_w1_mlp_simclrhn_probe3,1,323,NaN,oven,elephant,64-10-10,0323_eid_dnn_64-10-10_elephant_10_n02504013_5505.png,n02504013_5505.png,0.0,0.5602596,1.1401149,-0.41001964
alexnet_w1_mlp_simclrhn_probe3,1,324,NaN,elephant,airplane,8-10-10,0324_eid_dnn_8-10-10_airplane_10_n02690373_8846.png,n02690373_8846.png,0.0,0.25482476,1.4236765,-0.826503
alexnet_w1_mlp_simclrhn_probe3,1,325,NaN,bear,truck,32-10-10,0325_eid_dnn_32-10-10_truck_10_n04467665_50806.png,n04467665_50806.png,0.0,0.039671462,1.1546706,-0.7884235
alexnet_w1_mlp_simclrhn_probe3,1,326,NaN,elephant,elephant,4-10-10,0326_eid_dnn_4-10-10_elephant_10_n02504458_5539.png,n02504458_5539.png,1.0,8.518473,3.153697,3.7934694
alexnet_w1_mlp_simclrhn_probe3,1,327,NaN,boat,boat,1-10-10,0327_eid_dnn_1-10-10_boat_10_n03344393_1178.png,n03344393_1178.png,1.0,3.1386251,1.8067149,0.9418028
alexnet_w1_mlp_simclrhn_probe3,1,328,NaN,truck,truck,4-10-10,0328_eid_dnn_4-10-10_truck_10_n04467665_10025.png,n04467665_10025.png,1.0,8.213142,1.9919162,4.399071
alexnet_w1_mlp_simclrhn_probe3,1,329,NaN,clock,clock,4-10-10,0329_eid_dnn_4-10-10_clock_10_n02708093_2869.png,n02708093_2869.png,1.0,1.3333007,0.8672887,0.32952026
alexnet_w1_mlp_simclrhn_probe3,1,330,NaN,oven,bottle,8-10-10,0330_eid_dnn_8-10-10_bottle_10_n03983396_4879.png,n03983396_4879.png,0.0,0.7819286,0.8886582,-0.07546924
alexnet_w1_mlp_simclrhn_probe3,1,331,NaN,oven,keyboard,128-10-10,0331_eid_dnn_128-10-10_keyboard_10_n03085013_10367.png,n03085013_10367.png,0.0,-0.20428602,0.6952961,-0.63610065
alexnet_w1_mlp_simclrhn_probe3,1,332,NaN,oven,bird,64-10-10,0332_eid_dnn_64-10-10_bird_10_n01860187_21300.png,n01860187_21300.png,0.0,-0.52498007,1.377398,-1.3451844
alexnet_w1_mlp_simclrhn_probe3,1,333,NaN,oven,knife,32-10-10,0333_eid_dnn_32-10-10_knife_10_n03041632_5302.png,n03041632_5302.png,0.0,-0.06909229,0.9949286,-0.7523764
alexnet_w1_mlp_simclrhn_probe3,1,334,NaN,bear,bear,4-10-10,0334_eid_dnn_4-10-10_bear_10_n02134084_5274.png,n02134084_5274.png,1.0,5.523444,3.6974413,1.2911791
alexnet_w1_mlp_simclrhn_probe3,1,335,NaN,airplane,knife,4-10-10,0335_eid_dnn_4-10-10_knife_10_n03041632_48816.png,n03041632_48816.png,0.0,0.68897206,1.8027632,-0.78756934
alexnet_w1_mlp_simclrhn_probe3,1,336,NaN,oven,elephant,16-10-10,0336_eid_dnn_16-10-10_elephant_10_n02504013_3295.png,n02504013_3295.png,0.0,-0.06550305,1.661734,-1.221341
alexnet_w1_mlp_simclrhn_probe3,1,337,NaN,oven,truck,128-10-10,0337_eid_dnn_128-10-10_truck_10_n03417042_2478.png,n03417042_2478.png,0.0,-0.23786649,1.1433251,-0.97665
alexnet_w1_mlp_simclrhn_probe3,1,338,NaN,oven,oven,32-10-10,0338_eid_dnn_32-10-10_oven_10_n04111531_5350.png,n04111531_5350.png,1.0,1.1561974,0.918885,0.16780524
alexnet_w1_mlp_simclrhn_probe3,1,339,NaN,oven,airplane,8-10-10,0339_eid_dnn_8-10-10_airplane_10_n02690373_1663.png,n02690373_1663.png,0.0,-0.7750619,1.1265224,-1.3446232
alexnet_w1_mlp_simclrhn_probe3,1,340,NaN,boat,boat,4-10-10,0340_eid_dnn_4-10-10_boat_10_n03344393_1422.png,n03344393_1422.png,1.0,2.516451,1.4780086,0.7342896
alexnet_w1_mlp_simclrhn_probe3,1,341,NaN,oven,cat,32-10-10,0341_eid_dnn_32-10-10_cat_10_n02123159_3312.png,n02123159_3312.png,0.0,0.5579065,1.3267851,-0.54367924
alexnet_w1_mlp_simclrhn_probe3,1,342,NaN,bear,chair,64-10-10,0342_eid_dnn_64-10-10_chair_10_n03376595_6171.png,n03376595_6171.png,0.0,-0.33986217,1.1617374,-1.0617913
alexnet_w1_mlp_simclrhn_probe3,1,343,NaN,bottle,bottle,8-10-10,0343_eid_dnn_8-10-10_bottle_10_n04591713_1616.png,n04591713_1616.png,1.0,0.9791461,0.7432228,0.166823
alexnet_w1_mlp_simclrhn_probe3,1,344,NaN,bear,bear,128-10-10,0344_eid_dnn_128-10-10_bear_10_n02133161_1197.png,n02133161_1197.png,1.0,1.1164725,0.75565714,0.25513497
alexnet_w1_mlp_simclrhn_probe3,1,345,NaN,oven,truck,4-10-10,0345_eid_dnn_4-10-10_truck_10_n04467665_663.png,n04467665_663.png,0.0,-0.72965884,4.553961,-3.7360835
alexnet_w1_mlp_simclrhn_probe3,1,346,NaN,bear,bear,4-10-10,0346_eid_dnn_4-10-10_bear_10_n02132136_2771.png,n02132136_2771.png,1.0,3.91775,1.5697123,1.6603134
alexnet_w1_mlp_simclrhn_probe3,1,347,NaN,oven,cat,16-10-10,0347_eid_dnn_16-10-10_cat_10_n02123394_12.png,n02123394_12.png,0.0,0.19265582,1.0514361,-0.6072494
alexnet_w1_mlp_simclrhn_probe3,1,348,NaN,bear,car,8-10-10,0348_eid_dnn_8-10-10_car_10_n04285008_1795.png,n04285008_1795.png,0.0,-0.9622863,1.5487897,-1.7755989
alexnet_w1_mlp_simclrhn_probe3,1,349,NaN,bear,boat,4-10-10,0349_eid_dnn_4-10-10_boat_10_n04273569_1023.png,n04273569_1023.png,0.0,0.56740916,1.1449654,-0.40839395
alexnet_w1_mlp_simclrhn_probe3,1,350,NaN,boat,boat,1-10-10,0350_eid_dnn_1-10-10_boat_10_n03662601_21775.png,n03662601_21775.png,1.0,7.4661703,3.3788662,2.8901606
alexnet_w1_mlp_simclrhn_probe3,1,351,NaN,chair,clock,1-10-10,0351_eid_dnn_1-10-10_clock_10_n03196217_71.png,n03196217_71.png,0.0,1.474669,2.4228396,-0.6704579
alexnet_w1_mlp_simclrhn_probe3,1,352,NaN,airplane,keyboard,4-10-10,0352_eid_dnn_4-10-10_keyboard_10_n04505470_3122.png,n04505470_3122.png,0.0,0.31576517,0.68462694,-0.26082465
alexnet_w1_mlp_simclrhn_probe3,1,353,NaN,oven,dog,32-10-10,0353_eid_dnn_32-10-10_dog_10_n02099849_4640.png,n02099849_4640.png,0.0,0.14590588,1.2283719,-0.76541907
alexnet_w1_mlp_simclrhn_probe3,1,354,NaN,bear,bottle,64-10-10,0354_eid_dnn_64-10-10_bottle_10_n02823428_6418.png,n02823428_6418.png,0.0,0.16506496,0.9238008,-0.5365073
alexnet_w1_mlp_simclrhn_probe3,1,355,NaN,oven,car,8-10-10,0355_eid_dnn_8-10-10_car_10_n04285008_11704.png,n04285008_11704.png,0.0,-0.5902198,2.1111426,-1.9101517
alexnet_w1_mlp_simclrhn_probe3,1,356,NaN,clock,clock,32-10-10,0356_eid_dnn_32-10-10_clock_10_n02708093_3544.png,n02708093_3544.png,1.0,0.28782338,0.22739317,0.042730615
alexnet_w1_mlp_simclrhn_probe3,1,357,NaN,oven,clock,8-10-10,0357_eid_dnn_8-10-10_clock_10_n04548280_4599.png,n04548280_4599.png,0.0,-0.26263213,0.68864083,-0.6726516
alexnet_w1_mlp_simclrhn_probe3,1,358,NaN,oven,car,128-10-10,0358_eid_dnn_128-10-10_car_10_n03100240_6259.png,n03100240_6259.png,0.0,-0.32946542,1.9040086,-1.5793047
alexnet_w1_mlp_simclrhn_probe3,1,359,NaN,boat,boat,8-10-10,0359_eid_dnn_8-10-10_boat_10_n04273569_3401.png,n04273569_3401.png,1.0,0.9338069,0.65398866,0.19786137
alexnet_w1_mlp_simclrhn_probe3,1,360,NaN,bear,truck,64-10-10,0360_eid_dnn_64-10-10_truck_10_n04467665_13898.png,n04467665_13898.png,0.0,-0.112206645,1.5430315,-1.1704302
alexnet_w1_mlp_simclrhn_probe3,1,361,NaN,keyboard,clock,2-10-10,0361_eid_dnn_2-10-10_clock_10_n03196217_1499.png,n03196217_1499.png,0.0,0.7438405,1.8137233,-0.75652146
alexnet_w1_mlp_simclrhn_probe3,1,362,NaN,bicycle,car,4-10-10,0362_eid_dnn_4-10-10_car_10_n03100240_8702.png,n03100240_8702.png,0.0,0.6765627,1.325979,-0.45920664
alexnet_w1_mlp_simclrhn_probe3,1,363,NaN,bear,bear,4-10-10,0363_eid_dnn_4-10-10_bear_10_n02134418_1770.png,n02134418_1770.png,1.0,3.2383575,1.0483483,1.5485703
alexnet_w1_mlp_simclrhn_probe3,1,364,NaN,bear,bear,16-10-10,0364_eid_dnn_16-10-10_bear_10_n02132136_32838.png,n02132136_32838.png,1.0,2.2940867,1.4041684,0.6292673
alexnet_w1_mlp_simclrhn_probe3,1,365,NaN,boat,truck,4-10-10,0365_eid_dnn_4-10-10_truck_10_n04467665_68331.png,n04467665_68331.png,0.0,-0.40574756,0.80622053,-0.8569909
alexnet_w1_mlp_simclrhn_probe3,1,366,NaN,airplane,airplane,1-10-10,0366_eid_dnn_1-10-10_airplane_10_n02690373_4506.png,n02690373_4506.png,1.0,7.1624627,1.2996204,4.1456556
alexnet_w1_mlp_simclrhn_probe3,1,367,NaN,car,car,2-10-10,0367_eid_dnn_2-10-10_car_10_n03100240_5308.png,n03100240_5308.png,1.0,2.7461948,1.5830224,0.8224872
alexnet_w1_mlp_simclrhn_probe3,1,368,NaN,keyboard,cat,2-10-10,0368_eid_dnn_2-10-10_cat_10_n02124075_15345.png,n02124075_15345.png,0.0,0.5553937,1.2662756,-0.50266945
alexnet_w1_mlp_simclrhn_probe3,1,369,NaN,oven,bicycle,128-10-10,0369_eid_dnn_128-10-10_bicycle_10_n03792782_50972.png,n03792782_50972.png,0.0,0.3033977,0.8512103,-0.387362
alexnet_w1_mlp_simclrhn_probe3,1,370,NaN,oven,knife,8-10-10,0370_eid_dnn_8-10-10_knife_10_n03041632_19098.png,n03041632_19098.png,0.0,-0.0022531152,0.80783117,-0.5728161
alexnet_w1_mlp_simclrhn_probe3,1,371,NaN,oven,bottle,128-10-10,0371_eid_dnn_128-10-10_bottle_10_n04560804_15963.png,n04560804_15963.png,0.0,0.09910762,1.3931687,-0.91503936
alexnet_w1_mlp_simclrhn_probe3,1,372,NaN,oven,bottle,8-10-10,0372_eid_dnn_8-10-10_bottle_10_n04557648_7809.png,n04557648_7809.png,0.0,0.072121665,1.2669522,-0.8448728
alexnet_w1_mlp_simclrhn_probe3,1,373,NaN,airplane,airplane,1-10-10,0373_eid_dnn_1-10-10_airplane_10_n02690373_17764.png,n02690373_17764.png,1.0,5.734442,1.3802832,3.0788553
alexnet_w1_mlp_simclrhn_probe3,1,374,NaN,oven,elephant,64-10-10,0374_eid_dnn_64-10-10_elephant_10_n02504013_7322.png,n02504013_7322.png,0.0,0.30432433,1.7061412,-0.99123424
alexnet_w1_mlp_simclrhn_probe3,1,375,NaN,elephant,bear,2-10-10,0375_eid_dnn_2-10-10_bear_10_n02134084_2959.png,n02134084_2959.png,0.0,0.8208084,1.1695124,-0.24657096
alexnet_w1_mlp_simclrhn_probe3,1,376,NaN,bicycle,bird,2-10-10,0376_eid_dnn_2-10-10_bird_10_n01622779_6563.png,n01622779_6563.png,0.0,0.89593655,1.0268881,-0.092596754
alexnet_w1_mlp_simclrhn_probe3,1,377,NaN,oven,knife,16-10-10,0377_eid_dnn_16-10-10_knife_10_n03041632_19620.png,n03041632_19620.png,0.0,0.34553042,1.1231762,-0.54987866
alexnet_w1_mlp_simclrhn_probe3,1,378,NaN,bird,bird,4-10-10,0378_eid_dnn_4-10-10_bird_10_n01530575_35977.png,n01530575_35977.png,1.0,0.8899613,0.33162773,0.39480147
alexnet_w1_mlp_simclrhn_probe3,1,379,NaN,oven,cat,128-10-10,0379_eid_dnn_128-10-10_cat_10_n02123394_1757.png,n02123394_1757.png,0.0,-0.0037235618,1.0234246,-0.7263035
alexnet_w1_mlp_simclrhn_probe3,1,380,NaN,oven,dog,2-10-10,0380_eid_dnn_2-10-10_dog_10_n02093647_6358.png,n02093647_6358.png,0.0,-0.39226055,0.9487154,-0.9482132
alexnet_w1_mlp_simclrhn_probe3,1,381,NaN,boat,boat,1-10-10,0381_eid_dnn_1-10-10_boat_10_n02951358_1470.png,n02951358_1470.png,1.0,2.5812926,2.189452,0.2770732
alexnet_w1_mlp_simclrhn_probe3,1,382,NaN,oven,elephant,128-10-10,0382_eid_dnn_128-10-10_elephant_10_n02504458_2026.png,n02504458_2026.png,0.0,0.33310983,0.7956312,-0.327052
alexnet_w1_mlp_simclrhn_probe3,1,383,NaN,bear,elephant,32-10-10,0383_eid_dnn_32-10-10_elephant_10_n02504458_3730.png,n02504458_3730.png,0.0,0.8349327,0.92982364,-0.06709804
alexnet_w1_mlp_simclrhn_probe3,1,384,NaN,oven,keyboard,8-10-10,0384_eid_dnn_8-10-10_keyboard_10_n03085013_20881.png,n03085013_20881.png,0.0,0.27003014,1.1564335,-0.6267818
alexnet_w1_mlp_simclrhn_probe3,1,385,NaN,dog,dog,4-10-10,0385_eid_dnn_4-10-10_dog_10_n02105641_8188.png,n02105641_8188.png,1.0,1.28993,0.5390636,0.53094274
alexnet_w1_mlp_simclrhn_probe3,1,386,NaN,bear,clock,32-10-10,0386_eid_dnn_32-10-10_clock_10_n03196217_6320.png,n03196217_6320.png,0.0,0.21569401,1.1914798,-0.68998474
alexnet_w1_mlp_simclrhn_probe3,1,387,NaN,oven,car,32-10-10,0387_eid_dnn_32-10-10_car_10_n04285008_12333.png,n04285008_12333.png,0.0,-0.6393371,1.6974552,-1.6523616
alexnet_w1_mlp_simclrhn_probe3,1,388,NaN,knife,knife,2-10-10,0388_eid_dnn_2-10-10_knife_10_n03041632_47743.png,n03041632_47743.png,1.0,1.5043246,1.2371755,0.18890294
alexnet_w1_mlp_simclrhn_probe3,1,389,NaN,boat,boat,8-10-10,0389_eid_dnn_8-10-10_boat_10_n04612504_8073.png,n04612504_8073.png,1.0,1.7050422,0.68208236,0.72334194
alexnet_w1_mlp_simclrhn_probe3,1,390,NaN,oven,knife,128-10-10,0390_eid_dnn_128-10-10_knife_10_n03041632_20770.png,n03041632_20770.png,0.0,0.008887619,1.9269663,-1.3562864
alexnet_w1_mlp_simclrhn_probe3,1,391,NaN,oven,car,32-10-10,0391_eid_dnn_32-10-10_car_10_n02814533_28783.png,n02814533_28783.png,0.0,-0.6942851,2.1150787,-1.9865203
alexnet_w1_mlp_simclrhn_probe3,1,392,NaN,bear,car,128-10-10,0392_eid_dnn_128-10-10_car_10_n02814533_13533.png,n02814533_13533.png,0.0,-0.3518951,1.6122346,-1.3888495
alexnet_w1_mlp_simclrhn_probe3,1,393,NaN,bear,dog,16-10-10,0393_eid_dnn_16-10-10_dog_10_n02104029_8137.png,n02104029_8137.png,0.0,0.4647907,0.8671773,-0.2845303
alexnet_w1_mlp_simclrhn_probe3,1,394,NaN,bicycle,bicycle,4-10-10,0394_eid_dnn_4-10-10_bicycle_10_n02835271_3990.png,n02835271_3990.png,1.0,2.5116553,0.20303608,1.6324403
alexnet_w1_mlp_simclrhn_probe3,1,395,NaN,bear,bear,4-10-10,0395_eid_dnn_4-10-10_bear_10_n02132136_24311.png,n02132136_24311.png,1.0,3.278927,1.3929957,1.3335549
alexnet_w1_mlp_simclrhn_probe3,1,396,NaN,truck,truck,2-10-10,0396_eid_dnn_2-10-10_truck_10_n03796401_6966.png,n03796401_6966.png,1.0,8.124537,5.041482,2.1800494
alexnet_w1_mlp_simclrhn_probe3,1,397,NaN,knife,knife,1-10-10,0397_eid_dnn_1-10-10_knife_10_n03041632_8468.png,n03041632_8468.png,1.0,0.99110717,0.21699071,0.547383
alexnet_w1_mlp_simclrhn_probe3,1,398,NaN,oven,elephant,128-10-10,0398_eid_dnn_128-10-10_elephant_10_n02504458_6799.png,n02504458_6799.png,0.0,0.5775628,0.66657364,-0.062940165
alexnet_w1_mlp_simclrhn_probe3,1,399,NaN,bird,keyboard,16-10-10,0399_eid_dnn_16-10-10_keyboard_10_n03085013_24402.png,n03085013_24402.png,0.0,-0.43510917,1.3303005,-1.2483331
alexnet_w1_mlp_simclrhn_probe3,1,400,NaN,bear,knife,16-10-10,0400_eid_dnn_16-10-10_knife_10_n03041632_25772.png,n03041632_25772.png,0.0,-0.07496734,0.5913496,-0.47115722
alexnet_w1_mlp_simclrhn_probe3,1,401,NaN,oven,elephant,32-10-10,0401_eid_dnn_32-10-10_elephant_10_n02504458_5839.png,n02504458_5839.png,0.0,0.45135123,1.0676687,-0.43580225
alexnet_w1_mlp_simclrhn_probe3,1,402,NaN,bear,elephant,64-10-10,0402_eid_dnn_64-10-10_elephant_10_n02504458_5178.png,n02504458_5178.png,0.0,0.5825734,1.3189067,-0.52066624
alexnet_w1_mlp_simclrhn_probe3,1,403,NaN,oven,bicycle,32-10-10,0403_eid_dnn_32-10-10_bicycle_10_n02835271_27014.png,n02835271_27014.png,0.0,-0.24175477,1.312707,-1.0991704
alexnet_w1_mlp_simclrhn_probe3,1,404,NaN,oven,car,128-10-10,0404_eid_dnn_128-10-10_car_10_n04285008_15218.png,n04285008_15218.png,0.0,-0.38602057,0.9026303,-0.91121376
alexnet_w1_mlp_simclrhn_probe3,1,405,NaN,oven,bicycle,8-10-10,0405_eid_dnn_8-10-10_bicycle_10_n02835271_19955.png,n02835271_19955.png,0.0,0.5498183,1.1446636,-0.42061916
alexnet_w1_mlp_simclrhn_probe3,1,406,NaN,truck,truck,1-10-10,0406_eid_dnn_1-10-10_truck_10_n03796401_874.png,n03796401_874.png,1.0,5.694227,1.8621716,2.7096725
alexnet_w1_mlp_simclrhn_probe3,1,407,NaN,dog,dog,2-10-10,0407_eid_dnn_2-10-10_dog_10_n02108915_6092.png,n02108915_6092.png,1.0,1.5223844,0.4482733,0.75951123
alexnet_w1_mlp_simclrhn_probe3,1,408,NaN,oven,clock,16-10-10,0408_eid_dnn_16-10-10_clock_10_n04548280_6337.png,n04548280_6337.png,0.0,0.030703098,1.1679171,-0.8041318
alexnet_w1_mlp_simclrhn_probe3,1,409,NaN,elephant,boat,4-10-10,0409_eid_dnn_4-10-10_boat_10_n04273569_1388.png,n04273569_1388.png,0.0,1.1240318,1.4080695,-0.20084499
alexnet_w1_mlp_simclrhn_probe3,1,410,NaN,oven,clock,64-10-10,0410_eid_dnn_64-10-10_clock_10_n02708093_2676.png,n02708093_2676.png,0.0,0.20008986,1.735573,-1.0857506
alexnet_w1_mlp_simclrhn_probe3,1,411,NaN,bear,dog,64-10-10,0411_eid_dnn_64-10-10_dog_10_n02107683_5424.png,n02107683_5424.png,0.0,0.49020794,1.1613979,-0.47460303
alexnet_w1_mlp_simclrhn_probe3,1,412,NaN,chair,chair,1-10-10,0412_eid_dnn_1-10-10_chair_10_n04099969_29038.png,n04099969_29038.png,1.0,2.1082056,0.8154175,0.9141392
alexnet_w1_mlp_simclrhn_probe3,1,413,NaN,oven,clock,16-10-10,0413_eid_dnn_16-10-10_clock_10_n04548280_3219.png,n04548280_3219.png,0.0,0.2983146,2.2617636,-1.3883681
alexnet_w1_mlp_simclrhn_probe3,1,414,NaN,oven,clock,32-10-10,0414_eid_dnn_32-10-10_clock_10_n03196217_8282.png,n03196217_8282.png,0.0,-0.18656397,0.42224285,-0.43049145
alexnet_w1_mlp_simclrhn_probe3,1,415,NaN,oven,oven,8-10-10,0415_eid_dnn_8-10-10_oven_10_n04111531_22041.png,n04111531_22041.png,1.0,2.8702087,1.8232638,0.7403019
alexnet_w1_mlp_simclrhn_probe3,1,416,NaN,bear,bear,8-10-10,0416_eid_dnn_8-10-10_bear_10_n02134084_6964.png,n02134084_6964.png,1.0,2.084728,1.3467169,0.5218527
alexnet_w1_mlp_simclrhn_probe3,1,417,NaN,oven,bicycle,64-10-10,0417_eid_dnn_64-10-10_bicycle_10_n03792782_11921.png,n03792782_11921.png,0.0,0.124864735,1.1720876,-0.74049836
alexnet_w1_mlp_simclrhn_probe3,1,418,NaN,airplane,clock,8-10-10,0418_eid_dnn_8-10-10_clock_10_n04548280_1809.png,n04548280_1809.png,0.0,0.39564183,0.9369949,-0.38279447
alexnet_w1_mlp_simclrhn_probe3,1,419,NaN,bird,bird,4-10-10,0419_eid_dnn_4-10-10_bird_10_n01833805_202.png,n01833805_202.png,1.0,1.0304526,0.43122223,0.42371988
alexnet_w1_mlp_simclrhn_probe3,1,420,NaN,oven,keyboard,64-10-10,0420_eid_dnn_64-10-10_keyboard_10_n03085013_7511.png,n03085013_7511.png,0.0,0.17700066,1.6557555,-1.0456376
alexnet_w1_mlp_simclrhn_probe3,1,421,NaN,dog,bird,1-10-10,0421_eid_dnn_1-10-10_bird_10_n02025239_5287.png,n02025239_5287.png,0.0,0.041121997,0.5803674,-0.38130406
alexnet_w1_mlp_simclrhn_probe3,1,422,NaN,bear,boat,64-10-10,0422_eid_dnn_64-10-10_boat_10_n03662601_27960.png,n03662601_27960.png,0.0,0.18769923,0.811637,-0.4411906
alexnet_w1_mlp_simclrhn_probe3,1,423,NaN,dog,bottle,1-10-10,0423_eid_dnn_1-10-10_bottle_10_n04591713_6855.png,n04591713_6855.png,0.0,-0.45199847,1.3301686,-1.2601825
alexnet_w1_mlp_simclrhn_probe3,1,424,NaN,bear,elephant,128-10-10,0424_eid_dnn_128-10-10_elephant_10_n02504013_4424.png,n02504013_4424.png,0.0,0.95696324,1.4227984,-0.3293952
alexnet_w1_mlp_simclrhn_probe3,1,425,NaN,clock,clock,2-10-10,0425_eid_dnn_2-10-10_clock_10_n04548280_3295.png,n04548280_3295.png,1.0,2.145609,0.7959199,0.95437425
alexnet_w1_mlp_simclrhn_probe3,1,426,NaN,airplane,airplane,1-10-10,0426_eid_dnn_1-10-10_airplane_10_n02690373_6144.png,n02690373_6144.png,1.0,7.4277616,2.2230787,3.6802666
alexnet_w1_mlp_simclrhn_probe3,1,427,NaN,bear,truck,32-10-10,0427_eid_dnn_32-10-10_truck_10_n04467665_70894.png,n04467665_70894.png,0.0,-0.08948149,0.835216,-0.65385985
alexnet_w1_mlp_simclrhn_probe3,1,428,NaN,oven,boat,128-10-10,0428_eid_dnn_128-10-10_boat_10_n02951358_30474.png,n02951358_30474.png,0.0,-0.04419287,0.41437295,-0.32425502
alexnet_w1_mlp_simclrhn_probe3,1,429,NaN,bear,bear,4-10-10,0429_eid_dnn_4-10-10_bear_10_n02132136_6434.png,n02132136_6434.png,1.0,3.7796044,2.0811384,1.2009969
alexnet_w1_mlp_simclrhn_probe3,1,430,NaN,oven,keyboard,32-10-10,0430_eid_dnn_32-10-10_keyboard_10_n04505470_5009.png,n04505470_5009.png,0.0,0.0042507946,1.4192969,-1.0005887
alexnet_w1_mlp_simclrhn_probe3,1,431,NaN,keyboard,keyboard,2-10-10,0431_eid_dnn_2-10-10_keyboard_10_n03085013_13005.png,n03085013_13005.png,1.0,7.8402815,1.4156263,4.5429173
alexnet_w1_mlp_simclrhn_probe3,1,432,NaN,chair,chair,1-10-10,0432_eid_dnn_1-10-10_chair_10_n03376595_6865.png,n03376595_6865.png,1.0,3.7690902,1.5125797,1.5955939
alexnet_w1_mlp_simclrhn_probe3,1,433,NaN,oven,bicycle,32-10-10,0433_eid_dnn_32-10-10_bicycle_10_n02835271_6122.png,n02835271_6122.png,0.0,-0.07882325,1.0952384,-0.83018696
alexnet_w1_mlp_simclrhn_probe3,1,434,NaN,oven,oven,4-10-10,0434_eid_dnn_4-10-10_oven_10_n04111531_11499.png,n04111531_11499.png,1.0,2.156816,0.45036036,1.2066464
alexnet_w1_mlp_simclrhn_probe3,1,435,NaN,bird,bird,1-10-10,0435_eid_dnn_1-10-10_bird_10_n02009229_5765.png,n02009229_5765.png,1.0,2.3831642,0.44967428,1.3671838
alexnet_w1_mlp_simclrhn_probe3,1,436,NaN,bear,bottle,32-10-10,0436_eid_dnn_32-10-10_bottle_10_n04560804_2181.png,n04560804_2181.png,0.0,-0.013489099,1.390285,-0.9926182
alexnet_w1_mlp_simclrhn_probe3,1,437,NaN,bear,bicycle,32-10-10,0437_eid_dnn_32-10-10_bicycle_10_n03792782_3774.png,n03792782_3774.png,0.0,0.33097416,1.6061764,-0.9017042
alexnet_w1_mlp_simclrhn_probe3,1,438,NaN,airplane,bird,16-10-10,0438_eid_dnn_16-10-10_bird_10_n01614925_1683.png,n01614925_1683.png,0.0,0.17949179,1.0695851,-0.629391
alexnet_w1_mlp_simclrhn_probe3,1,439,NaN,clock,clock,8-10-10,0439_eid_dnn_8-10-10_clock_10_n02708093_4692.png,n02708093_4692.png,1.0,0.82311887,0.3769627,0.31548005
alexnet_w1_mlp_simclrhn_probe3,1,440,NaN,elephant,dog,4-10-10,0440_eid_dnn_4-10-10_dog_10_n02109961_71298.png,n02109961_71298.png,0.0,2.004125,2.5572667,-0.39113018
alexnet_w1_mlp_simclrhn_probe3,1,441,NaN,bottle,keyboard,2-10-10,0441_eid_dnn_2-10-10_keyboard_10_n03085013_23269.png,n03085013_23269.png,0.0,0.8083911,0.83034813,-0.0155259725
alexnet_w1_mlp_simclrhn_probe3,1,442,NaN,elephant,elephant,2-10-10,0442_eid_dnn_2-10-10_elephant_10_n02504458_5614.png,n02504458_5614.png,1.0,2.2606359,0.907994,0.9564622
alexnet_w1_mlp_simclrhn_probe3,1,443,NaN,airplane,car,2-10-10,0443_eid_dnn_2-10-10_car_10_n04285008_4640.png,n04285008_4640.png,0.0,1.6211697,3.4476156,-1.2914923
alexnet_w1_mlp_simclrhn_probe3,1,444,NaN,oven,oven,128-10-10,0444_eid_dnn_128-10-10_oven_10_n04111531_6346.png,n04111531_6346.png,1.0,0.9600382,0.70303166,0.18173106
alexnet_w1_mlp_simclrhn_probe3,1,445,NaN,chair,chair,2-10-10,0445_eid_dnn_2-10-10_chair_10_n04099969_14851.png,n04099969_14851.png,1.0,3.5757904,1.831629,1.2333083
alexnet_w1_mlp_simclrhn_probe3,1,446,NaN,bear,bird,64-10-10,0446_eid_dnn_64-10-10_bird_10_n02051845_534.png,n02051845_534.png,0.0,-0.8322617,1.6719289,-1.77073
alexnet_w1_mlp_simclrhn_probe3,1,447,NaN,bear,bird,128-10-10,0447_eid_dnn_128-10-10_bird_10_n02056570_9342.png,n02056570_9342.png,0.0,-0.83876926,1.100301,-1.3711298
alexnet_w1_mlp_simclrhn_probe3,1,448,NaN,oven,oven,16-10-10,0448_eid_dnn_16-10-10_oven_10_n04111531_4900.png,n04111531_4900.png,1.0,3.163669,0.8485262,1.6370533
alexnet_w1_mlp_simclrhn_probe3,1,449,NaN,bear,boat,32-10-10,0449_eid_dnn_32-10-10_boat_10_n02951358_31973.png,n02951358_31973.png,0.0,-0.23158208,1.0564264,-0.9107595
alexnet_w1_mlp_simclrhn_probe3,1,450,NaN,knife,keyboard,4-10-10,0450_eid_dnn_4-10-10_keyboard_10_n03085013_19842.png,n03085013_19842.png,0.0,-0.49400535,0.7529571,-0.8817356
alexnet_w1_mlp_simclrhn_probe3,1,451,NaN,oven,keyboard,8-10-10,0451_eid_dnn_8-10-10_keyboard_10_n03085013_8296.png,n03085013_8296.png,0.0,0.32443202,0.5269898,-0.14322999
alexnet_w1_mlp_simclrhn_probe3,1,452,NaN,oven,car,16-10-10,0452_eid_dnn_16-10-10_car_10_n03100240_3528.png,n03100240_3528.png,0.0,-0.50885075,1.4186414,-1.3629428
alexnet_w1_mlp_simclrhn_probe3,1,453,NaN,oven,cat,8-10-10,0453_eid_dnn_8-10-10_cat_10_n02123159_7210.png,n02123159_7210.png,0.0,2.0487726,2.3602047,-0.22021577
alexnet_w1_mlp_simclrhn_probe3,1,454,NaN,knife,knife,16-10-10,0454_eid_dnn_16-10-10_knife_10_n03041632_56172.png,n03041632_56172.png,1.0,0.71102333,0.54292923,0.118860476
alexnet_w1_mlp_simclrhn_probe3,1,455,NaN,oven,oven,4-10-10,0455_eid_dnn_4-10-10_oven_10_n04111531_2116.png,n04111531_2116.png,1.0,2.8714998,0.7289812,1.5149894
alexnet_w1_mlp_simclrhn_probe3,1,456,NaN,bicycle,bicycle,8-10-10,0456_eid_dnn_8-10-10_bicycle_10_n02835271_12477.png,n02835271_12477.png,1.0,1.3300035,0.60876566,0.5099922
alexnet_w1_mlp_simclrhn_probe3,1,457,NaN,knife,knife,2-10-10,0457_eid_dnn_2-10-10_knife_10_n03041632_42472.png,n03041632_42472.png,1.0,2.2810671,1.3826202,0.6352979
alexnet_w1_mlp_simclrhn_probe3,1,458,NaN,oven,oven,2-10-10,0458_eid_dnn_2-10-10_oven_10_n04111531_8818.png,n04111531_8818.png,1.0,1.9719826,1.6524981,0.22590964
alexnet_w1_mlp_simclrhn_probe3,1,459,NaN,boat,truck,2-10-10,0459_eid_dnn_2-10-10_truck_10_n04467665_67115.png,n04467665_67115.png,0.0,0.5819801,1.265888,-0.4835959
alexnet_w1_mlp_simclrhn_probe3,1,460,NaN,bird,bird,4-10-10,0460_eid_dnn_4-10-10_bird_10_n02011460_3521.png,n02011460_3521.png,1.0,2.0785637,0.3745647,1.2049093
alexnet_w1_mlp_simclrhn_probe3,1,461,NaN,bear,bear,64-10-10,0461_eid_dnn_64-10-10_bear_10_n02133161_3533.png,n02133161_3533.png,1.0,2.0128698,1.1298368,0.62439865
alexnet_w1_mlp_simclrhn_probe3,1,462,NaN,bear,bird,8-10-10,0462_eid_dnn_8-10-10_bird_10_n02013706_637.png,n02013706_637.png,0.0,0.3241916,1.5001138,-0.8315026
alexnet_w1_mlp_simclrhn_probe3,1,463,NaN,oven,bear,64-10-10,0463_eid_dnn_64-10-10_bear_10_n02132136_29636.png,n02132136_29636.png,0.0,0.8595407,0.96012837,-0.07112622
alexnet_w1_mlp_simclrhn_probe3,1,464,NaN,bicycle,bicycle,2-10-10,0464_eid_dnn_2-10-10_bicycle_10_n02835271_634.png,n02835271_634.png,1.0,2.5994992,1.0103179,1.1237209
alexnet_w1_mlp_simclrhn_probe3,1,465,NaN,keyboard,keyboard,1-10-10,0465_eid_dnn_1-10-10_keyboard_10_n04505470_4621.png,n04505470_4621.png,1.0,2.6013422,1.7777047,0.58239967
alexnet_w1_mlp_simclrhn_probe3,1,466,NaN,bear,bear,16-10-10,0466_eid_dnn_16-10-10_bear_10_n02134084_2844.png,n02134084_2844.png,1.0,0.52171206,0.39145443,0.09210606
alexnet_w1_mlp_simclrhn_probe3,1,467,NaN,bicycle,bicycle,4-10-10,0467_eid_dnn_4-10-10_bicycle_10_n03792782_17088.png,n03792782_17088.png,1.0,2.6186004,0.4737203,1.5166593
alexnet_w1_mlp_simclrhn_probe3,1,468,NaN,bird,clock,4-10-10,0468_eid_dnn_4-10-10_clock_10_n03196217_8706.png,n03196217_8706.png,0.0,-0.4384402,1.0697852,-1.0664765
alexnet_w1_mlp_simclrhn_probe3,1,469,NaN,oven,oven,4-10-10,0469_eid_dnn_4-10-10_oven_10_n04111531_15052.png,n04111531_15052.png,1.0,3.418136,0.978502,1.7250817
alexnet_w1_mlp_simclrhn_probe3,1,470,NaN,oven,bottle,16-10-10,0470_eid_dnn_16-10-10_bottle_10_n04560804_5769.png,n04560804_5769.png,0.0,0.3603906,1.241082,-0.62274283
alexnet_w1_mlp_simclrhn_probe3,1,471,NaN,bear,dog,128-10-10,0471_eid_dnn_128-10-10_dog_10_n02110063_14116.png,n02110063_14116.png,0.0,0.056919154,0.6384671,-0.41121647
alexnet_w1_mlp_simclrhn_probe3,1,472,NaN,cat,cat,32-10-10,0472_eid_dnn_32-10-10_cat_10_n02124075_3609.png,n02124075_3609.png,1.0,1.5609366,1.4421625,0.08398594
alexnet_w1_mlp_simclrhn_probe3,1,473,NaN,airplane,airplane,32-10-10,0473_eid_dnn_32-10-10_airplane_10_n02690373_10926.png,n02690373_10926.png,1.0,1.036977,0.20144686,0.59080905
alexnet_w1_mlp_simclrhn_probe3,1,474,NaN,oven,bird,16-10-10,0474_eid_dnn_16-10-10_bird_10_n02033041_7229.png,n02033041_7229.png,0.0,-0.26291537,0.6622153,-0.65416616
alexnet_w1_mlp_simclrhn_probe3,1,475,NaN,bird,bird,2-10-10,0475_eid_dnn_2-10-10_bird_10_n02006656_611.png,n02006656_611.png,1.0,1.6040646,0.837782,0.5418436
alexnet_w1_mlp_simclrhn_probe3,1,476,NaN,oven,bear,16-10-10,0476_eid_dnn_16-10-10_bear_10_n02133161_958.png,n02133161_958.png,0.0,0.11736791,0.584976,-0.33064887
alexnet_w1_mlp_simclrhn_probe3,1,477,NaN,bird,bird,8-10-10,0477_eid_dnn_8-10-10_bird_10_n01843065_148.png,n01843065_148.png,1.0,2.9093606,1.8748462,0.7315122
alexnet_w1_mlp_simclrhn_probe3,1,478,NaN,oven,cat,32-10-10,0478_eid_dnn_32-10-10_cat_10_n02123597_13623.png,n02123597_13623.png,0.0,-0.07841634,1.4149704,-1.0559839
alexnet_w1_mlp_simclrhn_probe3,1,479,NaN,bicycle,bicycle,8-10-10,0479_eid_dnn_8-10-10_bicycle_10_n02835271_12957.png,n02835271_12957.png,1.0,2.0597124,0.57691246,1.0484979
alexnet_w1_mlp_simclrhn_probe3,1,480,NaN,knife,knife,8-10-10,0480_eid_dnn_8-10-10_knife_10_n03041632_96714.png,n03041632_96714.png,1.0,0.5630007,0.32209775,0.1703441
alexnet_w1_mlp_simclrhn_probe3,1,481,NaN,oven,bear,128-10-10,0481_eid_dnn_128-10-10_bear_10_n02133161_3550.png,n02133161_3550.png,0.0,1.2039027,1.4104061,-0.14601995
alexnet_w1_mlp_simclrhn_probe3,1,482,NaN,airplane,airplane,2-10-10,0482_eid_dnn_2-10-10_airplane_10_n02690373_4471.png,n02690373_4471.png,1.0,5.4353747,2.325551,2.1989775
alexnet_w1_mlp_simclrhn_probe3,1,483,NaN,oven,airplane,64-10-10,0483_eid_dnn_64-10-10_airplane_10_n02690373_2026.png,n02690373_2026.png,0.0,0.42570525,1.392238,-0.6834419
alexnet_w1_mlp_simclrhn_probe3,1,484,NaN,truck,car,1-10-10,0484_eid_dnn_1-10-10_car_10_n03100240_18270.png,n03100240_18270.png,0.0,1.1969577,1.2022625,-0.0037510695
alexnet_w1_mlp_simclrhn_probe3,1,485,NaN,oven,elephant,128-10-10,0485_eid_dnn_128-10-10_elephant_10_n02504458_5204.png,n02504458_5204.png,0.0,0.44140446,0.66339326,-0.15696979
alexnet_w1_mlp_simclrhn_probe3,1,486,NaN,oven,oven,1-10-10,0486_eid_dnn_1-10-10_oven_10_n04111531_10339.png,n04111531_10339.png,1.0,2.7744608,2.1245124,0.4595829
alexnet_w1_mlp_simclrhn_probe3,1,487,NaN,elephant,elephant,2-10-10,0487_eid_dnn_2-10-10_elephant_10_n02504458_12705.png,n02504458_12705.png,1.0,5.4832373,2.0430846,2.4325552
alexnet_w1_mlp_simclrhn_probe3,1,488,NaN,bottle,boat,1-10-10,0488_eid_dnn_1-10-10_boat_10_n03344393_9268.png,n03344393_9268.png,0.0,0.40544572,1.3171885,-0.6446995
alexnet_w1_mlp_simclrhn_probe3,1,489,NaN,bird,bicycle,16-10-10,0489_eid_dnn_16-10-10_bicycle_10_n02835271_23173.png,n02835271_23173.png,0.0,0.45719498,0.46815094,-0.0077470336
alexnet_w1_mlp_simclrhn_probe3,1,490,NaN,oven,knife,32-10-10,0490_eid_dnn_32-10-10_knife_10_n03041632_43975.png,n03041632_43975.png,0.0,0.19758049,1.3114244,-0.7876066
alexnet_w1_mlp_simclrhn_probe3,1,491,NaN,bear,bicycle,128-10-10,0491_eid_dnn_128-10-10_bicycle_10_n03792782_3299.png,n03792782_3299.png,0.0,0.03523811,0.35218525,-0.22411548
alexnet_w1_mlp_simclrhn_probe3,1,492,NaN,bear,boat,32-10-10,0492_eid_dnn_32-10-10_boat_10_n04273569_5679.png,n04273569_5679.png,0.0,-0.3821345,1.4558523,-1.2996529
alexnet_w1_mlp_simclrhn_probe3,1,493,NaN,oven,bird,32-10-10,0493_eid_dnn_32-10-10_bird_10_n02056570_10127.png,n02056570_10127.png,0.0,-0.6315434,0.8594157,-1.0542674
alexnet_w1_mlp_simclrhn_probe3,1,494,NaN,bear,bear,32-10-10,0494_eid_dnn_32-10-10_bear_10_n02133161_7688.png,n02133161_7688.png,1.0,1.204067,1.1649783,0.027639903
alexnet_w1_mlp_simclrhn_probe3,1,495,NaN,oven,cat,16-10-10,0495_eid_dnn_16-10-10_cat_10_n02123597_624.png,n02123597_624.png,0.0,0.18822382,1.1085391,-0.6507612
alexnet_w1_mlp_simclrhn_probe3,1,496,NaN,bear,bird,64-10-10,0496_eid_dnn_64-10-10_bird_10_n01560419_3399.png,n01560419_3399.png,0.0,-0.43605185,0.82129323,-0.88907725
alexnet_w1_mlp_simclrhn_probe3,1,497,NaN,bear,cat,32-10-10,0497_eid_dnn_32-10-10_cat_10_n02123045_12762.png,n02123045_12762.png,0.0,0.4419612,1.1089833,-0.47165588
alexnet_w1_mlp_simclrhn_probe3,1,498,NaN,oven,car,16-10-10,0498_eid_dnn_16-10-10_car_10_n02814533_7247.png,n02814533_7247.png,0.0,-0.5005449,1.0553526,-1.1001856
alexnet_w1_mlp_simclrhn_probe3,1,499,NaN,bottle,keyboard,4-10-10,0499_eid_dnn_4-10-10_keyboard_10_n03085013_4941.png,n03085013_4941.png,0.0,0.6761471,0.8808231,-0.14472777
alexnet_w1_mlp_simclrhn_probe3,1,500,NaN,knife,truck,4-10-10,0500_eid_dnn_4-10-10_truck_10_n03417042_6420.png,n03417042_6420.png,0.0,-0.4363916,0.45519334,-0.6304458
alexnet_w1_mlp_simclrhn_probe3,1,501,NaN,oven,boat,64-10-10,0501_eid_dnn_64-10-10_boat_10_n03662601_2120.png,n03662601_2120.png,0.0,0.25669202,1.5065697,-0.883797
alexnet_w1_mlp_simclrhn_probe3,1,502,NaN,elephant,bear,2-10-10,0502_eid_dnn_2-10-10_bear_10_n02134084_7331.png,n02134084_7331.png,0.0,2.8377185,3.5899358,-0.53189796
alexnet_w1_mlp_simclrhn_probe3,1,503,NaN,oven,bottle,32-10-10,0503_eid_dnn_32-10-10_bottle_10_n02823428_906.png,n02823428_906.png,0.0,0.07500086,1.7833042,-1.2079529
alexnet_w1_mlp_simclrhn_probe3,1,504,NaN,oven,cat,16-10-10,0504_eid_dnn_16-10-10_cat_10_n02123394_270.png,n02123394_270.png,0.0,0.62030655,0.6369981,-0.011802719
alexnet_w1_mlp_simclrhn_probe3,1,505,NaN,elephant,boat,2-10-10,0505_eid_dnn_2-10-10_boat_10_n02951358_1910.png,n02951358_1910.png,0.0,-0.06250008,1.0781784,-0.80658156
alexnet_w1_mlp_simclrhn_probe3,1,506,NaN,bear,knife,4-10-10,0506_eid_dnn_4-10-10_knife_10_n03041632_23678.png,n03041632_23678.png,0.0,-0.20451507,2.693667,-2.049324
alexnet_w1_mlp_simclrhn_probe3,1,507,NaN,oven,car,16-10-10,0507_eid_dnn_16-10-10_car_10_n02814533_31083.png,n02814533_31083.png,0.0,-0.63951176,1.1081694,-1.2357972
alexnet_w1_mlp_simclrhn_probe3,1,508,NaN,keyboard,keyboard,1-10-10,0508_eid_dnn_1-10-10_keyboard_10_n04505470_2881.png,n04505470_2881.png,1.0,5.3856125,1.5896204,2.684172
alexnet_w1_mlp_simclrhn_probe3,1,509,NaN,dog,cat,8-10-10,0509_eid_dnn_8-10-10_cat_10_n02125311_2923.png,n02125311_2923.png,0.0,-0.1205438,1.2638929,-0.9789446
alexnet_w1_mlp_simclrhn_probe3,1,510,NaN,bicycle,bicycle,2-10-10,0510_eid_dnn_2-10-10_bicycle_10_n03792782_2598.png,n03792782_2598.png,1.0,3.9072988,1.1274604,1.9656427
alexnet_w1_mlp_simclrhn_probe3,1,511,NaN,car,car,2-10-10,0511_eid_dnn_2-10-10_car_10_n03100240_4460.png,n03100240_4460.png,1.0,4.314068,3.6872678,0.4432146
alexnet_w1_mlp_simclrhn_probe3,1,512,NaN,knife,knife,4-10-10,0512_eid_dnn_4-10-10_knife_10_n03041632_29920.png,n03041632_29920.png,1.0,0.9679074,0.36671942,0.4251041
alexnet_w1_mlp_simclrhn_probe3,1,513,NaN,bear,bird,32-10-10,0513_eid_dnn_32-10-10_bird_10_n01796340_3845.png,n01796340_3845.png,0.0,-0.38175523,0.9450632,-0.9382023
alexnet_w1_mlp_simclrhn_probe3,1,514,NaN,keyboard,keyboard,8-10-10,0514_eid_dnn_8-10-10_keyboard_10_n03085013_21932.png,n03085013_21932.png,1.0,1.904927,1.5735754,0.234301
alexnet_w1_mlp_simclrhn_probe3,1,515,NaN,bottle,bottle,1-10-10,0515_eid_dnn_1-10-10_bottle_10_n02823428_64.png,n02823428_64.png,1.0,6.33446,1.2775006,3.5758102
alexnet_w1_mlp_simclrhn_probe3,1,516,NaN,oven,chair,8-10-10,0516_eid_dnn_8-10-10_chair_10_n04099969_4374.png,n04099969_4374.png,0.0,-0.22709869,1.1796889,-0.99474907
alexnet_w1_mlp_simclrhn_probe3,1,517,NaN,clock,clock,1-10-10,0517_eid_dnn_1-10-10_clock_10_n02708093_8257.png,n02708093_8257.png,1.0,8.811276,1.655611,5.0598197
alexnet_w1_mlp_simclrhn_probe3,1,518,NaN,airplane,knife,16-10-10,0518_eid_dnn_16-10-10_knife_10_n03041632_45569.png,n03041632_45569.png,0.0,-0.24810925,0.6225139,-0.61562353
alexnet_w1_mlp_simclrhn_probe3,1,519,NaN,oven,chair,128-10-10,0519_eid_dnn_128-10-10_chair_10_n04099969_1850.png,n04099969_1850.png,0.0,-0.096693315,1.0135968,-0.78509367
alexnet_w1_mlp_simclrhn_probe3,1,520,NaN,bear,dog,2-10-10,0520_eid_dnn_2-10-10_dog_10_n02092002_2008.png,n02092002_2008.png,0.0,0.569962,0.7132653,-0.10133072
alexnet_w1_mlp_simclrhn_probe3,1,521,NaN,bicycle,bicycle,8-10-10,0521_eid_dnn_8-10-10_bicycle_10_n02835271_8105.png,n02835271_8105.png,1.0,2.9687772,0.98043805,1.4059682
alexnet_w1_mlp_simclrhn_probe3,1,522,NaN,bear,oven,64-10-10,0522_eid_dnn_64-10-10_oven_10_n04111531_14126.png,n04111531_14126.png,0.0,0.84560907,1.6208143,-0.5481529
alexnet_w1_mlp_simclrhn_probe3,1,523,NaN,oven,elephant,4-10-10,0523_eid_dnn_4-10-10_elephant_10_n02504013_13766.png,n02504013_13766.png,0.0,0.20355496,0.45210737,-0.1757531
alexnet_w1_mlp_simclrhn_probe3,1,524,NaN,oven,bicycle,64-10-10,0524_eid_dnn_64-10-10_bicycle_10_n02835271_18361.png,n02835271_18361.png,0.0,-0.15468411,1.2673922,-1.0055598
alexnet_w1_mlp_simclrhn_probe3,1,525,NaN,oven,bird,8-10-10,0525_eid_dnn_8-10-10_bird_10_n01582220_4708.png,n01582220_4708.png,0.0,-0.009909936,0.5861125,-0.4214515
alexnet_w1_mlp_simclrhn_probe3,1,526,NaN,oven,chair,16-10-10,0526_eid_dnn_16-10-10_chair_10_n04099969_101.png,n04099969_101.png,0.0,-0.35563898,1.3240653,-1.1877303
alexnet_w1_mlp_simclrhn_probe3,1,527,NaN,cat,cat,1-10-10,0527_eid_dnn_1-10-10_cat_10_n02124075_724.png,n02124075_724.png,1.0,4.6406484,0.4531728,2.9609926
alexnet_w1_mlp_simclrhn_probe3,1,528,NaN,oven,bicycle,32-10-10,0528_eid_dnn_32-10-10_bicycle_10_n02835271_43.png,n02835271_43.png,0.0,0.31807488,1.0478277,-0.5160132
alexnet_w1_mlp_simclrhn_probe3,1,529,NaN,bird,bird,2-10-10,0529_eid_dnn_2-10-10_bird_10_n02017213_5362.png,n02017213_5362.png,1.0,1.7148522,0.7889424,0.65471715
alexnet_w1_mlp_simclrhn_probe3,1,530,NaN,cat,dog,1-10-10,0530_eid_dnn_1-10-10_dog_10_n02088466_1769.png,n02088466_1769.png,0.0,0.5656,1.3922724,-0.5845457
alexnet_w1_mlp_simclrhn_probe3,1,531,NaN,elephant,bear,1-10-10,0531_eid_dnn_1-10-10_bear_10_n02133161_5653.png,n02133161_5653.png,0.0,2.7479105,4.095958,-0.9532137
alexnet_w1_mlp_simclrhn_probe3,1,532,NaN,oven,dog,1-10-10,0532_eid_dnn_1-10-10_dog_10_n02098105_4676.png,n02098105_4676.png,0.0,1.3752306,2.9514952,-1.1145874
alexnet_w1_mlp_simclrhn_probe3,1,533,NaN,cat,cat,2-10-10,0533_eid_dnn_2-10-10_cat_10_n02123045_3593.png,n02123045_3593.png,1.0,1.9133807,0.27021533,1.1618934
alexnet_w1_mlp_simclrhn_probe3,1,534,NaN,oven,bottle,8-10-10,0534_eid_dnn_8-10-10_bottle_10_n04560804_265.png,n04560804_265.png,0.0,-0.08828769,1.013112,-0.77880716
alexnet_w1_mlp_simclrhn_probe3,1,535,NaN,oven,knife,128-10-10,0535_eid_dnn_128-10-10_knife_10_n03041632_1556.png,n03041632_1556.png,0.0,0.13653482,0.78808737,-0.46071723
alexnet_w1_mlp_simclrhn_probe3,1,536,NaN,bear,chair,4-10-10,0536_eid_dnn_4-10-10_chair_10_n02791124_9595.png,n02791124_9595.png,0.0,-0.04318773,1.3528053,-0.98711616
alexnet_w1_mlp_simclrhn_probe3,1,537,NaN,bear,dog,32-10-10,0537_eid_dnn_32-10-10_dog_10_n02107312_2933.png,n02107312_2933.png,0.0,0.15862556,1.0153486,-0.60579467
alexnet_w1_mlp_simclrhn_probe3,1,538,NaN,oven,oven,32-10-10,0538_eid_dnn_32-10-10_oven_10_n04111531_101.png,n04111531_101.png,1.0,1.402149,0.48299462,0.6499403
alexnet_w1_mlp_simclrhn_probe3,1,539,NaN,oven,truck,4-10-10,0539_eid_dnn_4-10-10_truck_10_n03417042_7204.png,n03417042_7204.png,0.0,1.3072095,1.7586938,-0.31924763
alexnet_w1_mlp_simclrhn_probe3,1,540,NaN,oven,bear,64-10-10,0540_eid_dnn_64-10-10_bear_10_n02132136_2120.png,n02132136_2120.png,0.0,1.3066447,1.3483932,-0.029520664
alexnet_w1_mlp_simclrhn_probe3,1,541,NaN,bear,airplane,64-10-10,0541_eid_dnn_64-10-10_airplane_10_n02690373_18412.png,n02690373_18412.png,0.0,0.37646714,1.1406924,-0.5403889
alexnet_w1_mlp_simclrhn_probe3,1,542,NaN,oven,knife,128-10-10,0542_eid_dnn_128-10-10_knife_10_n03041632_21017.png,n03041632_21017.png,0.0,-0.096738,1.3636956,-1.0326825
alexnet_w1_mlp_simclrhn_probe3,1,543,NaN,oven,elephant,128-10-10,0543_eid_dnn_128-10-10_elephant_10_n02504458_8414.png,n02504458_8414.png,0.0,0.7111404,1.274107,-0.3980775
alexnet_w1_mlp_simclrhn_probe3,1,544,NaN,bear,bottle,128-10-10,0544_eid_dnn_128-10-10_bottle_10_n04557648_11046.png,n04557648_11046.png,0.0,0.15136062,1.1668434,-0.7180548
alexnet_w1_mlp_simclrhn_probe3,1,545,NaN,oven,clock,64-10-10,0545_eid_dnn_64-10-10_clock_10_n03196217_10578.png,n03196217_10578.png,0.0,-0.03750468,1.7087508,-1.2347891
alexnet_w1_mlp_simclrhn_probe3,1,546,NaN,bear,bear,2-10-10,0546_eid_dnn_2-10-10_bear_10_n02134418_3213.png,n02134418_3213.png,1.0,3.432847,2.6941214,0.52235794
alexnet_w1_mlp_simclrhn_probe3,1,547,NaN,bear,clock,64-10-10,0547_eid_dnn_64-10-10_clock_10_n03196217_6289.png,n03196217_6289.png,0.0,0.027317053,1.2156556,-0.84028226
alexnet_w1_mlp_simclrhn_probe3,1,548,NaN,bear,dog,32-10-10,0548_eid_dnn_32-10-10_dog_10_n02096294_1498.png,n02096294_1498.png,0.0,0.024303842,1.306454,-0.9066171
alexnet_w1_mlp_simclrhn_probe3,1,549,NaN,oven,oven,16-10-10,0549_eid_dnn_16-10-10_oven_10_n04111531_519.png,n04111531_519.png,1.0,1.3690957,0.797198,0.40439275
alexnet_w1_mlp_simclrhn_probe3,1,550,NaN,bird,bird,1-10-10,0550_eid_dnn_1-10-10_bird_10_n01531178_14959.png,n01531178_14959.png,1.0,3.3313866,0.27903444,2.158339
alexnet_w1_mlp_simclrhn_probe3,1,551,NaN,oven,bear,32-10-10,0551_eid_dnn_32-10-10_bear_10_n02132136_8754.png,n02132136_8754.png,0.0,1.6477233,1.7019812,-0.03836611
alexnet_w1_mlp_simclrhn_probe3,1,552,NaN,car,car,1-10-10,0552_eid_dnn_1-10-10_car_10_n02814533_73067.png,n02814533_73067.png,1.0,8.255844,5.7082014,1.8014555
alexnet_w1_mlp_simclrhn_probe3,1,553,NaN,bear,cat,8-10-10,0553_eid_dnn_8-10-10_cat_10_n02124075_15378.png,n02124075_15378.png,0.0,0.2561488,0.6803276,-0.29993972
alexnet_w1_mlp_simclrhn_probe3,1,554,NaN,oven,bird,128-10-10,0554_eid_dnn_128-10-10_bird_10_n01592084_7569.png,n01592084_7569.png,0.0,-0.97601277,2.0150092,-2.1149719
alexnet_w1_mlp_simclrhn_probe3,1,555,NaN,oven,dog,128-10-10,0555_eid_dnn_128-10-10_dog_10_n02094114_3395.png,n02094114_3395.png,0.0,0.18315464,0.9576647,-0.54766136
alexnet_w1_mlp_simclrhn_probe3,1,556,NaN,chair,chair,4-10-10,0556_eid_dnn_4-10-10_chair_10_n03376595_1712.png,n03376595_1712.png,1.0,0.63076746,0.5644123,0.04692019
alexnet_w1_mlp_simclrhn_probe3,1,557,NaN,oven,bear,64-10-10,0557_eid_dnn_64-10-10_bear_10_n02134084_622.png,n02134084_622.png,0.0,1.2063359,1.55772,-0.24846604
alexnet_w1_mlp_simclrhn_probe3,1,558,NaN,bottle,clock,8-10-10,0558_eid_dnn_8-10-10_clock_10_n03196217_4912.png,n03196217_4912.png,0.0,-0.037258446,1.5494741,-1.1219894
alexnet_w1_mlp_simclrhn_probe3,1,559,NaN,oven,car,64-10-10,0559_eid_dnn_64-10-10_car_10_n03100240_18815.png,n03100240_18815.png,0.0,-0.2769761,2.0318282,-1.6325712
alexnet_w1_mlp_simclrhn_probe3,1,560,NaN,bicycle,chair,2-10-10,0560_eid_dnn_2-10-10_chair_10_n04099969_2020.png,n04099969_2020.png,0.0,2.7895167,4.469675,-1.1880513
alexnet_w1_mlp_simclrhn_probe3,1,561,NaN,bear,bear,1-10-10,0561_eid_dnn_1-10-10_bear_10_n02132136_7647.png,n02132136_7647.png,1.0,4.70115,2.29989,1.6979471
alexnet_w1_mlp_simclrhn_probe3,1,562,NaN,bear,oven,128-10-10,0562_eid_dnn_128-10-10_oven_10_n04111531_2796.png,n04111531_2796.png,0.0,0.23874402,0.6359549,-0.28087053
alexnet_w1_mlp_simclrhn_probe3,1,563,NaN,oven,truck,64-10-10,0563_eid_dnn_64-10-10_truck_10_n03796401_9472.png,n03796401_9472.png,0.0,-0.35100454,1.2600347,-1.1391767
alexnet_w1_mlp_simclrhn_probe3,1,564,NaN,oven,chair,4-10-10,0564_eid_dnn_4-10-10_chair_10_n03376595_12433.png,n03376595_12433.png,0.0,0.79088825,1.2770468,-0.343766
alexnet_w1_mlp_simclrhn_probe3,1,565,NaN,car,truck,4-10-10,0565_eid_dnn_4-10-10_truck_10_n04467665_31539.png,n04467665_31539.png,0.0,3.7989943,4.131405,-0.23504977
alexnet_w1_mlp_simclrhn_probe3,1,566,NaN,airplane,airplane,32-10-10,0566_eid_dnn_32-10-10_airplane_10_n02690373_10657.png,n02690373_10657.png,1.0,0.90145266,0.71269417,0.13347241
alexnet_w1_mlp_simclrhn_probe3,1,567,NaN,oven,truck,16-10-10,0567_eid_dnn_16-10-10_truck_10_n03796401_5963.png,n03796401_5963.png,0.0,-0.4350509,2.4341795,-2.0288525
alexnet_w1_mlp_simclrhn_probe3,1,568,NaN,bear,dog,64-10-10,0568_eid_dnn_64-10-10_dog_10_n02096294_2233.png,n02096294_2233.png,0.0,-0.019109622,1.4116244,-1.0116818
alexnet_w1_mlp_simclrhn_probe3,1,569,NaN,oven,airplane,128-10-10,0569_eid_dnn_128-10-10_airplane_10_n02690373_4873.png,n02690373_4873.png,0.0,0.12834394,0.86857796,-0.5234245
alexnet_w1_mlp_simclrhn_probe3,1,570,NaN,truck,truck,1-10-10,0570_eid_dnn_1-10-10_truck_10_n04467665_4825.png,n04467665_4825.png,1.0,2.632325,2.3729923,0.18337588
alexnet_w1_mlp_simclrhn_probe3,1,571,NaN,cat,chair,16-10-10,0571_eid_dnn_16-10-10_chair_10_n04099969_1704.png,n04099969_1704.png,0.0,-0.15891628,0.78671145,-0.6686598
alexnet_w1_mlp_simclrhn_probe3,1,572,NaN,bicycle,bicycle,2-10-10,0572_eid_dnn_2-10-10_bicycle_10_n02835271_1573.png,n02835271_1573.png,1.0,6.789121,1.6817706,3.611442
alexnet_w1_mlp_simclrhn_probe3,1,573,NaN,bear,boat,2-10-10,0573_eid_dnn_2-10-10_boat_10_n04273569_12725.png,n04273569_12725.png,0.0,0.79482067,2.0442257,-0.8834628
alexnet_w1_mlp_simclrhn_probe3,1,574,NaN,oven,knife,128-10-10,0574_eid_dnn_128-10-10_knife_10_n03041632_11285.png,n03041632_11285.png,0.0,0.0748273,0.44623286,-0.26262337
alexnet_w1_mlp_simclrhn_probe3,1,575,NaN,keyboard,clock,4-10-10,0575_eid_dnn_4-10-10_clock_10_n03196217_8254.png,n03196217_8254.png,0.0,0.63974494,1.3117194,-0.4751577
alexnet_w1_mlp_simclrhn_probe3,1,576,NaN,oven,knife,16-10-10,0576_eid_dnn_16-10-10_knife_10_n03041632_15099.png,n03041632_15099.png,0.0,-0.028399326,0.8632902,-0.63051975
alexnet_w1_mlp_simclrhn_probe3,1,577,NaN,bear,cat,64-10-10,0577_eid_dnn_64-10-10_cat_10_n02125311_30452.png,n02125311_30452.png,0.0,-0.027591249,0.526817,-0.39202583
alexnet_w1_mlp_simclrhn_probe3,1,578,NaN,bear,bottle,32-10-10,0578_eid_dnn_32-10-10_bottle_10_n04591713_6804.png,n04591713_6804.png,0.0,-0.044628184,0.9207144,-0.6826003
alexnet_w1_mlp_simclrhn_probe3,1,579,NaN,oven,dog,64-10-10,0579_eid_dnn_64-10-10_dog_10_n02088364_14369.png,n02088364_14369.png,0.0,0.033598643,1.4181353,-0.97901523
alexnet_w1_mlp_simclrhn_probe3,1,580,NaN,oven,truck,32-10-10,0580_eid_dnn_32-10-10_truck_10_n03796401_16425.png,n03796401_16425.png,0.0,-0.19375552,2.1652887,-1.6680963
alexnet_w1_mlp_simclrhn_probe3,1,581,NaN,oven,truck,64-10-10,0581_eid_dnn_64-10-10_truck_10_n03417042_5406.png,n03417042_5406.png,0.0,-0.23694412,1.5062424,-1.232619
alexnet_w1_mlp_simclrhn_probe3,1,582,NaN,oven,knife,1-10-10,0582_eid_dnn_1-10-10_knife_10_n03041632_52929.png,n03041632_52929.png,0.0,0.9202163,1.3530856,-0.30608484
alexnet_w1_mlp_simclrhn_probe3,1,583,NaN,oven,chair,64-10-10,0583_eid_dnn_64-10-10_chair_10_n03376595_4820.png,n03376595_4820.png,0.0,-0.010491833,0.7670169,-0.5497817
alexnet_w1_mlp_simclrhn_probe3,1,584,NaN,chair,chair,1-10-10,0584_eid_dnn_1-10-10_chair_10_n03376595_787.png,n03376595_787.png,1.0,1.735839,1.502794,0.1647877
alexnet_w1_mlp_simclrhn_probe3,1,585,NaN,oven,chair,2-10-10,0585_eid_dnn_2-10-10_chair_10_n03376595_7709.png,n03376595_7709.png,0.0,1.0392914,1.3627353,-0.22870937
alexnet_w1_mlp_simclrhn_probe3,1,586,NaN,truck,bottle,1-10-10,0586_eid_dnn_1-10-10_bottle_10_n03983396_11006.png,n03983396_11006.png,0.0,0.7075965,1.2649659,-0.3941197
alexnet_w1_mlp_simclrhn_probe3,1,587,NaN,oven,oven,8-10-10,0587_eid_dnn_8-10-10_oven_10_n04111531_458.png,n04111531_458.png,1.0,0.65246534,0.5581515,0.06668997
alexnet_w1_mlp_simclrhn_probe3,1,588,NaN,bear,cat,128-10-10,0588_eid_dnn_128-10-10_cat_10_n02123045_7829.png,n02123045_7829.png,0.0,0.41029373,1.2855439,-0.61889535
alexnet_w1_mlp_simclrhn_probe3,1,589,NaN,bear,bear,1-10-10,0589_eid_dnn_1-10-10_bear_10_n02134418_4685.png,n02134418_4685.png,1.0,4.8588724,2.5394685,1.6400663
alexnet_w1_mlp_simclrhn_probe3,1,590,NaN,oven,knife,64-10-10,0590_eid_dnn_64-10-10_knife_10_n03041632_1964.png,n03041632_1964.png,0.0,0.127678,1.2027133,-0.7601647
alexnet_w1_mlp_simclrhn_probe3,1,591,NaN,oven,car,4-10-10,0591_eid_dnn_4-10-10_car_10_n03100240_17472.png,n03100240_17472.png,0.0,-0.068200536,0.93986875,-0.71281266
alexnet_w1_mlp_simclrhn_probe3,1,592,NaN,oven,dog,16-10-10,0592_eid_dnn_16-10-10_dog_10_n02113023_1980.png,n02113023_1980.png,0.0,-0.01122064,1.7705463,-1.2598996
alexnet_w1_mlp_simclrhn_probe3,1,593,NaN,cat,dog,32-10-10,0593_eid_dnn_32-10-10_dog_10_n02100735_6359.png,n02100735_6359.png,0.0,0.5970046,0.8528473,-0.1809081
alexnet_w1_mlp_simclrhn_probe3,1,594,NaN,bicycle,knife,1-10-10,0594_eid_dnn_1-10-10_knife_10_n03041632_31849.png,n03041632_31849.png,0.0,0.42195547,2.5590978,-1.5111878
alexnet_w1_mlp_simclrhn_probe3,1,595,NaN,oven,bird,8-10-10,0595_eid_dnn_8-10-10_bird_10_n01532829_23378.png,n01532829_23378.png,0.0,-0.13645476,1.2939308,-1.0114354
alexnet_w1_mlp_simclrhn_probe3,1,596,NaN,oven,clock,64-10-10,0596_eid_dnn_64-10-10_clock_10_n02708093_5127.png,n02708093_5127.png,0.0,0.1936781,1.8619668,-1.1796583
alexnet_w1_mlp_simclrhn_probe3,1,597,NaN,bear,bear,4-10-10,0597_eid_dnn_4-10-10_bear_10_n02134084_12148.png,n02134084_12148.png,1.0,2.977681,1.8198854,0.8186851
alexnet_w1_mlp_simclrhn_probe3,1,598,NaN,elephant,elephant,4-10-10,0598_eid_dnn_4-10-10_elephant_10_n02504458_63.png,n02504458_63.png,1.0,8.222439,3.6189404,3.255165
