subj,session,trial,rt,object_response,category,condition,imagename,filename,is_correct,targ_act,max_nontarg_act,decision_margin
alexnet2023_baseline_pgd,1,1,NaN,oven,oven,1-10-10,0001_eid_dnn_1-10-10_oven_10_n04111531_17072.png,n04111531_17072.png,1.0,10.027159,1.8211905,5.8024955
alexnet2023_baseline_pgd,1,2,NaN,elephant,airplane,16-10-10,0002_eid_dnn_16-10-10_airplane_10_n02690373_4183.png,n02690373_4183.png,0.0,2.4562397,3.9862852,-1.0819056
alexnet2023_baseline_pgd,1,3,NaN,car,car,8-10-10,0003_eid_dnn_8-10-10_car_10_n03100240_1137.png,n03100240_1137.png,1.0,3.4464447,2.1783435,0.896683
alexnet2023_baseline_pgd,1,4,NaN,clock,clock,2-10-10,0004_eid_dnn_2-10-10_clock_10_n04548280_7083.png,n04548280_7083.png,1.0,5.9058557,4.4830627,1.0060666
alexnet2023_baseline_pgd,1,5,NaN,bottle,bottle,2-10-10,0005_eid_dnn_2-10-10_bottle_10_n02823428_7810.png,n02823428_7810.png,1.0,6.4485755,5.065797,0.9777722
alexnet2023_baseline_pgd,1,6,NaN,elephant,dog,128-10-10,0006_eid_dnn_128-10-10_dog_10_n02091244_8368.png,n02091244_8368.png,0.0,-1.0286579,2.2417374,-2.3125188
alexnet2023_baseline_pgd,1,7,NaN,bicycle,bicycle,1-10-10,0007_eid_dnn_1-10-10_bicycle_10_n02835271_2930.png,n02835271_2930.png,1.0,7.7233634,4.1916122,2.4973252
alexnet2023_baseline_pgd,1,8,NaN,dog,knife,4-10-10,0008_eid_dnn_4-10-10_knife_10_n03041632_52848.png,n03041632_52848.png,0.0,2.0477016,3.6490822,-1.1323471
alexnet2023_baseline_pgd,1,9,NaN,bottle,bottle,2-10-10,0009_eid_dnn_2-10-10_bottle_10_n02823428_4097.png,n02823428_4097.png,1.0,11.571192,1.6747555,6.9978375
alexnet2023_baseline_pgd,1,10,NaN,dog,dog,8-10-10,0010_eid_dnn_8-10-10_dog_10_n02105641_10264.png,n02105641_10264.png,1.0,4.486317,2.342123,1.5161742
alexnet2023_baseline_pgd,1,11,NaN,airplane,boat,8-10-10,0011_eid_dnn_8-10-10_boat_10_n03662601_10278.png,n03662601_10278.png,0.0,2.8115296,3.8181422,-0.7117826
alexnet2023_baseline_pgd,1,12,NaN,elephant,truck,32-10-10,0012_eid_dnn_32-10-10_truck_10_n04467665_76958.png,n04467665_76958.png,0.0,-2.6424916,4.313573,-4.91868
alexnet2023_baseline_pgd,1,13,NaN,oven,dog,16-10-10,0013_eid_dnn_16-10-10_dog_10_n02088238_12552.png,n02088238_12552.png,0.0,1.2426097,2.331304,-0.76982313
alexnet2023_baseline_pgd,1,14,NaN,bear,dog,8-10-10,0014_eid_dnn_8-10-10_dog_10_n02102040_994.png,n02102040_994.png,0.0,4.019544,6.2383733,-1.5689492
alexnet2023_baseline_pgd,1,15,NaN,elephant,bear,128-10-10,0015_eid_dnn_128-10-10_bear_10_n02133161_1944.png,n02133161_1944.png,0.0,1.8899908,3.895511,-1.4181169
alexnet2023_baseline_pgd,1,16,NaN,elephant,car,16-10-10,0016_eid_dnn_16-10-10_car_10_n02814533_43040.png,n02814533_43040.png,0.0,-0.121742345,3.0848544,-2.2674062
alexnet2023_baseline_pgd,1,17,NaN,elephant,oven,128-10-10,0017_eid_dnn_128-10-10_oven_10_n04111531_18592.png,n04111531_18592.png,0.0,0.51572645,2.5749516,-1.456092
alexnet2023_baseline_pgd,1,18,NaN,oven,chair,16-10-10,0018_eid_dnn_16-10-10_chair_10_n02791124_4294.png,n02791124_4294.png,0.0,-0.44269726,5.7714686,-4.3940787
alexnet2023_baseline_pgd,1,19,NaN,oven,knife,32-10-10,0019_eid_dnn_32-10-10_knife_10_n03041632_2630.png,n03041632_2630.png,0.0,-1.4587142,2.8931913,-3.0772622
alexnet2023_baseline_pgd,1,20,NaN,elephant,elephant,1-10-10,0020_eid_dnn_1-10-10_elephant_10_n02504458_723.png,n02504458_723.png,1.0,22.286217,3.6714115,13.162655
alexnet2023_baseline_pgd,1,21,NaN,airplane,chair,4-10-10,0021_eid_dnn_4-10-10_chair_10_n03376595_6107.png,n03376595_6107.png,0.0,4.2139854,4.3705635,-0.110717416
alexnet2023_baseline_pgd,1,22,NaN,clock,clock,32-10-10,0022_eid_dnn_32-10-10_clock_10_n03196217_1337.png,n03196217_1337.png,1.0,1.5406885,1.2591155,0.19910222
alexnet2023_baseline_pgd,1,23,NaN,oven,boat,128-10-10,0023_eid_dnn_128-10-10_boat_10_n02951358_9550.png,n02951358_9550.png,0.0,-1.5771914,2.4881427,-2.8746254
alexnet2023_baseline_pgd,1,24,NaN,bear,bird,128-10-10,0024_eid_dnn_128-10-10_bird_10_n01616318_2334.png,n01616318_2334.png,0.0,-1.4108918,0.9378773,-1.6608306
alexnet2023_baseline_pgd,1,25,NaN,bottle,bottle,32-10-10,0025_eid_dnn_32-10-10_bottle_10_n03937543_1658.png,n03937543_1658.png,1.0,1.833132,1.2439938,0.4165837
alexnet2023_baseline_pgd,1,26,NaN,elephant,elephant,2-10-10,0026_eid_dnn_2-10-10_elephant_10_n02504013_6731.png,n02504013_6731.png,1.0,9.06762,4.7961392,3.0203934
alexnet2023_baseline_pgd,1,27,NaN,keyboard,keyboard,4-10-10,0027_eid_dnn_4-10-10_keyboard_10_n04505470_4447.png,n04505470_4447.png,1.0,14.676149,4.5866566,7.134349
alexnet2023_baseline_pgd,1,28,NaN,airplane,airplane,1-10-10,0028_eid_dnn_1-10-10_airplane_10_n02690373_4839.png,n02690373_4839.png,1.0,20.037477,6.8438683,9.32929
alexnet2023_baseline_pgd,1,29,NaN,cat,keyboard,64-10-10,0029_eid_dnn_64-10-10_keyboard_10_n04505470_1651.png,n04505470_1651.png,0.0,-2.7702346,1.9874058,-3.3641598
alexnet2023_baseline_pgd,1,30,NaN,oven,keyboard,32-10-10,0030_eid_dnn_32-10-10_keyboard_10_n03085013_20601.png,n03085013_20601.png,0.0,2.3684835,4.6561375,-1.6176156
alexnet2023_baseline_pgd,1,31,NaN,clock,airplane,64-10-10,0031_eid_dnn_64-10-10_airplane_10_n02690373_2217.png,n02690373_2217.png,0.0,-0.68273306,0.60875726,-0.9132216
alexnet2023_baseline_pgd,1,32,NaN,bicycle,bicycle,4-10-10,0032_eid_dnn_4-10-10_bicycle_10_n03792782_25019.png,n03792782_25019.png,1.0,3.0894928,2.3483305,0.5240809
alexnet2023_baseline_pgd,1,33,NaN,cat,cat,8-10-10,0033_eid_dnn_8-10-10_cat_10_n02123597_13890.png,n02123597_13890.png,1.0,7.5917587,1.5681398,4.2593417
alexnet2023_baseline_pgd,1,34,NaN,boat,boat,1-10-10,0034_eid_dnn_1-10-10_boat_10_n04612504_214.png,n04612504_214.png,1.0,9.162434,5.2555065,2.7626147
alexnet2023_baseline_pgd,1,35,NaN,knife,chair,128-10-10,0035_eid_dnn_128-10-10_chair_10_n02791124_2555.png,n02791124_2555.png,0.0,0.35052833,2.351264,-1.4147339
alexnet2023_baseline_pgd,1,36,NaN,car,car,4-10-10,0036_eid_dnn_4-10-10_car_10_n04285008_2081.png,n04285008_2081.png,1.0,11.181168,5.4965577,4.019626
alexnet2023_baseline_pgd,1,37,NaN,airplane,dog,32-10-10,0037_eid_dnn_32-10-10_dog_10_n02094114_8202.png,n02094114_8202.png,0.0,0.42932245,2.4916995,-1.4583207
alexnet2023_baseline_pgd,1,38,NaN,oven,chair,64-10-10,0038_eid_dnn_64-10-10_chair_10_n04099969_4541.png,n04099969_4541.png,0.0,0.18281795,2.0710657,-1.3351928
alexnet2023_baseline_pgd,1,39,NaN,elephant,boat,128-10-10,0039_eid_dnn_128-10-10_boat_10_n04612504_12864.png,n04612504_12864.png,0.0,-2.2017303,2.7024508,-3.4677796
alexnet2023_baseline_pgd,1,40,NaN,airplane,airplane,4-10-10,0040_eid_dnn_4-10-10_airplane_10_n02690373_18460.png,n02690373_18460.png,1.0,15.393877,3.2397656,8.594255
alexnet2023_baseline_pgd,1,41,NaN,oven,bottle,64-10-10,0041_eid_dnn_64-10-10_bottle_10_n03983396_8982.png,n03983396_8982.png,0.0,-0.4379561,2.2757933,-1.9189106
alexnet2023_baseline_pgd,1,42,NaN,airplane,dog,16-10-10,0042_eid_dnn_16-10-10_dog_10_n02099601_10407.png,n02099601_10407.png,0.0,0.39879897,5.1257725,-3.3424752
alexnet2023_baseline_pgd,1,43,NaN,oven,airplane,32-10-10,0043_eid_dnn_32-10-10_airplane_10_n02690373_5253.png,n02690373_5253.png,0.0,1.8056744,4.9264283,-2.2067063
alexnet2023_baseline_pgd,1,44,NaN,elephant,elephant,2-10-10,0044_eid_dnn_2-10-10_elephant_10_n02504013_2832.png,n02504013_2832.png,1.0,17.147924,7.936452,6.513495
alexnet2023_baseline_pgd,1,45,NaN,clock,clock,1-10-10,0045_eid_dnn_1-10-10_clock_10_n02708093_8002.png,n02708093_8002.png,1.0,8.248269,3.788836,3.1532955
alexnet2023_baseline_pgd,1,46,NaN,chair,chair,2-10-10,0046_eid_dnn_2-10-10_chair_10_n03376595_1766.png,n03376595_1766.png,1.0,7.8132434,2.692107,3.6211905
alexnet2023_baseline_pgd,1,47,NaN,truck,truck,2-10-10,0047_eid_dnn_2-10-10_truck_10_n03417042_17616.png,n03417042_17616.png,1.0,8.645162,8.00134,0.4552507
alexnet2023_baseline_pgd,1,48,NaN,bear,bear,16-10-10,0048_eid_dnn_16-10-10_bear_10_n02134418_2804.png,n02134418_2804.png,1.0,3.7732074,3.191399,0.41140062
alexnet2023_baseline_pgd,1,49,NaN,cat,car,64-10-10,0049_eid_dnn_64-10-10_car_10_n04285008_12101.png,n04285008_12101.png,0.0,-3.5623958,3.3299427,-4.8736196
alexnet2023_baseline_pgd,1,50,NaN,bear,bear,16-10-10,0050_eid_dnn_16-10-10_bear_10_n02134418_3828.png,n02134418_3828.png,1.0,2.6895938,2.5221722,0.118384935
alexnet2023_baseline_pgd,1,51,NaN,bird,bird,2-10-10,0051_eid_dnn_2-10-10_bird_10_n01530575_5747.png,n01530575_5747.png,1.0,7.2982297,3.7297175,2.5233192
alexnet2023_baseline_pgd,1,52,NaN,oven,truck,128-10-10,0052_eid_dnn_128-10-10_truck_10_n03796401_3386.png,n03796401_3386.png,0.0,-2.8868313,3.749104,-4.692315
alexnet2023_baseline_pgd,1,53,NaN,airplane,keyboard,16-10-10,0053_eid_dnn_16-10-10_keyboard_10_n04505470_3234.png,n04505470_3234.png,0.0,0.3391773,2.4463058,-1.4899648
alexnet2023_baseline_pgd,1,54,NaN,airplane,truck,1-10-10,0054_eid_dnn_1-10-10_truck_10_n04467665_72639.png,n04467665_72639.png,0.0,5.924124,9.693305,-2.6652136
alexnet2023_baseline_pgd,1,55,NaN,oven,chair,32-10-10,0055_eid_dnn_32-10-10_chair_10_n04429376_27524.png,n04429376_27524.png,0.0,0.7939298,3.3726995,-1.8234656
alexnet2023_baseline_pgd,1,56,NaN,knife,bottle,64-10-10,0056_eid_dnn_64-10-10_bottle_10_n04557648_11440.png,n04557648_11440.png,0.0,0.55419576,1.653516,-0.77733684
alexnet2023_baseline_pgd,1,57,NaN,oven,keyboard,32-10-10,0057_eid_dnn_32-10-10_keyboard_10_n03085013_20216.png,n03085013_20216.png,0.0,-1.3461837,7.2217875,-6.0584707
alexnet2023_baseline_pgd,1,58,NaN,elephant,boat,8-10-10,0058_eid_dnn_8-10-10_boat_10_n02951358_34653.png,n02951358_34653.png,0.0,-0.47135192,7.7834697,-5.8370404
alexnet2023_baseline_pgd,1,59,NaN,keyboard,keyboard,2-10-10,0059_eid_dnn_2-10-10_keyboard_10_n03085013_8932.png,n03085013_8932.png,1.0,8.059095,2.953842,3.6099591
alexnet2023_baseline_pgd,1,60,NaN,cat,cat,1-10-10,0060_eid_dnn_1-10-10_cat_10_n02125311_35338.png,n02125311_35338.png,1.0,3.1901119,2.2045903,0.696869
alexnet2023_baseline_pgd,1,61,NaN,oven,bicycle,16-10-10,0061_eid_dnn_16-10-10_bicycle_10_n03792782_5449.png,n03792782_5449.png,0.0,2.555894,2.621873,-0.046654202
alexnet2023_baseline_pgd,1,62,NaN,bicycle,bicycle,4-10-10,0062_eid_dnn_4-10-10_bicycle_10_n03792782_9432.png,n03792782_9432.png,1.0,4.4244657,2.131033,1.6217018
alexnet2023_baseline_pgd,1,63,NaN,airplane,bottle,1-10-10,0063_eid_dnn_1-10-10_bottle_10_n04591713_4291.png,n04591713_4291.png,0.0,2.3055644,5.195461,-2.0434654
alexnet2023_baseline_pgd,1,64,NaN,truck,truck,4-10-10,0064_eid_dnn_4-10-10_truck_10_n04467665_67057.png,n04467665_67057.png,1.0,5.362561,2.1945722,2.2401066
alexnet2023_baseline_pgd,1,65,NaN,knife,keyboard,1-10-10,0065_eid_dnn_1-10-10_keyboard_10_n03085013_22790.png,n03085013_22790.png,0.0,-0.3580368,4.405838,-3.3685684
alexnet2023_baseline_pgd,1,66,NaN,cat,dog,4-10-10,0066_eid_dnn_4-10-10_dog_10_n02086079_2896.png,n02086079_2896.png,0.0,2.648577,2.905405,-0.18160488
alexnet2023_baseline_pgd,1,67,NaN,airplane,knife,8-10-10,0067_eid_dnn_8-10-10_knife_10_n03041632_40508.png,n03041632_40508.png,0.0,-0.9237405,3.7794533,-3.3256602
alexnet2023_baseline_pgd,1,68,NaN,boat,boat,1-10-10,0068_eid_dnn_1-10-10_boat_10_n03344393_7942.png,n03344393_7942.png,1.0,8.23064,5.53717,1.9045713
alexnet2023_baseline_pgd,1,69,NaN,bear,bear,2-10-10,0069_eid_dnn_2-10-10_bear_10_n02134418_4352.png,n02134418_4352.png,1.0,6.880387,4.8975344,1.4020884
alexnet2023_baseline_pgd,1,70,NaN,oven,cat,16-10-10,0070_eid_dnn_16-10-10_cat_10_n02123045_5157.png,n02123045_5157.png,0.0,-0.476209,4.444113,-3.479193
alexnet2023_baseline_pgd,1,71,NaN,bear,dog,16-10-10,0071_eid_dnn_16-10-10_dog_10_n02109047_14287.png,n02109047_14287.png,0.0,3.223034,3.7012417,-0.338144
alexnet2023_baseline_pgd,1,72,NaN,truck,truck,2-10-10,0072_eid_dnn_2-10-10_truck_10_n03417042_14274.png,n03417042_14274.png,1.0,8.620174,3.6635697,3.504849
alexnet2023_baseline_pgd,1,73,NaN,bird,airplane,2-10-10,0073_eid_dnn_2-10-10_airplane_10_n02690373_5885.png,n02690373_5885.png,0.0,4.3482413,5.264727,-0.64805335
alexnet2023_baseline_pgd,1,74,NaN,airplane,cat,32-10-10,0074_eid_dnn_32-10-10_cat_10_n02123394_571.png,n02123394_571.png,0.0,1.462113,1.8095452,-0.24567163
alexnet2023_baseline_pgd,1,75,NaN,bear,cat,32-10-10,0075_eid_dnn_32-10-10_cat_10_n02123045_10171.png,n02123045_10171.png,0.0,2.735503,4.460826,-1.2199876
alexnet2023_baseline_pgd,1,76,NaN,chair,bottle,8-10-10,0076_eid_dnn_8-10-10_bottle_10_n04560804_4909.png,n04560804_4909.png,0.0,2.0871975,2.52337,-0.30842054
alexnet2023_baseline_pgd,1,77,NaN,keyboard,keyboard,8-10-10,0077_eid_dnn_8-10-10_keyboard_10_n03085013_7971.png,n03085013_7971.png,1.0,7.4103775,3.4611735,2.7925088
alexnet2023_baseline_pgd,1,78,NaN,oven,keyboard,16-10-10,0078_eid_dnn_16-10-10_keyboard_10_n03085013_21397.png,n03085013_21397.png,0.0,0.9066731,4.4048805,-2.4736063
alexnet2023_baseline_pgd,1,79,NaN,airplane,elephant,32-10-10,0079_eid_dnn_32-10-10_elephant_10_n02504458_4187.png,n02504458_4187.png,0.0,-0.20321594,3.6387463,-2.7166774
alexnet2023_baseline_pgd,1,80,NaN,bear,clock,8-10-10,0080_eid_dnn_8-10-10_clock_10_n03196217_6689.png,n03196217_6689.png,0.0,-2.2766511,2.8901746,-3.6534977
alexnet2023_baseline_pgd,1,81,NaN,knife,knife,4-10-10,0081_eid_dnn_4-10-10_knife_10_n03041632_26236.png,n03041632_26236.png,1.0,3.3002832,3.1794872,0.08541565
alexnet2023_baseline_pgd,1,82,NaN,bicycle,car,8-10-10,0082_eid_dnn_8-10-10_car_10_n03100240_1262.png,n03100240_1262.png,0.0,3.0685387,3.5764437,-0.35914308
alexnet2023_baseline_pgd,1,83,NaN,elephant,keyboard,64-10-10,0083_eid_dnn_64-10-10_keyboard_10_n04505470_5059.png,n04505470_5059.png,0.0,-5.253213,4.044301,-6.574335
alexnet2023_baseline_pgd,1,84,NaN,bird,bird,1-10-10,0084_eid_dnn_1-10-10_bird_10_n01537544_26417.png,n01537544_26417.png,1.0,6.299305,3.089204,2.269884
alexnet2023_baseline_pgd,1,85,NaN,airplane,bird,32-10-10,0085_eid_dnn_32-10-10_bird_10_n02009912_5714.png,n02009912_5714.png,0.0,-0.17483777,7.2977376,-5.283909
alexnet2023_baseline_pgd,1,86,NaN,oven,chair,128-10-10,0086_eid_dnn_128-10-10_chair_10_n03376595_5972.png,n03376595_5972.png,0.0,0.8763783,4.167915,-2.327468
alexnet2023_baseline_pgd,1,87,NaN,chair,chair,2-10-10,0087_eid_dnn_2-10-10_chair_10_n04429376_805.png,n04429376_805.png,1.0,5.3858914,3.9735062,0.9987072
alexnet2023_baseline_pgd,1,88,NaN,airplane,bicycle,128-10-10,0088_eid_dnn_128-10-10_bicycle_10_n03792782_4083.png,n03792782_4083.png,0.0,0.74681836,3.2412133,-1.7638037
alexnet2023_baseline_pgd,1,89,NaN,clock,clock,1-10-10,0089_eid_dnn_1-10-10_clock_10_n02708093_798.png,n02708093_798.png,1.0,8.417747,4.1201262,3.0388765
alexnet2023_baseline_pgd,1,90,NaN,bear,bear,1-10-10,0090_eid_dnn_1-10-10_bear_10_n02133161_1660.png,n02133161_1660.png,1.0,8.078304,6.815936,0.89262915
alexnet2023_baseline_pgd,1,91,NaN,oven,car,8-10-10,0091_eid_dnn_8-10-10_car_10_n04285008_9464.png,n04285008_9464.png,0.0,-1.0326698,4.8741684,-4.1767654
alexnet2023_baseline_pgd,1,92,NaN,oven,oven,16-10-10,0092_eid_dnn_16-10-10_oven_10_n04111531_3314.png,n04111531_3314.png,1.0,4.229095,1.2841239,2.0824091
alexnet2023_baseline_pgd,1,93,NaN,oven,cat,128-10-10,0093_eid_dnn_128-10-10_cat_10_n02123394_5753.png,n02123394_5753.png,0.0,0.37404945,1.5577261,-0.8369858
alexnet2023_baseline_pgd,1,94,NaN,boat,boat,2-10-10,0094_eid_dnn_2-10-10_boat_10_n02951358_34042.png,n02951358_34042.png,1.0,5.060137,2.2896285,1.9590453
alexnet2023_baseline_pgd,1,95,NaN,bear,truck,64-10-10,0095_eid_dnn_64-10-10_truck_10_n03417042_7588.png,n03417042_7588.png,0.0,-1.3939292,2.997621,-3.105295
alexnet2023_baseline_pgd,1,96,NaN,oven,truck,32-10-10,0096_eid_dnn_32-10-10_truck_10_n03417042_4200.png,n03417042_4200.png,0.0,-0.5740172,6.2533545,-4.827681
alexnet2023_baseline_pgd,1,97,NaN,airplane,airplane,4-10-10,0097_eid_dnn_4-10-10_airplane_10_n02690373_4335.png,n02690373_4335.png,1.0,14.415958,4.234333,7.1994963
alexnet2023_baseline_pgd,1,98,NaN,bicycle,elephant,128-10-10,0098_eid_dnn_128-10-10_elephant_10_n02504458_6823.png,n02504458_6823.png,0.0,0.80001223,2.8909805,-1.4785378
alexnet2023_baseline_pgd,1,99,NaN,boat,boat,4-10-10,0099_eid_dnn_4-10-10_boat_10_n03344393_4214.png,n03344393_4214.png,1.0,9.262843,5.8038583,2.4458716
alexnet2023_baseline_pgd,1,100,NaN,keyboard,keyboard,4-10-10,0100_eid_dnn_4-10-10_keyboard_10_n03085013_22949.png,n03085013_22949.png,1.0,11.605658,3.4720476,5.751331
alexnet2023_baseline_pgd,1,101,NaN,bicycle,bear,64-10-10,0101_eid_dnn_64-10-10_bear_10_n02132136_31664.png,n02132136_31664.png,0.0,0.26561075,3.3935137,-2.2117615
alexnet2023_baseline_pgd,1,102,NaN,bottle,bottle,8-10-10,0102_eid_dnn_8-10-10_bottle_10_n03983396_1985.png,n03983396_1985.png,1.0,1.5593003,1.1936469,0.258556
alexnet2023_baseline_pgd,1,103,NaN,airplane,airplane,2-10-10,0103_eid_dnn_2-10-10_airplane_10_n02690373_9266.png,n02690373_9266.png,1.0,18.776329,6.458085,8.710314
alexnet2023_baseline_pgd,1,104,NaN,elephant,bottle,128-10-10,0104_eid_dnn_128-10-10_bottle_10_n02823428_5961.png,n02823428_5961.png,0.0,-0.23973954,2.9658158,-2.26667
alexnet2023_baseline_pgd,1,105,NaN,bottle,bottle,4-10-10,0105_eid_dnn_4-10-10_bottle_10_n04579145_1856.png,n04579145_1856.png,1.0,7.141,1.7188933,3.8340085
alexnet2023_baseline_pgd,1,106,NaN,oven,clock,64-10-10,0106_eid_dnn_64-10-10_clock_10_n02708093_7810.png,n02708093_7810.png,0.0,-0.5580198,2.031808,-1.8312848
alexnet2023_baseline_pgd,1,107,NaN,dog,dog,1-10-10,0107_eid_dnn_1-10-10_dog_10_n02100735_4949.png,n02100735_4949.png,1.0,5.5791655,3.754611,1.2901548
alexnet2023_baseline_pgd,1,108,NaN,airplane,chair,32-10-10,0108_eid_dnn_32-10-10_chair_10_n03376595_7275.png,n03376595_7275.png,0.0,0.39548373,3.4878953,-2.1866653
alexnet2023_baseline_pgd,1,109,NaN,bottle,bottle,2-10-10,0109_eid_dnn_2-10-10_bottle_10_n03983396_16741.png,n03983396_16741.png,1.0,9.193217,1.3014468,5.5803246
alexnet2023_baseline_pgd,1,110,NaN,bear,boat,32-10-10,0110_eid_dnn_32-10-10_boat_10_n04612504_8719.png,n04612504_8719.png,0.0,-3.0028262,2.4992223,-3.8905358
alexnet2023_baseline_pgd,1,111,NaN,chair,chair,1-10-10,0111_eid_dnn_1-10-10_chair_10_n02791124_3570.png,n02791124_3570.png,1.0,10.52247,4.532884,4.235277
alexnet2023_baseline_pgd,1,112,NaN,oven,bear,32-10-10,0112_eid_dnn_32-10-10_bear_10_n02132136_9557.png,n02132136_9557.png,0.0,3.901528,3.9926689,-0.06444641
alexnet2023_baseline_pgd,1,113,NaN,airplane,bird,64-10-10,0113_eid_dnn_64-10-10_bird_10_n02002556_5730.png,n02002556_5730.png,0.0,0.114124514,2.5471528,-1.7204108
alexnet2023_baseline_pgd,1,114,NaN,oven,oven,4-10-10,0114_eid_dnn_4-10-10_oven_10_n04111531_8959.png,n04111531_8959.png,1.0,3.5397868,3.121861,0.2955182
alexnet2023_baseline_pgd,1,115,NaN,elephant,cat,128-10-10,0115_eid_dnn_128-10-10_cat_10_n02123159_8101.png,n02123159_8101.png,0.0,0.27758223,2.2229064,-1.3755519
alexnet2023_baseline_pgd,1,116,NaN,cat,cat,8-10-10,0116_eid_dnn_8-10-10_cat_10_n02123597_8890.png,n02123597_8890.png,1.0,3.33752,2.4127288,0.6539261
alexnet2023_baseline_pgd,1,117,NaN,elephant,elephant,1-10-10,0117_eid_dnn_1-10-10_elephant_10_n02504458_220.png,n02504458_220.png,1.0,21.96293,5.720271,11.485295
alexnet2023_baseline_pgd,1,118,NaN,oven,bicycle,128-10-10,0118_eid_dnn_128-10-10_bicycle_10_n02835271_2651.png,n02835271_2651.png,0.0,1.8857105,3.2055209,-0.9332469
alexnet2023_baseline_pgd,1,119,NaN,bottle,keyboard,64-10-10,0119_eid_dnn_64-10-10_keyboard_10_n04505470_1581.png,n04505470_1581.png,0.0,-4.427828,1.1841356,-3.9682574
alexnet2023_baseline_pgd,1,120,NaN,truck,truck,4-10-10,0120_eid_dnn_4-10-10_truck_10_n04467665_1719.png,n04467665_1719.png,1.0,9.292538,8.661568,0.44616318
alexnet2023_baseline_pgd,1,121,NaN,truck,truck,2-10-10,0121_eid_dnn_2-10-10_truck_10_n04467665_30756.png,n04467665_30756.png,1.0,11.962476,6.616942,3.7798634
alexnet2023_baseline_pgd,1,122,NaN,oven,oven,64-10-10,0122_eid_dnn_64-10-10_oven_10_n04111531_1818.png,n04111531_1818.png,1.0,3.7075233,1.011433,1.9064237
alexnet2023_baseline_pgd,1,123,NaN,elephant,elephant,64-10-10,0123_eid_dnn_64-10-10_elephant_10_n02504013_2974.png,n02504013_2974.png,1.0,7.3340445,2.8360336,3.180574
alexnet2023_baseline_pgd,1,124,NaN,elephant,bicycle,128-10-10,0124_eid_dnn_128-10-10_bicycle_10_n03792782_7713.png,n03792782_7713.png,0.0,0.1871736,2.3698063,-1.5433544
alexnet2023_baseline_pgd,1,125,NaN,clock,clock,16-10-10,0125_eid_dnn_16-10-10_clock_10_n04548280_9700.png,n04548280_9700.png,1.0,2.9858444,2.1025572,0.62457836
alexnet2023_baseline_pgd,1,126,NaN,bear,bottle,16-10-10,0126_eid_dnn_16-10-10_bottle_10_n04591713_1174.png,n04591713_1174.png,0.0,-0.4538507,2.6331792,-2.18286
alexnet2023_baseline_pgd,1,127,NaN,elephant,bear,64-10-10,0127_eid_dnn_64-10-10_bear_10_n02134418_1395.png,n02134418_1395.png,0.0,2.1418538,2.9410675,-0.5651294
alexnet2023_baseline_pgd,1,128,NaN,elephant,bottle,128-10-10,0128_eid_dnn_128-10-10_bottle_10_n04591713_36.png,n04591713_36.png,0.0,1.0504315,2.5126882,-1.0339717
alexnet2023_baseline_pgd,1,129,NaN,bear,knife,8-10-10,0129_eid_dnn_8-10-10_knife_10_n03041632_21034.png,n03041632_21034.png,0.0,3.7413607,3.7998834,-0.0413818
alexnet2023_baseline_pgd,1,130,NaN,bicycle,bicycle,1-10-10,0130_eid_dnn_1-10-10_bicycle_10_n03792782_11115.png,n03792782_11115.png,1.0,19.358435,3.2468688,11.392598
alexnet2023_baseline_pgd,1,131,NaN,airplane,truck,16-10-10,0131_eid_dnn_16-10-10_truck_10_n03417042_5381.png,n03417042_5381.png,0.0,1.8069862,3.153635,-0.95222455
alexnet2023_baseline_pgd,1,132,NaN,elephant,boat,64-10-10,0132_eid_dnn_64-10-10_boat_10_n04612504_15258.png,n04612504_15258.png,0.0,-0.7779637,4.88466,-4.0040793
alexnet2023_baseline_pgd,1,133,NaN,boat,boat,2-10-10,0133_eid_dnn_2-10-10_boat_10_n03662601_11972.png,n03662601_11972.png,1.0,9.71297,6.637441,2.1747272
alexnet2023_baseline_pgd,1,134,NaN,oven,dog,64-10-10,0134_eid_dnn_64-10-10_dog_10_n02092002_11459.png,n02092002_11459.png,0.0,0.05857856,1.4599729,-0.9909354
alexnet2023_baseline_pgd,1,135,NaN,oven,clock,64-10-10,0135_eid_dnn_64-10-10_clock_10_n04548280_6605.png,n04548280_6605.png,0.0,1.0106449,3.22399,-1.5650713
alexnet2023_baseline_pgd,1,136,NaN,elephant,boat,64-10-10,0136_eid_dnn_64-10-10_boat_10_n03662601_5600.png,n03662601_5600.png,0.0,0.1835505,1.840706,-1.171786
alexnet2023_baseline_pgd,1,137,NaN,airplane,bear,32-10-10,0137_eid_dnn_32-10-10_bear_10_n02134084_8153.png,n02134084_8153.png,0.0,0.27011788,3.0450463,-1.9621708
alexnet2023_baseline_pgd,1,138,NaN,oven,cat,64-10-10,0138_eid_dnn_64-10-10_cat_10_n02124075_9225.png,n02124075_9225.png,0.0,0.29961625,3.6326032,-2.3567777
alexnet2023_baseline_pgd,1,139,NaN,oven,bicycle,8-10-10,0139_eid_dnn_8-10-10_bicycle_10_n03792782_3591.png,n03792782_3591.png,0.0,1.5282595,6.9551897,-3.8374193
alexnet2023_baseline_pgd,1,140,NaN,oven,dog,64-10-10,0140_eid_dnn_64-10-10_dog_10_n02107142_31661.png,n02107142_31661.png,0.0,-0.35141653,2.615449,-2.0978909
alexnet2023_baseline_pgd,1,141,NaN,elephant,elephant,8-10-10,0141_eid_dnn_8-10-10_elephant_10_n02504458_651.png,n02504458_651.png,1.0,16.299953,7.070502,6.5262084
alexnet2023_baseline_pgd,1,142,NaN,oven,dog,128-10-10,0142_eid_dnn_128-10-10_dog_10_n02110958_15217.png,n02110958_15217.png,0.0,-0.41600496,2.669986,-2.182125
alexnet2023_baseline_pgd,1,143,NaN,oven,oven,4-10-10,0143_eid_dnn_4-10-10_oven_10_n04111531_523.png,n04111531_523.png,1.0,5.7965674,2.8609214,2.0758152
alexnet2023_baseline_pgd,1,144,NaN,car,car,4-10-10,0144_eid_dnn_4-10-10_car_10_n02814533_42884.png,n02814533_42884.png,1.0,14.287521,6.757598,5.32446
alexnet2023_baseline_pgd,1,145,NaN,oven,car,64-10-10,0145_eid_dnn_64-10-10_car_10_n04285008_8017.png,n04285008_8017.png,0.0,-2.1856632,5.205344,-5.2262316
alexnet2023_baseline_pgd,1,146,NaN,boat,car,1-10-10,0146_eid_dnn_1-10-10_car_10_n03100240_16766.png,n03100240_16766.png,0.0,6.757563,6.917927,-0.113394246
alexnet2023_baseline_pgd,1,147,NaN,elephant,elephant,8-10-10,0147_eid_dnn_8-10-10_elephant_10_n02504458_4593.png,n02504458_4593.png,1.0,9.68544,4.690919,3.5316598
alexnet2023_baseline_pgd,1,148,NaN,clock,chair,64-10-10,0148_eid_dnn_64-10-10_chair_10_n02791124_1358.png,n02791124_1358.png,0.0,-0.43368027,0.70975643,-0.8085318
alexnet2023_baseline_pgd,1,149,NaN,airplane,dog,16-10-10,0149_eid_dnn_16-10-10_dog_10_n02095314_5363.png,n02095314_5363.png,0.0,1.0571202,2.4385707,-0.97683305
alexnet2023_baseline_pgd,1,150,NaN,clock,clock,8-10-10,0150_eid_dnn_8-10-10_clock_10_n04548280_1413.png,n04548280_1413.png,1.0,3.7636147,2.0699356,1.197612
alexnet2023_baseline_pgd,1,151,NaN,dog,dog,1-10-10,0151_eid_dnn_1-10-10_dog_10_n02105641_10948.png,n02105641_10948.png,1.0,8.156655,3.1980534,3.506261
alexnet2023_baseline_pgd,1,152,NaN,bear,dog,1-10-10,0152_eid_dnn_1-10-10_dog_10_n02113624_1691.png,n02113624_1691.png,0.0,4.2499495,8.217642,-2.8055823
alexnet2023_baseline_pgd,1,153,NaN,car,car,4-10-10,0153_eid_dnn_4-10-10_car_10_n03100240_2235.png,n03100240_2235.png,1.0,12.329926,10.231771,1.483619
alexnet2023_baseline_pgd,1,154,NaN,oven,chair,2-10-10,0154_eid_dnn_2-10-10_chair_10_n04099969_56470.png,n04099969_56470.png,0.0,2.1152139,4.6721625,-1.8080357
alexnet2023_baseline_pgd,1,155,NaN,oven,oven,2-10-10,0155_eid_dnn_2-10-10_oven_10_n04111531_5429.png,n04111531_5429.png,1.0,13.282624,7.049133,4.407744
alexnet2023_baseline_pgd,1,156,NaN,oven,keyboard,64-10-10,0156_eid_dnn_64-10-10_keyboard_10_n03085013_19317.png,n03085013_19317.png,0.0,-3.4320736,4.0833097,-5.3141785
alexnet2023_baseline_pgd,1,157,NaN,bird,bird,64-10-10,0157_eid_dnn_64-10-10_bird_10_n01601694_19650.png,n01601694_19650.png,1.0,2.4414253,1.1330407,0.9251677
alexnet2023_baseline_pgd,1,158,NaN,oven,clock,128-10-10,0158_eid_dnn_128-10-10_clock_10_n03196217_11199.png,n03196217_11199.png,0.0,-0.10839796,3.2679694,-2.3874524
alexnet2023_baseline_pgd,1,159,NaN,oven,bottle,32-10-10,0159_eid_dnn_32-10-10_bottle_10_n03937543_2209.png,n03937543_2209.png,0.0,0.76467925,3.780843,-2.13275
alexnet2023_baseline_pgd,1,160,NaN,oven,car,64-10-10,0160_eid_dnn_64-10-10_car_10_n03100240_16939.png,n03100240_16939.png,0.0,-2.13748,4.9241705,-4.993341
alexnet2023_baseline_pgd,1,161,NaN,bottle,bottle,8-10-10,0161_eid_dnn_8-10-10_bottle_10_n04591713_2501.png,n04591713_2501.png,1.0,1.9039876,1.7605761,0.10140726
alexnet2023_baseline_pgd,1,162,NaN,airplane,airplane,16-10-10,0162_eid_dnn_16-10-10_airplane_10_n02690373_10395.png,n02690373_10395.png,1.0,8.829918,4.5168276,3.0498154
alexnet2023_baseline_pgd,1,163,NaN,elephant,oven,8-10-10,0163_eid_dnn_8-10-10_oven_10_n04111531_3286.png,n04111531_3286.png,0.0,3.5314536,3.847503,-0.22348063
alexnet2023_baseline_pgd,1,164,NaN,oven,boat,64-10-10,0164_eid_dnn_64-10-10_boat_10_n04273569_13401.png,n04273569_13401.png,0.0,-0.13799486,6.0439606,-4.3713026
alexnet2023_baseline_pgd,1,165,NaN,oven,elephant,64-10-10,0165_eid_dnn_64-10-10_elephant_10_n02504458_12776.png,n02504458_12776.png,0.0,2.233107,2.7185829,-0.3432832
alexnet2023_baseline_pgd,1,166,NaN,bird,bird,2-10-10,0166_eid_dnn_2-10-10_bird_10_n01828970_997.png,n01828970_997.png,1.0,9.8420105,2.736304,5.024493
alexnet2023_baseline_pgd,1,167,NaN,dog,bear,8-10-10,0167_eid_dnn_8-10-10_bear_10_n02132136_10318.png,n02132136_10318.png,0.0,4.6833696,4.7685065,-0.060200874
alexnet2023_baseline_pgd,1,168,NaN,oven,oven,32-10-10,0168_eid_dnn_32-10-10_oven_10_n04111531_7883.png,n04111531_7883.png,1.0,7.3592443,0.38828295,4.9292145
alexnet2023_baseline_pgd,1,169,NaN,bicycle,clock,128-10-10,0169_eid_dnn_128-10-10_clock_10_n02708093_725.png,n02708093_725.png,0.0,-0.3884476,3.0205984,-2.4105597
alexnet2023_baseline_pgd,1,170,NaN,oven,bottle,16-10-10,0170_eid_dnn_16-10-10_bottle_10_n04557648_2052.png,n04557648_2052.png,0.0,0.17231104,4.8646326,-3.3179727
alexnet2023_baseline_pgd,1,171,NaN,oven,keyboard,32-10-10,0171_eid_dnn_32-10-10_keyboard_10_n04505470_5036.png,n04505470_5036.png,0.0,-4.546835,8.638448,-9.323403
alexnet2023_baseline_pgd,1,172,NaN,elephant,elephant,8-10-10,0172_eid_dnn_8-10-10_elephant_10_n02504458_13352.png,n02504458_13352.png,1.0,12.092568,6.204086,4.163786
alexnet2023_baseline_pgd,1,173,NaN,chair,chair,4-10-10,0173_eid_dnn_4-10-10_chair_10_n04429376_30620.png,n04429376_30620.png,1.0,7.761416,4.265841,2.4717448
alexnet2023_baseline_pgd,1,174,NaN,bird,boat,16-10-10,0174_eid_dnn_16-10-10_boat_10_n03662601_2980.png,n03662601_2980.png,0.0,1.5779278,2.38115,-0.56796384
alexnet2023_baseline_pgd,1,175,NaN,elephant,boat,8-10-10,0175_eid_dnn_8-10-10_boat_10_n03662601_4734.png,n03662601_4734.png,0.0,2.4797049,2.8458743,-0.2589209
alexnet2023_baseline_pgd,1,176,NaN,bear,bear,2-10-10,0176_eid_dnn_2-10-10_bear_10_n02134418_4754.png,n02134418_4754.png,1.0,12.280729,4.8230057,5.273407
alexnet2023_baseline_pgd,1,177,NaN,elephant,elephant,2-10-10,0177_eid_dnn_2-10-10_elephant_10_n02504013_8522.png,n02504013_8522.png,1.0,12.562944,4.344682,5.8111887
alexnet2023_baseline_pgd,1,178,NaN,oven,bottle,64-10-10,0178_eid_dnn_64-10-10_bottle_10_n03937543_4863.png,n03937543_4863.png,0.0,1.222411,5.7897305,-3.2295825
alexnet2023_baseline_pgd,1,179,NaN,oven,car,16-10-10,0179_eid_dnn_16-10-10_car_10_n04285008_10802.png,n04285008_10802.png,0.0,-2.1826687,5.5346518,-5.4569697
alexnet2023_baseline_pgd,1,180,NaN,oven,knife,64-10-10,0180_eid_dnn_64-10-10_knife_10_n03041632_6708.png,n03041632_6708.png,0.0,0.5519942,3.6019511,-2.156645
alexnet2023_baseline_pgd,1,181,NaN,dog,dog,1-10-10,0181_eid_dnn_1-10-10_dog_10_n02107142_61109.png,n02107142_61109.png,1.0,5.957736,5.899885,0.04090672
alexnet2023_baseline_pgd,1,182,NaN,clock,clock,2-10-10,0182_eid_dnn_2-10-10_clock_10_n03196217_8139.png,n03196217_8139.png,1.0,2.8072908,1.8434125,0.68156487
alexnet2023_baseline_pgd,1,183,NaN,elephant,elephant,1-10-10,0183_eid_dnn_1-10-10_elephant_10_n02504458_6611.png,n02504458_6611.png,1.0,21.511803,9.668519,8.374466
alexnet2023_baseline_pgd,1,184,NaN,bicycle,truck,64-10-10,0184_eid_dnn_64-10-10_truck_10_n04467665_4401.png,n04467665_4401.png,0.0,0.7657275,3.1172132,-1.6627516
alexnet2023_baseline_pgd,1,185,NaN,boat,boat,4-10-10,0185_eid_dnn_4-10-10_boat_10_n03344393_732.png,n03344393_732.png,1.0,7.17423,3.161604,2.8373551
alexnet2023_baseline_pgd,1,186,NaN,knife,knife,4-10-10,0186_eid_dnn_4-10-10_knife_10_n03041632_41381.png,n03041632_41381.png,1.0,3.4427392,1.6379828,1.2761555
alexnet2023_baseline_pgd,1,187,NaN,oven,oven,32-10-10,0187_eid_dnn_32-10-10_oven_10_n04111531_22715.png,n04111531_22715.png,1.0,6.1059065,1.1961792,3.4717014
alexnet2023_baseline_pgd,1,188,NaN,cat,cat,16-10-10,0188_eid_dnn_16-10-10_cat_10_n02123045_3568.png,n02123045_3568.png,1.0,4.0064936,2.5050669,1.061669
alexnet2023_baseline_pgd,1,189,NaN,truck,truck,2-10-10,0189_eid_dnn_2-10-10_truck_10_n03796401_18976.png,n03796401_18976.png,1.0,13.923674,9.118408,3.3978357
alexnet2023_baseline_pgd,1,190,NaN,oven,oven,8-10-10,0190_eid_dnn_8-10-10_oven_10_n04111531_15710.png,n04111531_15710.png,1.0,6.7213583,2.538702,2.9575846
alexnet2023_baseline_pgd,1,191,NaN,airplane,elephant,32-10-10,0191_eid_dnn_32-10-10_elephant_10_n02504013_7232.png,n02504013_7232.png,0.0,2.5362954,2.721486,-0.13094959
alexnet2023_baseline_pgd,1,192,NaN,oven,clock,64-10-10,0192_eid_dnn_64-10-10_clock_10_n02708093_5126.png,n02708093_5126.png,0.0,0.16401203,2.6728268,-1.774
alexnet2023_baseline_pgd,1,193,NaN,oven,cat,32-10-10,0193_eid_dnn_32-10-10_cat_10_n02123159_1598.png,n02123159_1598.png,0.0,-0.8893195,9.379407,-7.261086
alexnet2023_baseline_pgd,1,194,NaN,car,car,1-10-10,0194_eid_dnn_1-10-10_car_10_n04285008_1661.png,n04285008_1661.png,1.0,17.996376,12.255072,4.0597153
alexnet2023_baseline_pgd,1,195,NaN,clock,clock,2-10-10,0195_eid_dnn_2-10-10_clock_10_n02708093_5551.png,n02708093_5551.png,1.0,10.519093,3.7691283,4.7729454
alexnet2023_baseline_pgd,1,196,NaN,airplane,airplane,128-10-10,0196_eid_dnn_128-10-10_airplane_10_n02690373_693.png,n02690373_693.png,1.0,2.0118814,1.3380513,0.47646978
alexnet2023_baseline_pgd,1,197,NaN,elephant,elephant,2-10-10,0197_eid_dnn_2-10-10_elephant_10_n02504013_3409.png,n02504013_3409.png,1.0,13.371194,4.282239,6.426862
alexnet2023_baseline_pgd,1,198,NaN,oven,dog,64-10-10,0198_eid_dnn_64-10-10_dog_10_n02113712_8182.png,n02113712_8182.png,0.0,1.2288518,5.8570213,-3.2726102
alexnet2023_baseline_pgd,1,199,NaN,bottle,bottle,1-10-10,0199_eid_dnn_1-10-10_bottle_10_n03983396_8322.png,n03983396_8322.png,1.0,11.483762,4.457612,4.9682384
alexnet2023_baseline_pgd,1,200,NaN,elephant,keyboard,64-10-10,0200_eid_dnn_64-10-10_keyboard_10_n04505470_1040.png,n04505470_1040.png,0.0,-4.561736,3.2000365,-5.4884024
alexnet2023_baseline_pgd,1,201,NaN,oven,oven,32-10-10,0201_eid_dnn_32-10-10_oven_10_n04111531_11230.png,n04111531_11230.png,1.0,3.296015,0.71576667,1.8245112
alexnet2023_baseline_pgd,1,202,NaN,cat,cat,1-10-10,0202_eid_dnn_1-10-10_cat_10_n02123394_6269.png,n02123394_6269.png,1.0,8.199079,3.2201366,3.5206437
alexnet2023_baseline_pgd,1,203,NaN,elephant,elephant,2-10-10,0203_eid_dnn_2-10-10_elephant_10_n02504013_2075.png,n02504013_2075.png,1.0,13.469035,3.2812905,7.203823
alexnet2023_baseline_pgd,1,204,NaN,bear,bear,1-10-10,0204_eid_dnn_1-10-10_bear_10_n02133161_3795.png,n02133161_3795.png,1.0,7.024644,3.2428257,2.6741493
alexnet2023_baseline_pgd,1,205,NaN,oven,oven,2-10-10,0205_eid_dnn_2-10-10_oven_10_n04111531_4322.png,n04111531_4322.png,1.0,4.850881,2.5848055,1.6023575
alexnet2023_baseline_pgd,1,206,NaN,bottle,bottle,4-10-10,0206_eid_dnn_4-10-10_bottle_10_n03937543_5799.png,n03937543_5799.png,1.0,3.248409,2.4972858,0.5311243
alexnet2023_baseline_pgd,1,207,NaN,oven,keyboard,8-10-10,0207_eid_dnn_8-10-10_keyboard_10_n04505470_4414.png,n04505470_4414.png,0.0,1.8861521,3.839228,-1.3810332
alexnet2023_baseline_pgd,1,208,NaN,dog,dog,4-10-10,0208_eid_dnn_4-10-10_dog_10_n02091032_8315.png,n02091032_8315.png,1.0,6.7558346,6.243818,0.36205053
alexnet2023_baseline_pgd,1,209,NaN,knife,knife,2-10-10,0209_eid_dnn_2-10-10_knife_10_n03041632_39952.png,n03041632_39952.png,1.0,8.431372,1.459038,4.930185
alexnet2023_baseline_pgd,1,210,NaN,chair,chair,8-10-10,0210_eid_dnn_8-10-10_chair_10_n02791124_634.png,n02791124_634.png,1.0,3.7915869,1.4675833,1.6433188
alexnet2023_baseline_pgd,1,211,NaN,airplane,boat,32-10-10,0211_eid_dnn_32-10-10_boat_10_n03344393_3355.png,n03344393_3355.png,0.0,1.8195713,2.3327637,-0.36288184
alexnet2023_baseline_pgd,1,212,NaN,airplane,dog,32-10-10,0212_eid_dnn_32-10-10_dog_10_n02102040_7188.png,n02102040_7188.png,0.0,1.7506391,3.192596,-1.0196176
alexnet2023_baseline_pgd,1,213,NaN,chair,chair,2-10-10,0213_eid_dnn_2-10-10_chair_10_n02791124_8711.png,n02791124_8711.png,1.0,8.353754,3.5350833,3.4073148
alexnet2023_baseline_pgd,1,214,NaN,elephant,bear,64-10-10,0214_eid_dnn_64-10-10_bear_10_n02132136_6002.png,n02132136_6002.png,0.0,0.10249016,1.9017658,-1.27228
alexnet2023_baseline_pgd,1,215,NaN,bicycle,boat,4-10-10,0215_eid_dnn_4-10-10_boat_10_n02951358_30184.png,n02951358_30184.png,0.0,4.0007453,6.7820687,-1.9666927
alexnet2023_baseline_pgd,1,216,NaN,oven,bottle,128-10-10,0216_eid_dnn_128-10-10_bottle_10_n02823428_3414.png,n02823428_3414.png,0.0,0.6595632,3.2441716,-1.8275943
alexnet2023_baseline_pgd,1,217,NaN,truck,truck,4-10-10,0217_eid_dnn_4-10-10_truck_10_n04467665_13231.png,n04467665_13231.png,1.0,3.4801931,2.6775985,0.56752014
alexnet2023_baseline_pgd,1,218,NaN,chair,chair,4-10-10,0218_eid_dnn_4-10-10_chair_10_n04099969_8063.png,n04099969_8063.png,1.0,6.711869,5.0539484,1.1723268
alexnet2023_baseline_pgd,1,219,NaN,bird,bird,4-10-10,0219_eid_dnn_4-10-10_bird_10_n01534433_10234.png,n01534433_10234.png,1.0,4.9042306,1.2060933,2.614978
alexnet2023_baseline_pgd,1,220,NaN,elephant,elephant,4-10-10,0220_eid_dnn_4-10-10_elephant_10_n02504013_12533.png,n02504013_12533.png,1.0,7.0648746,4.202185,2.0242271
alexnet2023_baseline_pgd,1,221,NaN,airplane,knife,16-10-10,0221_eid_dnn_16-10-10_knife_10_n03041632_18995.png,n03041632_18995.png,0.0,0.6161686,2.4987955,-1.3312182
alexnet2023_baseline_pgd,1,222,NaN,airplane,chair,32-10-10,0222_eid_dnn_32-10-10_chair_10_n04429376_7123.png,n04429376_7123.png,0.0,0.5180487,1.2387698,-0.50962675
alexnet2023_baseline_pgd,1,223,NaN,oven,clock,64-10-10,0223_eid_dnn_64-10-10_clock_10_n03196217_9065.png,n03196217_9065.png,0.0,0.5385366,1.1187255,-0.41025552
alexnet2023_baseline_pgd,1,224,NaN,cat,dog,4-10-10,0224_eid_dnn_4-10-10_dog_10_n02086079_4143.png,n02086079_4143.png,0.0,4.9921317,6.0454183,-0.7447861
alexnet2023_baseline_pgd,1,225,NaN,bear,bear,4-10-10,0225_eid_dnn_4-10-10_bear_10_n02132136_20162.png,n02132136_20162.png,1.0,9.354553,9.185507,0.11953386
alexnet2023_baseline_pgd,1,226,NaN,bottle,bottle,1-10-10,0226_eid_dnn_1-10-10_bottle_10_n03983396_4165.png,n03983396_4165.png,1.0,3.117315,2.5810897,0.37916857
alexnet2023_baseline_pgd,1,227,NaN,bird,bird,4-10-10,0227_eid_dnn_4-10-10_bird_10_n01824575_4470.png,n01824575_4470.png,1.0,7.8313327,3.517996,3.0499895
alexnet2023_baseline_pgd,1,228,NaN,oven,oven,64-10-10,0228_eid_dnn_64-10-10_oven_10_n04111531_9695.png,n04111531_9695.png,1.0,2.4352815,0.77323943,1.1752412
alexnet2023_baseline_pgd,1,229,NaN,oven,bottle,64-10-10,0229_eid_dnn_64-10-10_bottle_10_n02823428_23181.png,n02823428_23181.png,0.0,0.4878848,2.8660429,-1.6816118
alexnet2023_baseline_pgd,1,230,NaN,bicycle,bicycle,2-10-10,0230_eid_dnn_2-10-10_bicycle_10_n02835271_13674.png,n02835271_13674.png,1.0,10.574484,3.0665805,5.3088894
alexnet2023_baseline_pgd,1,231,NaN,chair,chair,2-10-10,0231_eid_dnn_2-10-10_chair_10_n04429376_55747.png,n04429376_55747.png,1.0,6.730192,4.07849,1.8750368
alexnet2023_baseline_pgd,1,232,NaN,oven,boat,32-10-10,0232_eid_dnn_32-10-10_boat_10_n02951358_8346.png,n02951358_8346.png,0.0,-4.481885,3.7028995,-5.787516
alexnet2023_baseline_pgd,1,233,NaN,elephant,elephant,16-10-10,0233_eid_dnn_16-10-10_elephant_10_n02504013_1088.png,n02504013_1088.png,1.0,8.311953,4.7974486,2.4851296
alexnet2023_baseline_pgd,1,234,NaN,car,car,8-10-10,0234_eid_dnn_8-10-10_car_10_n03100240_11191.png,n03100240_11191.png,1.0,6.248385,2.669751,2.5304763
alexnet2023_baseline_pgd,1,235,NaN,chair,chair,8-10-10,0235_eid_dnn_8-10-10_chair_10_n04099969_19966.png,n04099969_19966.png,1.0,7.1209497,2.1697657,3.5010161
alexnet2023_baseline_pgd,1,236,NaN,oven,bicycle,32-10-10,0236_eid_dnn_32-10-10_bicycle_10_n03792782_15016.png,n03792782_15016.png,0.0,-2.4292226,3.1684284,-3.958137
alexnet2023_baseline_pgd,1,237,NaN,elephant,boat,128-10-10,0237_eid_dnn_128-10-10_boat_10_n02951358_17867.png,n02951358_17867.png,0.0,-2.056216,1.5287297,-2.5349395
alexnet2023_baseline_pgd,1,238,NaN,cat,cat,2-10-10,0238_eid_dnn_2-10-10_cat_10_n02123045_2364.png,n02123045_2364.png,1.0,9.979375,0.9639105,6.3748965
alexnet2023_baseline_pgd,1,239,NaN,elephant,bear,2-10-10,0239_eid_dnn_2-10-10_bear_10_n02132136_9433.png,n02132136_9433.png,0.0,10.788199,11.556509,-0.5432769
alexnet2023_baseline_pgd,1,240,NaN,oven,clock,32-10-10,0240_eid_dnn_32-10-10_clock_10_n03196217_3167.png,n03196217_3167.png,0.0,1.1745471,3.7203534,-1.800157
alexnet2023_baseline_pgd,1,241,NaN,oven,clock,32-10-10,0241_eid_dnn_32-10-10_clock_10_n03196217_3129.png,n03196217_3129.png,0.0,-0.82121754,3.1124218,-2.781503
alexnet2023_baseline_pgd,1,242,NaN,knife,keyboard,128-10-10,0242_eid_dnn_128-10-10_keyboard_10_n03085013_6067.png,n03085013_6067.png,0.0,-3.8771186,0.49499822,-3.0915537
alexnet2023_baseline_pgd,1,243,NaN,keyboard,keyboard,2-10-10,0243_eid_dnn_2-10-10_keyboard_10_n03085013_24648.png,n03085013_24648.png,1.0,12.185351,6.8709846,3.757825
alexnet2023_baseline_pgd,1,244,NaN,oven,oven,32-10-10,0244_eid_dnn_32-10-10_oven_10_n04111531_6695.png,n04111531_6695.png,1.0,5.1091413,2.6548738,1.7354292
alexnet2023_baseline_pgd,1,245,NaN,dog,dog,4-10-10,0245_eid_dnn_4-10-10_dog_10_n02111500_4875.png,n02111500_4875.png,1.0,6.4039845,5.0028224,0.9907713
alexnet2023_baseline_pgd,1,246,NaN,airplane,oven,32-10-10,0246_eid_dnn_32-10-10_oven_10_n04111531_13018.png,n04111531_13018.png,0.0,3.6625369,3.9591067,-0.20970653
alexnet2023_baseline_pgd,1,247,NaN,elephant,keyboard,128-10-10,0247_eid_dnn_128-10-10_keyboard_10_n03085013_23030.png,n03085013_23030.png,0.0,-2.8183625,2.842145,-4.002583
alexnet2023_baseline_pgd,1,248,NaN,dog,cat,8-10-10,0248_eid_dnn_8-10-10_cat_10_n02123045_8409.png,n02123045_8409.png,0.0,2.1853917,3.358588,-0.82957506
alexnet2023_baseline_pgd,1,249,NaN,bicycle,bicycle,4-10-10,0249_eid_dnn_4-10-10_bicycle_10_n03792782_37777.png,n03792782_37777.png,1.0,10.886818,1.1495385,6.885297
alexnet2023_baseline_pgd,1,250,NaN,elephant,airplane,64-10-10,0250_eid_dnn_64-10-10_airplane_10_n02690373_614.png,n02690373_614.png,0.0,0.26097685,5.1360826,-3.4472206
alexnet2023_baseline_pgd,1,251,NaN,oven,keyboard,128-10-10,0251_eid_dnn_128-10-10_keyboard_10_n03085013_19775.png,n03085013_19775.png,0.0,-3.8922627,2.7375345,-4.6879745
alexnet2023_baseline_pgd,1,252,NaN,bear,bear,8-10-10,0252_eid_dnn_8-10-10_bear_10_n02133161_1244.png,n02133161_1244.png,1.0,10.473768,9.38142,0.77240676
alexnet2023_baseline_pgd,1,253,NaN,keyboard,keyboard,2-10-10,0253_eid_dnn_2-10-10_keyboard_10_n04505470_4368.png,n04505470_4368.png,1.0,6.401386,4.1816335,1.5696019
alexnet2023_baseline_pgd,1,254,NaN,oven,oven,2-10-10,0254_eid_dnn_2-10-10_oven_10_n04111531_7728.png,n04111531_7728.png,1.0,6.604411,3.8869321,1.9215479
alexnet2023_baseline_pgd,1,255,NaN,oven,clock,8-10-10,0255_eid_dnn_8-10-10_clock_10_n04548280_1.png,n04548280_1.png,0.0,-0.17957191,5.2607603,-3.846896
alexnet2023_baseline_pgd,1,256,NaN,oven,cat,64-10-10,0256_eid_dnn_64-10-10_cat_10_n02123394_3062.png,n02123394_3062.png,0.0,0.8972146,3.8057075,-2.056615
alexnet2023_baseline_pgd,1,257,NaN,elephant,elephant,2-10-10,0257_eid_dnn_2-10-10_elephant_10_n02504013_466.png,n02504013_466.png,1.0,14.085033,3.4947822,7.4884386
alexnet2023_baseline_pgd,1,258,NaN,elephant,elephant,1-10-10,0258_eid_dnn_1-10-10_elephant_10_n02504013_6275.png,n02504013_6275.png,1.0,9.811686,2.939002,4.859721
alexnet2023_baseline_pgd,1,259,NaN,bird,bird,4-10-10,0259_eid_dnn_4-10-10_bird_10_n01560419_5466.png,n01560419_5466.png,1.0,6.541125,3.3263597,2.2731822
alexnet2023_baseline_pgd,1,260,NaN,chair,truck,8-10-10,0260_eid_dnn_8-10-10_truck_10_n03796401_5227.png,n03796401_5227.png,0.0,0.64657265,1.9083304,-0.89219755
alexnet2023_baseline_pgd,1,261,NaN,chair,chair,2-10-10,0261_eid_dnn_2-10-10_chair_10_n04099969_25124.png,n04099969_25124.png,1.0,7.2962418,2.5515912,3.3549747
alexnet2023_baseline_pgd,1,262,NaN,elephant,elephant,64-10-10,0262_eid_dnn_64-10-10_elephant_10_n02504013_7209.png,n02504013_7209.png,1.0,2.9934597,2.1479266,0.5978822
alexnet2023_baseline_pgd,1,263,NaN,cat,cat,1-10-10,0263_eid_dnn_1-10-10_cat_10_n02123597_4756.png,n02123597_4756.png,1.0,4.0363216,3.4415598,0.42056015
alexnet2023_baseline_pgd,1,264,NaN,oven,bicycle,16-10-10,0264_eid_dnn_16-10-10_bicycle_10_n02835271_4654.png,n02835271_4654.png,0.0,1.3885651,3.7919648,-1.6994603
alexnet2023_baseline_pgd,1,265,NaN,keyboard,keyboard,1-10-10,0265_eid_dnn_1-10-10_keyboard_10_n04505470_2389.png,n04505470_2389.png,1.0,12.955528,4.5224724,5.963071
alexnet2023_baseline_pgd,1,266,NaN,airplane,knife,128-10-10,0266_eid_dnn_128-10-10_knife_10_n03041632_379.png,n03041632_379.png,0.0,0.21442918,3.3128371,-2.1909053
alexnet2023_baseline_pgd,1,267,NaN,bicycle,clock,8-10-10,0267_eid_dnn_8-10-10_clock_10_n02708093_899.png,n02708093_899.png,0.0,0.21492235,2.3270316,-1.4934868
alexnet2023_baseline_pgd,1,268,NaN,oven,truck,128-10-10,0268_eid_dnn_128-10-10_truck_10_n03417042_10154.png,n03417042_10154.png,0.0,-2.6233215,3.223562,-4.1343713
alexnet2023_baseline_pgd,1,269,NaN,bottle,bottle,2-10-10,0269_eid_dnn_2-10-10_bottle_10_n04579145_3415.png,n04579145_3415.png,1.0,6.379186,2.0766072,3.0423827
alexnet2023_baseline_pgd,1,270,NaN,elephant,chair,16-10-10,0270_eid_dnn_16-10-10_chair_10_n02791124_146.png,n02791124_146.png,0.0,-0.90268373,2.534972,-2.4307897
alexnet2023_baseline_pgd,1,271,NaN,elephant,elephant,128-10-10,0271_eid_dnn_128-10-10_elephant_10_n02504458_2835.png,n02504458_2835.png,1.0,3.2490063,2.5606775,0.48672193
alexnet2023_baseline_pgd,1,272,NaN,bicycle,bicycle,1-10-10,0272_eid_dnn_1-10-10_bicycle_10_n03792782_13835.png,n03792782_13835.png,1.0,9.082043,2.36475,4.7498436
alexnet2023_baseline_pgd,1,273,NaN,oven,bicycle,32-10-10,0273_eid_dnn_32-10-10_bicycle_10_n02835271_12926.png,n02835271_12926.png,0.0,-1.7403305,3.9695578,-4.037501
alexnet2023_baseline_pgd,1,274,NaN,dog,dog,2-10-10,0274_eid_dnn_2-10-10_dog_10_n02110185_11605.png,n02110185_11605.png,1.0,6.988737,5.406616,1.1187284
alexnet2023_baseline_pgd,1,275,NaN,elephant,elephant,128-10-10,0275_eid_dnn_128-10-10_elephant_10_n02504458_3091.png,n02504458_3091.png,1.0,4.1500635,1.9773303,1.5363544
alexnet2023_baseline_pgd,1,276,NaN,elephant,chair,128-10-10,0276_eid_dnn_128-10-10_chair_10_n04099969_5233.png,n04099969_5233.png,0.0,0.78330845,2.5934744,-1.2799805
alexnet2023_baseline_pgd,1,277,NaN,dog,dog,2-10-10,0277_eid_dnn_2-10-10_dog_10_n02097209_7628.png,n02097209_7628.png,1.0,5.1096034,1.5569172,2.5121286
alexnet2023_baseline_pgd,1,278,NaN,bear,cat,8-10-10,0278_eid_dnn_8-10-10_cat_10_n02123597_10941.png,n02123597_10941.png,0.0,2.6409552,3.4442034,-0.56798226
alexnet2023_baseline_pgd,1,279,NaN,bear,clock,16-10-10,0279_eid_dnn_16-10-10_clock_10_n02708093_3006.png,n02708093_3006.png,0.0,0.02712647,1.5614042,-1.0848982
alexnet2023_baseline_pgd,1,280,NaN,oven,truck,1-10-10,0280_eid_dnn_1-10-10_truck_10_n03796401_26620.png,n03796401_26620.png,0.0,4.0707455,4.522714,-0.31959012
alexnet2023_baseline_pgd,1,281,NaN,oven,bear,128-10-10,0281_eid_dnn_128-10-10_bear_10_n02134418_12733.png,n02134418_12733.png,0.0,2.2445052,4.387,-1.5149727
alexnet2023_baseline_pgd,1,282,NaN,knife,knife,2-10-10,0282_eid_dnn_2-10-10_knife_10_n03041632_4806.png,n03041632_4806.png,1.0,5.150708,2.6681395,1.7554412
alexnet2023_baseline_pgd,1,283,NaN,oven,oven,4-10-10,0283_eid_dnn_4-10-10_oven_10_n04111531_17922.png,n04111531_17922.png,1.0,11.175919,3.3175993,5.556671
alexnet2023_baseline_pgd,1,284,NaN,bottle,bottle,1-10-10,0284_eid_dnn_1-10-10_bottle_10_n04579145_6818.png,n04579145_6818.png,1.0,7.845073,2.9730508,3.4450402
alexnet2023_baseline_pgd,1,285,NaN,keyboard,keyboard,4-10-10,0285_eid_dnn_4-10-10_keyboard_10_n04505470_494.png,n04505470_494.png,1.0,11.189449,2.3529742,6.2483315
alexnet2023_baseline_pgd,1,286,NaN,cat,cat,8-10-10,0286_eid_dnn_8-10-10_cat_10_n02123045_10834.png,n02123045_10834.png,1.0,6.020191,4.7437286,0.90259534
alexnet2023_baseline_pgd,1,287,NaN,oven,cat,128-10-10,0287_eid_dnn_128-10-10_cat_10_n02123394_176.png,n02123394_176.png,0.0,1.500246,2.6159027,-0.7888884
alexnet2023_baseline_pgd,1,288,NaN,elephant,chair,128-10-10,0288_eid_dnn_128-10-10_chair_10_n03376595_2891.png,n03376595_2891.png,0.0,-0.5806184,3.947545,-3.2018952
alexnet2023_baseline_pgd,1,289,NaN,dog,dog,8-10-10,0289_eid_dnn_8-10-10_dog_10_n02093256_5647.png,n02093256_5647.png,1.0,5.8638506,4.9801116,0.62489784
alexnet2023_baseline_pgd,1,290,NaN,airplane,knife,64-10-10,0290_eid_dnn_64-10-10_knife_10_n03041632_33326.png,n03041632_33326.png,0.0,-1.2142154,1.5447222,-1.9508635
alexnet2023_baseline_pgd,1,291,NaN,airplane,airplane,8-10-10,0291_eid_dnn_8-10-10_airplane_10_n02690373_2856.png,n02690373_2856.png,1.0,4.3526974,3.2129614,0.805915
alexnet2023_baseline_pgd,1,292,NaN,elephant,bicycle,128-10-10,0292_eid_dnn_128-10-10_bicycle_10_n03792782_9651.png,n03792782_9651.png,0.0,-0.6177146,2.6026978,-2.2771757
alexnet2023_baseline_pgd,1,293,NaN,bicycle,bicycle,2-10-10,0293_eid_dnn_2-10-10_bicycle_10_n02835271_7438.png,n02835271_7438.png,1.0,8.87592,2.0062165,4.857614
alexnet2023_baseline_pgd,1,294,NaN,elephant,bicycle,128-10-10,0294_eid_dnn_128-10-10_bicycle_10_n02835271_26639.png,n02835271_26639.png,0.0,1.5561776,2.0124831,-0.32265672
alexnet2023_baseline_pgd,1,295,NaN,keyboard,keyboard,8-10-10,0295_eid_dnn_8-10-10_keyboard_10_n04505470_4458.png,n04505470_4458.png,1.0,12.084677,6.894273,3.6701698
alexnet2023_baseline_pgd,1,296,NaN,airplane,dog,64-10-10,0296_eid_dnn_64-10-10_dog_10_n02106662_24847.png,n02106662_24847.png,0.0,-1.5074879,2.9480343,-3.1505299
alexnet2023_baseline_pgd,1,297,NaN,oven,chair,32-10-10,0297_eid_dnn_32-10-10_chair_10_n03376595_8995.png,n03376595_8995.png,0.0,0.6126058,3.5737402,-2.0938382
alexnet2023_baseline_pgd,1,298,NaN,oven,bicycle,64-10-10,0298_eid_dnn_64-10-10_bicycle_10_n03792782_6030.png,n03792782_6030.png,0.0,0.48593536,2.5829253,-1.4827958
alexnet2023_baseline_pgd,1,299,NaN,elephant,elephant,4-10-10,0299_eid_dnn_4-10-10_elephant_10_n02504458_7258.png,n02504458_7258.png,1.0,12.70536,5.602155,5.0227246
alexnet2023_baseline_pgd,1,300,NaN,chair,boat,128-10-10,0300_eid_dnn_128-10-10_boat_10_n03662601_23903.png,n03662601_23903.png,0.0,-1.6815784,1.9723638,-2.5837274
alexnet2023_baseline_pgd,1,301,NaN,airplane,bird,16-10-10,0301_eid_dnn_16-10-10_bird_10_n02002724_578.png,n02002724_578.png,0.0,0.4839635,3.1578865,-1.8907491
alexnet2023_baseline_pgd,1,302,NaN,airplane,chair,64-10-10,0302_eid_dnn_64-10-10_chair_10_n03376595_2393.png,n03376595_2393.png,0.0,0.6548955,2.3640544,-1.2085578
alexnet2023_baseline_pgd,1,303,NaN,airplane,boat,16-10-10,0303_eid_dnn_16-10-10_boat_10_n03662601_5118.png,n03662601_5118.png,0.0,1.8341205,5.260477,-2.4228
alexnet2023_baseline_pgd,1,304,NaN,oven,chair,8-10-10,0304_eid_dnn_8-10-10_chair_10_n04429376_21845.png,n04429376_21845.png,0.0,2.3940349,2.9615407,-0.40128723
alexnet2023_baseline_pgd,1,305,NaN,airplane,dog,8-10-10,0305_eid_dnn_8-10-10_dog_10_n02102040_2216.png,n02102040_2216.png,0.0,1.2688276,4.674312,-2.4080412
alexnet2023_baseline_pgd,1,306,NaN,airplane,airplane,8-10-10,0306_eid_dnn_8-10-10_airplane_10_n02690373_3032.png,n02690373_3032.png,1.0,4.8395624,4.6911783,0.104923405
alexnet2023_baseline_pgd,1,307,NaN,dog,dog,8-10-10,0307_eid_dnn_8-10-10_dog_10_n02100735_2228.png,n02100735_2228.png,1.0,4.530886,4.4949665,0.02539904
alexnet2023_baseline_pgd,1,308,NaN,bird,bird,8-10-10,0308_eid_dnn_8-10-10_bird_10_n01532829_13864.png,n01532829_13864.png,1.0,7.345577,3.255229,2.8923128
alexnet2023_baseline_pgd,1,309,NaN,airplane,bird,64-10-10,0309_eid_dnn_64-10-10_bird_10_n01601694_13787.png,n01601694_13787.png,0.0,0.41199383,1.2858614,-0.61791766
alexnet2023_baseline_pgd,1,310,NaN,airplane,bear,64-10-10,0310_eid_dnn_64-10-10_bear_10_n02134084_22150.png,n02134084_22150.png,0.0,0.5344851,2.9001927,-1.6728079
alexnet2023_baseline_pgd,1,311,NaN,oven,knife,16-10-10,0311_eid_dnn_16-10-10_knife_10_n03041632_29427.png,n03041632_29427.png,0.0,-0.831352,3.7966259,-3.2724745
alexnet2023_baseline_pgd,1,312,NaN,chair,chair,4-10-10,0312_eid_dnn_4-10-10_chair_10_n02791124_2804.png,n02791124_2804.png,1.0,7.3465443,2.5764842,3.372942
alexnet2023_baseline_pgd,1,313,NaN,bottle,bottle,4-10-10,0313_eid_dnn_4-10-10_bottle_10_n04591713_5046.png,n04591713_5046.png,1.0,10.306596,4.173649,4.3366485
alexnet2023_baseline_pgd,1,314,NaN,elephant,bicycle,128-10-10,0314_eid_dnn_128-10-10_bicycle_10_n03792782_4210.png,n03792782_4210.png,0.0,1.8395059,6.071438,-2.9924276
alexnet2023_baseline_pgd,1,315,NaN,elephant,cat,128-10-10,0315_eid_dnn_128-10-10_cat_10_n02123159_1596.png,n02123159_1596.png,0.0,1.1987749,3.9053164,-1.913814
alexnet2023_baseline_pgd,1,316,NaN,car,car,2-10-10,0316_eid_dnn_2-10-10_car_10_n03100240_17588.png,n03100240_17588.png,1.0,11.762015,6.533853,3.6968691
alexnet2023_baseline_pgd,1,317,NaN,dog,keyboard,4-10-10,0317_eid_dnn_4-10-10_keyboard_10_n03085013_23295.png,n03085013_23295.png,0.0,-1.4528072,5.252281,-4.741214
alexnet2023_baseline_pgd,1,318,NaN,oven,oven,32-10-10,0318_eid_dnn_32-10-10_oven_10_n04111531_4879.png,n04111531_4879.png,1.0,4.4905963,3.0048156,1.0506057
alexnet2023_baseline_pgd,1,319,NaN,oven,keyboard,32-10-10,0319_eid_dnn_32-10-10_keyboard_10_n04505470_4569.png,n04505470_4569.png,0.0,-2.7425091,5.951062,-6.147283
alexnet2023_baseline_pgd,1,320,NaN,oven,truck,8-10-10,0320_eid_dnn_8-10-10_truck_10_n04467665_24190.png,n04467665_24190.png,0.0,-0.95665896,5.968893,-4.8971047
alexnet2023_baseline_pgd,1,321,NaN,cat,cat,4-10-10,0321_eid_dnn_4-10-10_cat_10_n02124075_15405.png,n02124075_15405.png,1.0,4.619522,3.359879,0.8907022
alexnet2023_baseline_pgd,1,322,NaN,knife,knife,8-10-10,0322_eid_dnn_8-10-10_knife_10_n03041632_24817.png,n03041632_24817.png,1.0,3.9239788,2.0162961,1.3489354
alexnet2023_baseline_pgd,1,323,NaN,elephant,elephant,64-10-10,0323_eid_dnn_64-10-10_elephant_10_n02504013_5505.png,n02504013_5505.png,1.0,5.159627,1.7071267,2.4412866
alexnet2023_baseline_pgd,1,324,NaN,airplane,airplane,8-10-10,0324_eid_dnn_8-10-10_airplane_10_n02690373_8846.png,n02690373_8846.png,1.0,5.324143,4.2543707,0.7564432
alexnet2023_baseline_pgd,1,325,NaN,airplane,truck,32-10-10,0325_eid_dnn_32-10-10_truck_10_n04467665_50806.png,n04467665_50806.png,0.0,0.5593722,3.6755443,-2.2034664
alexnet2023_baseline_pgd,1,326,NaN,elephant,elephant,4-10-10,0326_eid_dnn_4-10-10_elephant_10_n02504458_5539.png,n02504458_5539.png,1.0,20.757263,6.0422754,10.405067
alexnet2023_baseline_pgd,1,327,NaN,boat,boat,1-10-10,0327_eid_dnn_1-10-10_boat_10_n03344393_1178.png,n03344393_1178.png,1.0,6.4960046,4.808322,1.1933719
alexnet2023_baseline_pgd,1,328,NaN,truck,truck,4-10-10,0328_eid_dnn_4-10-10_truck_10_n04467665_10025.png,n04467665_10025.png,1.0,10.45138,6.985046,2.4510682
alexnet2023_baseline_pgd,1,329,NaN,clock,clock,4-10-10,0329_eid_dnn_4-10-10_clock_10_n02708093_2869.png,n02708093_2869.png,1.0,8.787637,2.7372549,4.278266
alexnet2023_baseline_pgd,1,330,NaN,oven,bottle,8-10-10,0330_eid_dnn_8-10-10_bottle_10_n03983396_4879.png,n03983396_4879.png,0.0,1.4762075,2.1467426,-0.47413993
alexnet2023_baseline_pgd,1,331,NaN,elephant,keyboard,128-10-10,0331_eid_dnn_128-10-10_keyboard_10_n03085013_10367.png,n03085013_10367.png,0.0,-2.6664479,1.2041942,-2.7369573
alexnet2023_baseline_pgd,1,332,NaN,oven,bird,64-10-10,0332_eid_dnn_64-10-10_bird_10_n01860187_21300.png,n01860187_21300.png,0.0,-0.30922237,3.0944414,-2.4067538
alexnet2023_baseline_pgd,1,333,NaN,oven,knife,32-10-10,0333_eid_dnn_32-10-10_knife_10_n03041632_5302.png,n03041632_5302.png,0.0,1.2596489,2.5598993,-0.9194159
alexnet2023_baseline_pgd,1,334,NaN,bear,bear,4-10-10,0334_eid_dnn_4-10-10_bear_10_n02134084_5274.png,n02134084_5274.png,1.0,6.5717926,5.6157603,0.6760169
alexnet2023_baseline_pgd,1,335,NaN,knife,knife,4-10-10,0335_eid_dnn_4-10-10_knife_10_n03041632_48816.png,n03041632_48816.png,1.0,4.576733,4.1275206,0.31764126
alexnet2023_baseline_pgd,1,336,NaN,oven,elephant,16-10-10,0336_eid_dnn_16-10-10_elephant_10_n02504013_3295.png,n02504013_3295.png,0.0,2.69236,2.889933,-0.13970535
alexnet2023_baseline_pgd,1,337,NaN,bottle,truck,128-10-10,0337_eid_dnn_128-10-10_truck_10_n03417042_2478.png,n03417042_2478.png,0.0,-1.909246,2.1499097,-2.8702564
alexnet2023_baseline_pgd,1,338,NaN,elephant,oven,32-10-10,0338_eid_dnn_32-10-10_oven_10_n04111531_5350.png,n04111531_5350.png,0.0,2.0808568,2.7153397,-0.44864714
alexnet2023_baseline_pgd,1,339,NaN,oven,airplane,8-10-10,0339_eid_dnn_8-10-10_airplane_10_n02690373_1663.png,n02690373_1663.png,0.0,4.142481,4.824302,-0.4821205
alexnet2023_baseline_pgd,1,340,NaN,boat,boat,4-10-10,0340_eid_dnn_4-10-10_boat_10_n03344393_1422.png,n03344393_1422.png,1.0,8.680346,5.079183,2.5464065
alexnet2023_baseline_pgd,1,341,NaN,elephant,cat,32-10-10,0341_eid_dnn_32-10-10_cat_10_n02123159_3312.png,n02123159_3312.png,0.0,2.7575896,4.0330505,-0.9018871
alexnet2023_baseline_pgd,1,342,NaN,elephant,chair,64-10-10,0342_eid_dnn_64-10-10_chair_10_n03376595_6171.png,n03376595_6171.png,0.0,-0.57723355,1.5837142,-1.5280209
alexnet2023_baseline_pgd,1,343,NaN,bear,bottle,8-10-10,0343_eid_dnn_8-10-10_bottle_10_n04591713_1616.png,n04591713_1616.png,0.0,1.0523837,2.3844965,-0.941946
alexnet2023_baseline_pgd,1,344,NaN,elephant,bear,128-10-10,0344_eid_dnn_128-10-10_bear_10_n02133161_1197.png,n02133161_1197.png,0.0,0.92925656,0.95191276,-0.016020354
alexnet2023_baseline_pgd,1,345,NaN,oven,truck,4-10-10,0345_eid_dnn_4-10-10_truck_10_n04467665_663.png,n04467665_663.png,0.0,3.3484845,5.853629,-1.7714047
alexnet2023_baseline_pgd,1,346,NaN,bear,bear,4-10-10,0346_eid_dnn_4-10-10_bear_10_n02132136_2771.png,n02132136_2771.png,1.0,17.56728,7.488612,7.126694
alexnet2023_baseline_pgd,1,347,NaN,airplane,cat,16-10-10,0347_eid_dnn_16-10-10_cat_10_n02123394_12.png,n02123394_12.png,0.0,0.87394625,5.212809,-3.0680394
alexnet2023_baseline_pgd,1,348,NaN,bicycle,car,8-10-10,0348_eid_dnn_8-10-10_car_10_n04285008_1795.png,n04285008_1795.png,0.0,2.6124418,4.106533,-1.0564821
alexnet2023_baseline_pgd,1,349,NaN,airplane,boat,4-10-10,0349_eid_dnn_4-10-10_boat_10_n04273569_1023.png,n04273569_1023.png,0.0,4.5676885,4.662173,-0.06681051
alexnet2023_baseline_pgd,1,350,NaN,boat,boat,1-10-10,0350_eid_dnn_1-10-10_boat_10_n03662601_21775.png,n03662601_21775.png,1.0,13.80007,7.376491,4.542156
alexnet2023_baseline_pgd,1,351,NaN,clock,clock,1-10-10,0351_eid_dnn_1-10-10_clock_10_n03196217_71.png,n03196217_71.png,1.0,6.419127,5.2022142,0.8604873
alexnet2023_baseline_pgd,1,352,NaN,keyboard,keyboard,4-10-10,0352_eid_dnn_4-10-10_keyboard_10_n04505470_3122.png,n04505470_3122.png,1.0,3.2168002,3.2056737,0.007867637
alexnet2023_baseline_pgd,1,353,NaN,oven,dog,32-10-10,0353_eid_dnn_32-10-10_dog_10_n02099849_4640.png,n02099849_4640.png,0.0,-0.044731025,3.0593731,-2.1949332
alexnet2023_baseline_pgd,1,354,NaN,elephant,bottle,64-10-10,0354_eid_dnn_64-10-10_bottle_10_n02823428_6418.png,n02823428_6418.png,0.0,1.4291327,2.9888625,-1.1028955
alexnet2023_baseline_pgd,1,355,NaN,oven,car,8-10-10,0355_eid_dnn_8-10-10_car_10_n04285008_11704.png,n04285008_11704.png,0.0,2.3755515,4.0769653,-1.2030813
alexnet2023_baseline_pgd,1,356,NaN,clock,clock,32-10-10,0356_eid_dnn_32-10-10_clock_10_n02708093_3544.png,n02708093_3544.png,1.0,2.8133736,1.66089,0.81492895
alexnet2023_baseline_pgd,1,357,NaN,bear,clock,8-10-10,0357_eid_dnn_8-10-10_clock_10_n04548280_4599.png,n04548280_4599.png,0.0,-2.5955489,0.9106897,-2.479285
alexnet2023_baseline_pgd,1,358,NaN,oven,car,128-10-10,0358_eid_dnn_128-10-10_car_10_n03100240_6259.png,n03100240_6259.png,0.0,-3.5903924,3.1315093,-4.7531023
alexnet2023_baseline_pgd,1,359,NaN,boat,boat,8-10-10,0359_eid_dnn_8-10-10_boat_10_n04273569_3401.png,n04273569_3401.png,1.0,7.0930147,3.2836232,2.6936467
alexnet2023_baseline_pgd,1,360,NaN,elephant,truck,64-10-10,0360_eid_dnn_64-10-10_truck_10_n04467665_13898.png,n04467665_13898.png,0.0,-0.9251797,3.337299,-3.0140278
alexnet2023_baseline_pgd,1,361,NaN,truck,clock,2-10-10,0361_eid_dnn_2-10-10_clock_10_n03196217_1499.png,n03196217_1499.png,0.0,6.4118886,7.6855288,-0.9005996
alexnet2023_baseline_pgd,1,362,NaN,car,car,4-10-10,0362_eid_dnn_4-10-10_car_10_n03100240_8702.png,n03100240_8702.png,1.0,5.387914,4.9973545,0.2761674
alexnet2023_baseline_pgd,1,363,NaN,elephant,bear,4-10-10,0363_eid_dnn_4-10-10_bear_10_n02134418_1770.png,n02134418_1770.png,0.0,5.122879,6.136345,-0.7166286
alexnet2023_baseline_pgd,1,364,NaN,bear,bear,16-10-10,0364_eid_dnn_16-10-10_bear_10_n02132136_32838.png,n02132136_32838.png,1.0,8.283897,8.249472,0.024342671
alexnet2023_baseline_pgd,1,365,NaN,boat,truck,4-10-10,0365_eid_dnn_4-10-10_truck_10_n04467665_68331.png,n04467665_68331.png,0.0,3.856086,4.6608267,-0.5690376
alexnet2023_baseline_pgd,1,366,NaN,airplane,airplane,1-10-10,0366_eid_dnn_1-10-10_airplane_10_n02690373_4506.png,n02690373_4506.png,1.0,21.279837,5.033099,11.488179
alexnet2023_baseline_pgd,1,367,NaN,car,car,2-10-10,0367_eid_dnn_2-10-10_car_10_n03100240_5308.png,n03100240_5308.png,1.0,12.656629,8.337406,3.0541515
alexnet2023_baseline_pgd,1,368,NaN,oven,cat,2-10-10,0368_eid_dnn_2-10-10_cat_10_n02124075_15345.png,n02124075_15345.png,0.0,1.633965,1.9132258,-0.19746718
alexnet2023_baseline_pgd,1,369,NaN,bicycle,bicycle,128-10-10,0369_eid_dnn_128-10-10_bicycle_10_n03792782_50972.png,n03792782_50972.png,1.0,2.4303267,1.2847933,0.8100145
alexnet2023_baseline_pgd,1,370,NaN,knife,knife,8-10-10,0370_eid_dnn_8-10-10_knife_10_n03041632_19098.png,n03041632_19098.png,1.0,1.8603132,1.6200231,0.16991073
alexnet2023_baseline_pgd,1,371,NaN,oven,bottle,128-10-10,0371_eid_dnn_128-10-10_bottle_10_n04560804_15963.png,n04560804_15963.png,0.0,0.96772325,4.0121713,-2.1527498
alexnet2023_baseline_pgd,1,372,NaN,bear,bottle,8-10-10,0372_eid_dnn_8-10-10_bottle_10_n04557648_7809.png,n04557648_7809.png,0.0,-0.680251,1.9447082,-1.8561265
alexnet2023_baseline_pgd,1,373,NaN,airplane,airplane,1-10-10,0373_eid_dnn_1-10-10_airplane_10_n02690373_17764.png,n02690373_17764.png,1.0,18.431492,4.748748,9.675161
alexnet2023_baseline_pgd,1,374,NaN,oven,elephant,64-10-10,0374_eid_dnn_64-10-10_elephant_10_n02504013_7322.png,n02504013_7322.png,0.0,0.2899763,2.671896,-1.6842716
alexnet2023_baseline_pgd,1,375,NaN,bear,bear,2-10-10,0375_eid_dnn_2-10-10_bear_10_n02134084_2959.png,n02134084_2959.png,1.0,4.4712257,4.263404,0.14695224
alexnet2023_baseline_pgd,1,376,NaN,elephant,bird,2-10-10,0376_eid_dnn_2-10-10_bird_10_n01622779_6563.png,n01622779_6563.png,0.0,3.679715,5.5218043,-1.3025539
alexnet2023_baseline_pgd,1,377,NaN,knife,knife,16-10-10,0377_eid_dnn_16-10-10_knife_10_n03041632_19620.png,n03041632_19620.png,1.0,2.531471,2.4512022,0.056758657
alexnet2023_baseline_pgd,1,378,NaN,bird,bird,4-10-10,0378_eid_dnn_4-10-10_bird_10_n01530575_35977.png,n01530575_35977.png,1.0,7.0630755,3.1564064,2.7624323
alexnet2023_baseline_pgd,1,379,NaN,airplane,cat,128-10-10,0379_eid_dnn_128-10-10_cat_10_n02123394_1757.png,n02123394_1757.png,0.0,-1.5483737,3.08844,-3.2787225
alexnet2023_baseline_pgd,1,380,NaN,oven,dog,2-10-10,0380_eid_dnn_2-10-10_dog_10_n02093647_6358.png,n02093647_6358.png,0.0,1.3341651,2.3179417,-0.6956351
alexnet2023_baseline_pgd,1,381,NaN,boat,boat,1-10-10,0381_eid_dnn_1-10-10_boat_10_n02951358_1470.png,n02951358_1470.png,1.0,5.0781307,2.3282816,1.9444369
alexnet2023_baseline_pgd,1,382,NaN,airplane,elephant,128-10-10,0382_eid_dnn_128-10-10_elephant_10_n02504458_2026.png,n02504458_2026.png,0.0,0.9411522,4.240902,-2.3332756
alexnet2023_baseline_pgd,1,383,NaN,elephant,elephant,32-10-10,0383_eid_dnn_32-10-10_elephant_10_n02504458_3730.png,n02504458_3730.png,1.0,2.4649029,2.4140885,0.0359312
alexnet2023_baseline_pgd,1,384,NaN,keyboard,keyboard,8-10-10,0384_eid_dnn_8-10-10_keyboard_10_n03085013_20881.png,n03085013_20881.png,1.0,3.6358542,3.5252814,0.07818679
alexnet2023_baseline_pgd,1,385,NaN,dog,dog,4-10-10,0385_eid_dnn_4-10-10_dog_10_n02105641_8188.png,n02105641_8188.png,1.0,4.9012613,3.987015,0.6464698
alexnet2023_baseline_pgd,1,386,NaN,elephant,clock,32-10-10,0386_eid_dnn_32-10-10_clock_10_n03196217_6320.png,n03196217_6320.png,0.0,0.36113515,1.0132543,-0.4611179
alexnet2023_baseline_pgd,1,387,NaN,oven,car,32-10-10,0387_eid_dnn_32-10-10_car_10_n04285008_12333.png,n04285008_12333.png,0.0,-2.4833107,3.6915627,-4.366295
alexnet2023_baseline_pgd,1,388,NaN,knife,knife,2-10-10,0388_eid_dnn_2-10-10_knife_10_n03041632_47743.png,n03041632_47743.png,1.0,6.4045057,2.1372218,3.0174255
alexnet2023_baseline_pgd,1,389,NaN,boat,boat,8-10-10,0389_eid_dnn_8-10-10_boat_10_n04612504_8073.png,n04612504_8073.png,1.0,4.464586,1.1245661,2.3617506
alexnet2023_baseline_pgd,1,390,NaN,oven,knife,128-10-10,0390_eid_dnn_128-10-10_knife_10_n03041632_20770.png,n03041632_20770.png,0.0,1.5122566,6.89436,-3.805722
alexnet2023_baseline_pgd,1,391,NaN,oven,car,32-10-10,0391_eid_dnn_32-10-10_car_10_n02814533_28783.png,n02814533_28783.png,0.0,-1.7931229,7.8170366,-6.795409
alexnet2023_baseline_pgd,1,392,NaN,airplane,car,128-10-10,0392_eid_dnn_128-10-10_car_10_n02814533_13533.png,n02814533_13533.png,0.0,-0.5605681,2.2368445,-1.9780694
alexnet2023_baseline_pgd,1,393,NaN,dog,dog,16-10-10,0393_eid_dnn_16-10-10_dog_10_n02104029_8137.png,n02104029_8137.png,1.0,4.811468,2.0124779,1.979185
alexnet2023_baseline_pgd,1,394,NaN,bicycle,bicycle,4-10-10,0394_eid_dnn_4-10-10_bicycle_10_n02835271_3990.png,n02835271_3990.png,1.0,8.264655,5.548384,1.9206936
alexnet2023_baseline_pgd,1,395,NaN,bear,bear,4-10-10,0395_eid_dnn_4-10-10_bear_10_n02132136_24311.png,n02132136_24311.png,1.0,8.799627,8.110073,0.48758847
alexnet2023_baseline_pgd,1,396,NaN,truck,truck,2-10-10,0396_eid_dnn_2-10-10_truck_10_n03796401_6966.png,n03796401_6966.png,1.0,15.82119,8.964436,4.8484573
alexnet2023_baseline_pgd,1,397,NaN,knife,knife,1-10-10,0397_eid_dnn_1-10-10_knife_10_n03041632_8468.png,n03041632_8468.png,1.0,5.7575035,2.198456,2.5166266
alexnet2023_baseline_pgd,1,398,NaN,elephant,elephant,128-10-10,0398_eid_dnn_128-10-10_elephant_10_n02504458_6799.png,n02504458_6799.png,1.0,2.0545123,1.8027736,0.17800613
alexnet2023_baseline_pgd,1,399,NaN,bird,keyboard,16-10-10,0399_eid_dnn_16-10-10_keyboard_10_n03085013_24402.png,n03085013_24402.png,0.0,-6.2164354,6.35214,-8.887324
alexnet2023_baseline_pgd,1,400,NaN,knife,knife,16-10-10,0400_eid_dnn_16-10-10_knife_10_n03041632_25772.png,n03041632_25772.png,1.0,2.1847465,1.6653131,0.36729488
alexnet2023_baseline_pgd,1,401,NaN,elephant,elephant,32-10-10,0401_eid_dnn_32-10-10_elephant_10_n02504458_5839.png,n02504458_5839.png,1.0,3.5251112,2.8636842,0.46769953
alexnet2023_baseline_pgd,1,402,NaN,elephant,elephant,64-10-10,0402_eid_dnn_64-10-10_elephant_10_n02504458_5178.png,n02504458_5178.png,1.0,2.9382787,2.1526594,0.5555167
alexnet2023_baseline_pgd,1,403,NaN,airplane,bicycle,32-10-10,0403_eid_dnn_32-10-10_bicycle_10_n02835271_27014.png,n02835271_27014.png,0.0,0.7626547,2.5587595,-1.2700378
alexnet2023_baseline_pgd,1,404,NaN,elephant,car,128-10-10,0404_eid_dnn_128-10-10_car_10_n04285008_15218.png,n04285008_15218.png,0.0,-1.8017527,3.0728889,-3.446892
alexnet2023_baseline_pgd,1,405,NaN,bicycle,bicycle,8-10-10,0405_eid_dnn_8-10-10_bicycle_10_n02835271_19955.png,n02835271_19955.png,1.0,4.4650583,3.295446,0.82704085
alexnet2023_baseline_pgd,1,406,NaN,truck,truck,1-10-10,0406_eid_dnn_1-10-10_truck_10_n03796401_874.png,n03796401_874.png,1.0,14.360591,10.85925,2.475822
alexnet2023_baseline_pgd,1,407,NaN,dog,dog,2-10-10,0407_eid_dnn_2-10-10_dog_10_n02108915_6092.png,n02108915_6092.png,1.0,8.717355,4.3777595,3.0685573
alexnet2023_baseline_pgd,1,408,NaN,oven,clock,16-10-10,0408_eid_dnn_16-10-10_clock_10_n04548280_6337.png,n04548280_6337.png,0.0,-0.9603656,5.7692013,-4.7585225
alexnet2023_baseline_pgd,1,409,NaN,bear,boat,4-10-10,0409_eid_dnn_4-10-10_boat_10_n04273569_1388.png,n04273569_1388.png,0.0,2.864439,3.7757015,-0.6443599
alexnet2023_baseline_pgd,1,410,NaN,oven,clock,64-10-10,0410_eid_dnn_64-10-10_clock_10_n02708093_2676.png,n02708093_2676.png,0.0,0.6312074,3.620828,-2.113981
alexnet2023_baseline_pgd,1,411,NaN,dog,dog,64-10-10,0411_eid_dnn_64-10-10_dog_10_n02107683_5424.png,n02107683_5424.png,1.0,2.2194805,1.9477139,0.19216806
alexnet2023_baseline_pgd,1,412,NaN,chair,chair,1-10-10,0412_eid_dnn_1-10-10_chair_10_n04099969_29038.png,n04099969_29038.png,1.0,6.5337048,3.7031226,2.001524
alexnet2023_baseline_pgd,1,413,NaN,oven,clock,16-10-10,0413_eid_dnn_16-10-10_clock_10_n04548280_3219.png,n04548280_3219.png,0.0,0.42709568,4.7810287,-3.0786955
alexnet2023_baseline_pgd,1,414,NaN,knife,clock,32-10-10,0414_eid_dnn_32-10-10_clock_10_n03196217_8282.png,n03196217_8282.png,0.0,1.023902,4.3454957,-2.3487215
alexnet2023_baseline_pgd,1,415,NaN,oven,oven,8-10-10,0415_eid_dnn_8-10-10_oven_10_n04111531_22041.png,n04111531_22041.png,1.0,5.338843,2.700233,1.8657789
alexnet2023_baseline_pgd,1,416,NaN,bear,bear,8-10-10,0416_eid_dnn_8-10-10_bear_10_n02134084_6964.png,n02134084_6964.png,1.0,6.215885,3.2229564,2.1163201
alexnet2023_baseline_pgd,1,417,NaN,elephant,bicycle,64-10-10,0417_eid_dnn_64-10-10_bicycle_10_n03792782_11921.png,n03792782_11921.png,0.0,-1.061839,4.2572455,-3.7611609
alexnet2023_baseline_pgd,1,418,NaN,knife,clock,8-10-10,0418_eid_dnn_8-10-10_clock_10_n04548280_1809.png,n04548280_1809.png,0.0,1.3583254,2.5305843,-0.82891226
alexnet2023_baseline_pgd,1,419,NaN,bird,bird,4-10-10,0419_eid_dnn_4-10-10_bird_10_n01833805_202.png,n01833805_202.png,1.0,8.644417,1.475568,5.069142
alexnet2023_baseline_pgd,1,420,NaN,bear,keyboard,64-10-10,0420_eid_dnn_64-10-10_keyboard_10_n03085013_7511.png,n03085013_7511.png,0.0,-1.1044126,2.482236,-2.5361435
alexnet2023_baseline_pgd,1,421,NaN,bicycle,bird,1-10-10,0421_eid_dnn_1-10-10_bird_10_n02025239_5287.png,n02025239_5287.png,0.0,2.12735,2.6071053,-0.33923814
alexnet2023_baseline_pgd,1,422,NaN,elephant,boat,64-10-10,0422_eid_dnn_64-10-10_boat_10_n03662601_27960.png,n03662601_27960.png,0.0,-1.8232628,1.7560481,-2.530955
alexnet2023_baseline_pgd,1,423,NaN,elephant,bottle,1-10-10,0423_eid_dnn_1-10-10_bottle_10_n04591713_6855.png,n04591713_6855.png,0.0,-2.4418557,6.3633003,-6.2261853
alexnet2023_baseline_pgd,1,424,NaN,elephant,elephant,128-10-10,0424_eid_dnn_128-10-10_elephant_10_n02504013_4424.png,n02504013_4424.png,1.0,5.423462,2.4553638,2.0987623
alexnet2023_baseline_pgd,1,425,NaN,knife,clock,2-10-10,0425_eid_dnn_2-10-10_clock_10_n04548280_3295.png,n04548280_3295.png,0.0,5.4993386,5.9375024,-0.30982858
alexnet2023_baseline_pgd,1,426,NaN,airplane,airplane,1-10-10,0426_eid_dnn_1-10-10_airplane_10_n02690373_6144.png,n02690373_6144.png,1.0,21.819328,4.9256353,11.945644
alexnet2023_baseline_pgd,1,427,NaN,elephant,truck,32-10-10,0427_eid_dnn_32-10-10_truck_10_n04467665_70894.png,n04467665_70894.png,0.0,0.17810565,4.059842,-2.7448022
alexnet2023_baseline_pgd,1,428,NaN,cat,boat,128-10-10,0428_eid_dnn_128-10-10_boat_10_n02951358_30474.png,n02951358_30474.png,0.0,-0.5801696,0.97391087,-1.0989009
alexnet2023_baseline_pgd,1,429,NaN,bear,bear,4-10-10,0429_eid_dnn_4-10-10_bear_10_n02132136_6434.png,n02132136_6434.png,1.0,8.648654,5.041154,2.5508878
alexnet2023_baseline_pgd,1,430,NaN,oven,keyboard,32-10-10,0430_eid_dnn_32-10-10_keyboard_10_n04505470_5009.png,n04505470_5009.png,0.0,-1.845032,3.855977,-4.031222
alexnet2023_baseline_pgd,1,431,NaN,keyboard,keyboard,2-10-10,0431_eid_dnn_2-10-10_keyboard_10_n03085013_13005.png,n03085013_13005.png,1.0,17.16679,6.2820454,7.6966767
alexnet2023_baseline_pgd,1,432,NaN,chair,chair,1-10-10,0432_eid_dnn_1-10-10_chair_10_n03376595_6865.png,n03376595_6865.png,1.0,6.6485043,3.6073728,2.1504047
alexnet2023_baseline_pgd,1,433,NaN,oven,bicycle,32-10-10,0433_eid_dnn_32-10-10_bicycle_10_n02835271_6122.png,n02835271_6122.png,0.0,-0.8401961,2.8377583,-2.6007066
alexnet2023_baseline_pgd,1,434,NaN,oven,oven,4-10-10,0434_eid_dnn_4-10-10_oven_10_n04111531_11499.png,n04111531_11499.png,1.0,4.53312,2.0143213,1.7810597
alexnet2023_baseline_pgd,1,435,NaN,bird,bird,1-10-10,0435_eid_dnn_1-10-10_bird_10_n02009229_5765.png,n02009229_5765.png,1.0,9.357276,5.474511,2.7455294
alexnet2023_baseline_pgd,1,436,NaN,elephant,bottle,32-10-10,0436_eid_dnn_32-10-10_bottle_10_n04560804_2181.png,n04560804_2181.png,0.0,-0.03294284,2.3502986,-1.6852062
alexnet2023_baseline_pgd,1,437,NaN,elephant,bicycle,32-10-10,0437_eid_dnn_32-10-10_bicycle_10_n03792782_3774.png,n03792782_3774.png,0.0,1.7685257,3.0070307,-0.8757553
alexnet2023_baseline_pgd,1,438,NaN,elephant,bird,16-10-10,0438_eid_dnn_16-10-10_bird_10_n01614925_1683.png,n01614925_1683.png,0.0,2.4348845,4.3394494,-1.3467307
alexnet2023_baseline_pgd,1,439,NaN,bear,clock,8-10-10,0439_eid_dnn_8-10-10_clock_10_n02708093_4692.png,n02708093_4692.png,0.0,2.365002,3.8077874,-1.0202035
alexnet2023_baseline_pgd,1,440,NaN,dog,dog,4-10-10,0440_eid_dnn_4-10-10_dog_10_n02109961_71298.png,n02109961_71298.png,1.0,7.036648,2.9193566,2.9113648
alexnet2023_baseline_pgd,1,441,NaN,keyboard,keyboard,2-10-10,0441_eid_dnn_2-10-10_keyboard_10_n03085013_23269.png,n03085013_23269.png,1.0,7.0404854,1.9240694,3.6178524
alexnet2023_baseline_pgd,1,442,NaN,elephant,elephant,2-10-10,0442_eid_dnn_2-10-10_elephant_10_n02504458_5614.png,n02504458_5614.png,1.0,9.605301,1.7733533,5.538023
alexnet2023_baseline_pgd,1,443,NaN,truck,car,2-10-10,0443_eid_dnn_2-10-10_car_10_n04285008_4640.png,n04285008_4640.png,0.0,4.9677806,6.9870176,-1.4278163
alexnet2023_baseline_pgd,1,444,NaN,oven,oven,128-10-10,0444_eid_dnn_128-10-10_oven_10_n04111531_6346.png,n04111531_6346.png,1.0,1.6252534,1.2529342,0.26326945
alexnet2023_baseline_pgd,1,445,NaN,chair,chair,2-10-10,0445_eid_dnn_2-10-10_chair_10_n04099969_14851.png,n04099969_14851.png,1.0,12.074688,0.98237425,7.8434505
alexnet2023_baseline_pgd,1,446,NaN,oven,bird,64-10-10,0446_eid_dnn_64-10-10_bird_10_n02051845_534.png,n02051845_534.png,0.0,-1.0926883,2.731418,-2.7040515
alexnet2023_baseline_pgd,1,447,NaN,elephant,bird,128-10-10,0447_eid_dnn_128-10-10_bird_10_n02056570_9342.png,n02056570_9342.png,0.0,-0.6526217,3.3414488,-2.8242345
alexnet2023_baseline_pgd,1,448,NaN,oven,oven,16-10-10,0448_eid_dnn_16-10-10_oven_10_n04111531_4900.png,n04111531_4900.png,1.0,8.900249,1.8841314,4.961144
alexnet2023_baseline_pgd,1,449,NaN,elephant,boat,32-10-10,0449_eid_dnn_32-10-10_boat_10_n02951358_31973.png,n02951358_31973.png,0.0,0.9277361,2.6358557,-1.207823
alexnet2023_baseline_pgd,1,450,NaN,knife,keyboard,4-10-10,0450_eid_dnn_4-10-10_keyboard_10_n03085013_19842.png,n03085013_19842.png,0.0,1.8802853,2.753262,-0.6172878
alexnet2023_baseline_pgd,1,451,NaN,keyboard,keyboard,8-10-10,0451_eid_dnn_8-10-10_keyboard_10_n03085013_8296.png,n03085013_8296.png,1.0,2.6368134,1.6237495,0.71634436
alexnet2023_baseline_pgd,1,452,NaN,oven,car,16-10-10,0452_eid_dnn_16-10-10_car_10_n03100240_3528.png,n03100240_3528.png,0.0,-1.5291891,4.044244,-3.9410124
alexnet2023_baseline_pgd,1,453,NaN,cat,cat,8-10-10,0453_eid_dnn_8-10-10_cat_10_n02123159_7210.png,n02123159_7210.png,1.0,6.1451535,4.760465,0.9791226
alexnet2023_baseline_pgd,1,454,NaN,knife,knife,16-10-10,0454_eid_dnn_16-10-10_knife_10_n03041632_56172.png,n03041632_56172.png,1.0,5.917556,1.8148519,2.9010499
alexnet2023_baseline_pgd,1,455,NaN,oven,oven,4-10-10,0455_eid_dnn_4-10-10_oven_10_n04111531_2116.png,n04111531_2116.png,1.0,12.734664,1.4442888,7.9835005
alexnet2023_baseline_pgd,1,456,NaN,bicycle,bicycle,8-10-10,0456_eid_dnn_8-10-10_bicycle_10_n02835271_12477.png,n02835271_12477.png,1.0,5.863594,3.8399405,1.4309392
alexnet2023_baseline_pgd,1,457,NaN,knife,knife,2-10-10,0457_eid_dnn_2-10-10_knife_10_n03041632_42472.png,n03041632_42472.png,1.0,16.72291,4.255488,8.815799
alexnet2023_baseline_pgd,1,458,NaN,oven,oven,2-10-10,0458_eid_dnn_2-10-10_oven_10_n04111531_8818.png,n04111531_8818.png,1.0,6.402281,3.582218,1.9940857
alexnet2023_baseline_pgd,1,459,NaN,airplane,truck,2-10-10,0459_eid_dnn_2-10-10_truck_10_n04467665_67115.png,n04467665_67115.png,0.0,4.5146637,4.789666,-0.19445612
alexnet2023_baseline_pgd,1,460,NaN,bird,bird,4-10-10,0460_eid_dnn_4-10-10_bird_10_n02011460_3521.png,n02011460_3521.png,1.0,6.1937494,-1.2904717,5.2921433
alexnet2023_baseline_pgd,1,461,NaN,airplane,bear,64-10-10,0461_eid_dnn_64-10-10_bear_10_n02133161_3533.png,n02133161_3533.png,0.0,1.2483603,3.1938567,-1.3756738
alexnet2023_baseline_pgd,1,462,NaN,bird,bird,8-10-10,0462_eid_dnn_8-10-10_bird_10_n02013706_637.png,n02013706_637.png,1.0,3.664053,2.2014608,1.0342088
alexnet2023_baseline_pgd,1,463,NaN,oven,bear,64-10-10,0463_eid_dnn_64-10-10_bear_10_n02132136_29636.png,n02132136_29636.png,0.0,3.063795,4.2998047,-0.8739908
alexnet2023_baseline_pgd,1,464,NaN,bicycle,bicycle,2-10-10,0464_eid_dnn_2-10-10_bicycle_10_n02835271_634.png,n02835271_634.png,1.0,8.749214,1.6268609,5.0362644
alexnet2023_baseline_pgd,1,465,NaN,chair,keyboard,1-10-10,0465_eid_dnn_1-10-10_keyboard_10_n04505470_4621.png,n04505470_4621.png,0.0,2.6850274,2.8465161,-0.1141898
alexnet2023_baseline_pgd,1,466,NaN,airplane,bear,16-10-10,0466_eid_dnn_16-10-10_bear_10_n02134084_2844.png,n02134084_2844.png,0.0,1.7296668,4.2228923,-1.7629768
alexnet2023_baseline_pgd,1,467,NaN,bicycle,bicycle,4-10-10,0467_eid_dnn_4-10-10_bicycle_10_n03792782_17088.png,n03792782_17088.png,1.0,9.704447,2.3659,5.189136
alexnet2023_baseline_pgd,1,468,NaN,keyboard,clock,4-10-10,0468_eid_dnn_4-10-10_clock_10_n03196217_8706.png,n03196217_8706.png,0.0,0.8425459,2.0420961,-0.84821004
alexnet2023_baseline_pgd,1,469,NaN,oven,oven,4-10-10,0469_eid_dnn_4-10-10_oven_10_n04111531_15052.png,n04111531_15052.png,1.0,7.754208,3.8696833,2.746774
alexnet2023_baseline_pgd,1,470,NaN,oven,bottle,16-10-10,0470_eid_dnn_16-10-10_bottle_10_n04560804_5769.png,n04560804_5769.png,0.0,0.4123172,3.9164171,-2.4777727
alexnet2023_baseline_pgd,1,471,NaN,oven,dog,128-10-10,0471_eid_dnn_128-10-10_dog_10_n02110063_14116.png,n02110063_14116.png,0.0,-0.9336132,2.298822,-2.285677
alexnet2023_baseline_pgd,1,472,NaN,cat,cat,32-10-10,0472_eid_dnn_32-10-10_cat_10_n02124075_3609.png,n02124075_3609.png,1.0,2.675308,2.6023533,0.051586732
alexnet2023_baseline_pgd,1,473,NaN,airplane,airplane,32-10-10,0473_eid_dnn_32-10-10_airplane_10_n02690373_10926.png,n02690373_10926.png,1.0,4.8317213,2.7670956,1.4599109
alexnet2023_baseline_pgd,1,474,NaN,elephant,bird,16-10-10,0474_eid_dnn_16-10-10_bird_10_n02033041_7229.png,n02033041_7229.png,0.0,2.521485,2.956231,-0.30741188
alexnet2023_baseline_pgd,1,475,NaN,dog,bird,2-10-10,0475_eid_dnn_2-10-10_bird_10_n02006656_611.png,n02006656_611.png,0.0,2.9092803,3.7494638,-0.59409946
alexnet2023_baseline_pgd,1,476,NaN,bird,bear,16-10-10,0476_eid_dnn_16-10-10_bear_10_n02133161_958.png,n02133161_958.png,0.0,0.9760208,1.2295827,-0.17929532
alexnet2023_baseline_pgd,1,477,NaN,bird,bird,8-10-10,0477_eid_dnn_8-10-10_bird_10_n01843065_148.png,n01843065_148.png,1.0,7.8584914,1.3149503,4.626982
alexnet2023_baseline_pgd,1,478,NaN,airplane,cat,32-10-10,0478_eid_dnn_32-10-10_cat_10_n02123597_13623.png,n02123597_13623.png,0.0,-0.7734788,3.4897442,-3.014554
alexnet2023_baseline_pgd,1,479,NaN,bicycle,bicycle,8-10-10,0479_eid_dnn_8-10-10_bicycle_10_n02835271_12957.png,n02835271_12957.png,1.0,7.967176,2.563629,3.820885
alexnet2023_baseline_pgd,1,480,NaN,knife,knife,8-10-10,0480_eid_dnn_8-10-10_knife_10_n03041632_96714.png,n03041632_96714.png,1.0,7.771141,0.16094837,5.381219
alexnet2023_baseline_pgd,1,481,NaN,elephant,bear,128-10-10,0481_eid_dnn_128-10-10_bear_10_n02133161_3550.png,n02133161_3550.png,0.0,2.4874249,4.570781,-1.4731555
alexnet2023_baseline_pgd,1,482,NaN,airplane,airplane,2-10-10,0482_eid_dnn_2-10-10_airplane_10_n02690373_4471.png,n02690373_4471.png,1.0,14.885318,6.7422547,5.7580147
alexnet2023_baseline_pgd,1,483,NaN,elephant,airplane,64-10-10,0483_eid_dnn_64-10-10_airplane_10_n02690373_2026.png,n02690373_2026.png,0.0,2.3083956,3.239133,-0.65813065
alexnet2023_baseline_pgd,1,484,NaN,car,car,1-10-10,0484_eid_dnn_1-10-10_car_10_n03100240_18270.png,n03100240_18270.png,1.0,8.188107,4.718129,2.4536445
alexnet2023_baseline_pgd,1,485,NaN,oven,elephant,128-10-10,0485_eid_dnn_128-10-10_elephant_10_n02504458_5204.png,n02504458_5204.png,0.0,0.2447769,0.9982926,-0.5328161
alexnet2023_baseline_pgd,1,486,NaN,oven,oven,1-10-10,0486_eid_dnn_1-10-10_oven_10_n04111531_10339.png,n04111531_10339.png,1.0,7.332262,4.0007095,2.3557634
alexnet2023_baseline_pgd,1,487,NaN,elephant,elephant,2-10-10,0487_eid_dnn_2-10-10_elephant_10_n02504458_12705.png,n02504458_12705.png,1.0,11.9041,3.7354906,5.776079
alexnet2023_baseline_pgd,1,488,NaN,boat,boat,1-10-10,0488_eid_dnn_1-10-10_boat_10_n03344393_9268.png,n03344393_9268.png,1.0,3.410886,3.1254177,0.2018566
alexnet2023_baseline_pgd,1,489,NaN,bicycle,bicycle,16-10-10,0489_eid_dnn_16-10-10_bicycle_10_n02835271_23173.png,n02835271_23173.png,1.0,2.8200243,1.541518,0.90404046
alexnet2023_baseline_pgd,1,490,NaN,oven,knife,32-10-10,0490_eid_dnn_32-10-10_knife_10_n03041632_43975.png,n03041632_43975.png,0.0,-0.56580883,4.6705546,-3.7026682
alexnet2023_baseline_pgd,1,491,NaN,bicycle,bicycle,128-10-10,0491_eid_dnn_128-10-10_bicycle_10_n03792782_3299.png,n03792782_3299.png,1.0,1.5428364,1.293467,0.17633079
alexnet2023_baseline_pgd,1,492,NaN,elephant,boat,32-10-10,0492_eid_dnn_32-10-10_boat_10_n04273569_5679.png,n04273569_5679.png,0.0,0.17444101,3.8674936,-2.6113825
alexnet2023_baseline_pgd,1,493,NaN,oven,bird,32-10-10,0493_eid_dnn_32-10-10_bird_10_n02056570_10127.png,n02056570_10127.png,0.0,-1.0231646,3.6584742,-3.3104186
alexnet2023_baseline_pgd,1,494,NaN,elephant,bear,32-10-10,0494_eid_dnn_32-10-10_bear_10_n02133161_7688.png,n02133161_7688.png,0.0,2.410915,4.4916067,-1.4712713
alexnet2023_baseline_pgd,1,495,NaN,airplane,cat,16-10-10,0495_eid_dnn_16-10-10_cat_10_n02123597_624.png,n02123597_624.png,0.0,1.1704503,5.0646057,-2.753584
alexnet2023_baseline_pgd,1,496,NaN,dog,bird,64-10-10,0496_eid_dnn_64-10-10_bird_10_n01560419_3399.png,n01560419_3399.png,0.0,0.27078322,1.4684397,-0.8468711
alexnet2023_baseline_pgd,1,497,NaN,airplane,cat,32-10-10,0497_eid_dnn_32-10-10_cat_10_n02123045_12762.png,n02123045_12762.png,0.0,-0.49453783,3.2295506,-2.6333282
alexnet2023_baseline_pgd,1,498,NaN,elephant,car,16-10-10,0498_eid_dnn_16-10-10_car_10_n02814533_7247.png,n02814533_7247.png,0.0,1.9770976,2.352502,-0.26545104
alexnet2023_baseline_pgd,1,499,NaN,keyboard,keyboard,4-10-10,0499_eid_dnn_4-10-10_keyboard_10_n03085013_4941.png,n03085013_4941.png,1.0,5.2468643,3.2807422,1.3902583
alexnet2023_baseline_pgd,1,500,NaN,car,truck,4-10-10,0500_eid_dnn_4-10-10_truck_10_n03417042_6420.png,n03417042_6420.png,0.0,5.9529185,6.399538,-0.3158077
alexnet2023_baseline_pgd,1,501,NaN,chair,boat,64-10-10,0501_eid_dnn_64-10-10_boat_10_n03662601_2120.png,n03662601_2120.png,0.0,-1.706661,1.817594,-2.4920247
alexnet2023_baseline_pgd,1,502,NaN,elephant,bear,2-10-10,0502_eid_dnn_2-10-10_bear_10_n02134084_7331.png,n02134084_7331.png,0.0,9.957882,14.89146,-3.4885669
alexnet2023_baseline_pgd,1,503,NaN,bear,bottle,32-10-10,0503_eid_dnn_32-10-10_bottle_10_n02823428_906.png,n02823428_906.png,0.0,-1.0297337,2.1444473,-2.244485
alexnet2023_baseline_pgd,1,504,NaN,airplane,cat,16-10-10,0504_eid_dnn_16-10-10_cat_10_n02123394_270.png,n02123394_270.png,0.0,-0.26320973,2.7493916,-2.130231
alexnet2023_baseline_pgd,1,505,NaN,truck,boat,2-10-10,0505_eid_dnn_2-10-10_boat_10_n02951358_1910.png,n02951358_1910.png,0.0,1.6839994,3.0053773,-0.93435526
alexnet2023_baseline_pgd,1,506,NaN,elephant,knife,4-10-10,0506_eid_dnn_4-10-10_knife_10_n03041632_23678.png,n03041632_23678.png,0.0,2.864286,3.934772,-0.756948
alexnet2023_baseline_pgd,1,507,NaN,elephant,car,16-10-10,0507_eid_dnn_16-10-10_car_10_n02814533_31083.png,n02814533_31083.png,0.0,0.5003576,1.6698389,-0.82694817
alexnet2023_baseline_pgd,1,508,NaN,keyboard,keyboard,1-10-10,0508_eid_dnn_1-10-10_keyboard_10_n04505470_2881.png,n04505470_2881.png,1.0,11.428113,3.827228,5.374637
alexnet2023_baseline_pgd,1,509,NaN,dog,cat,8-10-10,0509_eid_dnn_8-10-10_cat_10_n02125311_2923.png,n02125311_2923.png,0.0,4.9312687,5.894875,-0.6813726
alexnet2023_baseline_pgd,1,510,NaN,bicycle,bicycle,2-10-10,0510_eid_dnn_2-10-10_bicycle_10_n03792782_2598.png,n03792782_2598.png,1.0,8.1497555,3.7269292,3.1274104
alexnet2023_baseline_pgd,1,511,NaN,car,car,2-10-10,0511_eid_dnn_2-10-10_car_10_n03100240_4460.png,n03100240_4460.png,1.0,12.244784,6.4375486,4.1063356
alexnet2023_baseline_pgd,1,512,NaN,bottle,knife,4-10-10,0512_eid_dnn_4-10-10_knife_10_n03041632_29920.png,n03041632_29920.png,0.0,2.131844,2.31931,-0.13255842
alexnet2023_baseline_pgd,1,513,NaN,elephant,bird,32-10-10,0513_eid_dnn_32-10-10_bird_10_n01796340_3845.png,n01796340_3845.png,0.0,0.27114472,2.3617198,-1.4782599
alexnet2023_baseline_pgd,1,514,NaN,knife,keyboard,8-10-10,0514_eid_dnn_8-10-10_keyboard_10_n03085013_21932.png,n03085013_21932.png,0.0,1.8171415,4.260463,-1.7276894
alexnet2023_baseline_pgd,1,515,NaN,bottle,bottle,1-10-10,0515_eid_dnn_1-10-10_bottle_10_n02823428_64.png,n02823428_64.png,1.0,10.333423,3.5549448,4.7931075
alexnet2023_baseline_pgd,1,516,NaN,chair,chair,8-10-10,0516_eid_dnn_8-10-10_chair_10_n04099969_4374.png,n04099969_4374.png,1.0,3.317041,2.84802,0.3316478
alexnet2023_baseline_pgd,1,517,NaN,clock,clock,1-10-10,0517_eid_dnn_1-10-10_clock_10_n02708093_8257.png,n02708093_8257.png,1.0,11.937543,2.5082517,6.6675158
alexnet2023_baseline_pgd,1,518,NaN,elephant,knife,16-10-10,0518_eid_dnn_16-10-10_knife_10_n03041632_45569.png,n03041632_45569.png,0.0,0.50042146,2.5673923,-1.4615691
alexnet2023_baseline_pgd,1,519,NaN,oven,chair,128-10-10,0519_eid_dnn_128-10-10_chair_10_n04099969_1850.png,n04099969_1850.png,0.0,1.0747986,2.5714653,-1.0583031
alexnet2023_baseline_pgd,1,520,NaN,dog,dog,2-10-10,0520_eid_dnn_2-10-10_dog_10_n02092002_2008.png,n02092002_2008.png,1.0,10.494461,6.9651394,2.4956074
alexnet2023_baseline_pgd,1,521,NaN,bicycle,bicycle,8-10-10,0521_eid_dnn_8-10-10_bicycle_10_n02835271_8105.png,n02835271_8105.png,1.0,8.435478,4.027754,3.116732
alexnet2023_baseline_pgd,1,522,NaN,oven,oven,64-10-10,0522_eid_dnn_64-10-10_oven_10_n04111531_14126.png,n04111531_14126.png,1.0,4.2594213,3.152975,0.7823757
alexnet2023_baseline_pgd,1,523,NaN,elephant,elephant,4-10-10,0523_eid_dnn_4-10-10_elephant_10_n02504013_13766.png,n02504013_13766.png,1.0,3.7568989,2.1509032,1.1356105
alexnet2023_baseline_pgd,1,524,NaN,oven,bicycle,64-10-10,0524_eid_dnn_64-10-10_bicycle_10_n02835271_18361.png,n02835271_18361.png,0.0,-2.55695,3.7133415,-4.4337654
alexnet2023_baseline_pgd,1,525,NaN,bear,bird,8-10-10,0525_eid_dnn_8-10-10_bird_10_n01582220_4708.png,n01582220_4708.png,0.0,1.8184805,4.151621,-1.6497794
alexnet2023_baseline_pgd,1,526,NaN,cat,chair,16-10-10,0526_eid_dnn_16-10-10_chair_10_n04099969_101.png,n04099969_101.png,0.0,0.07779831,1.6457144,-1.1086842
alexnet2023_baseline_pgd,1,527,NaN,cat,cat,1-10-10,0527_eid_dnn_1-10-10_cat_10_n02124075_724.png,n02124075_724.png,1.0,9.6946745,1.3064713,5.931355
alexnet2023_baseline_pgd,1,528,NaN,elephant,bicycle,32-10-10,0528_eid_dnn_32-10-10_bicycle_10_n02835271_43.png,n02835271_43.png,0.0,1.6923373,1.7663264,-0.052318234
alexnet2023_baseline_pgd,1,529,NaN,bird,bird,2-10-10,0529_eid_dnn_2-10-10_bird_10_n02017213_5362.png,n02017213_5362.png,1.0,8.598838,3.5907896,3.5412247
alexnet2023_baseline_pgd,1,530,NaN,oven,dog,1-10-10,0530_eid_dnn_1-10-10_dog_10_n02088466_1769.png,n02088466_1769.png,0.0,1.9480269,4.116038,-1.5330153
alexnet2023_baseline_pgd,1,531,NaN,elephant,bear,1-10-10,0531_eid_dnn_1-10-10_bear_10_n02133161_5653.png,n02133161_5653.png,0.0,8.042714,11.691925,-2.5803819
alexnet2023_baseline_pgd,1,532,NaN,oven,dog,1-10-10,0532_eid_dnn_1-10-10_dog_10_n02098105_4676.png,n02098105_4676.png,0.0,5.295568,6.9346657,-1.1590171
alexnet2023_baseline_pgd,1,533,NaN,cat,cat,2-10-10,0533_eid_dnn_2-10-10_cat_10_n02123045_3593.png,n02123045_3593.png,1.0,8.913487,3.607476,3.7519166
alexnet2023_baseline_pgd,1,534,NaN,knife,bottle,8-10-10,0534_eid_dnn_8-10-10_bottle_10_n04560804_265.png,n04560804_265.png,0.0,-0.4990978,3.1948454,-2.6120124
alexnet2023_baseline_pgd,1,535,NaN,bear,knife,128-10-10,0535_eid_dnn_128-10-10_knife_10_n03041632_1556.png,n03041632_1556.png,0.0,0.17855933,2.337176,-1.5263726
alexnet2023_baseline_pgd,1,536,NaN,chair,chair,4-10-10,0536_eid_dnn_4-10-10_chair_10_n02791124_9595.png,n02791124_9595.png,1.0,3.2783704,3.1003084,0.12590882
alexnet2023_baseline_pgd,1,537,NaN,oven,dog,32-10-10,0537_eid_dnn_32-10-10_dog_10_n02107312_2933.png,n02107312_2933.png,0.0,-1.0081682,4.340612,-3.7821589
alexnet2023_baseline_pgd,1,538,NaN,oven,oven,32-10-10,0538_eid_dnn_32-10-10_oven_10_n04111531_101.png,n04111531_101.png,1.0,3.9598145,1.0750971,2.0398033
alexnet2023_baseline_pgd,1,539,NaN,truck,truck,4-10-10,0539_eid_dnn_4-10-10_truck_10_n03417042_7204.png,n03417042_7204.png,1.0,6.5938587,5.121139,1.04137
alexnet2023_baseline_pgd,1,540,NaN,elephant,bear,64-10-10,0540_eid_dnn_64-10-10_bear_10_n02132136_2120.png,n02132136_2120.png,0.0,1.7743006,4.165656,-1.6909437
alexnet2023_baseline_pgd,1,541,NaN,oven,airplane,64-10-10,0541_eid_dnn_64-10-10_airplane_10_n02690373_18412.png,n02690373_18412.png,0.0,2.6287813,4.4441075,-1.2836295
alexnet2023_baseline_pgd,1,542,NaN,elephant,knife,128-10-10,0542_eid_dnn_128-10-10_knife_10_n03041632_21017.png,n03041632_21017.png,0.0,1.0938381,4.193668,-2.1919105
alexnet2023_baseline_pgd,1,543,NaN,elephant,elephant,128-10-10,0543_eid_dnn_128-10-10_elephant_10_n02504458_8414.png,n02504458_8414.png,1.0,3.6712644,2.5126762,0.8192456
alexnet2023_baseline_pgd,1,544,NaN,elephant,bottle,128-10-10,0544_eid_dnn_128-10-10_bottle_10_n04557648_11046.png,n04557648_11046.png,0.0,0.081769235,1.3308333,-0.8832217
alexnet2023_baseline_pgd,1,545,NaN,oven,clock,64-10-10,0545_eid_dnn_64-10-10_clock_10_n03196217_10578.png,n03196217_10578.png,0.0,-1.991665,5.893185,-5.575431
alexnet2023_baseline_pgd,1,546,NaN,elephant,bear,2-10-10,0546_eid_dnn_2-10-10_bear_10_n02134418_3213.png,n02134418_3213.png,0.0,7.365237,8.5580015,-0.84341174
alexnet2023_baseline_pgd,1,547,NaN,elephant,clock,64-10-10,0547_eid_dnn_64-10-10_clock_10_n03196217_6289.png,n03196217_6289.png,0.0,-0.48517096,1.8535935,-1.6537563
alexnet2023_baseline_pgd,1,548,NaN,bear,dog,32-10-10,0548_eid_dnn_32-10-10_dog_10_n02096294_1498.png,n02096294_1498.png,0.0,0.38772666,2.2994683,-1.3518054
alexnet2023_baseline_pgd,1,549,NaN,elephant,oven,16-10-10,0549_eid_dnn_16-10-10_oven_10_n04111531_519.png,n04111531_519.png,0.0,1.8251047,2.5188801,-0.49057332
alexnet2023_baseline_pgd,1,550,NaN,bird,bird,1-10-10,0550_eid_dnn_1-10-10_bird_10_n01531178_14959.png,n01531178_14959.png,1.0,7.5685935,2.6068482,3.508484
alexnet2023_baseline_pgd,1,551,NaN,airplane,bear,32-10-10,0551_eid_dnn_32-10-10_bear_10_n02132136_8754.png,n02132136_8754.png,0.0,2.113497,5.1484656,-2.1460469
alexnet2023_baseline_pgd,1,552,NaN,car,car,1-10-10,0552_eid_dnn_1-10-10_car_10_n02814533_73067.png,n02814533_73067.png,1.0,13.54423,9.048204,3.1791706
alexnet2023_baseline_pgd,1,553,NaN,cat,cat,8-10-10,0553_eid_dnn_8-10-10_cat_10_n02124075_15378.png,n02124075_15378.png,1.0,2.466652,2.2166042,0.17681041
alexnet2023_baseline_pgd,1,554,NaN,oven,bird,128-10-10,0554_eid_dnn_128-10-10_bird_10_n01592084_7569.png,n01592084_7569.png,0.0,-1.3636898,4.4705377,-4.125422
alexnet2023_baseline_pgd,1,555,NaN,bottle,dog,128-10-10,0555_eid_dnn_128-10-10_dog_10_n02094114_3395.png,n02094114_3395.png,0.0,-0.9877931,0.7578786,-1.2343763
alexnet2023_baseline_pgd,1,556,NaN,chair,chair,4-10-10,0556_eid_dnn_4-10-10_chair_10_n03376595_1712.png,n03376595_1712.png,1.0,4.8249907,3.8096952,0.71792233
alexnet2023_baseline_pgd,1,557,NaN,oven,bear,64-10-10,0557_eid_dnn_64-10-10_bear_10_n02134084_622.png,n02134084_622.png,0.0,1.4916608,2.9959364,-1.0636835
alexnet2023_baseline_pgd,1,558,NaN,knife,clock,8-10-10,0558_eid_dnn_8-10-10_clock_10_n03196217_4912.png,n03196217_4912.png,0.0,1.0506649,3.7611957,-1.9166347
alexnet2023_baseline_pgd,1,559,NaN,oven,car,64-10-10,0559_eid_dnn_64-10-10_car_10_n03100240_18815.png,n03100240_18815.png,0.0,-2.5536706,4.489277,-4.9801164
alexnet2023_baseline_pgd,1,560,NaN,chair,chair,2-10-10,0560_eid_dnn_2-10-10_chair_10_n04099969_2020.png,n04099969_2020.png,1.0,8.991642,4.0823555,3.4713898
alexnet2023_baseline_pgd,1,561,NaN,bear,bear,1-10-10,0561_eid_dnn_1-10-10_bear_10_n02132136_7647.png,n02132136_7647.png,1.0,12.057682,4.590807,5.279878
alexnet2023_baseline_pgd,1,562,NaN,cat,oven,128-10-10,0562_eid_dnn_128-10-10_oven_10_n04111531_2796.png,n04111531_2796.png,0.0,-0.6911717,2.5381172,-2.283452
alexnet2023_baseline_pgd,1,563,NaN,oven,truck,64-10-10,0563_eid_dnn_64-10-10_truck_10_n03796401_9472.png,n03796401_9472.png,0.0,-2.3743176,2.9875839,-3.791437
alexnet2023_baseline_pgd,1,564,NaN,oven,chair,4-10-10,0564_eid_dnn_4-10-10_chair_10_n03376595_12433.png,n03376595_12433.png,0.0,4.4466267,4.8819284,-0.30780485
alexnet2023_baseline_pgd,1,565,NaN,truck,truck,4-10-10,0565_eid_dnn_4-10-10_truck_10_n04467665_31539.png,n04467665_31539.png,1.0,9.459859,7.679395,1.258978
alexnet2023_baseline_pgd,1,566,NaN,airplane,airplane,32-10-10,0566_eid_dnn_32-10-10_airplane_10_n02690373_10657.png,n02690373_10657.png,1.0,4.0145893,2.2014728,1.2820671
alexnet2023_baseline_pgd,1,567,NaN,bicycle,truck,16-10-10,0567_eid_dnn_16-10-10_truck_10_n03796401_5963.png,n03796401_5963.png,0.0,0.37913793,1.9835567,-1.1344954
alexnet2023_baseline_pgd,1,568,NaN,airplane,dog,64-10-10,0568_eid_dnn_64-10-10_dog_10_n02096294_2233.png,n02096294_2233.png,0.0,0.8259291,1.5843233,-0.5362657
alexnet2023_baseline_pgd,1,569,NaN,elephant,airplane,128-10-10,0569_eid_dnn_128-10-10_airplane_10_n02690373_4873.png,n02690373_4873.png,0.0,0.5775391,2.3260694,-1.2363976
alexnet2023_baseline_pgd,1,570,NaN,airplane,truck,1-10-10,0570_eid_dnn_1-10-10_truck_10_n04467665_4825.png,n04467665_4825.png,0.0,7.2282524,7.897533,-0.4732528
alexnet2023_baseline_pgd,1,571,NaN,chair,chair,16-10-10,0571_eid_dnn_16-10-10_chair_10_n04099969_1704.png,n04099969_1704.png,1.0,3.5913124,1.1486707,1.7272086
alexnet2023_baseline_pgd,1,572,NaN,bicycle,bicycle,2-10-10,0572_eid_dnn_2-10-10_bicycle_10_n02835271_1573.png,n02835271_1573.png,1.0,8.816872,3.8917415,3.4825928
alexnet2023_baseline_pgd,1,573,NaN,bear,boat,2-10-10,0573_eid_dnn_2-10-10_boat_10_n04273569_12725.png,n04273569_12725.png,0.0,1.5173447,5.682108,-2.9449325
alexnet2023_baseline_pgd,1,574,NaN,oven,knife,128-10-10,0574_eid_dnn_128-10-10_knife_10_n03041632_11285.png,n03041632_11285.png,0.0,-0.07863672,1.679883,-1.2434613
alexnet2023_baseline_pgd,1,575,NaN,airplane,clock,4-10-10,0575_eid_dnn_4-10-10_clock_10_n03196217_8254.png,n03196217_8254.png,0.0,1.507761,4.5075016,-2.121137
alexnet2023_baseline_pgd,1,576,NaN,airplane,knife,16-10-10,0576_eid_dnn_16-10-10_knife_10_n03041632_15099.png,n03041632_15099.png,0.0,1.2374723,6.9801536,-4.060689
alexnet2023_baseline_pgd,1,577,NaN,airplane,cat,64-10-10,0577_eid_dnn_64-10-10_cat_10_n02125311_30452.png,n02125311_30452.png,0.0,-0.68508816,1.9592137,-1.8698038
alexnet2023_baseline_pgd,1,578,NaN,elephant,bottle,32-10-10,0578_eid_dnn_32-10-10_bottle_10_n04591713_6804.png,n04591713_6804.png,0.0,1.0522078,2.4559436,-0.9925911
alexnet2023_baseline_pgd,1,579,NaN,oven,dog,64-10-10,0579_eid_dnn_64-10-10_dog_10_n02088364_14369.png,n02088364_14369.png,0.0,-1.3509673,2.3727798,-2.633087
alexnet2023_baseline_pgd,1,580,NaN,oven,truck,32-10-10,0580_eid_dnn_32-10-10_truck_10_n03796401_16425.png,n03796401_16425.png,0.0,-3.3016553,8.46644,-8.3213
alexnet2023_baseline_pgd,1,581,NaN,oven,truck,64-10-10,0581_eid_dnn_64-10-10_truck_10_n03417042_5406.png,n03417042_5406.png,0.0,-1.9946867,2.6147532,-3.2593663
alexnet2023_baseline_pgd,1,582,NaN,knife,knife,1-10-10,0582_eid_dnn_1-10-10_knife_10_n03041632_52929.png,n03041632_52929.png,1.0,4.7736964,2.426581,1.6596613
alexnet2023_baseline_pgd,1,583,NaN,bear,chair,64-10-10,0583_eid_dnn_64-10-10_chair_10_n03376595_4820.png,n03376595_4820.png,0.0,-0.13257584,3.9094944,-2.8581755
alexnet2023_baseline_pgd,1,584,NaN,chair,chair,1-10-10,0584_eid_dnn_1-10-10_chair_10_n03376595_787.png,n03376595_787.png,1.0,6.370034,6.3375916,0.022940362
alexnet2023_baseline_pgd,1,585,NaN,oven,chair,2-10-10,0585_eid_dnn_2-10-10_chair_10_n03376595_7709.png,n03376595_7709.png,0.0,2.3140945,3.5696144,-0.8877866
alexnet2023_baseline_pgd,1,586,NaN,bottle,bottle,1-10-10,0586_eid_dnn_1-10-10_bottle_10_n03983396_11006.png,n03983396_11006.png,1.0,4.408978,2.2105143,1.5545486
alexnet2023_baseline_pgd,1,587,NaN,oven,oven,8-10-10,0587_eid_dnn_8-10-10_oven_10_n04111531_458.png,n04111531_458.png,1.0,2.5734134,1.6047957,0.68491614
alexnet2023_baseline_pgd,1,588,NaN,elephant,cat,128-10-10,0588_eid_dnn_128-10-10_cat_10_n02123045_7829.png,n02123045_7829.png,0.0,1.7890052,3.6909142,-1.3448528
alexnet2023_baseline_pgd,1,589,NaN,elephant,bear,1-10-10,0589_eid_dnn_1-10-10_bear_10_n02134418_4685.png,n02134418_4685.png,0.0,8.866121,8.962385,-0.06806885
alexnet2023_baseline_pgd,1,590,NaN,airplane,knife,64-10-10,0590_eid_dnn_64-10-10_knife_10_n03041632_1964.png,n03041632_1964.png,0.0,0.12756614,2.817162,-1.9018315
alexnet2023_baseline_pgd,1,591,NaN,car,car,4-10-10,0591_eid_dnn_4-10-10_car_10_n03100240_17472.png,n03100240_17472.png,1.0,9.924062,4.8413024,3.5940537
alexnet2023_baseline_pgd,1,592,NaN,elephant,dog,16-10-10,0592_eid_dnn_16-10-10_dog_10_n02113023_1980.png,n02113023_1980.png,0.0,1.3311976,2.8579795,-1.0795978
alexnet2023_baseline_pgd,1,593,NaN,airplane,dog,32-10-10,0593_eid_dnn_32-10-10_dog_10_n02100735_6359.png,n02100735_6359.png,0.0,1.4908627,5.3473535,-2.7269506
alexnet2023_baseline_pgd,1,594,NaN,oven,knife,1-10-10,0594_eid_dnn_1-10-10_knife_10_n03041632_31849.png,n03041632_31849.png,0.0,4.258504,5.7114224,-1.0273685
alexnet2023_baseline_pgd,1,595,NaN,oven,bird,8-10-10,0595_eid_dnn_8-10-10_bird_10_n01532829_23378.png,n01532829_23378.png,0.0,2.7581148,5.05775,-1.6260878
alexnet2023_baseline_pgd,1,596,NaN,oven,clock,64-10-10,0596_eid_dnn_64-10-10_clock_10_n02708093_5127.png,n02708093_5127.png,0.0,0.13421337,4.0289025,-2.753961
alexnet2023_baseline_pgd,1,597,NaN,elephant,bear,4-10-10,0597_eid_dnn_4-10-10_bear_10_n02134084_12148.png,n02134084_12148.png,0.0,7.965702,8.345238,-0.26837227
alexnet2023_baseline_pgd,1,598,NaN,elephant,elephant,4-10-10,0598_eid_dnn_4-10-10_elephant_10_n02504458_63.png,n02504458_63.png,1.0,11.51646,5.635086,4.1587596
alexnet2023_baseline_pgd,1,599,NaN,bear,dog,2-10-10,0599_eid_dnn_2-10-10_dog_10_n02108551_13160.png,n02108551_13160.png,0.0,4.9942474,9.411279,-3.1233127
alexnet2023_baseline_pgd,1,600,NaN,bicycle,bicycle,2-10-10,0600_eid_dnn_2-10-10_bicycle_10_n02835271_3215.png,n02835271_3215.png,1.0,5.75556,2.552399,2.264977
alexnet2023_baseline_pgd,1,601,NaN,airplane,bicycle,16-10-10,0601_eid_dnn_16-10-10_bicycle_10_n03792782_14216.png,n03792782_14216.png,0.0,3.8332796,5.4747634,-1.1607044
alexnet2023_baseline_pgd,1,602,NaN,bicycle,bicycle,2-10-10,0602_eid_dnn_2-10-10_bicycle_10_n03792782_25352.png,n03792782_25352.png,1.0,18.76551,1.3824924,12.291651
alexnet2023_baseline_pgd,1,603,NaN,elephant,boat,128-10-10,0603_eid_dnn_128-10-10_boat_10_n04273569_1482.png,n04273569_1482.png,0.0,-1.059079,3.778839,-3.420925
alexnet2023_baseline_pgd,1,604,NaN,car,car,2-10-10,0604_eid_dnn_2-10-10_car_10_n02814533_59053.png,n02814533_59053.png,1.0,15.7126,10.836189,3.448143
alexnet2023_baseline_pgd,1,605,NaN,elephant,airplane,128-10-10,0605_eid_dnn_128-10-10_airplane_10_n02690373_10462.png,n02690373_10462.png,0.0,-0.34130567,3.104057,-2.4362395
alexnet2023_baseline_pgd,1,606,NaN,bird,bottle,8-10-10,0606_eid_dnn_8-10-10_bottle_10_n04560804_15379.png,n04560804_15379.png,0.0,-0.50973296,2.7562635,-2.3094082
alexnet2023_baseline_pgd,1,607,NaN,bear,chair,16-10-10,0607_eid_dnn_16-10-10_chair_10_n02791124_1140.png,n02791124_1140.png,0.0,0.06852355,2.732595,-1.883783
alexnet2023_baseline_pgd,1,608,NaN,dog,dog,8-10-10,0608_eid_dnn_8-10-10_dog_10_n02101388_24945.png,n02101388_24945.png,1.0,6.868729,2.2035587,3.2987738
alexnet2023_baseline_pgd,1,609,NaN,oven,cat,64-10-10,0609_eid_dnn_64-10-10_cat_10_n02124075_20957.png,n02124075_20957.png,0.0,0.53317475,1.168974,-0.449578
alexnet2023_baseline_pgd,1,610,NaN,elephant,elephant,1-10-10,0610_eid_dnn_1-10-10_elephant_10_n02504013_8105.png,n02504013_8105.png,1.0,4.6161556,3.9998777,0.43577433
alexnet2023_baseline_pgd,1,611,NaN,truck,truck,2-10-10,0611_eid_dnn_2-10-10_truck_10_n03796401_13992.png,n03796401_13992.png,1.0,6.14118,5.3555813,0.55550224
alexnet2023_baseline_pgd,1,612,NaN,oven,bottle,128-10-10,0612_eid_dnn_128-10-10_bottle_10_n04560804_22426.png,n04560804_22426.png,0.0,2.2716358,3.735472,-1.0350885
alexnet2023_baseline_pgd,1,613,NaN,cat,cat,1-10-10,0613_eid_dnn_1-10-10_cat_10_n02123159_2100.png,n02123159_2100.png,1.0,5.7775893,4.6192775,0.8190502
alexnet2023_baseline_pgd,1,614,NaN,bottle,clock,64-10-10,0614_eid_dnn_64-10-10_clock_10_n02708093_6560.png,n02708093_6560.png,0.0,0.45241126,1.062406,-0.43133137
alexnet2023_baseline_pgd,1,615,NaN,bird,bird,1-10-10,0615_eid_dnn_1-10-10_bird_10_n01855032_4905.png,n01855032_4905.png,1.0,3.6683757,2.7483993,0.65052164
alexnet2023_baseline_pgd,1,616,NaN,clock,clock,2-10-10,0616_eid_dnn_2-10-10_clock_10_n04548280_2616.png,n04548280_2616.png,1.0,5.6182933,2.0974805,2.4895906
alexnet2023_baseline_pgd,1,617,NaN,truck,truck,2-10-10,0617_eid_dnn_2-10-10_truck_10_n03417042_3789.png,n03417042_3789.png,1.0,10.186394,6.4717994,2.6266148
alexnet2023_baseline_pgd,1,618,NaN,airplane,oven,64-10-10,0618_eid_dnn_64-10-10_oven_10_n04111531_7356.png,n04111531_7356.png,0.0,0.78068954,2.3527117,-1.1115875
alexnet2023_baseline_pgd,1,619,NaN,elephant,cat,4-10-10,0619_eid_dnn_4-10-10_cat_10_n02124075_18687.png,n02124075_18687.png,0.0,6.8195596,7.8558598,-0.7327749
alexnet2023_baseline_pgd,1,620,NaN,keyboard,keyboard,8-10-10,0620_eid_dnn_8-10-10_keyboard_10_n03085013_17884.png,n03085013_17884.png,1.0,8.648787,3.7578778,3.4583948
alexnet2023_baseline_pgd,1,621,NaN,keyboard,keyboard,2-10-10,0621_eid_dnn_2-10-10_keyboard_10_n03085013_4780.png,n03085013_4780.png,1.0,16.12758,6.635774,6.7117205
alexnet2023_baseline_pgd,1,622,NaN,bear,cat,16-10-10,0622_eid_dnn_16-10-10_cat_10_n02123045_15476.png,n02123045_15476.png,0.0,1.0218261,1.7865971,-0.54077476
