subj,session,trial,rt,object_response,category,condition,imagename,filename,is_correct,targ_act,max_nontarg_act,decision_margin
alexnet_w1_mlp_simclrhn_probe2,1,1,NaN,oven,oven,1-10-10,0001_eid_dnn_1-10-10_oven_10_n04111531_17072.png,n04111531_17072.png,1.0,1.9544181,-1.4699244,2.421376
alexnet_w1_mlp_simclrhn_probe2,1,2,NaN,airplane,airplane,16-10-10,0002_eid_dnn_16-10-10_airplane_10_n02690373_4183.png,n02690373_4183.png,1.0,-0.3513732,-0.46349505,0.07928212
alexnet_w1_mlp_simclrhn_probe2,1,3,NaN,oven,car,8-10-10,0003_eid_dnn_8-10-10_car_10_n03100240_1137.png,n03100240_1137.png,0.0,-4.5600204,-0.1298794,-3.1325827
alexnet_w1_mlp_simclrhn_probe2,1,4,NaN,clock,clock,2-10-10,0004_eid_dnn_2-10-10_clock_10_n04548280_7083.png,n04548280_7083.png,1.0,0.4745499,-0.99721706,1.0406964
alexnet_w1_mlp_simclrhn_probe2,1,5,NaN,oven,bottle,2-10-10,0005_eid_dnn_2-10-10_bottle_10_n02823428_7810.png,n02823428_7810.png,0.0,-0.21821114,0.1960116,-0.29289973
alexnet_w1_mlp_simclrhn_probe2,1,6,NaN,oven,dog,128-10-10,0006_eid_dnn_128-10-10_dog_10_n02091244_8368.png,n02091244_8368.png,0.0,-1.9072926,0.23717608,-1.5163684
alexnet_w1_mlp_simclrhn_probe2,1,7,NaN,bicycle,bicycle,1-10-10,0007_eid_dnn_1-10-10_bicycle_10_n02835271_2930.png,n02835271_2930.png,1.0,2.83222,-0.65047824,2.4626398
alexnet_w1_mlp_simclrhn_probe2,1,8,NaN,cat,knife,4-10-10,0008_eid_dnn_4-10-10_knife_10_n03041632_52848.png,n03041632_52848.png,0.0,-5.159726,-1.3904413,-2.6652868
alexnet_w1_mlp_simclrhn_probe2,1,9,NaN,bottle,bottle,2-10-10,0009_eid_dnn_2-10-10_bottle_10_n02823428_4097.png,n02823428_4097.png,1.0,5.555104,-0.5643636,4.327117
alexnet_w1_mlp_simclrhn_probe2,1,10,NaN,dog,dog,8-10-10,0010_eid_dnn_8-10-10_dog_10_n02105641_10264.png,n02105641_10264.png,1.0,0.23426308,-0.3269553,0.39684132
alexnet_w1_mlp_simclrhn_probe2,1,11,NaN,elephant,boat,8-10-10,0011_eid_dnn_8-10-10_boat_10_n03662601_10278.png,n03662601_10278.png,0.0,-1.017156,0.24631447,-0.89340854
alexnet_w1_mlp_simclrhn_probe2,1,12,NaN,oven,truck,32-10-10,0012_eid_dnn_32-10-10_truck_10_n04467665_76958.png,n04467665_76958.png,0.0,-5.8433123,0.36653677,-4.3910265
alexnet_w1_mlp_simclrhn_probe2,1,13,NaN,oven,dog,16-10-10,0013_eid_dnn_16-10-10_dog_10_n02088238_12552.png,n02088238_12552.png,0.0,-1.7443665,-0.16616979,-1.1159537
alexnet_w1_mlp_simclrhn_probe2,1,14,NaN,bear,dog,8-10-10,0014_eid_dnn_8-10-10_dog_10_n02102040_994.png,n02102040_994.png,0.0,-0.7044184,2.1592312,-2.0249062
alexnet_w1_mlp_simclrhn_probe2,1,15,NaN,oven,bear,128-10-10,0015_eid_dnn_128-10-10_bear_10_n02133161_1944.png,n02133161_1944.png,0.0,-0.27785987,-0.035577208,-0.17131971
alexnet_w1_mlp_simclrhn_probe2,1,16,NaN,oven,car,16-10-10,0016_eid_dnn_16-10-10_car_10_n02814533_43040.png,n02814533_43040.png,0.0,-5.0362983,-0.56204486,-3.1637752
alexnet_w1_mlp_simclrhn_probe2,1,17,NaN,oven,oven,128-10-10,0017_eid_dnn_128-10-10_oven_10_n04111531_18592.png,n04111531_18592.png,1.0,0.011870496,-0.3267754,0.23945881
alexnet_w1_mlp_simclrhn_probe2,1,18,NaN,oven,chair,16-10-10,0018_eid_dnn_16-10-10_chair_10_n02791124_4294.png,n02791124_4294.png,0.0,-3.9212265,0.60821587,-3.2027993
alexnet_w1_mlp_simclrhn_probe2,1,19,NaN,oven,knife,32-10-10,0019_eid_dnn_32-10-10_knife_10_n03041632_2630.png,n03041632_2630.png,0.0,-2.379683,1.0677081,-2.4376736
alexnet_w1_mlp_simclrhn_probe2,1,20,NaN,elephant,elephant,1-10-10,0020_eid_dnn_1-10-10_elephant_10_n02504458_723.png,n02504458_723.png,1.0,8.4523735,1.1779081,5.143824
alexnet_w1_mlp_simclrhn_probe2,1,21,NaN,chair,chair,4-10-10,0021_eid_dnn_4-10-10_chair_10_n03376595_6107.png,n03376595_6107.png,1.0,0.23881358,-0.45641857,0.49160337
alexnet_w1_mlp_simclrhn_probe2,1,22,NaN,oven,clock,32-10-10,0022_eid_dnn_32-10-10_clock_10_n03196217_1337.png,n03196217_1337.png,0.0,-3.7683735,0.9470403,-3.3343012
alexnet_w1_mlp_simclrhn_probe2,1,23,NaN,oven,boat,128-10-10,0023_eid_dnn_128-10-10_boat_10_n02951358_9550.png,n02951358_9550.png,0.0,-4.138374,0.83390677,-3.5159333
alexnet_w1_mlp_simclrhn_probe2,1,24,NaN,bear,bird,128-10-10,0024_eid_dnn_128-10-10_bird_10_n01616318_2334.png,n01616318_2334.png,0.0,-2.8222888,-0.8531395,-1.3923988
alexnet_w1_mlp_simclrhn_probe2,1,25,NaN,oven,bottle,32-10-10,0025_eid_dnn_32-10-10_bottle_10_n03937543_1658.png,n03937543_1658.png,0.0,-0.4593779,-0.079150096,-0.26886165
alexnet_w1_mlp_simclrhn_probe2,1,26,NaN,elephant,elephant,2-10-10,0026_eid_dnn_2-10-10_elephant_10_n02504013_6731.png,n02504013_6731.png,1.0,2.322021,1.2777495,0.7384114
alexnet_w1_mlp_simclrhn_probe2,1,27,NaN,keyboard,keyboard,4-10-10,0027_eid_dnn_4-10-10_keyboard_10_n04505470_4447.png,n04505470_4447.png,1.0,6.6113462,0.6625437,4.2064385
alexnet_w1_mlp_simclrhn_probe2,1,28,NaN,airplane,airplane,1-10-10,0028_eid_dnn_1-10-10_airplane_10_n02690373_4839.png,n02690373_4839.png,1.0,6.114957,2.5446544,2.5245852
alexnet_w1_mlp_simclrhn_probe2,1,29,NaN,oven,keyboard,64-10-10,0029_eid_dnn_64-10-10_keyboard_10_n04505470_1651.png,n04505470_1651.png,0.0,-5.4073324,-0.20311034,-3.679941
alexnet_w1_mlp_simclrhn_probe2,1,30,NaN,oven,keyboard,32-10-10,0030_eid_dnn_32-10-10_keyboard_10_n03085013_20601.png,n03085013_20601.png,0.0,-2.3751101,-0.28615627,-1.4771135
alexnet_w1_mlp_simclrhn_probe2,1,31,NaN,oven,airplane,64-10-10,0031_eid_dnn_64-10-10_airplane_10_n02690373_2217.png,n02690373_2217.png,0.0,-2.7422218,-0.78447014,-1.3843396
alexnet_w1_mlp_simclrhn_probe2,1,32,NaN,bicycle,bicycle,4-10-10,0032_eid_dnn_4-10-10_bicycle_10_n03792782_25019.png,n03792782_25019.png,1.0,-0.040550202,-0.62170637,0.41093946
alexnet_w1_mlp_simclrhn_probe2,1,33,NaN,cat,cat,8-10-10,0033_eid_dnn_8-10-10_cat_10_n02123597_13890.png,n02123597_13890.png,1.0,1.5856024,-0.21205123,1.2711332
alexnet_w1_mlp_simclrhn_probe2,1,34,NaN,boat,boat,1-10-10,0034_eid_dnn_1-10-10_boat_10_n04612504_214.png,n04612504_214.png,1.0,4.3300114,-0.009389341,3.0684197
alexnet_w1_mlp_simclrhn_probe2,1,35,NaN,oven,chair,128-10-10,0035_eid_dnn_128-10-10_chair_10_n02791124_2555.png,n02791124_2555.png,0.0,-4.1687946,0.1143662,-3.028652
alexnet_w1_mlp_simclrhn_probe2,1,36,NaN,elephant,car,4-10-10,0036_eid_dnn_4-10-10_car_10_n04285008_2081.png,n04285008_2081.png,0.0,-1.4756813,0.8723637,-1.6603185
alexnet_w1_mlp_simclrhn_probe2,1,37,NaN,bear,dog,32-10-10,0037_eid_dnn_32-10-10_dog_10_n02094114_8202.png,n02094114_8202.png,0.0,-1.0467699,-0.059402138,-0.6981744
alexnet_w1_mlp_simclrhn_probe2,1,38,NaN,oven,chair,64-10-10,0038_eid_dnn_64-10-10_chair_10_n04099969_4541.png,n04099969_4541.png,0.0,-5.252561,-0.034768574,-3.6895366
alexnet_w1_mlp_simclrhn_probe2,1,39,NaN,oven,boat,128-10-10,0039_eid_dnn_128-10-10_boat_10_n04612504_12864.png,n04612504_12864.png,0.0,-3.6099725,0.5191355,-2.9197202
alexnet_w1_mlp_simclrhn_probe2,1,40,NaN,airplane,airplane,4-10-10,0040_eid_dnn_4-10-10_airplane_10_n02690373_18460.png,n02690373_18460.png,1.0,0.86989355,-0.8015577,1.1818945
alexnet_w1_mlp_simclrhn_probe2,1,41,NaN,oven,bottle,64-10-10,0041_eid_dnn_64-10-10_bottle_10_n03983396_8982.png,n03983396_8982.png,0.0,-2.4718652,0.48335326,-2.089655
alexnet_w1_mlp_simclrhn_probe2,1,42,NaN,oven,dog,16-10-10,0042_eid_dnn_16-10-10_dog_10_n02099601_10407.png,n02099601_10407.png,0.0,-1.3265958,0.5288501,-1.3119984
alexnet_w1_mlp_simclrhn_probe2,1,43,NaN,oven,airplane,32-10-10,0043_eid_dnn_32-10-10_airplane_10_n02690373_5253.png,n02690373_5253.png,0.0,-1.4423333,0.4573419,-1.3432733
alexnet_w1_mlp_simclrhn_probe2,1,44,NaN,elephant,elephant,2-10-10,0044_eid_dnn_2-10-10_elephant_10_n02504013_2832.png,n02504013_2832.png,1.0,10.266061,4.6053,4.0027623
alexnet_w1_mlp_simclrhn_probe2,1,45,NaN,clock,clock,1-10-10,0045_eid_dnn_1-10-10_clock_10_n02708093_8002.png,n02708093_8002.png,1.0,2.1351511,1.265686,0.6148047
alexnet_w1_mlp_simclrhn_probe2,1,46,NaN,chair,chair,2-10-10,0046_eid_dnn_2-10-10_chair_10_n03376595_1766.png,n03376595_1766.png,1.0,1.092519,-0.38522547,1.0449232
alexnet_w1_mlp_simclrhn_probe2,1,47,NaN,truck,truck,2-10-10,0047_eid_dnn_2-10-10_truck_10_n03417042_17616.png,n03417042_17616.png,1.0,3.2919261,2.6967432,0.42085788
alexnet_w1_mlp_simclrhn_probe2,1,48,NaN,bear,bear,16-10-10,0048_eid_dnn_16-10-10_bear_10_n02134418_2804.png,n02134418_2804.png,1.0,1.2517781,-0.32312956,1.1136279
alexnet_w1_mlp_simclrhn_probe2,1,49,NaN,oven,car,64-10-10,0049_eid_dnn_64-10-10_car_10_n04285008_12101.png,n04285008_12101.png,0.0,-7.786487,0.27705157,-5.7017827
alexnet_w1_mlp_simclrhn_probe2,1,50,NaN,oven,bear,16-10-10,0050_eid_dnn_16-10-10_bear_10_n02134418_3828.png,n02134418_3828.png,0.0,0.26231766,0.46178085,-0.14104177
alexnet_w1_mlp_simclrhn_probe2,1,51,NaN,bird,bird,2-10-10,0051_eid_dnn_2-10-10_bird_10_n01530575_5747.png,n01530575_5747.png,1.0,1.2954265,-4.3448634,3.9882872
alexnet_w1_mlp_simclrhn_probe2,1,52,NaN,oven,truck,128-10-10,0052_eid_dnn_128-10-10_truck_10_n03796401_3386.png,n03796401_3386.png,0.0,-6.7176576,0.7979859,-5.3143625
alexnet_w1_mlp_simclrhn_probe2,1,53,NaN,oven,keyboard,16-10-10,0053_eid_dnn_16-10-10_keyboard_10_n04505470_3234.png,n04505470_3234.png,0.0,-3.305836,-0.518385,-1.9710256
alexnet_w1_mlp_simclrhn_probe2,1,54,NaN,airplane,truck,1-10-10,0054_eid_dnn_1-10-10_truck_10_n04467665_72639.png,n04467665_72639.png,0.0,-0.6974292,3.5513225,-3.004321
alexnet_w1_mlp_simclrhn_probe2,1,55,NaN,oven,chair,32-10-10,0055_eid_dnn_32-10-10_chair_10_n04429376_27524.png,n04429376_27524.png,0.0,-5.5382776,1.2250316,-4.782382
alexnet_w1_mlp_simclrhn_probe2,1,56,NaN,oven,bottle,64-10-10,0056_eid_dnn_64-10-10_bottle_10_n04557648_11440.png,n04557648_11440.png,0.0,-1.4728994,-0.13200611,-0.94815475
alexnet_w1_mlp_simclrhn_probe2,1,57,NaN,oven,keyboard,32-10-10,0057_eid_dnn_32-10-10_keyboard_10_n03085013_20216.png,n03085013_20216.png,0.0,-4.495885,1.8192338,-4.465463
alexnet_w1_mlp_simclrhn_probe2,1,58,NaN,bear,boat,8-10-10,0058_eid_dnn_8-10-10_boat_10_n02951358_34653.png,n02951358_34653.png,0.0,-3.312632,0.26909247,-2.532662
alexnet_w1_mlp_simclrhn_probe2,1,59,NaN,keyboard,keyboard,2-10-10,0059_eid_dnn_2-10-10_keyboard_10_n03085013_8932.png,n03085013_8932.png,1.0,0.57018566,-0.3302807,0.63672584
alexnet_w1_mlp_simclrhn_probe2,1,60,NaN,bear,cat,1-10-10,0060_eid_dnn_1-10-10_cat_10_n02125311_35338.png,n02125311_35338.png,0.0,-0.68822676,-0.33998126,-0.24624676
alexnet_w1_mlp_simclrhn_probe2,1,61,NaN,oven,bicycle,16-10-10,0061_eid_dnn_16-10-10_bicycle_10_n03792782_5449.png,n03792782_5449.png,0.0,-2.6668687,1.2845365,-2.7940652
alexnet_w1_mlp_simclrhn_probe2,1,62,NaN,bicycle,bicycle,4-10-10,0062_eid_dnn_4-10-10_bicycle_10_n03792782_9432.png,n03792782_9432.png,1.0,0.36279315,-0.30072266,0.46917653
alexnet_w1_mlp_simclrhn_probe2,1,63,NaN,oven,bottle,1-10-10,0063_eid_dnn_1-10-10_bottle_10_n04591713_4291.png,n04591713_4291.png,0.0,-2.4992316,-0.29574203,-1.5581024
alexnet_w1_mlp_simclrhn_probe2,1,64,NaN,truck,truck,4-10-10,0064_eid_dnn_4-10-10_truck_10_n04467665_67057.png,n04467665_67057.png,1.0,0.32637602,-0.43741003,0.54007834
alexnet_w1_mlp_simclrhn_probe2,1,65,NaN,oven,keyboard,1-10-10,0065_eid_dnn_1-10-10_keyboard_10_n03085013_22790.png,n03085013_22790.png,0.0,-4.387919,-0.9347827,-2.441736
alexnet_w1_mlp_simclrhn_probe2,1,66,NaN,cat,dog,4-10-10,0066_eid_dnn_4-10-10_dog_10_n02086079_2896.png,n02086079_2896.png,0.0,-0.7474779,0.03764127,-0.5551631
alexnet_w1_mlp_simclrhn_probe2,1,67,NaN,airplane,knife,8-10-10,0067_eid_dnn_8-10-10_knife_10_n03041632_40508.png,n03041632_40508.png,0.0,-2.4792147,-0.17167726,-1.6316754
alexnet_w1_mlp_simclrhn_probe2,1,68,NaN,airplane,boat,1-10-10,0068_eid_dnn_1-10-10_boat_10_n03344393_7942.png,n03344393_7942.png,0.0,0.76348794,1.1846623,-0.2978153
alexnet_w1_mlp_simclrhn_probe2,1,69,NaN,bear,bear,2-10-10,0069_eid_dnn_2-10-10_bear_10_n02134418_4352.png,n02134418_4352.png,1.0,2.717187,0.391119,1.6447785
alexnet_w1_mlp_simclrhn_probe2,1,70,NaN,oven,cat,16-10-10,0070_eid_dnn_16-10-10_cat_10_n02123045_5157.png,n02123045_5157.png,0.0,-1.1508497,0.3624894,-1.0700923
alexnet_w1_mlp_simclrhn_probe2,1,71,NaN,bear,dog,16-10-10,0071_eid_dnn_16-10-10_dog_10_n02109047_14287.png,n02109047_14287.png,0.0,-1.5439464,-0.36809355,-0.8314535
alexnet_w1_mlp_simclrhn_probe2,1,72,NaN,truck,truck,2-10-10,0072_eid_dnn_2-10-10_truck_10_n03417042_14274.png,n03417042_14274.png,1.0,1.7310497,0.0029396315,1.2219584
alexnet_w1_mlp_simclrhn_probe2,1,73,NaN,airplane,airplane,2-10-10,0073_eid_dnn_2-10-10_airplane_10_n02690373_5885.png,n02690373_5885.png,1.0,-0.37041962,-0.47946164,0.07710435
alexnet_w1_mlp_simclrhn_probe2,1,74,NaN,bear,cat,32-10-10,0074_eid_dnn_32-10-10_cat_10_n02123394_571.png,n02123394_571.png,0.0,-0.6328351,-0.3329787,-0.2120305
alexnet_w1_mlp_simclrhn_probe2,1,75,NaN,cat,cat,32-10-10,0075_eid_dnn_32-10-10_cat_10_n02123045_10171.png,n02123045_10171.png,1.0,-0.07641441,-0.68230563,0.4284298
alexnet_w1_mlp_simclrhn_probe2,1,76,NaN,bottle,bottle,8-10-10,0076_eid_dnn_8-10-10_bottle_10_n04560804_4909.png,n04560804_4909.png,1.0,-0.08072416,-1.2030706,0.79361886
alexnet_w1_mlp_simclrhn_probe2,1,77,NaN,keyboard,keyboard,8-10-10,0077_eid_dnn_8-10-10_keyboard_10_n03085013_7971.png,n03085013_7971.png,1.0,-0.78625757,-1.962184,0.8315056
alexnet_w1_mlp_simclrhn_probe2,1,78,NaN,oven,keyboard,16-10-10,0078_eid_dnn_16-10-10_keyboard_10_n03085013_21397.png,n03085013_21397.png,0.0,-3.0137014,0.35177675,-2.3797526
alexnet_w1_mlp_simclrhn_probe2,1,79,NaN,bear,elephant,32-10-10,0079_eid_dnn_32-10-10_elephant_10_n02504458_4187.png,n02504458_4187.png,0.0,-0.35737333,0.25524288,-0.43318507
alexnet_w1_mlp_simclrhn_probe2,1,80,NaN,bear,clock,8-10-10,0080_eid_dnn_8-10-10_clock_10_n03196217_6689.png,n03196217_6689.png,0.0,-3.7065966,0.90041673,-3.2576504
alexnet_w1_mlp_simclrhn_probe2,1,81,NaN,knife,knife,4-10-10,0081_eid_dnn_4-10-10_knife_10_n03041632_26236.png,n03041632_26236.png,1.0,-0.8200628,-1.7349519,0.64692426
alexnet_w1_mlp_simclrhn_probe2,1,82,NaN,oven,car,8-10-10,0082_eid_dnn_8-10-10_car_10_n03100240_1262.png,n03100240_1262.png,0.0,-4.862692,-0.9453925,-2.769949
alexnet_w1_mlp_simclrhn_probe2,1,83,NaN,oven,keyboard,64-10-10,0083_eid_dnn_64-10-10_keyboard_10_n04505470_5059.png,n04505470_5059.png,0.0,-4.56172,0.5063838,-3.5836906
alexnet_w1_mlp_simclrhn_probe2,1,84,NaN,bird,bird,1-10-10,0084_eid_dnn_1-10-10_bird_10_n01537544_26417.png,n01537544_26417.png,1.0,0.9254662,-3.3596349,3.030024
alexnet_w1_mlp_simclrhn_probe2,1,85,NaN,bear,bird,32-10-10,0085_eid_dnn_32-10-10_bird_10_n02009912_5714.png,n02009912_5714.png,0.0,-2.8650422,0.13313627,-2.1200323
alexnet_w1_mlp_simclrhn_probe2,1,86,NaN,oven,chair,128-10-10,0086_eid_dnn_128-10-10_chair_10_n03376595_5972.png,n03376595_5972.png,0.0,-4.709799,0.7820029,-3.8832903
alexnet_w1_mlp_simclrhn_probe2,1,87,NaN,oven,chair,2-10-10,0087_eid_dnn_2-10-10_chair_10_n04429376_805.png,n04429376_805.png,0.0,0.118852496,0.598163,-0.33892372
alexnet_w1_mlp_simclrhn_probe2,1,88,NaN,bear,bicycle,128-10-10,0088_eid_dnn_128-10-10_bicycle_10_n03792782_4083.png,n03792782_4083.png,0.0,-2.8728914,0.10028901,-2.1023562
alexnet_w1_mlp_simclrhn_probe2,1,89,NaN,clock,clock,1-10-10,0089_eid_dnn_1-10-10_clock_10_n02708093_798.png,n02708093_798.png,1.0,0.15269555,-0.027755916,0.12759846
alexnet_w1_mlp_simclrhn_probe2,1,90,NaN,bear,bear,1-10-10,0090_eid_dnn_1-10-10_bear_10_n02133161_1660.png,n02133161_1660.png,1.0,2.8185086,0.50697494,1.6345012
alexnet_w1_mlp_simclrhn_probe2,1,91,NaN,oven,car,8-10-10,0091_eid_dnn_8-10-10_car_10_n04285008_9464.png,n04285008_9464.png,0.0,-8.064342,1.0264492,-6.4281597
alexnet_w1_mlp_simclrhn_probe2,1,92,NaN,oven,oven,16-10-10,0092_eid_dnn_16-10-10_oven_10_n04111531_3314.png,n04111531_3314.png,1.0,0.9696468,-0.7135944,1.1902312
alexnet_w1_mlp_simclrhn_probe2,1,93,NaN,bear,cat,128-10-10,0093_eid_dnn_128-10-10_cat_10_n02123394_5753.png,n02123394_5753.png,0.0,-0.5677517,0.07485473,-0.4543914
alexnet_w1_mlp_simclrhn_probe2,1,94,NaN,boat,boat,2-10-10,0094_eid_dnn_2-10-10_boat_10_n02951358_34042.png,n02951358_34042.png,1.0,-0.3329288,-0.6480441,0.22282018
alexnet_w1_mlp_simclrhn_probe2,1,95,NaN,oven,truck,64-10-10,0095_eid_dnn_64-10-10_truck_10_n03417042_7588.png,n03417042_7588.png,0.0,-5.957301,0.6624287,-4.680856
alexnet_w1_mlp_simclrhn_probe2,1,96,NaN,oven,truck,32-10-10,0096_eid_dnn_32-10-10_truck_10_n03417042_4200.png,n03417042_4200.png,0.0,-6.382316,2.2978928,-6.137835
alexnet_w1_mlp_simclrhn_probe2,1,97,NaN,airplane,airplane,4-10-10,0097_eid_dnn_4-10-10_airplane_10_n02690373_4335.png,n02690373_4335.png,1.0,3.2509928,0.28701535,2.0958486
alexnet_w1_mlp_simclrhn_probe2,1,98,NaN,oven,elephant,128-10-10,0098_eid_dnn_128-10-10_elephant_10_n02504458_6823.png,n02504458_6823.png,0.0,-1.7198567,0.059732735,-1.2583598
alexnet_w1_mlp_simclrhn_probe2,1,99,NaN,boat,boat,4-10-10,0099_eid_dnn_4-10-10_boat_10_n03344393_4214.png,n03344393_4214.png,1.0,3.0557237,1.7870585,0.8970818
alexnet_w1_mlp_simclrhn_probe2,1,100,NaN,keyboard,keyboard,4-10-10,0100_eid_dnn_4-10-10_keyboard_10_n03085013_22949.png,n03085013_22949.png,1.0,3.3786917,-0.22890252,2.5509543
alexnet_w1_mlp_simclrhn_probe2,1,101,NaN,bear,bear,64-10-10,0101_eid_dnn_64-10-10_bear_10_n02132136_31664.png,n02132136_31664.png,1.0,0.018712386,-0.35600644,0.26496625
alexnet_w1_mlp_simclrhn_probe2,1,102,NaN,oven,bottle,8-10-10,0102_eid_dnn_8-10-10_bottle_10_n03983396_1985.png,n03983396_1985.png,0.0,-2.1680224,-1.1790018,-0.6993432
alexnet_w1_mlp_simclrhn_probe2,1,103,NaN,airplane,airplane,2-10-10,0103_eid_dnn_2-10-10_airplane_10_n02690373_9266.png,n02690373_9266.png,1.0,4.958268,-0.49197477,3.8539038
alexnet_w1_mlp_simclrhn_probe2,1,104,NaN,bear,bottle,128-10-10,0104_eid_dnn_128-10-10_bottle_10_n02823428_5961.png,n02823428_5961.png,0.0,-2.2529328,-0.013062209,-1.5838277
alexnet_w1_mlp_simclrhn_probe2,1,105,NaN,bottle,bottle,4-10-10,0105_eid_dnn_4-10-10_bottle_10_n04579145_1856.png,n04579145_1856.png,1.0,0.9978098,0.34985563,0.45817283
alexnet_w1_mlp_simclrhn_probe2,1,106,NaN,bear,clock,64-10-10,0106_eid_dnn_64-10-10_clock_10_n02708093_7810.png,n02708093_7810.png,0.0,-3.8205674,0.28988272,-2.9065273
alexnet_w1_mlp_simclrhn_probe2,1,107,NaN,dog,dog,1-10-10,0107_eid_dnn_1-10-10_dog_10_n02100735_4949.png,n02100735_4949.png,1.0,0.015551716,-1.2709049,0.9096622
alexnet_w1_mlp_simclrhn_probe2,1,108,NaN,oven,chair,32-10-10,0108_eid_dnn_32-10-10_chair_10_n03376595_7275.png,n03376595_7275.png,0.0,-4.846334,-0.2637051,-3.240408
alexnet_w1_mlp_simclrhn_probe2,1,109,NaN,bottle,bottle,2-10-10,0109_eid_dnn_2-10-10_bottle_10_n03983396_16741.png,n03983396_16741.png,1.0,1.4528586,0.05138263,0.99099314
alexnet_w1_mlp_simclrhn_probe2,1,110,NaN,oven,boat,32-10-10,0110_eid_dnn_32-10-10_boat_10_n04612504_8719.png,n04612504_8719.png,0.0,-4.365859,-0.5051886,-2.7299063
alexnet_w1_mlp_simclrhn_probe2,1,111,NaN,chair,chair,1-10-10,0111_eid_dnn_1-10-10_chair_10_n02791124_3570.png,n02791124_3570.png,1.0,2.8192883,-0.0016753332,1.9947225
alexnet_w1_mlp_simclrhn_probe2,1,112,NaN,bear,bear,32-10-10,0112_eid_dnn_32-10-10_bear_10_n02132136_9557.png,n02132136_9557.png,1.0,0.66979504,0.13718778,0.37661022
alexnet_w1_mlp_simclrhn_probe2,1,113,NaN,bear,bird,64-10-10,0113_eid_dnn_64-10-10_bird_10_n02002556_5730.png,n02002556_5730.png,0.0,-1.9437118,0.041102692,-1.4034758
alexnet_w1_mlp_simclrhn_probe2,1,114,NaN,oven,oven,4-10-10,0114_eid_dnn_4-10-10_oven_10_n04111531_8959.png,n04111531_8959.png,1.0,0.5101005,-1.1080664,1.1442168
alexnet_w1_mlp_simclrhn_probe2,1,115,NaN,elephant,cat,128-10-10,0115_eid_dnn_128-10-10_cat_10_n02123159_8101.png,n02123159_8101.png,0.0,-0.5176763,0.46731484,-0.6964939
alexnet_w1_mlp_simclrhn_probe2,1,116,NaN,cat,cat,8-10-10,0116_eid_dnn_8-10-10_cat_10_n02123597_8890.png,n02123597_8890.png,1.0,0.13921559,0.02160952,0.08316005
alexnet_w1_mlp_simclrhn_probe2,1,117,NaN,elephant,elephant,1-10-10,0117_eid_dnn_1-10-10_elephant_10_n02504458_220.png,n02504458_220.png,1.0,9.547297,2.185105,5.2058554
alexnet_w1_mlp_simclrhn_probe2,1,118,NaN,oven,bicycle,128-10-10,0118_eid_dnn_128-10-10_bicycle_10_n02835271_2651.png,n02835271_2651.png,0.0,-2.6232595,-0.023929045,-1.8380042
alexnet_w1_mlp_simclrhn_probe2,1,119,NaN,oven,keyboard,64-10-10,0119_eid_dnn_64-10-10_keyboard_10_n04505470_1581.png,n04505470_1581.png,0.0,-7.808992,-0.573809,-5.116047
alexnet_w1_mlp_simclrhn_probe2,1,120,NaN,truck,truck,4-10-10,0120_eid_dnn_4-10-10_truck_10_n04467665_1719.png,n04467665_1719.png,1.0,2.6023471,0.9065528,1.1991076
alexnet_w1_mlp_simclrhn_probe2,1,121,NaN,truck,truck,2-10-10,0121_eid_dnn_2-10-10_truck_10_n04467665_30756.png,n04467665_30756.png,1.0,6.208737,1.5668162,3.2823336
alexnet_w1_mlp_simclrhn_probe2,1,122,NaN,oven,oven,64-10-10,0122_eid_dnn_64-10-10_oven_10_n04111531_1818.png,n04111531_1818.png,1.0,0.90767425,-0.96678686,1.3254442
alexnet_w1_mlp_simclrhn_probe2,1,123,NaN,elephant,elephant,64-10-10,0123_eid_dnn_64-10-10_elephant_10_n02504013_2974.png,n02504013_2974.png,1.0,0.7388748,0.54869455,0.13447773
alexnet_w1_mlp_simclrhn_probe2,1,124,NaN,oven,bicycle,128-10-10,0124_eid_dnn_128-10-10_bicycle_10_n03792782_7713.png,n03792782_7713.png,0.0,-1.7436124,-0.36004657,-0.9783288
alexnet_w1_mlp_simclrhn_probe2,1,125,NaN,bear,clock,16-10-10,0125_eid_dnn_16-10-10_clock_10_n04548280_9700.png,n04548280_9700.png,0.0,-3.3169582,-0.6820901,-1.8631332
alexnet_w1_mlp_simclrhn_probe2,1,126,NaN,oven,bottle,16-10-10,0126_eid_dnn_16-10-10_bottle_10_n04591713_1174.png,n04591713_1174.png,0.0,-2.9919193,0.79381454,-2.676918
alexnet_w1_mlp_simclrhn_probe2,1,127,NaN,oven,bear,64-10-10,0127_eid_dnn_64-10-10_bear_10_n02134418_1395.png,n02134418_1395.png,0.0,0.046573475,0.3270001,-0.19829157
alexnet_w1_mlp_simclrhn_probe2,1,128,NaN,oven,bottle,128-10-10,0128_eid_dnn_128-10-10_bottle_10_n04591713_36.png,n04591713_36.png,0.0,-2.6497085,0.5690275,-2.27599
alexnet_w1_mlp_simclrhn_probe2,1,129,NaN,oven,knife,8-10-10,0129_eid_dnn_8-10-10_knife_10_n03041632_21034.png,n03041632_21034.png,0.0,-2.7342544,-0.5524086,-1.5427979
alexnet_w1_mlp_simclrhn_probe2,1,130,NaN,bicycle,bicycle,1-10-10,0130_eid_dnn_1-10-10_bicycle_10_n03792782_11115.png,n03792782_11115.png,1.0,11.210518,-2.2214863,9.497861
alexnet_w1_mlp_simclrhn_probe2,1,131,NaN,oven,truck,16-10-10,0131_eid_dnn_16-10-10_truck_10_n03417042_5381.png,n03417042_5381.png,0.0,-3.732133,1.32973,-3.5792778
alexnet_w1_mlp_simclrhn_probe2,1,132,NaN,oven,boat,64-10-10,0132_eid_dnn_64-10-10_boat_10_n04612504_15258.png,n04612504_15258.png,0.0,-3.8911877,0.4975593,-3.103313
alexnet_w1_mlp_simclrhn_probe2,1,133,NaN,boat,boat,2-10-10,0133_eid_dnn_2-10-10_boat_10_n03662601_11972.png,n03662601_11972.png,1.0,3.161324,1.8593514,0.9206337
alexnet_w1_mlp_simclrhn_probe2,1,134,NaN,oven,dog,64-10-10,0134_eid_dnn_64-10-10_dog_10_n02092002_11459.png,n02092002_11459.png,0.0,-1.8431975,0.5220938,-1.6725134
alexnet_w1_mlp_simclrhn_probe2,1,135,NaN,oven,clock,64-10-10,0135_eid_dnn_64-10-10_clock_10_n04548280_6605.png,n04548280_6605.png,0.0,-3.2912226,-0.22021456,-2.1715305
alexnet_w1_mlp_simclrhn_probe2,1,136,NaN,bear,boat,64-10-10,0136_eid_dnn_64-10-10_boat_10_n03662601_5600.png,n03662601_5600.png,0.0,-1.2684362,-0.42898607,-0.5935809
alexnet_w1_mlp_simclrhn_probe2,1,137,NaN,bear,bear,32-10-10,0137_eid_dnn_32-10-10_bear_10_n02134084_8153.png,n02134084_8153.png,1.0,-0.24246798,-0.53245217,0.20504977
alexnet_w1_mlp_simclrhn_probe2,1,138,NaN,oven,cat,64-10-10,0138_eid_dnn_64-10-10_cat_10_n02124075_9225.png,n02124075_9225.png,0.0,-2.213432,0.86501956,-2.176794
alexnet_w1_mlp_simclrhn_probe2,1,139,NaN,oven,bicycle,8-10-10,0139_eid_dnn_8-10-10_bicycle_10_n03792782_3591.png,n03792782_3591.png,0.0,-3.1613326,0.9379843,-2.898655
alexnet_w1_mlp_simclrhn_probe2,1,140,NaN,oven,dog,64-10-10,0140_eid_dnn_64-10-10_dog_10_n02107142_31661.png,n02107142_31661.png,0.0,-1.5607979,0.67629266,-1.581862
alexnet_w1_mlp_simclrhn_probe2,1,141,NaN,elephant,elephant,8-10-10,0141_eid_dnn_8-10-10_elephant_10_n02504458_651.png,n02504458_651.png,1.0,6.016124,4.0685015,1.377177
alexnet_w1_mlp_simclrhn_probe2,1,142,NaN,oven,dog,128-10-10,0142_eid_dnn_128-10-10_dog_10_n02110958_15217.png,n02110958_15217.png,0.0,-1.3772382,0.4211356,-1.2716422
alexnet_w1_mlp_simclrhn_probe2,1,143,NaN,oven,oven,4-10-10,0143_eid_dnn_4-10-10_oven_10_n04111531_523.png,n04111531_523.png,1.0,1.784545,-0.81280255,1.8366021
alexnet_w1_mlp_simclrhn_probe2,1,144,NaN,car,car,4-10-10,0144_eid_dnn_4-10-10_car_10_n02814533_42884.png,n02814533_42884.png,1.0,0.29002056,-0.3344586,0.44157347
alexnet_w1_mlp_simclrhn_probe2,1,145,NaN,oven,car,64-10-10,0145_eid_dnn_64-10-10_car_10_n04285008_8017.png,n04285008_8017.png,0.0,-7.2801614,1.1203442,-5.9400544
alexnet_w1_mlp_simclrhn_probe2,1,146,NaN,car,car,1-10-10,0146_eid_dnn_1-10-10_car_10_n03100240_16766.png,n03100240_16766.png,1.0,2.0288928,1.5983566,0.30443504
alexnet_w1_mlp_simclrhn_probe2,1,147,NaN,elephant,elephant,8-10-10,0147_eid_dnn_8-10-10_elephant_10_n02504458_4593.png,n02504458_4593.png,1.0,4.9010754,1.814895,2.182259
alexnet_w1_mlp_simclrhn_probe2,1,148,NaN,oven,chair,64-10-10,0148_eid_dnn_64-10-10_chair_10_n02791124_1358.png,n02791124_1358.png,0.0,-7.7865996,-0.89143324,-4.875619
alexnet_w1_mlp_simclrhn_probe2,1,149,NaN,dog,dog,16-10-10,0149_eid_dnn_16-10-10_dog_10_n02095314_5363.png,n02095314_5363.png,1.0,-0.5201219,-0.54817015,0.019833127
alexnet_w1_mlp_simclrhn_probe2,1,150,NaN,bottle,clock,8-10-10,0150_eid_dnn_8-10-10_clock_10_n04548280_1413.png,n04548280_1413.png,0.0,-1.1609992,-0.4093211,-0.5315167
alexnet_w1_mlp_simclrhn_probe2,1,151,NaN,dog,dog,1-10-10,0151_eid_dnn_1-10-10_dog_10_n02105641_10948.png,n02105641_10948.png,1.0,2.1274698,-1.8379854,2.8040001
alexnet_w1_mlp_simclrhn_probe2,1,152,NaN,bear,dog,1-10-10,0152_eid_dnn_1-10-10_dog_10_n02113624_1691.png,n02113624_1691.png,0.0,-0.17124435,2.2960567,-1.7446454
alexnet_w1_mlp_simclrhn_probe2,1,153,NaN,truck,car,4-10-10,0153_eid_dnn_4-10-10_car_10_n03100240_2235.png,n03100240_2235.png,0.0,1.7988414,3.1609406,-0.96314967
alexnet_w1_mlp_simclrhn_probe2,1,154,NaN,oven,chair,2-10-10,0154_eid_dnn_2-10-10_chair_10_n04099969_56470.png,n04099969_56470.png,0.0,-0.72087824,-0.016489796,-0.49807784
alexnet_w1_mlp_simclrhn_probe2,1,155,NaN,oven,oven,2-10-10,0155_eid_dnn_2-10-10_oven_10_n04111531_5429.png,n04111531_5429.png,1.0,5.0119777,0.017317176,3.5317583
alexnet_w1_mlp_simclrhn_probe2,1,156,NaN,oven,keyboard,64-10-10,0156_eid_dnn_64-10-10_keyboard_10_n03085013_19317.png,n03085013_19317.png,0.0,-6.388582,0.96657336,-5.2008805
alexnet_w1_mlp_simclrhn_probe2,1,157,NaN,cat,bird,64-10-10,0157_eid_dnn_64-10-10_bird_10_n01601694_19650.png,n01601694_19650.png,0.0,-1.7001898,-1.2515082,-0.3172658
alexnet_w1_mlp_simclrhn_probe2,1,158,NaN,oven,clock,128-10-10,0158_eid_dnn_128-10-10_clock_10_n03196217_11199.png,n03196217_11199.png,0.0,-4.3656425,0.86600626,-3.6993344
alexnet_w1_mlp_simclrhn_probe2,1,159,NaN,cat,bottle,32-10-10,0159_eid_dnn_32-10-10_bottle_10_n03937543_2209.png,n03937543_2209.png,0.0,-2.9301164,-0.8020856,-1.504745
alexnet_w1_mlp_simclrhn_probe2,1,160,NaN,oven,car,64-10-10,0160_eid_dnn_64-10-10_car_10_n03100240_16939.png,n03100240_16939.png,0.0,-7.45956,1.4078218,-6.270186
alexnet_w1_mlp_simclrhn_probe2,1,161,NaN,oven,bottle,8-10-10,0161_eid_dnn_8-10-10_bottle_10_n04591713_2501.png,n04591713_2501.png,0.0,-1.2915751,-0.05113214,-0.8771257
alexnet_w1_mlp_simclrhn_probe2,1,162,NaN,bird,airplane,16-10-10,0162_eid_dnn_16-10-10_airplane_10_n02690373_10395.png,n02690373_10395.png,0.0,-1.0526803,-0.8102178,-0.17144684
alexnet_w1_mlp_simclrhn_probe2,1,163,NaN,oven,oven,8-10-10,0163_eid_dnn_8-10-10_oven_10_n04111531_3286.png,n04111531_3286.png,1.0,2.7022324,-2.3997684,3.6076593
alexnet_w1_mlp_simclrhn_probe2,1,164,NaN,oven,boat,64-10-10,0164_eid_dnn_64-10-10_boat_10_n04273569_13401.png,n04273569_13401.png,0.0,-5.0330925,2.014585,-4.9834604
alexnet_w1_mlp_simclrhn_probe2,1,165,NaN,oven,elephant,64-10-10,0165_eid_dnn_64-10-10_elephant_10_n02504458_12776.png,n02504458_12776.png,0.0,-0.93961746,0.43013692,-0.9685626
alexnet_w1_mlp_simclrhn_probe2,1,166,NaN,bird,bird,2-10-10,0166_eid_dnn_2-10-10_bird_10_n01828970_997.png,n01828970_997.png,1.0,2.358537,-1.7086649,2.8759458
alexnet_w1_mlp_simclrhn_probe2,1,167,NaN,bear,bear,8-10-10,0167_eid_dnn_8-10-10_bear_10_n02132136_10318.png,n02132136_10318.png,1.0,1.2450922,0.4357227,0.5723106
alexnet_w1_mlp_simclrhn_probe2,1,168,NaN,oven,oven,32-10-10,0168_eid_dnn_32-10-10_oven_10_n04111531_7883.png,n04111531_7883.png,1.0,2.4675412,-1.3152649,2.6748478
alexnet_w1_mlp_simclrhn_probe2,1,169,NaN,oven,clock,128-10-10,0169_eid_dnn_128-10-10_clock_10_n02708093_725.png,n02708093_725.png,0.0,-2.947161,0.2849092,-2.2854187
alexnet_w1_mlp_simclrhn_probe2,1,170,NaN,oven,bottle,16-10-10,0170_eid_dnn_16-10-10_bottle_10_n04557648_2052.png,n04557648_2052.png,0.0,-2.2489586,1.5292842,-2.671621
alexnet_w1_mlp_simclrhn_probe2,1,171,NaN,oven,keyboard,32-10-10,0171_eid_dnn_32-10-10_keyboard_10_n04505470_5036.png,n04505470_5036.png,0.0,-5.522746,1.6956035,-5.104144
alexnet_w1_mlp_simclrhn_probe2,1,172,NaN,elephant,elephant,8-10-10,0172_eid_dnn_8-10-10_elephant_10_n02504458_13352.png,n02504458_13352.png,1.0,3.2771063,1.9371535,0.94748974
alexnet_w1_mlp_simclrhn_probe2,1,173,NaN,dog,chair,4-10-10,0173_eid_dnn_4-10-10_chair_10_n04429376_30620.png,n04429376_30620.png,0.0,-2.1438665,0.2187252,-1.6706047
alexnet_w1_mlp_simclrhn_probe2,1,174,NaN,airplane,boat,16-10-10,0174_eid_dnn_16-10-10_boat_10_n03662601_2980.png,n03662601_2980.png,0.0,-1.0058997,-0.34273872,-0.4689256
alexnet_w1_mlp_simclrhn_probe2,1,175,NaN,bicycle,boat,8-10-10,0175_eid_dnn_8-10-10_boat_10_n03662601_4734.png,n03662601_4734.png,0.0,-1.8889036,-1.3076342,-0.41101953
alexnet_w1_mlp_simclrhn_probe2,1,176,NaN,bear,bear,2-10-10,0176_eid_dnn_2-10-10_bear_10_n02134418_4754.png,n02134418_4754.png,1.0,3.1025,1.7495558,0.956676
alexnet_w1_mlp_simclrhn_probe2,1,177,NaN,elephant,elephant,2-10-10,0177_eid_dnn_2-10-10_elephant_10_n02504013_8522.png,n02504013_8522.png,1.0,7.0355077,2.5934823,3.1409862
alexnet_w1_mlp_simclrhn_probe2,1,178,NaN,oven,bottle,64-10-10,0178_eid_dnn_64-10-10_bottle_10_n03937543_4863.png,n03937543_4863.png,0.0,-3.3544166,1.5696747,-3.4818585
alexnet_w1_mlp_simclrhn_probe2,1,179,NaN,oven,car,16-10-10,0179_eid_dnn_16-10-10_car_10_n04285008_10802.png,n04285008_10802.png,0.0,-7.6479073,1.908227,-6.7572074
alexnet_w1_mlp_simclrhn_probe2,1,180,NaN,oven,knife,64-10-10,0180_eid_dnn_64-10-10_knife_10_n03041632_6708.png,n03041632_6708.png,0.0,-1.9777353,0.90266395,-2.0367498
alexnet_w1_mlp_simclrhn_probe2,1,181,NaN,elephant,dog,1-10-10,0181_eid_dnn_1-10-10_dog_10_n02107142_61109.png,n02107142_61109.png,0.0,-0.30647016,2.3710353,-1.8932823
alexnet_w1_mlp_simclrhn_probe2,1,182,NaN,knife,clock,2-10-10,0182_eid_dnn_2-10-10_clock_10_n03196217_8139.png,n03196217_8139.png,0.0,-1.0070814,-0.015779302,-0.7009564
alexnet_w1_mlp_simclrhn_probe2,1,183,NaN,elephant,elephant,1-10-10,0183_eid_dnn_1-10-10_elephant_10_n02504458_6611.png,n02504458_6611.png,1.0,9.297064,1.8388157,5.273778
alexnet_w1_mlp_simclrhn_probe2,1,184,NaN,oven,truck,64-10-10,0184_eid_dnn_64-10-10_truck_10_n04467665_4401.png,n04467665_4401.png,0.0,-3.2240753,0.03879939,-2.307201
alexnet_w1_mlp_simclrhn_probe2,1,185,NaN,boat,boat,4-10-10,0185_eid_dnn_4-10-10_boat_10_n03344393_732.png,n03344393_732.png,1.0,1.2475759,-0.9754854,1.5719417
alexnet_w1_mlp_simclrhn_probe2,1,186,NaN,knife,knife,4-10-10,0186_eid_dnn_4-10-10_knife_10_n03041632_41381.png,n03041632_41381.png,1.0,-0.27024853,-0.4902174,0.15554146
alexnet_w1_mlp_simclrhn_probe2,1,187,NaN,oven,oven,32-10-10,0187_eid_dnn_32-10-10_oven_10_n04111531_22715.png,n04111531_22715.png,1.0,1.9031972,-0.25936973,1.5291657
alexnet_w1_mlp_simclrhn_probe2,1,188,NaN,oven,cat,16-10-10,0188_eid_dnn_16-10-10_cat_10_n02123045_3568.png,n02123045_3568.png,0.0,-1.2066311,-1.0188502,-0.13278112
alexnet_w1_mlp_simclrhn_probe2,1,189,NaN,truck,truck,2-10-10,0189_eid_dnn_2-10-10_truck_10_n03796401_18976.png,n03796401_18976.png,1.0,5.0411797,3.409152,1.1540178
alexnet_w1_mlp_simclrhn_probe2,1,190,NaN,oven,oven,8-10-10,0190_eid_dnn_8-10-10_oven_10_n04111531_15710.png,n04111531_15710.png,1.0,2.569079,-1.1741363,2.6468527
alexnet_w1_mlp_simclrhn_probe2,1,191,NaN,bear,elephant,32-10-10,0191_eid_dnn_32-10-10_elephant_10_n02504013_7232.png,n02504013_7232.png,0.0,-0.27589178,0.83571804,-0.78602684
alexnet_w1_mlp_simclrhn_probe2,1,192,NaN,oven,clock,64-10-10,0192_eid_dnn_64-10-10_clock_10_n02708093_5126.png,n02708093_5126.png,0.0,-2.9800723,-0.029972062,-2.086036
alexnet_w1_mlp_simclrhn_probe2,1,193,NaN,oven,cat,32-10-10,0193_eid_dnn_32-10-10_cat_10_n02123159_1598.png,n02123159_1598.png,0.0,-2.7917802,2.7569797,-3.9235659
alexnet_w1_mlp_simclrhn_probe2,1,194,NaN,car,car,1-10-10,0194_eid_dnn_1-10-10_car_10_n04285008_1661.png,n04285008_1661.png,1.0,8.977658,6.728344,1.5905055
alexnet_w1_mlp_simclrhn_probe2,1,195,NaN,clock,clock,2-10-10,0195_eid_dnn_2-10-10_clock_10_n02708093_5551.png,n02708093_5551.png,1.0,3.4556637,-0.8948754,3.0762959
alexnet_w1_mlp_simclrhn_probe2,1,196,NaN,airplane,airplane,128-10-10,0196_eid_dnn_128-10-10_airplane_10_n02690373_693.png,n02690373_693.png,1.0,-0.20101064,-0.6171428,0.29424986
alexnet_w1_mlp_simclrhn_probe2,1,197,NaN,elephant,elephant,2-10-10,0197_eid_dnn_2-10-10_elephant_10_n02504013_3409.png,n02504013_3409.png,1.0,6.455581,1.9166622,3.2095006
alexnet_w1_mlp_simclrhn_probe2,1,198,NaN,oven,dog,64-10-10,0198_eid_dnn_64-10-10_dog_10_n02113712_8182.png,n02113712_8182.png,0.0,-1.2896703,0.13014956,-1.0039643
alexnet_w1_mlp_simclrhn_probe2,1,199,NaN,bottle,bottle,1-10-10,0199_eid_dnn_1-10-10_bottle_10_n03983396_8322.png,n03983396_8322.png,1.0,1.9644291,-0.27861923,1.5860748
alexnet_w1_mlp_simclrhn_probe2,1,200,NaN,oven,keyboard,64-10-10,0200_eid_dnn_64-10-10_keyboard_10_n04505470_1040.png,n04505470_1040.png,0.0,-3.4317975,0.43349066,-2.7331717
alexnet_w1_mlp_simclrhn_probe2,1,201,NaN,oven,oven,32-10-10,0201_eid_dnn_32-10-10_oven_10_n04111531_11230.png,n04111531_11230.png,1.0,1.0367342,-1.2591858,1.6234605
alexnet_w1_mlp_simclrhn_probe2,1,202,NaN,cat,cat,1-10-10,0202_eid_dnn_1-10-10_cat_10_n02123394_6269.png,n02123394_6269.png,1.0,3.2140818,0.11211002,2.1934252
alexnet_w1_mlp_simclrhn_probe2,1,203,NaN,elephant,elephant,2-10-10,0203_eid_dnn_2-10-10_elephant_10_n02504013_2075.png,n02504013_2075.png,1.0,4.324384,0.6027948,2.631561
alexnet_w1_mlp_simclrhn_probe2,1,204,NaN,bear,bear,1-10-10,0204_eid_dnn_1-10-10_bear_10_n02133161_3795.png,n02133161_3795.png,1.0,0.96240914,0.20318073,0.5368556
alexnet_w1_mlp_simclrhn_probe2,1,205,NaN,oven,oven,2-10-10,0205_eid_dnn_2-10-10_oven_10_n04111531_4322.png,n04111531_4322.png,1.0,1.8663577,0.2626459,1.1339955
alexnet_w1_mlp_simclrhn_probe2,1,206,NaN,oven,bottle,4-10-10,0206_eid_dnn_4-10-10_bottle_10_n03937543_5799.png,n03937543_5799.png,0.0,-0.7059328,0.6855757,-0.9839452
alexnet_w1_mlp_simclrhn_probe2,1,207,NaN,bottle,keyboard,8-10-10,0207_eid_dnn_8-10-10_keyboard_10_n04505470_4414.png,n04505470_4414.png,0.0,0.0027759746,0.27225596,-0.19055113
alexnet_w1_mlp_simclrhn_probe2,1,208,NaN,cat,dog,4-10-10,0208_eid_dnn_4-10-10_dog_10_n02091032_8315.png,n02091032_8315.png,0.0,-0.063230425,0.740225,-0.5681288
alexnet_w1_mlp_simclrhn_probe2,1,209,NaN,knife,knife,2-10-10,0209_eid_dnn_2-10-10_knife_10_n03041632_39952.png,n03041632_39952.png,1.0,1.1675267,-0.73283976,1.343762
alexnet_w1_mlp_simclrhn_probe2,1,210,NaN,bottle,chair,8-10-10,0210_eid_dnn_8-10-10_chair_10_n02791124_634.png,n02791124_634.png,0.0,-4.331573,-1.9407984,-1.690533
alexnet_w1_mlp_simclrhn_probe2,1,211,NaN,bear,boat,32-10-10,0211_eid_dnn_32-10-10_boat_10_n03344393_3355.png,n03344393_3355.png,0.0,-1.58838,-0.5183528,-0.75662345
alexnet_w1_mlp_simclrhn_probe2,1,212,NaN,bear,dog,32-10-10,0212_eid_dnn_32-10-10_dog_10_n02102040_7188.png,n02102040_7188.png,0.0,-1.4633731,-0.6263104,-0.5918927
alexnet_w1_mlp_simclrhn_probe2,1,213,NaN,knife,chair,2-10-10,0213_eid_dnn_2-10-10_chair_10_n02791124_8711.png,n02791124_8711.png,0.0,-0.3564927,0.21116823,-0.4013969
alexnet_w1_mlp_simclrhn_probe2,1,214,NaN,bear,bear,64-10-10,0214_eid_dnn_64-10-10_bear_10_n02132136_6002.png,n02132136_6002.png,1.0,-0.22435942,-0.6138662,0.2754229
alexnet_w1_mlp_simclrhn_probe2,1,215,NaN,bicycle,boat,4-10-10,0215_eid_dnn_4-10-10_boat_10_n02951358_30184.png,n02951358_30184.png,0.0,0.7343871,1.4545186,-0.5092099
alexnet_w1_mlp_simclrhn_probe2,1,216,NaN,oven,bottle,128-10-10,0216_eid_dnn_128-10-10_bottle_10_n02823428_3414.png,n02823428_3414.png,0.0,-2.361769,0.7076919,-2.1704366
alexnet_w1_mlp_simclrhn_probe2,1,217,NaN,elephant,truck,4-10-10,0217_eid_dnn_4-10-10_truck_10_n04467665_13231.png,n04467665_13231.png,0.0,-1.3446887,0.58389133,-1.3637121
alexnet_w1_mlp_simclrhn_probe2,1,218,NaN,bicycle,chair,4-10-10,0218_eid_dnn_4-10-10_chair_10_n04099969_8063.png,n04099969_8063.png,0.0,-0.34248334,0.5745091,-0.6484116
alexnet_w1_mlp_simclrhn_probe2,1,219,NaN,bird,bird,4-10-10,0219_eid_dnn_4-10-10_bird_10_n01534433_10234.png,n01534433_10234.png,1.0,0.16949405,-2.1093278,1.6113704
alexnet_w1_mlp_simclrhn_probe2,1,220,NaN,elephant,elephant,4-10-10,0220_eid_dnn_4-10-10_elephant_10_n02504013_12533.png,n02504013_12533.png,1.0,1.9926038,1.6590014,0.23589255
alexnet_w1_mlp_simclrhn_probe2,1,221,NaN,airplane,knife,16-10-10,0221_eid_dnn_16-10-10_knife_10_n03041632_18995.png,n03041632_18995.png,0.0,-2.0079484,-0.12966403,-1.3281476
alexnet_w1_mlp_simclrhn_probe2,1,222,NaN,oven,chair,32-10-10,0222_eid_dnn_32-10-10_chair_10_n04429376_7123.png,n04429376_7123.png,0.0,-4.7354536,0.14182477,-3.4487567
alexnet_w1_mlp_simclrhn_probe2,1,223,NaN,oven,clock,64-10-10,0223_eid_dnn_64-10-10_clock_10_n03196217_9065.png,n03196217_9065.png,0.0,-2.2065275,-0.33172035,-1.3256888
alexnet_w1_mlp_simclrhn_probe2,1,224,NaN,cat,dog,4-10-10,0224_eid_dnn_4-10-10_dog_10_n02086079_4143.png,n02086079_4143.png,0.0,0.57640755,1.3394872,-0.5395788
alexnet_w1_mlp_simclrhn_probe2,1,225,NaN,elephant,bear,4-10-10,0225_eid_dnn_4-10-10_bear_10_n02132136_20162.png,n02132136_20162.png,0.0,0.9249252,1.5214604,-0.42181408
alexnet_w1_mlp_simclrhn_probe2,1,226,NaN,knife,bottle,1-10-10,0226_eid_dnn_1-10-10_bottle_10_n03983396_4165.png,n03983396_4165.png,0.0,-2.3117294,0.1505225,-1.741075
alexnet_w1_mlp_simclrhn_probe2,1,227,NaN,bird,bird,4-10-10,0227_eid_dnn_4-10-10_bird_10_n01824575_4470.png,n01824575_4470.png,1.0,0.82980555,-0.7697412,1.1310503
alexnet_w1_mlp_simclrhn_probe2,1,228,NaN,oven,oven,64-10-10,0228_eid_dnn_64-10-10_oven_10_n04111531_9695.png,n04111531_9695.png,1.0,0.8996837,-0.6068003,1.0652452
alexnet_w1_mlp_simclrhn_probe2,1,229,NaN,oven,bottle,64-10-10,0229_eid_dnn_64-10-10_bottle_10_n02823428_23181.png,n02823428_23181.png,0.0,-2.7380528,0.22373466,-2.0943
alexnet_w1_mlp_simclrhn_probe2,1,230,NaN,bicycle,bicycle,2-10-10,0230_eid_dnn_2-10-10_bicycle_10_n02835271_13674.png,n02835271_13674.png,1.0,4.2463284,-1.2960491,3.9190528
alexnet_w1_mlp_simclrhn_probe2,1,231,NaN,oven,chair,2-10-10,0231_eid_dnn_2-10-10_chair_10_n04429376_55747.png,n04429376_55747.png,0.0,0.942694,1.5407536,-0.422892
alexnet_w1_mlp_simclrhn_probe2,1,232,NaN,oven,boat,32-10-10,0232_eid_dnn_32-10-10_boat_10_n02951358_8346.png,n02951358_8346.png,0.0,-5.846645,0.792379,-4.694499
alexnet_w1_mlp_simclrhn_probe2,1,233,NaN,bear,elephant,16-10-10,0233_eid_dnn_16-10-10_elephant_10_n02504013_1088.png,n02504013_1088.png,0.0,1.5462294,2.2876296,-0.52424914
alexnet_w1_mlp_simclrhn_probe2,1,234,NaN,oven,car,8-10-10,0234_eid_dnn_8-10-10_car_10_n03100240_11191.png,n03100240_11191.png,0.0,-3.3612068,-0.28049234,-2.178394
alexnet_w1_mlp_simclrhn_probe2,1,235,NaN,chair,chair,8-10-10,0235_eid_dnn_8-10-10_chair_10_n04099969_19966.png,n04099969_19966.png,1.0,0.056993037,-0.16120955,0.15429254
alexnet_w1_mlp_simclrhn_probe2,1,236,NaN,oven,bicycle,32-10-10,0236_eid_dnn_32-10-10_bicycle_10_n03792782_15016.png,n03792782_15016.png,0.0,-4.094349,0.74947447,-3.4251006
alexnet_w1_mlp_simclrhn_probe2,1,237,NaN,bear,boat,128-10-10,0237_eid_dnn_128-10-10_boat_10_n02951358_17867.png,n02951358_17867.png,0.0,-3.093932,-0.10190076,-2.1156855
alexnet_w1_mlp_simclrhn_probe2,1,238,NaN,cat,cat,2-10-10,0238_eid_dnn_2-10-10_cat_10_n02123045_2364.png,n02123045_2364.png,1.0,3.7456753,-1.5079396,3.7148669
alexnet_w1_mlp_simclrhn_probe2,1,239,NaN,bear,bear,2-10-10,0239_eid_dnn_2-10-10_bear_10_n02132136_9433.png,n02132136_9433.png,1.0,3.2961876,1.3431822,1.3809834
alexnet_w1_mlp_simclrhn_probe2,1,240,NaN,oven,clock,32-10-10,0240_eid_dnn_32-10-10_clock_10_n03196217_3167.png,n03196217_3167.png,0.0,-4.450642,0.44121772,-3.4590673
alexnet_w1_mlp_simclrhn_probe2,1,241,NaN,oven,clock,32-10-10,0241_eid_dnn_32-10-10_clock_10_n03196217_3129.png,n03196217_3129.png,0.0,-2.2526925,0.35690147,-1.8452616
alexnet_w1_mlp_simclrhn_probe2,1,242,NaN,elephant,keyboard,128-10-10,0242_eid_dnn_128-10-10_keyboard_10_n03085013_6067.png,n03085013_6067.png,0.0,-2.999053,-0.5702945,-1.7173917
alexnet_w1_mlp_simclrhn_probe2,1,243,NaN,keyboard,keyboard,2-10-10,0243_eid_dnn_2-10-10_keyboard_10_n03085013_24648.png,n03085013_24648.png,1.0,2.4153218,-0.15189382,1.8152957
alexnet_w1_mlp_simclrhn_probe2,1,244,NaN,oven,oven,32-10-10,0244_eid_dnn_32-10-10_oven_10_n04111531_6695.png,n04111531_6695.png,1.0,1.3811593,-0.034749098,1.0011985
alexnet_w1_mlp_simclrhn_probe2,1,245,NaN,dog,dog,4-10-10,0245_eid_dnn_4-10-10_dog_10_n02111500_4875.png,n02111500_4875.png,1.0,0.1387206,-0.005752941,0.10215822
alexnet_w1_mlp_simclrhn_probe2,1,246,NaN,oven,oven,32-10-10,0246_eid_dnn_32-10-10_oven_10_n04111531_13018.png,n04111531_13018.png,1.0,0.92787784,-1.5917479,1.7816445
alexnet_w1_mlp_simclrhn_probe2,1,247,NaN,oven,keyboard,128-10-10,0247_eid_dnn_128-10-10_keyboard_10_n03085013_23030.png,n03085013_23030.png,0.0,-4.60448,0.7197943,-3.7648304
alexnet_w1_mlp_simclrhn_probe2,1,248,NaN,dog,cat,8-10-10,0248_eid_dnn_8-10-10_cat_10_n02123045_8409.png,n02123045_8409.png,0.0,-0.64299995,0.015726363,-0.46578985
alexnet_w1_mlp_simclrhn_probe2,1,249,NaN,bicycle,bicycle,4-10-10,0249_eid_dnn_4-10-10_bicycle_10_n03792782_37777.png,n03792782_37777.png,1.0,2.0027003,-0.98932534,2.1156816
alexnet_w1_mlp_simclrhn_probe2,1,250,NaN,bear,airplane,64-10-10,0250_eid_dnn_64-10-10_airplane_10_n02690373_614.png,n02690373_614.png,0.0,-1.1432083,0.11311294,-0.8883532
alexnet_w1_mlp_simclrhn_probe2,1,251,NaN,oven,keyboard,128-10-10,0251_eid_dnn_128-10-10_keyboard_10_n03085013_19775.png,n03085013_19775.png,0.0,-6.441951,0.39198855,-4.832325
alexnet_w1_mlp_simclrhn_probe2,1,252,NaN,bear,bear,8-10-10,0252_eid_dnn_8-10-10_bear_10_n02133161_1244.png,n02133161_1244.png,1.0,2.6604977,1.3782761,0.9066676
alexnet_w1_mlp_simclrhn_probe2,1,253,NaN,car,keyboard,2-10-10,0253_eid_dnn_2-10-10_keyboard_10_n04505470_4368.png,n04505470_4368.png,0.0,0.07289398,3.4008296,-2.353206
alexnet_w1_mlp_simclrhn_probe2,1,254,NaN,oven,oven,2-10-10,0254_eid_dnn_2-10-10_oven_10_n04111531_7728.png,n04111531_7728.png,1.0,3.8744407,0.15164414,2.6324146
alexnet_w1_mlp_simclrhn_probe2,1,255,NaN,oven,clock,8-10-10,0255_eid_dnn_8-10-10_clock_10_n04548280_1.png,n04548280_1.png,0.0,-3.3302548,1.5551667,-3.454515
alexnet_w1_mlp_simclrhn_probe2,1,256,NaN,oven,cat,64-10-10,0256_eid_dnn_64-10-10_cat_10_n02123394_3062.png,n02123394_3062.png,0.0,-1.78515,1.0110576,-1.9772174
alexnet_w1_mlp_simclrhn_probe2,1,257,NaN,elephant,elephant,2-10-10,0257_eid_dnn_2-10-10_elephant_10_n02504013_466.png,n02504013_466.png,1.0,5.308374,-0.077596515,3.8084564
alexnet_w1_mlp_simclrhn_probe2,1,258,NaN,elephant,elephant,1-10-10,0258_eid_dnn_1-10-10_elephant_10_n02504013_6275.png,n02504013_6275.png,1.0,5.143244,0.5201064,3.269052
alexnet_w1_mlp_simclrhn_probe2,1,259,NaN,bird,bird,4-10-10,0259_eid_dnn_4-10-10_bird_10_n01560419_5466.png,n01560419_5466.png,1.0,0.315434,-2.8648658,2.2488115
alexnet_w1_mlp_simclrhn_probe2,1,260,NaN,oven,truck,8-10-10,0260_eid_dnn_8-10-10_truck_10_n03796401_5227.png,n03796401_5227.png,0.0,-4.9521275,-0.49428922,-3.1521676
alexnet_w1_mlp_simclrhn_probe2,1,261,NaN,chair,chair,2-10-10,0261_eid_dnn_2-10-10_chair_10_n04099969_25124.png,n04099969_25124.png,1.0,1.6828537,1.1129646,0.40297243
alexnet_w1_mlp_simclrhn_probe2,1,262,NaN,bear,elephant,64-10-10,0262_eid_dnn_64-10-10_elephant_10_n02504013_7209.png,n02504013_7209.png,0.0,-0.14165416,0.10036115,-0.17113067
alexnet_w1_mlp_simclrhn_probe2,1,263,NaN,cat,cat,1-10-10,0263_eid_dnn_1-10-10_cat_10_n02123597_4756.png,n02123597_4756.png,1.0,1.0795064,0.43479088,0.45588276
alexnet_w1_mlp_simclrhn_probe2,1,264,NaN,oven,bicycle,16-10-10,0264_eid_dnn_16-10-10_bicycle_10_n02835271_4654.png,n02835271_4654.png,0.0,-3.0614963,-1.5467498,-1.0710875
alexnet_w1_mlp_simclrhn_probe2,1,265,NaN,keyboard,keyboard,1-10-10,0265_eid_dnn_1-10-10_keyboard_10_n04505470_2389.png,n04505470_2389.png,1.0,4.575546,1.6116152,2.0958154
alexnet_w1_mlp_simclrhn_probe2,1,266,NaN,oven,knife,128-10-10,0266_eid_dnn_128-10-10_knife_10_n03041632_379.png,n03041632_379.png,0.0,-1.5117403,-0.057160966,-1.028543
alexnet_w1_mlp_simclrhn_probe2,1,267,NaN,bicycle,clock,8-10-10,0267_eid_dnn_8-10-10_clock_10_n02708093_899.png,n02708093_899.png,0.0,-1.4039593,-0.4186074,-0.696749
alexnet_w1_mlp_simclrhn_probe2,1,268,NaN,oven,truck,128-10-10,0268_eid_dnn_128-10-10_truck_10_n03417042_10154.png,n03417042_10154.png,0.0,-8.091021,0.8741072,-6.339303
alexnet_w1_mlp_simclrhn_probe2,1,269,NaN,bottle,bottle,2-10-10,0269_eid_dnn_2-10-10_bottle_10_n04579145_3415.png,n04579145_3415.png,1.0,-0.19954033,-1.6936201,1.056474
alexnet_w1_mlp_simclrhn_probe2,1,270,NaN,bear,chair,16-10-10,0270_eid_dnn_16-10-10_chair_10_n02791124_146.png,n02791124_146.png,0.0,-3.1380906,1.2158079,-3.0786712
alexnet_w1_mlp_simclrhn_probe2,1,271,NaN,oven,elephant,128-10-10,0271_eid_dnn_128-10-10_elephant_10_n02504458_2835.png,n02504458_2835.png,0.0,-1.4124464,0.59988856,-1.4229356
alexnet_w1_mlp_simclrhn_probe2,1,272,NaN,bicycle,bicycle,1-10-10,0272_eid_dnn_1-10-10_bicycle_10_n03792782_13835.png,n03792782_13835.png,1.0,2.2826102,-0.08261181,1.6724645
alexnet_w1_mlp_simclrhn_probe2,1,273,NaN,oven,bicycle,32-10-10,0273_eid_dnn_32-10-10_bicycle_10_n02835271_12926.png,n02835271_12926.png,0.0,-3.8896446,0.915326,-3.3976274
alexnet_w1_mlp_simclrhn_probe2,1,274,NaN,dog,dog,2-10-10,0274_eid_dnn_2-10-10_dog_10_n02110185_11605.png,n02110185_11605.png,1.0,1.7641356,0.38399568,0.9759063
alexnet_w1_mlp_simclrhn_probe2,1,275,NaN,bear,elephant,128-10-10,0275_eid_dnn_128-10-10_elephant_10_n02504458_3091.png,n02504458_3091.png,0.0,-0.117240325,0.39700067,-0.3636233
alexnet_w1_mlp_simclrhn_probe2,1,276,NaN,oven,chair,128-10-10,0276_eid_dnn_128-10-10_chair_10_n04099969_5233.png,n04099969_5233.png,0.0,-5.278102,0.04937593,-3.7670958
alexnet_w1_mlp_simclrhn_probe2,1,277,NaN,cat,dog,2-10-10,0277_eid_dnn_2-10-10_dog_10_n02097209_7628.png,n02097209_7628.png,0.0,0.3849878,0.43552908,-0.035738084
alexnet_w1_mlp_simclrhn_probe2,1,278,NaN,bear,cat,8-10-10,0278_eid_dnn_8-10-10_cat_10_n02123597_10941.png,n02123597_10941.png,0.0,0.48977765,1.1974359,-0.5003899
alexnet_w1_mlp_simclrhn_probe2,1,279,NaN,oven,clock,16-10-10,0279_eid_dnn_16-10-10_clock_10_n02708093_3006.png,n02708093_3006.png,0.0,-2.7428315,-0.7718605,-1.393687
alexnet_w1_mlp_simclrhn_probe2,1,280,NaN,truck,truck,1-10-10,0280_eid_dnn_1-10-10_truck_10_n03796401_26620.png,n03796401_26620.png,1.0,1.0894185,-0.034764796,0.79491764
alexnet_w1_mlp_simclrhn_probe2,1,281,NaN,oven,bear,128-10-10,0281_eid_dnn_128-10-10_bear_10_n02134418_12733.png,n02134418_12733.png,0.0,-0.14801636,1.0893586,-0.8749562
alexnet_w1_mlp_simclrhn_probe2,1,282,NaN,knife,knife,2-10-10,0282_eid_dnn_2-10-10_knife_10_n03041632_4806.png,n03041632_4806.png,1.0,0.22561567,-1.3287998,1.0991378
alexnet_w1_mlp_simclrhn_probe2,1,283,NaN,oven,oven,4-10-10,0283_eid_dnn_4-10-10_oven_10_n04111531_17922.png,n04111531_17922.png,1.0,3.4700694,-0.2799243,2.6516461
alexnet_w1_mlp_simclrhn_probe2,1,284,NaN,bottle,bottle,1-10-10,0284_eid_dnn_1-10-10_bottle_10_n04579145_6818.png,n04579145_6818.png,1.0,2.6550126,-1.623702,3.0255082
alexnet_w1_mlp_simclrhn_probe2,1,285,NaN,keyboard,keyboard,4-10-10,0285_eid_dnn_4-10-10_keyboard_10_n04505470_494.png,n04505470_494.png,1.0,2.6922479,0.55561054,1.5108306
alexnet_w1_mlp_simclrhn_probe2,1,286,NaN,cat,cat,8-10-10,0286_eid_dnn_8-10-10_cat_10_n02123045_10834.png,n02123045_10834.png,1.0,1.1885489,0.5049349,0.48338813
alexnet_w1_mlp_simclrhn_probe2,1,287,NaN,oven,cat,128-10-10,0287_eid_dnn_128-10-10_cat_10_n02123394_176.png,n02123394_176.png,0.0,-0.40426144,0.7414882,-0.8101674
alexnet_w1_mlp_simclrhn_probe2,1,288,NaN,oven,chair,128-10-10,0288_eid_dnn_128-10-10_chair_10_n03376595_2891.png,n03376595_2891.png,0.0,-6.0618477,-0.0293273,-4.265636
alexnet_w1_mlp_simclrhn_probe2,1,289,NaN,dog,dog,8-10-10,0289_eid_dnn_8-10-10_dog_10_n02093256_5647.png,n02093256_5647.png,1.0,1.2495967,1.2023084,0.033437878
alexnet_w1_mlp_simclrhn_probe2,1,290,NaN,oven,knife,64-10-10,0290_eid_dnn_64-10-10_knife_10_n03041632_33326.png,n03041632_33326.png,0.0,-2.48205,0.19769022,-1.8948625
alexnet_w1_mlp_simclrhn_probe2,1,291,NaN,oven,airplane,8-10-10,0291_eid_dnn_8-10-10_airplane_10_n02690373_2856.png,n02690373_2856.png,0.0,-3.6239748,1.1249617,-3.3580053
alexnet_w1_mlp_simclrhn_probe2,1,292,NaN,oven,bicycle,128-10-10,0292_eid_dnn_128-10-10_bicycle_10_n03792782_9651.png,n03792782_9651.png,0.0,-2.5764718,0.576525,-2.2295055
alexnet_w1_mlp_simclrhn_probe2,1,293,NaN,bicycle,bicycle,2-10-10,0293_eid_dnn_2-10-10_bicycle_10_n02835271_7438.png,n02835271_7438.png,1.0,2.5936155,-1.6107008,2.9729004
alexnet_w1_mlp_simclrhn_probe2,1,294,NaN,oven,bicycle,128-10-10,0294_eid_dnn_128-10-10_bicycle_10_n02835271_26639.png,n02835271_26639.png,0.0,-2.770686,0.73264843,-2.4772315
alexnet_w1_mlp_simclrhn_probe2,1,295,NaN,keyboard,keyboard,8-10-10,0295_eid_dnn_8-10-10_keyboard_10_n04505470_4458.png,n04505470_4458.png,1.0,2.7092211,0.02053443,1.9011886
alexnet_w1_mlp_simclrhn_probe2,1,296,NaN,oven,dog,64-10-10,0296_eid_dnn_64-10-10_dog_10_n02106662_24847.png,n02106662_24847.png,0.0,-2.2463877,0.3464304,-1.8333993
alexnet_w1_mlp_simclrhn_probe2,1,297,NaN,oven,chair,32-10-10,0297_eid_dnn_32-10-10_chair_10_n03376595_8995.png,n03376595_8995.png,0.0,-4.13094,0.7309555,-3.4378793
alexnet_w1_mlp_simclrhn_probe2,1,298,NaN,oven,bicycle,64-10-10,0298_eid_dnn_64-10-10_bicycle_10_n03792782_6030.png,n03792782_6030.png,0.0,-2.4816031,-0.048669454,-1.7203441
alexnet_w1_mlp_simclrhn_probe2,1,299,NaN,elephant,elephant,4-10-10,0299_eid_dnn_4-10-10_elephant_10_n02504458_7258.png,n02504458_7258.png,1.0,2.3301053,1.3548476,0.6896114
alexnet_w1_mlp_simclrhn_probe2,1,300,NaN,oven,boat,128-10-10,0300_eid_dnn_128-10-10_boat_10_n03662601_23903.png,n03662601_23903.png,0.0,-3.5010421,0.089064464,-2.5385888
alexnet_w1_mlp_simclrhn_probe2,1,301,NaN,oven,bird,16-10-10,0301_eid_dnn_16-10-10_bird_10_n02002724_578.png,n02002724_578.png,0.0,-2.2001972,0.7776004,-2.1056209
alexnet_w1_mlp_simclrhn_probe2,1,302,NaN,oven,chair,64-10-10,0302_eid_dnn_64-10-10_chair_10_n03376595_2393.png,n03376595_2393.png,0.0,-4.013444,-0.2644167,-2.6509626
alexnet_w1_mlp_simclrhn_probe2,1,303,NaN,airplane,boat,16-10-10,0303_eid_dnn_16-10-10_boat_10_n03662601_5118.png,n03662601_5118.png,0.0,-0.4226361,0.23235705,-0.4631501
alexnet_w1_mlp_simclrhn_probe2,1,304,NaN,oven,chair,8-10-10,0304_eid_dnn_8-10-10_chair_10_n04429376_21845.png,n04429376_21845.png,0.0,-1.892359,0.5116472,-1.6998892
alexnet_w1_mlp_simclrhn_probe2,1,305,NaN,bear,dog,8-10-10,0305_eid_dnn_8-10-10_dog_10_n02102040_2216.png,n02102040_2216.png,0.0,-0.9098655,-0.82730246,-0.058380887
alexnet_w1_mlp_simclrhn_probe2,1,306,NaN,elephant,airplane,8-10-10,0306_eid_dnn_8-10-10_airplane_10_n02690373_3032.png,n02690373_3032.png,0.0,-1.2357628,0.9350606,-1.5350041
alexnet_w1_mlp_simclrhn_probe2,1,307,NaN,cat,dog,8-10-10,0307_eid_dnn_8-10-10_dog_10_n02100735_2228.png,n02100735_2228.png,0.0,-0.46501002,-0.32869878,-0.0963866
alexnet_w1_mlp_simclrhn_probe2,1,308,NaN,bird,bird,8-10-10,0308_eid_dnn_8-10-10_bird_10_n01532829_13864.png,n01532829_13864.png,1.0,-0.5135243,-0.6622604,0.10517232
alexnet_w1_mlp_simclrhn_probe2,1,309,NaN,bear,bird,64-10-10,0309_eid_dnn_64-10-10_bird_10_n01601694_13787.png,n01601694_13787.png,0.0,-1.6890718,-0.28626418,-0.9919348
alexnet_w1_mlp_simclrhn_probe2,1,310,NaN,bear,bear,64-10-10,0310_eid_dnn_64-10-10_bear_10_n02134084_22150.png,n02134084_22150.png,1.0,0.14533389,-0.2142077,0.2542343
alexnet_w1_mlp_simclrhn_probe2,1,311,NaN,oven,knife,16-10-10,0311_eid_dnn_16-10-10_knife_10_n03041632_29427.png,n03041632_29427.png,0.0,-2.4888327,1.3122066,-2.6877406
alexnet_w1_mlp_simclrhn_probe2,1,312,NaN,oven,chair,4-10-10,0312_eid_dnn_4-10-10_chair_10_n02791124_2804.png,n02791124_2804.png,0.0,-0.2838908,0.6119768,-0.63347405
alexnet_w1_mlp_simclrhn_probe2,1,313,NaN,bottle,bottle,4-10-10,0313_eid_dnn_4-10-10_bottle_10_n04591713_5046.png,n04591713_5046.png,1.0,5.052134,2.529531,1.7837497
alexnet_w1_mlp_simclrhn_probe2,1,314,NaN,oven,bicycle,128-10-10,0314_eid_dnn_128-10-10_bicycle_10_n03792782_4210.png,n03792782_4210.png,0.0,-3.910232,0.06338495,-2.8097715
alexnet_w1_mlp_simclrhn_probe2,1,315,NaN,oven,cat,128-10-10,0315_eid_dnn_128-10-10_cat_10_n02123159_1596.png,n02123159_1596.png,0.0,-0.59776145,0.41879132,-0.7188114
alexnet_w1_mlp_simclrhn_probe2,1,316,NaN,airplane,car,2-10-10,0316_eid_dnn_2-10-10_car_10_n03100240_17588.png,n03100240_17588.png,0.0,2.6188068,4.156177,-1.0870849
alexnet_w1_mlp_simclrhn_probe2,1,317,NaN,dog,keyboard,4-10-10,0317_eid_dnn_4-10-10_keyboard_10_n03085013_23295.png,n03085013_23295.png,0.0,-7.314229,1.623074,-6.3196282
alexnet_w1_mlp_simclrhn_probe2,1,318,NaN,oven,oven,32-10-10,0318_eid_dnn_32-10-10_oven_10_n04111531_4879.png,n04111531_4879.png,1.0,1.5603776,-0.32254425,1.3314269
alexnet_w1_mlp_simclrhn_probe2,1,319,NaN,oven,keyboard,32-10-10,0319_eid_dnn_32-10-10_keyboard_10_n04505470_4569.png,n04505470_4569.png,0.0,-6.392412,1.5946059,-5.6476746
alexnet_w1_mlp_simclrhn_probe2,1,320,NaN,elephant,truck,8-10-10,0320_eid_dnn_8-10-10_truck_10_n04467665_24190.png,n04467665_24190.png,0.0,-2.7645378,1.1257688,-2.7508621
alexnet_w1_mlp_simclrhn_probe2,1,321,NaN,cat,cat,4-10-10,0321_eid_dnn_4-10-10_cat_10_n02124075_15405.png,n02124075_15405.png,1.0,0.6232261,0.42590988,0.13952364
alexnet_w1_mlp_simclrhn_probe2,1,322,NaN,dog,knife,8-10-10,0322_eid_dnn_8-10-10_knife_10_n03041632_24817.png,n03041632_24817.png,0.0,-2.1232924,-0.14187062,-1.4010768
alexnet_w1_mlp_simclrhn_probe2,1,323,NaN,bear,elephant,64-10-10,0323_eid_dnn_64-10-10_elephant_10_n02504013_5505.png,n02504013_5505.png,0.0,-0.67076015,0.22039583,-0.63014245
alexnet_w1_mlp_simclrhn_probe2,1,324,NaN,elephant,airplane,8-10-10,0324_eid_dnn_8-10-10_airplane_10_n02690373_8846.png,n02690373_8846.png,0.0,-0.13264993,0.77141196,-0.63926834
alexnet_w1_mlp_simclrhn_probe2,1,325,NaN,bear,truck,32-10-10,0325_eid_dnn_32-10-10_truck_10_n04467665_50806.png,n04467665_50806.png,0.0,-2.8245182,-0.33126524,-1.7629961
alexnet_w1_mlp_simclrhn_probe2,1,326,NaN,elephant,elephant,4-10-10,0326_eid_dnn_4-10-10_elephant_10_n02504458_5539.png,n02504458_5539.png,1.0,6.23904,1.627638,3.2607536
alexnet_w1_mlp_simclrhn_probe2,1,327,NaN,boat,boat,1-10-10,0327_eid_dnn_1-10-10_boat_10_n03344393_1178.png,n03344393_1178.png,1.0,2.4891624,1.1904107,0.9183562
alexnet_w1_mlp_simclrhn_probe2,1,328,NaN,truck,truck,4-10-10,0328_eid_dnn_4-10-10_truck_10_n04467665_10025.png,n04467665_10025.png,1.0,7.262904,3.6578076,2.5491884
alexnet_w1_mlp_simclrhn_probe2,1,329,NaN,bottle,clock,4-10-10,0329_eid_dnn_4-10-10_clock_10_n02708093_2869.png,n02708093_2869.png,0.0,-0.27361032,-0.20680717,-0.047236968
alexnet_w1_mlp_simclrhn_probe2,1,330,NaN,bottle,bottle,8-10-10,0330_eid_dnn_8-10-10_bottle_10_n03983396_4879.png,n03983396_4879.png,1.0,-0.7182477,-1.0601606,0.24176896
alexnet_w1_mlp_simclrhn_probe2,1,331,NaN,oven,keyboard,128-10-10,0331_eid_dnn_128-10-10_keyboard_10_n03085013_10367.png,n03085013_10367.png,0.0,-2.8775249,0.25538474,-2.2153015
alexnet_w1_mlp_simclrhn_probe2,1,332,NaN,oven,bird,64-10-10,0332_eid_dnn_64-10-10_bird_10_n01860187_21300.png,n01860187_21300.png,0.0,-2.5817585,0.4157087,-2.1195295
alexnet_w1_mlp_simclrhn_probe2,1,333,NaN,oven,knife,32-10-10,0333_eid_dnn_32-10-10_knife_10_n03041632_5302.png,n03041632_5302.png,0.0,-1.6272388,-0.1877403,-1.0178791
alexnet_w1_mlp_simclrhn_probe2,1,334,NaN,bear,bear,4-10-10,0334_eid_dnn_4-10-10_bear_10_n02134084_5274.png,n02134084_5274.png,1.0,4.2704854,1.996299,1.6080927
alexnet_w1_mlp_simclrhn_probe2,1,335,NaN,airplane,knife,4-10-10,0335_eid_dnn_4-10-10_knife_10_n03041632_48816.png,n03041632_48816.png,0.0,-0.75776273,0.7842119,-1.0903407
alexnet_w1_mlp_simclrhn_probe2,1,336,NaN,oven,elephant,16-10-10,0336_eid_dnn_16-10-10_elephant_10_n02504013_3295.png,n02504013_3295.png,0.0,-2.375565,0.84321725,-2.276023
alexnet_w1_mlp_simclrhn_probe2,1,337,NaN,oven,truck,128-10-10,0337_eid_dnn_128-10-10_truck_10_n03417042_2478.png,n03417042_2478.png,0.0,-5.176094,0.47479928,-3.995785
alexnet_w1_mlp_simclrhn_probe2,1,338,NaN,oven,oven,32-10-10,0338_eid_dnn_32-10-10_oven_10_n04111531_5350.png,n04111531_5350.png,1.0,0.5105642,-0.38687074,0.63458234
alexnet_w1_mlp_simclrhn_probe2,1,339,NaN,oven,airplane,8-10-10,0339_eid_dnn_8-10-10_airplane_10_n02690373_1663.png,n02690373_1663.png,0.0,-3.7286134,-0.17166305,-2.5151436
alexnet_w1_mlp_simclrhn_probe2,1,340,NaN,boat,boat,4-10-10,0340_eid_dnn_4-10-10_boat_10_n03344393_1422.png,n03344393_1422.png,1.0,1.2990474,-0.5235038,1.2887383
alexnet_w1_mlp_simclrhn_probe2,1,341,NaN,oven,cat,32-10-10,0341_eid_dnn_32-10-10_cat_10_n02123159_3312.png,n02123159_3312.png,0.0,-1.2055112,0.12209764,-0.93876123
alexnet_w1_mlp_simclrhn_probe2,1,342,NaN,bear,chair,64-10-10,0342_eid_dnn_64-10-10_chair_10_n03376595_6171.png,n03376595_6171.png,0.0,-5.318488,0.10635851,-3.8359458
alexnet_w1_mlp_simclrhn_probe2,1,343,NaN,elephant,bottle,8-10-10,0343_eid_dnn_8-10-10_bottle_10_n04591713_1616.png,n04591713_1616.png,0.0,-0.40787295,-0.37778047,-0.021278596
alexnet_w1_mlp_simclrhn_probe2,1,344,NaN,bear,bear,128-10-10,0344_eid_dnn_128-10-10_bear_10_n02133161_1197.png,n02133161_1197.png,1.0,-0.0682645,-0.20291097,0.095209435
alexnet_w1_mlp_simclrhn_probe2,1,345,NaN,oven,truck,4-10-10,0345_eid_dnn_4-10-10_truck_10_n04467665_663.png,n04467665_663.png,0.0,-3.684708,2.846604,-4.6183352
alexnet_w1_mlp_simclrhn_probe2,1,346,NaN,bear,bear,4-10-10,0346_eid_dnn_4-10-10_bear_10_n02132136_2771.png,n02132136_2771.png,1.0,2.1462815,-1.0073861,2.2299798
alexnet_w1_mlp_simclrhn_probe2,1,347,NaN,oven,cat,16-10-10,0347_eid_dnn_16-10-10_cat_10_n02123394_12.png,n02123394_12.png,0.0,-1.8013452,-0.6555708,-0.81018484
alexnet_w1_mlp_simclrhn_probe2,1,348,NaN,oven,car,8-10-10,0348_eid_dnn_8-10-10_car_10_n04285008_1795.png,n04285008_1795.png,0.0,-5.8177943,-0.47881618,-3.7752278
alexnet_w1_mlp_simclrhn_probe2,1,349,NaN,bear,boat,4-10-10,0349_eid_dnn_4-10-10_boat_10_n04273569_1023.png,n04273569_1023.png,0.0,-0.29290074,0.27439535,-0.40113893
alexnet_w1_mlp_simclrhn_probe2,1,350,NaN,boat,boat,1-10-10,0350_eid_dnn_1-10-10_boat_10_n03662601_21775.png,n03662601_21775.png,1.0,5.303697,1.7927947,2.482583
alexnet_w1_mlp_simclrhn_probe2,1,351,NaN,knife,clock,1-10-10,0351_eid_dnn_1-10-10_clock_10_n03196217_71.png,n03196217_71.png,0.0,0.19495218,1.2027614,-0.7126288
alexnet_w1_mlp_simclrhn_probe2,1,352,NaN,airplane,keyboard,4-10-10,0352_eid_dnn_4-10-10_keyboard_10_n04505470_3122.png,n04505470_3122.png,0.0,-0.9489762,-0.40817496,-0.38240427
alexnet_w1_mlp_simclrhn_probe2,1,353,NaN,oven,dog,32-10-10,0353_eid_dnn_32-10-10_dog_10_n02099849_4640.png,n02099849_4640.png,0.0,-1.6615726,0.8523569,-1.7776165
alexnet_w1_mlp_simclrhn_probe2,1,354,NaN,oven,bottle,64-10-10,0354_eid_dnn_64-10-10_bottle_10_n02823428_6418.png,n02823428_6418.png,0.0,-2.3418553,0.3728255,-1.9195691
alexnet_w1_mlp_simclrhn_probe2,1,355,NaN,oven,car,8-10-10,0355_eid_dnn_8-10-10_car_10_n04285008_11704.png,n04285008_11704.png,0.0,-5.09667,1.0154649,-4.3219323
alexnet_w1_mlp_simclrhn_probe2,1,356,NaN,bottle,clock,32-10-10,0356_eid_dnn_32-10-10_clock_10_n02708093_3544.png,n02708093_3544.png,0.0,-1.1342722,-0.84079856,-0.20751722
alexnet_w1_mlp_simclrhn_probe2,1,357,NaN,oven,clock,8-10-10,0357_eid_dnn_8-10-10_clock_10_n04548280_4599.png,n04548280_4599.png,0.0,-2.635947,-0.78138846,-1.3113708
alexnet_w1_mlp_simclrhn_probe2,1,358,NaN,oven,car,128-10-10,0358_eid_dnn_128-10-10_car_10_n03100240_6259.png,n03100240_6259.png,0.0,-8.181527,1.8266326,-7.0768375
alexnet_w1_mlp_simclrhn_probe2,1,359,NaN,airplane,boat,8-10-10,0359_eid_dnn_8-10-10_boat_10_n04273569_3401.png,n04273569_3401.png,0.0,0.07450261,0.10639256,-0.022549603
alexnet_w1_mlp_simclrhn_probe2,1,360,NaN,oven,truck,64-10-10,0360_eid_dnn_64-10-10_truck_10_n04467665_13898.png,n04467665_13898.png,0.0,-5.8179865,-0.17393726,-3.9909456
alexnet_w1_mlp_simclrhn_probe2,1,361,NaN,truck,clock,2-10-10,0361_eid_dnn_2-10-10_clock_10_n03196217_1499.png,n03196217_1499.png,0.0,-0.61038786,0.34076756,-0.67256844
alexnet_w1_mlp_simclrhn_probe2,1,362,NaN,elephant,car,4-10-10,0362_eid_dnn_4-10-10_car_10_n03100240_8702.png,n03100240_8702.png,0.0,-1.0257614,-0.030764826,-0.7035688
alexnet_w1_mlp_simclrhn_probe2,1,363,NaN,bear,bear,4-10-10,0363_eid_dnn_4-10-10_bear_10_n02134418_1770.png,n02134418_1770.png,1.0,1.7343535,0.40288106,0.9414933
alexnet_w1_mlp_simclrhn_probe2,1,364,NaN,bear,bear,16-10-10,0364_eid_dnn_16-10-10_bear_10_n02132136_32838.png,n02132136_32838.png,1.0,1.6018788,0.31542066,0.90966326
alexnet_w1_mlp_simclrhn_probe2,1,365,NaN,boat,truck,4-10-10,0365_eid_dnn_4-10-10_truck_10_n04467665_68331.png,n04467665_68331.png,0.0,-2.0574744,0.1941584,-1.5921447
alexnet_w1_mlp_simclrhn_probe2,1,366,NaN,airplane,airplane,1-10-10,0366_eid_dnn_1-10-10_airplane_10_n02690373_4506.png,n02690373_4506.png,1.0,6.2947836,0.51175374,4.08922
alexnet_w1_mlp_simclrhn_probe2,1,367,NaN,car,car,2-10-10,0367_eid_dnn_2-10-10_car_10_n03100240_5308.png,n03100240_5308.png,1.0,2.0896325,0.8638426,0.86676437
alexnet_w1_mlp_simclrhn_probe2,1,368,NaN,oven,cat,2-10-10,0368_eid_dnn_2-10-10_cat_10_n02124075_15345.png,n02124075_15345.png,0.0,-2.4510267,0.13115953,-1.8258814
alexnet_w1_mlp_simclrhn_probe2,1,369,NaN,oven,bicycle,128-10-10,0369_eid_dnn_128-10-10_bicycle_10_n03792782_50972.png,n03792782_50972.png,0.0,-2.1682906,0.3745039,-1.7980273
alexnet_w1_mlp_simclrhn_probe2,1,370,NaN,cat,knife,8-10-10,0370_eid_dnn_8-10-10_knife_10_n03041632_19098.png,n03041632_19098.png,0.0,-2.814078,-0.81894654,-1.410771
alexnet_w1_mlp_simclrhn_probe2,1,371,NaN,oven,bottle,128-10-10,0371_eid_dnn_128-10-10_bottle_10_n04560804_15963.png,n04560804_15963.png,0.0,-3.2605672,0.6944847,-2.796644
alexnet_w1_mlp_simclrhn_probe2,1,372,NaN,oven,bottle,8-10-10,0372_eid_dnn_8-10-10_bottle_10_n04557648_7809.png,n04557648_7809.png,0.0,-2.257442,-0.095587194,-1.5286622
alexnet_w1_mlp_simclrhn_probe2,1,373,NaN,airplane,airplane,1-10-10,0373_eid_dnn_1-10-10_airplane_10_n02690373_17764.png,n02690373_17764.png,1.0,5.648184,-0.14676295,4.097646
alexnet_w1_mlp_simclrhn_probe2,1,374,NaN,oven,elephant,64-10-10,0374_eid_dnn_64-10-10_elephant_10_n02504013_7322.png,n02504013_7322.png,0.0,-1.0243385,1.5738006,-1.8371618
alexnet_w1_mlp_simclrhn_probe2,1,375,NaN,cat,bear,2-10-10,0375_eid_dnn_2-10-10_bear_10_n02134084_2959.png,n02134084_2959.png,0.0,0.70197356,0.752274,-0.035567768
alexnet_w1_mlp_simclrhn_probe2,1,376,NaN,bird,bird,2-10-10,0376_eid_dnn_2-10-10_bird_10_n01622779_6563.png,n01622779_6563.png,1.0,-0.5789151,-0.77724785,0.14024241
alexnet_w1_mlp_simclrhn_probe2,1,377,NaN,oven,knife,16-10-10,0377_eid_dnn_16-10-10_knife_10_n03041632_19620.png,n03041632_19620.png,0.0,-0.96805394,0.1303319,-0.77667606
alexnet_w1_mlp_simclrhn_probe2,1,378,NaN,bird,bird,4-10-10,0378_eid_dnn_4-10-10_bird_10_n01530575_35977.png,n01530575_35977.png,1.0,0.8113912,-2.0904818,2.051934
alexnet_w1_mlp_simclrhn_probe2,1,379,NaN,oven,cat,128-10-10,0379_eid_dnn_128-10-10_cat_10_n02123394_1757.png,n02123394_1757.png,0.0,-1.4726127,0.59527457,-1.4622172
alexnet_w1_mlp_simclrhn_probe2,1,380,NaN,oven,dog,2-10-10,0380_eid_dnn_2-10-10_dog_10_n02093647_6358.png,n02093647_6358.png,0.0,-2.8632953,-0.15676847,-1.9138035
alexnet_w1_mlp_simclrhn_probe2,1,381,NaN,boat,boat,1-10-10,0381_eid_dnn_1-10-10_boat_10_n02951358_1470.png,n02951358_1470.png,1.0,0.8960887,0.83793765,0.041119013
alexnet_w1_mlp_simclrhn_probe2,1,382,NaN,oven,elephant,128-10-10,0382_eid_dnn_128-10-10_elephant_10_n02504458_2026.png,n02504458_2026.png,0.0,-0.751281,0.08102667,-0.5885304
alexnet_w1_mlp_simclrhn_probe2,1,383,NaN,bear,elephant,32-10-10,0383_eid_dnn_32-10-10_elephant_10_n02504458_3730.png,n02504458_3730.png,0.0,0.21479726,0.33228302,-0.08307498
alexnet_w1_mlp_simclrhn_probe2,1,384,NaN,oven,keyboard,8-10-10,0384_eid_dnn_8-10-10_keyboard_10_n03085013_20881.png,n03085013_20881.png,0.0,-2.9329672,0.8402254,-2.66805
alexnet_w1_mlp_simclrhn_probe2,1,385,NaN,dog,dog,4-10-10,0385_eid_dnn_4-10-10_dog_10_n02105641_8188.png,n02105641_8188.png,1.0,1.4048983,0.28766316,0.7900046
alexnet_w1_mlp_simclrhn_probe2,1,386,NaN,oven,clock,32-10-10,0386_eid_dnn_32-10-10_clock_10_n03196217_6320.png,n03196217_6320.png,0.0,-3.460142,-0.7238498,-1.9348507
alexnet_w1_mlp_simclrhn_probe2,1,387,NaN,oven,car,32-10-10,0387_eid_dnn_32-10-10_car_10_n04285008_12333.png,n04285008_12333.png,0.0,-8.590942,1.1111,-6.86038
alexnet_w1_mlp_simclrhn_probe2,1,388,NaN,knife,knife,2-10-10,0388_eid_dnn_2-10-10_knife_10_n03041632_47743.png,n03041632_47743.png,1.0,0.12695067,-1.4268411,1.0986967
alexnet_w1_mlp_simclrhn_probe2,1,389,NaN,boat,boat,8-10-10,0389_eid_dnn_8-10-10_boat_10_n04612504_8073.png,n04612504_8073.png,1.0,0.46085948,-0.4202587,0.62304467
alexnet_w1_mlp_simclrhn_probe2,1,390,NaN,oven,knife,128-10-10,0390_eid_dnn_128-10-10_knife_10_n03041632_20770.png,n03041632_20770.png,0.0,-2.7985969,1.5833154,-3.09848
alexnet_w1_mlp_simclrhn_probe2,1,391,NaN,oven,car,32-10-10,0391_eid_dnn_32-10-10_car_10_n02814533_28783.png,n02814533_28783.png,0.0,-9.08594,1.5811424,-7.5427666
alexnet_w1_mlp_simclrhn_probe2,1,392,NaN,oven,car,128-10-10,0392_eid_dnn_128-10-10_car_10_n02814533_13533.png,n02814533_13533.png,0.0,-7.918077,-0.1331701,-5.5047607
alexnet_w1_mlp_simclrhn_probe2,1,393,NaN,dog,dog,16-10-10,0393_eid_dnn_16-10-10_dog_10_n02104029_8137.png,n02104029_8137.png,1.0,0.12621799,-0.59584665,0.5105768
alexnet_w1_mlp_simclrhn_probe2,1,394,NaN,bicycle,bicycle,4-10-10,0394_eid_dnn_4-10-10_bicycle_10_n02835271_3990.png,n02835271_3990.png,1.0,1.5801976,-1.3498304,2.0718427
alexnet_w1_mlp_simclrhn_probe2,1,395,NaN,bear,bear,4-10-10,0395_eid_dnn_4-10-10_bear_10_n02132136_24311.png,n02132136_24311.png,1.0,2.0231204,0.5181356,1.064185
alexnet_w1_mlp_simclrhn_probe2,1,396,NaN,truck,truck,2-10-10,0396_eid_dnn_2-10-10_truck_10_n03796401_6966.png,n03796401_6966.png,1.0,7.2316113,4.5603166,1.8888906
alexnet_w1_mlp_simclrhn_probe2,1,397,NaN,knife,knife,1-10-10,0397_eid_dnn_1-10-10_knife_10_n03041632_8468.png,n03041632_8468.png,1.0,-0.15193042,-1.5627422,0.9975946
alexnet_w1_mlp_simclrhn_probe2,1,398,NaN,oven,elephant,128-10-10,0398_eid_dnn_128-10-10_elephant_10_n02504458_6799.png,n02504458_6799.png,0.0,-0.35330668,-0.025526859,-0.23177534
alexnet_w1_mlp_simclrhn_probe2,1,399,NaN,bird,keyboard,16-10-10,0399_eid_dnn_16-10-10_keyboard_10_n03085013_24402.png,n03085013_24402.png,0.0,-5.412105,-0.9786471,-3.1349282
alexnet_w1_mlp_simclrhn_probe2,1,400,NaN,bear,knife,16-10-10,0400_eid_dnn_16-10-10_knife_10_n03041632_25772.png,n03041632_25772.png,0.0,-2.3206022,-0.4455378,-1.3258708
alexnet_w1_mlp_simclrhn_probe2,1,401,NaN,oven,elephant,32-10-10,0401_eid_dnn_32-10-10_elephant_10_n02504458_5839.png,n02504458_5839.png,0.0,-0.7941773,0.36948583,-0.82283413
alexnet_w1_mlp_simclrhn_probe2,1,402,NaN,oven,elephant,64-10-10,0402_eid_dnn_64-10-10_elephant_10_n02504458_5178.png,n02504458_5178.png,0.0,-1.3785222,-0.018200815,-0.9618924
alexnet_w1_mlp_simclrhn_probe2,1,403,NaN,oven,bicycle,32-10-10,0403_eid_dnn_32-10-10_bicycle_10_n02835271_27014.png,n02835271_27014.png,0.0,-3.3677635,0.68445957,-2.8653545
alexnet_w1_mlp_simclrhn_probe2,1,404,NaN,oven,car,128-10-10,0404_eid_dnn_128-10-10_car_10_n04285008_15218.png,n04285008_15218.png,0.0,-5.9818215,0.43859878,-4.5399227
alexnet_w1_mlp_simclrhn_probe2,1,405,NaN,oven,bicycle,8-10-10,0405_eid_dnn_8-10-10_bicycle_10_n02835271_19955.png,n02835271_19955.png,0.0,-2.5065563,-0.86630404,-1.1598336
alexnet_w1_mlp_simclrhn_probe2,1,406,NaN,truck,truck,1-10-10,0406_eid_dnn_1-10-10_truck_10_n03796401_874.png,n03796401_874.png,1.0,4.019226,1.5733608,1.7294879
alexnet_w1_mlp_simclrhn_probe2,1,407,NaN,dog,dog,2-10-10,0407_eid_dnn_2-10-10_dog_10_n02108915_6092.png,n02108915_6092.png,1.0,1.3787122,-0.89198816,1.6056278
alexnet_w1_mlp_simclrhn_probe2,1,408,NaN,oven,clock,16-10-10,0408_eid_dnn_16-10-10_clock_10_n04548280_6337.png,n04548280_6337.png,0.0,-4.7471957,0.46906608,-3.6884542
alexnet_w1_mlp_simclrhn_probe2,1,409,NaN,elephant,boat,4-10-10,0409_eid_dnn_4-10-10_boat_10_n04273569_1388.png,n04273569_1388.png,0.0,0.43573755,0.8442057,-0.28883058
alexnet_w1_mlp_simclrhn_probe2,1,410,NaN,oven,clock,64-10-10,0410_eid_dnn_64-10-10_clock_10_n02708093_2676.png,n02708093_2676.png,0.0,-5.342645,1.5558567,-4.8779774
alexnet_w1_mlp_simclrhn_probe2,1,411,NaN,bear,dog,64-10-10,0411_eid_dnn_64-10-10_dog_10_n02107683_5424.png,n02107683_5424.png,0.0,-0.83633655,0.08081155,-0.64852166
alexnet_w1_mlp_simclrhn_probe2,1,412,NaN,chair,chair,1-10-10,0412_eid_dnn_1-10-10_chair_10_n04099969_29038.png,n04099969_29038.png,1.0,1.0985711,-0.20429969,0.92126876
alexnet_w1_mlp_simclrhn_probe2,1,413,NaN,oven,clock,16-10-10,0413_eid_dnn_16-10-10_clock_10_n04548280_3219.png,n04548280_3219.png,0.0,-4.643656,1.730881,-4.507478
alexnet_w1_mlp_simclrhn_probe2,1,414,NaN,oven,clock,32-10-10,0414_eid_dnn_32-10-10_clock_10_n03196217_8282.png,n03196217_8282.png,0.0,-3.7280033,-1.0596299,-1.886825
alexnet_w1_mlp_simclrhn_probe2,1,415,NaN,oven,oven,8-10-10,0415_eid_dnn_8-10-10_oven_10_n04111531_22041.png,n04111531_22041.png,1.0,2.2903051,0.45928898,1.294724
alexnet_w1_mlp_simclrhn_probe2,1,416,NaN,bear,bear,8-10-10,0416_eid_dnn_8-10-10_bear_10_n02134084_6964.png,n02134084_6964.png,1.0,1.1552804,-0.053743232,0.8549088
alexnet_w1_mlp_simclrhn_probe2,1,417,NaN,oven,bicycle,64-10-10,0417_eid_dnn_64-10-10_bicycle_10_n03792782_11921.png,n03792782_11921.png,0.0,-3.72274,0.6400697,-3.0849724
alexnet_w1_mlp_simclrhn_probe2,1,418,NaN,airplane,clock,8-10-10,0418_eid_dnn_8-10-10_clock_10_n04548280_1809.png,n04548280_1809.png,0.0,-2.5576603,-0.9951736,-1.104845
alexnet_w1_mlp_simclrhn_probe2,1,419,NaN,bird,bird,4-10-10,0419_eid_dnn_4-10-10_bird_10_n01833805_202.png,n01833805_202.png,1.0,0.3007553,-2.9711223,2.313567
alexnet_w1_mlp_simclrhn_probe2,1,420,NaN,oven,keyboard,64-10-10,0420_eid_dnn_64-10-10_keyboard_10_n03085013_7511.png,n03085013_7511.png,0.0,-5.1278415,1.2862889,-4.5354753
alexnet_w1_mlp_simclrhn_probe2,1,421,NaN,dog,bird,1-10-10,0421_eid_dnn_1-10-10_bird_10_n02025239_5287.png,n02025239_5287.png,0.0,-1.4564011,-0.5435027,-0.6455167
alexnet_w1_mlp_simclrhn_probe2,1,422,NaN,oven,boat,64-10-10,0422_eid_dnn_64-10-10_boat_10_n03662601_27960.png,n03662601_27960.png,0.0,-3.1066833,-0.028491564,-2.1766102
alexnet_w1_mlp_simclrhn_probe2,1,423,NaN,dog,bottle,1-10-10,0423_eid_dnn_1-10-10_bottle_10_n04591713_6855.png,n04591713_6855.png,0.0,-3.3108852,0.08882031,-2.4039547
alexnet_w1_mlp_simclrhn_probe2,1,424,NaN,oven,elephant,128-10-10,0424_eid_dnn_128-10-10_elephant_10_n02504013_4424.png,n02504013_4424.png,0.0,-0.59379375,0.58047867,-0.830336
alexnet_w1_mlp_simclrhn_probe2,1,425,NaN,clock,clock,2-10-10,0425_eid_dnn_2-10-10_clock_10_n04548280_3295.png,n04548280_3295.png,1.0,1.1487767,0.26113367,0.62765837
alexnet_w1_mlp_simclrhn_probe2,1,426,NaN,airplane,airplane,1-10-10,0426_eid_dnn_1-10-10_airplane_10_n02690373_6144.png,n02690373_6144.png,1.0,6.7212963,0.34389538,4.5095034
alexnet_w1_mlp_simclrhn_probe2,1,427,NaN,bear,truck,32-10-10,0427_eid_dnn_32-10-10_truck_10_n04467665_70894.png,n04467665_70894.png,0.0,-5.323937,-0.8264832,-3.18018
alexnet_w1_mlp_simclrhn_probe2,1,428,NaN,oven,boat,128-10-10,0428_eid_dnn_128-10-10_boat_10_n02951358_30474.png,n02951358_30474.png,0.0,-1.9251721,-0.29637498,-1.1517335
alexnet_w1_mlp_simclrhn_probe2,1,429,NaN,bear,bear,4-10-10,0429_eid_dnn_4-10-10_bear_10_n02132136_6434.png,n02132136_6434.png,1.0,3.0428257,0.4582733,1.8275545
alexnet_w1_mlp_simclrhn_probe2,1,430,NaN,oven,keyboard,32-10-10,0430_eid_dnn_32-10-10_keyboard_10_n04505470_5009.png,n04505470_5009.png,0.0,-4.3740215,0.91799396,-3.7420201
alexnet_w1_mlp_simclrhn_probe2,1,431,NaN,keyboard,keyboard,2-10-10,0431_eid_dnn_2-10-10_keyboard_10_n03085013_13005.png,n03085013_13005.png,1.0,6.0114174,-0.6833811,4.7339373
alexnet_w1_mlp_simclrhn_probe2,1,432,NaN,chair,chair,1-10-10,0432_eid_dnn_1-10-10_chair_10_n03376595_6865.png,n03376595_6865.png,1.0,2.7203746,-0.4191569,2.219984
alexnet_w1_mlp_simclrhn_probe2,1,433,NaN,oven,bicycle,32-10-10,0433_eid_dnn_32-10-10_bicycle_10_n02835271_6122.png,n02835271_6122.png,0.0,-3.528631,0.15536407,-2.6049778
alexnet_w1_mlp_simclrhn_probe2,1,434,NaN,oven,oven,4-10-10,0434_eid_dnn_4-10-10_oven_10_n04111531_11499.png,n04111531_11499.png,1.0,2.0305452,-1.3935323,2.4211884
alexnet_w1_mlp_simclrhn_probe2,1,435,NaN,bird,bird,1-10-10,0435_eid_dnn_1-10-10_bird_10_n02009229_5765.png,n02009229_5765.png,1.0,1.9951615,-2.4994073,3.1781402
alexnet_w1_mlp_simclrhn_probe2,1,436,NaN,oven,bottle,32-10-10,0436_eid_dnn_32-10-10_bottle_10_n04560804_2181.png,n04560804_2181.png,0.0,-2.3924654,0.5653116,-2.0914643
alexnet_w1_mlp_simclrhn_probe2,1,437,NaN,bear,bicycle,32-10-10,0437_eid_dnn_32-10-10_bicycle_10_n03792782_3774.png,n03792782_3774.png,0.0,-3.0440922,0.10347609,-2.2256668
alexnet_w1_mlp_simclrhn_probe2,1,438,NaN,airplane,bird,16-10-10,0438_eid_dnn_16-10-10_bird_10_n01614925_1683.png,n01614925_1683.png,0.0,-0.7542678,0.45340398,-0.8539529
alexnet_w1_mlp_simclrhn_probe2,1,439,NaN,bottle,clock,8-10-10,0439_eid_dnn_8-10-10_clock_10_n02708093_4692.png,n02708093_4692.png,0.0,-1.7103246,-1.3172735,-0.27792913
alexnet_w1_mlp_simclrhn_probe2,1,440,NaN,dog,dog,4-10-10,0440_eid_dnn_4-10-10_dog_10_n02109961_71298.png,n02109961_71298.png,1.0,0.7955608,0.05030957,0.5269722
alexnet_w1_mlp_simclrhn_probe2,1,441,NaN,bottle,keyboard,2-10-10,0441_eid_dnn_2-10-10_keyboard_10_n03085013_23269.png,n03085013_23269.png,0.0,-0.080842346,-0.08002726,-0.0005763529
alexnet_w1_mlp_simclrhn_probe2,1,442,NaN,elephant,elephant,2-10-10,0442_eid_dnn_2-10-10_elephant_10_n02504458_5614.png,n02504458_5614.png,1.0,1.1535127,-0.9157731,1.463206
alexnet_w1_mlp_simclrhn_probe2,1,443,NaN,airplane,car,2-10-10,0443_eid_dnn_2-10-10_car_10_n04285008_4640.png,n04285008_4640.png,0.0,0.14518292,2.144915,-1.4140242
alexnet_w1_mlp_simclrhn_probe2,1,444,NaN,oven,oven,128-10-10,0444_eid_dnn_128-10-10_oven_10_n04111531_6346.png,n04111531_6346.png,1.0,0.6196115,-0.5314072,0.8138931
alexnet_w1_mlp_simclrhn_probe2,1,445,NaN,chair,chair,2-10-10,0445_eid_dnn_2-10-10_chair_10_n04099969_14851.png,n04099969_14851.png,1.0,1.859093,-0.5872916,1.7298551
alexnet_w1_mlp_simclrhn_probe2,1,446,NaN,oven,bird,64-10-10,0446_eid_dnn_64-10-10_bird_10_n02051845_534.png,n02051845_534.png,0.0,-2.7316597,0.7707968,-2.4766107
alexnet_w1_mlp_simclrhn_probe2,1,447,NaN,oven,bird,128-10-10,0447_eid_dnn_128-10-10_bird_10_n02056570_9342.png,n02056570_9342.png,0.0,-2.655784,-0.16048053,-1.764446
alexnet_w1_mlp_simclrhn_probe2,1,448,NaN,oven,oven,16-10-10,0448_eid_dnn_16-10-10_oven_10_n04111531_4900.png,n04111531_4900.png,1.0,3.0419621,-2.5339022,3.9427316
alexnet_w1_mlp_simclrhn_probe2,1,449,NaN,oven,boat,32-10-10,0449_eid_dnn_32-10-10_boat_10_n02951358_31973.png,n02951358_31973.png,0.0,-3.5908298,0.41022453,-2.8291726
alexnet_w1_mlp_simclrhn_probe2,1,450,NaN,knife,keyboard,4-10-10,0450_eid_dnn_4-10-10_keyboard_10_n03085013_19842.png,n03085013_19842.png,0.0,-3.9357533,-0.72914594,-2.2674139
alexnet_w1_mlp_simclrhn_probe2,1,451,NaN,airplane,keyboard,8-10-10,0451_eid_dnn_8-10-10_keyboard_10_n03085013_8296.png,n03085013_8296.png,0.0,-0.924976,-0.71497107,-0.14849591
alexnet_w1_mlp_simclrhn_probe2,1,452,NaN,oven,car,16-10-10,0452_eid_dnn_16-10-10_car_10_n03100240_3528.png,n03100240_3528.png,0.0,-5.755947,0.4300995,-4.3741956
alexnet_w1_mlp_simclrhn_probe2,1,453,NaN,cat,cat,8-10-10,0453_eid_dnn_8-10-10_cat_10_n02123159_7210.png,n02123159_7210.png,1.0,1.0005162,0.6035167,0.28072104
alexnet_w1_mlp_simclrhn_probe2,1,454,NaN,knife,knife,16-10-10,0454_eid_dnn_16-10-10_knife_10_n03041632_56172.png,n03041632_56172.png,1.0,-0.39195156,-1.1628358,0.54509753
alexnet_w1_mlp_simclrhn_probe2,1,455,NaN,oven,oven,4-10-10,0455_eid_dnn_4-10-10_oven_10_n04111531_2116.png,n04111531_2116.png,1.0,3.0277486,-1.8959106,3.4815528
alexnet_w1_mlp_simclrhn_probe2,1,456,NaN,bicycle,bicycle,8-10-10,0456_eid_dnn_8-10-10_bicycle_10_n02835271_12477.png,n02835271_12477.png,1.0,-0.30972543,-0.7439071,0.3070128
alexnet_w1_mlp_simclrhn_probe2,1,457,NaN,knife,knife,2-10-10,0457_eid_dnn_2-10-10_knife_10_n03041632_42472.png,n03041632_42472.png,1.0,2.2812498,0.27825883,1.4163285
alexnet_w1_mlp_simclrhn_probe2,1,458,NaN,bottle,oven,2-10-10,0458_eid_dnn_2-10-10_oven_10_n04111531_8818.png,n04111531_8818.png,0.0,0.24839543,0.3118484,-0.04486803
alexnet_w1_mlp_simclrhn_probe2,1,459,NaN,boat,truck,2-10-10,0459_eid_dnn_2-10-10_truck_10_n04467665_67115.png,n04467665_67115.png,0.0,-0.36894518,0.7695735,-0.8050543
alexnet_w1_mlp_simclrhn_probe2,1,460,NaN,bird,bird,4-10-10,0460_eid_dnn_4-10-10_bird_10_n02011460_3521.png,n02011460_3521.png,1.0,1.0195532,-4.9033003,4.18809
alexnet_w1_mlp_simclrhn_probe2,1,461,NaN,bear,bear,64-10-10,0461_eid_dnn_64-10-10_bear_10_n02133161_3533.png,n02133161_3533.png,1.0,1.0477058,-0.2627582,0.92663795
alexnet_w1_mlp_simclrhn_probe2,1,462,NaN,bear,bird,8-10-10,0462_eid_dnn_8-10-10_bird_10_n02013706_637.png,n02013706_637.png,0.0,-1.2746828,0.13987444,-1.0002431
alexnet_w1_mlp_simclrhn_probe2,1,463,NaN,oven,bear,64-10-10,0463_eid_dnn_64-10-10_bear_10_n02132136_29636.png,n02132136_29636.png,0.0,0.17719232,0.28302965,-0.074838296
alexnet_w1_mlp_simclrhn_probe2,1,464,NaN,bicycle,bicycle,2-10-10,0464_eid_dnn_2-10-10_bicycle_10_n02835271_634.png,n02835271_634.png,1.0,1.6251938,-0.63791806,1.6002618
alexnet_w1_mlp_simclrhn_probe2,1,465,NaN,keyboard,keyboard,1-10-10,0465_eid_dnn_1-10-10_keyboard_10_n04505470_4621.png,n04505470_4621.png,1.0,1.2778544,0.9953014,0.19979516
alexnet_w1_mlp_simclrhn_probe2,1,466,NaN,bear,bear,16-10-10,0466_eid_dnn_16-10-10_bear_10_n02134084_2844.png,n02134084_2844.png,1.0,-0.27006924,-0.6893673,0.2964885
alexnet_w1_mlp_simclrhn_probe2,1,467,NaN,bicycle,bicycle,4-10-10,0467_eid_dnn_4-10-10_bicycle_10_n03792782_17088.png,n03792782_17088.png,1.0,1.0705733,-1.924143,2.1175842
alexnet_w1_mlp_simclrhn_probe2,1,468,NaN,airplane,clock,4-10-10,0468_eid_dnn_4-10-10_clock_10_n03196217_8706.png,n03196217_8706.png,0.0,-2.573471,0.44531637,-2.1346052
alexnet_w1_mlp_simclrhn_probe2,1,469,NaN,oven,oven,4-10-10,0469_eid_dnn_4-10-10_oven_10_n04111531_15052.png,n04111531_15052.png,1.0,2.3815725,-0.3499608,1.9314858
alexnet_w1_mlp_simclrhn_probe2,1,470,NaN,oven,bottle,16-10-10,0470_eid_dnn_16-10-10_bottle_10_n04560804_5769.png,n04560804_5769.png,0.0,-1.3989851,0.3857894,-1.2620262
alexnet_w1_mlp_simclrhn_probe2,1,471,NaN,bear,dog,128-10-10,0471_eid_dnn_128-10-10_dog_10_n02110063_14116.png,n02110063_14116.png,0.0,-1.1488866,0.11746625,-0.89544666
alexnet_w1_mlp_simclrhn_probe2,1,472,NaN,cat,cat,32-10-10,0472_eid_dnn_32-10-10_cat_10_n02124075_3609.png,n02124075_3609.png,1.0,0.24974537,0.024162427,0.15951124
alexnet_w1_mlp_simclrhn_probe2,1,473,NaN,airplane,airplane,32-10-10,0473_eid_dnn_32-10-10_airplane_10_n02690373_10926.png,n02690373_10926.png,1.0,0.88224006,-0.4707169,0.95668507
alexnet_w1_mlp_simclrhn_probe2,1,474,NaN,airplane,bird,16-10-10,0474_eid_dnn_16-10-10_bird_10_n02033041_7229.png,n02033041_7229.png,0.0,-1.4391531,-0.6509006,-0.55737865
alexnet_w1_mlp_simclrhn_probe2,1,475,NaN,bird,bird,2-10-10,0475_eid_dnn_2-10-10_bird_10_n02006656_611.png,n02006656_611.png,1.0,0.23405121,-1.1779904,0.9984642
alexnet_w1_mlp_simclrhn_probe2,1,476,NaN,oven,bear,16-10-10,0476_eid_dnn_16-10-10_bear_10_n02133161_958.png,n02133161_958.png,0.0,-1.1440783,-0.36383316,-0.55171657
alexnet_w1_mlp_simclrhn_probe2,1,477,NaN,bird,bird,8-10-10,0477_eid_dnn_8-10-10_bird_10_n01843065_148.png,n01843065_148.png,1.0,1.8024603,0.2579547,1.0921304
alexnet_w1_mlp_simclrhn_probe2,1,478,NaN,oven,cat,32-10-10,0478_eid_dnn_32-10-10_cat_10_n02123597_13623.png,n02123597_13623.png,0.0,-1.7127708,0.3341217,-1.4473717
alexnet_w1_mlp_simclrhn_probe2,1,479,NaN,bicycle,bicycle,8-10-10,0479_eid_dnn_8-10-10_bicycle_10_n02835271_12957.png,n02835271_12957.png,1.0,0.9839589,-0.82184726,1.2768978
alexnet_w1_mlp_simclrhn_probe2,1,480,NaN,knife,knife,8-10-10,0480_eid_dnn_8-10-10_knife_10_n03041632_96714.png,n03041632_96714.png,1.0,-0.2508323,-0.79285514,0.38326803
alexnet_w1_mlp_simclrhn_probe2,1,481,NaN,oven,bear,128-10-10,0481_eid_dnn_128-10-10_bear_10_n02133161_3550.png,n02133161_3550.png,0.0,-0.9141679,0.14626823,-0.7498416
alexnet_w1_mlp_simclrhn_probe2,1,482,NaN,airplane,airplane,2-10-10,0482_eid_dnn_2-10-10_airplane_10_n02690373_4471.png,n02690373_4471.png,1.0,4.403091,1.276635,2.2107382
alexnet_w1_mlp_simclrhn_probe2,1,483,NaN,oven,airplane,64-10-10,0483_eid_dnn_64-10-10_airplane_10_n02690373_2026.png,n02690373_2026.png,0.0,-2.8645818,0.6040056,-2.4526618
alexnet_w1_mlp_simclrhn_probe2,1,484,NaN,car,car,1-10-10,0484_eid_dnn_1-10-10_car_10_n03100240_18270.png,n03100240_18270.png,1.0,1.1903139,0.9906856,0.14115857
alexnet_w1_mlp_simclrhn_probe2,1,485,NaN,oven,elephant,128-10-10,0485_eid_dnn_128-10-10_elephant_10_n02504458_5204.png,n02504458_5204.png,0.0,-0.34298378,0.067992456,-0.29060408
alexnet_w1_mlp_simclrhn_probe2,1,486,NaN,oven,oven,1-10-10,0486_eid_dnn_1-10-10_oven_10_n04111531_10339.png,n04111531_10339.png,1.0,1.074992,0.48284376,0.418712
alexnet_w1_mlp_simclrhn_probe2,1,487,NaN,elephant,elephant,2-10-10,0487_eid_dnn_2-10-10_elephant_10_n02504458_12705.png,n02504458_12705.png,1.0,4.540512,0.5707245,2.8070638
alexnet_w1_mlp_simclrhn_probe2,1,488,NaN,bottle,boat,1-10-10,0488_eid_dnn_1-10-10_boat_10_n03344393_9268.png,n03344393_9268.png,0.0,-0.79697114,0.18078884,-0.6913807
alexnet_w1_mlp_simclrhn_probe2,1,489,NaN,bird,bicycle,16-10-10,0489_eid_dnn_16-10-10_bicycle_10_n02835271_23173.png,n02835271_23173.png,0.0,-2.3992121,-0.7483055,-1.1673672
alexnet_w1_mlp_simclrhn_probe2,1,490,NaN,oven,knife,32-10-10,0490_eid_dnn_32-10-10_knife_10_n03041632_43975.png,n03041632_43975.png,0.0,-2.1906128,0.53586304,-1.9279095
alexnet_w1_mlp_simclrhn_probe2,1,491,NaN,bear,bicycle,128-10-10,0491_eid_dnn_128-10-10_bicycle_10_n03792782_3299.png,n03792782_3299.png,0.0,-1.9998672,-0.44540825,-1.0991685
alexnet_w1_mlp_simclrhn_probe2,1,492,NaN,bear,boat,32-10-10,0492_eid_dnn_32-10-10_boat_10_n04273569_5679.png,n04273569_5679.png,0.0,-3.1927981,0.31690854,-2.4817374
alexnet_w1_mlp_simclrhn_probe2,1,493,NaN,oven,bird,32-10-10,0493_eid_dnn_32-10-10_bird_10_n02056570_10127.png,n02056570_10127.png,0.0,-2.1565082,-0.1248757,-1.4365811
alexnet_w1_mlp_simclrhn_probe2,1,494,NaN,oven,bear,32-10-10,0494_eid_dnn_32-10-10_bear_10_n02133161_7688.png,n02133161_7688.png,0.0,0.06619961,0.1403275,-0.052416336
alexnet_w1_mlp_simclrhn_probe2,1,495,NaN,oven,cat,16-10-10,0495_eid_dnn_16-10-10_cat_10_n02123597_624.png,n02123597_624.png,0.0,-1.4279188,-0.755088,-0.47576323
alexnet_w1_mlp_simclrhn_probe2,1,496,NaN,bear,bird,64-10-10,0496_eid_dnn_64-10-10_bird_10_n01560419_3399.png,n01560419_3399.png,0.0,-1.9934328,-0.6079131,-0.9797104
alexnet_w1_mlp_simclrhn_probe2,1,497,NaN,oven,cat,32-10-10,0497_eid_dnn_32-10-10_cat_10_n02123045_12762.png,n02123045_12762.png,0.0,-1.5531529,-0.5874335,-0.68286675
alexnet_w1_mlp_simclrhn_probe2,1,498,NaN,oven,car,16-10-10,0498_eid_dnn_16-10-10_car_10_n02814533_7247.png,n02814533_7247.png,0.0,-5.659462,-0.12612015,-3.9126637
alexnet_w1_mlp_simclrhn_probe2,1,499,NaN,keyboard,keyboard,4-10-10,0499_eid_dnn_4-10-10_keyboard_10_n03085013_4941.png,n03085013_4941.png,1.0,-0.6935364,-0.6951252,0.0011234664
alexnet_w1_mlp_simclrhn_probe2,1,500,NaN,oven,truck,4-10-10,0500_eid_dnn_4-10-10_truck_10_n03417042_6420.png,n03417042_6420.png,0.0,-4.597683,-0.4628526,-2.9237666
alexnet_w1_mlp_simclrhn_probe2,1,501,NaN,oven,boat,64-10-10,0501_eid_dnn_64-10-10_boat_10_n03662601_2120.png,n03662601_2120.png,0.0,-3.8856273,0.6605979,-3.2146666
alexnet_w1_mlp_simclrhn_probe2,1,502,NaN,elephant,bear,2-10-10,0502_eid_dnn_2-10-10_bear_10_n02134084_7331.png,n02134084_7331.png,0.0,1.5941643,1.8284413,-0.16565886
alexnet_w1_mlp_simclrhn_probe2,1,503,NaN,oven,bottle,32-10-10,0503_eid_dnn_32-10-10_bottle_10_n02823428_906.png,n02823428_906.png,0.0,-2.5970676,1.4904052,-2.8902798
alexnet_w1_mlp_simclrhn_probe2,1,504,NaN,cat,cat,16-10-10,0504_eid_dnn_16-10-10_cat_10_n02123394_270.png,n02123394_270.png,1.0,-0.7431032,-0.9217535,0.12632485
alexnet_w1_mlp_simclrhn_probe2,1,505,NaN,elephant,boat,2-10-10,0505_eid_dnn_2-10-10_boat_10_n02951358_1910.png,n02951358_1910.png,0.0,-1.7362931,0.19711393,-1.3671253
alexnet_w1_mlp_simclrhn_probe2,1,506,NaN,bear,knife,4-10-10,0506_eid_dnn_4-10-10_knife_10_n03041632_23678.png,n03041632_23678.png,0.0,-3.030452,1.0283728,-2.8700223
alexnet_w1_mlp_simclrhn_probe2,1,507,NaN,oven,car,16-10-10,0507_eid_dnn_16-10-10_car_10_n02814533_31083.png,n02814533_31083.png,0.0,-5.5642395,0.3202783,-4.1609826
alexnet_w1_mlp_simclrhn_probe2,1,508,NaN,keyboard,keyboard,1-10-10,0508_eid_dnn_1-10-10_keyboard_10_n04505470_2881.png,n04505470_2881.png,1.0,4.393503,0.0117332935,3.0983794
alexnet_w1_mlp_simclrhn_probe2,1,509,NaN,dog,cat,8-10-10,0509_eid_dnn_8-10-10_cat_10_n02125311_2923.png,n02125311_2923.png,0.0,-0.8795304,0.6827099,-1.1046706
alexnet_w1_mlp_simclrhn_probe2,1,510,NaN,bicycle,bicycle,2-10-10,0510_eid_dnn_2-10-10_bicycle_10_n03792782_2598.png,n03792782_2598.png,1.0,2.7661152,-0.5681804,2.357703
alexnet_w1_mlp_simclrhn_probe2,1,511,NaN,car,car,2-10-10,0511_eid_dnn_2-10-10_car_10_n03100240_4460.png,n03100240_4460.png,1.0,3.3756924,2.895809,0.33932883
alexnet_w1_mlp_simclrhn_probe2,1,512,NaN,knife,knife,4-10-10,0512_eid_dnn_4-10-10_knife_10_n03041632_29920.png,n03041632_29920.png,1.0,-0.78483737,-2.4007258,1.1426057
alexnet_w1_mlp_simclrhn_probe2,1,513,NaN,bear,bird,32-10-10,0513_eid_dnn_32-10-10_bird_10_n01796340_3845.png,n01796340_3845.png,0.0,-1.414131,0.06651645,-1.0469759
alexnet_w1_mlp_simclrhn_probe2,1,514,NaN,oven,keyboard,8-10-10,0514_eid_dnn_8-10-10_keyboard_10_n03085013_21932.png,n03085013_21932.png,0.0,-0.92898124,0.24739505,-0.8318237
alexnet_w1_mlp_simclrhn_probe2,1,515,NaN,bottle,bottle,1-10-10,0515_eid_dnn_1-10-10_bottle_10_n02823428_64.png,n02823428_64.png,1.0,4.3031,-1.222503,3.9071915
alexnet_w1_mlp_simclrhn_probe2,1,516,NaN,oven,chair,8-10-10,0516_eid_dnn_8-10-10_chair_10_n04099969_4374.png,n04099969_4374.png,0.0,-2.2039475,0.2197966,-1.713846
alexnet_w1_mlp_simclrhn_probe2,1,517,NaN,clock,clock,1-10-10,0517_eid_dnn_1-10-10_clock_10_n02708093_8257.png,n02708093_8257.png,1.0,6.2968125,-1.0743971,5.2122326
alexnet_w1_mlp_simclrhn_probe2,1,518,NaN,airplane,knife,16-10-10,0518_eid_dnn_16-10-10_knife_10_n03041632_45569.png,n03041632_45569.png,0.0,-1.7704643,-0.176518,-1.1270903
alexnet_w1_mlp_simclrhn_probe2,1,519,NaN,oven,chair,128-10-10,0519_eid_dnn_128-10-10_chair_10_n04099969_1850.png,n04099969_1850.png,0.0,-3.7381387,0.5293783,-3.0175903
alexnet_w1_mlp_simclrhn_probe2,1,520,NaN,dog,dog,2-10-10,0520_eid_dnn_2-10-10_dog_10_n02092002_2008.png,n02092002_2008.png,1.0,1.1492565,0.6782814,0.33302966
alexnet_w1_mlp_simclrhn_probe2,1,521,NaN,bicycle,bicycle,8-10-10,0521_eid_dnn_8-10-10_bicycle_10_n02835271_8105.png,n02835271_8105.png,1.0,1.4166164,-1.0890676,1.7717861
alexnet_w1_mlp_simclrhn_probe2,1,522,NaN,bear,oven,64-10-10,0522_eid_dnn_64-10-10_oven_10_n04111531_14126.png,n04111531_14126.png,0.0,-0.82914215,0.119265474,-0.6706255
alexnet_w1_mlp_simclrhn_probe2,1,523,NaN,cat,elephant,4-10-10,0523_eid_dnn_4-10-10_elephant_10_n02504013_13766.png,n02504013_13766.png,0.0,-0.4856968,-0.40777865,-0.055096447
alexnet_w1_mlp_simclrhn_probe2,1,524,NaN,oven,bicycle,64-10-10,0524_eid_dnn_64-10-10_bicycle_10_n02835271_18361.png,n02835271_18361.png,0.0,-3.4750257,0.69487906,-2.9485679
alexnet_w1_mlp_simclrhn_probe2,1,525,NaN,oven,bird,8-10-10,0525_eid_dnn_8-10-10_bird_10_n01582220_4708.png,n01582220_4708.png,0.0,-1.811819,-0.87024474,-0.66579354
alexnet_w1_mlp_simclrhn_probe2,1,526,NaN,oven,chair,16-10-10,0526_eid_dnn_16-10-10_chair_10_n04099969_101.png,n04099969_101.png,0.0,-4.9170427,-0.1576097,-3.3654273
alexnet_w1_mlp_simclrhn_probe2,1,527,NaN,cat,cat,1-10-10,0527_eid_dnn_1-10-10_cat_10_n02124075_724.png,n02124075_724.png,1.0,0.97176903,-3.490696,3.1554391
alexnet_w1_mlp_simclrhn_probe2,1,528,NaN,oven,bicycle,32-10-10,0528_eid_dnn_32-10-10_bicycle_10_n02835271_43.png,n02835271_43.png,0.0,-2.0497334,0.54706407,-1.8362131
alexnet_w1_mlp_simclrhn_probe2,1,529,NaN,bird,bird,2-10-10,0529_eid_dnn_2-10-10_bird_10_n02017213_5362.png,n02017213_5362.png,1.0,0.41839233,-0.53825635,0.6764528
alexnet_w1_mlp_simclrhn_probe2,1,530,NaN,oven,dog,1-10-10,0530_eid_dnn_1-10-10_dog_10_n02088466_1769.png,n02088466_1769.png,0.0,-1.1508615,0.16165997,-0.92809284
alexnet_w1_mlp_simclrhn_probe2,1,531,NaN,elephant,bear,1-10-10,0531_eid_dnn_1-10-10_bear_10_n02133161_5653.png,n02133161_5653.png,0.0,2.1021,2.897841,-0.5626739
alexnet_w1_mlp_simclrhn_probe2,1,532,NaN,dog,dog,1-10-10,0532_eid_dnn_1-10-10_dog_10_n02098105_4676.png,n02098105_4676.png,1.0,0.86468977,0.23146129,0.44776016
alexnet_w1_mlp_simclrhn_probe2,1,533,NaN,cat,cat,2-10-10,0533_eid_dnn_2-10-10_cat_10_n02123045_3593.png,n02123045_3593.png,1.0,0.5163283,-1.7967852,1.6356182
alexnet_w1_mlp_simclrhn_probe2,1,534,NaN,oven,bottle,8-10-10,0534_eid_dnn_8-10-10_bottle_10_n04560804_265.png,n04560804_265.png,0.0,-2.2840593,-0.09194437,-1.5500593
alexnet_w1_mlp_simclrhn_probe2,1,535,NaN,oven,knife,128-10-10,0535_eid_dnn_128-10-10_knife_10_n03041632_1556.png,n03041632_1556.png,0.0,-1.3808327,0.07863348,-1.0319984
alexnet_w1_mlp_simclrhn_probe2,1,536,NaN,elephant,chair,4-10-10,0536_eid_dnn_4-10-10_chair_10_n02791124_9595.png,n02791124_9595.png,0.0,-1.7255127,0.041671533,-1.249588
alexnet_w1_mlp_simclrhn_probe2,1,537,NaN,oven,dog,32-10-10,0537_eid_dnn_32-10-10_dog_10_n02107312_2933.png,n02107312_2933.png,0.0,-1.4804283,0.43226543,-1.3524787
alexnet_w1_mlp_simclrhn_probe2,1,538,NaN,oven,oven,32-10-10,0538_eid_dnn_32-10-10_oven_10_n04111531_101.png,n04111531_101.png,1.0,0.9953464,-1.1185548,1.4947538
alexnet_w1_mlp_simclrhn_probe2,1,539,NaN,truck,truck,4-10-10,0539_eid_dnn_4-10-10_truck_10_n03417042_7204.png,n03417042_7204.png,1.0,0.06117837,0.027930975,0.02350946
alexnet_w1_mlp_simclrhn_probe2,1,540,NaN,oven,bear,64-10-10,0540_eid_dnn_64-10-10_bear_10_n02132136_2120.png,n02132136_2120.png,0.0,-0.39753467,0.24684104,-0.45564243
alexnet_w1_mlp_simclrhn_probe2,1,541,NaN,oven,airplane,64-10-10,0541_eid_dnn_64-10-10_airplane_10_n02690373_18412.png,n02690373_18412.png,0.0,-2.285476,0.2791264,-1.8134477
alexnet_w1_mlp_simclrhn_probe2,1,542,NaN,oven,knife,128-10-10,0542_eid_dnn_128-10-10_knife_10_n03041632_21017.png,n03041632_21017.png,0.0,-2.6244369,0.56468004,-2.2550464
alexnet_w1_mlp_simclrhn_probe2,1,543,NaN,oven,elephant,128-10-10,0543_eid_dnn_128-10-10_elephant_10_n02504458_8414.png,n02504458_8414.png,0.0,-0.8960961,0.75836545,-1.1698811
alexnet_w1_mlp_simclrhn_probe2,1,544,NaN,oven,bottle,128-10-10,0544_eid_dnn_128-10-10_bottle_10_n04557648_11046.png,n04557648_11046.png,0.0,-2.0070996,0.17755117,-1.5447814
alexnet_w1_mlp_simclrhn_probe2,1,545,NaN,oven,clock,64-10-10,0545_eid_dnn_64-10-10_clock_10_n03196217_10578.png,n03196217_10578.png,0.0,-5.498335,1.2099082,-4.7434444
alexnet_w1_mlp_simclrhn_probe2,1,546,NaN,bear,bear,2-10-10,0546_eid_dnn_2-10-10_bear_10_n02134418_3213.png,n02134418_3213.png,1.0,1.8610284,1.4758625,0.27235344
alexnet_w1_mlp_simclrhn_probe2,1,547,NaN,bear,clock,64-10-10,0547_eid_dnn_64-10-10_clock_10_n03196217_6289.png,n03196217_6289.png,0.0,-3.2213547,-1.0736983,-1.5186225
alexnet_w1_mlp_simclrhn_probe2,1,548,NaN,bear,dog,32-10-10,0548_eid_dnn_32-10-10_dog_10_n02096294_1498.png,n02096294_1498.png,0.0,-0.9019786,0.79177564,-1.1976651
alexnet_w1_mlp_simclrhn_probe2,1,549,NaN,oven,oven,16-10-10,0549_eid_dnn_16-10-10_oven_10_n04111531_519.png,n04111531_519.png,1.0,0.596692,-1.0264467,1.1477324
alexnet_w1_mlp_simclrhn_probe2,1,550,NaN,bird,bird,1-10-10,0550_eid_dnn_1-10-10_bird_10_n01531178_14959.png,n01531178_14959.png,1.0,2.4452775,-2.7875817,3.7001903
alexnet_w1_mlp_simclrhn_probe2,1,551,NaN,oven,bear,32-10-10,0551_eid_dnn_32-10-10_bear_10_n02132136_8754.png,n02132136_8754.png,0.0,0.30556518,0.9579625,-0.4613146
alexnet_w1_mlp_simclrhn_probe2,1,552,NaN,car,car,1-10-10,0552_eid_dnn_1-10-10_car_10_n02814533_73067.png,n02814533_73067.png,1.0,6.0102043,4.078707,1.3657748
alexnet_w1_mlp_simclrhn_probe2,1,553,NaN,bear,cat,8-10-10,0553_eid_dnn_8-10-10_cat_10_n02124075_15378.png,n02124075_15378.png,0.0,-0.32805791,0.078815386,-0.28770286
alexnet_w1_mlp_simclrhn_probe2,1,554,NaN,oven,bird,128-10-10,0554_eid_dnn_128-10-10_bird_10_n01592084_7569.png,n01592084_7569.png,0.0,-3.4544923,1.4831023,-3.4914064
alexnet_w1_mlp_simclrhn_probe2,1,555,NaN,oven,dog,128-10-10,0555_eid_dnn_128-10-10_dog_10_n02094114_3395.png,n02094114_3395.png,0.0,-1.3038057,0.17891732,-1.0484436
alexnet_w1_mlp_simclrhn_probe2,1,556,NaN,chair,chair,4-10-10,0556_eid_dnn_4-10-10_chair_10_n03376595_1712.png,n03376595_1712.png,1.0,-0.22670662,-0.62121296,0.2789581
alexnet_w1_mlp_simclrhn_probe2,1,557,NaN,oven,bear,64-10-10,0557_eid_dnn_64-10-10_bear_10_n02134084_622.png,n02134084_622.png,0.0,0.060605362,0.75113827,-0.48828053
alexnet_w1_mlp_simclrhn_probe2,1,558,NaN,bottle,clock,8-10-10,0558_eid_dnn_8-10-10_clock_10_n03196217_4912.png,n03196217_4912.png,0.0,-1.5729289,0.68394816,-1.595853
alexnet_w1_mlp_simclrhn_probe2,1,559,NaN,oven,car,64-10-10,0559_eid_dnn_64-10-10_car_10_n03100240_18815.png,n03100240_18815.png,0.0,-7.878612,1.846812,-6.876913
alexnet_w1_mlp_simclrhn_probe2,1,560,NaN,bicycle,chair,2-10-10,0560_eid_dnn_2-10-10_chair_10_n04099969_2020.png,n04099969_2020.png,0.0,1.3874345,3.0445547,-1.1717609
alexnet_w1_mlp_simclrhn_probe2,1,561,NaN,bear,bear,1-10-10,0561_eid_dnn_1-10-10_bear_10_n02132136_7647.png,n02132136_7647.png,1.0,3.7328436,-0.22518027,2.7987456
alexnet_w1_mlp_simclrhn_probe2,1,562,NaN,elephant,oven,128-10-10,0562_eid_dnn_128-10-10_oven_10_n04111531_2796.png,n04111531_2796.png,0.0,-1.1466656,-0.35811198,-0.5575916
alexnet_w1_mlp_simclrhn_probe2,1,563,NaN,oven,truck,64-10-10,0563_eid_dnn_64-10-10_truck_10_n03796401_9472.png,n03796401_9472.png,0.0,-6.31732,0.9471847,-5.1367803
alexnet_w1_mlp_simclrhn_probe2,1,564,NaN,oven,chair,4-10-10,0564_eid_dnn_4-10-10_chair_10_n03376595_12433.png,n03376595_12433.png,0.0,-0.5814568,-0.3193117,-0.18536456
alexnet_w1_mlp_simclrhn_probe2,1,565,NaN,car,truck,4-10-10,0565_eid_dnn_4-10-10_truck_10_n04467665_31539.png,n04467665_31539.png,0.0,3.0368886,3.8251846,-0.55740947
alexnet_w1_mlp_simclrhn_probe2,1,566,NaN,airplane,airplane,32-10-10,0566_eid_dnn_32-10-10_airplane_10_n02690373_10657.png,n02690373_10657.png,1.0,-0.096952796,-1.2628795,0.8244347
alexnet_w1_mlp_simclrhn_probe2,1,567,NaN,oven,truck,16-10-10,0567_eid_dnn_16-10-10_truck_10_n03796401_5963.png,n03796401_5963.png,0.0,-7.387582,1.6537317,-6.393174
alexnet_w1_mlp_simclrhn_probe2,1,568,NaN,bear,dog,64-10-10,0568_eid_dnn_64-10-10_dog_10_n02096294_2233.png,n02096294_2233.png,0.0,-1.8740954,0.22737107,-1.4859612
alexnet_w1_mlp_simclrhn_probe2,1,569,NaN,oven,airplane,128-10-10,0569_eid_dnn_128-10-10_airplane_10_n02690373_4873.png,n02690373_4873.png,0.0,-2.126615,-0.38283703,-1.2330372
alexnet_w1_mlp_simclrhn_probe2,1,570,NaN,airplane,truck,1-10-10,0570_eid_dnn_1-10-10_truck_10_n04467665_4825.png,n04467665_4825.png,0.0,1.647118,2.2161775,-0.40238583
alexnet_w1_mlp_simclrhn_probe2,1,571,NaN,cat,chair,16-10-10,0571_eid_dnn_16-10-10_chair_10_n04099969_1704.png,n04099969_1704.png,0.0,-2.4017785,-0.68009883,-1.2174114
alexnet_w1_mlp_simclrhn_probe2,1,572,NaN,bicycle,bicycle,2-10-10,0572_eid_dnn_2-10-10_bicycle_10_n02835271_1573.png,n02835271_1573.png,1.0,5.043358,-0.26584345,3.7541723
alexnet_w1_mlp_simclrhn_probe2,1,573,NaN,bear,boat,2-10-10,0573_eid_dnn_2-10-10_boat_10_n04273569_12725.png,n04273569_12725.png,0.0,-2.381662,0.21330494,-1.8349187
alexnet_w1_mlp_simclrhn_probe2,1,574,NaN,oven,knife,128-10-10,0574_eid_dnn_128-10-10_knife_10_n03041632_11285.png,n03041632_11285.png,0.0,-0.98619795,-0.8777132,-0.0767103
alexnet_w1_mlp_simclrhn_probe2,1,575,NaN,keyboard,clock,4-10-10,0575_eid_dnn_4-10-10_clock_10_n03196217_8254.png,n03196217_8254.png,0.0,-0.44218993,0.10873975,-0.38956612
alexnet_w1_mlp_simclrhn_probe2,1,576,NaN,oven,knife,16-10-10,0576_eid_dnn_16-10-10_knife_10_n03041632_15099.png,n03041632_15099.png,0.0,-1.9498056,-0.99951744,-0.6719552
alexnet_w1_mlp_simclrhn_probe2,1,577,NaN,bear,cat,64-10-10,0577_eid_dnn_64-10-10_cat_10_n02125311_30452.png,n02125311_30452.png,0.0,-0.7716897,-0.0015987977,-0.54453653
alexnet_w1_mlp_simclrhn_probe2,1,578,NaN,bear,bottle,32-10-10,0578_eid_dnn_32-10-10_bottle_10_n04591713_6804.png,n04591713_6804.png,0.0,-1.7755873,-0.4717198,-0.92197365
alexnet_w1_mlp_simclrhn_probe2,1,579,NaN,oven,dog,64-10-10,0579_eid_dnn_64-10-10_dog_10_n02088364_14369.png,n02088364_14369.png,0.0,-2.108823,1.1415182,-2.2983384
alexnet_w1_mlp_simclrhn_probe2,1,580,NaN,oven,truck,32-10-10,0580_eid_dnn_32-10-10_truck_10_n03796401_16425.png,n03796401_16425.png,0.0,-7.86841,1.4904569,-6.617718
alexnet_w1_mlp_simclrhn_probe2,1,581,NaN,oven,truck,64-10-10,0581_eid_dnn_64-10-10_truck_10_n03417042_5406.png,n03417042_5406.png,0.0,-6.814648,0.89972603,-5.4548864
alexnet_w1_mlp_simclrhn_probe2,1,582,NaN,knife,knife,1-10-10,0582_eid_dnn_1-10-10_knife_10_n03041632_52929.png,n03041632_52929.png,1.0,-0.35847783,-0.58717406,0.16171266
alexnet_w1_mlp_simclrhn_probe2,1,583,NaN,oven,chair,64-10-10,0583_eid_dnn_64-10-10_chair_10_n03376595_4820.png,n03376595_4820.png,0.0,-4.02663,-0.12761517,-2.7570198
alexnet_w1_mlp_simclrhn_probe2,1,584,NaN,oven,chair,1-10-10,0584_eid_dnn_1-10-10_chair_10_n03376595_787.png,n03376595_787.png,0.0,0.22615439,0.41548312,-0.13387564
alexnet_w1_mlp_simclrhn_probe2,1,585,NaN,oven,chair,2-10-10,0585_eid_dnn_2-10-10_chair_10_n03376595_7709.png,n03376595_7709.png,0.0,-0.10244398,-0.03523302,-0.047525324
alexnet_w1_mlp_simclrhn_probe2,1,586,NaN,truck,bottle,1-10-10,0586_eid_dnn_1-10-10_bottle_10_n03983396_11006.png,n03983396_11006.png,0.0,-1.7545583,-0.5845978,-0.827287
alexnet_w1_mlp_simclrhn_probe2,1,587,NaN,oven,oven,8-10-10,0587_eid_dnn_8-10-10_oven_10_n04111531_458.png,n04111531_458.png,1.0,-0.6313578,-1.0383383,0.28777868
alexnet_w1_mlp_simclrhn_probe2,1,588,NaN,bear,cat,128-10-10,0588_eid_dnn_128-10-10_cat_10_n02123045_7829.png,n02123045_7829.png,0.0,-0.7479835,0.396372,-0.8091816
alexnet_w1_mlp_simclrhn_probe2,1,589,NaN,bear,bear,1-10-10,0589_eid_dnn_1-10-10_bear_10_n02134418_4685.png,n02134418_4685.png,1.0,2.8022943,0.60412043,1.5543436
alexnet_w1_mlp_simclrhn_probe2,1,590,NaN,oven,knife,64-10-10,0590_eid_dnn_64-10-10_knife_10_n03041632_1964.png,n03041632_1964.png,0.0,-1.5251019,0.079176426,-1.1343961
alexnet_w1_mlp_simclrhn_probe2,1,591,NaN,oven,car,4-10-10,0591_eid_dnn_4-10-10_car_10_n03100240_17472.png,n03100240_17472.png,0.0,-1.8258743,-0.030530453,-1.2694999
alexnet_w1_mlp_simclrhn_probe2,1,592,NaN,oven,dog,16-10-10,0592_eid_dnn_16-10-10_dog_10_n02113023_1980.png,n02113023_1980.png,0.0,-2.2466147,0.79591537,-2.1513937
alexnet_w1_mlp_simclrhn_probe2,1,593,NaN,cat,dog,32-10-10,0593_eid_dnn_32-10-10_dog_10_n02100735_6359.png,n02100735_6359.png,0.0,-0.37686223,0.0324228,-0.28940824
alexnet_w1_mlp_simclrhn_probe2,1,594,NaN,bicycle,knife,1-10-10,0594_eid_dnn_1-10-10_knife_10_n03041632_31849.png,n03041632_31849.png,0.0,-1.330059,1.5144681,-2.0113845
alexnet_w1_mlp_simclrhn_probe2,1,595,NaN,oven,bird,8-10-10,0595_eid_dnn_8-10-10_bird_10_n01532829_23378.png,n01532829_23378.png,0.0,-2.157254,0.21135367,-1.6748587
alexnet_w1_mlp_simclrhn_probe2,1,596,NaN,oven,clock,64-10-10,0596_eid_dnn_64-10-10_clock_10_n02708093_5127.png,n02708093_5127.png,0.0,-4.908182,1.4985869,-4.5302696
