subj,session,trial,rt,object_response,category,condition,imagename,filename,is_correct,targ_act,max_nontarg_act,decision_margin
alexnet_w1_mlp_simclrhn_probe1,1,1,NaN,oven,oven,1-10-10,0001_eid_dnn_1-10-10_oven_10_n04111531_17072.png,n04111531_17072.png,1.0,2.8060021,-1.7009306,3.1868827
alexnet_w1_mlp_simclrhn_probe1,1,2,NaN,bear,airplane,16-10-10,0002_eid_dnn_16-10-10_airplane_10_n02690373_4183.png,n02690373_4183.png,0.0,-1.1014017,-0.6753074,-0.30129418
alexnet_w1_mlp_simclrhn_probe1,1,3,NaN,oven,car,8-10-10,0003_eid_dnn_8-10-10_car_10_n03100240_1137.png,n03100240_1137.png,0.0,-4.1959434,-1.724053,-1.7478905
alexnet_w1_mlp_simclrhn_probe1,1,4,NaN,clock,clock,2-10-10,0004_eid_dnn_2-10-10_clock_10_n04548280_7083.png,n04548280_7083.png,1.0,0.30191055,-2.1239772,1.7153617
alexnet_w1_mlp_simclrhn_probe1,1,5,NaN,bottle,bottle,2-10-10,0005_eid_dnn_2-10-10_bottle_10_n02823428_7810.png,n02823428_7810.png,1.0,-0.09710152,-0.35900185,0.18519151
alexnet_w1_mlp_simclrhn_probe1,1,6,NaN,bear,dog,128-10-10,0006_eid_dnn_128-10-10_dog_10_n02091244_8368.png,n02091244_8368.png,0.0,-3.2092724,-0.07137239,-2.2188303
alexnet_w1_mlp_simclrhn_probe1,1,7,NaN,bicycle,bicycle,1-10-10,0007_eid_dnn_1-10-10_bicycle_10_n02835271_2930.png,n02835271_2930.png,1.0,2.763182,-1.4726114,2.9951582
alexnet_w1_mlp_simclrhn_probe1,1,8,NaN,cat,knife,4-10-10,0008_eid_dnn_4-10-10_knife_10_n03041632_52848.png,n03041632_52848.png,0.0,-5.530465,-1.5185684,-2.8368394
alexnet_w1_mlp_simclrhn_probe1,1,9,NaN,bottle,bottle,2-10-10,0009_eid_dnn_2-10-10_bottle_10_n02823428_4097.png,n02823428_4097.png,1.0,5.073597,-0.40944564,3.8770967
alexnet_w1_mlp_simclrhn_probe1,1,10,NaN,dog,dog,8-10-10,0010_eid_dnn_8-10-10_dog_10_n02105641_10264.png,n02105641_10264.png,1.0,0.6601534,-0.5056057,0.82431614
alexnet_w1_mlp_simclrhn_probe1,1,11,NaN,oven,boat,8-10-10,0011_eid_dnn_8-10-10_boat_10_n03662601_10278.png,n03662601_10278.png,0.0,-1.9480251,-0.6677216,-0.9053113
alexnet_w1_mlp_simclrhn_probe1,1,12,NaN,oven,truck,32-10-10,0012_eid_dnn_32-10-10_truck_10_n04467665_76958.png,n04467665_76958.png,0.0,-7.4115067,-0.2730269,-5.0476675
alexnet_w1_mlp_simclrhn_probe1,1,13,NaN,bear,dog,16-10-10,0013_eid_dnn_16-10-10_dog_10_n02088238_12552.png,n02088238_12552.png,0.0,-1.9229665,-0.6785208,-0.879956
alexnet_w1_mlp_simclrhn_probe1,1,14,NaN,bear,dog,8-10-10,0014_eid_dnn_8-10-10_dog_10_n02102040_994.png,n02102040_994.png,0.0,-2.002424,1.8337595,-2.7125914
alexnet_w1_mlp_simclrhn_probe1,1,15,NaN,elephant,bear,128-10-10,0015_eid_dnn_128-10-10_bear_10_n02133161_1944.png,n02133161_1944.png,0.0,-1.3423648,-1.1057189,-0.16733395
alexnet_w1_mlp_simclrhn_probe1,1,16,NaN,airplane,car,16-10-10,0016_eid_dnn_16-10-10_car_10_n02814533_43040.png,n02814533_43040.png,0.0,-7.912773,-1.4808832,-4.548033
alexnet_w1_mlp_simclrhn_probe1,1,17,NaN,oven,oven,128-10-10,0017_eid_dnn_128-10-10_oven_10_n04111531_18592.png,n04111531_18592.png,1.0,-0.42707008,-1.7501019,0.9355248
alexnet_w1_mlp_simclrhn_probe1,1,18,NaN,oven,chair,16-10-10,0018_eid_dnn_16-10-10_chair_10_n02791124_4294.png,n02791124_4294.png,0.0,-5.463022,-0.0028766245,-3.860906
alexnet_w1_mlp_simclrhn_probe1,1,19,NaN,oven,knife,32-10-10,0019_eid_dnn_32-10-10_knife_10_n03041632_2630.png,n03041632_2630.png,0.0,-2.7799082,1.1734074,-2.7954164
alexnet_w1_mlp_simclrhn_probe1,1,20,NaN,elephant,elephant,1-10-10,0020_eid_dnn_1-10-10_elephant_10_n02504458_723.png,n02504458_723.png,1.0,7.65291,-0.74141407,5.9356837
alexnet_w1_mlp_simclrhn_probe1,1,21,NaN,chair,chair,4-10-10,0021_eid_dnn_4-10-10_chair_10_n03376595_6107.png,n03376595_6107.png,1.0,-0.3561091,-1.1035986,0.52855486
alexnet_w1_mlp_simclrhn_probe1,1,22,NaN,oven,clock,32-10-10,0022_eid_dnn_32-10-10_clock_10_n03196217_1337.png,n03196217_1337.png,0.0,-5.981281,1.1021465,-5.0087395
alexnet_w1_mlp_simclrhn_probe1,1,23,NaN,oven,boat,128-10-10,0023_eid_dnn_128-10-10_boat_10_n02951358_9550.png,n02951358_9550.png,0.0,-5.9163613,-0.67338455,-3.7073445
alexnet_w1_mlp_simclrhn_probe1,1,24,NaN,bottle,bird,128-10-10,0024_eid_dnn_128-10-10_bird_10_n01616318_2334.png,n01616318_2334.png,0.0,-7.3958764,-2.3933585,-3.5373142
alexnet_w1_mlp_simclrhn_probe1,1,25,NaN,oven,bottle,32-10-10,0025_eid_dnn_32-10-10_bottle_10_n03937543_1658.png,n03937543_1658.png,0.0,-1.0655228,-0.3008797,-0.5406843
alexnet_w1_mlp_simclrhn_probe1,1,26,NaN,elephant,elephant,2-10-10,0026_eid_dnn_2-10-10_elephant_10_n02504013_6731.png,n02504013_6731.png,1.0,2.1986454,1.7562149,0.31284562
alexnet_w1_mlp_simclrhn_probe1,1,27,NaN,keyboard,keyboard,4-10-10,0027_eid_dnn_4-10-10_keyboard_10_n04505470_4447.png,n04505470_4447.png,1.0,5.8720794,0.49276406,3.8037505
alexnet_w1_mlp_simclrhn_probe1,1,28,NaN,airplane,airplane,1-10-10,0028_eid_dnn_1-10-10_airplane_10_n02690373_4839.png,n02690373_4839.png,1.0,6.0380373,1.9766004,2.8718696
alexnet_w1_mlp_simclrhn_probe1,1,29,NaN,cat,keyboard,64-10-10,0029_eid_dnn_64-10-10_keyboard_10_n04505470_1651.png,n04505470_1651.png,0.0,-7.8866,-0.7616704,-5.038086
alexnet_w1_mlp_simclrhn_probe1,1,30,NaN,oven,keyboard,32-10-10,0030_eid_dnn_32-10-10_keyboard_10_n03085013_20601.png,n03085013_20601.png,0.0,-2.0518,-1.1993263,-0.60279
alexnet_w1_mlp_simclrhn_probe1,1,31,NaN,oven,airplane,64-10-10,0031_eid_dnn_64-10-10_airplane_10_n02690373_2217.png,n02690373_2217.png,0.0,-2.5373778,-2.0375633,-0.35342222
alexnet_w1_mlp_simclrhn_probe1,1,32,NaN,bicycle,bicycle,4-10-10,0032_eid_dnn_4-10-10_bicycle_10_n03792782_25019.png,n03792782_25019.png,1.0,-0.7012434,-1.0772877,0.26590347
alexnet_w1_mlp_simclrhn_probe1,1,33,NaN,cat,cat,8-10-10,0033_eid_dnn_8-10-10_cat_10_n02123597_13890.png,n02123597_13890.png,1.0,1.4840279,-1.0783811,1.8118968
alexnet_w1_mlp_simclrhn_probe1,1,34,NaN,boat,boat,1-10-10,0034_eid_dnn_1-10-10_boat_10_n04612504_214.png,n04612504_214.png,1.0,3.666909,-0.31399852,2.8149266
alexnet_w1_mlp_simclrhn_probe1,1,35,NaN,elephant,chair,128-10-10,0035_eid_dnn_128-10-10_chair_10_n02791124_2555.png,n02791124_2555.png,0.0,-6.3533173,-0.3131235,-4.271062
alexnet_w1_mlp_simclrhn_probe1,1,36,NaN,elephant,car,4-10-10,0036_eid_dnn_4-10-10_car_10_n04285008_2081.png,n04285008_2081.png,0.0,-1.7686416,-0.027920745,-1.2308755
alexnet_w1_mlp_simclrhn_probe1,1,37,NaN,bear,dog,32-10-10,0037_eid_dnn_32-10-10_dog_10_n02094114_8202.png,n02094114_8202.png,0.0,-1.4167025,-0.34177357,-0.7600896
alexnet_w1_mlp_simclrhn_probe1,1,38,NaN,oven,chair,64-10-10,0038_eid_dnn_64-10-10_chair_10_n04099969_4541.png,n04099969_4541.png,0.0,-7.221152,-0.84480554,-4.5087576
alexnet_w1_mlp_simclrhn_probe1,1,39,NaN,oven,boat,128-10-10,0039_eid_dnn_128-10-10_boat_10_n04612504_12864.png,n04612504_12864.png,0.0,-5.0530577,-0.67124295,-3.098411
alexnet_w1_mlp_simclrhn_probe1,1,40,NaN,airplane,airplane,4-10-10,0040_eid_dnn_4-10-10_airplane_10_n02690373_18460.png,n02690373_18460.png,1.0,2.0712774,-1.3926917,2.4493961
alexnet_w1_mlp_simclrhn_probe1,1,41,NaN,oven,bottle,64-10-10,0041_eid_dnn_64-10-10_bottle_10_n03983396_8982.png,n03983396_8982.png,0.0,-4.295488,-1.0598692,-2.2879279
alexnet_w1_mlp_simclrhn_probe1,1,42,NaN,bear,dog,16-10-10,0042_eid_dnn_16-10-10_dog_10_n02099601_10407.png,n02099601_10407.png,0.0,-1.8546681,1.3894938,-2.2939692
alexnet_w1_mlp_simclrhn_probe1,1,43,NaN,oven,airplane,32-10-10,0043_eid_dnn_32-10-10_airplane_10_n02690373_5253.png,n02690373_5253.png,0.0,-2.6032162,-0.45614916,-1.5182058
alexnet_w1_mlp_simclrhn_probe1,1,44,NaN,elephant,elephant,2-10-10,0044_eid_dnn_2-10-10_elephant_10_n02504013_2832.png,n02504013_2832.png,1.0,8.10865,4.6314764,2.4587333
alexnet_w1_mlp_simclrhn_probe1,1,45,NaN,clock,clock,1-10-10,0045_eid_dnn_1-10-10_clock_10_n02708093_8002.png,n02708093_8002.png,1.0,1.4953493,-0.70197856,1.5537455
alexnet_w1_mlp_simclrhn_probe1,1,46,NaN,chair,chair,2-10-10,0046_eid_dnn_2-10-10_chair_10_n03376595_1766.png,n03376595_1766.png,1.0,2.015105,-0.86528546,2.0367436
alexnet_w1_mlp_simclrhn_probe1,1,47,NaN,truck,truck,2-10-10,0047_eid_dnn_2-10-10_truck_10_n03417042_17616.png,n03417042_17616.png,1.0,2.026276,1.6088184,0.29518718
alexnet_w1_mlp_simclrhn_probe1,1,48,NaN,bear,bear,16-10-10,0048_eid_dnn_16-10-10_bear_10_n02134418_2804.png,n02134418_2804.png,1.0,2.5509577,-1.3931661,2.7889166
alexnet_w1_mlp_simclrhn_probe1,1,49,NaN,oven,car,64-10-10,0049_eid_dnn_64-10-10_car_10_n04285008_12101.png,n04285008_12101.png,0.0,-9.083852,-0.6064348,-5.994439
alexnet_w1_mlp_simclrhn_probe1,1,50,NaN,bear,bear,16-10-10,0050_eid_dnn_16-10-10_bear_10_n02134418_3828.png,n02134418_3828.png,1.0,0.79252046,0.080296576,0.50361836
alexnet_w1_mlp_simclrhn_probe1,1,51,NaN,bird,bird,2-10-10,0051_eid_dnn_2-10-10_bird_10_n01530575_5747.png,n01530575_5747.png,1.0,0.013983735,-3.5909767,2.549092
alexnet_w1_mlp_simclrhn_probe1,1,52,NaN,oven,truck,128-10-10,0052_eid_dnn_128-10-10_truck_10_n03796401_3386.png,n03796401_3386.png,0.0,-8.653578,0.07000643,-6.1685057
alexnet_w1_mlp_simclrhn_probe1,1,53,NaN,oven,keyboard,16-10-10,0053_eid_dnn_16-10-10_keyboard_10_n04505470_3234.png,n04505470_3234.png,0.0,-5.357297,-3.3067994,-1.4499208
alexnet_w1_mlp_simclrhn_probe1,1,54,NaN,airplane,truck,1-10-10,0054_eid_dnn_1-10-10_truck_10_n04467665_72639.png,n04467665_72639.png,0.0,-1.1161036,2.5162477,-2.5684605
alexnet_w1_mlp_simclrhn_probe1,1,55,NaN,oven,chair,32-10-10,0055_eid_dnn_32-10-10_chair_10_n04429376_27524.png,n04429376_27524.png,0.0,-8.007792,0.24947119,-5.838767
alexnet_w1_mlp_simclrhn_probe1,1,56,NaN,oven,bottle,64-10-10,0056_eid_dnn_64-10-10_bottle_10_n04557648_11440.png,n04557648_11440.png,0.0,-1.8589619,-1.5342301,-0.22962008
alexnet_w1_mlp_simclrhn_probe1,1,57,NaN,oven,keyboard,32-10-10,0057_eid_dnn_32-10-10_keyboard_10_n03085013_20216.png,n03085013_20216.png,0.0,-5.5070853,2.7374828,-5.82979
alexnet_w1_mlp_simclrhn_probe1,1,58,NaN,dog,boat,8-10-10,0058_eid_dnn_8-10-10_boat_10_n02951358_34653.png,n02951358_34653.png,0.0,-3.845571,-0.65914917,-2.2531404
alexnet_w1_mlp_simclrhn_probe1,1,59,NaN,keyboard,keyboard,2-10-10,0059_eid_dnn_2-10-10_keyboard_10_n03085013_8932.png,n03085013_8932.png,1.0,0.7465693,-0.6451088,0.98406506
alexnet_w1_mlp_simclrhn_probe1,1,60,NaN,bear,cat,1-10-10,0060_eid_dnn_1-10-10_cat_10_n02125311_35338.png,n02125311_35338.png,0.0,-1.2356914,-1.220227,-0.010935
alexnet_w1_mlp_simclrhn_probe1,1,61,NaN,oven,bicycle,16-10-10,0061_eid_dnn_16-10-10_bicycle_10_n03792782_5449.png,n03792782_5449.png,0.0,-4.627211,0.8925458,-3.9030576
alexnet_w1_mlp_simclrhn_probe1,1,62,NaN,bicycle,bicycle,4-10-10,0062_eid_dnn_4-10-10_bicycle_10_n03792782_9432.png,n03792782_9432.png,1.0,-0.11166775,-0.43254203,0.22689238
alexnet_w1_mlp_simclrhn_probe1,1,63,NaN,oven,bottle,1-10-10,0063_eid_dnn_1-10-10_bottle_10_n04591713_4291.png,n04591713_4291.png,0.0,-4.0538454,-0.85587764,-2.2613046
alexnet_w1_mlp_simclrhn_probe1,1,64,NaN,truck,truck,4-10-10,0064_eid_dnn_4-10-10_truck_10_n04467665_67057.png,n04467665_67057.png,1.0,-0.19670099,-1.3647349,0.82592463
alexnet_w1_mlp_simclrhn_probe1,1,65,NaN,oven,keyboard,1-10-10,0065_eid_dnn_1-10-10_keyboard_10_n03085013_22790.png,n03085013_22790.png,0.0,-3.8752134,-1.1712742,-1.9119738
alexnet_w1_mlp_simclrhn_probe1,1,66,NaN,cat,dog,4-10-10,0066_eid_dnn_4-10-10_dog_10_n02086079_2896.png,n02086079_2896.png,0.0,-0.83053225,-0.30334315,-0.372779
alexnet_w1_mlp_simclrhn_probe1,1,67,NaN,boat,knife,8-10-10,0067_eid_dnn_8-10-10_knife_10_n03041632_40508.png,n03041632_40508.png,0.0,-3.2478182,-2.1057131,-0.8075903
alexnet_w1_mlp_simclrhn_probe1,1,68,NaN,airplane,boat,1-10-10,0068_eid_dnn_1-10-10_boat_10_n03344393_7942.png,n03344393_7942.png,0.0,0.6272919,0.92885244,-0.2132355
alexnet_w1_mlp_simclrhn_probe1,1,69,NaN,bear,bear,2-10-10,0069_eid_dnn_2-10-10_bear_10_n02134418_4352.png,n02134418_4352.png,1.0,3.3227656,0.35464564,2.0987778
alexnet_w1_mlp_simclrhn_probe1,1,70,NaN,bear,cat,16-10-10,0070_eid_dnn_16-10-10_cat_10_n02123045_5157.png,n02123045_5157.png,0.0,-1.5472416,1.5190898,-2.1682239
alexnet_w1_mlp_simclrhn_probe1,1,71,NaN,bear,dog,16-10-10,0071_eid_dnn_16-10-10_dog_10_n02109047_14287.png,n02109047_14287.png,0.0,-1.5463843,0.2055002,-1.2387695
alexnet_w1_mlp_simclrhn_probe1,1,72,NaN,truck,truck,2-10-10,0072_eid_dnn_2-10-10_truck_10_n03417042_14274.png,n03417042_14274.png,1.0,1.5556836,-0.34492397,1.3439325
alexnet_w1_mlp_simclrhn_probe1,1,73,NaN,airplane,airplane,2-10-10,0073_eid_dnn_2-10-10_airplane_10_n02690373_5885.png,n02690373_5885.png,1.0,-2.2197285,-3.0799801,0.6082898
alexnet_w1_mlp_simclrhn_probe1,1,74,NaN,bear,cat,32-10-10,0074_eid_dnn_32-10-10_cat_10_n02123394_571.png,n02123394_571.png,0.0,-1.9988178,-1.765905,-0.1646942
alexnet_w1_mlp_simclrhn_probe1,1,75,NaN,cat,cat,32-10-10,0075_eid_dnn_32-10-10_cat_10_n02123045_10171.png,n02123045_10171.png,1.0,-0.0037451584,-1.083446,0.7634638
alexnet_w1_mlp_simclrhn_probe1,1,76,NaN,bottle,bottle,8-10-10,0076_eid_dnn_8-10-10_bottle_10_n04560804_4909.png,n04560804_4909.png,1.0,-1.2869271,-1.902717,0.43542922
alexnet_w1_mlp_simclrhn_probe1,1,77,NaN,knife,keyboard,8-10-10,0077_eid_dnn_8-10-10_keyboard_10_n03085013_7971.png,n03085013_7971.png,0.0,-2.5046647,-2.1985116,-0.21648291
alexnet_w1_mlp_simclrhn_probe1,1,78,NaN,oven,keyboard,16-10-10,0078_eid_dnn_16-10-10_keyboard_10_n03085013_21397.png,n03085013_21397.png,0.0,-4.6790657,-0.6588637,-2.8427122
alexnet_w1_mlp_simclrhn_probe1,1,79,NaN,bear,elephant,32-10-10,0079_eid_dnn_32-10-10_elephant_10_n02504458_4187.png,n02504458_4187.png,0.0,-1.0112069,0.895468,-1.3482227
alexnet_w1_mlp_simclrhn_probe1,1,80,NaN,bear,clock,8-10-10,0080_eid_dnn_8-10-10_clock_10_n03196217_6689.png,n03196217_6689.png,0.0,-7.8385797,1.0759645,-6.3035345
alexnet_w1_mlp_simclrhn_probe1,1,81,NaN,knife,knife,4-10-10,0081_eid_dnn_4-10-10_knife_10_n03041632_26236.png,n03041632_26236.png,1.0,-1.4991817,-2.0756485,0.4076236
alexnet_w1_mlp_simclrhn_probe1,1,82,NaN,bicycle,car,8-10-10,0082_eid_dnn_8-10-10_car_10_n03100240_1262.png,n03100240_1262.png,0.0,-4.316348,-1.7353342,-1.8250525
alexnet_w1_mlp_simclrhn_probe1,1,83,NaN,oven,keyboard,64-10-10,0083_eid_dnn_64-10-10_keyboard_10_n04505470_5059.png,n04505470_5059.png,0.0,-5.7024317,-0.2287566,-3.870473
alexnet_w1_mlp_simclrhn_probe1,1,84,NaN,bird,bird,1-10-10,0084_eid_dnn_1-10-10_bird_10_n01537544_26417.png,n01537544_26417.png,1.0,-0.18885255,-2.991042,1.9814471
alexnet_w1_mlp_simclrhn_probe1,1,85,NaN,bear,bird,32-10-10,0085_eid_dnn_32-10-10_bird_10_n02009912_5714.png,n02009912_5714.png,0.0,-6.1806173,-0.3424354,-4.128218
alexnet_w1_mlp_simclrhn_probe1,1,86,NaN,oven,chair,128-10-10,0086_eid_dnn_128-10-10_chair_10_n03376595_5972.png,n03376595_5972.png,0.0,-7.495206,0.42308295,-5.599076
alexnet_w1_mlp_simclrhn_probe1,1,87,NaN,oven,chair,2-10-10,0087_eid_dnn_2-10-10_chair_10_n04429376_805.png,n04429376_805.png,0.0,-0.52332616,-0.099561214,-0.29964706
alexnet_w1_mlp_simclrhn_probe1,1,88,NaN,bear,bicycle,128-10-10,0088_eid_dnn_128-10-10_bicycle_10_n03792782_4083.png,n03792782_4083.png,0.0,-3.9326897,-1.0303924,-2.0522342
alexnet_w1_mlp_simclrhn_probe1,1,89,NaN,clock,clock,1-10-10,0089_eid_dnn_1-10-10_clock_10_n02708093_798.png,n02708093_798.png,1.0,0.4988675,-0.4553364,0.67472404
alexnet_w1_mlp_simclrhn_probe1,1,90,NaN,bear,bear,1-10-10,0090_eid_dnn_1-10-10_bear_10_n02133161_1660.png,n02133161_1660.png,1.0,3.0531507,-0.301614,2.372177
alexnet_w1_mlp_simclrhn_probe1,1,91,NaN,oven,car,8-10-10,0091_eid_dnn_8-10-10_car_10_n04285008_9464.png,n04285008_9464.png,0.0,-7.217131,-0.5442354,-4.71845
alexnet_w1_mlp_simclrhn_probe1,1,92,NaN,oven,oven,16-10-10,0092_eid_dnn_16-10-10_oven_10_n04111531_3314.png,n04111531_3314.png,1.0,2.0185223,-1.0034217,2.1368372
alexnet_w1_mlp_simclrhn_probe1,1,93,NaN,bear,cat,128-10-10,0093_eid_dnn_128-10-10_cat_10_n02123394_5753.png,n02123394_5753.png,0.0,-1.3552114,-0.08969033,-0.89485854
alexnet_w1_mlp_simclrhn_probe1,1,94,NaN,boat,boat,2-10-10,0094_eid_dnn_2-10-10_boat_10_n02951358_34042.png,n02951358_34042.png,1.0,-0.4633252,-0.9112103,0.3167026
alexnet_w1_mlp_simclrhn_probe1,1,95,NaN,oven,truck,64-10-10,0095_eid_dnn_64-10-10_truck_10_n03417042_7588.png,n03417042_7588.png,0.0,-6.985257,-0.23942484,-4.770024
alexnet_w1_mlp_simclrhn_probe1,1,96,NaN,oven,truck,32-10-10,0096_eid_dnn_32-10-10_truck_10_n03417042_4200.png,n03417042_4200.png,0.0,-7.2600646,2.2473621,-6.7227664
alexnet_w1_mlp_simclrhn_probe1,1,97,NaN,airplane,airplane,4-10-10,0097_eid_dnn_4-10-10_airplane_10_n02690373_4335.png,n02690373_4335.png,1.0,2.7878351,-1.6595287,3.144761
alexnet_w1_mlp_simclrhn_probe1,1,98,NaN,oven,elephant,128-10-10,0098_eid_dnn_128-10-10_elephant_10_n02504458_6823.png,n02504458_6823.png,0.0,-3.2752185,-1.7354397,-1.088788
alexnet_w1_mlp_simclrhn_probe1,1,99,NaN,boat,boat,4-10-10,0099_eid_dnn_4-10-10_boat_10_n03344393_4214.png,n03344393_4214.png,1.0,2.284665,0.726215,1.1019907
alexnet_w1_mlp_simclrhn_probe1,1,100,NaN,keyboard,keyboard,4-10-10,0100_eid_dnn_4-10-10_keyboard_10_n03085013_22949.png,n03085013_22949.png,1.0,2.7186155,-0.28225797,2.121938
alexnet_w1_mlp_simclrhn_probe1,1,101,NaN,bear,bear,64-10-10,0101_eid_dnn_64-10-10_bear_10_n02132136_31664.png,n02132136_31664.png,1.0,-1.0179029,-1.4578555,0.31109348
alexnet_w1_mlp_simclrhn_probe1,1,102,NaN,keyboard,bottle,8-10-10,0102_eid_dnn_8-10-10_bottle_10_n03983396_1985.png,n03983396_1985.png,0.0,-3.4798636,-2.473775,-0.7114122
alexnet_w1_mlp_simclrhn_probe1,1,103,NaN,airplane,airplane,2-10-10,0103_eid_dnn_2-10-10_airplane_10_n02690373_9266.png,n02690373_9266.png,1.0,5.7791524,-1.3600616,5.048187
alexnet_w1_mlp_simclrhn_probe1,1,104,NaN,knife,bottle,128-10-10,0104_eid_dnn_128-10-10_bottle_10_n02823428_5961.png,n02823428_5961.png,0.0,-4.141492,-1.4924695,-1.8731416
alexnet_w1_mlp_simclrhn_probe1,1,105,NaN,bottle,bottle,4-10-10,0105_eid_dnn_4-10-10_bottle_10_n04579145_1856.png,n04579145_1856.png,1.0,0.45511967,-0.3677548,0.5818601
alexnet_w1_mlp_simclrhn_probe1,1,106,NaN,bear,clock,64-10-10,0106_eid_dnn_64-10-10_clock_10_n02708093_7810.png,n02708093_7810.png,0.0,-6.3947835,-0.22459589,-4.3629813
alexnet_w1_mlp_simclrhn_probe1,1,107,NaN,dog,dog,1-10-10,0107_eid_dnn_1-10-10_dog_10_n02100735_4949.png,n02100735_4949.png,1.0,0.47323516,-0.8626207,0.9445927
alexnet_w1_mlp_simclrhn_probe1,1,108,NaN,oven,chair,32-10-10,0108_eid_dnn_32-10-10_chair_10_n03376595_7275.png,n03376595_7275.png,0.0,-7.060339,-1.3369882,-4.04702
alexnet_w1_mlp_simclrhn_probe1,1,109,NaN,bottle,bottle,2-10-10,0109_eid_dnn_2-10-10_bottle_10_n03983396_16741.png,n03983396_16741.png,1.0,1.3505541,-0.4849791,1.297918
alexnet_w1_mlp_simclrhn_probe1,1,110,NaN,bear,boat,32-10-10,0110_eid_dnn_32-10-10_boat_10_n04612504_8719.png,n04612504_8719.png,0.0,-7.504841,-1.8966186,-3.965612
alexnet_w1_mlp_simclrhn_probe1,1,111,NaN,chair,chair,1-10-10,0111_eid_dnn_1-10-10_chair_10_n02791124_3570.png,n02791124_3570.png,1.0,3.4886308,-1.2339582,3.3393748
alexnet_w1_mlp_simclrhn_probe1,1,112,NaN,bear,bear,32-10-10,0112_eid_dnn_32-10-10_bear_10_n02132136_9557.png,n02132136_9557.png,1.0,1.3706458,0.23565257,0.8025614
alexnet_w1_mlp_simclrhn_probe1,1,113,NaN,bear,bird,64-10-10,0113_eid_dnn_64-10-10_bird_10_n02002556_5730.png,n02002556_5730.png,0.0,-4.5550776,-0.2985576,-3.009814
alexnet_w1_mlp_simclrhn_probe1,1,114,NaN,oven,oven,4-10-10,0114_eid_dnn_4-10-10_oven_10_n04111531_8959.png,n04111531_8959.png,1.0,0.23843515,-2.5427992,1.9666296
alexnet_w1_mlp_simclrhn_probe1,1,115,NaN,elephant,cat,128-10-10,0115_eid_dnn_128-10-10_cat_10_n02123159_8101.png,n02123159_8101.png,0.0,-0.99451953,0.5939417,-1.1232116
alexnet_w1_mlp_simclrhn_probe1,1,116,NaN,dog,cat,8-10-10,0116_eid_dnn_8-10-10_cat_10_n02123597_8890.png,n02123597_8890.png,0.0,-1.0011014,-0.04826775,-0.67375517
alexnet_w1_mlp_simclrhn_probe1,1,117,NaN,elephant,elephant,1-10-10,0117_eid_dnn_1-10-10_elephant_10_n02504458_220.png,n02504458_220.png,1.0,9.138146,0.9853435,5.764902
alexnet_w1_mlp_simclrhn_probe1,1,118,NaN,oven,bicycle,128-10-10,0118_eid_dnn_128-10-10_bicycle_10_n02835271_2651.png,n02835271_2651.png,0.0,-2.9189034,-1.0082309,-1.3510494
alexnet_w1_mlp_simclrhn_probe1,1,119,NaN,oven,keyboard,64-10-10,0119_eid_dnn_64-10-10_keyboard_10_n04505470_1581.png,n04505470_1581.png,0.0,-8.948928,-1.3576013,-5.367879
alexnet_w1_mlp_simclrhn_probe1,1,120,NaN,truck,truck,4-10-10,0120_eid_dnn_4-10-10_truck_10_n04467665_1719.png,n04467665_1719.png,1.0,2.2218218,1.5283854,0.4903336
alexnet_w1_mlp_simclrhn_probe1,1,121,NaN,truck,truck,2-10-10,0121_eid_dnn_2-10-10_truck_10_n04467665_30756.png,n04467665_30756.png,1.0,6.295595,2.8076696,2.4663358
alexnet_w1_mlp_simclrhn_probe1,1,122,NaN,oven,oven,64-10-10,0122_eid_dnn_64-10-10_oven_10_n04111531_1818.png,n04111531_1818.png,1.0,-0.011971921,-1.1338872,0.79331386
alexnet_w1_mlp_simclrhn_probe1,1,123,NaN,elephant,elephant,64-10-10,0123_eid_dnn_64-10-10_elephant_10_n02504013_2974.png,n02504013_2974.png,1.0,1.2496663,0.89116615,0.25349793
alexnet_w1_mlp_simclrhn_probe1,1,124,NaN,elephant,bicycle,128-10-10,0124_eid_dnn_128-10-10_bicycle_10_n03792782_7713.png,n03792782_7713.png,0.0,-2.8906653,-0.9259039,-1.3892962
alexnet_w1_mlp_simclrhn_probe1,1,125,NaN,oven,clock,16-10-10,0125_eid_dnn_16-10-10_clock_10_n04548280_9700.png,n04548280_9700.png,0.0,-4.698902,-0.74027836,-2.7991698
alexnet_w1_mlp_simclrhn_probe1,1,126,NaN,oven,bottle,16-10-10,0126_eid_dnn_16-10-10_bottle_10_n04591713_1174.png,n04591713_1174.png,0.0,-4.9469,-0.58794653,-3.0822456
alexnet_w1_mlp_simclrhn_probe1,1,127,NaN,bear,bear,64-10-10,0127_eid_dnn_64-10-10_bear_10_n02134418_1395.png,n02134418_1395.png,1.0,0.6506739,-0.5460924,0.84624165
alexnet_w1_mlp_simclrhn_probe1,1,128,NaN,oven,bottle,128-10-10,0128_eid_dnn_128-10-10_bottle_10_n04591713_36.png,n04591713_36.png,0.0,-3.344735,0.14111418,-2.4648676
alexnet_w1_mlp_simclrhn_probe1,1,129,NaN,dog,knife,8-10-10,0129_eid_dnn_8-10-10_knife_10_n03041632_21034.png,n03041632_21034.png,0.0,-3.0285296,-1.5956676,-1.0131865
alexnet_w1_mlp_simclrhn_probe1,1,130,NaN,bicycle,bicycle,1-10-10,0130_eid_dnn_1-10-10_bicycle_10_n03792782_11115.png,n03792782_11115.png,1.0,11.814227,-3.872286,11.09204
alexnet_w1_mlp_simclrhn_probe1,1,131,NaN,oven,truck,16-10-10,0131_eid_dnn_16-10-10_truck_10_n03417042_5381.png,n03417042_5381.png,0.0,-7.228631,1.6735605,-6.2948
alexnet_w1_mlp_simclrhn_probe1,1,132,NaN,bear,boat,64-10-10,0132_eid_dnn_64-10-10_boat_10_n04612504_15258.png,n04612504_15258.png,0.0,-6.245042,0.39504388,-4.6952496
alexnet_w1_mlp_simclrhn_probe1,1,133,NaN,boat,boat,2-10-10,0133_eid_dnn_2-10-10_boat_10_n03662601_11972.png,n03662601_11972.png,1.0,3.3276334,1.9165628,0.9977776
alexnet_w1_mlp_simclrhn_probe1,1,134,NaN,oven,dog,64-10-10,0134_eid_dnn_64-10-10_dog_10_n02092002_11459.png,n02092002_11459.png,0.0,-1.7575924,-0.004488677,-1.2396315
alexnet_w1_mlp_simclrhn_probe1,1,135,NaN,oven,clock,64-10-10,0135_eid_dnn_64-10-10_clock_10_n04548280_6605.png,n04548280_6605.png,0.0,-4.474312,-1.2209013,-2.3005087
alexnet_w1_mlp_simclrhn_probe1,1,136,NaN,bear,boat,64-10-10,0136_eid_dnn_64-10-10_boat_10_n03662601_5600.png,n03662601_5600.png,0.0,-2.2200038,-1.2630277,-0.6766844
alexnet_w1_mlp_simclrhn_probe1,1,137,NaN,bear,bear,32-10-10,0137_eid_dnn_32-10-10_bear_10_n02134084_8153.png,n02134084_8153.png,1.0,-0.9764323,-2.189588,0.85783064
alexnet_w1_mlp_simclrhn_probe1,1,138,NaN,oven,cat,64-10-10,0138_eid_dnn_64-10-10_cat_10_n02124075_9225.png,n02124075_9225.png,0.0,-3.0150077,-0.4689281,-1.8003502
alexnet_w1_mlp_simclrhn_probe1,1,139,NaN,oven,bicycle,8-10-10,0139_eid_dnn_8-10-10_bicycle_10_n03792782_3591.png,n03792782_3591.png,0.0,-3.0928195,0.24762619,-2.3620517
alexnet_w1_mlp_simclrhn_probe1,1,140,NaN,bear,dog,64-10-10,0140_eid_dnn_64-10-10_dog_10_n02107142_31661.png,n02107142_31661.png,0.0,-1.9756751,0.114497125,-1.477975
alexnet_w1_mlp_simclrhn_probe1,1,141,NaN,elephant,elephant,8-10-10,0141_eid_dnn_8-10-10_elephant_10_n02504458_651.png,n02504458_651.png,1.0,5.791236,4.461668,0.9401465
alexnet_w1_mlp_simclrhn_probe1,1,142,NaN,oven,dog,128-10-10,0142_eid_dnn_128-10-10_dog_10_n02110958_15217.png,n02110958_15217.png,0.0,-2.5533736,-0.0396868,-1.777445
alexnet_w1_mlp_simclrhn_probe1,1,143,NaN,oven,oven,4-10-10,0143_eid_dnn_4-10-10_oven_10_n04111531_523.png,n04111531_523.png,1.0,0.75196445,-1.578351,1.647782
alexnet_w1_mlp_simclrhn_probe1,1,144,NaN,car,car,4-10-10,0144_eid_dnn_4-10-10_car_10_n02814533_42884.png,n02814533_42884.png,1.0,0.43777475,-2.4518151,2.0432487
alexnet_w1_mlp_simclrhn_probe1,1,145,NaN,oven,car,64-10-10,0145_eid_dnn_64-10-10_car_10_n04285008_8017.png,n04285008_8017.png,0.0,-9.043916,0.5139001,-6.758396
alexnet_w1_mlp_simclrhn_probe1,1,146,NaN,car,car,1-10-10,0146_eid_dnn_1-10-10_car_10_n03100240_16766.png,n03100240_16766.png,1.0,1.2566135,0.8454052,0.29076818
alexnet_w1_mlp_simclrhn_probe1,1,147,NaN,elephant,elephant,8-10-10,0147_eid_dnn_8-10-10_elephant_10_n02504458_4593.png,n02504458_4593.png,1.0,5.412511,2.5577068,2.0186512
alexnet_w1_mlp_simclrhn_probe1,1,148,NaN,oven,chair,64-10-10,0148_eid_dnn_64-10-10_chair_10_n02791124_1358.png,n02791124_1358.png,0.0,-12.035939,-2.109337,-7.019168
alexnet_w1_mlp_simclrhn_probe1,1,149,NaN,bear,dog,16-10-10,0149_eid_dnn_16-10-10_dog_10_n02095314_5363.png,n02095314_5363.png,0.0,-0.5202825,-0.4811827,-0.027647743
alexnet_w1_mlp_simclrhn_probe1,1,150,NaN,knife,clock,8-10-10,0150_eid_dnn_8-10-10_clock_10_n04548280_1413.png,n04548280_1413.png,0.0,-2.8023593,-1.7917552,-0.71460503
alexnet_w1_mlp_simclrhn_probe1,1,151,NaN,dog,dog,1-10-10,0151_eid_dnn_1-10-10_dog_10_n02105641_10948.png,n02105641_10948.png,1.0,2.5115793,-3.8527367,4.5002513
alexnet_w1_mlp_simclrhn_probe1,1,152,NaN,bear,dog,1-10-10,0152_eid_dnn_1-10-10_dog_10_n02113624_1691.png,n02113624_1691.png,0.0,-0.014664165,2.3574085,-1.6773087
alexnet_w1_mlp_simclrhn_probe1,1,153,NaN,truck,car,4-10-10,0153_eid_dnn_4-10-10_car_10_n03100240_2235.png,n03100240_2235.png,0.0,1.5354414,2.0193899,-0.34220326
alexnet_w1_mlp_simclrhn_probe1,1,154,NaN,oven,chair,2-10-10,0154_eid_dnn_2-10-10_chair_10_n04099969_56470.png,n04099969_56470.png,0.0,-1.0235958,-0.7284955,-0.20866744
alexnet_w1_mlp_simclrhn_probe1,1,155,NaN,oven,oven,2-10-10,0155_eid_dnn_2-10-10_oven_10_n04111531_5429.png,n04111531_5429.png,1.0,5.771938,-0.5309435,4.45681
alexnet_w1_mlp_simclrhn_probe1,1,156,NaN,oven,keyboard,64-10-10,0156_eid_dnn_64-10-10_keyboard_10_n03085013_19317.png,n03085013_19317.png,0.0,-7.709374,-0.42515132,-5.1507235
alexnet_w1_mlp_simclrhn_probe1,1,157,NaN,bear,bird,64-10-10,0157_eid_dnn_64-10-10_bird_10_n01601694_19650.png,n01601694_19650.png,0.0,-3.2287495,-1.5490623,-1.1877183
alexnet_w1_mlp_simclrhn_probe1,1,158,NaN,oven,clock,128-10-10,0158_eid_dnn_128-10-10_clock_10_n03196217_11199.png,n03196217_11199.png,0.0,-6.9143996,-0.0026521385,-4.8873434
alexnet_w1_mlp_simclrhn_probe1,1,159,NaN,dog,bottle,32-10-10,0159_eid_dnn_32-10-10_bottle_10_n03937543_2209.png,n03937543_2209.png,0.0,-4.330172,-1.1291932,-2.263434
alexnet_w1_mlp_simclrhn_probe1,1,160,NaN,oven,car,64-10-10,0160_eid_dnn_64-10-10_car_10_n03100240_16939.png,n03100240_16939.png,0.0,-8.546739,0.45348966,-6.3641224
alexnet_w1_mlp_simclrhn_probe1,1,161,NaN,oven,bottle,8-10-10,0161_eid_dnn_8-10-10_bottle_10_n04591713_2501.png,n04591713_2501.png,0.0,-1.5948607,-0.2696186,-0.93708766
alexnet_w1_mlp_simclrhn_probe1,1,162,NaN,airplane,airplane,16-10-10,0162_eid_dnn_16-10-10_airplane_10_n02690373_10395.png,n02690373_10395.png,1.0,0.3238778,-1.7523906,1.4681435
alexnet_w1_mlp_simclrhn_probe1,1,163,NaN,oven,oven,8-10-10,0163_eid_dnn_8-10-10_oven_10_n04111531_3286.png,n04111531_3286.png,1.0,2.5422761,-2.7365868,3.73272
alexnet_w1_mlp_simclrhn_probe1,1,164,NaN,oven,boat,64-10-10,0164_eid_dnn_64-10-10_boat_10_n04273569_13401.png,n04273569_13401.png,0.0,-8.976048,1.0287814,-7.074483
alexnet_w1_mlp_simclrhn_probe1,1,165,NaN,bear,elephant,64-10-10,0165_eid_dnn_64-10-10_elephant_10_n02504458_12776.png,n02504458_12776.png,0.0,-1.5669184,-0.58800626,-0.6921954
alexnet_w1_mlp_simclrhn_probe1,1,166,NaN,bird,bird,2-10-10,0166_eid_dnn_2-10-10_bird_10_n01828970_997.png,n01828970_997.png,1.0,2.288233,-1.120824,2.4105675
alexnet_w1_mlp_simclrhn_probe1,1,167,NaN,bear,bear,8-10-10,0167_eid_dnn_8-10-10_bear_10_n02132136_10318.png,n02132136_10318.png,1.0,2.239037,0.89939743,0.9472683
alexnet_w1_mlp_simclrhn_probe1,1,168,NaN,oven,oven,32-10-10,0168_eid_dnn_32-10-10_oven_10_n04111531_7883.png,n04111531_7883.png,1.0,4.0998387,-2.749542,4.8432436
alexnet_w1_mlp_simclrhn_probe1,1,169,NaN,oven,clock,128-10-10,0169_eid_dnn_128-10-10_clock_10_n02708093_725.png,n02708093_725.png,0.0,-3.561334,-0.75036156,-1.9876575
alexnet_w1_mlp_simclrhn_probe1,1,170,NaN,oven,bottle,16-10-10,0170_eid_dnn_16-10-10_bottle_10_n04557648_2052.png,n04557648_2052.png,0.0,-3.1767628,1.9487071,-3.6242547
alexnet_w1_mlp_simclrhn_probe1,1,171,NaN,oven,keyboard,32-10-10,0171_eid_dnn_32-10-10_keyboard_10_n04505470_5036.png,n04505470_5036.png,0.0,-6.2589483,1.695073,-5.6243424
alexnet_w1_mlp_simclrhn_probe1,1,172,NaN,elephant,elephant,8-10-10,0172_eid_dnn_8-10-10_elephant_10_n02504458_13352.png,n02504458_13352.png,1.0,2.5821247,1.3579901,0.86559385
alexnet_w1_mlp_simclrhn_probe1,1,173,NaN,dog,chair,4-10-10,0173_eid_dnn_4-10-10_chair_10_n04429376_30620.png,n04429376_30620.png,0.0,-2.4953375,-0.12638675,-1.6751013
alexnet_w1_mlp_simclrhn_probe1,1,174,NaN,airplane,boat,16-10-10,0174_eid_dnn_16-10-10_boat_10_n03662601_2980.png,n03662601_2980.png,0.0,-3.2625535,-1.5776312,-1.19142
alexnet_w1_mlp_simclrhn_probe1,1,175,NaN,boat,boat,8-10-10,0175_eid_dnn_8-10-10_boat_10_n03662601_4734.png,n03662601_4734.png,1.0,-2.3073812,-2.3996232,0.065224946
alexnet_w1_mlp_simclrhn_probe1,1,176,NaN,bear,bear,2-10-10,0176_eid_dnn_2-10-10_bear_10_n02134418_4754.png,n02134418_4754.png,1.0,3.545451,0.8849937,1.8812273
alexnet_w1_mlp_simclrhn_probe1,1,177,NaN,elephant,elephant,2-10-10,0177_eid_dnn_2-10-10_elephant_10_n02504013_8522.png,n02504013_8522.png,1.0,6.447105,2.4883814,2.7992404
alexnet_w1_mlp_simclrhn_probe1,1,178,NaN,oven,bottle,64-10-10,0178_eid_dnn_64-10-10_bottle_10_n03937543_4863.png,n03937543_4863.png,0.0,-4.195262,0.5489176,-3.3546417
alexnet_w1_mlp_simclrhn_probe1,1,179,NaN,oven,car,16-10-10,0179_eid_dnn_16-10-10_car_10_n04285008_10802.png,n04285008_10802.png,0.0,-8.520686,1.6457424,-7.1887507
alexnet_w1_mlp_simclrhn_probe1,1,180,NaN,oven,knife,64-10-10,0180_eid_dnn_64-10-10_knife_10_n03041632_6708.png,n03041632_6708.png,0.0,-2.1489425,0.80970633,-2.0920806
alexnet_w1_mlp_simclrhn_probe1,1,181,NaN,elephant,dog,1-10-10,0181_eid_dnn_1-10-10_dog_10_n02107142_61109.png,n02107142_61109.png,0.0,-1.354617,1.6652315,-2.1353552
alexnet_w1_mlp_simclrhn_probe1,1,182,NaN,knife,clock,2-10-10,0182_eid_dnn_2-10-10_clock_10_n03196217_8139.png,n03196217_8139.png,0.0,-2.291252,-0.16398895,-1.5042021
alexnet_w1_mlp_simclrhn_probe1,1,183,NaN,elephant,elephant,1-10-10,0183_eid_dnn_1-10-10_elephant_10_n02504458_6611.png,n02504458_6611.png,1.0,7.7238517,1.4677635,4.4237227
alexnet_w1_mlp_simclrhn_probe1,1,184,NaN,bear,truck,64-10-10,0184_eid_dnn_64-10-10_truck_10_n04467665_4401.png,n04467665_4401.png,0.0,-5.223078,-1.178292,-2.8600953
alexnet_w1_mlp_simclrhn_probe1,1,185,NaN,boat,boat,4-10-10,0185_eid_dnn_4-10-10_boat_10_n03344393_732.png,n03344393_732.png,1.0,0.66183966,-0.7946728,1.0299098
alexnet_w1_mlp_simclrhn_probe1,1,186,NaN,knife,knife,4-10-10,0186_eid_dnn_4-10-10_knife_10_n03041632_41381.png,n03041632_41381.png,1.0,-0.6706231,-1.1339602,0.32762882
alexnet_w1_mlp_simclrhn_probe1,1,187,NaN,oven,oven,32-10-10,0187_eid_dnn_32-10-10_oven_10_n04111531_22715.png,n04111531_22715.png,1.0,2.904763,-2.0608141,3.5111933
alexnet_w1_mlp_simclrhn_probe1,1,188,NaN,oven,cat,16-10-10,0188_eid_dnn_16-10-10_cat_10_n02123045_3568.png,n02123045_3568.png,0.0,-1.8987292,-1.1404929,-0.53615403
alexnet_w1_mlp_simclrhn_probe1,1,189,NaN,truck,truck,2-10-10,0189_eid_dnn_2-10-10_truck_10_n03796401_18976.png,n03796401_18976.png,1.0,6.1984196,3.9337463,1.6013658
alexnet_w1_mlp_simclrhn_probe1,1,190,NaN,oven,oven,8-10-10,0190_eid_dnn_8-10-10_oven_10_n04111531_15710.png,n04111531_15710.png,1.0,3.2175715,-1.0059698,2.9864948
alexnet_w1_mlp_simclrhn_probe1,1,191,NaN,bear,elephant,32-10-10,0191_eid_dnn_32-10-10_elephant_10_n02504013_7232.png,n02504013_7232.png,0.0,-0.6453787,1.9689238,-1.8485912
alexnet_w1_mlp_simclrhn_probe1,1,192,NaN,oven,clock,64-10-10,0192_eid_dnn_64-10-10_clock_10_n02708093_5126.png,n02708093_5126.png,0.0,-3.8158033,-1.2000933,-1.8495864
alexnet_w1_mlp_simclrhn_probe1,1,193,NaN,oven,cat,32-10-10,0193_eid_dnn_32-10-10_cat_10_n02123159_1598.png,n02123159_1598.png,0.0,-2.9891078,2.7617037,-4.0664377
alexnet_w1_mlp_simclrhn_probe1,1,194,NaN,car,car,1-10-10,0194_eid_dnn_1-10-10_car_10_n04285008_1661.png,n04285008_1661.png,1.0,10.188958,7.48349,1.913055
alexnet_w1_mlp_simclrhn_probe1,1,195,NaN,clock,clock,2-10-10,0195_eid_dnn_2-10-10_clock_10_n02708093_5551.png,n02708093_5551.png,1.0,2.5134976,-2.1348605,3.2868857
alexnet_w1_mlp_simclrhn_probe1,1,196,NaN,airplane,airplane,128-10-10,0196_eid_dnn_128-10-10_airplane_10_n02690373_693.png,n02690373_693.png,1.0,-0.3718149,-1.588861,0.8605815
alexnet_w1_mlp_simclrhn_probe1,1,197,NaN,elephant,elephant,2-10-10,0197_eid_dnn_2-10-10_elephant_10_n02504013_3409.png,n02504013_3409.png,1.0,5.3717833,0.96336246,3.1172242
alexnet_w1_mlp_simclrhn_probe1,1,198,NaN,oven,dog,64-10-10,0198_eid_dnn_64-10-10_dog_10_n02113712_8182.png,n02113712_8182.png,0.0,-2.2021613,-0.2705028,-1.3658888
alexnet_w1_mlp_simclrhn_probe1,1,199,NaN,bottle,bottle,1-10-10,0199_eid_dnn_1-10-10_bottle_10_n03983396_8322.png,n03983396_8322.png,1.0,0.9979641,-0.9233974,1.3586078
alexnet_w1_mlp_simclrhn_probe1,1,200,NaN,oven,keyboard,64-10-10,0200_eid_dnn_64-10-10_keyboard_10_n04505470_1040.png,n04505470_1040.png,0.0,-6.409807,-0.13352242,-4.4380035
alexnet_w1_mlp_simclrhn_probe1,1,201,NaN,oven,oven,32-10-10,0201_eid_dnn_32-10-10_oven_10_n04111531_11230.png,n04111531_11230.png,1.0,0.86653805,-1.5167058,1.6852078
alexnet_w1_mlp_simclrhn_probe1,1,202,NaN,cat,cat,1-10-10,0202_eid_dnn_1-10-10_cat_10_n02123394_6269.png,n02123394_6269.png,1.0,4.7318473,0.455808,3.0236163
alexnet_w1_mlp_simclrhn_probe1,1,203,NaN,elephant,elephant,2-10-10,0203_eid_dnn_2-10-10_elephant_10_n02504013_2075.png,n02504013_2075.png,1.0,5.349921,0.37984967,3.5143716
alexnet_w1_mlp_simclrhn_probe1,1,204,NaN,bear,bear,1-10-10,0204_eid_dnn_1-10-10_bear_10_n02133161_3795.png,n02133161_3795.png,1.0,0.755091,-0.3473779,0.7795633
alexnet_w1_mlp_simclrhn_probe1,1,205,NaN,oven,oven,2-10-10,0205_eid_dnn_2-10-10_oven_10_n04111531_4322.png,n04111531_4322.png,1.0,2.1124606,0.16925281,1.3740554
alexnet_w1_mlp_simclrhn_probe1,1,206,NaN,oven,bottle,4-10-10,0206_eid_dnn_4-10-10_bottle_10_n03937543_5799.png,n03937543_5799.png,0.0,-2.6401675,0.04152429,-1.8962424
alexnet_w1_mlp_simclrhn_probe1,1,207,NaN,bottle,keyboard,8-10-10,0207_eid_dnn_8-10-10_keyboard_10_n04505470_4414.png,n04505470_4414.png,0.0,-2.3727121,-1.2726042,-0.7778938
alexnet_w1_mlp_simclrhn_probe1,1,208,NaN,cat,dog,4-10-10,0208_eid_dnn_4-10-10_dog_10_n02091032_8315.png,n02091032_8315.png,0.0,-0.20107836,0.39336345,-0.4203338
alexnet_w1_mlp_simclrhn_probe1,1,209,NaN,knife,knife,2-10-10,0209_eid_dnn_2-10-10_knife_10_n03041632_39952.png,n03041632_39952.png,1.0,1.9814184,-2.013026,2.8244987
alexnet_w1_mlp_simclrhn_probe1,1,210,NaN,oven,chair,8-10-10,0210_eid_dnn_8-10-10_chair_10_n02791124_634.png,n02791124_634.png,0.0,-3.9268737,-2.289981,-1.1574581
alexnet_w1_mlp_simclrhn_probe1,1,211,NaN,bear,boat,32-10-10,0211_eid_dnn_32-10-10_boat_10_n03344393_3355.png,n03344393_3355.png,0.0,-2.3916433,-1.4340873,-0.67709434
alexnet_w1_mlp_simclrhn_probe1,1,212,NaN,bear,dog,32-10-10,0212_eid_dnn_32-10-10_dog_10_n02102040_7188.png,n02102040_7188.png,0.0,-1.8882872,-0.9874434,-0.63699275
alexnet_w1_mlp_simclrhn_probe1,1,213,NaN,knife,chair,2-10-10,0213_eid_dnn_2-10-10_chair_10_n02791124_8711.png,n02791124_8711.png,0.0,-0.58687264,-0.25978458,-0.23128618
alexnet_w1_mlp_simclrhn_probe1,1,214,NaN,bear,bear,64-10-10,0214_eid_dnn_64-10-10_bear_10_n02132136_6002.png,n02132136_6002.png,1.0,-0.73457575,-1.2750263,0.38215628
alexnet_w1_mlp_simclrhn_probe1,1,215,NaN,bicycle,boat,4-10-10,0215_eid_dnn_4-10-10_boat_10_n02951358_30184.png,n02951358_30184.png,0.0,-0.7231784,0.7979507,-1.0756007
alexnet_w1_mlp_simclrhn_probe1,1,216,NaN,oven,bottle,128-10-10,0216_eid_dnn_128-10-10_bottle_10_n02823428_3414.png,n02823428_3414.png,0.0,-3.5926213,-0.2793445,-2.3428404
alexnet_w1_mlp_simclrhn_probe1,1,217,NaN,elephant,truck,4-10-10,0217_eid_dnn_4-10-10_truck_10_n04467665_13231.png,n04467665_13231.png,0.0,-2.7676272,0.88202107,-2.580691
alexnet_w1_mlp_simclrhn_probe1,1,218,NaN,boat,chair,4-10-10,0218_eid_dnn_4-10-10_chair_10_n04099969_8063.png,n04099969_8063.png,0.0,-0.8436821,-0.043796178,-0.56560475
alexnet_w1_mlp_simclrhn_probe1,1,219,NaN,bird,bird,4-10-10,0219_eid_dnn_4-10-10_bird_10_n01534433_10234.png,n01534433_10234.png,1.0,-0.17102787,-3.5644429,2.3995068
alexnet_w1_mlp_simclrhn_probe1,1,220,NaN,elephant,elephant,4-10-10,0220_eid_dnn_4-10-10_elephant_10_n02504013_12533.png,n02504013_12533.png,1.0,1.4577558,1.0651871,0.277588
alexnet_w1_mlp_simclrhn_probe1,1,221,NaN,airplane,knife,16-10-10,0221_eid_dnn_16-10-10_knife_10_n03041632_18995.png,n03041632_18995.png,0.0,-3.4308238,-1.8308086,-1.1313816
alexnet_w1_mlp_simclrhn_probe1,1,222,NaN,bear,chair,32-10-10,0222_eid_dnn_32-10-10_chair_10_n04429376_7123.png,n04429376_7123.png,0.0,-8.030965,-1.311357,-4.7514806
alexnet_w1_mlp_simclrhn_probe1,1,223,NaN,oven,clock,64-10-10,0223_eid_dnn_64-10-10_clock_10_n03196217_9065.png,n03196217_9065.png,0.0,-2.9990704,-1.5754433,-1.0066564
alexnet_w1_mlp_simclrhn_probe1,1,224,NaN,cat,dog,4-10-10,0224_eid_dnn_4-10-10_dog_10_n02086079_4143.png,n02086079_4143.png,0.0,0.91536874,2.9398744,-1.4315417
alexnet_w1_mlp_simclrhn_probe1,1,225,NaN,bear,bear,4-10-10,0225_eid_dnn_4-10-10_bear_10_n02132136_20162.png,n02132136_20162.png,1.0,0.93553686,0.933993,0.0010916877
alexnet_w1_mlp_simclrhn_probe1,1,226,NaN,knife,bottle,1-10-10,0226_eid_dnn_1-10-10_bottle_10_n03983396_4165.png,n03983396_4165.png,0.0,-4.1313896,-1.2624884,-2.0286195
alexnet_w1_mlp_simclrhn_probe1,1,227,NaN,bird,bird,4-10-10,0227_eid_dnn_4-10-10_bird_10_n01824575_4470.png,n01824575_4470.png,1.0,-0.06710643,-1.2041271,0.80399495
alexnet_w1_mlp_simclrhn_probe1,1,228,NaN,oven,oven,64-10-10,0228_eid_dnn_64-10-10_oven_10_n04111531_9695.png,n04111531_9695.png,1.0,0.781664,-1.0890948,1.3228263
alexnet_w1_mlp_simclrhn_probe1,1,229,NaN,bear,bottle,64-10-10,0229_eid_dnn_64-10-10_bottle_10_n02823428_23181.png,n02823428_23181.png,0.0,-3.3893,-0.4292839,-2.0930476
alexnet_w1_mlp_simclrhn_probe1,1,230,NaN,bicycle,bicycle,2-10-10,0230_eid_dnn_2-10-10_bicycle_10_n02835271_13674.png,n02835271_13674.png,1.0,4.798667,-2.1692998,4.927097
alexnet_w1_mlp_simclrhn_probe1,1,231,NaN,oven,chair,2-10-10,0231_eid_dnn_2-10-10_chair_10_n04429376_55747.png,n04429376_55747.png,0.0,0.43706286,0.8625661,-0.30087623
alexnet_w1_mlp_simclrhn_probe1,1,232,NaN,cat,boat,32-10-10,0232_eid_dnn_32-10-10_boat_10_n02951358_8346.png,n02951358_8346.png,0.0,-10.6780615,-0.39747858,-7.2694697
alexnet_w1_mlp_simclrhn_probe1,1,233,NaN,bear,elephant,16-10-10,0233_eid_dnn_16-10-10_elephant_10_n02504013_1088.png,n02504013_1088.png,0.0,2.2269583,2.9359198,-0.5013115
alexnet_w1_mlp_simclrhn_probe1,1,234,NaN,oven,car,8-10-10,0234_eid_dnn_8-10-10_car_10_n03100240_11191.png,n03100240_11191.png,0.0,-1.7240905,-0.9403114,-0.5542155
alexnet_w1_mlp_simclrhn_probe1,1,235,NaN,chair,chair,8-10-10,0235_eid_dnn_8-10-10_chair_10_n04099969_19966.png,n04099969_19966.png,1.0,-1.1821562,-1.5278136,0.24441665
alexnet_w1_mlp_simclrhn_probe1,1,236,NaN,oven,bicycle,32-10-10,0236_eid_dnn_32-10-10_bicycle_10_n03792782_15016.png,n03792782_15016.png,0.0,-7.846842,-0.118202776,-5.4649734
alexnet_w1_mlp_simclrhn_probe1,1,237,NaN,elephant,boat,128-10-10,0237_eid_dnn_128-10-10_boat_10_n02951358_17867.png,n02951358_17867.png,0.0,-5.2343903,-0.08699514,-3.639758
alexnet_w1_mlp_simclrhn_probe1,1,238,NaN,cat,cat,2-10-10,0238_eid_dnn_2-10-10_cat_10_n02123045_2364.png,n02123045_2364.png,1.0,3.6684065,-1.5968137,3.723073
alexnet_w1_mlp_simclrhn_probe1,1,239,NaN,bear,bear,2-10-10,0239_eid_dnn_2-10-10_bear_10_n02132136_9433.png,n02132136_9433.png,1.0,2.8215942,0.9086189,1.3526778
alexnet_w1_mlp_simclrhn_probe1,1,240,NaN,oven,clock,32-10-10,0240_eid_dnn_32-10-10_clock_10_n03196217_3167.png,n03196217_3167.png,0.0,-6.5975385,-0.17565665,-4.540956
alexnet_w1_mlp_simclrhn_probe1,1,241,NaN,oven,clock,32-10-10,0241_eid_dnn_32-10-10_clock_10_n03196217_3129.png,n03196217_3129.png,0.0,-4.8511653,-0.47531867,-3.094191
alexnet_w1_mlp_simclrhn_probe1,1,242,NaN,cat,keyboard,128-10-10,0242_eid_dnn_128-10-10_keyboard_10_n03085013_6067.png,n03085013_6067.png,0.0,-4.8608623,-1.3681828,-2.4696975
alexnet_w1_mlp_simclrhn_probe1,1,243,NaN,keyboard,keyboard,2-10-10,0243_eid_dnn_2-10-10_keyboard_10_n03085013_24648.png,n03085013_24648.png,1.0,2.7626238,-1.31639,2.8842983
alexnet_w1_mlp_simclrhn_probe1,1,244,NaN,oven,oven,32-10-10,0244_eid_dnn_32-10-10_oven_10_n04111531_6695.png,n04111531_6695.png,1.0,1.9997002,-0.35507324,1.6650764
alexnet_w1_mlp_simclrhn_probe1,1,245,NaN,bear,dog,4-10-10,0245_eid_dnn_4-10-10_dog_10_n02111500_4875.png,n02111500_4875.png,0.0,0.33597705,0.78739864,-0.31920326
alexnet_w1_mlp_simclrhn_probe1,1,246,NaN,oven,oven,32-10-10,0246_eid_dnn_32-10-10_oven_10_n04111531_13018.png,n04111531_13018.png,1.0,0.3756877,-2.029645,1.700827
alexnet_w1_mlp_simclrhn_probe1,1,247,NaN,oven,keyboard,128-10-10,0247_eid_dnn_128-10-10_keyboard_10_n03085013_23030.png,n03085013_23030.png,0.0,-6.3544445,0.44849822,-4.810407
alexnet_w1_mlp_simclrhn_probe1,1,248,NaN,dog,cat,8-10-10,0248_eid_dnn_8-10-10_cat_10_n02123045_8409.png,n02123045_8409.png,0.0,-1.2671114,0.2379414,-1.0642331
alexnet_w1_mlp_simclrhn_probe1,1,249,NaN,bicycle,bicycle,4-10-10,0249_eid_dnn_4-10-10_bicycle_10_n03792782_37777.png,n03792782_37777.png,1.0,2.2853322,-1.5851997,2.7368796
alexnet_w1_mlp_simclrhn_probe1,1,250,NaN,bear,airplane,64-10-10,0250_eid_dnn_64-10-10_airplane_10_n02690373_614.png,n02690373_614.png,0.0,-2.4419143,-0.28897387,-1.5223589
alexnet_w1_mlp_simclrhn_probe1,1,251,NaN,oven,keyboard,128-10-10,0251_eid_dnn_128-10-10_keyboard_10_n03085013_19775.png,n03085013_19775.png,0.0,-6.70854,-0.4640805,-4.4154997
alexnet_w1_mlp_simclrhn_probe1,1,252,NaN,bear,bear,8-10-10,0252_eid_dnn_8-10-10_bear_10_n02133161_1244.png,n02133161_1244.png,1.0,2.8659751,0.94361734,1.3593123
alexnet_w1_mlp_simclrhn_probe1,1,253,NaN,car,keyboard,2-10-10,0253_eid_dnn_2-10-10_keyboard_10_n04505470_4368.png,n04505470_4368.png,0.0,0.27428317,2.8778927,-1.84103
alexnet_w1_mlp_simclrhn_probe1,1,254,NaN,oven,oven,2-10-10,0254_eid_dnn_2-10-10_oven_10_n04111531_7728.png,n04111531_7728.png,1.0,4.128762,-0.20677666,3.0656886
alexnet_w1_mlp_simclrhn_probe1,1,255,NaN,oven,clock,8-10-10,0255_eid_dnn_8-10-10_clock_10_n04548280_1.png,n04548280_1.png,0.0,-7.0704265,1.7128187,-6.2106924
alexnet_w1_mlp_simclrhn_probe1,1,256,NaN,oven,cat,64-10-10,0256_eid_dnn_64-10-10_cat_10_n02123394_3062.png,n02123394_3062.png,0.0,-2.8907902,0.6799749,-2.524912
alexnet_w1_mlp_simclrhn_probe1,1,257,NaN,elephant,elephant,2-10-10,0257_eid_dnn_2-10-10_elephant_10_n02504013_466.png,n02504013_466.png,1.0,4.3862095,-1.9929442,4.510743
alexnet_w1_mlp_simclrhn_probe1,1,258,NaN,elephant,elephant,1-10-10,0258_eid_dnn_1-10-10_elephant_10_n02504013_6275.png,n02504013_6275.png,1.0,4.2643785,-1.1013857,3.7941682
alexnet_w1_mlp_simclrhn_probe1,1,259,NaN,bird,bird,4-10-10,0259_eid_dnn_4-10-10_bird_10_n01560419_5466.png,n01560419_5466.png,1.0,-1.2072523,-3.1147194,1.348783
alexnet_w1_mlp_simclrhn_probe1,1,260,NaN,dog,truck,8-10-10,0260_eid_dnn_8-10-10_truck_10_n03796401_5227.png,n03796401_5227.png,0.0,-7.6249313,-2.1770203,-3.852255
alexnet_w1_mlp_simclrhn_probe1,1,261,NaN,chair,chair,2-10-10,0261_eid_dnn_2-10-10_chair_10_n04099969_25124.png,n04099969_25124.png,1.0,0.75648165,0.27755105,0.33865508
alexnet_w1_mlp_simclrhn_probe1,1,262,NaN,elephant,elephant,64-10-10,0262_eid_dnn_64-10-10_elephant_10_n02504013_7209.png,n02504013_7209.png,1.0,-0.6204591,-1.1108533,0.3467611
alexnet_w1_mlp_simclrhn_probe1,1,263,NaN,cat,cat,1-10-10,0263_eid_dnn_1-10-10_cat_10_n02123597_4756.png,n02123597_4756.png,1.0,0.3935475,0.1417903,0.17801923
alexnet_w1_mlp_simclrhn_probe1,1,264,NaN,bicycle,bicycle,16-10-10,0264_eid_dnn_16-10-10_bicycle_10_n02835271_4654.png,n02835271_4654.png,1.0,-3.2870743,-4.2048626,0.6489743
alexnet_w1_mlp_simclrhn_probe1,1,265,NaN,keyboard,keyboard,1-10-10,0265_eid_dnn_1-10-10_keyboard_10_n04505470_2389.png,n04505470_2389.png,1.0,4.9381504,-0.4809172,3.8318594
alexnet_w1_mlp_simclrhn_probe1,1,266,NaN,oven,knife,128-10-10,0266_eid_dnn_128-10-10_knife_10_n03041632_379.png,n03041632_379.png,0.0,-1.5387131,-0.8080219,-0.5166767
alexnet_w1_mlp_simclrhn_probe1,1,267,NaN,bicycle,clock,8-10-10,0267_eid_dnn_8-10-10_clock_10_n02708093_899.png,n02708093_899.png,0.0,-4.7588353,-2.0306919,-1.9290887
alexnet_w1_mlp_simclrhn_probe1,1,268,NaN,oven,truck,128-10-10,0268_eid_dnn_128-10-10_truck_10_n03417042_10154.png,n03417042_10154.png,0.0,-8.977957,0.8411374,-6.9431477
alexnet_w1_mlp_simclrhn_probe1,1,269,NaN,bottle,bottle,2-10-10,0269_eid_dnn_2-10-10_bottle_10_n04579145_3415.png,n04579145_3415.png,1.0,-0.3864236,-1.2352011,0.60017633
alexnet_w1_mlp_simclrhn_probe1,1,270,NaN,bear,chair,16-10-10,0270_eid_dnn_16-10-10_chair_10_n02791124_146.png,n02791124_146.png,0.0,-6.386525,1.9229155,-5.875662
alexnet_w1_mlp_simclrhn_probe1,1,271,NaN,oven,elephant,128-10-10,0271_eid_dnn_128-10-10_elephant_10_n02504458_2835.png,n02504458_2835.png,0.0,-1.6679176,-0.8074267,-0.608459
alexnet_w1_mlp_simclrhn_probe1,1,272,NaN,bicycle,bicycle,1-10-10,0272_eid_dnn_1-10-10_bicycle_10_n03792782_13835.png,n03792782_13835.png,1.0,1.9901172,-0.3376277,1.6459643
alexnet_w1_mlp_simclrhn_probe1,1,273,NaN,oven,bicycle,32-10-10,0273_eid_dnn_32-10-10_bicycle_10_n02835271_12926.png,n02835271_12926.png,0.0,-5.4528904,1.0736165,-4.6149373
alexnet_w1_mlp_simclrhn_probe1,1,274,NaN,dog,dog,2-10-10,0274_eid_dnn_2-10-10_dog_10_n02110185_11605.png,n02110185_11605.png,1.0,1.0875974,-0.08332517,0.8279673
alexnet_w1_mlp_simclrhn_probe1,1,275,NaN,bear,elephant,128-10-10,0275_eid_dnn_128-10-10_elephant_10_n02504458_3091.png,n02504458_3091.png,0.0,-0.37492934,0.2361214,-0.43207812
alexnet_w1_mlp_simclrhn_probe1,1,276,NaN,elephant,chair,128-10-10,0276_eid_dnn_128-10-10_chair_10_n04099969_5233.png,n04099969_5233.png,0.0,-7.6042194,-0.76714736,-4.83454
alexnet_w1_mlp_simclrhn_probe1,1,277,NaN,cat,dog,2-10-10,0277_eid_dnn_2-10-10_dog_10_n02097209_7628.png,n02097209_7628.png,0.0,0.074645594,0.7494238,-0.47714028
alexnet_w1_mlp_simclrhn_probe1,1,278,NaN,bear,cat,8-10-10,0278_eid_dnn_8-10-10_cat_10_n02123597_10941.png,n02123597_10941.png,0.0,0.12595908,1.9995729,-1.3248451
alexnet_w1_mlp_simclrhn_probe1,1,279,NaN,oven,clock,16-10-10,0279_eid_dnn_16-10-10_clock_10_n02708093_3006.png,n02708093_3006.png,0.0,-5.4751697,-2.4783845,-2.1190472
alexnet_w1_mlp_simclrhn_probe1,1,280,NaN,truck,truck,1-10-10,0280_eid_dnn_1-10-10_truck_10_n03796401_26620.png,n03796401_26620.png,1.0,1.1197582,0.25812235,0.6092686
alexnet_w1_mlp_simclrhn_probe1,1,281,NaN,oven,bear,128-10-10,0281_eid_dnn_128-10-10_bear_10_n02134418_12733.png,n02134418_12733.png,0.0,-0.46163625,0.78273964,-0.87990665
alexnet_w1_mlp_simclrhn_probe1,1,282,NaN,knife,knife,2-10-10,0282_eid_dnn_2-10-10_knife_10_n03041632_4806.png,n03041632_4806.png,1.0,-0.39478064,-2.5174983,1.500988
alexnet_w1_mlp_simclrhn_probe1,1,283,NaN,oven,oven,4-10-10,0283_eid_dnn_4-10-10_oven_10_n04111531_17922.png,n04111531_17922.png,1.0,4.420546,-2.4236588,4.839584
alexnet_w1_mlp_simclrhn_probe1,1,284,NaN,bottle,bottle,1-10-10,0284_eid_dnn_1-10-10_bottle_10_n04579145_6818.png,n04579145_6818.png,1.0,2.455126,-2.127562,3.2404501
alexnet_w1_mlp_simclrhn_probe1,1,285,NaN,keyboard,keyboard,4-10-10,0285_eid_dnn_4-10-10_keyboard_10_n04505470_494.png,n04505470_494.png,1.0,2.9193873,0.8251033,1.4808825
alexnet_w1_mlp_simclrhn_probe1,1,286,NaN,cat,cat,8-10-10,0286_eid_dnn_8-10-10_cat_10_n02123045_10834.png,n02123045_10834.png,1.0,1.502244,0.65644586,0.5980696
alexnet_w1_mlp_simclrhn_probe1,1,287,NaN,oven,cat,128-10-10,0287_eid_dnn_128-10-10_cat_10_n02123394_176.png,n02123394_176.png,0.0,-0.3551198,0.8282475,-0.836767
alexnet_w1_mlp_simclrhn_probe1,1,288,NaN,elephant,chair,128-10-10,0288_eid_dnn_128-10-10_chair_10_n03376595_2891.png,n03376595_2891.png,0.0,-8.690242,-0.8848449,-5.5192494
alexnet_w1_mlp_simclrhn_probe1,1,289,NaN,dog,dog,8-10-10,0289_eid_dnn_8-10-10_dog_10_n02093256_5647.png,n02093256_5647.png,1.0,1.0232748,0.8239657,0.14093278
alexnet_w1_mlp_simclrhn_probe1,1,290,NaN,oven,knife,64-10-10,0290_eid_dnn_64-10-10_knife_10_n03041632_33326.png,n03041632_33326.png,0.0,-2.6558776,-0.1593504,-1.7653114
alexnet_w1_mlp_simclrhn_probe1,1,291,NaN,oven,airplane,8-10-10,0291_eid_dnn_8-10-10_airplane_10_n02690373_2856.png,n02690373_2856.png,0.0,-4.2712536,-0.44748968,-2.7038095
alexnet_w1_mlp_simclrhn_probe1,1,292,NaN,oven,bicycle,128-10-10,0292_eid_dnn_128-10-10_bicycle_10_n03792782_9651.png,n03792782_9651.png,0.0,-3.5228362,-0.48007762,-2.1515553
alexnet_w1_mlp_simclrhn_probe1,1,293,NaN,bicycle,bicycle,2-10-10,0293_eid_dnn_2-10-10_bicycle_10_n02835271_7438.png,n02835271_7438.png,1.0,1.640953,-2.3875473,2.84858
alexnet_w1_mlp_simclrhn_probe1,1,294,NaN,oven,bicycle,128-10-10,0294_eid_dnn_128-10-10_bicycle_10_n02835271_26639.png,n02835271_26639.png,0.0,-4.691176,-0.5740499,-2.9112477
alexnet_w1_mlp_simclrhn_probe1,1,295,NaN,keyboard,keyboard,8-10-10,0295_eid_dnn_8-10-10_keyboard_10_n04505470_4458.png,n04505470_4458.png,1.0,2.4708517,-1.008396,2.4601996
alexnet_w1_mlp_simclrhn_probe1,1,296,NaN,oven,dog,64-10-10,0296_eid_dnn_64-10-10_dog_10_n02106662_24847.png,n02106662_24847.png,0.0,-3.3073585,-0.18326339,-2.209069
alexnet_w1_mlp_simclrhn_probe1,1,297,NaN,oven,chair,32-10-10,0297_eid_dnn_32-10-10_chair_10_n03376595_8995.png,n03376595_8995.png,0.0,-7.414403,0.34229413,-5.484813
alexnet_w1_mlp_simclrhn_probe1,1,298,NaN,bear,bicycle,64-10-10,0298_eid_dnn_64-10-10_bicycle_10_n03792782_6030.png,n03792782_6030.png,0.0,-3.2547598,-0.86074,-1.6928277
alexnet_w1_mlp_simclrhn_probe1,1,299,NaN,elephant,elephant,4-10-10,0299_eid_dnn_4-10-10_elephant_10_n02504458_7258.png,n02504458_7258.png,1.0,2.0260668,1.4653777,0.39646706
alexnet_w1_mlp_simclrhn_probe1,1,300,NaN,oven,boat,128-10-10,0300_eid_dnn_128-10-10_boat_10_n03662601_23903.png,n03662601_23903.png,0.0,-4.486286,-1.3985512,-2.1833584
alexnet_w1_mlp_simclrhn_probe1,1,301,NaN,oven,bird,16-10-10,0301_eid_dnn_16-10-10_bird_10_n02002724_578.png,n02002724_578.png,0.0,-4.093521,0.34627432,-3.1394095
alexnet_w1_mlp_simclrhn_probe1,1,302,NaN,oven,chair,64-10-10,0302_eid_dnn_64-10-10_chair_10_n03376595_2393.png,n03376595_2393.png,0.0,-5.981162,-1.7231688,-3.010856
alexnet_w1_mlp_simclrhn_probe1,1,303,NaN,airplane,boat,16-10-10,0303_eid_dnn_16-10-10_boat_10_n03662601_5118.png,n03662601_5118.png,0.0,-1.8083572,-0.39512846,-0.99930364
alexnet_w1_mlp_simclrhn_probe1,1,304,NaN,elephant,chair,8-10-10,0304_eid_dnn_8-10-10_chair_10_n04429376_21845.png,n04429376_21845.png,0.0,-4.006964,-0.2419783,-2.662247
alexnet_w1_mlp_simclrhn_probe1,1,305,NaN,airplane,dog,8-10-10,0305_eid_dnn_8-10-10_dog_10_n02102040_2216.png,n02102040_2216.png,0.0,-1.4805119,-1.3407718,-0.09881118
alexnet_w1_mlp_simclrhn_probe1,1,306,NaN,elephant,airplane,8-10-10,0306_eid_dnn_8-10-10_airplane_10_n02690373_3032.png,n02690373_3032.png,0.0,-0.14834161,0.15891862,-0.21726578
alexnet_w1_mlp_simclrhn_probe1,1,307,NaN,dog,dog,8-10-10,0307_eid_dnn_8-10-10_dog_10_n02100735_2228.png,n02100735_2228.png,1.0,-0.3535423,-0.43542442,0.057899404
alexnet_w1_mlp_simclrhn_probe1,1,308,NaN,bear,bird,8-10-10,0308_eid_dnn_8-10-10_bird_10_n01532829_13864.png,n01532829_13864.png,0.0,-1.2833846,-1.0564891,-0.16043931
alexnet_w1_mlp_simclrhn_probe1,1,309,NaN,oven,bird,64-10-10,0309_eid_dnn_64-10-10_bird_10_n01601694_13787.png,n01601694_13787.png,0.0,-4.06362,-0.6320328,-2.4264987
alexnet_w1_mlp_simclrhn_probe1,1,310,NaN,bear,bear,64-10-10,0310_eid_dnn_64-10-10_bear_10_n02134084_22150.png,n02134084_22150.png,1.0,-0.6914475,-2.2533755,1.1044499
alexnet_w1_mlp_simclrhn_probe1,1,311,NaN,oven,knife,16-10-10,0311_eid_dnn_16-10-10_knife_10_n03041632_29427.png,n03041632_29427.png,0.0,-4.009759,1.2676055,-3.7316604
alexnet_w1_mlp_simclrhn_probe1,1,312,NaN,oven,chair,4-10-10,0312_eid_dnn_4-10-10_chair_10_n02791124_2804.png,n02791124_2804.png,0.0,-1.3148732,-1.1625441,-0.10771293
alexnet_w1_mlp_simclrhn_probe1,1,313,NaN,bottle,bottle,4-10-10,0313_eid_dnn_4-10-10_bottle_10_n04591713_5046.png,n04591713_5046.png,1.0,4.3962016,1.621729,1.9618485
alexnet_w1_mlp_simclrhn_probe1,1,314,NaN,elephant,bicycle,128-10-10,0314_eid_dnn_128-10-10_bicycle_10_n03792782_4210.png,n03792782_4210.png,0.0,-5.267569,-0.24975638,-3.5481296
alexnet_w1_mlp_simclrhn_probe1,1,315,NaN,oven,cat,128-10-10,0315_eid_dnn_128-10-10_cat_10_n02123159_1596.png,n02123159_1596.png,0.0,-0.6919536,-0.69104576,-0.00064193865
alexnet_w1_mlp_simclrhn_probe1,1,316,NaN,airplane,car,2-10-10,0316_eid_dnn_2-10-10_car_10_n03100240_17588.png,n03100240_17588.png,0.0,4.4000587,4.427972,-0.019737538
alexnet_w1_mlp_simclrhn_probe1,1,317,NaN,dog,keyboard,4-10-10,0317_eid_dnn_4-10-10_keyboard_10_n03085013_23295.png,n03085013_23295.png,0.0,-7.204046,1.1696559,-5.9211016
alexnet_w1_mlp_simclrhn_probe1,1,318,NaN,oven,oven,32-10-10,0318_eid_dnn_32-10-10_oven_10_n04111531_4879.png,n04111531_4879.png,1.0,2.000191,-0.32568797,1.6446447
alexnet_w1_mlp_simclrhn_probe1,1,319,NaN,oven,keyboard,32-10-10,0319_eid_dnn_32-10-10_keyboard_10_n04505470_4569.png,n04505470_4569.png,0.0,-8.802121,1.9245162,-7.584878
alexnet_w1_mlp_simclrhn_probe1,1,320,NaN,elephant,truck,8-10-10,0320_eid_dnn_8-10-10_truck_10_n04467665_24190.png,n04467665_24190.png,0.0,-4.6537113,0.8830848,-3.915106
alexnet_w1_mlp_simclrhn_probe1,1,321,NaN,cat,cat,4-10-10,0321_eid_dnn_4-10-10_cat_10_n02124075_15405.png,n02124075_15405.png,1.0,0.7023557,-0.23914768,0.6657434
alexnet_w1_mlp_simclrhn_probe1,1,322,NaN,dog,knife,8-10-10,0322_eid_dnn_8-10-10_knife_10_n03041632_24817.png,n03041632_24817.png,0.0,-3.1011052,-0.59722245,-1.7705126
alexnet_w1_mlp_simclrhn_probe1,1,323,NaN,bear,elephant,64-10-10,0323_eid_dnn_64-10-10_elephant_10_n02504013_5505.png,n02504013_5505.png,0.0,-0.7263786,0.5346707,-0.8916965
alexnet_w1_mlp_simclrhn_probe1,1,324,NaN,airplane,airplane,8-10-10,0324_eid_dnn_8-10-10_airplane_10_n02690373_8846.png,n02690373_8846.png,1.0,-0.32052776,-0.35861805,0.026933901
alexnet_w1_mlp_simclrhn_probe1,1,325,NaN,bear,truck,32-10-10,0325_eid_dnn_32-10-10_truck_10_n04467665_50806.png,n04467665_50806.png,0.0,-5.7855673,-1.1354002,-3.2881646
alexnet_w1_mlp_simclrhn_probe1,1,326,NaN,elephant,elephant,4-10-10,0326_eid_dnn_4-10-10_elephant_10_n02504458_5539.png,n02504458_5539.png,1.0,5.5760584,0.6758855,3.4649453
alexnet_w1_mlp_simclrhn_probe1,1,327,NaN,boat,boat,1-10-10,0327_eid_dnn_1-10-10_boat_10_n03344393_1178.png,n03344393_1178.png,1.0,2.158751,1.1658895,0.7020591
alexnet_w1_mlp_simclrhn_probe1,1,328,NaN,truck,truck,4-10-10,0328_eid_dnn_4-10-10_truck_10_n04467665_10025.png,n04467665_10025.png,1.0,7.193206,3.9283752,2.308584
alexnet_w1_mlp_simclrhn_probe1,1,329,NaN,clock,clock,4-10-10,0329_eid_dnn_4-10-10_clock_10_n02708093_2869.png,n02708093_2869.png,1.0,-0.4089844,-1.0379428,0.4447407
alexnet_w1_mlp_simclrhn_probe1,1,330,NaN,bottle,bottle,8-10-10,0330_eid_dnn_8-10-10_bottle_10_n03983396_4879.png,n03983396_4879.png,1.0,-2.2635858,-2.7180514,0.32135573
alexnet_w1_mlp_simclrhn_probe1,1,331,NaN,oven,keyboard,128-10-10,0331_eid_dnn_128-10-10_keyboard_10_n03085013_10367.png,n03085013_10367.png,0.0,-4.374135,-0.7905321,-2.53399
alexnet_w1_mlp_simclrhn_probe1,1,332,NaN,oven,bird,64-10-10,0332_eid_dnn_64-10-10_bird_10_n01860187_21300.png,n01860187_21300.png,0.0,-3.7160041,-0.77128273,-2.0822325
alexnet_w1_mlp_simclrhn_probe1,1,333,NaN,oven,knife,32-10-10,0333_eid_dnn_32-10-10_knife_10_n03041632_5302.png,n03041632_5302.png,0.0,-3.2430239,-1.0603715,-1.5433683
alexnet_w1_mlp_simclrhn_probe1,1,334,NaN,bear,bear,4-10-10,0334_eid_dnn_4-10-10_bear_10_n02134084_5274.png,n02134084_5274.png,1.0,5.7341347,2.2933085,2.4330316
alexnet_w1_mlp_simclrhn_probe1,1,335,NaN,knife,knife,4-10-10,0335_eid_dnn_4-10-10_knife_10_n03041632_48816.png,n03041632_48816.png,1.0,-1.8210611,-1.8369603,0.0112424195
alexnet_w1_mlp_simclrhn_probe1,1,336,NaN,oven,elephant,16-10-10,0336_eid_dnn_16-10-10_elephant_10_n02504013_3295.png,n02504013_3295.png,0.0,-1.9262925,0.30871674,-1.5803902
alexnet_w1_mlp_simclrhn_probe1,1,337,NaN,oven,truck,128-10-10,0337_eid_dnn_128-10-10_truck_10_n03417042_2478.png,n03417042_2478.png,0.0,-5.791712,-0.28933406,-3.8907685
alexnet_w1_mlp_simclrhn_probe1,1,338,NaN,oven,oven,32-10-10,0338_eid_dnn_32-10-10_oven_10_n04111531_5350.png,n04111531_5350.png,1.0,0.4725089,-1.2648485,1.2284971
alexnet_w1_mlp_simclrhn_probe1,1,339,NaN,oven,airplane,8-10-10,0339_eid_dnn_8-10-10_airplane_10_n02690373_1663.png,n02690373_1663.png,0.0,-4.509713,-2.5637147,-1.3760287
alexnet_w1_mlp_simclrhn_probe1,1,340,NaN,boat,boat,4-10-10,0340_eid_dnn_4-10-10_boat_10_n03344393_1422.png,n03344393_1422.png,1.0,0.77216065,-0.027466714,0.56542194
alexnet_w1_mlp_simclrhn_probe1,1,341,NaN,oven,cat,32-10-10,0341_eid_dnn_32-10-10_cat_10_n02123159_3312.png,n02123159_3312.png,0.0,-2.328608,-1.1577712,-0.82790667
alexnet_w1_mlp_simclrhn_probe1,1,342,NaN,oven,chair,64-10-10,0342_eid_dnn_64-10-10_chair_10_n03376595_6171.png,n03376595_6171.png,0.0,-8.465831,-0.5731455,-5.5809712
alexnet_w1_mlp_simclrhn_probe1,1,343,NaN,bottle,bottle,8-10-10,0343_eid_dnn_8-10-10_bottle_10_n04591713_1616.png,n04591713_1616.png,1.0,-0.91699517,-1.4520924,0.37837088
alexnet_w1_mlp_simclrhn_probe1,1,344,NaN,bear,bear,128-10-10,0344_eid_dnn_128-10-10_bear_10_n02133161_1197.png,n02133161_1197.png,1.0,-1.0647674,-1.3770058,0.22078593
alexnet_w1_mlp_simclrhn_probe1,1,345,NaN,oven,truck,4-10-10,0345_eid_dnn_4-10-10_truck_10_n04467665_663.png,n04467665_663.png,0.0,-4.9788904,2.653723,-5.397073
alexnet_w1_mlp_simclrhn_probe1,1,346,NaN,bear,bear,4-10-10,0346_eid_dnn_4-10-10_bear_10_n02132136_2771.png,n02132136_2771.png,1.0,1.2214557,-0.997147,1.568789
alexnet_w1_mlp_simclrhn_probe1,1,347,NaN,oven,cat,16-10-10,0347_eid_dnn_16-10-10_cat_10_n02123394_12.png,n02123394_12.png,0.0,-2.2454245,-1.6446074,-0.42484185
alexnet_w1_mlp_simclrhn_probe1,1,348,NaN,bear,car,8-10-10,0348_eid_dnn_8-10-10_car_10_n04285008_1795.png,n04285008_1795.png,0.0,-6.8686576,-1.3905905,-3.8735783
alexnet_w1_mlp_simclrhn_probe1,1,349,NaN,bear,boat,4-10-10,0349_eid_dnn_4-10-10_boat_10_n04273569_1023.png,n04273569_1023.png,0.0,-1.6277945,-0.33496732,-0.91416687
alexnet_w1_mlp_simclrhn_probe1,1,350,NaN,boat,boat,1-10-10,0350_eid_dnn_1-10-10_boat_10_n03662601_21775.png,n03662601_21775.png,1.0,6.685781,2.1961322,3.1746612
alexnet_w1_mlp_simclrhn_probe1,1,351,NaN,keyboard,clock,1-10-10,0351_eid_dnn_1-10-10_clock_10_n03196217_71.png,n03196217_71.png,0.0,-0.79235077,0.2688678,-0.7503948
alexnet_w1_mlp_simclrhn_probe1,1,352,NaN,bottle,keyboard,4-10-10,0352_eid_dnn_4-10-10_keyboard_10_n04505470_3122.png,n04505470_3122.png,0.0,-1.5392663,-1.2751372,-0.18676752
alexnet_w1_mlp_simclrhn_probe1,1,353,NaN,oven,dog,32-10-10,0353_eid_dnn_32-10-10_dog_10_n02099849_4640.png,n02099849_4640.png,0.0,-2.2924519,0.4832754,-1.9627357
alexnet_w1_mlp_simclrhn_probe1,1,354,NaN,oven,bottle,64-10-10,0354_eid_dnn_64-10-10_bottle_10_n02823428_6418.png,n02823428_6418.png,0.0,-3.8805373,-0.07600847,-2.6902082
alexnet_w1_mlp_simclrhn_probe1,1,355,NaN,oven,car,8-10-10,0355_eid_dnn_8-10-10_car_10_n04285008_11704.png,n04285008_11704.png,0.0,-4.691113,-0.039608955,-3.2891102
alexnet_w1_mlp_simclrhn_probe1,1,356,NaN,knife,clock,32-10-10,0356_eid_dnn_32-10-10_clock_10_n02708093_3544.png,n02708093_3544.png,0.0,-1.9381107,-1.7024894,-0.16660945
alexnet_w1_mlp_simclrhn_probe1,1,357,NaN,knife,clock,8-10-10,0357_eid_dnn_8-10-10_clock_10_n04548280_4599.png,n04548280_4599.png,0.0,-4.964228,-1.489868,-2.4567435
alexnet_w1_mlp_simclrhn_probe1,1,358,NaN,oven,car,128-10-10,0358_eid_dnn_128-10-10_car_10_n03100240_6259.png,n03100240_6259.png,0.0,-11.237451,1.9042481,-9.292584
alexnet_w1_mlp_simclrhn_probe1,1,359,NaN,boat,boat,8-10-10,0359_eid_dnn_8-10-10_boat_10_n04273569_3401.png,n04273569_3401.png,1.0,-0.25297448,-0.49834132,0.17350057
alexnet_w1_mlp_simclrhn_probe1,1,360,NaN,bear,truck,64-10-10,0360_eid_dnn_64-10-10_truck_10_n04467665_13898.png,n04467665_13898.png,0.0,-7.027993,-2.2393365,-3.3860917
alexnet_w1_mlp_simclrhn_probe1,1,361,NaN,keyboard,clock,2-10-10,0361_eid_dnn_2-10-10_clock_10_n03196217_1499.png,n03196217_1499.png,0.0,-0.5990014,0.65213424,-0.88468647
alexnet_w1_mlp_simclrhn_probe1,1,362,NaN,elephant,car,4-10-10,0362_eid_dnn_4-10-10_car_10_n03100240_8702.png,n03100240_8702.png,0.0,-1.3864225,-1.1187323,-0.18928555
alexnet_w1_mlp_simclrhn_probe1,1,363,NaN,bear,bear,4-10-10,0363_eid_dnn_4-10-10_bear_10_n02134418_1770.png,n02134418_1770.png,1.0,1.5818603,0.27798295,0.92198056
alexnet_w1_mlp_simclrhn_probe1,1,364,NaN,bear,bear,16-10-10,0364_eid_dnn_16-10-10_bear_10_n02132136_32838.png,n02132136_32838.png,1.0,2.0529838,-0.2340181,1.6171546
alexnet_w1_mlp_simclrhn_probe1,1,365,NaN,boat,truck,4-10-10,0365_eid_dnn_4-10-10_truck_10_n04467665_68331.png,n04467665_68331.png,0.0,-3.3680894,-1.0846126,-1.6146619
alexnet_w1_mlp_simclrhn_probe1,1,366,NaN,airplane,airplane,1-10-10,0366_eid_dnn_1-10-10_airplane_10_n02690373_4506.png,n02690373_4506.png,1.0,7.0594077,0.16321664,4.8763437
alexnet_w1_mlp_simclrhn_probe1,1,367,NaN,car,car,2-10-10,0367_eid_dnn_2-10-10_car_10_n03100240_5308.png,n03100240_5308.png,1.0,2.773803,0.49314487,1.612669
alexnet_w1_mlp_simclrhn_probe1,1,368,NaN,oven,cat,2-10-10,0368_eid_dnn_2-10-10_cat_10_n02124075_15345.png,n02124075_15345.png,0.0,-5.377201,-0.33319354,-3.5666518
alexnet_w1_mlp_simclrhn_probe1,1,369,NaN,oven,bicycle,128-10-10,0369_eid_dnn_128-10-10_bicycle_10_n03792782_50972.png,n03792782_50972.png,0.0,-4.293168,-0.41753718,-2.740485
alexnet_w1_mlp_simclrhn_probe1,1,370,NaN,cat,knife,8-10-10,0370_eid_dnn_8-10-10_knife_10_n03041632_19098.png,n03041632_19098.png,0.0,-2.526696,-1.2256542,-0.91997546
alexnet_w1_mlp_simclrhn_probe1,1,371,NaN,oven,bottle,128-10-10,0371_eid_dnn_128-10-10_bottle_10_n04560804_15963.png,n04560804_15963.png,0.0,-4.4539533,0.22346735,-3.307436
alexnet_w1_mlp_simclrhn_probe1,1,372,NaN,oven,bottle,8-10-10,0372_eid_dnn_8-10-10_bottle_10_n04557648_7809.png,n04557648_7809.png,0.0,-3.358605,-0.013346821,-2.3654547
alexnet_w1_mlp_simclrhn_probe1,1,373,NaN,airplane,airplane,1-10-10,0373_eid_dnn_1-10-10_airplane_10_n02690373_17764.png,n02690373_17764.png,1.0,6.3188796,-1.0291386,5.1958337
alexnet_w1_mlp_simclrhn_probe1,1,374,NaN,oven,elephant,64-10-10,0374_eid_dnn_64-10-10_elephant_10_n02504013_7322.png,n02504013_7322.png,0.0,-3.8065534,1.2212653,-3.5552046
alexnet_w1_mlp_simclrhn_probe1,1,375,NaN,bear,bear,2-10-10,0375_eid_dnn_2-10-10_bear_10_n02134084_2959.png,n02134084_2959.png,1.0,0.8371971,0.785734,0.03638993
alexnet_w1_mlp_simclrhn_probe1,1,376,NaN,bird,bird,2-10-10,0376_eid_dnn_2-10-10_bird_10_n01622779_6563.png,n01622779_6563.png,1.0,-1.7220882,-2.2066891,0.3426646
alexnet_w1_mlp_simclrhn_probe1,1,377,NaN,oven,knife,16-10-10,0377_eid_dnn_16-10-10_knife_10_n03041632_19620.png,n03041632_19620.png,0.0,-1.5878749,-0.8885466,-0.4944998
alexnet_w1_mlp_simclrhn_probe1,1,378,NaN,bird,bird,4-10-10,0378_eid_dnn_4-10-10_bird_10_n01530575_35977.png,n01530575_35977.png,1.0,0.6694329,-2.0045903,1.8908199
alexnet_w1_mlp_simclrhn_probe1,1,379,NaN,oven,cat,128-10-10,0379_eid_dnn_128-10-10_cat_10_n02123394_1757.png,n02123394_1757.png,0.0,-2.9108741,0.10064122,-2.129463
alexnet_w1_mlp_simclrhn_probe1,1,380,NaN,oven,dog,2-10-10,0380_eid_dnn_2-10-10_dog_10_n02093647_6358.png,n02093647_6358.png,0.0,-3.7602975,-1.7564477,-1.4169359
alexnet_w1_mlp_simclrhn_probe1,1,381,NaN,bicycle,boat,1-10-10,0381_eid_dnn_1-10-10_boat_10_n02951358_1470.png,n02951358_1470.png,0.0,0.3796304,0.6531636,-0.1934172
alexnet_w1_mlp_simclrhn_probe1,1,382,NaN,bear,elephant,128-10-10,0382_eid_dnn_128-10-10_elephant_10_n02504458_2026.png,n02504458_2026.png,0.0,-1.3127966,-0.66635954,-0.45710003
alexnet_w1_mlp_simclrhn_probe1,1,383,NaN,bear,elephant,32-10-10,0383_eid_dnn_32-10-10_elephant_10_n02504458_3730.png,n02504458_3730.png,0.0,0.16479433,0.6410562,-0.336768
alexnet_w1_mlp_simclrhn_probe1,1,384,NaN,oven,keyboard,8-10-10,0384_eid_dnn_8-10-10_keyboard_10_n03085013_20881.png,n03085013_20881.png,0.0,-2.9264214,1.2020973,-2.9193034
alexnet_w1_mlp_simclrhn_probe1,1,385,NaN,dog,dog,4-10-10,0385_eid_dnn_4-10-10_dog_10_n02105641_8188.png,n02105641_8188.png,1.0,1.2844769,0.0036734343,0.9056648
alexnet_w1_mlp_simclrhn_probe1,1,386,NaN,oven,clock,32-10-10,0386_eid_dnn_32-10-10_clock_10_n03196217_6320.png,n03196217_6320.png,0.0,-6.641665,-2.1852129,-3.1511877
alexnet_w1_mlp_simclrhn_probe1,1,387,NaN,oven,car,32-10-10,0387_eid_dnn_32-10-10_car_10_n04285008_12333.png,n04285008_12333.png,0.0,-10.789346,0.4620505,-7.955939
alexnet_w1_mlp_simclrhn_probe1,1,388,NaN,knife,knife,2-10-10,0388_eid_dnn_2-10-10_knife_10_n03041632_47743.png,n03041632_47743.png,1.0,0.16682586,-2.5681655,1.933931
alexnet_w1_mlp_simclrhn_probe1,1,389,NaN,boat,boat,8-10-10,0389_eid_dnn_8-10-10_boat_10_n04612504_8073.png,n04612504_8073.png,1.0,0.9747015,-0.9017608,1.3268592
alexnet_w1_mlp_simclrhn_probe1,1,390,NaN,oven,knife,128-10-10,0390_eid_dnn_128-10-10_knife_10_n03041632_20770.png,n03041632_20770.png,0.0,-2.741818,1.3306028,-2.8796363
alexnet_w1_mlp_simclrhn_probe1,1,391,NaN,oven,car,32-10-10,0391_eid_dnn_32-10-10_car_10_n02814533_28783.png,n02814533_28783.png,0.0,-9.151161,1.13006,-7.2699213
alexnet_w1_mlp_simclrhn_probe1,1,392,NaN,oven,car,128-10-10,0392_eid_dnn_128-10-10_car_10_n02814533_13533.png,n02814533_13533.png,0.0,-9.669636,-2.0708923,-5.373123
alexnet_w1_mlp_simclrhn_probe1,1,393,NaN,dog,dog,16-10-10,0393_eid_dnn_16-10-10_dog_10_n02104029_8137.png,n02104029_8137.png,1.0,0.36913037,-0.46216577,0.58781517
alexnet_w1_mlp_simclrhn_probe1,1,394,NaN,bicycle,bicycle,4-10-10,0394_eid_dnn_4-10-10_bicycle_10_n02835271_3990.png,n02835271_3990.png,1.0,1.4765999,-2.3697767,2.719799
alexnet_w1_mlp_simclrhn_probe1,1,395,NaN,bear,bear,4-10-10,0395_eid_dnn_4-10-10_bear_10_n02132136_24311.png,n02132136_24311.png,1.0,2.3589187,0.22507915,1.5088525
alexnet_w1_mlp_simclrhn_probe1,1,396,NaN,truck,truck,2-10-10,0396_eid_dnn_2-10-10_truck_10_n03796401_6966.png,n03796401_6966.png,1.0,7.277356,3.581816,2.6131415
alexnet_w1_mlp_simclrhn_probe1,1,397,NaN,knife,knife,1-10-10,0397_eid_dnn_1-10-10_knife_10_n03041632_8468.png,n03041632_8468.png,1.0,-1.411765,-2.2824726,0.61568326
alexnet_w1_mlp_simclrhn_probe1,1,398,NaN,oven,elephant,128-10-10,0398_eid_dnn_128-10-10_elephant_10_n02504458_6799.png,n02504458_6799.png,0.0,-1.2017691,-0.4543175,-0.5285281
alexnet_w1_mlp_simclrhn_probe1,1,399,NaN,airplane,keyboard,16-10-10,0399_eid_dnn_16-10-10_keyboard_10_n03085013_24402.png,n03085013_24402.png,0.0,-10.19007,-2.574195,-5.385237
alexnet_w1_mlp_simclrhn_probe1,1,400,NaN,bear,knife,16-10-10,0400_eid_dnn_16-10-10_knife_10_n03041632_25772.png,n03041632_25772.png,0.0,-2.7465792,-0.11822825,-1.8585248
alexnet_w1_mlp_simclrhn_probe1,1,401,NaN,bear,elephant,32-10-10,0401_eid_dnn_32-10-10_elephant_10_n02504458_5839.png,n02504458_5839.png,0.0,-1.2132578,0.142128,-0.9584025
alexnet_w1_mlp_simclrhn_probe1,1,402,NaN,bear,elephant,64-10-10,0402_eid_dnn_64-10-10_elephant_10_n02504458_5178.png,n02504458_5178.png,0.0,-1.663659,-0.24656081,-1.0020398
alexnet_w1_mlp_simclrhn_probe1,1,403,NaN,oven,bicycle,32-10-10,0403_eid_dnn_32-10-10_bicycle_10_n02835271_27014.png,n02835271_27014.png,0.0,-6.9945726,-0.19621854,-4.8071623
alexnet_w1_mlp_simclrhn_probe1,1,404,NaN,oven,car,128-10-10,0404_eid_dnn_128-10-10_car_10_n04285008_15218.png,n04285008_15218.png,0.0,-8.21537,-0.57231504,-5.404456
alexnet_w1_mlp_simclrhn_probe1,1,405,NaN,dog,bicycle,8-10-10,0405_eid_dnn_8-10-10_bicycle_10_n02835271_19955.png,n02835271_19955.png,0.0,-3.150796,-2.959694,-0.13512954
alexnet_w1_mlp_simclrhn_probe1,1,406,NaN,truck,truck,1-10-10,0406_eid_dnn_1-10-10_truck_10_n03796401_874.png,n03796401_874.png,1.0,2.8049724,0.43056202,1.6789618
alexnet_w1_mlp_simclrhn_probe1,1,407,NaN,dog,dog,2-10-10,0407_eid_dnn_2-10-10_dog_10_n02108915_6092.png,n02108915_6092.png,1.0,1.0221813,0.04697165,0.68957734
alexnet_w1_mlp_simclrhn_probe1,1,408,NaN,oven,clock,16-10-10,0408_eid_dnn_16-10-10_clock_10_n04548280_6337.png,n04548280_6337.png,0.0,-7.1023445,0.735747,-5.5423675
alexnet_w1_mlp_simclrhn_probe1,1,409,NaN,elephant,boat,4-10-10,0409_eid_dnn_4-10-10_boat_10_n04273569_1388.png,n04273569_1388.png,0.0,-0.095131315,0.84505266,-0.6648105
alexnet_w1_mlp_simclrhn_probe1,1,410,NaN,oven,clock,64-10-10,0410_eid_dnn_64-10-10_clock_10_n02708093_2676.png,n02708093_2676.png,0.0,-9.199895,1.5708274,-7.616051
alexnet_w1_mlp_simclrhn_probe1,1,411,NaN,bear,dog,64-10-10,0411_eid_dnn_64-10-10_dog_10_n02107683_5424.png,n02107683_5424.png,0.0,-1.4353935,-0.769197,-0.47107205
alexnet_w1_mlp_simclrhn_probe1,1,412,NaN,chair,chair,1-10-10,0412_eid_dnn_1-10-10_chair_10_n04099969_29038.png,n04099969_29038.png,1.0,1.4094397,-1.4026256,1.9884304
alexnet_w1_mlp_simclrhn_probe1,1,413,NaN,oven,clock,16-10-10,0413_eid_dnn_16-10-10_clock_10_n04548280_3219.png,n04548280_3219.png,0.0,-7.561561,1.0738193,-6.1061363
alexnet_w1_mlp_simclrhn_probe1,1,414,NaN,cat,clock,32-10-10,0414_eid_dnn_32-10-10_clock_10_n03196217_8282.png,n03196217_8282.png,0.0,-5.3941627,-2.3674521,-2.1402075
alexnet_w1_mlp_simclrhn_probe1,1,415,NaN,oven,oven,8-10-10,0415_eid_dnn_8-10-10_oven_10_n04111531_22041.png,n04111531_22041.png,1.0,3.217248,-0.41019917,2.5649924
alexnet_w1_mlp_simclrhn_probe1,1,416,NaN,bear,bear,8-10-10,0416_eid_dnn_8-10-10_bear_10_n02134084_6964.png,n02134084_6964.png,1.0,2.125169,0.20453002,1.358097
alexnet_w1_mlp_simclrhn_probe1,1,417,NaN,oven,bicycle,64-10-10,0417_eid_dnn_64-10-10_bicycle_10_n03792782_11921.png,n03792782_11921.png,0.0,-5.6989574,0.24119094,-4.2003193
alexnet_w1_mlp_simclrhn_probe1,1,418,NaN,airplane,clock,8-10-10,0418_eid_dnn_8-10-10_clock_10_n04548280_1809.png,n04548280_1809.png,0.0,-4.634299,-1.2457652,-2.3960552
alexnet_w1_mlp_simclrhn_probe1,1,419,NaN,bird,bird,4-10-10,0419_eid_dnn_4-10-10_bird_10_n01833805_202.png,n01833805_202.png,1.0,-0.28492513,-2.950252,1.8846707
alexnet_w1_mlp_simclrhn_probe1,1,420,NaN,oven,keyboard,64-10-10,0420_eid_dnn_64-10-10_keyboard_10_n03085013_7511.png,n03085013_7511.png,0.0,-7.2871284,0.113283694,-5.2328815
alexnet_w1_mlp_simclrhn_probe1,1,421,NaN,bicycle,bird,1-10-10,0421_eid_dnn_1-10-10_bird_10_n02025239_5287.png,n02025239_5287.png,0.0,-2.1524527,-1.3464646,-0.56991965
alexnet_w1_mlp_simclrhn_probe1,1,422,NaN,bear,boat,64-10-10,0422_eid_dnn_64-10-10_boat_10_n03662601_27960.png,n03662601_27960.png,0.0,-4.350711,-1.4850712,-2.0263133
alexnet_w1_mlp_simclrhn_probe1,1,423,NaN,elephant,bottle,1-10-10,0423_eid_dnn_1-10-10_bottle_10_n04591713_6855.png,n04591713_6855.png,0.0,-4.1378293,-0.061212003,-2.8826036
alexnet_w1_mlp_simclrhn_probe1,1,424,NaN,oven,elephant,128-10-10,0424_eid_dnn_128-10-10_elephant_10_n02504013_4424.png,n02504013_4424.png,0.0,-0.9170882,0.18747625,-0.781045
alexnet_w1_mlp_simclrhn_probe1,1,425,NaN,clock,clock,2-10-10,0425_eid_dnn_2-10-10_clock_10_n04548280_3295.png,n04548280_3295.png,1.0,1.0778774,-0.1659908,0.87954766
alexnet_w1_mlp_simclrhn_probe1,1,426,NaN,airplane,airplane,1-10-10,0426_eid_dnn_1-10-10_airplane_10_n02690373_6144.png,n02690373_6144.png,1.0,6.036194,-0.5961355,4.6897655
alexnet_w1_mlp_simclrhn_probe1,1,427,NaN,dog,truck,32-10-10,0427_eid_dnn_32-10-10_truck_10_n04467665_70894.png,n04467665_70894.png,0.0,-6.6682043,-1.5493428,-3.619582
alexnet_w1_mlp_simclrhn_probe1,1,428,NaN,knife,boat,128-10-10,0428_eid_dnn_128-10-10_boat_10_n02951358_30474.png,n02951358_30474.png,0.0,-4.2737436,-1.2996314,-2.103015
alexnet_w1_mlp_simclrhn_probe1,1,429,NaN,bear,bear,4-10-10,0429_eid_dnn_4-10-10_bear_10_n02132136_6434.png,n02132136_6434.png,1.0,5.1951857,2.2521765,2.0810218
alexnet_w1_mlp_simclrhn_probe1,1,430,NaN,oven,keyboard,32-10-10,0430_eid_dnn_32-10-10_keyboard_10_n04505470_5009.png,n04505470_5009.png,0.0,-5.777092,0.26234567,-4.2705274
alexnet_w1_mlp_simclrhn_probe1,1,431,NaN,keyboard,keyboard,2-10-10,0431_eid_dnn_2-10-10_keyboard_10_n03085013_13005.png,n03085013_13005.png,1.0,4.2480793,-1.0532935,3.7486365
alexnet_w1_mlp_simclrhn_probe1,1,432,NaN,chair,chair,1-10-10,0432_eid_dnn_1-10-10_chair_10_n03376595_6865.png,n03376595_6865.png,1.0,2.7176201,-1.1615746,2.743005
alexnet_w1_mlp_simclrhn_probe1,1,433,NaN,oven,bicycle,32-10-10,0433_eid_dnn_32-10-10_bicycle_10_n02835271_6122.png,n02835271_6122.png,0.0,-6.2622366,-0.6225885,-3.9878335
alexnet_w1_mlp_simclrhn_probe1,1,434,NaN,oven,oven,4-10-10,0434_eid_dnn_4-10-10_oven_10_n04111531_11499.png,n04111531_11499.png,1.0,2.2310092,-0.7583039,2.1137636
alexnet_w1_mlp_simclrhn_probe1,1,435,NaN,bird,bird,1-10-10,0435_eid_dnn_1-10-10_bird_10_n02009229_5765.png,n02009229_5765.png,1.0,1.623613,-1.7171651,2.3622868
alexnet_w1_mlp_simclrhn_probe1,1,436,NaN,bear,bottle,32-10-10,0436_eid_dnn_32-10-10_bottle_10_n04560804_2181.png,n04560804_2181.png,0.0,-3.830336,-0.34851795,-2.4620173
alexnet_w1_mlp_simclrhn_probe1,1,437,NaN,bear,bicycle,32-10-10,0437_eid_dnn_32-10-10_bicycle_10_n03792782_3774.png,n03792782_3774.png,0.0,-4.951297,-0.059143037,-3.4592752
alexnet_w1_mlp_simclrhn_probe1,1,438,NaN,airplane,bird,16-10-10,0438_eid_dnn_16-10-10_bird_10_n01614925_1683.png,n01614925_1683.png,0.0,-1.6924347,0.35287577,-1.446253
alexnet_w1_mlp_simclrhn_probe1,1,439,NaN,bottle,clock,8-10-10,0439_eid_dnn_8-10-10_clock_10_n02708093_4692.png,n02708093_4692.png,0.0,-3.4685488,-2.4071705,-0.7505078
alexnet_w1_mlp_simclrhn_probe1,1,440,NaN,dog,dog,4-10-10,0440_eid_dnn_4-10-10_dog_10_n02109961_71298.png,n02109961_71298.png,1.0,0.38853207,0.08360745,0.21561426
alexnet_w1_mlp_simclrhn_probe1,1,441,NaN,keyboard,keyboard,2-10-10,0441_eid_dnn_2-10-10_keyboard_10_n03085013_23269.png,n03085013_23269.png,1.0,-0.21900034,-1.2152002,0.7044197
alexnet_w1_mlp_simclrhn_probe1,1,442,NaN,elephant,elephant,2-10-10,0442_eid_dnn_2-10-10_elephant_10_n02504458_5614.png,n02504458_5614.png,1.0,0.8358552,-1.6499531,1.757732
alexnet_w1_mlp_simclrhn_probe1,1,443,NaN,airplane,car,2-10-10,0443_eid_dnn_2-10-10_car_10_n04285008_4640.png,n04285008_4640.png,0.0,-1.1588207,1.4298658,-1.8304778
alexnet_w1_mlp_simclrhn_probe1,1,444,NaN,oven,oven,128-10-10,0444_eid_dnn_128-10-10_oven_10_n04111531_6346.png,n04111531_6346.png,1.0,0.45750964,-1.1541516,1.1396166
alexnet_w1_mlp_simclrhn_probe1,1,445,NaN,chair,chair,2-10-10,0445_eid_dnn_2-10-10_chair_10_n04099969_14851.png,n04099969_14851.png,1.0,1.496161,-2.025661,2.4903042
alexnet_w1_mlp_simclrhn_probe1,1,446,NaN,oven,bird,64-10-10,0446_eid_dnn_64-10-10_bird_10_n02051845_534.png,n02051845_534.png,0.0,-6.4348755,-0.64858043,-4.0915284
alexnet_w1_mlp_simclrhn_probe1,1,447,NaN,bear,bird,128-10-10,0447_eid_dnn_128-10-10_bird_10_n02056570_9342.png,n02056570_9342.png,0.0,-5.304284,-0.9891852,-3.0512357
alexnet_w1_mlp_simclrhn_probe1,1,448,NaN,oven,oven,16-10-10,0448_eid_dnn_16-10-10_oven_10_n04111531_4900.png,n04111531_4900.png,1.0,4.687853,-3.3181095,5.6610703
alexnet_w1_mlp_simclrhn_probe1,1,449,NaN,oven,boat,32-10-10,0449_eid_dnn_32-10-10_boat_10_n02951358_31973.png,n02951358_31973.png,0.0,-6.108407,-0.8851136,-3.6934261
alexnet_w1_mlp_simclrhn_probe1,1,450,NaN,knife,keyboard,4-10-10,0450_eid_dnn_4-10-10_keyboard_10_n03085013_19842.png,n03085013_19842.png,0.0,-5.0494,-1.1606805,-2.74974
alexnet_w1_mlp_simclrhn_probe1,1,451,NaN,keyboard,keyboard,8-10-10,0451_eid_dnn_8-10-10_keyboard_10_n03085013_8296.png,n03085013_8296.png,1.0,-2.187185,-2.2406898,0.03783354
alexnet_w1_mlp_simclrhn_probe1,1,452,NaN,oven,car,16-10-10,0452_eid_dnn_16-10-10_car_10_n03100240_3528.png,n03100240_3528.png,0.0,-5.7137885,-0.3793559,-3.7720134
alexnet_w1_mlp_simclrhn_probe1,1,453,NaN,cat,cat,8-10-10,0453_eid_dnn_8-10-10_cat_10_n02123159_7210.png,n02123159_7210.png,1.0,0.7310856,0.3810182,0.24753504
alexnet_w1_mlp_simclrhn_probe1,1,454,NaN,knife,knife,16-10-10,0454_eid_dnn_16-10-10_knife_10_n03041632_56172.png,n03041632_56172.png,1.0,-0.43091482,-1.8719649,1.0189763
alexnet_w1_mlp_simclrhn_probe1,1,455,NaN,oven,oven,4-10-10,0455_eid_dnn_4-10-10_oven_10_n04111531_2116.png,n04111531_2116.png,1.0,5.1228924,-2.751483,5.568024
alexnet_w1_mlp_simclrhn_probe1,1,456,NaN,oven,bicycle,8-10-10,0456_eid_dnn_8-10-10_bicycle_10_n02835271_12477.png,n02835271_12477.png,0.0,-2.4070067,-1.8713309,-0.37878007
alexnet_w1_mlp_simclrhn_probe1,1,457,NaN,knife,knife,2-10-10,0457_eid_dnn_2-10-10_knife_10_n03041632_42472.png,n03041632_42472.png,1.0,2.7276015,-0.59340227,2.3483045
alexnet_w1_mlp_simclrhn_probe1,1,458,NaN,oven,oven,2-10-10,0458_eid_dnn_2-10-10_oven_10_n04111531_8818.png,n04111531_8818.png,1.0,0.3380597,-0.6663044,0.7101927
alexnet_w1_mlp_simclrhn_probe1,1,459,NaN,boat,truck,2-10-10,0459_eid_dnn_2-10-10_truck_10_n04467665_67115.png,n04467665_67115.png,0.0,-1.4450173,0.16657075,-1.1395649
alexnet_w1_mlp_simclrhn_probe1,1,460,NaN,bird,bird,4-10-10,0460_eid_dnn_4-10-10_bird_10_n02011460_3521.png,n02011460_3521.png,1.0,-0.5607666,-5.5970993,3.561225
alexnet_w1_mlp_simclrhn_probe1,1,461,NaN,bear,bear,64-10-10,0461_eid_dnn_64-10-10_bear_10_n02133161_3533.png,n02133161_3533.png,1.0,1.2636194,-2.1353812,2.4034564
alexnet_w1_mlp_simclrhn_probe1,1,462,NaN,bear,bird,8-10-10,0462_eid_dnn_8-10-10_bird_10_n02013706_637.png,n02013706_637.png,0.0,-1.7149258,-0.5385504,-0.83182305
alexnet_w1_mlp_simclrhn_probe1,1,463,NaN,bear,bear,64-10-10,0463_eid_dnn_64-10-10_bear_10_n02132136_29636.png,n02132136_29636.png,1.0,0.33654147,-0.36760297,0.49790534
alexnet_w1_mlp_simclrhn_probe1,1,464,NaN,bicycle,bicycle,2-10-10,0464_eid_dnn_2-10-10_bicycle_10_n02835271_634.png,n02835271_634.png,1.0,1.5420592,-2.6564095,2.9687657
alexnet_w1_mlp_simclrhn_probe1,1,465,NaN,keyboard,keyboard,1-10-10,0465_eid_dnn_1-10-10_keyboard_10_n04505470_4621.png,n04505470_4621.png,1.0,0.7893582,0.008308172,0.5522858
alexnet_w1_mlp_simclrhn_probe1,1,466,NaN,bear,bear,16-10-10,0466_eid_dnn_16-10-10_bear_10_n02134084_2844.png,n02134084_2844.png,1.0,-1.0465175,-1.5495827,0.35572085
alexnet_w1_mlp_simclrhn_probe1,1,467,NaN,bicycle,bicycle,4-10-10,0467_eid_dnn_4-10-10_bicycle_10_n03792782_17088.png,n03792782_17088.png,1.0,1.3858187,-2.2000449,2.5355885
alexnet_w1_mlp_simclrhn_probe1,1,468,NaN,airplane,clock,4-10-10,0468_eid_dnn_4-10-10_clock_10_n03196217_8706.png,n03196217_8706.png,0.0,-5.03254,-0.81399393,-2.9829624
alexnet_w1_mlp_simclrhn_probe1,1,469,NaN,oven,oven,4-10-10,0469_eid_dnn_4-10-10_oven_10_n04111531_15052.png,n04111531_15052.png,1.0,3.2418861,-1.0101681,3.0066564
alexnet_w1_mlp_simclrhn_probe1,1,470,NaN,oven,bottle,16-10-10,0470_eid_dnn_16-10-10_bottle_10_n04560804_5769.png,n04560804_5769.png,0.0,-3.6324604,1.2873772,-3.4788506
alexnet_w1_mlp_simclrhn_probe1,1,471,NaN,bear,dog,128-10-10,0471_eid_dnn_128-10-10_dog_10_n02110063_14116.png,n02110063_14116.png,0.0,-2.092748,-0.035254084,-1.454868
alexnet_w1_mlp_simclrhn_probe1,1,472,NaN,cat,cat,32-10-10,0472_eid_dnn_32-10-10_cat_10_n02124075_3609.png,n02124075_3609.png,1.0,-0.41400266,-0.9417433,0.373169
alexnet_w1_mlp_simclrhn_probe1,1,473,NaN,airplane,airplane,32-10-10,0473_eid_dnn_32-10-10_airplane_10_n02690373_10926.png,n02690373_10926.png,1.0,0.48675847,-1.7305396,1.5678664
alexnet_w1_mlp_simclrhn_probe1,1,474,NaN,oven,bird,16-10-10,0474_eid_dnn_16-10-10_bird_10_n02033041_7229.png,n02033041_7229.png,0.0,-2.5893216,-1.2340794,-0.958301
alexnet_w1_mlp_simclrhn_probe1,1,475,NaN,bird,bird,2-10-10,0475_eid_dnn_2-10-10_bird_10_n02006656_611.png,n02006656_611.png,1.0,-0.6287842,-2.103636,1.0428778
alexnet_w1_mlp_simclrhn_probe1,1,476,NaN,bear,bear,16-10-10,0476_eid_dnn_16-10-10_bear_10_n02133161_958.png,n02133161_958.png,1.0,-1.1410922,-1.5734899,0.30575135
alexnet_w1_mlp_simclrhn_probe1,1,477,NaN,bird,bird,8-10-10,0477_eid_dnn_8-10-10_bird_10_n01843065_148.png,n01843065_148.png,1.0,0.28898108,-1.152972,1.0196148
alexnet_w1_mlp_simclrhn_probe1,1,478,NaN,oven,cat,32-10-10,0478_eid_dnn_32-10-10_cat_10_n02123597_13623.png,n02123597_13623.png,0.0,-2.4864802,-0.45087147,-1.4393928
alexnet_w1_mlp_simclrhn_probe1,1,479,NaN,bicycle,bicycle,8-10-10,0479_eid_dnn_8-10-10_bicycle_10_n02835271_12957.png,n02835271_12957.png,1.0,0.70144564,-1.687263,1.689072
alexnet_w1_mlp_simclrhn_probe1,1,480,NaN,knife,knife,8-10-10,0480_eid_dnn_8-10-10_knife_10_n03041632_96714.png,n03041632_96714.png,1.0,-0.772426,-2.616012,1.3036122
alexnet_w1_mlp_simclrhn_probe1,1,481,NaN,oven,bear,128-10-10,0481_eid_dnn_128-10-10_bear_10_n02133161_3550.png,n02133161_3550.png,0.0,-1.9850626,-1.1944022,-0.5590813
alexnet_w1_mlp_simclrhn_probe1,1,482,NaN,airplane,airplane,2-10-10,0482_eid_dnn_2-10-10_airplane_10_n02690373_4471.png,n02690373_4471.png,1.0,4.2531443,0.50538903,2.6500633
alexnet_w1_mlp_simclrhn_probe1,1,483,NaN,oven,airplane,64-10-10,0483_eid_dnn_64-10-10_airplane_10_n02690373_2026.png,n02690373_2026.png,0.0,-3.1446314,-0.7418601,-1.6990159
alexnet_w1_mlp_simclrhn_probe1,1,484,NaN,car,car,1-10-10,0484_eid_dnn_1-10-10_car_10_n03100240_18270.png,n03100240_18270.png,1.0,2.0428941,0.81142384,0.87078106
alexnet_w1_mlp_simclrhn_probe1,1,485,NaN,elephant,elephant,128-10-10,0485_eid_dnn_128-10-10_elephant_10_n02504458_5204.png,n02504458_5204.png,1.0,-0.07144454,-0.7223525,0.46026146
alexnet_w1_mlp_simclrhn_probe1,1,486,NaN,oven,oven,1-10-10,0486_eid_dnn_1-10-10_oven_10_n04111531_10339.png,n04111531_10339.png,1.0,0.73110956,-0.11041874,0.5950504
alexnet_w1_mlp_simclrhn_probe1,1,487,NaN,elephant,elephant,2-10-10,0487_eid_dnn_2-10-10_elephant_10_n02504458_12705.png,n02504458_12705.png,1.0,4.9700737,-0.3645271,3.7721326
alexnet_w1_mlp_simclrhn_probe1,1,488,NaN,bottle,boat,1-10-10,0488_eid_dnn_1-10-10_boat_10_n03344393_9268.png,n03344393_9268.png,0.0,-1.768619,-0.59997797,-0.82635397
alexnet_w1_mlp_simclrhn_probe1,1,489,NaN,bird,bicycle,16-10-10,0489_eid_dnn_16-10-10_bicycle_10_n02835271_23173.png,n02835271_23173.png,0.0,-4.702296,-2.8815901,-1.2874334
alexnet_w1_mlp_simclrhn_probe1,1,490,NaN,oven,knife,32-10-10,0490_eid_dnn_32-10-10_knife_10_n03041632_43975.png,n03041632_43975.png,0.0,-2.5111117,-0.33465874,-1.5389848
alexnet_w1_mlp_simclrhn_probe1,1,491,NaN,elephant,bicycle,128-10-10,0491_eid_dnn_128-10-10_bicycle_10_n03792782_3299.png,n03792782_3299.png,0.0,-3.0356016,-1.4800957,-1.0999087
alexnet_w1_mlp_simclrhn_probe1,1,492,NaN,bear,boat,32-10-10,0492_eid_dnn_32-10-10_boat_10_n04273569_5679.png,n04273569_5679.png,0.0,-5.1933107,0.987095,-4.370207
alexnet_w1_mlp_simclrhn_probe1,1,493,NaN,oven,bird,32-10-10,0493_eid_dnn_32-10-10_bird_10_n02056570_10127.png,n02056570_10127.png,0.0,-4.7979364,-1.2203975,-2.5297022
alexnet_w1_mlp_simclrhn_probe1,1,494,NaN,bear,bear,32-10-10,0494_eid_dnn_32-10-10_bear_10_n02133161_7688.png,n02133161_7688.png,1.0,0.28238362,0.12470132,0.11149822
alexnet_w1_mlp_simclrhn_probe1,1,495,NaN,cat,cat,16-10-10,0495_eid_dnn_16-10-10_cat_10_n02123597_624.png,n02123597_624.png,1.0,-1.5745506,-2.0113645,0.30887404
alexnet_w1_mlp_simclrhn_probe1,1,496,NaN,cat,bird,64-10-10,0496_eid_dnn_64-10-10_bird_10_n01560419_3399.png,n01560419_3399.png,0.0,-3.5728061,-1.8448278,-1.2218652
alexnet_w1_mlp_simclrhn_probe1,1,497,NaN,oven,cat,32-10-10,0497_eid_dnn_32-10-10_cat_10_n02123045_12762.png,n02123045_12762.png,0.0,-2.8634872,-1.4561939,-0.99510664
alexnet_w1_mlp_simclrhn_probe1,1,498,NaN,oven,car,16-10-10,0498_eid_dnn_16-10-10_car_10_n02814533_7247.png,n02814533_7247.png,0.0,-6.124586,-1.2319814,-3.459594
alexnet_w1_mlp_simclrhn_probe1,1,499,NaN,keyboard,keyboard,4-10-10,0499_eid_dnn_4-10-10_keyboard_10_n03085013_4941.png,n03085013_4941.png,1.0,-2.342949,-2.5462754,0.14377353
alexnet_w1_mlp_simclrhn_probe1,1,500,NaN,knife,truck,4-10-10,0500_eid_dnn_4-10-10_truck_10_n03417042_6420.png,n03417042_6420.png,0.0,-5.2559996,-2.0140996,-2.2923696
alexnet_w1_mlp_simclrhn_probe1,1,501,NaN,oven,boat,64-10-10,0501_eid_dnn_64-10-10_boat_10_n03662601_2120.png,n03662601_2120.png,0.0,-6.475217,-1.0625653,-3.8273227
alexnet_w1_mlp_simclrhn_probe1,1,502,NaN,elephant,bear,2-10-10,0502_eid_dnn_2-10-10_bear_10_n02134084_7331.png,n02134084_7331.png,0.0,2.2472327,3.0783324,-0.5876763
alexnet_w1_mlp_simclrhn_probe1,1,503,NaN,oven,bottle,32-10-10,0503_eid_dnn_32-10-10_bottle_10_n02823428_906.png,n02823428_906.png,0.0,-4.32389,0.96474844,-3.7396324
alexnet_w1_mlp_simclrhn_probe1,1,504,NaN,cat,cat,16-10-10,0504_eid_dnn_16-10-10_cat_10_n02123394_270.png,n02123394_270.png,1.0,-1.2351156,-1.701112,0.3295092
alexnet_w1_mlp_simclrhn_probe1,1,505,NaN,oven,boat,2-10-10,0505_eid_dnn_2-10-10_boat_10_n02951358_1910.png,n02951358_1910.png,0.0,-2.6092362,-0.4731788,-1.5104207
alexnet_w1_mlp_simclrhn_probe1,1,506,NaN,bear,knife,4-10-10,0506_eid_dnn_4-10-10_knife_10_n03041632_23678.png,n03041632_23678.png,0.0,-2.6582446,0.49790323,-2.2317336
alexnet_w1_mlp_simclrhn_probe1,1,507,NaN,bear,car,16-10-10,0507_eid_dnn_16-10-10_car_10_n02814533_31083.png,n02814533_31083.png,0.0,-8.271065,-1.1672477,-5.023157
alexnet_w1_mlp_simclrhn_probe1,1,508,NaN,keyboard,keyboard,1-10-10,0508_eid_dnn_1-10-10_keyboard_10_n04505470_2881.png,n04505470_2881.png,1.0,4.0886626,-0.3360297,3.1287298
alexnet_w1_mlp_simclrhn_probe1,1,509,NaN,dog,cat,8-10-10,0509_eid_dnn_8-10-10_cat_10_n02125311_2923.png,n02125311_2923.png,0.0,-1.348622,0.7366902,-1.4745383
alexnet_w1_mlp_simclrhn_probe1,1,510,NaN,bicycle,bicycle,2-10-10,0510_eid_dnn_2-10-10_bicycle_10_n03792782_2598.png,n03792782_2598.png,1.0,1.7357442,-1.1277267,2.0247798
alexnet_w1_mlp_simclrhn_probe1,1,511,NaN,car,car,2-10-10,0511_eid_dnn_2-10-10_car_10_n03100240_4460.png,n03100240_4460.png,1.0,3.5665615,2.242971,0.9359198
alexnet_w1_mlp_simclrhn_probe1,1,512,NaN,knife,knife,4-10-10,0512_eid_dnn_4-10-10_knife_10_n03041632_29920.png,n03041632_29920.png,1.0,-3.3446825,-3.6795251,0.23676954
alexnet_w1_mlp_simclrhn_probe1,1,513,NaN,bear,bird,32-10-10,0513_eid_dnn_32-10-10_bird_10_n01796340_3845.png,n01796340_3845.png,0.0,-3.1849613,-0.32054123,-2.025451
alexnet_w1_mlp_simclrhn_probe1,1,514,NaN,oven,keyboard,8-10-10,0514_eid_dnn_8-10-10_keyboard_10_n03085013_21932.png,n03085013_21932.png,0.0,-0.8501725,-0.10501675,-0.5269047
alexnet_w1_mlp_simclrhn_probe1,1,515,NaN,bottle,bottle,1-10-10,0515_eid_dnn_1-10-10_bottle_10_n02823428_64.png,n02823428_64.png,1.0,4.041467,-1.3703923,3.8267627
alexnet_w1_mlp_simclrhn_probe1,1,516,NaN,oven,chair,8-10-10,0516_eid_dnn_8-10-10_chair_10_n04099969_4374.png,n04099969_4374.png,0.0,-3.771443,-0.22889727,-2.504958
alexnet_w1_mlp_simclrhn_probe1,1,517,NaN,clock,clock,1-10-10,0517_eid_dnn_1-10-10_clock_10_n02708093_8257.png,n02708093_8257.png,1.0,5.649862,-1.7462333,5.2298293
alexnet_w1_mlp_simclrhn_probe1,1,518,NaN,airplane,knife,16-10-10,0518_eid_dnn_16-10-10_knife_10_n03041632_45569.png,n03041632_45569.png,0.0,-2.8331935,-0.8698496,-1.3882937
alexnet_w1_mlp_simclrhn_probe1,1,519,NaN,oven,chair,128-10-10,0519_eid_dnn_128-10-10_chair_10_n04099969_1850.png,n04099969_1850.png,0.0,-5.8621464,0.12470037,-4.2333403
alexnet_w1_mlp_simclrhn_probe1,1,520,NaN,dog,dog,2-10-10,0520_eid_dnn_2-10-10_dog_10_n02092002_2008.png,n02092002_2008.png,1.0,2.2472928,0.055325955,1.5499547
alexnet_w1_mlp_simclrhn_probe1,1,521,NaN,bicycle,bicycle,8-10-10,0521_eid_dnn_8-10-10_bicycle_10_n02835271_8105.png,n02835271_8105.png,1.0,0.7912152,-1.7948062,1.8285934
alexnet_w1_mlp_simclrhn_probe1,1,522,NaN,elephant,oven,64-10-10,0522_eid_dnn_64-10-10_oven_10_n04111531_14126.png,n04111531_14126.png,0.0,-0.6274763,-0.5203632,-0.075740375
alexnet_w1_mlp_simclrhn_probe1,1,523,NaN,cat,elephant,4-10-10,0523_eid_dnn_4-10-10_elephant_10_n02504013_13766.png,n02504013_13766.png,0.0,-1.6276628,-0.728018,-0.63614494
alexnet_w1_mlp_simclrhn_probe1,1,524,NaN,oven,bicycle,64-10-10,0524_eid_dnn_64-10-10_bicycle_10_n02835271_18361.png,n02835271_18361.png,0.0,-5.170394,0.38937777,-3.9313521
alexnet_w1_mlp_simclrhn_probe1,1,525,NaN,oven,bird,8-10-10,0525_eid_dnn_8-10-10_bird_10_n01582220_4708.png,n01582220_4708.png,0.0,-2.366257,-0.68618625,-1.1879894
alexnet_w1_mlp_simclrhn_probe1,1,526,NaN,dog,chair,16-10-10,0526_eid_dnn_16-10-10_chair_10_n04099969_101.png,n04099969_101.png,0.0,-8.02911,-0.07483641,-5.624521
alexnet_w1_mlp_simclrhn_probe1,1,527,NaN,cat,cat,1-10-10,0527_eid_dnn_1-10-10_cat_10_n02124075_724.png,n02124075_724.png,1.0,0.8180084,-3.4311543,3.0046117
alexnet_w1_mlp_simclrhn_probe1,1,528,NaN,oven,bicycle,32-10-10,0528_eid_dnn_32-10-10_bicycle_10_n02835271_43.png,n02835271_43.png,0.0,-4.989582,-0.35707974,-3.275674
alexnet_w1_mlp_simclrhn_probe1,1,529,NaN,bird,bird,2-10-10,0529_eid_dnn_2-10-10_bird_10_n02017213_5362.png,n02017213_5362.png,1.0,-0.3684423,-1.5366664,0.8260592
alexnet_w1_mlp_simclrhn_probe1,1,530,NaN,oven,dog,1-10-10,0530_eid_dnn_1-10-10_dog_10_n02088466_1769.png,n02088466_1769.png,0.0,-1.745896,0.12163296,-1.3205423
alexnet_w1_mlp_simclrhn_probe1,1,531,NaN,elephant,bear,1-10-10,0531_eid_dnn_1-10-10_bear_10_n02133161_5653.png,n02133161_5653.png,0.0,2.0168743,2.8379002,-0.58055294
alexnet_w1_mlp_simclrhn_probe1,1,532,NaN,oven,dog,1-10-10,0532_eid_dnn_1-10-10_dog_10_n02098105_4676.png,n02098105_4676.png,0.0,0.9792138,1.6454716,-0.4711154
alexnet_w1_mlp_simclrhn_probe1,1,533,NaN,cat,cat,2-10-10,0533_eid_dnn_2-10-10_cat_10_n02123045_3593.png,n02123045_3593.png,1.0,1.1866525,-1.6418997,2.0000885
alexnet_w1_mlp_simclrhn_probe1,1,534,NaN,knife,bottle,8-10-10,0534_eid_dnn_8-10-10_bottle_10_n04560804_265.png,n04560804_265.png,0.0,-3.7047865,-1.0808045,-1.8554355
alexnet_w1_mlp_simclrhn_probe1,1,535,NaN,oven,knife,128-10-10,0535_eid_dnn_128-10-10_knife_10_n03041632_1556.png,n03041632_1556.png,0.0,-1.7737522,-0.84831136,-0.6543855
alexnet_w1_mlp_simclrhn_probe1,1,536,NaN,elephant,chair,4-10-10,0536_eid_dnn_4-10-10_chair_10_n02791124_9595.png,n02791124_9595.png,0.0,-2.2643986,-0.12010996,-1.516241
alexnet_w1_mlp_simclrhn_probe1,1,537,NaN,bear,dog,32-10-10,0537_eid_dnn_32-10-10_dog_10_n02107312_2933.png,n02107312_2933.png,0.0,-1.8850899,1.1982304,-2.1802366
alexnet_w1_mlp_simclrhn_probe1,1,538,NaN,oven,oven,32-10-10,0538_eid_dnn_32-10-10_oven_10_n04111531_101.png,n04111531_101.png,1.0,1.1260039,-2.127238,2.3003895
alexnet_w1_mlp_simclrhn_probe1,1,539,NaN,truck,truck,4-10-10,0539_eid_dnn_4-10-10_truck_10_n03417042_7204.png,n03417042_7204.png,1.0,-0.16275717,-0.93446803,0.545682
alexnet_w1_mlp_simclrhn_probe1,1,540,NaN,oven,bear,64-10-10,0540_eid_dnn_64-10-10_bear_10_n02132136_2120.png,n02132136_2120.png,0.0,-0.76677614,-0.5558809,-0.14912546
alexnet_w1_mlp_simclrhn_probe1,1,541,NaN,oven,airplane,64-10-10,0541_eid_dnn_64-10-10_airplane_10_n02690373_18412.png,n02690373_18412.png,0.0,-2.610681,-1.0013205,-1.1379898
alexnet_w1_mlp_simclrhn_probe1,1,542,NaN,oven,knife,128-10-10,0542_eid_dnn_128-10-10_knife_10_n03041632_21017.png,n03041632_21017.png,0.0,-3.0204654,-0.9686422,-1.4508581
alexnet_w1_mlp_simclrhn_probe1,1,543,NaN,oven,elephant,128-10-10,0543_eid_dnn_128-10-10_elephant_10_n02504458_8414.png,n02504458_8414.png,0.0,-1.513176,-0.37146604,-0.8073108
alexnet_w1_mlp_simclrhn_probe1,1,544,NaN,bear,bottle,128-10-10,0544_eid_dnn_128-10-10_bottle_10_n04557648_11046.png,n04557648_11046.png,0.0,-3.1147141,-0.6526157,-1.7409664
alexnet_w1_mlp_simclrhn_probe1,1,545,NaN,oven,clock,64-10-10,0545_eid_dnn_64-10-10_clock_10_n03196217_10578.png,n03196217_10578.png,0.0,-7.9552116,1.503517,-6.6883316
alexnet_w1_mlp_simclrhn_probe1,1,546,NaN,bear,bear,2-10-10,0546_eid_dnn_2-10-10_bear_10_n02134418_3213.png,n02134418_3213.png,1.0,2.0637946,1.9740736,0.063442305
alexnet_w1_mlp_simclrhn_probe1,1,547,NaN,airplane,clock,64-10-10,0547_eid_dnn_64-10-10_clock_10_n03196217_6289.png,n03196217_6289.png,0.0,-6.483023,-1.6667529,-3.4056175
alexnet_w1_mlp_simclrhn_probe1,1,548,NaN,bear,dog,32-10-10,0548_eid_dnn_32-10-10_dog_10_n02096294_1498.png,n02096294_1498.png,0.0,-1.600973,1.2971838,-2.0493062
alexnet_w1_mlp_simclrhn_probe1,1,549,NaN,oven,oven,16-10-10,0549_eid_dnn_16-10-10_oven_10_n04111531_519.png,n04111531_519.png,1.0,-0.23154552,-0.9065885,0.4773275
alexnet_w1_mlp_simclrhn_probe1,1,550,NaN,bird,bird,1-10-10,0550_eid_dnn_1-10-10_bird_10_n01531178_14959.png,n01531178_14959.png,1.0,1.4813745,-2.2753167,2.6563818
alexnet_w1_mlp_simclrhn_probe1,1,551,NaN,bear,bear,32-10-10,0551_eid_dnn_32-10-10_bear_10_n02132136_8754.png,n02132136_8754.png,1.0,1.3905007,-0.10497835,1.0574634
alexnet_w1_mlp_simclrhn_probe1,1,552,NaN,car,car,1-10-10,0552_eid_dnn_1-10-10_car_10_n02814533_73067.png,n02814533_73067.png,1.0,6.447754,3.8755116,1.8188499
alexnet_w1_mlp_simclrhn_probe1,1,553,NaN,cat,cat,8-10-10,0553_eid_dnn_8-10-10_cat_10_n02124075_15378.png,n02124075_15378.png,1.0,-0.8606866,-1.147253,0.20263307
alexnet_w1_mlp_simclrhn_probe1,1,554,NaN,oven,bird,128-10-10,0554_eid_dnn_128-10-10_bird_10_n01592084_7569.png,n01592084_7569.png,0.0,-6.9343185,0.6967935,-5.3960114
alexnet_w1_mlp_simclrhn_probe1,1,555,NaN,bear,dog,128-10-10,0555_eid_dnn_128-10-10_dog_10_n02094114_3395.png,n02094114_3395.png,0.0,-1.8742748,-0.04852146,-1.2910026
alexnet_w1_mlp_simclrhn_probe1,1,556,NaN,chair,chair,4-10-10,0556_eid_dnn_4-10-10_chair_10_n03376595_1712.png,n03376595_1712.png,1.0,-1.0989335,-1.9306685,0.58812547
alexnet_w1_mlp_simclrhn_probe1,1,557,NaN,oven,bear,64-10-10,0557_eid_dnn_64-10-10_bear_10_n02134084_622.png,n02134084_622.png,0.0,-0.75202286,1.2549398,-1.419137
alexnet_w1_mlp_simclrhn_probe1,1,558,NaN,bottle,clock,8-10-10,0558_eid_dnn_8-10-10_clock_10_n03196217_4912.png,n03196217_4912.png,0.0,-3.7775612,-0.27801174,-2.4745553
alexnet_w1_mlp_simclrhn_probe1,1,559,NaN,oven,car,64-10-10,0559_eid_dnn_64-10-10_car_10_n03100240_18815.png,n03100240_18815.png,0.0,-8.423329,1.5745776,-7.0695877
alexnet_w1_mlp_simclrhn_probe1,1,560,NaN,bicycle,chair,2-10-10,0560_eid_dnn_2-10-10_chair_10_n04099969_2020.png,n04099969_2020.png,0.0,0.9649386,3.218079,-1.5932109
alexnet_w1_mlp_simclrhn_probe1,1,561,NaN,bear,bear,1-10-10,0561_eid_dnn_1-10-10_bear_10_n02132136_7647.png,n02132136_7647.png,1.0,4.8495197,-0.44163978,3.741415
alexnet_w1_mlp_simclrhn_probe1,1,562,NaN,cat,oven,128-10-10,0562_eid_dnn_128-10-10_oven_10_n04111531_2796.png,n04111531_2796.png,0.0,-2.0413246,-1.4897465,-0.39002466
alexnet_w1_mlp_simclrhn_probe1,1,563,NaN,oven,truck,64-10-10,0563_eid_dnn_64-10-10_truck_10_n03796401_9472.png,n03796401_9472.png,0.0,-8.944477,0.31058025,-6.544314
alexnet_w1_mlp_simclrhn_probe1,1,564,NaN,chair,chair,4-10-10,0564_eid_dnn_4-10-10_chair_10_n03376595_12433.png,n03376595_12433.png,1.0,-1.260699,-1.4305404,0.12009601
alexnet_w1_mlp_simclrhn_probe1,1,565,NaN,car,truck,4-10-10,0565_eid_dnn_4-10-10_truck_10_n04467665_31539.png,n04467665_31539.png,0.0,2.0114145,2.197708,-0.1317293
alexnet_w1_mlp_simclrhn_probe1,1,566,NaN,airplane,airplane,32-10-10,0566_eid_dnn_32-10-10_airplane_10_n02690373_10657.png,n02690373_10657.png,1.0,0.578507,-2.286541,2.0258949
alexnet_w1_mlp_simclrhn_probe1,1,567,NaN,oven,truck,16-10-10,0567_eid_dnn_16-10-10_truck_10_n03796401_5963.png,n03796401_5963.png,0.0,-8.913261,-0.001519531,-6.3015532
alexnet_w1_mlp_simclrhn_probe1,1,568,NaN,bear,dog,64-10-10,0568_eid_dnn_64-10-10_dog_10_n02096294_2233.png,n02096294_2233.png,0.0,-2.8025708,0.5233367,-2.3517718
alexnet_w1_mlp_simclrhn_probe1,1,569,NaN,oven,airplane,128-10-10,0569_eid_dnn_128-10-10_airplane_10_n02690373_4873.png,n02690373_4873.png,0.0,-2.7664242,-2.019071,-0.5284584
alexnet_w1_mlp_simclrhn_probe1,1,570,NaN,airplane,truck,1-10-10,0570_eid_dnn_1-10-10_truck_10_n04467665_4825.png,n04467665_4825.png,0.0,1.6309304,3.246281,-1.1422253
alexnet_w1_mlp_simclrhn_probe1,1,571,NaN,cat,chair,16-10-10,0571_eid_dnn_16-10-10_chair_10_n04099969_1704.png,n04099969_1704.png,0.0,-5.3887715,-1.6865903,-2.6178377
alexnet_w1_mlp_simclrhn_probe1,1,572,NaN,bicycle,bicycle,2-10-10,0572_eid_dnn_2-10-10_bicycle_10_n02835271_1573.png,n02835271_1573.png,1.0,5.7352896,-0.526875,4.428019
alexnet_w1_mlp_simclrhn_probe1,1,573,NaN,oven,boat,2-10-10,0573_eid_dnn_2-10-10_boat_10_n04273569_12725.png,n04273569_12725.png,0.0,-2.7247617,-0.8389276,-1.3334861
alexnet_w1_mlp_simclrhn_probe1,1,574,NaN,elephant,knife,128-10-10,0574_eid_dnn_128-10-10_knife_10_n03041632_11285.png,n03041632_11285.png,0.0,-1.7182285,-1.5938792,-0.08792819
alexnet_w1_mlp_simclrhn_probe1,1,575,NaN,keyboard,clock,4-10-10,0575_eid_dnn_4-10-10_clock_10_n03196217_8254.png,n03196217_8254.png,0.0,-1.7996746,-0.4935305,-0.9235834
alexnet_w1_mlp_simclrhn_probe1,1,576,NaN,bear,knife,16-10-10,0576_eid_dnn_16-10-10_knife_10_n03041632_15099.png,n03041632_15099.png,0.0,-4.024605,-2.2503076,-1.2546176
alexnet_w1_mlp_simclrhn_probe1,1,577,NaN,bear,cat,64-10-10,0577_eid_dnn_64-10-10_cat_10_n02125311_30452.png,n02125311_30452.png,0.0,-1.2751116,-0.5067352,-0.5433241
alexnet_w1_mlp_simclrhn_probe1,1,578,NaN,bear,bottle,32-10-10,0578_eid_dnn_32-10-10_bottle_10_n04591713_6804.png,n04591713_6804.png,0.0,-3.6922593,-0.27604216,-2.4156303
alexnet_w1_mlp_simclrhn_probe1,1,579,NaN,oven,dog,64-10-10,0579_eid_dnn_64-10-10_dog_10_n02088364_14369.png,n02088364_14369.png,0.0,-2.379902,0.7425687,-2.20792
alexnet_w1_mlp_simclrhn_probe1,1,580,NaN,oven,truck,32-10-10,0580_eid_dnn_32-10-10_truck_10_n03796401_16425.png,n03796401_16425.png,0.0,-8.838861,1.1489993,-7.0624843
alexnet_w1_mlp_simclrhn_probe1,1,581,NaN,oven,truck,64-10-10,0581_eid_dnn_64-10-10_truck_10_n03417042_5406.png,n03417042_5406.png,0.0,-8.188452,0.6660855,-6.261103
alexnet_w1_mlp_simclrhn_probe1,1,582,NaN,knife,knife,1-10-10,0582_eid_dnn_1-10-10_knife_10_n03041632_52929.png,n03041632_52929.png,1.0,-0.3820845,-1.7633015,0.97666794
alexnet_w1_mlp_simclrhn_probe1,1,583,NaN,oven,chair,64-10-10,0583_eid_dnn_64-10-10_chair_10_n03376595_4820.png,n03376595_4820.png,0.0,-5.1757545,-1.4193213,-2.6561995
alexnet_w1_mlp_simclrhn_probe1,1,584,NaN,chair,chair,1-10-10,0584_eid_dnn_1-10-10_chair_10_n03376595_787.png,n03376595_787.png,1.0,-0.3019077,-0.35326186,0.03631288
alexnet_w1_mlp_simclrhn_probe1,1,585,NaN,chair,chair,2-10-10,0585_eid_dnn_2-10-10_chair_10_n03376595_7709.png,n03376595_7709.png,1.0,-0.2821435,-0.4304554,0.10487234
alexnet_w1_mlp_simclrhn_probe1,1,586,NaN,truck,bottle,1-10-10,0586_eid_dnn_1-10-10_bottle_10_n03983396_11006.png,n03983396_11006.png,0.0,-1.628771,-0.7880566,-0.5944748
alexnet_w1_mlp_simclrhn_probe1,1,587,NaN,oven,oven,8-10-10,0587_eid_dnn_8-10-10_oven_10_n04111531_458.png,n04111531_458.png,1.0,-1.0297997,-2.1236486,0.773468
alexnet_w1_mlp_simclrhn_probe1,1,588,NaN,elephant,cat,128-10-10,0588_eid_dnn_128-10-10_cat_10_n02123045_7829.png,n02123045_7829.png,0.0,-1.7712697,-0.15255907,-1.1446013
alexnet_w1_mlp_simclrhn_probe1,1,589,NaN,bear,bear,1-10-10,0589_eid_dnn_1-10-10_bear_10_n02134418_4685.png,n02134418_4685.png,1.0,3.0902278,1.0610663,1.4348339
alexnet_w1_mlp_simclrhn_probe1,1,590,NaN,oven,knife,64-10-10,0590_eid_dnn_64-10-10_knife_10_n03041632_1964.png,n03041632_1964.png,0.0,-2.0492425,-1.1137438,-0.6614975
alexnet_w1_mlp_simclrhn_probe1,1,591,NaN,oven,car,4-10-10,0591_eid_dnn_4-10-10_car_10_n03100240_17472.png,n03100240_17472.png,0.0,-1.6220746,-1.0086842,-0.43373254
alexnet_w1_mlp_simclrhn_probe1,1,592,NaN,oven,dog,16-10-10,0592_eid_dnn_16-10-10_dog_10_n02113023_1980.png,n02113023_1980.png,0.0,-2.3127372,-0.11254458,-1.5557712
alexnet_w1_mlp_simclrhn_probe1,1,593,NaN,cat,dog,32-10-10,0593_eid_dnn_32-10-10_dog_10_n02100735_6359.png,n02100735_6359.png,0.0,-0.7009431,-0.44804978,-0.17882259
alexnet_w1_mlp_simclrhn_probe1,1,594,NaN,bicycle,knife,1-10-10,0594_eid_dnn_1-10-10_knife_10_n03041632_31849.png,n03041632_31849.png,0.0,-2.909621,0.66116107,-2.5249243
alexnet_w1_mlp_simclrhn_probe1,1,595,NaN,oven,bird,8-10-10,0595_eid_dnn_8-10-10_bird_10_n01532829_23378.png,n01532829_23378.png,0.0,-2.885503,-0.7497382,-1.5102139
alexnet_w1_mlp_simclrhn_probe1,1,596,NaN,oven,clock,64-10-10,0596_eid_dnn_64-10-10_clock_10_n02708093_5127.png,n02708093_5127.png,0.0,-7.601233,1.2815034,-6.281043
