subj,session,trial,rt,object_response,category,condition,imagename,filename,is_correct,targ_act,max_nontarg_act,decision_margin
alexnet_w3_mlp_simclrhn_probe3,1,1,NaN,oven,oven,1-10-10,0001_eid_dnn_1-10-10_oven_10_n04111531_17072.png,n04111531_17072.png,1.0,1.8685616,0.47743383,0.98367596
alexnet_w3_mlp_simclrhn_probe3,1,2,NaN,oven,airplane,16-10-10,0002_eid_dnn_16-10-10_airplane_10_n02690373_4183.png,n02690373_4183.png,0.0,0.5091986,0.6507441,-0.10008777
alexnet_w3_mlp_simclrhn_probe3,1,3,NaN,oven,car,8-10-10,0003_eid_dnn_8-10-10_car_10_n03100240_1137.png,n03100240_1137.png,0.0,-0.5405682,0.98101825,-1.075924
alexnet_w3_mlp_simclrhn_probe3,1,4,NaN,clock,clock,2-10-10,0004_eid_dnn_2-10-10_clock_10_n04548280_7083.png,n04548280_7083.png,1.0,1.854074,0.8207178,0.73069316
alexnet_w3_mlp_simclrhn_probe3,1,5,NaN,bottle,bottle,2-10-10,0005_eid_dnn_2-10-10_bottle_10_n02823428_7810.png,n02823428_7810.png,1.0,2.453722,1.417397,0.73279244
alexnet_w3_mlp_simclrhn_probe3,1,6,NaN,oven,dog,128-10-10,0006_eid_dnn_128-10-10_dog_10_n02091244_8368.png,n02091244_8368.png,0.0,-0.1744351,1.0619407,-0.87424976
alexnet_w3_mlp_simclrhn_probe3,1,7,NaN,bicycle,bicycle,1-10-10,0007_eid_dnn_1-10-10_bicycle_10_n02835271_2930.png,n02835271_2930.png,1.0,5.8808413,1.6874156,2.9651997
alexnet_w3_mlp_simclrhn_probe3,1,8,NaN,bird,knife,4-10-10,0008_eid_dnn_4-10-10_knife_10_n03041632_52848.png,n03041632_52848.png,0.0,-0.80765337,0.5195274,-0.9384585
alexnet_w3_mlp_simclrhn_probe3,1,9,NaN,bottle,bottle,2-10-10,0009_eid_dnn_2-10-10_bottle_10_n02823428_4097.png,n02823428_4097.png,1.0,6.675077,0.6469232,4.2625484
alexnet_w3_mlp_simclrhn_probe3,1,10,NaN,dog,dog,8-10-10,0010_eid_dnn_8-10-10_dog_10_n02105641_10264.png,n02105641_10264.png,1.0,0.4800011,0.4640057,0.011310444
alexnet_w3_mlp_simclrhn_probe3,1,11,NaN,oven,boat,8-10-10,0011_eid_dnn_8-10-10_boat_10_n03662601_10278.png,n03662601_10278.png,0.0,-0.12044223,1.1998701,-0.93360186
alexnet_w3_mlp_simclrhn_probe3,1,12,NaN,oven,truck,32-10-10,0012_eid_dnn_32-10-10_truck_10_n04467665_76958.png,n04467665_76958.png,0.0,-0.18335593,1.2202363,-0.9924896
alexnet_w3_mlp_simclrhn_probe3,1,13,NaN,oven,dog,16-10-10,0013_eid_dnn_16-10-10_dog_10_n02088238_12552.png,n02088238_12552.png,0.0,-0.07838555,0.8790328,-0.676997
alexnet_w3_mlp_simclrhn_probe3,1,14,NaN,bear,dog,8-10-10,0014_eid_dnn_8-10-10_dog_10_n02102040_994.png,n02102040_994.png,0.0,0.5711044,2.2398953,-1.1800134
alexnet_w3_mlp_simclrhn_probe3,1,15,NaN,oven,bear,128-10-10,0015_eid_dnn_128-10-10_bear_10_n02133161_1944.png,n02133161_1944.png,0.0,0.64984703,0.96655923,-0.22394934
alexnet_w3_mlp_simclrhn_probe3,1,16,NaN,oven,car,16-10-10,0016_eid_dnn_16-10-10_car_10_n02814533_43040.png,n02814533_43040.png,0.0,-0.3980373,0.6435942,-0.73654467
alexnet_w3_mlp_simclrhn_probe3,1,17,NaN,oven,oven,128-10-10,0017_eid_dnn_128-10-10_oven_10_n04111531_18592.png,n04111531_18592.png,1.0,0.6686232,0.42589247,0.17163655
alexnet_w3_mlp_simclrhn_probe3,1,18,NaN,oven,chair,16-10-10,0018_eid_dnn_16-10-10_chair_10_n02791124_4294.png,n02791124_4294.png,0.0,-0.09101547,1.2288897,-0.9333139
alexnet_w3_mlp_simclrhn_probe3,1,19,NaN,oven,knife,32-10-10,0019_eid_dnn_32-10-10_knife_10_n03041632_2630.png,n03041632_2630.png,0.0,0.11593899,1.0602264,-0.66771203
alexnet_w3_mlp_simclrhn_probe3,1,20,NaN,elephant,elephant,1-10-10,0020_eid_dnn_1-10-10_elephant_10_n02504458_723.png,n02504458_723.png,1.0,12.352818,3.8931725,5.9818726
alexnet_w3_mlp_simclrhn_probe3,1,21,NaN,chair,chair,4-10-10,0021_eid_dnn_4-10-10_chair_10_n03376595_6107.png,n03376595_6107.png,1.0,0.9969392,0.530131,0.33008325
alexnet_w3_mlp_simclrhn_probe3,1,22,NaN,oven,clock,32-10-10,0022_eid_dnn_32-10-10_clock_10_n03196217_1337.png,n03196217_1337.png,0.0,0.05447114,1.8162906,-1.2457945
alexnet_w3_mlp_simclrhn_probe3,1,23,NaN,oven,boat,128-10-10,0023_eid_dnn_128-10-10_boat_10_n02951358_9550.png,n02951358_9550.png,0.0,0.06748637,1.2892656,-0.8639284
alexnet_w3_mlp_simclrhn_probe3,1,24,NaN,oven,bird,128-10-10,0024_eid_dnn_128-10-10_bird_10_n01616318_2334.png,n01616318_2334.png,0.0,-0.4185655,0.95156455,-0.96882826
alexnet_w3_mlp_simclrhn_probe3,1,25,NaN,oven,bottle,32-10-10,0025_eid_dnn_32-10-10_bottle_10_n03937543_1658.png,n03937543_1658.png,0.0,0.9594602,1.1092935,-0.10594812
alexnet_w3_mlp_simclrhn_probe3,1,26,NaN,elephant,elephant,2-10-10,0026_eid_dnn_2-10-10_elephant_10_n02504013_6731.png,n02504013_6731.png,1.0,3.3568258,2.3913317,0.6827075
alexnet_w3_mlp_simclrhn_probe3,1,27,NaN,keyboard,keyboard,4-10-10,0027_eid_dnn_4-10-10_keyboard_10_n04505470_4447.png,n04505470_4447.png,1.0,7.1418476,1.4967533,3.9916847
alexnet_w3_mlp_simclrhn_probe3,1,28,NaN,airplane,airplane,1-10-10,0028_eid_dnn_1-10-10_airplane_10_n02690373_4839.png,n02690373_4839.png,1.0,6.190624,2.456424,2.6404784
alexnet_w3_mlp_simclrhn_probe3,1,29,NaN,oven,keyboard,64-10-10,0029_eid_dnn_64-10-10_keyboard_10_n04505470_1651.png,n04505470_1651.png,0.0,-0.0110716745,1.1128831,-0.79475605
alexnet_w3_mlp_simclrhn_probe3,1,30,NaN,keyboard,keyboard,32-10-10,0030_eid_dnn_32-10-10_keyboard_10_n03085013_20601.png,n03085013_20601.png,1.0,0.91352654,0.63306713,0.19831476
alexnet_w3_mlp_simclrhn_probe3,1,31,NaN,oven,airplane,64-10-10,0031_eid_dnn_64-10-10_airplane_10_n02690373_2217.png,n02690373_2217.png,0.0,-0.022543252,0.56268096,-0.413816
alexnet_w3_mlp_simclrhn_probe3,1,32,NaN,bicycle,bicycle,4-10-10,0032_eid_dnn_4-10-10_bicycle_10_n03792782_25019.png,n03792782_25019.png,1.0,0.44486785,0.38441417,0.04274721
alexnet_w3_mlp_simclrhn_probe3,1,33,NaN,cat,cat,8-10-10,0033_eid_dnn_8-10-10_cat_10_n02123597_13890.png,n02123597_13890.png,1.0,2.31876,0.55474436,1.2473474
alexnet_w3_mlp_simclrhn_probe3,1,34,NaN,boat,boat,1-10-10,0034_eid_dnn_1-10-10_boat_10_n04612504_214.png,n04612504_214.png,1.0,9.210512,1.9705439,5.1194305
alexnet_w3_mlp_simclrhn_probe3,1,35,NaN,oven,chair,128-10-10,0035_eid_dnn_128-10-10_chair_10_n02791124_2555.png,n02791124_2555.png,0.0,0.056176133,0.9012213,-0.59753716
alexnet_w3_mlp_simclrhn_probe3,1,36,NaN,car,car,4-10-10,0036_eid_dnn_4-10-10_car_10_n04285008_2081.png,n04285008_2081.png,1.0,1.6480703,0.9642293,0.48354864
alexnet_w3_mlp_simclrhn_probe3,1,37,NaN,oven,dog,32-10-10,0037_eid_dnn_32-10-10_dog_10_n02094114_8202.png,n02094114_8202.png,0.0,0.123390965,0.9028901,-0.5511891
alexnet_w3_mlp_simclrhn_probe3,1,38,NaN,oven,chair,64-10-10,0038_eid_dnn_64-10-10_chair_10_n04099969_4541.png,n04099969_4541.png,0.0,-0.1075335,0.6463458,-0.5330732
alexnet_w3_mlp_simclrhn_probe3,1,39,NaN,oven,boat,128-10-10,0039_eid_dnn_128-10-10_boat_10_n04612504_12864.png,n04612504_12864.png,0.0,-0.04870719,0.84945154,-0.63509417
alexnet_w3_mlp_simclrhn_probe3,1,40,NaN,airplane,airplane,4-10-10,0040_eid_dnn_4-10-10_airplane_10_n02690373_18460.png,n02690373_18460.png,1.0,2.1040163,0.30105338,1.2748873
alexnet_w3_mlp_simclrhn_probe3,1,41,NaN,oven,bottle,64-10-10,0041_eid_dnn_64-10-10_bottle_10_n03983396_8982.png,n03983396_8982.png,0.0,0.0034636909,1.0484581,-0.7389226
alexnet_w3_mlp_simclrhn_probe3,1,42,NaN,oven,dog,16-10-10,0042_eid_dnn_16-10-10_dog_10_n02099601_10407.png,n02099601_10407.png,0.0,0.12025316,1.1105001,-0.70021033
alexnet_w3_mlp_simclrhn_probe3,1,43,NaN,oven,airplane,32-10-10,0043_eid_dnn_32-10-10_airplane_10_n02690373_5253.png,n02690373_5253.png,0.0,-0.03447926,0.8096982,-0.59692365
alexnet_w3_mlp_simclrhn_probe3,1,44,NaN,elephant,elephant,2-10-10,0044_eid_dnn_2-10-10_elephant_10_n02504013_2832.png,n02504013_2832.png,1.0,11.654526,5.1464696,4.6018906
alexnet_w3_mlp_simclrhn_probe3,1,45,NaN,oven,clock,1-10-10,0045_eid_dnn_1-10-10_clock_10_n02708093_8002.png,n02708093_8002.png,0.0,2.497203,3.999182,-1.0620595
alexnet_w3_mlp_simclrhn_probe3,1,46,NaN,chair,chair,2-10-10,0046_eid_dnn_2-10-10_chair_10_n03376595_1766.png,n03376595_1766.png,1.0,1.7342576,0.5620224,0.8288955
alexnet_w3_mlp_simclrhn_probe3,1,47,NaN,airplane,truck,2-10-10,0047_eid_dnn_2-10-10_truck_10_n03417042_17616.png,n03417042_17616.png,0.0,3.191738,3.370443,-0.12636366
alexnet_w3_mlp_simclrhn_probe3,1,48,NaN,bear,bear,16-10-10,0048_eid_dnn_16-10-10_bear_10_n02134418_2804.png,n02134418_2804.png,1.0,1.1335516,0.65149343,0.3408666
alexnet_w3_mlp_simclrhn_probe3,1,49,NaN,bear,car,64-10-10,0049_eid_dnn_64-10-10_car_10_n04285008_12101.png,n04285008_12101.png,0.0,-0.37897193,1.0303707,-0.99655575
alexnet_w3_mlp_simclrhn_probe3,1,50,NaN,bear,bear,16-10-10,0050_eid_dnn_16-10-10_bear_10_n02134418_3828.png,n02134418_3828.png,1.0,0.8682226,0.86411405,0.0029051823
alexnet_w3_mlp_simclrhn_probe3,1,51,NaN,bird,bird,2-10-10,0051_eid_dnn_2-10-10_bird_10_n01530575_5747.png,n01530575_5747.png,1.0,2.9042575,0.27731636,1.857528
alexnet_w3_mlp_simclrhn_probe3,1,52,NaN,oven,truck,128-10-10,0052_eid_dnn_128-10-10_truck_10_n03796401_3386.png,n03796401_3386.png,0.0,-0.23366627,1.3941927,-1.1510701
alexnet_w3_mlp_simclrhn_probe3,1,53,NaN,oven,keyboard,16-10-10,0053_eid_dnn_16-10-10_keyboard_10_n04505470_3234.png,n04505470_3234.png,0.0,0.44056576,1.113153,-0.475591
alexnet_w3_mlp_simclrhn_probe3,1,54,NaN,airplane,truck,1-10-10,0054_eid_dnn_1-10-10_truck_10_n04467665_72639.png,n04467665_72639.png,0.0,1.0997227,3.031065,-1.3656652
alexnet_w3_mlp_simclrhn_probe3,1,55,NaN,oven,chair,32-10-10,0055_eid_dnn_32-10-10_chair_10_n04429376_27524.png,n04429376_27524.png,0.0,-0.05702538,2.1530771,-1.5627786
alexnet_w3_mlp_simclrhn_probe3,1,56,NaN,oven,bottle,64-10-10,0056_eid_dnn_64-10-10_bottle_10_n04557648_11440.png,n04557648_11440.png,0.0,0.19373891,0.6882349,-0.3496615
alexnet_w3_mlp_simclrhn_probe3,1,57,NaN,oven,keyboard,32-10-10,0057_eid_dnn_32-10-10_keyboard_10_n03085013_20216.png,n03085013_20216.png,0.0,-0.090667784,1.7312634,-1.2882999
alexnet_w3_mlp_simclrhn_probe3,1,58,NaN,bear,boat,8-10-10,0058_eid_dnn_8-10-10_boat_10_n02951358_34653.png,n02951358_34653.png,0.0,-0.23667315,1.285089,-1.0760484
alexnet_w3_mlp_simclrhn_probe3,1,59,NaN,keyboard,keyboard,2-10-10,0059_eid_dnn_2-10-10_keyboard_10_n03085013_8932.png,n03085013_8932.png,1.0,2.4446452,1.3338213,0.7854711
alexnet_w3_mlp_simclrhn_probe3,1,60,NaN,bear,cat,1-10-10,0060_eid_dnn_1-10-10_cat_10_n02125311_35338.png,n02125311_35338.png,0.0,0.52409863,0.8239738,-0.21204375
alexnet_w3_mlp_simclrhn_probe3,1,61,NaN,oven,bicycle,16-10-10,0061_eid_dnn_16-10-10_bicycle_10_n03792782_5449.png,n03792782_5449.png,0.0,0.074537836,1.0788233,-0.71013707
alexnet_w3_mlp_simclrhn_probe3,1,62,NaN,bicycle,bicycle,4-10-10,0062_eid_dnn_4-10-10_bicycle_10_n03792782_9432.png,n03792782_9432.png,1.0,1.2902601,0.6406102,0.45937183
alexnet_w3_mlp_simclrhn_probe3,1,63,NaN,oven,bottle,1-10-10,0063_eid_dnn_1-10-10_bottle_10_n04591713_4291.png,n04591713_4291.png,0.0,0.08396272,0.7556677,-0.47496712
alexnet_w3_mlp_simclrhn_probe3,1,64,NaN,truck,truck,4-10-10,0064_eid_dnn_4-10-10_truck_10_n04467665_67057.png,n04467665_67057.png,1.0,1.1843038,1.1147082,0.049211506
alexnet_w3_mlp_simclrhn_probe3,1,65,NaN,oven,keyboard,1-10-10,0065_eid_dnn_1-10-10_keyboard_10_n03085013_22790.png,n03085013_22790.png,0.0,-0.8008052,1.4262807,-1.5747877
alexnet_w3_mlp_simclrhn_probe3,1,66,NaN,cat,dog,4-10-10,0066_eid_dnn_4-10-10_dog_10_n02086079_2896.png,n02086079_2896.png,0.0,0.32121652,0.9937856,-0.4755782
alexnet_w3_mlp_simclrhn_probe3,1,67,NaN,bear,knife,8-10-10,0067_eid_dnn_8-10-10_knife_10_n03041632_40508.png,n03041632_40508.png,0.0,-0.25757354,0.19866836,-0.32261175
alexnet_w3_mlp_simclrhn_probe3,1,68,NaN,boat,boat,1-10-10,0068_eid_dnn_1-10-10_boat_10_n03344393_7942.png,n03344393_7942.png,1.0,2.2849185,2.1338897,0.10679354
alexnet_w3_mlp_simclrhn_probe3,1,69,NaN,bear,bear,2-10-10,0069_eid_dnn_2-10-10_bear_10_n02134418_4352.png,n02134418_4352.png,1.0,3.3886847,0.50245076,2.0408757
alexnet_w3_mlp_simclrhn_probe3,1,70,NaN,oven,cat,16-10-10,0070_eid_dnn_16-10-10_cat_10_n02123045_5157.png,n02123045_5157.png,0.0,-0.11225317,1.3961062,-1.0665712
alexnet_w3_mlp_simclrhn_probe3,1,71,NaN,oven,dog,16-10-10,0071_eid_dnn_16-10-10_dog_10_n02109047_14287.png,n02109047_14287.png,0.0,0.0560569,0.7679122,-0.5033577
alexnet_w3_mlp_simclrhn_probe3,1,72,NaN,truck,truck,2-10-10,0072_eid_dnn_2-10-10_truck_10_n03417042_14274.png,n03417042_14274.png,1.0,2.0690682,0.3746891,1.198107
alexnet_w3_mlp_simclrhn_probe3,1,73,NaN,bird,airplane,2-10-10,0073_eid_dnn_2-10-10_airplane_10_n02690373_5885.png,n02690373_5885.png,0.0,0.7943618,1.4392548,-0.45600817
alexnet_w3_mlp_simclrhn_probe3,1,74,NaN,bear,cat,32-10-10,0074_eid_dnn_32-10-10_cat_10_n02123394_571.png,n02123394_571.png,0.0,0.39781335,0.49555746,-0.06911552
alexnet_w3_mlp_simclrhn_probe3,1,75,NaN,oven,cat,32-10-10,0075_eid_dnn_32-10-10_cat_10_n02123045_10171.png,n02123045_10171.png,0.0,0.54876775,0.712245,-0.11559587
alexnet_w3_mlp_simclrhn_probe3,1,76,NaN,bottle,bottle,8-10-10,0076_eid_dnn_8-10-10_bottle_10_n04560804_4909.png,n04560804_4909.png,1.0,0.7812595,0.4129767,0.26041526
alexnet_w3_mlp_simclrhn_probe3,1,77,NaN,keyboard,keyboard,8-10-10,0077_eid_dnn_8-10-10_keyboard_10_n03085013_7971.png,n03085013_7971.png,1.0,1.4634242,0.29268473,0.82783777
alexnet_w3_mlp_simclrhn_probe3,1,78,NaN,oven,keyboard,16-10-10,0078_eid_dnn_16-10-10_keyboard_10_n03085013_21397.png,n03085013_21397.png,0.0,-0.19119935,0.62270343,-0.5755162
alexnet_w3_mlp_simclrhn_probe3,1,79,NaN,oven,elephant,32-10-10,0079_eid_dnn_32-10-10_elephant_10_n02504458_4187.png,n02504458_4187.png,0.0,0.19730684,0.77512425,-0.40857863
alexnet_w3_mlp_simclrhn_probe3,1,80,NaN,bear,clock,8-10-10,0080_eid_dnn_8-10-10_clock_10_n03196217_6689.png,n03196217_6689.png,0.0,-0.14440657,1.3615334,-1.0648603
alexnet_w3_mlp_simclrhn_probe3,1,81,NaN,knife,knife,4-10-10,0081_eid_dnn_4-10-10_knife_10_n03041632_26236.png,n03041632_26236.png,1.0,0.13272136,0.12252078,0.007212901
alexnet_w3_mlp_simclrhn_probe3,1,82,NaN,oven,car,8-10-10,0082_eid_dnn_8-10-10_car_10_n03100240_1262.png,n03100240_1262.png,0.0,-0.42621294,0.590011,-0.7185788
alexnet_w3_mlp_simclrhn_probe3,1,83,NaN,oven,keyboard,64-10-10,0083_eid_dnn_64-10-10_keyboard_10_n04505470_5059.png,n04505470_5059.png,0.0,-0.16650307,0.910381,-0.761472
alexnet_w3_mlp_simclrhn_probe3,1,84,NaN,bird,bird,1-10-10,0084_eid_dnn_1-10-10_bird_10_n01537544_26417.png,n01537544_26417.png,1.0,2.3522067,0.14647943,1.5596848
alexnet_w3_mlp_simclrhn_probe3,1,85,NaN,bear,bird,32-10-10,0085_eid_dnn_32-10-10_bird_10_n02009912_5714.png,n02009912_5714.png,0.0,-0.55499995,1.2096757,-1.247814
alexnet_w3_mlp_simclrhn_probe3,1,86,NaN,oven,chair,128-10-10,0086_eid_dnn_128-10-10_chair_10_n03376595_5972.png,n03376595_5972.png,0.0,0.06443862,1.4104602,-0.95178103
alexnet_w3_mlp_simclrhn_probe3,1,87,NaN,oven,chair,2-10-10,0087_eid_dnn_2-10-10_chair_10_n04429376_805.png,n04429376_805.png,0.0,1.0851831,1.7532594,-0.47240126
alexnet_w3_mlp_simclrhn_probe3,1,88,NaN,bear,bicycle,128-10-10,0088_eid_dnn_128-10-10_bicycle_10_n03792782_4083.png,n03792782_4083.png,0.0,0.23232692,0.60699457,-0.26493004
alexnet_w3_mlp_simclrhn_probe3,1,89,NaN,oven,clock,1-10-10,0089_eid_dnn_1-10-10_clock_10_n02708093_798.png,n02708093_798.png,0.0,1.157802,1.3590727,-0.14231987
alexnet_w3_mlp_simclrhn_probe3,1,90,NaN,bear,bear,1-10-10,0090_eid_dnn_1-10-10_bear_10_n02133161_1660.png,n02133161_1660.png,1.0,3.0280478,0.6308408,1.6950814
alexnet_w3_mlp_simclrhn_probe3,1,91,NaN,oven,car,8-10-10,0091_eid_dnn_8-10-10_car_10_n04285008_9464.png,n04285008_9464.png,0.0,-0.4924421,1.8293347,-1.6417441
alexnet_w3_mlp_simclrhn_probe3,1,92,NaN,oven,oven,16-10-10,0092_eid_dnn_16-10-10_oven_10_n04111531_3314.png,n04111531_3314.png,1.0,0.9822277,0.35696745,0.44212577
alexnet_w3_mlp_simclrhn_probe3,1,93,NaN,bear,cat,128-10-10,0093_eid_dnn_128-10-10_cat_10_n02123394_5753.png,n02123394_5753.png,0.0,0.10849314,0.63011324,-0.3688411
alexnet_w3_mlp_simclrhn_probe3,1,94,NaN,boat,boat,2-10-10,0094_eid_dnn_2-10-10_boat_10_n02951358_34042.png,n02951358_34042.png,1.0,1.65741,0.4727889,0.83765364
alexnet_w3_mlp_simclrhn_probe3,1,95,NaN,oven,truck,64-10-10,0095_eid_dnn_64-10-10_truck_10_n03417042_7588.png,n03417042_7588.png,0.0,-0.27048457,1.2708452,-1.0898848
alexnet_w3_mlp_simclrhn_probe3,1,96,NaN,oven,truck,32-10-10,0096_eid_dnn_32-10-10_truck_10_n03417042_4200.png,n03417042_4200.png,0.0,-0.3147604,1.7996666,-1.4951258
alexnet_w3_mlp_simclrhn_probe3,1,97,NaN,airplane,airplane,4-10-10,0097_eid_dnn_4-10-10_airplane_10_n02690373_4335.png,n02690373_4335.png,1.0,3.0043187,0.68336034,1.6411654
alexnet_w3_mlp_simclrhn_probe3,1,98,NaN,oven,elephant,128-10-10,0098_eid_dnn_128-10-10_elephant_10_n02504458_6823.png,n02504458_6823.png,0.0,0.06219432,0.576838,-0.36390802
alexnet_w3_mlp_simclrhn_probe3,1,99,NaN,boat,boat,4-10-10,0099_eid_dnn_4-10-10_boat_10_n03344393_4214.png,n03344393_4214.png,1.0,4.694674,2.6325407,1.4581485
alexnet_w3_mlp_simclrhn_probe3,1,100,NaN,keyboard,keyboard,4-10-10,0100_eid_dnn_4-10-10_keyboard_10_n03085013_22949.png,n03085013_22949.png,1.0,3.553687,0.5016102,2.1581442
alexnet_w3_mlp_simclrhn_probe3,1,101,NaN,bear,bear,64-10-10,0101_eid_dnn_64-10-10_bear_10_n02132136_31664.png,n02132136_31664.png,1.0,0.7936544,0.5622801,0.16360632
alexnet_w3_mlp_simclrhn_probe3,1,102,NaN,keyboard,bottle,8-10-10,0102_eid_dnn_8-10-10_bottle_10_n03983396_1985.png,n03983396_1985.png,0.0,0.28105932,0.7071053,-0.30126
alexnet_w3_mlp_simclrhn_probe3,1,103,NaN,airplane,airplane,2-10-10,0103_eid_dnn_2-10-10_airplane_10_n02690373_9266.png,n02690373_9266.png,1.0,5.8074346,0.718305,3.598558
alexnet_w3_mlp_simclrhn_probe3,1,104,NaN,bear,bottle,128-10-10,0104_eid_dnn_128-10-10_bottle_10_n02823428_5961.png,n02823428_5961.png,0.0,0.077630706,0.88264894,-0.5692339
alexnet_w3_mlp_simclrhn_probe3,1,105,NaN,bottle,bottle,4-10-10,0105_eid_dnn_4-10-10_bottle_10_n04579145_1856.png,n04579145_1856.png,1.0,2.8530116,1.3437417,1.0672151
alexnet_w3_mlp_simclrhn_probe3,1,106,NaN,bear,clock,64-10-10,0106_eid_dnn_64-10-10_clock_10_n02708093_7810.png,n02708093_7810.png,0.0,0.13687603,1.0353436,-0.63531256
alexnet_w3_mlp_simclrhn_probe3,1,107,NaN,dog,dog,1-10-10,0107_eid_dnn_1-10-10_dog_10_n02100735_4949.png,n02100735_4949.png,1.0,1.1608752,1.1518245,0.0063998303
alexnet_w3_mlp_simclrhn_probe3,1,108,NaN,oven,chair,32-10-10,0108_eid_dnn_32-10-10_chair_10_n03376595_7275.png,n03376595_7275.png,0.0,-0.24981062,0.7486588,-0.7060245
alexnet_w3_mlp_simclrhn_probe3,1,109,NaN,bottle,bottle,2-10-10,0109_eid_dnn_2-10-10_bottle_10_n03983396_16741.png,n03983396_16741.png,1.0,2.755607,0.8828423,1.3242446
alexnet_w3_mlp_simclrhn_probe3,1,110,NaN,oven,boat,32-10-10,0110_eid_dnn_32-10-10_boat_10_n04612504_8719.png,n04612504_8719.png,0.0,0.45546937,1.1729536,-0.507338
alexnet_w3_mlp_simclrhn_probe3,1,111,NaN,chair,chair,1-10-10,0111_eid_dnn_1-10-10_chair_10_n02791124_3570.png,n02791124_3570.png,1.0,4.6698203,1.2825336,2.3951733
alexnet_w3_mlp_simclrhn_probe3,1,112,NaN,oven,bear,32-10-10,0112_eid_dnn_32-10-10_bear_10_n02132136_9557.png,n02132136_9557.png,0.0,0.86739767,1.1913667,-0.22908069
alexnet_w3_mlp_simclrhn_probe3,1,113,NaN,bear,bird,64-10-10,0113_eid_dnn_64-10-10_bird_10_n02002556_5730.png,n02002556_5730.png,0.0,-0.32557598,0.7845231,-0.7849586
alexnet_w3_mlp_simclrhn_probe3,1,114,NaN,oven,oven,4-10-10,0114_eid_dnn_4-10-10_oven_10_n04111531_8959.png,n04111531_8959.png,1.0,1.2084343,0.32864124,0.6221077
alexnet_w3_mlp_simclrhn_probe3,1,115,NaN,bear,cat,128-10-10,0115_eid_dnn_128-10-10_cat_10_n02123159_8101.png,n02123159_8101.png,0.0,0.046445142,0.5113386,-0.32872933
alexnet_w3_mlp_simclrhn_probe3,1,116,NaN,cat,cat,8-10-10,0116_eid_dnn_8-10-10_cat_10_n02123597_8890.png,n02123597_8890.png,1.0,0.89584994,0.5803449,0.22309574
alexnet_w3_mlp_simclrhn_probe3,1,117,NaN,elephant,elephant,1-10-10,0117_eid_dnn_1-10-10_elephant_10_n02504458_220.png,n02504458_220.png,1.0,11.721216,3.3313994,5.932496
alexnet_w3_mlp_simclrhn_probe3,1,118,NaN,oven,bicycle,128-10-10,0118_eid_dnn_128-10-10_bicycle_10_n02835271_2651.png,n02835271_2651.png,0.0,-0.074806765,0.60655934,-0.4817986
alexnet_w3_mlp_simclrhn_probe3,1,119,NaN,bear,keyboard,64-10-10,0119_eid_dnn_64-10-10_keyboard_10_n04505470_1581.png,n04505470_1581.png,0.0,-0.07418548,0.9916909,-0.7536884
alexnet_w3_mlp_simclrhn_probe3,1,120,NaN,truck,truck,4-10-10,0120_eid_dnn_4-10-10_truck_10_n04467665_1719.png,n04467665_1719.png,1.0,2.1822543,1.8285382,0.2501151
alexnet_w3_mlp_simclrhn_probe3,1,121,NaN,truck,truck,2-10-10,0121_eid_dnn_2-10-10_truck_10_n04467665_30756.png,n04467665_30756.png,1.0,6.880522,0.40521997,4.5787296
alexnet_w3_mlp_simclrhn_probe3,1,122,NaN,oven,oven,64-10-10,0122_eid_dnn_64-10-10_oven_10_n04111531_1818.png,n04111531_1818.png,1.0,1.3552192,0.545384,0.57264
alexnet_w3_mlp_simclrhn_probe3,1,123,NaN,oven,elephant,64-10-10,0123_eid_dnn_64-10-10_elephant_10_n02504013_2974.png,n02504013_2974.png,0.0,0.57311577,0.7682429,-0.13797572
alexnet_w3_mlp_simclrhn_probe3,1,124,NaN,oven,bicycle,128-10-10,0124_eid_dnn_128-10-10_bicycle_10_n03792782_7713.png,n03792782_7713.png,0.0,0.07257276,0.40598238,-0.2357562
alexnet_w3_mlp_simclrhn_probe3,1,125,NaN,oven,clock,16-10-10,0125_eid_dnn_16-10-10_clock_10_n04548280_9700.png,n04548280_9700.png,0.0,0.15499532,0.9266785,-0.5456624
alexnet_w3_mlp_simclrhn_probe3,1,126,NaN,oven,bottle,16-10-10,0126_eid_dnn_16-10-10_bottle_10_n04591713_1174.png,n04591713_1174.png,0.0,0.00704926,1.1003262,-0.7730636
alexnet_w3_mlp_simclrhn_probe3,1,127,NaN,oven,bear,64-10-10,0127_eid_dnn_64-10-10_bear_10_n02134418_1395.png,n02134418_1395.png,0.0,0.93618524,1.0654792,-0.09142461
alexnet_w3_mlp_simclrhn_probe3,1,128,NaN,oven,bottle,128-10-10,0128_eid_dnn_128-10-10_bottle_10_n04591713_36.png,n04591713_36.png,0.0,0.21569487,1.1417484,-0.6548187
alexnet_w3_mlp_simclrhn_probe3,1,129,NaN,oven,knife,8-10-10,0129_eid_dnn_8-10-10_knife_10_n03041632_21034.png,n03041632_21034.png,0.0,0.5234635,0.9403449,-0.2947797
alexnet_w3_mlp_simclrhn_probe3,1,130,NaN,bicycle,bicycle,1-10-10,0130_eid_dnn_1-10-10_bicycle_10_n03792782_11115.png,n03792782_11115.png,1.0,13.76713,2.4818702,7.9798837
alexnet_w3_mlp_simclrhn_probe3,1,131,NaN,oven,truck,16-10-10,0131_eid_dnn_16-10-10_truck_10_n03417042_5381.png,n03417042_5381.png,0.0,-0.22868095,1.5820462,-1.2803774
alexnet_w3_mlp_simclrhn_probe3,1,132,NaN,bear,boat,64-10-10,0132_eid_dnn_64-10-10_boat_10_n04612504_15258.png,n04612504_15258.png,0.0,0.3279234,1.3126123,-0.6962802
alexnet_w3_mlp_simclrhn_probe3,1,133,NaN,boat,boat,2-10-10,0133_eid_dnn_2-10-10_boat_10_n03662601_11972.png,n03662601_11972.png,1.0,5.8281183,0.84407717,3.5242493
alexnet_w3_mlp_simclrhn_probe3,1,134,NaN,oven,dog,64-10-10,0134_eid_dnn_64-10-10_dog_10_n02092002_11459.png,n02092002_11459.png,0.0,-0.10027575,0.98383313,-0.7665807
alexnet_w3_mlp_simclrhn_probe3,1,135,NaN,oven,clock,64-10-10,0135_eid_dnn_64-10-10_clock_10_n04548280_6605.png,n04548280_6605.png,0.0,0.22684442,0.8225051,-0.42119572
alexnet_w3_mlp_simclrhn_probe3,1,136,NaN,bear,boat,64-10-10,0136_eid_dnn_64-10-10_boat_10_n03662601_5600.png,n03662601_5600.png,0.0,0.23823771,0.5283667,-0.20515217
alexnet_w3_mlp_simclrhn_probe3,1,137,NaN,bear,bear,32-10-10,0137_eid_dnn_32-10-10_bear_10_n02134084_8153.png,n02134084_8153.png,1.0,0.8036406,0.72418547,0.056183267
alexnet_w3_mlp_simclrhn_probe3,1,138,NaN,oven,cat,64-10-10,0138_eid_dnn_64-10-10_cat_10_n02124075_9225.png,n02124075_9225.png,0.0,-0.3172494,1.2515979,-1.1093426
alexnet_w3_mlp_simclrhn_probe3,1,139,NaN,oven,bicycle,8-10-10,0139_eid_dnn_8-10-10_bicycle_10_n03792782_3591.png,n03792782_3591.png,0.0,-0.025366522,1.7268072,-1.238974
alexnet_w3_mlp_simclrhn_probe3,1,140,NaN,oven,dog,64-10-10,0140_eid_dnn_64-10-10_dog_10_n02107142_31661.png,n02107142_31661.png,0.0,-0.0010087151,1.2458618,-0.8816706
alexnet_w3_mlp_simclrhn_probe3,1,141,NaN,elephant,elephant,8-10-10,0141_eid_dnn_8-10-10_elephant_10_n02504458_651.png,n02504458_651.png,1.0,7.9837356,4.0062046,2.812539
alexnet_w3_mlp_simclrhn_probe3,1,142,NaN,oven,dog,128-10-10,0142_eid_dnn_128-10-10_dog_10_n02110958_15217.png,n02110958_15217.png,0.0,0.0022500237,1.0291601,-0.7261351
alexnet_w3_mlp_simclrhn_probe3,1,143,NaN,oven,oven,4-10-10,0143_eid_dnn_4-10-10_oven_10_n04111531_523.png,n04111531_523.png,1.0,2.3849795,0.8647073,1.0749948
alexnet_w3_mlp_simclrhn_probe3,1,144,NaN,car,car,4-10-10,0144_eid_dnn_4-10-10_car_10_n02814533_42884.png,n02814533_42884.png,1.0,1.7733631,0.64804924,0.79571706
alexnet_w3_mlp_simclrhn_probe3,1,145,NaN,oven,car,64-10-10,0145_eid_dnn_64-10-10_car_10_n04285008_8017.png,n04285008_8017.png,0.0,-0.360428,1.0256727,-0.9801212
alexnet_w3_mlp_simclrhn_probe3,1,146,NaN,car,car,1-10-10,0146_eid_dnn_1-10-10_car_10_n03100240_16766.png,n03100240_16766.png,1.0,3.205596,2.1140995,0.7718046
alexnet_w3_mlp_simclrhn_probe3,1,147,NaN,elephant,elephant,8-10-10,0147_eid_dnn_8-10-10_elephant_10_n02504458_4593.png,n02504458_4593.png,1.0,5.303458,2.454727,2.0143573
alexnet_w3_mlp_simclrhn_probe3,1,148,NaN,oven,chair,64-10-10,0148_eid_dnn_64-10-10_chair_10_n02791124_1358.png,n02791124_1358.png,0.0,-0.09567716,0.7535873,-0.6005207
alexnet_w3_mlp_simclrhn_probe3,1,149,NaN,oven,dog,16-10-10,0149_eid_dnn_16-10-10_dog_10_n02095314_5363.png,n02095314_5363.png,0.0,0.23266761,0.71716905,-0.34259424
alexnet_w3_mlp_simclrhn_probe3,1,150,NaN,oven,clock,8-10-10,0150_eid_dnn_8-10-10_clock_10_n04548280_1413.png,n04548280_1413.png,0.0,0.37160596,0.47627074,-0.07400917
alexnet_w3_mlp_simclrhn_probe3,1,151,NaN,dog,dog,1-10-10,0151_eid_dnn_1-10-10_dog_10_n02105641_10948.png,n02105641_10948.png,1.0,3.4330509,1.1822728,1.5915406
alexnet_w3_mlp_simclrhn_probe3,1,152,NaN,bear,dog,1-10-10,0152_eid_dnn_1-10-10_dog_10_n02113624_1691.png,n02113624_1691.png,0.0,0.18614641,2.6178951,-1.719506
alexnet_w3_mlp_simclrhn_probe3,1,153,NaN,truck,car,4-10-10,0153_eid_dnn_4-10-10_car_10_n03100240_2235.png,n03100240_2235.png,0.0,2.0509708,3.0963602,-0.73920196
alexnet_w3_mlp_simclrhn_probe3,1,154,NaN,oven,chair,2-10-10,0154_eid_dnn_2-10-10_chair_10_n04099969_56470.png,n04099969_56470.png,0.0,0.84160084,1.2348261,-0.27805224
alexnet_w3_mlp_simclrhn_probe3,1,155,NaN,oven,oven,2-10-10,0155_eid_dnn_2-10-10_oven_10_n04111531_5429.png,n04111531_5429.png,1.0,6.005886,1.294204,3.3316627
alexnet_w3_mlp_simclrhn_probe3,1,156,NaN,oven,keyboard,64-10-10,0156_eid_dnn_64-10-10_keyboard_10_n03085013_19317.png,n03085013_19317.png,0.0,-0.06425986,1.24806,-0.9279503
alexnet_w3_mlp_simclrhn_probe3,1,157,NaN,bear,bird,64-10-10,0157_eid_dnn_64-10-10_bird_10_n01601694_19650.png,n01601694_19650.png,0.0,-0.27282885,0.35187462,-0.44173208
alexnet_w3_mlp_simclrhn_probe3,1,158,NaN,oven,clock,128-10-10,0158_eid_dnn_128-10-10_clock_10_n03196217_11199.png,n03196217_11199.png,0.0,0.19680576,1.3095217,-0.786809
alexnet_w3_mlp_simclrhn_probe3,1,159,NaN,oven,bottle,32-10-10,0159_eid_dnn_32-10-10_bottle_10_n03937543_2209.png,n03937543_2209.png,0.0,-0.038778175,0.6724542,-0.50291723
alexnet_w3_mlp_simclrhn_probe3,1,160,NaN,oven,car,64-10-10,0160_eid_dnn_64-10-10_car_10_n03100240_16939.png,n03100240_16939.png,0.0,-0.20833534,1.5788935,-1.2637616
alexnet_w3_mlp_simclrhn_probe3,1,161,NaN,oven,bottle,8-10-10,0161_eid_dnn_8-10-10_bottle_10_n04591713_2501.png,n04591713_2501.png,0.0,0.2592055,0.69425017,-0.30762306
alexnet_w3_mlp_simclrhn_probe3,1,162,NaN,bear,airplane,16-10-10,0162_eid_dnn_16-10-10_airplane_10_n02690373_10395.png,n02690373_10395.png,0.0,0.47079882,0.56205964,-0.06453115
alexnet_w3_mlp_simclrhn_probe3,1,163,NaN,oven,oven,8-10-10,0163_eid_dnn_8-10-10_oven_10_n04111531_3286.png,n04111531_3286.png,1.0,2.16367,0.1920399,1.394153
alexnet_w3_mlp_simclrhn_probe3,1,164,NaN,oven,boat,64-10-10,0164_eid_dnn_64-10-10_boat_10_n04273569_13401.png,n04273569_13401.png,0.0,-0.030567998,2.2891424,-1.6402829
alexnet_w3_mlp_simclrhn_probe3,1,165,NaN,oven,elephant,64-10-10,0165_eid_dnn_64-10-10_elephant_10_n02504458_12776.png,n02504458_12776.png,0.0,0.43862265,1.0810068,-0.45423418
alexnet_w3_mlp_simclrhn_probe3,1,166,NaN,bird,bird,2-10-10,0166_eid_dnn_2-10-10_bird_10_n01828970_997.png,n01828970_997.png,1.0,1.9019283,0.5902648,0.9274862
alexnet_w3_mlp_simclrhn_probe3,1,167,NaN,bear,bear,8-10-10,0167_eid_dnn_8-10-10_bear_10_n02132136_10318.png,n02132136_10318.png,1.0,1.3357357,0.5034286,0.58853
alexnet_w3_mlp_simclrhn_probe3,1,168,NaN,oven,oven,32-10-10,0168_eid_dnn_32-10-10_oven_10_n04111531_7883.png,n04111531_7883.png,1.0,1.7389532,0.25997216,1.0457975
alexnet_w3_mlp_simclrhn_probe3,1,169,NaN,oven,clock,128-10-10,0169_eid_dnn_128-10-10_clock_10_n02708093_725.png,n02708093_725.png,0.0,0.11439145,0.82041657,-0.49923515
alexnet_w3_mlp_simclrhn_probe3,1,170,NaN,oven,bottle,16-10-10,0170_eid_dnn_16-10-10_bottle_10_n04557648_2052.png,n04557648_2052.png,0.0,-0.052082904,1.5574414,-1.1381055
alexnet_w3_mlp_simclrhn_probe3,1,171,NaN,oven,keyboard,32-10-10,0171_eid_dnn_32-10-10_keyboard_10_n04505470_5036.png,n04505470_5036.png,0.0,-0.13512549,1.4348719,-1.1101558
alexnet_w3_mlp_simclrhn_probe3,1,172,NaN,elephant,elephant,8-10-10,0172_eid_dnn_8-10-10_elephant_10_n02504458_13352.png,n02504458_13352.png,1.0,4.29831,2.5006056,1.2711688
alexnet_w3_mlp_simclrhn_probe3,1,173,NaN,chair,chair,4-10-10,0173_eid_dnn_4-10-10_chair_10_n04429376_30620.png,n04429376_30620.png,1.0,0.7327667,0.6942658,0.027224252
alexnet_w3_mlp_simclrhn_probe3,1,174,NaN,bear,boat,16-10-10,0174_eid_dnn_16-10-10_boat_10_n03662601_2980.png,n03662601_2980.png,0.0,0.35188463,0.5219659,-0.12026563
alexnet_w3_mlp_simclrhn_probe3,1,175,NaN,bicycle,boat,8-10-10,0175_eid_dnn_8-10-10_boat_10_n03662601_4734.png,n03662601_4734.png,0.0,0.29319626,0.6346596,-0.24145104
alexnet_w3_mlp_simclrhn_probe3,1,176,NaN,bear,bear,2-10-10,0176_eid_dnn_2-10-10_bear_10_n02134418_4754.png,n02134418_4754.png,1.0,5.126752,2.532677,1.834288
alexnet_w3_mlp_simclrhn_probe3,1,177,NaN,elephant,elephant,2-10-10,0177_eid_dnn_2-10-10_elephant_10_n02504013_8522.png,n02504013_8522.png,1.0,10.069714,4.1633835,4.176406
alexnet_w3_mlp_simclrhn_probe3,1,178,NaN,oven,bottle,64-10-10,0178_eid_dnn_64-10-10_bottle_10_n03937543_4863.png,n03937543_4863.png,0.0,0.09749537,1.6981905,-1.1318624
alexnet_w3_mlp_simclrhn_probe3,1,179,NaN,oven,car,16-10-10,0179_eid_dnn_16-10-10_car_10_n04285008_10802.png,n04285008_10802.png,0.0,-0.53393185,1.5738016,-1.4903927
alexnet_w3_mlp_simclrhn_probe3,1,180,NaN,oven,knife,64-10-10,0180_eid_dnn_64-10-10_knife_10_n03041632_6708.png,n03041632_6708.png,0.0,0.12572065,1.2747741,-0.8125035
alexnet_w3_mlp_simclrhn_probe3,1,181,NaN,elephant,dog,1-10-10,0181_eid_dnn_1-10-10_dog_10_n02107142_61109.png,n02107142_61109.png,0.0,0.99088824,2.5747159,-1.1199353
alexnet_w3_mlp_simclrhn_probe3,1,182,NaN,knife,clock,2-10-10,0182_eid_dnn_2-10-10_clock_10_n03196217_8139.png,n03196217_8139.png,0.0,0.28711033,0.8842775,-0.42226097
alexnet_w3_mlp_simclrhn_probe3,1,183,NaN,elephant,elephant,1-10-10,0183_eid_dnn_1-10-10_elephant_10_n02504458_6611.png,n02504458_6611.png,1.0,11.817542,3.0621717,6.190982
alexnet_w3_mlp_simclrhn_probe3,1,184,NaN,oven,truck,64-10-10,0184_eid_dnn_64-10-10_truck_10_n04467665_4401.png,n04467665_4401.png,0.0,-0.08119331,1.116332,-0.84677833
alexnet_w3_mlp_simclrhn_probe3,1,185,NaN,boat,boat,4-10-10,0185_eid_dnn_4-10-10_boat_10_n03344393_732.png,n03344393_732.png,1.0,2.9430668,1.0230353,1.3576673
alexnet_w3_mlp_simclrhn_probe3,1,186,NaN,knife,knife,4-10-10,0186_eid_dnn_4-10-10_knife_10_n03041632_41381.png,n03041632_41381.png,1.0,0.5344783,0.3467429,0.13274898
alexnet_w3_mlp_simclrhn_probe3,1,187,NaN,oven,oven,32-10-10,0187_eid_dnn_32-10-10_oven_10_n04111531_22715.png,n04111531_22715.png,1.0,1.390759,0.6908424,0.49491578
alexnet_w3_mlp_simclrhn_probe3,1,188,NaN,bear,cat,16-10-10,0188_eid_dnn_16-10-10_cat_10_n02123045_3568.png,n02123045_3568.png,0.0,0.6387935,0.9328153,-0.2079048
alexnet_w3_mlp_simclrhn_probe3,1,189,NaN,truck,truck,2-10-10,0189_eid_dnn_2-10-10_truck_10_n03796401_18976.png,n03796401_18976.png,1.0,5.252826,3.1828308,1.4637078
alexnet_w3_mlp_simclrhn_probe3,1,190,NaN,oven,oven,8-10-10,0190_eid_dnn_8-10-10_oven_10_n04111531_15710.png,n04111531_15710.png,1.0,2.3589776,0.27061898,1.4766926
alexnet_w3_mlp_simclrhn_probe3,1,191,NaN,bear,elephant,32-10-10,0191_eid_dnn_32-10-10_elephant_10_n02504013_7232.png,n02504013_7232.png,0.0,0.4657458,1.2490542,-0.55388266
alexnet_w3_mlp_simclrhn_probe3,1,192,NaN,oven,clock,64-10-10,0192_eid_dnn_64-10-10_clock_10_n02708093_5126.png,n02708093_5126.png,0.0,0.10070167,0.82530224,-0.51237
alexnet_w3_mlp_simclrhn_probe3,1,193,NaN,oven,cat,32-10-10,0193_eid_dnn_32-10-10_cat_10_n02123159_1598.png,n02123159_1598.png,0.0,-0.02534467,1.699433,-1.219602
alexnet_w3_mlp_simclrhn_probe3,1,194,NaN,car,car,1-10-10,0194_eid_dnn_1-10-10_car_10_n04285008_1661.png,n04285008_1661.png,1.0,7.6902404,5.963603,1.220917
alexnet_w3_mlp_simclrhn_probe3,1,195,NaN,clock,clock,2-10-10,0195_eid_dnn_2-10-10_clock_10_n02708093_5551.png,n02708093_5551.png,1.0,4.5576496,0.19135363,3.0874374
alexnet_w3_mlp_simclrhn_probe3,1,196,NaN,oven,airplane,128-10-10,0196_eid_dnn_128-10-10_airplane_10_n02690373_693.png,n02690373_693.png,0.0,0.31691158,0.38114756,-0.0454217
alexnet_w3_mlp_simclrhn_probe3,1,197,NaN,elephant,elephant,2-10-10,0197_eid_dnn_2-10-10_elephant_10_n02504013_3409.png,n02504013_3409.png,1.0,10.039569,3.1559267,4.8674703
alexnet_w3_mlp_simclrhn_probe3,1,198,NaN,oven,dog,64-10-10,0198_eid_dnn_64-10-10_dog_10_n02113712_8182.png,n02113712_8182.png,0.0,0.039460838,0.86042905,-0.5805122
alexnet_w3_mlp_simclrhn_probe3,1,199,NaN,bottle,bottle,1-10-10,0199_eid_dnn_1-10-10_bottle_10_n03983396_8322.png,n03983396_8322.png,1.0,4.502854,1.4997684,2.1235023
alexnet_w3_mlp_simclrhn_probe3,1,200,NaN,oven,keyboard,64-10-10,0200_eid_dnn_64-10-10_keyboard_10_n04505470_1040.png,n04505470_1040.png,0.0,0.038056947,1.1253188,-0.7688102
alexnet_w3_mlp_simclrhn_probe3,1,201,NaN,oven,oven,32-10-10,0201_eid_dnn_32-10-10_oven_10_n04111531_11230.png,n04111531_11230.png,1.0,1.1197861,0.22370121,0.6336277
alexnet_w3_mlp_simclrhn_probe3,1,202,NaN,cat,cat,1-10-10,0202_eid_dnn_1-10-10_cat_10_n02123394_6269.png,n02123394_6269.png,1.0,3.0801475,0.8455036,1.5801319
alexnet_w3_mlp_simclrhn_probe3,1,203,NaN,elephant,elephant,2-10-10,0203_eid_dnn_2-10-10_elephant_10_n02504013_2075.png,n02504013_2075.png,1.0,7.3003674,2.0725844,3.696601
alexnet_w3_mlp_simclrhn_probe3,1,204,NaN,bear,bear,1-10-10,0204_eid_dnn_1-10-10_bear_10_n02133161_3795.png,n02133161_3795.png,1.0,2.2745433,1.4297576,0.5973537
alexnet_w3_mlp_simclrhn_probe3,1,205,NaN,oven,oven,2-10-10,0205_eid_dnn_2-10-10_oven_10_n04111531_4322.png,n04111531_4322.png,1.0,2.0887518,1.066983,0.72249967
alexnet_w3_mlp_simclrhn_probe3,1,206,NaN,oven,bottle,4-10-10,0206_eid_dnn_4-10-10_bottle_10_n03937543_5799.png,n03937543_5799.png,0.0,0.5012837,1.5337588,-0.73007005
alexnet_w3_mlp_simclrhn_probe3,1,207,NaN,keyboard,keyboard,8-10-10,0207_eid_dnn_8-10-10_keyboard_10_n04505470_4414.png,n04505470_4414.png,1.0,1.3221889,1.1761997,0.10322994
alexnet_w3_mlp_simclrhn_probe3,1,208,NaN,cat,dog,4-10-10,0208_eid_dnn_4-10-10_dog_10_n02091032_8315.png,n02091032_8315.png,0.0,1.3133985,1.978931,-0.47060254
alexnet_w3_mlp_simclrhn_probe3,1,209,NaN,knife,knife,2-10-10,0209_eid_dnn_2-10-10_knife_10_n03041632_39952.png,n03041632_39952.png,1.0,1.4201765,0.3139241,0.7822386
alexnet_w3_mlp_simclrhn_probe3,1,210,NaN,bottle,chair,8-10-10,0210_eid_dnn_8-10-10_chair_10_n02791124_634.png,n02791124_634.png,0.0,-0.30508545,0.1389684,-0.31399348
alexnet_w3_mlp_simclrhn_probe3,1,211,NaN,bear,boat,32-10-10,0211_eid_dnn_32-10-10_boat_10_n03344393_3355.png,n03344393_3355.png,0.0,0.5318076,0.5995375,-0.047892265
alexnet_w3_mlp_simclrhn_probe3,1,212,NaN,bear,dog,32-10-10,0212_eid_dnn_32-10-10_dog_10_n02102040_7188.png,n02102040_7188.png,0.0,-0.008348918,0.34637675,-0.25082892
alexnet_w3_mlp_simclrhn_probe3,1,213,NaN,chair,chair,2-10-10,0213_eid_dnn_2-10-10_chair_10_n02791124_8711.png,n02791124_8711.png,1.0,1.2969018,1.2597519,0.026268952
alexnet_w3_mlp_simclrhn_probe3,1,214,NaN,bear,bear,64-10-10,0214_eid_dnn_64-10-10_bear_10_n02132136_6002.png,n02132136_6002.png,1.0,0.5323435,0.4291618,0.072960496
alexnet_w3_mlp_simclrhn_probe3,1,215,NaN,boat,boat,4-10-10,0215_eid_dnn_4-10-10_boat_10_n02951358_30184.png,n02951358_30184.png,1.0,2.962161,2.3837357,0.40900853
alexnet_w3_mlp_simclrhn_probe3,1,216,NaN,oven,bottle,128-10-10,0216_eid_dnn_128-10-10_bottle_10_n02823428_3414.png,n02823428_3414.png,0.0,0.08025097,1.085796,-0.71102774
alexnet_w3_mlp_simclrhn_probe3,1,217,NaN,oven,truck,4-10-10,0217_eid_dnn_4-10-10_truck_10_n04467665_13231.png,n04467665_13231.png,0.0,-0.24410933,0.8956505,-0.80593187
alexnet_w3_mlp_simclrhn_probe3,1,218,NaN,bicycle,chair,4-10-10,0218_eid_dnn_4-10-10_chair_10_n04099969_8063.png,n04099969_8063.png,0.0,0.69488305,1.5112765,-0.57727736
alexnet_w3_mlp_simclrhn_probe3,1,219,NaN,bird,bird,4-10-10,0219_eid_dnn_4-10-10_bird_10_n01534433_10234.png,n01534433_10234.png,1.0,0.6816702,0.01731607,0.46976933
alexnet_w3_mlp_simclrhn_probe3,1,220,NaN,elephant,elephant,4-10-10,0220_eid_dnn_4-10-10_elephant_10_n02504013_12533.png,n02504013_12533.png,1.0,2.3143423,1.9655414,0.24663949
alexnet_w3_mlp_simclrhn_probe3,1,221,NaN,bear,knife,16-10-10,0221_eid_dnn_16-10-10_knife_10_n03041632_18995.png,n03041632_18995.png,0.0,-0.056846708,0.17228663,-0.16202174
alexnet_w3_mlp_simclrhn_probe3,1,222,NaN,oven,chair,32-10-10,0222_eid_dnn_32-10-10_chair_10_n04429376_7123.png,n04429376_7123.png,0.0,-0.40303284,1.2947874,-1.2005402
alexnet_w3_mlp_simclrhn_probe3,1,223,NaN,oven,clock,64-10-10,0223_eid_dnn_64-10-10_clock_10_n03196217_9065.png,n03196217_9065.png,0.0,0.110521264,0.55874777,-0.316944
alexnet_w3_mlp_simclrhn_probe3,1,224,NaN,cat,dog,4-10-10,0224_eid_dnn_4-10-10_dog_10_n02086079_4143.png,n02086079_4143.png,0.0,0.6406137,1.1790929,-0.3807623
alexnet_w3_mlp_simclrhn_probe3,1,225,NaN,elephant,bear,4-10-10,0225_eid_dnn_4-10-10_bear_10_n02132136_20162.png,n02132136_20162.png,0.0,1.8045113,1.8053911,-0.0006220875
alexnet_w3_mlp_simclrhn_probe3,1,226,NaN,clock,bottle,1-10-10,0226_eid_dnn_1-10-10_bottle_10_n03983396_4165.png,n03983396_4165.png,0.0,0.4480657,0.47232172,-0.017151598
alexnet_w3_mlp_simclrhn_probe3,1,227,NaN,bird,bird,4-10-10,0227_eid_dnn_4-10-10_bird_10_n01824575_4470.png,n01824575_4470.png,1.0,1.9379047,0.15483591,1.26082
alexnet_w3_mlp_simclrhn_probe3,1,228,NaN,oven,oven,64-10-10,0228_eid_dnn_64-10-10_oven_10_n04111531_9695.png,n04111531_9695.png,1.0,0.9690486,0.33231318,0.45023996
alexnet_w3_mlp_simclrhn_probe3,1,229,NaN,oven,bottle,64-10-10,0229_eid_dnn_64-10-10_bottle_10_n02823428_23181.png,n02823428_23181.png,0.0,0.1602762,1.4403487,-0.905148
alexnet_w3_mlp_simclrhn_probe3,1,230,NaN,bicycle,bicycle,2-10-10,0230_eid_dnn_2-10-10_bicycle_10_n02835271_13674.png,n02835271_13674.png,1.0,6.906007,1.0254657,4.15817
alexnet_w3_mlp_simclrhn_probe3,1,231,NaN,oven,chair,2-10-10,0231_eid_dnn_2-10-10_chair_10_n04429376_55747.png,n04429376_55747.png,0.0,2.3427792,3.976275,-1.155056
alexnet_w3_mlp_simclrhn_probe3,1,232,NaN,oven,boat,32-10-10,0232_eid_dnn_32-10-10_boat_10_n02951358_8346.png,n02951358_8346.png,0.0,-0.5133268,1.7320765,-1.58774
alexnet_w3_mlp_simclrhn_probe3,1,233,NaN,bear,elephant,16-10-10,0233_eid_dnn_16-10-10_elephant_10_n02504013_1088.png,n02504013_1088.png,0.0,1.7701701,2.2705672,-0.35383418
alexnet_w3_mlp_simclrhn_probe3,1,234,NaN,car,car,8-10-10,0234_eid_dnn_8-10-10_car_10_n03100240_11191.png,n03100240_11191.png,1.0,0.8240455,0.766043,0.04101394
alexnet_w3_mlp_simclrhn_probe3,1,235,NaN,oven,chair,8-10-10,0235_eid_dnn_8-10-10_chair_10_n04099969_19966.png,n04099969_19966.png,0.0,0.60760236,1.2159858,-0.43019205
alexnet_w3_mlp_simclrhn_probe3,1,236,NaN,oven,bicycle,32-10-10,0236_eid_dnn_32-10-10_bicycle_10_n03792782_15016.png,n03792782_15016.png,0.0,-0.18458745,1.302886,-1.0518026
alexnet_w3_mlp_simclrhn_probe3,1,237,NaN,oven,boat,128-10-10,0237_eid_dnn_128-10-10_boat_10_n02951358_17867.png,n02951358_17867.png,0.0,-0.080038965,0.5128521,-0.4192373
alexnet_w3_mlp_simclrhn_probe3,1,238,NaN,cat,cat,2-10-10,0238_eid_dnn_2-10-10_cat_10_n02123045_2364.png,n02123045_2364.png,1.0,5.4211335,0.91081977,3.1892736
alexnet_w3_mlp_simclrhn_probe3,1,239,NaN,bear,bear,2-10-10,0239_eid_dnn_2-10-10_bear_10_n02132136_9433.png,n02132136_9433.png,1.0,3.7364583,1.5541699,1.543111
alexnet_w3_mlp_simclrhn_probe3,1,240,NaN,oven,clock,32-10-10,0240_eid_dnn_32-10-10_clock_10_n03196217_3167.png,n03196217_3167.png,0.0,0.09835839,1.1858771,-0.7689918
alexnet_w3_mlp_simclrhn_probe3,1,241,NaN,oven,clock,32-10-10,0241_eid_dnn_32-10-10_clock_10_n03196217_3129.png,n03196217_3129.png,0.0,0.13718511,0.7045829,-0.40121087
alexnet_w3_mlp_simclrhn_probe3,1,242,NaN,oven,keyboard,128-10-10,0242_eid_dnn_128-10-10_keyboard_10_n03085013_6067.png,n03085013_6067.png,0.0,-0.12141059,0.27162036,-0.27791485
alexnet_w3_mlp_simclrhn_probe3,1,243,NaN,keyboard,keyboard,2-10-10,0243_eid_dnn_2-10-10_keyboard_10_n03085013_24648.png,n03085013_24648.png,1.0,4.0134373,1.3585205,1.8773097
alexnet_w3_mlp_simclrhn_probe3,1,244,NaN,oven,oven,32-10-10,0244_eid_dnn_32-10-10_oven_10_n04111531_6695.png,n04111531_6695.png,1.0,1.4383328,0.8678572,0.40338716
alexnet_w3_mlp_simclrhn_probe3,1,245,NaN,dog,dog,4-10-10,0245_eid_dnn_4-10-10_dog_10_n02111500_4875.png,n02111500_4875.png,1.0,0.5970434,0.4906584,0.075225554
alexnet_w3_mlp_simclrhn_probe3,1,246,NaN,oven,oven,32-10-10,0246_eid_dnn_32-10-10_oven_10_n04111531_13018.png,n04111531_13018.png,1.0,1.0037551,0.2269018,0.54931825
alexnet_w3_mlp_simclrhn_probe3,1,247,NaN,oven,keyboard,128-10-10,0247_eid_dnn_128-10-10_keyboard_10_n03085013_23030.png,n03085013_23030.png,0.0,0.048809268,1.0502956,-0.7081578
alexnet_w3_mlp_simclrhn_probe3,1,248,NaN,dog,cat,8-10-10,0248_eid_dnn_8-10-10_cat_10_n02123045_8409.png,n02123045_8409.png,0.0,-0.018017033,0.54735017,-0.399775
alexnet_w3_mlp_simclrhn_probe3,1,249,NaN,bicycle,bicycle,4-10-10,0249_eid_dnn_4-10-10_bicycle_10_n03792782_37777.png,n03792782_37777.png,1.0,4.819921,0.32167697,3.1807392
alexnet_w3_mlp_simclrhn_probe3,1,250,NaN,bear,airplane,64-10-10,0250_eid_dnn_64-10-10_airplane_10_n02690373_614.png,n02690373_614.png,0.0,0.40440384,1.0248328,-0.4387096
alexnet_w3_mlp_simclrhn_probe3,1,251,NaN,oven,keyboard,128-10-10,0251_eid_dnn_128-10-10_keyboard_10_n03085013_19775.png,n03085013_19775.png,0.0,0.025402598,1.1247674,-0.77736837
alexnet_w3_mlp_simclrhn_probe3,1,252,NaN,bear,bear,8-10-10,0252_eid_dnn_8-10-10_bear_10_n02133161_1244.png,n02133161_1244.png,1.0,3.7417164,1.8401434,1.3446151
alexnet_w3_mlp_simclrhn_probe3,1,253,NaN,car,keyboard,2-10-10,0253_eid_dnn_2-10-10_keyboard_10_n04505470_4368.png,n04505470_4368.png,0.0,1.9687531,4.4514756,-1.7555499
alexnet_w3_mlp_simclrhn_probe3,1,254,NaN,oven,oven,2-10-10,0254_eid_dnn_2-10-10_oven_10_n04111531_7728.png,n04111531_7728.png,1.0,5.0732007,1.3066324,2.6633658
alexnet_w3_mlp_simclrhn_probe3,1,255,NaN,oven,clock,8-10-10,0255_eid_dnn_8-10-10_clock_10_n04548280_1.png,n04548280_1.png,0.0,0.17562175,1.8772552,-1.2032366
alexnet_w3_mlp_simclrhn_probe3,1,256,NaN,oven,cat,64-10-10,0256_eid_dnn_64-10-10_cat_10_n02123394_3062.png,n02123394_3062.png,0.0,0.033397466,1.1031133,-0.7564033
alexnet_w3_mlp_simclrhn_probe3,1,257,NaN,elephant,elephant,2-10-10,0257_eid_dnn_2-10-10_elephant_10_n02504013_466.png,n02504013_466.png,1.0,7.5734787,1.7689214,4.104442
alexnet_w3_mlp_simclrhn_probe3,1,258,NaN,elephant,elephant,1-10-10,0258_eid_dnn_1-10-10_elephant_10_n02504013_6275.png,n02504013_6275.png,1.0,7.3918715,2.2849822,3.6111162
alexnet_w3_mlp_simclrhn_probe3,1,259,NaN,bird,bird,4-10-10,0259_eid_dnn_4-10-10_bird_10_n01560419_5466.png,n01560419_5466.png,1.0,1.3841422,0.054514,0.94018906
alexnet_w3_mlp_simclrhn_probe3,1,260,NaN,oven,truck,8-10-10,0260_eid_dnn_8-10-10_truck_10_n03796401_5227.png,n03796401_5227.png,0.0,-0.4213991,1.0671374,-1.0525542
alexnet_w3_mlp_simclrhn_probe3,1,261,NaN,chair,chair,2-10-10,0261_eid_dnn_2-10-10_chair_10_n04099969_25124.png,n04099969_25124.png,1.0,2.906245,2.2161858,0.48794553
alexnet_w3_mlp_simclrhn_probe3,1,262,NaN,bear,elephant,64-10-10,0262_eid_dnn_64-10-10_elephant_10_n02504013_7209.png,n02504013_7209.png,0.0,0.32102773,0.43511486,-0.08067179
alexnet_w3_mlp_simclrhn_probe3,1,263,NaN,cat,cat,1-10-10,0263_eid_dnn_1-10-10_cat_10_n02123597_4756.png,n02123597_4756.png,1.0,2.3346078,1.5687172,0.54156643
alexnet_w3_mlp_simclrhn_probe3,1,264,NaN,clock,bicycle,16-10-10,0264_eid_dnn_16-10-10_bicycle_10_n02835271_4654.png,n02835271_4654.png,0.0,-0.10359602,0.23790549,-0.24147804
alexnet_w3_mlp_simclrhn_probe3,1,265,NaN,keyboard,keyboard,1-10-10,0265_eid_dnn_1-10-10_keyboard_10_n04505470_2389.png,n04505470_2389.png,1.0,5.81413,3.5435343,1.6055535
alexnet_w3_mlp_simclrhn_probe3,1,266,NaN,oven,knife,128-10-10,0266_eid_dnn_128-10-10_knife_10_n03041632_379.png,n03041632_379.png,0.0,0.0980193,0.75161374,-0.46216106
alexnet_w3_mlp_simclrhn_probe3,1,267,NaN,bicycle,clock,8-10-10,0267_eid_dnn_8-10-10_clock_10_n02708093_899.png,n02708093_899.png,0.0,0.11878928,0.46203387,-0.24271058
alexnet_w3_mlp_simclrhn_probe3,1,268,NaN,oven,truck,128-10-10,0268_eid_dnn_128-10-10_truck_10_n03417042_10154.png,n03417042_10154.png,0.0,-0.22688295,1.5315298,-1.2433856
alexnet_w3_mlp_simclrhn_probe3,1,269,NaN,bottle,bottle,2-10-10,0269_eid_dnn_2-10-10_bottle_10_n04579145_3415.png,n04579145_3415.png,1.0,1.5051106,0.24363099,0.8920008
alexnet_w3_mlp_simclrhn_probe3,1,270,NaN,bear,chair,16-10-10,0270_eid_dnn_16-10-10_chair_10_n02791124_146.png,n02791124_146.png,0.0,-0.42685723,1.449836,-1.3270226
alexnet_w3_mlp_simclrhn_probe3,1,271,NaN,oven,elephant,128-10-10,0271_eid_dnn_128-10-10_elephant_10_n02504458_2835.png,n02504458_2835.png,0.0,0.1764319,1.095672,-0.65000093
alexnet_w3_mlp_simclrhn_probe3,1,272,NaN,bicycle,bicycle,1-10-10,0272_eid_dnn_1-10-10_bicycle_10_n03792782_13835.png,n03792782_13835.png,1.0,3.377517,0.8317032,1.8001622
alexnet_w3_mlp_simclrhn_probe3,1,273,NaN,oven,bicycle,32-10-10,0273_eid_dnn_32-10-10_bicycle_10_n02835271_12926.png,n02835271_12926.png,0.0,0.21606281,1.3440351,-0.79759693
alexnet_w3_mlp_simclrhn_probe3,1,274,NaN,dog,dog,2-10-10,0274_eid_dnn_2-10-10_dog_10_n02110185_11605.png,n02110185_11605.png,1.0,0.84177864,0.1778394,0.46947595
alexnet_w3_mlp_simclrhn_probe3,1,275,NaN,bear,elephant,128-10-10,0275_eid_dnn_128-10-10_elephant_10_n02504458_3091.png,n02504458_3091.png,0.0,0.5247434,1.025966,-0.35441795
alexnet_w3_mlp_simclrhn_probe3,1,276,NaN,bear,chair,128-10-10,0276_eid_dnn_128-10-10_chair_10_n04099969_5233.png,n04099969_5233.png,0.0,0.058239974,1.1495631,-0.771682
alexnet_w3_mlp_simclrhn_probe3,1,277,NaN,dog,dog,2-10-10,0277_eid_dnn_2-10-10_dog_10_n02097209_7628.png,n02097209_7628.png,1.0,1.4635413,1.2662504,0.13950573
alexnet_w3_mlp_simclrhn_probe3,1,278,NaN,bear,cat,8-10-10,0278_eid_dnn_8-10-10_cat_10_n02123597_10941.png,n02123597_10941.png,0.0,0.80888623,0.89671695,-0.0621057
alexnet_w3_mlp_simclrhn_probe3,1,279,NaN,clock,clock,16-10-10,0279_eid_dnn_16-10-10_clock_10_n02708093_3006.png,n02708093_3006.png,1.0,0.46977696,0.44030452,0.020840162
alexnet_w3_mlp_simclrhn_probe3,1,280,NaN,truck,truck,1-10-10,0280_eid_dnn_1-10-10_truck_10_n03796401_26620.png,n03796401_26620.png,1.0,1.0694731,0.70915353,0.25478444
alexnet_w3_mlp_simclrhn_probe3,1,281,NaN,oven,bear,128-10-10,0281_eid_dnn_128-10-10_bear_10_n02134418_12733.png,n02134418_12733.png,0.0,1.2290257,1.4379795,-0.14775261
alexnet_w3_mlp_simclrhn_probe3,1,282,NaN,knife,knife,2-10-10,0282_eid_dnn_2-10-10_knife_10_n03041632_4806.png,n03041632_4806.png,1.0,0.90130067,0.28554618,0.43540418
alexnet_w3_mlp_simclrhn_probe3,1,283,NaN,oven,oven,4-10-10,0283_eid_dnn_4-10-10_oven_10_n04111531_17922.png,n04111531_17922.png,1.0,5.0081134,1.0945551,2.7673037
alexnet_w3_mlp_simclrhn_probe3,1,284,NaN,bottle,bottle,1-10-10,0284_eid_dnn_1-10-10_bottle_10_n04579145_6818.png,n04579145_6818.png,1.0,3.5464063,0.16955948,2.3877914
alexnet_w3_mlp_simclrhn_probe3,1,285,NaN,keyboard,keyboard,4-10-10,0285_eid_dnn_4-10-10_keyboard_10_n04505470_494.png,n04505470_494.png,1.0,3.4039786,1.0171305,1.6877564
alexnet_w3_mlp_simclrhn_probe3,1,286,NaN,cat,cat,8-10-10,0286_eid_dnn_8-10-10_cat_10_n02123045_10834.png,n02123045_10834.png,1.0,2.7135725,1.3617917,0.95585334
alexnet_w3_mlp_simclrhn_probe3,1,287,NaN,oven,cat,128-10-10,0287_eid_dnn_128-10-10_cat_10_n02123394_176.png,n02123394_176.png,0.0,0.68479174,0.9330175,-0.17552212
alexnet_w3_mlp_simclrhn_probe3,1,288,NaN,oven,chair,128-10-10,0288_eid_dnn_128-10-10_chair_10_n03376595_2891.png,n03376595_2891.png,0.0,0.039305553,1.0224271,-0.6951719
alexnet_w3_mlp_simclrhn_probe3,1,289,NaN,bear,dog,8-10-10,0289_eid_dnn_8-10-10_dog_10_n02093256_5647.png,n02093256_5647.png,0.0,1.6845303,2.2690072,-0.4132876
alexnet_w3_mlp_simclrhn_probe3,1,290,NaN,oven,knife,64-10-10,0290_eid_dnn_64-10-10_knife_10_n03041632_33326.png,n03041632_33326.png,0.0,0.11584498,1.1065784,-0.7005543
alexnet_w3_mlp_simclrhn_probe3,1,291,NaN,oven,airplane,8-10-10,0291_eid_dnn_8-10-10_airplane_10_n02690373_2856.png,n02690373_2856.png,0.0,-1.0370781,1.1682181,-1.5593799
alexnet_w3_mlp_simclrhn_probe3,1,292,NaN,oven,bicycle,128-10-10,0292_eid_dnn_128-10-10_bicycle_10_n03792782_9651.png,n03792782_9651.png,0.0,0.098063804,0.94894195,-0.6016617
alexnet_w3_mlp_simclrhn_probe3,1,293,NaN,bicycle,bicycle,2-10-10,0293_eid_dnn_2-10-10_bicycle_10_n02835271_7438.png,n02835271_7438.png,1.0,4.645087,0.7084967,2.7835896
alexnet_w3_mlp_simclrhn_probe3,1,294,NaN,oven,bicycle,128-10-10,0294_eid_dnn_128-10-10_bicycle_10_n02835271_26639.png,n02835271_26639.png,0.0,0.46227875,1.1691236,-0.49981484
alexnet_w3_mlp_simclrhn_probe3,1,295,NaN,keyboard,keyboard,8-10-10,0295_eid_dnn_8-10-10_keyboard_10_n04505470_4458.png,n04505470_4458.png,1.0,3.487163,0.7252097,1.952996
alexnet_w3_mlp_simclrhn_probe3,1,296,NaN,oven,dog,64-10-10,0296_eid_dnn_64-10-10_dog_10_n02106662_24847.png,n02106662_24847.png,0.0,-0.06524806,1.2443659,-0.9260369
alexnet_w3_mlp_simclrhn_probe3,1,297,NaN,oven,chair,32-10-10,0297_eid_dnn_32-10-10_chair_10_n03376595_8995.png,n03376595_8995.png,0.0,-0.0051840395,1.2594815,-0.8942536
alexnet_w3_mlp_simclrhn_probe3,1,298,NaN,oven,bicycle,64-10-10,0298_eid_dnn_64-10-10_bicycle_10_n03792782_6030.png,n03792782_6030.png,0.0,0.32307655,0.6900934,-0.2595201
alexnet_w3_mlp_simclrhn_probe3,1,299,NaN,elephant,elephant,4-10-10,0299_eid_dnn_4-10-10_elephant_10_n02504458_7258.png,n02504458_7258.png,1.0,3.735973,2.0486896,1.1930895
alexnet_w3_mlp_simclrhn_probe3,1,300,NaN,oven,boat,128-10-10,0300_eid_dnn_128-10-10_boat_10_n03662601_23903.png,n03662601_23903.png,0.0,0.006947607,0.83676374,-0.5867686
alexnet_w3_mlp_simclrhn_probe3,1,301,NaN,oven,bird,16-10-10,0301_eid_dnn_16-10-10_bird_10_n02002724_578.png,n02002724_578.png,0.0,-0.3316157,0.8583124,-0.8414062
alexnet_w3_mlp_simclrhn_probe3,1,302,NaN,bear,chair,64-10-10,0302_eid_dnn_64-10-10_chair_10_n03376595_2393.png,n03376595_2393.png,0.0,-0.008538857,0.5230323,-0.37587756
alexnet_w3_mlp_simclrhn_probe3,1,303,NaN,airplane,boat,16-10-10,0303_eid_dnn_16-10-10_boat_10_n03662601_5118.png,n03662601_5118.png,0.0,0.1992465,0.4170866,-0.15403622
alexnet_w3_mlp_simclrhn_probe3,1,304,NaN,oven,chair,8-10-10,0304_eid_dnn_8-10-10_chair_10_n04429376_21845.png,n04429376_21845.png,0.0,0.06737243,1.489166,-1.0053599
alexnet_w3_mlp_simclrhn_probe3,1,305,NaN,bear,dog,8-10-10,0305_eid_dnn_8-10-10_dog_10_n02102040_2216.png,n02102040_2216.png,0.0,0.21771812,0.47269776,-0.18029784
alexnet_w3_mlp_simclrhn_probe3,1,306,NaN,elephant,airplane,8-10-10,0306_eid_dnn_8-10-10_airplane_10_n02690373_3032.png,n02690373_3032.png,0.0,0.4542261,1.1195686,-0.47046816
alexnet_w3_mlp_simclrhn_probe3,1,307,NaN,bear,dog,8-10-10,0307_eid_dnn_8-10-10_dog_10_n02100735_2228.png,n02100735_2228.png,0.0,0.46042487,1.0816295,-0.439258
alexnet_w3_mlp_simclrhn_probe3,1,308,NaN,bird,bird,8-10-10,0308_eid_dnn_8-10-10_bird_10_n01532829_13864.png,n01532829_13864.png,1.0,1.3086995,0.79253346,0.3649845
alexnet_w3_mlp_simclrhn_probe3,1,309,NaN,oven,bird,64-10-10,0309_eid_dnn_64-10-10_bird_10_n01601694_13787.png,n01601694_13787.png,0.0,-0.31196564,0.6379268,-0.6716754
alexnet_w3_mlp_simclrhn_probe3,1,310,NaN,bear,bear,64-10-10,0310_eid_dnn_64-10-10_bear_10_n02134084_22150.png,n02134084_22150.png,1.0,1.0582346,0.8529767,0.14513925
alexnet_w3_mlp_simclrhn_probe3,1,311,NaN,oven,knife,16-10-10,0311_eid_dnn_16-10-10_knife_10_n03041632_29427.png,n03041632_29427.png,0.0,0.25280812,1.6326622,-0.9757042
alexnet_w3_mlp_simclrhn_probe3,1,312,NaN,oven,chair,4-10-10,0312_eid_dnn_4-10-10_chair_10_n02791124_2804.png,n02791124_2804.png,0.0,0.3715014,2.151391,-1.258572
alexnet_w3_mlp_simclrhn_probe3,1,313,NaN,bottle,bottle,4-10-10,0313_eid_dnn_4-10-10_bottle_10_n04591713_5046.png,n04591713_5046.png,1.0,5.4089017,3.7813692,1.1508393
alexnet_w3_mlp_simclrhn_probe3,1,314,NaN,oven,bicycle,128-10-10,0314_eid_dnn_128-10-10_bicycle_10_n03792782_4210.png,n03792782_4210.png,0.0,0.37713462,0.7936597,-0.2945277
alexnet_w3_mlp_simclrhn_probe3,1,315,NaN,oven,cat,128-10-10,0315_eid_dnn_128-10-10_cat_10_n02123159_1596.png,n02123159_1596.png,0.0,0.41421238,1.04235,-0.44416043
alexnet_w3_mlp_simclrhn_probe3,1,316,NaN,airplane,car,2-10-10,0316_eid_dnn_2-10-10_car_10_n03100240_17588.png,n03100240_17588.png,0.0,3.4783218,3.701416,-0.15775144
alexnet_w3_mlp_simclrhn_probe3,1,317,NaN,dog,keyboard,4-10-10,0317_eid_dnn_4-10-10_keyboard_10_n03085013_23295.png,n03085013_23295.png,0.0,-0.23653463,2.1068225,-1.6570038
alexnet_w3_mlp_simclrhn_probe3,1,318,NaN,oven,oven,32-10-10,0318_eid_dnn_32-10-10_oven_10_n04111531_4879.png,n04111531_4879.png,1.0,1.3700202,0.6417409,0.5149712
alexnet_w3_mlp_simclrhn_probe3,1,319,NaN,oven,keyboard,32-10-10,0319_eid_dnn_32-10-10_keyboard_10_n04505470_4569.png,n04505470_4569.png,0.0,-0.0044092536,1.9878588,-1.4087462
alexnet_w3_mlp_simclrhn_probe3,1,320,NaN,oven,truck,8-10-10,0320_eid_dnn_8-10-10_truck_10_n04467665_24190.png,n04467665_24190.png,0.0,-0.20046018,1.204032,-0.9931259
alexnet_w3_mlp_simclrhn_probe3,1,321,NaN,oven,cat,4-10-10,0321_eid_dnn_4-10-10_cat_10_n02124075_15405.png,n02124075_15405.png,0.0,1.2123482,1.7391132,-0.3724791
alexnet_w3_mlp_simclrhn_probe3,1,322,NaN,knife,knife,8-10-10,0322_eid_dnn_8-10-10_knife_10_n03041632_24817.png,n03041632_24817.png,1.0,0.50236833,0.4428217,0.04210582
alexnet_w3_mlp_simclrhn_probe3,1,323,NaN,oven,elephant,64-10-10,0323_eid_dnn_64-10-10_elephant_10_n02504013_5505.png,n02504013_5505.png,0.0,0.31118327,0.9866616,-0.47763532
alexnet_w3_mlp_simclrhn_probe3,1,324,NaN,elephant,airplane,8-10-10,0324_eid_dnn_8-10-10_airplane_10_n02690373_8846.png,n02690373_8846.png,0.0,0.54908746,0.550202,-0.0007881039
alexnet_w3_mlp_simclrhn_probe3,1,325,NaN,oven,truck,32-10-10,0325_eid_dnn_32-10-10_truck_10_n04467665_50806.png,n04467665_50806.png,0.0,0.0617915,0.60500056,-0.3841068
alexnet_w3_mlp_simclrhn_probe3,1,326,NaN,elephant,elephant,4-10-10,0326_eid_dnn_4-10-10_elephant_10_n02504458_5539.png,n02504458_5539.png,1.0,10.761342,3.6490977,5.0291166
alexnet_w3_mlp_simclrhn_probe3,1,327,NaN,boat,boat,1-10-10,0327_eid_dnn_1-10-10_boat_10_n03344393_1178.png,n03344393_1178.png,1.0,3.7238991,2.0618703,1.1752318
alexnet_w3_mlp_simclrhn_probe3,1,328,NaN,truck,truck,4-10-10,0328_eid_dnn_4-10-10_truck_10_n04467665_10025.png,n04467665_10025.png,1.0,6.85415,1.4733596,3.8047934
alexnet_w3_mlp_simclrhn_probe3,1,329,NaN,clock,clock,4-10-10,0329_eid_dnn_4-10-10_clock_10_n02708093_2869.png,n02708093_2869.png,1.0,1.5184488,0.39837322,0.79201305
alexnet_w3_mlp_simclrhn_probe3,1,330,NaN,oven,bottle,8-10-10,0330_eid_dnn_8-10-10_bottle_10_n03983396_4879.png,n03983396_4879.png,0.0,0.8745361,0.9166727,-0.029795082
alexnet_w3_mlp_simclrhn_probe3,1,331,NaN,oven,keyboard,128-10-10,0331_eid_dnn_128-10-10_keyboard_10_n03085013_10367.png,n03085013_10367.png,0.0,-0.074611165,0.6350727,-0.5018223
alexnet_w3_mlp_simclrhn_probe3,1,332,NaN,oven,bird,64-10-10,0332_eid_dnn_64-10-10_bird_10_n01860187_21300.png,n01860187_21300.png,0.0,-0.30695742,0.8981548,-0.85214305
alexnet_w3_mlp_simclrhn_probe3,1,333,NaN,oven,knife,32-10-10,0333_eid_dnn_32-10-10_knife_10_n03041632_5302.png,n03041632_5302.png,0.0,0.02975756,0.768227,-0.52217674
alexnet_w3_mlp_simclrhn_probe3,1,334,NaN,bear,bear,4-10-10,0334_eid_dnn_4-10-10_bear_10_n02134084_5274.png,n02134084_5274.png,1.0,2.9655876,1.999629,0.6830359
alexnet_w3_mlp_simclrhn_probe3,1,335,NaN,bird,knife,4-10-10,0335_eid_dnn_4-10-10_knife_10_n03041632_48816.png,n03041632_48816.png,0.0,0.2101909,0.48561075,-0.19475123
alexnet_w3_mlp_simclrhn_probe3,1,336,NaN,oven,elephant,16-10-10,0336_eid_dnn_16-10-10_elephant_10_n02504013_3295.png,n02504013_3295.png,0.0,-0.058843665,0.977602,-0.73287773
alexnet_w3_mlp_simclrhn_probe3,1,337,NaN,oven,truck,128-10-10,0337_eid_dnn_128-10-10_truck_10_n03417042_2478.png,n03417042_2478.png,0.0,-0.27008522,0.8704033,-0.80644715
alexnet_w3_mlp_simclrhn_probe3,1,338,NaN,oven,oven,32-10-10,0338_eid_dnn_32-10-10_oven_10_n04111531_5350.png,n04111531_5350.png,1.0,1.2646904,0.9781536,0.20261213
alexnet_w3_mlp_simclrhn_probe3,1,339,NaN,oven,airplane,8-10-10,0339_eid_dnn_8-10-10_airplane_10_n02690373_1663.png,n02690373_1663.png,0.0,-0.46787965,0.65133834,-0.79140663
alexnet_w3_mlp_simclrhn_probe3,1,340,NaN,boat,boat,4-10-10,0340_eid_dnn_4-10-10_boat_10_n03344393_1422.png,n03344393_1422.png,1.0,2.2194176,0.9175974,0.92052585
alexnet_w3_mlp_simclrhn_probe3,1,341,NaN,bear,cat,32-10-10,0341_eid_dnn_32-10-10_cat_10_n02123159_3312.png,n02123159_3312.png,0.0,0.5756953,0.83683825,-0.18465596
alexnet_w3_mlp_simclrhn_probe3,1,342,NaN,bear,chair,64-10-10,0342_eid_dnn_64-10-10_chair_10_n03376595_6171.png,n03376595_6171.png,0.0,-0.17029567,1.1437327,-0.9291584
alexnet_w3_mlp_simclrhn_probe3,1,343,NaN,bottle,bottle,8-10-10,0343_eid_dnn_8-10-10_bottle_10_n04591713_1616.png,n04591713_1616.png,1.0,1.0771103,0.58940184,0.34486195
alexnet_w3_mlp_simclrhn_probe3,1,344,NaN,bear,bear,128-10-10,0344_eid_dnn_128-10-10_bear_10_n02133161_1197.png,n02133161_1197.png,1.0,0.82652926,0.67806566,0.10497963
alexnet_w3_mlp_simclrhn_probe3,1,345,NaN,oven,truck,4-10-10,0345_eid_dnn_4-10-10_truck_10_n04467665_663.png,n04467665_663.png,0.0,-0.21719304,3.02832,-2.2949245
alexnet_w3_mlp_simclrhn_probe3,1,346,NaN,bear,bear,4-10-10,0346_eid_dnn_4-10-10_bear_10_n02132136_2771.png,n02132136_2771.png,1.0,4.003964,0.7951112,2.2690015
alexnet_w3_mlp_simclrhn_probe3,1,347,NaN,oven,cat,16-10-10,0347_eid_dnn_16-10-10_cat_10_n02123394_12.png,n02123394_12.png,0.0,0.11865511,0.84086335,-0.51067835
alexnet_w3_mlp_simclrhn_probe3,1,348,NaN,bear,car,8-10-10,0348_eid_dnn_8-10-10_car_10_n04285008_1795.png,n04285008_1795.png,0.0,-0.5646758,0.6461787,-0.85620344
alexnet_w3_mlp_simclrhn_probe3,1,349,NaN,bear,boat,4-10-10,0349_eid_dnn_4-10-10_boat_10_n04273569_1023.png,n04273569_1023.png,0.0,0.7792524,0.9202474,-0.0996985
alexnet_w3_mlp_simclrhn_probe3,1,350,NaN,boat,boat,1-10-10,0350_eid_dnn_1-10-10_boat_10_n03662601_21775.png,n03662601_21775.png,1.0,7.272574,2.8979466,3.0933285
alexnet_w3_mlp_simclrhn_probe3,1,351,NaN,knife,clock,1-10-10,0351_eid_dnn_1-10-10_clock_10_n03196217_71.png,n03196217_71.png,0.0,1.3507217,1.7783446,-0.30237508
alexnet_w3_mlp_simclrhn_probe3,1,352,NaN,bottle,keyboard,4-10-10,0352_eid_dnn_4-10-10_keyboard_10_n04505470_3122.png,n04505470_3122.png,0.0,0.32018274,0.5036139,-0.12970541
alexnet_w3_mlp_simclrhn_probe3,1,353,NaN,oven,dog,32-10-10,0353_eid_dnn_32-10-10_dog_10_n02099849_4640.png,n02099849_4640.png,0.0,0.037746284,1.0385296,-0.7076607
alexnet_w3_mlp_simclrhn_probe3,1,354,NaN,bear,bottle,64-10-10,0354_eid_dnn_64-10-10_bottle_10_n02823428_6418.png,n02823428_6418.png,0.0,0.09238926,1.0059772,-0.6460042
alexnet_w3_mlp_simclrhn_probe3,1,355,NaN,oven,car,8-10-10,0355_eid_dnn_8-10-10_car_10_n04285008_11704.png,n04285008_11704.png,0.0,-0.35407284,1.6361954,-1.4073322
alexnet_w3_mlp_simclrhn_probe3,1,356,NaN,oven,clock,32-10-10,0356_eid_dnn_32-10-10_clock_10_n02708093_3544.png,n02708093_3544.png,0.0,0.15231372,0.35531238,-0.14354172
alexnet_w3_mlp_simclrhn_probe3,1,357,NaN,oven,clock,8-10-10,0357_eid_dnn_8-10-10_clock_10_n04548280_4599.png,n04548280_4599.png,0.0,-0.10237202,0.65203667,-0.5334475
alexnet_w3_mlp_simclrhn_probe3,1,358,NaN,oven,car,128-10-10,0358_eid_dnn_128-10-10_car_10_n03100240_6259.png,n03100240_6259.png,0.0,-0.319554,1.4342738,-1.2401435
alexnet_w3_mlp_simclrhn_probe3,1,359,NaN,boat,boat,8-10-10,0359_eid_dnn_8-10-10_boat_10_n04273569_3401.png,n04273569_3401.png,1.0,0.50398135,0.40587243,0.06937348
alexnet_w3_mlp_simclrhn_probe3,1,360,NaN,bear,truck,64-10-10,0360_eid_dnn_64-10-10_truck_10_n04467665_13898.png,n04467665_13898.png,0.0,-0.1657302,1.0503182,-0.85987616
alexnet_w3_mlp_simclrhn_probe3,1,361,NaN,keyboard,clock,2-10-10,0361_eid_dnn_2-10-10_clock_10_n03196217_1499.png,n03196217_1499.png,0.0,1.0178401,1.6254592,-0.42965156
alexnet_w3_mlp_simclrhn_probe3,1,362,NaN,car,car,4-10-10,0362_eid_dnn_4-10-10_car_10_n03100240_8702.png,n03100240_8702.png,1.0,0.9115608,0.8632393,0.034168452
alexnet_w3_mlp_simclrhn_probe3,1,363,NaN,bear,bear,4-10-10,0363_eid_dnn_4-10-10_bear_10_n02134418_1770.png,n02134418_1770.png,1.0,3.081562,0.66662174,1.7076207
alexnet_w3_mlp_simclrhn_probe3,1,364,NaN,bear,bear,16-10-10,0364_eid_dnn_16-10-10_bear_10_n02132136_32838.png,n02132136_32838.png,1.0,2.002797,0.9855639,0.7192924
alexnet_w3_mlp_simclrhn_probe3,1,365,NaN,airplane,truck,4-10-10,0365_eid_dnn_4-10-10_truck_10_n04467665_68331.png,n04467665_68331.png,0.0,0.12077068,0.70672894,-0.41433504
alexnet_w3_mlp_simclrhn_probe3,1,366,NaN,airplane,airplane,1-10-10,0366_eid_dnn_1-10-10_airplane_10_n02690373_4506.png,n02690373_4506.png,1.0,8.731718,0.7572478,5.638802
alexnet_w3_mlp_simclrhn_probe3,1,367,NaN,car,car,2-10-10,0367_eid_dnn_2-10-10_car_10_n03100240_5308.png,n03100240_5308.png,1.0,4.1069417,1.3788061,1.9290832
alexnet_w3_mlp_simclrhn_probe3,1,368,NaN,cat,cat,2-10-10,0368_eid_dnn_2-10-10_cat_10_n02124075_15345.png,n02124075_15345.png,1.0,0.9180958,0.51561904,0.28459406
alexnet_w3_mlp_simclrhn_probe3,1,369,NaN,oven,bicycle,128-10-10,0369_eid_dnn_128-10-10_bicycle_10_n03792782_50972.png,n03792782_50972.png,0.0,0.3527265,0.80369943,-0.31888604
alexnet_w3_mlp_simclrhn_probe3,1,370,NaN,oven,knife,8-10-10,0370_eid_dnn_8-10-10_knife_10_n03041632_19098.png,n03041632_19098.png,0.0,0.21305731,0.6274992,-0.2930547
alexnet_w3_mlp_simclrhn_probe3,1,371,NaN,bear,bottle,128-10-10,0371_eid_dnn_128-10-10_bottle_10_n04560804_15963.png,n04560804_15963.png,0.0,0.08585126,1.2196623,-0.80172545
alexnet_w3_mlp_simclrhn_probe3,1,372,NaN,oven,bottle,8-10-10,0372_eid_dnn_8-10-10_bottle_10_n04557648_7809.png,n04557648_7809.png,0.0,-0.15738918,1.1360447,-0.9145959
alexnet_w3_mlp_simclrhn_probe3,1,373,NaN,airplane,airplane,1-10-10,0373_eid_dnn_1-10-10_airplane_10_n02690373_17764.png,n02690373_17764.png,1.0,5.824752,0.89482147,3.4859872
alexnet_w3_mlp_simclrhn_probe3,1,374,NaN,oven,elephant,64-10-10,0374_eid_dnn_64-10-10_elephant_10_n02504013_7322.png,n02504013_7322.png,0.0,0.37969297,1.7665825,-0.980679
alexnet_w3_mlp_simclrhn_probe3,1,375,NaN,elephant,bear,2-10-10,0375_eid_dnn_2-10-10_bear_10_n02134084_2959.png,n02134084_2959.png,0.0,0.6158319,0.95356584,-0.23881395
alexnet_w3_mlp_simclrhn_probe3,1,376,NaN,bird,bird,2-10-10,0376_eid_dnn_2-10-10_bird_10_n01622779_6563.png,n01622779_6563.png,1.0,1.1853273,0.3184617,0.6129666
alexnet_w3_mlp_simclrhn_probe3,1,377,NaN,oven,knife,16-10-10,0377_eid_dnn_16-10-10_knife_10_n03041632_19620.png,n03041632_19620.png,0.0,0.43804494,0.82811075,-0.2758182
alexnet_w3_mlp_simclrhn_probe3,1,378,NaN,bird,bird,4-10-10,0378_eid_dnn_4-10-10_bird_10_n01530575_35977.png,n01530575_35977.png,1.0,0.8642766,0.41700268,0.3162704
alexnet_w3_mlp_simclrhn_probe3,1,379,NaN,oven,cat,128-10-10,0379_eid_dnn_128-10-10_cat_10_n02123394_1757.png,n02123394_1757.png,0.0,-0.055293053,0.9866026,-0.73673147
alexnet_w3_mlp_simclrhn_probe3,1,380,NaN,oven,dog,2-10-10,0380_eid_dnn_2-10-10_dog_10_n02093647_6358.png,n02093647_6358.png,0.0,-0.1535477,0.6880482,-0.5950982
alexnet_w3_mlp_simclrhn_probe3,1,381,NaN,boat,boat,1-10-10,0381_eid_dnn_1-10-10_boat_10_n02951358_1470.png,n02951358_1470.png,1.0,4.263589,1.9173499,1.6590416
alexnet_w3_mlp_simclrhn_probe3,1,382,NaN,oven,elephant,128-10-10,0382_eid_dnn_128-10-10_elephant_10_n02504458_2026.png,n02504458_2026.png,0.0,0.18139786,0.52251464,-0.24120599
alexnet_w3_mlp_simclrhn_probe3,1,383,NaN,bear,elephant,32-10-10,0383_eid_dnn_32-10-10_elephant_10_n02504458_3730.png,n02504458_3730.png,0.0,0.63568014,0.90891767,-0.19320811
alexnet_w3_mlp_simclrhn_probe3,1,384,NaN,oven,keyboard,8-10-10,0384_eid_dnn_8-10-10_keyboard_10_n03085013_20881.png,n03085013_20881.png,0.0,0.31091052,1.186127,-0.61887145
alexnet_w3_mlp_simclrhn_probe3,1,385,NaN,dog,dog,4-10-10,0385_eid_dnn_4-10-10_dog_10_n02105641_8188.png,n02105641_8188.png,1.0,0.7036028,0.4389465,0.18714027
alexnet_w3_mlp_simclrhn_probe3,1,386,NaN,oven,clock,32-10-10,0386_eid_dnn_32-10-10_clock_10_n03196217_6320.png,n03196217_6320.png,0.0,0.23842962,0.941967,-0.49747607
alexnet_w3_mlp_simclrhn_probe3,1,387,NaN,oven,car,32-10-10,0387_eid_dnn_32-10-10_car_10_n04285008_12333.png,n04285008_12333.png,0.0,-0.4626782,1.4266266,-1.3359402
alexnet_w3_mlp_simclrhn_probe3,1,388,NaN,knife,knife,2-10-10,0388_eid_dnn_2-10-10_knife_10_n03041632_47743.png,n03041632_47743.png,1.0,1.2945912,1.0288928,0.18787716
alexnet_w3_mlp_simclrhn_probe3,1,389,NaN,boat,boat,8-10-10,0389_eid_dnn_8-10-10_boat_10_n04612504_8073.png,n04612504_8073.png,1.0,1.5253973,0.5886731,0.662364
alexnet_w3_mlp_simclrhn_probe3,1,390,NaN,oven,knife,128-10-10,0390_eid_dnn_128-10-10_knife_10_n03041632_20770.png,n03041632_20770.png,0.0,0.14492251,1.7316288,-1.1219708
alexnet_w3_mlp_simclrhn_probe3,1,391,NaN,oven,car,32-10-10,0391_eid_dnn_32-10-10_car_10_n02814533_28783.png,n02814533_28783.png,0.0,-0.5257217,1.6065445,-1.50774
alexnet_w3_mlp_simclrhn_probe3,1,392,NaN,bear,car,128-10-10,0392_eid_dnn_128-10-10_car_10_n02814533_13533.png,n02814533_13533.png,0.0,-0.29553166,1.114858,-0.9972961
alexnet_w3_mlp_simclrhn_probe3,1,393,NaN,bear,dog,16-10-10,0393_eid_dnn_16-10-10_dog_10_n02104029_8137.png,n02104029_8137.png,0.0,0.39896995,0.75887394,-0.25449055
alexnet_w3_mlp_simclrhn_probe3,1,394,NaN,bicycle,bicycle,4-10-10,0394_eid_dnn_4-10-10_bicycle_10_n02835271_3990.png,n02835271_3990.png,1.0,2.9618921,0.24886331,1.9184011
alexnet_w3_mlp_simclrhn_probe3,1,395,NaN,bear,bear,4-10-10,0395_eid_dnn_4-10-10_bear_10_n02132136_24311.png,n02132136_24311.png,1.0,2.6343071,1.2963542,0.9460756
alexnet_w3_mlp_simclrhn_probe3,1,396,NaN,truck,truck,2-10-10,0396_eid_dnn_2-10-10_truck_10_n03796401_6966.png,n03796401_6966.png,1.0,6.296445,3.4862535,1.9871054
alexnet_w3_mlp_simclrhn_probe3,1,397,NaN,knife,knife,1-10-10,0397_eid_dnn_1-10-10_knife_10_n03041632_8468.png,n03041632_8468.png,1.0,0.85532916,0.15542726,0.49490538
alexnet_w3_mlp_simclrhn_probe3,1,398,NaN,oven,elephant,128-10-10,0398_eid_dnn_128-10-10_elephant_10_n02504458_6799.png,n02504458_6799.png,0.0,0.44253254,0.47028667,-0.019625133
alexnet_w3_mlp_simclrhn_probe3,1,399,NaN,bird,keyboard,16-10-10,0399_eid_dnn_16-10-10_keyboard_10_n03085013_24402.png,n03085013_24402.png,0.0,-0.18858892,0.94504803,-0.80160236
alexnet_w3_mlp_simclrhn_probe3,1,400,NaN,bear,knife,16-10-10,0400_eid_dnn_16-10-10_knife_10_n03041632_25772.png,n03041632_25772.png,0.0,-0.015152343,0.6437124,-0.46588773
alexnet_w3_mlp_simclrhn_probe3,1,401,NaN,oven,elephant,32-10-10,0401_eid_dnn_32-10-10_elephant_10_n02504458_5839.png,n02504458_5839.png,0.0,0.4218034,0.9943622,-0.4048602
alexnet_w3_mlp_simclrhn_probe3,1,402,NaN,oven,elephant,64-10-10,0402_eid_dnn_64-10-10_elephant_10_n02504458_5178.png,n02504458_5178.png,0.0,0.22478709,1.0150533,-0.55880255
alexnet_w3_mlp_simclrhn_probe3,1,403,NaN,oven,bicycle,32-10-10,0403_eid_dnn_32-10-10_bicycle_10_n02835271_27014.png,n02835271_27014.png,0.0,-0.14839888,1.4252863,-1.1127635
alexnet_w3_mlp_simclrhn_probe3,1,404,NaN,oven,car,128-10-10,0404_eid_dnn_128-10-10_car_10_n04285008_15218.png,n04285008_15218.png,0.0,-0.4128027,0.8364266,-0.8833385
alexnet_w3_mlp_simclrhn_probe3,1,405,NaN,bicycle,bicycle,8-10-10,0405_eid_dnn_8-10-10_bicycle_10_n02835271_19955.png,n02835271_19955.png,1.0,1.1654391,0.4601493,0.49871525
alexnet_w3_mlp_simclrhn_probe3,1,406,NaN,truck,truck,1-10-10,0406_eid_dnn_1-10-10_truck_10_n03796401_874.png,n03796401_874.png,1.0,5.6198683,0.8581562,3.367039
alexnet_w3_mlp_simclrhn_probe3,1,407,NaN,dog,dog,2-10-10,0407_eid_dnn_2-10-10_dog_10_n02108915_6092.png,n02108915_6092.png,1.0,1.0283872,0.28807914,0.52347684
alexnet_w3_mlp_simclrhn_probe3,1,408,NaN,oven,clock,16-10-10,0408_eid_dnn_16-10-10_clock_10_n04548280_6337.png,n04548280_6337.png,0.0,0.05417796,0.9578025,-0.63895905
alexnet_w3_mlp_simclrhn_probe3,1,409,NaN,elephant,boat,4-10-10,0409_eid_dnn_4-10-10_boat_10_n04273569_1388.png,n04273569_1388.png,0.0,0.7937843,1.1155436,-0.22751817
alexnet_w3_mlp_simclrhn_probe3,1,410,NaN,oven,clock,64-10-10,0410_eid_dnn_64-10-10_clock_10_n02708093_2676.png,n02708093_2676.png,0.0,0.14904511,1.4745085,-0.9372442
alexnet_w3_mlp_simclrhn_probe3,1,411,NaN,oven,dog,64-10-10,0411_eid_dnn_64-10-10_dog_10_n02107683_5424.png,n02107683_5424.png,0.0,0.20833355,0.83315516,-0.4418156
alexnet_w3_mlp_simclrhn_probe3,1,412,NaN,chair,chair,1-10-10,0412_eid_dnn_1-10-10_chair_10_n04099969_29038.png,n04099969_29038.png,1.0,2.3467302,0.58063,1.2488214
alexnet_w3_mlp_simclrhn_probe3,1,413,NaN,oven,clock,16-10-10,0413_eid_dnn_16-10-10_clock_10_n04548280_3219.png,n04548280_3219.png,0.0,0.26754197,1.6511633,-0.97836804
alexnet_w3_mlp_simclrhn_probe3,1,414,NaN,knife,clock,32-10-10,0414_eid_dnn_32-10-10_clock_10_n03196217_8282.png,n03196217_8282.png,0.0,-0.19238044,0.3148071,-0.35863575
alexnet_w3_mlp_simclrhn_probe3,1,415,NaN,oven,oven,8-10-10,0415_eid_dnn_8-10-10_oven_10_n04111531_22041.png,n04111531_22041.png,1.0,2.6130016,0.2765903,1.6520922
alexnet_w3_mlp_simclrhn_probe3,1,416,NaN,bear,bear,8-10-10,0416_eid_dnn_8-10-10_bear_10_n02134084_6964.png,n02134084_6964.png,1.0,1.900932,1.090789,0.5728576
alexnet_w3_mlp_simclrhn_probe3,1,417,NaN,oven,bicycle,64-10-10,0417_eid_dnn_64-10-10_bicycle_10_n03792782_11921.png,n03792782_11921.png,0.0,0.19949023,1.1132314,-0.64611256
alexnet_w3_mlp_simclrhn_probe3,1,418,NaN,oven,clock,8-10-10,0418_eid_dnn_8-10-10_clock_10_n04548280_1809.png,n04548280_1809.png,0.0,0.23623283,0.28660685,-0.03561981
alexnet_w3_mlp_simclrhn_probe3,1,419,NaN,bird,bird,4-10-10,0419_eid_dnn_4-10-10_bird_10_n01833805_202.png,n01833805_202.png,1.0,1.1264253,0.31737745,0.57208323
alexnet_w3_mlp_simclrhn_probe3,1,420,NaN,oven,keyboard,64-10-10,0420_eid_dnn_64-10-10_keyboard_10_n03085013_7511.png,n03085013_7511.png,0.0,0.14680211,1.4688231,-0.93481004
alexnet_w3_mlp_simclrhn_probe3,1,421,NaN,dog,bird,1-10-10,0421_eid_dnn_1-10-10_bird_10_n02025239_5287.png,n02025239_5287.png,0.0,0.3566649,0.45408735,-0.068888076
alexnet_w3_mlp_simclrhn_probe3,1,422,NaN,oven,boat,64-10-10,0422_eid_dnn_64-10-10_boat_10_n03662601_27960.png,n03662601_27960.png,0.0,0.081159905,0.68106824,-0.42419928
alexnet_w3_mlp_simclrhn_probe3,1,423,NaN,oven,bottle,1-10-10,0423_eid_dnn_1-10-10_bottle_10_n04591713_6855.png,n04591713_6855.png,0.0,-0.21251948,0.65321386,-0.6121659
alexnet_w3_mlp_simclrhn_probe3,1,424,NaN,oven,elephant,128-10-10,0424_eid_dnn_128-10-10_elephant_10_n02504013_4424.png,n02504013_4424.png,0.0,0.4992522,1.325601,-0.58431685
alexnet_w3_mlp_simclrhn_probe3,1,425,NaN,clock,clock,2-10-10,0425_eid_dnn_2-10-10_clock_10_n04548280_3295.png,n04548280_3295.png,1.0,1.382371,0.8926485,0.34628606
alexnet_w3_mlp_simclrhn_probe3,1,426,NaN,airplane,airplane,1-10-10,0426_eid_dnn_1-10-10_airplane_10_n02690373_6144.png,n02690373_6144.png,1.0,9.786794,2.0164697,5.4944487
alexnet_w3_mlp_simclrhn_probe3,1,427,NaN,bear,truck,32-10-10,0427_eid_dnn_32-10-10_truck_10_n04467665_70894.png,n04467665_70894.png,0.0,-0.02956153,0.6489452,-0.4797767
alexnet_w3_mlp_simclrhn_probe3,1,428,NaN,oven,boat,128-10-10,0428_eid_dnn_128-10-10_boat_10_n02951358_30474.png,n02951358_30474.png,0.0,-0.09702771,0.41810095,-0.364251
alexnet_w3_mlp_simclrhn_probe3,1,429,NaN,bear,bear,4-10-10,0429_eid_dnn_4-10-10_bear_10_n02132136_6434.png,n02132136_6434.png,1.0,4.4256268,3.1868207,0.87596816
alexnet_w3_mlp_simclrhn_probe3,1,430,NaN,oven,keyboard,32-10-10,0430_eid_dnn_32-10-10_keyboard_10_n04505470_5009.png,n04505470_5009.png,0.0,0.023498148,1.1769993,-0.8156485
alexnet_w3_mlp_simclrhn_probe3,1,431,NaN,keyboard,keyboard,2-10-10,0431_eid_dnn_2-10-10_keyboard_10_n03085013_13005.png,n03085013_13005.png,1.0,8.673938,1.0557336,5.3868837
alexnet_w3_mlp_simclrhn_probe3,1,432,NaN,chair,chair,1-10-10,0432_eid_dnn_1-10-10_chair_10_n03376595_6865.png,n03376595_6865.png,1.0,4.0465994,1.6111989,1.7220882
alexnet_w3_mlp_simclrhn_probe3,1,433,NaN,oven,bicycle,32-10-10,0433_eid_dnn_32-10-10_bicycle_10_n02835271_6122.png,n02835271_6122.png,0.0,0.051482297,0.9223241,-0.61577815
alexnet_w3_mlp_simclrhn_probe3,1,434,NaN,oven,oven,4-10-10,0434_eid_dnn_4-10-10_oven_10_n04111531_11499.png,n04111531_11499.png,1.0,1.8684496,0.18403906,1.1910582
alexnet_w3_mlp_simclrhn_probe3,1,435,NaN,bird,bird,1-10-10,0435_eid_dnn_1-10-10_bird_10_n02009229_5765.png,n02009229_5765.png,1.0,1.9406611,0.29004392,1.1671625
alexnet_w3_mlp_simclrhn_probe3,1,436,NaN,oven,bottle,32-10-10,0436_eid_dnn_32-10-10_bottle_10_n04560804_2181.png,n04560804_2181.png,0.0,-0.02941577,1.2488267,-0.90385395
alexnet_w3_mlp_simclrhn_probe3,1,437,NaN,bear,bicycle,32-10-10,0437_eid_dnn_32-10-10_bicycle_10_n03792782_3774.png,n03792782_3774.png,0.0,0.39618635,0.9560765,-0.39590213
alexnet_w3_mlp_simclrhn_probe3,1,438,NaN,bear,bird,16-10-10,0438_eid_dnn_16-10-10_bird_10_n01614925_1683.png,n01614925_1683.png,0.0,0.21563938,0.7958857,-0.4102961
alexnet_w3_mlp_simclrhn_probe3,1,439,NaN,clock,clock,8-10-10,0439_eid_dnn_8-10-10_clock_10_n02708093_4692.png,n02708093_4692.png,1.0,0.47243676,0.38866147,0.059238072
alexnet_w3_mlp_simclrhn_probe3,1,440,NaN,dog,dog,4-10-10,0440_eid_dnn_4-10-10_dog_10_n02109961_71298.png,n02109961_71298.png,1.0,1.8089522,1.6346718,0.12323486
alexnet_w3_mlp_simclrhn_probe3,1,441,NaN,keyboard,keyboard,2-10-10,0441_eid_dnn_2-10-10_keyboard_10_n03085013_23269.png,n03085013_23269.png,1.0,1.6516118,0.6891199,0.6805846
alexnet_w3_mlp_simclrhn_probe3,1,442,NaN,elephant,elephant,2-10-10,0442_eid_dnn_2-10-10_elephant_10_n02504458_5614.png,n02504458_5614.png,1.0,3.6897936,0.64440316,2.1534162
alexnet_w3_mlp_simclrhn_probe3,1,443,NaN,airplane,car,2-10-10,0443_eid_dnn_2-10-10_car_10_n04285008_4640.png,n04285008_4640.png,0.0,1.2901374,2.4601274,-0.8273078
alexnet_w3_mlp_simclrhn_probe3,1,444,NaN,oven,oven,128-10-10,0444_eid_dnn_128-10-10_oven_10_n04111531_6346.png,n04111531_6346.png,1.0,0.94957525,0.54110426,0.2888326
alexnet_w3_mlp_simclrhn_probe3,1,445,NaN,chair,chair,2-10-10,0445_eid_dnn_2-10-10_chair_10_n04099969_14851.png,n04099969_14851.png,1.0,3.292441,1.0466182,1.5880364
alexnet_w3_mlp_simclrhn_probe3,1,446,NaN,bear,bird,64-10-10,0446_eid_dnn_64-10-10_bird_10_n02051845_534.png,n02051845_534.png,0.0,-0.5886789,1.2456045,-1.2970343
alexnet_w3_mlp_simclrhn_probe3,1,447,NaN,oven,bird,128-10-10,0447_eid_dnn_128-10-10_bird_10_n02056570_9342.png,n02056570_9342.png,0.0,-0.60730356,0.9989646,-1.1358031
alexnet_w3_mlp_simclrhn_probe3,1,448,NaN,oven,oven,16-10-10,0448_eid_dnn_16-10-10_oven_10_n04111531_4900.png,n04111531_4900.png,1.0,2.1606371,0.37687832,1.2613081
alexnet_w3_mlp_simclrhn_probe3,1,449,NaN,oven,boat,32-10-10,0449_eid_dnn_32-10-10_boat_10_n02951358_31973.png,n02951358_31973.png,0.0,-0.18184546,0.7629839,-0.66809523
alexnet_w3_mlp_simclrhn_probe3,1,450,NaN,oven,keyboard,4-10-10,0450_eid_dnn_4-10-10_keyboard_10_n03085013_19842.png,n03085013_19842.png,0.0,-0.3483942,1.0972786,-1.022245
alexnet_w3_mlp_simclrhn_probe3,1,451,NaN,oven,keyboard,8-10-10,0451_eid_dnn_8-10-10_keyboard_10_n03085013_8296.png,n03085013_8296.png,0.0,0.27329022,0.4506835,-0.125436
alexnet_w3_mlp_simclrhn_probe3,1,452,NaN,oven,car,16-10-10,0452_eid_dnn_16-10-10_car_10_n03100240_3528.png,n03100240_3528.png,0.0,-0.32129562,0.97438055,-0.91618145
alexnet_w3_mlp_simclrhn_probe3,1,453,NaN,oven,cat,8-10-10,0453_eid_dnn_8-10-10_cat_10_n02123159_7210.png,n02123159_7210.png,0.0,1.4066428,1.8376076,-0.30473816
alexnet_w3_mlp_simclrhn_probe3,1,454,NaN,knife,knife,16-10-10,0454_eid_dnn_16-10-10_knife_10_n03041632_56172.png,n03041632_56172.png,1.0,0.7321131,0.5237788,0.14731462
alexnet_w3_mlp_simclrhn_probe3,1,455,NaN,oven,oven,4-10-10,0455_eid_dnn_4-10-10_oven_10_n04111531_2116.png,n04111531_2116.png,1.0,2.3145924,0.3385019,1.3973069
alexnet_w3_mlp_simclrhn_probe3,1,456,NaN,bicycle,bicycle,8-10-10,0456_eid_dnn_8-10-10_bicycle_10_n02835271_12477.png,n02835271_12477.png,1.0,0.97780246,0.72630745,0.17783383
alexnet_w3_mlp_simclrhn_probe3,1,457,NaN,knife,knife,2-10-10,0457_eid_dnn_2-10-10_knife_10_n03041632_42472.png,n03041632_42472.png,1.0,2.2741256,0.7964096,1.044903
alexnet_w3_mlp_simclrhn_probe3,1,458,NaN,bottle,oven,2-10-10,0458_eid_dnn_2-10-10_oven_10_n04111531_8818.png,n04111531_8818.png,0.0,1.6176068,1.7638433,-0.10340485
alexnet_w3_mlp_simclrhn_probe3,1,459,NaN,airplane,truck,2-10-10,0459_eid_dnn_2-10-10_truck_10_n04467665_67115.png,n04467665_67115.png,0.0,0.4019823,0.7861823,-0.2716704
alexnet_w3_mlp_simclrhn_probe3,1,460,NaN,bird,bird,4-10-10,0460_eid_dnn_4-10-10_bird_10_n02011460_3521.png,n02011460_3521.png,1.0,1.411502,0.080712974,0.94101
alexnet_w3_mlp_simclrhn_probe3,1,461,NaN,bear,bear,64-10-10,0461_eid_dnn_64-10-10_bear_10_n02133161_3533.png,n02133161_3533.png,1.0,1.5891321,0.9501277,0.4518443
alexnet_w3_mlp_simclrhn_probe3,1,462,NaN,bear,bird,8-10-10,0462_eid_dnn_8-10-10_bird_10_n02013706_637.png,n02013706_637.png,0.0,0.8820435,1.110622,-0.16162945
alexnet_w3_mlp_simclrhn_probe3,1,463,NaN,bear,bear,64-10-10,0463_eid_dnn_64-10-10_bear_10_n02132136_29636.png,n02132136_29636.png,1.0,0.7644266,0.72026885,0.03122424
alexnet_w3_mlp_simclrhn_probe3,1,464,NaN,bicycle,bicycle,2-10-10,0464_eid_dnn_2-10-10_bicycle_10_n02835271_634.png,n02835271_634.png,1.0,2.1166348,0.5677733,1.0952104
alexnet_w3_mlp_simclrhn_probe3,1,465,NaN,keyboard,keyboard,1-10-10,0465_eid_dnn_1-10-10_keyboard_10_n04505470_4621.png,n04505470_4621.png,1.0,2.1330829,1.7931509,0.2403682
alexnet_w3_mlp_simclrhn_probe3,1,466,NaN,bear,bear,16-10-10,0466_eid_dnn_16-10-10_bear_10_n02134084_2844.png,n02134084_2844.png,1.0,0.31433913,0.29077193,0.016664527
alexnet_w3_mlp_simclrhn_probe3,1,467,NaN,bicycle,bicycle,4-10-10,0467_eid_dnn_4-10-10_bicycle_10_n03792782_17088.png,n03792782_17088.png,1.0,1.4321588,0.9773612,0.32159048
alexnet_w3_mlp_simclrhn_probe3,1,468,NaN,bird,clock,4-10-10,0468_eid_dnn_4-10-10_clock_10_n03196217_8706.png,n03196217_8706.png,0.0,-0.306282,0.53145194,-0.5923674
alexnet_w3_mlp_simclrhn_probe3,1,469,NaN,oven,oven,4-10-10,0469_eid_dnn_4-10-10_oven_10_n04111531_15052.png,n04111531_15052.png,1.0,2.9295921,0.980035,1.378545
alexnet_w3_mlp_simclrhn_probe3,1,470,NaN,oven,bottle,16-10-10,0470_eid_dnn_16-10-10_bottle_10_n04560804_5769.png,n04560804_5769.png,0.0,0.34089795,1.0180441,-0.47881466
alexnet_w3_mlp_simclrhn_probe3,1,471,NaN,oven,dog,128-10-10,0471_eid_dnn_128-10-10_dog_10_n02110063_14116.png,n02110063_14116.png,0.0,-0.054919086,0.33397594,-0.27499032
alexnet_w3_mlp_simclrhn_probe3,1,472,NaN,oven,cat,32-10-10,0472_eid_dnn_32-10-10_cat_10_n02124075_3609.png,n02124075_3609.png,0.0,0.62531614,1.0302868,-0.2863575
alexnet_w3_mlp_simclrhn_probe3,1,473,NaN,airplane,airplane,32-10-10,0473_eid_dnn_32-10-10_airplane_10_n02690373_10926.png,n02690373_10926.png,1.0,0.60623896,0.15379573,0.3199257
alexnet_w3_mlp_simclrhn_probe3,1,474,NaN,oven,bird,16-10-10,0474_eid_dnn_16-10-10_bird_10_n02033041_7229.png,n02033041_7229.png,0.0,-0.14968096,0.50492024,-0.46287295
alexnet_w3_mlp_simclrhn_probe3,1,475,NaN,bird,bird,2-10-10,0475_eid_dnn_2-10-10_bird_10_n02006656_611.png,n02006656_611.png,1.0,1.1388679,1.0628474,0.053754598
alexnet_w3_mlp_simclrhn_probe3,1,476,NaN,oven,bear,16-10-10,0476_eid_dnn_16-10-10_bear_10_n02133161_958.png,n02133161_958.png,0.0,0.05421535,0.5118252,-0.32357904
alexnet_w3_mlp_simclrhn_probe3,1,477,NaN,bird,bird,8-10-10,0477_eid_dnn_8-10-10_bird_10_n01843065_148.png,n01843065_148.png,1.0,1.4096379,0.8946219,0.36417133
alexnet_w3_mlp_simclrhn_probe3,1,478,NaN,oven,cat,32-10-10,0478_eid_dnn_32-10-10_cat_10_n02123597_13623.png,n02123597_13623.png,0.0,0.00926361,0.90534985,-0.63362867
alexnet_w3_mlp_simclrhn_probe3,1,479,NaN,bicycle,bicycle,8-10-10,0479_eid_dnn_8-10-10_bicycle_10_n02835271_12957.png,n02835271_12957.png,1.0,1.5020772,0.4252164,0.7614556
alexnet_w3_mlp_simclrhn_probe3,1,480,NaN,knife,knife,8-10-10,0480_eid_dnn_8-10-10_knife_10_n03041632_96714.png,n03041632_96714.png,1.0,0.45614827,0.18009837,0.19519676
alexnet_w3_mlp_simclrhn_probe3,1,481,NaN,oven,bear,128-10-10,0481_eid_dnn_128-10-10_bear_10_n02133161_3550.png,n02133161_3550.png,0.0,0.78562367,0.81911796,-0.023684043
alexnet_w3_mlp_simclrhn_probe3,1,482,NaN,airplane,airplane,2-10-10,0482_eid_dnn_2-10-10_airplane_10_n02690373_4471.png,n02690373_4471.png,1.0,5.5580297,1.4276209,2.92064
alexnet_w3_mlp_simclrhn_probe3,1,483,NaN,oven,airplane,64-10-10,0483_eid_dnn_64-10-10_airplane_10_n02690373_2026.png,n02690373_2026.png,0.0,0.35150367,1.2066722,-0.6046955
alexnet_w3_mlp_simclrhn_probe3,1,484,NaN,car,car,1-10-10,0484_eid_dnn_1-10-10_car_10_n03100240_18270.png,n03100240_18270.png,1.0,1.5097414,1.3019077,0.14696068
alexnet_w3_mlp_simclrhn_probe3,1,485,NaN,oven,elephant,128-10-10,0485_eid_dnn_128-10-10_elephant_10_n02504458_5204.png,n02504458_5204.png,0.0,0.15855885,0.54145485,-0.27074838
alexnet_w3_mlp_simclrhn_probe3,1,486,NaN,oven,oven,1-10-10,0486_eid_dnn_1-10-10_oven_10_n04111531_10339.png,n04111531_10339.png,1.0,3.7431583,1.8507286,1.3381499
alexnet_w3_mlp_simclrhn_probe3,1,487,NaN,elephant,elephant,2-10-10,0487_eid_dnn_2-10-10_elephant_10_n02504458_12705.png,n02504458_12705.png,1.0,7.8781557,2.713993,3.6516144
alexnet_w3_mlp_simclrhn_probe3,1,488,NaN,boat,boat,1-10-10,0488_eid_dnn_1-10-10_boat_10_n03344393_9268.png,n03344393_9268.png,1.0,0.6082783,0.6000662,0.005806824
alexnet_w3_mlp_simclrhn_probe3,1,489,NaN,bicycle,bicycle,16-10-10,0489_eid_dnn_16-10-10_bicycle_10_n02835271_23173.png,n02835271_23173.png,1.0,0.38930824,0.23722902,0.10753626
alexnet_w3_mlp_simclrhn_probe3,1,490,NaN,oven,knife,32-10-10,0490_eid_dnn_32-10-10_knife_10_n03041632_43975.png,n03041632_43975.png,0.0,0.25675192,1.0957313,-0.593248
alexnet_w3_mlp_simclrhn_probe3,1,491,NaN,oven,bicycle,128-10-10,0491_eid_dnn_128-10-10_bicycle_10_n03792782_3299.png,n03792782_3299.png,0.0,0.051385295,0.43690526,-0.2726038
alexnet_w3_mlp_simclrhn_probe3,1,492,NaN,oven,boat,32-10-10,0492_eid_dnn_32-10-10_boat_10_n04273569_5679.png,n04273569_5679.png,0.0,-0.3661268,1.0057517,-0.97006464
alexnet_w3_mlp_simclrhn_probe3,1,493,NaN,oven,bird,32-10-10,0493_eid_dnn_32-10-10_bird_10_n02056570_10127.png,n02056570_10127.png,0.0,-0.33374494,1.1049685,-1.0173241
alexnet_w3_mlp_simclrhn_probe3,1,494,NaN,oven,bear,32-10-10,0494_eid_dnn_32-10-10_bear_10_n02133161_7688.png,n02133161_7688.png,0.0,0.66018987,0.89255023,-0.16430359
alexnet_w3_mlp_simclrhn_probe3,1,495,NaN,oven,cat,16-10-10,0495_eid_dnn_16-10-10_cat_10_n02123597_624.png,n02123597_624.png,0.0,0.20086806,0.9519293,-0.5310805
alexnet_w3_mlp_simclrhn_probe3,1,496,NaN,oven,bird,64-10-10,0496_eid_dnn_64-10-10_bird_10_n01560419_3399.png,n01560419_3399.png,0.0,-0.30649742,0.7051419,-0.71533704
alexnet_w3_mlp_simclrhn_probe3,1,497,NaN,oven,cat,32-10-10,0497_eid_dnn_32-10-10_cat_10_n02123045_12762.png,n02123045_12762.png,0.0,0.15723361,0.7712364,-0.43416557
alexnet_w3_mlp_simclrhn_probe3,1,498,NaN,oven,car,16-10-10,0498_eid_dnn_16-10-10_car_10_n02814533_7247.png,n02814533_7247.png,0.0,-0.28495052,0.9305484,-0.85948753
alexnet_w3_mlp_simclrhn_probe3,1,499,NaN,keyboard,keyboard,4-10-10,0499_eid_dnn_4-10-10_keyboard_10_n03085013_4941.png,n03085013_4941.png,1.0,1.076422,0.9829963,0.066061944
alexnet_w3_mlp_simclrhn_probe3,1,500,NaN,car,truck,4-10-10,0500_eid_dnn_4-10-10_truck_10_n03417042_6420.png,n03417042_6420.png,0.0,-0.26293683,0.5524399,-0.5765585
alexnet_w3_mlp_simclrhn_probe3,1,501,NaN,oven,boat,64-10-10,0501_eid_dnn_64-10-10_boat_10_n03662601_2120.png,n03662601_2120.png,0.0,0.21407926,1.2156737,-0.70823425
alexnet_w3_mlp_simclrhn_probe3,1,502,NaN,bear,bear,2-10-10,0502_eid_dnn_2-10-10_bear_10_n02134084_7331.png,n02134084_7331.png,1.0,2.3780437,1.5980012,0.5515733
alexnet_w3_mlp_simclrhn_probe3,1,503,NaN,oven,bottle,32-10-10,0503_eid_dnn_32-10-10_bottle_10_n02823428_906.png,n02823428_906.png,0.0,0.05168003,1.5933495,-1.0901248
alexnet_w3_mlp_simclrhn_probe3,1,504,NaN,oven,cat,16-10-10,0504_eid_dnn_16-10-10_cat_10_n02123394_270.png,n02123394_270.png,0.0,0.4509046,0.5862777,-0.09572325
alexnet_w3_mlp_simclrhn_probe3,1,505,NaN,elephant,boat,2-10-10,0505_eid_dnn_2-10-10_boat_10_n02951358_1910.png,n02951358_1910.png,0.0,0.12642343,0.94658566,-0.5799423
alexnet_w3_mlp_simclrhn_probe3,1,506,NaN,bear,knife,4-10-10,0506_eid_dnn_4-10-10_knife_10_n03041632_23678.png,n03041632_23678.png,0.0,-0.021942105,2.2854366,-1.6315632
alexnet_w3_mlp_simclrhn_probe3,1,507,NaN,oven,car,16-10-10,0507_eid_dnn_16-10-10_car_10_n02814533_31083.png,n02814533_31083.png,0.0,-0.5040756,0.8817993,-0.9799615
alexnet_w3_mlp_simclrhn_probe3,1,508,NaN,keyboard,keyboard,1-10-10,0508_eid_dnn_1-10-10_keyboard_10_n04505470_2881.png,n04505470_2881.png,1.0,5.9843636,1.510119,3.1637688
alexnet_w3_mlp_simclrhn_probe3,1,509,NaN,dog,cat,8-10-10,0509_eid_dnn_8-10-10_cat_10_n02125311_2923.png,n02125311_2923.png,0.0,-0.092969574,0.64101344,-0.5190044
alexnet_w3_mlp_simclrhn_probe3,1,510,NaN,bicycle,bicycle,2-10-10,0510_eid_dnn_2-10-10_bicycle_10_n03792782_2598.png,n03792782_2598.png,1.0,5.024429,1.2862806,2.64327
alexnet_w3_mlp_simclrhn_probe3,1,511,NaN,car,car,2-10-10,0511_eid_dnn_2-10-10_car_10_n03100240_4460.png,n03100240_4460.png,1.0,3.7499416,2.4002476,0.95437783
alexnet_w3_mlp_simclrhn_probe3,1,512,NaN,knife,knife,4-10-10,0512_eid_dnn_4-10-10_knife_10_n03041632_29920.png,n03041632_29920.png,1.0,1.1146637,0.900606,0.15136169
alexnet_w3_mlp_simclrhn_probe3,1,513,NaN,bear,bird,32-10-10,0513_eid_dnn_32-10-10_bird_10_n01796340_3845.png,n01796340_3845.png,0.0,-0.29023528,0.6545384,-0.6680559
alexnet_w3_mlp_simclrhn_probe3,1,514,NaN,keyboard,keyboard,8-10-10,0514_eid_dnn_8-10-10_keyboard_10_n03085013_21932.png,n03085013_21932.png,1.0,1.4500017,1.1469996,0.21425486
alexnet_w3_mlp_simclrhn_probe3,1,515,NaN,bottle,bottle,1-10-10,0515_eid_dnn_1-10-10_bottle_10_n02823428_64.png,n02823428_64.png,1.0,5.917847,1.0339894,3.453409
alexnet_w3_mlp_simclrhn_probe3,1,516,NaN,oven,chair,8-10-10,0516_eid_dnn_8-10-10_chair_10_n04099969_4374.png,n04099969_4374.png,0.0,-0.31258368,1.119007,-1.0122875
alexnet_w3_mlp_simclrhn_probe3,1,517,NaN,clock,clock,1-10-10,0517_eid_dnn_1-10-10_clock_10_n02708093_8257.png,n02708093_8257.png,1.0,7.4525375,1.2220479,4.4056215
alexnet_w3_mlp_simclrhn_probe3,1,518,NaN,bear,knife,16-10-10,0518_eid_dnn_16-10-10_knife_10_n03041632_45569.png,n03041632_45569.png,0.0,-0.047303,0.29783612,-0.24405022
alexnet_w3_mlp_simclrhn_probe3,1,519,NaN,oven,chair,128-10-10,0519_eid_dnn_128-10-10_chair_10_n04099969_1850.png,n04099969_1850.png,0.0,0.028149746,0.88304967,-0.60450554
alexnet_w3_mlp_simclrhn_probe3,1,520,NaN,airplane,dog,2-10-10,0520_eid_dnn_2-10-10_dog_10_n02092002_2008.png,n02092002_2008.png,0.0,0.13700743,0.52662635,-0.2755022
alexnet_w3_mlp_simclrhn_probe3,1,521,NaN,bicycle,bicycle,8-10-10,0521_eid_dnn_8-10-10_bicycle_10_n02835271_8105.png,n02835271_8105.png,1.0,2.623823,0.5439541,1.4706893
alexnet_w3_mlp_simclrhn_probe3,1,522,NaN,bear,oven,64-10-10,0522_eid_dnn_64-10-10_oven_10_n04111531_14126.png,n04111531_14126.png,0.0,0.966192,1.3919413,-0.30105022
alexnet_w3_mlp_simclrhn_probe3,1,523,NaN,oven,elephant,4-10-10,0523_eid_dnn_4-10-10_elephant_10_n02504013_13766.png,n02504013_13766.png,0.0,0.013362888,0.5443371,-0.37545547
alexnet_w3_mlp_simclrhn_probe3,1,524,NaN,oven,bicycle,64-10-10,0524_eid_dnn_64-10-10_bicycle_10_n02835271_18361.png,n02835271_18361.png,0.0,0.06685565,1.1368319,-0.75658745
alexnet_w3_mlp_simclrhn_probe3,1,525,NaN,oven,bird,8-10-10,0525_eid_dnn_8-10-10_bird_10_n01582220_4708.png,n01582220_4708.png,0.0,0.033369966,0.2978619,-0.18702406
alexnet_w3_mlp_simclrhn_probe3,1,526,NaN,oven,chair,16-10-10,0526_eid_dnn_16-10-10_chair_10_n04099969_101.png,n04099969_101.png,0.0,-0.2734201,1.0629629,-0.9449655
alexnet_w3_mlp_simclrhn_probe3,1,527,NaN,cat,cat,1-10-10,0527_eid_dnn_1-10-10_cat_10_n02124075_724.png,n02124075_724.png,1.0,5.123817,0.531563,3.247214
alexnet_w3_mlp_simclrhn_probe3,1,528,NaN,oven,bicycle,32-10-10,0528_eid_dnn_32-10-10_bicycle_10_n02835271_43.png,n02835271_43.png,0.0,0.18074198,1.0045917,-0.58254975
alexnet_w3_mlp_simclrhn_probe3,1,529,NaN,bird,bird,2-10-10,0529_eid_dnn_2-10-10_bird_10_n02017213_5362.png,n02017213_5362.png,1.0,2.2298653,0.4358245,1.2685784
alexnet_w3_mlp_simclrhn_probe3,1,530,NaN,oven,dog,1-10-10,0530_eid_dnn_1-10-10_dog_10_n02088466_1769.png,n02088466_1769.png,0.0,0.5633659,1.1957607,-0.4471707
alexnet_w3_mlp_simclrhn_probe3,1,531,NaN,elephant,bear,1-10-10,0531_eid_dnn_1-10-10_bear_10_n02133161_5653.png,n02133161_5653.png,0.0,2.7037878,3.1906486,-0.34426254
alexnet_w3_mlp_simclrhn_probe3,1,532,NaN,oven,dog,1-10-10,0532_eid_dnn_1-10-10_dog_10_n02098105_4676.png,n02098105_4676.png,0.0,1.00223,2.7089074,-1.2068031
alexnet_w3_mlp_simclrhn_probe3,1,533,NaN,cat,cat,2-10-10,0533_eid_dnn_2-10-10_cat_10_n02123045_3593.png,n02123045_3593.png,1.0,1.5356222,0.4892187,0.73991907
alexnet_w3_mlp_simclrhn_probe3,1,534,NaN,oven,bottle,8-10-10,0534_eid_dnn_8-10-10_bottle_10_n04560804_265.png,n04560804_265.png,0.0,-0.04670436,1.0496757,-0.7752578
alexnet_w3_mlp_simclrhn_probe3,1,535,NaN,oven,knife,128-10-10,0535_eid_dnn_128-10-10_knife_10_n03041632_1556.png,n03041632_1556.png,0.0,0.19018057,0.6866406,-0.3510503
alexnet_w3_mlp_simclrhn_probe3,1,536,NaN,bear,chair,4-10-10,0536_eid_dnn_4-10-10_chair_10_n02791124_9595.png,n02791124_9595.png,0.0,-0.10727726,1.3200847,-1.0092974
alexnet_w3_mlp_simclrhn_probe3,1,537,NaN,oven,dog,32-10-10,0537_eid_dnn_32-10-10_dog_10_n02107312_2933.png,n02107312_2933.png,0.0,0.022804338,0.9318453,-0.64278907
alexnet_w3_mlp_simclrhn_probe3,1,538,NaN,oven,oven,32-10-10,0538_eid_dnn_32-10-10_oven_10_n04111531_101.png,n04111531_101.png,1.0,1.0538559,0.2649623,0.557832
alexnet_w3_mlp_simclrhn_probe3,1,539,NaN,oven,truck,4-10-10,0539_eid_dnn_4-10-10_truck_10_n03417042_7204.png,n03417042_7204.png,0.0,0.69908595,1.6835513,-0.69612217
alexnet_w3_mlp_simclrhn_probe3,1,540,NaN,oven,bear,64-10-10,0540_eid_dnn_64-10-10_bear_10_n02132136_2120.png,n02132136_2120.png,0.0,0.7026846,1.0641546,-0.25559792
alexnet_w3_mlp_simclrhn_probe3,1,541,NaN,oven,airplane,64-10-10,0541_eid_dnn_64-10-10_airplane_10_n02690373_18412.png,n02690373_18412.png,0.0,0.25329506,0.7635536,-0.3608073
alexnet_w3_mlp_simclrhn_probe3,1,542,NaN,oven,knife,128-10-10,0542_eid_dnn_128-10-10_knife_10_n03041632_21017.png,n03041632_21017.png,0.0,-0.03689018,1.2405678,-0.9032992
alexnet_w3_mlp_simclrhn_probe3,1,543,NaN,oven,elephant,128-10-10,0543_eid_dnn_128-10-10_elephant_10_n02504458_8414.png,n02504458_8414.png,0.0,0.5017763,0.91448367,-0.2918282
alexnet_w3_mlp_simclrhn_probe3,1,544,NaN,oven,bottle,128-10-10,0544_eid_dnn_128-10-10_bottle_10_n04557648_11046.png,n04557648_11046.png,0.0,0.15721858,0.8461193,-0.48712638
alexnet_w3_mlp_simclrhn_probe3,1,545,NaN,oven,clock,64-10-10,0545_eid_dnn_64-10-10_clock_10_n03196217_10578.png,n03196217_10578.png,0.0,0.020465871,1.2438191,-0.86504143
alexnet_w3_mlp_simclrhn_probe3,1,546,NaN,bear,bear,2-10-10,0546_eid_dnn_2-10-10_bear_10_n02134418_3213.png,n02134418_3213.png,1.0,3.5223935,1.9731623,1.0954719
alexnet_w3_mlp_simclrhn_probe3,1,547,NaN,bear,clock,64-10-10,0547_eid_dnn_64-10-10_clock_10_n03196217_6289.png,n03196217_6289.png,0.0,0.08320577,0.68136626,-0.42296335
alexnet_w3_mlp_simclrhn_probe3,1,548,NaN,bear,dog,32-10-10,0548_eid_dnn_32-10-10_dog_10_n02096294_1498.png,n02096294_1498.png,0.0,-0.10148545,0.5792541,-0.48135555
alexnet_w3_mlp_simclrhn_probe3,1,549,NaN,oven,oven,16-10-10,0549_eid_dnn_16-10-10_oven_10_n04111531_519.png,n04111531_519.png,1.0,0.84582955,0.32486424,0.36837813
alexnet_w3_mlp_simclrhn_probe3,1,550,NaN,bird,bird,1-10-10,0550_eid_dnn_1-10-10_bird_10_n01531178_14959.png,n01531178_14959.png,1.0,2.4182827,0.45872045,1.3856198
alexnet_w3_mlp_simclrhn_probe3,1,551,NaN,oven,bear,32-10-10,0551_eid_dnn_32-10-10_bear_10_n02132136_8754.png,n02132136_8754.png,0.0,1.0429031,1.2267206,-0.12997861
alexnet_w3_mlp_simclrhn_probe3,1,552,NaN,car,car,1-10-10,0552_eid_dnn_1-10-10_car_10_n02814533_73067.png,n02814533_73067.png,1.0,7.201262,4.0019045,2.2622874
alexnet_w3_mlp_simclrhn_probe3,1,553,NaN,bear,cat,8-10-10,0553_eid_dnn_8-10-10_cat_10_n02124075_15378.png,n02124075_15378.png,0.0,0.40687442,0.80975604,-0.28488034
alexnet_w3_mlp_simclrhn_probe3,1,554,NaN,oven,bird,128-10-10,0554_eid_dnn_128-10-10_bird_10_n01592084_7569.png,n01592084_7569.png,0.0,-0.57768774,2.0508738,-1.8586737
alexnet_w3_mlp_simclrhn_probe3,1,555,NaN,oven,dog,128-10-10,0555_eid_dnn_128-10-10_dog_10_n02094114_3395.png,n02094114_3395.png,0.0,0.06844673,0.8564918,-0.557232
alexnet_w3_mlp_simclrhn_probe3,1,556,NaN,chair,chair,4-10-10,0556_eid_dnn_4-10-10_chair_10_n03376595_1712.png,n03376595_1712.png,1.0,0.5659448,0.40830132,0.11147077
alexnet_w3_mlp_simclrhn_probe3,1,557,NaN,oven,bear,64-10-10,0557_eid_dnn_64-10-10_bear_10_n02134084_622.png,n02134084_622.png,0.0,0.9509491,1.287641,-0.23807718
alexnet_w3_mlp_simclrhn_probe3,1,558,NaN,bottle,clock,8-10-10,0558_eid_dnn_8-10-10_clock_10_n03196217_4912.png,n03196217_4912.png,0.0,0.04526021,1.0989685,-0.7450843
alexnet_w3_mlp_simclrhn_probe3,1,559,NaN,oven,car,64-10-10,0559_eid_dnn_64-10-10_car_10_n03100240_18815.png,n03100240_18815.png,0.0,-0.32511324,1.939518,-1.6013361
alexnet_w3_mlp_simclrhn_probe3,1,560,NaN,bicycle,chair,2-10-10,0560_eid_dnn_2-10-10_chair_10_n04099969_2020.png,n04099969_2020.png,0.0,2.7404025,2.8280585,-0.06198217
alexnet_w3_mlp_simclrhn_probe3,1,561,NaN,bear,bear,1-10-10,0561_eid_dnn_1-10-10_bear_10_n02132136_7647.png,n02132136_7647.png,1.0,4.5758486,2.1868587,1.689271
alexnet_w3_mlp_simclrhn_probe3,1,562,NaN,bear,oven,128-10-10,0562_eid_dnn_128-10-10_oven_10_n04111531_2796.png,n04111531_2796.png,0.0,0.25180605,0.56361246,-0.22048043
alexnet_w3_mlp_simclrhn_probe3,1,563,NaN,oven,truck,64-10-10,0563_eid_dnn_64-10-10_truck_10_n03796401_9472.png,n03796401_9472.png,0.0,-0.26454574,1.2412142,-1.0647331
alexnet_w3_mlp_simclrhn_probe3,1,564,NaN,oven,chair,4-10-10,0564_eid_dnn_4-10-10_chair_10_n03376595_12433.png,n03376595_12433.png,0.0,0.79292977,1.037504,-0.17294008
alexnet_w3_mlp_simclrhn_probe3,1,565,NaN,car,truck,4-10-10,0565_eid_dnn_4-10-10_truck_10_n04467665_31539.png,n04467665_31539.png,0.0,2.214627,3.1825352,-0.68441445
alexnet_w3_mlp_simclrhn_probe3,1,566,NaN,bear,airplane,32-10-10,0566_eid_dnn_32-10-10_airplane_10_n02690373_10657.png,n02690373_10657.png,0.0,0.60075974,0.65696573,-0.039743636
alexnet_w3_mlp_simclrhn_probe3,1,567,NaN,oven,truck,16-10-10,0567_eid_dnn_16-10-10_truck_10_n03796401_5963.png,n03796401_5963.png,0.0,-0.27395183,1.7989638,-1.4657726
alexnet_w3_mlp_simclrhn_probe3,1,568,NaN,bear,dog,64-10-10,0568_eid_dnn_64-10-10_dog_10_n02096294_2233.png,n02096294_2233.png,0.0,-0.015769308,1.4219842,-1.0166453
alexnet_w3_mlp_simclrhn_probe3,1,569,NaN,oven,airplane,128-10-10,0569_eid_dnn_128-10-10_airplane_10_n02690373_4873.png,n02690373_4873.png,0.0,0.2643816,0.8886868,-0.44145045
alexnet_w3_mlp_simclrhn_probe3,1,570,NaN,truck,truck,1-10-10,0570_eid_dnn_1-10-10_truck_10_n04467665_4825.png,n04467665_4825.png,1.0,1.8689455,1.3185534,0.38918594
alexnet_w3_mlp_simclrhn_probe3,1,571,NaN,oven,chair,16-10-10,0571_eid_dnn_16-10-10_chair_10_n04099969_1704.png,n04099969_1704.png,0.0,-0.11323881,0.93116534,-0.73850524
alexnet_w3_mlp_simclrhn_probe3,1,572,NaN,bicycle,bicycle,2-10-10,0572_eid_dnn_2-10-10_bicycle_10_n02835271_1573.png,n02835271_1573.png,1.0,7.83425,1.9481087,4.1621304
alexnet_w3_mlp_simclrhn_probe3,1,573,NaN,bear,boat,2-10-10,0573_eid_dnn_2-10-10_boat_10_n04273569_12725.png,n04273569_12725.png,0.0,0.41335312,1.7445235,-0.94127965
alexnet_w3_mlp_simclrhn_probe3,1,574,NaN,oven,knife,128-10-10,0574_eid_dnn_128-10-10_knife_10_n03041632_11285.png,n03041632_11285.png,0.0,0.1770022,0.5948449,-0.2954594
alexnet_w3_mlp_simclrhn_probe3,1,575,NaN,clock,clock,4-10-10,0575_eid_dnn_4-10-10_clock_10_n03196217_8254.png,n03196217_8254.png,1.0,0.8295327,0.7209891,0.0767519
alexnet_w3_mlp_simclrhn_probe3,1,576,NaN,oven,knife,16-10-10,0576_eid_dnn_16-10-10_knife_10_n03041632_15099.png,n03041632_15099.png,0.0,0.071538724,0.5642859,-0.34842485
alexnet_w3_mlp_simclrhn_probe3,1,577,NaN,oven,cat,64-10-10,0577_eid_dnn_64-10-10_cat_10_n02125311_30452.png,n02125311_30452.png,0.0,-0.0595646,0.34603733,-0.28680387
alexnet_w3_mlp_simclrhn_probe3,1,578,NaN,oven,bottle,32-10-10,0578_eid_dnn_32-10-10_bottle_10_n04591713_6804.png,n04591713_6804.png,0.0,-0.0920545,0.6972526,-0.55812436
alexnet_w3_mlp_simclrhn_probe3,1,579,NaN,oven,dog,64-10-10,0579_eid_dnn_64-10-10_dog_10_n02088364_14369.png,n02088364_14369.png,0.0,-0.042723905,1.3052973,-0.9531949
alexnet_w3_mlp_simclrhn_probe3,1,580,NaN,oven,truck,32-10-10,0580_eid_dnn_32-10-10_truck_10_n03796401_16425.png,n03796401_16425.png,0.0,-0.27565944,1.6120251,-1.3347946
alexnet_w3_mlp_simclrhn_probe3,1,581,NaN,oven,truck,64-10-10,0581_eid_dnn_64-10-10_truck_10_n03417042_5406.png,n03417042_5406.png,0.0,-0.2315372,1.2992744,-1.0824473
alexnet_w3_mlp_simclrhn_probe3,1,582,NaN,oven,knife,1-10-10,0582_eid_dnn_1-10-10_knife_10_n03041632_52929.png,n03041632_52929.png,0.0,1.1627946,1.3793976,-0.15316148
alexnet_w3_mlp_simclrhn_probe3,1,583,NaN,oven,chair,64-10-10,0583_eid_dnn_64-10-10_chair_10_n03376595_4820.png,n03376595_4820.png,0.0,0.118275076,0.84259236,-0.5121697
alexnet_w3_mlp_simclrhn_probe3,1,584,NaN,chair,chair,1-10-10,0584_eid_dnn_1-10-10_chair_10_n03376595_787.png,n03376595_787.png,1.0,1.8293712,1.1248791,0.49815115
alexnet_w3_mlp_simclrhn_probe3,1,585,NaN,oven,chair,2-10-10,0585_eid_dnn_2-10-10_chair_10_n03376595_7709.png,n03376595_7709.png,0.0,0.8790036,1.167977,-0.20433505
alexnet_w3_mlp_simclrhn_probe3,1,586,NaN,bottle,bottle,1-10-10,0586_eid_dnn_1-10-10_bottle_10_n03983396_11006.png,n03983396_11006.png,1.0,1.1640567,0.8805657,0.20045838
alexnet_w3_mlp_simclrhn_probe3,1,587,NaN,oven,oven,8-10-10,0587_eid_dnn_8-10-10_oven_10_n04111531_458.png,n04111531_458.png,1.0,1.084049,0.259343,0.5831552
alexnet_w3_mlp_simclrhn_probe3,1,588,NaN,bear,cat,128-10-10,0588_eid_dnn_128-10-10_cat_10_n02123045_7829.png,n02123045_7829.png,0.0,0.23208874,0.8824636,-0.45988446
alexnet_w3_mlp_simclrhn_probe3,1,589,NaN,bear,bear,1-10-10,0589_eid_dnn_1-10-10_bear_10_n02134418_4685.png,n02134418_4685.png,1.0,3.7802517,1.5467317,1.5793372
alexnet_w3_mlp_simclrhn_probe3,1,590,NaN,oven,knife,64-10-10,0590_eid_dnn_64-10-10_knife_10_n03041632_1964.png,n03041632_1964.png,0.0,0.21246183,0.9616437,-0.5297516
alexnet_w3_mlp_simclrhn_probe3,1,591,NaN,car,car,4-10-10,0591_eid_dnn_4-10-10_car_10_n03100240_17472.png,n03100240_17472.png,1.0,1.3709139,0.59171534,0.5509766
alexnet_w3_mlp_simclrhn_probe3,1,592,NaN,oven,dog,16-10-10,0592_eid_dnn_16-10-10_dog_10_n02113023_1980.png,n02113023_1980.png,0.0,-0.043002933,1.4967109,-1.0887421
alexnet_w3_mlp_simclrhn_probe3,1,593,NaN,bear,dog,32-10-10,0593_eid_dnn_32-10-10_dog_10_n02100735_6359.png,n02100735_6359.png,0.0,0.23396167,0.47060913,-0.16733502
alexnet_w3_mlp_simclrhn_probe3,1,594,NaN,bicycle,knife,1-10-10,0594_eid_dnn_1-10-10_knife_10_n03041632_31849.png,n03041632_31849.png,0.0,0.4397795,1.2052767,-0.54128826
alexnet_w3_mlp_simclrhn_probe3,1,595,NaN,oven,bird,8-10-10,0595_eid_dnn_8-10-10_bird_10_n01532829_23378.png,n01532829_23378.png,0.0,0.09778455,0.7907769,-0.4900196
alexnet_w3_mlp_simclrhn_probe3,1,596,NaN,oven,clock,64-10-10,0596_eid_dnn_64-10-10_clock_10_n02708093_5127.png,n02708093_5127.png,0.0,0.12105465,1.7135326,-1.1260519
alexnet_w3_mlp_simclrhn_probe3,1,597,NaN,bear,bear,4-10-10,0597_eid_dnn_4-10-10_bear_10_n02134084_12148.png,n02134084_12148.png,1.0,2.734542,1.4173704,0.93138087
