subj,session,trial,rt,object_response,category,condition,imagename,filename,is_correct,targ_act,max_nontarg_act,decision_margin
alexnet_w3_mlp_simclrhn_probe1,1,1,NaN,oven,oven,1-10-10,0001_eid_dnn_1-10-10_oven_10_n04111531_17072.png,n04111531_17072.png,1.0,2.5044146,-1.4075072,2.7661464
alexnet_w3_mlp_simclrhn_probe1,1,2,NaN,oven,airplane,16-10-10,0002_eid_dnn_16-10-10_airplane_10_n02690373_4183.png,n02690373_4183.png,0.0,-2.231954,-1.4833256,-0.5293603
alexnet_w3_mlp_simclrhn_probe1,1,3,NaN,oven,car,8-10-10,0003_eid_dnn_8-10-10_car_10_n03100240_1137.png,n03100240_1137.png,0.0,-5.397158,-0.76094997,-3.2782943
alexnet_w3_mlp_simclrhn_probe1,1,4,NaN,clock,clock,2-10-10,0004_eid_dnn_2-10-10_clock_10_n04548280_7083.png,n04548280_7083.png,1.0,0.57115597,-2.0639937,1.8633323
alexnet_w3_mlp_simclrhn_probe1,1,5,NaN,bottle,bottle,2-10-10,0005_eid_dnn_2-10-10_bottle_10_n02823428_7810.png,n02823428_7810.png,1.0,1.1065131,-0.96949524,1.4679596
alexnet_w3_mlp_simclrhn_probe1,1,6,NaN,bear,dog,128-10-10,0006_eid_dnn_128-10-10_dog_10_n02091244_8368.png,n02091244_8368.png,0.0,-3.8495324,-0.73175514,-2.2046015
alexnet_w3_mlp_simclrhn_probe1,1,7,NaN,bicycle,bicycle,1-10-10,0007_eid_dnn_1-10-10_bicycle_10_n02835271_2930.png,n02835271_2930.png,1.0,3.8233635,-0.25366116,2.8828917
alexnet_w3_mlp_simclrhn_probe1,1,8,NaN,cat,knife,4-10-10,0008_eid_dnn_4-10-10_knife_10_n03041632_52848.png,n03041632_52848.png,0.0,-5.827102,-1.7444582,-2.8868654
alexnet_w3_mlp_simclrhn_probe1,1,9,NaN,bottle,bottle,2-10-10,0009_eid_dnn_2-10-10_bottle_10_n02823428_4097.png,n02823428_4097.png,1.0,5.1576853,-2.1242957,5.1491385
alexnet_w3_mlp_simclrhn_probe1,1,10,NaN,dog,dog,8-10-10,0010_eid_dnn_8-10-10_dog_10_n02105641_10264.png,n02105641_10264.png,1.0,0.07278402,-1.2084326,0.905957
alexnet_w3_mlp_simclrhn_probe1,1,11,NaN,oven,boat,8-10-10,0011_eid_dnn_8-10-10_boat_10_n03662601_10278.png,n03662601_10278.png,0.0,-2.8896036,-0.09125032,-1.9787346
alexnet_w3_mlp_simclrhn_probe1,1,12,NaN,oven,truck,32-10-10,0012_eid_dnn_32-10-10_truck_10_n04467665_76958.png,n04467665_76958.png,0.0,-8.279362,-0.55785847,-5.4599276
alexnet_w3_mlp_simclrhn_probe1,1,13,NaN,bear,dog,16-10-10,0013_eid_dnn_16-10-10_dog_10_n02088238_12552.png,n02088238_12552.png,0.0,-2.7403522,-1.6936346,-0.7401411
alexnet_w3_mlp_simclrhn_probe1,1,14,NaN,bear,dog,8-10-10,0014_eid_dnn_8-10-10_dog_10_n02102040_994.png,n02102040_994.png,0.0,-2.8998446,0.5632964,-2.4488106
alexnet_w3_mlp_simclrhn_probe1,1,15,NaN,oven,bear,128-10-10,0015_eid_dnn_128-10-10_bear_10_n02133161_1944.png,n02133161_1944.png,0.0,-1.8226777,-1.3023891,-0.3678996
alexnet_w3_mlp_simclrhn_probe1,1,16,NaN,airplane,car,16-10-10,0016_eid_dnn_16-10-10_car_10_n02814533_43040.png,n02814533_43040.png,0.0,-6.7311187,-2.010291,-3.3381293
alexnet_w3_mlp_simclrhn_probe1,1,17,NaN,oven,oven,128-10-10,0017_eid_dnn_128-10-10_oven_10_n04111531_18592.png,n04111531_18592.png,1.0,-0.37892246,-1.7226359,0.9501489
alexnet_w3_mlp_simclrhn_probe1,1,18,NaN,oven,chair,16-10-10,0018_eid_dnn_16-10-10_chair_10_n02791124_4294.png,n02791124_4294.png,0.0,-5.397474,0.5510085,-4.2062125
alexnet_w3_mlp_simclrhn_probe1,1,19,NaN,oven,knife,32-10-10,0019_eid_dnn_32-10-10_knife_10_n03041632_2630.png,n03041632_2630.png,0.0,-2.7618065,0.4628043,-2.2801442
alexnet_w3_mlp_simclrhn_probe1,1,20,NaN,elephant,elephant,1-10-10,0020_eid_dnn_1-10-10_elephant_10_n02504458_723.png,n02504458_723.png,1.0,9.116543,0.26336622,6.260141
alexnet_w3_mlp_simclrhn_probe1,1,21,NaN,chair,chair,4-10-10,0021_eid_dnn_4-10-10_chair_10_n03376595_6107.png,n03376595_6107.png,1.0,-0.5570047,-1.2328222,0.47787514
alexnet_w3_mlp_simclrhn_probe1,1,22,NaN,oven,clock,32-10-10,0022_eid_dnn_32-10-10_clock_10_n03196217_1337.png,n03196217_1337.png,0.0,-4.748755,0.8556654,-3.9629235
alexnet_w3_mlp_simclrhn_probe1,1,23,NaN,oven,boat,128-10-10,0023_eid_dnn_128-10-10_boat_10_n02951358_9550.png,n02951358_9550.png,0.0,-6.201971,-0.30015978,-4.1732106
alexnet_w3_mlp_simclrhn_probe1,1,24,NaN,bottle,bird,128-10-10,0024_eid_dnn_128-10-10_bird_10_n01616318_2334.png,n01616318_2334.png,0.0,-6.885335,-2.662788,-2.9857917
alexnet_w3_mlp_simclrhn_probe1,1,25,NaN,oven,bottle,32-10-10,0025_eid_dnn_32-10-10_bottle_10_n03937543_1658.png,n03937543_1658.png,0.0,-0.93132067,-0.6784804,-0.17878509
alexnet_w3_mlp_simclrhn_probe1,1,26,NaN,elephant,elephant,2-10-10,0026_eid_dnn_2-10-10_elephant_10_n02504013_6731.png,n02504013_6731.png,1.0,3.7091432,1.6451645,1.4594533
alexnet_w3_mlp_simclrhn_probe1,1,27,NaN,keyboard,keyboard,4-10-10,0027_eid_dnn_4-10-10_keyboard_10_n04505470_4447.png,n04505470_4447.png,1.0,6.151519,-0.40747854,4.6379113
alexnet_w3_mlp_simclrhn_probe1,1,28,NaN,airplane,airplane,1-10-10,0028_eid_dnn_1-10-10_airplane_10_n02690373_4839.png,n02690373_4839.png,1.0,7.2746363,1.8551518,3.8321543
alexnet_w3_mlp_simclrhn_probe1,1,29,NaN,oven,keyboard,64-10-10,0029_eid_dnn_64-10-10_keyboard_10_n04505470_1651.png,n04505470_1651.png,0.0,-9.180379,-1.2868536,-5.5815654
alexnet_w3_mlp_simclrhn_probe1,1,30,NaN,oven,keyboard,32-10-10,0030_eid_dnn_32-10-10_keyboard_10_n03085013_20601.png,n03085013_20601.png,0.0,-2.9823303,-1.6272959,-0.9581541
alexnet_w3_mlp_simclrhn_probe1,1,31,NaN,knife,airplane,64-10-10,0031_eid_dnn_64-10-10_airplane_10_n02690373_2217.png,n02690373_2217.png,0.0,-3.6327417,-2.5698054,-0.7516095
alexnet_w3_mlp_simclrhn_probe1,1,32,NaN,oven,bicycle,4-10-10,0032_eid_dnn_4-10-10_bicycle_10_n03792782_25019.png,n03792782_25019.png,0.0,-1.8173125,-1.0606021,-0.53507507
alexnet_w3_mlp_simclrhn_probe1,1,33,NaN,cat,cat,8-10-10,0033_eid_dnn_8-10-10_cat_10_n02123597_13890.png,n02123597_13890.png,1.0,2.5536253,-1.5327232,2.889485
alexnet_w3_mlp_simclrhn_probe1,1,34,NaN,boat,boat,1-10-10,0034_eid_dnn_1-10-10_boat_10_n04612504_214.png,n04612504_214.png,1.0,4.168811,-1.8239293,4.2375073
alexnet_w3_mlp_simclrhn_probe1,1,35,NaN,bear,chair,128-10-10,0035_eid_dnn_128-10-10_chair_10_n02791124_2555.png,n02791124_2555.png,0.0,-6.4327936,-0.716173,-4.042261
alexnet_w3_mlp_simclrhn_probe1,1,36,NaN,car,car,4-10-10,0036_eid_dnn_4-10-10_car_10_n04285008_2081.png,n04285008_2081.png,1.0,-0.1393835,-1.3243134,0.83787197
alexnet_w3_mlp_simclrhn_probe1,1,37,NaN,bear,dog,32-10-10,0037_eid_dnn_32-10-10_dog_10_n02094114_8202.png,n02094114_8202.png,0.0,-1.9565161,-1.0793833,-0.6202266
alexnet_w3_mlp_simclrhn_probe1,1,38,NaN,oven,chair,64-10-10,0038_eid_dnn_64-10-10_chair_10_n04099969_4541.png,n04099969_4541.png,0.0,-7.6455865,-1.2270463,-4.5385933
alexnet_w3_mlp_simclrhn_probe1,1,39,NaN,elephant,boat,128-10-10,0039_eid_dnn_128-10-10_boat_10_n04612504_12864.png,n04612504_12864.png,0.0,-5.499812,-1.4453381,-2.866946
alexnet_w3_mlp_simclrhn_probe1,1,40,NaN,airplane,airplane,4-10-10,0040_eid_dnn_4-10-10_airplane_10_n02690373_18460.png,n02690373_18460.png,1.0,2.3804808,-1.8165202,2.967728
alexnet_w3_mlp_simclrhn_probe1,1,41,NaN,bear,bottle,64-10-10,0041_eid_dnn_64-10-10_bottle_10_n03983396_8982.png,n03983396_8982.png,0.0,-4.818355,-1.6119927,-2.2672405
alexnet_w3_mlp_simclrhn_probe1,1,42,NaN,bear,dog,16-10-10,0042_eid_dnn_16-10-10_dog_10_n02099601_10407.png,n02099601_10407.png,0.0,-3.1374116,0.5729049,-2.62359
alexnet_w3_mlp_simclrhn_probe1,1,43,NaN,oven,airplane,32-10-10,0043_eid_dnn_32-10-10_airplane_10_n02690373_5253.png,n02690373_5253.png,0.0,-3.274294,-0.7383206,-1.793204
alexnet_w3_mlp_simclrhn_probe1,1,44,NaN,elephant,elephant,2-10-10,0044_eid_dnn_2-10-10_elephant_10_n02504013_2832.png,n02504013_2832.png,1.0,8.510284,3.4394426,3.5856266
alexnet_w3_mlp_simclrhn_probe1,1,45,NaN,clock,clock,1-10-10,0045_eid_dnn_1-10-10_clock_10_n02708093_8002.png,n02708093_8002.png,1.0,1.4520298,-0.7823017,1.5799111
alexnet_w3_mlp_simclrhn_probe1,1,46,NaN,chair,chair,2-10-10,0046_eid_dnn_2-10-10_chair_10_n03376595_1766.png,n03376595_1766.png,1.0,1.496307,-1.3572571,2.0177746
alexnet_w3_mlp_simclrhn_probe1,1,47,NaN,truck,truck,2-10-10,0047_eid_dnn_2-10-10_truck_10_n03417042_17616.png,n03417042_17616.png,1.0,2.5823753,1.5750008,0.71232134
alexnet_w3_mlp_simclrhn_probe1,1,48,NaN,bear,bear,16-10-10,0048_eid_dnn_16-10-10_bear_10_n02134418_2804.png,n02134418_2804.png,1.0,1.7041943,-1.2169803,2.0655823
alexnet_w3_mlp_simclrhn_probe1,1,49,NaN,bear,car,64-10-10,0049_eid_dnn_64-10-10_car_10_n04285008_12101.png,n04285008_12101.png,0.0,-9.668758,-1.1835337,-5.99996
alexnet_w3_mlp_simclrhn_probe1,1,50,NaN,bear,bear,16-10-10,0050_eid_dnn_16-10-10_bear_10_n02134418_3828.png,n02134418_3828.png,1.0,0.7118983,-0.39867017,0.78529054
alexnet_w3_mlp_simclrhn_probe1,1,51,NaN,bird,bird,2-10-10,0051_eid_dnn_2-10-10_bird_10_n01530575_5747.png,n01530575_5747.png,1.0,1.7882622,-6.433167,5.8134284
alexnet_w3_mlp_simclrhn_probe1,1,52,NaN,oven,truck,128-10-10,0052_eid_dnn_128-10-10_truck_10_n03796401_3386.png,n03796401_3386.png,0.0,-10.285288,0.8290883,-7.8590508
alexnet_w3_mlp_simclrhn_probe1,1,53,NaN,oven,keyboard,16-10-10,0053_eid_dnn_16-10-10_keyboard_10_n04505470_3234.png,n04505470_3234.png,0.0,-5.257985,-2.0596273,-2.2615805
alexnet_w3_mlp_simclrhn_probe1,1,54,NaN,airplane,truck,1-10-10,0054_eid_dnn_1-10-10_truck_10_n04467665_72639.png,n04467665_72639.png,0.0,-1.031848,2.9839697,-2.839612
alexnet_w3_mlp_simclrhn_probe1,1,55,NaN,oven,chair,32-10-10,0055_eid_dnn_32-10-10_chair_10_n04429376_27524.png,n04429376_27524.png,0.0,-8.517326,1.570477,-7.133154
alexnet_w3_mlp_simclrhn_probe1,1,56,NaN,oven,bottle,64-10-10,0056_eid_dnn_64-10-10_bottle_10_n04557648_11440.png,n04557648_11440.png,0.0,-1.9386631,-1.6815002,-0.18184166
alexnet_w3_mlp_simclrhn_probe1,1,57,NaN,oven,keyboard,32-10-10,0057_eid_dnn_32-10-10_keyboard_10_n03085013_20216.png,n03085013_20216.png,0.0,-6.7420526,1.7118404,-5.977805
alexnet_w3_mlp_simclrhn_probe1,1,58,NaN,bear,boat,8-10-10,0058_eid_dnn_8-10-10_boat_10_n02951358_34653.png,n02951358_34653.png,0.0,-4.2111053,-1.110842,-2.1922174
alexnet_w3_mlp_simclrhn_probe1,1,59,NaN,keyboard,keyboard,2-10-10,0059_eid_dnn_2-10-10_keyboard_10_n03085013_8932.png,n03085013_8932.png,1.0,-0.033420652,-2.0342503,1.4148003
alexnet_w3_mlp_simclrhn_probe1,1,60,NaN,cat,cat,1-10-10,0060_eid_dnn_1-10-10_cat_10_n02125311_35338.png,n02125311_35338.png,1.0,-1.1529294,-1.5018642,0.24673414
alexnet_w3_mlp_simclrhn_probe1,1,61,NaN,oven,bicycle,16-10-10,0061_eid_dnn_16-10-10_bicycle_10_n03792782_5449.png,n03792782_5449.png,0.0,-5.330041,0.34141502,-4.010325
alexnet_w3_mlp_simclrhn_probe1,1,62,NaN,bicycle,bicycle,4-10-10,0062_eid_dnn_4-10-10_bicycle_10_n03792782_9432.png,n03792782_9432.png,1.0,-0.38604516,-0.47187382,0.06069003
alexnet_w3_mlp_simclrhn_probe1,1,63,NaN,oven,bottle,1-10-10,0063_eid_dnn_1-10-10_bottle_10_n04591713_4291.png,n04591713_4291.png,0.0,-3.6743524,-1.4038184,-1.60551
alexnet_w3_mlp_simclrhn_probe1,1,64,NaN,truck,truck,4-10-10,0064_eid_dnn_4-10-10_truck_10_n04467665_67057.png,n04467665_67057.png,1.0,-0.06045848,-1.8180841,1.242829
alexnet_w3_mlp_simclrhn_probe1,1,65,NaN,oven,keyboard,1-10-10,0065_eid_dnn_1-10-10_keyboard_10_n03085013_22790.png,n03085013_22790.png,0.0,-3.7038689,-1.4615291,-1.5855736
alexnet_w3_mlp_simclrhn_probe1,1,66,NaN,cat,dog,4-10-10,0066_eid_dnn_4-10-10_dog_10_n02086079_2896.png,n02086079_2896.png,0.0,-1.1480869,-0.87298435,-0.19452688
alexnet_w3_mlp_simclrhn_probe1,1,67,NaN,boat,knife,8-10-10,0067_eid_dnn_8-10-10_knife_10_n03041632_40508.png,n03041632_40508.png,0.0,-3.2154455,-2.0862718,-0.7984464
alexnet_w3_mlp_simclrhn_probe1,1,68,NaN,boat,boat,1-10-10,0068_eid_dnn_1-10-10_boat_10_n03344393_7942.png,n03344393_7942.png,1.0,0.39180562,0.08187395,0.21915479
alexnet_w3_mlp_simclrhn_probe1,1,69,NaN,bear,bear,2-10-10,0069_eid_dnn_2-10-10_bear_10_n02134418_4352.png,n02134418_4352.png,1.0,3.5712457,-0.3863318,2.79843
alexnet_w3_mlp_simclrhn_probe1,1,70,NaN,oven,cat,16-10-10,0070_eid_dnn_16-10-10_cat_10_n02123045_5157.png,n02123045_5157.png,0.0,-2.453711,0.4009406,-2.0185437
alexnet_w3_mlp_simclrhn_probe1,1,71,NaN,bear,dog,16-10-10,0071_eid_dnn_16-10-10_dog_10_n02109047_14287.png,n02109047_14287.png,0.0,-1.9117204,-0.680738,-0.870436
alexnet_w3_mlp_simclrhn_probe1,1,72,NaN,truck,truck,2-10-10,0072_eid_dnn_2-10-10_truck_10_n03417042_14274.png,n03417042_14274.png,1.0,2.6170568,0.057166647,1.8101158
alexnet_w3_mlp_simclrhn_probe1,1,73,NaN,bird,airplane,2-10-10,0073_eid_dnn_2-10-10_airplane_10_n02690373_5885.png,n02690373_5885.png,0.0,-1.6675587,-1.0250728,-0.45430613
alexnet_w3_mlp_simclrhn_probe1,1,74,NaN,oven,cat,32-10-10,0074_eid_dnn_32-10-10_cat_10_n02123394_571.png,n02123394_571.png,0.0,-2.2475526,-2.2109127,-0.025908343
alexnet_w3_mlp_simclrhn_probe1,1,75,NaN,oven,cat,32-10-10,0075_eid_dnn_32-10-10_cat_10_n02123045_10171.png,n02123045_10171.png,0.0,-1.7008322,-1.4190685,-0.1992371
alexnet_w3_mlp_simclrhn_probe1,1,76,NaN,bottle,bottle,8-10-10,0076_eid_dnn_8-10-10_bottle_10_n04560804_4909.png,n04560804_4909.png,1.0,-2.2107844,-2.5004582,0.20483032
alexnet_w3_mlp_simclrhn_probe1,1,77,NaN,keyboard,keyboard,8-10-10,0077_eid_dnn_8-10-10_keyboard_10_n03085013_7971.png,n03085013_7971.png,1.0,-2.2613618,-2.8026962,0.38278124
alexnet_w3_mlp_simclrhn_probe1,1,78,NaN,oven,keyboard,16-10-10,0078_eid_dnn_16-10-10_keyboard_10_n03085013_21397.png,n03085013_21397.png,0.0,-5.798993,-1.2722653,-3.2008798
alexnet_w3_mlp_simclrhn_probe1,1,79,NaN,bear,elephant,32-10-10,0079_eid_dnn_32-10-10_elephant_10_n02504458_4187.png,n02504458_4187.png,0.0,-1.3968337,0.4328627,-1.2937908
alexnet_w3_mlp_simclrhn_probe1,1,80,NaN,bear,clock,8-10-10,0080_eid_dnn_8-10-10_clock_10_n03196217_6689.png,n03196217_6689.png,0.0,-7.532615,0.12475163,-5.414576
alexnet_w3_mlp_simclrhn_probe1,1,81,NaN,knife,knife,4-10-10,0081_eid_dnn_4-10-10_knife_10_n03041632_26236.png,n03041632_26236.png,1.0,-1.7627145,-2.102068,0.23995912
alexnet_w3_mlp_simclrhn_probe1,1,82,NaN,oven,car,8-10-10,0082_eid_dnn_8-10-10_car_10_n03100240_1262.png,n03100240_1262.png,0.0,-3.736371,-1.9249672,-1.280856
alexnet_w3_mlp_simclrhn_probe1,1,83,NaN,oven,keyboard,64-10-10,0083_eid_dnn_64-10-10_keyboard_10_n04505470_5059.png,n04505470_5059.png,0.0,-7.07417,-0.879037,-4.380621
alexnet_w3_mlp_simclrhn_probe1,1,84,NaN,bird,bird,1-10-10,0084_eid_dnn_1-10-10_bird_10_n01537544_26417.png,n01537544_26417.png,1.0,0.5391881,-3.9173818,3.1512706
alexnet_w3_mlp_simclrhn_probe1,1,85,NaN,bear,bird,32-10-10,0085_eid_dnn_32-10-10_bird_10_n02009912_5714.png,n02009912_5714.png,0.0,-6.4132547,-0.14897624,-4.429514
alexnet_w3_mlp_simclrhn_probe1,1,86,NaN,oven,chair,128-10-10,0086_eid_dnn_128-10-10_chair_10_n03376595_5972.png,n03376595_5972.png,0.0,-8.279677,0.31715608,-6.0788794
alexnet_w3_mlp_simclrhn_probe1,1,87,NaN,oven,chair,2-10-10,0087_eid_dnn_2-10-10_chair_10_n04429376_805.png,n04429376_805.png,0.0,-0.53632367,-0.34777427,-0.13332456
alexnet_w3_mlp_simclrhn_probe1,1,88,NaN,bear,bicycle,128-10-10,0088_eid_dnn_128-10-10_bicycle_10_n03792782_4083.png,n03792782_4083.png,0.0,-4.543537,-1.2291937,-2.3435948
alexnet_w3_mlp_simclrhn_probe1,1,89,NaN,clock,clock,1-10-10,0089_eid_dnn_1-10-10_clock_10_n02708093_798.png,n02708093_798.png,1.0,0.3620542,-0.54963064,0.64465857
alexnet_w3_mlp_simclrhn_probe1,1,90,NaN,bear,bear,1-10-10,0090_eid_dnn_1-10-10_bear_10_n02133161_1660.png,n02133161_1660.png,1.0,3.0558305,-0.6001844,2.585193
alexnet_w3_mlp_simclrhn_probe1,1,91,NaN,oven,car,8-10-10,0091_eid_dnn_8-10-10_car_10_n04285008_9464.png,n04285008_9464.png,0.0,-7.247999,1.1505587,-5.9386773
alexnet_w3_mlp_simclrhn_probe1,1,92,NaN,oven,oven,16-10-10,0092_eid_dnn_16-10-10_oven_10_n04111531_3314.png,n04111531_3314.png,1.0,1.336705,-1.9181367,2.3015208
alexnet_w3_mlp_simclrhn_probe1,1,93,NaN,bear,cat,128-10-10,0093_eid_dnn_128-10-10_cat_10_n02123394_5753.png,n02123394_5753.png,0.0,-1.9730672,-0.33366406,-1.1592331
alexnet_w3_mlp_simclrhn_probe1,1,94,NaN,boat,boat,2-10-10,0094_eid_dnn_2-10-10_boat_10_n02951358_34042.png,n02951358_34042.png,1.0,0.50986737,-0.7506905,0.891349
alexnet_w3_mlp_simclrhn_probe1,1,95,NaN,bear,truck,64-10-10,0095_eid_dnn_64-10-10_truck_10_n03417042_7588.png,n03417042_7588.png,0.0,-8.539629,-1.138774,-5.233195
alexnet_w3_mlp_simclrhn_probe1,1,96,NaN,oven,truck,32-10-10,0096_eid_dnn_32-10-10_truck_10_n03417042_4200.png,n03417042_4200.png,0.0,-7.8765163,2.360168,-7.2384295
alexnet_w3_mlp_simclrhn_probe1,1,97,NaN,airplane,airplane,4-10-10,0097_eid_dnn_4-10-10_airplane_10_n02690373_4335.png,n02690373_4335.png,1.0,3.1163476,-1.0729595,2.9622877
alexnet_w3_mlp_simclrhn_probe1,1,98,NaN,oven,elephant,128-10-10,0098_eid_dnn_128-10-10_elephant_10_n02504458_6823.png,n02504458_6823.png,0.0,-3.1366563,-2.0331216,-0.7803169
alexnet_w3_mlp_simclrhn_probe1,1,99,NaN,boat,boat,4-10-10,0099_eid_dnn_4-10-10_boat_10_n03344393_4214.png,n03344393_4214.png,1.0,2.8445363,1.0977149,1.2351893
alexnet_w3_mlp_simclrhn_probe1,1,100,NaN,keyboard,keyboard,4-10-10,0100_eid_dnn_4-10-10_keyboard_10_n03085013_22949.png,n03085013_22949.png,1.0,2.5516777,-1.0822613,2.569583
alexnet_w3_mlp_simclrhn_probe1,1,101,NaN,bear,bear,64-10-10,0101_eid_dnn_64-10-10_bear_10_n02132136_31664.png,n02132136_31664.png,1.0,-2.0726347,-2.6175427,0.38530818
alexnet_w3_mlp_simclrhn_probe1,1,102,NaN,bottle,bottle,8-10-10,0102_eid_dnn_8-10-10_bottle_10_n03983396_1985.png,n03983396_1985.png,1.0,-2.6965852,-3.2418256,0.3855432
alexnet_w3_mlp_simclrhn_probe1,1,103,NaN,airplane,airplane,2-10-10,0103_eid_dnn_2-10-10_airplane_10_n02690373_9266.png,n02690373_9266.png,1.0,6.1699963,-1.6909739,5.558545
alexnet_w3_mlp_simclrhn_probe1,1,104,NaN,bear,bottle,128-10-10,0104_eid_dnn_128-10-10_bottle_10_n02823428_5961.png,n02823428_5961.png,0.0,-4.477571,-1.2573326,-2.2770524
alexnet_w3_mlp_simclrhn_probe1,1,105,NaN,bottle,bottle,4-10-10,0105_eid_dnn_4-10-10_bottle_10_n04579145_1856.png,n04579145_1856.png,1.0,0.9164688,0.03207942,0.62535775
alexnet_w3_mlp_simclrhn_probe1,1,106,NaN,bear,clock,64-10-10,0106_eid_dnn_64-10-10_clock_10_n02708093_7810.png,n02708093_7810.png,0.0,-6.646385,-0.17843035,-4.5735345
alexnet_w3_mlp_simclrhn_probe1,1,107,NaN,dog,dog,1-10-10,0107_eid_dnn_1-10-10_dog_10_n02100735_4949.png,n02100735_4949.png,1.0,0.7796843,-2.2626317,2.1512423
alexnet_w3_mlp_simclrhn_probe1,1,108,NaN,oven,chair,32-10-10,0108_eid_dnn_32-10-10_chair_10_n03376595_7275.png,n03376595_7275.png,0.0,-7.5413594,-1.8610744,-4.016568
alexnet_w3_mlp_simclrhn_probe1,1,109,NaN,bottle,bottle,2-10-10,0109_eid_dnn_2-10-10_bottle_10_n03983396_16741.png,n03983396_16741.png,1.0,1.4007312,-0.14780691,1.0949818
alexnet_w3_mlp_simclrhn_probe1,1,110,NaN,oven,boat,32-10-10,0110_eid_dnn_32-10-10_boat_10_n04612504_8719.png,n04612504_8719.png,0.0,-5.5869875,-1.4045887,-2.9574027
alexnet_w3_mlp_simclrhn_probe1,1,111,NaN,chair,chair,1-10-10,0111_eid_dnn_1-10-10_chair_10_n02791124_3570.png,n02791124_3570.png,1.0,3.2371175,-1.4929212,3.3446424
alexnet_w3_mlp_simclrhn_probe1,1,112,NaN,bear,bear,32-10-10,0112_eid_dnn_32-10-10_bear_10_n02132136_9557.png,n02132136_9557.png,1.0,0.71192086,-0.5069097,0.8618434
alexnet_w3_mlp_simclrhn_probe1,1,113,NaN,bear,bird,64-10-10,0113_eid_dnn_64-10-10_bird_10_n02002556_5730.png,n02002556_5730.png,0.0,-3.8193572,0.33259124,-2.935871
alexnet_w3_mlp_simclrhn_probe1,1,114,NaN,oven,oven,4-10-10,0114_eid_dnn_4-10-10_oven_10_n04111531_8959.png,n04111531_8959.png,1.0,0.8119199,-4.106828,3.47808
alexnet_w3_mlp_simclrhn_probe1,1,115,NaN,elephant,cat,128-10-10,0115_eid_dnn_128-10-10_cat_10_n02123159_8101.png,n02123159_8101.png,0.0,-1.7944465,-0.029459864,-1.248034
alexnet_w3_mlp_simclrhn_probe1,1,116,NaN,dog,cat,8-10-10,0116_eid_dnn_8-10-10_cat_10_n02123597_8890.png,n02123597_8890.png,0.0,-1.045352,-0.6382064,-0.28789538
alexnet_w3_mlp_simclrhn_probe1,1,117,NaN,elephant,elephant,1-10-10,0117_eid_dnn_1-10-10_elephant_10_n02504458_220.png,n02504458_220.png,1.0,9.367683,1.3735887,5.652679
alexnet_w3_mlp_simclrhn_probe1,1,118,NaN,bear,bicycle,128-10-10,0118_eid_dnn_128-10-10_bicycle_10_n02835271_2651.png,n02835271_2651.png,0.0,-3.0168507,-1.1273636,-1.3360692
alexnet_w3_mlp_simclrhn_probe1,1,119,NaN,oven,keyboard,64-10-10,0119_eid_dnn_64-10-10_keyboard_10_n04505470_1581.png,n04505470_1581.png,0.0,-8.792075,-1.7345937,-4.990393
alexnet_w3_mlp_simclrhn_probe1,1,120,NaN,truck,truck,4-10-10,0120_eid_dnn_4-10-10_truck_10_n04467665_1719.png,n04467665_1719.png,1.0,1.8331485,0.79653996,0.7329929
alexnet_w3_mlp_simclrhn_probe1,1,121,NaN,truck,truck,2-10-10,0121_eid_dnn_2-10-10_truck_10_n04467665_30756.png,n04467665_30756.png,1.0,7.662963,2.7981188,3.4399645
alexnet_w3_mlp_simclrhn_probe1,1,122,NaN,oven,oven,64-10-10,0122_eid_dnn_64-10-10_oven_10_n04111531_1818.png,n04111531_1818.png,1.0,-0.41053754,-1.3353851,0.653966
alexnet_w3_mlp_simclrhn_probe1,1,123,NaN,bear,elephant,64-10-10,0123_eid_dnn_64-10-10_elephant_10_n02504013_2974.png,n02504013_2974.png,0.0,0.103678495,0.1482675,-0.031529184
alexnet_w3_mlp_simclrhn_probe1,1,124,NaN,oven,bicycle,128-10-10,0124_eid_dnn_128-10-10_bicycle_10_n03792782_7713.png,n03792782_7713.png,0.0,-3.7327776,-1.7592177,-1.3955176
alexnet_w3_mlp_simclrhn_probe1,1,125,NaN,oven,clock,16-10-10,0125_eid_dnn_16-10-10_clock_10_n04548280_9700.png,n04548280_9700.png,0.0,-3.148304,0.26118153,-2.4108703
alexnet_w3_mlp_simclrhn_probe1,1,126,NaN,oven,bottle,16-10-10,0126_eid_dnn_16-10-10_bottle_10_n04591713_1174.png,n04591713_1174.png,0.0,-4.0842223,-0.88025653,-2.2655458
alexnet_w3_mlp_simclrhn_probe1,1,127,NaN,bear,bear,64-10-10,0127_eid_dnn_64-10-10_bear_10_n02134418_1395.png,n02134418_1395.png,1.0,0.14064993,-1.3254409,1.0366827
alexnet_w3_mlp_simclrhn_probe1,1,128,NaN,oven,bottle,128-10-10,0128_eid_dnn_128-10-10_bottle_10_n04591713_36.png,n04591713_36.png,0.0,-4.010346,0.1703515,-2.9561996
alexnet_w3_mlp_simclrhn_probe1,1,129,NaN,oven,knife,8-10-10,0129_eid_dnn_8-10-10_knife_10_n03041632_21034.png,n03041632_21034.png,0.0,-2.377038,-2.0594277,-0.22458437
alexnet_w3_mlp_simclrhn_probe1,1,130,NaN,bicycle,bicycle,1-10-10,0130_eid_dnn_1-10-10_bicycle_10_n03792782_11115.png,n03792782_11115.png,1.0,13.032042,-2.8810022,11.252221
alexnet_w3_mlp_simclrhn_probe1,1,131,NaN,oven,truck,16-10-10,0131_eid_dnn_16-10-10_truck_10_n03417042_5381.png,n03417042_5381.png,0.0,-7.4004602,1.6453675,-6.396366
alexnet_w3_mlp_simclrhn_probe1,1,132,NaN,bear,boat,64-10-10,0132_eid_dnn_64-10-10_boat_10_n04612504_15258.png,n04612504_15258.png,0.0,-5.875993,0.3722215,-4.4181547
alexnet_w3_mlp_simclrhn_probe1,1,133,NaN,boat,boat,2-10-10,0133_eid_dnn_2-10-10_boat_10_n03662601_11972.png,n03662601_11972.png,1.0,4.3831716,-0.25513223,3.279776
alexnet_w3_mlp_simclrhn_probe1,1,134,NaN,oven,dog,64-10-10,0134_eid_dnn_64-10-10_dog_10_n02092002_11459.png,n02092002_11459.png,0.0,-2.5576215,-0.16596262,-1.6911582
alexnet_w3_mlp_simclrhn_probe1,1,135,NaN,oven,clock,64-10-10,0135_eid_dnn_64-10-10_clock_10_n04548280_6605.png,n04548280_6605.png,0.0,-4.12805,-1.8239299,-1.629259
alexnet_w3_mlp_simclrhn_probe1,1,136,NaN,bear,boat,64-10-10,0136_eid_dnn_64-10-10_boat_10_n03662601_5600.png,n03662601_5600.png,0.0,-2.1177247,-1.2918754,-0.58396363
alexnet_w3_mlp_simclrhn_probe1,1,137,NaN,airplane,bear,32-10-10,0137_eid_dnn_32-10-10_bear_10_n02134084_8153.png,n02134084_8153.png,0.0,-2.358453,-1.9415491,-0.29479563
alexnet_w3_mlp_simclrhn_probe1,1,138,NaN,oven,cat,64-10-10,0138_eid_dnn_64-10-10_cat_10_n02124075_9225.png,n02124075_9225.png,0.0,-4.710461,-0.6728374,-2.8550313
alexnet_w3_mlp_simclrhn_probe1,1,139,NaN,oven,bicycle,8-10-10,0139_eid_dnn_8-10-10_bicycle_10_n03792782_3591.png,n03792782_3591.png,0.0,-4.48574,0.6521883,-3.633064
alexnet_w3_mlp_simclrhn_probe1,1,140,NaN,bear,dog,64-10-10,0140_eid_dnn_64-10-10_dog_10_n02107142_31661.png,n02107142_31661.png,0.0,-2.172132,0.07509644,-1.5890305
alexnet_w3_mlp_simclrhn_probe1,1,141,NaN,elephant,elephant,8-10-10,0141_eid_dnn_8-10-10_elephant_10_n02504458_651.png,n02504458_651.png,1.0,6.3462276,3.747653,1.8374698
alexnet_w3_mlp_simclrhn_probe1,1,142,NaN,oven,dog,128-10-10,0142_eid_dnn_128-10-10_dog_10_n02110958_15217.png,n02110958_15217.png,0.0,-2.4319062,-0.038940325,-1.6920824
alexnet_w3_mlp_simclrhn_probe1,1,143,NaN,oven,oven,4-10-10,0143_eid_dnn_4-10-10_oven_10_n04111531_523.png,n04111531_523.png,1.0,0.71131027,-1.7348878,1.7297232
alexnet_w3_mlp_simclrhn_probe1,1,144,NaN,car,car,4-10-10,0144_eid_dnn_4-10-10_car_10_n02814533_42884.png,n02814533_42884.png,1.0,1.109456,-1.589509,1.9084566
alexnet_w3_mlp_simclrhn_probe1,1,145,NaN,oven,car,64-10-10,0145_eid_dnn_64-10-10_car_10_n04285008_8017.png,n04285008_8017.png,0.0,-9.809117,-0.25128183,-6.7584105
alexnet_w3_mlp_simclrhn_probe1,1,146,NaN,car,car,1-10-10,0146_eid_dnn_1-10-10_car_10_n03100240_16766.png,n03100240_16766.png,1.0,1.9818412,0.6282511,0.95713276
alexnet_w3_mlp_simclrhn_probe1,1,147,NaN,elephant,elephant,8-10-10,0147_eid_dnn_8-10-10_elephant_10_n02504458_4593.png,n02504458_4593.png,1.0,5.310579,1.8300875,2.461079
alexnet_w3_mlp_simclrhn_probe1,1,148,NaN,oven,chair,64-10-10,0148_eid_dnn_64-10-10_chair_10_n02791124_1358.png,n02791124_1358.png,0.0,-12.3822155,-2.1833959,-7.211655
alexnet_w3_mlp_simclrhn_probe1,1,149,NaN,dog,dog,16-10-10,0149_eid_dnn_16-10-10_dog_10_n02095314_5363.png,n02095314_5363.png,1.0,-1.5983404,-1.7326517,0.09497245
alexnet_w3_mlp_simclrhn_probe1,1,150,NaN,clock,clock,8-10-10,0150_eid_dnn_8-10-10_clock_10_n04548280_1413.png,n04548280_1413.png,1.0,-1.7727028,-1.8885255,0.081899
alexnet_w3_mlp_simclrhn_probe1,1,151,NaN,dog,dog,1-10-10,0151_eid_dnn_1-10-10_dog_10_n02105641_10948.png,n02105641_10948.png,1.0,1.518856,-5.137241,4.7065716
alexnet_w3_mlp_simclrhn_probe1,1,152,NaN,bear,dog,1-10-10,0152_eid_dnn_1-10-10_dog_10_n02113624_1691.png,n02113624_1691.png,0.0,-0.40699306,2.537629,-2.0821621
alexnet_w3_mlp_simclrhn_probe1,1,153,NaN,car,car,4-10-10,0153_eid_dnn_4-10-10_car_10_n03100240_2235.png,n03100240_2235.png,1.0,3.3346841,2.9017982,0.30609655
alexnet_w3_mlp_simclrhn_probe1,1,154,NaN,oven,chair,2-10-10,0154_eid_dnn_2-10-10_chair_10_n04099969_56470.png,n04099969_56470.png,0.0,-1.2701025,-1.0000731,-0.19093964
alexnet_w3_mlp_simclrhn_probe1,1,155,NaN,oven,oven,2-10-10,0155_eid_dnn_2-10-10_oven_10_n04111531_5429.png,n04111531_5429.png,1.0,5.738405,-0.8645029,4.668961
alexnet_w3_mlp_simclrhn_probe1,1,156,NaN,oven,keyboard,64-10-10,0156_eid_dnn_64-10-10_keyboard_10_n03085013_19317.png,n03085013_19317.png,0.0,-8.44768,-1.4498532,-4.948211
alexnet_w3_mlp_simclrhn_probe1,1,157,NaN,bird,bird,64-10-10,0157_eid_dnn_64-10-10_bird_10_n01601694_19650.png,n01601694_19650.png,1.0,-2.7614267,-3.011561,0.17687161
alexnet_w3_mlp_simclrhn_probe1,1,158,NaN,oven,clock,128-10-10,0158_eid_dnn_128-10-10_clock_10_n03196217_11199.png,n03196217_11199.png,0.0,-6.1076756,-0.447474,-4.002367
alexnet_w3_mlp_simclrhn_probe1,1,159,NaN,bear,bottle,32-10-10,0159_eid_dnn_32-10-10_bottle_10_n03937543_2209.png,n03937543_2209.png,0.0,-3.8144348,-1.7404749,-1.4665111
alexnet_w3_mlp_simclrhn_probe1,1,160,NaN,oven,car,64-10-10,0160_eid_dnn_64-10-10_car_10_n03100240_16939.png,n03100240_16939.png,0.0,-9.026885,0.7276122,-6.8974714
alexnet_w3_mlp_simclrhn_probe1,1,161,NaN,oven,bottle,8-10-10,0161_eid_dnn_8-10-10_bottle_10_n04591713_2501.png,n04591713_2501.png,0.0,-2.1015723,-0.34924015,-1.2390859
alexnet_w3_mlp_simclrhn_probe1,1,162,NaN,airplane,airplane,16-10-10,0162_eid_dnn_16-10-10_airplane_10_n02690373_10395.png,n02690373_10395.png,1.0,0.40081993,-1.6837342,1.4740025
alexnet_w3_mlp_simclrhn_probe1,1,163,NaN,oven,oven,8-10-10,0163_eid_dnn_8-10-10_oven_10_n04111531_3286.png,n04111531_3286.png,1.0,2.1408973,-3.0287697,3.6555068
alexnet_w3_mlp_simclrhn_probe1,1,164,NaN,oven,boat,64-10-10,0164_eid_dnn_64-10-10_boat_10_n04273569_13401.png,n04273569_13401.png,0.0,-8.23434,1.7572061,-7.0650897
alexnet_w3_mlp_simclrhn_probe1,1,165,NaN,bear,elephant,64-10-10,0165_eid_dnn_64-10-10_elephant_10_n02504458_12776.png,n02504458_12776.png,0.0,-2.2712913,-0.66677314,-1.1345657
alexnet_w3_mlp_simclrhn_probe1,1,166,NaN,bird,bird,2-10-10,0166_eid_dnn_2-10-10_bird_10_n01828970_997.png,n01828970_997.png,1.0,2.3107388,-1.5893726,2.7577953
alexnet_w3_mlp_simclrhn_probe1,1,167,NaN,bear,bear,8-10-10,0167_eid_dnn_8-10-10_bear_10_n02132136_10318.png,n02132136_10318.png,1.0,1.9293137,0.28258398,1.1644138
alexnet_w3_mlp_simclrhn_probe1,1,168,NaN,oven,oven,32-10-10,0168_eid_dnn_32-10-10_oven_10_n04111531_7883.png,n04111531_7883.png,1.0,2.7412934,-3.443209,4.3731036
alexnet_w3_mlp_simclrhn_probe1,1,169,NaN,oven,clock,128-10-10,0169_eid_dnn_128-10-10_clock_10_n02708093_725.png,n02708093_725.png,0.0,-3.7536945,-0.9493544,-1.982968
alexnet_w3_mlp_simclrhn_probe1,1,170,NaN,oven,bottle,16-10-10,0170_eid_dnn_16-10-10_bottle_10_n04557648_2052.png,n04557648_2052.png,0.0,-3.2053208,1.2036382,-3.1176047
alexnet_w3_mlp_simclrhn_probe1,1,171,NaN,oven,keyboard,32-10-10,0171_eid_dnn_32-10-10_keyboard_10_n04505470_5036.png,n04505470_5036.png,0.0,-6.214472,1.5461986,-5.4876227
alexnet_w3_mlp_simclrhn_probe1,1,172,NaN,elephant,elephant,8-10-10,0172_eid_dnn_8-10-10_elephant_10_n02504458_13352.png,n02504458_13352.png,1.0,3.7727556,1.487867,1.6156603
alexnet_w3_mlp_simclrhn_probe1,1,173,NaN,dog,chair,4-10-10,0173_eid_dnn_4-10-10_chair_10_n04429376_30620.png,n04429376_30620.png,0.0,-1.1701307,-0.84966224,-0.22660545
alexnet_w3_mlp_simclrhn_probe1,1,174,NaN,bear,boat,16-10-10,0174_eid_dnn_16-10-10_boat_10_n03662601_2980.png,n03662601_2980.png,0.0,-2.1446466,-1.4483539,-0.49235335
alexnet_w3_mlp_simclrhn_probe1,1,175,NaN,boat,boat,8-10-10,0175_eid_dnn_8-10-10_boat_10_n03662601_4734.png,n03662601_4734.png,1.0,-2.1038616,-2.808607,0.49833035
alexnet_w3_mlp_simclrhn_probe1,1,176,NaN,bear,bear,2-10-10,0176_eid_dnn_2-10-10_bear_10_n02134418_4754.png,n02134418_4754.png,1.0,4.1775346,0.16402715,2.8379784
alexnet_w3_mlp_simclrhn_probe1,1,177,NaN,elephant,elephant,2-10-10,0177_eid_dnn_2-10-10_elephant_10_n02504013_8522.png,n02504013_8522.png,1.0,7.454831,2.8668218,3.2442126
alexnet_w3_mlp_simclrhn_probe1,1,178,NaN,oven,bottle,64-10-10,0178_eid_dnn_64-10-10_bottle_10_n03937543_4863.png,n03937543_4863.png,0.0,-4.4345617,-0.14458841,-3.0334692
alexnet_w3_mlp_simclrhn_probe1,1,179,NaN,oven,car,16-10-10,0179_eid_dnn_16-10-10_car_10_n04285008_10802.png,n04285008_10802.png,0.0,-8.702623,1.3162587,-7.0844193
alexnet_w3_mlp_simclrhn_probe1,1,180,NaN,oven,knife,64-10-10,0180_eid_dnn_64-10-10_knife_10_n03041632_6708.png,n03041632_6708.png,0.0,-2.7704794,0.24651845,-2.1333396
alexnet_w3_mlp_simclrhn_probe1,1,181,NaN,elephant,dog,1-10-10,0181_eid_dnn_1-10-10_dog_10_n02107142_61109.png,n02107142_61109.png,0.0,-1.4803703,0.74079317,-1.5705998
alexnet_w3_mlp_simclrhn_probe1,1,182,NaN,knife,clock,2-10-10,0182_eid_dnn_2-10-10_clock_10_n03196217_8139.png,n03196217_8139.png,0.0,-2.2717664,-0.4777251,-1.2685789
alexnet_w3_mlp_simclrhn_probe1,1,183,NaN,elephant,elephant,1-10-10,0183_eid_dnn_1-10-10_elephant_10_n02504458_6611.png,n02504458_6611.png,1.0,9.20237,1.0649347,5.7540355
alexnet_w3_mlp_simclrhn_probe1,1,184,NaN,oven,truck,64-10-10,0184_eid_dnn_64-10-10_truck_10_n04467665_4401.png,n04467665_4401.png,0.0,-5.7912493,-0.23799208,-3.9267457
alexnet_w3_mlp_simclrhn_probe1,1,185,NaN,boat,boat,4-10-10,0185_eid_dnn_4-10-10_boat_10_n03344393_732.png,n03344393_732.png,1.0,1.5152982,-1.2261235,1.9384779
alexnet_w3_mlp_simclrhn_probe1,1,186,NaN,knife,knife,4-10-10,0186_eid_dnn_4-10-10_knife_10_n03041632_41381.png,n03041632_41381.png,1.0,-0.27550521,-1.8920759,1.1430881
alexnet_w3_mlp_simclrhn_probe1,1,187,NaN,oven,oven,32-10-10,0187_eid_dnn_32-10-10_oven_10_n04111531_22715.png,n04111531_22715.png,1.0,1.9447495,-1.7647609,2.62302
alexnet_w3_mlp_simclrhn_probe1,1,188,NaN,bear,cat,16-10-10,0188_eid_dnn_16-10-10_cat_10_n02123045_3568.png,n02123045_3568.png,0.0,-2.12266,-1.0971916,-0.72511566
alexnet_w3_mlp_simclrhn_probe1,1,189,NaN,truck,truck,2-10-10,0189_eid_dnn_2-10-10_truck_10_n03796401_18976.png,n03796401_18976.png,1.0,6.7646084,4.0603175,1.9122224
alexnet_w3_mlp_simclrhn_probe1,1,190,NaN,oven,oven,8-10-10,0190_eid_dnn_8-10-10_oven_10_n04111531_15710.png,n04111531_15710.png,1.0,3.9155855,-2.1795325,4.3098993
alexnet_w3_mlp_simclrhn_probe1,1,191,NaN,bear,elephant,32-10-10,0191_eid_dnn_32-10-10_elephant_10_n02504013_7232.png,n02504013_7232.png,0.0,-0.83511233,1.445368,-1.6125432
alexnet_w3_mlp_simclrhn_probe1,1,192,NaN,oven,clock,64-10-10,0192_eid_dnn_64-10-10_clock_10_n02708093_5126.png,n02708093_5126.png,0.0,-3.7240963,-0.8614069,-2.0242271
alexnet_w3_mlp_simclrhn_probe1,1,193,NaN,oven,cat,32-10-10,0193_eid_dnn_32-10-10_cat_10_n02123159_1598.png,n02123159_1598.png,0.0,-3.6311762,2.5990686,-4.4054484
alexnet_w3_mlp_simclrhn_probe1,1,194,NaN,car,car,1-10-10,0194_eid_dnn_1-10-10_car_10_n04285008_1661.png,n04285008_1661.png,1.0,8.700501,6.105165,1.83518
alexnet_w3_mlp_simclrhn_probe1,1,195,NaN,clock,clock,2-10-10,0195_eid_dnn_2-10-10_clock_10_n02708093_5551.png,n02708093_5551.png,1.0,2.8823078,-1.9408092,3.410459
alexnet_w3_mlp_simclrhn_probe1,1,196,NaN,airplane,airplane,128-10-10,0196_eid_dnn_128-10-10_airplane_10_n02690373_693.png,n02690373_693.png,1.0,-1.4805548,-2.0975637,0.4362912
alexnet_w3_mlp_simclrhn_probe1,1,197,NaN,elephant,elephant,2-10-10,0197_eid_dnn_2-10-10_elephant_10_n02504013_3409.png,n02504013_3409.png,1.0,7.1204524,0.90349025,4.396056
alexnet_w3_mlp_simclrhn_probe1,1,198,NaN,bear,dog,64-10-10,0198_eid_dnn_64-10-10_dog_10_n02113712_8182.png,n02113712_8182.png,0.0,-2.215652,-1.0300219,-0.8383671
alexnet_w3_mlp_simclrhn_probe1,1,199,NaN,bottle,bottle,1-10-10,0199_eid_dnn_1-10-10_bottle_10_n03983396_8322.png,n03983396_8322.png,1.0,3.15105,-2.946825,4.311849
alexnet_w3_mlp_simclrhn_probe1,1,200,NaN,bear,keyboard,64-10-10,0200_eid_dnn_64-10-10_keyboard_10_n04505470_1040.png,n04505470_1040.png,0.0,-7.053632,-0.7889712,-4.4297843
alexnet_w3_mlp_simclrhn_probe1,1,201,NaN,oven,oven,32-10-10,0201_eid_dnn_32-10-10_oven_10_n04111531_11230.png,n04111531_11230.png,1.0,0.35865265,-1.770107,1.5052603
alexnet_w3_mlp_simclrhn_probe1,1,202,NaN,cat,cat,1-10-10,0202_eid_dnn_1-10-10_cat_10_n02123394_6269.png,n02123394_6269.png,1.0,3.036926,-0.7143142,2.6525276
alexnet_w3_mlp_simclrhn_probe1,1,203,NaN,elephant,elephant,2-10-10,0203_eid_dnn_2-10-10_elephant_10_n02504013_2075.png,n02504013_2075.png,1.0,6.6636333,-0.18938708,4.8458176
alexnet_w3_mlp_simclrhn_probe1,1,204,NaN,bear,bear,1-10-10,0204_eid_dnn_1-10-10_bear_10_n02133161_3795.png,n02133161_3795.png,1.0,0.051398993,-0.9424798,0.70277846
alexnet_w3_mlp_simclrhn_probe1,1,205,NaN,oven,oven,2-10-10,0205_eid_dnn_2-10-10_oven_10_n04111531_4322.png,n04111531_4322.png,1.0,1.7712588,-1.497539,2.3113892
alexnet_w3_mlp_simclrhn_probe1,1,206,NaN,oven,bottle,4-10-10,0206_eid_dnn_4-10-10_bottle_10_n03937543_5799.png,n03937543_5799.png,0.0,-2.1579776,0.3548398,-1.7768302
alexnet_w3_mlp_simclrhn_probe1,1,207,NaN,bottle,keyboard,8-10-10,0207_eid_dnn_8-10-10_keyboard_10_n04505470_4414.png,n04505470_4414.png,0.0,-2.6019225,-1.9789969,-0.44047496
alexnet_w3_mlp_simclrhn_probe1,1,208,NaN,cat,dog,4-10-10,0208_eid_dnn_4-10-10_dog_10_n02091032_8315.png,n02091032_8315.png,0.0,-0.13806053,-0.08601439,-0.036802176
alexnet_w3_mlp_simclrhn_probe1,1,209,NaN,knife,knife,2-10-10,0209_eid_dnn_2-10-10_knife_10_n03041632_39952.png,n03041632_39952.png,1.0,2.2647948,-1.8690985,2.9231043
alexnet_w3_mlp_simclrhn_probe1,1,210,NaN,oven,chair,8-10-10,0210_eid_dnn_8-10-10_chair_10_n02791124_634.png,n02791124_634.png,0.0,-4.4003706,-1.9685199,-1.7195781
alexnet_w3_mlp_simclrhn_probe1,1,211,NaN,knife,boat,32-10-10,0211_eid_dnn_32-10-10_boat_10_n03344393_3355.png,n03344393_3355.png,0.0,-1.9816395,-1.8185482,-0.11532297
alexnet_w3_mlp_simclrhn_probe1,1,212,NaN,bear,dog,32-10-10,0212_eid_dnn_32-10-10_dog_10_n02102040_7188.png,n02102040_7188.png,0.0,-2.5095825,-1.4813287,-0.72708523
alexnet_w3_mlp_simclrhn_probe1,1,213,NaN,knife,chair,2-10-10,0213_eid_dnn_2-10-10_chair_10_n02791124_8711.png,n02791124_8711.png,0.0,-0.61822355,-0.3984463,-0.155406
alexnet_w3_mlp_simclrhn_probe1,1,214,NaN,bear,bear,64-10-10,0214_eid_dnn_64-10-10_bear_10_n02132136_6002.png,n02132136_6002.png,1.0,-0.8140348,-1.1849895,0.26230454
alexnet_w3_mlp_simclrhn_probe1,1,215,NaN,bicycle,boat,4-10-10,0215_eid_dnn_4-10-10_boat_10_n02951358_30184.png,n02951358_30184.png,0.0,-0.053533126,0.15870187,-0.1500728
alexnet_w3_mlp_simclrhn_probe1,1,216,NaN,oven,bottle,128-10-10,0216_eid_dnn_128-10-10_bottle_10_n02823428_3414.png,n02823428_3414.png,0.0,-4.396521,-0.35488397,-2.857869
alexnet_w3_mlp_simclrhn_probe1,1,217,NaN,oven,truck,4-10-10,0217_eid_dnn_4-10-10_truck_10_n04467665_13231.png,n04467665_13231.png,0.0,-2.4387724,0.32179263,-1.9520143
alexnet_w3_mlp_simclrhn_probe1,1,218,NaN,bicycle,chair,4-10-10,0218_eid_dnn_4-10-10_chair_10_n04099969_8063.png,n04099969_8063.png,0.0,-0.5480256,-0.4185409,-0.09155952
alexnet_w3_mlp_simclrhn_probe1,1,219,NaN,bird,bird,4-10-10,0219_eid_dnn_4-10-10_bird_10_n01534433_10234.png,n01534433_10234.png,1.0,-0.8783421,-3.4533153,1.820781
alexnet_w3_mlp_simclrhn_probe1,1,220,NaN,bear,elephant,4-10-10,0220_eid_dnn_4-10-10_elephant_10_n02504013_12533.png,n02504013_12533.png,0.0,1.2804801,1.3719858,-0.06470426
alexnet_w3_mlp_simclrhn_probe1,1,221,NaN,bird,knife,16-10-10,0221_eid_dnn_16-10-10_knife_10_n03041632_18995.png,n03041632_18995.png,0.0,-3.0924156,-2.4744143,-0.43699285
alexnet_w3_mlp_simclrhn_probe1,1,222,NaN,oven,chair,32-10-10,0222_eid_dnn_32-10-10_chair_10_n04429376_7123.png,n04429376_7123.png,0.0,-7.7080607,-1.2245314,-4.5845475
alexnet_w3_mlp_simclrhn_probe1,1,223,NaN,oven,clock,64-10-10,0223_eid_dnn_64-10-10_clock_10_n03196217_9065.png,n03196217_9065.png,0.0,-2.7601202,-0.9915168,-1.2505914
alexnet_w3_mlp_simclrhn_probe1,1,224,NaN,cat,dog,4-10-10,0224_eid_dnn_4-10-10_dog_10_n02086079_4143.png,n02086079_4143.png,0.0,-0.11125103,0.9770959,-0.7695775
alexnet_w3_mlp_simclrhn_probe1,1,225,NaN,bear,bear,4-10-10,0225_eid_dnn_4-10-10_bear_10_n02132136_20162.png,n02132136_20162.png,1.0,1.5809352,1.3534486,0.16085733
alexnet_w3_mlp_simclrhn_probe1,1,226,NaN,knife,bottle,1-10-10,0226_eid_dnn_1-10-10_bottle_10_n03983396_4165.png,n03983396_4165.png,0.0,-4.268824,-3.0452247,-0.8652155
alexnet_w3_mlp_simclrhn_probe1,1,227,NaN,bird,bird,4-10-10,0227_eid_dnn_4-10-10_bird_10_n01824575_4470.png,n01824575_4470.png,1.0,1.2526191,-1.3530573,1.8424915
alexnet_w3_mlp_simclrhn_probe1,1,228,NaN,oven,oven,64-10-10,0228_eid_dnn_64-10-10_oven_10_n04111531_9695.png,n04111531_9695.png,1.0,0.16394562,-0.870705,0.73160845
alexnet_w3_mlp_simclrhn_probe1,1,229,NaN,bear,bottle,64-10-10,0229_eid_dnn_64-10-10_bottle_10_n02823428_23181.png,n02823428_23181.png,0.0,-3.595792,-1.3483413,-1.5891877
alexnet_w3_mlp_simclrhn_probe1,1,230,NaN,bicycle,bicycle,2-10-10,0230_eid_dnn_2-10-10_bicycle_10_n02835271_13674.png,n02835271_13674.png,1.0,5.602887,-1.8877196,5.296659
alexnet_w3_mlp_simclrhn_probe1,1,231,NaN,chair,chair,2-10-10,0231_eid_dnn_2-10-10_chair_10_n04429376_55747.png,n04429376_55747.png,1.0,0.8531642,0.79178476,0.043401815
alexnet_w3_mlp_simclrhn_probe1,1,232,NaN,oven,boat,32-10-10,0232_eid_dnn_32-10-10_boat_10_n02951358_8346.png,n02951358_8346.png,0.0,-10.71496,0.39937478,-7.8590217
alexnet_w3_mlp_simclrhn_probe1,1,233,NaN,bear,elephant,16-10-10,0233_eid_dnn_16-10-10_elephant_10_n02504013_1088.png,n02504013_1088.png,0.0,1.7364855,2.767616,-0.7291194
alexnet_w3_mlp_simclrhn_probe1,1,234,NaN,oven,car,8-10-10,0234_eid_dnn_8-10-10_car_10_n03100240_11191.png,n03100240_11191.png,0.0,-2.117772,-0.1400747,-1.3984432
alexnet_w3_mlp_simclrhn_probe1,1,235,NaN,chair,chair,8-10-10,0235_eid_dnn_8-10-10_chair_10_n04099969_19966.png,n04099969_19966.png,1.0,-1.3617144,-1.3622332,0.0003668462
alexnet_w3_mlp_simclrhn_probe1,1,236,NaN,oven,bicycle,32-10-10,0236_eid_dnn_32-10-10_bicycle_10_n03792782_15016.png,n03792782_15016.png,0.0,-6.7476926,-0.38448286,-4.499469
alexnet_w3_mlp_simclrhn_probe1,1,237,NaN,bear,boat,128-10-10,0237_eid_dnn_128-10-10_boat_10_n02951358_17867.png,n02951358_17867.png,0.0,-4.9229836,-0.77097744,-2.9359117
alexnet_w3_mlp_simclrhn_probe1,1,238,NaN,cat,cat,2-10-10,0238_eid_dnn_2-10-10_cat_10_n02123045_2364.png,n02123045_2364.png,1.0,3.094249,-2.4438899,3.9160557
alexnet_w3_mlp_simclrhn_probe1,1,239,NaN,bear,bear,2-10-10,0239_eid_dnn_2-10-10_bear_10_n02132136_9433.png,n02132136_9433.png,1.0,2.2226896,0.43107072,1.266866
alexnet_w3_mlp_simclrhn_probe1,1,240,NaN,oven,clock,32-10-10,0240_eid_dnn_32-10-10_clock_10_n03196217_3167.png,n03196217_3167.png,0.0,-6.6272545,-0.8638328,-4.0753546
alexnet_w3_mlp_simclrhn_probe1,1,241,NaN,oven,clock,32-10-10,0241_eid_dnn_32-10-10_clock_10_n03196217_3129.png,n03196217_3129.png,0.0,-4.034038,-1.3266802,-1.9143912
alexnet_w3_mlp_simclrhn_probe1,1,242,NaN,bear,keyboard,128-10-10,0242_eid_dnn_128-10-10_keyboard_10_n03085013_6067.png,n03085013_6067.png,0.0,-4.501652,-1.2475059,-2.3010287
alexnet_w3_mlp_simclrhn_probe1,1,243,NaN,keyboard,keyboard,2-10-10,0243_eid_dnn_2-10-10_keyboard_10_n03085013_24648.png,n03085013_24648.png,1.0,4.051279,-1.2996658,3.7836895
alexnet_w3_mlp_simclrhn_probe1,1,244,NaN,oven,oven,32-10-10,0244_eid_dnn_32-10-10_oven_10_n04111531_6695.png,n04111531_6695.png,1.0,1.2614627,-1.0368953,1.6251845
alexnet_w3_mlp_simclrhn_probe1,1,245,NaN,dog,dog,4-10-10,0245_eid_dnn_4-10-10_dog_10_n02111500_4875.png,n02111500_4875.png,1.0,0.20703538,-0.06257796,0.19064541
alexnet_w3_mlp_simclrhn_probe1,1,246,NaN,oven,oven,32-10-10,0246_eid_dnn_32-10-10_oven_10_n04111531_13018.png,n04111531_13018.png,1.0,0.11199486,-2.031848,1.5159258
alexnet_w3_mlp_simclrhn_probe1,1,247,NaN,oven,keyboard,128-10-10,0247_eid_dnn_128-10-10_keyboard_10_n03085013_23030.png,n03085013_23030.png,0.0,-7.100122,-0.6020601,-4.594824
alexnet_w3_mlp_simclrhn_probe1,1,248,NaN,dog,cat,8-10-10,0248_eid_dnn_8-10-10_cat_10_n02123045_8409.png,n02123045_8409.png,0.0,-1.5748941,-0.29181725,-0.9072723
alexnet_w3_mlp_simclrhn_probe1,1,249,NaN,bicycle,bicycle,4-10-10,0249_eid_dnn_4-10-10_bicycle_10_n03792782_37777.png,n03792782_37777.png,1.0,3.4389796,-2.5901039,4.2632055
alexnet_w3_mlp_simclrhn_probe1,1,250,NaN,bear,airplane,64-10-10,0250_eid_dnn_64-10-10_airplane_10_n02690373_614.png,n02690373_614.png,0.0,-2.9743423,-1.0108985,-1.3883646
alexnet_w3_mlp_simclrhn_probe1,1,251,NaN,oven,keyboard,128-10-10,0251_eid_dnn_128-10-10_keyboard_10_n03085013_19775.png,n03085013_19775.png,0.0,-9.016456,-0.7920656,-5.815522
alexnet_w3_mlp_simclrhn_probe1,1,252,NaN,bear,bear,8-10-10,0252_eid_dnn_8-10-10_bear_10_n02133161_1244.png,n02133161_1244.png,1.0,3.4776697,0.6462698,2.0021021
alexnet_w3_mlp_simclrhn_probe1,1,253,NaN,car,keyboard,2-10-10,0253_eid_dnn_2-10-10_keyboard_10_n04505470_4368.png,n04505470_4368.png,0.0,-0.35120398,2.0888405,-1.725372
alexnet_w3_mlp_simclrhn_probe1,1,254,NaN,oven,oven,2-10-10,0254_eid_dnn_2-10-10_oven_10_n04111531_7728.png,n04111531_7728.png,1.0,4.8144608,-1.1125127,4.1910033
alexnet_w3_mlp_simclrhn_probe1,1,255,NaN,oven,clock,8-10-10,0255_eid_dnn_8-10-10_clock_10_n04548280_1.png,n04548280_1.png,0.0,-7.2256484,2.3722897,-6.7867675
alexnet_w3_mlp_simclrhn_probe1,1,256,NaN,oven,cat,64-10-10,0256_eid_dnn_64-10-10_cat_10_n02123394_3062.png,n02123394_3062.png,0.0,-3.405934,0.02402753,-2.4253492
alexnet_w3_mlp_simclrhn_probe1,1,257,NaN,elephant,elephant,2-10-10,0257_eid_dnn_2-10-10_elephant_10_n02504013_466.png,n02504013_466.png,1.0,6.114907,-1.1636437,5.146713
alexnet_w3_mlp_simclrhn_probe1,1,258,NaN,elephant,elephant,1-10-10,0258_eid_dnn_1-10-10_elephant_10_n02504013_6275.png,n02504013_6275.png,1.0,4.6843987,-1.0878543,4.081599
alexnet_w3_mlp_simclrhn_probe1,1,259,NaN,bird,bird,4-10-10,0259_eid_dnn_4-10-10_bird_10_n01560419_5466.png,n01560419_5466.png,1.0,-0.68171287,-3.9892302,2.338768
alexnet_w3_mlp_simclrhn_probe1,1,260,NaN,oven,truck,8-10-10,0260_eid_dnn_8-10-10_truck_10_n03796401_5227.png,n03796401_5227.png,0.0,-6.9019203,-1.2805846,-3.9748847
alexnet_w3_mlp_simclrhn_probe1,1,261,NaN,chair,chair,2-10-10,0261_eid_dnn_2-10-10_chair_10_n04099969_25124.png,n04099969_25124.png,1.0,0.4716,-0.9115771,0.97805387
alexnet_w3_mlp_simclrhn_probe1,1,262,NaN,elephant,elephant,64-10-10,0262_eid_dnn_64-10-10_elephant_10_n02504013_7209.png,n02504013_7209.png,1.0,-0.85387415,-1.2394426,0.27263805
alexnet_w3_mlp_simclrhn_probe1,1,263,NaN,cat,cat,1-10-10,0263_eid_dnn_1-10-10_cat_10_n02123597_4756.png,n02123597_4756.png,1.0,-0.19684792,-1.3554785,0.81927556
alexnet_w3_mlp_simclrhn_probe1,1,264,NaN,oven,bicycle,16-10-10,0264_eid_dnn_16-10-10_bicycle_10_n02835271_4654.png,n02835271_4654.png,0.0,-4.4417486,-3.5892794,-0.6027868
alexnet_w3_mlp_simclrhn_probe1,1,265,NaN,keyboard,keyboard,1-10-10,0265_eid_dnn_1-10-10_keyboard_10_n04505470_2389.png,n04505470_2389.png,1.0,3.986459,-1.017327,3.538211
alexnet_w3_mlp_simclrhn_probe1,1,266,NaN,bear,knife,128-10-10,0266_eid_dnn_128-10-10_knife_10_n03041632_379.png,n03041632_379.png,0.0,-2.0977116,-1.3793604,-0.50795096
alexnet_w3_mlp_simclrhn_probe1,1,267,NaN,bicycle,clock,8-10-10,0267_eid_dnn_8-10-10_clock_10_n02708093_899.png,n02708093_899.png,0.0,-4.627966,-1.5158023,-2.200632
alexnet_w3_mlp_simclrhn_probe1,1,268,NaN,oven,truck,128-10-10,0268_eid_dnn_128-10-10_truck_10_n03417042_10154.png,n03417042_10154.png,0.0,-9.880051,1.182107,-7.822127
alexnet_w3_mlp_simclrhn_probe1,1,269,NaN,bottle,bottle,2-10-10,0269_eid_dnn_2-10-10_bottle_10_n04579145_3415.png,n04579145_3415.png,1.0,0.4265025,-3.2604735,2.6070857
alexnet_w3_mlp_simclrhn_probe1,1,270,NaN,bear,chair,16-10-10,0270_eid_dnn_16-10-10_chair_10_n02791124_146.png,n02791124_146.png,0.0,-5.8558393,1.2284298,-5.0093346
alexnet_w3_mlp_simclrhn_probe1,1,271,NaN,oven,elephant,128-10-10,0271_eid_dnn_128-10-10_elephant_10_n02504458_2835.png,n02504458_2835.png,0.0,-2.3174164,-1.124876,-0.84325343
alexnet_w3_mlp_simclrhn_probe1,1,272,NaN,bicycle,bicycle,1-10-10,0272_eid_dnn_1-10-10_bicycle_10_n03792782_13835.png,n03792782_13835.png,1.0,2.721285,-0.33886242,2.163851
alexnet_w3_mlp_simclrhn_probe1,1,273,NaN,oven,bicycle,32-10-10,0273_eid_dnn_32-10-10_bicycle_10_n02835271_12926.png,n02835271_12926.png,0.0,-5.72833,0.63809574,-4.501743
alexnet_w3_mlp_simclrhn_probe1,1,274,NaN,dog,dog,2-10-10,0274_eid_dnn_2-10-10_dog_10_n02110185_11605.png,n02110185_11605.png,1.0,1.4459308,0.4174011,0.7272804
alexnet_w3_mlp_simclrhn_probe1,1,275,NaN,bear,elephant,128-10-10,0275_eid_dnn_128-10-10_elephant_10_n02504458_3091.png,n02504458_3091.png,0.0,-1.3194085,-0.014708564,-0.92256224
alexnet_w3_mlp_simclrhn_probe1,1,276,NaN,elephant,chair,128-10-10,0276_eid_dnn_128-10-10_chair_10_n04099969_5233.png,n04099969_5233.png,0.0,-7.98995,-1.3737552,-4.678356
alexnet_w3_mlp_simclrhn_probe1,1,277,NaN,dog,dog,2-10-10,0277_eid_dnn_2-10-10_dog_10_n02097209_7628.png,n02097209_7628.png,1.0,0.9022612,-0.4692022,0.9697711
alexnet_w3_mlp_simclrhn_probe1,1,278,NaN,bear,cat,8-10-10,0278_eid_dnn_8-10-10_cat_10_n02123597_10941.png,n02123597_10941.png,0.0,-0.36679697,0.8962799,-0.8931302
alexnet_w3_mlp_simclrhn_probe1,1,279,NaN,oven,clock,16-10-10,0279_eid_dnn_16-10-10_clock_10_n02708093_3006.png,n02708093_3006.png,0.0,-5.185152,-1.9025908,-2.3211215
alexnet_w3_mlp_simclrhn_probe1,1,280,NaN,truck,truck,1-10-10,0280_eid_dnn_1-10-10_truck_10_n03796401_26620.png,n03796401_26620.png,1.0,0.57314706,-0.27069187,0.5966842
alexnet_w3_mlp_simclrhn_probe1,1,281,NaN,oven,bear,128-10-10,0281_eid_dnn_128-10-10_bear_10_n02134418_12733.png,n02134418_12733.png,0.0,-0.018996269,0.5751213,-0.42010453
alexnet_w3_mlp_simclrhn_probe1,1,282,NaN,knife,knife,2-10-10,0282_eid_dnn_2-10-10_knife_10_n03041632_4806.png,n03041632_4806.png,1.0,-0.27832997,-2.2909064,1.4231066
alexnet_w3_mlp_simclrhn_probe1,1,283,NaN,oven,oven,4-10-10,0283_eid_dnn_4-10-10_oven_10_n04111531_17922.png,n04111531_17922.png,1.0,5.1269703,-2.4445677,5.353886
alexnet_w3_mlp_simclrhn_probe1,1,284,NaN,bottle,bottle,1-10-10,0284_eid_dnn_1-10-10_bottle_10_n04579145_6818.png,n04579145_6818.png,1.0,2.7487614,-2.7541697,3.89116
alexnet_w3_mlp_simclrhn_probe1,1,285,NaN,keyboard,keyboard,4-10-10,0285_eid_dnn_4-10-10_keyboard_10_n04505470_494.png,n04505470_494.png,1.0,2.733974,-0.059093658,1.9749972
alexnet_w3_mlp_simclrhn_probe1,1,286,NaN,cat,cat,8-10-10,0286_eid_dnn_8-10-10_cat_10_n02123045_10834.png,n02123045_10834.png,1.0,1.9480276,-0.004774565,1.3808397
alexnet_w3_mlp_simclrhn_probe1,1,287,NaN,oven,cat,128-10-10,0287_eid_dnn_128-10-10_cat_10_n02123394_176.png,n02123394_176.png,0.0,-0.92689353,-0.40740213,-0.36733592
alexnet_w3_mlp_simclrhn_probe1,1,288,NaN,bear,chair,128-10-10,0288_eid_dnn_128-10-10_chair_10_n03376595_2891.png,n03376595_2891.png,0.0,-9.786016,-1.0628595,-6.1682034
alexnet_w3_mlp_simclrhn_probe1,1,289,NaN,dog,dog,8-10-10,0289_eid_dnn_8-10-10_dog_10_n02093256_5647.png,n02093256_5647.png,1.0,1.3348712,0.1558356,0.83370405
alexnet_w3_mlp_simclrhn_probe1,1,290,NaN,oven,knife,64-10-10,0290_eid_dnn_64-10-10_knife_10_n03041632_33326.png,n03041632_33326.png,0.0,-3.4651315,-0.8824433,-1.8262365
alexnet_w3_mlp_simclrhn_probe1,1,291,NaN,oven,airplane,8-10-10,0291_eid_dnn_8-10-10_airplane_10_n02690373_2856.png,n02690373_2856.png,0.0,-5.212755,-0.07390846,-3.6337135
alexnet_w3_mlp_simclrhn_probe1,1,292,NaN,oven,bicycle,128-10-10,0292_eid_dnn_128-10-10_bicycle_10_n03792782_9651.png,n03792782_9651.png,0.0,-4.2437434,-0.21671228,-2.8475409
alexnet_w3_mlp_simclrhn_probe1,1,293,NaN,bicycle,bicycle,2-10-10,0293_eid_dnn_2-10-10_bicycle_10_n02835271_7438.png,n02835271_7438.png,1.0,2.6718729,-2.9785242,3.9954343
alexnet_w3_mlp_simclrhn_probe1,1,294,NaN,oven,bicycle,128-10-10,0294_eid_dnn_128-10-10_bicycle_10_n02835271_26639.png,n02835271_26639.png,0.0,-5.8879175,-1.7042146,-2.9583247
alexnet_w3_mlp_simclrhn_probe1,1,295,NaN,keyboard,keyboard,8-10-10,0295_eid_dnn_8-10-10_keyboard_10_n04505470_4458.png,n04505470_4458.png,1.0,2.2663367,-1.1983019,2.4498696
alexnet_w3_mlp_simclrhn_probe1,1,296,NaN,oven,dog,64-10-10,0296_eid_dnn_64-10-10_dog_10_n02106662_24847.png,n02106662_24847.png,0.0,-3.8012874,-0.9782665,-1.9961773
alexnet_w3_mlp_simclrhn_probe1,1,297,NaN,oven,chair,32-10-10,0297_eid_dnn_32-10-10_chair_10_n03376595_8995.png,n03376595_8995.png,0.0,-7.176016,-0.10031068,-5.003279
alexnet_w3_mlp_simclrhn_probe1,1,298,NaN,bear,bicycle,64-10-10,0298_eid_dnn_64-10-10_bicycle_10_n03792782_6030.png,n03792782_6030.png,0.0,-3.3719494,-0.8643644,-1.7731304
alexnet_w3_mlp_simclrhn_probe1,1,299,NaN,elephant,elephant,4-10-10,0299_eid_dnn_4-10-10_elephant_10_n02504458_7258.png,n02504458_7258.png,1.0,2.7852712,0.98755205,1.2711794
alexnet_w3_mlp_simclrhn_probe1,1,300,NaN,bear,boat,128-10-10,0300_eid_dnn_128-10-10_boat_10_n03662601_23903.png,n03662601_23903.png,0.0,-4.165025,-1.5176809,-1.8719552
alexnet_w3_mlp_simclrhn_probe1,1,301,NaN,bear,bird,16-10-10,0301_eid_dnn_16-10-10_bird_10_n02002724_578.png,n02002724_578.png,0.0,-3.818772,0.15756503,-2.811695
alexnet_w3_mlp_simclrhn_probe1,1,302,NaN,bear,chair,64-10-10,0302_eid_dnn_64-10-10_chair_10_n03376595_2393.png,n03376595_2393.png,0.0,-5.9410887,-1.5121887,-3.131705
alexnet_w3_mlp_simclrhn_probe1,1,303,NaN,airplane,boat,16-10-10,0303_eid_dnn_16-10-10_boat_10_n03662601_5118.png,n03662601_5118.png,0.0,-1.5195824,-0.92830426,-0.41809678
alexnet_w3_mlp_simclrhn_probe1,1,304,NaN,oven,chair,8-10-10,0304_eid_dnn_8-10-10_chair_10_n04429376_21845.png,n04429376_21845.png,0.0,-3.5790212,0.78863215,-3.0883973
alexnet_w3_mlp_simclrhn_probe1,1,305,NaN,dog,dog,8-10-10,0305_eid_dnn_8-10-10_dog_10_n02102040_2216.png,n02102040_2216.png,1.0,-1.7935717,-1.850039,0.039928406
alexnet_w3_mlp_simclrhn_probe1,1,306,NaN,airplane,airplane,8-10-10,0306_eid_dnn_8-10-10_airplane_10_n02690373_3032.png,n02690373_3032.png,1.0,0.53100497,-0.9040897,1.0147651
alexnet_w3_mlp_simclrhn_probe1,1,307,NaN,bear,dog,8-10-10,0307_eid_dnn_8-10-10_dog_10_n02100735_2228.png,n02100735_2228.png,0.0,-0.9904312,-0.69119906,-0.21158907
alexnet_w3_mlp_simclrhn_probe1,1,308,NaN,bird,bird,8-10-10,0308_eid_dnn_8-10-10_bird_10_n01532829_13864.png,n01532829_13864.png,1.0,-0.7238831,-1.7243942,0.7074683
alexnet_w3_mlp_simclrhn_probe1,1,309,NaN,oven,bird,64-10-10,0309_eid_dnn_64-10-10_bird_10_n01601694_13787.png,n01601694_13787.png,0.0,-3.815998,-0.89950603,-2.0622714
alexnet_w3_mlp_simclrhn_probe1,1,310,NaN,bear,bear,64-10-10,0310_eid_dnn_64-10-10_bear_10_n02134084_22150.png,n02134084_22150.png,1.0,-0.9257514,-2.2199938,0.91516757
alexnet_w3_mlp_simclrhn_probe1,1,311,NaN,oven,knife,16-10-10,0311_eid_dnn_16-10-10_knife_10_n03041632_29427.png,n03041632_29427.png,0.0,-3.9019246,0.8052714,-3.3284905
alexnet_w3_mlp_simclrhn_probe1,1,312,NaN,oven,chair,4-10-10,0312_eid_dnn_4-10-10_chair_10_n02791124_2804.png,n02791124_2804.png,0.0,-1.5047731,-1.2789795,-0.15966019
alexnet_w3_mlp_simclrhn_probe1,1,313,NaN,bottle,bottle,4-10-10,0313_eid_dnn_4-10-10_bottle_10_n04591713_5046.png,n04591713_5046.png,1.0,4.0547533,-0.18220448,2.9959815
alexnet_w3_mlp_simclrhn_probe1,1,314,NaN,elephant,bicycle,128-10-10,0314_eid_dnn_128-10-10_bicycle_10_n03792782_4210.png,n03792782_4210.png,0.0,-4.804455,-1.2717453,-2.498003
alexnet_w3_mlp_simclrhn_probe1,1,315,NaN,bear,cat,128-10-10,0315_eid_dnn_128-10-10_cat_10_n02123159_1596.png,n02123159_1596.png,0.0,-1.9475068,-1.0262814,-0.65140474
alexnet_w3_mlp_simclrhn_probe1,1,316,NaN,car,car,2-10-10,0316_eid_dnn_2-10-10_car_10_n03100240_17588.png,n03100240_17588.png,1.0,3.9946306,3.228789,0.54153174
alexnet_w3_mlp_simclrhn_probe1,1,317,NaN,dog,keyboard,4-10-10,0317_eid_dnn_4-10-10_keyboard_10_n03085013_23295.png,n03085013_23295.png,0.0,-8.243427,1.118313,-6.61975
alexnet_w3_mlp_simclrhn_probe1,1,318,NaN,oven,oven,32-10-10,0318_eid_dnn_32-10-10_oven_10_n04111531_4879.png,n04111531_4879.png,1.0,1.8439845,-0.8858683,1.9302974
alexnet_w3_mlp_simclrhn_probe1,1,319,NaN,oven,keyboard,32-10-10,0319_eid_dnn_32-10-10_keyboard_10_n04505470_4569.png,n04505470_4569.png,0.0,-9.426441,2.695065,-8.571199
alexnet_w3_mlp_simclrhn_probe1,1,320,NaN,oven,truck,8-10-10,0320_eid_dnn_8-10-10_truck_10_n04467665_24190.png,n04467665_24190.png,0.0,-4.525989,0.7462734,-3.7280526
alexnet_w3_mlp_simclrhn_probe1,1,321,NaN,cat,cat,4-10-10,0321_eid_dnn_4-10-10_cat_10_n02124075_15405.png,n02124075_15405.png,1.0,0.34654093,-0.61853516,0.68241185
alexnet_w3_mlp_simclrhn_probe1,1,322,NaN,dog,knife,8-10-10,0322_eid_dnn_8-10-10_knife_10_n03041632_24817.png,n03041632_24817.png,0.0,-2.0228326,-1.3890378,-0.4481606
alexnet_w3_mlp_simclrhn_probe1,1,323,NaN,bear,elephant,64-10-10,0323_eid_dnn_64-10-10_elephant_10_n02504013_5505.png,n02504013_5505.png,0.0,-2.494494,-0.6620741,-1.2957165
alexnet_w3_mlp_simclrhn_probe1,1,324,NaN,airplane,airplane,8-10-10,0324_eid_dnn_8-10-10_airplane_10_n02690373_8846.png,n02690373_8846.png,1.0,0.48215988,-1.2206192,1.2040466
alexnet_w3_mlp_simclrhn_probe1,1,325,NaN,bear,truck,32-10-10,0325_eid_dnn_32-10-10_truck_10_n04467665_50806.png,n04467665_50806.png,0.0,-4.5212226,-1.2251313,-2.3306885
alexnet_w3_mlp_simclrhn_probe1,1,326,NaN,elephant,elephant,4-10-10,0326_eid_dnn_4-10-10_elephant_10_n02504458_5539.png,n02504458_5539.png,1.0,7.8101673,1.5480456,4.427989
alexnet_w3_mlp_simclrhn_probe1,1,327,NaN,boat,boat,1-10-10,0327_eid_dnn_1-10-10_boat_10_n03344393_1178.png,n03344393_1178.png,1.0,2.22442,0.3533014,1.3230808
alexnet_w3_mlp_simclrhn_probe1,1,328,NaN,truck,truck,4-10-10,0328_eid_dnn_4-10-10_truck_10_n04467665_10025.png,n04467665_10025.png,1.0,6.941121,3.905322,2.146634
alexnet_w3_mlp_simclrhn_probe1,1,329,NaN,clock,clock,4-10-10,0329_eid_dnn_4-10-10_clock_10_n02708093_2869.png,n02708093_2869.png,1.0,0.3930687,-1.384915,1.2572243
alexnet_w3_mlp_simclrhn_probe1,1,330,NaN,bottle,bottle,8-10-10,0330_eid_dnn_8-10-10_bottle_10_n03983396_4879.png,n03983396_4879.png,1.0,-1.5228521,-1.6767195,0.10880074
alexnet_w3_mlp_simclrhn_probe1,1,331,NaN,oven,keyboard,128-10-10,0331_eid_dnn_128-10-10_keyboard_10_n03085013_10367.png,n03085013_10367.png,0.0,-4.1903076,-0.83248913,-2.3743362
alexnet_w3_mlp_simclrhn_probe1,1,332,NaN,oven,bird,64-10-10,0332_eid_dnn_64-10-10_bird_10_n01860187_21300.png,n01860187_21300.png,0.0,-4.651152,-1.4396818,-2.2708526
alexnet_w3_mlp_simclrhn_probe1,1,333,NaN,bear,knife,32-10-10,0333_eid_dnn_32-10-10_knife_10_n03041632_5302.png,n03041632_5302.png,0.0,-3.2567954,-1.6531751,-1.1339308
alexnet_w3_mlp_simclrhn_probe1,1,334,NaN,bear,bear,4-10-10,0334_eid_dnn_4-10-10_bear_10_n02134084_5274.png,n02134084_5274.png,1.0,4.1833777,1.5653203,1.8512462
alexnet_w3_mlp_simclrhn_probe1,1,335,NaN,bird,knife,4-10-10,0335_eid_dnn_4-10-10_knife_10_n03041632_48816.png,n03041632_48816.png,0.0,-1.6949465,-1.6800928,-0.010503164
alexnet_w3_mlp_simclrhn_probe1,1,336,NaN,oven,elephant,16-10-10,0336_eid_dnn_16-10-10_elephant_10_n02504013_3295.png,n02504013_3295.png,0.0,-1.7224691,-0.70403945,-0.7201385
alexnet_w3_mlp_simclrhn_probe1,1,337,NaN,oven,truck,128-10-10,0337_eid_dnn_128-10-10_truck_10_n03417042_2478.png,n03417042_2478.png,0.0,-6.153453,-0.8123597,-3.7767231
alexnet_w3_mlp_simclrhn_probe1,1,338,NaN,oven,oven,32-10-10,0338_eid_dnn_32-10-10_oven_10_n04111531_5350.png,n04111531_5350.png,1.0,0.5981514,-1.699328,1.6245633
alexnet_w3_mlp_simclrhn_probe1,1,339,NaN,oven,airplane,8-10-10,0339_eid_dnn_8-10-10_airplane_10_n02690373_1663.png,n02690373_1663.png,0.0,-4.361541,-2.2339973,-1.5044004
alexnet_w3_mlp_simclrhn_probe1,1,340,NaN,boat,boat,4-10-10,0340_eid_dnn_4-10-10_boat_10_n03344393_1422.png,n03344393_1422.png,1.0,1.4355338,-0.46627417,1.3447813
alexnet_w3_mlp_simclrhn_probe1,1,341,NaN,oven,cat,32-10-10,0341_eid_dnn_32-10-10_cat_10_n02123159_3312.png,n02123159_3312.png,0.0,-2.479153,-1.8306072,-0.4585911
alexnet_w3_mlp_simclrhn_probe1,1,342,NaN,bear,chair,64-10-10,0342_eid_dnn_64-10-10_chair_10_n03376595_6171.png,n03376595_6171.png,0.0,-8.877276,-0.020710617,-6.2625375
alexnet_w3_mlp_simclrhn_probe1,1,343,NaN,bottle,bottle,8-10-10,0343_eid_dnn_8-10-10_bottle_10_n04591713_1616.png,n04591713_1616.png,1.0,-0.73231155,-1.315169,0.41214246
alexnet_w3_mlp_simclrhn_probe1,1,344,NaN,bear,bear,128-10-10,0344_eid_dnn_128-10-10_bear_10_n02133161_1197.png,n02133161_1197.png,1.0,-0.8298638,-1.6817105,0.6023466
alexnet_w3_mlp_simclrhn_probe1,1,345,NaN,oven,truck,4-10-10,0345_eid_dnn_4-10-10_truck_10_n04467665_663.png,n04467665_663.png,0.0,-4.9328995,1.578407,-4.6041894
alexnet_w3_mlp_simclrhn_probe1,1,346,NaN,bear,bear,4-10-10,0346_eid_dnn_4-10-10_bear_10_n02132136_2771.png,n02132136_2771.png,1.0,2.391303,-0.97927487,2.3833585
alexnet_w3_mlp_simclrhn_probe1,1,347,NaN,oven,cat,16-10-10,0347_eid_dnn_16-10-10_cat_10_n02123394_12.png,n02123394_12.png,0.0,-3.366971,-1.2525804,-1.4951
alexnet_w3_mlp_simclrhn_probe1,1,348,NaN,bear,car,8-10-10,0348_eid_dnn_8-10-10_car_10_n04285008_1795.png,n04285008_1795.png,0.0,-7.995131,-2.0007153,-4.2386923
alexnet_w3_mlp_simclrhn_probe1,1,349,NaN,bear,boat,4-10-10,0349_eid_dnn_4-10-10_boat_10_n04273569_1023.png,n04273569_1023.png,0.0,-1.201968,-0.67529595,-0.37241337
alexnet_w3_mlp_simclrhn_probe1,1,350,NaN,boat,boat,1-10-10,0350_eid_dnn_1-10-10_boat_10_n03662601_21775.png,n03662601_21775.png,1.0,7.004098,0.8996137,4.316522
alexnet_w3_mlp_simclrhn_probe1,1,351,NaN,clock,clock,1-10-10,0351_eid_dnn_1-10-10_clock_10_n03196217_71.png,n03196217_71.png,1.0,0.26646972,-0.30732456,0.40573382
alexnet_w3_mlp_simclrhn_probe1,1,352,NaN,bottle,keyboard,4-10-10,0352_eid_dnn_4-10-10_keyboard_10_n04505470_3122.png,n04505470_3122.png,0.0,-1.436225,-1.0553435,-0.26932392
alexnet_w3_mlp_simclrhn_probe1,1,353,NaN,oven,dog,32-10-10,0353_eid_dnn_32-10-10_dog_10_n02099849_4640.png,n02099849_4640.png,0.0,-2.683381,0.3501911,-2.1450596
alexnet_w3_mlp_simclrhn_probe1,1,354,NaN,bear,bottle,64-10-10,0354_eid_dnn_64-10-10_bottle_10_n02823428_6418.png,n02823428_6418.png,0.0,-4.2524204,-0.21338823,-2.856027
alexnet_w3_mlp_simclrhn_probe1,1,355,NaN,oven,car,8-10-10,0355_eid_dnn_8-10-10_car_10_n04285008_11704.png,n04285008_11704.png,0.0,-7.231693,0.24241257,-5.284991
alexnet_w3_mlp_simclrhn_probe1,1,356,NaN,knife,clock,32-10-10,0356_eid_dnn_32-10-10_clock_10_n02708093_3544.png,n02708093_3544.png,0.0,-2.4530303,-1.6657557,-0.55668724
alexnet_w3_mlp_simclrhn_probe1,1,357,NaN,bear,clock,8-10-10,0357_eid_dnn_8-10-10_clock_10_n04548280_4599.png,n04548280_4599.png,0.0,-4.8928323,-1.5074161,-2.3938506
alexnet_w3_mlp_simclrhn_probe1,1,358,NaN,oven,car,128-10-10,0358_eid_dnn_128-10-10_car_10_n03100240_6259.png,n03100240_6259.png,0.0,-12.136559,0.24259005,-8.75338
alexnet_w3_mlp_simclrhn_probe1,1,359,NaN,boat,boat,8-10-10,0359_eid_dnn_8-10-10_boat_10_n04273569_3401.png,n04273569_3401.png,1.0,-0.32594925,-0.3937348,0.04793163
alexnet_w3_mlp_simclrhn_probe1,1,360,NaN,bear,truck,64-10-10,0360_eid_dnn_64-10-10_truck_10_n04467665_13898.png,n04467665_13898.png,0.0,-7.4912558,-1.5972751,-4.1676736
alexnet_w3_mlp_simclrhn_probe1,1,361,NaN,keyboard,clock,2-10-10,0361_eid_dnn_2-10-10_clock_10_n03196217_1499.png,n03196217_1499.png,0.0,-0.72350454,0.50621724,-0.8695446
alexnet_w3_mlp_simclrhn_probe1,1,362,NaN,car,car,4-10-10,0362_eid_dnn_4-10-10_car_10_n03100240_8702.png,n03100240_8702.png,1.0,-0.57057184,-1.5752554,0.7104185
alexnet_w3_mlp_simclrhn_probe1,1,363,NaN,bear,bear,4-10-10,0363_eid_dnn_4-10-10_bear_10_n02134418_1770.png,n02134418_1770.png,1.0,1.9026753,-0.056746893,1.3855207
alexnet_w3_mlp_simclrhn_probe1,1,364,NaN,bear,bear,16-10-10,0364_eid_dnn_16-10-10_bear_10_n02132136_32838.png,n02132136_32838.png,1.0,2.3668783,-0.22524077,1.8329049
alexnet_w3_mlp_simclrhn_probe1,1,365,NaN,boat,truck,4-10-10,0365_eid_dnn_4-10-10_truck_10_n04467665_68331.png,n04467665_68331.png,0.0,-2.5264468,-0.30149582,-1.573278
alexnet_w3_mlp_simclrhn_probe1,1,366,NaN,airplane,airplane,1-10-10,0366_eid_dnn_1-10-10_airplane_10_n02690373_4506.png,n02690373_4506.png,1.0,8.207223,0.45165658,5.484014
alexnet_w3_mlp_simclrhn_probe1,1,367,NaN,car,car,2-10-10,0367_eid_dnn_2-10-10_car_10_n03100240_5308.png,n03100240_5308.png,1.0,3.8007839,1.052362,1.9434278
alexnet_w3_mlp_simclrhn_probe1,1,368,NaN,oven,cat,2-10-10,0368_eid_dnn_2-10-10_cat_10_n02124075_15345.png,n02124075_15345.png,0.0,-3.6164763,-3.0182805,-0.4229883
alexnet_w3_mlp_simclrhn_probe1,1,369,NaN,oven,bicycle,128-10-10,0369_eid_dnn_128-10-10_bicycle_10_n03792782_50972.png,n03792782_50972.png,0.0,-4.3156195,-0.9324541,-2.3922591
alexnet_w3_mlp_simclrhn_probe1,1,370,NaN,cat,knife,8-10-10,0370_eid_dnn_8-10-10_knife_10_n03041632_19098.png,n03041632_19098.png,0.0,-2.5605502,-1.6656413,-0.63279617
alexnet_w3_mlp_simclrhn_probe1,1,371,NaN,bear,bottle,128-10-10,0371_eid_dnn_128-10-10_bottle_10_n04560804_15963.png,n04560804_15963.png,0.0,-4.99181,0.27561203,-3.7246296
alexnet_w3_mlp_simclrhn_probe1,1,372,NaN,oven,bottle,8-10-10,0372_eid_dnn_8-10-10_bottle_10_n04557648_7809.png,n04557648_7809.png,0.0,-4.1030483,0.22042802,-3.0571594
alexnet_w3_mlp_simclrhn_probe1,1,373,NaN,airplane,airplane,1-10-10,0373_eid_dnn_1-10-10_airplane_10_n02690373_17764.png,n02690373_17764.png,1.0,6.48763,-1.9555881,5.970257
alexnet_w3_mlp_simclrhn_probe1,1,374,NaN,oven,elephant,64-10-10,0374_eid_dnn_64-10-10_elephant_10_n02504013_7322.png,n02504013_7322.png,0.0,-4.198536,1.0293071,-3.6966436
alexnet_w3_mlp_simclrhn_probe1,1,375,NaN,bear,bear,2-10-10,0375_eid_dnn_2-10-10_bear_10_n02134084_2959.png,n02134084_2959.png,1.0,0.65781176,0.38134813,0.1954893
alexnet_w3_mlp_simclrhn_probe1,1,376,NaN,bird,bird,2-10-10,0376_eid_dnn_2-10-10_bird_10_n01622779_6563.png,n01622779_6563.png,1.0,-0.8105665,-3.1543806,1.6573269
alexnet_w3_mlp_simclrhn_probe1,1,377,NaN,oven,knife,16-10-10,0377_eid_dnn_16-10-10_knife_10_n03041632_19620.png,n03041632_19620.png,0.0,-1.5809144,-0.8758371,-0.49856493
alexnet_w3_mlp_simclrhn_probe1,1,378,NaN,bird,bird,4-10-10,0378_eid_dnn_4-10-10_bird_10_n01530575_35977.png,n01530575_35977.png,1.0,0.8731728,-2.6482143,2.4899967
alexnet_w3_mlp_simclrhn_probe1,1,379,NaN,oven,cat,128-10-10,0379_eid_dnn_128-10-10_cat_10_n02123394_1757.png,n02123394_1757.png,0.0,-3.673186,-0.40306625,-2.312324
alexnet_w3_mlp_simclrhn_probe1,1,380,NaN,cat,dog,2-10-10,0380_eid_dnn_2-10-10_dog_10_n02093647_6358.png,n02093647_6358.png,0.0,-3.1473112,-1.1940454,-1.3811675
alexnet_w3_mlp_simclrhn_probe1,1,381,NaN,boat,boat,1-10-10,0381_eid_dnn_1-10-10_boat_10_n02951358_1470.png,n02951358_1470.png,1.0,1.1649015,-0.06405158,0.8690011
alexnet_w3_mlp_simclrhn_probe1,1,382,NaN,bear,elephant,128-10-10,0382_eid_dnn_128-10-10_elephant_10_n02504458_2026.png,n02504458_2026.png,0.0,-1.4922173,-0.7669161,-0.5128654
alexnet_w3_mlp_simclrhn_probe1,1,383,NaN,bear,elephant,32-10-10,0383_eid_dnn_32-10-10_elephant_10_n02504458_3730.png,n02504458_3730.png,0.0,0.29721263,0.7641549,-0.33017805
alexnet_w3_mlp_simclrhn_probe1,1,384,NaN,oven,keyboard,8-10-10,0384_eid_dnn_8-10-10_keyboard_10_n03085013_20881.png,n03085013_20881.png,0.0,-2.6937408,0.4872923,-2.24933
alexnet_w3_mlp_simclrhn_probe1,1,385,NaN,dog,dog,4-10-10,0385_eid_dnn_4-10-10_dog_10_n02105641_8188.png,n02105641_8188.png,1.0,1.0151947,-1.0562598,1.4647396
alexnet_w3_mlp_simclrhn_probe1,1,386,NaN,oven,clock,32-10-10,0386_eid_dnn_32-10-10_clock_10_n03196217_6320.png,n03196217_6320.png,0.0,-5.611723,-2.53224,-2.1775234
alexnet_w3_mlp_simclrhn_probe1,1,387,NaN,oven,car,32-10-10,0387_eid_dnn_32-10-10_car_10_n04285008_12333.png,n04285008_12333.png,0.0,-11.578938,0.6316565,-8.634194
alexnet_w3_mlp_simclrhn_probe1,1,388,NaN,knife,knife,2-10-10,0388_eid_dnn_2-10-10_knife_10_n03041632_47743.png,n03041632_47743.png,1.0,-0.057938926,-1.979182,1.3585241
alexnet_w3_mlp_simclrhn_probe1,1,389,NaN,boat,boat,8-10-10,0389_eid_dnn_8-10-10_boat_10_n04612504_8073.png,n04612504_8073.png,1.0,-0.050537396,-0.41216785,0.25571135
alexnet_w3_mlp_simclrhn_probe1,1,390,NaN,oven,knife,128-10-10,0390_eid_dnn_128-10-10_knife_10_n03041632_20770.png,n03041632_20770.png,0.0,-2.9542375,0.28980187,-2.2938821
alexnet_w3_mlp_simclrhn_probe1,1,391,NaN,oven,car,32-10-10,0391_eid_dnn_32-10-10_car_10_n02814533_28783.png,n02814533_28783.png,0.0,-10.0659075,0.7385299,-7.639891
alexnet_w3_mlp_simclrhn_probe1,1,392,NaN,oven,car,128-10-10,0392_eid_dnn_128-10-10_car_10_n02814533_13533.png,n02814533_13533.png,0.0,-10.411551,-1.7596097,-6.1178465
alexnet_w3_mlp_simclrhn_probe1,1,393,NaN,dog,dog,16-10-10,0393_eid_dnn_16-10-10_dog_10_n02104029_8137.png,n02104029_8137.png,1.0,0.04499084,-2.1274867,1.5361736
alexnet_w3_mlp_simclrhn_probe1,1,394,NaN,bicycle,bicycle,4-10-10,0394_eid_dnn_4-10-10_bicycle_10_n02835271_3990.png,n02835271_3990.png,1.0,1.9295733,-2.522789,3.1482954
alexnet_w3_mlp_simclrhn_probe1,1,395,NaN,bear,bear,4-10-10,0395_eid_dnn_4-10-10_bear_10_n02132136_24311.png,n02132136_24311.png,1.0,1.5253868,-0.6669635,1.5502259
alexnet_w3_mlp_simclrhn_probe1,1,396,NaN,truck,truck,2-10-10,0396_eid_dnn_2-10-10_truck_10_n03796401_6966.png,n03796401_6966.png,1.0,8.8375225,5.3280873,2.4815454
alexnet_w3_mlp_simclrhn_probe1,1,397,NaN,knife,knife,1-10-10,0397_eid_dnn_1-10-10_knife_10_n03041632_8468.png,n03041632_8468.png,1.0,-1.0692838,-3.7955515,1.9277625
alexnet_w3_mlp_simclrhn_probe1,1,398,NaN,elephant,elephant,128-10-10,0398_eid_dnn_128-10-10_elephant_10_n02504458_6799.png,n02504458_6799.png,1.0,-1.6644458,-1.7342834,0.049382705
alexnet_w3_mlp_simclrhn_probe1,1,399,NaN,bird,keyboard,16-10-10,0399_eid_dnn_16-10-10_keyboard_10_n03085013_24402.png,n03085013_24402.png,0.0,-12.899588,-2.2397258,-7.5376606
alexnet_w3_mlp_simclrhn_probe1,1,400,NaN,bear,knife,16-10-10,0400_eid_dnn_16-10-10_knife_10_n03041632_25772.png,n03041632_25772.png,0.0,-2.9404435,-0.42685616,-1.7773747
alexnet_w3_mlp_simclrhn_probe1,1,401,NaN,bear,elephant,32-10-10,0401_eid_dnn_32-10-10_elephant_10_n02504458_5839.png,n02504458_5839.png,0.0,-1.3339454,-0.49749267,-0.5914614
alexnet_w3_mlp_simclrhn_probe1,1,402,NaN,bear,elephant,64-10-10,0402_eid_dnn_64-10-10_elephant_10_n02504458_5178.png,n02504458_5178.png,0.0,-3.826767,-1.2863891,-1.7963184
alexnet_w3_mlp_simclrhn_probe1,1,403,NaN,oven,bicycle,32-10-10,0403_eid_dnn_32-10-10_bicycle_10_n02835271_27014.png,n02835271_27014.png,0.0,-7.9319215,-0.17958942,-5.4817266
alexnet_w3_mlp_simclrhn_probe1,1,404,NaN,oven,car,128-10-10,0404_eid_dnn_128-10-10_car_10_n04285008_15218.png,n04285008_15218.png,0.0,-9.278075,-1.137388,-5.7563353
alexnet_w3_mlp_simclrhn_probe1,1,405,NaN,bicycle,bicycle,8-10-10,0405_eid_dnn_8-10-10_bicycle_10_n02835271_19955.png,n02835271_19955.png,1.0,-1.0165849,-3.0559695,1.4420627
alexnet_w3_mlp_simclrhn_probe1,1,406,NaN,truck,truck,1-10-10,0406_eid_dnn_1-10-10_truck_10_n03796401_874.png,n03796401_874.png,1.0,4.7790084,1.8546985,2.0677993
alexnet_w3_mlp_simclrhn_probe1,1,407,NaN,dog,dog,2-10-10,0407_eid_dnn_2-10-10_dog_10_n02108915_6092.png,n02108915_6092.png,1.0,1.2603093,-1.2181017,1.7525014
alexnet_w3_mlp_simclrhn_probe1,1,408,NaN,oven,clock,16-10-10,0408_eid_dnn_16-10-10_clock_10_n04548280_6337.png,n04548280_6337.png,0.0,-7.7175364,0.3434579,-5.6999836
alexnet_w3_mlp_simclrhn_probe1,1,409,NaN,bear,boat,4-10-10,0409_eid_dnn_4-10-10_boat_10_n04273569_1388.png,n04273569_1388.png,0.0,-0.1609601,0.4949076,-0.4637685
alexnet_w3_mlp_simclrhn_probe1,1,410,NaN,oven,clock,64-10-10,0410_eid_dnn_64-10-10_clock_10_n02708093_2676.png,n02708093_2676.png,0.0,-7.655023,0.43063867,-5.7174263
alexnet_w3_mlp_simclrhn_probe1,1,411,NaN,bear,dog,64-10-10,0411_eid_dnn_64-10-10_dog_10_n02107683_5424.png,n02107683_5424.png,0.0,-2.503065,-1.9915103,-0.3617239
alexnet_w3_mlp_simclrhn_probe1,1,412,NaN,chair,chair,1-10-10,0412_eid_dnn_1-10-10_chair_10_n04099969_29038.png,n04099969_29038.png,1.0,1.2829711,-1.2347498,1.7802976
alexnet_w3_mlp_simclrhn_probe1,1,413,NaN,oven,clock,16-10-10,0413_eid_dnn_16-10-10_clock_10_n04548280_3219.png,n04548280_3219.png,0.0,-6.4393334,1.1718546,-5.3819227
alexnet_w3_mlp_simclrhn_probe1,1,414,NaN,knife,clock,32-10-10,0414_eid_dnn_32-10-10_clock_10_n03196217_8282.png,n03196217_8282.png,0.0,-5.262674,-2.3839614,-2.035557
alexnet_w3_mlp_simclrhn_probe1,1,415,NaN,oven,oven,8-10-10,0415_eid_dnn_8-10-10_oven_10_n04111531_22041.png,n04111531_22041.png,1.0,3.7911088,-3.095232,4.8693786
alexnet_w3_mlp_simclrhn_probe1,1,416,NaN,bear,bear,8-10-10,0416_eid_dnn_8-10-10_bear_10_n02134084_6964.png,n02134084_6964.png,1.0,2.0017047,-0.50646365,1.7735428
alexnet_w3_mlp_simclrhn_probe1,1,417,NaN,oven,bicycle,64-10-10,0417_eid_dnn_64-10-10_bicycle_10_n03792782_11921.png,n03792782_11921.png,0.0,-7.3187547,-0.43044615,-4.87077
alexnet_w3_mlp_simclrhn_probe1,1,418,NaN,oven,clock,8-10-10,0418_eid_dnn_8-10-10_clock_10_n04548280_1809.png,n04548280_1809.png,0.0,-4.168694,-2.3346887,-1.2968377
alexnet_w3_mlp_simclrhn_probe1,1,419,NaN,bird,bird,4-10-10,0419_eid_dnn_4-10-10_bird_10_n01833805_202.png,n01833805_202.png,1.0,0.25957403,-5.650525,4.179071
alexnet_w3_mlp_simclrhn_probe1,1,420,NaN,oven,keyboard,64-10-10,0420_eid_dnn_64-10-10_keyboard_10_n03085013_7511.png,n03085013_7511.png,0.0,-7.692771,-0.16047262,-5.3261395
alexnet_w3_mlp_simclrhn_probe1,1,421,NaN,dog,bird,1-10-10,0421_eid_dnn_1-10-10_bird_10_n02025239_5287.png,n02025239_5287.png,0.0,-1.814273,-1.4395248,-0.26498702
alexnet_w3_mlp_simclrhn_probe1,1,422,NaN,oven,boat,64-10-10,0422_eid_dnn_64-10-10_boat_10_n03662601_27960.png,n03662601_27960.png,0.0,-4.323447,-1.2614101,-2.1651871
alexnet_w3_mlp_simclrhn_probe1,1,423,NaN,elephant,bottle,1-10-10,0423_eid_dnn_1-10-10_bottle_10_n04591713_6855.png,n04591713_6855.png,0.0,-4.0789843,-0.46930885,-2.552426
alexnet_w3_mlp_simclrhn_probe1,1,424,NaN,oven,elephant,128-10-10,0424_eid_dnn_128-10-10_elephant_10_n02504013_4424.png,n02504013_4424.png,0.0,-2.5996647,-0.16680545,-1.7202913
alexnet_w3_mlp_simclrhn_probe1,1,425,NaN,clock,clock,2-10-10,0425_eid_dnn_2-10-10_clock_10_n04548280_3295.png,n04548280_3295.png,1.0,1.206798,-1.1607182,1.6740867
alexnet_w3_mlp_simclrhn_probe1,1,426,NaN,airplane,airplane,1-10-10,0426_eid_dnn_1-10-10_airplane_10_n02690373_6144.png,n02690373_6144.png,1.0,7.6790404,-1.4288744,6.4402685
alexnet_w3_mlp_simclrhn_probe1,1,427,NaN,dog,truck,32-10-10,0427_eid_dnn_32-10-10_truck_10_n04467665_70894.png,n04467665_70894.png,0.0,-6.560251,-1.4696238,-3.5996175
alexnet_w3_mlp_simclrhn_probe1,1,428,NaN,oven,boat,128-10-10,0428_eid_dnn_128-10-10_boat_10_n02951358_30474.png,n02951358_30474.png,0.0,-4.420806,-1.6062145,-1.9902167
alexnet_w3_mlp_simclrhn_probe1,1,429,NaN,bear,bear,4-10-10,0429_eid_dnn_4-10-10_bear_10_n02132136_6434.png,n02132136_6434.png,1.0,4.903053,2.345484,1.8084743
alexnet_w3_mlp_simclrhn_probe1,1,430,NaN,oven,keyboard,32-10-10,0430_eid_dnn_32-10-10_keyboard_10_n04505470_5009.png,n04505470_5009.png,0.0,-7.140211,-0.2637394,-4.8623996
alexnet_w3_mlp_simclrhn_probe1,1,431,NaN,keyboard,keyboard,2-10-10,0431_eid_dnn_2-10-10_keyboard_10_n03085013_13005.png,n03085013_13005.png,1.0,5.512805,-1.809031,5.17732
alexnet_w3_mlp_simclrhn_probe1,1,432,NaN,chair,chair,1-10-10,0432_eid_dnn_1-10-10_chair_10_n03376595_6865.png,n03376595_6865.png,1.0,3.256846,-1.8684099,3.624103
alexnet_w3_mlp_simclrhn_probe1,1,433,NaN,oven,bicycle,32-10-10,0433_eid_dnn_32-10-10_bicycle_10_n02835271_6122.png,n02835271_6122.png,0.0,-6.2753158,-0.89890355,-3.8016977
alexnet_w3_mlp_simclrhn_probe1,1,434,NaN,oven,oven,4-10-10,0434_eid_dnn_4-10-10_oven_10_n04111531_11499.png,n04111531_11499.png,1.0,2.9830806,-1.9671781,3.5003617
alexnet_w3_mlp_simclrhn_probe1,1,435,NaN,bird,bird,1-10-10,0435_eid_dnn_1-10-10_bird_10_n02009229_5765.png,n02009229_5765.png,1.0,1.5308989,-2.445186,2.8115165
alexnet_w3_mlp_simclrhn_probe1,1,436,NaN,bear,bottle,32-10-10,0436_eid_dnn_32-10-10_bottle_10_n04560804_2181.png,n04560804_2181.png,0.0,-4.6650043,-0.8056279,-2.7289913
alexnet_w3_mlp_simclrhn_probe1,1,437,NaN,bear,bicycle,32-10-10,0437_eid_dnn_32-10-10_bicycle_10_n03792782_3774.png,n03792782_3774.png,0.0,-3.9285042,-0.43786028,-2.4682581
alexnet_w3_mlp_simclrhn_probe1,1,438,NaN,airplane,bird,16-10-10,0438_eid_dnn_16-10-10_bird_10_n01614925_1683.png,n01614925_1683.png,0.0,-1.7380608,-0.4499987,-0.9107975
alexnet_w3_mlp_simclrhn_probe1,1,439,NaN,oven,clock,8-10-10,0439_eid_dnn_8-10-10_clock_10_n02708093_4692.png,n02708093_4692.png,0.0,-3.3324764,-3.1242783,-0.14721827
alexnet_w3_mlp_simclrhn_probe1,1,440,NaN,dog,dog,4-10-10,0440_eid_dnn_4-10-10_dog_10_n02109961_71298.png,n02109961_71298.png,1.0,0.8769653,0.40217653,0.33572635
alexnet_w3_mlp_simclrhn_probe1,1,441,NaN,keyboard,keyboard,2-10-10,0441_eid_dnn_2-10-10_keyboard_10_n03085013_23269.png,n03085013_23269.png,1.0,0.23339984,-1.2477313,1.047318
alexnet_w3_mlp_simclrhn_probe1,1,442,NaN,elephant,elephant,2-10-10,0442_eid_dnn_2-10-10_elephant_10_n02504458_5614.png,n02504458_5614.png,1.0,2.4633672,-1.2882247,2.6527762
alexnet_w3_mlp_simclrhn_probe1,1,443,NaN,airplane,car,2-10-10,0443_eid_dnn_2-10-10_car_10_n04285008_4640.png,n04285008_4640.png,0.0,-1.6085082,0.8590817,-1.7448496
alexnet_w3_mlp_simclrhn_probe1,1,444,NaN,oven,oven,128-10-10,0444_eid_dnn_128-10-10_oven_10_n04111531_6346.png,n04111531_6346.png,1.0,0.00785023,-1.6543171,1.1753298
alexnet_w3_mlp_simclrhn_probe1,1,445,NaN,chair,chair,2-10-10,0445_eid_dnn_2-10-10_chair_10_n04099969_14851.png,n04099969_14851.png,1.0,2.261563,-1.543561,2.690629
alexnet_w3_mlp_simclrhn_probe1,1,446,NaN,oven,bird,64-10-10,0446_eid_dnn_64-10-10_bird_10_n02051845_534.png,n02051845_534.png,0.0,-6.1319847,-0.8675927,-3.7224872
alexnet_w3_mlp_simclrhn_probe1,1,447,NaN,oven,bird,128-10-10,0447_eid_dnn_128-10-10_bird_10_n02056570_9342.png,n02056570_9342.png,0.0,-6.9670906,-1.9193249,-3.5693095
alexnet_w3_mlp_simclrhn_probe1,1,448,NaN,oven,oven,16-10-10,0448_eid_dnn_16-10-10_oven_10_n04111531_4900.png,n04111531_4900.png,1.0,3.4692736,-3.3347025,4.8111377
alexnet_w3_mlp_simclrhn_probe1,1,449,NaN,oven,boat,32-10-10,0449_eid_dnn_32-10-10_boat_10_n02951358_31973.png,n02951358_31973.png,0.0,-6.4633117,-1.3625233,-3.606802
alexnet_w3_mlp_simclrhn_probe1,1,450,NaN,knife,keyboard,4-10-10,0450_eid_dnn_4-10-10_keyboard_10_n03085013_19842.png,n03085013_19842.png,0.0,-5.3960085,-1.6144134,-2.6739917
alexnet_w3_mlp_simclrhn_probe1,1,451,NaN,bear,keyboard,8-10-10,0451_eid_dnn_8-10-10_keyboard_10_n03085013_8296.png,n03085013_8296.png,0.0,-2.1571684,-2.0788558,-0.055375397
alexnet_w3_mlp_simclrhn_probe1,1,452,NaN,oven,car,16-10-10,0452_eid_dnn_16-10-10_car_10_n03100240_3528.png,n03100240_3528.png,0.0,-5.8690934,-0.50119305,-3.7956789
alexnet_w3_mlp_simclrhn_probe1,1,453,NaN,oven,cat,8-10-10,0453_eid_dnn_8-10-10_cat_10_n02123159_7210.png,n02123159_7210.png,0.0,0.54637724,0.65562576,-0.07725037
alexnet_w3_mlp_simclrhn_probe1,1,454,NaN,knife,knife,16-10-10,0454_eid_dnn_16-10-10_knife_10_n03041632_56172.png,n03041632_56172.png,1.0,-0.38373727,-2.6611204,1.6103531
alexnet_w3_mlp_simclrhn_probe1,1,455,NaN,oven,oven,4-10-10,0455_eid_dnn_4-10-10_oven_10_n04111531_2116.png,n04111531_2116.png,1.0,5.30265,-3.2979794,6.081564
alexnet_w3_mlp_simclrhn_probe1,1,456,NaN,oven,bicycle,8-10-10,0456_eid_dnn_8-10-10_bicycle_10_n02835271_12477.png,n02835271_12477.png,0.0,-2.3399665,-1.8981246,-0.31242946
alexnet_w3_mlp_simclrhn_probe1,1,457,NaN,knife,knife,2-10-10,0457_eid_dnn_2-10-10_knife_10_n03041632_42472.png,n03041632_42472.png,1.0,3.29123,-1.4740833,3.3695853
alexnet_w3_mlp_simclrhn_probe1,1,458,NaN,oven,oven,2-10-10,0458_eid_dnn_2-10-10_oven_10_n04111531_8818.png,n04111531_8818.png,1.0,0.3009282,-0.43852106,0.5228696
alexnet_w3_mlp_simclrhn_probe1,1,459,NaN,elephant,truck,2-10-10,0459_eid_dnn_2-10-10_truck_10_n04467665_67115.png,n04467665_67115.png,0.0,-1.6735775,-0.99493206,-0.47987485
alexnet_w3_mlp_simclrhn_probe1,1,460,NaN,bird,bird,4-10-10,0460_eid_dnn_4-10-10_bird_10_n02011460_3521.png,n02011460_3521.png,1.0,-0.11885679,-5.8095756,4.023946
alexnet_w3_mlp_simclrhn_probe1,1,461,NaN,bear,bear,64-10-10,0461_eid_dnn_64-10-10_bear_10_n02133161_3533.png,n02133161_3533.png,1.0,1.2887001,-2.3541465,2.5758815
alexnet_w3_mlp_simclrhn_probe1,1,462,NaN,bear,bird,8-10-10,0462_eid_dnn_8-10-10_bird_10_n02013706_637.png,n02013706_637.png,0.0,-1.258333,-1.2042482,-0.038243715
alexnet_w3_mlp_simclrhn_probe1,1,463,NaN,bear,bear,64-10-10,0463_eid_dnn_64-10-10_bear_10_n02132136_29636.png,n02132136_29636.png,1.0,0.45842525,-0.9125873,0.9694523
alexnet_w3_mlp_simclrhn_probe1,1,464,NaN,bicycle,bicycle,2-10-10,0464_eid_dnn_2-10-10_bicycle_10_n02835271_634.png,n02835271_634.png,1.0,1.4523885,-2.2329235,2.605909
alexnet_w3_mlp_simclrhn_probe1,1,465,NaN,keyboard,keyboard,1-10-10,0465_eid_dnn_1-10-10_keyboard_10_n04505470_4621.png,n04505470_4621.png,1.0,0.41498733,-0.42567444,0.59443766
alexnet_w3_mlp_simclrhn_probe1,1,466,NaN,bear,bear,16-10-10,0466_eid_dnn_16-10-10_bear_10_n02134084_2844.png,n02134084_2844.png,1.0,-0.99486494,-1.6179519,0.440589
alexnet_w3_mlp_simclrhn_probe1,1,467,NaN,bicycle,bicycle,4-10-10,0467_eid_dnn_4-10-10_bicycle_10_n03792782_17088.png,n03792782_17088.png,1.0,0.20549178,-1.8792789,1.4741555
alexnet_w3_mlp_simclrhn_probe1,1,468,NaN,airplane,clock,4-10-10,0468_eid_dnn_4-10-10_clock_10_n03196217_8706.png,n03196217_8706.png,0.0,-4.130966,-2.245236,-1.3334126
alexnet_w3_mlp_simclrhn_probe1,1,469,NaN,oven,oven,4-10-10,0469_eid_dnn_4-10-10_oven_10_n04111531_15052.png,n04111531_15052.png,1.0,3.2168279,-0.6857182,2.7595167
alexnet_w3_mlp_simclrhn_probe1,1,470,NaN,oven,bottle,16-10-10,0470_eid_dnn_16-10-10_bottle_10_n04560804_5769.png,n04560804_5769.png,0.0,-2.7617695,0.8854296,-2.5789592
alexnet_w3_mlp_simclrhn_probe1,1,471,NaN,elephant,dog,128-10-10,0471_eid_dnn_128-10-10_dog_10_n02110063_14116.png,n02110063_14116.png,0.0,-2.26473,-0.18198651,-1.472722
alexnet_w3_mlp_simclrhn_probe1,1,472,NaN,oven,cat,32-10-10,0472_eid_dnn_32-10-10_cat_10_n02124075_3609.png,n02124075_3609.png,0.0,-1.8357452,-0.46472847,-0.96945524
alexnet_w3_mlp_simclrhn_probe1,1,473,NaN,airplane,airplane,32-10-10,0473_eid_dnn_32-10-10_airplane_10_n02690373_10926.png,n02690373_10926.png,1.0,-0.066200614,-1.708263,1.1611135
alexnet_w3_mlp_simclrhn_probe1,1,474,NaN,oven,bird,16-10-10,0474_eid_dnn_16-10-10_bird_10_n02033041_7229.png,n02033041_7229.png,0.0,-3.0265553,-1.1303147,-1.3408446
alexnet_w3_mlp_simclrhn_probe1,1,475,NaN,bird,bird,2-10-10,0475_eid_dnn_2-10-10_bird_10_n02006656_611.png,n02006656_611.png,1.0,-0.9064047,-1.6485622,0.5247846
alexnet_w3_mlp_simclrhn_probe1,1,476,NaN,bear,bear,16-10-10,0476_eid_dnn_16-10-10_bear_10_n02133161_958.png,n02133161_958.png,1.0,-1.588251,-1.7777114,0.13396874
alexnet_w3_mlp_simclrhn_probe1,1,477,NaN,bird,bird,8-10-10,0477_eid_dnn_8-10-10_bird_10_n01843065_148.png,n01843065_148.png,1.0,-0.17289634,-1.2872648,0.7879775
alexnet_w3_mlp_simclrhn_probe1,1,478,NaN,oven,cat,32-10-10,0478_eid_dnn_32-10-10_cat_10_n02123597_13623.png,n02123597_13623.png,0.0,-3.1246898,-0.838678,-1.6164544
alexnet_w3_mlp_simclrhn_probe1,1,479,NaN,bicycle,bicycle,8-10-10,0479_eid_dnn_8-10-10_bicycle_10_n02835271_12957.png,n02835271_12957.png,1.0,0.72935605,-1.806627,1.7932109
alexnet_w3_mlp_simclrhn_probe1,1,480,NaN,knife,knife,8-10-10,0480_eid_dnn_8-10-10_knife_10_n03041632_96714.png,n03041632_96714.png,1.0,-0.7799722,-2.4131274,1.1548152
alexnet_w3_mlp_simclrhn_probe1,1,481,NaN,bear,bear,128-10-10,0481_eid_dnn_128-10-10_bear_10_n02133161_3550.png,n02133161_3550.png,1.0,-2.1357107,-2.27174,0.096187204
alexnet_w3_mlp_simclrhn_probe1,1,482,NaN,airplane,airplane,2-10-10,0482_eid_dnn_2-10-10_airplane_10_n02690373_4471.png,n02690373_4471.png,1.0,6.451463,0.059228487,4.519993
alexnet_w3_mlp_simclrhn_probe1,1,483,NaN,oven,airplane,64-10-10,0483_eid_dnn_64-10-10_airplane_10_n02690373_2026.png,n02690373_2026.png,0.0,-2.6276188,-1.0097976,-1.1439724
alexnet_w3_mlp_simclrhn_probe1,1,484,NaN,car,car,1-10-10,0484_eid_dnn_1-10-10_car_10_n03100240_18270.png,n03100240_18270.png,1.0,1.6360937,0.581145,0.7459615
alexnet_w3_mlp_simclrhn_probe1,1,485,NaN,oven,elephant,128-10-10,0485_eid_dnn_128-10-10_elephant_10_n02504458_5204.png,n02504458_5204.png,0.0,-1.2817447,-1.0552895,-0.16012801
alexnet_w3_mlp_simclrhn_probe1,1,486,NaN,oven,oven,1-10-10,0486_eid_dnn_1-10-10_oven_10_n04111531_10339.png,n04111531_10339.png,1.0,2.0097158,-0.42599416,1.7223071
alexnet_w3_mlp_simclrhn_probe1,1,487,NaN,elephant,elephant,2-10-10,0487_eid_dnn_2-10-10_elephant_10_n02504458_12705.png,n02504458_12705.png,1.0,6.758873,0.31508583,4.5564456
alexnet_w3_mlp_simclrhn_probe1,1,488,NaN,knife,boat,1-10-10,0488_eid_dnn_1-10-10_boat_10_n03344393_9268.png,n03344393_9268.png,0.0,-1.4261521,-1.1747646,-0.1777578
alexnet_w3_mlp_simclrhn_probe1,1,489,NaN,bird,bicycle,16-10-10,0489_eid_dnn_16-10-10_bicycle_10_n02835271_23173.png,n02835271_23173.png,0.0,-3.2180855,-3.1832054,-0.024664
alexnet_w3_mlp_simclrhn_probe1,1,490,NaN,oven,knife,32-10-10,0490_eid_dnn_32-10-10_knife_10_n03041632_43975.png,n03041632_43975.png,0.0,-2.4994674,-0.44874978,-1.4500763
alexnet_w3_mlp_simclrhn_probe1,1,491,NaN,elephant,bicycle,128-10-10,0491_eid_dnn_128-10-10_bicycle_10_n03792782_3299.png,n03792782_3299.png,0.0,-3.8892944,-1.4062519,-1.7557762
alexnet_w3_mlp_simclrhn_probe1,1,492,NaN,oven,boat,32-10-10,0492_eid_dnn_32-10-10_boat_10_n04273569_5679.png,n04273569_5679.png,0.0,-5.706647,-0.95062405,-3.3630161
alexnet_w3_mlp_simclrhn_probe1,1,493,NaN,oven,bird,32-10-10,0493_eid_dnn_32-10-10_bird_10_n02056570_10127.png,n02056570_10127.png,0.0,-5.2151256,0.107749805,-3.7638414
alexnet_w3_mlp_simclrhn_probe1,1,494,NaN,bear,bear,32-10-10,0494_eid_dnn_32-10-10_bear_10_n02133161_7688.png,n02133161_7688.png,1.0,-0.5800728,-1.0796268,0.35323802
alexnet_w3_mlp_simclrhn_probe1,1,495,NaN,oven,cat,16-10-10,0495_eid_dnn_16-10-10_cat_10_n02123597_624.png,n02123597_624.png,0.0,-2.7944376,-1.4178721,-0.9733789
alexnet_w3_mlp_simclrhn_probe1,1,496,NaN,bear,bird,64-10-10,0496_eid_dnn_64-10-10_bird_10_n01560419_3399.png,n01560419_3399.png,0.0,-4.0766964,-2.153307,-1.3600417
alexnet_w3_mlp_simclrhn_probe1,1,497,NaN,oven,cat,32-10-10,0497_eid_dnn_32-10-10_cat_10_n02123045_12762.png,n02123045_12762.png,0.0,-4.4816346,-1.9461131,-1.7928845
alexnet_w3_mlp_simclrhn_probe1,1,498,NaN,oven,car,16-10-10,0498_eid_dnn_16-10-10_car_10_n02814533_7247.png,n02814533_7247.png,0.0,-7.36092,-1.2200967,-4.342218
alexnet_w3_mlp_simclrhn_probe1,1,499,NaN,keyboard,keyboard,4-10-10,0499_eid_dnn_4-10-10_keyboard_10_n03085013_4941.png,n03085013_4941.png,1.0,-1.1737826,-1.4702922,0.20966397
alexnet_w3_mlp_simclrhn_probe1,1,500,NaN,knife,truck,4-10-10,0500_eid_dnn_4-10-10_truck_10_n03417042_6420.png,n03417042_6420.png,0.0,-3.7010756,-1.2266045,-1.7497153
alexnet_w3_mlp_simclrhn_probe1,1,501,NaN,oven,boat,64-10-10,0501_eid_dnn_64-10-10_boat_10_n03662601_2120.png,n03662601_2120.png,0.0,-6.023591,-1.0338459,-3.5282826
alexnet_w3_mlp_simclrhn_probe1,1,502,NaN,elephant,bear,2-10-10,0502_eid_dnn_2-10-10_bear_10_n02134084_7331.png,n02134084_7331.png,0.0,2.2981088,2.3369842,-0.027489018
alexnet_w3_mlp_simclrhn_probe1,1,503,NaN,oven,bottle,32-10-10,0503_eid_dnn_32-10-10_bottle_10_n02823428_906.png,n02823428_906.png,0.0,-4.452449,0.23477992,-3.3143713
alexnet_w3_mlp_simclrhn_probe1,1,504,NaN,cat,cat,16-10-10,0504_eid_dnn_16-10-10_cat_10_n02123394_270.png,n02123394_270.png,1.0,-1.6091713,-1.7186432,0.077408336
alexnet_w3_mlp_simclrhn_probe1,1,505,NaN,oven,boat,2-10-10,0505_eid_dnn_2-10-10_boat_10_n02951358_1910.png,n02951358_1910.png,0.0,-2.3565185,-0.20107219,-1.5241307
alexnet_w3_mlp_simclrhn_probe1,1,506,NaN,bear,knife,4-10-10,0506_eid_dnn_4-10-10_knife_10_n03041632_23678.png,n03041632_23678.png,0.0,-2.8942215,0.29282773,-2.2535844
alexnet_w3_mlp_simclrhn_probe1,1,507,NaN,bear,car,16-10-10,0507_eid_dnn_16-10-10_car_10_n02814533_31083.png,n02814533_31083.png,0.0,-7.7645545,-1.4897687,-4.436944
alexnet_w3_mlp_simclrhn_probe1,1,508,NaN,keyboard,keyboard,1-10-10,0508_eid_dnn_1-10-10_keyboard_10_n04505470_2881.png,n04505470_2881.png,1.0,4.8830414,-0.66599876,3.923764
alexnet_w3_mlp_simclrhn_probe1,1,509,NaN,dog,cat,8-10-10,0509_eid_dnn_8-10-10_cat_10_n02125311_2923.png,n02125311_2923.png,0.0,-1.5871363,0.35033083,-1.3699962
alexnet_w3_mlp_simclrhn_probe1,1,510,NaN,bicycle,bicycle,2-10-10,0510_eid_dnn_2-10-10_bicycle_10_n03792782_2598.png,n03792782_2598.png,1.0,3.0589423,-1.3681536,3.1304295
alexnet_w3_mlp_simclrhn_probe1,1,511,NaN,car,car,2-10-10,0511_eid_dnn_2-10-10_car_10_n03100240_4460.png,n03100240_4460.png,1.0,4.1114373,2.2271538,1.3323897
alexnet_w3_mlp_simclrhn_probe1,1,512,NaN,knife,knife,4-10-10,0512_eid_dnn_4-10-10_knife_10_n03041632_29920.png,n03041632_29920.png,1.0,-3.1762297,-5.766023,1.8312606
alexnet_w3_mlp_simclrhn_probe1,1,513,NaN,bear,bird,32-10-10,0513_eid_dnn_32-10-10_bird_10_n01796340_3845.png,n01796340_3845.png,0.0,-3.593271,-0.5062016,-2.1828878
alexnet_w3_mlp_simclrhn_probe1,1,514,NaN,oven,keyboard,8-10-10,0514_eid_dnn_8-10-10_keyboard_10_n03085013_21932.png,n03085013_21932.png,0.0,-1.7253035,-0.24747914,-1.0449797
alexnet_w3_mlp_simclrhn_probe1,1,515,NaN,bottle,bottle,1-10-10,0515_eid_dnn_1-10-10_bottle_10_n02823428_64.png,n02823428_64.png,1.0,4.793826,-1.8592175,4.7044125
alexnet_w3_mlp_simclrhn_probe1,1,516,NaN,oven,chair,8-10-10,0516_eid_dnn_8-10-10_chair_10_n04099969_4374.png,n04099969_4374.png,0.0,-4.4020743,-0.028949507,-3.092266
alexnet_w3_mlp_simclrhn_probe1,1,517,NaN,clock,clock,1-10-10,0517_eid_dnn_1-10-10_clock_10_n02708093_8257.png,n02708093_8257.png,1.0,5.3639107,-2.4312668,5.512023
alexnet_w3_mlp_simclrhn_probe1,1,518,NaN,airplane,knife,16-10-10,0518_eid_dnn_16-10-10_knife_10_n03041632_45569.png,n03041632_45569.png,0.0,-2.7331913,-1.7304816,-0.70902276
alexnet_w3_mlp_simclrhn_probe1,1,519,NaN,oven,chair,128-10-10,0519_eid_dnn_128-10-10_chair_10_n04099969_1850.png,n04099969_1850.png,0.0,-5.6059184,0.16103882,-4.0778546
alexnet_w3_mlp_simclrhn_probe1,1,520,NaN,dog,dog,2-10-10,0520_eid_dnn_2-10-10_dog_10_n02092002_2008.png,n02092002_2008.png,1.0,1.2395812,-1.4269853,1.8855472
alexnet_w3_mlp_simclrhn_probe1,1,521,NaN,bicycle,bicycle,8-10-10,0521_eid_dnn_8-10-10_bicycle_10_n02835271_8105.png,n02835271_8105.png,1.0,0.5268591,-2.3438158,2.0298736
alexnet_w3_mlp_simclrhn_probe1,1,522,NaN,oven,oven,64-10-10,0522_eid_dnn_64-10-10_oven_10_n04111531_14126.png,n04111531_14126.png,1.0,-0.7062632,-1.1116452,0.2866484
alexnet_w3_mlp_simclrhn_probe1,1,523,NaN,cat,elephant,4-10-10,0523_eid_dnn_4-10-10_elephant_10_n02504013_13766.png,n02504013_13766.png,0.0,-1.1748765,-0.9659535,-0.14773081
alexnet_w3_mlp_simclrhn_probe1,1,524,NaN,oven,bicycle,64-10-10,0524_eid_dnn_64-10-10_bicycle_10_n02835271_18361.png,n02835271_18361.png,0.0,-5.0171986,-0.51856047,-3.1810176
alexnet_w3_mlp_simclrhn_probe1,1,525,NaN,oven,bird,8-10-10,0525_eid_dnn_8-10-10_bird_10_n01582220_4708.png,n01582220_4708.png,0.0,-2.1059563,-1.7035339,-0.28455564
alexnet_w3_mlp_simclrhn_probe1,1,526,NaN,dog,chair,16-10-10,0526_eid_dnn_16-10-10_chair_10_n04099969_101.png,n04099969_101.png,0.0,-8.423225,-0.8331302,-5.3670077
alexnet_w3_mlp_simclrhn_probe1,1,527,NaN,cat,cat,1-10-10,0527_eid_dnn_1-10-10_cat_10_n02124075_724.png,n02124075_724.png,1.0,3.8438027,-4.1145205,5.6273847
alexnet_w3_mlp_simclrhn_probe1,1,528,NaN,oven,bicycle,32-10-10,0528_eid_dnn_32-10-10_bicycle_10_n02835271_43.png,n02835271_43.png,0.0,-5.592566,-0.446231,-3.6390085
alexnet_w3_mlp_simclrhn_probe1,1,529,NaN,bird,bird,2-10-10,0529_eid_dnn_2-10-10_bird_10_n02017213_5362.png,n02017213_5362.png,1.0,1.0339596,-2.5231962,2.515289
alexnet_w3_mlp_simclrhn_probe1,1,530,NaN,oven,dog,1-10-10,0530_eid_dnn_1-10-10_dog_10_n02088466_1769.png,n02088466_1769.png,0.0,-1.483857,-0.3605575,-0.79429275
alexnet_w3_mlp_simclrhn_probe1,1,531,NaN,bear,bear,1-10-10,0531_eid_dnn_1-10-10_bear_10_n02133161_5653.png,n02133161_5653.png,1.0,2.9927406,2.9432597,0.03498829
alexnet_w3_mlp_simclrhn_probe1,1,532,NaN,dog,dog,1-10-10,0532_eid_dnn_1-10-10_dog_10_n02098105_4676.png,n02098105_4676.png,1.0,1.2327421,0.62849563,0.42726675
alexnet_w3_mlp_simclrhn_probe1,1,533,NaN,cat,cat,2-10-10,0533_eid_dnn_2-10-10_cat_10_n02123045_3593.png,n02123045_3593.png,1.0,1.4995011,-1.968715,2.452399
alexnet_w3_mlp_simclrhn_probe1,1,534,NaN,knife,bottle,8-10-10,0534_eid_dnn_8-10-10_bottle_10_n04560804_265.png,n04560804_265.png,0.0,-3.6697547,-1.2016394,-1.7452211
alexnet_w3_mlp_simclrhn_probe1,1,535,NaN,bear,knife,128-10-10,0535_eid_dnn_128-10-10_knife_10_n03041632_1556.png,n03041632_1556.png,0.0,-1.9675863,-0.877174,-0.77103794
alexnet_w3_mlp_simclrhn_probe1,1,536,NaN,bear,chair,4-10-10,0536_eid_dnn_4-10-10_chair_10_n02791124_9595.png,n02791124_9595.png,0.0,-2.3582208,-0.577026,-1.2594949
alexnet_w3_mlp_simclrhn_probe1,1,537,NaN,bear,dog,32-10-10,0537_eid_dnn_32-10-10_dog_10_n02107312_2933.png,n02107312_2933.png,0.0,-3.3532076,0.46065307,-2.6968067
alexnet_w3_mlp_simclrhn_probe1,1,538,NaN,oven,oven,32-10-10,0538_eid_dnn_32-10-10_oven_10_n04111531_101.png,n04111531_101.png,1.0,0.396981,-2.359334,1.9490091
alexnet_w3_mlp_simclrhn_probe1,1,539,NaN,truck,truck,4-10-10,0539_eid_dnn_4-10-10_truck_10_n03417042_7204.png,n03417042_7204.png,1.0,-0.7611818,-1.2434775,0.34103456
alexnet_w3_mlp_simclrhn_probe1,1,540,NaN,oven,bear,64-10-10,0540_eid_dnn_64-10-10_bear_10_n02132136_2120.png,n02132136_2120.png,0.0,-1.9310261,-1.1941239,-0.5210686
alexnet_w3_mlp_simclrhn_probe1,1,541,NaN,oven,airplane,64-10-10,0541_eid_dnn_64-10-10_airplane_10_n02690373_18412.png,n02690373_18412.png,0.0,-4.1681056,-1.3553157,-1.9889429
alexnet_w3_mlp_simclrhn_probe1,1,542,NaN,oven,knife,128-10-10,0542_eid_dnn_128-10-10_knife_10_n03041632_21017.png,n03041632_21017.png,0.0,-3.3694754,-0.41326243,-2.0903583
alexnet_w3_mlp_simclrhn_probe1,1,543,NaN,oven,elephant,128-10-10,0543_eid_dnn_128-10-10_elephant_10_n02504458_8414.png,n02504458_8414.png,0.0,-1.7847447,-1.2822187,-0.3553396
alexnet_w3_mlp_simclrhn_probe1,1,544,NaN,bear,bottle,128-10-10,0544_eid_dnn_128-10-10_bottle_10_n04557648_11046.png,n04557648_11046.png,0.0,-2.9076288,-0.70796347,-1.5553982
alexnet_w3_mlp_simclrhn_probe1,1,545,NaN,oven,clock,64-10-10,0545_eid_dnn_64-10-10_clock_10_n03196217_10578.png,n03196217_10578.png,0.0,-7.1490273,0.70358753,-5.552637
alexnet_w3_mlp_simclrhn_probe1,1,546,NaN,bear,bear,2-10-10,0546_eid_dnn_2-10-10_bear_10_n02134418_3213.png,n02134418_3213.png,1.0,2.473949,0.834265,1.1594317
alexnet_w3_mlp_simclrhn_probe1,1,547,NaN,bear,clock,64-10-10,0547_eid_dnn_64-10-10_clock_10_n03196217_6289.png,n03196217_6289.png,0.0,-6.3901734,-2.7671583,-2.5618587
alexnet_w3_mlp_simclrhn_probe1,1,548,NaN,bear,dog,32-10-10,0548_eid_dnn_32-10-10_dog_10_n02096294_1498.png,n02096294_1498.png,0.0,-2.4349782,0.17936838,-1.8486222
alexnet_w3_mlp_simclrhn_probe1,1,549,NaN,oven,oven,16-10-10,0549_eid_dnn_16-10-10_oven_10_n04111531_519.png,n04111531_519.png,1.0,-0.8898181,-0.9476317,0.04088042
alexnet_w3_mlp_simclrhn_probe1,1,550,NaN,bird,bird,1-10-10,0550_eid_dnn_1-10-10_bird_10_n01531178_14959.png,n01531178_14959.png,1.0,2.7338662,-4.2425365,4.9330616
alexnet_w3_mlp_simclrhn_probe1,1,551,NaN,bear,bear,32-10-10,0551_eid_dnn_32-10-10_bear_10_n02132136_8754.png,n02132136_8754.png,1.0,0.33257508,-0.3757551,0.50086504
alexnet_w3_mlp_simclrhn_probe1,1,552,NaN,car,car,1-10-10,0552_eid_dnn_1-10-10_car_10_n02814533_73067.png,n02814533_73067.png,1.0,8.00579,4.9470825,2.1628327
alexnet_w3_mlp_simclrhn_probe1,1,553,NaN,cat,cat,8-10-10,0553_eid_dnn_8-10-10_cat_10_n02124075_15378.png,n02124075_15378.png,1.0,-0.37921473,-0.6397962,0.18425892
alexnet_w3_mlp_simclrhn_probe1,1,554,NaN,oven,bird,128-10-10,0554_eid_dnn_128-10-10_bird_10_n01592084_7569.png,n01592084_7569.png,0.0,-7.4955926,1.0186933,-6.0205097
alexnet_w3_mlp_simclrhn_probe1,1,555,NaN,bear,dog,128-10-10,0555_eid_dnn_128-10-10_dog_10_n02094114_3395.png,n02094114_3395.png,0.0,-3.0175478,-0.4422588,-1.8210044
alexnet_w3_mlp_simclrhn_probe1,1,556,NaN,chair,chair,4-10-10,0556_eid_dnn_4-10-10_chair_10_n03376595_1712.png,n03376595_1712.png,1.0,-0.749891,-1.5300841,0.55167985
alexnet_w3_mlp_simclrhn_probe1,1,557,NaN,oven,bear,64-10-10,0557_eid_dnn_64-10-10_bear_10_n02134084_622.png,n02134084_622.png,0.0,-0.76184916,0.23983157,-0.7082952
alexnet_w3_mlp_simclrhn_probe1,1,558,NaN,bottle,clock,8-10-10,0558_eid_dnn_8-10-10_clock_10_n03196217_4912.png,n03196217_4912.png,0.0,-3.414933,-0.3952449,-2.135242
alexnet_w3_mlp_simclrhn_probe1,1,559,NaN,oven,car,64-10-10,0559_eid_dnn_64-10-10_car_10_n03100240_18815.png,n03100240_18815.png,0.0,-9.544006,1.0832902,-7.5146337
alexnet_w3_mlp_simclrhn_probe1,1,560,NaN,bicycle,chair,2-10-10,0560_eid_dnn_2-10-10_chair_10_n04099969_2020.png,n04099969_2020.png,0.0,1.6294878,1.8573315,-0.16110986
alexnet_w3_mlp_simclrhn_probe1,1,561,NaN,bear,bear,1-10-10,0561_eid_dnn_1-10-10_bear_10_n02132136_7647.png,n02132136_7647.png,1.0,4.799226,-1.0835086,4.1597214
alexnet_w3_mlp_simclrhn_probe1,1,562,NaN,bear,oven,128-10-10,0562_eid_dnn_128-10-10_oven_10_n04111531_2796.png,n04111531_2796.png,0.0,-3.006515,-1.1097236,-1.3412341
alexnet_w3_mlp_simclrhn_probe1,1,563,NaN,oven,truck,64-10-10,0563_eid_dnn_64-10-10_truck_10_n03796401_9472.png,n03796401_9472.png,0.0,-7.959042,0.6258358,-6.0704255
alexnet_w3_mlp_simclrhn_probe1,1,564,NaN,chair,chair,4-10-10,0564_eid_dnn_4-10-10_chair_10_n03376595_12433.png,n03376595_12433.png,1.0,-0.743824,-1.0728679,0.23266916
alexnet_w3_mlp_simclrhn_probe1,1,565,NaN,truck,truck,4-10-10,0565_eid_dnn_4-10-10_truck_10_n04467665_31539.png,n04467665_31539.png,1.0,1.9202161,1.8229876,0.068750955
alexnet_w3_mlp_simclrhn_probe1,1,566,NaN,airplane,airplane,32-10-10,0566_eid_dnn_32-10-10_airplane_10_n02690373_10657.png,n02690373_10657.png,1.0,-0.26611543,-1.7313497,1.0360771
alexnet_w3_mlp_simclrhn_probe1,1,567,NaN,oven,truck,16-10-10,0567_eid_dnn_16-10-10_truck_10_n03796401_5963.png,n03796401_5963.png,0.0,-8.434234,0.11246511,-6.0434284
alexnet_w3_mlp_simclrhn_probe1,1,568,NaN,bear,dog,64-10-10,0568_eid_dnn_64-10-10_dog_10_n02096294_2233.png,n02096294_2233.png,0.0,-3.4484541,0.4529853,-2.7587342
alexnet_w3_mlp_simclrhn_probe1,1,569,NaN,oven,airplane,128-10-10,0569_eid_dnn_128-10-10_airplane_10_n02690373_4873.png,n02690373_4873.png,0.0,-3.149672,-1.7667598,-0.97786665
alexnet_w3_mlp_simclrhn_probe1,1,570,NaN,airplane,truck,1-10-10,0570_eid_dnn_1-10-10_truck_10_n04467665_4825.png,n04467665_4825.png,0.0,1.2036703,2.6398273,-1.0155164
alexnet_w3_mlp_simclrhn_probe1,1,571,NaN,oven,chair,16-10-10,0571_eid_dnn_16-10-10_chair_10_n04099969_1704.png,n04099969_1704.png,0.0,-5.4529595,-0.8308666,-3.2683134
alexnet_w3_mlp_simclrhn_probe1,1,572,NaN,bicycle,bicycle,2-10-10,0572_eid_dnn_2-10-10_bicycle_10_n02835271_1573.png,n02835271_1573.png,1.0,6.712249,-1.155415,5.5632787
alexnet_w3_mlp_simclrhn_probe1,1,573,NaN,bear,boat,2-10-10,0573_eid_dnn_2-10-10_boat_10_n04273569_12725.png,n04273569_12725.png,0.0,-2.5583181,-0.877135,-1.188776
alexnet_w3_mlp_simclrhn_probe1,1,574,NaN,bottle,knife,128-10-10,0574_eid_dnn_128-10-10_knife_10_n03041632_11285.png,n03041632_11285.png,0.0,-1.5802634,-1.4643143,-0.08198835
alexnet_w3_mlp_simclrhn_probe1,1,575,NaN,clock,clock,4-10-10,0575_eid_dnn_4-10-10_clock_10_n03196217_8254.png,n03196217_8254.png,1.0,-0.63329,-0.8469518,0.1510817
alexnet_w3_mlp_simclrhn_probe1,1,576,NaN,oven,knife,16-10-10,0576_eid_dnn_16-10-10_knife_10_n03041632_15099.png,n03041632_15099.png,0.0,-3.6719413,-3.4565244,-0.15232275
alexnet_w3_mlp_simclrhn_probe1,1,577,NaN,bear,cat,64-10-10,0577_eid_dnn_64-10-10_cat_10_n02125311_30452.png,n02125311_30452.png,0.0,-1.7753662,-0.56012774,-0.85930336
alexnet_w3_mlp_simclrhn_probe1,1,578,NaN,bear,bottle,32-10-10,0578_eid_dnn_32-10-10_bottle_10_n04591713_6804.png,n04591713_6804.png,0.0,-3.3966823,-1.3907597,-1.4184015
alexnet_w3_mlp_simclrhn_probe1,1,579,NaN,oven,dog,64-10-10,0579_eid_dnn_64-10-10_dog_10_n02088364_14369.png,n02088364_14369.png,0.0,-3.1572013,0.5781435,-2.6412878
alexnet_w3_mlp_simclrhn_probe1,1,580,NaN,oven,truck,32-10-10,0580_eid_dnn_32-10-10_truck_10_n03796401_16425.png,n03796401_16425.png,0.0,-9.887449,0.47649562,-7.328416
alexnet_w3_mlp_simclrhn_probe1,1,581,NaN,oven,truck,64-10-10,0581_eid_dnn_64-10-10_truck_10_n03417042_5406.png,n03417042_5406.png,0.0,-9.854066,-0.30721173,-6.750645
alexnet_w3_mlp_simclrhn_probe1,1,582,NaN,knife,knife,1-10-10,0582_eid_dnn_1-10-10_knife_10_n03041632_52929.png,n03041632_52929.png,1.0,-0.27073082,-1.9803765,1.208902
alexnet_w3_mlp_simclrhn_probe1,1,583,NaN,oven,chair,64-10-10,0583_eid_dnn_64-10-10_chair_10_n03376595_4820.png,n03376595_4820.png,0.0,-6.254682,-1.8766584,-3.0957303
alexnet_w3_mlp_simclrhn_probe1,1,584,NaN,chair,chair,1-10-10,0584_eid_dnn_1-10-10_chair_10_n03376595_787.png,n03376595_787.png,1.0,0.120765805,-1.2846184,0.9937567
alexnet_w3_mlp_simclrhn_probe1,1,585,NaN,oven,chair,2-10-10,0585_eid_dnn_2-10-10_chair_10_n03376595_7709.png,n03376595_7709.png,0.0,-0.81096697,-0.6323254,-0.12631866
alexnet_w3_mlp_simclrhn_probe1,1,586,NaN,bottle,bottle,1-10-10,0586_eid_dnn_1-10-10_bottle_10_n03983396_11006.png,n03983396_11006.png,1.0,-1.6406634,-1.9350507,0.20816329
alexnet_w3_mlp_simclrhn_probe1,1,587,NaN,oven,oven,8-10-10,0587_eid_dnn_8-10-10_oven_10_n04111531_458.png,n04111531_458.png,1.0,0.79315585,-2.9652781,2.6576142
alexnet_w3_mlp_simclrhn_probe1,1,588,NaN,bear,cat,128-10-10,0588_eid_dnn_128-10-10_cat_10_n02123045_7829.png,n02123045_7829.png,0.0,-2.6670578,0.08706556,-1.9474592
alexnet_w3_mlp_simclrhn_probe1,1,589,NaN,bear,bear,1-10-10,0589_eid_dnn_1-10-10_bear_10_n02134418_4685.png,n02134418_4685.png,1.0,2.8616743,0.3616474,1.767786
alexnet_w3_mlp_simclrhn_probe1,1,590,NaN,oven,knife,64-10-10,0590_eid_dnn_64-10-10_knife_10_n03041632_1964.png,n03041632_1964.png,0.0,-2.215976,-1.4789579,-0.5211505
alexnet_w3_mlp_simclrhn_probe1,1,591,NaN,car,car,4-10-10,0591_eid_dnn_4-10-10_car_10_n03100240_17472.png,n03100240_17472.png,1.0,-0.053159278,-1.6643407,1.1392773
alexnet_w3_mlp_simclrhn_probe1,1,592,NaN,oven,dog,16-10-10,0592_eid_dnn_16-10-10_dog_10_n02113023_1980.png,n02113023_1980.png,0.0,-3.2816336,-0.3370307,-2.0821488
alexnet_w3_mlp_simclrhn_probe1,1,593,NaN,bear,dog,32-10-10,0593_eid_dnn_32-10-10_dog_10_n02100735_6359.png,n02100735_6359.png,0.0,-1.1661041,-1.094576,-0.05057799
alexnet_w3_mlp_simclrhn_probe1,1,594,NaN,bicycle,knife,1-10-10,0594_eid_dnn_1-10-10_knife_10_n03041632_31849.png,n03041632_31849.png,0.0,-1.7762004,-0.8952754,-0.62290806
alexnet_w3_mlp_simclrhn_probe1,1,595,NaN,oven,bird,8-10-10,0595_eid_dnn_8-10-10_bird_10_n01532829_23378.png,n01532829_23378.png,0.0,-2.7527332,-0.6669662,-1.4748601
alexnet_w3_mlp_simclrhn_probe1,1,596,NaN,oven,clock,64-10-10,0596_eid_dnn_64-10-10_clock_10_n02708093_5127.png,n02708093_5127.png,0.0,-7.2003617,0.39016992,-5.3673167
alexnet_w3_mlp_simclrhn_probe1,1,597,NaN,bear,bear,4-10-10,0597_eid_dnn_4-10-10_bear_10_n02134084_12148.png,n02134084_12148.png,1.0,0.8605171,-0.3314953,0.8428801
