subj,session,trial,rt,object_response,category,condition,imagename,filename,is_correct,targ_act,max_nontarg_act,decision_margin
alexnet_w3_mlp_simclrhn_probe2,1,1,NaN,oven,oven,1-10-10,0001_eid_dnn_1-10-10_oven_10_n04111531_17072.png,n04111531_17072.png,1.0,1.8347014,-1.3553841,2.255731
alexnet_w3_mlp_simclrhn_probe2,1,2,NaN,airplane,airplane,16-10-10,0002_eid_dnn_16-10-10_airplane_10_n02690373_4183.png,n02690373_4183.png,1.0,-0.37715328,-0.4789772,0.07200039
alexnet_w3_mlp_simclrhn_probe2,1,3,NaN,oven,car,8-10-10,0003_eid_dnn_8-10-10_car_10_n03100240_1137.png,n03100240_1137.png,0.0,-3.904397,0.95931697,-3.4391654
alexnet_w3_mlp_simclrhn_probe2,1,4,NaN,clock,clock,2-10-10,0004_eid_dnn_2-10-10_clock_10_n04548280_7083.png,n04548280_7083.png,1.0,0.9156473,-0.51946294,1.0147762
alexnet_w3_mlp_simclrhn_probe2,1,5,NaN,bottle,bottle,2-10-10,0005_eid_dnn_2-10-10_bottle_10_n02823428_7810.png,n02823428_7810.png,1.0,1.534828,0.22846231,0.92373997
alexnet_w3_mlp_simclrhn_probe2,1,6,NaN,oven,dog,128-10-10,0006_eid_dnn_128-10-10_dog_10_n02091244_8368.png,n02091244_8368.png,0.0,-1.9451877,0.7173772,-1.8827176
alexnet_w3_mlp_simclrhn_probe2,1,7,NaN,bicycle,bicycle,1-10-10,0007_eid_dnn_1-10-10_bicycle_10_n02835271_2930.png,n02835271_2930.png,1.0,4.4434857,0.07174471,3.0912876
alexnet_w3_mlp_simclrhn_probe2,1,8,NaN,cat,knife,4-10-10,0008_eid_dnn_4-10-10_knife_10_n03041632_52848.png,n03041632_52848.png,0.0,-2.814157,-0.91239023,-1.3447522
alexnet_w3_mlp_simclrhn_probe2,1,9,NaN,bottle,bottle,2-10-10,0009_eid_dnn_2-10-10_bottle_10_n02823428_4097.png,n02823428_4097.png,1.0,5.729821,-1.351124,5.006984
alexnet_w3_mlp_simclrhn_probe2,1,10,NaN,dog,dog,8-10-10,0010_eid_dnn_8-10-10_dog_10_n02105641_10264.png,n02105641_10264.png,1.0,0.06657548,-0.8800966,0.66939825
alexnet_w3_mlp_simclrhn_probe2,1,11,NaN,oven,boat,8-10-10,0011_eid_dnn_8-10-10_boat_10_n03662601_10278.png,n03662601_10278.png,0.0,-1.5271515,0.55913574,-1.475228
alexnet_w3_mlp_simclrhn_probe2,1,12,NaN,oven,truck,32-10-10,0012_eid_dnn_32-10-10_truck_10_n04467665_76958.png,n04467665_76958.png,0.0,-5.728942,0.7210871,-4.560859
alexnet_w3_mlp_simclrhn_probe2,1,13,NaN,oven,dog,16-10-10,0013_eid_dnn_16-10-10_dog_10_n02088238_12552.png,n02088238_12552.png,0.0,-1.6449769,0.10823038,-1.2397047
alexnet_w3_mlp_simclrhn_probe2,1,14,NaN,bear,dog,8-10-10,0014_eid_dnn_8-10-10_dog_10_n02102040_994.png,n02102040_994.png,0.0,-0.63953847,1.272935,-1.3523229
alexnet_w3_mlp_simclrhn_probe2,1,15,NaN,oven,bear,128-10-10,0015_eid_dnn_128-10-10_bear_10_n02133161_1944.png,n02133161_1944.png,0.0,-0.690294,0.24102116,-0.6585393
alexnet_w3_mlp_simclrhn_probe2,1,16,NaN,oven,car,16-10-10,0016_eid_dnn_16-10-10_car_10_n02814533_43040.png,n02814533_43040.png,0.0,-2.7712986,-0.25341213,-1.7804147
alexnet_w3_mlp_simclrhn_probe2,1,17,NaN,oven,oven,128-10-10,0017_eid_dnn_128-10-10_oven_10_n04111531_18592.png,n04111531_18592.png,1.0,0.32698804,-0.58049315,0.64168614
alexnet_w3_mlp_simclrhn_probe2,1,18,NaN,oven,chair,16-10-10,0018_eid_dnn_16-10-10_chair_10_n02791124_4294.png,n02791124_4294.png,0.0,-3.3910108,0.93632275,-3.059887
alexnet_w3_mlp_simclrhn_probe2,1,19,NaN,oven,knife,32-10-10,0019_eid_dnn_32-10-10_knife_10_n03041632_2630.png,n03041632_2630.png,0.0,-2.0872655,1.0130777,-2.1922739
alexnet_w3_mlp_simclrhn_probe2,1,20,NaN,elephant,elephant,1-10-10,0020_eid_dnn_1-10-10_elephant_10_n02504458_723.png,n02504458_723.png,1.0,9.581007,1.822986,5.4857492
alexnet_w3_mlp_simclrhn_probe2,1,21,NaN,chair,chair,4-10-10,0021_eid_dnn_4-10-10_chair_10_n03376595_6107.png,n03376595_6107.png,1.0,0.300179,0.041003756,0.18326457
alexnet_w3_mlp_simclrhn_probe2,1,22,NaN,oven,clock,32-10-10,0022_eid_dnn_32-10-10_clock_10_n03196217_1337.png,n03196217_1337.png,0.0,-3.1990821,1.6467135,-3.426495
alexnet_w3_mlp_simclrhn_probe2,1,23,NaN,oven,boat,128-10-10,0023_eid_dnn_128-10-10_boat_10_n02951358_9550.png,n02951358_9550.png,0.0,-3.9675434,0.8230425,-3.387456
alexnet_w3_mlp_simclrhn_probe2,1,24,NaN,oven,bird,128-10-10,0024_eid_dnn_128-10-10_bird_10_n01616318_2334.png,n01616318_2334.png,0.0,-3.2861722,-0.6556718,-1.8600446
alexnet_w3_mlp_simclrhn_probe2,1,25,NaN,oven,bottle,32-10-10,0025_eid_dnn_32-10-10_bottle_10_n03937543_1658.png,n03937543_1658.png,0.0,-0.21706243,0.13836469,-0.25132492
alexnet_w3_mlp_simclrhn_probe2,1,26,NaN,elephant,elephant,2-10-10,0026_eid_dnn_2-10-10_elephant_10_n02504013_6731.png,n02504013_6731.png,1.0,3.0513287,1.3569071,1.1981369
alexnet_w3_mlp_simclrhn_probe2,1,27,NaN,keyboard,keyboard,4-10-10,0027_eid_dnn_4-10-10_keyboard_10_n04505470_4447.png,n04505470_4447.png,1.0,5.9143467,0.20406212,4.0377812
alexnet_w3_mlp_simclrhn_probe2,1,28,NaN,airplane,airplane,1-10-10,0028_eid_dnn_1-10-10_airplane_10_n02690373_4839.png,n02690373_4839.png,1.0,6.244981,2.2985768,2.790529
alexnet_w3_mlp_simclrhn_probe2,1,29,NaN,oven,keyboard,64-10-10,0029_eid_dnn_64-10-10_keyboard_10_n04505470_1651.png,n04505470_1651.png,0.0,-6.032323,-0.027655602,-4.245941
alexnet_w3_mlp_simclrhn_probe2,1,30,NaN,oven,keyboard,32-10-10,0030_eid_dnn_32-10-10_keyboard_10_n03085013_20601.png,n03085013_20601.png,0.0,-2.7859907,-0.20833008,-1.8226813
alexnet_w3_mlp_simclrhn_probe2,1,31,NaN,oven,airplane,64-10-10,0031_eid_dnn_64-10-10_airplane_10_n02690373_2217.png,n02690373_2217.png,0.0,-3.2425547,-0.54789937,-1.9054091
alexnet_w3_mlp_simclrhn_probe2,1,32,NaN,bicycle,bicycle,4-10-10,0032_eid_dnn_4-10-10_bicycle_10_n03792782_25019.png,n03792782_25019.png,1.0,-0.3566504,-0.51659817,0.11310014
alexnet_w3_mlp_simclrhn_probe2,1,33,NaN,cat,cat,8-10-10,0033_eid_dnn_8-10-10_cat_10_n02123597_13890.png,n02123597_13890.png,1.0,1.938227,-0.6472817,1.8282309
alexnet_w3_mlp_simclrhn_probe2,1,34,NaN,boat,boat,1-10-10,0034_eid_dnn_1-10-10_boat_10_n04612504_214.png,n04612504_214.png,1.0,6.079287,-0.844997,4.8962083
alexnet_w3_mlp_simclrhn_probe2,1,35,NaN,oven,chair,128-10-10,0035_eid_dnn_128-10-10_chair_10_n02791124_2555.png,n02791124_2555.png,0.0,-3.8851175,0.24120684,-2.9177518
alexnet_w3_mlp_simclrhn_probe2,1,36,NaN,car,car,4-10-10,0036_eid_dnn_4-10-10_car_10_n04285008_2081.png,n04285008_2081.png,1.0,0.897294,0.052096274,0.59764504
alexnet_w3_mlp_simclrhn_probe2,1,37,NaN,oven,dog,32-10-10,0037_eid_dnn_32-10-10_dog_10_n02094114_8202.png,n02094114_8202.png,0.0,-1.3335673,-0.11783487,-0.8596526
alexnet_w3_mlp_simclrhn_probe2,1,38,NaN,oven,chair,64-10-10,0038_eid_dnn_64-10-10_chair_10_n04099969_4541.png,n04099969_4541.png,0.0,-4.597903,-0.07024652,-3.2015364
alexnet_w3_mlp_simclrhn_probe2,1,39,NaN,oven,boat,128-10-10,0039_eid_dnn_128-10-10_boat_10_n04612504_12864.png,n04612504_12864.png,0.0,-3.084079,0.26908487,-2.371045
alexnet_w3_mlp_simclrhn_probe2,1,40,NaN,airplane,airplane,4-10-10,0040_eid_dnn_4-10-10_airplane_10_n02690373_18460.png,n02690373_18460.png,1.0,1.0851858,-0.93041134,1.4252424
alexnet_w3_mlp_simclrhn_probe2,1,41,NaN,oven,bottle,64-10-10,0041_eid_dnn_64-10-10_bottle_10_n03983396_8982.png,n03983396_8982.png,0.0,-2.5977573,0.5101797,-2.1976435
alexnet_w3_mlp_simclrhn_probe2,1,42,NaN,oven,dog,16-10-10,0042_eid_dnn_16-10-10_dog_10_n02099601_10407.png,n02099601_10407.png,0.0,-1.3501335,0.780519,-1.5065988
alexnet_w3_mlp_simclrhn_probe2,1,43,NaN,oven,airplane,32-10-10,0043_eid_dnn_32-10-10_airplane_10_n02690373_5253.png,n02690373_5253.png,0.0,-1.3611033,0.05656174,-1.0024406
alexnet_w3_mlp_simclrhn_probe2,1,44,NaN,elephant,elephant,2-10-10,0044_eid_dnn_2-10-10_elephant_10_n02504013_2832.png,n02504013_2832.png,1.0,9.519797,3.5787954,4.200923
alexnet_w3_mlp_simclrhn_probe2,1,45,NaN,clock,clock,1-10-10,0045_eid_dnn_1-10-10_clock_10_n02708093_8002.png,n02708093_8002.png,1.0,1.9274329,1.579936,0.24571739
alexnet_w3_mlp_simclrhn_probe2,1,46,NaN,chair,chair,2-10-10,0046_eid_dnn_2-10-10_chair_10_n03376595_1766.png,n03376595_1766.png,1.0,1.3025692,-0.08647946,0.9822057
alexnet_w3_mlp_simclrhn_probe2,1,47,NaN,truck,truck,2-10-10,0047_eid_dnn_2-10-10_truck_10_n03417042_17616.png,n03417042_17616.png,1.0,3.119955,1.4117217,1.2079034
alexnet_w3_mlp_simclrhn_probe2,1,48,NaN,bear,bear,16-10-10,0048_eid_dnn_16-10-10_bear_10_n02134418_2804.png,n02134418_2804.png,1.0,0.7657556,0.015334882,0.53062755
alexnet_w3_mlp_simclrhn_probe2,1,49,NaN,oven,car,64-10-10,0049_eid_dnn_64-10-10_car_10_n04285008_12101.png,n04285008_12101.png,0.0,-8.005427,0.19710918,-5.8000693
alexnet_w3_mlp_simclrhn_probe2,1,50,NaN,bear,bear,16-10-10,0050_eid_dnn_16-10-10_bear_10_n02134418_3828.png,n02134418_3828.png,1.0,0.47539106,0.44636628,0.020523619
alexnet_w3_mlp_simclrhn_probe2,1,51,NaN,bird,bird,2-10-10,0051_eid_dnn_2-10-10_bird_10_n01530575_5747.png,n01530575_5747.png,1.0,3.266113,-4.6278787,5.581895
alexnet_w3_mlp_simclrhn_probe2,1,52,NaN,oven,truck,128-10-10,0052_eid_dnn_128-10-10_truck_10_n03796401_3386.png,n03796401_3386.png,0.0,-6.976624,1.3187327,-5.865703
alexnet_w3_mlp_simclrhn_probe2,1,53,NaN,oven,keyboard,16-10-10,0053_eid_dnn_16-10-10_keyboard_10_n04505470_3234.png,n04505470_3234.png,0.0,-2.619918,0.25501102,-2.032882
alexnet_w3_mlp_simclrhn_probe2,1,54,NaN,airplane,truck,1-10-10,0054_eid_dnn_1-10-10_truck_10_n04467665_72639.png,n04467665_72639.png,0.0,-0.06010156,3.3961177,-2.443916
alexnet_w3_mlp_simclrhn_probe2,1,55,NaN,oven,chair,32-10-10,0055_eid_dnn_32-10-10_chair_10_n04429376_27524.png,n04429376_27524.png,0.0,-5.076558,1.717988,-4.8044696
alexnet_w3_mlp_simclrhn_probe2,1,56,NaN,oven,bottle,64-10-10,0056_eid_dnn_64-10-10_bottle_10_n04557648_11440.png,n04557648_11440.png,0.0,-1.2542053,-0.05867131,-0.84537023
alexnet_w3_mlp_simclrhn_probe2,1,57,NaN,oven,keyboard,32-10-10,0057_eid_dnn_32-10-10_keyboard_10_n03085013_20216.png,n03085013_20216.png,0.0,-4.1539464,1.9634899,-4.3256807
alexnet_w3_mlp_simclrhn_probe2,1,58,NaN,bear,boat,8-10-10,0058_eid_dnn_8-10-10_boat_10_n02951358_34653.png,n02951358_34653.png,0.0,-3.3713584,0.111786336,-2.4629552
alexnet_w3_mlp_simclrhn_probe2,1,59,NaN,keyboard,keyboard,2-10-10,0059_eid_dnn_2-10-10_keyboard_10_n03085013_8932.png,n03085013_8932.png,1.0,1.6451553,0.4590486,0.8387041
alexnet_w3_mlp_simclrhn_probe2,1,60,NaN,bear,cat,1-10-10,0060_eid_dnn_1-10-10_cat_10_n02125311_35338.png,n02125311_35338.png,0.0,-0.5551374,-0.30779332,-0.17489868
alexnet_w3_mlp_simclrhn_probe2,1,61,NaN,oven,bicycle,16-10-10,0061_eid_dnn_16-10-10_bicycle_10_n03792782_5449.png,n03792782_5449.png,0.0,-3.1162677,0.89373606,-2.8355007
alexnet_w3_mlp_simclrhn_probe2,1,62,NaN,bicycle,bicycle,4-10-10,0062_eid_dnn_4-10-10_bicycle_10_n03792782_9432.png,n03792782_9432.png,1.0,0.47151685,0.0959135,0.26559168
alexnet_w3_mlp_simclrhn_probe2,1,63,NaN,oven,bottle,1-10-10,0063_eid_dnn_1-10-10_bottle_10_n04591713_4291.png,n04591713_4291.png,0.0,-1.9181135,-0.46610564,-1.0267246
alexnet_w3_mlp_simclrhn_probe2,1,64,NaN,truck,truck,4-10-10,0064_eid_dnn_4-10-10_truck_10_n04467665_67057.png,n04467665_67057.png,1.0,0.2737199,-0.33852756,0.43292433
alexnet_w3_mlp_simclrhn_probe2,1,65,NaN,oven,keyboard,1-10-10,0065_eid_dnn_1-10-10_keyboard_10_n03085013_22790.png,n03085013_22790.png,0.0,-3.456094,-0.43434605,-2.1366985
alexnet_w3_mlp_simclrhn_probe2,1,66,NaN,cat,dog,4-10-10,0066_eid_dnn_4-10-10_dog_10_n02086079_2896.png,n02086079_2896.png,0.0,-0.5913647,-0.02639921,-0.39949092
alexnet_w3_mlp_simclrhn_probe2,1,67,NaN,airplane,knife,8-10-10,0067_eid_dnn_8-10-10_knife_10_n03041632_40508.png,n03041632_40508.png,0.0,-1.4348786,0.23763886,-1.1826484
alexnet_w3_mlp_simclrhn_probe2,1,68,NaN,boat,boat,1-10-10,0068_eid_dnn_1-10-10_boat_10_n03344393_7942.png,n03344393_7942.png,1.0,1.469866,1.3551021,0.08115038
alexnet_w3_mlp_simclrhn_probe2,1,69,NaN,bear,bear,2-10-10,0069_eid_dnn_2-10-10_bear_10_n02134418_4352.png,n02134418_4352.png,1.0,2.8494148,-0.23386993,2.1802118
alexnet_w3_mlp_simclrhn_probe2,1,70,NaN,oven,cat,16-10-10,0070_eid_dnn_16-10-10_cat_10_n02123045_5157.png,n02123045_5157.png,0.0,-1.4031168,0.9817239,-1.6863371
alexnet_w3_mlp_simclrhn_probe2,1,71,NaN,oven,dog,16-10-10,0071_eid_dnn_16-10-10_dog_10_n02109047_14287.png,n02109047_14287.png,0.0,-1.4966279,-0.5000606,-0.7046795
alexnet_w3_mlp_simclrhn_probe2,1,72,NaN,truck,truck,2-10-10,0072_eid_dnn_2-10-10_truck_10_n03417042_14274.png,n03417042_14274.png,1.0,2.2752676,0.19461016,1.4712471
alexnet_w3_mlp_simclrhn_probe2,1,73,NaN,bird,airplane,2-10-10,0073_eid_dnn_2-10-10_airplane_10_n02690373_5885.png,n02690373_5885.png,0.0,-0.09941691,0.47843263,-0.4086013
alexnet_w3_mlp_simclrhn_probe2,1,74,NaN,cat,cat,32-10-10,0074_eid_dnn_32-10-10_cat_10_n02123394_571.png,n02123394_571.png,1.0,-0.58911353,-0.83441675,0.17345557
alexnet_w3_mlp_simclrhn_probe2,1,75,NaN,oven,cat,32-10-10,0075_eid_dnn_32-10-10_cat_10_n02123045_10171.png,n02123045_10171.png,0.0,-0.40058008,-0.10069801,-0.21204863
alexnet_w3_mlp_simclrhn_probe2,1,76,NaN,bottle,bottle,8-10-10,0076_eid_dnn_8-10-10_bottle_10_n04560804_4909.png,n04560804_4909.png,1.0,-0.2608448,-0.7374997,0.33704594
alexnet_w3_mlp_simclrhn_probe2,1,77,NaN,keyboard,keyboard,8-10-10,0077_eid_dnn_8-10-10_keyboard_10_n03085013_7971.png,n03085013_7971.png,1.0,-0.85851955,-1.1619532,0.21456
alexnet_w3_mlp_simclrhn_probe2,1,78,NaN,oven,keyboard,16-10-10,0078_eid_dnn_16-10-10_keyboard_10_n03085013_21397.png,n03085013_21397.png,0.0,-2.2735505,0.10114013,-1.6791598
alexnet_w3_mlp_simclrhn_probe2,1,79,NaN,oven,elephant,32-10-10,0079_eid_dnn_32-10-10_elephant_10_n02504458_4187.png,n02504458_4187.png,0.0,-0.76974905,0.07052681,-0.5941648
alexnet_w3_mlp_simclrhn_probe2,1,80,NaN,bear,clock,8-10-10,0080_eid_dnn_8-10-10_clock_10_n03196217_6689.png,n03196217_6689.png,0.0,-3.6742504,0.5508783,-2.9876173
alexnet_w3_mlp_simclrhn_probe2,1,81,NaN,knife,knife,4-10-10,0081_eid_dnn_4-10-10_knife_10_n03041632_26236.png,n03041632_26236.png,1.0,-0.9654262,-1.1130073,0.104355596
alexnet_w3_mlp_simclrhn_probe2,1,82,NaN,oven,car,8-10-10,0082_eid_dnn_8-10-10_car_10_n03100240_1262.png,n03100240_1262.png,0.0,-3.632515,-0.49407595,-2.2192116
alexnet_w3_mlp_simclrhn_probe2,1,83,NaN,oven,keyboard,64-10-10,0083_eid_dnn_64-10-10_keyboard_10_n04505470_5059.png,n04505470_5059.png,0.0,-4.794201,0.15774986,-3.5015578
alexnet_w3_mlp_simclrhn_probe2,1,84,NaN,bird,bird,1-10-10,0084_eid_dnn_1-10-10_bird_10_n01537544_26417.png,n01537544_26417.png,1.0,1.8402063,-3.869865,4.03763
alexnet_w3_mlp_simclrhn_probe2,1,85,NaN,bear,bird,32-10-10,0085_eid_dnn_32-10-10_bird_10_n02009912_5714.png,n02009912_5714.png,0.0,-2.6042101,0.12909195,-1.9327365
alexnet_w3_mlp_simclrhn_probe2,1,86,NaN,oven,chair,128-10-10,0086_eid_dnn_128-10-10_chair_10_n03376595_5972.png,n03376595_5972.png,0.0,-4.4220905,1.249541,-4.0104494
alexnet_w3_mlp_simclrhn_probe2,1,87,NaN,oven,chair,2-10-10,0087_eid_dnn_2-10-10_chair_10_n04429376_805.png,n04429376_805.png,0.0,0.5378313,0.74316895,-0.14519565
alexnet_w3_mlp_simclrhn_probe2,1,88,NaN,bear,bicycle,128-10-10,0088_eid_dnn_128-10-10_bicycle_10_n03792782_4083.png,n03792782_4083.png,0.0,-2.5600224,-0.25996858,-1.6263837
alexnet_w3_mlp_simclrhn_probe2,1,89,NaN,clock,clock,1-10-10,0089_eid_dnn_1-10-10_clock_10_n02708093_798.png,n02708093_798.png,1.0,0.49071774,0.07998948,0.29042876
alexnet_w3_mlp_simclrhn_probe2,1,90,NaN,bear,bear,1-10-10,0090_eid_dnn_1-10-10_bear_10_n02133161_1660.png,n02133161_1660.png,1.0,2.5914855,-0.044075817,1.8636233
alexnet_w3_mlp_simclrhn_probe2,1,91,NaN,oven,car,8-10-10,0091_eid_dnn_8-10-10_car_10_n04285008_9464.png,n04285008_9464.png,0.0,-7.6456604,1.449547,-6.431283
alexnet_w3_mlp_simclrhn_probe2,1,92,NaN,oven,oven,16-10-10,0092_eid_dnn_16-10-10_oven_10_n04111531_3314.png,n04111531_3314.png,1.0,1.069604,-1.0855945,1.5239556
alexnet_w3_mlp_simclrhn_probe2,1,93,NaN,bear,cat,128-10-10,0093_eid_dnn_128-10-10_cat_10_n02123394_5753.png,n02123394_5753.png,0.0,-0.50378615,0.07767767,-0.411157
alexnet_w3_mlp_simclrhn_probe2,1,94,NaN,boat,boat,2-10-10,0094_eid_dnn_2-10-10_boat_10_n02951358_34042.png,n02951358_34042.png,1.0,0.8431156,-0.21814287,0.75042313
alexnet_w3_mlp_simclrhn_probe2,1,95,NaN,oven,truck,64-10-10,0095_eid_dnn_64-10-10_truck_10_n03417042_7588.png,n03417042_7588.png,0.0,-6.2871532,0.79328203,-5.0066237
alexnet_w3_mlp_simclrhn_probe2,1,96,NaN,oven,truck,32-10-10,0096_eid_dnn_32-10-10_truck_10_n03417042_4200.png,n03417042_4200.png,0.0,-6.075569,2.0257645,-5.728508
alexnet_w3_mlp_simclrhn_probe2,1,97,NaN,airplane,airplane,4-10-10,0097_eid_dnn_4-10-10_airplane_10_n02690373_4335.png,n02690373_4335.png,1.0,2.8932383,0.39949554,1.7633424
alexnet_w3_mlp_simclrhn_probe2,1,98,NaN,oven,elephant,128-10-10,0098_eid_dnn_128-10-10_elephant_10_n02504458_6823.png,n02504458_6823.png,0.0,-1.6473029,-0.09229952,-1.0995535
alexnet_w3_mlp_simclrhn_probe2,1,99,NaN,boat,boat,4-10-10,0099_eid_dnn_4-10-10_boat_10_n03344393_4214.png,n03344393_4214.png,1.0,4.208837,2.8845212,0.93643266
alexnet_w3_mlp_simclrhn_probe2,1,100,NaN,keyboard,keyboard,4-10-10,0100_eid_dnn_4-10-10_keyboard_10_n03085013_22949.png,n03085013_22949.png,1.0,3.3018847,-0.0035216287,2.3372753
alexnet_w3_mlp_simclrhn_probe2,1,101,NaN,bear,bear,64-10-10,0101_eid_dnn_64-10-10_bear_10_n02132136_31664.png,n02132136_31664.png,1.0,-0.18237618,-0.39689684,0.15168902
alexnet_w3_mlp_simclrhn_probe2,1,102,NaN,oven,bottle,8-10-10,0102_eid_dnn_8-10-10_bottle_10_n03983396_1985.png,n03983396_1985.png,0.0,-1.3494661,-0.57642996,-0.5466191
alexnet_w3_mlp_simclrhn_probe2,1,103,NaN,airplane,airplane,2-10-10,0103_eid_dnn_2-10-10_airplane_10_n02690373_9266.png,n02690373_9266.png,1.0,5.325346,-0.61681104,4.2017393
alexnet_w3_mlp_simclrhn_probe2,1,104,NaN,bear,bottle,128-10-10,0104_eid_dnn_128-10-10_bottle_10_n02823428_5961.png,n02823428_5961.png,0.0,-2.083851,-0.710113,-0.9713795
alexnet_w3_mlp_simclrhn_probe2,1,105,NaN,bottle,bottle,4-10-10,0105_eid_dnn_4-10-10_bottle_10_n04579145_1856.png,n04579145_1856.png,1.0,1.7701927,0.05165954,1.2151865
alexnet_w3_mlp_simclrhn_probe2,1,106,NaN,bear,clock,64-10-10,0106_eid_dnn_64-10-10_clock_10_n02708093_7810.png,n02708093_7810.png,0.0,-4.13381,-0.014283381,-2.9129455
alexnet_w3_mlp_simclrhn_probe2,1,107,NaN,dog,dog,1-10-10,0107_eid_dnn_1-10-10_dog_10_n02100735_4949.png,n02100735_4949.png,1.0,0.84438044,-2.2513127,2.1889856
alexnet_w3_mlp_simclrhn_probe2,1,108,NaN,oven,chair,32-10-10,0108_eid_dnn_32-10-10_chair_10_n03376595_7275.png,n03376595_7275.png,0.0,-3.9212213,-0.26755765,-2.5835304
alexnet_w3_mlp_simclrhn_probe2,1,109,NaN,bottle,bottle,2-10-10,0109_eid_dnn_2-10-10_bottle_10_n03983396_16741.png,n03983396_16741.png,1.0,1.7291715,0.085613966,1.1621706
alexnet_w3_mlp_simclrhn_probe2,1,110,NaN,oven,boat,32-10-10,0110_eid_dnn_32-10-10_boat_10_n04612504_8719.png,n04612504_8719.png,0.0,-3.993793,0.28752938,-3.027352
alexnet_w3_mlp_simclrhn_probe2,1,111,NaN,chair,chair,1-10-10,0111_eid_dnn_1-10-10_chair_10_n02791124_3570.png,n02791124_3570.png,1.0,3.4595654,-0.048559155,2.4806187
alexnet_w3_mlp_simclrhn_probe2,1,112,NaN,oven,bear,32-10-10,0112_eid_dnn_32-10-10_bear_10_n02132136_9557.png,n02132136_9557.png,0.0,-0.09968868,0.80589116,-0.64034164
alexnet_w3_mlp_simclrhn_probe2,1,113,NaN,bear,bird,64-10-10,0113_eid_dnn_64-10-10_bird_10_n02002556_5730.png,n02002556_5730.png,0.0,-1.7306213,-0.06748117,-1.1760178
alexnet_w3_mlp_simclrhn_probe2,1,114,NaN,oven,oven,4-10-10,0114_eid_dnn_4-10-10_oven_10_n04111531_8959.png,n04111531_8959.png,1.0,0.8550505,-1.6445013,1.7674501
alexnet_w3_mlp_simclrhn_probe2,1,115,NaN,elephant,cat,128-10-10,0115_eid_dnn_128-10-10_cat_10_n02123159_8101.png,n02123159_8101.png,0.0,-0.8617346,0.015852168,-0.6205476
alexnet_w3_mlp_simclrhn_probe2,1,116,NaN,cat,cat,8-10-10,0116_eid_dnn_8-10-10_cat_10_n02123597_8890.png,n02123597_8890.png,1.0,0.08821996,-0.44314048,0.37572858
alexnet_w3_mlp_simclrhn_probe2,1,117,NaN,elephant,elephant,1-10-10,0117_eid_dnn_1-10-10_elephant_10_n02504458_220.png,n02504458_220.png,1.0,8.998684,1.7710111,5.1107364
alexnet_w3_mlp_simclrhn_probe2,1,118,NaN,oven,bicycle,128-10-10,0118_eid_dnn_128-10-10_bicycle_10_n02835271_2651.png,n02835271_2651.png,0.0,-2.4910479,-0.07631843,-1.7074715
alexnet_w3_mlp_simclrhn_probe2,1,119,NaN,oven,keyboard,64-10-10,0119_eid_dnn_64-10-10_keyboard_10_n04505470_1581.png,n04505470_1581.png,0.0,-7.7713447,-0.45405173,-5.1741076
alexnet_w3_mlp_simclrhn_probe2,1,120,NaN,truck,truck,4-10-10,0120_eid_dnn_4-10-10_truck_10_n04467665_1719.png,n04467665_1719.png,1.0,1.8816103,0.70178473,0.83426267
alexnet_w3_mlp_simclrhn_probe2,1,121,NaN,truck,truck,2-10-10,0121_eid_dnn_2-10-10_truck_10_n04467665_30756.png,n04467665_30756.png,1.0,7.3671584,1.5025963,4.1468716
alexnet_w3_mlp_simclrhn_probe2,1,122,NaN,oven,oven,64-10-10,0122_eid_dnn_64-10-10_oven_10_n04111531_1818.png,n04111531_1818.png,1.0,0.9094212,-1.001477,1.3512092
alexnet_w3_mlp_simclrhn_probe2,1,123,NaN,oven,elephant,64-10-10,0123_eid_dnn_64-10-10_elephant_10_n02504013_2974.png,n02504013_2974.png,0.0,-0.13534647,0.30436772,-0.3109249
alexnet_w3_mlp_simclrhn_probe2,1,124,NaN,oven,bicycle,128-10-10,0124_eid_dnn_128-10-10_bicycle_10_n03792782_7713.png,n03792782_7713.png,0.0,-1.9247426,-0.35503444,-1.1099513
alexnet_w3_mlp_simclrhn_probe2,1,125,NaN,oven,clock,16-10-10,0125_eid_dnn_16-10-10_clock_10_n04548280_9700.png,n04548280_9700.png,0.0,-2.3990316,0.058268666,-1.7375736
alexnet_w3_mlp_simclrhn_probe2,1,126,NaN,oven,bottle,16-10-10,0126_eid_dnn_16-10-10_bottle_10_n04591713_1174.png,n04591713_1174.png,0.0,-1.9491278,0.49460074,-1.727977
alexnet_w3_mlp_simclrhn_probe2,1,127,NaN,oven,bear,64-10-10,0127_eid_dnn_64-10-10_bear_10_n02134418_1395.png,n02134418_1395.png,0.0,-0.33142793,0.44782397,-0.55101436
alexnet_w3_mlp_simclrhn_probe2,1,128,NaN,oven,bottle,128-10-10,0128_eid_dnn_128-10-10_bottle_10_n04591713_36.png,n04591713_36.png,0.0,-2.6435235,0.86232436,-2.479009
alexnet_w3_mlp_simclrhn_probe2,1,129,NaN,oven,knife,8-10-10,0129_eid_dnn_8-10-10_knife_10_n03041632_21034.png,n03041632_21034.png,0.0,-1.1886575,0.22103551,-0.9968035
alexnet_w3_mlp_simclrhn_probe2,1,130,NaN,bicycle,bicycle,1-10-10,0130_eid_dnn_1-10-10_bicycle_10_n03792782_11115.png,n03792782_11115.png,1.0,11.290908,-0.5498955,8.372712
alexnet_w3_mlp_simclrhn_probe2,1,131,NaN,oven,truck,16-10-10,0131_eid_dnn_16-10-10_truck_10_n03417042_5381.png,n03417042_5381.png,0.0,-4.5083094,1.3672493,-4.1546474
alexnet_w3_mlp_simclrhn_probe2,1,132,NaN,oven,boat,64-10-10,0132_eid_dnn_64-10-10_boat_10_n04612504_15258.png,n04612504_15258.png,0.0,-3.0445037,0.41210684,-2.4441926
alexnet_w3_mlp_simclrhn_probe2,1,133,NaN,boat,boat,2-10-10,0133_eid_dnn_2-10-10_boat_10_n03662601_11972.png,n03662601_11972.png,1.0,5.1221046,0.77166474,3.0762258
alexnet_w3_mlp_simclrhn_probe2,1,134,NaN,oven,dog,64-10-10,0134_eid_dnn_64-10-10_dog_10_n02092002_11459.png,n02092002_11459.png,0.0,-2.0384877,0.6253629,-1.8836268
alexnet_w3_mlp_simclrhn_probe2,1,135,NaN,oven,clock,64-10-10,0135_eid_dnn_64-10-10_clock_10_n04548280_6605.png,n04548280_6605.png,0.0,-2.999777,0.051315844,-2.1574485
alexnet_w3_mlp_simclrhn_probe2,1,136,NaN,oven,boat,64-10-10,0136_eid_dnn_64-10-10_boat_10_n03662601_5600.png,n03662601_5600.png,0.0,-1.2841789,-0.5048883,-0.55104166
alexnet_w3_mlp_simclrhn_probe2,1,137,NaN,airplane,bear,32-10-10,0137_eid_dnn_32-10-10_bear_10_n02134084_8153.png,n02134084_8153.png,0.0,-0.6762119,0.10437246,-0.5519565
alexnet_w3_mlp_simclrhn_probe2,1,138,NaN,oven,cat,64-10-10,0138_eid_dnn_64-10-10_cat_10_n02124075_9225.png,n02124075_9225.png,0.0,-2.6889865,0.8331053,-2.490495
alexnet_w3_mlp_simclrhn_probe2,1,139,NaN,oven,bicycle,8-10-10,0139_eid_dnn_8-10-10_bicycle_10_n03792782_3591.png,n03792782_3591.png,0.0,-3.8903317,1.4358582,-3.766185
alexnet_w3_mlp_simclrhn_probe2,1,140,NaN,oven,dog,64-10-10,0140_eid_dnn_64-10-10_dog_10_n02107142_31661.png,n02107142_31661.png,0.0,-1.6285752,0.81305784,-1.7264953
alexnet_w3_mlp_simclrhn_probe2,1,141,NaN,elephant,elephant,8-10-10,0141_eid_dnn_8-10-10_elephant_10_n02504458_651.png,n02504458_651.png,1.0,6.1968575,2.9264717,2.312512
alexnet_w3_mlp_simclrhn_probe2,1,142,NaN,oven,dog,128-10-10,0142_eid_dnn_128-10-10_dog_10_n02110958_15217.png,n02110958_15217.png,0.0,-1.5335258,0.51909405,-1.4514215
alexnet_w3_mlp_simclrhn_probe2,1,143,NaN,oven,oven,4-10-10,0143_eid_dnn_4-10-10_oven_10_n04111531_523.png,n04111531_523.png,1.0,1.6149294,-0.1782045,1.2679372
alexnet_w3_mlp_simclrhn_probe2,1,144,NaN,car,car,4-10-10,0144_eid_dnn_4-10-10_car_10_n02814533_42884.png,n02814533_42884.png,1.0,1.6363629,-0.0049150735,1.1605588
alexnet_w3_mlp_simclrhn_probe2,1,145,NaN,oven,car,64-10-10,0145_eid_dnn_64-10-10_car_10_n04285008_8017.png,n04285008_8017.png,0.0,-6.686268,0.82051903,-5.3080997
alexnet_w3_mlp_simclrhn_probe2,1,146,NaN,car,car,1-10-10,0146_eid_dnn_1-10-10_car_10_n03100240_16766.png,n03100240_16766.png,1.0,2.1546707,1.4323295,0.51077235
alexnet_w3_mlp_simclrhn_probe2,1,147,NaN,elephant,elephant,8-10-10,0147_eid_dnn_8-10-10_elephant_10_n02504458_4593.png,n02504458_4593.png,1.0,4.0707545,1.6451106,1.7151893
alexnet_w3_mlp_simclrhn_probe2,1,148,NaN,oven,chair,64-10-10,0148_eid_dnn_64-10-10_chair_10_n02791124_1358.png,n02791124_1358.png,0.0,-7.7026505,-0.53680307,-5.0670195
alexnet_w3_mlp_simclrhn_probe2,1,149,NaN,oven,dog,16-10-10,0149_eid_dnn_16-10-10_dog_10_n02095314_5363.png,n02095314_5363.png,0.0,-0.6354442,-0.1985784,-0.3089108
alexnet_w3_mlp_simclrhn_probe2,1,150,NaN,bottle,clock,8-10-10,0150_eid_dnn_8-10-10_clock_10_n04548280_1413.png,n04548280_1413.png,0.0,-1.0098546,-0.5567545,-0.3203901
alexnet_w3_mlp_simclrhn_probe2,1,151,NaN,dog,dog,1-10-10,0151_eid_dnn_1-10-10_dog_10_n02105641_10948.png,n02105641_10948.png,1.0,1.6485738,-3.56421,3.6859949
alexnet_w3_mlp_simclrhn_probe2,1,152,NaN,bear,dog,1-10-10,0152_eid_dnn_1-10-10_dog_10_n02113624_1691.png,n02113624_1691.png,0.0,-0.6518812,1.8580898,-1.7748176
alexnet_w3_mlp_simclrhn_probe2,1,153,NaN,truck,car,4-10-10,0153_eid_dnn_4-10-10_car_10_n03100240_2235.png,n03100240_2235.png,0.0,2.463289,3.0008383,-0.38010472
alexnet_w3_mlp_simclrhn_probe2,1,154,NaN,oven,chair,2-10-10,0154_eid_dnn_2-10-10_chair_10_n04099969_56470.png,n04099969_56470.png,0.0,-0.42227796,0.041561402,-0.32798395
alexnet_w3_mlp_simclrhn_probe2,1,155,NaN,oven,oven,2-10-10,0155_eid_dnn_2-10-10_oven_10_n04111531_5429.png,n04111531_5429.png,1.0,5.171932,0.10265981,3.584517
alexnet_w3_mlp_simclrhn_probe2,1,156,NaN,oven,keyboard,64-10-10,0156_eid_dnn_64-10-10_keyboard_10_n03085013_19317.png,n03085013_19317.png,0.0,-5.6819267,0.59190845,-4.4362717
alexnet_w3_mlp_simclrhn_probe2,1,157,NaN,oven,bird,64-10-10,0157_eid_dnn_64-10-10_bird_10_n01601694_19650.png,n01601694_19650.png,0.0,-1.7949853,-1.2394811,-0.3928008
alexnet_w3_mlp_simclrhn_probe2,1,158,NaN,oven,clock,128-10-10,0158_eid_dnn_128-10-10_clock_10_n03196217_11199.png,n03196217_11199.png,0.0,-4.43418,0.61402076,-3.569617
alexnet_w3_mlp_simclrhn_probe2,1,159,NaN,cat,bottle,32-10-10,0159_eid_dnn_32-10-10_bottle_10_n03937543_2209.png,n03937543_2209.png,0.0,-2.5927315,-0.94553775,-1.1647419
alexnet_w3_mlp_simclrhn_probe2,1,160,NaN,oven,car,64-10-10,0160_eid_dnn_64-10-10_car_10_n03100240_16939.png,n03100240_16939.png,0.0,-8.183788,1.5861511,-6.9083905
alexnet_w3_mlp_simclrhn_probe2,1,161,NaN,oven,bottle,8-10-10,0161_eid_dnn_8-10-10_bottle_10_n04591713_2501.png,n04591713_2501.png,0.0,-1.1690835,0.19449472,-0.96419543
alexnet_w3_mlp_simclrhn_probe2,1,162,NaN,airplane,airplane,16-10-10,0162_eid_dnn_16-10-10_airplane_10_n02690373_10395.png,n02690373_10395.png,1.0,-0.8356292,-0.9611905,0.088785246
alexnet_w3_mlp_simclrhn_probe2,1,163,NaN,oven,oven,8-10-10,0163_eid_dnn_8-10-10_oven_10_n04111531_3286.png,n04111531_3286.png,1.0,2.6206732,-1.2642581,2.7470613
alexnet_w3_mlp_simclrhn_probe2,1,164,NaN,oven,boat,64-10-10,0164_eid_dnn_64-10-10_boat_10_n04273569_13401.png,n04273569_13401.png,0.0,-5.038684,2.3949652,-5.256384
alexnet_w3_mlp_simclrhn_probe2,1,165,NaN,oven,elephant,64-10-10,0165_eid_dnn_64-10-10_elephant_10_n02504458_12776.png,n02504458_12776.png,0.0,-1.2717452,0.38916725,-1.1744425
alexnet_w3_mlp_simclrhn_probe2,1,166,NaN,bird,bird,2-10-10,0166_eid_dnn_2-10-10_bird_10_n01828970_997.png,n01828970_997.png,1.0,2.1985111,-1.7329178,2.7799401
alexnet_w3_mlp_simclrhn_probe2,1,167,NaN,bear,bear,8-10-10,0167_eid_dnn_8-10-10_bear_10_n02132136_10318.png,n02132136_10318.png,1.0,0.8785799,0.19258136,0.48507425
alexnet_w3_mlp_simclrhn_probe2,1,168,NaN,oven,oven,32-10-10,0168_eid_dnn_32-10-10_oven_10_n04111531_7883.png,n04111531_7883.png,1.0,2.2324677,-1.8386993,2.8787498
alexnet_w3_mlp_simclrhn_probe2,1,169,NaN,oven,clock,128-10-10,0169_eid_dnn_128-10-10_clock_10_n02708093_725.png,n02708093_725.png,0.0,-2.7058518,0.40889543,-2.2024589
alexnet_w3_mlp_simclrhn_probe2,1,170,NaN,oven,bottle,16-10-10,0170_eid_dnn_16-10-10_bottle_10_n04557648_2052.png,n04557648_2052.png,0.0,-2.0605073,1.4077746,-2.4524455
alexnet_w3_mlp_simclrhn_probe2,1,171,NaN,oven,keyboard,32-10-10,0171_eid_dnn_32-10-10_keyboard_10_n04505470_5036.png,n04505470_5036.png,0.0,-4.547428,1.4531854,-4.243075
alexnet_w3_mlp_simclrhn_probe2,1,172,NaN,elephant,elephant,8-10-10,0172_eid_dnn_8-10-10_elephant_10_n02504458_13352.png,n02504458_13352.png,1.0,3.3342023,1.603905,1.223505
alexnet_w3_mlp_simclrhn_probe2,1,173,NaN,chair,chair,4-10-10,0173_eid_dnn_4-10-10_chair_10_n04429376_30620.png,n04429376_30620.png,1.0,-0.3838104,-0.47129506,0.061860997
alexnet_w3_mlp_simclrhn_probe2,1,174,NaN,airplane,boat,16-10-10,0174_eid_dnn_16-10-10_boat_10_n03662601_2980.png,n03662601_2980.png,0.0,-0.5776808,-0.37554938,-0.14292853
alexnet_w3_mlp_simclrhn_probe2,1,175,NaN,bicycle,boat,8-10-10,0175_eid_dnn_8-10-10_boat_10_n03662601_4734.png,n03662601_4734.png,0.0,-1.0623815,-0.871668,-0.13485482
alexnet_w3_mlp_simclrhn_probe2,1,176,NaN,bear,bear,2-10-10,0176_eid_dnn_2-10-10_bear_10_n02134418_4754.png,n02134418_4754.png,1.0,3.815407,0.93322223,2.0380125
alexnet_w3_mlp_simclrhn_probe2,1,177,NaN,elephant,elephant,2-10-10,0177_eid_dnn_2-10-10_elephant_10_n02504013_8522.png,n02504013_8522.png,1.0,7.734299,2.8611612,3.445829
alexnet_w3_mlp_simclrhn_probe2,1,178,NaN,oven,bottle,64-10-10,0178_eid_dnn_64-10-10_bottle_10_n03937543_4863.png,n03937543_4863.png,0.0,-3.232928,1.319865,-3.2193108
alexnet_w3_mlp_simclrhn_probe2,1,179,NaN,oven,car,16-10-10,0179_eid_dnn_16-10-10_car_10_n04285008_10802.png,n04285008_10802.png,0.0,-6.212383,1.7851057,-5.6550784
alexnet_w3_mlp_simclrhn_probe2,1,180,NaN,oven,knife,64-10-10,0180_eid_dnn_64-10-10_knife_10_n03041632_6708.png,n03041632_6708.png,0.0,-1.9675161,0.90393424,-2.0304222
alexnet_w3_mlp_simclrhn_probe2,1,181,NaN,elephant,dog,1-10-10,0181_eid_dnn_1-10-10_dog_10_n02107142_61109.png,n02107142_61109.png,0.0,0.037604086,1.5565462,-1.0740542
alexnet_w3_mlp_simclrhn_probe2,1,182,NaN,knife,clock,2-10-10,0182_eid_dnn_2-10-10_clock_10_n03196217_8139.png,n03196217_8139.png,0.0,-0.4602557,0.33714136,-0.5638449
alexnet_w3_mlp_simclrhn_probe2,1,183,NaN,elephant,elephant,1-10-10,0183_eid_dnn_1-10-10_elephant_10_n02504458_6611.png,n02504458_6611.png,1.0,9.363199,1.8893732,5.284793
alexnet_w3_mlp_simclrhn_probe2,1,184,NaN,oven,truck,64-10-10,0184_eid_dnn_64-10-10_truck_10_n04467665_4401.png,n04467665_4401.png,0.0,-3.6738975,0.46904612,-2.9295034
alexnet_w3_mlp_simclrhn_probe2,1,185,NaN,boat,boat,4-10-10,0185_eid_dnn_4-10-10_boat_10_n03344393_732.png,n03344393_732.png,1.0,2.5213883,0.19406644,1.645665
alexnet_w3_mlp_simclrhn_probe2,1,186,NaN,knife,knife,4-10-10,0186_eid_dnn_4-10-10_knife_10_n03041632_41381.png,n03041632_41381.png,1.0,0.080192864,-0.3287049,0.28913438
alexnet_w3_mlp_simclrhn_probe2,1,187,NaN,oven,oven,32-10-10,0187_eid_dnn_32-10-10_oven_10_n04111531_22715.png,n04111531_22715.png,1.0,1.5556669,-0.42416012,1.3999492
alexnet_w3_mlp_simclrhn_probe2,1,188,NaN,bear,cat,16-10-10,0188_eid_dnn_16-10-10_cat_10_n02123045_3568.png,n02123045_3568.png,0.0,-0.6969676,-0.34698462,-0.24747534
alexnet_w3_mlp_simclrhn_probe2,1,189,NaN,truck,truck,2-10-10,0189_eid_dnn_2-10-10_truck_10_n03796401_18976.png,n03796401_18976.png,1.0,5.6538315,3.4343011,1.569445
alexnet_w3_mlp_simclrhn_probe2,1,190,NaN,oven,oven,8-10-10,0190_eid_dnn_8-10-10_oven_10_n04111531_15710.png,n04111531_15710.png,1.0,2.8938074,-1.4853015,3.0964978
alexnet_w3_mlp_simclrhn_probe2,1,191,NaN,bear,elephant,32-10-10,0191_eid_dnn_32-10-10_elephant_10_n02504013_7232.png,n02504013_7232.png,0.0,-0.39442453,0.44270742,-0.5919417
alexnet_w3_mlp_simclrhn_probe2,1,192,NaN,oven,clock,64-10-10,0192_eid_dnn_64-10-10_clock_10_n02708093_5126.png,n02708093_5126.png,0.0,-2.5900056,0.17313316,-1.9538342
alexnet_w3_mlp_simclrhn_probe2,1,193,NaN,oven,cat,32-10-10,0193_eid_dnn_32-10-10_cat_10_n02123159_1598.png,n02123159_1598.png,0.0,-2.4844115,2.1136284,-3.251305
alexnet_w3_mlp_simclrhn_probe2,1,194,NaN,car,car,1-10-10,0194_eid_dnn_1-10-10_car_10_n04285008_1661.png,n04285008_1661.png,1.0,6.962602,5.397639,1.1065962
alexnet_w3_mlp_simclrhn_probe2,1,195,NaN,clock,clock,2-10-10,0195_eid_dnn_2-10-10_clock_10_n02708093_5551.png,n02708093_5551.png,1.0,3.218959,-0.5050425,2.633267
alexnet_w3_mlp_simclrhn_probe2,1,196,NaN,airplane,airplane,128-10-10,0196_eid_dnn_128-10-10_airplane_10_n02690373_693.png,n02690373_693.png,1.0,-0.6268851,-0.6905569,0.04502274
alexnet_w3_mlp_simclrhn_probe2,1,197,NaN,elephant,elephant,2-10-10,0197_eid_dnn_2-10-10_elephant_10_n02504013_3409.png,n02504013_3409.png,1.0,7.9014244,2.0443838,4.141553
alexnet_w3_mlp_simclrhn_probe2,1,198,NaN,bear,dog,64-10-10,0198_eid_dnn_64-10-10_dog_10_n02113712_8182.png,n02113712_8182.png,0.0,-1.2692605,-0.6477274,-0.43949032
alexnet_w3_mlp_simclrhn_probe2,1,199,NaN,bottle,bottle,1-10-10,0199_eid_dnn_1-10-10_bottle_10_n03983396_8322.png,n03983396_8322.png,1.0,3.6725562,0.6024925,2.170863
alexnet_w3_mlp_simclrhn_probe2,1,200,NaN,oven,keyboard,64-10-10,0200_eid_dnn_64-10-10_keyboard_10_n04505470_1040.png,n04505470_1040.png,0.0,-4.6866198,0.55333465,-3.7052073
alexnet_w3_mlp_simclrhn_probe2,1,201,NaN,oven,oven,32-10-10,0201_eid_dnn_32-10-10_oven_10_n04111531_11230.png,n04111531_11230.png,1.0,0.8854416,-1.0982476,1.4026802
alexnet_w3_mlp_simclrhn_probe2,1,202,NaN,cat,cat,1-10-10,0202_eid_dnn_1-10-10_cat_10_n02123394_6269.png,n02123394_6269.png,1.0,2.4361153,-0.54545337,2.1082873
alexnet_w3_mlp_simclrhn_probe2,1,203,NaN,elephant,elephant,2-10-10,0203_eid_dnn_2-10-10_elephant_10_n02504013_2075.png,n02504013_2075.png,1.0,6.005457,0.7807901,3.6943972
alexnet_w3_mlp_simclrhn_probe2,1,204,NaN,bear,bear,1-10-10,0204_eid_dnn_1-10-10_bear_10_n02133161_3795.png,n02133161_3795.png,1.0,0.4292068,-0.06111142,0.34670734
alexnet_w3_mlp_simclrhn_probe2,1,205,NaN,oven,oven,2-10-10,0205_eid_dnn_2-10-10_oven_10_n04111531_4322.png,n04111531_4322.png,1.0,1.7609751,-0.09371053,1.3114609
alexnet_w3_mlp_simclrhn_probe2,1,206,NaN,oven,bottle,4-10-10,0206_eid_dnn_4-10-10_bottle_10_n03937543_5799.png,n03937543_5799.png,0.0,-0.52950984,0.9137981,-1.0205728
alexnet_w3_mlp_simclrhn_probe2,1,207,NaN,keyboard,keyboard,8-10-10,0207_eid_dnn_8-10-10_keyboard_10_n04505470_4414.png,n04505470_4414.png,1.0,0.21392375,0.19989726,0.009918229
alexnet_w3_mlp_simclrhn_probe2,1,208,NaN,cat,dog,4-10-10,0208_eid_dnn_4-10-10_dog_10_n02091032_8315.png,n02091032_8315.png,0.0,0.013005016,0.5519443,-0.38108763
alexnet_w3_mlp_simclrhn_probe2,1,209,NaN,knife,knife,2-10-10,0209_eid_dnn_2-10-10_knife_10_n03041632_39952.png,n03041632_39952.png,1.0,1.25831,-0.41676155,1.1844544
alexnet_w3_mlp_simclrhn_probe2,1,210,NaN,bottle,chair,8-10-10,0210_eid_dnn_8-10-10_chair_10_n02791124_634.png,n02791124_634.png,0.0,-3.1884022,-1.3479797,-1.3013753
alexnet_w3_mlp_simclrhn_probe2,1,211,NaN,bear,boat,32-10-10,0211_eid_dnn_32-10-10_boat_10_n03344393_3355.png,n03344393_3355.png,0.0,-0.6323868,-0.5666913,-0.04645375
alexnet_w3_mlp_simclrhn_probe2,1,212,NaN,bear,dog,32-10-10,0212_eid_dnn_32-10-10_dog_10_n02102040_7188.png,n02102040_7188.png,0.0,-1.4211028,-0.7170856,-0.4978153
alexnet_w3_mlp_simclrhn_probe2,1,213,NaN,knife,chair,2-10-10,0213_eid_dnn_2-10-10_chair_10_n02791124_8711.png,n02791124_8711.png,0.0,0.1639458,0.6239284,-0.32525685
alexnet_w3_mlp_simclrhn_probe2,1,214,NaN,oven,bear,64-10-10,0214_eid_dnn_64-10-10_bear_10_n02132136_6002.png,n02132136_6002.png,0.0,-0.29590696,-0.2457741,-0.03544928
alexnet_w3_mlp_simclrhn_probe2,1,215,NaN,boat,boat,4-10-10,0215_eid_dnn_4-10-10_boat_10_n02951358_30184.png,n02951358_30184.png,1.0,1.4399012,1.3593478,0.056959864
alexnet_w3_mlp_simclrhn_probe2,1,216,NaN,oven,bottle,128-10-10,0216_eid_dnn_128-10-10_bottle_10_n02823428_3414.png,n02823428_3414.png,0.0,-2.4360783,0.69216776,-2.212004
alexnet_w3_mlp_simclrhn_probe2,1,217,NaN,oven,truck,4-10-10,0217_eid_dnn_4-10-10_truck_10_n04467665_13231.png,n04467665_13231.png,0.0,-1.1333774,0.21748164,-0.9552016
alexnet_w3_mlp_simclrhn_probe2,1,218,NaN,bicycle,chair,4-10-10,0218_eid_dnn_4-10-10_chair_10_n04099969_8063.png,n04099969_8063.png,0.0,-0.30479187,0.57346076,-0.6210184
alexnet_w3_mlp_simclrhn_probe2,1,219,NaN,bird,bird,4-10-10,0219_eid_dnn_4-10-10_bird_10_n01534433_10234.png,n01534433_10234.png,1.0,0.2569012,-1.926571,1.543948
alexnet_w3_mlp_simclrhn_probe2,1,220,NaN,bear,elephant,4-10-10,0220_eid_dnn_4-10-10_elephant_10_n02504013_12533.png,n02504013_12533.png,0.0,1.1919113,1.3781672,-0.13170275
alexnet_w3_mlp_simclrhn_probe2,1,221,NaN,airplane,knife,16-10-10,0221_eid_dnn_16-10-10_knife_10_n03041632_18995.png,n03041632_18995.png,0.0,-1.2380806,-0.17714402,-0.75019544
alexnet_w3_mlp_simclrhn_probe2,1,222,NaN,oven,chair,32-10-10,0222_eid_dnn_32-10-10_chair_10_n04429376_7123.png,n04429376_7123.png,0.0,-4.499919,0.22433954,-3.3405552
alexnet_w3_mlp_simclrhn_probe2,1,223,NaN,oven,clock,64-10-10,0223_eid_dnn_64-10-10_clock_10_n03196217_9065.png,n03196217_9065.png,0.0,-1.7437716,-0.061292827,-1.1896921
alexnet_w3_mlp_simclrhn_probe2,1,224,NaN,cat,dog,4-10-10,0224_eid_dnn_4-10-10_dog_10_n02086079_4143.png,n02086079_4143.png,0.0,-0.009716907,0.31185785,-0.22738768
alexnet_w3_mlp_simclrhn_probe2,1,225,NaN,bear,bear,4-10-10,0225_eid_dnn_4-10-10_bear_10_n02132136_20162.png,n02132136_20162.png,1.0,1.3811449,1.2885509,0.06547387
alexnet_w3_mlp_simclrhn_probe2,1,226,NaN,knife,bottle,1-10-10,0226_eid_dnn_1-10-10_bottle_10_n03983396_4165.png,n03983396_4165.png,0.0,-1.7557513,0.16342667,-1.3570638
alexnet_w3_mlp_simclrhn_probe2,1,227,NaN,bird,bird,4-10-10,0227_eid_dnn_4-10-10_bird_10_n01824575_4470.png,n01824575_4470.png,1.0,1.6761137,-0.99197054,1.8866204
alexnet_w3_mlp_simclrhn_probe2,1,228,NaN,oven,oven,64-10-10,0228_eid_dnn_64-10-10_oven_10_n04111531_9695.png,n04111531_9695.png,1.0,0.75387484,-0.58283395,0.94519585
alexnet_w3_mlp_simclrhn_probe2,1,229,NaN,oven,bottle,64-10-10,0229_eid_dnn_64-10-10_bottle_10_n02823428_23181.png,n02823428_23181.png,0.0,-2.8209894,0.5955671,-2.4158702
alexnet_w3_mlp_simclrhn_probe2,1,230,NaN,bicycle,bicycle,2-10-10,0230_eid_dnn_2-10-10_bicycle_10_n02835271_13674.png,n02835271_13674.png,1.0,4.8852077,-0.7623551,3.9934301
alexnet_w3_mlp_simclrhn_probe2,1,231,NaN,oven,chair,2-10-10,0231_eid_dnn_2-10-10_chair_10_n04429376_55747.png,n04429376_55747.png,0.0,1.3363202,2.1385827,-0.5672853
alexnet_w3_mlp_simclrhn_probe2,1,232,NaN,oven,boat,32-10-10,0232_eid_dnn_32-10-10_boat_10_n02951358_8346.png,n02951358_8346.png,0.0,-6.672783,1.6336956,-5.8735676
alexnet_w3_mlp_simclrhn_probe2,1,233,NaN,bear,elephant,16-10-10,0233_eid_dnn_16-10-10_elephant_10_n02504013_1088.png,n02504013_1088.png,0.0,1.0446396,1.5668912,-0.36928767
alexnet_w3_mlp_simclrhn_probe2,1,234,NaN,oven,car,8-10-10,0234_eid_dnn_8-10-10_car_10_n03100240_11191.png,n03100240_11191.png,0.0,-1.9956423,0.33906746,-1.650889
alexnet_w3_mlp_simclrhn_probe2,1,235,NaN,oven,chair,8-10-10,0235_eid_dnn_8-10-10_chair_10_n04099969_19966.png,n04099969_19966.png,0.0,-0.024549454,0.32482585,-0.24704565
alexnet_w3_mlp_simclrhn_probe2,1,236,NaN,oven,bicycle,32-10-10,0236_eid_dnn_32-10-10_bicycle_10_n03792782_15016.png,n03792782_15016.png,0.0,-3.62776,0.976519,-3.255717
alexnet_w3_mlp_simclrhn_probe2,1,237,NaN,oven,boat,128-10-10,0237_eid_dnn_128-10-10_boat_10_n02951358_17867.png,n02951358_17867.png,0.0,-2.569059,-0.14871827,-1.7114393
alexnet_w3_mlp_simclrhn_probe2,1,238,NaN,cat,cat,2-10-10,0238_eid_dnn_2-10-10_cat_10_n02123045_2364.png,n02123045_2364.png,1.0,3.2581606,-1.9986459,3.7171235
alexnet_w3_mlp_simclrhn_probe2,1,239,NaN,bear,bear,2-10-10,0239_eid_dnn_2-10-10_bear_10_n02132136_9433.png,n02132136_9433.png,1.0,2.921669,1.0806565,1.3017924
alexnet_w3_mlp_simclrhn_probe2,1,240,NaN,oven,clock,32-10-10,0240_eid_dnn_32-10-10_clock_10_n03196217_3167.png,n03196217_3167.png,0.0,-3.7863388,0.7779424,-3.2274344
alexnet_w3_mlp_simclrhn_probe2,1,241,NaN,oven,clock,32-10-10,0241_eid_dnn_32-10-10_clock_10_n03196217_3129.png,n03196217_3129.png,0.0,-1.6379809,0.28878236,-1.3624275
alexnet_w3_mlp_simclrhn_probe2,1,242,NaN,oven,keyboard,128-10-10,0242_eid_dnn_128-10-10_keyboard_10_n03085013_6067.png,n03085013_6067.png,0.0,-2.6262302,-0.31608438,-1.6335198
alexnet_w3_mlp_simclrhn_probe2,1,243,NaN,keyboard,keyboard,2-10-10,0243_eid_dnn_2-10-10_keyboard_10_n03085013_24648.png,n03085013_24648.png,1.0,3.6631286,0.4965714,2.2390943
alexnet_w3_mlp_simclrhn_probe2,1,244,NaN,oven,oven,32-10-10,0244_eid_dnn_32-10-10_oven_10_n04111531_6695.png,n04111531_6695.png,1.0,1.3164289,-0.45527646,1.252785
alexnet_w3_mlp_simclrhn_probe2,1,245,NaN,dog,dog,4-10-10,0245_eid_dnn_4-10-10_dog_10_n02111500_4875.png,n02111500_4875.png,1.0,0.031381283,-0.1446122,0.12444618
alexnet_w3_mlp_simclrhn_probe2,1,246,NaN,oven,oven,32-10-10,0246_eid_dnn_32-10-10_oven_10_n04111531_13018.png,n04111531_13018.png,1.0,0.80571556,-1.6543427,1.7395239
alexnet_w3_mlp_simclrhn_probe2,1,247,NaN,oven,keyboard,128-10-10,0247_eid_dnn_128-10-10_keyboard_10_n03085013_23030.png,n03085013_23030.png,0.0,-4.7127013,0.6322763,-3.7794697
alexnet_w3_mlp_simclrhn_probe2,1,248,NaN,dog,cat,8-10-10,0248_eid_dnn_8-10-10_cat_10_n02123045_8409.png,n02123045_8409.png,0.0,-0.71642375,-0.06869771,-0.4580115
alexnet_w3_mlp_simclrhn_probe2,1,249,NaN,bicycle,bicycle,4-10-10,0249_eid_dnn_4-10-10_bicycle_10_n03792782_37777.png,n03792782_37777.png,1.0,3.2218647,-1.0300528,3.0065596
alexnet_w3_mlp_simclrhn_probe2,1,250,NaN,oven,airplane,64-10-10,0250_eid_dnn_64-10-10_airplane_10_n02690373_614.png,n02690373_614.png,0.0,-2.3336434,-0.35622436,-1.3982465
alexnet_w3_mlp_simclrhn_probe2,1,251,NaN,oven,keyboard,128-10-10,0251_eid_dnn_128-10-10_keyboard_10_n03085013_19775.png,n03085013_19775.png,0.0,-7.1105156,0.4378053,-5.337469
alexnet_w3_mlp_simclrhn_probe2,1,252,NaN,bear,bear,8-10-10,0252_eid_dnn_8-10-10_bear_10_n02133161_1244.png,n02133161_1244.png,1.0,2.744133,1.1736958,1.1104668
alexnet_w3_mlp_simclrhn_probe2,1,253,NaN,car,keyboard,2-10-10,0253_eid_dnn_2-10-10_keyboard_10_n04505470_4368.png,n04505470_4368.png,0.0,-0.17168474,3.331982,-2.4774666
alexnet_w3_mlp_simclrhn_probe2,1,254,NaN,oven,oven,2-10-10,0254_eid_dnn_2-10-10_oven_10_n04111531_7728.png,n04111531_7728.png,1.0,4.34908,0.1673899,2.9569016
alexnet_w3_mlp_simclrhn_probe2,1,255,NaN,oven,clock,8-10-10,0255_eid_dnn_8-10-10_clock_10_n04548280_1.png,n04548280_1.png,0.0,-3.3585374,1.900221,-3.718504
alexnet_w3_mlp_simclrhn_probe2,1,256,NaN,oven,cat,64-10-10,0256_eid_dnn_64-10-10_cat_10_n02123394_3062.png,n02123394_3062.png,0.0,-1.676547,0.63784385,-1.6365216
alexnet_w3_mlp_simclrhn_probe2,1,257,NaN,elephant,elephant,2-10-10,0257_eid_dnn_2-10-10_elephant_10_n02504013_466.png,n02504013_466.png,1.0,5.7785187,0.3923859,3.808571
alexnet_w3_mlp_simclrhn_probe2,1,258,NaN,elephant,elephant,1-10-10,0258_eid_dnn_1-10-10_elephant_10_n02504013_6275.png,n02504013_6275.png,1.0,5.749366,0.58076906,3.6547499
alexnet_w3_mlp_simclrhn_probe2,1,259,NaN,bird,bird,4-10-10,0259_eid_dnn_4-10-10_bird_10_n01560419_5466.png,n01560419_5466.png,1.0,0.984646,-2.7431874,2.6359763
alexnet_w3_mlp_simclrhn_probe2,1,260,NaN,oven,truck,8-10-10,0260_eid_dnn_8-10-10_truck_10_n03796401_5227.png,n03796401_5227.png,0.0,-4.184169,-0.13782471,-2.8611975
alexnet_w3_mlp_simclrhn_probe2,1,261,NaN,chair,chair,2-10-10,0261_eid_dnn_2-10-10_chair_10_n04099969_25124.png,n04099969_25124.png,1.0,2.1536632,1.1262454,0.7264941
alexnet_w3_mlp_simclrhn_probe2,1,262,NaN,airplane,elephant,64-10-10,0262_eid_dnn_64-10-10_elephant_10_n02504013_7209.png,n02504013_7209.png,0.0,-0.17313966,-0.10575388,-0.04764894
alexnet_w3_mlp_simclrhn_probe2,1,263,NaN,cat,cat,1-10-10,0263_eid_dnn_1-10-10_cat_10_n02123597_4756.png,n02123597_4756.png,1.0,0.72570753,-0.89501566,1.1460245
alexnet_w3_mlp_simclrhn_probe2,1,264,NaN,oven,bicycle,16-10-10,0264_eid_dnn_16-10-10_bicycle_10_n02835271_4654.png,n02835271_4654.png,0.0,-3.1154122,-1.3974026,-1.2148162
alexnet_w3_mlp_simclrhn_probe2,1,265,NaN,keyboard,keyboard,1-10-10,0265_eid_dnn_1-10-10_keyboard_10_n04505470_2389.png,n04505470_2389.png,1.0,4.987649,1.8852396,2.1937346
alexnet_w3_mlp_simclrhn_probe2,1,266,NaN,oven,knife,128-10-10,0266_eid_dnn_128-10-10_knife_10_n03041632_379.png,n03041632_379.png,0.0,-1.1217983,0.099190965,-0.86336976
alexnet_w3_mlp_simclrhn_probe2,1,267,NaN,airplane,clock,8-10-10,0267_eid_dnn_8-10-10_clock_10_n02708093_899.png,n02708093_899.png,0.0,-1.0912212,-0.06945431,-0.7224983
alexnet_w3_mlp_simclrhn_probe2,1,268,NaN,oven,truck,128-10-10,0268_eid_dnn_128-10-10_truck_10_n03417042_10154.png,n03417042_10154.png,0.0,-8.93815,1.2935982,-7.234939
alexnet_w3_mlp_simclrhn_probe2,1,269,NaN,bottle,bottle,2-10-10,0269_eid_dnn_2-10-10_bottle_10_n04579145_3415.png,n04579145_3415.png,1.0,0.7427018,-1.1970799,1.3716328
alexnet_w3_mlp_simclrhn_probe2,1,270,NaN,bear,chair,16-10-10,0270_eid_dnn_16-10-10_chair_10_n02791124_146.png,n02791124_146.png,0.0,-2.2716656,0.3967699,-1.886869
alexnet_w3_mlp_simclrhn_probe2,1,271,NaN,oven,elephant,128-10-10,0271_eid_dnn_128-10-10_elephant_10_n02504458_2835.png,n02504458_2835.png,0.0,-1.7313745,0.69355136,-1.7146815
alexnet_w3_mlp_simclrhn_probe2,1,272,NaN,bicycle,bicycle,1-10-10,0272_eid_dnn_1-10-10_bicycle_10_n03792782_13835.png,n03792782_13835.png,1.0,3.0180066,0.14157875,2.0339417
alexnet_w3_mlp_simclrhn_probe2,1,273,NaN,oven,bicycle,32-10-10,0273_eid_dnn_32-10-10_bicycle_10_n02835271_12926.png,n02835271_12926.png,0.0,-2.735997,1.1418204,-2.742031
alexnet_w3_mlp_simclrhn_probe2,1,274,NaN,dog,dog,2-10-10,0274_eid_dnn_2-10-10_dog_10_n02110185_11605.png,n02110185_11605.png,1.0,1.5928648,0.48490357,0.78344685
alexnet_w3_mlp_simclrhn_probe2,1,275,NaN,oven,elephant,128-10-10,0275_eid_dnn_128-10-10_elephant_10_n02504458_3091.png,n02504458_3091.png,0.0,-0.50399774,0.38651502,-0.6296876
alexnet_w3_mlp_simclrhn_probe2,1,276,NaN,oven,chair,128-10-10,0276_eid_dnn_128-10-10_chair_10_n04099969_5233.png,n04099969_5233.png,0.0,-4.6820464,0.26779747,-3.5000682
alexnet_w3_mlp_simclrhn_probe2,1,277,NaN,dog,dog,2-10-10,0277_eid_dnn_2-10-10_dog_10_n02097209_7628.png,n02097209_7628.png,1.0,1.1179205,-0.2791902,0.98790646
alexnet_w3_mlp_simclrhn_probe2,1,278,NaN,bear,cat,8-10-10,0278_eid_dnn_8-10-10_cat_10_n02123597_10941.png,n02123597_10941.png,0.0,0.39241517,0.5887313,-0.13881646
alexnet_w3_mlp_simclrhn_probe2,1,279,NaN,oven,clock,16-10-10,0279_eid_dnn_16-10-10_clock_10_n02708093_3006.png,n02708093_3006.png,0.0,-2.6416628,-0.6314381,-1.4214436
alexnet_w3_mlp_simclrhn_probe2,1,280,NaN,truck,truck,1-10-10,0280_eid_dnn_1-10-10_truck_10_n03796401_26620.png,n03796401_26620.png,1.0,0.8612167,0.11269157,0.5292872
alexnet_w3_mlp_simclrhn_probe2,1,281,NaN,oven,bear,128-10-10,0281_eid_dnn_128-10-10_bear_10_n02134418_12733.png,n02134418_12733.png,0.0,-0.19157885,0.92003834,-0.7860321
alexnet_w3_mlp_simclrhn_probe2,1,282,NaN,knife,knife,2-10-10,0282_eid_dnn_2-10-10_knife_10_n03041632_4806.png,n03041632_4806.png,1.0,0.2575103,-1.0585446,0.9305914
alexnet_w3_mlp_simclrhn_probe2,1,283,NaN,oven,oven,4-10-10,0283_eid_dnn_4-10-10_oven_10_n04111531_17922.png,n04111531_17922.png,1.0,3.9086905,-0.13274121,2.8577237
alexnet_w3_mlp_simclrhn_probe2,1,284,NaN,bottle,bottle,1-10-10,0284_eid_dnn_1-10-10_bottle_10_n04579145_6818.png,n04579145_6818.png,1.0,3.276202,-1.7002463,3.5188801
alexnet_w3_mlp_simclrhn_probe2,1,285,NaN,keyboard,keyboard,4-10-10,0285_eid_dnn_4-10-10_keyboard_10_n04505470_494.png,n04505470_494.png,1.0,3.0020103,0.476573,1.785754
alexnet_w3_mlp_simclrhn_probe2,1,286,NaN,cat,cat,8-10-10,0286_eid_dnn_8-10-10_cat_10_n02123045_10834.png,n02123045_10834.png,1.0,1.4952282,0.09813434,0.9878945
alexnet_w3_mlp_simclrhn_probe2,1,287,NaN,oven,cat,128-10-10,0287_eid_dnn_128-10-10_cat_10_n02123394_176.png,n02123394_176.png,0.0,-0.39197457,0.37844896,-0.54477173
alexnet_w3_mlp_simclrhn_probe2,1,288,NaN,oven,chair,128-10-10,0288_eid_dnn_128-10-10_chair_10_n03376595_2891.png,n03376595_2891.png,0.0,-5.7419715,0.09433569,-4.1268926
alexnet_w3_mlp_simclrhn_probe2,1,289,NaN,dog,dog,8-10-10,0289_eid_dnn_8-10-10_dog_10_n02093256_5647.png,n02093256_5647.png,1.0,1.4429216,0.60779387,0.5905245
alexnet_w3_mlp_simclrhn_probe2,1,290,NaN,oven,knife,64-10-10,0290_eid_dnn_64-10-10_knife_10_n03041632_33326.png,n03041632_33326.png,0.0,-2.4412658,0.49683362,-2.07755
alexnet_w3_mlp_simclrhn_probe2,1,291,NaN,oven,airplane,8-10-10,0291_eid_dnn_8-10-10_airplane_10_n02690373_2856.png,n02690373_2856.png,0.0,-3.0542846,1.1505747,-2.9732845
alexnet_w3_mlp_simclrhn_probe2,1,292,NaN,oven,bicycle,128-10-10,0292_eid_dnn_128-10-10_bicycle_10_n03792782_9651.png,n03792782_9651.png,0.0,-2.3081212,0.612461,-2.0651636
alexnet_w3_mlp_simclrhn_probe2,1,293,NaN,bicycle,bicycle,2-10-10,0293_eid_dnn_2-10-10_bicycle_10_n02835271_7438.png,n02835271_7438.png,1.0,3.1535172,-1.3104558,3.1565056
alexnet_w3_mlp_simclrhn_probe2,1,294,NaN,oven,bicycle,128-10-10,0294_eid_dnn_128-10-10_bicycle_10_n02835271_26639.png,n02835271_26639.png,0.0,-2.9668422,0.3669407,-2.3573406
alexnet_w3_mlp_simclrhn_probe2,1,295,NaN,keyboard,keyboard,8-10-10,0295_eid_dnn_8-10-10_keyboard_10_n04505470_4458.png,n04505470_4458.png,1.0,2.5739021,0.32976764,1.5868427
alexnet_w3_mlp_simclrhn_probe2,1,296,NaN,oven,dog,64-10-10,0296_eid_dnn_64-10-10_dog_10_n02106662_24847.png,n02106662_24847.png,0.0,-2.0204687,0.5314082,-1.8044496
alexnet_w3_mlp_simclrhn_probe2,1,297,NaN,oven,chair,32-10-10,0297_eid_dnn_32-10-10_chair_10_n03376595_8995.png,n03376595_8995.png,0.0,-3.7068913,0.8352711,-3.211794
alexnet_w3_mlp_simclrhn_probe2,1,298,NaN,oven,bicycle,64-10-10,0298_eid_dnn_64-10-10_bicycle_10_n03792782_6030.png,n03792782_6030.png,0.0,-2.212794,0.0013417602,-1.5656306
alexnet_w3_mlp_simclrhn_probe2,1,299,NaN,elephant,elephant,4-10-10,0299_eid_dnn_4-10-10_elephant_10_n02504458_7258.png,n02504458_7258.png,1.0,2.9034677,1.2546117,1.1659173
alexnet_w3_mlp_simclrhn_probe2,1,300,NaN,oven,boat,128-10-10,0300_eid_dnn_128-10-10_boat_10_n03662601_23903.png,n03662601_23903.png,0.0,-2.9817083,0.037029773,-2.1345701
alexnet_w3_mlp_simclrhn_probe2,1,301,NaN,oven,bird,16-10-10,0301_eid_dnn_16-10-10_bird_10_n02002724_578.png,n02002724_578.png,0.0,-1.9713004,0.14951926,-1.499646
alexnet_w3_mlp_simclrhn_probe2,1,302,NaN,oven,chair,64-10-10,0302_eid_dnn_64-10-10_chair_10_n03376595_2393.png,n03376595_2393.png,0.0,-3.9014928,-0.4022897,-2.4743104
alexnet_w3_mlp_simclrhn_probe2,1,303,NaN,airplane,boat,16-10-10,0303_eid_dnn_16-10-10_boat_10_n03662601_5118.png,n03662601_5118.png,0.0,-0.13688228,0.21547684,-0.24915552
alexnet_w3_mlp_simclrhn_probe2,1,304,NaN,oven,chair,8-10-10,0304_eid_dnn_8-10-10_chair_10_n04429376_21845.png,n04429376_21845.png,0.0,-1.848332,0.99611723,-2.0113294
alexnet_w3_mlp_simclrhn_probe2,1,305,NaN,airplane,dog,8-10-10,0305_eid_dnn_8-10-10_dog_10_n02102040_2216.png,n02102040_2216.png,0.0,-1.3718926,-0.8256198,-0.38627318
alexnet_w3_mlp_simclrhn_probe2,1,306,NaN,elephant,airplane,8-10-10,0306_eid_dnn_8-10-10_airplane_10_n02690373_3032.png,n02690373_3032.png,0.0,-0.57559,0.49753398,-0.7588132
alexnet_w3_mlp_simclrhn_probe2,1,307,NaN,cat,dog,8-10-10,0307_eid_dnn_8-10-10_dog_10_n02100735_2228.png,n02100735_2228.png,0.0,-0.825305,-0.56541514,-0.18376987
alexnet_w3_mlp_simclrhn_probe2,1,308,NaN,bird,bird,8-10-10,0308_eid_dnn_8-10-10_bird_10_n01532829_13864.png,n01532829_13864.png,1.0,0.63712776,-1.3918039,1.4346713
alexnet_w3_mlp_simclrhn_probe2,1,309,NaN,oven,bird,64-10-10,0309_eid_dnn_64-10-10_bird_10_n01601694_13787.png,n01601694_13787.png,0.0,-1.9546119,-0.1857706,-1.2507597
alexnet_w3_mlp_simclrhn_probe2,1,310,NaN,oven,bear,64-10-10,0310_eid_dnn_64-10-10_bear_10_n02134084_22150.png,n02134084_22150.png,0.0,-0.02549406,0.03838934,-0.045172386
alexnet_w3_mlp_simclrhn_probe2,1,311,NaN,oven,knife,16-10-10,0311_eid_dnn_16-10-10_knife_10_n03041632_29427.png,n03041632_29427.png,0.0,-1.6624637,1.7104213,-2.38499
alexnet_w3_mlp_simclrhn_probe2,1,312,NaN,oven,chair,4-10-10,0312_eid_dnn_4-10-10_chair_10_n02791124_2804.png,n02791124_2804.png,0.0,-0.48860505,0.9878559,-1.0440155
alexnet_w3_mlp_simclrhn_probe2,1,313,NaN,bottle,bottle,4-10-10,0313_eid_dnn_4-10-10_bottle_10_n04591713_5046.png,n04591713_5046.png,1.0,5.30644,1.5495965,2.6564894
alexnet_w3_mlp_simclrhn_probe2,1,314,NaN,oven,bicycle,128-10-10,0314_eid_dnn_128-10-10_bicycle_10_n03792782_4210.png,n03792782_4210.png,0.0,-2.9239688,-0.07341729,-2.0156443
alexnet_w3_mlp_simclrhn_probe2,1,315,NaN,oven,cat,128-10-10,0315_eid_dnn_128-10-10_cat_10_n02123159_1596.png,n02123159_1596.png,0.0,-0.61769706,0.5792551,-0.84637296
alexnet_w3_mlp_simclrhn_probe2,1,316,NaN,airplane,car,2-10-10,0316_eid_dnn_2-10-10_car_10_n03100240_17588.png,n03100240_17588.png,0.0,2.6569424,3.216794,-0.3958749
alexnet_w3_mlp_simclrhn_probe2,1,317,NaN,dog,keyboard,4-10-10,0317_eid_dnn_4-10-10_keyboard_10_n03085013_23295.png,n03085013_23295.png,0.0,-6.708674,1.5465416,-5.837319
alexnet_w3_mlp_simclrhn_probe2,1,318,NaN,oven,oven,32-10-10,0318_eid_dnn_32-10-10_oven_10_n04111531_4879.png,n04111531_4879.png,1.0,1.5335426,-0.5620402,1.4818009
alexnet_w3_mlp_simclrhn_probe2,1,319,NaN,oven,keyboard,32-10-10,0319_eid_dnn_32-10-10_keyboard_10_n04505470_4569.png,n04505470_4569.png,0.0,-6.584192,2.291902,-6.276346
alexnet_w3_mlp_simclrhn_probe2,1,320,NaN,elephant,truck,8-10-10,0320_eid_dnn_8-10-10_truck_10_n04467665_24190.png,n04467665_24190.png,0.0,-2.43283,0.09653495,-1.7885312
alexnet_w3_mlp_simclrhn_probe2,1,321,NaN,cat,cat,4-10-10,0321_eid_dnn_4-10-10_cat_10_n02124075_15405.png,n02124075_15405.png,1.0,0.5175546,0.063346416,0.32117367
alexnet_w3_mlp_simclrhn_probe2,1,322,NaN,cat,knife,8-10-10,0322_eid_dnn_8-10-10_knife_10_n03041632_24817.png,n03041632_24817.png,0.0,-1.0070446,-0.55604076,-0.31890786
alexnet_w3_mlp_simclrhn_probe2,1,323,NaN,oven,elephant,64-10-10,0323_eid_dnn_64-10-10_elephant_10_n02504013_5505.png,n02504013_5505.png,0.0,-1.182726,0.42119783,-1.1341454
alexnet_w3_mlp_simclrhn_probe2,1,324,NaN,airplane,airplane,8-10-10,0324_eid_dnn_8-10-10_airplane_10_n02690373_8846.png,n02690373_8846.png,1.0,0.23008493,0.10080254,0.091416456
alexnet_w3_mlp_simclrhn_probe2,1,325,NaN,boat,truck,32-10-10,0325_eid_dnn_32-10-10_truck_10_n04467665_50806.png,n04467665_50806.png,0.0,-1.5409843,-0.13553283,-0.9938042
alexnet_w3_mlp_simclrhn_probe2,1,326,NaN,elephant,elephant,4-10-10,0326_eid_dnn_4-10-10_elephant_10_n02504458_5539.png,n02504458_5539.png,1.0,8.473382,2.3662217,4.3184147
alexnet_w3_mlp_simclrhn_probe2,1,327,NaN,boat,boat,1-10-10,0327_eid_dnn_1-10-10_boat_10_n03344393_1178.png,n03344393_1178.png,1.0,3.3700671,1.7787583,1.1252253
alexnet_w3_mlp_simclrhn_probe2,1,328,NaN,truck,truck,4-10-10,0328_eid_dnn_4-10-10_truck_10_n04467665_10025.png,n04467665_10025.png,1.0,6.3732414,3.1111195,2.3066685
alexnet_w3_mlp_simclrhn_probe2,1,329,NaN,clock,clock,4-10-10,0329_eid_dnn_4-10-10_clock_10_n02708093_2869.png,n02708093_2869.png,1.0,0.37231648,-0.22526352,0.42255288
alexnet_w3_mlp_simclrhn_probe2,1,330,NaN,bottle,bottle,8-10-10,0330_eid_dnn_8-10-10_bottle_10_n03983396_4879.png,n03983396_4879.png,1.0,-0.12461434,-0.27887407,0.1090781
alexnet_w3_mlp_simclrhn_probe2,1,331,NaN,oven,keyboard,128-10-10,0331_eid_dnn_128-10-10_keyboard_10_n03085013_10367.png,n03085013_10367.png,0.0,-2.8347478,0.26067618,-2.1887953
alexnet_w3_mlp_simclrhn_probe2,1,332,NaN,oven,bird,64-10-10,0332_eid_dnn_64-10-10_bird_10_n01860187_21300.png,n01860187_21300.png,0.0,-2.8535361,0.1185247,-2.1015644
alexnet_w3_mlp_simclrhn_probe2,1,333,NaN,oven,knife,32-10-10,0333_eid_dnn_32-10-10_knife_10_n03041632_5302.png,n03041632_5302.png,0.0,-1.2823483,-0.013748854,-0.89703524
alexnet_w3_mlp_simclrhn_probe2,1,334,NaN,bear,bear,4-10-10,0334_eid_dnn_4-10-10_bear_10_n02134084_5274.png,n02134084_5274.png,1.0,2.3125186,1.1373013,0.83100414
alexnet_w3_mlp_simclrhn_probe2,1,335,NaN,bird,knife,4-10-10,0335_eid_dnn_4-10-10_knife_10_n03041632_48816.png,n03041632_48816.png,0.0,-0.9064077,-0.18074095,-0.51312387
alexnet_w3_mlp_simclrhn_probe2,1,336,NaN,oven,elephant,16-10-10,0336_eid_dnn_16-10-10_elephant_10_n02504013_3295.png,n02504013_3295.png,0.0,-1.7865595,0.46806777,-1.5942622
alexnet_w3_mlp_simclrhn_probe2,1,337,NaN,oven,truck,128-10-10,0337_eid_dnn_128-10-10_truck_10_n03417042_2478.png,n03417042_2478.png,0.0,-4.4595346,0.49968284,-3.5066965
alexnet_w3_mlp_simclrhn_probe2,1,338,NaN,oven,oven,32-10-10,0338_eid_dnn_32-10-10_oven_10_n04111531_5350.png,n04111531_5350.png,1.0,0.85308105,-0.4744085,0.93867695
alexnet_w3_mlp_simclrhn_probe2,1,339,NaN,oven,airplane,8-10-10,0339_eid_dnn_8-10-10_airplane_10_n02690373_1663.png,n02690373_1663.png,0.0,-2.508797,-0.1740358,-1.6509255
alexnet_w3_mlp_simclrhn_probe2,1,340,NaN,boat,boat,4-10-10,0340_eid_dnn_4-10-10_boat_10_n03344393_1422.png,n03344393_1422.png,1.0,2.096005,0.30953622,1.2632242
alexnet_w3_mlp_simclrhn_probe2,1,341,NaN,oven,cat,32-10-10,0341_eid_dnn_32-10-10_cat_10_n02123159_3312.png,n02123159_3312.png,0.0,-0.9380923,-0.5163495,-0.2982172
alexnet_w3_mlp_simclrhn_probe2,1,342,NaN,bear,chair,64-10-10,0342_eid_dnn_64-10-10_chair_10_n03376595_6171.png,n03376595_6171.png,0.0,-5.395934,-0.058068264,-3.7744412
alexnet_w3_mlp_simclrhn_probe2,1,343,NaN,bottle,bottle,8-10-10,0343_eid_dnn_8-10-10_bottle_10_n04591713_1616.png,n04591713_1616.png,1.0,0.31638625,-0.23590267,0.39052722
alexnet_w3_mlp_simclrhn_probe2,1,344,NaN,oven,bear,128-10-10,0344_eid_dnn_128-10-10_bear_10_n02133161_1197.png,n02133161_1197.png,0.0,-0.333672,0.012660451,-0.24489401
alexnet_w3_mlp_simclrhn_probe2,1,345,NaN,chair,truck,4-10-10,0345_eid_dnn_4-10-10_truck_10_n04467665_663.png,n04467665_663.png,0.0,-2.9806933,1.8087755,-3.3866658
alexnet_w3_mlp_simclrhn_probe2,1,346,NaN,bear,bear,4-10-10,0346_eid_dnn_4-10-10_bear_10_n02132136_2771.png,n02132136_2771.png,1.0,2.0653377,-0.89768726,2.095175
alexnet_w3_mlp_simclrhn_probe2,1,347,NaN,oven,cat,16-10-10,0347_eid_dnn_16-10-10_cat_10_n02123394_12.png,n02123394_12.png,0.0,-1.4891096,-0.114676625,-0.97187096
alexnet_w3_mlp_simclrhn_probe2,1,348,NaN,oven,car,8-10-10,0348_eid_dnn_8-10-10_car_10_n04285008_1795.png,n04285008_1795.png,0.0,-3.4080703,-0.47923058,-2.0710025
alexnet_w3_mlp_simclrhn_probe2,1,349,NaN,bear,boat,4-10-10,0349_eid_dnn_4-10-10_boat_10_n04273569_1023.png,n04273569_1023.png,0.0,0.044308223,0.17450854,-0.092065535
alexnet_w3_mlp_simclrhn_probe2,1,350,NaN,boat,boat,1-10-10,0350_eid_dnn_1-10-10_boat_10_n03662601_21775.png,n03662601_21775.png,1.0,6.820759,2.708439,2.9078493
alexnet_w3_mlp_simclrhn_probe2,1,351,NaN,knife,clock,1-10-10,0351_eid_dnn_1-10-10_clock_10_n03196217_71.png,n03196217_71.png,0.0,0.87453145,1.5521667,-0.4791605
alexnet_w3_mlp_simclrhn_probe2,1,352,NaN,bottle,keyboard,4-10-10,0352_eid_dnn_4-10-10_keyboard_10_n04505470_3122.png,n04505470_3122.png,0.0,-0.85272634,-0.27010036,-0.41197878
alexnet_w3_mlp_simclrhn_probe2,1,353,NaN,oven,dog,32-10-10,0353_eid_dnn_32-10-10_dog_10_n02099849_4640.png,n02099849_4640.png,0.0,-1.5633335,0.90991664,-1.748852
alexnet_w3_mlp_simclrhn_probe2,1,354,NaN,oven,bottle,64-10-10,0354_eid_dnn_64-10-10_bottle_10_n02823428_6418.png,n02823428_6418.png,0.0,-2.9102685,0.28661385,-2.2605374
alexnet_w3_mlp_simclrhn_probe2,1,355,NaN,oven,car,8-10-10,0355_eid_dnn_8-10-10_car_10_n04285008_11704.png,n04285008_11704.png,0.0,-5.664757,1.4595239,-5.037627
alexnet_w3_mlp_simclrhn_probe2,1,356,NaN,knife,clock,32-10-10,0356_eid_dnn_32-10-10_clock_10_n02708093_3544.png,n02708093_3544.png,0.0,-1.3090867,-0.67804885,-0.44621113
alexnet_w3_mlp_simclrhn_probe2,1,357,NaN,oven,clock,8-10-10,0357_eid_dnn_8-10-10_clock_10_n04548280_4599.png,n04548280_4599.png,0.0,-1.8888111,-0.41336975,-1.0432945
alexnet_w3_mlp_simclrhn_probe2,1,358,NaN,oven,car,128-10-10,0358_eid_dnn_128-10-10_car_10_n03100240_6259.png,n03100240_6259.png,0.0,-7.6460357,1.4877324,-6.4585495
alexnet_w3_mlp_simclrhn_probe2,1,359,NaN,airplane,boat,8-10-10,0359_eid_dnn_8-10-10_boat_10_n04273569_3401.png,n04273569_3401.png,0.0,0.09018669,0.1308427,-0.02874814
alexnet_w3_mlp_simclrhn_probe2,1,360,NaN,oven,truck,64-10-10,0360_eid_dnn_64-10-10_truck_10_n04467665_13898.png,n04467665_13898.png,0.0,-6.270603,-0.12727651,-4.343988
alexnet_w3_mlp_simclrhn_probe2,1,361,NaN,keyboard,clock,2-10-10,0361_eid_dnn_2-10-10_clock_10_n03196217_1499.png,n03196217_1499.png,0.0,0.3093982,1.0355601,-0.51347405
alexnet_w3_mlp_simclrhn_probe2,1,362,NaN,car,car,4-10-10,0362_eid_dnn_4-10-10_car_10_n03100240_8702.png,n03100240_8702.png,1.0,-0.0402597,-0.19567554,0.109895594
alexnet_w3_mlp_simclrhn_probe2,1,363,NaN,bear,bear,4-10-10,0363_eid_dnn_4-10-10_bear_10_n02134418_1770.png,n02134418_1770.png,1.0,1.9237375,0.16362981,1.2445842
alexnet_w3_mlp_simclrhn_probe2,1,364,NaN,bear,bear,16-10-10,0364_eid_dnn_16-10-10_bear_10_n02132136_32838.png,n02132136_32838.png,1.0,1.4165924,-0.0629928,1.0462247
alexnet_w3_mlp_simclrhn_probe2,1,365,NaN,boat,truck,4-10-10,0365_eid_dnn_4-10-10_truck_10_n04467665_68331.png,n04467665_68331.png,0.0,-1.034636,0.6635135,-1.200773
alexnet_w3_mlp_simclrhn_probe2,1,366,NaN,airplane,airplane,1-10-10,0366_eid_dnn_1-10-10_airplane_10_n02690373_4506.png,n02690373_4506.png,1.0,7.7594604,0.56581706,5.086674
alexnet_w3_mlp_simclrhn_probe2,1,367,NaN,car,car,2-10-10,0367_eid_dnn_2-10-10_car_10_n03100240_5308.png,n03100240_5308.png,1.0,3.7652009,1.9422016,1.2890551
alexnet_w3_mlp_simclrhn_probe2,1,368,NaN,oven,cat,2-10-10,0368_eid_dnn_2-10-10_cat_10_n02124075_15345.png,n02124075_15345.png,0.0,-0.9224308,-0.4656768,-0.32297385
alexnet_w3_mlp_simclrhn_probe2,1,369,NaN,oven,bicycle,128-10-10,0369_eid_dnn_128-10-10_bicycle_10_n03792782_50972.png,n03792782_50972.png,0.0,-1.8984718,0.51869106,-1.7091923
alexnet_w3_mlp_simclrhn_probe2,1,370,NaN,cat,knife,8-10-10,0370_eid_dnn_8-10-10_knife_10_n03041632_19098.png,n03041632_19098.png,0.0,-1.5378269,-0.7508969,-0.5564436
alexnet_w3_mlp_simclrhn_probe2,1,371,NaN,bear,bottle,128-10-10,0371_eid_dnn_128-10-10_bottle_10_n04560804_15963.png,n04560804_15963.png,0.0,-3.6277504,0.08138866,-2.6227574
alexnet_w3_mlp_simclrhn_probe2,1,372,NaN,oven,bottle,8-10-10,0372_eid_dnn_8-10-10_bottle_10_n04557648_7809.png,n04557648_7809.png,0.0,-2.0129673,0.07606587,-1.4771695
alexnet_w3_mlp_simclrhn_probe2,1,373,NaN,airplane,airplane,1-10-10,0373_eid_dnn_1-10-10_airplane_10_n02690373_17764.png,n02690373_17764.png,1.0,5.4248548,-0.45656994,4.1587954
alexnet_w3_mlp_simclrhn_probe2,1,374,NaN,oven,elephant,64-10-10,0374_eid_dnn_64-10-10_elephant_10_n02504013_7322.png,n02504013_7322.png,0.0,-1.7006266,1.7143862,-2.4147787
alexnet_w3_mlp_simclrhn_probe2,1,375,NaN,bear,bear,2-10-10,0375_eid_dnn_2-10-10_bear_10_n02134084_2959.png,n02134084_2959.png,1.0,0.5591173,0.39720532,0.11448907
alexnet_w3_mlp_simclrhn_probe2,1,376,NaN,bird,bird,2-10-10,0376_eid_dnn_2-10-10_bird_10_n01622779_6563.png,n01622779_6563.png,1.0,0.29710373,-1.7596364,1.4543349
alexnet_w3_mlp_simclrhn_probe2,1,377,NaN,oven,knife,16-10-10,0377_eid_dnn_16-10-10_knife_10_n03041632_19620.png,n03041632_19620.png,0.0,-0.60080314,0.45969057,-0.7498823
alexnet_w3_mlp_simclrhn_probe2,1,378,NaN,bird,bird,4-10-10,0378_eid_dnn_4-10-10_bird_10_n01530575_35977.png,n01530575_35977.png,1.0,1.2920766,-1.8558339,2.225909
alexnet_w3_mlp_simclrhn_probe2,1,379,NaN,oven,cat,128-10-10,0379_eid_dnn_128-10-10_cat_10_n02123394_1757.png,n02123394_1757.png,0.0,-1.6714811,0.5707443,-1.5854928
alexnet_w3_mlp_simclrhn_probe2,1,380,NaN,oven,dog,2-10-10,0380_eid_dnn_2-10-10_dog_10_n02093647_6358.png,n02093647_6358.png,0.0,-2.0479176,-0.41354284,-1.1556774
alexnet_w3_mlp_simclrhn_probe2,1,381,NaN,boat,boat,1-10-10,0381_eid_dnn_1-10-10_boat_10_n02951358_1470.png,n02951358_1470.png,1.0,2.495683,0.52318835,1.3947643
alexnet_w3_mlp_simclrhn_probe2,1,382,NaN,oven,elephant,128-10-10,0382_eid_dnn_128-10-10_elephant_10_n02504458_2026.png,n02504458_2026.png,0.0,-0.8678787,-0.2519306,-0.43554106
alexnet_w3_mlp_simclrhn_probe2,1,383,NaN,oven,elephant,32-10-10,0383_eid_dnn_32-10-10_elephant_10_n02504458_3730.png,n02504458_3730.png,0.0,0.044650435,0.265214,-0.15596199
alexnet_w3_mlp_simclrhn_probe2,1,384,NaN,oven,keyboard,8-10-10,0384_eid_dnn_8-10-10_keyboard_10_n03085013_20881.png,n03085013_20881.png,0.0,-2.2301211,1.3993561,-2.566428
alexnet_w3_mlp_simclrhn_probe2,1,385,NaN,dog,dog,4-10-10,0385_eid_dnn_4-10-10_dog_10_n02105641_8188.png,n02105641_8188.png,1.0,0.9868446,-0.26823053,0.88747215
alexnet_w3_mlp_simclrhn_probe2,1,386,NaN,oven,clock,32-10-10,0386_eid_dnn_32-10-10_clock_10_n03196217_6320.png,n03196217_6320.png,0.0,-2.154621,-0.2847526,-1.3221966
alexnet_w3_mlp_simclrhn_probe2,1,387,NaN,oven,car,32-10-10,0387_eid_dnn_32-10-10_car_10_n04285008_12333.png,n04285008_12333.png,0.0,-7.581919,1.2287018,-6.23005
alexnet_w3_mlp_simclrhn_probe2,1,388,NaN,knife,knife,2-10-10,0388_eid_dnn_2-10-10_knife_10_n03041632_47743.png,n03041632_47743.png,1.0,0.3413025,-0.6008439,0.66619813
alexnet_w3_mlp_simclrhn_probe2,1,389,NaN,boat,boat,8-10-10,0389_eid_dnn_8-10-10_boat_10_n04612504_8073.png,n04612504_8073.png,1.0,1.0131397,0.91909176,0.06650195
alexnet_w3_mlp_simclrhn_probe2,1,390,NaN,oven,knife,128-10-10,0390_eid_dnn_128-10-10_knife_10_n03041632_20770.png,n03041632_20770.png,0.0,-2.3962767,1.5398548,-2.7832654
alexnet_w3_mlp_simclrhn_probe2,1,391,NaN,oven,car,32-10-10,0391_eid_dnn_32-10-10_car_10_n02814533_28783.png,n02814533_28783.png,0.0,-7.651503,1.3992276,-6.399833
alexnet_w3_mlp_simclrhn_probe2,1,392,NaN,oven,car,128-10-10,0392_eid_dnn_128-10-10_car_10_n02814533_13533.png,n02814533_13533.png,0.0,-6.8626065,-0.14776231,-4.748112
alexnet_w3_mlp_simclrhn_probe2,1,393,NaN,dog,dog,16-10-10,0393_eid_dnn_16-10-10_dog_10_n02104029_8137.png,n02104029_8137.png,1.0,0.20430039,-1.5975151,1.274076
alexnet_w3_mlp_simclrhn_probe2,1,394,NaN,bicycle,bicycle,4-10-10,0394_eid_dnn_4-10-10_bicycle_10_n02835271_3990.png,n02835271_3990.png,1.0,2.110114,-1.0468813,2.2323327
alexnet_w3_mlp_simclrhn_probe2,1,395,NaN,bear,bear,4-10-10,0395_eid_dnn_4-10-10_bear_10_n02132136_24311.png,n02132136_24311.png,1.0,1.4423105,0.5818573,0.60843223
alexnet_w3_mlp_simclrhn_probe2,1,396,NaN,truck,truck,2-10-10,0396_eid_dnn_2-10-10_truck_10_n03796401_6966.png,n03796401_6966.png,1.0,6.979206,4.517634,1.7405944
alexnet_w3_mlp_simclrhn_probe2,1,397,NaN,knife,knife,1-10-10,0397_eid_dnn_1-10-10_knife_10_n03041632_8468.png,n03041632_8468.png,1.0,0.44912723,-2.3005059,1.9442842
alexnet_w3_mlp_simclrhn_probe2,1,398,NaN,oven,elephant,128-10-10,0398_eid_dnn_128-10-10_elephant_10_n02504458_6799.png,n02504458_6799.png,0.0,-0.89708245,-0.6071391,-0.2050209
alexnet_w3_mlp_simclrhn_probe2,1,399,NaN,bird,keyboard,16-10-10,0399_eid_dnn_16-10-10_keyboard_10_n03085013_24402.png,n03085013_24402.png,0.0,-4.5913115,0.10629054,-3.321706
alexnet_w3_mlp_simclrhn_probe2,1,400,NaN,bear,knife,16-10-10,0400_eid_dnn_16-10-10_knife_10_n03041632_25772.png,n03041632_25772.png,0.0,-2.4325228,-0.43644214,-1.4114422
alexnet_w3_mlp_simclrhn_probe2,1,401,NaN,oven,elephant,32-10-10,0401_eid_dnn_32-10-10_elephant_10_n02504458_5839.png,n02504458_5839.png,0.0,-1.0461237,0.5833595,-1.1522187
alexnet_w3_mlp_simclrhn_probe2,1,402,NaN,oven,elephant,64-10-10,0402_eid_dnn_64-10-10_elephant_10_n02504458_5178.png,n02504458_5178.png,0.0,-2.2217567,0.14836593,-1.6759298
alexnet_w3_mlp_simclrhn_probe2,1,403,NaN,oven,bicycle,32-10-10,0403_eid_dnn_32-10-10_bicycle_10_n02835271_27014.png,n02835271_27014.png,0.0,-3.8652382,1.3057286,-3.6564257
alexnet_w3_mlp_simclrhn_probe2,1,404,NaN,oven,car,128-10-10,0404_eid_dnn_128-10-10_car_10_n04285008_15218.png,n04285008_15218.png,0.0,-6.6989064,0.4113565,-5.027715
alexnet_w3_mlp_simclrhn_probe2,1,405,NaN,bicycle,bicycle,8-10-10,0405_eid_dnn_8-10-10_bicycle_10_n02835271_19955.png,n02835271_19955.png,1.0,-0.2388649,-1.0144082,0.54839194
alexnet_w3_mlp_simclrhn_probe2,1,406,NaN,truck,truck,1-10-10,0406_eid_dnn_1-10-10_truck_10_n03796401_874.png,n03796401_874.png,1.0,5.060173,2.1417897,2.0636086
alexnet_w3_mlp_simclrhn_probe2,1,407,NaN,dog,dog,2-10-10,0407_eid_dnn_2-10-10_dog_10_n02108915_6092.png,n02108915_6092.png,1.0,1.1042916,-2.0526142,2.2322695
alexnet_w3_mlp_simclrhn_probe2,1,408,NaN,oven,clock,16-10-10,0408_eid_dnn_16-10-10_clock_10_n04548280_6337.png,n04548280_6337.png,0.0,-4.733429,0.6406805,-3.800069
alexnet_w3_mlp_simclrhn_probe2,1,409,NaN,elephant,boat,4-10-10,0409_eid_dnn_4-10-10_boat_10_n04273569_1388.png,n04273569_1388.png,0.0,0.41610822,0.83871126,-0.29882547
alexnet_w3_mlp_simclrhn_probe2,1,410,NaN,oven,clock,64-10-10,0410_eid_dnn_64-10-10_clock_10_n02708093_2676.png,n02708093_2676.png,0.0,-4.933704,1.2786853,-4.3928223
alexnet_w3_mlp_simclrhn_probe2,1,411,NaN,bear,dog,64-10-10,0411_eid_dnn_64-10-10_dog_10_n02107683_5424.png,n02107683_5424.png,0.0,-1.3603444,-0.62480456,-0.52010524
alexnet_w3_mlp_simclrhn_probe2,1,412,NaN,chair,chair,1-10-10,0412_eid_dnn_1-10-10_chair_10_n04099969_29038.png,n04099969_29038.png,1.0,1.7698498,-0.109127834,1.3286378
alexnet_w3_mlp_simclrhn_probe2,1,413,NaN,oven,clock,16-10-10,0413_eid_dnn_16-10-10_clock_10_n04548280_3219.png,n04548280_3219.png,0.0,-3.7040818,1.7849793,-3.8813527
alexnet_w3_mlp_simclrhn_probe2,1,414,NaN,oven,clock,32-10-10,0414_eid_dnn_32-10-10_clock_10_n03196217_8282.png,n03196217_8282.png,0.0,-2.7393038,-0.9329877,-1.2772584
alexnet_w3_mlp_simclrhn_probe2,1,415,NaN,oven,oven,8-10-10,0415_eid_dnn_8-10-10_oven_10_n04111531_22041.png,n04111531_22041.png,1.0,2.5984325,-1.1909195,2.6794765
alexnet_w3_mlp_simclrhn_probe2,1,416,NaN,bear,bear,8-10-10,0416_eid_dnn_8-10-10_bear_10_n02134084_6964.png,n02134084_6964.png,1.0,0.9653154,-0.3325472,0.9177274
alexnet_w3_mlp_simclrhn_probe2,1,417,NaN,oven,bicycle,64-10-10,0417_eid_dnn_64-10-10_bicycle_10_n03792782_11921.png,n03792782_11921.png,0.0,-3.6762533,0.6468928,-3.0569258
alexnet_w3_mlp_simclrhn_probe2,1,418,NaN,bottle,clock,8-10-10,0418_eid_dnn_8-10-10_clock_10_n04548280_1809.png,n04548280_1809.png,0.0,-1.8824946,-1.0986716,-0.5542466
alexnet_w3_mlp_simclrhn_probe2,1,419,NaN,bird,bird,4-10-10,0419_eid_dnn_4-10-10_bird_10_n01833805_202.png,n01833805_202.png,1.0,1.3285788,-2.3095841,2.5725698
alexnet_w3_mlp_simclrhn_probe2,1,420,NaN,oven,keyboard,64-10-10,0420_eid_dnn_64-10-10_keyboard_10_n03085013_7511.png,n03085013_7511.png,0.0,-5.4513187,1.1478183,-4.666295
alexnet_w3_mlp_simclrhn_probe2,1,421,NaN,dog,bird,1-10-10,0421_eid_dnn_1-10-10_bird_10_n02025239_5287.png,n02025239_5287.png,0.0,-0.5707675,-0.30414644,-0.18852958
alexnet_w3_mlp_simclrhn_probe2,1,422,NaN,oven,boat,64-10-10,0422_eid_dnn_64-10-10_boat_10_n03662601_27960.png,n03662601_27960.png,0.0,-3.6548495,0.007940024,-2.5899835
alexnet_w3_mlp_simclrhn_probe2,1,423,NaN,elephant,bottle,1-10-10,0423_eid_dnn_1-10-10_bottle_10_n04591713_6855.png,n04591713_6855.png,0.0,-2.208504,-0.040533766,-1.5329864
alexnet_w3_mlp_simclrhn_probe2,1,424,NaN,oven,elephant,128-10-10,0424_eid_dnn_128-10-10_elephant_10_n02504013_4424.png,n02504013_4424.png,0.0,-1.5025148,0.823521,-1.6447558
alexnet_w3_mlp_simclrhn_probe2,1,425,NaN,clock,clock,2-10-10,0425_eid_dnn_2-10-10_clock_10_n04548280_3295.png,n04548280_3295.png,1.0,1.0143553,0.10101072,0.6458321
alexnet_w3_mlp_simclrhn_probe2,1,426,NaN,airplane,airplane,1-10-10,0426_eid_dnn_1-10-10_airplane_10_n02690373_6144.png,n02690373_6144.png,1.0,8.380456,-0.109514736,6.0033164
alexnet_w3_mlp_simclrhn_probe2,1,427,NaN,bear,truck,32-10-10,0427_eid_dnn_32-10-10_truck_10_n04467665_70894.png,n04467665_70894.png,0.0,-4.455665,-0.8399837,-2.5566728
alexnet_w3_mlp_simclrhn_probe2,1,428,NaN,oven,boat,128-10-10,0428_eid_dnn_128-10-10_boat_10_n02951358_30474.png,n02951358_30474.png,0.0,-1.9903133,-0.07019984,-1.3577253
alexnet_w3_mlp_simclrhn_probe2,1,429,NaN,bear,bear,4-10-10,0429_eid_dnn_4-10-10_bear_10_n02132136_6434.png,n02132136_6434.png,1.0,3.412191,0.7621428,1.8738672
alexnet_w3_mlp_simclrhn_probe2,1,430,NaN,oven,keyboard,32-10-10,0430_eid_dnn_32-10-10_keyboard_10_n04505470_5009.png,n04505470_5009.png,0.0,-4.320019,0.8420186,-3.6501117
alexnet_w3_mlp_simclrhn_probe2,1,431,NaN,keyboard,keyboard,2-10-10,0431_eid_dnn_2-10-10_keyboard_10_n03085013_13005.png,n03085013_13005.png,1.0,7.4999228,-0.13528895,5.39891
alexnet_w3_mlp_simclrhn_probe2,1,432,NaN,chair,chair,1-10-10,0432_eid_dnn_1-10-10_chair_10_n03376595_6865.png,n03376595_6865.png,1.0,3.4809904,-0.232047,2.625514
alexnet_w3_mlp_simclrhn_probe2,1,433,NaN,oven,bicycle,32-10-10,0433_eid_dnn_32-10-10_bicycle_10_n02835271_6122.png,n02835271_6122.png,0.0,-3.371925,0.39040917,-2.6603723
alexnet_w3_mlp_simclrhn_probe2,1,434,NaN,oven,oven,4-10-10,0434_eid_dnn_4-10-10_oven_10_n04111531_11499.png,n04111531_11499.png,1.0,2.3991027,-1.4739618,2.7386703
alexnet_w3_mlp_simclrhn_probe2,1,435,NaN,bird,bird,1-10-10,0435_eid_dnn_1-10-10_bird_10_n02009229_5765.png,n02009229_5765.png,1.0,1.8958597,-1.8791894,2.669363
alexnet_w3_mlp_simclrhn_probe2,1,436,NaN,oven,bottle,32-10-10,0436_eid_dnn_32-10-10_bottle_10_n04560804_2181.png,n04560804_2181.png,0.0,-2.3692992,0.80445504,-2.244183
alexnet_w3_mlp_simclrhn_probe2,1,437,NaN,bear,bicycle,32-10-10,0437_eid_dnn_32-10-10_bicycle_10_n03792782_3774.png,n03792782_3774.png,0.0,-1.7560649,-0.026223212,-1.2231828
alexnet_w3_mlp_simclrhn_probe2,1,438,NaN,bear,bird,16-10-10,0438_eid_dnn_16-10-10_bird_10_n01614925_1683.png,n01614925_1683.png,0.0,-0.92572564,-0.22078983,-0.49846488
alexnet_w3_mlp_simclrhn_probe2,1,439,NaN,dog,clock,8-10-10,0439_eid_dnn_8-10-10_clock_10_n02708093_4692.png,n02708093_4692.png,0.0,-2.4463649,-1.5454487,-0.63704395
alexnet_w3_mlp_simclrhn_probe2,1,440,NaN,dog,dog,4-10-10,0440_eid_dnn_4-10-10_dog_10_n02109961_71298.png,n02109961_71298.png,1.0,1.3172575,0.07161876,0.8807996
alexnet_w3_mlp_simclrhn_probe2,1,441,NaN,keyboard,keyboard,2-10-10,0441_eid_dnn_2-10-10_keyboard_10_n03085013_23269.png,n03085013_23269.png,1.0,0.9952513,0.039178412,0.6760456
alexnet_w3_mlp_simclrhn_probe2,1,442,NaN,elephant,elephant,2-10-10,0442_eid_dnn_2-10-10_elephant_10_n02504458_5614.png,n02504458_5614.png,1.0,2.7506645,-1.0198766,2.6661754
alexnet_w3_mlp_simclrhn_probe2,1,443,NaN,truck,car,2-10-10,0443_eid_dnn_2-10-10_car_10_n04285008_4640.png,n04285008_4640.png,0.0,0.3159448,1.4825809,-0.82493633
alexnet_w3_mlp_simclrhn_probe2,1,444,NaN,oven,oven,128-10-10,0444_eid_dnn_128-10-10_oven_10_n04111531_6346.png,n04111531_6346.png,1.0,0.5533256,-0.78662336,0.94748694
alexnet_w3_mlp_simclrhn_probe2,1,445,NaN,chair,chair,2-10-10,0445_eid_dnn_2-10-10_chair_10_n04099969_14851.png,n04099969_14851.png,1.0,2.2058313,-0.41003266,1.8496952
alexnet_w3_mlp_simclrhn_probe2,1,446,NaN,oven,bird,64-10-10,0446_eid_dnn_64-10-10_bird_10_n02051845_534.png,n02051845_534.png,0.0,-3.00401,0.46185172,-2.4507344
alexnet_w3_mlp_simclrhn_probe2,1,447,NaN,oven,bird,128-10-10,0447_eid_dnn_128-10-10_bird_10_n02056570_9342.png,n02056570_9342.png,0.0,-3.6523871,-0.04105258,-2.553599
alexnet_w3_mlp_simclrhn_probe2,1,448,NaN,oven,oven,16-10-10,0448_eid_dnn_16-10-10_oven_10_n04111531_4900.png,n04111531_4900.png,1.0,2.7675757,-1.7446926,3.1906555
alexnet_w3_mlp_simclrhn_probe2,1,449,NaN,oven,boat,32-10-10,0449_eid_dnn_32-10-10_boat_10_n02951358_31973.png,n02951358_31973.png,0.0,-3.3880424,0.18418907,-2.5259492
alexnet_w3_mlp_simclrhn_probe2,1,450,NaN,knife,keyboard,4-10-10,0450_eid_dnn_4-10-10_keyboard_10_n03085013_19842.png,n03085013_19842.png,0.0,-3.3315284,-0.20907296,-2.2079093
alexnet_w3_mlp_simclrhn_probe2,1,451,NaN,oven,keyboard,8-10-10,0451_eid_dnn_8-10-10_keyboard_10_n03085013_8296.png,n03085013_8296.png,0.0,-0.8116144,-0.4253027,-0.27316362
alexnet_w3_mlp_simclrhn_probe2,1,452,NaN,oven,car,16-10-10,0452_eid_dnn_16-10-10_car_10_n03100240_3528.png,n03100240_3528.png,0.0,-4.1059594,0.5346407,-3.2814
alexnet_w3_mlp_simclrhn_probe2,1,453,NaN,cat,cat,8-10-10,0453_eid_dnn_8-10-10_cat_10_n02123159_7210.png,n02123159_7210.png,1.0,0.6949164,0.13095585,0.39878035
alexnet_w3_mlp_simclrhn_probe2,1,454,NaN,knife,knife,16-10-10,0454_eid_dnn_16-10-10_knife_10_n03041632_56172.png,n03041632_56172.png,1.0,-0.33567595,-1.1419154,0.57009745
alexnet_w3_mlp_simclrhn_probe2,1,455,NaN,oven,oven,4-10-10,0455_eid_dnn_4-10-10_oven_10_n04111531_2116.png,n04111531_2116.png,1.0,3.030613,-1.0735819,2.902104
alexnet_w3_mlp_simclrhn_probe2,1,456,NaN,oven,bicycle,8-10-10,0456_eid_dnn_8-10-10_bicycle_10_n02835271_12477.png,n02835271_12477.png,0.0,-0.55003035,-0.24584396,-0.21509227
alexnet_w3_mlp_simclrhn_probe2,1,457,NaN,knife,knife,2-10-10,0457_eid_dnn_2-10-10_knife_10_n03041632_42472.png,n03041632_42472.png,1.0,2.6059701,-0.3004066,2.0551188
alexnet_w3_mlp_simclrhn_probe2,1,458,NaN,bottle,oven,2-10-10,0458_eid_dnn_2-10-10_oven_10_n04111531_8818.png,n04111531_8818.png,0.0,0.5698628,0.7548122,-0.13077897
alexnet_w3_mlp_simclrhn_probe2,1,459,NaN,boat,truck,2-10-10,0459_eid_dnn_2-10-10_truck_10_n04467665_67115.png,n04467665_67115.png,0.0,-0.31548503,0.16795154,-0.34184128
alexnet_w3_mlp_simclrhn_probe2,1,460,NaN,bird,bird,4-10-10,0460_eid_dnn_4-10-10_bird_10_n02011460_3521.png,n02011460_3521.png,1.0,1.4008541,-2.82934,2.991199
alexnet_w3_mlp_simclrhn_probe2,1,461,NaN,bear,bear,64-10-10,0461_eid_dnn_64-10-10_bear_10_n02133161_3533.png,n02133161_3533.png,1.0,0.4254231,-0.09732708,0.36964017
alexnet_w3_mlp_simclrhn_probe2,1,462,NaN,bear,bird,8-10-10,0462_eid_dnn_8-10-10_bird_10_n02013706_637.png,n02013706_637.png,0.0,-0.46840352,-0.05972092,-0.28898224
alexnet_w3_mlp_simclrhn_probe2,1,463,NaN,bear,bear,64-10-10,0463_eid_dnn_64-10-10_bear_10_n02132136_29636.png,n02132136_29636.png,1.0,-0.039179645,-0.2008545,0.11432139
alexnet_w3_mlp_simclrhn_probe2,1,464,NaN,bicycle,bicycle,2-10-10,0464_eid_dnn_2-10-10_bicycle_10_n02835271_634.png,n02835271_634.png,1.0,1.3697021,-0.67167693,1.443473
alexnet_w3_mlp_simclrhn_probe2,1,465,NaN,keyboard,keyboard,1-10-10,0465_eid_dnn_1-10-10_keyboard_10_n04505470_4621.png,n04505470_4621.png,1.0,1.3165143,1.2941737,0.015797146
alexnet_w3_mlp_simclrhn_probe2,1,466,NaN,oven,bear,16-10-10,0466_eid_dnn_16-10-10_bear_10_n02134084_2844.png,n02134084_2844.png,0.0,-0.24121135,-0.23928648,-0.0013610903
alexnet_w3_mlp_simclrhn_probe2,1,467,NaN,bicycle,bicycle,4-10-10,0467_eid_dnn_4-10-10_bicycle_10_n03792782_17088.png,n03792782_17088.png,1.0,0.51924425,-0.3901317,0.64302593
alexnet_w3_mlp_simclrhn_probe2,1,468,NaN,airplane,clock,4-10-10,0468_eid_dnn_4-10-10_clock_10_n03196217_8706.png,n03196217_8706.png,0.0,-1.9562937,-0.20840839,-1.2359416
alexnet_w3_mlp_simclrhn_probe2,1,469,NaN,oven,oven,4-10-10,0469_eid_dnn_4-10-10_oven_10_n04111531_15052.png,n04111531_15052.png,1.0,2.3216705,0.15254529,1.5338032
alexnet_w3_mlp_simclrhn_probe2,1,470,NaN,oven,bottle,16-10-10,0470_eid_dnn_16-10-10_bottle_10_n04560804_5769.png,n04560804_5769.png,0.0,-0.6245665,0.55793726,-0.8361564
alexnet_w3_mlp_simclrhn_probe2,1,471,NaN,oven,dog,128-10-10,0471_eid_dnn_128-10-10_dog_10_n02110063_14116.png,n02110063_14116.png,0.0,-1.2755569,-0.3028617,-0.6877994
alexnet_w3_mlp_simclrhn_probe2,1,472,NaN,oven,cat,32-10-10,0472_eid_dnn_32-10-10_cat_10_n02124075_3609.png,n02124075_3609.png,0.0,-0.39874864,0.43074268,-0.586539
alexnet_w3_mlp_simclrhn_probe2,1,473,NaN,airplane,airplane,32-10-10,0473_eid_dnn_32-10-10_airplane_10_n02690373_10926.png,n02690373_10926.png,1.0,0.11839537,-0.7485651,0.61303365
alexnet_w3_mlp_simclrhn_probe2,1,474,NaN,airplane,bird,16-10-10,0474_eid_dnn_16-10-10_bird_10_n02033041_7229.png,n02033041_7229.png,0.0,-0.8218371,-0.009274721,-0.5745684
alexnet_w3_mlp_simclrhn_probe2,1,475,NaN,bird,bird,2-10-10,0475_eid_dnn_2-10-10_bird_10_n02006656_611.png,n02006656_611.png,1.0,-0.20962252,-0.37608814,0.11770897
alexnet_w3_mlp_simclrhn_probe2,1,476,NaN,oven,bear,16-10-10,0476_eid_dnn_16-10-10_bear_10_n02133161_958.png,n02133161_958.png,0.0,-1.1686535,-0.18833528,-0.6931897
alexnet_w3_mlp_simclrhn_probe2,1,477,NaN,bird,bird,8-10-10,0477_eid_dnn_8-10-10_bird_10_n01843065_148.png,n01843065_148.png,1.0,1.0444115,0.62364477,0.29752705
alexnet_w3_mlp_simclrhn_probe2,1,478,NaN,oven,cat,32-10-10,0478_eid_dnn_32-10-10_cat_10_n02123597_13623.png,n02123597_13623.png,0.0,-1.3794408,0.21743968,-1.129165
alexnet_w3_mlp_simclrhn_probe2,1,479,NaN,bicycle,bicycle,8-10-10,0479_eid_dnn_8-10-10_bicycle_10_n02835271_12957.png,n02835271_12957.png,1.0,0.6645383,-0.59313583,0.88931
alexnet_w3_mlp_simclrhn_probe2,1,480,NaN,knife,knife,8-10-10,0480_eid_dnn_8-10-10_knife_10_n03041632_96714.png,n03041632_96714.png,1.0,-0.21062286,-0.7090692,0.3524548
alexnet_w3_mlp_simclrhn_probe2,1,481,NaN,oven,bear,128-10-10,0481_eid_dnn_128-10-10_bear_10_n02133161_3550.png,n02133161_3550.png,0.0,-0.9552723,-0.19030054,-0.54091674
alexnet_w3_mlp_simclrhn_probe2,1,482,NaN,airplane,airplane,2-10-10,0482_eid_dnn_2-10-10_airplane_10_n02690373_4471.png,n02690373_4471.png,1.0,5.141975,0.9452007,2.9675677
alexnet_w3_mlp_simclrhn_probe2,1,483,NaN,oven,airplane,64-10-10,0483_eid_dnn_64-10-10_airplane_10_n02690373_2026.png,n02690373_2026.png,0.0,-2.9921765,0.39844278,-2.3975298
alexnet_w3_mlp_simclrhn_probe2,1,484,NaN,car,car,1-10-10,0484_eid_dnn_1-10-10_car_10_n03100240_18270.png,n03100240_18270.png,1.0,1.4706002,1.3338706,0.09668243
alexnet_w3_mlp_simclrhn_probe2,1,485,NaN,oven,elephant,128-10-10,0485_eid_dnn_128-10-10_elephant_10_n02504458_5204.png,n02504458_5204.png,0.0,-0.789328,0.021275103,-0.57318294
alexnet_w3_mlp_simclrhn_probe2,1,486,NaN,oven,oven,1-10-10,0486_eid_dnn_1-10-10_oven_10_n04111531_10339.png,n04111531_10339.png,1.0,2.6986396,0.8916476,1.2777363
alexnet_w3_mlp_simclrhn_probe2,1,487,NaN,elephant,elephant,2-10-10,0487_eid_dnn_2-10-10_elephant_10_n02504458_12705.png,n02504458_12705.png,1.0,6.5466447,1.1543514,3.8129272
alexnet_w3_mlp_simclrhn_probe2,1,488,NaN,boat,boat,1-10-10,0488_eid_dnn_1-10-10_boat_10_n03344393_9268.png,n03344393_9268.png,1.0,0.037785403,-0.051295962,0.06299004
alexnet_w3_mlp_simclrhn_probe2,1,489,NaN,bird,bicycle,16-10-10,0489_eid_dnn_16-10-10_bicycle_10_n02835271_23173.png,n02835271_23173.png,0.0,-1.4370213,-0.81746435,-0.4380929
alexnet_w3_mlp_simclrhn_probe2,1,490,NaN,oven,knife,32-10-10,0490_eid_dnn_32-10-10_knife_10_n03041632_43975.png,n03041632_43975.png,0.0,-1.9785584,0.4984025,-1.7514759
alexnet_w3_mlp_simclrhn_probe2,1,491,NaN,oven,bicycle,128-10-10,0491_eid_dnn_128-10-10_bicycle_10_n03792782_3299.png,n03792782_3299.png,0.0,-2.4094157,-0.23643583,-1.5365288
alexnet_w3_mlp_simclrhn_probe2,1,492,NaN,oven,boat,32-10-10,0492_eid_dnn_32-10-10_boat_10_n04273569_5679.png,n04273569_5679.png,0.0,-3.3665955,0.6961111,-2.8727674
alexnet_w3_mlp_simclrhn_probe2,1,493,NaN,oven,bird,32-10-10,0493_eid_dnn_32-10-10_bird_10_n02056570_10127.png,n02056570_10127.png,0.0,-1.9636104,0.8754389,-2.0075111
alexnet_w3_mlp_simclrhn_probe2,1,494,NaN,oven,bear,32-10-10,0494_eid_dnn_32-10-10_bear_10_n02133161_7688.png,n02133161_7688.png,0.0,-0.66769373,0.24789937,-0.6474221
alexnet_w3_mlp_simclrhn_probe2,1,495,NaN,oven,cat,16-10-10,0495_eid_dnn_16-10-10_cat_10_n02123597_624.png,n02123597_624.png,0.0,-1.4737314,0.26129884,-1.2268516
alexnet_w3_mlp_simclrhn_probe2,1,496,NaN,oven,bird,64-10-10,0496_eid_dnn_64-10-10_bird_10_n01560419_3399.png,n01560419_3399.png,0.0,-2.110271,-0.40810865,-1.2036105
alexnet_w3_mlp_simclrhn_probe2,1,497,NaN,oven,cat,32-10-10,0497_eid_dnn_32-10-10_cat_10_n02123045_12762.png,n02123045_12762.png,0.0,-1.3681172,-0.43494287,-0.65985394
alexnet_w3_mlp_simclrhn_probe2,1,498,NaN,oven,car,16-10-10,0498_eid_dnn_16-10-10_car_10_n02814533_7247.png,n02814533_7247.png,0.0,-5.121242,0.13435869,-3.7162712
alexnet_w3_mlp_simclrhn_probe2,1,499,NaN,keyboard,keyboard,4-10-10,0499_eid_dnn_4-10-10_keyboard_10_n03085013_4941.png,n03085013_4941.png,1.0,0.26812598,0.055289302,0.15049827
alexnet_w3_mlp_simclrhn_probe2,1,500,NaN,knife,truck,4-10-10,0500_eid_dnn_4-10-10_truck_10_n03417042_6420.png,n03417042_6420.png,0.0,-1.7975035,0.16421509,-1.3871446
alexnet_w3_mlp_simclrhn_probe2,1,501,NaN,oven,boat,64-10-10,0501_eid_dnn_64-10-10_boat_10_n03662601_2120.png,n03662601_2120.png,0.0,-3.479197,0.6623428,-2.9285107
alexnet_w3_mlp_simclrhn_probe2,1,502,NaN,bear,bear,2-10-10,0502_eid_dnn_2-10-10_bear_10_n02134084_7331.png,n02134084_7331.png,1.0,1.1351364,0.39663678,0.5221981
alexnet_w3_mlp_simclrhn_probe2,1,503,NaN,oven,bottle,32-10-10,0503_eid_dnn_32-10-10_bottle_10_n02823428_906.png,n02823428_906.png,0.0,-2.8420703,1.2151893,-2.8689158
alexnet_w3_mlp_simclrhn_probe2,1,504,NaN,cat,cat,16-10-10,0504_eid_dnn_16-10-10_cat_10_n02123394_270.png,n02123394_270.png,1.0,-0.6925481,-0.896372,0.14412528
alexnet_w3_mlp_simclrhn_probe2,1,505,NaN,elephant,boat,2-10-10,0505_eid_dnn_2-10-10_boat_10_n02951358_1910.png,n02951358_1910.png,0.0,-1.0165077,0.3623924,-0.9750297
alexnet_w3_mlp_simclrhn_probe2,1,506,NaN,bear,knife,4-10-10,0506_eid_dnn_4-10-10_knife_10_n03041632_23678.png,n03041632_23678.png,0.0,-2.7770486,0.8553805,-2.5685153
alexnet_w3_mlp_simclrhn_probe2,1,507,NaN,oven,car,16-10-10,0507_eid_dnn_16-10-10_car_10_n02814533_31083.png,n02814533_31083.png,0.0,-4.8787513,0.29814732,-3.66062
alexnet_w3_mlp_simclrhn_probe2,1,508,NaN,keyboard,keyboard,1-10-10,0508_eid_dnn_1-10-10_keyboard_10_n04505470_2881.png,n04505470_2881.png,1.0,5.555028,0.4303242,3.623713
alexnet_w3_mlp_simclrhn_probe2,1,509,NaN,dog,cat,8-10-10,0509_eid_dnn_8-10-10_cat_10_n02125311_2923.png,n02125311_2923.png,0.0,-0.60052186,0.13740964,-0.52179635
alexnet_w3_mlp_simclrhn_probe2,1,510,NaN,bicycle,bicycle,2-10-10,0510_eid_dnn_2-10-10_bicycle_10_n03792782_2598.png,n03792782_2598.png,1.0,4.179225,-0.82209855,3.53647
alexnet_w3_mlp_simclrhn_probe2,1,511,NaN,car,car,2-10-10,0511_eid_dnn_2-10-10_car_10_n03100240_4460.png,n03100240_4460.png,1.0,3.4329605,2.5412178,0.6305573
alexnet_w3_mlp_simclrhn_probe2,1,512,NaN,knife,knife,4-10-10,0512_eid_dnn_4-10-10_knife_10_n03041632_29920.png,n03041632_29920.png,1.0,0.13430338,-2.251836,1.6872554
alexnet_w3_mlp_simclrhn_probe2,1,513,NaN,bear,bird,32-10-10,0513_eid_dnn_32-10-10_bird_10_n01796340_3845.png,n01796340_3845.png,0.0,-1.4745787,-0.13106567,-0.9500072
alexnet_w3_mlp_simclrhn_probe2,1,514,NaN,oven,keyboard,8-10-10,0514_eid_dnn_8-10-10_keyboard_10_n03085013_21932.png,n03085013_21932.png,0.0,-0.7703752,0.13920471,-0.6431701
alexnet_w3_mlp_simclrhn_probe2,1,515,NaN,bottle,bottle,1-10-10,0515_eid_dnn_1-10-10_bottle_10_n02823428_64.png,n02823428_64.png,1.0,5.175743,-0.81347287,4.2350154
alexnet_w3_mlp_simclrhn_probe2,1,516,NaN,oven,chair,8-10-10,0516_eid_dnn_8-10-10_chair_10_n04099969_4374.png,n04099969_4374.png,0.0,-2.3358853,0.5250334,-2.0229752
alexnet_w3_mlp_simclrhn_probe2,1,517,NaN,clock,clock,1-10-10,0517_eid_dnn_1-10-10_clock_10_n02708093_8257.png,n02708093_8257.png,1.0,5.8274994,-0.7509835,4.6516895
alexnet_w3_mlp_simclrhn_probe2,1,518,NaN,bear,knife,16-10-10,0518_eid_dnn_16-10-10_knife_10_n03041632_45569.png,n03041632_45569.png,0.0,-1.2551486,-0.9130617,-0.24189202
alexnet_w3_mlp_simclrhn_probe2,1,519,NaN,oven,chair,128-10-10,0519_eid_dnn_128-10-10_chair_10_n04099969_1850.png,n04099969_1850.png,0.0,-3.2138832,0.4803288,-2.6122024
alexnet_w3_mlp_simclrhn_probe2,1,520,NaN,dog,dog,2-10-10,0520_eid_dnn_2-10-10_dog_10_n02092002_2008.png,n02092002_2008.png,1.0,0.8762254,-0.35101256,0.86778826
alexnet_w3_mlp_simclrhn_probe2,1,521,NaN,bicycle,bicycle,8-10-10,0521_eid_dnn_8-10-10_bicycle_10_n02835271_8105.png,n02835271_8105.png,1.0,1.7333635,-0.7640628,1.7659471
alexnet_w3_mlp_simclrhn_probe2,1,522,NaN,oven,oven,64-10-10,0522_eid_dnn_64-10-10_oven_10_n04111531_14126.png,n04111531_14126.png,1.0,-0.39117315,-0.53386605,0.100899115
alexnet_w3_mlp_simclrhn_probe2,1,523,NaN,oven,elephant,4-10-10,0523_eid_dnn_4-10-10_elephant_10_n02504013_13766.png,n02504013_13766.png,0.0,-0.44069546,-0.3602527,-0.056881618
alexnet_w3_mlp_simclrhn_probe2,1,524,NaN,oven,bicycle,64-10-10,0524_eid_dnn_64-10-10_bicycle_10_n02835271_18361.png,n02835271_18361.png,0.0,-3.2029657,0.5684631,-2.666803
alexnet_w3_mlp_simclrhn_probe2,1,525,NaN,oven,bird,8-10-10,0525_eid_dnn_8-10-10_bird_10_n01582220_4708.png,n01582220_4708.png,0.0,-1.2030737,-0.86001456,-0.24257948
alexnet_w3_mlp_simclrhn_probe2,1,526,NaN,cat,chair,16-10-10,0526_eid_dnn_16-10-10_chair_10_n04099969_101.png,n04099969_101.png,0.0,-4.606657,-0.30203965,-3.0438242
alexnet_w3_mlp_simclrhn_probe2,1,527,NaN,cat,cat,1-10-10,0527_eid_dnn_1-10-10_cat_10_n02124075_724.png,n02124075_724.png,1.0,2.9429417,-2.6812906,3.9769328
alexnet_w3_mlp_simclrhn_probe2,1,528,NaN,oven,bicycle,32-10-10,0528_eid_dnn_32-10-10_bicycle_10_n02835271_43.png,n02835271_43.png,0.0,-2.3149304,0.7625501,-2.1761074
alexnet_w3_mlp_simclrhn_probe2,1,529,NaN,bird,bird,2-10-10,0529_eid_dnn_2-10-10_bird_10_n02017213_5362.png,n02017213_5362.png,1.0,1.7896361,-1.0766367,2.026761
alexnet_w3_mlp_simclrhn_probe2,1,530,NaN,oven,dog,1-10-10,0530_eid_dnn_1-10-10_dog_10_n02088466_1769.png,n02088466_1769.png,0.0,-0.6035674,-0.18755278,-0.29416677
alexnet_w3_mlp_simclrhn_probe2,1,531,NaN,bear,bear,1-10-10,0531_eid_dnn_1-10-10_bear_10_n02133161_5653.png,n02133161_5653.png,1.0,2.4927955,2.3685927,0.08782459
alexnet_w3_mlp_simclrhn_probe2,1,532,NaN,dog,dog,1-10-10,0532_eid_dnn_1-10-10_dog_10_n02098105_4676.png,n02098105_4676.png,1.0,0.9492055,-0.90327024,1.3098981
alexnet_w3_mlp_simclrhn_probe2,1,533,NaN,cat,cat,2-10-10,0533_eid_dnn_2-10-10_cat_10_n02123045_3593.png,n02123045_3593.png,1.0,0.70289963,-1.3864632,1.4774027
alexnet_w3_mlp_simclrhn_probe2,1,534,NaN,oven,bottle,8-10-10,0534_eid_dnn_8-10-10_bottle_10_n04560804_265.png,n04560804_265.png,0.0,-2.3386652,0.5084957,-2.0132468
alexnet_w3_mlp_simclrhn_probe2,1,535,NaN,oven,knife,128-10-10,0535_eid_dnn_128-10-10_knife_10_n03041632_1556.png,n03041632_1556.png,0.0,-1.2436738,0.20212266,-1.0223325
alexnet_w3_mlp_simclrhn_probe2,1,536,NaN,elephant,chair,4-10-10,0536_eid_dnn_4-10-10_chair_10_n02791124_9595.png,n02791124_9595.png,0.0,-1.6341455,0.06855531,-1.2039913
alexnet_w3_mlp_simclrhn_probe2,1,537,NaN,oven,dog,32-10-10,0537_eid_dnn_32-10-10_dog_10_n02107312_2933.png,n02107312_2933.png,0.0,-1.6969236,0.49425057,-1.5493942
alexnet_w3_mlp_simclrhn_probe2,1,538,NaN,oven,oven,32-10-10,0538_eid_dnn_32-10-10_oven_10_n04111531_101.png,n04111531_101.png,1.0,0.6375231,-1.643729,1.6130888
alexnet_w3_mlp_simclrhn_probe2,1,539,NaN,bicycle,truck,4-10-10,0539_eid_dnn_4-10-10_truck_10_n03417042_7204.png,n03417042_7204.png,0.0,-0.37124163,0.18492326,-0.39326796
alexnet_w3_mlp_simclrhn_probe2,1,540,NaN,oven,bear,64-10-10,0540_eid_dnn_64-10-10_bear_10_n02132136_2120.png,n02132136_2120.png,0.0,-1.0531936,0.2832778,-0.94502795
alexnet_w3_mlp_simclrhn_probe2,1,541,NaN,oven,airplane,64-10-10,0541_eid_dnn_64-10-10_airplane_10_n02690373_18412.png,n02690373_18412.png,0.0,-2.8493423,0.17513284,-2.1386268
alexnet_w3_mlp_simclrhn_probe2,1,542,NaN,oven,knife,128-10-10,0542_eid_dnn_128-10-10_knife_10_n03041632_21017.png,n03041632_21017.png,0.0,-2.4771538,0.6928281,-2.2415159
alexnet_w3_mlp_simclrhn_probe2,1,543,NaN,oven,elephant,128-10-10,0543_eid_dnn_128-10-10_elephant_10_n02504458_8414.png,n02504458_8414.png,0.0,-0.59639597,0.44514877,-0.73648334
alexnet_w3_mlp_simclrhn_probe2,1,544,NaN,oven,bottle,128-10-10,0544_eid_dnn_128-10-10_bottle_10_n04557648_11046.png,n04557648_11046.png,0.0,-1.7804928,0.044542465,-1.2904948
alexnet_w3_mlp_simclrhn_probe2,1,545,NaN,oven,clock,64-10-10,0545_eid_dnn_64-10-10_clock_10_n03196217_10578.png,n03196217_10578.png,0.0,-3.977113,1.1094573,-3.5967484
alexnet_w3_mlp_simclrhn_probe2,1,546,NaN,bear,bear,2-10-10,0546_eid_dnn_2-10-10_bear_10_n02134418_3213.png,n02134418_3213.png,1.0,2.3194141,1.2554989,0.7523017
alexnet_w3_mlp_simclrhn_probe2,1,547,NaN,airplane,clock,64-10-10,0547_eid_dnn_64-10-10_clock_10_n03196217_6289.png,n03196217_6289.png,0.0,-2.51662,-1.3113011,-0.85228914
alexnet_w3_mlp_simclrhn_probe2,1,548,NaN,bear,dog,32-10-10,0548_eid_dnn_32-10-10_dog_10_n02096294_1498.png,n02096294_1498.png,0.0,-1.1629763,0.06321521,-0.8670484
alexnet_w3_mlp_simclrhn_probe2,1,549,NaN,oven,oven,16-10-10,0549_eid_dnn_16-10-10_oven_10_n04111531_519.png,n04111531_519.png,1.0,0.41359073,-1.071583,1.0501764
alexnet_w3_mlp_simclrhn_probe2,1,550,NaN,bird,bird,1-10-10,0550_eid_dnn_1-10-10_bird_10_n01531178_14959.png,n01531178_14959.png,1.0,2.9039762,-2.4341846,3.7746496
alexnet_w3_mlp_simclrhn_probe2,1,551,NaN,oven,bear,32-10-10,0551_eid_dnn_32-10-10_bear_10_n02132136_8754.png,n02132136_8754.png,0.0,-0.03793387,0.78495574,-0.58187085
alexnet_w3_mlp_simclrhn_probe2,1,552,NaN,car,car,1-10-10,0552_eid_dnn_1-10-10_car_10_n02814533_73067.png,n02814533_73067.png,1.0,6.33528,4.048916,1.6167036
alexnet_w3_mlp_simclrhn_probe2,1,553,NaN,bear,cat,8-10-10,0553_eid_dnn_8-10-10_cat_10_n02124075_15378.png,n02124075_15378.png,0.0,-0.26569209,-0.03193021,-0.16529462
alexnet_w3_mlp_simclrhn_probe2,1,554,NaN,oven,bird,128-10-10,0554_eid_dnn_128-10-10_bird_10_n01592084_7569.png,n01592084_7569.png,0.0,-4.116932,2.0202668,-4.339655
alexnet_w3_mlp_simclrhn_probe2,1,555,NaN,oven,dog,128-10-10,0555_eid_dnn_128-10-10_dog_10_n02094114_3395.png,n02094114_3395.png,0.0,-1.6409998,0.21368158,-1.3114578
alexnet_w3_mlp_simclrhn_probe2,1,556,NaN,chair,chair,4-10-10,0556_eid_dnn_4-10-10_chair_10_n03376595_1712.png,n03376595_1712.png,1.0,-0.19557017,-0.55154073,0.2517092
alexnet_w3_mlp_simclrhn_probe2,1,557,NaN,oven,bear,64-10-10,0557_eid_dnn_64-10-10_bear_10_n02134084_622.png,n02134084_622.png,0.0,-0.42075777,0.74483633,-0.8241995
alexnet_w3_mlp_simclrhn_probe2,1,558,NaN,bottle,clock,8-10-10,0558_eid_dnn_8-10-10_clock_10_n03196217_4912.png,n03196217_4912.png,0.0,-1.4205623,0.44546157,-1.319478
alexnet_w3_mlp_simclrhn_probe2,1,559,NaN,oven,car,64-10-10,0559_eid_dnn_64-10-10_car_10_n03100240_18815.png,n03100240_18815.png,0.0,-8.4436,1.7483178,-7.206774
alexnet_w3_mlp_simclrhn_probe2,1,560,NaN,chair,chair,2-10-10,0560_eid_dnn_2-10-10_chair_10_n04099969_2020.png,n04099969_2020.png,1.0,1.8968396,1.8530313,0.030977175
alexnet_w3_mlp_simclrhn_probe2,1,561,NaN,bear,bear,1-10-10,0561_eid_dnn_1-10-10_bear_10_n02132136_7647.png,n02132136_7647.png,1.0,3.7218328,-1.1878555,3.4716737
alexnet_w3_mlp_simclrhn_probe2,1,562,NaN,bear,oven,128-10-10,0562_eid_dnn_128-10-10_oven_10_n04111531_2796.png,n04111531_2796.png,0.0,-1.1400836,-0.50573355,-0.4485532
alexnet_w3_mlp_simclrhn_probe2,1,563,NaN,oven,truck,64-10-10,0563_eid_dnn_64-10-10_truck_10_n03796401_9472.png,n03796401_9472.png,0.0,-5.444561,1.1476333,-4.6613855
alexnet_w3_mlp_simclrhn_probe2,1,564,NaN,oven,chair,4-10-10,0564_eid_dnn_4-10-10_chair_10_n03376595_12433.png,n03376595_12433.png,0.0,-0.3125562,0.05191668,-0.25772128
alexnet_w3_mlp_simclrhn_probe2,1,565,NaN,car,truck,4-10-10,0565_eid_dnn_4-10-10_truck_10_n04467665_31539.png,n04467665_31539.png,0.0,2.4545689,2.9905918,-0.37902543
alexnet_w3_mlp_simclrhn_probe2,1,566,NaN,bear,airplane,32-10-10,0566_eid_dnn_32-10-10_airplane_10_n02690373_10657.png,n02690373_10657.png,0.0,-1.3012707,-0.9308901,-0.26189867
alexnet_w3_mlp_simclrhn_probe2,1,567,NaN,oven,truck,16-10-10,0567_eid_dnn_16-10-10_truck_10_n03796401_5963.png,n03796401_5963.png,0.0,-5.367983,1.4936213,-4.8518867
alexnet_w3_mlp_simclrhn_probe2,1,568,NaN,bear,dog,64-10-10,0568_eid_dnn_64-10-10_dog_10_n02096294_2233.png,n02096294_2233.png,0.0,-1.8420669,0.21733196,-1.4562149
alexnet_w3_mlp_simclrhn_probe2,1,569,NaN,oven,airplane,128-10-10,0569_eid_dnn_128-10-10_airplane_10_n02690373_4873.png,n02690373_4873.png,0.0,-2.4639974,-0.2952382,-1.5335443
alexnet_w3_mlp_simclrhn_probe2,1,570,NaN,truck,truck,1-10-10,0570_eid_dnn_1-10-10_truck_10_n04467665_4825.png,n04467665_4825.png,1.0,1.2430344,1.0027165,0.16993037
alexnet_w3_mlp_simclrhn_probe2,1,571,NaN,oven,chair,16-10-10,0571_eid_dnn_16-10-10_chair_10_n04099969_1704.png,n04099969_1704.png,0.0,-1.8318163,-0.022597298,-1.2793111
alexnet_w3_mlp_simclrhn_probe2,1,572,NaN,bicycle,bicycle,2-10-10,0572_eid_dnn_2-10-10_bicycle_10_n02835271_1573.png,n02835271_1573.png,1.0,6.1460533,0.50367105,3.9897668
alexnet_w3_mlp_simclrhn_probe2,1,573,NaN,bear,boat,2-10-10,0573_eid_dnn_2-10-10_boat_10_n04273569_12725.png,n04273569_12725.png,0.0,-1.5686576,0.5783895,-1.5181916
alexnet_w3_mlp_simclrhn_probe2,1,574,NaN,oven,knife,128-10-10,0574_eid_dnn_128-10-10_knife_10_n03041632_11285.png,n03041632_11285.png,0.0,-0.7555547,-0.27389336,-0.34058598
alexnet_w3_mlp_simclrhn_probe2,1,575,NaN,clock,clock,4-10-10,0575_eid_dnn_4-10-10_clock_10_n03196217_8254.png,n03196217_8254.png,1.0,0.20322035,0.18221162,0.014855416
alexnet_w3_mlp_simclrhn_probe2,1,576,NaN,oven,knife,16-10-10,0576_eid_dnn_16-10-10_knife_10_n03041632_15099.png,n03041632_15099.png,0.0,-1.1118082,-0.2684393,-0.59635186
alexnet_w3_mlp_simclrhn_probe2,1,577,NaN,oven,cat,64-10-10,0577_eid_dnn_64-10-10_cat_10_n02125311_30452.png,n02125311_30452.png,0.0,-0.9869242,-0.40063265,-0.41457075
alexnet_w3_mlp_simclrhn_probe2,1,578,NaN,oven,bottle,32-10-10,0578_eid_dnn_32-10-10_bottle_10_n04591713_6804.png,n04591713_6804.png,0.0,-1.3456949,-0.40587613,-0.6645522
alexnet_w3_mlp_simclrhn_probe2,1,579,NaN,oven,dog,64-10-10,0579_eid_dnn_64-10-10_dog_10_n02088364_14369.png,n02088364_14369.png,0.0,-2.113453,1.1251493,-2.2900376
alexnet_w3_mlp_simclrhn_probe2,1,580,NaN,oven,truck,32-10-10,0580_eid_dnn_32-10-10_truck_10_n03796401_16425.png,n03796401_16425.png,0.0,-6.3883038,1.5551488,-5.6168694
alexnet_w3_mlp_simclrhn_probe2,1,581,NaN,oven,truck,64-10-10,0581_eid_dnn_64-10-10_truck_10_n03417042_5406.png,n03417042_5406.png,0.0,-6.9194975,0.79002213,-5.4514537
alexnet_w3_mlp_simclrhn_probe2,1,582,NaN,knife,knife,1-10-10,0582_eid_dnn_1-10-10_knife_10_n03041632_52929.png,n03041632_52929.png,1.0,0.04489462,-0.37658328,0.2980299
alexnet_w3_mlp_simclrhn_probe2,1,583,NaN,oven,chair,64-10-10,0583_eid_dnn_64-10-10_chair_10_n03376595_4820.png,n03376595_4820.png,0.0,-3.9820583,0.13171588,-2.9088778
alexnet_w3_mlp_simclrhn_probe2,1,584,NaN,chair,chair,1-10-10,0584_eid_dnn_1-10-10_chair_10_n03376595_787.png,n03376595_787.png,1.0,0.9011956,0.35482803,0.3863402
alexnet_w3_mlp_simclrhn_probe2,1,585,NaN,oven,chair,2-10-10,0585_eid_dnn_2-10-10_chair_10_n03376595_7709.png,n03376595_7709.png,0.0,-0.27757996,-0.07416366,-0.14383705
alexnet_w3_mlp_simclrhn_probe2,1,586,NaN,bottle,bottle,1-10-10,0586_eid_dnn_1-10-10_bottle_10_n03983396_11006.png,n03983396_11006.png,1.0,-0.40994093,-0.86425877,0.32125124
alexnet_w3_mlp_simclrhn_probe2,1,587,NaN,oven,oven,8-10-10,0587_eid_dnn_8-10-10_oven_10_n04111531_458.png,n04111531_458.png,1.0,0.4783572,-0.7766348,0.8874134
alexnet_w3_mlp_simclrhn_probe2,1,588,NaN,oven,cat,128-10-10,0588_eid_dnn_128-10-10_cat_10_n02123045_7829.png,n02123045_7829.png,0.0,-1.0879036,0.18287618,-0.89857703
alexnet_w3_mlp_simclrhn_probe2,1,589,NaN,bear,bear,1-10-10,0589_eid_dnn_1-10-10_bear_10_n02134418_4685.png,n02134418_4685.png,1.0,2.2879813,0.42386895,1.3181266
alexnet_w3_mlp_simclrhn_probe2,1,590,NaN,oven,knife,64-10-10,0590_eid_dnn_64-10-10_knife_10_n03041632_1964.png,n03041632_1964.png,0.0,-1.4916333,-0.07586202,-1.0011015
alexnet_w3_mlp_simclrhn_probe2,1,591,NaN,car,car,4-10-10,0591_eid_dnn_4-10-10_car_10_n03100240_17472.png,n03100240_17472.png,1.0,0.028843096,-0.57926834,0.42999974
alexnet_w3_mlp_simclrhn_probe2,1,592,NaN,oven,dog,16-10-10,0592_eid_dnn_16-10-10_dog_10_n02113023_1980.png,n02113023_1980.png,0.0,-2.0079646,1.1459372,-2.2301455
alexnet_w3_mlp_simclrhn_probe2,1,593,NaN,bear,dog,32-10-10,0593_eid_dnn_32-10-10_dog_10_n02100735_6359.png,n02100735_6359.png,0.0,-0.6544353,-0.28168675,-0.26357302
alexnet_w3_mlp_simclrhn_probe2,1,594,NaN,bicycle,knife,1-10-10,0594_eid_dnn_1-10-10_knife_10_n03041632_31849.png,n03041632_31849.png,0.0,-0.93783164,-0.079332545,-0.60705054
alexnet_w3_mlp_simclrhn_probe2,1,595,NaN,oven,bird,8-10-10,0595_eid_dnn_8-10-10_bird_10_n01532829_23378.png,n01532829_23378.png,0.0,-1.6633791,0.0463444,-1.2089571
alexnet_w3_mlp_simclrhn_probe2,1,596,NaN,oven,clock,64-10-10,0596_eid_dnn_64-10-10_clock_10_n02708093_5127.png,n02708093_5127.png,0.0,-6.1697507,1.113596,-5.150104
