subj,session,trial,rt,object_response,category,condition,imagename,filename,is_correct,targ_act,max_nontarg_act,decision_margin
alexnet_w1_mlp_simclrhn_probe0,1,1,NaN,oven,oven,1-10-10,0001_eid_dnn_1-10-10_oven_10_n04111531_17072.png,n04111531_17072.png,1.0,1.6722088,-3.6567628,3.7681522
alexnet_w1_mlp_simclrhn_probe0,1,2,NaN,airplane,airplane,16-10-10,0002_eid_dnn_16-10-10_airplane_10_n02690373_4183.png,n02690373_4183.png,1.0,-2.7839284,-3.0568695,0.19299851
alexnet_w1_mlp_simclrhn_probe0,1,3,NaN,oven,car,8-10-10,0003_eid_dnn_8-10-10_car_10_n03100240_1137.png,n03100240_1137.png,0.0,-3.725911,-2.4814487,-0.8799677
alexnet_w1_mlp_simclrhn_probe0,1,4,NaN,clock,clock,2-10-10,0004_eid_dnn_2-10-10_clock_10_n04548280_7083.png,n04548280_7083.png,1.0,-1.7988473,-4.1535964,1.6650592
alexnet_w1_mlp_simclrhn_probe0,1,5,NaN,bottle,bottle,2-10-10,0005_eid_dnn_2-10-10_bottle_10_n02823428_7810.png,n02823428_7810.png,1.0,-0.6285061,-2.236364,1.1369271
alexnet_w1_mlp_simclrhn_probe0,1,6,NaN,bear,dog,128-10-10,0006_eid_dnn_128-10-10_dog_10_n02091244_8368.png,n02091244_8368.png,0.0,-2.392479,0.3198915,-1.9179355
alexnet_w1_mlp_simclrhn_probe0,1,7,NaN,bicycle,bicycle,1-10-10,0007_eid_dnn_1-10-10_bicycle_10_n02835271_2930.png,n02835271_2930.png,1.0,0.63418305,-2.760809,2.400622
alexnet_w1_mlp_simclrhn_probe0,1,8,NaN,cat,knife,4-10-10,0008_eid_dnn_4-10-10_knife_10_n03041632_52848.png,n03041632_52848.png,0.0,-7.7935586,-4.53713,-2.3026428
alexnet_w1_mlp_simclrhn_probe0,1,9,NaN,bottle,bottle,2-10-10,0009_eid_dnn_2-10-10_bottle_10_n02823428_4097.png,n02823428_4097.png,1.0,2.570931,-2.4696062,3.5641978
alexnet_w1_mlp_simclrhn_probe0,1,10,NaN,dog,dog,8-10-10,0010_eid_dnn_8-10-10_dog_10_n02105641_10264.png,n02105641_10264.png,1.0,-0.85333246,-2.1080856,0.88724446
alexnet_w1_mlp_simclrhn_probe0,1,11,NaN,oven,boat,8-10-10,0011_eid_dnn_8-10-10_boat_10_n03662601_10278.png,n03662601_10278.png,0.0,-3.2315438,-1.032859,-1.5547049
alexnet_w1_mlp_simclrhn_probe0,1,12,NaN,bear,truck,32-10-10,0012_eid_dnn_32-10-10_truck_10_n04467665_76958.png,n04467665_76958.png,0.0,-7.06666,-1.0430397,-4.2593427
alexnet_w1_mlp_simclrhn_probe0,1,13,NaN,bear,dog,16-10-10,0013_eid_dnn_16-10-10_dog_10_n02088238_12552.png,n02088238_12552.png,0.0,-2.1146123,-1.4281673,-0.48538992
alexnet_w1_mlp_simclrhn_probe0,1,14,NaN,bear,dog,8-10-10,0014_eid_dnn_8-10-10_dog_10_n02102040_994.png,n02102040_994.png,0.0,-3.2557678,-0.11065796,-2.2239285
alexnet_w1_mlp_simclrhn_probe0,1,15,NaN,elephant,bear,128-10-10,0015_eid_dnn_128-10-10_bear_10_n02133161_1944.png,n02133161_1944.png,0.0,-0.9962901,-0.7100496,-0.20240258
alexnet_w1_mlp_simclrhn_probe0,1,16,NaN,airplane,car,16-10-10,0016_eid_dnn_16-10-10_car_10_n02814533_43040.png,n02814533_43040.png,0.0,-6.2254157,-2.4359055,-2.6795886
alexnet_w1_mlp_simclrhn_probe0,1,17,NaN,bear,oven,128-10-10,0017_eid_dnn_128-10-10_oven_10_n04111531_18592.png,n04111531_18592.png,0.0,-0.88547933,-0.5901758,-0.20881113
alexnet_w1_mlp_simclrhn_probe0,1,18,NaN,oven,chair,16-10-10,0018_eid_dnn_16-10-10_chair_10_n02791124_4294.png,n02791124_4294.png,0.0,-6.5626655,-0.43174082,-4.3352184
alexnet_w1_mlp_simclrhn_probe0,1,19,NaN,oven,knife,32-10-10,0019_eid_dnn_32-10-10_knife_10_n03041632_2630.png,n03041632_2630.png,0.0,-4.753047,0.045645997,-3.3931885
alexnet_w1_mlp_simclrhn_probe0,1,20,NaN,elephant,elephant,1-10-10,0020_eid_dnn_1-10-10_elephant_10_n02504458_723.png,n02504458_723.png,1.0,5.7913713,-1.6411469,5.255584
alexnet_w1_mlp_simclrhn_probe0,1,21,NaN,oven,chair,4-10-10,0021_eid_dnn_4-10-10_chair_10_n03376595_6107.png,n03376595_6107.png,0.0,-2.5714364,-2.386069,-0.1310745
alexnet_w1_mlp_simclrhn_probe0,1,22,NaN,oven,clock,32-10-10,0022_eid_dnn_32-10-10_clock_10_n03196217_1337.png,n03196217_1337.png,0.0,-6.341816,-0.31340516,-4.26273
alexnet_w1_mlp_simclrhn_probe0,1,23,NaN,bear,boat,128-10-10,0023_eid_dnn_128-10-10_boat_10_n02951358_9550.png,n02951358_9550.png,0.0,-6.0912232,-0.12890382,-4.2159967
alexnet_w1_mlp_simclrhn_probe0,1,24,NaN,bottle,bird,128-10-10,0024_eid_dnn_128-10-10_bird_10_n01616318_2334.png,n01616318_2334.png,0.0,-5.200753,-1.7875854,-2.4134743
alexnet_w1_mlp_simclrhn_probe0,1,25,NaN,oven,bottle,32-10-10,0025_eid_dnn_32-10-10_bottle_10_n03937543_1658.png,n03937543_1658.png,0.0,-2.573497,-1.1367552,-1.0159299
alexnet_w1_mlp_simclrhn_probe0,1,26,NaN,elephant,elephant,2-10-10,0026_eid_dnn_2-10-10_elephant_10_n02504013_6731.png,n02504013_6731.png,1.0,1.0578129,-0.17715403,0.8732535
alexnet_w1_mlp_simclrhn_probe0,1,27,NaN,keyboard,keyboard,4-10-10,0027_eid_dnn_4-10-10_keyboard_10_n04505470_4447.png,n04505470_4447.png,1.0,5.545267,-1.9806229,5.321608
alexnet_w1_mlp_simclrhn_probe0,1,28,NaN,airplane,airplane,1-10-10,0028_eid_dnn_1-10-10_airplane_10_n02690373_4839.png,n02690373_4839.png,1.0,6.8153267,1.1762083,3.9874587
alexnet_w1_mlp_simclrhn_probe0,1,29,NaN,oven,keyboard,64-10-10,0029_eid_dnn_64-10-10_keyboard_10_n04505470_1651.png,n04505470_1651.png,0.0,-10.952913,-2.0347319,-6.3061066
alexnet_w1_mlp_simclrhn_probe0,1,30,NaN,oven,keyboard,32-10-10,0030_eid_dnn_32-10-10_keyboard_10_n03085013_20601.png,n03085013_20601.png,0.0,-3.5381567,-1.9749229,-1.1053733
alexnet_w1_mlp_simclrhn_probe0,1,31,NaN,oven,airplane,64-10-10,0031_eid_dnn_64-10-10_airplane_10_n02690373_2217.png,n02690373_2217.png,0.0,-4.0959578,-3.159566,-0.66212904
alexnet_w1_mlp_simclrhn_probe0,1,32,NaN,bicycle,bicycle,4-10-10,0032_eid_dnn_4-10-10_bicycle_10_n03792782_25019.png,n03792782_25019.png,1.0,-3.0742383,-3.3850224,0.21975754
alexnet_w1_mlp_simclrhn_probe0,1,33,NaN,cat,cat,8-10-10,0033_eid_dnn_8-10-10_cat_10_n02123597_13890.png,n02123597_13890.png,1.0,0.28584978,-2.7459698,2.1438203
alexnet_w1_mlp_simclrhn_probe0,1,34,NaN,boat,boat,1-10-10,0034_eid_dnn_1-10-10_boat_10_n04612504_214.png,n04612504_214.png,1.0,1.3285271,-0.50979865,1.2998927
alexnet_w1_mlp_simclrhn_probe0,1,35,NaN,elephant,chair,128-10-10,0035_eid_dnn_128-10-10_chair_10_n02791124_2555.png,n02791124_2555.png,0.0,-6.5769806,0.7101688,-5.152793
alexnet_w1_mlp_simclrhn_probe0,1,36,NaN,car,car,4-10-10,0036_eid_dnn_4-10-10_car_10_n04285008_2081.png,n04285008_2081.png,1.0,-1.3878775,-2.7148268,0.9382949
alexnet_w1_mlp_simclrhn_probe0,1,37,NaN,bear,dog,32-10-10,0037_eid_dnn_32-10-10_dog_10_n02094114_8202.png,n02094114_8202.png,0.0,-2.2324173,-1.5677449,-0.46999443
alexnet_w1_mlp_simclrhn_probe0,1,38,NaN,oven,chair,64-10-10,0038_eid_dnn_64-10-10_chair_10_n04099969_4541.png,n04099969_4541.png,0.0,-6.5507894,-1.720448,-3.4155672
alexnet_w1_mlp_simclrhn_probe0,1,39,NaN,elephant,boat,128-10-10,0039_eid_dnn_128-10-10_boat_10_n04612504_12864.png,n04612504_12864.png,0.0,-5.486153,-0.4292673,-3.5757582
alexnet_w1_mlp_simclrhn_probe0,1,40,NaN,airplane,airplane,4-10-10,0040_eid_dnn_4-10-10_airplane_10_n02690373_18460.png,n02690373_18460.png,1.0,3.2619047,-1.999741,3.7205455
alexnet_w1_mlp_simclrhn_probe0,1,41,NaN,bear,bottle,64-10-10,0041_eid_dnn_64-10-10_bottle_10_n03983396_8982.png,n03983396_8982.png,0.0,-5.518159,-1.3535432,-2.944828
alexnet_w1_mlp_simclrhn_probe0,1,42,NaN,bear,dog,16-10-10,0042_eid_dnn_16-10-10_dog_10_n02099601_10407.png,n02099601_10407.png,0.0,-2.608832,0.33689007,-2.0829399
alexnet_w1_mlp_simclrhn_probe0,1,43,NaN,oven,airplane,32-10-10,0043_eid_dnn_32-10-10_airplane_10_n02690373_5253.png,n02690373_5253.png,0.0,-3.6005569,-0.51140666,-2.184359
alexnet_w1_mlp_simclrhn_probe0,1,44,NaN,elephant,elephant,2-10-10,0044_eid_dnn_2-10-10_elephant_10_n02504013_2832.png,n02504013_2832.png,1.0,5.060277,1.6356384,2.4215853
alexnet_w1_mlp_simclrhn_probe0,1,45,NaN,clock,clock,1-10-10,0045_eid_dnn_1-10-10_clock_10_n02708093_8002.png,n02708093_8002.png,1.0,-1.1932819,-1.4227215,0.16223831
alexnet_w1_mlp_simclrhn_probe0,1,46,NaN,chair,chair,2-10-10,0046_eid_dnn_2-10-10_chair_10_n03376595_1766.png,n03376595_1766.png,1.0,1.1131113,-1.9411316,2.1596758
alexnet_w1_mlp_simclrhn_probe0,1,47,NaN,truck,truck,2-10-10,0047_eid_dnn_2-10-10_truck_10_n03417042_17616.png,n03417042_17616.png,1.0,-0.6081772,-1.7729768,0.82363766
alexnet_w1_mlp_simclrhn_probe0,1,48,NaN,bear,bear,16-10-10,0048_eid_dnn_16-10-10_bear_10_n02134418_2804.png,n02134418_2804.png,1.0,1.9947927,-1.3643253,2.375255
alexnet_w1_mlp_simclrhn_probe0,1,49,NaN,bear,car,64-10-10,0049_eid_dnn_64-10-10_car_10_n04285008_12101.png,n04285008_12101.png,0.0,-9.122749,-1.3405732,-5.5028296
alexnet_w1_mlp_simclrhn_probe0,1,50,NaN,bear,bear,16-10-10,0050_eid_dnn_16-10-10_bear_10_n02134418_3828.png,n02134418_3828.png,1.0,0.844772,-0.77424324,1.1448166
alexnet_w1_mlp_simclrhn_probe0,1,51,NaN,bird,bird,2-10-10,0051_eid_dnn_2-10-10_bird_10_n01530575_5747.png,n01530575_5747.png,1.0,-2.9980874,-5.4318166,1.7209064
alexnet_w1_mlp_simclrhn_probe0,1,52,NaN,elephant,truck,128-10-10,0052_eid_dnn_128-10-10_truck_10_n03796401_3386.png,n03796401_3386.png,0.0,-8.099682,0.35860288,-5.9809103
alexnet_w1_mlp_simclrhn_probe0,1,53,NaN,oven,keyboard,16-10-10,0053_eid_dnn_16-10-10_keyboard_10_n04505470_3234.png,n04505470_3234.png,0.0,-6.653447,-3.174843,-2.4597447
alexnet_w1_mlp_simclrhn_probe0,1,54,NaN,airplane,truck,1-10-10,0054_eid_dnn_1-10-10_truck_10_n04467665_72639.png,n04467665_72639.png,0.0,-0.9824237,2.6367817,-2.5591648
alexnet_w1_mlp_simclrhn_probe0,1,55,NaN,bear,chair,32-10-10,0055_eid_dnn_32-10-10_chair_10_n04429376_27524.png,n04429376_27524.png,0.0,-10.074172,-1.4831846,-6.074745
alexnet_w1_mlp_simclrhn_probe0,1,56,NaN,bear,bottle,64-10-10,0056_eid_dnn_64-10-10_bottle_10_n04557648_11440.png,n04557648_11440.png,0.0,-2.9882553,-1.9865717,-0.70829725
alexnet_w1_mlp_simclrhn_probe0,1,57,NaN,oven,keyboard,32-10-10,0057_eid_dnn_32-10-10_keyboard_10_n03085013_20216.png,n03085013_20216.png,0.0,-7.9136925,0.7176698,-6.103295
alexnet_w1_mlp_simclrhn_probe0,1,58,NaN,bear,boat,8-10-10,0058_eid_dnn_8-10-10_boat_10_n02951358_34653.png,n02951358_34653.png,0.0,-4.6773286,-2.118268,-1.8095291
alexnet_w1_mlp_simclrhn_probe0,1,59,NaN,keyboard,keyboard,2-10-10,0059_eid_dnn_2-10-10_keyboard_10_n03085013_8932.png,n03085013_8932.png,1.0,0.83519197,-1.3821715,1.5679127
alexnet_w1_mlp_simclrhn_probe0,1,60,NaN,bear,cat,1-10-10,0060_eid_dnn_1-10-10_cat_10_n02125311_35338.png,n02125311_35338.png,0.0,-3.2609122,-3.1096787,-0.10693819
alexnet_w1_mlp_simclrhn_probe0,1,61,NaN,oven,bicycle,16-10-10,0061_eid_dnn_16-10-10_bicycle_10_n03792782_5449.png,n03792782_5449.png,0.0,-4.305682,-0.77279276,-2.49813
alexnet_w1_mlp_simclrhn_probe0,1,62,NaN,bear,bicycle,4-10-10,0062_eid_dnn_4-10-10_bicycle_10_n03792782_9432.png,n03792782_9432.png,0.0,-0.57389903,-0.097531125,-0.33684298
alexnet_w1_mlp_simclrhn_probe0,1,63,NaN,elephant,bottle,1-10-10,0063_eid_dnn_1-10-10_bottle_10_n04591713_4291.png,n04591713_4291.png,0.0,-6.2508464,-3.8232267,-1.7165864
alexnet_w1_mlp_simclrhn_probe0,1,64,NaN,truck,truck,4-10-10,0064_eid_dnn_4-10-10_truck_10_n04467665_67057.png,n04467665_67057.png,1.0,-3.0316343,-4.314191,0.90690446
alexnet_w1_mlp_simclrhn_probe0,1,65,NaN,knife,keyboard,1-10-10,0065_eid_dnn_1-10-10_keyboard_10_n03085013_22790.png,n03085013_22790.png,0.0,-5.5831156,-4.2507043,-0.9421571
alexnet_w1_mlp_simclrhn_probe0,1,66,NaN,dog,dog,4-10-10,0066_eid_dnn_4-10-10_dog_10_n02086079_2896.png,n02086079_2896.png,1.0,-2.067816,-2.1531553,0.060344003
alexnet_w1_mlp_simclrhn_probe0,1,67,NaN,bear,knife,8-10-10,0067_eid_dnn_8-10-10_knife_10_n03041632_40508.png,n03041632_40508.png,0.0,-2.3535538,-1.7544308,-0.42364395
alexnet_w1_mlp_simclrhn_probe0,1,68,NaN,boat,boat,1-10-10,0068_eid_dnn_1-10-10_boat_10_n03344393_7942.png,n03344393_7942.png,1.0,-0.93294525,-1.5937122,0.4672328
alexnet_w1_mlp_simclrhn_probe0,1,69,NaN,bear,bear,2-10-10,0069_eid_dnn_2-10-10_bear_10_n02134418_4352.png,n02134418_4352.png,1.0,2.2880201,-0.43284547,1.9239427
alexnet_w1_mlp_simclrhn_probe0,1,70,NaN,oven,cat,16-10-10,0070_eid_dnn_16-10-10_cat_10_n02123045_5157.png,n02123045_5157.png,0.0,-1.9503012,-0.6605814,-0.91196966
alexnet_w1_mlp_simclrhn_probe0,1,71,NaN,bear,dog,16-10-10,0071_eid_dnn_16-10-10_dog_10_n02109047_14287.png,n02109047_14287.png,0.0,-2.5094206,-1.7725487,-0.5210472
alexnet_w1_mlp_simclrhn_probe0,1,72,NaN,truck,truck,2-10-10,0072_eid_dnn_2-10-10_truck_10_n03417042_14274.png,n03417042_14274.png,1.0,0.83649504,-1.7270246,1.812682
alexnet_w1_mlp_simclrhn_probe0,1,73,NaN,airplane,airplane,2-10-10,0073_eid_dnn_2-10-10_airplane_10_n02690373_5885.png,n02690373_5885.png,1.0,-3.1473134,-4.747172,1.1312709
alexnet_w1_mlp_simclrhn_probe0,1,74,NaN,bear,cat,32-10-10,0074_eid_dnn_32-10-10_cat_10_n02123394_571.png,n02123394_571.png,0.0,-2.4751441,-2.4494817,-0.018146073
alexnet_w1_mlp_simclrhn_probe0,1,75,NaN,cat,cat,32-10-10,0075_eid_dnn_32-10-10_cat_10_n02123045_10171.png,n02123045_10171.png,1.0,-1.3296221,-1.8871336,0.39422014
alexnet_w1_mlp_simclrhn_probe0,1,76,NaN,cat,bottle,8-10-10,0076_eid_dnn_8-10-10_bottle_10_n04560804_4909.png,n04560804_4909.png,0.0,-3.722645,-3.470851,-0.17804532
alexnet_w1_mlp_simclrhn_probe0,1,77,NaN,keyboard,keyboard,8-10-10,0077_eid_dnn_8-10-10_keyboard_10_n03085013_7971.png,n03085013_7971.png,1.0,-1.7733366,-2.255196,0.34072608
alexnet_w1_mlp_simclrhn_probe0,1,78,NaN,oven,keyboard,16-10-10,0078_eid_dnn_16-10-10_keyboard_10_n03085013_21397.png,n03085013_21397.png,0.0,-7.488719,-2.5303292,-3.5061111
alexnet_w1_mlp_simclrhn_probe0,1,79,NaN,bear,elephant,32-10-10,0079_eid_dnn_32-10-10_elephant_10_n02504458_4187.png,n02504458_4187.png,0.0,-1.1279559,0.50013745,-1.1512358
alexnet_w1_mlp_simclrhn_probe0,1,80,NaN,bear,clock,8-10-10,0080_eid_dnn_8-10-10_clock_10_n03196217_6689.png,n03196217_6689.png,0.0,-10.234358,-0.72526646,-6.723943
alexnet_w1_mlp_simclrhn_probe0,1,81,NaN,knife,knife,4-10-10,0081_eid_dnn_4-10-10_knife_10_n03041632_26236.png,n03041632_26236.png,1.0,-2.8166544,-3.3530865,0.37931472
alexnet_w1_mlp_simclrhn_probe0,1,82,NaN,oven,car,8-10-10,0082_eid_dnn_8-10-10_car_10_n03100240_1262.png,n03100240_1262.png,0.0,-5.304151,-3.0603657,-1.5865959
alexnet_w1_mlp_simclrhn_probe0,1,83,NaN,oven,keyboard,64-10-10,0083_eid_dnn_64-10-10_keyboard_10_n04505470_5059.png,n04505470_5059.png,0.0,-7.3621655,-1.8430792,-3.9025834
alexnet_w1_mlp_simclrhn_probe0,1,84,NaN,bird,bird,1-10-10,0084_eid_dnn_1-10-10_bird_10_n01537544_26417.png,n01537544_26417.png,1.0,-2.1224551,-4.4075465,1.6158036
alexnet_w1_mlp_simclrhn_probe0,1,85,NaN,bear,bird,32-10-10,0085_eid_dnn_32-10-10_bird_10_n02009912_5714.png,n02009912_5714.png,0.0,-6.9197083,-1.0658412,-4.139309
alexnet_w1_mlp_simclrhn_probe0,1,86,NaN,elephant,chair,128-10-10,0086_eid_dnn_128-10-10_chair_10_n03376595_5972.png,n03376595_5972.png,0.0,-8.820101,0.3863084,-6.509915
alexnet_w1_mlp_simclrhn_probe0,1,87,NaN,oven,chair,2-10-10,0087_eid_dnn_2-10-10_chair_10_n04429376_805.png,n04429376_805.png,0.0,-0.69493246,-0.35284904,-0.2418895
alexnet_w1_mlp_simclrhn_probe0,1,88,NaN,bear,bicycle,128-10-10,0088_eid_dnn_128-10-10_bicycle_10_n03792782_4083.png,n03792782_4083.png,0.0,-3.2526944,-0.34934583,-2.0529773
alexnet_w1_mlp_simclrhn_probe0,1,89,NaN,clock,clock,1-10-10,0089_eid_dnn_1-10-10_clock_10_n02708093_798.png,n02708093_798.png,1.0,-0.31259665,-1.2187343,0.64073604
alexnet_w1_mlp_simclrhn_probe0,1,90,NaN,bear,bear,1-10-10,0090_eid_dnn_1-10-10_bear_10_n02133161_1660.png,n02133161_1660.png,1.0,1.1673877,-1.7568862,2.067774
alexnet_w1_mlp_simclrhn_probe0,1,91,NaN,oven,car,8-10-10,0091_eid_dnn_8-10-10_car_10_n04285008_9464.png,n04285008_9464.png,0.0,-7.457964,-1.798323,-4.0019703
alexnet_w1_mlp_simclrhn_probe0,1,92,NaN,oven,oven,16-10-10,0092_eid_dnn_16-10-10_oven_10_n04111531_3314.png,n04111531_3314.png,1.0,1.7472684,-1.8103107,2.5155883
alexnet_w1_mlp_simclrhn_probe0,1,93,NaN,bear,cat,128-10-10,0093_eid_dnn_128-10-10_cat_10_n02123394_5753.png,n02123394_5753.png,0.0,-1.3168175,-0.19132967,-0.7958401
alexnet_w1_mlp_simclrhn_probe0,1,94,NaN,bicycle,boat,2-10-10,0094_eid_dnn_2-10-10_boat_10_n02951358_34042.png,n02951358_34042.png,0.0,0.071236946,0.25803107,-0.1320834
alexnet_w1_mlp_simclrhn_probe0,1,95,NaN,bear,truck,64-10-10,0095_eid_dnn_64-10-10_truck_10_n03417042_7588.png,n03417042_7588.png,0.0,-6.9240937,-0.18520004,-4.765117
alexnet_w1_mlp_simclrhn_probe0,1,96,NaN,oven,truck,32-10-10,0096_eid_dnn_32-10-10_truck_10_n03417042_4200.png,n03417042_4200.png,0.0,-6.738029,1.525856,-5.8434496
alexnet_w1_mlp_simclrhn_probe0,1,97,NaN,airplane,airplane,4-10-10,0097_eid_dnn_4-10-10_airplane_10_n02690373_4335.png,n02690373_4335.png,1.0,2.992692,-2.3165355,3.754191
alexnet_w1_mlp_simclrhn_probe0,1,98,NaN,cat,elephant,128-10-10,0098_eid_dnn_128-10-10_elephant_10_n02504458_6823.png,n02504458_6823.png,0.0,-2.8068352,-1.8613682,-0.66854614
alexnet_w1_mlp_simclrhn_probe0,1,99,NaN,boat,boat,4-10-10,0099_eid_dnn_4-10-10_boat_10_n03344393_4214.png,n03344393_4214.png,1.0,1.6021963,-0.150653,1.2394516
alexnet_w1_mlp_simclrhn_probe0,1,100,NaN,keyboard,keyboard,4-10-10,0100_eid_dnn_4-10-10_keyboard_10_n03085013_22949.png,n03085013_22949.png,1.0,2.8445654,-0.5852187,2.4252236
alexnet_w1_mlp_simclrhn_probe0,1,101,NaN,elephant,bear,64-10-10,0101_eid_dnn_64-10-10_bear_10_n02132136_31664.png,n02132136_31664.png,0.0,-2.0321712,-1.2950677,-0.52121097
alexnet_w1_mlp_simclrhn_probe0,1,102,NaN,keyboard,bottle,8-10-10,0102_eid_dnn_8-10-10_bottle_10_n03983396_1985.png,n03983396_1985.png,0.0,-4.074715,-4.0161295,-0.04142631
alexnet_w1_mlp_simclrhn_probe0,1,103,NaN,airplane,airplane,2-10-10,0103_eid_dnn_2-10-10_airplane_10_n02690373_9266.png,n02690373_9266.png,1.0,5.703281,-2.0112326,5.454985
alexnet_w1_mlp_simclrhn_probe0,1,104,NaN,bear,bottle,128-10-10,0104_eid_dnn_128-10-10_bottle_10_n02823428_5961.png,n02823428_5961.png,0.0,-4.610696,-0.45907098,-2.935642
alexnet_w1_mlp_simclrhn_probe0,1,105,NaN,bottle,bottle,4-10-10,0105_eid_dnn_4-10-10_bottle_10_n04579145_1856.png,n04579145_1856.png,1.0,-1.007125,-1.1274241,0.085064314
alexnet_w1_mlp_simclrhn_probe0,1,106,NaN,bear,clock,64-10-10,0106_eid_dnn_64-10-10_clock_10_n02708093_7810.png,n02708093_7810.png,0.0,-8.0839,-0.47940224,-5.3771925
alexnet_w1_mlp_simclrhn_probe0,1,107,NaN,dog,dog,1-10-10,0107_eid_dnn_1-10-10_dog_10_n02100735_4949.png,n02100735_4949.png,1.0,-1.0311699,-2.4302387,0.9892911
alexnet_w1_mlp_simclrhn_probe0,1,108,NaN,bear,chair,32-10-10,0108_eid_dnn_32-10-10_chair_10_n03376595_7275.png,n03376595_7275.png,0.0,-7.377965,-2.8879602,-3.1749127
alexnet_w1_mlp_simclrhn_probe0,1,109,NaN,bottle,bottle,2-10-10,0109_eid_dnn_2-10-10_bottle_10_n03983396_16741.png,n03983396_16741.png,1.0,-0.6266218,-2.155449,1.0810441
alexnet_w1_mlp_simclrhn_probe0,1,110,NaN,oven,boat,32-10-10,0110_eid_dnn_32-10-10_boat_10_n04612504_8719.png,n04612504_8719.png,0.0,-8.413682,-2.9007306,-3.8982453
alexnet_w1_mlp_simclrhn_probe0,1,111,NaN,chair,chair,1-10-10,0111_eid_dnn_1-10-10_chair_10_n02791124_3570.png,n02791124_3570.png,1.0,0.52725154,-3.59381,2.9140308
alexnet_w1_mlp_simclrhn_probe0,1,112,NaN,bear,bear,32-10-10,0112_eid_dnn_32-10-10_bear_10_n02132136_9557.png,n02132136_9557.png,1.0,0.86843735,-1.2607129,1.5055366
alexnet_w1_mlp_simclrhn_probe0,1,113,NaN,bear,bird,64-10-10,0113_eid_dnn_64-10-10_bird_10_n02002556_5730.png,n02002556_5730.png,0.0,-3.7401702,0.75268614,-3.1769292
alexnet_w1_mlp_simclrhn_probe0,1,114,NaN,oven,oven,4-10-10,0114_eid_dnn_4-10-10_oven_10_n04111531_8959.png,n04111531_8959.png,1.0,-0.78713274,-4.2574873,2.4539113
alexnet_w1_mlp_simclrhn_probe0,1,115,NaN,elephant,cat,128-10-10,0115_eid_dnn_128-10-10_cat_10_n02123159_8101.png,n02123159_8101.png,0.0,-1.2244899,0.5008874,-1.220026
alexnet_w1_mlp_simclrhn_probe0,1,116,NaN,dog,cat,8-10-10,0116_eid_dnn_8-10-10_cat_10_n02123597_8890.png,n02123597_8890.png,0.0,-2.1548722,-1.9374174,-0.15376376
alexnet_w1_mlp_simclrhn_probe0,1,117,NaN,elephant,elephant,1-10-10,0117_eid_dnn_1-10-10_elephant_10_n02504458_220.png,n02504458_220.png,1.0,5.4259095,-0.7291404,4.3522778
alexnet_w1_mlp_simclrhn_probe0,1,118,NaN,bear,bicycle,128-10-10,0118_eid_dnn_128-10-10_bicycle_10_n02835271_2651.png,n02835271_2651.png,0.0,-2.5813854,-0.7581607,-1.2892145
alexnet_w1_mlp_simclrhn_probe0,1,119,NaN,bear,keyboard,64-10-10,0119_eid_dnn_64-10-10_keyboard_10_n04505470_1581.png,n04505470_1581.png,0.0,-10.191406,-3.1726406,-4.9630165
alexnet_w1_mlp_simclrhn_probe0,1,120,NaN,truck,truck,4-10-10,0120_eid_dnn_4-10-10_truck_10_n04467665_1719.png,n04467665_1719.png,1.0,-0.67615044,-0.68123144,0.0035928083
alexnet_w1_mlp_simclrhn_probe0,1,121,NaN,truck,truck,2-10-10,0121_eid_dnn_2-10-10_truck_10_n04467665_30756.png,n04467665_30756.png,1.0,3.1454751,-0.48960105,2.5703871
alexnet_w1_mlp_simclrhn_probe0,1,122,NaN,bear,oven,64-10-10,0122_eid_dnn_64-10-10_oven_10_n04111531_1818.png,n04111531_1818.png,0.0,-1.7372428,-1.6609912,-0.05391804
alexnet_w1_mlp_simclrhn_probe0,1,123,NaN,elephant,elephant,64-10-10,0123_eid_dnn_64-10-10_elephant_10_n02504013_2974.png,n02504013_2974.png,1.0,0.7374797,0.046807155,0.48837924
alexnet_w1_mlp_simclrhn_probe0,1,124,NaN,elephant,bicycle,128-10-10,0124_eid_dnn_128-10-10_bicycle_10_n03792782_7713.png,n03792782_7713.png,0.0,-2.9013395,-0.78302467,-1.4978747
alexnet_w1_mlp_simclrhn_probe0,1,125,NaN,oven,clock,16-10-10,0125_eid_dnn_16-10-10_clock_10_n04548280_9700.png,n04548280_9700.png,0.0,-5.279165,-0.8428929,-3.1369178
alexnet_w1_mlp_simclrhn_probe0,1,126,NaN,oven,bottle,16-10-10,0126_eid_dnn_16-10-10_bottle_10_n04591713_1174.png,n04591713_1174.png,0.0,-6.6710234,-2.5867863,-2.887992
alexnet_w1_mlp_simclrhn_probe0,1,127,NaN,bear,bear,64-10-10,0127_eid_dnn_64-10-10_bear_10_n02134418_1395.png,n02134418_1395.png,1.0,0.71954393,-1.0148107,1.2263739
alexnet_w1_mlp_simclrhn_probe0,1,128,NaN,bear,bottle,128-10-10,0128_eid_dnn_128-10-10_bottle_10_n04591713_36.png,n04591713_36.png,0.0,-4.9474,-0.54207766,-3.1150334
alexnet_w1_mlp_simclrhn_probe0,1,129,NaN,bear,knife,8-10-10,0129_eid_dnn_8-10-10_knife_10_n03041632_21034.png,n03041632_21034.png,0.0,-3.6900828,-2.6012065,-0.7699518
alexnet_w1_mlp_simclrhn_probe0,1,130,NaN,bicycle,bicycle,1-10-10,0130_eid_dnn_1-10-10_bicycle_10_n03792782_11115.png,n03792782_11115.png,1.0,8.805791,-3.8790915,8.969566
alexnet_w1_mlp_simclrhn_probe0,1,131,NaN,bear,truck,16-10-10,0131_eid_dnn_16-10-10_truck_10_n03417042_5381.png,n03417042_5381.png,0.0,-8.304258,0.5965477,-6.293821
alexnet_w1_mlp_simclrhn_probe0,1,132,NaN,bear,boat,64-10-10,0132_eid_dnn_64-10-10_boat_10_n04612504_15258.png,n04612504_15258.png,0.0,-7.1527605,0.34168738,-5.299375
alexnet_w1_mlp_simclrhn_probe0,1,133,NaN,boat,boat,2-10-10,0133_eid_dnn_2-10-10_boat_10_n03662601_11972.png,n03662601_11972.png,1.0,2.7104378,-0.027780294,1.9362125
alexnet_w1_mlp_simclrhn_probe0,1,134,NaN,bear,dog,64-10-10,0134_eid_dnn_64-10-10_dog_10_n02092002_11459.png,n02092002_11459.png,0.0,-1.7520002,-0.39479196,-0.95969117
alexnet_w1_mlp_simclrhn_probe0,1,135,NaN,oven,clock,64-10-10,0135_eid_dnn_64-10-10_clock_10_n04548280_6605.png,n04548280_6605.png,0.0,-5.67265,-2.5964272,-2.1752179
alexnet_w1_mlp_simclrhn_probe0,1,136,NaN,bear,boat,64-10-10,0136_eid_dnn_64-10-10_boat_10_n03662601_5600.png,n03662601_5600.png,0.0,-1.935828,-0.93404317,-0.70836884
alexnet_w1_mlp_simclrhn_probe0,1,137,NaN,bear,bear,32-10-10,0137_eid_dnn_32-10-10_bear_10_n02134084_8153.png,n02134084_8153.png,1.0,-1.9051819,-2.0171885,0.07920067
alexnet_w1_mlp_simclrhn_probe0,1,138,NaN,oven,cat,64-10-10,0138_eid_dnn_64-10-10_cat_10_n02124075_9225.png,n02124075_9225.png,0.0,-2.5475938,-1.107026,-1.0186353
alexnet_w1_mlp_simclrhn_probe0,1,139,NaN,oven,bicycle,8-10-10,0139_eid_dnn_8-10-10_bicycle_10_n03792782_3591.png,n03792782_3591.png,0.0,-3.5510607,-0.61946774,-2.0729492
alexnet_w1_mlp_simclrhn_probe0,1,140,NaN,bear,dog,64-10-10,0140_eid_dnn_64-10-10_dog_10_n02107142_31661.png,n02107142_31661.png,0.0,-2.04337,-0.21187006,-1.295066
alexnet_w1_mlp_simclrhn_probe0,1,141,NaN,elephant,elephant,8-10-10,0141_eid_dnn_8-10-10_elephant_10_n02504458_651.png,n02504458_651.png,1.0,4.863702,2.1957655,1.8865159
alexnet_w1_mlp_simclrhn_probe0,1,142,NaN,bear,dog,128-10-10,0142_eid_dnn_128-10-10_dog_10_n02110958_15217.png,n02110958_15217.png,0.0,-2.092656,-0.36839306,-1.2192379
alexnet_w1_mlp_simclrhn_probe0,1,143,NaN,oven,oven,4-10-10,0143_eid_dnn_4-10-10_oven_10_n04111531_523.png,n04111531_523.png,1.0,1.1249459,-2.5935454,2.6293705
alexnet_w1_mlp_simclrhn_probe0,1,144,NaN,car,car,4-10-10,0144_eid_dnn_4-10-10_car_10_n02814533_42884.png,n02814533_42884.png,1.0,-0.76083916,-2.754194,1.4095147
alexnet_w1_mlp_simclrhn_probe0,1,145,NaN,bear,car,64-10-10,0145_eid_dnn_64-10-10_car_10_n04285008_8017.png,n04285008_8017.png,0.0,-9.023635,0.13582852,-6.476719
alexnet_w1_mlp_simclrhn_probe0,1,146,NaN,car,car,1-10-10,0146_eid_dnn_1-10-10_car_10_n03100240_16766.png,n03100240_16766.png,1.0,-1.1572539,-1.6530252,0.35056326
alexnet_w1_mlp_simclrhn_probe0,1,147,NaN,elephant,elephant,8-10-10,0147_eid_dnn_8-10-10_elephant_10_n02504458_4593.png,n02504458_4593.png,1.0,4.9317245,1.443455,2.4665792
alexnet_w1_mlp_simclrhn_probe0,1,148,NaN,oven,chair,64-10-10,0148_eid_dnn_64-10-10_chair_10_n02791124_1358.png,n02791124_1358.png,0.0,-10.99001,-3.5489821,-5.2616014
alexnet_w1_mlp_simclrhn_probe0,1,149,NaN,dog,dog,16-10-10,0149_eid_dnn_16-10-10_dog_10_n02095314_5363.png,n02095314_5363.png,1.0,-1.6249278,-2.148262,0.3700532
alexnet_w1_mlp_simclrhn_probe0,1,150,NaN,bottle,clock,8-10-10,0150_eid_dnn_8-10-10_clock_10_n04548280_1413.png,n04548280_1413.png,0.0,-4.1366906,-3.6621747,-0.33553344
alexnet_w1_mlp_simclrhn_probe0,1,151,NaN,dog,dog,1-10-10,0151_eid_dnn_1-10-10_dog_10_n02105641_10948.png,n02105641_10948.png,1.0,-1.9862921,-6.5941978,3.2582812
alexnet_w1_mlp_simclrhn_probe0,1,152,NaN,bear,dog,1-10-10,0152_eid_dnn_1-10-10_dog_10_n02113624_1691.png,n02113624_1691.png,0.0,-1.8050869,0.7180613,-1.7841351
alexnet_w1_mlp_simclrhn_probe0,1,153,NaN,car,car,4-10-10,0153_eid_dnn_4-10-10_car_10_n03100240_2235.png,n03100240_2235.png,1.0,0.6112968,0.1311693,0.33950138
alexnet_w1_mlp_simclrhn_probe0,1,154,NaN,chair,chair,2-10-10,0154_eid_dnn_2-10-10_chair_10_n04099969_56470.png,n04099969_56470.png,1.0,-3.6273704,-3.9172196,0.2049544
alexnet_w1_mlp_simclrhn_probe0,1,155,NaN,oven,oven,2-10-10,0155_eid_dnn_2-10-10_oven_10_n04111531_5429.png,n04111531_5429.png,1.0,4.848528,-1.5631943,4.5337725
alexnet_w1_mlp_simclrhn_probe0,1,156,NaN,oven,keyboard,64-10-10,0156_eid_dnn_64-10-10_keyboard_10_n03085013_19317.png,n03085013_19317.png,0.0,-9.928951,-2.310924,-5.386759
alexnet_w1_mlp_simclrhn_probe0,1,157,NaN,bear,bird,64-10-10,0157_eid_dnn_64-10-10_bird_10_n01601694_19650.png,n01601694_19650.png,0.0,-3.455222,-2.8104255,-0.4559399
alexnet_w1_mlp_simclrhn_probe0,1,158,NaN,elephant,clock,128-10-10,0158_eid_dnn_128-10-10_clock_10_n03196217_11199.png,n03196217_11199.png,0.0,-8.9441805,-2.0074248,-4.905027
alexnet_w1_mlp_simclrhn_probe0,1,159,NaN,bear,bottle,32-10-10,0159_eid_dnn_32-10-10_bottle_10_n03937543_2209.png,n03937543_2209.png,0.0,-5.919291,-2.0422106,-2.74151
alexnet_w1_mlp_simclrhn_probe0,1,160,NaN,oven,car,64-10-10,0160_eid_dnn_64-10-10_car_10_n03100240_16939.png,n03100240_16939.png,0.0,-8.112275,-0.48005462,-5.396795
alexnet_w1_mlp_simclrhn_probe0,1,161,NaN,oven,bottle,8-10-10,0161_eid_dnn_8-10-10_bottle_10_n04591713_2501.png,n04591713_2501.png,0.0,-4.1858664,-1.7347869,-1.7331749
alexnet_w1_mlp_simclrhn_probe0,1,162,NaN,airplane,airplane,16-10-10,0162_eid_dnn_16-10-10_airplane_10_n02690373_10395.png,n02690373_10395.png,1.0,-0.7660799,-2.8371606,1.4644753
alexnet_w1_mlp_simclrhn_probe0,1,163,NaN,oven,oven,8-10-10,0163_eid_dnn_8-10-10_oven_10_n04111531_3286.png,n04111531_3286.png,1.0,0.96278584,-2.3620546,2.3510172
alexnet_w1_mlp_simclrhn_probe0,1,164,NaN,oven,boat,64-10-10,0164_eid_dnn_64-10-10_boat_10_n04273569_13401.png,n04273569_13401.png,0.0,-7.6630907,-0.33058232,-5.1848664
alexnet_w1_mlp_simclrhn_probe0,1,165,NaN,bear,elephant,64-10-10,0165_eid_dnn_64-10-10_elephant_10_n02504458_12776.png,n02504458_12776.png,0.0,-1.3176143,-0.62143093,-0.492276
alexnet_w1_mlp_simclrhn_probe0,1,166,NaN,bird,bird,2-10-10,0166_eid_dnn_2-10-10_bird_10_n01828970_997.png,n01828970_997.png,1.0,0.3226962,-1.9540462,1.6099001
alexnet_w1_mlp_simclrhn_probe0,1,167,NaN,bear,bear,8-10-10,0167_eid_dnn_8-10-10_bear_10_n02132136_10318.png,n02132136_10318.png,1.0,0.691067,-0.7795631,1.0398926
alexnet_w1_mlp_simclrhn_probe0,1,168,NaN,oven,oven,32-10-10,0168_eid_dnn_32-10-10_oven_10_n04111531_7883.png,n04111531_7883.png,1.0,2.022551,-1.3978626,2.4185977
alexnet_w1_mlp_simclrhn_probe0,1,169,NaN,bear,clock,128-10-10,0169_eid_dnn_128-10-10_clock_10_n02708093_725.png,n02708093_725.png,0.0,-4.6055574,-1.0723873,-2.4983287
alexnet_w1_mlp_simclrhn_probe0,1,170,NaN,oven,bottle,16-10-10,0170_eid_dnn_16-10-10_bottle_10_n04557648_2052.png,n04557648_2052.png,0.0,-5.884937,-0.71663904,-3.6545384
alexnet_w1_mlp_simclrhn_probe0,1,171,NaN,oven,keyboard,32-10-10,0171_eid_dnn_32-10-10_keyboard_10_n04505470_5036.png,n04505470_5036.png,0.0,-7.8850584,0.048435047,-5.609827
alexnet_w1_mlp_simclrhn_probe0,1,172,NaN,elephant,elephant,8-10-10,0172_eid_dnn_8-10-10_elephant_10_n02504458_13352.png,n02504458_13352.png,1.0,2.1975083,0.2668069,1.3652121
alexnet_w1_mlp_simclrhn_probe0,1,173,NaN,chair,chair,4-10-10,0173_eid_dnn_4-10-10_chair_10_n04429376_30620.png,n04429376_30620.png,1.0,-1.9740714,-2.0094938,0.025047451
alexnet_w1_mlp_simclrhn_probe0,1,174,NaN,bear,boat,16-10-10,0174_eid_dnn_16-10-10_boat_10_n03662601_2980.png,n03662601_2980.png,0.0,-2.9672115,-1.6679618,-0.91870826
alexnet_w1_mlp_simclrhn_probe0,1,175,NaN,airplane,boat,8-10-10,0175_eid_dnn_8-10-10_boat_10_n03662601_4734.png,n03662601_4734.png,0.0,-3.3135636,-3.2085118,-0.07428281
alexnet_w1_mlp_simclrhn_probe0,1,176,NaN,bear,bear,2-10-10,0176_eid_dnn_2-10-10_bear_10_n02134418_4754.png,n02134418_4754.png,1.0,1.3886853,-1.9971423,2.3941417
alexnet_w1_mlp_simclrhn_probe0,1,177,NaN,elephant,elephant,2-10-10,0177_eid_dnn_2-10-10_elephant_10_n02504013_8522.png,n02504013_8522.png,1.0,3.6427684,0.28735238,2.3726375
alexnet_w1_mlp_simclrhn_probe0,1,178,NaN,bear,bottle,64-10-10,0178_eid_dnn_64-10-10_bottle_10_n03937543_4863.png,n03937543_4863.png,0.0,-5.6684995,-1.8648527,-2.6895845
alexnet_w1_mlp_simclrhn_probe0,1,179,NaN,oven,car,16-10-10,0179_eid_dnn_16-10-10_car_10_n04285008_10802.png,n04285008_10802.png,0.0,-8.227356,-0.060315356,-5.77497
alexnet_w1_mlp_simclrhn_probe0,1,180,NaN,bear,knife,64-10-10,0180_eid_dnn_64-10-10_knife_10_n03041632_6708.png,n03041632_6708.png,0.0,-3.6986866,-0.2479713,-2.4400241
alexnet_w1_mlp_simclrhn_probe0,1,181,NaN,elephant,dog,1-10-10,0181_eid_dnn_1-10-10_dog_10_n02107142_61109.png,n02107142_61109.png,0.0,-3.0923817,-0.41061205,-1.8962975
alexnet_w1_mlp_simclrhn_probe0,1,182,NaN,keyboard,clock,2-10-10,0182_eid_dnn_2-10-10_clock_10_n03196217_8139.png,n03196217_8139.png,0.0,-3.3945007,-1.7722516,-1.1471034
alexnet_w1_mlp_simclrhn_probe0,1,183,NaN,elephant,elephant,1-10-10,0183_eid_dnn_1-10-10_elephant_10_n02504458_6611.png,n02504458_6611.png,1.0,5.6100464,-0.4002607,4.249929
alexnet_w1_mlp_simclrhn_probe0,1,184,NaN,bear,truck,64-10-10,0184_eid_dnn_64-10-10_truck_10_n04467665_4401.png,n04467665_4401.png,0.0,-5.814618,-1.0879698,-3.342245
alexnet_w1_mlp_simclrhn_probe0,1,185,NaN,boat,boat,4-10-10,0185_eid_dnn_4-10-10_boat_10_n03344393_732.png,n03344393_732.png,1.0,0.42437807,-0.7689847,0.8438349
alexnet_w1_mlp_simclrhn_probe0,1,186,NaN,knife,knife,4-10-10,0186_eid_dnn_4-10-10_knife_10_n03041632_41381.png,n03041632_41381.png,1.0,-0.8707892,-1.9475917,0.76141435
alexnet_w1_mlp_simclrhn_probe0,1,187,NaN,oven,oven,32-10-10,0187_eid_dnn_32-10-10_oven_10_n04111531_22715.png,n04111531_22715.png,1.0,2.1871738,-0.42088667,1.8441774
alexnet_w1_mlp_simclrhn_probe0,1,188,NaN,bear,cat,16-10-10,0188_eid_dnn_16-10-10_cat_10_n02123045_3568.png,n02123045_3568.png,0.0,-2.2255843,-1.7738267,-0.31944084
alexnet_w1_mlp_simclrhn_probe0,1,189,NaN,truck,truck,2-10-10,0189_eid_dnn_2-10-10_truck_10_n03796401_18976.png,n03796401_18976.png,1.0,2.8462043,0.2503022,1.8355799
alexnet_w1_mlp_simclrhn_probe0,1,190,NaN,oven,oven,8-10-10,0190_eid_dnn_8-10-10_oven_10_n04111531_15710.png,n04111531_15710.png,1.0,1.3790185,-2.905479,3.029597
alexnet_w1_mlp_simclrhn_probe0,1,191,NaN,bear,elephant,32-10-10,0191_eid_dnn_32-10-10_elephant_10_n02504013_7232.png,n02504013_7232.png,0.0,-1.2906178,0.6996268,-1.4073155
alexnet_w1_mlp_simclrhn_probe0,1,192,NaN,oven,clock,64-10-10,0192_eid_dnn_64-10-10_clock_10_n02708093_5126.png,n02708093_5126.png,0.0,-4.2948203,-1.1493125,-2.22421
alexnet_w1_mlp_simclrhn_probe0,1,193,NaN,oven,cat,32-10-10,0193_eid_dnn_32-10-10_cat_10_n02123159_1598.png,n02123159_1598.png,0.0,-2.7400277,2.461812,-3.678256
alexnet_w1_mlp_simclrhn_probe0,1,194,NaN,car,car,1-10-10,0194_eid_dnn_1-10-10_car_10_n04285008_1661.png,n04285008_1661.png,1.0,5.879394,3.7205963,1.5265006
alexnet_w1_mlp_simclrhn_probe0,1,195,NaN,clock,clock,2-10-10,0195_eid_dnn_2-10-10_clock_10_n02708093_5551.png,n02708093_5551.png,1.0,1.8793082,-2.7743232,3.2906141
alexnet_w1_mlp_simclrhn_probe0,1,196,NaN,airplane,airplane,128-10-10,0196_eid_dnn_128-10-10_airplane_10_n02690373_693.png,n02690373_693.png,1.0,-0.65774477,-0.9706257,0.22124024
alexnet_w1_mlp_simclrhn_probe0,1,197,NaN,elephant,elephant,2-10-10,0197_eid_dnn_2-10-10_elephant_10_n02504013_3409.png,n02504013_3409.png,1.0,3.3876467,-2.1980062,3.9496531
alexnet_w1_mlp_simclrhn_probe0,1,198,NaN,bear,dog,64-10-10,0198_eid_dnn_64-10-10_dog_10_n02113712_8182.png,n02113712_8182.png,0.0,-2.5756288,-1.4241675,-0.81420606
alexnet_w1_mlp_simclrhn_probe0,1,199,NaN,bottle,bottle,1-10-10,0199_eid_dnn_1-10-10_bottle_10_n03983396_8322.png,n03983396_8322.png,1.0,0.68869054,-3.384509,2.8801873
alexnet_w1_mlp_simclrhn_probe0,1,200,NaN,bear,keyboard,64-10-10,0200_eid_dnn_64-10-10_keyboard_10_n04505470_1040.png,n04505470_1040.png,0.0,-8.013869,-0.77295756,-5.1200976
alexnet_w1_mlp_simclrhn_probe0,1,201,NaN,oven,oven,32-10-10,0201_eid_dnn_32-10-10_oven_10_n04111531_11230.png,n04111531_11230.png,1.0,-0.5254209,-1.60674,0.7646081
alexnet_w1_mlp_simclrhn_probe0,1,202,NaN,cat,cat,1-10-10,0202_eid_dnn_1-10-10_cat_10_n02123394_6269.png,n02123394_6269.png,1.0,2.3098023,-1.7143121,2.8454788
alexnet_w1_mlp_simclrhn_probe0,1,203,NaN,elephant,elephant,2-10-10,0203_eid_dnn_2-10-10_elephant_10_n02504013_2075.png,n02504013_2075.png,1.0,3.274032,-1.8475399,3.6214983
alexnet_w1_mlp_simclrhn_probe0,1,204,NaN,bear,bear,1-10-10,0204_eid_dnn_1-10-10_bear_10_n02133161_3795.png,n02133161_3795.png,1.0,-1.2840024,-3.1393898,1.311957
alexnet_w1_mlp_simclrhn_probe0,1,205,NaN,oven,oven,2-10-10,0205_eid_dnn_2-10-10_oven_10_n04111531_4322.png,n04111531_4322.png,1.0,0.8417029,-0.3885723,0.8699359
alexnet_w1_mlp_simclrhn_probe0,1,206,NaN,oven,bottle,4-10-10,0206_eid_dnn_4-10-10_bottle_10_n03937543_5799.png,n03937543_5799.png,0.0,-4.103631,-1.6257287,-1.7521416
alexnet_w1_mlp_simclrhn_probe0,1,207,NaN,oven,keyboard,8-10-10,0207_eid_dnn_8-10-10_keyboard_10_n04505470_4414.png,n04505470_4414.png,0.0,-2.9628372,-1.4523969,-1.0680426
alexnet_w1_mlp_simclrhn_probe0,1,208,NaN,dog,dog,4-10-10,0208_eid_dnn_4-10-10_dog_10_n02091032_8315.png,n02091032_8315.png,1.0,-1.8780929,-2.1309905,0.17882563
alexnet_w1_mlp_simclrhn_probe0,1,209,NaN,knife,knife,2-10-10,0209_eid_dnn_2-10-10_knife_10_n03041632_39952.png,n03041632_39952.png,1.0,1.3995748,-2.8736184,3.021604
alexnet_w1_mlp_simclrhn_probe0,1,210,NaN,oven,chair,8-10-10,0210_eid_dnn_8-10-10_chair_10_n02791124_634.png,n02791124_634.png,0.0,-4.362417,-3.0948262,-0.8963222
alexnet_w1_mlp_simclrhn_probe0,1,211,NaN,bear,boat,32-10-10,0211_eid_dnn_32-10-10_boat_10_n03344393_3355.png,n03344393_3355.png,0.0,-2.4842162,-2.3724842,-0.07900646
alexnet_w1_mlp_simclrhn_probe0,1,212,NaN,bear,dog,32-10-10,0212_eid_dnn_32-10-10_dog_10_n02102040_7188.png,n02102040_7188.png,0.0,-2.2073245,-1.3366058,-0.6156911
alexnet_w1_mlp_simclrhn_probe0,1,213,NaN,knife,chair,2-10-10,0213_eid_dnn_2-10-10_chair_10_n02791124_8711.png,n02791124_8711.png,0.0,-2.6849706,-1.7773043,-0.64181703
alexnet_w1_mlp_simclrhn_probe0,1,214,NaN,bear,bear,64-10-10,0214_eid_dnn_64-10-10_bear_10_n02132136_6002.png,n02132136_6002.png,1.0,0.1751457,0.005994439,0.11960801
alexnet_w1_mlp_simclrhn_probe0,1,215,NaN,bicycle,boat,4-10-10,0215_eid_dnn_4-10-10_boat_10_n02951358_30184.png,n02951358_30184.png,0.0,-0.8122407,-0.5493367,-0.18590124
alexnet_w1_mlp_simclrhn_probe0,1,216,NaN,elephant,bottle,128-10-10,0216_eid_dnn_128-10-10_bottle_10_n02823428_3414.png,n02823428_3414.png,0.0,-5.386914,-0.06264992,-3.7648232
alexnet_w1_mlp_simclrhn_probe0,1,217,NaN,elephant,truck,4-10-10,0217_eid_dnn_4-10-10_truck_10_n04467665_13231.png,n04467665_13231.png,0.0,-3.7056699,0.0348593,-2.6449535
alexnet_w1_mlp_simclrhn_probe0,1,218,NaN,oven,chair,4-10-10,0218_eid_dnn_4-10-10_chair_10_n04099969_8063.png,n04099969_8063.png,0.0,-2.797391,-2.3735662,-0.29968938
alexnet_w1_mlp_simclrhn_probe0,1,219,NaN,bird,bird,4-10-10,0219_eid_dnn_4-10-10_bird_10_n01534433_10234.png,n01534433_10234.png,1.0,-1.3561157,-2.7929878,1.0160221
alexnet_w1_mlp_simclrhn_probe0,1,220,NaN,elephant,elephant,4-10-10,0220_eid_dnn_4-10-10_elephant_10_n02504013_12533.png,n02504013_12533.png,1.0,-0.417433,-0.432056,0.010340034
alexnet_w1_mlp_simclrhn_probe0,1,221,NaN,knife,knife,16-10-10,0221_eid_dnn_16-10-10_knife_10_n03041632_18995.png,n03041632_18995.png,1.0,-3.1731672,-3.5582633,0.27230406
alexnet_w1_mlp_simclrhn_probe0,1,222,NaN,dog,chair,32-10-10,0222_eid_dnn_32-10-10_chair_10_n04429376_7123.png,n04429376_7123.png,0.0,-9.532339,-3.5382862,-4.2384357
alexnet_w1_mlp_simclrhn_probe0,1,223,NaN,oven,clock,64-10-10,0223_eid_dnn_64-10-10_clock_10_n03196217_9065.png,n03196217_9065.png,0.0,-3.5990677,-1.8999796,-1.2014368
alexnet_w1_mlp_simclrhn_probe0,1,224,NaN,cat,dog,4-10-10,0224_eid_dnn_4-10-10_dog_10_n02086079_4143.png,n02086079_4143.png,0.0,-1.1283466,0.49602318,-1.1486028
alexnet_w1_mlp_simclrhn_probe0,1,225,NaN,bear,bear,4-10-10,0225_eid_dnn_4-10-10_bear_10_n02132136_20162.png,n02132136_20162.png,1.0,0.4498451,-0.17011772,0.4383799
alexnet_w1_mlp_simclrhn_probe0,1,226,NaN,bottle,bottle,1-10-10,0226_eid_dnn_1-10-10_bottle_10_n03983396_4165.png,n03983396_4165.png,1.0,-3.895702,-4.3449006,0.31763148
alexnet_w1_mlp_simclrhn_probe0,1,227,NaN,bird,bird,4-10-10,0227_eid_dnn_4-10-10_bird_10_n01824575_4470.png,n01824575_4470.png,1.0,-0.6819703,-1.3493519,0.47191006
alexnet_w1_mlp_simclrhn_probe0,1,228,NaN,oven,oven,64-10-10,0228_eid_dnn_64-10-10_oven_10_n04111531_9695.png,n04111531_9695.png,1.0,0.42829746,-0.020141697,0.31709436
alexnet_w1_mlp_simclrhn_probe0,1,229,NaN,bear,bottle,64-10-10,0229_eid_dnn_64-10-10_bottle_10_n02823428_23181.png,n02823428_23181.png,0.0,-4.122459,-0.6407223,-2.4619596
alexnet_w1_mlp_simclrhn_probe0,1,230,NaN,bicycle,bicycle,2-10-10,0230_eid_dnn_2-10-10_bicycle_10_n02835271_13674.png,n02835271_13674.png,1.0,2.2456899,-3.7917204,4.269094
alexnet_w1_mlp_simclrhn_probe0,1,231,NaN,chair,chair,2-10-10,0231_eid_dnn_2-10-10_chair_10_n04429376_55747.png,n04429376_55747.png,1.0,-0.004716754,-0.5349409,0.3749251
alexnet_w1_mlp_simclrhn_probe0,1,232,NaN,oven,boat,32-10-10,0232_eid_dnn_32-10-10_boat_10_n02951358_8346.png,n02951358_8346.png,0.0,-10.761425,-0.96256185,-6.928843
alexnet_w1_mlp_simclrhn_probe0,1,233,NaN,bear,elephant,16-10-10,0233_eid_dnn_16-10-10_elephant_10_n02504013_1088.png,n02504013_1088.png,0.0,1.9863144,2.424563,-0.3098885
alexnet_w1_mlp_simclrhn_probe0,1,234,NaN,oven,car,8-10-10,0234_eid_dnn_8-10-10_car_10_n03100240_11191.png,n03100240_11191.png,0.0,-2.9048755,-2.3438048,-0.3967369
alexnet_w1_mlp_simclrhn_probe0,1,235,NaN,chair,chair,8-10-10,0235_eid_dnn_8-10-10_chair_10_n04099969_19966.png,n04099969_19966.png,1.0,-3.0353017,-3.6615279,0.44280878
alexnet_w1_mlp_simclrhn_probe0,1,236,NaN,oven,bicycle,32-10-10,0236_eid_dnn_32-10-10_bicycle_10_n03792782_15016.png,n03792782_15016.png,0.0,-8.715986,-0.77174115,-5.6174297
alexnet_w1_mlp_simclrhn_probe0,1,237,NaN,bear,boat,128-10-10,0237_eid_dnn_128-10-10_boat_10_n02951358_17867.png,n02951358_17867.png,0.0,-4.9433336,0.1965239,-3.634428
alexnet_w1_mlp_simclrhn_probe0,1,238,NaN,cat,cat,2-10-10,0238_eid_dnn_2-10-10_cat_10_n02123045_2364.png,n02123045_2364.png,1.0,-0.27032197,-4.843489,3.2337177
alexnet_w1_mlp_simclrhn_probe0,1,239,NaN,bear,bear,2-10-10,0239_eid_dnn_2-10-10_bear_10_n02132136_9433.png,n02132136_9433.png,1.0,0.53703684,-1.0418826,1.1164646
alexnet_w1_mlp_simclrhn_probe0,1,240,NaN,oven,clock,32-10-10,0240_eid_dnn_32-10-10_clock_10_n03196217_3167.png,n03196217_3167.png,0.0,-9.389861,-1.4791287,-5.5937324
alexnet_w1_mlp_simclrhn_probe0,1,241,NaN,oven,clock,32-10-10,0241_eid_dnn_32-10-10_clock_10_n03196217_3129.png,n03196217_3129.png,0.0,-6.7061687,-2.4951015,-2.9776742
alexnet_w1_mlp_simclrhn_probe0,1,242,NaN,bear,keyboard,128-10-10,0242_eid_dnn_128-10-10_keyboard_10_n03085013_6067.png,n03085013_6067.png,0.0,-5.889984,-0.98120713,-3.4710298
alexnet_w1_mlp_simclrhn_probe0,1,243,NaN,keyboard,keyboard,2-10-10,0243_eid_dnn_2-10-10_keyboard_10_n03085013_24648.png,n03085013_24648.png,1.0,2.8166761,-1.4201337,2.995877
alexnet_w1_mlp_simclrhn_probe0,1,244,NaN,oven,oven,32-10-10,0244_eid_dnn_32-10-10_oven_10_n04111531_6695.png,n04111531_6695.png,1.0,0.4864219,-1.0495312,1.0860829
alexnet_w1_mlp_simclrhn_probe0,1,245,NaN,bear,dog,4-10-10,0245_eid_dnn_4-10-10_dog_10_n02111500_4875.png,n02111500_4875.png,0.0,-0.42484432,-0.41715193,-0.0054393457
alexnet_w1_mlp_simclrhn_probe0,1,246,NaN,oven,oven,32-10-10,0246_eid_dnn_32-10-10_oven_10_n04111531_13018.png,n04111531_13018.png,1.0,-0.6909834,-2.099889,0.99624676
alexnet_w1_mlp_simclrhn_probe0,1,247,NaN,cat,keyboard,128-10-10,0247_eid_dnn_128-10-10_keyboard_10_n03085013_23030.png,n03085013_23030.png,0.0,-7.791143,-1.2825882,-4.602243
alexnet_w1_mlp_simclrhn_probe0,1,248,NaN,dog,cat,8-10-10,0248_eid_dnn_8-10-10_cat_10_n02123045_8409.png,n02123045_8409.png,0.0,-2.1699476,-1.0217401,-0.8119054
alexnet_w1_mlp_simclrhn_probe0,1,249,NaN,bicycle,bicycle,4-10-10,0249_eid_dnn_4-10-10_bicycle_10_n03792782_37777.png,n03792782_37777.png,1.0,1.1274792,-3.69426,3.4094846
alexnet_w1_mlp_simclrhn_probe0,1,250,NaN,elephant,airplane,64-10-10,0250_eid_dnn_64-10-10_airplane_10_n02690373_614.png,n02690373_614.png,0.0,-3.6448119,-0.55639905,-2.1838377
alexnet_w1_mlp_simclrhn_probe0,1,251,NaN,bear,keyboard,128-10-10,0251_eid_dnn_128-10-10_keyboard_10_n03085013_19775.png,n03085013_19775.png,0.0,-9.2762985,-1.0509574,-5.8161945
alexnet_w1_mlp_simclrhn_probe0,1,252,NaN,bear,bear,8-10-10,0252_eid_dnn_8-10-10_bear_10_n02133161_1244.png,n02133161_1244.png,1.0,1.8622715,-0.676513,1.7951918
alexnet_w1_mlp_simclrhn_probe0,1,253,NaN,car,keyboard,2-10-10,0253_eid_dnn_2-10-10_keyboard_10_n04505470_4368.png,n04505470_4368.png,0.0,-1.4571574,-0.43443346,-0.72317505
alexnet_w1_mlp_simclrhn_probe0,1,254,NaN,oven,oven,2-10-10,0254_eid_dnn_2-10-10_oven_10_n04111531_7728.png,n04111531_7728.png,1.0,3.2028937,-2.0469425,3.7121947
alexnet_w1_mlp_simclrhn_probe0,1,255,NaN,oven,clock,8-10-10,0255_eid_dnn_8-10-10_clock_10_n04548280_1.png,n04548280_1.png,0.0,-10.710342,-0.1616054,-7.459083
alexnet_w1_mlp_simclrhn_probe0,1,256,NaN,oven,cat,64-10-10,0256_eid_dnn_64-10-10_cat_10_n02123394_3062.png,n02123394_3062.png,0.0,-2.1949396,-0.67416584,-1.0753495
alexnet_w1_mlp_simclrhn_probe0,1,257,NaN,elephant,elephant,2-10-10,0257_eid_dnn_2-10-10_elephant_10_n02504013_466.png,n02504013_466.png,1.0,2.3780432,-3.4491756,4.120466
alexnet_w1_mlp_simclrhn_probe0,1,258,NaN,elephant,elephant,1-10-10,0258_eid_dnn_1-10-10_elephant_10_n02504013_6275.png,n02504013_6275.png,1.0,0.6419022,-3.4495049,2.8930616
alexnet_w1_mlp_simclrhn_probe0,1,259,NaN,bird,bird,4-10-10,0259_eid_dnn_4-10-10_bird_10_n01560419_5466.png,n01560419_5466.png,1.0,-3.00455,-3.372381,0.2600958
alexnet_w1_mlp_simclrhn_probe0,1,260,NaN,dog,truck,8-10-10,0260_eid_dnn_8-10-10_truck_10_n03796401_5227.png,n03796401_5227.png,0.0,-8.877075,-3.582933,-3.7435238
alexnet_w1_mlp_simclrhn_probe0,1,261,NaN,chair,chair,2-10-10,0261_eid_dnn_2-10-10_chair_10_n04099969_25124.png,n04099969_25124.png,1.0,1.3145661,-0.23857859,1.0982392
alexnet_w1_mlp_simclrhn_probe0,1,262,NaN,elephant,elephant,64-10-10,0262_eid_dnn_64-10-10_elephant_10_n02504013_7209.png,n02504013_7209.png,1.0,-0.07557062,-1.0372139,0.6799845
alexnet_w1_mlp_simclrhn_probe0,1,263,NaN,cat,cat,1-10-10,0263_eid_dnn_1-10-10_cat_10_n02123597_4756.png,n02123597_4756.png,1.0,-2.1869495,-2.6097054,0.2989336
alexnet_w1_mlp_simclrhn_probe0,1,264,NaN,oven,bicycle,16-10-10,0264_eid_dnn_16-10-10_bicycle_10_n02835271_4654.png,n02835271_4654.png,0.0,-4.5699034,-4.1771812,-0.2776965
alexnet_w1_mlp_simclrhn_probe0,1,265,NaN,keyboard,keyboard,1-10-10,0265_eid_dnn_1-10-10_keyboard_10_n04505470_2389.png,n04505470_2389.png,1.0,3.0838401,-3.0344095,4.3262563
alexnet_w1_mlp_simclrhn_probe0,1,266,NaN,bear,knife,128-10-10,0266_eid_dnn_128-10-10_knife_10_n03041632_379.png,n03041632_379.png,0.0,-2.5539665,-1.0993026,-1.0286027
alexnet_w1_mlp_simclrhn_probe0,1,267,NaN,bicycle,clock,8-10-10,0267_eid_dnn_8-10-10_clock_10_n02708093_899.png,n02708093_899.png,0.0,-6.1230392,-2.3232818,-2.6868343
alexnet_w1_mlp_simclrhn_probe0,1,268,NaN,oven,truck,128-10-10,0268_eid_dnn_128-10-10_truck_10_n03417042_10154.png,n03417042_10154.png,0.0,-9.026279,-0.46631083,-6.052812
alexnet_w1_mlp_simclrhn_probe0,1,269,NaN,bottle,bottle,2-10-10,0269_eid_dnn_2-10-10_bottle_10_n04579145_3415.png,n04579145_3415.png,1.0,-2.1155658,-3.8789928,1.2469312
alexnet_w1_mlp_simclrhn_probe0,1,270,NaN,bear,chair,16-10-10,0270_eid_dnn_16-10-10_chair_10_n02791124_146.png,n02791124_146.png,0.0,-7.9791083,0.3620885,-5.898117
alexnet_w1_mlp_simclrhn_probe0,1,271,NaN,bear,elephant,128-10-10,0271_eid_dnn_128-10-10_elephant_10_n02504458_2835.png,n02504458_2835.png,0.0,-1.4305924,-1.0503639,-0.26886216
alexnet_w1_mlp_simclrhn_probe0,1,272,NaN,bicycle,bicycle,1-10-10,0272_eid_dnn_1-10-10_bicycle_10_n03792782_13835.png,n03792782_13835.png,1.0,0.77031183,-1.3251224,1.4816958
alexnet_w1_mlp_simclrhn_probe0,1,273,NaN,bear,bicycle,32-10-10,0273_eid_dnn_32-10-10_bicycle_10_n02835271_12926.png,n02835271_12926.png,0.0,-5.1790233,0.44920304,-3.979757
alexnet_w1_mlp_simclrhn_probe0,1,274,NaN,dog,dog,2-10-10,0274_eid_dnn_2-10-10_dog_10_n02110185_11605.png,n02110185_11605.png,1.0,-0.876592,-1.4333321,0.3936747
alexnet_w1_mlp_simclrhn_probe0,1,275,NaN,bear,elephant,128-10-10,0275_eid_dnn_128-10-10_elephant_10_n02504458_3091.png,n02504458_3091.png,0.0,-0.18780732,0.52934736,-0.50710493
alexnet_w1_mlp_simclrhn_probe0,1,276,NaN,elephant,chair,128-10-10,0276_eid_dnn_128-10-10_chair_10_n04099969_5233.png,n04099969_5233.png,0.0,-7.4651694,0.1915808,-5.41414
alexnet_w1_mlp_simclrhn_probe0,1,277,NaN,cat,dog,2-10-10,0277_eid_dnn_2-10-10_dog_10_n02097209_7628.png,n02097209_7628.png,0.0,-0.9721668,-0.78214854,-0.13436319
alexnet_w1_mlp_simclrhn_probe0,1,278,NaN,bear,cat,8-10-10,0278_eid_dnn_8-10-10_cat_10_n02123597_10941.png,n02123597_10941.png,0.0,-0.75087124,0.44913852,-0.8485351
alexnet_w1_mlp_simclrhn_probe0,1,279,NaN,oven,clock,16-10-10,0279_eid_dnn_16-10-10_clock_10_n02708093_3006.png,n02708093_3006.png,0.0,-6.938982,-1.6041601,-3.7722886
alexnet_w1_mlp_simclrhn_probe0,1,280,NaN,truck,truck,1-10-10,0280_eid_dnn_1-10-10_truck_10_n03796401_26620.png,n03796401_26620.png,1.0,-0.49993593,-1.2728063,0.5465019
alexnet_w1_mlp_simclrhn_probe0,1,281,NaN,bear,bear,128-10-10,0281_eid_dnn_128-10-10_bear_10_n02134418_12733.png,n02134418_12733.png,1.0,-0.13746235,-1.5616047,1.0070207
alexnet_w1_mlp_simclrhn_probe0,1,282,NaN,knife,knife,2-10-10,0282_eid_dnn_2-10-10_knife_10_n03041632_4806.png,n03041632_4806.png,1.0,-1.084774,-3.2322407,1.5184883
alexnet_w1_mlp_simclrhn_probe0,1,283,NaN,oven,oven,4-10-10,0283_eid_dnn_4-10-10_oven_10_n04111531_17922.png,n04111531_17922.png,1.0,2.6977758,-3.7914605,4.588583
alexnet_w1_mlp_simclrhn_probe0,1,284,NaN,bottle,bottle,1-10-10,0284_eid_dnn_1-10-10_bottle_10_n04579145_6818.png,n04579145_6818.png,1.0,1.1278437,-2.6563857,2.6758542
alexnet_w1_mlp_simclrhn_probe0,1,285,NaN,keyboard,keyboard,4-10-10,0285_eid_dnn_4-10-10_keyboard_10_n04505470_494.png,n04505470_494.png,1.0,3.0315008,-0.6244182,2.5851252
alexnet_w1_mlp_simclrhn_probe0,1,286,NaN,cat,cat,8-10-10,0286_eid_dnn_8-10-10_cat_10_n02123045_10834.png,n02123045_10834.png,1.0,-0.70873475,-2.007916,0.91865987
alexnet_w1_mlp_simclrhn_probe0,1,287,NaN,cat,cat,128-10-10,0287_eid_dnn_128-10-10_cat_10_n02123394_176.png,n02123394_176.png,1.0,-0.17161906,-0.44084913,0.1903744
alexnet_w1_mlp_simclrhn_probe0,1,288,NaN,elephant,chair,128-10-10,0288_eid_dnn_128-10-10_chair_10_n03376595_2891.png,n03376595_2891.png,0.0,-9.7112255,-0.9380889,-6.203544
alexnet_w1_mlp_simclrhn_probe0,1,289,NaN,dog,dog,8-10-10,0289_eid_dnn_8-10-10_dog_10_n02093256_5647.png,n02093256_5647.png,1.0,-0.3795352,-1.1767124,0.5636894
alexnet_w1_mlp_simclrhn_probe0,1,290,NaN,bear,knife,64-10-10,0290_eid_dnn_64-10-10_knife_10_n03041632_33326.png,n03041632_33326.png,0.0,-4.384026,-1.134731,-2.2975986
alexnet_w1_mlp_simclrhn_probe0,1,291,NaN,oven,airplane,8-10-10,0291_eid_dnn_8-10-10_airplane_10_n02690373_2856.png,n02690373_2856.png,0.0,-1.8343294,-0.14586817,-1.1939224
alexnet_w1_mlp_simclrhn_probe0,1,292,NaN,bear,bicycle,128-10-10,0292_eid_dnn_128-10-10_bicycle_10_n03792782_9651.png,n03792782_9651.png,0.0,-3.6962574,-0.23797008,-2.4453783
alexnet_w1_mlp_simclrhn_probe0,1,293,NaN,bicycle,bicycle,2-10-10,0293_eid_dnn_2-10-10_bicycle_10_n02835271_7438.png,n02835271_7438.png,1.0,-0.2600509,-5.056479,3.391587
alexnet_w1_mlp_simclrhn_probe0,1,294,NaN,bear,bicycle,128-10-10,0294_eid_dnn_128-10-10_bicycle_10_n02835271_26639.png,n02835271_26639.png,0.0,-4.953697,-2.200712,-1.9466546
alexnet_w1_mlp_simclrhn_probe0,1,295,NaN,keyboard,keyboard,8-10-10,0295_eid_dnn_8-10-10_keyboard_10_n04505470_4458.png,n04505470_4458.png,1.0,3.1723518,-0.7830983,2.7969255
alexnet_w1_mlp_simclrhn_probe0,1,296,NaN,bear,dog,64-10-10,0296_eid_dnn_64-10-10_dog_10_n02106662_24847.png,n02106662_24847.png,0.0,-2.8090506,-0.8100384,-1.4135151
alexnet_w1_mlp_simclrhn_probe0,1,297,NaN,bear,chair,32-10-10,0297_eid_dnn_32-10-10_chair_10_n03376595_8995.png,n03376595_8995.png,0.0,-7.4147034,-0.3364895,-5.005053
alexnet_w1_mlp_simclrhn_probe0,1,298,NaN,bear,bicycle,64-10-10,0298_eid_dnn_64-10-10_bicycle_10_n03792782_6030.png,n03792782_6030.png,0.0,-3.681531,-1.0038816,-1.8933841
alexnet_w1_mlp_simclrhn_probe0,1,299,NaN,elephant,elephant,4-10-10,0299_eid_dnn_4-10-10_elephant_10_n02504458_7258.png,n02504458_7258.png,1.0,1.6841661,0.029119976,1.1702943
alexnet_w1_mlp_simclrhn_probe0,1,300,NaN,bear,boat,128-10-10,0300_eid_dnn_128-10-10_boat_10_n03662601_23903.png,n03662601_23903.png,0.0,-4.246225,-1.6213524,-1.8560652
alexnet_w1_mlp_simclrhn_probe0,1,301,NaN,bear,bird,16-10-10,0301_eid_dnn_16-10-10_bird_10_n02002724_578.png,n02002724_578.png,0.0,-4.1441026,-0.121989325,-2.8440638
alexnet_w1_mlp_simclrhn_probe0,1,302,NaN,elephant,chair,64-10-10,0302_eid_dnn_64-10-10_chair_10_n03376595_2393.png,n03376595_2393.png,0.0,-5.4754915,-1.1374857,-3.0674336
alexnet_w1_mlp_simclrhn_probe0,1,303,NaN,airplane,boat,16-10-10,0303_eid_dnn_16-10-10_boat_10_n03662601_5118.png,n03662601_5118.png,0.0,-2.0293965,-1.1957533,-0.5894748
alexnet_w1_mlp_simclrhn_probe0,1,304,NaN,oven,chair,8-10-10,0304_eid_dnn_8-10-10_chair_10_n04429376_21845.png,n04429376_21845.png,0.0,-5.3789206,-1.0465766,-3.0634298
alexnet_w1_mlp_simclrhn_probe0,1,305,NaN,dog,dog,8-10-10,0305_eid_dnn_8-10-10_dog_10_n02102040_2216.png,n02102040_2216.png,1.0,-2.3831203,-2.6290781,0.17391847
alexnet_w1_mlp_simclrhn_probe0,1,306,NaN,airplane,airplane,8-10-10,0306_eid_dnn_8-10-10_airplane_10_n02690373_3032.png,n02690373_3032.png,1.0,1.1833417,-1.4870195,1.8882306
alexnet_w1_mlp_simclrhn_probe0,1,307,NaN,bear,dog,8-10-10,0307_eid_dnn_8-10-10_dog_10_n02100735_2228.png,n02100735_2228.png,0.0,-1.8560708,-1.7615398,-0.06684347
alexnet_w1_mlp_simclrhn_probe0,1,308,NaN,bear,bird,8-10-10,0308_eid_dnn_8-10-10_bird_10_n01532829_13864.png,n01532829_13864.png,0.0,-2.9805775,-2.4823825,-0.352277
alexnet_w1_mlp_simclrhn_probe0,1,309,NaN,bear,bird,64-10-10,0309_eid_dnn_64-10-10_bird_10_n01601694_13787.png,n01601694_13787.png,0.0,-3.4198215,-0.6817697,-1.9360951
alexnet_w1_mlp_simclrhn_probe0,1,310,NaN,bear,bear,64-10-10,0310_eid_dnn_64-10-10_bear_10_n02134084_22150.png,n02134084_22150.png,1.0,-1.0173115,-2.26151,0.8797812
alexnet_w1_mlp_simclrhn_probe0,1,311,NaN,oven,knife,16-10-10,0311_eid_dnn_16-10-10_knife_10_n03041632_29427.png,n03041632_29427.png,0.0,-5.2985663,-0.09316978,-3.6807714
alexnet_w1_mlp_simclrhn_probe0,1,312,NaN,oven,chair,4-10-10,0312_eid_dnn_4-10-10_chair_10_n02791124_2804.png,n02791124_2804.png,0.0,-2.8521292,-2.608741,-0.17210144
alexnet_w1_mlp_simclrhn_probe0,1,313,NaN,bottle,bottle,4-10-10,0313_eid_dnn_4-10-10_bottle_10_n04591713_5046.png,n04591713_5046.png,1.0,1.0411516,-1.3447788,1.6871077
alexnet_w1_mlp_simclrhn_probe0,1,314,NaN,elephant,bicycle,128-10-10,0314_eid_dnn_128-10-10_bicycle_10_n03792782_4210.png,n03792782_4210.png,0.0,-5.1218834,-0.61028016,-3.1901853
alexnet_w1_mlp_simclrhn_probe0,1,315,NaN,bear,cat,128-10-10,0315_eid_dnn_128-10-10_cat_10_n02123159_1596.png,n02123159_1596.png,0.0,-1.1103932,-0.68198454,-0.30293065
alexnet_w1_mlp_simclrhn_probe0,1,316,NaN,car,car,2-10-10,0316_eid_dnn_2-10-10_car_10_n03100240_17588.png,n03100240_17588.png,1.0,1.5812842,1.5096649,0.050642475
alexnet_w1_mlp_simclrhn_probe0,1,317,NaN,dog,keyboard,4-10-10,0317_eid_dnn_4-10-10_keyboard_10_n03085013_23295.png,n03085013_23295.png,0.0,-8.328495,-1.6906549,-4.693662
alexnet_w1_mlp_simclrhn_probe0,1,318,NaN,oven,oven,32-10-10,0318_eid_dnn_32-10-10_oven_10_n04111531_4879.png,n04111531_4879.png,1.0,0.87566864,-0.19511053,0.75715524
alexnet_w1_mlp_simclrhn_probe0,1,319,NaN,oven,keyboard,32-10-10,0319_eid_dnn_32-10-10_keyboard_10_n04505470_4569.png,n04505470_4569.png,0.0,-10.63574,0.3115393,-7.740896
alexnet_w1_mlp_simclrhn_probe0,1,320,NaN,oven,truck,8-10-10,0320_eid_dnn_8-10-10_truck_10_n04467665_24190.png,n04467665_24190.png,0.0,-6.23798,-1.6184665,-3.2664893
alexnet_w1_mlp_simclrhn_probe0,1,321,NaN,cat,cat,4-10-10,0321_eid_dnn_4-10-10_cat_10_n02124075_15405.png,n02124075_15405.png,1.0,-1.4455246,-1.5568547,0.078722306
alexnet_w1_mlp_simclrhn_probe0,1,322,NaN,dog,knife,8-10-10,0322_eid_dnn_8-10-10_knife_10_n03041632_24817.png,n03041632_24817.png,0.0,-3.8858173,-2.6975293,-0.8402465
alexnet_w1_mlp_simclrhn_probe0,1,323,NaN,bear,elephant,64-10-10,0323_eid_dnn_64-10-10_elephant_10_n02504013_5505.png,n02504013_5505.png,0.0,-0.8539123,-0.47738713,-0.2662435
alexnet_w1_mlp_simclrhn_probe0,1,324,NaN,airplane,airplane,8-10-10,0324_eid_dnn_8-10-10_airplane_10_n02690373_8846.png,n02690373_8846.png,1.0,0.6265497,-1.345486,1.3944399
alexnet_w1_mlp_simclrhn_probe0,1,325,NaN,oven,truck,32-10-10,0325_eid_dnn_32-10-10_truck_10_n04467665_50806.png,n04467665_50806.png,0.0,-5.469471,-1.4563222,-2.8377247
alexnet_w1_mlp_simclrhn_probe0,1,326,NaN,elephant,elephant,4-10-10,0326_eid_dnn_4-10-10_elephant_10_n02504458_5539.png,n02504458_5539.png,1.0,5.150365,0.10059759,3.570725
alexnet_w1_mlp_simclrhn_probe0,1,327,NaN,boat,boat,1-10-10,0327_eid_dnn_1-10-10_boat_10_n03344393_1178.png,n03344393_1178.png,1.0,1.809898,0.7588157,0.7432275
alexnet_w1_mlp_simclrhn_probe0,1,328,NaN,truck,truck,4-10-10,0328_eid_dnn_4-10-10_truck_10_n04467665_10025.png,n04467665_10025.png,1.0,2.6561127,-1.0352584,2.6101935
alexnet_w1_mlp_simclrhn_probe0,1,329,NaN,clock,clock,4-10-10,0329_eid_dnn_4-10-10_clock_10_n02708093_2869.png,n02708093_2869.png,1.0,-2.0664532,-3.5296974,1.0346699
alexnet_w1_mlp_simclrhn_probe0,1,330,NaN,knife,bottle,8-10-10,0330_eid_dnn_8-10-10_bottle_10_n03983396_4879.png,n03983396_4879.png,0.0,-4.1832895,-4.0612135,-0.086320795
alexnet_w1_mlp_simclrhn_probe0,1,331,NaN,oven,keyboard,128-10-10,0331_eid_dnn_128-10-10_keyboard_10_n03085013_10367.png,n03085013_10367.png,0.0,-5.1193376,-0.92347586,-2.9669223
alexnet_w1_mlp_simclrhn_probe0,1,332,NaN,bear,bird,64-10-10,0332_eid_dnn_64-10-10_bird_10_n01860187_21300.png,n01860187_21300.png,0.0,-4.3676987,-1.504298,-2.02473
alexnet_w1_mlp_simclrhn_probe0,1,333,NaN,bear,knife,32-10-10,0333_eid_dnn_32-10-10_knife_10_n03041632_5302.png,n03041632_5302.png,0.0,-4.42372,-2.3316357,-1.479327
alexnet_w1_mlp_simclrhn_probe0,1,334,NaN,bear,bear,4-10-10,0334_eid_dnn_4-10-10_bear_10_n02134084_5274.png,n02134084_5274.png,1.0,2.730466,0.6838299,1.4471903
alexnet_w1_mlp_simclrhn_probe0,1,335,NaN,knife,knife,4-10-10,0335_eid_dnn_4-10-10_knife_10_n03041632_48816.png,n03041632_48816.png,1.0,-0.89228886,-1.9997157,0.7830691
alexnet_w1_mlp_simclrhn_probe0,1,336,NaN,elephant,elephant,16-10-10,0336_eid_dnn_16-10-10_elephant_10_n02504013_3295.png,n02504013_3295.png,1.0,-0.90336645,-1.3960841,0.348404
alexnet_w1_mlp_simclrhn_probe0,1,337,NaN,oven,truck,128-10-10,0337_eid_dnn_128-10-10_truck_10_n03417042_2478.png,n03417042_2478.png,0.0,-5.268953,-1.2766328,-2.8229966
alexnet_w1_mlp_simclrhn_probe0,1,338,NaN,oven,oven,32-10-10,0338_eid_dnn_32-10-10_oven_10_n04111531_5350.png,n04111531_5350.png,1.0,0.20484997,-1.5480932,1.239518
alexnet_w1_mlp_simclrhn_probe0,1,339,NaN,airplane,airplane,8-10-10,0339_eid_dnn_8-10-10_airplane_10_n02690373_1663.png,n02690373_1663.png,1.0,-1.7990109,-2.3735683,0.40627345
alexnet_w1_mlp_simclrhn_probe0,1,340,NaN,boat,boat,4-10-10,0340_eid_dnn_4-10-10_boat_10_n03344393_1422.png,n03344393_1422.png,1.0,-0.38603115,-1.5471432,0.82103026
alexnet_w1_mlp_simclrhn_probe0,1,341,NaN,bear,cat,32-10-10,0341_eid_dnn_32-10-10_cat_10_n02123159_3312.png,n02123159_3312.png,0.0,-2.066023,-1.6922948,-0.2642658
alexnet_w1_mlp_simclrhn_probe0,1,342,NaN,bear,chair,64-10-10,0342_eid_dnn_64-10-10_chair_10_n03376595_6171.png,n03376595_6171.png,0.0,-9.373392,-0.7248241,-6.1154613
alexnet_w1_mlp_simclrhn_probe0,1,343,NaN,bottle,bottle,8-10-10,0343_eid_dnn_8-10-10_bottle_10_n04591713_1616.png,n04591713_1616.png,1.0,-2.7927725,-3.2952425,0.35529995
alexnet_w1_mlp_simclrhn_probe0,1,344,NaN,bear,bear,128-10-10,0344_eid_dnn_128-10-10_bear_10_n02133161_1197.png,n02133161_1197.png,1.0,-0.9777709,-1.6500522,0.47537464
alexnet_w1_mlp_simclrhn_probe0,1,345,NaN,oven,truck,4-10-10,0345_eid_dnn_4-10-10_truck_10_n04467665_663.png,n04467665_663.png,0.0,-5.057948,-0.47633746,-3.239688
alexnet_w1_mlp_simclrhn_probe0,1,346,NaN,bear,bear,4-10-10,0346_eid_dnn_4-10-10_bear_10_n02132136_2771.png,n02132136_2771.png,1.0,-0.50304747,-2.2557266,1.2393312
alexnet_w1_mlp_simclrhn_probe0,1,347,NaN,oven,cat,16-10-10,0347_eid_dnn_16-10-10_cat_10_n02123394_12.png,n02123394_12.png,0.0,-3.3333511,-2.527069,-0.5701275
alexnet_w1_mlp_simclrhn_probe0,1,348,NaN,bear,car,8-10-10,0348_eid_dnn_8-10-10_car_10_n04285008_1795.png,n04285008_1795.png,0.0,-6.646801,-3.9006786,-1.9418018
alexnet_w1_mlp_simclrhn_probe0,1,349,NaN,bear,boat,4-10-10,0349_eid_dnn_4-10-10_boat_10_n04273569_1023.png,n04273569_1023.png,0.0,-1.5455686,-1.1420325,-0.2853431
alexnet_w1_mlp_simclrhn_probe0,1,350,NaN,boat,boat,1-10-10,0350_eid_dnn_1-10-10_boat_10_n03662601_21775.png,n03662601_21775.png,1.0,5.507701,0.74819857,3.3654764
alexnet_w1_mlp_simclrhn_probe0,1,351,NaN,clock,clock,1-10-10,0351_eid_dnn_1-10-10_clock_10_n03196217_71.png,n03196217_71.png,1.0,-0.45587325,-1.0513848,0.42109028
alexnet_w1_mlp_simclrhn_probe0,1,352,NaN,keyboard,keyboard,4-10-10,0352_eid_dnn_4-10-10_keyboard_10_n04505470_3122.png,n04505470_3122.png,1.0,-1.9372244,-2.073686,0.09649285
alexnet_w1_mlp_simclrhn_probe0,1,353,NaN,oven,dog,32-10-10,0353_eid_dnn_32-10-10_dog_10_n02099849_4640.png,n02099849_4640.png,0.0,-1.9378768,-0.19848856,-1.2299333
alexnet_w1_mlp_simclrhn_probe0,1,354,NaN,bear,bottle,64-10-10,0354_eid_dnn_64-10-10_bottle_10_n02823428_6418.png,n02823428_6418.png,0.0,-5.222447,0.43491238,-4.000357
alexnet_w1_mlp_simclrhn_probe0,1,355,NaN,oven,car,8-10-10,0355_eid_dnn_8-10-10_car_10_n04285008_11704.png,n04285008_11704.png,0.0,-5.688438,-1.3172778,-3.090877
alexnet_w1_mlp_simclrhn_probe0,1,356,NaN,knife,clock,32-10-10,0356_eid_dnn_32-10-10_clock_10_n02708093_3544.png,n02708093_3544.png,0.0,-2.623033,-1.6580256,-0.68236333
alexnet_w1_mlp_simclrhn_probe0,1,357,NaN,dog,clock,8-10-10,0357_eid_dnn_8-10-10_clock_10_n04548280_4599.png,n04548280_4599.png,0.0,-7.368073,-3.8324249,-2.5000808
alexnet_w1_mlp_simclrhn_probe0,1,358,NaN,oven,car,128-10-10,0358_eid_dnn_128-10-10_car_10_n03100240_6259.png,n03100240_6259.png,0.0,-10.647021,-0.17900866,-7.402003
alexnet_w1_mlp_simclrhn_probe0,1,359,NaN,boat,boat,8-10-10,0359_eid_dnn_8-10-10_boat_10_n04273569_3401.png,n04273569_3401.png,1.0,0.26429597,-0.93746245,0.8497715
alexnet_w1_mlp_simclrhn_probe0,1,360,NaN,bear,truck,64-10-10,0360_eid_dnn_64-10-10_truck_10_n04467665_13898.png,n04467665_13898.png,0.0,-5.968854,-1.5316133,-3.137603
alexnet_w1_mlp_simclrhn_probe0,1,361,NaN,truck,clock,2-10-10,0361_eid_dnn_2-10-10_clock_10_n03196217_1499.png,n03196217_1499.png,0.0,-1.4211432,0.2022892,-1.14794
alexnet_w1_mlp_simclrhn_probe0,1,362,NaN,car,car,4-10-10,0362_eid_dnn_4-10-10_car_10_n03100240_8702.png,n03100240_8702.png,1.0,-1.7557573,-3.5359144,1.2587612
alexnet_w1_mlp_simclrhn_probe0,1,363,NaN,bear,bear,4-10-10,0363_eid_dnn_4-10-10_bear_10_n02134418_1770.png,n02134418_1770.png,1.0,0.24317098,-1.2801445,1.0771466
alexnet_w1_mlp_simclrhn_probe0,1,364,NaN,bear,bear,16-10-10,0364_eid_dnn_16-10-10_bear_10_n02132136_32838.png,n02132136_32838.png,1.0,1.6742331,-0.9572059,1.8607084
alexnet_w1_mlp_simclrhn_probe0,1,365,NaN,boat,truck,4-10-10,0365_eid_dnn_4-10-10_truck_10_n04467665_68331.png,n04467665_68331.png,0.0,-3.682816,-1.5431602,-1.5129652
alexnet_w1_mlp_simclrhn_probe0,1,366,NaN,airplane,airplane,1-10-10,0366_eid_dnn_1-10-10_airplane_10_n02690373_4506.png,n02690373_4506.png,1.0,6.881858,-0.3743335,5.1309023
alexnet_w1_mlp_simclrhn_probe0,1,367,NaN,car,car,2-10-10,0367_eid_dnn_2-10-10_car_10_n03100240_5308.png,n03100240_5308.png,1.0,1.9727446,-0.6363775,1.8449279
alexnet_w1_mlp_simclrhn_probe0,1,368,NaN,oven,cat,2-10-10,0368_eid_dnn_2-10-10_cat_10_n02124075_15345.png,n02124075_15345.png,0.0,-3.6743896,-0.6024693,-2.172176
alexnet_w1_mlp_simclrhn_probe0,1,369,NaN,oven,bicycle,128-10-10,0369_eid_dnn_128-10-10_bicycle_10_n03792782_50972.png,n03792782_50972.png,0.0,-2.9639733,-1.3493947,-1.1416795
alexnet_w1_mlp_simclrhn_probe0,1,370,NaN,cat,knife,8-10-10,0370_eid_dnn_8-10-10_knife_10_n03041632_19098.png,n03041632_19098.png,0.0,-4.328982,-3.4102337,-0.6496531
alexnet_w1_mlp_simclrhn_probe0,1,371,NaN,bear,bottle,128-10-10,0371_eid_dnn_128-10-10_bottle_10_n04560804_15963.png,n04560804_15963.png,0.0,-6.270978,-0.16398153,-4.318299
alexnet_w1_mlp_simclrhn_probe0,1,372,NaN,oven,bottle,8-10-10,0372_eid_dnn_8-10-10_bottle_10_n04557648_7809.png,n04557648_7809.png,0.0,-5.03354,-0.5442012,-3.1744416
alexnet_w1_mlp_simclrhn_probe0,1,373,NaN,airplane,airplane,1-10-10,0373_eid_dnn_1-10-10_airplane_10_n02690373_17764.png,n02690373_17764.png,1.0,5.2629104,-1.5803539,4.8389187
alexnet_w1_mlp_simclrhn_probe0,1,374,NaN,oven,elephant,64-10-10,0374_eid_dnn_64-10-10_elephant_10_n02504013_7322.png,n02504013_7322.png,0.0,-3.4518304,0.32092118,-2.6677382
alexnet_w1_mlp_simclrhn_probe0,1,375,NaN,bear,bear,2-10-10,0375_eid_dnn_2-10-10_bear_10_n02134084_2959.png,n02134084_2959.png,1.0,-0.078225255,-0.35245806,0.19391188
alexnet_w1_mlp_simclrhn_probe0,1,376,NaN,bird,bird,2-10-10,0376_eid_dnn_2-10-10_bird_10_n01622779_6563.png,n01622779_6563.png,1.0,-2.1139174,-3.2696066,0.8171957
alexnet_w1_mlp_simclrhn_probe0,1,377,NaN,knife,knife,16-10-10,0377_eid_dnn_16-10-10_knife_10_n03041632_19620.png,n03041632_19620.png,1.0,-2.3467565,-2.7935493,0.31593025
alexnet_w1_mlp_simclrhn_probe0,1,378,NaN,bird,bird,4-10-10,0378_eid_dnn_4-10-10_bird_10_n01530575_35977.png,n01530575_35977.png,1.0,-0.35170513,-2.0546005,1.2041289
alexnet_w1_mlp_simclrhn_probe0,1,379,NaN,oven,cat,128-10-10,0379_eid_dnn_128-10-10_cat_10_n02123394_1757.png,n02123394_1757.png,0.0,-2.254786,-0.6394557,-1.1422111
alexnet_w1_mlp_simclrhn_probe0,1,380,NaN,cat,dog,2-10-10,0380_eid_dnn_2-10-10_dog_10_n02093647_6358.png,n02093647_6358.png,0.0,-4.134814,-2.386918,-1.2359489
alexnet_w1_mlp_simclrhn_probe0,1,381,NaN,bicycle,boat,1-10-10,0381_eid_dnn_1-10-10_boat_10_n02951358_1470.png,n02951358_1470.png,0.0,-1.667629,-1.3728453,-0.20844357
alexnet_w1_mlp_simclrhn_probe0,1,382,NaN,bear,elephant,128-10-10,0382_eid_dnn_128-10-10_elephant_10_n02504458_2026.png,n02504458_2026.png,0.0,-0.3629225,-0.03758262,-0.23005003
alexnet_w1_mlp_simclrhn_probe0,1,383,NaN,bear,elephant,32-10-10,0383_eid_dnn_32-10-10_elephant_10_n02504458_3730.png,n02504458_3730.png,0.0,-0.1442111,-0.06716801,-0.054477688
alexnet_w1_mlp_simclrhn_probe0,1,384,NaN,oven,keyboard,8-10-10,0384_eid_dnn_8-10-10_keyboard_10_n03085013_20881.png,n03085013_20881.png,0.0,-3.1503196,0.96697885,-2.9113698
alexnet_w1_mlp_simclrhn_probe0,1,385,NaN,dog,dog,4-10-10,0385_eid_dnn_4-10-10_dog_10_n02105641_8188.png,n02105641_8188.png,1.0,-0.58494,-2.0128238,1.0096663
alexnet_w1_mlp_simclrhn_probe0,1,386,NaN,bear,clock,32-10-10,0386_eid_dnn_32-10-10_clock_10_n03196217_6320.png,n03196217_6320.png,0.0,-8.323592,-3.8800097,-3.1420875
alexnet_w1_mlp_simclrhn_probe0,1,387,NaN,oven,car,32-10-10,0387_eid_dnn_32-10-10_car_10_n04285008_12333.png,n04285008_12333.png,0.0,-11.223347,-1.0004663,-7.228668
alexnet_w1_mlp_simclrhn_probe0,1,388,NaN,knife,knife,2-10-10,0388_eid_dnn_2-10-10_knife_10_n03041632_47743.png,n03041632_47743.png,1.0,-2.4294221,-3.2589378,0.5865562
alexnet_w1_mlp_simclrhn_probe0,1,389,NaN,boat,boat,8-10-10,0389_eid_dnn_8-10-10_boat_10_n04612504_8073.png,n04612504_8073.png,1.0,0.14580135,-1.7334819,1.328854
alexnet_w1_mlp_simclrhn_probe0,1,390,NaN,oven,knife,128-10-10,0390_eid_dnn_128-10-10_knife_10_n03041632_20770.png,n03041632_20770.png,0.0,-4.4169774,-0.24963227,-2.946758
alexnet_w1_mlp_simclrhn_probe0,1,391,NaN,oven,car,32-10-10,0391_eid_dnn_32-10-10_car_10_n02814533_28783.png,n02814533_28783.png,0.0,-9.133783,-0.42076743,-6.1610327
alexnet_w1_mlp_simclrhn_probe0,1,392,NaN,elephant,car,128-10-10,0392_eid_dnn_128-10-10_car_10_n02814533_13533.png,n02814533_13533.png,0.0,-8.352212,-1.6024804,-4.772781
alexnet_w1_mlp_simclrhn_probe0,1,393,NaN,dog,dog,16-10-10,0393_eid_dnn_16-10-10_dog_10_n02104029_8137.png,n02104029_8137.png,1.0,-1.4319555,-2.3194025,0.6275198
alexnet_w1_mlp_simclrhn_probe0,1,394,NaN,bicycle,bicycle,4-10-10,0394_eid_dnn_4-10-10_bicycle_10_n02835271_3990.png,n02835271_3990.png,1.0,0.57218426,-3.3858566,2.7987576
alexnet_w1_mlp_simclrhn_probe0,1,395,NaN,bear,bear,4-10-10,0395_eid_dnn_4-10-10_bear_10_n02132136_24311.png,n02132136_24311.png,1.0,1.1607412,-0.9590332,1.4989069
alexnet_w1_mlp_simclrhn_probe0,1,396,NaN,truck,truck,2-10-10,0396_eid_dnn_2-10-10_truck_10_n03796401_6966.png,n03796401_6966.png,1.0,4.1656427,0.8550213,2.340963
alexnet_w1_mlp_simclrhn_probe0,1,397,NaN,knife,knife,1-10-10,0397_eid_dnn_1-10-10_knife_10_n03041632_8468.png,n03041632_8468.png,1.0,-2.554096,-3.3587728,0.56899244
alexnet_w1_mlp_simclrhn_probe0,1,398,NaN,elephant,elephant,128-10-10,0398_eid_dnn_128-10-10_elephant_10_n02504458_6799.png,n02504458_6799.png,1.0,-0.89900887,-1.7507546,0.6022752
alexnet_w1_mlp_simclrhn_probe0,1,399,NaN,bird,keyboard,16-10-10,0399_eid_dnn_16-10-10_keyboard_10_n03085013_24402.png,n03085013_24402.png,0.0,-11.700764,-3.0800648,-6.0957546
alexnet_w1_mlp_simclrhn_probe0,1,400,NaN,bear,knife,16-10-10,0400_eid_dnn_16-10-10_knife_10_n03041632_25772.png,n03041632_25772.png,0.0,-4.757301,-0.4232643,-3.0646265
alexnet_w1_mlp_simclrhn_probe0,1,401,NaN,bear,elephant,32-10-10,0401_eid_dnn_32-10-10_elephant_10_n02504458_5839.png,n02504458_5839.png,0.0,-0.53144985,0.05629936,-0.4156015
alexnet_w1_mlp_simclrhn_probe0,1,402,NaN,bear,elephant,64-10-10,0402_eid_dnn_64-10-10_elephant_10_n02504458_5178.png,n02504458_5178.png,0.0,-2.002777,-0.9305218,-0.75819904
alexnet_w1_mlp_simclrhn_probe0,1,403,NaN,oven,bicycle,32-10-10,0403_eid_dnn_32-10-10_bicycle_10_n02835271_27014.png,n02835271_27014.png,0.0,-7.6401463,-0.9085697,-4.7599435
alexnet_w1_mlp_simclrhn_probe0,1,404,NaN,bear,car,128-10-10,0404_eid_dnn_128-10-10_car_10_n04285008_15218.png,n04285008_15218.png,0.0,-8.432739,-0.08631465,-5.901814
alexnet_w1_mlp_simclrhn_probe0,1,405,NaN,bicycle,bicycle,8-10-10,0405_eid_dnn_8-10-10_bicycle_10_n02835271_19955.png,n02835271_19955.png,1.0,-1.3107126,-3.093484,1.2606097
alexnet_w1_mlp_simclrhn_probe0,1,406,NaN,truck,truck,1-10-10,0406_eid_dnn_1-10-10_truck_10_n03796401_874.png,n03796401_874.png,1.0,2.4515376,0.40338877,1.44826
alexnet_w1_mlp_simclrhn_probe0,1,407,NaN,dog,dog,2-10-10,0407_eid_dnn_2-10-10_dog_10_n02108915_6092.png,n02108915_6092.png,1.0,-1.2196634,-1.3559682,0.09638209
alexnet_w1_mlp_simclrhn_probe0,1,408,NaN,oven,clock,16-10-10,0408_eid_dnn_16-10-10_clock_10_n04548280_6337.png,n04548280_6337.png,0.0,-9.056834,-0.7425532,-5.879085
alexnet_w1_mlp_simclrhn_probe0,1,409,NaN,bear,boat,4-10-10,0409_eid_dnn_4-10-10_boat_10_n04273569_1388.png,n04273569_1388.png,0.0,0.05202184,0.89185864,-0.5938543
alexnet_w1_mlp_simclrhn_probe0,1,410,NaN,bear,clock,64-10-10,0410_eid_dnn_64-10-10_clock_10_n02708093_2676.png,n02708093_2676.png,0.0,-10.003839,0.5482026,-7.46142
alexnet_w1_mlp_simclrhn_probe0,1,411,NaN,cat,dog,64-10-10,0411_eid_dnn_64-10-10_dog_10_n02107683_5424.png,n02107683_5424.png,0.0,-2.655664,-2.5027957,-0.10809419
alexnet_w1_mlp_simclrhn_probe0,1,412,NaN,chair,chair,1-10-10,0412_eid_dnn_1-10-10_chair_10_n04099969_29038.png,n04099969_29038.png,1.0,1.3369641,-2.164629,2.4760003
alexnet_w1_mlp_simclrhn_probe0,1,413,NaN,oven,clock,16-10-10,0413_eid_dnn_16-10-10_clock_10_n04548280_3219.png,n04548280_3219.png,0.0,-7.419024,-0.7847729,-4.691124
alexnet_w1_mlp_simclrhn_probe0,1,414,NaN,cat,clock,32-10-10,0414_eid_dnn_32-10-10_clock_10_n03196217_8282.png,n03196217_8282.png,0.0,-5.8934097,-1.8714517,-2.8439538
alexnet_w1_mlp_simclrhn_probe0,1,415,NaN,oven,oven,8-10-10,0415_eid_dnn_8-10-10_oven_10_n04111531_22041.png,n04111531_22041.png,1.0,1.933998,-3.257869,3.6712043
alexnet_w1_mlp_simclrhn_probe0,1,416,NaN,bear,bear,8-10-10,0416_eid_dnn_8-10-10_bear_10_n02134084_6964.png,n02134084_6964.png,1.0,0.75848854,-1.8349586,1.8338442
alexnet_w1_mlp_simclrhn_probe0,1,417,NaN,bear,bicycle,64-10-10,0417_eid_dnn_64-10-10_bicycle_10_n03792782_11921.png,n03792782_11921.png,0.0,-5.4554396,-0.78289455,-3.3039882
alexnet_w1_mlp_simclrhn_probe0,1,418,NaN,airplane,clock,8-10-10,0418_eid_dnn_8-10-10_clock_10_n04548280_1809.png,n04548280_1809.png,0.0,-4.535376,-3.4028094,-0.8008456
alexnet_w1_mlp_simclrhn_probe0,1,419,NaN,bird,bird,4-10-10,0419_eid_dnn_4-10-10_bird_10_n01833805_202.png,n01833805_202.png,1.0,-0.77727944,-3.4087749,1.8607483
alexnet_w1_mlp_simclrhn_probe0,1,420,NaN,oven,keyboard,64-10-10,0420_eid_dnn_64-10-10_keyboard_10_n03085013_7511.png,n03085013_7511.png,0.0,-8.867573,-1.2740197,-5.369453
alexnet_w1_mlp_simclrhn_probe0,1,421,NaN,bicycle,bird,1-10-10,0421_eid_dnn_1-10-10_bird_10_n02025239_5287.png,n02025239_5287.png,0.0,-2.4225938,-1.9339613,-0.3455154
alexnet_w1_mlp_simclrhn_probe0,1,422,NaN,bear,boat,64-10-10,0422_eid_dnn_64-10-10_boat_10_n03662601_27960.png,n03662601_27960.png,0.0,-4.8406286,-1.2973514,-2.5054755
alexnet_w1_mlp_simclrhn_probe0,1,423,NaN,elephant,bottle,1-10-10,0423_eid_dnn_1-10-10_bottle_10_n04591713_6855.png,n04591713_6855.png,0.0,-6.0283394,-2.4162865,-2.5541072
alexnet_w1_mlp_simclrhn_probe0,1,424,NaN,bear,elephant,128-10-10,0424_eid_dnn_128-10-10_elephant_10_n02504013_4424.png,n02504013_4424.png,0.0,-0.4139954,-0.16003753,-0.17957534
alexnet_w1_mlp_simclrhn_probe0,1,425,NaN,clock,clock,2-10-10,0425_eid_dnn_2-10-10_clock_10_n04548280_3295.png,n04548280_3295.png,1.0,0.20471771,-2.055073,1.5979134
alexnet_w1_mlp_simclrhn_probe0,1,426,NaN,airplane,airplane,1-10-10,0426_eid_dnn_1-10-10_airplane_10_n02690373_6144.png,n02690373_6144.png,1.0,4.427223,-2.0791736,4.6007175
alexnet_w1_mlp_simclrhn_probe0,1,427,NaN,dog,truck,32-10-10,0427_eid_dnn_32-10-10_truck_10_n04467665_70894.png,n04467665_70894.png,0.0,-6.1060185,-1.9067842,-2.9693072
alexnet_w1_mlp_simclrhn_probe0,1,428,NaN,elephant,boat,128-10-10,0428_eid_dnn_128-10-10_boat_10_n02951358_30474.png,n02951358_30474.png,0.0,-3.794766,-1.2551658,-1.7957685
alexnet_w1_mlp_simclrhn_probe0,1,429,NaN,bear,bear,4-10-10,0429_eid_dnn_4-10-10_bear_10_n02132136_6434.png,n02132136_6434.png,1.0,3.8226614,1.7984841,1.4313096
alexnet_w1_mlp_simclrhn_probe0,1,430,NaN,oven,keyboard,32-10-10,0430_eid_dnn_32-10-10_keyboard_10_n04505470_5009.png,n04505470_5009.png,0.0,-8.100761,-1.212328,-4.870858
alexnet_w1_mlp_simclrhn_probe0,1,431,NaN,keyboard,keyboard,2-10-10,0431_eid_dnn_2-10-10_keyboard_10_n03085013_13005.png,n03085013_13005.png,1.0,4.378431,-1.6023178,4.229028
alexnet_w1_mlp_simclrhn_probe0,1,432,NaN,chair,chair,1-10-10,0432_eid_dnn_1-10-10_chair_10_n03376595_6865.png,n03376595_6865.png,1.0,1.2628946,-2.5227265,2.6768384
alexnet_w1_mlp_simclrhn_probe0,1,433,NaN,bear,bicycle,32-10-10,0433_eid_dnn_32-10-10_bicycle_10_n02835271_6122.png,n02835271_6122.png,0.0,-5.5681267,-0.8022913,-3.3699546
alexnet_w1_mlp_simclrhn_probe0,1,434,NaN,oven,oven,4-10-10,0434_eid_dnn_4-10-10_oven_10_n04111531_11499.png,n04111531_11499.png,1.0,2.3564622,-0.9332659,2.326189
alexnet_w1_mlp_simclrhn_probe0,1,435,NaN,bird,bird,1-10-10,0435_eid_dnn_1-10-10_bird_10_n02009229_5765.png,n02009229_5765.png,1.0,-0.7842265,-3.1255186,1.6555436
alexnet_w1_mlp_simclrhn_probe0,1,436,NaN,bear,bottle,32-10-10,0436_eid_dnn_32-10-10_bottle_10_n04560804_2181.png,n04560804_2181.png,0.0,-5.3055625,-0.5420433,-3.368317
alexnet_w1_mlp_simclrhn_probe0,1,437,NaN,elephant,bicycle,32-10-10,0437_eid_dnn_32-10-10_bicycle_10_n03792782_3774.png,n03792782_3774.png,0.0,-4.8478327,-0.3587458,-3.174264
alexnet_w1_mlp_simclrhn_probe0,1,438,NaN,airplane,bird,16-10-10,0438_eid_dnn_16-10-10_bird_10_n01614925_1683.png,n01614925_1683.png,0.0,-1.9615961,-1.1216718,-0.5939162
alexnet_w1_mlp_simclrhn_probe0,1,439,NaN,clock,clock,8-10-10,0439_eid_dnn_8-10-10_clock_10_n02708093_4692.png,n02708093_4692.png,1.0,-3.1271627,-3.7121904,0.41367707
alexnet_w1_mlp_simclrhn_probe0,1,440,NaN,cat,dog,4-10-10,0440_eid_dnn_4-10-10_dog_10_n02109961_71298.png,n02109961_71298.png,0.0,-1.8394618,-1.6610292,-0.12617089
alexnet_w1_mlp_simclrhn_probe0,1,441,NaN,keyboard,keyboard,2-10-10,0441_eid_dnn_2-10-10_keyboard_10_n03085013_23269.png,n03085013_23269.png,1.0,-1.2275798,-2.4687967,0.8776729
alexnet_w1_mlp_simclrhn_probe0,1,442,NaN,elephant,elephant,2-10-10,0442_eid_dnn_2-10-10_elephant_10_n02504458_5614.png,n02504458_5614.png,1.0,-1.4394135,-4.074134,1.8630286
alexnet_w1_mlp_simclrhn_probe0,1,443,NaN,airplane,car,2-10-10,0443_eid_dnn_2-10-10_car_10_n04285008_4640.png,n04285008_4640.png,0.0,-1.7231302,1.6967264,-2.4182038
alexnet_w1_mlp_simclrhn_probe0,1,444,NaN,bear,oven,128-10-10,0444_eid_dnn_128-10-10_oven_10_n04111531_6346.png,n04111531_6346.png,0.0,-0.35570866,-0.33253488,-0.016386338
alexnet_w1_mlp_simclrhn_probe0,1,445,NaN,chair,chair,2-10-10,0445_eid_dnn_2-10-10_chair_10_n04099969_14851.png,n04099969_14851.png,1.0,0.47809428,-3.3509917,2.7075727
alexnet_w1_mlp_simclrhn_probe0,1,446,NaN,bear,bird,64-10-10,0446_eid_dnn_64-10-10_bird_10_n02051845_534.png,n02051845_534.png,0.0,-5.378147,-1.4131973,-2.803643
alexnet_w1_mlp_simclrhn_probe0,1,447,NaN,elephant,bird,128-10-10,0447_eid_dnn_128-10-10_bird_10_n02056570_9342.png,n02056570_9342.png,0.0,-5.301734,-0.4707669,-3.4160097
alexnet_w1_mlp_simclrhn_probe0,1,448,NaN,oven,oven,16-10-10,0448_eid_dnn_16-10-10_oven_10_n04111531_4900.png,n04111531_4900.png,1.0,2.3136837,-2.0341158,3.0743585
alexnet_w1_mlp_simclrhn_probe0,1,449,NaN,cat,boat,32-10-10,0449_eid_dnn_32-10-10_boat_10_n02951358_31973.png,n02951358_31973.png,0.0,-6.652864,-1.5673364,-3.596011
alexnet_w1_mlp_simclrhn_probe0,1,450,NaN,knife,keyboard,4-10-10,0450_eid_dnn_4-10-10_keyboard_10_n03085013_19842.png,n03085013_19842.png,0.0,-7.4841056,-3.8857043,-2.544454
alexnet_w1_mlp_simclrhn_probe0,1,451,NaN,keyboard,keyboard,8-10-10,0451_eid_dnn_8-10-10_keyboard_10_n03085013_8296.png,n03085013_8296.png,1.0,-2.6616507,-2.7517252,0.06369232
alexnet_w1_mlp_simclrhn_probe0,1,452,NaN,oven,car,16-10-10,0452_eid_dnn_16-10-10_car_10_n03100240_3528.png,n03100240_3528.png,0.0,-7.0803094,-2.5647225,-3.1930022
alexnet_w1_mlp_simclrhn_probe0,1,453,NaN,oven,cat,8-10-10,0453_eid_dnn_8-10-10_cat_10_n02123159_7210.png,n02123159_7210.png,0.0,-0.2900311,-0.2776631,-0.008745492
alexnet_w1_mlp_simclrhn_probe0,1,454,NaN,knife,knife,16-10-10,0454_eid_dnn_16-10-10_knife_10_n03041632_56172.png,n03041632_56172.png,1.0,-1.6611245,-3.0035362,0.94922847
alexnet_w1_mlp_simclrhn_probe0,1,455,NaN,oven,oven,4-10-10,0455_eid_dnn_4-10-10_oven_10_n04111531_2116.png,n04111531_2116.png,1.0,4.116168,-4.0083876,5.7449284
alexnet_w1_mlp_simclrhn_probe0,1,456,NaN,oven,bicycle,8-10-10,0456_eid_dnn_8-10-10_bicycle_10_n02835271_12477.png,n02835271_12477.png,0.0,-3.253869,-1.8640708,-0.9827358
alexnet_w1_mlp_simclrhn_probe0,1,457,NaN,knife,knife,2-10-10,0457_eid_dnn_2-10-10_knife_10_n03041632_42472.png,n03041632_42472.png,1.0,2.600651,-1.2038281,2.6901731
alexnet_w1_mlp_simclrhn_probe0,1,458,NaN,oven,oven,2-10-10,0458_eid_dnn_2-10-10_oven_10_n04111531_8818.png,n04111531_8818.png,1.0,0.018115763,-1.7149361,1.2254528
alexnet_w1_mlp_simclrhn_probe0,1,459,NaN,elephant,truck,2-10-10,0459_eid_dnn_2-10-10_truck_10_n04467665_67115.png,n04467665_67115.png,0.0,-1.7174611,-0.06444594,-1.1688583
alexnet_w1_mlp_simclrhn_probe0,1,460,NaN,bird,bird,4-10-10,0460_eid_dnn_4-10-10_bird_10_n02011460_3521.png,n02011460_3521.png,1.0,-2.6296437,-4.9303203,1.626824
alexnet_w1_mlp_simclrhn_probe0,1,461,NaN,bear,bear,64-10-10,0461_eid_dnn_64-10-10_bear_10_n02133161_3533.png,n02133161_3533.png,1.0,1.3124034,-2.4924667,2.6904495
alexnet_w1_mlp_simclrhn_probe0,1,462,NaN,bear,bird,8-10-10,0462_eid_dnn_8-10-10_bird_10_n02013706_637.png,n02013706_637.png,0.0,-3.0273986,-2.4183197,-0.43068382
alexnet_w1_mlp_simclrhn_probe0,1,463,NaN,bear,bear,64-10-10,0463_eid_dnn_64-10-10_bear_10_n02132136_29636.png,n02132136_29636.png,1.0,0.35854727,-0.7373894,0.77494425
alexnet_w1_mlp_simclrhn_probe0,1,464,NaN,bicycle,bicycle,2-10-10,0464_eid_dnn_2-10-10_bicycle_10_n02835271_634.png,n02835271_634.png,1.0,0.3646403,-3.2152932,2.5313952
alexnet_w1_mlp_simclrhn_probe0,1,465,NaN,keyboard,keyboard,1-10-10,0465_eid_dnn_1-10-10_keyboard_10_n04505470_4621.png,n04505470_4621.png,1.0,-1.5934442,-2.6320858,0.7344305
alexnet_w1_mlp_simclrhn_probe0,1,466,NaN,bear,bear,16-10-10,0466_eid_dnn_16-10-10_bear_10_n02134084_2844.png,n02134084_2844.png,1.0,-0.77447635,-1.8114364,0.73324156
alexnet_w1_mlp_simclrhn_probe0,1,467,NaN,bicycle,bicycle,4-10-10,0467_eid_dnn_4-10-10_bicycle_10_n03792782_17088.png,n03792782_17088.png,1.0,-0.5910064,-3.2817345,1.9026322
alexnet_w1_mlp_simclrhn_probe0,1,468,NaN,airplane,clock,4-10-10,0468_eid_dnn_4-10-10_clock_10_n03196217_8706.png,n03196217_8706.png,0.0,-4.5833793,-2.7272434,-1.3124863
alexnet_w1_mlp_simclrhn_probe0,1,469,NaN,oven,oven,4-10-10,0469_eid_dnn_4-10-10_oven_10_n04111531_15052.png,n04111531_15052.png,1.0,2.1429057,-2.0412903,2.9586735
alexnet_w1_mlp_simclrhn_probe0,1,470,NaN,oven,bottle,16-10-10,0470_eid_dnn_16-10-10_bottle_10_n04560804_5769.png,n04560804_5769.png,0.0,-5.0888705,-0.47217447,-3.264497
alexnet_w1_mlp_simclrhn_probe0,1,471,NaN,elephant,dog,128-10-10,0471_eid_dnn_128-10-10_dog_10_n02110063_14116.png,n02110063_14116.png,0.0,-2.2243207,-0.3424472,-1.3306855
alexnet_w1_mlp_simclrhn_probe0,1,472,NaN,oven,cat,32-10-10,0472_eid_dnn_32-10-10_cat_10_n02124075_3609.png,n02124075_3609.png,0.0,-2.0288007,-0.8207989,-0.8541863
alexnet_w1_mlp_simclrhn_probe0,1,473,NaN,airplane,airplane,32-10-10,0473_eid_dnn_32-10-10_airplane_10_n02690373_10926.png,n02690373_10926.png,1.0,0.91195,-1.1038915,1.4254152
alexnet_w1_mlp_simclrhn_probe0,1,474,NaN,oven,bird,16-10-10,0474_eid_dnn_16-10-10_bird_10_n02033041_7229.png,n02033041_7229.png,0.0,-2.8862023,-1.4465289,-1.0180029
alexnet_w1_mlp_simclrhn_probe0,1,475,NaN,bird,bird,2-10-10,0475_eid_dnn_2-10-10_bird_10_n02006656_611.png,n02006656_611.png,1.0,-2.4038627,-3.1126106,0.50116044
alexnet_w1_mlp_simclrhn_probe0,1,476,NaN,bear,bear,16-10-10,0476_eid_dnn_16-10-10_bear_10_n02133161_958.png,n02133161_958.png,1.0,-0.80056685,-1.1231054,0.2280692
alexnet_w1_mlp_simclrhn_probe0,1,477,NaN,bird,bird,8-10-10,0477_eid_dnn_8-10-10_bird_10_n01843065_148.png,n01843065_148.png,1.0,-0.9506792,-2.3412063,0.98325115
alexnet_w1_mlp_simclrhn_probe0,1,478,NaN,oven,cat,32-10-10,0478_eid_dnn_32-10-10_cat_10_n02123597_13623.png,n02123597_13623.png,0.0,-2.4240494,-1.2263067,-0.846932
alexnet_w1_mlp_simclrhn_probe0,1,479,NaN,bicycle,bicycle,8-10-10,0479_eid_dnn_8-10-10_bicycle_10_n02835271_12957.png,n02835271_12957.png,1.0,-0.47508097,-2.5397866,1.4599674
alexnet_w1_mlp_simclrhn_probe0,1,480,NaN,knife,knife,8-10-10,0480_eid_dnn_8-10-10_knife_10_n03041632_96714.png,n03041632_96714.png,1.0,-1.4852926,-3.1609554,1.1848726
alexnet_w1_mlp_simclrhn_probe0,1,481,NaN,elephant,bear,128-10-10,0481_eid_dnn_128-10-10_bear_10_n02133161_3550.png,n02133161_3550.png,0.0,-1.7740896,-0.77223086,-0.7084211
alexnet_w1_mlp_simclrhn_probe0,1,482,NaN,airplane,airplane,2-10-10,0482_eid_dnn_2-10-10_airplane_10_n02690373_4471.png,n02690373_4471.png,1.0,4.483894,-1.0992575,3.9478843
alexnet_w1_mlp_simclrhn_probe0,1,483,NaN,oven,airplane,64-10-10,0483_eid_dnn_64-10-10_airplane_10_n02690373_2026.png,n02690373_2026.png,0.0,-4.5041056,-2.3465495,-1.5256225
alexnet_w1_mlp_simclrhn_probe0,1,484,NaN,car,car,1-10-10,0484_eid_dnn_1-10-10_car_10_n03100240_18270.png,n03100240_18270.png,1.0,0.07234353,-1.0797455,0.81465006
alexnet_w1_mlp_simclrhn_probe0,1,485,NaN,bear,elephant,128-10-10,0485_eid_dnn_128-10-10_elephant_10_n02504458_5204.png,n02504458_5204.png,0.0,-0.66059875,-0.6205474,-0.028320575
alexnet_w1_mlp_simclrhn_probe0,1,486,NaN,oven,oven,1-10-10,0486_eid_dnn_1-10-10_oven_10_n04111531_10339.png,n04111531_10339.png,1.0,0.08682272,-2.8137388,2.0510068
alexnet_w1_mlp_simclrhn_probe0,1,487,NaN,elephant,elephant,2-10-10,0487_eid_dnn_2-10-10_elephant_10_n02504458_12705.png,n02504458_12705.png,1.0,3.8106413,-0.8205131,3.274721
alexnet_w1_mlp_simclrhn_probe0,1,488,NaN,oven,boat,1-10-10,0488_eid_dnn_1-10-10_boat_10_n03344393_9268.png,n03344393_9268.png,0.0,-2.1012218,-1.2753422,-0.58398503
alexnet_w1_mlp_simclrhn_probe0,1,489,NaN,bird,bicycle,16-10-10,0489_eid_dnn_16-10-10_bicycle_10_n02835271_23173.png,n02835271_23173.png,0.0,-4.8012667,-3.9718566,-0.5864815
alexnet_w1_mlp_simclrhn_probe0,1,490,NaN,oven,knife,32-10-10,0490_eid_dnn_32-10-10_knife_10_n03041632_43975.png,n03041632_43975.png,0.0,-4.6869125,-1.3165219,-2.3832262
alexnet_w1_mlp_simclrhn_probe0,1,491,NaN,elephant,bicycle,128-10-10,0491_eid_dnn_128-10-10_bicycle_10_n03792782_3299.png,n03792782_3299.png,0.0,-2.6728263,-0.34741032,-1.6443175
alexnet_w1_mlp_simclrhn_probe0,1,492,NaN,elephant,boat,32-10-10,0492_eid_dnn_32-10-10_boat_10_n04273569_5679.png,n04273569_5679.png,0.0,-5.1326437,-0.2643587,-3.4423976
alexnet_w1_mlp_simclrhn_probe0,1,493,NaN,oven,bird,32-10-10,0493_eid_dnn_32-10-10_bird_10_n02056570_10127.png,n02056570_10127.png,0.0,-5.423793,-0.31691504,-3.611108
alexnet_w1_mlp_simclrhn_probe0,1,494,NaN,bear,bear,32-10-10,0494_eid_dnn_32-10-10_bear_10_n02133161_7688.png,n02133161_7688.png,1.0,-0.19839013,-1.7092688,1.0683526
alexnet_w1_mlp_simclrhn_probe0,1,495,NaN,cat,cat,16-10-10,0495_eid_dnn_16-10-10_cat_10_n02123597_624.png,n02123597_624.png,1.0,-2.4396884,-3.0068526,0.40104565
alexnet_w1_mlp_simclrhn_probe0,1,496,NaN,cat,bird,64-10-10,0496_eid_dnn_64-10-10_bird_10_n01560419_3399.png,n01560419_3399.png,0.0,-3.6772213,-2.0333812,-1.1623704
alexnet_w1_mlp_simclrhn_probe0,1,497,NaN,bear,cat,32-10-10,0497_eid_dnn_32-10-10_cat_10_n02123045_12762.png,n02123045_12762.png,0.0,-3.0121071,-2.2811592,-0.5168583
alexnet_w1_mlp_simclrhn_probe0,1,498,NaN,oven,car,16-10-10,0498_eid_dnn_16-10-10_car_10_n02814533_7247.png,n02814533_7247.png,0.0,-7.8870416,-2.8744762,-3.5444193
alexnet_w1_mlp_simclrhn_probe0,1,499,NaN,bottle,keyboard,4-10-10,0499_eid_dnn_4-10-10_keyboard_10_n03085013_4941.png,n03085013_4941.png,0.0,-2.5869255,-2.3890553,-0.1399154
alexnet_w1_mlp_simclrhn_probe0,1,500,NaN,car,truck,4-10-10,0500_eid_dnn_4-10-10_truck_10_n03417042_6420.png,n03417042_6420.png,0.0,-3.2694812,-2.1237626,-0.8101454
alexnet_w1_mlp_simclrhn_probe0,1,501,NaN,oven,boat,64-10-10,0501_eid_dnn_64-10-10_boat_10_n03662601_2120.png,n03662601_2120.png,0.0,-5.5931015,-1.8579476,-2.6411526
alexnet_w1_mlp_simclrhn_probe0,1,502,NaN,elephant,bear,2-10-10,0502_eid_dnn_2-10-10_bear_10_n02134084_7331.png,n02134084_7331.png,0.0,0.7730053,1.3107312,-0.38022962
alexnet_w1_mlp_simclrhn_probe0,1,503,NaN,oven,bottle,32-10-10,0503_eid_dnn_32-10-10_bottle_10_n02823428_906.png,n02823428_906.png,0.0,-6.2074456,-0.78126884,-3.8368866
alexnet_w1_mlp_simclrhn_probe0,1,504,NaN,cat,cat,16-10-10,0504_eid_dnn_16-10-10_cat_10_n02123394_270.png,n02123394_270.png,1.0,-1.7724442,-2.5546067,0.5530724
alexnet_w1_mlp_simclrhn_probe0,1,505,NaN,oven,boat,2-10-10,0505_eid_dnn_2-10-10_boat_10_n02951358_1910.png,n02951358_1910.png,0.0,-3.8213704,-0.28977004,-2.4972186
alexnet_w1_mlp_simclrhn_probe0,1,506,NaN,oven,knife,4-10-10,0506_eid_dnn_4-10-10_knife_10_n03041632_23678.png,n03041632_23678.png,0.0,-3.7667732,-2.0096452,-1.2424772
alexnet_w1_mlp_simclrhn_probe0,1,507,NaN,dog,car,16-10-10,0507_eid_dnn_16-10-10_car_10_n02814533_31083.png,n02814533_31083.png,0.0,-7.913252,-2.4000978,-3.8983886
alexnet_w1_mlp_simclrhn_probe0,1,508,NaN,keyboard,keyboard,1-10-10,0508_eid_dnn_1-10-10_keyboard_10_n04505470_2881.png,n04505470_2881.png,1.0,3.2242203,-1.9533737,3.661112
alexnet_w1_mlp_simclrhn_probe0,1,509,NaN,dog,cat,8-10-10,0509_eid_dnn_8-10-10_cat_10_n02125311_2923.png,n02125311_2923.png,0.0,-2.234886,-0.70055,-1.0849394
alexnet_w1_mlp_simclrhn_probe0,1,510,NaN,bicycle,bicycle,2-10-10,0510_eid_dnn_2-10-10_bicycle_10_n03792782_2598.png,n03792782_2598.png,1.0,-0.13581473,-3.7185702,2.5333908
alexnet_w1_mlp_simclrhn_probe0,1,511,NaN,car,car,2-10-10,0511_eid_dnn_2-10-10_car_10_n03100240_4460.png,n03100240_4460.png,1.0,2.3025124,0.56811965,1.2264009
alexnet_w1_mlp_simclrhn_probe0,1,512,NaN,dog,knife,4-10-10,0512_eid_dnn_4-10-10_knife_10_n03041632_29920.png,n03041632_29920.png,0.0,-4.9571342,-4.3533077,-0.42696983
alexnet_w1_mlp_simclrhn_probe0,1,513,NaN,bear,bird,32-10-10,0513_eid_dnn_32-10-10_bird_10_n01796340_3845.png,n01796340_3845.png,0.0,-3.6091287,-0.15393317,-2.4431922
alexnet_w1_mlp_simclrhn_probe0,1,514,NaN,oven,keyboard,8-10-10,0514_eid_dnn_8-10-10_keyboard_10_n03085013_21932.png,n03085013_21932.png,0.0,-2.2384086,-1.3833039,-0.6046503
alexnet_w1_mlp_simclrhn_probe0,1,515,NaN,bottle,bottle,1-10-10,0515_eid_dnn_1-10-10_bottle_10_n02823428_64.png,n02823428_64.png,1.0,2.4354725,-2.6906905,3.6247447
alexnet_w1_mlp_simclrhn_probe0,1,516,NaN,oven,chair,8-10-10,0516_eid_dnn_8-10-10_chair_10_n04099969_4374.png,n04099969_4374.png,0.0,-4.301315,-1.9254079,-1.68002
alexnet_w1_mlp_simclrhn_probe0,1,517,NaN,clock,clock,1-10-10,0517_eid_dnn_1-10-10_clock_10_n02708093_8257.png,n02708093_8257.png,1.0,4.4551616,-2.4368193,4.873367
alexnet_w1_mlp_simclrhn_probe0,1,518,NaN,airplane,knife,16-10-10,0518_eid_dnn_16-10-10_knife_10_n03041632_45569.png,n03041632_45569.png,0.0,-2.7279212,-2.475724,-0.1783304
alexnet_w1_mlp_simclrhn_probe0,1,519,NaN,bear,chair,128-10-10,0519_eid_dnn_128-10-10_chair_10_n04099969_1850.png,n04099969_1850.png,0.0,-5.8540735,-0.18659213,-4.0075145
alexnet_w1_mlp_simclrhn_probe0,1,520,NaN,dog,dog,2-10-10,0520_eid_dnn_2-10-10_dog_10_n02092002_2008.png,n02092002_2008.png,1.0,0.28891015,-1.379992,1.1800921
alexnet_w1_mlp_simclrhn_probe0,1,521,NaN,bicycle,bicycle,8-10-10,0521_eid_dnn_8-10-10_bicycle_10_n02835271_8105.png,n02835271_8105.png,1.0,-1.6196159,-4.120406,1.7683257
alexnet_w1_mlp_simclrhn_probe0,1,522,NaN,cat,oven,64-10-10,0522_eid_dnn_64-10-10_oven_10_n04111531_14126.png,n04111531_14126.png,0.0,-2.4831316,-1.753915,-0.51563406
alexnet_w1_mlp_simclrhn_probe0,1,523,NaN,cat,elephant,4-10-10,0523_eid_dnn_4-10-10_elephant_10_n02504013_13766.png,n02504013_13766.png,0.0,-1.9495506,-1.5935076,-0.25176042
alexnet_w1_mlp_simclrhn_probe0,1,524,NaN,elephant,bicycle,64-10-10,0524_eid_dnn_64-10-10_bicycle_10_n02835271_18361.png,n02835271_18361.png,0.0,-5.3370557,-1.034338,-3.042481
alexnet_w1_mlp_simclrhn_probe0,1,525,NaN,oven,bird,8-10-10,0525_eid_dnn_8-10-10_bird_10_n01582220_4708.png,n01582220_4708.png,0.0,-2.052418,-0.8507174,-0.8497306
alexnet_w1_mlp_simclrhn_probe0,1,526,NaN,cat,chair,16-10-10,0526_eid_dnn_16-10-10_chair_10_n04099969_101.png,n04099969_101.png,0.0,-10.049506,-1.9686631,-5.714019
alexnet_w1_mlp_simclrhn_probe0,1,527,NaN,cat,cat,1-10-10,0527_eid_dnn_1-10-10_cat_10_n02124075_724.png,n02124075_724.png,1.0,0.93232006,-5.037907,4.221588
alexnet_w1_mlp_simclrhn_probe0,1,528,NaN,oven,bicycle,32-10-10,0528_eid_dnn_32-10-10_bicycle_10_n02835271_43.png,n02835271_43.png,0.0,-5.5486355,-0.7059761,-3.4242773
alexnet_w1_mlp_simclrhn_probe0,1,529,NaN,bird,bird,2-10-10,0529_eid_dnn_2-10-10_bird_10_n02017213_5362.png,n02017213_5362.png,1.0,-0.2836644,-1.5630339,0.9046509
alexnet_w1_mlp_simclrhn_probe0,1,530,NaN,oven,dog,1-10-10,0530_eid_dnn_1-10-10_dog_10_n02088466_1769.png,n02088466_1769.png,0.0,-3.3666954,-2.892845,-0.3350629
alexnet_w1_mlp_simclrhn_probe0,1,531,NaN,elephant,bear,1-10-10,0531_eid_dnn_1-10-10_bear_10_n02133161_5653.png,n02133161_5653.png,0.0,1.4780731,1.900218,-0.29850152
alexnet_w1_mlp_simclrhn_probe0,1,532,NaN,oven,dog,1-10-10,0532_eid_dnn_1-10-10_dog_10_n02098105_4676.png,n02098105_4676.png,0.0,-1.0647054,-0.38235295,-0.48249602
alexnet_w1_mlp_simclrhn_probe0,1,533,NaN,cat,cat,2-10-10,0533_eid_dnn_2-10-10_cat_10_n02123045_3593.png,n02123045_3593.png,1.0,-0.16945682,-3.620837,2.4404945
alexnet_w1_mlp_simclrhn_probe0,1,534,NaN,knife,bottle,8-10-10,0534_eid_dnn_8-10-10_bottle_10_n04560804_265.png,n04560804_265.png,0.0,-5.0096145,-2.418895,-1.8319154
alexnet_w1_mlp_simclrhn_probe0,1,535,NaN,bear,knife,128-10-10,0535_eid_dnn_128-10-10_knife_10_n03041632_1556.png,n03041632_1556.png,0.0,-2.48588,-0.28276184,-1.5578398
alexnet_w1_mlp_simclrhn_probe0,1,536,NaN,elephant,chair,4-10-10,0536_eid_dnn_4-10-10_chair_10_n02791124_9595.png,n02791124_9595.png,0.0,-3.3214383,-1.7627361,-1.1021689
alexnet_w1_mlp_simclrhn_probe0,1,537,NaN,bear,dog,32-10-10,0537_eid_dnn_32-10-10_dog_10_n02107312_2933.png,n02107312_2933.png,0.0,-2.1411283,1.2514033,-2.3988822
alexnet_w1_mlp_simclrhn_probe0,1,538,NaN,oven,oven,32-10-10,0538_eid_dnn_32-10-10_oven_10_n04111531_101.png,n04111531_101.png,1.0,-0.11260657,-2.2913644,1.5406145
alexnet_w1_mlp_simclrhn_probe0,1,539,NaN,oven,truck,4-10-10,0539_eid_dnn_4-10-10_truck_10_n03417042_7204.png,n03417042_7204.png,0.0,-2.1681557,-1.7501286,-0.29558977
alexnet_w1_mlp_simclrhn_probe0,1,540,NaN,elephant,bear,64-10-10,0540_eid_dnn_64-10-10_bear_10_n02132136_2120.png,n02132136_2120.png,0.0,-0.8155713,-0.58334076,-0.1642118
alexnet_w1_mlp_simclrhn_probe0,1,541,NaN,elephant,airplane,64-10-10,0541_eid_dnn_64-10-10_airplane_10_n02690373_18412.png,n02690373_18412.png,0.0,-5.01132,-0.75842416,-3.0072515
alexnet_w1_mlp_simclrhn_probe0,1,542,NaN,elephant,knife,128-10-10,0542_eid_dnn_128-10-10_knife_10_n03041632_21017.png,n03041632_21017.png,0.0,-3.9245229,-1.5665803,-1.6673173
alexnet_w1_mlp_simclrhn_probe0,1,543,NaN,bear,elephant,128-10-10,0543_eid_dnn_128-10-10_elephant_10_n02504458_8414.png,n02504458_8414.png,0.0,-1.5520747,-1.0091953,-0.38387367
alexnet_w1_mlp_simclrhn_probe0,1,544,NaN,bear,bottle,128-10-10,0544_eid_dnn_128-10-10_bottle_10_n04557648_11046.png,n04557648_11046.png,0.0,-4.488528,0.0012548566,-3.1747558
alexnet_w1_mlp_simclrhn_probe0,1,545,NaN,oven,clock,64-10-10,0545_eid_dnn_64-10-10_clock_10_n03196217_10578.png,n03196217_10578.png,0.0,-9.457461,-0.7143736,-6.1822968
alexnet_w1_mlp_simclrhn_probe0,1,546,NaN,bear,bear,2-10-10,0546_eid_dnn_2-10-10_bear_10_n02134418_3213.png,n02134418_3213.png,1.0,-0.46236163,-1.6288464,0.82482934
alexnet_w1_mlp_simclrhn_probe0,1,547,NaN,bear,clock,64-10-10,0547_eid_dnn_64-10-10_clock_10_n03196217_6289.png,n03196217_6289.png,0.0,-6.640367,-2.3444765,-3.0376537
alexnet_w1_mlp_simclrhn_probe0,1,548,NaN,bear,dog,32-10-10,0548_eid_dnn_32-10-10_dog_10_n02096294_1498.png,n02096294_1498.png,0.0,-2.1984887,-0.12587462,-1.4655596
alexnet_w1_mlp_simclrhn_probe0,1,549,NaN,bear,oven,16-10-10,0549_eid_dnn_16-10-10_oven_10_n04111531_519.png,n04111531_519.png,0.0,-1.5924116,-1.4045281,-0.1328537
alexnet_w1_mlp_simclrhn_probe0,1,550,NaN,bird,bird,1-10-10,0550_eid_dnn_1-10-10_bird_10_n01531178_14959.png,n01531178_14959.png,1.0,-0.15706484,-3.3728313,2.2738903
alexnet_w1_mlp_simclrhn_probe0,1,551,NaN,bear,bear,32-10-10,0551_eid_dnn_32-10-10_bear_10_n02132136_8754.png,n02132136_8754.png,1.0,1.1147066,-1.0679955,1.5434035
alexnet_w1_mlp_simclrhn_probe0,1,552,NaN,car,car,1-10-10,0552_eid_dnn_1-10-10_car_10_n02814533_73067.png,n02814533_73067.png,1.0,4.917581,2.0968804,1.9945366
alexnet_w1_mlp_simclrhn_probe0,1,553,NaN,cat,cat,8-10-10,0553_eid_dnn_8-10-10_cat_10_n02124075_15378.png,n02124075_15378.png,1.0,-1.2784449,-1.8893598,0.4319821
alexnet_w1_mlp_simclrhn_probe0,1,554,NaN,oven,bird,128-10-10,0554_eid_dnn_128-10-10_bird_10_n01592084_7569.png,n01592084_7569.png,0.0,-6.110219,-1.0119007,-3.6050553
alexnet_w1_mlp_simclrhn_probe0,1,555,NaN,bear,dog,128-10-10,0555_eid_dnn_128-10-10_dog_10_n02094114_3395.png,n02094114_3395.png,0.0,-2.660132,-0.6982694,-1.3872464
alexnet_w1_mlp_simclrhn_probe0,1,556,NaN,chair,chair,4-10-10,0556_eid_dnn_4-10-10_chair_10_n03376595_1712.png,n03376595_1712.png,1.0,-2.0682964,-2.2265532,0.111904435
alexnet_w1_mlp_simclrhn_probe0,1,557,NaN,bear,bear,64-10-10,0557_eid_dnn_64-10-10_bear_10_n02134084_622.png,n02134084_622.png,1.0,-0.5008126,-0.8385719,0.23883191
alexnet_w1_mlp_simclrhn_probe0,1,558,NaN,bottle,clock,8-10-10,0558_eid_dnn_8-10-10_clock_10_n03196217_4912.png,n03196217_4912.png,0.0,-3.6522217,-1.7135832,-1.3708245
alexnet_w1_mlp_simclrhn_probe0,1,559,NaN,oven,car,64-10-10,0559_eid_dnn_64-10-10_car_10_n03100240_18815.png,n03100240_18815.png,0.0,-8.873445,-0.35987657,-6.020002
alexnet_w1_mlp_simclrhn_probe0,1,560,NaN,bicycle,chair,2-10-10,0560_eid_dnn_2-10-10_chair_10_n04099969_2020.png,n04099969_2020.png,0.0,-0.2706954,0.6129706,-0.6248462
alexnet_w1_mlp_simclrhn_probe0,1,561,NaN,bear,bear,1-10-10,0561_eid_dnn_1-10-10_bear_10_n02132136_7647.png,n02132136_7647.png,1.0,3.8992562,-1.3173902,3.688726
alexnet_w1_mlp_simclrhn_probe0,1,562,NaN,bear,oven,128-10-10,0562_eid_dnn_128-10-10_oven_10_n04111531_2796.png,n04111531_2796.png,0.0,-3.2324743,-1.538497,-1.1978229
alexnet_w1_mlp_simclrhn_probe0,1,563,NaN,oven,truck,64-10-10,0563_eid_dnn_64-10-10_truck_10_n03796401_9472.png,n03796401_9472.png,0.0,-7.96806,-0.13742928,-5.537092
alexnet_w1_mlp_simclrhn_probe0,1,564,NaN,chair,chair,4-10-10,0564_eid_dnn_4-10-10_chair_10_n03376595_12433.png,n03376595_12433.png,1.0,-2.782743,-3.4539168,0.47459155
alexnet_w1_mlp_simclrhn_probe0,1,565,NaN,truck,truck,4-10-10,0565_eid_dnn_4-10-10_truck_10_n04467665_31539.png,n04467665_31539.png,1.0,-2.4413629,-2.62652,0.13092582
alexnet_w1_mlp_simclrhn_probe0,1,566,NaN,airplane,airplane,32-10-10,0566_eid_dnn_32-10-10_airplane_10_n02690373_10657.png,n02690373_10657.png,1.0,1.0481117,-2.4591117,2.4799814
alexnet_w1_mlp_simclrhn_probe0,1,567,NaN,oven,truck,16-10-10,0567_eid_dnn_16-10-10_truck_10_n03796401_5963.png,n03796401_5963.png,0.0,-8.445548,-2.4557502,-4.2354264
alexnet_w1_mlp_simclrhn_probe0,1,568,NaN,bear,dog,64-10-10,0568_eid_dnn_64-10-10_dog_10_n02096294_2233.png,n02096294_2233.png,0.0,-2.2812808,0.81477547,-2.1892424
alexnet_w1_mlp_simclrhn_probe0,1,569,NaN,elephant,airplane,128-10-10,0569_eid_dnn_128-10-10_airplane_10_n02690373_4873.png,n02690373_4873.png,0.0,-3.1798756,-2.5254636,-0.4627392
alexnet_w1_mlp_simclrhn_probe0,1,570,NaN,airplane,truck,1-10-10,0570_eid_dnn_1-10-10_truck_10_n04467665_4825.png,n04467665_4825.png,0.0,0.94996053,2.4033527,-1.0277035
alexnet_w1_mlp_simclrhn_probe0,1,571,NaN,cat,chair,16-10-10,0571_eid_dnn_16-10-10_chair_10_n04099969_1704.png,n04099969_1704.png,0.0,-7.232974,-2.6682987,-3.2277129
alexnet_w1_mlp_simclrhn_probe0,1,572,NaN,bicycle,bicycle,2-10-10,0572_eid_dnn_2-10-10_bicycle_10_n02835271_1573.png,n02835271_1573.png,1.0,4.2664504,-2.1295853,4.5226803
alexnet_w1_mlp_simclrhn_probe0,1,573,NaN,oven,boat,2-10-10,0573_eid_dnn_2-10-10_boat_10_n04273569_12725.png,n04273569_12725.png,0.0,-3.2013474,-2.3615665,-0.59381473
alexnet_w1_mlp_simclrhn_probe0,1,574,NaN,bear,knife,128-10-10,0574_eid_dnn_128-10-10_knife_10_n03041632_11285.png,n03041632_11285.png,0.0,-2.7188158,-2.3619616,-0.25233403
alexnet_w1_mlp_simclrhn_probe0,1,575,NaN,keyboard,clock,4-10-10,0575_eid_dnn_4-10-10_clock_10_n03196217_8254.png,n03196217_8254.png,0.0,-1.8858604,-1.0605497,-0.5835828
alexnet_w1_mlp_simclrhn_probe0,1,576,NaN,dog,knife,16-10-10,0576_eid_dnn_16-10-10_knife_10_n03041632_15099.png,n03041632_15099.png,0.0,-4.117221,-3.076259,-0.7360713
alexnet_w1_mlp_simclrhn_probe0,1,577,NaN,bear,cat,64-10-10,0577_eid_dnn_64-10-10_cat_10_n02125311_30452.png,n02125311_30452.png,0.0,-1.2997403,-0.107330084,-0.8431614
alexnet_w1_mlp_simclrhn_probe0,1,578,NaN,bear,bottle,32-10-10,0578_eid_dnn_32-10-10_bottle_10_n04591713_6804.png,n04591713_6804.png,0.0,-4.717418,-1.5848955,-2.215028
alexnet_w1_mlp_simclrhn_probe0,1,579,NaN,bear,dog,64-10-10,0579_eid_dnn_64-10-10_dog_10_n02088364_14369.png,n02088364_14369.png,0.0,-1.9260656,-0.10427305,-1.2882018
alexnet_w1_mlp_simclrhn_probe0,1,580,NaN,oven,truck,32-10-10,0580_eid_dnn_32-10-10_truck_10_n03796401_16425.png,n03796401_16425.png,0.0,-8.957083,-0.9245069,-5.6798887
alexnet_w1_mlp_simclrhn_probe0,1,581,NaN,bear,truck,64-10-10,0581_eid_dnn_64-10-10_truck_10_n03417042_5406.png,n03417042_5406.png,0.0,-9.147996,-0.20760915,-6.3218083
alexnet_w1_mlp_simclrhn_probe0,1,582,NaN,knife,knife,1-10-10,0582_eid_dnn_1-10-10_knife_10_n03041632_52929.png,n03041632_52929.png,1.0,-2.9626117,-4.7314363,1.2507479
alexnet_w1_mlp_simclrhn_probe0,1,583,NaN,oven,chair,64-10-10,0583_eid_dnn_64-10-10_chair_10_n03376595_4820.png,n03376595_4820.png,0.0,-5.394925,-2.176454,-2.2758029
alexnet_w1_mlp_simclrhn_probe0,1,584,NaN,chair,chair,1-10-10,0584_eid_dnn_1-10-10_chair_10_n03376595_787.png,n03376595_787.png,1.0,-0.5440428,-1.913303,0.9682132
alexnet_w1_mlp_simclrhn_probe0,1,585,NaN,bicycle,chair,2-10-10,0585_eid_dnn_2-10-10_chair_10_n03376595_7709.png,n03376595_7709.png,0.0,-2.4103994,-1.8735342,-0.37962106
alexnet_w1_mlp_simclrhn_probe0,1,586,NaN,truck,bottle,1-10-10,0586_eid_dnn_1-10-10_bottle_10_n03983396_11006.png,n03983396_11006.png,0.0,-3.6993222,-3.187854,-0.36166263
alexnet_w1_mlp_simclrhn_probe0,1,587,NaN,oven,oven,8-10-10,0587_eid_dnn_8-10-10_oven_10_n04111531_458.png,n04111531_458.png,1.0,-1.0928671,-3.460014,1.6738257
alexnet_w1_mlp_simclrhn_probe0,1,588,NaN,elephant,cat,128-10-10,0588_eid_dnn_128-10-10_cat_10_n02123045_7829.png,n02123045_7829.png,0.0,-0.9555841,0.53356737,-1.0529891
alexnet_w1_mlp_simclrhn_probe0,1,589,NaN,bear,bear,1-10-10,0589_eid_dnn_1-10-10_bear_10_n02134418_4685.png,n02134418_4685.png,1.0,1.182859,-0.9818938,1.5307114
alexnet_w1_mlp_simclrhn_probe0,1,590,NaN,bear,knife,64-10-10,0590_eid_dnn_64-10-10_knife_10_n03041632_1964.png,n03041632_1964.png,0.0,-2.7295015,-1.9452822,-0.55452675
alexnet_w1_mlp_simclrhn_probe0,1,591,NaN,car,car,4-10-10,0591_eid_dnn_4-10-10_car_10_n03100240_17472.png,n03100240_17472.png,1.0,-1.8380076,-3.3175855,1.0462196
alexnet_w1_mlp_simclrhn_probe0,1,592,NaN,oven,dog,16-10-10,0592_eid_dnn_16-10-10_dog_10_n02113023_1980.png,n02113023_1980.png,0.0,-3.5008066,-2.304591,-0.8458522
alexnet_w1_mlp_simclrhn_probe0,1,593,NaN,cat,dog,32-10-10,0593_eid_dnn_32-10-10_dog_10_n02100735_6359.png,n02100735_6359.png,0.0,-1.8173989,-1.5593089,-0.1824972
alexnet_w1_mlp_simclrhn_probe0,1,594,NaN,bicycle,knife,1-10-10,0594_eid_dnn_1-10-10_knife_10_n03041632_31849.png,n03041632_31849.png,0.0,-3.0739946,-1.4915586,-1.1189513
alexnet_w1_mlp_simclrhn_probe0,1,595,NaN,oven,bird,8-10-10,0595_eid_dnn_8-10-10_bird_10_n01532829_23378.png,n01532829_23378.png,0.0,-4.4881415,-2.4126065,-1.4676249
