subj,session,trial,rt,object_response,category,condition,imagename,filename,is_correct,targ_act,max_nontarg_act,decision_margin
vit_b_16,1,1,NaN,oven,oven,1-10-10,0001_eid_dnn_1-10-10_oven_10_n04111531_17072.png,n04111531_17072.png,1.0,9.441801,1.099007,5.8992467
vit_b_16,1,2,NaN,airplane,airplane,16-10-10,0002_eid_dnn_16-10-10_airplane_10_n02690373_4183.png,n02690373_4183.png,1.0,2.0219994,0.7773328,0.8801122
vit_b_16,1,3,NaN,bicycle,car,8-10-10,0003_eid_dnn_8-10-10_car_10_n03100240_1137.png,n03100240_1137.png,0.0,0.34632632,0.66320765,-0.22406894
vit_b_16,1,4,NaN,clock,clock,2-10-10,0004_eid_dnn_2-10-10_clock_10_n04548280_7083.png,n04548280_7083.png,1.0,6.4444695,0.6492429,4.097844
vit_b_16,1,5,NaN,bottle,bottle,2-10-10,0005_eid_dnn_2-10-10_bottle_10_n02823428_7810.png,n02823428_7810.png,1.0,3.0452163,0.18504502,2.0224466
vit_b_16,1,6,NaN,bear,dog,128-10-10,0006_eid_dnn_128-10-10_dog_10_n02091244_8368.png,n02091244_8368.png,0.0,1.2292569,1.4507229,-0.15660016
vit_b_16,1,7,NaN,bicycle,bicycle,1-10-10,0007_eid_dnn_1-10-10_bicycle_10_n02835271_2930.png,n02835271_2930.png,1.0,7.1978045,0.7337092,4.5708055
vit_b_16,1,8,NaN,knife,knife,4-10-10,0008_eid_dnn_4-10-10_knife_10_n03041632_52848.png,n03041632_52848.png,1.0,1.3292288,1.0190609,0.21932183
vit_b_16,1,9,NaN,bottle,bottle,2-10-10,0009_eid_dnn_2-10-10_bottle_10_n02823428_4097.png,n02823428_4097.png,1.0,4.0573173,0.22139096,2.7124095
vit_b_16,1,10,NaN,dog,dog,8-10-10,0010_eid_dnn_8-10-10_dog_10_n02105641_10264.png,n02105641_10264.png,1.0,0.6037879,0.20230564,0.28389084
vit_b_16,1,11,NaN,clock,boat,8-10-10,0011_eid_dnn_8-10-10_boat_10_n03662601_10278.png,n03662601_10278.png,0.0,0.039979555,0.5218486,-0.3407329
vit_b_16,1,12,NaN,airplane,truck,32-10-10,0012_eid_dnn_32-10-10_truck_10_n04467665_76958.png,n04467665_76958.png,0.0,-0.2596205,2.1368284,-1.6945453
vit_b_16,1,13,NaN,oven,dog,16-10-10,0013_eid_dnn_16-10-10_dog_10_n02088238_12552.png,n02088238_12552.png,0.0,0.75906426,1.3175933,-0.39493972
vit_b_16,1,14,NaN,airplane,dog,8-10-10,0014_eid_dnn_8-10-10_dog_10_n02102040_994.png,n02102040_994.png,0.0,1.1342069,1.6296035,-0.35029832
vit_b_16,1,15,NaN,clock,bear,128-10-10,0015_eid_dnn_128-10-10_bear_10_n02133161_1944.png,n02133161_1944.png,0.0,0.1229319,0.8175054,-0.49113765
vit_b_16,1,16,NaN,truck,car,16-10-10,0016_eid_dnn_16-10-10_car_10_n02814533_43040.png,n02814533_43040.png,0.0,2.6023357,2.9443107,-0.24181283
vit_b_16,1,17,NaN,bear,oven,128-10-10,0017_eid_dnn_128-10-10_oven_10_n04111531_18592.png,n04111531_18592.png,0.0,0.9552856,1.214492,-0.18328658
vit_b_16,1,18,NaN,bear,chair,16-10-10,0018_eid_dnn_16-10-10_chair_10_n02791124_4294.png,n02791124_4294.png,0.0,-0.48282474,1.6388386,-1.5002426
vit_b_16,1,19,NaN,oven,knife,32-10-10,0019_eid_dnn_32-10-10_knife_10_n03041632_2630.png,n03041632_2630.png,0.0,-0.23804693,0.79340035,-0.7293434
vit_b_16,1,20,NaN,elephant,elephant,1-10-10,0020_eid_dnn_1-10-10_elephant_10_n02504458_723.png,n02504458_723.png,1.0,7.441288,0.14344485,5.160354
vit_b_16,1,21,NaN,keyboard,chair,4-10-10,0021_eid_dnn_4-10-10_chair_10_n03376595_6107.png,n03376595_6107.png,0.0,3.4058115,4.4401226,-0.73136836
vit_b_16,1,22,NaN,bottle,clock,32-10-10,0022_eid_dnn_32-10-10_clock_10_n03196217_1337.png,n03196217_1337.png,0.0,0.33403453,2.0681002,-1.2261696
vit_b_16,1,23,NaN,clock,boat,128-10-10,0023_eid_dnn_128-10-10_boat_10_n02951358_9550.png,n02951358_9550.png,0.0,-0.4530484,1.2527618,-1.2061901
vit_b_16,1,24,NaN,knife,bird,128-10-10,0024_eid_dnn_128-10-10_bird_10_n01616318_2334.png,n01616318_2334.png,0.0,-0.5780242,1.1169063,-1.1984969
vit_b_16,1,25,NaN,bottle,bottle,32-10-10,0025_eid_dnn_32-10-10_bottle_10_n03937543_1658.png,n03937543_1658.png,1.0,1.8180574,1.6621547,0.110239886
vit_b_16,1,26,NaN,elephant,elephant,2-10-10,0026_eid_dnn_2-10-10_elephant_10_n02504013_6731.png,n02504013_6731.png,1.0,7.634473,0.5205354,5.0303135
vit_b_16,1,27,NaN,keyboard,keyboard,4-10-10,0027_eid_dnn_4-10-10_keyboard_10_n04505470_4447.png,n04505470_4447.png,1.0,5.0775228,0.5218959,3.2213147
vit_b_16,1,28,NaN,airplane,airplane,1-10-10,0028_eid_dnn_1-10-10_airplane_10_n02690373_4839.png,n02690373_4839.png,1.0,9.094364,0.75471514,5.8970227
vit_b_16,1,29,NaN,clock,keyboard,64-10-10,0029_eid_dnn_64-10-10_keyboard_10_n04505470_1651.png,n04505470_1651.png,0.0,0.17816177,1.5755138,-0.98807716
vit_b_16,1,30,NaN,keyboard,keyboard,32-10-10,0030_eid_dnn_32-10-10_keyboard_10_n03085013_20601.png,n03085013_20601.png,1.0,1.6253829,1.1446679,0.33991686
vit_b_16,1,31,NaN,clock,airplane,64-10-10,0031_eid_dnn_64-10-10_airplane_10_n02690373_2217.png,n02690373_2217.png,0.0,1.3895836,1.4157559,-0.018506598
vit_b_16,1,32,NaN,bicycle,bicycle,4-10-10,0032_eid_dnn_4-10-10_bicycle_10_n03792782_25019.png,n03792782_25019.png,1.0,6.0856295,1.2766675,3.4004495
vit_b_16,1,33,NaN,cat,cat,8-10-10,0033_eid_dnn_8-10-10_cat_10_n02123597_13890.png,n02123597_13890.png,1.0,5.0351987,0.7037878,3.0627701
vit_b_16,1,34,NaN,boat,boat,1-10-10,0034_eid_dnn_1-10-10_boat_10_n04612504_214.png,n04612504_214.png,1.0,2.7254796,0.25076544,1.7498872
vit_b_16,1,35,NaN,bear,chair,128-10-10,0035_eid_dnn_128-10-10_chair_10_n02791124_2555.png,n02791124_2555.png,0.0,-0.2880919,0.7658464,-0.7452469
vit_b_16,1,36,NaN,car,car,4-10-10,0036_eid_dnn_4-10-10_car_10_n04285008_2081.png,n04285008_2081.png,1.0,3.059026,0.3266613,1.9320736
vit_b_16,1,37,NaN,airplane,dog,32-10-10,0037_eid_dnn_32-10-10_dog_10_n02094114_8202.png,n02094114_8202.png,0.0,0.5851462,3.1229353,-1.794488
vit_b_16,1,38,NaN,airplane,chair,64-10-10,0038_eid_dnn_64-10-10_chair_10_n04099969_4541.png,n04099969_4541.png,0.0,-0.59590995,3.6094472,-2.9736366
vit_b_16,1,39,NaN,cat,boat,128-10-10,0039_eid_dnn_128-10-10_boat_10_n04612504_12864.png,n04612504_12864.png,0.0,-0.7948357,1.4995575,-1.622381
vit_b_16,1,40,NaN,airplane,airplane,4-10-10,0040_eid_dnn_4-10-10_airplane_10_n02690373_18460.png,n02690373_18460.png,1.0,6.7703586,1.0759591,4.0265484
vit_b_16,1,41,NaN,oven,bottle,64-10-10,0041_eid_dnn_64-10-10_bottle_10_n03983396_8982.png,n03983396_8982.png,0.0,0.48504147,1.4916853,-0.7118046
vit_b_16,1,42,NaN,airplane,dog,16-10-10,0042_eid_dnn_16-10-10_dog_10_n02099601_10407.png,n02099601_10407.png,0.0,0.10895729,2.8836884,-1.9620312
vit_b_16,1,43,NaN,oven,airplane,32-10-10,0043_eid_dnn_32-10-10_airplane_10_n02690373_5253.png,n02690373_5253.png,0.0,2.12933,3.2032633,-0.7593856
vit_b_16,1,44,NaN,elephant,elephant,2-10-10,0044_eid_dnn_2-10-10_elephant_10_n02504013_2832.png,n02504013_2832.png,1.0,6.383659,0.406429,4.22654
vit_b_16,1,45,NaN,clock,clock,1-10-10,0045_eid_dnn_1-10-10_clock_10_n02708093_8002.png,n02708093_8002.png,1.0,5.7903156,1.2896583,3.1824453
vit_b_16,1,46,NaN,chair,chair,2-10-10,0046_eid_dnn_2-10-10_chair_10_n03376595_1766.png,n03376595_1766.png,1.0,3.9530535,0.53684443,2.4156246
vit_b_16,1,47,NaN,truck,truck,2-10-10,0047_eid_dnn_2-10-10_truck_10_n03417042_17616.png,n03417042_17616.png,1.0,3.8456802,1.0795642,1.9559395
vit_b_16,1,48,NaN,airplane,bear,16-10-10,0048_eid_dnn_16-10-10_bear_10_n02134418_2804.png,n02134418_2804.png,0.0,0.96835345,4.845539,-2.7415843
vit_b_16,1,49,NaN,oven,car,64-10-10,0049_eid_dnn_64-10-10_car_10_n04285008_12101.png,n04285008_12101.png,0.0,-0.7964867,1.4120227,-1.5616521
vit_b_16,1,50,NaN,bear,bear,16-10-10,0050_eid_dnn_16-10-10_bear_10_n02134418_3828.png,n02134418_3828.png,1.0,2.1868267,1.0476428,0.80552465
vit_b_16,1,51,NaN,bird,bird,2-10-10,0051_eid_dnn_2-10-10_bird_10_n01530575_5747.png,n01530575_5747.png,1.0,0.31136253,0.24083816,0.049868267
vit_b_16,1,52,NaN,oven,truck,128-10-10,0052_eid_dnn_128-10-10_truck_10_n03796401_3386.png,n03796401_3386.png,0.0,-0.6863319,1.7308531,-1.709208
vit_b_16,1,53,NaN,airplane,keyboard,16-10-10,0053_eid_dnn_16-10-10_keyboard_10_n04505470_3234.png,n04505470_3234.png,0.0,-0.1793183,0.97286093,-0.8147138
vit_b_16,1,54,NaN,airplane,truck,1-10-10,0054_eid_dnn_1-10-10_truck_10_n04467665_72639.png,n04467665_72639.png,0.0,1.4521435,1.4618299,-0.0068492843
vit_b_16,1,55,NaN,bear,chair,32-10-10,0055_eid_dnn_32-10-10_chair_10_n04429376_27524.png,n04429376_27524.png,0.0,-0.7017639,1.4141552,-1.4961808
vit_b_16,1,56,NaN,airplane,bottle,64-10-10,0056_eid_dnn_64-10-10_bottle_10_n04557648_11440.png,n04557648_11440.png,0.0,-0.15684949,2.5042434,-1.8816768
vit_b_16,1,57,NaN,cat,keyboard,32-10-10,0057_eid_dnn_32-10-10_keyboard_10_n03085013_20216.png,n03085013_20216.png,0.0,-0.9173384,0.88692087,-1.275804
vit_b_16,1,58,NaN,dog,boat,8-10-10,0058_eid_dnn_8-10-10_boat_10_n02951358_34653.png,n02951358_34653.png,0.0,-0.27157593,0.6700163,-0.66580623
vit_b_16,1,59,NaN,keyboard,keyboard,2-10-10,0059_eid_dnn_2-10-10_keyboard_10_n03085013_8932.png,n03085013_8932.png,1.0,7.471058,0.7101174,4.780707
vit_b_16,1,60,NaN,cat,cat,1-10-10,0060_eid_dnn_1-10-10_cat_10_n02125311_35338.png,n02125311_35338.png,1.0,2.088475,0.45260113,1.1567374
vit_b_16,1,61,NaN,oven,bicycle,16-10-10,0061_eid_dnn_16-10-10_bicycle_10_n03792782_5449.png,n03792782_5449.png,0.0,-0.039464124,0.6341867,-0.47634307
vit_b_16,1,62,NaN,bicycle,bicycle,4-10-10,0062_eid_dnn_4-10-10_bicycle_10_n03792782_9432.png,n03792782_9432.png,1.0,4.0370865,1.267796,1.9581841
vit_b_16,1,63,NaN,knife,bottle,1-10-10,0063_eid_dnn_1-10-10_bottle_10_n04591713_4291.png,n04591713_4291.png,0.0,1.0321254,3.837212,-1.9834958
vit_b_16,1,64,NaN,truck,truck,4-10-10,0064_eid_dnn_4-10-10_truck_10_n04467665_67057.png,n04467665_67057.png,1.0,2.9972792,0.12495471,2.0310402
vit_b_16,1,65,NaN,keyboard,keyboard,1-10-10,0065_eid_dnn_1-10-10_keyboard_10_n03085013_22790.png,n03085013_22790.png,1.0,7.1041145,0.84215844,4.4278717
vit_b_16,1,66,NaN,oven,dog,4-10-10,0066_eid_dnn_4-10-10_dog_10_n02086079_2896.png,n02086079_2896.png,0.0,0.06980066,0.9979778,-0.65632033
vit_b_16,1,67,NaN,airplane,knife,8-10-10,0067_eid_dnn_8-10-10_knife_10_n03041632_40508.png,n03041632_40508.png,0.0,-0.06228666,2.9678123,-2.1426036
vit_b_16,1,68,NaN,boat,boat,1-10-10,0068_eid_dnn_1-10-10_boat_10_n03344393_7942.png,n03344393_7942.png,1.0,2.2782578,0.3526919,1.3615807
vit_b_16,1,69,NaN,bear,bear,2-10-10,0069_eid_dnn_2-10-10_bear_10_n02134418_4352.png,n02134418_4352.png,1.0,3.8921466,0.3629484,2.49552
vit_b_16,1,70,NaN,cat,cat,16-10-10,0070_eid_dnn_16-10-10_cat_10_n02123045_5157.png,n02123045_5157.png,1.0,2.5127537,0.77092934,1.2316558
vit_b_16,1,71,NaN,dog,dog,16-10-10,0071_eid_dnn_16-10-10_dog_10_n02109047_14287.png,n02109047_14287.png,1.0,1.400673,1.1359191,0.18720931
vit_b_16,1,72,NaN,truck,truck,2-10-10,0072_eid_dnn_2-10-10_truck_10_n03417042_14274.png,n03417042_14274.png,1.0,2.5721292,0.43560022,1.5107541
vit_b_16,1,73,NaN,airplane,airplane,2-10-10,0073_eid_dnn_2-10-10_airplane_10_n02690373_5885.png,n02690373_5885.png,1.0,5.9835353,0.62130725,3.7916677
vit_b_16,1,74,NaN,airplane,cat,32-10-10,0074_eid_dnn_32-10-10_cat_10_n02123394_571.png,n02123394_571.png,0.0,0.86360765,2.4463997,-1.119203
vit_b_16,1,75,NaN,oven,cat,32-10-10,0075_eid_dnn_32-10-10_cat_10_n02123045_10171.png,n02123045_10171.png,0.0,0.61818534,2.1901846,-1.1115714
vit_b_16,1,76,NaN,bottle,bottle,8-10-10,0076_eid_dnn_8-10-10_bottle_10_n04560804_4909.png,n04560804_4909.png,1.0,1.6030521,0.853695,0.5298755
vit_b_16,1,77,NaN,keyboard,keyboard,8-10-10,0077_eid_dnn_8-10-10_keyboard_10_n03085013_7971.png,n03085013_7971.png,1.0,4.4564314,0.17334862,3.028597
vit_b_16,1,78,NaN,keyboard,keyboard,16-10-10,0078_eid_dnn_16-10-10_keyboard_10_n03085013_21397.png,n03085013_21397.png,1.0,3.0863242,1.3428326,1.2328348
vit_b_16,1,79,NaN,airplane,elephant,32-10-10,0079_eid_dnn_32-10-10_elephant_10_n02504458_4187.png,n02504458_4187.png,0.0,-0.33342612,3.256631,-2.5385537
vit_b_16,1,80,NaN,bear,clock,8-10-10,0080_eid_dnn_8-10-10_clock_10_n03196217_6689.png,n03196217_6689.png,0.0,0.50109273,1.5952191,-0.77366424
vit_b_16,1,81,NaN,knife,knife,4-10-10,0081_eid_dnn_4-10-10_knife_10_n03041632_26236.png,n03041632_26236.png,1.0,4.28081,1.3571162,2.0673637
vit_b_16,1,82,NaN,clock,car,8-10-10,0082_eid_dnn_8-10-10_car_10_n03100240_1262.png,n03100240_1262.png,0.0,0.7705004,2.1613576,-0.98348457
vit_b_16,1,83,NaN,oven,keyboard,64-10-10,0083_eid_dnn_64-10-10_keyboard_10_n04505470_5059.png,n04505470_5059.png,0.0,0.08494895,1.2010884,-0.78922987
vit_b_16,1,84,NaN,bird,bird,1-10-10,0084_eid_dnn_1-10-10_bird_10_n01537544_26417.png,n01537544_26417.png,1.0,0.5752194,0.20658945,0.26066074
vit_b_16,1,85,NaN,airplane,bird,32-10-10,0085_eid_dnn_32-10-10_bird_10_n02009912_5714.png,n02009912_5714.png,0.0,-0.28315333,3.8909874,-2.9515634
vit_b_16,1,86,NaN,cat,chair,128-10-10,0086_eid_dnn_128-10-10_chair_10_n03376595_5972.png,n03376595_5972.png,0.0,-0.9603728,2.33589,-2.3308098
vit_b_16,1,87,NaN,chair,chair,2-10-10,0087_eid_dnn_2-10-10_chair_10_n04429376_805.png,n04429376_805.png,1.0,3.4753127,1.5538759,1.358661
vit_b_16,1,88,NaN,airplane,bicycle,128-10-10,0088_eid_dnn_128-10-10_bicycle_10_n03792782_4083.png,n03792782_4083.png,0.0,-0.005581852,1.3003699,-0.9234473
vit_b_16,1,89,NaN,clock,clock,1-10-10,0089_eid_dnn_1-10-10_clock_10_n02708093_798.png,n02708093_798.png,1.0,7.571548,1.3058172,4.430541
vit_b_16,1,90,NaN,bear,bear,1-10-10,0090_eid_dnn_1-10-10_bear_10_n02133161_1660.png,n02133161_1660.png,1.0,4.8784175,0.17357285,3.3268275
vit_b_16,1,91,NaN,airplane,car,8-10-10,0091_eid_dnn_8-10-10_car_10_n04285008_9464.png,n04285008_9464.png,0.0,-0.60401505,1.0945933,-1.2010975
vit_b_16,1,92,NaN,oven,oven,16-10-10,0092_eid_dnn_16-10-10_oven_10_n04111531_3314.png,n04111531_3314.png,1.0,4.273794,1.717229,1.8077646
vit_b_16,1,93,NaN,dog,cat,128-10-10,0093_eid_dnn_128-10-10_cat_10_n02123394_5753.png,n02123394_5753.png,0.0,0.39812365,0.6604185,-0.18547048
vit_b_16,1,94,NaN,boat,boat,2-10-10,0094_eid_dnn_2-10-10_boat_10_n02951358_34042.png,n02951358_34042.png,1.0,5.330367,2.8085537,1.7831913
vit_b_16,1,95,NaN,oven,truck,64-10-10,0095_eid_dnn_64-10-10_truck_10_n03417042_7588.png,n03417042_7588.png,0.0,-0.573298,4.4674044,-3.5643148
vit_b_16,1,96,NaN,oven,truck,32-10-10,0096_eid_dnn_32-10-10_truck_10_n03417042_4200.png,n03417042_4200.png,0.0,-0.63313603,3.5739625,-2.9748678
vit_b_16,1,97,NaN,airplane,airplane,4-10-10,0097_eid_dnn_4-10-10_airplane_10_n02690373_4335.png,n02690373_4335.png,1.0,8.745714,1.2583789,5.2943454
vit_b_16,1,98,NaN,clock,elephant,128-10-10,0098_eid_dnn_128-10-10_elephant_10_n02504458_6823.png,n02504458_6823.png,0.0,0.074229576,1.4420828,-0.9672183
vit_b_16,1,99,NaN,boat,boat,4-10-10,0099_eid_dnn_4-10-10_boat_10_n03344393_4214.png,n03344393_4214.png,1.0,2.6339424,0.69970673,1.3677111
vit_b_16,1,100,NaN,keyboard,keyboard,4-10-10,0100_eid_dnn_4-10-10_keyboard_10_n03085013_22949.png,n03085013_22949.png,1.0,6.9300942,0.26068595,4.715984
vit_b_16,1,101,NaN,airplane,bear,64-10-10,0101_eid_dnn_64-10-10_bear_10_n02132136_31664.png,n02132136_31664.png,0.0,-0.30483967,2.2265787,-1.789983
vit_b_16,1,102,NaN,bottle,bottle,8-10-10,0102_eid_dnn_8-10-10_bottle_10_n03983396_1985.png,n03983396_1985.png,1.0,1.7056503,0.65609556,0.7421473
vit_b_16,1,103,NaN,airplane,airplane,2-10-10,0103_eid_dnn_2-10-10_airplane_10_n02690373_9266.png,n02690373_9266.png,1.0,9.244014,0.33294693,6.301076
vit_b_16,1,104,NaN,airplane,bottle,128-10-10,0104_eid_dnn_128-10-10_bottle_10_n02823428_5961.png,n02823428_5961.png,0.0,0.25227955,1.1770277,-0.65389574
vit_b_16,1,105,NaN,bottle,bottle,4-10-10,0105_eid_dnn_4-10-10_bottle_10_n04579145_1856.png,n04579145_1856.png,1.0,3.3364398,0.724101,1.8472025
vit_b_16,1,106,NaN,airplane,clock,64-10-10,0106_eid_dnn_64-10-10_clock_10_n02708093_7810.png,n02708093_7810.png,0.0,0.43923426,1.2956103,-0.60554934
vit_b_16,1,107,NaN,elephant,dog,1-10-10,0107_eid_dnn_1-10-10_dog_10_n02100735_4949.png,n02100735_4949.png,0.0,0.07865744,0.16689555,-0.06239377
vit_b_16,1,108,NaN,airplane,chair,32-10-10,0108_eid_dnn_32-10-10_chair_10_n03376595_7275.png,n03376595_7275.png,0.0,-0.21049166,2.145988,-1.6662828
vit_b_16,1,109,NaN,bottle,bottle,2-10-10,0109_eid_dnn_2-10-10_bottle_10_n03983396_16741.png,n03983396_16741.png,1.0,3.4880717,0.14491989,2.3639653
vit_b_16,1,110,NaN,airplane,boat,32-10-10,0110_eid_dnn_32-10-10_boat_10_n04612504_8719.png,n04612504_8719.png,0.0,-0.5223426,1.4760584,-1.4130828
vit_b_16,1,111,NaN,chair,chair,1-10-10,0111_eid_dnn_1-10-10_chair_10_n02791124_3570.png,n02791124_3570.png,1.0,2.0502102,0.07071711,1.399713
vit_b_16,1,112,NaN,oven,bear,32-10-10,0112_eid_dnn_32-10-10_bear_10_n02132136_9557.png,n02132136_9557.png,0.0,0.9007026,1.2758799,-0.26529038
vit_b_16,1,113,NaN,airplane,bird,64-10-10,0113_eid_dnn_64-10-10_bird_10_n02002556_5730.png,n02002556_5730.png,0.0,-0.3651578,4.442004,-3.3991768
vit_b_16,1,114,NaN,oven,oven,4-10-10,0114_eid_dnn_4-10-10_oven_10_n04111531_8959.png,n04111531_8959.png,1.0,5.9093494,0.52968824,3.803995
vit_b_16,1,115,NaN,oven,cat,128-10-10,0115_eid_dnn_128-10-10_cat_10_n02123159_8101.png,n02123159_8101.png,0.0,1.1877805,1.2234958,-0.02525456
vit_b_16,1,116,NaN,cat,cat,8-10-10,0116_eid_dnn_8-10-10_cat_10_n02123597_8890.png,n02123597_8890.png,1.0,2.6889236,0.35881016,1.647639
vit_b_16,1,117,NaN,elephant,elephant,1-10-10,0117_eid_dnn_1-10-10_elephant_10_n02504458_220.png,n02504458_220.png,1.0,6.5874004,0.35008016,4.4104514
vit_b_16,1,118,NaN,bear,bicycle,128-10-10,0118_eid_dnn_128-10-10_bicycle_10_n02835271_2651.png,n02835271_2651.png,0.0,-1.0209236,4.218055,-3.7045171
vit_b_16,1,119,NaN,bottle,keyboard,64-10-10,0119_eid_dnn_64-10-10_keyboard_10_n04505470_1581.png,n04505470_1581.png,0.0,-0.15447089,0.8893188,-0.73807085
vit_b_16,1,120,NaN,truck,truck,4-10-10,0120_eid_dnn_4-10-10_truck_10_n04467665_1719.png,n04467665_1719.png,1.0,2.5108385,0.10836467,1.6988057
vit_b_16,1,121,NaN,truck,truck,2-10-10,0121_eid_dnn_2-10-10_truck_10_n04467665_30756.png,n04467665_30756.png,1.0,2.2836504,0.86023116,1.0065094
vit_b_16,1,122,NaN,clock,oven,64-10-10,0122_eid_dnn_64-10-10_oven_10_n04111531_1818.png,n04111531_1818.png,0.0,0.7832439,1.3764409,-0.41945362
vit_b_16,1,123,NaN,oven,elephant,64-10-10,0123_eid_dnn_64-10-10_elephant_10_n02504013_2974.png,n02504013_2974.png,0.0,3.5692368,3.601795,-0.023022126
vit_b_16,1,124,NaN,clock,bicycle,128-10-10,0124_eid_dnn_128-10-10_bicycle_10_n03792782_7713.png,n03792782_7713.png,0.0,-0.15422314,1.2724552,-1.008814
vit_b_16,1,125,NaN,clock,clock,16-10-10,0125_eid_dnn_16-10-10_clock_10_n04548280_9700.png,n04548280_9700.png,1.0,3.749096,1.0862031,1.8829496
vit_b_16,1,126,NaN,airplane,bottle,16-10-10,0126_eid_dnn_16-10-10_bottle_10_n04591713_1174.png,n04591713_1174.png,0.0,-0.574529,1.0954062,-1.1808225
vit_b_16,1,127,NaN,bear,bear,64-10-10,0127_eid_dnn_64-10-10_bear_10_n02134418_1395.png,n02134418_1395.png,1.0,1.5973204,1.4717551,0.08878807
vit_b_16,1,128,NaN,bear,bottle,128-10-10,0128_eid_dnn_128-10-10_bottle_10_n04591713_36.png,n04591713_36.png,0.0,0.20950153,1.266846,-0.74765545
vit_b_16,1,129,NaN,knife,knife,8-10-10,0129_eid_dnn_8-10-10_knife_10_n03041632_21034.png,n03041632_21034.png,1.0,1.9249729,1.6461997,0.19712241
vit_b_16,1,130,NaN,bicycle,bicycle,1-10-10,0130_eid_dnn_1-10-10_bicycle_10_n03792782_11115.png,n03792782_11115.png,1.0,7.665618,1.1368725,4.6165204
vit_b_16,1,131,NaN,bear,truck,16-10-10,0131_eid_dnn_16-10-10_truck_10_n03417042_5381.png,n03417042_5381.png,0.0,-0.5446864,1.6081096,-1.5222567
vit_b_16,1,132,NaN,airplane,boat,64-10-10,0132_eid_dnn_64-10-10_boat_10_n04612504_15258.png,n04612504_15258.png,0.0,-0.6167998,1.7650712,-1.6842371
vit_b_16,1,133,NaN,boat,boat,2-10-10,0133_eid_dnn_2-10-10_boat_10_n03662601_11972.png,n03662601_11972.png,1.0,4.4371014,0.062964216,3.0929818
vit_b_16,1,134,NaN,bear,dog,64-10-10,0134_eid_dnn_64-10-10_dog_10_n02092002_11459.png,n02092002_11459.png,0.0,0.9398782,1.087144,-0.104132645
vit_b_16,1,135,NaN,bottle,clock,64-10-10,0135_eid_dnn_64-10-10_clock_10_n04548280_6605.png,n04548280_6605.png,0.0,0.7649281,1.0257293,-0.1844143
vit_b_16,1,136,NaN,airplane,boat,64-10-10,0136_eid_dnn_64-10-10_boat_10_n03662601_5600.png,n03662601_5600.png,0.0,0.54664564,3.1841815,-1.8650194
vit_b_16,1,137,NaN,airplane,bear,32-10-10,0137_eid_dnn_32-10-10_bear_10_n02134084_8153.png,n02134084_8153.png,0.0,-0.4083113,2.0507176,-1.7387961
vit_b_16,1,138,NaN,airplane,cat,64-10-10,0138_eid_dnn_64-10-10_cat_10_n02124075_9225.png,n02124075_9225.png,0.0,-0.5178341,1.0297582,-1.0943131
vit_b_16,1,139,NaN,bicycle,bicycle,8-10-10,0139_eid_dnn_8-10-10_bicycle_10_n03792782_3591.png,n03792782_3591.png,1.0,1.7323765,1.1645969,0.40148076
vit_b_16,1,140,NaN,oven,dog,64-10-10,0140_eid_dnn_64-10-10_dog_10_n02107142_31661.png,n02107142_31661.png,0.0,0.41123736,2.592063,-1.5420767
vit_b_16,1,141,NaN,elephant,elephant,8-10-10,0141_eid_dnn_8-10-10_elephant_10_n02504458_651.png,n02504458_651.png,1.0,5.8691664,1.1430558,3.3418648
vit_b_16,1,142,NaN,bear,dog,128-10-10,0142_eid_dnn_128-10-10_dog_10_n02110958_15217.png,n02110958_15217.png,0.0,0.75320834,1.6461563,-0.6314096
vit_b_16,1,143,NaN,chair,oven,4-10-10,0143_eid_dnn_4-10-10_oven_10_n04111531_523.png,n04111531_523.png,0.0,0.98585325,1.2071587,-0.15648657
vit_b_16,1,144,NaN,car,car,4-10-10,0144_eid_dnn_4-10-10_car_10_n02814533_42884.png,n02814533_42884.png,1.0,4.712904,3.2441158,1.0385901
vit_b_16,1,145,NaN,oven,car,64-10-10,0145_eid_dnn_64-10-10_car_10_n04285008_8017.png,n04285008_8017.png,0.0,-0.5925102,4.657946,-3.7126334
vit_b_16,1,146,NaN,car,car,1-10-10,0146_eid_dnn_1-10-10_car_10_n03100240_16766.png,n03100240_16766.png,1.0,5.276474,2.6771936,1.8379688
vit_b_16,1,147,NaN,elephant,elephant,8-10-10,0147_eid_dnn_8-10-10_elephant_10_n02504458_4593.png,n02504458_4593.png,1.0,5.2612443,1.3647093,2.7552664
vit_b_16,1,148,NaN,airplane,chair,64-10-10,0148_eid_dnn_64-10-10_chair_10_n02791124_1358.png,n02791124_1358.png,0.0,-0.8005651,1.8447433,-1.8705156
vit_b_16,1,149,NaN,airplane,dog,16-10-10,0149_eid_dnn_16-10-10_dog_10_n02095314_5363.png,n02095314_5363.png,0.0,0.67103046,1.8719243,-0.8491602
vit_b_16,1,150,NaN,clock,clock,8-10-10,0150_eid_dnn_8-10-10_clock_10_n04548280_1413.png,n04548280_1413.png,1.0,5.97772,0.31380054,4.004996
vit_b_16,1,151,NaN,car,dog,1-10-10,0151_eid_dnn_1-10-10_dog_10_n02105641_10948.png,n02105641_10948.png,0.0,0.051048007,0.25224432,-0.14226729
vit_b_16,1,152,NaN,knife,dog,1-10-10,0152_eid_dnn_1-10-10_dog_10_n02113624_1691.png,n02113624_1691.png,0.0,0.06161176,0.08614501,-0.01734763
vit_b_16,1,153,NaN,car,car,4-10-10,0153_eid_dnn_4-10-10_car_10_n03100240_2235.png,n03100240_2235.png,1.0,6.2032714,2.389237,2.6969297
vit_b_16,1,154,NaN,chair,chair,2-10-10,0154_eid_dnn_2-10-10_chair_10_n04099969_56470.png,n04099969_56470.png,1.0,3.2852545,0.5004999,1.9691188
vit_b_16,1,155,NaN,oven,oven,2-10-10,0155_eid_dnn_2-10-10_oven_10_n04111531_5429.png,n04111531_5429.png,1.0,8.637982,0.27353078,5.9145603
vit_b_16,1,156,NaN,airplane,keyboard,64-10-10,0156_eid_dnn_64-10-10_keyboard_10_n03085013_19317.png,n03085013_19317.png,0.0,-0.5057566,1.8272682,-1.6496978
vit_b_16,1,157,NaN,bottle,bird,64-10-10,0157_eid_dnn_64-10-10_bird_10_n01601694_19650.png,n01601694_19650.png,0.0,-0.5538543,0.85686654,-0.9975303
vit_b_16,1,158,NaN,dog,clock,128-10-10,0158_eid_dnn_128-10-10_clock_10_n03196217_11199.png,n03196217_11199.png,0.0,0.14374477,0.621325,-0.33770025
vit_b_16,1,159,NaN,airplane,bottle,32-10-10,0159_eid_dnn_32-10-10_bottle_10_n03937543_2209.png,n03937543_2209.png,0.0,0.18015857,1.6013474,-1.0049323
vit_b_16,1,160,NaN,oven,car,64-10-10,0160_eid_dnn_64-10-10_car_10_n03100240_16939.png,n03100240_16939.png,0.0,-0.053314235,2.1822548,-1.580786
vit_b_16,1,161,NaN,airplane,bottle,8-10-10,0161_eid_dnn_8-10-10_bottle_10_n04591713_2501.png,n04591713_2501.png,0.0,0.7798459,0.9490643,-0.1196555
vit_b_16,1,162,NaN,airplane,airplane,16-10-10,0162_eid_dnn_16-10-10_airplane_10_n02690373_10395.png,n02690373_10395.png,1.0,9.2996,0.5251336,6.204484
vit_b_16,1,163,NaN,airplane,oven,8-10-10,0163_eid_dnn_8-10-10_oven_10_n04111531_3286.png,n04111531_3286.png,0.0,-0.20854455,0.42701554,-0.44940886
vit_b_16,1,164,NaN,oven,boat,64-10-10,0164_eid_dnn_64-10-10_boat_10_n04273569_13401.png,n04273569_13401.png,0.0,0.7191652,2.4165392,-1.2002246
vit_b_16,1,165,NaN,clock,elephant,64-10-10,0165_eid_dnn_64-10-10_elephant_10_n02504458_12776.png,n02504458_12776.png,0.0,-0.5100498,0.7826025,-0.91404325
vit_b_16,1,166,NaN,airplane,bird,2-10-10,0166_eid_dnn_2-10-10_bird_10_n01828970_997.png,n01828970_997.png,0.0,0.5631256,2.7307315,-1.5327288
vit_b_16,1,167,NaN,bear,bear,8-10-10,0167_eid_dnn_8-10-10_bear_10_n02132136_10318.png,n02132136_10318.png,1.0,4.9597645,0.6091631,3.0763397
vit_b_16,1,168,NaN,oven,oven,32-10-10,0168_eid_dnn_32-10-10_oven_10_n04111531_7883.png,n04111531_7883.png,1.0,3.6163812,1.1092623,1.7728007
vit_b_16,1,169,NaN,oven,clock,128-10-10,0169_eid_dnn_128-10-10_clock_10_n02708093_725.png,n02708093_725.png,0.0,0.6730368,0.71094817,-0.026807377
vit_b_16,1,170,NaN,oven,bottle,16-10-10,0170_eid_dnn_16-10-10_bottle_10_n04557648_2052.png,n04557648_2052.png,0.0,-0.6101302,3.4024456,-2.8373194
vit_b_16,1,171,NaN,oven,keyboard,32-10-10,0171_eid_dnn_32-10-10_keyboard_10_n04505470_5036.png,n04505470_5036.png,0.0,-0.71377194,3.3291807,-2.8587992
vit_b_16,1,172,NaN,elephant,elephant,8-10-10,0172_eid_dnn_8-10-10_elephant_10_n02504458_13352.png,n02504458_13352.png,1.0,7.020627,4.477311,1.798396
vit_b_16,1,173,NaN,chair,chair,4-10-10,0173_eid_dnn_4-10-10_chair_10_n04429376_30620.png,n04429376_30620.png,1.0,5.1489687,0.4029888,3.3559146
vit_b_16,1,174,NaN,boat,boat,16-10-10,0174_eid_dnn_16-10-10_boat_10_n03662601_2980.png,n03662601_2980.png,1.0,2.0196805,0.8499809,0.8271026
vit_b_16,1,175,NaN,oven,boat,8-10-10,0175_eid_dnn_8-10-10_boat_10_n03662601_4734.png,n03662601_4734.png,0.0,1.2347658,1.5435871,-0.21836965
vit_b_16,1,176,NaN,bear,bear,2-10-10,0176_eid_dnn_2-10-10_bear_10_n02134418_4754.png,n02134418_4754.png,1.0,2.5033815,0.23885272,1.6012636
vit_b_16,1,177,NaN,elephant,elephant,2-10-10,0177_eid_dnn_2-10-10_elephant_10_n02504013_8522.png,n02504013_8522.png,1.0,6.4990263,0.2047198,4.4507465
vit_b_16,1,178,NaN,oven,bottle,64-10-10,0178_eid_dnn_64-10-10_bottle_10_n03937543_4863.png,n03937543_4863.png,0.0,0.26653045,3.7356749,-2.4530556
vit_b_16,1,179,NaN,oven,car,16-10-10,0179_eid_dnn_16-10-10_car_10_n04285008_10802.png,n04285008_10802.png,0.0,-0.79333705,1.8273455,-1.8531023
vit_b_16,1,180,NaN,cat,knife,64-10-10,0180_eid_dnn_64-10-10_knife_10_n03041632_6708.png,n03041632_6708.png,0.0,0.33232525,3.0911644,-1.9507939
vit_b_16,1,181,NaN,dog,dog,1-10-10,0181_eid_dnn_1-10-10_dog_10_n02107142_61109.png,n02107142_61109.png,1.0,0.16223773,0.07244973,0.063489705
vit_b_16,1,182,NaN,clock,clock,2-10-10,0182_eid_dnn_2-10-10_clock_10_n03196217_8139.png,n03196217_8139.png,1.0,6.0294285,1.6157616,3.1209338
vit_b_16,1,183,NaN,elephant,elephant,1-10-10,0183_eid_dnn_1-10-10_elephant_10_n02504458_6611.png,n02504458_6611.png,1.0,6.2796307,0.43169948,4.135112
vit_b_16,1,184,NaN,oven,truck,64-10-10,0184_eid_dnn_64-10-10_truck_10_n04467665_4401.png,n04467665_4401.png,0.0,-0.45710725,3.7693384,-2.9885485
vit_b_16,1,185,NaN,boat,boat,4-10-10,0185_eid_dnn_4-10-10_boat_10_n03344393_732.png,n03344393_732.png,1.0,2.4118922,1.1391596,0.8999579
vit_b_16,1,186,NaN,knife,knife,4-10-10,0186_eid_dnn_4-10-10_knife_10_n03041632_41381.png,n03041632_41381.png,1.0,10.694736,0.55545706,7.169553
vit_b_16,1,187,NaN,oven,oven,32-10-10,0187_eid_dnn_32-10-10_oven_10_n04111531_22715.png,n04111531_22715.png,1.0,5.446536,1.6504464,2.6842408
vit_b_16,1,188,NaN,cat,cat,16-10-10,0188_eid_dnn_16-10-10_cat_10_n02123045_3568.png,n02123045_3568.png,1.0,3.2579384,0.8563565,1.6981748
vit_b_16,1,189,NaN,truck,truck,2-10-10,0189_eid_dnn_2-10-10_truck_10_n03796401_18976.png,n03796401_18976.png,1.0,2.4395022,1.4667457,0.6878427
vit_b_16,1,190,NaN,oven,oven,8-10-10,0190_eid_dnn_8-10-10_oven_10_n04111531_15710.png,n04111531_15710.png,1.0,2.582508,0.48948684,1.4799895
vit_b_16,1,191,NaN,airplane,elephant,32-10-10,0191_eid_dnn_32-10-10_elephant_10_n02504013_7232.png,n02504013_7232.png,0.0,-0.35888463,2.9323878,-2.327281
vit_b_16,1,192,NaN,knife,clock,64-10-10,0192_eid_dnn_64-10-10_clock_10_n02708093_5126.png,n02708093_5126.png,0.0,0.56363994,1.3717092,-0.5713913
vit_b_16,1,193,NaN,oven,cat,32-10-10,0193_eid_dnn_32-10-10_cat_10_n02123159_1598.png,n02123159_1598.png,0.0,-0.61813366,6.4093976,-4.969215
vit_b_16,1,194,NaN,car,car,1-10-10,0194_eid_dnn_1-10-10_car_10_n04285008_1661.png,n04285008_1661.png,1.0,6.1242805,1.0453714,3.591331
vit_b_16,1,195,NaN,clock,clock,2-10-10,0195_eid_dnn_2-10-10_clock_10_n02708093_5551.png,n02708093_5551.png,1.0,6.0614896,0.24178354,4.115154
vit_b_16,1,196,NaN,airplane,airplane,128-10-10,0196_eid_dnn_128-10-10_airplane_10_n02690373_693.png,n02690373_693.png,1.0,2.943181,1.1966345,1.2349949
vit_b_16,1,197,NaN,elephant,elephant,2-10-10,0197_eid_dnn_2-10-10_elephant_10_n02504013_3409.png,n02504013_3409.png,1.0,6.0949936,0.16476096,4.193308
vit_b_16,1,198,NaN,airplane,dog,64-10-10,0198_eid_dnn_64-10-10_dog_10_n02113712_8182.png,n02113712_8182.png,0.0,0.4733104,0.72987396,-0.18141782
vit_b_16,1,199,NaN,bottle,bottle,1-10-10,0199_eid_dnn_1-10-10_bottle_10_n03983396_8322.png,n03983396_8322.png,1.0,3.9967105,0.41986522,2.5292118
vit_b_16,1,200,NaN,cat,keyboard,64-10-10,0200_eid_dnn_64-10-10_keyboard_10_n04505470_1040.png,n04505470_1040.png,0.0,-0.62625444,0.63165087,-0.8894733
vit_b_16,1,201,NaN,airplane,oven,32-10-10,0201_eid_dnn_32-10-10_oven_10_n04111531_11230.png,n04111531_11230.png,0.0,0.5689017,1.3849651,-0.57704395
vit_b_16,1,202,NaN,cat,cat,1-10-10,0202_eid_dnn_1-10-10_cat_10_n02123394_6269.png,n02123394_6269.png,1.0,3.9692576,1.4693501,1.7677016
vit_b_16,1,203,NaN,elephant,elephant,2-10-10,0203_eid_dnn_2-10-10_elephant_10_n02504013_2075.png,n02504013_2075.png,1.0,6.1041594,0.4752299,3.9802544
vit_b_16,1,204,NaN,bear,bear,1-10-10,0204_eid_dnn_1-10-10_bear_10_n02133161_3795.png,n02133161_3795.png,1.0,4.5392265,0.5702956,2.806458
vit_b_16,1,205,NaN,oven,oven,2-10-10,0205_eid_dnn_2-10-10_oven_10_n04111531_4322.png,n04111531_4322.png,1.0,5.836695,2.1135538,2.6326585
vit_b_16,1,206,NaN,bottle,bottle,4-10-10,0206_eid_dnn_4-10-10_bottle_10_n03937543_5799.png,n03937543_5799.png,1.0,2.132487,1.9436105,0.13355586
vit_b_16,1,207,NaN,keyboard,keyboard,8-10-10,0207_eid_dnn_8-10-10_keyboard_10_n04505470_4414.png,n04505470_4414.png,1.0,5.3578277,0.97041094,3.1023722
vit_b_16,1,208,NaN,dog,dog,4-10-10,0208_eid_dnn_4-10-10_dog_10_n02091032_8315.png,n02091032_8315.png,1.0,0.56644994,0.3787542,0.13272093
vit_b_16,1,209,NaN,knife,knife,2-10-10,0209_eid_dnn_2-10-10_knife_10_n03041632_39952.png,n03041632_39952.png,1.0,8.165584,0.5206729,5.4057684
vit_b_16,1,210,NaN,chair,chair,8-10-10,0210_eid_dnn_8-10-10_chair_10_n02791124_634.png,n02791124_634.png,1.0,4.2959766,1.0593132,2.2886667
vit_b_16,1,211,NaN,airplane,boat,32-10-10,0211_eid_dnn_32-10-10_boat_10_n03344393_3355.png,n03344393_3355.png,0.0,0.9271973,2.6693912,-1.2319171
vit_b_16,1,212,NaN,airplane,dog,32-10-10,0212_eid_dnn_32-10-10_dog_10_n02102040_7188.png,n02102040_7188.png,0.0,0.2322013,1.5660144,-0.94314826
vit_b_16,1,213,NaN,chair,chair,2-10-10,0213_eid_dnn_2-10-10_chair_10_n02791124_8711.png,n02791124_8711.png,1.0,2.309874,0.4763526,1.2964956
vit_b_16,1,214,NaN,oven,bear,64-10-10,0214_eid_dnn_64-10-10_bear_10_n02132136_6002.png,n02132136_6002.png,0.0,1.2474952,1.5411452,-0.20764193
vit_b_16,1,215,NaN,boat,boat,4-10-10,0215_eid_dnn_4-10-10_boat_10_n02951358_30184.png,n02951358_30184.png,1.0,4.115816,2.1570363,1.3850665
vit_b_16,1,216,NaN,oven,bottle,128-10-10,0216_eid_dnn_128-10-10_bottle_10_n02823428_3414.png,n02823428_3414.png,0.0,-0.18475325,1.7547086,-1.3714067
vit_b_16,1,217,NaN,airplane,truck,4-10-10,0217_eid_dnn_4-10-10_truck_10_n04467665_13231.png,n04467665_13231.png,0.0,3.4395728,4.0768204,-0.45060208
vit_b_16,1,218,NaN,chair,chair,4-10-10,0218_eid_dnn_4-10-10_chair_10_n04099969_8063.png,n04099969_8063.png,1.0,2.5266943,0.72835445,1.2716184
vit_b_16,1,219,NaN,bird,bird,4-10-10,0219_eid_dnn_4-10-10_bird_10_n01534433_10234.png,n01534433_10234.png,1.0,0.8037557,0.06491266,0.5224409
vit_b_16,1,220,NaN,elephant,elephant,4-10-10,0220_eid_dnn_4-10-10_elephant_10_n02504013_12533.png,n02504013_12533.png,1.0,5.454935,0.59280133,3.438048
vit_b_16,1,221,NaN,airplane,knife,16-10-10,0221_eid_dnn_16-10-10_knife_10_n03041632_18995.png,n03041632_18995.png,0.0,-0.144157,1.8403965,-1.4032913
vit_b_16,1,222,NaN,airplane,chair,32-10-10,0222_eid_dnn_32-10-10_chair_10_n04429376_7123.png,n04429376_7123.png,0.0,-0.8697382,2.6240556,-2.4704854
vit_b_16,1,223,NaN,airplane,clock,64-10-10,0223_eid_dnn_64-10-10_clock_10_n03196217_9065.png,n03196217_9065.png,0.0,0.77908856,2.2420893,-1.0344977
vit_b_16,1,224,NaN,bicycle,dog,4-10-10,0224_eid_dnn_4-10-10_dog_10_n02086079_4143.png,n02086079_4143.png,0.0,-0.17447159,0.26418942,-0.3101802
vit_b_16,1,225,NaN,bear,bear,4-10-10,0225_eid_dnn_4-10-10_bear_10_n02132136_20162.png,n02132136_20162.png,1.0,4.282552,0.4522863,2.7084067
vit_b_16,1,226,NaN,bottle,bottle,1-10-10,0226_eid_dnn_1-10-10_bottle_10_n03983396_4165.png,n03983396_4165.png,1.0,3.4267294,-0.2514578,2.6008713
vit_b_16,1,227,NaN,bird,bird,4-10-10,0227_eid_dnn_4-10-10_bird_10_n01824575_4470.png,n01824575_4470.png,1.0,0.26784396,0.2149338,0.037413135
vit_b_16,1,228,NaN,bear,oven,64-10-10,0228_eid_dnn_64-10-10_oven_10_n04111531_9695.png,n04111531_9695.png,0.0,1.3057185,1.5078921,-0.14295831
vit_b_16,1,229,NaN,oven,bottle,64-10-10,0229_eid_dnn_64-10-10_bottle_10_n02823428_23181.png,n02823428_23181.png,0.0,-0.17424227,2.4012244,-1.8211299
vit_b_16,1,230,NaN,bicycle,bicycle,2-10-10,0230_eid_dnn_2-10-10_bicycle_10_n02835271_13674.png,n02835271_13674.png,1.0,6.3867188,0.71714735,4.0089927
vit_b_16,1,231,NaN,chair,chair,2-10-10,0231_eid_dnn_2-10-10_chair_10_n04429376_55747.png,n04429376_55747.png,1.0,3.029634,0.9494078,1.470942
vit_b_16,1,232,NaN,oven,boat,32-10-10,0232_eid_dnn_32-10-10_boat_10_n02951358_8346.png,n02951358_8346.png,0.0,-0.72304523,1.8010584,-1.7848108
vit_b_16,1,233,NaN,bear,elephant,16-10-10,0233_eid_dnn_16-10-10_elephant_10_n02504013_1088.png,n02504013_1088.png,0.0,3.374216,5.231854,-1.3135483
vit_b_16,1,234,NaN,car,car,8-10-10,0234_eid_dnn_8-10-10_car_10_n03100240_11191.png,n03100240_11191.png,1.0,3.42015,1.8975106,1.0766686
vit_b_16,1,235,NaN,chair,chair,8-10-10,0235_eid_dnn_8-10-10_chair_10_n04099969_19966.png,n04099969_19966.png,1.0,5.600575,1.301778,3.0397086
vit_b_16,1,236,NaN,airplane,bicycle,32-10-10,0236_eid_dnn_32-10-10_bicycle_10_n03792782_15016.png,n03792782_15016.png,0.0,-0.6755018,1.2993382,-1.3964229
vit_b_16,1,237,NaN,bear,boat,128-10-10,0237_eid_dnn_128-10-10_boat_10_n02951358_17867.png,n02951358_17867.png,0.0,-0.95260394,2.3549216,-2.3387737
vit_b_16,1,238,NaN,cat,cat,2-10-10,0238_eid_dnn_2-10-10_cat_10_n02123045_2364.png,n02123045_2364.png,1.0,3.1599503,0.9445042,1.5665569
vit_b_16,1,239,NaN,bear,bear,2-10-10,0239_eid_dnn_2-10-10_bear_10_n02132136_9433.png,n02132136_9433.png,1.0,6.1966314,0.6355417,3.932284
vit_b_16,1,240,NaN,airplane,clock,32-10-10,0240_eid_dnn_32-10-10_clock_10_n03196217_3167.png,n03196217_3167.png,0.0,1.1869143,3.4166834,-1.576685
vit_b_16,1,241,NaN,clock,clock,32-10-10,0241_eid_dnn_32-10-10_clock_10_n03196217_3129.png,n03196217_3129.png,1.0,1.2785245,0.8483287,0.3041944
vit_b_16,1,242,NaN,elephant,keyboard,128-10-10,0242_eid_dnn_128-10-10_keyboard_10_n03085013_6067.png,n03085013_6067.png,0.0,-1.024961,1.053094,-1.4694067
vit_b_16,1,243,NaN,keyboard,keyboard,2-10-10,0243_eid_dnn_2-10-10_keyboard_10_n03085013_24648.png,n03085013_24648.png,1.0,7.1340404,0.41662347,4.749931
vit_b_16,1,244,NaN,oven,oven,32-10-10,0244_eid_dnn_32-10-10_oven_10_n04111531_6695.png,n04111531_6695.png,1.0,4.2210517,2.31329,1.3489912
vit_b_16,1,245,NaN,dog,dog,4-10-10,0245_eid_dnn_4-10-10_dog_10_n02111500_4875.png,n02111500_4875.png,1.0,0.23990169,0.20970607,0.021351531
vit_b_16,1,246,NaN,airplane,oven,32-10-10,0246_eid_dnn_32-10-10_oven_10_n04111531_13018.png,n04111531_13018.png,0.0,0.7162156,3.0793338,-1.6709769
vit_b_16,1,247,NaN,oven,keyboard,128-10-10,0247_eid_dnn_128-10-10_keyboard_10_n03085013_23030.png,n03085013_23030.png,0.0,-0.7486572,3.6151447,-3.085674
vit_b_16,1,248,NaN,dog,cat,8-10-10,0248_eid_dnn_8-10-10_cat_10_n02123045_8409.png,n02123045_8409.png,0.0,0.5257949,1.4357653,-0.6434462
vit_b_16,1,249,NaN,bicycle,bicycle,4-10-10,0249_eid_dnn_4-10-10_bicycle_10_n03792782_37777.png,n03792782_37777.png,1.0,7.7548103,0.987128,4.785474
vit_b_16,1,250,NaN,elephant,airplane,64-10-10,0250_eid_dnn_64-10-10_airplane_10_n02690373_614.png,n02690373_614.png,0.0,2.2813954,2.3362045,-0.038755883
vit_b_16,1,251,NaN,oven,keyboard,128-10-10,0251_eid_dnn_128-10-10_keyboard_10_n03085013_19775.png,n03085013_19775.png,0.0,-0.5706025,3.6117876,-2.9573965
vit_b_16,1,252,NaN,bear,bear,8-10-10,0252_eid_dnn_8-10-10_bear_10_n02133161_1244.png,n02133161_1244.png,1.0,4.2397795,1.2475016,2.11586
vit_b_16,1,253,NaN,keyboard,keyboard,2-10-10,0253_eid_dnn_2-10-10_keyboard_10_n04505470_4368.png,n04505470_4368.png,1.0,4.9223146,0.2674728,3.2914703
vit_b_16,1,254,NaN,oven,oven,2-10-10,0254_eid_dnn_2-10-10_oven_10_n04111531_7728.png,n04111531_7728.png,1.0,9.383323,0.98913544,5.9355865
vit_b_16,1,255,NaN,oven,clock,8-10-10,0255_eid_dnn_8-10-10_clock_10_n04548280_1.png,n04548280_1.png,0.0,1.5041741,1.5122155,-0.005686116
vit_b_16,1,256,NaN,airplane,cat,64-10-10,0256_eid_dnn_64-10-10_cat_10_n02123394_3062.png,n02123394_3062.png,0.0,0.1898628,1.9742247,-1.2617344
vit_b_16,1,257,NaN,elephant,elephant,2-10-10,0257_eid_dnn_2-10-10_elephant_10_n02504013_466.png,n02504013_466.png,1.0,6.807624,0.3890227,4.538636
vit_b_16,1,258,NaN,elephant,elephant,1-10-10,0258_eid_dnn_1-10-10_elephant_10_n02504013_6275.png,n02504013_6275.png,1.0,6.455385,0.21483336,4.412737
vit_b_16,1,259,NaN,car,bird,4-10-10,0259_eid_dnn_4-10-10_bird_10_n01560419_5466.png,n01560419_5466.png,0.0,0.22355899,0.50819445,-0.20126766
vit_b_16,1,260,NaN,dog,truck,8-10-10,0260_eid_dnn_8-10-10_truck_10_n03796401_5227.png,n03796401_5227.png,0.0,-0.4370488,0.5909196,-0.7268835
vit_b_16,1,261,NaN,chair,chair,2-10-10,0261_eid_dnn_2-10-10_chair_10_n04099969_25124.png,n04099969_25124.png,1.0,2.857891,0.687817,1.534474
vit_b_16,1,262,NaN,bicycle,elephant,64-10-10,0262_eid_dnn_64-10-10_elephant_10_n02504013_7209.png,n02504013_7209.png,0.0,2.0000672,2.102632,-0.07252427
vit_b_16,1,263,NaN,cat,cat,1-10-10,0263_eid_dnn_1-10-10_cat_10_n02123597_4756.png,n02123597_4756.png,1.0,2.3866456,0.51332253,1.3246394
vit_b_16,1,264,NaN,airplane,bicycle,16-10-10,0264_eid_dnn_16-10-10_bicycle_10_n02835271_4654.png,n02835271_4654.png,0.0,-0.07061577,1.7241398,-1.2690839
vit_b_16,1,265,NaN,keyboard,keyboard,1-10-10,0265_eid_dnn_1-10-10_keyboard_10_n04505470_2389.png,n04505470_2389.png,1.0,5.1965423,0.3339576,3.4383667
vit_b_16,1,266,NaN,knife,knife,128-10-10,0266_eid_dnn_128-10-10_knife_10_n03041632_379.png,n03041632_379.png,1.0,1.5223576,0.8560731,0.4711343
vit_b_16,1,267,NaN,clock,clock,8-10-10,0267_eid_dnn_8-10-10_clock_10_n02708093_899.png,n02708093_899.png,1.0,4.0040326,1.9325504,1.4647591
vit_b_16,1,268,NaN,clock,truck,128-10-10,0268_eid_dnn_128-10-10_truck_10_n03417042_10154.png,n03417042_10154.png,0.0,-1.0269756,0.9165805,-1.3743017
vit_b_16,1,269,NaN,bottle,bottle,2-10-10,0269_eid_dnn_2-10-10_bottle_10_n04579145_3415.png,n04579145_3415.png,1.0,2.4173849,0.6165932,1.273352
vit_b_16,1,270,NaN,airplane,chair,16-10-10,0270_eid_dnn_16-10-10_chair_10_n02791124_146.png,n02791124_146.png,0.0,-0.08839113,1.0300459,-0.79085445
vit_b_16,1,271,NaN,elephant,elephant,128-10-10,0271_eid_dnn_128-10-10_elephant_10_n02504458_2835.png,n02504458_2835.png,1.0,1.7803466,1.366397,0.29270658
vit_b_16,1,272,NaN,bicycle,bicycle,1-10-10,0272_eid_dnn_1-10-10_bicycle_10_n03792782_13835.png,n03792782_13835.png,1.0,7.216486,0.48256633,4.7616005
vit_b_16,1,273,NaN,bear,bicycle,32-10-10,0273_eid_dnn_32-10-10_bicycle_10_n02835271_12926.png,n02835271_12926.png,0.0,-0.49612457,1.4131055,-1.3500295
vit_b_16,1,274,NaN,elephant,dog,2-10-10,0274_eid_dnn_2-10-10_dog_10_n02110185_11605.png,n02110185_11605.png,0.0,-0.20129588,0.25961182,-0.32591096
vit_b_16,1,275,NaN,oven,elephant,128-10-10,0275_eid_dnn_128-10-10_elephant_10_n02504458_3091.png,n02504458_3091.png,0.0,-0.14204706,1.0541769,-0.8458581
vit_b_16,1,276,NaN,airplane,chair,128-10-10,0276_eid_dnn_128-10-10_chair_10_n04099969_5233.png,n04099969_5233.png,0.0,-0.6195992,1.1238304,-1.232791
vit_b_16,1,277,NaN,dog,dog,2-10-10,0277_eid_dnn_2-10-10_dog_10_n02097209_7628.png,n02097209_7628.png,1.0,0.5267825,0.20364338,0.22849387
vit_b_16,1,278,NaN,cat,cat,8-10-10,0278_eid_dnn_8-10-10_cat_10_n02123597_10941.png,n02123597_10941.png,1.0,4.6278543,0.8764154,2.652668
vit_b_16,1,279,NaN,bear,clock,16-10-10,0279_eid_dnn_16-10-10_clock_10_n02708093_3006.png,n02708093_3006.png,0.0,0.35071865,1.6138202,-0.8931477
vit_b_16,1,280,NaN,truck,truck,1-10-10,0280_eid_dnn_1-10-10_truck_10_n03796401_26620.png,n03796401_26620.png,1.0,2.14652,0.40120792,1.2341219
vit_b_16,1,281,NaN,bear,bear,128-10-10,0281_eid_dnn_128-10-10_bear_10_n02134418_12733.png,n02134418_12733.png,1.0,1.182262,1.005797,0.12477954
vit_b_16,1,282,NaN,knife,knife,2-10-10,0282_eid_dnn_2-10-10_knife_10_n03041632_4806.png,n03041632_4806.png,1.0,5.6946397,0.5176871,3.6606581
vit_b_16,1,283,NaN,oven,oven,4-10-10,0283_eid_dnn_4-10-10_oven_10_n04111531_17922.png,n04111531_17922.png,1.0,4.78538,2.605893,1.5411301
vit_b_16,1,284,NaN,bottle,bottle,1-10-10,0284_eid_dnn_1-10-10_bottle_10_n04579145_6818.png,n04579145_6818.png,1.0,2.318363,0.55224735,1.2488323
vit_b_16,1,285,NaN,keyboard,keyboard,4-10-10,0285_eid_dnn_4-10-10_keyboard_10_n04505470_494.png,n04505470_494.png,1.0,7.5907574,0.499894,5.0139976
vit_b_16,1,286,NaN,cat,cat,8-10-10,0286_eid_dnn_8-10-10_cat_10_n02123045_10834.png,n02123045_10834.png,1.0,4.8236127,0.45396757,3.0898058
vit_b_16,1,287,NaN,cat,cat,128-10-10,0287_eid_dnn_128-10-10_cat_10_n02123394_176.png,n02123394_176.png,1.0,1.4171534,1.1315168,0.20197554
vit_b_16,1,288,NaN,dog,chair,128-10-10,0288_eid_dnn_128-10-10_chair_10_n03376595_2891.png,n03376595_2891.png,0.0,-1.0000587,1.2960839,-1.623618
vit_b_16,1,289,NaN,dog,dog,8-10-10,0289_eid_dnn_8-10-10_dog_10_n02093256_5647.png,n02093256_5647.png,1.0,1.3762261,0.007851131,0.96758723
vit_b_16,1,290,NaN,cat,knife,64-10-10,0290_eid_dnn_64-10-10_knife_10_n03041632_33326.png,n03041632_33326.png,0.0,-0.58180636,1.8878978,-1.7463446
vit_b_16,1,291,NaN,airplane,airplane,8-10-10,0291_eid_dnn_8-10-10_airplane_10_n02690373_2856.png,n02690373_2856.png,1.0,2.074195,0.6657153,0.9959456
vit_b_16,1,292,NaN,oven,bicycle,128-10-10,0292_eid_dnn_128-10-10_bicycle_10_n03792782_9651.png,n03792782_9651.png,0.0,-0.44084543,1.0045122,-1.0220221
vit_b_16,1,293,NaN,bicycle,bicycle,2-10-10,0293_eid_dnn_2-10-10_bicycle_10_n02835271_7438.png,n02835271_7438.png,1.0,5.9549427,1.9204504,2.852817
vit_b_16,1,294,NaN,airplane,bicycle,128-10-10,0294_eid_dnn_128-10-10_bicycle_10_n02835271_26639.png,n02835271_26639.png,0.0,-0.43060037,1.5279626,-1.3849132
vit_b_16,1,295,NaN,keyboard,keyboard,8-10-10,0295_eid_dnn_8-10-10_keyboard_10_n04505470_4458.png,n04505470_4458.png,1.0,5.907538,0.58990705,3.7601328
vit_b_16,1,296,NaN,airplane,dog,64-10-10,0296_eid_dnn_64-10-10_dog_10_n02106662_24847.png,n02106662_24847.png,0.0,-0.1777881,1.886082,-1.4593766
vit_b_16,1,297,NaN,bear,chair,32-10-10,0297_eid_dnn_32-10-10_chair_10_n03376595_8995.png,n03376595_8995.png,0.0,-0.3461876,0.65314066,-0.7066318
vit_b_16,1,298,NaN,oven,bicycle,64-10-10,0298_eid_dnn_64-10-10_bicycle_10_n03792782_6030.png,n03792782_6030.png,0.0,-0.61502665,2.1421971,-1.9496517
vit_b_16,1,299,NaN,elephant,elephant,4-10-10,0299_eid_dnn_4-10-10_elephant_10_n02504458_7258.png,n02504458_7258.png,1.0,6.540556,0.36899215,4.3639545
vit_b_16,1,300,NaN,airplane,boat,128-10-10,0300_eid_dnn_128-10-10_boat_10_n03662601_23903.png,n03662601_23903.png,0.0,-0.58461154,1.659655,-1.5869361
vit_b_16,1,301,NaN,bear,bird,16-10-10,0301_eid_dnn_16-10-10_bird_10_n02002724_578.png,n02002724_578.png,0.0,-0.074496716,0.39092386,-0.32910204
vit_b_16,1,302,NaN,airplane,chair,64-10-10,0302_eid_dnn_64-10-10_chair_10_n03376595_2393.png,n03376595_2393.png,0.0,-0.8006308,1.1234624,-1.3605394
vit_b_16,1,303,NaN,airplane,boat,16-10-10,0303_eid_dnn_16-10-10_boat_10_n03662601_5118.png,n03662601_5118.png,0.0,-0.44838327,1.4547249,-1.3457006
vit_b_16,1,304,NaN,chair,chair,8-10-10,0304_eid_dnn_8-10-10_chair_10_n04429376_21845.png,n04429376_21845.png,1.0,1.4948161,0.8024276,0.48959258
vit_b_16,1,305,NaN,dog,dog,8-10-10,0305_eid_dnn_8-10-10_dog_10_n02102040_2216.png,n02102040_2216.png,1.0,0.78986144,0.69177604,0.06935686
vit_b_16,1,306,NaN,airplane,airplane,8-10-10,0306_eid_dnn_8-10-10_airplane_10_n02690373_3032.png,n02690373_3032.png,1.0,4.2544193,1.7885857,1.7436078
vit_b_16,1,307,NaN,dog,dog,8-10-10,0307_eid_dnn_8-10-10_dog_10_n02100735_2228.png,n02100735_2228.png,1.0,1.2337356,0.048441518,0.83812946
vit_b_16,1,308,NaN,bird,bird,8-10-10,0308_eid_dnn_8-10-10_bird_10_n01532829_13864.png,n01532829_13864.png,1.0,0.83635527,0.3944614,0.31246617
vit_b_16,1,309,NaN,knife,bird,64-10-10,0309_eid_dnn_64-10-10_bird_10_n01601694_13787.png,n01601694_13787.png,0.0,-0.53803736,1.1907848,-1.2224619
vit_b_16,1,310,NaN,airplane,bear,64-10-10,0310_eid_dnn_64-10-10_bear_10_n02134084_22150.png,n02134084_22150.png,0.0,0.05092196,2.4793408,-1.7171515
vit_b_16,1,311,NaN,airplane,knife,16-10-10,0311_eid_dnn_16-10-10_knife_10_n03041632_29427.png,n03041632_29427.png,0.0,0.10889889,3.2616432,-2.229327
vit_b_16,1,312,NaN,chair,chair,4-10-10,0312_eid_dnn_4-10-10_chair_10_n02791124_2804.png,n02791124_2804.png,1.0,2.5390835,0.22509657,1.636236
vit_b_16,1,313,NaN,bottle,bottle,4-10-10,0313_eid_dnn_4-10-10_bottle_10_n04591713_5046.png,n04591713_5046.png,1.0,3.5391421,0.7176153,1.9951208
vit_b_16,1,314,NaN,knife,bicycle,128-10-10,0314_eid_dnn_128-10-10_bicycle_10_n03792782_4210.png,n03792782_4210.png,0.0,-0.0066942275,1.3321375,-0.94669694
vit_b_16,1,315,NaN,oven,cat,128-10-10,0315_eid_dnn_128-10-10_cat_10_n02123159_1596.png,n02123159_1596.png,0.0,0.1996092,1.6253847,-1.0081756
vit_b_16,1,316,NaN,car,car,2-10-10,0316_eid_dnn_2-10-10_car_10_n03100240_17588.png,n03100240_17588.png,1.0,6.1556916,0.32612756,4.122124
vit_b_16,1,317,NaN,cat,keyboard,4-10-10,0317_eid_dnn_4-10-10_keyboard_10_n03085013_23295.png,n03085013_23295.png,0.0,1.2531081,4.681559,-2.4242811
vit_b_16,1,318,NaN,oven,oven,32-10-10,0318_eid_dnn_32-10-10_oven_10_n04111531_4879.png,n04111531_4879.png,1.0,2.986713,0.6562047,1.6479182
vit_b_16,1,319,NaN,oven,keyboard,32-10-10,0319_eid_dnn_32-10-10_keyboard_10_n04505470_4569.png,n04505470_4569.png,0.0,-0.85475814,1.4950958,-1.6615977
vit_b_16,1,320,NaN,clock,truck,8-10-10,0320_eid_dnn_8-10-10_truck_10_n04467665_24190.png,n04467665_24190.png,0.0,0.47929657,0.5863745,-0.07571555
vit_b_16,1,321,NaN,cat,cat,4-10-10,0321_eid_dnn_4-10-10_cat_10_n02124075_15405.png,n02124075_15405.png,1.0,4.781138,0.4434409,3.067215
vit_b_16,1,322,NaN,knife,knife,8-10-10,0322_eid_dnn_8-10-10_knife_10_n03041632_24817.png,n03041632_24817.png,1.0,8.474368,0.47609738,5.6556315
vit_b_16,1,323,NaN,bear,elephant,64-10-10,0323_eid_dnn_64-10-10_elephant_10_n02504013_5505.png,n02504013_5505.png,0.0,1.177786,2.8210466,-1.1619607
vit_b_16,1,324,NaN,elephant,airplane,8-10-10,0324_eid_dnn_8-10-10_airplane_10_n02690373_8846.png,n02690373_8846.png,0.0,1.5477113,2.3167555,-0.5437964
vit_b_16,1,325,NaN,airplane,truck,32-10-10,0325_eid_dnn_32-10-10_truck_10_n04467665_50806.png,n04467665_50806.png,0.0,0.4477821,1.7315253,-0.9077435
vit_b_16,1,326,NaN,elephant,elephant,4-10-10,0326_eid_dnn_4-10-10_elephant_10_n02504458_5539.png,n02504458_5539.png,1.0,6.0302534,0.19957231,4.1229143
vit_b_16,1,327,NaN,boat,boat,1-10-10,0327_eid_dnn_1-10-10_boat_10_n03344393_1178.png,n03344393_1178.png,1.0,2.3943748,0.32543063,1.4629645
vit_b_16,1,328,NaN,truck,truck,4-10-10,0328_eid_dnn_4-10-10_truck_10_n04467665_10025.png,n04467665_10025.png,1.0,2.3441014,0.61301154,1.2240654
vit_b_16,1,329,NaN,clock,clock,4-10-10,0329_eid_dnn_4-10-10_clock_10_n02708093_2869.png,n02708093_2869.png,1.0,6.244473,1.1670532,3.590278
vit_b_16,1,330,NaN,clock,bottle,8-10-10,0330_eid_dnn_8-10-10_bottle_10_n03983396_4879.png,n03983396_4879.png,0.0,0.6122178,1.6258354,-0.7167359
vit_b_16,1,331,NaN,elephant,keyboard,128-10-10,0331_eid_dnn_128-10-10_keyboard_10_n03085013_10367.png,n03085013_10367.png,0.0,-0.26418638,0.782264,-0.73995215
vit_b_16,1,332,NaN,airplane,bird,64-10-10,0332_eid_dnn_64-10-10_bird_10_n01860187_21300.png,n01860187_21300.png,0.0,-0.4974018,1.4021649,-1.3431965
vit_b_16,1,333,NaN,airplane,knife,32-10-10,0333_eid_dnn_32-10-10_knife_10_n03041632_5302.png,n03041632_5302.png,0.0,-0.17830497,1.240031,-1.0029149
vit_b_16,1,334,NaN,bear,bear,4-10-10,0334_eid_dnn_4-10-10_bear_10_n02134084_5274.png,n02134084_5274.png,1.0,0.9433743,0.5702629,0.2638296
vit_b_16,1,335,NaN,knife,knife,4-10-10,0335_eid_dnn_4-10-10_knife_10_n03041632_48816.png,n03041632_48816.png,1.0,5.161577,2.1075401,2.1595304
vit_b_16,1,336,NaN,airplane,elephant,16-10-10,0336_eid_dnn_16-10-10_elephant_10_n02504013_3295.png,n02504013_3295.png,0.0,-0.6208662,3.147517,-2.6646492
vit_b_16,1,337,NaN,dog,truck,128-10-10,0337_eid_dnn_128-10-10_truck_10_n03417042_2478.png,n03417042_2478.png,0.0,-1.5093164,1.0810145,-1.8316407
vit_b_16,1,338,NaN,cat,oven,32-10-10,0338_eid_dnn_32-10-10_oven_10_n04111531_5350.png,n04111531_5350.png,0.0,1.6658657,2.1277733,-0.32661802
vit_b_16,1,339,NaN,airplane,airplane,8-10-10,0339_eid_dnn_8-10-10_airplane_10_n02690373_1663.png,n02690373_1663.png,1.0,0.740769,0.42612916,0.222484
vit_b_16,1,340,NaN,boat,boat,4-10-10,0340_eid_dnn_4-10-10_boat_10_n03344393_1422.png,n03344393_1422.png,1.0,2.5468538,0.6964123,1.3084598
vit_b_16,1,341,NaN,bear,cat,32-10-10,0341_eid_dnn_32-10-10_cat_10_n02123159_3312.png,n02123159_3312.png,0.0,0.32419077,1.0291762,-0.49850005
vit_b_16,1,342,NaN,cat,chair,64-10-10,0342_eid_dnn_64-10-10_chair_10_n03376595_6171.png,n03376595_6171.png,0.0,-0.99979925,1.214914,-1.5660387
vit_b_16,1,343,NaN,bottle,bottle,8-10-10,0343_eid_dnn_8-10-10_bottle_10_n04591713_1616.png,n04591713_1616.png,1.0,3.3674366,1.2673739,1.4849687
vit_b_16,1,344,NaN,knife,bear,128-10-10,0344_eid_dnn_128-10-10_bear_10_n02133161_1197.png,n02133161_1197.png,0.0,-0.41271922,1.7206804,-1.5085412
vit_b_16,1,345,NaN,truck,truck,4-10-10,0345_eid_dnn_4-10-10_truck_10_n04467665_663.png,n04467665_663.png,1.0,2.5776148,1.5723602,0.7108224
vit_b_16,1,346,NaN,bear,bear,4-10-10,0346_eid_dnn_4-10-10_bear_10_n02132136_2771.png,n02132136_2771.png,1.0,4.441674,0.3330909,2.9052072
vit_b_16,1,347,NaN,cat,cat,16-10-10,0347_eid_dnn_16-10-10_cat_10_n02123394_12.png,n02123394_12.png,1.0,2.0381422,1.7171601,0.22696862
vit_b_16,1,348,NaN,bicycle,car,8-10-10,0348_eid_dnn_8-10-10_car_10_n04285008_1795.png,n04285008_1795.png,0.0,-0.31580558,0.6647388,-0.69334954
vit_b_16,1,349,NaN,boat,boat,4-10-10,0349_eid_dnn_4-10-10_boat_10_n04273569_1023.png,n04273569_1023.png,1.0,2.7831597,0.6360687,1.5182226
vit_b_16,1,350,NaN,boat,boat,1-10-10,0350_eid_dnn_1-10-10_boat_10_n03662601_21775.png,n03662601_21775.png,1.0,4.3523827,1.0469651,2.3372831
vit_b_16,1,351,NaN,clock,clock,1-10-10,0351_eid_dnn_1-10-10_clock_10_n03196217_71.png,n03196217_71.png,1.0,4.1423154,0.3818643,2.6590405
vit_b_16,1,352,NaN,keyboard,keyboard,4-10-10,0352_eid_dnn_4-10-10_keyboard_10_n04505470_3122.png,n04505470_3122.png,1.0,5.5548987,0.32120627,3.7007797
vit_b_16,1,353,NaN,airplane,dog,32-10-10,0353_eid_dnn_32-10-10_dog_10_n02099849_4640.png,n02099849_4640.png,0.0,0.38685158,1.4661258,-0.7631622
vit_b_16,1,354,NaN,clock,bottle,64-10-10,0354_eid_dnn_64-10-10_bottle_10_n02823428_6418.png,n02823428_6418.png,0.0,0.21869786,0.94507885,-0.51362896
vit_b_16,1,355,NaN,knife,car,8-10-10,0355_eid_dnn_8-10-10_car_10_n04285008_11704.png,n04285008_11704.png,0.0,-0.38686812,0.2656264,-0.46138334
vit_b_16,1,356,NaN,airplane,clock,32-10-10,0356_eid_dnn_32-10-10_clock_10_n02708093_3544.png,n02708093_3544.png,0.0,1.3558453,1.4737686,-0.083384335
vit_b_16,1,357,NaN,dog,clock,8-10-10,0357_eid_dnn_8-10-10_clock_10_n04548280_4599.png,n04548280_4599.png,0.0,0.49214306,1.0228097,-0.37523803
vit_b_16,1,358,NaN,cat,car,128-10-10,0358_eid_dnn_128-10-10_car_10_n03100240_6259.png,n03100240_6259.png,0.0,-1.0494274,2.0754416,-2.209616
vit_b_16,1,359,NaN,boat,boat,8-10-10,0359_eid_dnn_8-10-10_boat_10_n04273569_3401.png,n04273569_3401.png,1.0,1.8779186,1.2911458,0.41491103
vit_b_16,1,360,NaN,knife,truck,64-10-10,0360_eid_dnn_64-10-10_truck_10_n04467665_13898.png,n04467665_13898.png,0.0,-0.65536034,2.234012,-2.0430949
vit_b_16,1,361,NaN,clock,clock,2-10-10,0361_eid_dnn_2-10-10_clock_10_n03196217_1499.png,n03196217_1499.png,1.0,4.9997835,2.0446987,2.0895605
vit_b_16,1,362,NaN,car,car,4-10-10,0362_eid_dnn_4-10-10_car_10_n03100240_8702.png,n03100240_8702.png,1.0,5.858963,2.3811193,2.459207
vit_b_16,1,363,NaN,bear,bear,4-10-10,0363_eid_dnn_4-10-10_bear_10_n02134418_1770.png,n02134418_1770.png,1.0,3.5432105,0.31828356,2.2803679
vit_b_16,1,364,NaN,bear,bear,16-10-10,0364_eid_dnn_16-10-10_bear_10_n02132136_32838.png,n02132136_32838.png,1.0,1.8613092,1.1590307,0.4965859
vit_b_16,1,365,NaN,bicycle,truck,4-10-10,0365_eid_dnn_4-10-10_truck_10_n04467665_68331.png,n04467665_68331.png,0.0,1.3412433,1.6710904,-0.23323712
vit_b_16,1,366,NaN,airplane,airplane,1-10-10,0366_eid_dnn_1-10-10_airplane_10_n02690373_4506.png,n02690373_4506.png,1.0,9.028943,0.3755164,6.118897
vit_b_16,1,367,NaN,car,car,2-10-10,0367_eid_dnn_2-10-10_car_10_n03100240_5308.png,n03100240_5308.png,1.0,6.590465,0.61865646,4.2227063
vit_b_16,1,368,NaN,cat,cat,2-10-10,0368_eid_dnn_2-10-10_cat_10_n02124075_15345.png,n02124075_15345.png,1.0,2.1792343,0.33752698,1.3022836
vit_b_16,1,369,NaN,clock,bicycle,128-10-10,0369_eid_dnn_128-10-10_bicycle_10_n03792782_50972.png,n03792782_50972.png,0.0,-0.54775834,1.37807,-1.3617663
vit_b_16,1,370,NaN,clock,knife,8-10-10,0370_eid_dnn_8-10-10_knife_10_n03041632_19098.png,n03041632_19098.png,0.0,-0.28412673,0.3869088,-0.47449377
vit_b_16,1,371,NaN,oven,bottle,128-10-10,0371_eid_dnn_128-10-10_bottle_10_n04560804_15963.png,n04560804_15963.png,0.0,-0.20946625,2.9088705,-2.204997
vit_b_16,1,372,NaN,cat,bottle,8-10-10,0372_eid_dnn_8-10-10_bottle_10_n04557648_7809.png,n04557648_7809.png,0.0,0.23355857,0.6318849,-0.28165925
vit_b_16,1,373,NaN,airplane,airplane,1-10-10,0373_eid_dnn_1-10-10_airplane_10_n02690373_17764.png,n02690373_17764.png,1.0,9.130584,0.2872614,6.253174
vit_b_16,1,374,NaN,oven,elephant,64-10-10,0374_eid_dnn_64-10-10_elephant_10_n02504013_7322.png,n02504013_7322.png,0.0,-0.44224167,3.5051732,-2.7912438
vit_b_16,1,375,NaN,bear,bear,2-10-10,0375_eid_dnn_2-10-10_bear_10_n02134084_2959.png,n02134084_2959.png,1.0,3.6615117,0.33656603,2.3510916
vit_b_16,1,376,NaN,chair,bird,2-10-10,0376_eid_dnn_2-10-10_bird_10_n01622779_6563.png,n01622779_6563.png,0.0,0.044413324,0.37139365,-0.23121001
vit_b_16,1,377,NaN,oven,knife,16-10-10,0377_eid_dnn_16-10-10_knife_10_n03041632_19620.png,n03041632_19620.png,0.0,0.3543059,0.6825182,-0.23208115
vit_b_16,1,378,NaN,bird,bird,4-10-10,0378_eid_dnn_4-10-10_bird_10_n01530575_35977.png,n01530575_35977.png,1.0,0.7739088,0.44241756,0.2343997
vit_b_16,1,379,NaN,airplane,cat,128-10-10,0379_eid_dnn_128-10-10_cat_10_n02123394_1757.png,n02123394_1757.png,0.0,-0.6851983,3.6991417,-3.1001968
vit_b_16,1,380,NaN,bear,dog,2-10-10,0380_eid_dnn_2-10-10_dog_10_n02093647_6358.png,n02093647_6358.png,0.0,0.7197586,1.007101,-0.20318179
vit_b_16,1,381,NaN,boat,boat,1-10-10,0381_eid_dnn_1-10-10_boat_10_n02951358_1470.png,n02951358_1470.png,1.0,3.3665967,0.28479895,2.17916
vit_b_16,1,382,NaN,oven,elephant,128-10-10,0382_eid_dnn_128-10-10_elephant_10_n02504458_2026.png,n02504458_2026.png,0.0,0.3365746,1.1803449,-0.5966357
vit_b_16,1,383,NaN,bear,elephant,32-10-10,0383_eid_dnn_32-10-10_elephant_10_n02504458_3730.png,n02504458_3730.png,0.0,1.3334663,1.6153094,-0.19929315
vit_b_16,1,384,NaN,keyboard,keyboard,8-10-10,0384_eid_dnn_8-10-10_keyboard_10_n03085013_20881.png,n03085013_20881.png,1.0,2.3821914,0.4695611,1.3524339
vit_b_16,1,385,NaN,elephant,dog,4-10-10,0385_eid_dnn_4-10-10_dog_10_n02105641_8188.png,n02105641_8188.png,0.0,-0.11355118,0.4716751,-0.4138175
vit_b_16,1,386,NaN,knife,clock,32-10-10,0386_eid_dnn_32-10-10_clock_10_n03196217_6320.png,n03196217_6320.png,0.0,0.36469308,0.752434,-0.27417424
vit_b_16,1,387,NaN,knife,car,32-10-10,0387_eid_dnn_32-10-10_car_10_n04285008_12333.png,n04285008_12333.png,0.0,-0.83408576,1.1230441,-1.3838999
vit_b_16,1,388,NaN,knife,knife,2-10-10,0388_eid_dnn_2-10-10_knife_10_n03041632_47743.png,n03041632_47743.png,1.0,8.484564,0.54898685,5.6113005
vit_b_16,1,389,NaN,boat,boat,8-10-10,0389_eid_dnn_8-10-10_boat_10_n04612504_8073.png,n04612504_8073.png,1.0,2.7011135,1.080497,1.1459489
vit_b_16,1,390,NaN,clock,knife,128-10-10,0390_eid_dnn_128-10-10_knife_10_n03041632_20770.png,n03041632_20770.png,0.0,0.009290474,1.1960567,-0.8391705
vit_b_16,1,391,NaN,knife,car,32-10-10,0391_eid_dnn_32-10-10_car_10_n02814533_28783.png,n02814533_28783.png,0.0,-0.64383227,1.2186906,-1.3170025
vit_b_16,1,392,NaN,clock,car,128-10-10,0392_eid_dnn_128-10-10_car_10_n02814533_13533.png,n02814533_13533.png,0.0,-0.82989234,0.72994155,-1.1029692
vit_b_16,1,393,NaN,dog,dog,16-10-10,0393_eid_dnn_16-10-10_dog_10_n02104029_8137.png,n02104029_8137.png,1.0,0.6333523,0.33206886,0.21303955
vit_b_16,1,394,NaN,bicycle,bicycle,4-10-10,0394_eid_dnn_4-10-10_bicycle_10_n02835271_3990.png,n02835271_3990.png,1.0,7.05294,0.6608583,4.5198846
vit_b_16,1,395,NaN,bear,bear,4-10-10,0395_eid_dnn_4-10-10_bear_10_n02132136_24311.png,n02132136_24311.png,1.0,3.0021398,2.5717177,0.30435437
vit_b_16,1,396,NaN,truck,truck,2-10-10,0396_eid_dnn_2-10-10_truck_10_n03796401_6966.png,n03796401_6966.png,1.0,1.5361698,0.12780546,0.995864
vit_b_16,1,397,NaN,knife,knife,1-10-10,0397_eid_dnn_1-10-10_knife_10_n03041632_8468.png,n03041632_8468.png,1.0,9.049121,0.45417285,6.077546
vit_b_16,1,398,NaN,oven,elephant,128-10-10,0398_eid_dnn_128-10-10_elephant_10_n02504458_6799.png,n02504458_6799.png,0.0,-0.5610011,1.1238712,-1.1913847
vit_b_16,1,399,NaN,airplane,keyboard,16-10-10,0399_eid_dnn_16-10-10_keyboard_10_n03085013_24402.png,n03085013_24402.png,0.0,-0.046121806,4.4927077,-3.2094371
vit_b_16,1,400,NaN,bear,knife,16-10-10,0400_eid_dnn_16-10-10_knife_10_n03041632_25772.png,n03041632_25772.png,0.0,0.08677894,2.9158432,-2.0004506
vit_b_16,1,401,NaN,oven,elephant,32-10-10,0401_eid_dnn_32-10-10_elephant_10_n02504458_5839.png,n02504458_5839.png,0.0,0.65073746,1.2456852,-0.4206916
vit_b_16,1,402,NaN,airplane,elephant,64-10-10,0402_eid_dnn_64-10-10_elephant_10_n02504458_5178.png,n02504458_5178.png,0.0,-0.2538969,1.7251118,-1.3993704
vit_b_16,1,403,NaN,airplane,bicycle,32-10-10,0403_eid_dnn_32-10-10_bicycle_10_n02835271_27014.png,n02835271_27014.png,0.0,-0.6762568,1.3679525,-1.4454743
vit_b_16,1,404,NaN,oven,car,128-10-10,0404_eid_dnn_128-10-10_car_10_n04285008_15218.png,n04285008_15218.png,0.0,-0.974466,1.1548971,-1.5056871
vit_b_16,1,405,NaN,bicycle,bicycle,8-10-10,0405_eid_dnn_8-10-10_bicycle_10_n02835271_19955.png,n02835271_19955.png,1.0,2.7409513,1.2550182,1.0507134
vit_b_16,1,406,NaN,truck,truck,1-10-10,0406_eid_dnn_1-10-10_truck_10_n03796401_874.png,n03796401_874.png,1.0,1.0998737,0.21401626,0.62639576
vit_b_16,1,407,NaN,dog,dog,2-10-10,0407_eid_dnn_2-10-10_dog_10_n02108915_6092.png,n02108915_6092.png,1.0,1.1625457,0.2977713,0.6114878
vit_b_16,1,408,NaN,clock,clock,16-10-10,0408_eid_dnn_16-10-10_clock_10_n04548280_6337.png,n04548280_6337.png,1.0,1.449396,0.7563397,0.4900648
vit_b_16,1,409,NaN,elephant,boat,4-10-10,0409_eid_dnn_4-10-10_boat_10_n04273569_1388.png,n04273569_1388.png,0.0,1.9742413,3.8581762,-1.3321432
vit_b_16,1,410,NaN,oven,clock,64-10-10,0410_eid_dnn_64-10-10_clock_10_n02708093_2676.png,n02708093_2676.png,0.0,0.5093358,1.4911023,-0.69421375
vit_b_16,1,411,NaN,cat,dog,64-10-10,0411_eid_dnn_64-10-10_dog_10_n02107683_5424.png,n02107683_5424.png,0.0,0.5072768,1.5249296,-0.71958923
vit_b_16,1,412,NaN,chair,chair,1-10-10,0412_eid_dnn_1-10-10_chair_10_n04099969_29038.png,n04099969_29038.png,1.0,4.762064,0.69561595,2.8754132
vit_b_16,1,413,NaN,bottle,clock,16-10-10,0413_eid_dnn_16-10-10_clock_10_n04548280_3219.png,n04548280_3219.png,0.0,0.5348131,0.8534251,-0.2252927
vit_b_16,1,414,NaN,knife,clock,32-10-10,0414_eid_dnn_32-10-10_clock_10_n03196217_8282.png,n03196217_8282.png,0.0,1.0644413,1.5442806,-0.33929765
vit_b_16,1,415,NaN,clock,oven,8-10-10,0415_eid_dnn_8-10-10_oven_10_n04111531_22041.png,n04111531_22041.png,0.0,0.5086859,1.3262058,-0.5780739
vit_b_16,1,416,NaN,bear,bear,8-10-10,0416_eid_dnn_8-10-10_bear_10_n02134084_6964.png,n02134084_6964.png,1.0,0.7047191,0.38884076,0.22335973
vit_b_16,1,417,NaN,bear,bicycle,64-10-10,0417_eid_dnn_64-10-10_bicycle_10_n03792782_11921.png,n03792782_11921.png,0.0,-1.0614772,2.1911998,-2.29999
vit_b_16,1,418,NaN,knife,clock,8-10-10,0418_eid_dnn_8-10-10_clock_10_n04548280_1809.png,n04548280_1809.png,0.0,1.8218322,2.545773,-0.51190346
vit_b_16,1,419,NaN,bird,bird,4-10-10,0419_eid_dnn_4-10-10_bird_10_n01833805_202.png,n01833805_202.png,1.0,1.1157924,0.7711623,0.2436903
vit_b_16,1,420,NaN,cat,keyboard,64-10-10,0420_eid_dnn_64-10-10_keyboard_10_n03085013_7511.png,n03085013_7511.png,0.0,0.04932393,0.78640693,-0.5211964
vit_b_16,1,421,NaN,airplane,bird,1-10-10,0421_eid_dnn_1-10-10_bird_10_n02025239_5287.png,n02025239_5287.png,0.0,0.5391375,1.3533293,-0.57572055
vit_b_16,1,422,NaN,knife,boat,64-10-10,0422_eid_dnn_64-10-10_boat_10_n03662601_27960.png,n03662601_27960.png,0.0,-0.36425745,0.8537596,-0.86126816
vit_b_16,1,423,NaN,airplane,bottle,1-10-10,0423_eid_dnn_1-10-10_bottle_10_n04591713_6855.png,n04591713_6855.png,0.0,-0.04351161,2.2570283,-1.6267275
vit_b_16,1,424,NaN,bear,elephant,128-10-10,0424_eid_dnn_128-10-10_elephant_10_n02504013_4424.png,n02504013_4424.png,0.0,1.3130267,4.405444,-2.1866693
vit_b_16,1,425,NaN,clock,clock,2-10-10,0425_eid_dnn_2-10-10_clock_10_n04548280_3295.png,n04548280_3295.png,1.0,5.493171,0.7811383,3.3319104
vit_b_16,1,426,NaN,airplane,airplane,1-10-10,0426_eid_dnn_1-10-10_airplane_10_n02690373_6144.png,n02690373_6144.png,1.0,9.026017,0.20866998,6.2348065
vit_b_16,1,427,NaN,dog,truck,32-10-10,0427_eid_dnn_32-10-10_truck_10_n04467665_70894.png,n04467665_70894.png,0.0,-0.26085433,1.0431664,-0.92208195
vit_b_16,1,428,NaN,clock,boat,128-10-10,0428_eid_dnn_128-10-10_boat_10_n02951358_30474.png,n02951358_30474.png,0.0,-0.5024542,0.8713305,-0.97141254
vit_b_16,1,429,NaN,bear,bear,4-10-10,0429_eid_dnn_4-10-10_bear_10_n02132136_6434.png,n02132136_6434.png,1.0,5.0909758,0.7543279,3.0664732
vit_b_16,1,430,NaN,airplane,keyboard,32-10-10,0430_eid_dnn_32-10-10_keyboard_10_n04505470_5009.png,n04505470_5009.png,0.0,-0.11223027,1.1527393,-0.8944686
vit_b_16,1,431,NaN,keyboard,keyboard,2-10-10,0431_eid_dnn_2-10-10_keyboard_10_n03085013_13005.png,n03085013_13005.png,1.0,6.2157974,0.78888506,3.8374066
vit_b_16,1,432,NaN,chair,chair,1-10-10,0432_eid_dnn_1-10-10_chair_10_n03376595_6865.png,n03376595_6865.png,1.0,2.6348314,0.34902665,1.6163081
vit_b_16,1,433,NaN,airplane,bicycle,32-10-10,0433_eid_dnn_32-10-10_bicycle_10_n02835271_6122.png,n02835271_6122.png,0.0,0.048422575,5.144913,-3.6037633
vit_b_16,1,434,NaN,oven,oven,4-10-10,0434_eid_dnn_4-10-10_oven_10_n04111531_11499.png,n04111531_11499.png,1.0,8.809292,1.1093967,5.444648
vit_b_16,1,435,NaN,bird,bird,1-10-10,0435_eid_dnn_1-10-10_bird_10_n02009229_5765.png,n02009229_5765.png,1.0,0.5997129,0.36549526,0.16561688
vit_b_16,1,436,NaN,airplane,bottle,32-10-10,0436_eid_dnn_32-10-10_bottle_10_n04560804_2181.png,n04560804_2181.png,0.0,0.65740615,1.1614085,-0.3563835
vit_b_16,1,437,NaN,bicycle,bicycle,32-10-10,0437_eid_dnn_32-10-10_bicycle_10_n03792782_3774.png,n03792782_3774.png,1.0,2.3096123,1.4045948,0.639944
vit_b_16,1,438,NaN,airplane,bird,16-10-10,0438_eid_dnn_16-10-10_bird_10_n01614925_1683.png,n01614925_1683.png,0.0,-0.3326566,1.5750488,-1.3489515
vit_b_16,1,439,NaN,clock,clock,8-10-10,0439_eid_dnn_8-10-10_clock_10_n02708093_4692.png,n02708093_4692.png,1.0,2.7479455,0.6032079,1.5165586
vit_b_16,1,440,NaN,dog,dog,4-10-10,0440_eid_dnn_4-10-10_dog_10_n02109961_71298.png,n02109961_71298.png,1.0,0.53662735,0.09719076,0.31072858
vit_b_16,1,441,NaN,keyboard,keyboard,2-10-10,0441_eid_dnn_2-10-10_keyboard_10_n03085013_23269.png,n03085013_23269.png,1.0,7.584369,0.3933793,5.084798
vit_b_16,1,442,NaN,elephant,elephant,2-10-10,0442_eid_dnn_2-10-10_elephant_10_n02504458_5614.png,n02504458_5614.png,1.0,7.5496025,0.37938178,5.0701118
vit_b_16,1,443,NaN,car,car,2-10-10,0443_eid_dnn_2-10-10_car_10_n04285008_4640.png,n04285008_4640.png,1.0,3.696112,2.8211203,0.61871254
vit_b_16,1,444,NaN,bear,oven,128-10-10,0444_eid_dnn_128-10-10_oven_10_n04111531_6346.png,n04111531_6346.png,0.0,0.3960362,2.2012644,-1.2764891
vit_b_16,1,445,NaN,chair,chair,2-10-10,0445_eid_dnn_2-10-10_chair_10_n04099969_14851.png,n04099969_14851.png,1.0,3.3358011,0.48491243,2.0158827
vit_b_16,1,446,NaN,oven,bird,64-10-10,0446_eid_dnn_64-10-10_bird_10_n02051845_534.png,n02051845_534.png,0.0,-0.7151121,3.4479923,-2.9437594
vit_b_16,1,447,NaN,clock,bird,128-10-10,0447_eid_dnn_128-10-10_bird_10_n02056570_9342.png,n02056570_9342.png,0.0,-0.69420856,1.1165864,-1.2804255
vit_b_16,1,448,NaN,oven,oven,16-10-10,0448_eid_dnn_16-10-10_oven_10_n04111531_4900.png,n04111531_4900.png,1.0,1.6705835,1.6502427,0.014383118
vit_b_16,1,449,NaN,oven,boat,32-10-10,0449_eid_dnn_32-10-10_boat_10_n02951358_31973.png,n02951358_31973.png,0.0,0.16517183,2.186549,-1.4293295
vit_b_16,1,450,NaN,keyboard,keyboard,4-10-10,0450_eid_dnn_4-10-10_keyboard_10_n03085013_19842.png,n03085013_19842.png,1.0,4.111604,1.3194691,1.9743378
vit_b_16,1,451,NaN,keyboard,keyboard,8-10-10,0451_eid_dnn_8-10-10_keyboard_10_n03085013_8296.png,n03085013_8296.png,1.0,7.068735,0.9719553,4.3110743
vit_b_16,1,452,NaN,bear,car,16-10-10,0452_eid_dnn_16-10-10_car_10_n03100240_3528.png,n03100240_3528.png,0.0,0.09128213,1.2667677,-0.83119386
vit_b_16,1,453,NaN,cat,cat,8-10-10,0453_eid_dnn_8-10-10_cat_10_n02123159_7210.png,n02123159_7210.png,1.0,4.8382053,0.71135205,2.918126
vit_b_16,1,454,NaN,knife,knife,16-10-10,0454_eid_dnn_16-10-10_knife_10_n03041632_56172.png,n03041632_56172.png,1.0,4.800303,1.4996065,2.3339448
vit_b_16,1,455,NaN,oven,oven,4-10-10,0455_eid_dnn_4-10-10_oven_10_n04111531_2116.png,n04111531_2116.png,1.0,10.11286,0.56163406,6.7537365
vit_b_16,1,456,NaN,bicycle,bicycle,8-10-10,0456_eid_dnn_8-10-10_bicycle_10_n02835271_12477.png,n02835271_12477.png,1.0,2.8722506,1.8549207,0.7193608
vit_b_16,1,457,NaN,knife,knife,2-10-10,0457_eid_dnn_2-10-10_knife_10_n03041632_42472.png,n03041632_42472.png,1.0,9.281476,0.47734958,6.2254577
vit_b_16,1,458,NaN,oven,oven,2-10-10,0458_eid_dnn_2-10-10_oven_10_n04111531_8818.png,n04111531_8818.png,1.0,4.7438407,1.4868937,2.3030093
vit_b_16,1,459,NaN,truck,truck,2-10-10,0459_eid_dnn_2-10-10_truck_10_n04467665_67115.png,n04467665_67115.png,1.0,1.8194063,0.8343978,0.6965062
vit_b_16,1,460,NaN,bird,bird,4-10-10,0460_eid_dnn_4-10-10_bird_10_n02011460_3521.png,n02011460_3521.png,1.0,1.479268,0.20232436,0.90293545
vit_b_16,1,461,NaN,cat,bear,64-10-10,0461_eid_dnn_64-10-10_bear_10_n02133161_3533.png,n02133161_3533.png,0.0,1.2532237,1.2820425,-0.020378001
vit_b_16,1,462,NaN,bird,bird,8-10-10,0462_eid_dnn_8-10-10_bird_10_n02013706_637.png,n02013706_637.png,1.0,0.2869594,0.252195,0.02458215
vit_b_16,1,463,NaN,oven,bear,64-10-10,0463_eid_dnn_64-10-10_bear_10_n02132136_29636.png,n02132136_29636.png,0.0,0.3709731,2.417175,-1.4468833
vit_b_16,1,464,NaN,bicycle,bicycle,2-10-10,0464_eid_dnn_2-10-10_bicycle_10_n02835271_634.png,n02835271_634.png,1.0,5.652587,0.31931165,3.7711952
vit_b_16,1,465,NaN,keyboard,keyboard,1-10-10,0465_eid_dnn_1-10-10_keyboard_10_n04505470_4621.png,n04505470_4621.png,1.0,7.3836384,1.5873467,4.0985975
vit_b_16,1,466,NaN,airplane,bear,16-10-10,0466_eid_dnn_16-10-10_bear_10_n02134084_2844.png,n02134084_2844.png,0.0,0.329003,1.8190469,-1.0536201
vit_b_16,1,467,NaN,bicycle,bicycle,4-10-10,0467_eid_dnn_4-10-10_bicycle_10_n03792782_17088.png,n03792782_17088.png,1.0,7.3007107,0.70538986,4.663596
vit_b_16,1,468,NaN,clock,clock,4-10-10,0468_eid_dnn_4-10-10_clock_10_n03196217_8706.png,n03196217_8706.png,1.0,4.627543,0.8515601,2.6700232
vit_b_16,1,469,NaN,oven,oven,4-10-10,0469_eid_dnn_4-10-10_oven_10_n04111531_15052.png,n04111531_15052.png,1.0,2.5806746,2.3122306,0.18981862
vit_b_16,1,470,NaN,airplane,bottle,16-10-10,0470_eid_dnn_16-10-10_bottle_10_n04560804_5769.png,n04560804_5769.png,0.0,0.15118833,2.2538152,-1.4867817
vit_b_16,1,471,NaN,airplane,dog,128-10-10,0471_eid_dnn_128-10-10_dog_10_n02110063_14116.png,n02110063_14116.png,0.0,-0.44914302,1.9825219,-1.7194468
vit_b_16,1,472,NaN,oven,cat,32-10-10,0472_eid_dnn_32-10-10_cat_10_n02124075_3609.png,n02124075_3609.png,0.0,-0.2626592,3.1192462,-2.3913684
vit_b_16,1,473,NaN,bicycle,airplane,32-10-10,0473_eid_dnn_32-10-10_airplane_10_n02690373_10926.png,n02690373_10926.png,0.0,1.1400898,1.2156018,-0.053395085
vit_b_16,1,474,NaN,airplane,bird,16-10-10,0474_eid_dnn_16-10-10_bird_10_n02033041_7229.png,n02033041_7229.png,0.0,0.08739343,3.5730505,-2.4647317
vit_b_16,1,475,NaN,bird,bird,2-10-10,0475_eid_dnn_2-10-10_bird_10_n02006656_611.png,n02006656_611.png,1.0,0.33545458,0.18422578,0.10693491
vit_b_16,1,476,NaN,clock,bear,16-10-10,0476_eid_dnn_16-10-10_bear_10_n02133161_958.png,n02133161_958.png,0.0,0.19656979,1.7186346,-1.0762624
vit_b_16,1,477,NaN,airplane,bird,8-10-10,0477_eid_dnn_8-10-10_bird_10_n01843065_148.png,n01843065_148.png,0.0,1.6136378,2.6982284,-0.76692134
vit_b_16,1,478,NaN,airplane,cat,32-10-10,0478_eid_dnn_32-10-10_cat_10_n02123597_13623.png,n02123597_13623.png,0.0,0.3254243,1.2711626,-0.668738
vit_b_16,1,479,NaN,bicycle,bicycle,8-10-10,0479_eid_dnn_8-10-10_bicycle_10_n02835271_12957.png,n02835271_12957.png,1.0,6.4403696,1.0131212,3.8376443
vit_b_16,1,480,NaN,knife,knife,8-10-10,0480_eid_dnn_8-10-10_knife_10_n03041632_96714.png,n03041632_96714.png,1.0,4.431112,0.13738023,3.0361269
vit_b_16,1,481,NaN,bear,bear,128-10-10,0481_eid_dnn_128-10-10_bear_10_n02133161_3550.png,n02133161_3550.png,1.0,1.9897654,0.8482425,0.80717856
vit_b_16,1,482,NaN,airplane,airplane,2-10-10,0482_eid_dnn_2-10-10_airplane_10_n02690373_4471.png,n02690373_4471.png,1.0,9.1854105,0.19658415,6.3560605
vit_b_16,1,483,NaN,airplane,airplane,64-10-10,0483_eid_dnn_64-10-10_airplane_10_n02690373_2026.png,n02690373_2026.png,1.0,3.3405957,1.3212403,1.4278998
vit_b_16,1,484,NaN,car,car,1-10-10,0484_eid_dnn_1-10-10_car_10_n03100240_18270.png,n03100240_18270.png,1.0,6.481566,2.1922343,3.0330155
vit_b_16,1,485,NaN,clock,elephant,128-10-10,0485_eid_dnn_128-10-10_elephant_10_n02504458_5204.png,n02504458_5204.png,0.0,-0.27017972,1.4961222,-1.2489642
vit_b_16,1,486,NaN,oven,oven,1-10-10,0486_eid_dnn_1-10-10_oven_10_n04111531_10339.png,n04111531_10339.png,1.0,6.3736873,1.2240411,3.6413498
vit_b_16,1,487,NaN,elephant,elephant,2-10-10,0487_eid_dnn_2-10-10_elephant_10_n02504458_12705.png,n02504458_12705.png,1.0,7.020895,0.2091202,4.8166523
vit_b_16,1,488,NaN,boat,boat,1-10-10,0488_eid_dnn_1-10-10_boat_10_n03344393_9268.png,n03344393_9268.png,1.0,2.113975,0.2233624,1.3368651
vit_b_16,1,489,NaN,clock,bicycle,16-10-10,0489_eid_dnn_16-10-10_bicycle_10_n02835271_23173.png,n02835271_23173.png,0.0,0.0952656,1.780488,-1.1916322
vit_b_16,1,490,NaN,oven,knife,32-10-10,0490_eid_dnn_32-10-10_knife_10_n03041632_43975.png,n03041632_43975.png,0.0,0.6928921,1.5720145,-0.6216334
vit_b_16,1,491,NaN,bottle,bicycle,128-10-10,0491_eid_dnn_128-10-10_bicycle_10_n03792782_3299.png,n03792782_3299.png,0.0,-1.0503782,0.98530674,-1.4394467
vit_b_16,1,492,NaN,airplane,boat,32-10-10,0492_eid_dnn_32-10-10_boat_10_n04273569_5679.png,n04273569_5679.png,0.0,1.9073372,4.11499,-1.5610465
vit_b_16,1,493,NaN,oven,bird,32-10-10,0493_eid_dnn_32-10-10_bird_10_n02056570_10127.png,n02056570_10127.png,0.0,-0.53276247,3.127375,-2.588108
vit_b_16,1,494,NaN,airplane,bear,32-10-10,0494_eid_dnn_32-10-10_bear_10_n02133161_7688.png,n02133161_7688.png,0.0,1.8261182,2.1468139,-0.22676606
vit_b_16,1,495,NaN,cat,cat,16-10-10,0495_eid_dnn_16-10-10_cat_10_n02123597_624.png,n02123597_624.png,1.0,2.3881714,1.6668756,0.5100332
vit_b_16,1,496,NaN,cat,bird,64-10-10,0496_eid_dnn_64-10-10_bird_10_n01560419_3399.png,n01560419_3399.png,0.0,-0.7968472,1.6771775,-1.7493998
vit_b_16,1,497,NaN,airplane,cat,32-10-10,0497_eid_dnn_32-10-10_cat_10_n02123045_12762.png,n02123045_12762.png,0.0,0.111348175,2.1482463,-1.4403045
vit_b_16,1,498,NaN,airplane,car,16-10-10,0498_eid_dnn_16-10-10_car_10_n02814533_7247.png,n02814533_7247.png,0.0,-0.392156,1.355119,-1.23551
vit_b_16,1,499,NaN,keyboard,keyboard,4-10-10,0499_eid_dnn_4-10-10_keyboard_10_n03085013_4941.png,n03085013_4941.png,1.0,7.4310904,0.55275416,4.863718
vit_b_16,1,500,NaN,truck,truck,4-10-10,0500_eid_dnn_4-10-10_truck_10_n03417042_6420.png,n03417042_6420.png,1.0,3.3919997,0.81089824,1.8251144
vit_b_16,1,501,NaN,clock,boat,64-10-10,0501_eid_dnn_64-10-10_boat_10_n03662601_2120.png,n03662601_2120.png,0.0,-0.3260234,0.65104127,-0.69088906
vit_b_16,1,502,NaN,bear,bear,2-10-10,0502_eid_dnn_2-10-10_bear_10_n02134084_7331.png,n02134084_7331.png,1.0,3.6483688,0.3240758,2.3506303
vit_b_16,1,503,NaN,airplane,bottle,32-10-10,0503_eid_dnn_32-10-10_bottle_10_n02823428_906.png,n02823428_906.png,0.0,0.023147663,1.0434476,-0.721461
vit_b_16,1,504,NaN,airplane,cat,16-10-10,0504_eid_dnn_16-10-10_cat_10_n02123394_270.png,n02123394_270.png,0.0,0.57940525,0.71429586,-0.09538207
vit_b_16,1,505,NaN,boat,boat,2-10-10,0505_eid_dnn_2-10-10_boat_10_n02951358_1910.png,n02951358_1910.png,1.0,0.65916276,0.19509864,0.32814288
vit_b_16,1,506,NaN,knife,knife,4-10-10,0506_eid_dnn_4-10-10_knife_10_n03041632_23678.png,n03041632_23678.png,1.0,2.9130082,2.1165733,0.56316453
vit_b_16,1,507,NaN,airplane,car,16-10-10,0507_eid_dnn_16-10-10_car_10_n02814533_31083.png,n02814533_31083.png,0.0,-0.18827797,2.1861124,-1.6789476
vit_b_16,1,508,NaN,keyboard,keyboard,1-10-10,0508_eid_dnn_1-10-10_keyboard_10_n04505470_2881.png,n04505470_2881.png,1.0,6.6289425,0.40209857,4.4030437
vit_b_16,1,509,NaN,cat,cat,8-10-10,0509_eid_dnn_8-10-10_cat_10_n02125311_2923.png,n02125311_2923.png,1.0,1.713665,0.99520427,0.50802845
vit_b_16,1,510,NaN,bicycle,bicycle,2-10-10,0510_eid_dnn_2-10-10_bicycle_10_n03792782_2598.png,n03792782_2598.png,1.0,7.773486,1.2352726,4.623215
vit_b_16,1,511,NaN,car,car,2-10-10,0511_eid_dnn_2-10-10_car_10_n03100240_4460.png,n03100240_4460.png,1.0,7.0227394,0.6764552,4.4875007
vit_b_16,1,512,NaN,knife,knife,4-10-10,0512_eid_dnn_4-10-10_knife_10_n03041632_29920.png,n03041632_29920.png,1.0,6.401605,0.7423805,4.001676
vit_b_16,1,513,NaN,bear,bird,32-10-10,0513_eid_dnn_32-10-10_bird_10_n01796340_3845.png,n01796340_3845.png,0.0,0.5982972,1.063519,-0.32896152
vit_b_16,1,514,NaN,keyboard,keyboard,8-10-10,0514_eid_dnn_8-10-10_keyboard_10_n03085013_21932.png,n03085013_21932.png,1.0,5.4674172,1.5014973,2.804329
vit_b_16,1,515,NaN,bottle,bottle,1-10-10,0515_eid_dnn_1-10-10_bottle_10_n02823428_64.png,n02823428_64.png,1.0,3.7855206,0.5926039,2.257733
vit_b_16,1,516,NaN,chair,chair,8-10-10,0516_eid_dnn_8-10-10_chair_10_n04099969_4374.png,n04099969_4374.png,1.0,3.84486,0.2368776,2.5512288
vit_b_16,1,517,NaN,clock,clock,1-10-10,0517_eid_dnn_1-10-10_clock_10_n02708093_8257.png,n02708093_8257.png,1.0,6.1160417,0.6116,3.8922281
vit_b_16,1,518,NaN,airplane,knife,16-10-10,0518_eid_dnn_16-10-10_knife_10_n03041632_45569.png,n03041632_45569.png,0.0,-0.41347277,2.2111526,-1.8558903
vit_b_16,1,519,NaN,oven,chair,128-10-10,0519_eid_dnn_128-10-10_chair_10_n04099969_1850.png,n04099969_1850.png,0.0,-0.95508695,1.9994148,-2.0891483
vit_b_16,1,520,NaN,dog,dog,2-10-10,0520_eid_dnn_2-10-10_dog_10_n02092002_2008.png,n02092002_2008.png,1.0,0.24270952,0.16511801,0.054865483
vit_b_16,1,521,NaN,bicycle,bicycle,8-10-10,0521_eid_dnn_8-10-10_bicycle_10_n02835271_8105.png,n02835271_8105.png,1.0,4.8809032,0.958515,2.7735474
vit_b_16,1,522,NaN,oven,oven,64-10-10,0522_eid_dnn_64-10-10_oven_10_n04111531_14126.png,n04111531_14126.png,1.0,2.0849724,0.7141673,0.9693056
vit_b_16,1,523,NaN,elephant,elephant,4-10-10,0523_eid_dnn_4-10-10_elephant_10_n02504013_13766.png,n02504013_13766.png,1.0,5.9564056,0.8566725,3.6060562
vit_b_16,1,524,NaN,clock,bicycle,64-10-10,0524_eid_dnn_64-10-10_bicycle_10_n02835271_18361.png,n02835271_18361.png,0.0,-0.45232195,1.3223783,-1.2549026
vit_b_16,1,525,NaN,elephant,bird,8-10-10,0525_eid_dnn_8-10-10_bird_10_n01582220_4708.png,n01582220_4708.png,0.0,-0.19074942,1.1395745,-0.9406811
vit_b_16,1,526,NaN,bear,chair,16-10-10,0526_eid_dnn_16-10-10_chair_10_n04099969_101.png,n04099969_101.png,0.0,0.16632238,1.1598647,-0.7025405
vit_b_16,1,527,NaN,cat,cat,1-10-10,0527_eid_dnn_1-10-10_cat_10_n02124075_724.png,n02124075_724.png,1.0,2.2181942,0.62565315,1.1260966
vit_b_16,1,528,NaN,oven,bicycle,32-10-10,0528_eid_dnn_32-10-10_bicycle_10_n02835271_43.png,n02835271_43.png,0.0,-0.0072155073,2.5253751,-1.790812
vit_b_16,1,529,NaN,bird,bird,2-10-10,0529_eid_dnn_2-10-10_bird_10_n02017213_5362.png,n02017213_5362.png,1.0,1.2726198,0.6430904,0.44514453
vit_b_16,1,530,NaN,dog,dog,1-10-10,0530_eid_dnn_1-10-10_dog_10_n02088466_1769.png,n02088466_1769.png,1.0,0.1751473,0.14238371,0.023167353
vit_b_16,1,531,NaN,bear,bear,1-10-10,0531_eid_dnn_1-10-10_bear_10_n02133161_5653.png,n02133161_5653.png,1.0,6.045203,0.17780134,4.14888
vit_b_16,1,532,NaN,bicycle,dog,1-10-10,0532_eid_dnn_1-10-10_dog_10_n02098105_4676.png,n02098105_4676.png,0.0,0.011296473,0.32271296,-0.22020471
vit_b_16,1,533,NaN,cat,cat,2-10-10,0533_eid_dnn_2-10-10_cat_10_n02123045_3593.png,n02123045_3593.png,1.0,3.8630269,0.43868014,2.4213789
vit_b_16,1,534,NaN,cat,bottle,8-10-10,0534_eid_dnn_8-10-10_bottle_10_n04560804_265.png,n04560804_265.png,0.0,-0.70292807,0.6626183,-0.9655871
vit_b_16,1,535,NaN,dog,knife,128-10-10,0535_eid_dnn_128-10-10_knife_10_n03041632_1556.png,n03041632_1556.png,0.0,0.11783482,1.4572539,-0.9471124
vit_b_16,1,536,NaN,chair,chair,4-10-10,0536_eid_dnn_4-10-10_chair_10_n02791124_9595.png,n02791124_9595.png,1.0,2.2349892,0.4787049,1.2418805
vit_b_16,1,537,NaN,elephant,dog,32-10-10,0537_eid_dnn_32-10-10_dog_10_n02107312_2933.png,n02107312_2933.png,0.0,-0.16006778,1.3857057,-1.093027
vit_b_16,1,538,NaN,oven,oven,32-10-10,0538_eid_dnn_32-10-10_oven_10_n04111531_101.png,n04111531_101.png,1.0,1.0869392,0.7261905,0.25508785
vit_b_16,1,539,NaN,truck,truck,4-10-10,0539_eid_dnn_4-10-10_truck_10_n03417042_7204.png,n03417042_7204.png,1.0,3.096953,0.19753255,2.0501997
vit_b_16,1,540,NaN,airplane,bear,64-10-10,0540_eid_dnn_64-10-10_bear_10_n02132136_2120.png,n02132136_2120.png,0.0,0.49209115,2.1855907,-1.1974851
vit_b_16,1,541,NaN,oven,airplane,64-10-10,0541_eid_dnn_64-10-10_airplane_10_n02690373_18412.png,n02690373_18412.png,0.0,0.55210894,0.56306714,-0.007748614
vit_b_16,1,542,NaN,oven,knife,128-10-10,0542_eid_dnn_128-10-10_knife_10_n03041632_21017.png,n03041632_21017.png,0.0,-0.121024,0.57206565,-0.4900884
vit_b_16,1,543,NaN,bear,elephant,128-10-10,0543_eid_dnn_128-10-10_elephant_10_n02504458_8414.png,n02504458_8414.png,0.0,-0.05526772,1.6706905,-1.2204368
vit_b_16,1,544,NaN,bear,bottle,128-10-10,0544_eid_dnn_128-10-10_bottle_10_n04557648_11046.png,n04557648_11046.png,0.0,0.17882551,1.1802342,-0.7081029
vit_b_16,1,545,NaN,bear,clock,64-10-10,0545_eid_dnn_64-10-10_clock_10_n03196217_10578.png,n03196217_10578.png,0.0,0.59554553,1.1309986,-0.3786225
vit_b_16,1,546,NaN,bear,bear,2-10-10,0546_eid_dnn_2-10-10_bear_10_n02134418_3213.png,n02134418_3213.png,1.0,3.2278442,0.16113901,2.168488
vit_b_16,1,547,NaN,airplane,clock,64-10-10,0547_eid_dnn_64-10-10_clock_10_n03196217_6289.png,n03196217_6289.png,0.0,0.5024678,2.9911256,-1.7597468
vit_b_16,1,548,NaN,airplane,dog,32-10-10,0548_eid_dnn_32-10-10_dog_10_n02096294_1498.png,n02096294_1498.png,0.0,0.22130397,3.6306584,-2.4107778
vit_b_16,1,549,NaN,dog,oven,16-10-10,0549_eid_dnn_16-10-10_oven_10_n04111531_519.png,n04111531_519.png,0.0,0.06692317,0.9651903,-0.6351708
vit_b_16,1,550,NaN,bird,bird,1-10-10,0550_eid_dnn_1-10-10_bird_10_n01531178_14959.png,n01531178_14959.png,1.0,1.2305561,0.64429283,0.41455075
vit_b_16,1,551,NaN,airplane,bear,32-10-10,0551_eid_dnn_32-10-10_bear_10_n02132136_8754.png,n02132136_8754.png,0.0,1.7119834,2.387206,-0.4774545
vit_b_16,1,552,NaN,car,car,1-10-10,0552_eid_dnn_1-10-10_car_10_n02814533_73067.png,n02814533_73067.png,1.0,4.163946,1.275893,2.042162
vit_b_16,1,553,NaN,bear,cat,8-10-10,0553_eid_dnn_8-10-10_cat_10_n02124075_15378.png,n02124075_15378.png,0.0,1.0319805,1.3713667,-0.2399823
vit_b_16,1,554,NaN,oven,bird,128-10-10,0554_eid_dnn_128-10-10_bird_10_n01592084_7569.png,n01592084_7569.png,0.0,-0.75590676,1.9452416,-1.9100003
vit_b_16,1,555,NaN,bear,dog,128-10-10,0555_eid_dnn_128-10-10_dog_10_n02094114_3395.png,n02094114_3395.png,0.0,0.48603246,1.5468601,-0.75011843
vit_b_16,1,556,NaN,chair,chair,4-10-10,0556_eid_dnn_4-10-10_chair_10_n03376595_1712.png,n03376595_1712.png,1.0,1.8244951,0.89867884,0.6546509
vit_b_16,1,557,NaN,cat,bear,64-10-10,0557_eid_dnn_64-10-10_bear_10_n02134084_622.png,n02134084_622.png,0.0,-0.0012912974,1.9129881,-1.3535999
vit_b_16,1,558,NaN,bottle,clock,8-10-10,0558_eid_dnn_8-10-10_clock_10_n03196217_4912.png,n03196217_4912.png,0.0,1.8278246,2.2607493,-0.30612403
vit_b_16,1,559,NaN,oven,car,64-10-10,0559_eid_dnn_64-10-10_car_10_n03100240_18815.png,n03100240_18815.png,0.0,-1.3457031,1.2879735,-1.8622906
vit_b_16,1,560,NaN,chair,chair,2-10-10,0560_eid_dnn_2-10-10_chair_10_n04099969_2020.png,n04099969_2020.png,1.0,3.613982,0.9130726,1.9098314
vit_b_16,1,561,NaN,bear,bear,1-10-10,0561_eid_dnn_1-10-10_bear_10_n02132136_7647.png,n02132136_7647.png,1.0,6.375866,0.26777306,4.3190737
vit_b_16,1,562,NaN,dog,oven,128-10-10,0562_eid_dnn_128-10-10_oven_10_n04111531_2796.png,n04111531_2796.png,0.0,-0.18984684,1.0574244,-0.881954
vit_b_16,1,563,NaN,oven,truck,64-10-10,0563_eid_dnn_64-10-10_truck_10_n03796401_9472.png,n03796401_9472.png,0.0,-0.86870337,2.1956086,-2.1667957
vit_b_16,1,564,NaN,chair,chair,4-10-10,0564_eid_dnn_4-10-10_chair_10_n03376595_12433.png,n03376595_12433.png,1.0,4.9506507,2.2709084,1.894864
vit_b_16,1,565,NaN,truck,truck,4-10-10,0565_eid_dnn_4-10-10_truck_10_n04467665_31539.png,n04467665_31539.png,1.0,4.152895,0.8245581,2.3534896
vit_b_16,1,566,NaN,airplane,airplane,32-10-10,0566_eid_dnn_32-10-10_airplane_10_n02690373_10657.png,n02690373_10657.png,1.0,5.001304,1.3480613,2.5832329
vit_b_16,1,567,NaN,cat,truck,16-10-10,0567_eid_dnn_16-10-10_truck_10_n03796401_5963.png,n03796401_5963.png,0.0,0.108603336,0.8449802,-0.52069706
vit_b_16,1,568,NaN,bear,dog,64-10-10,0568_eid_dnn_64-10-10_dog_10_n02096294_2233.png,n02096294_2233.png,0.0,0.6722556,2.1051867,-1.0132353
vit_b_16,1,569,NaN,airplane,airplane,128-10-10,0569_eid_dnn_128-10-10_airplane_10_n02690373_4873.png,n02690373_4873.png,1.0,2.460773,0.77477807,1.1921784
vit_b_16,1,570,NaN,truck,truck,1-10-10,0570_eid_dnn_1-10-10_truck_10_n04467665_4825.png,n04467665_4825.png,1.0,3.3496726,0.5398687,1.9868314
vit_b_16,1,571,NaN,chair,chair,16-10-10,0571_eid_dnn_16-10-10_chair_10_n04099969_1704.png,n04099969_1704.png,1.0,1.7823184,0.984112,0.5644171
vit_b_16,1,572,NaN,bicycle,bicycle,2-10-10,0572_eid_dnn_2-10-10_bicycle_10_n02835271_1573.png,n02835271_1573.png,1.0,6.893339,1.6494509,3.707989
vit_b_16,1,573,NaN,boat,boat,2-10-10,0573_eid_dnn_2-10-10_boat_10_n04273569_12725.png,n04273569_12725.png,1.0,3.2475162,1.0115472,1.5810689
vit_b_16,1,574,NaN,cat,knife,128-10-10,0574_eid_dnn_128-10-10_knife_10_n03041632_11285.png,n03041632_11285.png,0.0,0.27530754,1.439236,-0.82302177
vit_b_16,1,575,NaN,clock,clock,4-10-10,0575_eid_dnn_4-10-10_clock_10_n03196217_8254.png,n03196217_8254.png,1.0,3.7226963,3.4767168,0.1739338
vit_b_16,1,576,NaN,airplane,knife,16-10-10,0576_eid_dnn_16-10-10_knife_10_n03041632_15099.png,n03041632_15099.png,0.0,-0.55566615,3.6220727,-2.9541073
vit_b_16,1,577,NaN,clock,cat,64-10-10,0577_eid_dnn_64-10-10_cat_10_n02125311_30452.png,n02125311_30452.png,0.0,0.020163933,0.888048,-0.6136867
vit_b_16,1,578,NaN,airplane,bottle,32-10-10,0578_eid_dnn_32-10-10_bottle_10_n04591713_6804.png,n04591713_6804.png,0.0,-0.53330505,1.8477482,-1.683659
vit_b_16,1,579,NaN,cat,dog,64-10-10,0579_eid_dnn_64-10-10_dog_10_n02088364_14369.png,n02088364_14369.png,0.0,0.45802957,1.0422027,-0.4130728
vit_b_16,1,580,NaN,airplane,truck,32-10-10,0580_eid_dnn_32-10-10_truck_10_n03796401_16425.png,n03796401_16425.png,0.0,-0.533424,1.2104223,-1.2330855
vit_b_16,1,581,NaN,oven,truck,64-10-10,0581_eid_dnn_64-10-10_truck_10_n03417042_5406.png,n03417042_5406.png,0.0,-0.91596794,1.0449892,-1.3866061
vit_b_16,1,582,NaN,knife,knife,1-10-10,0582_eid_dnn_1-10-10_knife_10_n03041632_52929.png,n03041632_52929.png,1.0,4.4817276,0.39318117,2.891039
vit_b_16,1,583,NaN,clock,chair,64-10-10,0583_eid_dnn_64-10-10_chair_10_n03376595_4820.png,n03376595_4820.png,0.0,-0.26907876,1.1016626,-0.9692605
vit_b_16,1,584,NaN,chair,chair,1-10-10,0584_eid_dnn_1-10-10_chair_10_n03376595_787.png,n03376595_787.png,1.0,3.1245353,1.9226214,0.84988153
vit_b_16,1,585,NaN,chair,chair,2-10-10,0585_eid_dnn_2-10-10_chair_10_n03376595_7709.png,n03376595_7709.png,1.0,3.46723,0.5479628,2.0642335
vit_b_16,1,586,NaN,bottle,bottle,1-10-10,0586_eid_dnn_1-10-10_bottle_10_n03983396_11006.png,n03983396_11006.png,1.0,3.0170534,0.69845235,1.6394986
vit_b_16,1,587,NaN,oven,oven,8-10-10,0587_eid_dnn_8-10-10_oven_10_n04111531_458.png,n04111531_458.png,1.0,2.0898762,0.9981082,0.7719966
vit_b_16,1,588,NaN,bear,cat,128-10-10,0588_eid_dnn_128-10-10_cat_10_n02123045_7829.png,n02123045_7829.png,0.0,1.007083,2.7331376,-1.2205049
vit_b_16,1,589,NaN,bear,bear,1-10-10,0589_eid_dnn_1-10-10_bear_10_n02134418_4685.png,n02134418_4685.png,1.0,4.6416826,1.1363026,2.4786782
vit_b_16,1,590,NaN,airplane,knife,64-10-10,0590_eid_dnn_64-10-10_knife_10_n03041632_1964.png,n03041632_1964.png,0.0,-0.3367249,1.7890791,-1.5031704
vit_b_16,1,591,NaN,car,car,4-10-10,0591_eid_dnn_4-10-10_car_10_n03100240_17472.png,n03100240_17472.png,1.0,6.033258,1.652534,3.0976396
vit_b_16,1,592,NaN,airplane,dog,16-10-10,0592_eid_dnn_16-10-10_dog_10_n02113023_1980.png,n02113023_1980.png,0.0,0.8572322,1.9662691,-0.7842075
vit_b_16,1,593,NaN,airplane,dog,32-10-10,0593_eid_dnn_32-10-10_dog_10_n02100735_6359.png,n02100735_6359.png,0.0,-0.083291255,2.9217486,-2.1248841
vit_b_16,1,594,NaN,knife,knife,1-10-10,0594_eid_dnn_1-10-10_knife_10_n03041632_31849.png,n03041632_31849.png,1.0,7.559029,2.270873,3.739291
vit_b_16,1,595,NaN,airplane,bird,8-10-10,0595_eid_dnn_8-10-10_bird_10_n01532829_23378.png,n01532829_23378.png,0.0,0.7482544,1.6781948,-0.65756714
vit_b_16,1,596,NaN,bear,clock,64-10-10,0596_eid_dnn_64-10-10_clock_10_n02708093_5127.png,n02708093_5127.png,0.0,-0.10011354,0.9941369,-0.7737519
vit_b_16,1,597,NaN,bear,bear,4-10-10,0597_eid_dnn_4-10-10_bear_10_n02134084_12148.png,n02134084_12148.png,1.0,3.125197,0.34410745,1.9665273
vit_b_16,1,598,NaN,elephant,elephant,4-10-10,0598_eid_dnn_4-10-10_elephant_10_n02504458_63.png,n02504458_63.png,1.0,7.6654816,0.87283266,4.8031282
vit_b_16,1,599,NaN,knife,dog,2-10-10,0599_eid_dnn_2-10-10_dog_10_n02108551_13160.png,n02108551_13160.png,0.0,-0.2516406,0.55263686,-0.56871
vit_b_16,1,600,NaN,bicycle,bicycle,2-10-10,0600_eid_dnn_2-10-10_bicycle_10_n02835271_3215.png,n02835271_3215.png,1.0,5.329069,0.850737,3.166659
vit_b_16,1,601,NaN,bicycle,bicycle,16-10-10,0601_eid_dnn_16-10-10_bicycle_10_n03792782_14216.png,n03792782_14216.png,1.0,3.7364156,1.332614,1.6997445
vit_b_16,1,602,NaN,bicycle,bicycle,2-10-10,0602_eid_dnn_2-10-10_bicycle_10_n03792782_25352.png,n03792782_25352.png,1.0,6.622921,0.35759363,4.4302554
vit_b_16,1,603,NaN,knife,boat,128-10-10,0603_eid_dnn_128-10-10_boat_10_n04273569_1482.png,n04273569_1482.png,0.0,-0.5520967,3.389306,-2.7869928
vit_b_16,1,604,NaN,car,car,2-10-10,0604_eid_dnn_2-10-10_car_10_n02814533_59053.png,n02814533_59053.png,1.0,4.139375,1.2379378,2.051626
vit_b_16,1,605,NaN,clock,airplane,128-10-10,0605_eid_dnn_128-10-10_airplane_10_n02690373_10462.png,n02690373_10462.png,0.0,-0.12233965,1.2343459,-0.95932156
vit_b_16,1,606,NaN,bottle,bottle,8-10-10,0606_eid_dnn_8-10-10_bottle_10_n04560804_15379.png,n04560804_15379.png,1.0,1.9288199,1.5495634,0.26817483
vit_b_16,1,607,NaN,airplane,chair,16-10-10,0607_eid_dnn_16-10-10_chair_10_n02791124_1140.png,n02791124_1140.png,0.0,-0.4236728,1.4135941,-1.2991439
vit_b_16,1,608,NaN,airplane,dog,8-10-10,0608_eid_dnn_8-10-10_dog_10_n02101388_24945.png,n02101388_24945.png,0.0,0.39053145,0.6938982,-0.21451269
vit_b_16,1,609,NaN,bear,cat,64-10-10,0609_eid_dnn_64-10-10_cat_10_n02124075_20957.png,n02124075_20957.png,0.0,1.4111518,1.4654698,-0.038408678
vit_b_16,1,610,NaN,elephant,elephant,1-10-10,0610_eid_dnn_1-10-10_elephant_10_n02504013_8105.png,n02504013_8105.png,1.0,5.290823,0.65386206,3.2788267
vit_b_16,1,611,NaN,truck,truck,2-10-10,0611_eid_dnn_2-10-10_truck_10_n03796401_13992.png,n03796401_13992.png,1.0,1.5817436,0.5454659,0.73275906
vit_b_16,1,612,NaN,elephant,bottle,128-10-10,0612_eid_dnn_128-10-10_bottle_10_n04560804_22426.png,n04560804_22426.png,0.0,0.7432273,0.8495321,-0.07516886
vit_b_16,1,613,NaN,cat,cat,1-10-10,0613_eid_dnn_1-10-10_cat_10_n02123159_2100.png,n02123159_2100.png,1.0,5.610129,0.74841815,3.4377487
vit_b_16,1,614,NaN,bear,clock,64-10-10,0614_eid_dnn_64-10-10_clock_10_n02708093_6560.png,n02708093_6560.png,0.0,0.45839262,1.6393331,-0.83505106
vit_b_16,1,615,NaN,knife,bird,1-10-10,0615_eid_dnn_1-10-10_bird_10_n01855032_4905.png,n01855032_4905.png,0.0,0.07014591,0.2887735,-0.15459307
vit_b_16,1,616,NaN,clock,clock,2-10-10,0616_eid_dnn_2-10-10_clock_10_n04548280_2616.png,n04548280_2616.png,1.0,5.2730465,1.6917336,2.5323706
vit_b_16,1,617,NaN,truck,truck,2-10-10,0617_eid_dnn_2-10-10_truck_10_n03417042_3789.png,n03417042_3789.png,1.0,4.1246347,1.6574575,1.7445579
vit_b_16,1,618,NaN,cat,oven,64-10-10,0618_eid_dnn_64-10-10_oven_10_n04111531_7356.png,n04111531_7356.png,0.0,0.63672817,1.050457,-0.29255047
vit_b_16,1,619,NaN,cat,cat,4-10-10,0619_eid_dnn_4-10-10_cat_10_n02124075_18687.png,n02124075_18687.png,1.0,4.456238,0.5107201,2.7899024
vit_b_16,1,620,NaN,keyboard,keyboard,8-10-10,0620_eid_dnn_8-10-10_keyboard_10_n03085013_17884.png,n03085013_17884.png,1.0,5.7850227,0.43780592,3.7810533
vit_b_16,1,621,NaN,keyboard,keyboard,2-10-10,0621_eid_dnn_2-10-10_keyboard_10_n03085013_4780.png,n03085013_4780.png,1.0,7.5876117,0.21952707,5.2100224
vit_b_16,1,622,NaN,cat,cat,16-10-10,0622_eid_dnn_16-10-10_cat_10_n02123045_15476.png,n02123045_15476.png,1.0,2.9157066,0.70731384,1.5615696
vit_b_16,1,623,NaN,keyboard,keyboard,4-10-10,0623_eid_dnn_4-10-10_keyboard_10_n03085013_6095.png,n03085013_6095.png,1.0,4.135677,1.3036692,2.0025318
vit_b_16,1,624,NaN,airplane,airplane,1-10-10,0624_eid_dnn_1-10-10_airplane_10_n02690373_18848.png,n02690373_18848.png,1.0,9.045823,0.32438573,6.166988
vit_b_16,1,625,NaN,oven,bicycle,16-10-10,0625_eid_dnn_16-10-10_bicycle_10_n02835271_18706.png,n02835271_18706.png,0.0,-0.46121213,2.130606,-1.8326921
vit_b_16,1,626,NaN,dog,dog,1-10-10,0626_eid_dnn_1-10-10_dog_10_n02111500_1393.png,n02111500_1393.png,1.0,1.1416832,0.39027596,0.53132516
vit_b_16,1,627,NaN,airplane,airplane,2-10-10,0627_eid_dnn_2-10-10_airplane_10_n02690373_5748.png,n02690373_5748.png,1.0,8.447036,0.24482472,5.7998395
vit_b_16,1,628,NaN,clock,dog,128-10-10,0628_eid_dnn_128-10-10_dog_10_n02100877_7049.png,n02100877_7049.png,0.0,0.4101114,1.1789678,-0.54366356
vit_b_16,1,629,NaN,oven,bear,32-10-10,0629_eid_dnn_32-10-10_bear_10_n02134084_6854.png,n02134084_6854.png,0.0,2.2395976,2.7854176,-0.38595304
vit_b_16,1,630,NaN,oven,bottle,16-10-10,0630_eid_dnn_16-10-10_bottle_10_n03983396_11402.png,n03983396_11402.png,0.0,-0.55912024,2.4542024,-2.130741
vit_b_16,1,631,NaN,oven,cat,64-10-10,0631_eid_dnn_64-10-10_cat_10_n02124075_2813.png,n02124075_2813.png,0.0,-0.54779404,2.0296006,-1.8224933
vit_b_16,1,632,NaN,airplane,keyboard,32-10-10,0632_eid_dnn_32-10-10_keyboard_10_n03085013_23814.png,n03085013_23814.png,0.0,-0.67905277,0.9631642,-1.1612227
vit_b_16,1,633,NaN,cat,cat,2-10-10,0633_eid_dnn_2-10-10_cat_10_n02125311_30349.png,n02125311_30349.png,1.0,2.1846173,0.25131163,1.3670535
vit_b_16,1,634,NaN,bear,bear,16-10-10,0634_eid_dnn_16-10-10_bear_10_n02133161_1234.png,n02133161_1234.png,1.0,1.5753479,1.4102917,0.116712384
vit_b_16,1,635,NaN,bear,oven,128-10-10,0635_eid_dnn_128-10-10_oven_10_n04111531_9779.png,n04111531_9779.png,0.0,1.0154911,1.6517718,-0.44991836
vit_b_16,1,636,NaN,airplane,car,64-10-10,0636_eid_dnn_64-10-10_car_10_n02814533_19373.png,n02814533_19373.png,0.0,0.048694953,2.5596066,-1.7754828
vit_b_16,1,637,NaN,oven,bird,4-10-10,0637_eid_dnn_4-10-10_bird_10_n02051845_41380.png,n02051845_41380.png,0.0,0.69636405,1.3827771,-0.48536733
vit_b_16,1,638,NaN,cat,cat,16-10-10,0638_eid_dnn_16-10-10_cat_10_n02123159_2455.png,n02123159_2455.png,1.0,0.98653007,0.9485124,0.026882567
vit_b_16,1,639,NaN,knife,knife,8-10-10,0639_eid_dnn_8-10-10_knife_10_n03041632_23803.png,n03041632_23803.png,1.0,9.398924,1.217424,5.785194
vit_b_16,1,640,NaN,dog,boat,16-10-10,0640_eid_dnn_16-10-10_boat_10_n02951358_2013.png,n02951358_2013.png,0.0,0.058151484,1.2038211,-0.81011075
vit_b_16,1,641,NaN,dog,bottle,64-10-10,0641_eid_dnn_64-10-10_bottle_10_n04591713_6561.png,n04591713_6561.png,0.0,-0.08133962,0.64164054,-0.51122415
vit_b_16,1,642,NaN,oven,elephant,32-10-10,0642_eid_dnn_32-10-10_elephant_10_n02504013_12531.png,n02504013_12531.png,0.0,-0.17173274,1.8372877,-1.420592
vit_b_16,1,643,NaN,airplane,boat,64-10-10,0643_eid_dnn_64-10-10_boat_10_n04612504_4719.png,n04612504_4719.png,0.0,1.0339954,2.2250104,-0.8421748
vit_b_16,1,644,NaN,airplane,car,32-10-10,0644_eid_dnn_32-10-10_car_10_n02814533_46403.png,n02814533_46403.png,0.0,-0.3550135,1.9777778,-1.6495326
vit_b_16,1,645,NaN,airplane,airplane,8-10-10,0645_eid_dnn_8-10-10_airplane_10_n02690373_8304.png,n02690373_8304.png,1.0,6.575037,1.092263,3.8769066
vit_b_16,1,646,NaN,airplane,boat,16-10-10,0646_eid_dnn_16-10-10_boat_10_n03662601_2686.png,n03662601_2686.png,0.0,0.39338118,1.5919923,-0.847546
vit_b_16,1,647,NaN,elephant,dog,2-10-10,0647_eid_dnn_2-10-10_dog_10_n02099849_2787.png,n02099849_2787.png,0.0,0.46096292,1.0381509,-0.40813357
vit_b_16,1,648,NaN,elephant,elephant,1-10-10,0648_eid_dnn_1-10-10_elephant_10_n02504458_7063.png,n02504458_7063.png,1.0,7.0577507,0.15893857,4.878197
vit_b_16,1,649,NaN,chair,chair,1-10-10,0649_eid_dnn_1-10-10_chair_10_n03376595_6938.png,n03376595_6938.png,1.0,2.8362956,2.7019563,0.09499226
vit_b_16,1,650,NaN,bear,chair,8-10-10,0650_eid_dnn_8-10-10_chair_10_n02791124_5191.png,n02791124_5191.png,0.0,0.5117616,1.7108563,-0.84788805
vit_b_16,1,651,NaN,boat,boat,2-10-10,0651_eid_dnn_2-10-10_boat_10_n02951358_2350.png,n02951358_2350.png,1.0,4.924927,1.1991073,2.6345527
vit_b_16,1,652,NaN,bear,bear,8-10-10,0652_eid_dnn_8-10-10_bear_10_n02132136_6266.png,n02132136_6266.png,1.0,6.0615788,1.9236166,2.9259813
vit_b_16,1,653,NaN,airplane,chair,32-10-10,0653_eid_dnn_32-10-10_chair_10_n03376595_8964.png,n03376595_8964.png,0.0,-0.47986674,1.9598191,-1.7251184
vit_b_16,1,654,NaN,airplane,airplane,2-10-10,0654_eid_dnn_2-10-10_airplane_10_n02690373_4042.png,n02690373_4042.png,1.0,9.26628,0.480183,6.2127094
vit_b_16,1,655,NaN,oven,oven,2-10-10,0655_eid_dnn_2-10-10_oven_10_n04111531_845.png,n04111531_845.png,1.0,9.764906,1.7175579,5.6903343
vit_b_16,1,656,NaN,airplane,car,32-10-10,0656_eid_dnn_32-10-10_car_10_n02814533_49630.png,n02814533_49630.png,0.0,-0.2601098,2.5986776,-2.0214682
vit_b_16,1,657,NaN,knife,knife,4-10-10,0657_eid_dnn_4-10-10_knife_10_n03041632_40450.png,n03041632_40450.png,1.0,10.658144,0.93111223,6.8780503
vit_b_16,1,658,NaN,airplane,chair,16-10-10,0658_eid_dnn_16-10-10_chair_10_n04429376_11720.png,n04429376_11720.png,0.0,0.5452276,1.9592265,-0.9998482
vit_b_16,1,659,NaN,clock,knife,4-10-10,0659_eid_dnn_4-10-10_knife_10_n03041632_27929.png,n03041632_27929.png,0.0,2.3142145,2.9697282,-0.46351823
vit_b_16,1,660,NaN,bottle,bird,1-10-10,0660_eid_dnn_1-10-10_bird_10_n02018207_10146.png,n02018207_10146.png,0.0,-0.09661563,0.07276111,-0.119767435
vit_b_16,1,661,NaN,airplane,elephant,32-10-10,0661_eid_dnn_32-10-10_elephant_10_n02504458_2471.png,n02504458_2471.png,0.0,0.50406134,2.4952555,-1.4079869
vit_b_16,1,662,NaN,oven,oven,8-10-10,0662_eid_dnn_8-10-10_oven_10_n04111531_20511.png,n04111531_20511.png,1.0,8.069921,1.7434305,4.473504
vit_b_16,1,663,NaN,airplane,truck,32-10-10,0663_eid_dnn_32-10-10_truck_10_n03417042_3228.png,n03417042_3228.png,0.0,0.1553872,3.6734946,-2.4876776
vit_b_16,1,664,NaN,cat,cat,2-10-10,0664_eid_dnn_2-10-10_cat_10_n02125311_9364.png,n02125311_9364.png,1.0,1.8480648,0.18669276,1.1747675
vit_b_16,1,665,NaN,car,car,2-10-10,0665_eid_dnn_2-10-10_car_10_n04285008_16701.png,n04285008_16701.png,1.0,6.1025777,0.17590027,4.1907935
vit_b_16,1,666,NaN,boat,boat,8-10-10,0666_eid_dnn_8-10-10_boat_10_n04273569_2667.png,n04273569_2667.png,1.0,2.820928,1.2810724,1.0888424
vit_b_16,1,667,NaN,boat,boat,1-10-10,0667_eid_dnn_1-10-10_boat_10_n03662601_24208.png,n03662601_24208.png,1.0,3.1629186,1.4362444,1.2209431
vit_b_16,1,668,NaN,clock,truck,8-10-10,0668_eid_dnn_8-10-10_truck_10_n03417042_11037.png,n03417042_11037.png,0.0,0.45616895,0.62011045,-0.11592415
vit_b_16,1,669,NaN,bear,bird,1-10-10,0669_eid_dnn_1-10-10_bird_10_n02002724_19618.png,n02002724_19618.png,0.0,0.2972062,3.3271337,-2.1424823
vit_b_16,1,670,NaN,bear,bear,16-10-10,0670_eid_dnn_16-10-10_bear_10_n02134418_1663.png,n02134418_1663.png,1.0,1.9585261,1.0810747,0.62045187
vit_b_16,1,671,NaN,cat,chair,128-10-10,0671_eid_dnn_128-10-10_chair_10_n04099969_19484.png,n04099969_19484.png,0.0,-0.65595496,1.8317304,-1.7590591
vit_b_16,1,672,NaN,car,car,1-10-10,0672_eid_dnn_1-10-10_car_10_n04285008_2727.png,n04285008_2727.png,1.0,3.2512958,0.30546,2.0830204
vit_b_16,1,673,NaN,airplane,bicycle,32-10-10,0673_eid_dnn_32-10-10_bicycle_10_n03792782_14935.png,n03792782_14935.png,0.0,-0.022434354,2.207745,-1.576975
vit_b_16,1,674,NaN,oven,cat,128-10-10,0674_eid_dnn_128-10-10_cat_10_n02124075_8320.png,n02124075_8320.png,0.0,0.23680319,2.830235,-1.8338332
vit_b_16,1,675,NaN,clock,chair,4-10-10,0675_eid_dnn_4-10-10_chair_10_n04429376_57014.png,n04429376_57014.png,0.0,2.0043173,2.1601088,-0.110161245
vit_b_16,1,676,NaN,oven,oven,1-10-10,0676_eid_dnn_1-10-10_oven_10_n04111531_2385.png,n04111531_2385.png,1.0,2.4024472,1.6789483,0.511591
vit_b_16,1,677,NaN,airplane,dog,64-10-10,0677_eid_dnn_64-10-10_dog_10_n02113023_10107.png,n02113023_10107.png,0.0,-0.49457693,2.1195273,-1.8484509
vit_b_16,1,678,NaN,airplane,elephant,16-10-10,0678_eid_dnn_16-10-10_elephant_10_n02504458_4708.png,n02504458_4708.png,0.0,-0.98674417,1.9802107,-2.0979538
vit_b_16,1,679,NaN,oven,truck,64-10-10,0679_eid_dnn_64-10-10_truck_10_n04467665_70694.png,n04467665_70694.png,0.0,-1.1881378,2.9143567,-2.9009016
vit_b_16,1,680,NaN,bird,bird,1-10-10,0680_eid_dnn_1-10-10_bird_10_n01843065_1179.png,n01843065_1179.png,1.0,0.73621094,0.39119345,0.24396421
vit_b_16,1,681,NaN,truck,truck,1-10-10,0681_eid_dnn_1-10-10_truck_10_n03417042_11475.png,n03417042_11475.png,1.0,0.9988727,0.5462122,0.32007933
vit_b_16,1,682,NaN,clock,bicycle,64-10-10,0682_eid_dnn_64-10-10_bicycle_10_n02835271_6137.png,n02835271_6137.png,0.0,-1.1554708,1.3878313,-1.7983862
vit_b_16,1,683,NaN,airplane,airplane,16-10-10,0683_eid_dnn_16-10-10_airplane_10_n02690373_10001.png,n02690373_10001.png,1.0,2.937632,1.3413877,1.1287152
vit_b_16,1,684,NaN,cat,cat,2-10-10,0684_eid_dnn_2-10-10_cat_10_n02124075_17347.png,n02124075_17347.png,1.0,4.1214585,0.18666263,2.782321
vit_b_16,1,685,NaN,airplane,keyboard,16-10-10,0685_eid_dnn_16-10-10_keyboard_10_n04505470_647.png,n04505470_647.png,0.0,-0.67116946,0.57533693,-0.88141316
vit_b_16,1,686,NaN,knife,bottle,4-10-10,0686_eid_dnn_4-10-10_bottle_10_n03983396_3028.png,n03983396_3028.png,0.0,2.3740616,2.7556005,-0.2697887
vit_b_16,1,687,NaN,car,car,1-10-10,0687_eid_dnn_1-10-10_car_10_n02814533_81090.png,n02814533_81090.png,1.0,2.8660204,0.75765663,1.4908384
