subj,session,trial,rt,object_response,category,condition,imagename,filename,is_correct,targ_act,max_nontarg_act,decision_margin
alexnet,1,1,NaN,oven,oven,1-10-10,0001_eid_dnn_1-10-10_oven_10_n04111531_17072.png,n04111531_17072.png,1.0,4.132189,3.6167758,0.36445206
alexnet,1,2,NaN,airplane,airplane,16-10-10,0002_eid_dnn_16-10-10_airplane_10_n02690373_4183.png,n02690373_4183.png,1.0,2.3085508,2.040352,0.18964514
alexnet,1,3,NaN,knife,car,8-10-10,0003_eid_dnn_8-10-10_car_10_n03100240_1137.png,n03100240_1137.png,0.0,0.25963137,4.368928,-2.9057117
alexnet,1,4,NaN,clock,clock,2-10-10,0004_eid_dnn_2-10-10_clock_10_n04548280_7083.png,n04548280_7083.png,1.0,5.0219474,3.808381,0.858121
alexnet,1,5,NaN,bottle,bottle,2-10-10,0005_eid_dnn_2-10-10_bottle_10_n02823428_7810.png,n02823428_7810.png,1.0,5.1672482,4.5416822,0.44234198
alexnet,1,6,NaN,bear,dog,128-10-10,0006_eid_dnn_128-10-10_dog_10_n02091244_8368.png,n02091244_8368.png,0.0,0.2929422,3.0603695,-1.9568666
alexnet,1,7,NaN,bicycle,bicycle,1-10-10,0007_eid_dnn_1-10-10_bicycle_10_n02835271_2930.png,n02835271_2930.png,1.0,6.673351,3.5925007,2.1784902
alexnet,1,8,NaN,elephant,knife,4-10-10,0008_eid_dnn_4-10-10_knife_10_n03041632_52848.png,n03041632_52848.png,0.0,0.8619983,3.200245,-1.65339
alexnet,1,9,NaN,bottle,bottle,2-10-10,0009_eid_dnn_2-10-10_bottle_10_n02823428_4097.png,n02823428_4097.png,1.0,10.419266,7.0413594,2.3885405
alexnet,1,10,NaN,dog,dog,8-10-10,0010_eid_dnn_8-10-10_dog_10_n02105641_10264.png,n02105641_10264.png,1.0,4.6836057,1.849115,2.0042877
alexnet,1,11,NaN,elephant,boat,8-10-10,0011_eid_dnn_8-10-10_boat_10_n03662601_10278.png,n03662601_10278.png,0.0,2.9274466,3.1944633,-0.18880929
alexnet,1,12,NaN,bear,truck,32-10-10,0012_eid_dnn_32-10-10_truck_10_n04467665_76958.png,n04467665_76958.png,0.0,-0.46014175,3.0121498,-2.4552808
alexnet,1,13,NaN,dog,dog,16-10-10,0013_eid_dnn_16-10-10_dog_10_n02088238_12552.png,n02088238_12552.png,1.0,2.427198,2.390519,0.02593599
alexnet,1,14,NaN,bear,dog,8-10-10,0014_eid_dnn_8-10-10_dog_10_n02102040_994.png,n02102040_994.png,0.0,3.2257583,4.2153006,-0.69971204
alexnet,1,15,NaN,elephant,bear,128-10-10,0015_eid_dnn_128-10-10_bear_10_n02133161_1944.png,n02133161_1944.png,0.0,3.332702,4.510395,-0.8327548
alexnet,1,16,NaN,bear,car,16-10-10,0016_eid_dnn_16-10-10_car_10_n02814533_43040.png,n02814533_43040.png,0.0,-1.6619135,3.9189508,-3.9462671
alexnet,1,17,NaN,bear,oven,128-10-10,0017_eid_dnn_128-10-10_oven_10_n04111531_18592.png,n04111531_18592.png,0.0,0.63474786,2.6128864,-1.3987552
alexnet,1,18,NaN,oven,chair,16-10-10,0018_eid_dnn_16-10-10_chair_10_n02791124_4294.png,n02791124_4294.png,0.0,0.89723086,4.1263943,-2.2833633
alexnet,1,19,NaN,oven,knife,32-10-10,0019_eid_dnn_32-10-10_knife_10_n03041632_2630.png,n03041632_2630.png,0.0,1.1368806,3.6968484,-1.8101707
alexnet,1,20,NaN,elephant,elephant,1-10-10,0020_eid_dnn_1-10-10_elephant_10_n02504458_723.png,n02504458_723.png,1.0,10.10717,3.9928737,4.3234606
alexnet,1,21,NaN,chair,chair,4-10-10,0021_eid_dnn_4-10-10_chair_10_n03376595_6107.png,n03376595_6107.png,1.0,4.083975,2.7195227,0.96481335
alexnet,1,22,NaN,oven,clock,32-10-10,0022_eid_dnn_32-10-10_clock_10_n03196217_1337.png,n03196217_1337.png,0.0,0.84982663,2.8514032,-1.4153285
alexnet,1,23,NaN,bear,boat,128-10-10,0023_eid_dnn_128-10-10_boat_10_n02951358_9550.png,n02951358_9550.png,0.0,-0.013561344,3.924667,-2.7847478
alexnet,1,24,NaN,knife,bird,128-10-10,0024_eid_dnn_128-10-10_bird_10_n01616318_2334.png,n01616318_2334.png,0.0,-3.0060465,2.7176247,-4.0472465
alexnet,1,25,NaN,bottle,bottle,32-10-10,0025_eid_dnn_32-10-10_bottle_10_n03937543_1658.png,n03937543_1658.png,1.0,2.866591,2.8362508,0.021453759
alexnet,1,26,NaN,elephant,elephant,2-10-10,0026_eid_dnn_2-10-10_elephant_10_n02504013_6731.png,n02504013_6731.png,1.0,6.47758,3.1878738,2.3261735
alexnet,1,27,NaN,keyboard,keyboard,4-10-10,0027_eid_dnn_4-10-10_keyboard_10_n04505470_4447.png,n04505470_4447.png,1.0,9.555233,4.031325,3.905993
alexnet,1,28,NaN,airplane,airplane,1-10-10,0028_eid_dnn_1-10-10_airplane_10_n02690373_4839.png,n02690373_4839.png,1.0,16.731047,5.4825487,7.9538894
alexnet,1,29,NaN,dog,keyboard,64-10-10,0029_eid_dnn_64-10-10_keyboard_10_n04505470_1651.png,n04505470_1651.png,0.0,-3.904264,1.9514853,-4.14064
alexnet,1,30,NaN,keyboard,keyboard,32-10-10,0030_eid_dnn_32-10-10_keyboard_10_n03085013_20601.png,n03085013_20601.png,1.0,3.5178819,1.7274487,1.2660275
alexnet,1,31,NaN,chair,airplane,64-10-10,0031_eid_dnn_64-10-10_airplane_10_n02690373_2217.png,n02690373_2217.png,0.0,-2.1406689,1.4164124,-2.5152364
alexnet,1,32,NaN,chair,bicycle,4-10-10,0032_eid_dnn_4-10-10_bicycle_10_n03792782_25019.png,n03792782_25019.png,0.0,2.5600328,3.5620103,-0.70850503
alexnet,1,33,NaN,cat,cat,8-10-10,0033_eid_dnn_8-10-10_cat_10_n02123597_13890.png,n02123597_13890.png,1.0,6.313043,2.662603,2.5812511
alexnet,1,34,NaN,boat,boat,1-10-10,0034_eid_dnn_1-10-10_boat_10_n04612504_214.png,n04612504_214.png,1.0,6.534711,3.1562319,2.3889453
alexnet,1,35,NaN,elephant,chair,128-10-10,0035_eid_dnn_128-10-10_chair_10_n02791124_2555.png,n02791124_2555.png,0.0,1.0238911,3.2501116,-1.5741757
alexnet,1,36,NaN,bear,car,4-10-10,0036_eid_dnn_4-10-10_car_10_n04285008_2081.png,n04285008_2081.png,0.0,3.2084532,3.53083,-0.22795478
alexnet,1,37,NaN,bear,dog,32-10-10,0037_eid_dnn_32-10-10_dog_10_n02094114_8202.png,n02094114_8202.png,0.0,2.7016165,3.9417815,-0.8769291
alexnet,1,38,NaN,boat,chair,64-10-10,0038_eid_dnn_64-10-10_chair_10_n04099969_4541.png,n04099969_4541.png,0.0,-0.8602424,2.633943,-2.4707623
alexnet,1,39,NaN,bottle,boat,128-10-10,0039_eid_dnn_128-10-10_boat_10_n04612504_12864.png,n04612504_12864.png,0.0,-0.600647,2.0557897,-1.8783845
alexnet,1,40,NaN,airplane,airplane,4-10-10,0040_eid_dnn_4-10-10_airplane_10_n02690373_18460.png,n02690373_18460.png,1.0,10.83721,2.7838073,5.6946154
alexnet,1,41,NaN,bear,bottle,64-10-10,0041_eid_dnn_64-10-10_bottle_10_n03983396_8982.png,n03983396_8982.png,0.0,1.9154632,3.9503472,-1.4388803
alexnet,1,42,NaN,oven,dog,16-10-10,0042_eid_dnn_16-10-10_dog_10_n02099601_10407.png,n02099601_10407.png,0.0,1.0351223,4.1846356,-2.2270422
alexnet,1,43,NaN,oven,airplane,32-10-10,0043_eid_dnn_32-10-10_airplane_10_n02690373_5253.png,n02690373_5253.png,0.0,0.17940176,2.0561733,-1.327078
alexnet,1,44,NaN,elephant,elephant,2-10-10,0044_eid_dnn_2-10-10_elephant_10_n02504013_2832.png,n02504013_2832.png,1.0,11.942503,6.7500267,3.6716352
alexnet,1,45,NaN,clock,clock,1-10-10,0045_eid_dnn_1-10-10_clock_10_n02708093_8002.png,n02708093_8002.png,1.0,9.244536,3.7697358,3.8712687
alexnet,1,46,NaN,chair,chair,2-10-10,0046_eid_dnn_2-10-10_chair_10_n03376595_1766.png,n03376595_1766.png,1.0,7.5394735,4.778737,1.9521356
alexnet,1,47,NaN,airplane,truck,2-10-10,0047_eid_dnn_2-10-10_truck_10_n03417042_17616.png,n03417042_17616.png,0.0,7.0348873,7.2100334,-0.123847
alexnet,1,48,NaN,bear,bear,16-10-10,0048_eid_dnn_16-10-10_bear_10_n02134418_2804.png,n02134418_2804.png,1.0,2.8453598,1.6661185,0.83384955
alexnet,1,49,NaN,bear,car,64-10-10,0049_eid_dnn_64-10-10_car_10_n04285008_12101.png,n04285008_12101.png,0.0,-4.187351,4.1130853,-5.8692946
alexnet,1,50,NaN,bear,bear,16-10-10,0050_eid_dnn_16-10-10_bear_10_n02134418_3828.png,n02134418_3828.png,1.0,3.9801235,2.8276708,0.81490713
alexnet,1,51,NaN,bird,bird,2-10-10,0051_eid_dnn_2-10-10_bird_10_n01530575_5747.png,n01530575_5747.png,1.0,3.209859,2.1425014,0.75473577
alexnet,1,52,NaN,oven,truck,128-10-10,0052_eid_dnn_128-10-10_truck_10_n03796401_3386.png,n03796401_3386.png,0.0,-1.5432415,3.431172,-3.5174415
alexnet,1,53,NaN,knife,keyboard,16-10-10,0053_eid_dnn_16-10-10_keyboard_10_n04505470_3234.png,n04505470_3234.png,0.0,-0.9519752,1.3580126,-1.6334081
alexnet,1,54,NaN,airplane,truck,1-10-10,0054_eid_dnn_1-10-10_truck_10_n04467665_72639.png,n04467665_72639.png,0.0,4.7331295,11.561751,-4.828565
alexnet,1,55,NaN,bear,chair,32-10-10,0055_eid_dnn_32-10-10_chair_10_n04429376_27524.png,n04429376_27524.png,0.0,1.5206498,5.6922083,-2.9497373
alexnet,1,56,NaN,bottle,bottle,64-10-10,0056_eid_dnn_64-10-10_bottle_10_n04557648_11440.png,n04557648_11440.png,1.0,2.7624104,2.157362,0.42783386
alexnet,1,57,NaN,oven,keyboard,32-10-10,0057_eid_dnn_32-10-10_keyboard_10_n03085013_20216.png,n03085013_20216.png,0.0,-1.2836607,4.225981,-3.895905
alexnet,1,58,NaN,dog,boat,8-10-10,0058_eid_dnn_8-10-10_boat_10_n02951358_34653.png,n02951358_34653.png,0.0,1.2398541,3.4130564,-1.5366861
alexnet,1,59,NaN,keyboard,keyboard,2-10-10,0059_eid_dnn_2-10-10_keyboard_10_n03085013_8932.png,n03085013_8932.png,1.0,5.681083,2.1583204,2.4909694
alexnet,1,60,NaN,keyboard,cat,1-10-10,0060_eid_dnn_1-10-10_cat_10_n02125311_35338.png,n02125311_35338.png,0.0,0.72230405,3.5820117,-2.0221186
alexnet,1,61,NaN,dog,bicycle,16-10-10,0061_eid_dnn_16-10-10_bicycle_10_n03792782_5449.png,n03792782_5449.png,0.0,1.3436043,1.6498893,-0.21657622
alexnet,1,62,NaN,bicycle,bicycle,4-10-10,0062_eid_dnn_4-10-10_bicycle_10_n03792782_9432.png,n03792782_9432.png,1.0,2.7127695,1.2888769,1.0068442
alexnet,1,63,NaN,knife,bottle,1-10-10,0063_eid_dnn_1-10-10_bottle_10_n04591713_4291.png,n04591713_4291.png,0.0,2.838791,3.7871559,-0.6705953
alexnet,1,64,NaN,truck,truck,4-10-10,0064_eid_dnn_4-10-10_truck_10_n04467665_67057.png,n04467665_67057.png,1.0,2.8700185,2.1895769,0.4811449
alexnet,1,65,NaN,oven,keyboard,1-10-10,0065_eid_dnn_1-10-10_keyboard_10_n03085013_22790.png,n03085013_22790.png,0.0,4.3679504,4.9624696,-0.42038852
alexnet,1,66,NaN,cat,dog,4-10-10,0066_eid_dnn_4-10-10_dog_10_n02086079_2896.png,n02086079_2896.png,0.0,2.6760216,3.3112354,-0.44916403
alexnet,1,67,NaN,boat,knife,8-10-10,0067_eid_dnn_8-10-10_knife_10_n03041632_40508.png,n03041632_40508.png,0.0,2.7401907,3.4236171,-0.48325545
alexnet,1,68,NaN,knife,boat,1-10-10,0068_eid_dnn_1-10-10_boat_10_n03344393_7942.png,n03344393_7942.png,0.0,3.9961777,4.091756,-0.06758399
alexnet,1,69,NaN,bear,bear,2-10-10,0069_eid_dnn_2-10-10_bear_10_n02134418_4352.png,n02134418_4352.png,1.0,8.207157,4.004347,2.9718356
alexnet,1,70,NaN,oven,cat,16-10-10,0070_eid_dnn_16-10-10_cat_10_n02123045_5157.png,n02123045_5157.png,0.0,1.4308214,3.4536192,-1.4303341
alexnet,1,71,NaN,dog,dog,16-10-10,0071_eid_dnn_16-10-10_dog_10_n02109047_14287.png,n02109047_14287.png,1.0,4.484772,3.91051,0.40606466
alexnet,1,72,NaN,truck,truck,2-10-10,0072_eid_dnn_2-10-10_truck_10_n03417042_14274.png,n03417042_14274.png,1.0,7.6058593,4.866128,1.9372827
alexnet,1,73,NaN,bicycle,airplane,2-10-10,0073_eid_dnn_2-10-10_airplane_10_n02690373_5885.png,n02690373_5885.png,0.0,4.8616614,6.599565,-1.2288834
alexnet,1,74,NaN,airplane,cat,32-10-10,0074_eid_dnn_32-10-10_cat_10_n02123394_571.png,n02123394_571.png,0.0,1.5266252,2.4554226,-0.656759
alexnet,1,75,NaN,cat,cat,32-10-10,0075_eid_dnn_32-10-10_cat_10_n02123045_10171.png,n02123045_10171.png,1.0,4.387752,1.9673555,1.7114788
alexnet,1,76,NaN,dog,bottle,8-10-10,0076_eid_dnn_8-10-10_bottle_10_n04560804_4909.png,n04560804_4909.png,0.0,1.6417919,2.389146,-0.5284592
alexnet,1,77,NaN,keyboard,keyboard,8-10-10,0077_eid_dnn_8-10-10_keyboard_10_n03085013_7971.png,n03085013_7971.png,1.0,3.7214808,3.4825926,0.16891952
alexnet,1,78,NaN,cat,keyboard,16-10-10,0078_eid_dnn_16-10-10_keyboard_10_n03085013_21397.png,n03085013_21397.png,0.0,-0.21512152,1.7084242,-1.3601522
alexnet,1,79,NaN,oven,elephant,32-10-10,0079_eid_dnn_32-10-10_elephant_10_n02504458_4187.png,n02504458_4187.png,0.0,0.9935932,3.7367954,-1.939737
alexnet,1,80,NaN,oven,clock,8-10-10,0080_eid_dnn_8-10-10_clock_10_n03196217_6689.png,n03196217_6689.png,0.0,-0.65494585,4.349217,-3.5384774
alexnet,1,81,NaN,knife,knife,4-10-10,0081_eid_dnn_4-10-10_knife_10_n03041632_26236.png,n03041632_26236.png,1.0,3.4758482,3.2748604,0.14211985
alexnet,1,82,NaN,bear,car,8-10-10,0082_eid_dnn_8-10-10_car_10_n03100240_1262.png,n03100240_1262.png,0.0,1.6004453,2.3572783,-0.5351618
alexnet,1,83,NaN,bear,keyboard,64-10-10,0083_eid_dnn_64-10-10_keyboard_10_n04505470_5059.png,n04505470_5059.png,0.0,-3.9264874,2.7208855,-4.7004027
alexnet,1,84,NaN,knife,bird,1-10-10,0084_eid_dnn_1-10-10_bird_10_n01537544_26417.png,n01537544_26417.png,0.0,0.92078257,2.1532373,-0.8714771
alexnet,1,85,NaN,knife,bird,32-10-10,0085_eid_dnn_32-10-10_bird_10_n02009912_5714.png,n02009912_5714.png,0.0,-2.4844403,2.743512,-3.6967204
alexnet,1,86,NaN,oven,chair,128-10-10,0086_eid_dnn_128-10-10_chair_10_n03376595_5972.png,n03376595_5972.png,0.0,1.8503195,3.9292397,-1.4700187
alexnet,1,87,NaN,oven,chair,2-10-10,0087_eid_dnn_2-10-10_chair_10_n04429376_805.png,n04429376_805.png,0.0,4.4183,4.699841,-0.19907947
alexnet,1,88,NaN,bear,bicycle,128-10-10,0088_eid_dnn_128-10-10_bicycle_10_n03792782_4083.png,n03792782_4083.png,0.0,1.1680852,2.6912913,-1.0770694
alexnet,1,89,NaN,clock,clock,1-10-10,0089_eid_dnn_1-10-10_clock_10_n02708093_798.png,n02708093_798.png,1.0,6.8944564,5.48357,0.9976473
alexnet,1,90,NaN,bear,bear,1-10-10,0090_eid_dnn_1-10-10_bear_10_n02133161_1660.png,n02133161_1660.png,1.0,6.7912903,3.3114843,2.4605944
alexnet,1,91,NaN,knife,car,8-10-10,0091_eid_dnn_8-10-10_car_10_n04285008_9464.png,n04285008_9464.png,0.0,-2.0807073,1.645181,-2.6346009
alexnet,1,92,NaN,bear,oven,16-10-10,0092_eid_dnn_16-10-10_oven_10_n04111531_3314.png,n04111531_3314.png,0.0,2.1255121,2.135818,-0.007287359
alexnet,1,93,NaN,oven,cat,128-10-10,0093_eid_dnn_128-10-10_cat_10_n02123394_5753.png,n02123394_5753.png,0.0,0.5412484,3.9476402,-2.4086828
alexnet,1,94,NaN,bicycle,boat,2-10-10,0094_eid_dnn_2-10-10_boat_10_n02951358_34042.png,n02951358_34042.png,0.0,3.9857419,4.138488,-0.10800771
alexnet,1,95,NaN,oven,truck,64-10-10,0095_eid_dnn_64-10-10_truck_10_n03417042_7588.png,n03417042_7588.png,0.0,-0.06381863,2.6224775,-1.8994983
alexnet,1,96,NaN,oven,truck,32-10-10,0096_eid_dnn_32-10-10_truck_10_n03417042_4200.png,n03417042_4200.png,0.0,0.75180966,4.542885,-2.680695
alexnet,1,97,NaN,airplane,airplane,4-10-10,0097_eid_dnn_4-10-10_airplane_10_n02690373_4335.png,n02690373_4335.png,1.0,10.988298,6.514797,3.163243
alexnet,1,98,NaN,bicycle,elephant,128-10-10,0098_eid_dnn_128-10-10_elephant_10_n02504458_6823.png,n02504458_6823.png,0.0,-1.1150802,3.312714,-3.1309235
alexnet,1,99,NaN,boat,boat,4-10-10,0099_eid_dnn_4-10-10_boat_10_n03344393_4214.png,n03344393_4214.png,1.0,8.245721,3.535276,3.3307877
alexnet,1,100,NaN,keyboard,keyboard,4-10-10,0100_eid_dnn_4-10-10_keyboard_10_n03085013_22949.png,n03085013_22949.png,1.0,9.496525,3.6245031,4.1521463
alexnet,1,101,NaN,truck,bear,64-10-10,0101_eid_dnn_64-10-10_bear_10_n02132136_31664.png,n02132136_31664.png,0.0,0.47063828,3.2121432,-1.9385368
alexnet,1,102,NaN,keyboard,bottle,8-10-10,0102_eid_dnn_8-10-10_bottle_10_n03983396_1985.png,n03983396_1985.png,0.0,2.3607266,3.5626302,-0.8498742
alexnet,1,103,NaN,airplane,airplane,2-10-10,0103_eid_dnn_2-10-10_airplane_10_n02690373_9266.png,n02690373_9266.png,1.0,18.47981,3.729403,10.430114
alexnet,1,104,NaN,bear,bottle,128-10-10,0104_eid_dnn_128-10-10_bottle_10_n02823428_5961.png,n02823428_5961.png,0.0,2.21804,4.234091,-1.4255632
alexnet,1,105,NaN,bottle,bottle,4-10-10,0105_eid_dnn_4-10-10_bottle_10_n04579145_1856.png,n04579145_1856.png,1.0,6.797473,3.522409,2.31582
alexnet,1,106,NaN,bear,clock,64-10-10,0106_eid_dnn_64-10-10_clock_10_n02708093_7810.png,n02708093_7810.png,0.0,0.41987357,3.6747344,-2.3015342
alexnet,1,107,NaN,dog,dog,1-10-10,0107_eid_dnn_1-10-10_dog_10_n02100735_4949.png,n02100735_4949.png,1.0,5.4168158,5.210168,0.14612211
alexnet,1,108,NaN,knife,chair,32-10-10,0108_eid_dnn_32-10-10_chair_10_n03376595_7275.png,n03376595_7275.png,0.0,0.19984895,2.2521284,-1.4511808
alexnet,1,109,NaN,bottle,bottle,2-10-10,0109_eid_dnn_2-10-10_bottle_10_n03983396_16741.png,n03983396_16741.png,1.0,6.960362,2.6705108,3.033383
alexnet,1,110,NaN,bear,boat,32-10-10,0110_eid_dnn_32-10-10_boat_10_n04612504_8719.png,n04612504_8719.png,0.0,-0.74645126,3.0314674,-2.671392
alexnet,1,111,NaN,chair,chair,1-10-10,0111_eid_dnn_1-10-10_chair_10_n02791124_3570.png,n02791124_3570.png,1.0,7.980953,3.6925974,3.0323255
alexnet,1,112,NaN,bear,bear,32-10-10,0112_eid_dnn_32-10-10_bear_10_n02132136_9557.png,n02132136_9557.png,1.0,3.9404998,2.8951085,0.73920333
alexnet,1,113,NaN,bear,bird,64-10-10,0113_eid_dnn_64-10-10_bird_10_n02002556_5730.png,n02002556_5730.png,0.0,-1.3522741,3.2023597,-3.2206123
alexnet,1,114,NaN,dog,oven,4-10-10,0114_eid_dnn_4-10-10_oven_10_n04111531_8959.png,n04111531_8959.png,0.0,0.959432,1.717242,-0.5358526
alexnet,1,115,NaN,clock,cat,128-10-10,0115_eid_dnn_128-10-10_cat_10_n02123159_8101.png,n02123159_8101.png,0.0,1.4915462,2.3029802,-0.5737705
alexnet,1,116,NaN,knife,cat,8-10-10,0116_eid_dnn_8-10-10_cat_10_n02123597_8890.png,n02123597_8890.png,0.0,2.6001322,3.1701326,-0.40305117
alexnet,1,117,NaN,elephant,elephant,1-10-10,0117_eid_dnn_1-10-10_elephant_10_n02504458_220.png,n02504458_220.png,1.0,15.1883,7.5715513,5.3858547
alexnet,1,118,NaN,elephant,bicycle,128-10-10,0118_eid_dnn_128-10-10_bicycle_10_n02835271_2651.png,n02835271_2651.png,0.0,1.7258457,2.4071126,-0.48172846
alexnet,1,119,NaN,bear,keyboard,64-10-10,0119_eid_dnn_64-10-10_keyboard_10_n04505470_1581.png,n04505470_1581.png,0.0,-3.7282848,2.3142636,-4.272727
alexnet,1,120,NaN,truck,truck,4-10-10,0120_eid_dnn_4-10-10_truck_10_n04467665_1719.png,n04467665_1719.png,1.0,8.405903,5.3976164,2.1271799
alexnet,1,121,NaN,truck,truck,2-10-10,0121_eid_dnn_2-10-10_truck_10_n04467665_30756.png,n04467665_30756.png,1.0,13.93117,6.6610465,5.140754
alexnet,1,122,NaN,oven,oven,64-10-10,0122_eid_dnn_64-10-10_oven_10_n04111531_1818.png,n04111531_1818.png,1.0,4.3000913,2.6985035,1.1324936
alexnet,1,123,NaN,elephant,elephant,64-10-10,0123_eid_dnn_64-10-10_elephant_10_n02504013_2974.png,n02504013_2974.png,1.0,3.484488,2.9946141,0.34639314
alexnet,1,124,NaN,clock,bicycle,128-10-10,0124_eid_dnn_128-10-10_bicycle_10_n03792782_7713.png,n03792782_7713.png,0.0,1.1690471,2.078047,-0.64276004
alexnet,1,125,NaN,clock,clock,16-10-10,0125_eid_dnn_16-10-10_clock_10_n04548280_9700.png,n04548280_9700.png,1.0,3.649286,2.5553174,0.77355266
alexnet,1,126,NaN,knife,bottle,16-10-10,0126_eid_dnn_16-10-10_bottle_10_n04591713_1174.png,n04591713_1174.png,0.0,-0.06819495,2.7050328,-1.9609681
alexnet,1,127,NaN,bear,bear,64-10-10,0127_eid_dnn_64-10-10_bear_10_n02134418_1395.png,n02134418_1395.png,1.0,4.9478564,3.080843,1.3201779
alexnet,1,128,NaN,bear,bottle,128-10-10,0128_eid_dnn_128-10-10_bottle_10_n04591713_36.png,n04591713_36.png,0.0,1.0045278,4.546548,-2.5045865
alexnet,1,129,NaN,bear,knife,8-10-10,0129_eid_dnn_8-10-10_knife_10_n03041632_21034.png,n03041632_21034.png,0.0,1.468774,4.5054317,-2.1472414
alexnet,1,130,NaN,bicycle,bicycle,1-10-10,0130_eid_dnn_1-10-10_bicycle_10_n03792782_11115.png,n03792782_11115.png,1.0,14.440405,2.393364,8.518544
alexnet,1,131,NaN,oven,truck,16-10-10,0131_eid_dnn_16-10-10_truck_10_n03417042_5381.png,n03417042_5381.png,0.0,2.5197566,2.863885,-0.24333552
alexnet,1,132,NaN,bear,boat,64-10-10,0132_eid_dnn_64-10-10_boat_10_n04612504_15258.png,n04612504_15258.png,0.0,0.210462,3.342765,-2.2148728
alexnet,1,133,NaN,boat,boat,2-10-10,0133_eid_dnn_2-10-10_boat_10_n03662601_11972.png,n03662601_11972.png,1.0,8.149313,4.2227674,2.776487
alexnet,1,134,NaN,bear,dog,64-10-10,0134_eid_dnn_64-10-10_dog_10_n02092002_11459.png,n02092002_11459.png,0.0,1.2915262,3.6572812,-1.6728414
alexnet,1,135,NaN,oven,clock,64-10-10,0135_eid_dnn_64-10-10_clock_10_n04548280_6605.png,n04548280_6605.png,0.0,2.2782967,3.2752619,-0.7049608
alexnet,1,136,NaN,bear,boat,64-10-10,0136_eid_dnn_64-10-10_boat_10_n03662601_5600.png,n03662601_5600.png,0.0,1.9690002,2.5477197,-0.4092165
alexnet,1,137,NaN,dog,bear,32-10-10,0137_eid_dnn_32-10-10_bear_10_n02134084_8153.png,n02134084_8153.png,0.0,0.79136944,1.651538,-0.60823107
alexnet,1,138,NaN,bear,cat,64-10-10,0138_eid_dnn_64-10-10_cat_10_n02124075_9225.png,n02124075_9225.png,0.0,1.0351554,3.4882011,-1.7345654
alexnet,1,139,NaN,oven,bicycle,8-10-10,0139_eid_dnn_8-10-10_bicycle_10_n03792782_3591.png,n03792782_3591.png,0.0,0.2059769,3.2350135,-2.1418524
alexnet,1,140,NaN,bear,dog,64-10-10,0140_eid_dnn_64-10-10_dog_10_n02107142_31661.png,n02107142_31661.png,0.0,2.124938,3.7688944,-1.1624527
alexnet,1,141,NaN,elephant,elephant,8-10-10,0141_eid_dnn_8-10-10_elephant_10_n02504458_651.png,n02504458_651.png,1.0,7.81544,6.0700026,1.2342108
alexnet,1,142,NaN,bear,dog,128-10-10,0142_eid_dnn_128-10-10_dog_10_n02110958_15217.png,n02110958_15217.png,0.0,1.5267864,3.7159047,-1.5479405
alexnet,1,143,NaN,oven,oven,4-10-10,0143_eid_dnn_4-10-10_oven_10_n04111531_523.png,n04111531_523.png,1.0,5.90495,4.501685,0.9922582
alexnet,1,144,NaN,car,car,4-10-10,0144_eid_dnn_4-10-10_car_10_n02814533_42884.png,n02814533_42884.png,1.0,8.533969,4.234417,3.0402424
alexnet,1,145,NaN,cat,car,64-10-10,0145_eid_dnn_64-10-10_car_10_n04285008_8017.png,n04285008_8017.png,0.0,-2.326944,2.7732966,-3.6064148
alexnet,1,146,NaN,boat,car,1-10-10,0146_eid_dnn_1-10-10_car_10_n03100240_16766.png,n03100240_16766.png,0.0,5.192869,6.058973,-0.6124278
alexnet,1,147,NaN,elephant,elephant,8-10-10,0147_eid_dnn_8-10-10_elephant_10_n02504458_4593.png,n02504458_4593.png,1.0,5.7940326,4.0387874,1.2411458
alexnet,1,148,NaN,dog,chair,64-10-10,0148_eid_dnn_64-10-10_chair_10_n02791124_1358.png,n02791124_1358.png,0.0,-1.132983,4.811905,-4.203671
alexnet,1,149,NaN,dog,dog,16-10-10,0149_eid_dnn_16-10-10_dog_10_n02095314_5363.png,n02095314_5363.png,1.0,3.1504307,1.5460118,1.1344955
alexnet,1,150,NaN,clock,clock,8-10-10,0150_eid_dnn_8-10-10_clock_10_n04548280_1413.png,n04548280_1413.png,1.0,5.305702,1.51818,2.6781828
alexnet,1,151,NaN,dog,dog,1-10-10,0151_eid_dnn_1-10-10_dog_10_n02105641_10948.png,n02105641_10948.png,1.0,6.405433,2.03275,3.0919542
alexnet,1,152,NaN,dog,dog,1-10-10,0152_eid_dnn_1-10-10_dog_10_n02113624_1691.png,n02113624_1691.png,1.0,5.582363,4.37522,0.8535792
alexnet,1,153,NaN,truck,car,4-10-10,0153_eid_dnn_4-10-10_car_10_n03100240_2235.png,n03100240_2235.png,0.0,9.022461,9.954273,-0.6588908
alexnet,1,154,NaN,oven,chair,2-10-10,0154_eid_dnn_2-10-10_chair_10_n04099969_56470.png,n04099969_56470.png,0.0,2.9246323,3.6387682,-0.5049703
alexnet,1,155,NaN,oven,oven,2-10-10,0155_eid_dnn_2-10-10_oven_10_n04111531_5429.png,n04111531_5429.png,1.0,6.426158,5.01365,0.998794
alexnet,1,156,NaN,bear,keyboard,64-10-10,0156_eid_dnn_64-10-10_keyboard_10_n03085013_19317.png,n03085013_19317.png,0.0,-3.7717037,4.3387885,-5.7349844
alexnet,1,157,NaN,bear,bird,64-10-10,0157_eid_dnn_64-10-10_bird_10_n01601694_19650.png,n01601694_19650.png,0.0,-1.5670228,2.6100264,-2.9536197
alexnet,1,158,NaN,elephant,clock,128-10-10,0158_eid_dnn_128-10-10_clock_10_n03196217_11199.png,n03196217_11199.png,0.0,-0.4269162,4.4354134,-3.4381862
alexnet,1,159,NaN,dog,bottle,32-10-10,0159_eid_dnn_32-10-10_bottle_10_n03937543_2209.png,n03937543_2209.png,0.0,1.0092758,2.5613635,-1.0974917
alexnet,1,160,NaN,cat,car,64-10-10,0160_eid_dnn_64-10-10_car_10_n03100240_16939.png,n03100240_16939.png,0.0,-3.1896155,2.8087838,-4.241509
alexnet,1,161,NaN,bottle,bottle,8-10-10,0161_eid_dnn_8-10-10_bottle_10_n04591713_2501.png,n04591713_2501.png,1.0,2.1903236,1.6830335,0.3587083
alexnet,1,162,NaN,airplane,airplane,16-10-10,0162_eid_dnn_16-10-10_airplane_10_n02690373_10395.png,n02690373_10395.png,1.0,7.4177856,3.6163375,2.6880298
alexnet,1,163,NaN,bear,oven,8-10-10,0163_eid_dnn_8-10-10_oven_10_n04111531_3286.png,n04111531_3286.png,0.0,1.3553464,3.0042574,-1.1659561
alexnet,1,164,NaN,oven,boat,64-10-10,0164_eid_dnn_64-10-10_boat_10_n04273569_13401.png,n04273569_13401.png,0.0,-0.31409842,3.8468108,-2.942207
alexnet,1,165,NaN,oven,elephant,64-10-10,0165_eid_dnn_64-10-10_elephant_10_n02504458_12776.png,n02504458_12776.png,0.0,2.4255686,3.3553305,-0.65744096
alexnet,1,166,NaN,airplane,bird,2-10-10,0166_eid_dnn_2-10-10_bird_10_n01828970_997.png,n01828970_997.png,0.0,3.1863122,4.987256,-1.2734597
alexnet,1,167,NaN,bear,bear,8-10-10,0167_eid_dnn_8-10-10_bear_10_n02132136_10318.png,n02132136_10318.png,1.0,4.719974,4.216183,0.35623392
alexnet,1,168,NaN,oven,oven,32-10-10,0168_eid_dnn_32-10-10_oven_10_n04111531_7883.png,n04111531_7883.png,1.0,5.0498104,3.4809499,1.109352
alexnet,1,169,NaN,clock,clock,128-10-10,0169_eid_dnn_128-10-10_clock_10_n02708093_725.png,n02708093_725.png,1.0,2.752304,2.2995098,0.32017395
alexnet,1,170,NaN,oven,bottle,16-10-10,0170_eid_dnn_16-10-10_bottle_10_n04557648_2052.png,n04557648_2052.png,0.0,-0.18575189,4.7419677,-3.484424
alexnet,1,171,NaN,cat,keyboard,32-10-10,0171_eid_dnn_32-10-10_keyboard_10_n04505470_5036.png,n04505470_5036.png,0.0,-0.70670563,2.4290047,-2.217282
alexnet,1,172,NaN,dog,elephant,8-10-10,0172_eid_dnn_8-10-10_elephant_10_n02504458_13352.png,n02504458_13352.png,0.0,4.172076,5.047274,-0.6188584
alexnet,1,173,NaN,chair,chair,4-10-10,0173_eid_dnn_4-10-10_chair_10_n04429376_30620.png,n04429376_30620.png,1.0,5.179398,3.3578227,1.2880484
alexnet,1,174,NaN,boat,boat,16-10-10,0174_eid_dnn_16-10-10_boat_10_n03662601_2980.png,n03662601_2980.png,1.0,4.623237,3.259756,0.9641267
alexnet,1,175,NaN,bottle,boat,8-10-10,0175_eid_dnn_8-10-10_boat_10_n03662601_4734.png,n03662601_4734.png,0.0,2.011973,2.5410025,-0.37408042
alexnet,1,176,NaN,bear,bear,2-10-10,0176_eid_dnn_2-10-10_bear_10_n02134418_4754.png,n02134418_4754.png,1.0,7.8446445,3.7668262,2.8834531
alexnet,1,177,NaN,elephant,elephant,2-10-10,0177_eid_dnn_2-10-10_elephant_10_n02504013_8522.png,n02504013_8522.png,1.0,10.76116,4.068203,4.7326355
alexnet,1,178,NaN,oven,bottle,64-10-10,0178_eid_dnn_64-10-10_bottle_10_n03937543_4863.png,n03937543_4863.png,0.0,1.7158216,3.8750505,-1.5268054
alexnet,1,179,NaN,bear,car,16-10-10,0179_eid_dnn_16-10-10_car_10_n04285008_10802.png,n04285008_10802.png,0.0,-2.4161184,3.2854133,-4.0315914
alexnet,1,180,NaN,oven,knife,64-10-10,0180_eid_dnn_64-10-10_knife_10_n03041632_6708.png,n03041632_6708.png,0.0,2.066887,4.074647,-1.4197007
alexnet,1,181,NaN,dog,dog,1-10-10,0181_eid_dnn_1-10-10_dog_10_n02107142_61109.png,n02107142_61109.png,1.0,4.884313,4.283578,0.42478395
alexnet,1,182,NaN,knife,clock,2-10-10,0182_eid_dnn_2-10-10_clock_10_n03196217_8139.png,n03196217_8139.png,0.0,3.3499439,4.4264526,-0.7612067
alexnet,1,183,NaN,elephant,elephant,1-10-10,0183_eid_dnn_1-10-10_elephant_10_n02504458_6611.png,n02504458_6611.png,1.0,16.556065,6.794989,6.902123
alexnet,1,184,NaN,truck,truck,64-10-10,0184_eid_dnn_64-10-10_truck_10_n04467665_4401.png,n04467665_4401.png,1.0,2.1045418,2.0365167,0.04810102
alexnet,1,185,NaN,boat,boat,4-10-10,0185_eid_dnn_4-10-10_boat_10_n03344393_732.png,n03344393_732.png,1.0,4.8362646,2.135476,1.9097459
alexnet,1,186,NaN,knife,knife,4-10-10,0186_eid_dnn_4-10-10_knife_10_n03041632_41381.png,n03041632_41381.png,1.0,5.521661,1.7991587,2.6322067
alexnet,1,187,NaN,oven,oven,32-10-10,0187_eid_dnn_32-10-10_oven_10_n04111531_22715.png,n04111531_22715.png,1.0,5.002033,3.1012506,1.3440562
alexnet,1,188,NaN,bear,cat,16-10-10,0188_eid_dnn_16-10-10_cat_10_n02123045_3568.png,n02123045_3568.png,0.0,1.5147686,2.4348745,-0.6506131
alexnet,1,189,NaN,truck,truck,2-10-10,0189_eid_dnn_2-10-10_truck_10_n03796401_18976.png,n03796401_18976.png,1.0,11.798988,7.230816,3.2301857
alexnet,1,190,NaN,oven,oven,8-10-10,0190_eid_dnn_8-10-10_oven_10_n04111531_15710.png,n04111531_15710.png,1.0,4.3306046,1.432736,2.0491025
alexnet,1,191,NaN,bear,elephant,32-10-10,0191_eid_dnn_32-10-10_elephant_10_n02504013_7232.png,n02504013_7232.png,0.0,0.711135,2.9759831,-1.6014895
alexnet,1,192,NaN,bottle,clock,64-10-10,0192_eid_dnn_64-10-10_clock_10_n02708093_5126.png,n02708093_5126.png,0.0,-0.5931081,2.4320378,-2.1391013
alexnet,1,193,NaN,bear,cat,32-10-10,0193_eid_dnn_32-10-10_cat_10_n02123159_1598.png,n02123159_1598.png,0.0,1.6806898,3.1733725,-1.0554861
alexnet,1,194,NaN,car,car,1-10-10,0194_eid_dnn_1-10-10_car_10_n04285008_1661.png,n04285008_1661.png,1.0,14.379605,10.562302,2.6992414
alexnet,1,195,NaN,clock,clock,2-10-10,0195_eid_dnn_2-10-10_clock_10_n02708093_5551.png,n02708093_5551.png,1.0,16.287836,7.5570855,6.1735735
alexnet,1,196,NaN,boat,airplane,128-10-10,0196_eid_dnn_128-10-10_airplane_10_n02690373_693.png,n02690373_693.png,0.0,1.4294543,2.0049734,-0.40695345
alexnet,1,197,NaN,elephant,elephant,2-10-10,0197_eid_dnn_2-10-10_elephant_10_n02504013_3409.png,n02504013_3409.png,1.0,9.285004,1.7764004,5.3093843
alexnet,1,198,NaN,knife,dog,64-10-10,0198_eid_dnn_64-10-10_dog_10_n02113712_8182.png,n02113712_8182.png,0.0,2.3898299,4.303574,-1.3532215
alexnet,1,199,NaN,bottle,bottle,1-10-10,0199_eid_dnn_1-10-10_bottle_10_n03983396_8322.png,n03983396_8322.png,1.0,10.262612,3.1626866,5.020406
alexnet,1,200,NaN,oven,keyboard,64-10-10,0200_eid_dnn_64-10-10_keyboard_10_n04505470_1040.png,n04505470_1040.png,0.0,-2.6120768,3.9394274,-4.632613
alexnet,1,201,NaN,bear,oven,32-10-10,0201_eid_dnn_32-10-10_oven_10_n04111531_11230.png,n04111531_11230.png,0.0,1.2792958,2.3420308,-0.7514671
alexnet,1,202,NaN,cat,cat,1-10-10,0202_eid_dnn_1-10-10_cat_10_n02123394_6269.png,n02123394_6269.png,1.0,5.0173564,3.214788,1.2746084
alexnet,1,203,NaN,elephant,elephant,2-10-10,0203_eid_dnn_2-10-10_elephant_10_n02504013_2075.png,n02504013_2075.png,1.0,6.97269,2.4423535,3.2034316
alexnet,1,204,NaN,bear,bear,1-10-10,0204_eid_dnn_1-10-10_bear_10_n02133161_3795.png,n02133161_3795.png,1.0,4.6834536,2.3975108,1.6164057
alexnet,1,205,NaN,airplane,oven,2-10-10,0205_eid_dnn_2-10-10_oven_10_n04111531_4322.png,n04111531_4322.png,0.0,5.578536,5.963695,-0.27234855
alexnet,1,206,NaN,keyboard,bottle,4-10-10,0206_eid_dnn_4-10-10_bottle_10_n03937543_5799.png,n03937543_5799.png,0.0,4.414623,6.683242,-1.6041559
alexnet,1,207,NaN,keyboard,keyboard,8-10-10,0207_eid_dnn_8-10-10_keyboard_10_n04505470_4414.png,n04505470_4414.png,1.0,6.72548,2.5441704,2.9566324
alexnet,1,208,NaN,dog,dog,4-10-10,0208_eid_dnn_4-10-10_dog_10_n02091032_8315.png,n02091032_8315.png,1.0,5.326847,4.146668,0.83451265
alexnet,1,209,NaN,knife,knife,2-10-10,0209_eid_dnn_2-10-10_knife_10_n03041632_39952.png,n03041632_39952.png,1.0,8.524561,2.1248798,4.525258
alexnet,1,210,NaN,knife,chair,8-10-10,0210_eid_dnn_8-10-10_chair_10_n02791124_634.png,n02791124_634.png,0.0,1.988121,3.165741,-0.83270305
alexnet,1,211,NaN,boat,boat,32-10-10,0211_eid_dnn_32-10-10_boat_10_n03344393_3355.png,n03344393_3355.png,1.0,2.2169688,2.1140037,0.072807334
alexnet,1,212,NaN,elephant,dog,32-10-10,0212_eid_dnn_32-10-10_dog_10_n02102040_7188.png,n02102040_7188.png,0.0,0.42442104,2.808985,-1.6861414
alexnet,1,213,NaN,chair,chair,2-10-10,0213_eid_dnn_2-10-10_chair_10_n02791124_8711.png,n02791124_8711.png,1.0,4.016912,3.5391922,0.3377989
alexnet,1,214,NaN,clock,bear,64-10-10,0214_eid_dnn_64-10-10_bear_10_n02132136_6002.png,n02132136_6002.png,0.0,0.9907973,2.0027463,-0.7155561
alexnet,1,215,NaN,bicycle,boat,4-10-10,0215_eid_dnn_4-10-10_boat_10_n02951358_30184.png,n02951358_30184.png,0.0,2.6397054,5.194362,-1.8064151
alexnet,1,216,NaN,oven,bottle,128-10-10,0216_eid_dnn_128-10-10_bottle_10_n02823428_3414.png,n02823428_3414.png,0.0,1.2379879,2.944348,-1.2065789
alexnet,1,217,NaN,truck,truck,4-10-10,0217_eid_dnn_4-10-10_truck_10_n04467665_13231.png,n04467665_13231.png,1.0,4.8453455,4.6683617,0.12514646
alexnet,1,218,NaN,chair,chair,4-10-10,0218_eid_dnn_4-10-10_chair_10_n04099969_8063.png,n04099969_8063.png,1.0,5.3555894,3.376445,1.3994664
alexnet,1,219,NaN,bird,bird,4-10-10,0219_eid_dnn_4-10-10_bird_10_n01534433_10234.png,n01534433_10234.png,1.0,1.8278571,1.5339292,0.20783842
alexnet,1,220,NaN,bear,elephant,4-10-10,0220_eid_dnn_4-10-10_elephant_10_n02504013_12533.png,n02504013_12533.png,0.0,4.3609633,4.731825,-0.2622387
alexnet,1,221,NaN,dog,knife,16-10-10,0221_eid_dnn_16-10-10_knife_10_n03041632_18995.png,n03041632_18995.png,0.0,1.4870017,1.6023216,-0.081543535
alexnet,1,222,NaN,dog,chair,32-10-10,0222_eid_dnn_32-10-10_chair_10_n04429376_7123.png,n04429376_7123.png,0.0,0.9263016,2.0900822,-0.82291716
alexnet,1,223,NaN,oven,clock,64-10-10,0223_eid_dnn_64-10-10_clock_10_n03196217_9065.png,n03196217_9065.png,0.0,2.4138074,4.151949,-1.2290517
alexnet,1,224,NaN,cat,dog,4-10-10,0224_eid_dnn_4-10-10_dog_10_n02086079_4143.png,n02086079_4143.png,0.0,3.5206409,7.276755,-2.6559737
alexnet,1,225,NaN,bear,bear,4-10-10,0225_eid_dnn_4-10-10_bear_10_n02132136_20162.png,n02132136_20162.png,1.0,6.03203,3.4664435,1.8141437
alexnet,1,226,NaN,bottle,bottle,1-10-10,0226_eid_dnn_1-10-10_bottle_10_n03983396_4165.png,n03983396_4165.png,1.0,4.1757936,3.768545,0.28796834
alexnet,1,227,NaN,bear,bird,4-10-10,0227_eid_dnn_4-10-10_bird_10_n01824575_4470.png,n01824575_4470.png,0.0,2.7268982,3.1369176,-0.2899275
alexnet,1,228,NaN,bear,oven,64-10-10,0228_eid_dnn_64-10-10_oven_10_n04111531_9695.png,n04111531_9695.png,0.0,1.6377611,2.9546704,-0.9311955
alexnet,1,229,NaN,bear,bottle,64-10-10,0229_eid_dnn_64-10-10_bottle_10_n02823428_23181.png,n02823428_23181.png,0.0,2.3461819,6.3767037,-2.8500094
alexnet,1,230,NaN,bicycle,bicycle,2-10-10,0230_eid_dnn_2-10-10_bicycle_10_n02835271_13674.png,n02835271_13674.png,1.0,12.150588,3.4311514,6.165573
alexnet,1,231,NaN,chair,chair,2-10-10,0231_eid_dnn_2-10-10_chair_10_n04429376_55747.png,n04429376_55747.png,1.0,6.2030845,4.411634,1.2667468
alexnet,1,232,NaN,keyboard,boat,32-10-10,0232_eid_dnn_32-10-10_boat_10_n02951358_8346.png,n02951358_8346.png,0.0,-2.3869996,2.4997098,-3.4554253
alexnet,1,233,NaN,bear,elephant,16-10-10,0233_eid_dnn_16-10-10_elephant_10_n02504013_1088.png,n02504013_1088.png,0.0,2.9078226,4.8342743,-1.362207
alexnet,1,234,NaN,knife,car,8-10-10,0234_eid_dnn_8-10-10_car_10_n03100240_11191.png,n03100240_11191.png,0.0,-0.6357112,3.0011005,-2.5716143
alexnet,1,235,NaN,dog,chair,8-10-10,0235_eid_dnn_8-10-10_chair_10_n04099969_19966.png,n04099969_19966.png,0.0,4.056613,5.163864,-0.7829448
alexnet,1,236,NaN,bear,bicycle,32-10-10,0236_eid_dnn_32-10-10_bicycle_10_n03792782_15016.png,n03792782_15016.png,0.0,-1.5480746,2.2545593,-2.6888683
alexnet,1,237,NaN,cat,boat,128-10-10,0237_eid_dnn_128-10-10_boat_10_n02951358_17867.png,n02951358_17867.png,0.0,-1.5564314,3.2452736,-3.395318
alexnet,1,238,NaN,cat,cat,2-10-10,0238_eid_dnn_2-10-10_cat_10_n02123045_2364.png,n02123045_2364.png,1.0,8.600569,3.0747905,3.9073153
alexnet,1,239,NaN,bear,bear,2-10-10,0239_eid_dnn_2-10-10_bear_10_n02132136_9433.png,n02132136_9433.png,1.0,6.87481,5.0694585,1.2765765
alexnet,1,240,NaN,knife,clock,32-10-10,0240_eid_dnn_32-10-10_clock_10_n03196217_3167.png,n03196217_3167.png,0.0,0.50733507,2.6568046,-1.5199044
alexnet,1,241,NaN,keyboard,clock,32-10-10,0241_eid_dnn_32-10-10_clock_10_n03196217_3129.png,n03196217_3129.png,0.0,0.4036626,2.0119658,-1.1372421
alexnet,1,242,NaN,bicycle,keyboard,128-10-10,0242_eid_dnn_128-10-10_keyboard_10_n03085013_6067.png,n03085013_6067.png,0.0,-4.2873716,1.994046,-4.441633
alexnet,1,243,NaN,keyboard,keyboard,2-10-10,0243_eid_dnn_2-10-10_keyboard_10_n03085013_24648.png,n03085013_24648.png,1.0,13.864864,5.426509,5.9668183
alexnet,1,244,NaN,bear,oven,32-10-10,0244_eid_dnn_32-10-10_oven_10_n04111531_6695.png,n04111531_6695.png,0.0,4.5344033,4.6503267,-0.08197023
alexnet,1,245,NaN,dog,dog,4-10-10,0245_eid_dnn_4-10-10_dog_10_n02111500_4875.png,n02111500_4875.png,1.0,4.401167,2.889408,1.068975
alexnet,1,246,NaN,oven,oven,32-10-10,0246_eid_dnn_32-10-10_oven_10_n04111531_13018.png,n04111531_13018.png,1.0,3.767573,2.2619627,1.0646274
alexnet,1,247,NaN,cat,keyboard,128-10-10,0247_eid_dnn_128-10-10_keyboard_10_n03085013_23030.png,n03085013_23030.png,0.0,-1.534903,4.258242,-4.096372
alexnet,1,248,NaN,dog,cat,8-10-10,0248_eid_dnn_8-10-10_cat_10_n02123045_8409.png,n02123045_8409.png,0.0,1.5486788,4.293334,-1.9407643
alexnet,1,249,NaN,bicycle,bicycle,4-10-10,0249_eid_dnn_4-10-10_bicycle_10_n03792782_37777.png,n03792782_37777.png,1.0,9.839715,1.4695104,5.9186287
alexnet,1,250,NaN,bear,airplane,64-10-10,0250_eid_dnn_64-10-10_airplane_10_n02690373_614.png,n02690373_614.png,0.0,-1.299236,2.6763353,-2.8111537
alexnet,1,251,NaN,clock,keyboard,128-10-10,0251_eid_dnn_128-10-10_keyboard_10_n03085013_19775.png,n03085013_19775.png,0.0,-0.8513808,2.1581848,-2.1280842
alexnet,1,252,NaN,bear,bear,8-10-10,0252_eid_dnn_8-10-10_bear_10_n02133161_1244.png,n02133161_1244.png,1.0,7.1281056,5.9279823,0.84861535
alexnet,1,253,NaN,keyboard,keyboard,2-10-10,0253_eid_dnn_2-10-10_keyboard_10_n04505470_4368.png,n04505470_4368.png,1.0,10.616671,7.2830787,2.3572054
alexnet,1,254,NaN,oven,oven,2-10-10,0254_eid_dnn_2-10-10_oven_10_n04111531_7728.png,n04111531_7728.png,1.0,7.9277782,3.4365215,3.1757982
alexnet,1,255,NaN,oven,clock,8-10-10,0255_eid_dnn_8-10-10_clock_10_n04548280_1.png,n04548280_1.png,0.0,-0.5810011,4.3506546,-3.4872074
alexnet,1,256,NaN,oven,cat,64-10-10,0256_eid_dnn_64-10-10_cat_10_n02123394_3062.png,n02123394_3062.png,0.0,1.1239647,3.8465657,-1.9251696
alexnet,1,257,NaN,elephant,elephant,2-10-10,0257_eid_dnn_2-10-10_elephant_10_n02504013_466.png,n02504013_466.png,1.0,8.776925,2.4473546,4.4756823
alexnet,1,258,NaN,elephant,elephant,1-10-10,0258_eid_dnn_1-10-10_elephant_10_n02504013_6275.png,n02504013_6275.png,1.0,7.279582,3.4949012,2.6761734
alexnet,1,259,NaN,bicycle,bird,4-10-10,0259_eid_dnn_4-10-10_bird_10_n01560419_5466.png,n01560419_5466.png,0.0,0.6982822,2.6785803,-1.4002821
alexnet,1,260,NaN,dog,truck,8-10-10,0260_eid_dnn_8-10-10_truck_10_n03796401_5227.png,n03796401_5227.png,0.0,0.3572708,2.7819567,-1.7145119
alexnet,1,261,NaN,chair,chair,2-10-10,0261_eid_dnn_2-10-10_chair_10_n04099969_25124.png,n04099969_25124.png,1.0,5.9938555,4.234914,1.2437596
alexnet,1,262,NaN,bicycle,elephant,64-10-10,0262_eid_dnn_64-10-10_elephant_10_n02504013_7209.png,n02504013_7209.png,0.0,2.1395268,4.15366,-1.4242071
alexnet,1,263,NaN,cat,cat,1-10-10,0263_eid_dnn_1-10-10_cat_10_n02123597_4756.png,n02123597_4756.png,1.0,4.2115564,4.0423765,0.119628266
alexnet,1,264,NaN,bicycle,bicycle,16-10-10,0264_eid_dnn_16-10-10_bicycle_10_n02835271_4654.png,n02835271_4654.png,1.0,1.7047441,1.0373821,0.47189617
alexnet,1,265,NaN,keyboard,keyboard,1-10-10,0265_eid_dnn_1-10-10_keyboard_10_n04505470_2389.png,n04505470_2389.png,1.0,13.849546,7.326166,4.6127267
alexnet,1,266,NaN,oven,knife,128-10-10,0266_eid_dnn_128-10-10_knife_10_n03041632_379.png,n03041632_379.png,0.0,3.0320456,3.7232327,-0.48874313
alexnet,1,267,NaN,bicycle,clock,8-10-10,0267_eid_dnn_8-10-10_clock_10_n02708093_899.png,n02708093_899.png,0.0,1.698721,2.3234582,-0.4417559
alexnet,1,268,NaN,bear,truck,128-10-10,0268_eid_dnn_128-10-10_truck_10_n03417042_10154.png,n03417042_10154.png,0.0,-1.5688163,2.271873,-2.7157774
alexnet,1,269,NaN,bottle,bottle,2-10-10,0269_eid_dnn_2-10-10_bottle_10_n04579145_3415.png,n04579145_3415.png,1.0,6.2552714,2.6085145,2.5786467
alexnet,1,270,NaN,bear,chair,16-10-10,0270_eid_dnn_16-10-10_chair_10_n02791124_146.png,n02791124_146.png,0.0,1.2806053,4.4493246,-2.240623
alexnet,1,271,NaN,bear,elephant,128-10-10,0271_eid_dnn_128-10-10_elephant_10_n02504458_2835.png,n02504458_2835.png,0.0,2.5731332,2.7892678,-0.15283021
alexnet,1,272,NaN,bicycle,bicycle,1-10-10,0272_eid_dnn_1-10-10_bicycle_10_n03792782_13835.png,n03792782_13835.png,1.0,3.772961,2.5960288,0.8322167
alexnet,1,273,NaN,bear,bicycle,32-10-10,0273_eid_dnn_32-10-10_bicycle_10_n02835271_12926.png,n02835271_12926.png,0.0,1.7063274,2.6361268,-0.6574674
alexnet,1,274,NaN,dog,dog,2-10-10,0274_eid_dnn_2-10-10_dog_10_n02110185_11605.png,n02110185_11605.png,1.0,5.2394977,3.5846882,1.170127
alexnet,1,275,NaN,bear,elephant,128-10-10,0275_eid_dnn_128-10-10_elephant_10_n02504458_3091.png,n02504458_3091.png,0.0,2.923849,3.4982123,-0.40613616
alexnet,1,276,NaN,elephant,chair,128-10-10,0276_eid_dnn_128-10-10_chair_10_n04099969_5233.png,n04099969_5233.png,0.0,1.155259,3.164143,-1.4204955
alexnet,1,277,NaN,dog,dog,2-10-10,0277_eid_dnn_2-10-10_dog_10_n02097209_7628.png,n02097209_7628.png,1.0,5.133806,0.91480106,2.983287
alexnet,1,278,NaN,cat,cat,8-10-10,0278_eid_dnn_8-10-10_cat_10_n02123597_10941.png,n02123597_10941.png,1.0,5.1423335,4.7953806,0.24533276
alexnet,1,279,NaN,bear,clock,16-10-10,0279_eid_dnn_16-10-10_clock_10_n02708093_3006.png,n02708093_3006.png,0.0,0.013649523,4.0158896,-2.8300111
alexnet,1,280,NaN,truck,truck,1-10-10,0280_eid_dnn_1-10-10_truck_10_n03796401_26620.png,n03796401_26620.png,1.0,8.142706,4.072043,2.8783934
alexnet,1,281,NaN,bear,bear,128-10-10,0281_eid_dnn_128-10-10_bear_10_n02134418_12733.png,n02134418_12733.png,1.0,3.3907747,3.3792372,0.008158281
alexnet,1,282,NaN,keyboard,knife,2-10-10,0282_eid_dnn_2-10-10_knife_10_n03041632_4806.png,n03041632_4806.png,0.0,5.897155,6.7924943,-0.6331006
alexnet,1,283,NaN,oven,oven,4-10-10,0283_eid_dnn_4-10-10_oven_10_n04111531_17922.png,n04111531_17922.png,1.0,6.638032,3.6685264,2.0997574
alexnet,1,284,NaN,bottle,bottle,1-10-10,0284_eid_dnn_1-10-10_bottle_10_n04579145_6818.png,n04579145_6818.png,1.0,9.462746,1.9980707,5.278322
alexnet,1,285,NaN,keyboard,keyboard,4-10-10,0285_eid_dnn_4-10-10_keyboard_10_n04505470_494.png,n04505470_494.png,1.0,9.2114315,2.9944038,4.3961024
alexnet,1,286,NaN,cat,cat,8-10-10,0286_eid_dnn_8-10-10_cat_10_n02123045_10834.png,n02123045_10834.png,1.0,4.3824286,4.103855,0.19698122
alexnet,1,287,NaN,oven,cat,128-10-10,0287_eid_dnn_128-10-10_cat_10_n02123394_176.png,n02123394_176.png,0.0,2.5218115,3.3670645,-0.59768414
alexnet,1,288,NaN,elephant,chair,128-10-10,0288_eid_dnn_128-10-10_chair_10_n03376595_2891.png,n03376595_2891.png,0.0,-0.30321255,2.5547838,-2.0209088
alexnet,1,289,NaN,dog,dog,8-10-10,0289_eid_dnn_8-10-10_dog_10_n02093256_5647.png,n02093256_5647.png,1.0,4.067396,3.33181,0.52013797
alexnet,1,290,NaN,bear,knife,64-10-10,0290_eid_dnn_64-10-10_knife_10_n03041632_33326.png,n03041632_33326.png,0.0,1.4617542,4.2204633,-1.9507018
alexnet,1,291,NaN,airplane,airplane,8-10-10,0291_eid_dnn_8-10-10_airplane_10_n02690373_2856.png,n02690373_2856.png,1.0,7.153056,4.4260116,1.9283117
alexnet,1,292,NaN,oven,bicycle,128-10-10,0292_eid_dnn_128-10-10_bicycle_10_n03792782_9651.png,n03792782_9651.png,0.0,1.692035,2.38062,-0.48690316
alexnet,1,293,NaN,bicycle,bicycle,2-10-10,0293_eid_dnn_2-10-10_bicycle_10_n02835271_7438.png,n02835271_7438.png,1.0,4.1866436,1.9114314,1.608818
alexnet,1,294,NaN,bear,bicycle,128-10-10,0294_eid_dnn_128-10-10_bicycle_10_n02835271_26639.png,n02835271_26639.png,0.0,1.086498,2.5329618,-1.0228044
alexnet,1,295,NaN,keyboard,keyboard,8-10-10,0295_eid_dnn_8-10-10_keyboard_10_n04505470_4458.png,n04505470_4458.png,1.0,7.8329782,2.2674227,3.9354422
alexnet,1,296,NaN,oven,dog,64-10-10,0296_eid_dnn_64-10-10_dog_10_n02106662_24847.png,n02106662_24847.png,0.0,1.338734,3.8203921,-1.7547972
alexnet,1,297,NaN,oven,chair,32-10-10,0297_eid_dnn_32-10-10_chair_10_n03376595_8995.png,n03376595_8995.png,0.0,1.2726483,2.6038337,-0.9412902
alexnet,1,298,NaN,oven,bicycle,64-10-10,0298_eid_dnn_64-10-10_bicycle_10_n03792782_6030.png,n03792782_6030.png,0.0,0.9424827,2.7753844,-1.2960572
alexnet,1,299,NaN,elephant,elephant,4-10-10,0299_eid_dnn_4-10-10_elephant_10_n02504458_7258.png,n02504458_7258.png,1.0,10.892141,5.65559,3.702801
alexnet,1,300,NaN,dog,boat,128-10-10,0300_eid_dnn_128-10-10_boat_10_n03662601_23903.png,n03662601_23903.png,0.0,-0.19247952,2.3537073,-1.8004261
alexnet,1,301,NaN,bear,bird,16-10-10,0301_eid_dnn_16-10-10_bird_10_n02002724_578.png,n02002724_578.png,0.0,-1.80988,2.7064078,-3.193498
alexnet,1,302,NaN,bear,chair,64-10-10,0302_eid_dnn_64-10-10_chair_10_n03376595_2393.png,n03376595_2393.png,0.0,0.9427349,2.2299252,-0.9101809
alexnet,1,303,NaN,boat,boat,16-10-10,0303_eid_dnn_16-10-10_boat_10_n03662601_5118.png,n03662601_5118.png,1.0,3.607715,3.4787054,0.091223486
alexnet,1,304,NaN,elephant,chair,8-10-10,0304_eid_dnn_8-10-10_chair_10_n04429376_21845.png,n04429376_21845.png,0.0,2.0754085,3.1282482,-0.7444701
alexnet,1,305,NaN,dog,dog,8-10-10,0305_eid_dnn_8-10-10_dog_10_n02102040_2216.png,n02102040_2216.png,1.0,3.626255,1.6918521,1.3678294
alexnet,1,306,NaN,airplane,airplane,8-10-10,0306_eid_dnn_8-10-10_airplane_10_n02690373_3032.png,n02690373_3032.png,1.0,6.0460873,3.9195392,1.5036966
alexnet,1,307,NaN,dog,dog,8-10-10,0307_eid_dnn_8-10-10_dog_10_n02100735_2228.png,n02100735_2228.png,1.0,3.9412663,2.466357,1.0429184
alexnet,1,308,NaN,oven,bird,8-10-10,0308_eid_dnn_8-10-10_bird_10_n01532829_13864.png,n01532829_13864.png,0.0,-0.009883698,4.4917164,-3.1831121
alexnet,1,309,NaN,bottle,bird,64-10-10,0309_eid_dnn_64-10-10_bird_10_n01601694_13787.png,n01601694_13787.png,0.0,-1.8114805,2.8845048,-3.320563
alexnet,1,310,NaN,cat,bear,64-10-10,0310_eid_dnn_64-10-10_bear_10_n02134084_22150.png,n02134084_22150.png,0.0,1.8831415,2.1567762,-0.19348894
alexnet,1,311,NaN,oven,knife,16-10-10,0311_eid_dnn_16-10-10_knife_10_n03041632_29427.png,n03041632_29427.png,0.0,0.8619162,3.1235266,-1.5992001
alexnet,1,312,NaN,chair,chair,4-10-10,0312_eid_dnn_4-10-10_chair_10_n02791124_2804.png,n02791124_2804.png,1.0,3.5625958,2.638511,0.6534267
alexnet,1,313,NaN,bottle,bottle,4-10-10,0313_eid_dnn_4-10-10_bottle_10_n04591713_5046.png,n04591713_5046.png,1.0,10.815213,8.134296,1.8956945
alexnet,1,314,NaN,elephant,bicycle,128-10-10,0314_eid_dnn_128-10-10_bicycle_10_n03792782_4210.png,n03792782_4210.png,0.0,1.5840421,2.281763,-0.49336326
alexnet,1,315,NaN,bear,cat,128-10-10,0315_eid_dnn_128-10-10_cat_10_n02123159_1596.png,n02123159_1596.png,0.0,2.7395637,3.6535573,-0.6462911
alexnet,1,316,NaN,car,car,2-10-10,0316_eid_dnn_2-10-10_car_10_n03100240_17588.png,n03100240_17588.png,1.0,10.924514,8.974007,1.3792169
alexnet,1,317,NaN,dog,keyboard,4-10-10,0317_eid_dnn_4-10-10_keyboard_10_n03085013_23295.png,n03085013_23295.png,0.0,-0.1763494,4.5338044,-3.3305817
alexnet,1,318,NaN,bear,oven,32-10-10,0318_eid_dnn_32-10-10_oven_10_n04111531_4879.png,n04111531_4879.png,0.0,3.612441,4.8777294,-0.894694
alexnet,1,319,NaN,bear,keyboard,32-10-10,0319_eid_dnn_32-10-10_keyboard_10_n04505470_4569.png,n04505470_4569.png,0.0,-2.671485,3.4097567,-4.3000875
alexnet,1,320,NaN,elephant,truck,8-10-10,0320_eid_dnn_8-10-10_truck_10_n04467665_24190.png,n04467665_24190.png,0.0,0.73160255,3.877319,-2.2243576
alexnet,1,321,NaN,cat,cat,4-10-10,0321_eid_dnn_4-10-10_cat_10_n02124075_15405.png,n02124075_15405.png,1.0,4.8611526,3.9124103,0.6708622
alexnet,1,322,NaN,knife,knife,8-10-10,0322_eid_dnn_8-10-10_knife_10_n03041632_24817.png,n03041632_24817.png,1.0,5.6337266,2.9952624,1.8656759
alexnet,1,323,NaN,bear,elephant,64-10-10,0323_eid_dnn_64-10-10_elephant_10_n02504013_5505.png,n02504013_5505.png,0.0,0.47215602,3.64393,-2.2427828
alexnet,1,324,NaN,airplane,airplane,8-10-10,0324_eid_dnn_8-10-10_airplane_10_n02690373_8846.png,n02690373_8846.png,1.0,6.5792694,4.3864365,1.550567
alexnet,1,325,NaN,oven,truck,32-10-10,0325_eid_dnn_32-10-10_truck_10_n04467665_50806.png,n04467665_50806.png,0.0,1.4870112,2.5453095,-0.74832994
alexnet,1,326,NaN,elephant,elephant,4-10-10,0326_eid_dnn_4-10-10_elephant_10_n02504458_5539.png,n02504458_5539.png,1.0,12.47562,5.569838,4.8831253
alexnet,1,327,NaN,boat,boat,1-10-10,0327_eid_dnn_1-10-10_boat_10_n03344393_1178.png,n03344393_1178.png,1.0,6.6484466,6.232488,0.29412702
alexnet,1,328,NaN,truck,truck,4-10-10,0328_eid_dnn_4-10-10_truck_10_n04467665_10025.png,n04467665_10025.png,1.0,13.321323,8.021031,3.7478726
alexnet,1,329,NaN,clock,clock,4-10-10,0329_eid_dnn_4-10-10_clock_10_n02708093_2869.png,n02708093_2869.png,1.0,9.807268,3.436824,4.5045843
alexnet,1,330,NaN,chair,bottle,8-10-10,0330_eid_dnn_8-10-10_bottle_10_n03983396_4879.png,n03983396_4879.png,0.0,0.6344246,2.7220957,-1.4762064
alexnet,1,331,NaN,oven,keyboard,128-10-10,0331_eid_dnn_128-10-10_keyboard_10_n03085013_10367.png,n03085013_10367.png,0.0,-4.155097,2.6212995,-4.791636
alexnet,1,332,NaN,bear,bird,64-10-10,0332_eid_dnn_64-10-10_bird_10_n01860187_21300.png,n01860187_21300.png,0.0,-2.2622883,2.3689437,-3.2747757
alexnet,1,333,NaN,oven,knife,32-10-10,0333_eid_dnn_32-10-10_knife_10_n03041632_5302.png,n03041632_5302.png,0.0,2.7266963,2.7779388,-0.036233984
alexnet,1,334,NaN,bear,bear,4-10-10,0334_eid_dnn_4-10-10_bear_10_n02134084_5274.png,n02134084_5274.png,1.0,3.716868,3.149863,0.40093303
alexnet,1,335,NaN,knife,knife,4-10-10,0335_eid_dnn_4-10-10_knife_10_n03041632_48816.png,n03041632_48816.png,1.0,3.5304897,1.6241254,1.3480031
alexnet,1,336,NaN,oven,elephant,16-10-10,0336_eid_dnn_16-10-10_elephant_10_n02504013_3295.png,n02504013_3295.png,0.0,-0.94217366,3.729057,-3.303059
alexnet,1,337,NaN,bottle,truck,128-10-10,0337_eid_dnn_128-10-10_truck_10_n03417042_2478.png,n03417042_2478.png,0.0,-1.1615787,2.6601923,-2.7024002
alexnet,1,338,NaN,bear,oven,32-10-10,0338_eid_dnn_32-10-10_oven_10_n04111531_5350.png,n04111531_5350.png,0.0,2.271387,2.7809706,-0.36032993
alexnet,1,339,NaN,airplane,airplane,8-10-10,0339_eid_dnn_8-10-10_airplane_10_n02690373_1663.png,n02690373_1663.png,1.0,5.734247,2.1518102,2.5331655
alexnet,1,340,NaN,boat,boat,4-10-10,0340_eid_dnn_4-10-10_boat_10_n03344393_1422.png,n03344393_1422.png,1.0,5.350751,3.343894,1.4190621
alexnet,1,341,NaN,cat,cat,32-10-10,0341_eid_dnn_32-10-10_cat_10_n02123159_3312.png,n02123159_3312.png,1.0,3.5496,3.0444336,0.35720652
alexnet,1,342,NaN,dog,chair,64-10-10,0342_eid_dnn_64-10-10_chair_10_n03376595_6171.png,n03376595_6171.png,0.0,-0.34625134,2.1658344,-1.7763128
alexnet,1,343,NaN,dog,bottle,8-10-10,0343_eid_dnn_8-10-10_bottle_10_n04591713_1616.png,n04591713_1616.png,0.0,1.3220061,1.8822092,-0.3961234
alexnet,1,344,NaN,bear,bear,128-10-10,0344_eid_dnn_128-10-10_bear_10_n02133161_1197.png,n02133161_1197.png,1.0,5.7893724,2.985244,1.9828182
alexnet,1,345,NaN,chair,truck,4-10-10,0345_eid_dnn_4-10-10_truck_10_n04467665_663.png,n04467665_663.png,0.0,2.6652532,3.9403577,-0.90163505
alexnet,1,346,NaN,bear,bear,4-10-10,0346_eid_dnn_4-10-10_bear_10_n02132136_2771.png,n02132136_2771.png,1.0,13.315174,6.0369773,5.1464624
alexnet,1,347,NaN,airplane,cat,16-10-10,0347_eid_dnn_16-10-10_cat_10_n02123394_12.png,n02123394_12.png,0.0,1.9787146,2.7580805,-0.55109495
alexnet,1,348,NaN,dog,car,8-10-10,0348_eid_dnn_8-10-10_car_10_n04285008_1795.png,n04285008_1795.png,0.0,-0.3397719,2.6580455,-2.1197772
alexnet,1,349,NaN,boat,boat,4-10-10,0349_eid_dnn_4-10-10_boat_10_n04273569_1023.png,n04273569_1023.png,1.0,3.332323,3.1290965,0.14370288
alexnet,1,350,NaN,boat,boat,1-10-10,0350_eid_dnn_1-10-10_boat_10_n03662601_21775.png,n03662601_21775.png,1.0,13.602953,7.5936317,4.249232
alexnet,1,351,NaN,clock,clock,1-10-10,0351_eid_dnn_1-10-10_clock_10_n03196217_71.png,n03196217_71.png,1.0,8.445071,6.106529,1.6535989
alexnet,1,352,NaN,keyboard,keyboard,4-10-10,0352_eid_dnn_4-10-10_keyboard_10_n04505470_3122.png,n04505470_3122.png,1.0,9.384978,3.7696445,3.9706404
alexnet,1,353,NaN,oven,dog,32-10-10,0353_eid_dnn_32-10-10_dog_10_n02099849_4640.png,n02099849_4640.png,0.0,0.682819,3.6461844,-2.0954158
alexnet,1,354,NaN,bear,bottle,64-10-10,0354_eid_dnn_64-10-10_bottle_10_n02823428_6418.png,n02823428_6418.png,0.0,2.0722384,2.9127328,-0.5943193
alexnet,1,355,NaN,oven,car,8-10-10,0355_eid_dnn_8-10-10_car_10_n04285008_11704.png,n04285008_11704.png,0.0,-0.46726942,2.0290067,-1.7651339
alexnet,1,356,NaN,bottle,clock,32-10-10,0356_eid_dnn_32-10-10_clock_10_n02708093_3544.png,n02708093_3544.png,0.0,3.0229838,4.9212337,-1.3422654
alexnet,1,357,NaN,knife,clock,8-10-10,0357_eid_dnn_8-10-10_clock_10_n04548280_4599.png,n04548280_4599.png,0.0,0.38341835,2.8244033,-1.726037
alexnet,1,358,NaN,cat,car,128-10-10,0358_eid_dnn_128-10-10_car_10_n03100240_6259.png,n03100240_6259.png,0.0,-3.3549614,4.308271,-5.4187236
alexnet,1,359,NaN,boat,boat,8-10-10,0359_eid_dnn_8-10-10_boat_10_n04273569_3401.png,n04273569_3401.png,1.0,5.967442,3.4957457,1.7477533
alexnet,1,360,NaN,bear,truck,64-10-10,0360_eid_dnn_64-10-10_truck_10_n04467665_13898.png,n04467665_13898.png,0.0,1.6395805,2.9209294,-0.90605056
alexnet,1,361,NaN,clock,clock,2-10-10,0361_eid_dnn_2-10-10_clock_10_n03196217_1499.png,n03196217_1499.png,1.0,7.1137605,5.53336,1.1175119
alexnet,1,362,NaN,truck,car,4-10-10,0362_eid_dnn_4-10-10_car_10_n03100240_8702.png,n03100240_8702.png,0.0,3.4050233,3.6718607,-0.18868251
alexnet,1,363,NaN,bear,bear,4-10-10,0363_eid_dnn_4-10-10_bear_10_n02134418_1770.png,n02134418_1770.png,1.0,5.354603,3.174694,1.5414283
alexnet,1,364,NaN,bear,bear,16-10-10,0364_eid_dnn_16-10-10_bear_10_n02132136_32838.png,n02132136_32838.png,1.0,4.72546,4.3502774,0.2652942
alexnet,1,365,NaN,boat,truck,4-10-10,0365_eid_dnn_4-10-10_truck_10_n04467665_68331.png,n04467665_68331.png,0.0,2.3284106,4.516265,-1.5470467
alexnet,1,366,NaN,airplane,airplane,1-10-10,0366_eid_dnn_1-10-10_airplane_10_n02690373_4506.png,n02690373_4506.png,1.0,17.461052,4.9942045,8.8153925
alexnet,1,367,NaN,car,car,2-10-10,0367_eid_dnn_2-10-10_car_10_n03100240_5308.png,n03100240_5308.png,1.0,8.5836115,6.432573,1.5210141
alexnet,1,368,NaN,dog,cat,2-10-10,0368_eid_dnn_2-10-10_cat_10_n02124075_15345.png,n02124075_15345.png,0.0,1.8982111,2.2362506,-0.23903003
alexnet,1,369,NaN,bear,bicycle,128-10-10,0369_eid_dnn_128-10-10_bicycle_10_n03792782_50972.png,n03792782_50972.png,0.0,1.9190928,3.0092154,-0.7708331
alexnet,1,370,NaN,knife,knife,8-10-10,0370_eid_dnn_8-10-10_knife_10_n03041632_19098.png,n03041632_19098.png,1.0,4.0272055,1.9989433,1.4341979
alexnet,1,371,NaN,bear,bottle,128-10-10,0371_eid_dnn_128-10-10_bottle_10_n04560804_15963.png,n04560804_15963.png,0.0,1.6685717,3.7391717,-1.4641354
alexnet,1,372,NaN,knife,bottle,8-10-10,0372_eid_dnn_8-10-10_bottle_10_n04557648_7809.png,n04557648_7809.png,0.0,-0.24625859,2.2717605,-1.7805083
alexnet,1,373,NaN,airplane,airplane,1-10-10,0373_eid_dnn_1-10-10_airplane_10_n02690373_17764.png,n02690373_17764.png,1.0,20.333977,4.6372223,11.099281
alexnet,1,374,NaN,bear,elephant,64-10-10,0374_eid_dnn_64-10-10_elephant_10_n02504013_7322.png,n02504013_7322.png,0.0,-0.46255243,4.6212096,-3.5947628
alexnet,1,375,NaN,cat,bear,2-10-10,0375_eid_dnn_2-10-10_bear_10_n02134084_2959.png,n02134084_2959.png,0.0,2.5535262,4.0017586,-1.024055
alexnet,1,376,NaN,elephant,bird,2-10-10,0376_eid_dnn_2-10-10_bird_10_n01622779_6563.png,n01622779_6563.png,0.0,3.522445,5.4665217,-1.3746699
alexnet,1,377,NaN,knife,knife,16-10-10,0377_eid_dnn_16-10-10_knife_10_n03041632_19620.png,n03041632_19620.png,1.0,2.904343,2.210633,0.49052694
alexnet,1,378,NaN,bird,bird,4-10-10,0378_eid_dnn_4-10-10_bird_10_n01530575_35977.png,n01530575_35977.png,1.0,2.7378323,1.4252653,0.928125
alexnet,1,379,NaN,oven,cat,128-10-10,0379_eid_dnn_128-10-10_cat_10_n02123394_1757.png,n02123394_1757.png,0.0,-0.44949248,3.7580948,-2.9752135
alexnet,1,380,NaN,dog,dog,2-10-10,0380_eid_dnn_2-10-10_dog_10_n02093647_6358.png,n02093647_6358.png,1.0,1.94053,1.6874526,0.17895274
alexnet,1,381,NaN,boat,boat,1-10-10,0381_eid_dnn_1-10-10_boat_10_n02951358_1470.png,n02951358_1470.png,1.0,3.6579773,3.1687977,0.34590223
alexnet,1,382,NaN,oven,elephant,128-10-10,0382_eid_dnn_128-10-10_elephant_10_n02504458_2026.png,n02504458_2026.png,0.0,0.7655407,2.5015063,-1.2275131
alexnet,1,383,NaN,oven,elephant,32-10-10,0383_eid_dnn_32-10-10_elephant_10_n02504458_3730.png,n02504458_3730.png,0.0,1.7242982,2.6258779,-0.6375131
alexnet,1,384,NaN,keyboard,keyboard,8-10-10,0384_eid_dnn_8-10-10_keyboard_10_n03085013_20881.png,n03085013_20881.png,1.0,4.9080563,2.4155018,1.7625022
alexnet,1,385,NaN,dog,dog,4-10-10,0385_eid_dnn_4-10-10_dog_10_n02105641_8188.png,n02105641_8188.png,1.0,5.4252253,4.8993206,0.37187076
alexnet,1,386,NaN,knife,clock,32-10-10,0386_eid_dnn_32-10-10_clock_10_n03196217_6320.png,n03196217_6320.png,0.0,0.28476402,2.1834974,-1.3426073
alexnet,1,387,NaN,cat,car,32-10-10,0387_eid_dnn_32-10-10_car_10_n04285008_12333.png,n04285008_12333.png,0.0,-2.7420547,3.3136356,-4.2820196
alexnet,1,388,NaN,knife,knife,2-10-10,0388_eid_dnn_2-10-10_knife_10_n03041632_47743.png,n03041632_47743.png,1.0,6.7427473,3.2354145,2.480059
alexnet,1,389,NaN,boat,boat,8-10-10,0389_eid_dnn_8-10-10_boat_10_n04612504_8073.png,n04612504_8073.png,1.0,4.8676233,3.0660253,1.2739222
alexnet,1,390,NaN,elephant,knife,128-10-10,0390_eid_dnn_128-10-10_knife_10_n03041632_20770.png,n03041632_20770.png,0.0,3.3050342,6.49096,-2.25279
alexnet,1,391,NaN,bear,car,32-10-10,0391_eid_dnn_32-10-10_car_10_n02814533_28783.png,n02814533_28783.png,0.0,-3.4374294,3.4112191,-4.8427258
alexnet,1,392,NaN,oven,car,128-10-10,0392_eid_dnn_128-10-10_car_10_n02814533_13533.png,n02814533_13533.png,0.0,-1.9860653,1.9360539,-2.7733572
alexnet,1,393,NaN,dog,dog,16-10-10,0393_eid_dnn_16-10-10_dog_10_n02104029_8137.png,n02104029_8137.png,1.0,5.5426197,1.6908307,2.7236261
alexnet,1,394,NaN,bicycle,bicycle,4-10-10,0394_eid_dnn_4-10-10_bicycle_10_n02835271_3990.png,n02835271_3990.png,1.0,3.5824604,3.1379936,0.31428552
alexnet,1,395,NaN,bear,bear,4-10-10,0395_eid_dnn_4-10-10_bear_10_n02132136_24311.png,n02132136_24311.png,1.0,6.8038945,5.6173573,0.83900857
alexnet,1,396,NaN,truck,truck,2-10-10,0396_eid_dnn_2-10-10_truck_10_n03796401_6966.png,n03796401_6966.png,1.0,14.711655,7.38954,5.177517
alexnet,1,397,NaN,knife,knife,1-10-10,0397_eid_dnn_1-10-10_knife_10_n03041632_8468.png,n03041632_8468.png,1.0,6.2155843,3.322494,2.0457237
alexnet,1,398,NaN,bear,elephant,128-10-10,0398_eid_dnn_128-10-10_elephant_10_n02504458_6799.png,n02504458_6799.png,0.0,2.0694017,2.8054595,-0.52047145
alexnet,1,399,NaN,knife,keyboard,16-10-10,0399_eid_dnn_16-10-10_keyboard_10_n03085013_24402.png,n03085013_24402.png,0.0,-2.0766227,4.3988466,-4.5788484
alexnet,1,400,NaN,bottle,knife,16-10-10,0400_eid_dnn_16-10-10_knife_10_n03041632_25772.png,n03041632_25772.png,0.0,0.5095446,2.2027774,-1.1972964
alexnet,1,401,NaN,cat,elephant,32-10-10,0401_eid_dnn_32-10-10_elephant_10_n02504458_5839.png,n02504458_5839.png,0.0,2.778189,4.4523625,-1.1838195
alexnet,1,402,NaN,bear,elephant,64-10-10,0402_eid_dnn_64-10-10_elephant_10_n02504458_5178.png,n02504458_5178.png,0.0,1.5282019,2.7237787,-0.84540045
alexnet,1,403,NaN,bear,bicycle,32-10-10,0403_eid_dnn_32-10-10_bicycle_10_n02835271_27014.png,n02835271_27014.png,0.0,0.35631981,2.5765245,-1.5699217
alexnet,1,404,NaN,bear,car,128-10-10,0404_eid_dnn_128-10-10_car_10_n04285008_15218.png,n04285008_15218.png,0.0,-2.6745605,3.8202746,-4.5925417
alexnet,1,405,NaN,dog,bicycle,8-10-10,0405_eid_dnn_8-10-10_bicycle_10_n02835271_19955.png,n02835271_19955.png,0.0,1.6848335,3.8723316,-1.5467948
alexnet,1,406,NaN,truck,truck,1-10-10,0406_eid_dnn_1-10-10_truck_10_n03796401_874.png,n03796401_874.png,1.0,9.126616,6.3563037,1.9589063
alexnet,1,407,NaN,dog,dog,2-10-10,0407_eid_dnn_2-10-10_dog_10_n02108915_6092.png,n02108915_6092.png,1.0,5.5074954,2.4691958,2.1484022
alexnet,1,408,NaN,dog,clock,16-10-10,0408_eid_dnn_16-10-10_clock_10_n04548280_6337.png,n04548280_6337.png,0.0,0.99005,2.1224475,-0.8007259
alexnet,1,409,NaN,boat,boat,4-10-10,0409_eid_dnn_4-10-10_boat_10_n04273569_1388.png,n04273569_1388.png,1.0,3.8291574,3.4679708,0.25539744
alexnet,1,410,NaN,bear,clock,64-10-10,0410_eid_dnn_64-10-10_clock_10_n02708093_2676.png,n02708093_2676.png,0.0,1.0440097,3.0686634,-1.4316463
alexnet,1,411,NaN,dog,dog,64-10-10,0411_eid_dnn_64-10-10_dog_10_n02107683_5424.png,n02107683_5424.png,1.0,4.133954,2.6581287,1.0435661
alexnet,1,412,NaN,chair,chair,1-10-10,0412_eid_dnn_1-10-10_chair_10_n04099969_29038.png,n04099969_29038.png,1.0,5.625903,5.132818,0.3486637
alexnet,1,413,NaN,oven,clock,16-10-10,0413_eid_dnn_16-10-10_clock_10_n04548280_3219.png,n04548280_3219.png,0.0,-1.5627016,1.3024889,-2.0259957
alexnet,1,414,NaN,cat,clock,32-10-10,0414_eid_dnn_32-10-10_clock_10_n03196217_8282.png,n03196217_8282.png,0.0,0.4856572,2.8291914,-1.6571289
alexnet,1,415,NaN,chair,oven,8-10-10,0415_eid_dnn_8-10-10_oven_10_n04111531_22041.png,n04111531_22041.png,0.0,2.2493727,3.0522144,-0.5676948
alexnet,1,416,NaN,bear,bear,8-10-10,0416_eid_dnn_8-10-10_bear_10_n02134084_6964.png,n02134084_6964.png,1.0,3.079115,2.3124428,0.5421191
alexnet,1,417,NaN,bear,bicycle,64-10-10,0417_eid_dnn_64-10-10_bicycle_10_n03792782_11921.png,n03792782_11921.png,0.0,0.3057866,2.6622615,-1.6662794
alexnet,1,418,NaN,chair,clock,8-10-10,0418_eid_dnn_8-10-10_clock_10_n04548280_1809.png,n04548280_1809.png,0.0,0.92061615,2.5195508,-1.1306175
alexnet,1,419,NaN,bird,bird,4-10-10,0419_eid_dnn_4-10-10_bird_10_n01833805_202.png,n01833805_202.png,1.0,2.986141,2.2840407,0.49645987
alexnet,1,420,NaN,knife,keyboard,64-10-10,0420_eid_dnn_64-10-10_keyboard_10_n03085013_7511.png,n03085013_7511.png,0.0,-2.7462096,3.1020823,-4.135367
alexnet,1,421,NaN,dog,bird,1-10-10,0421_eid_dnn_1-10-10_bird_10_n02025239_5287.png,n02025239_5287.png,0.0,-0.4150613,2.6675532,-2.1797376
alexnet,1,422,NaN,clock,boat,64-10-10,0422_eid_dnn_64-10-10_boat_10_n03662601_27960.png,n03662601_27960.png,0.0,1.6880032,1.7976164,-0.077508226
alexnet,1,423,NaN,dog,bottle,1-10-10,0423_eid_dnn_1-10-10_bottle_10_n04591713_6855.png,n04591713_6855.png,0.0,-0.70870745,3.564888,-3.0218883
alexnet,1,424,NaN,bear,elephant,128-10-10,0424_eid_dnn_128-10-10_elephant_10_n02504013_4424.png,n02504013_4424.png,0.0,0.78322566,3.6574552,-2.0323873
alexnet,1,425,NaN,clock,clock,2-10-10,0425_eid_dnn_2-10-10_clock_10_n04548280_3295.png,n04548280_3295.png,1.0,8.21054,3.3008256,3.4716923
alexnet,1,426,NaN,airplane,airplane,1-10-10,0426_eid_dnn_1-10-10_airplane_10_n02690373_6144.png,n02690373_6144.png,1.0,22.173386,5.1776466,12.017802
alexnet,1,427,NaN,bear,truck,32-10-10,0427_eid_dnn_32-10-10_truck_10_n04467665_70894.png,n04467665_70894.png,0.0,-0.088437736,2.8038034,-2.0451233
alexnet,1,428,NaN,bottle,boat,128-10-10,0428_eid_dnn_128-10-10_boat_10_n02951358_30474.png,n02951358_30474.png,0.0,-0.8129241,1.7297388,-1.7979342
alexnet,1,429,NaN,bear,bear,4-10-10,0429_eid_dnn_4-10-10_bear_10_n02132136_6434.png,n02132136_6434.png,1.0,10.66062,5.4303226,3.6983786
alexnet,1,430,NaN,keyboard,keyboard,32-10-10,0430_eid_dnn_32-10-10_keyboard_10_n04505470_5009.png,n04505470_5009.png,1.0,2.1741152,1.8408959,0.23562162
alexnet,1,431,NaN,keyboard,keyboard,2-10-10,0431_eid_dnn_2-10-10_keyboard_10_n03085013_13005.png,n03085013_13005.png,1.0,14.198767,5.0109344,6.4967785
alexnet,1,432,NaN,chair,chair,1-10-10,0432_eid_dnn_1-10-10_chair_10_n03376595_6865.png,n03376595_6865.png,1.0,7.3768425,2.7371716,3.280743
alexnet,1,433,NaN,oven,bicycle,32-10-10,0433_eid_dnn_32-10-10_bicycle_10_n02835271_6122.png,n02835271_6122.png,0.0,-0.018656492,2.4290214,-1.7307696
alexnet,1,434,NaN,dog,oven,4-10-10,0434_eid_dnn_4-10-10_oven_10_n04111531_11499.png,n04111531_11499.png,0.0,1.4248745,1.9329885,-0.35929084
alexnet,1,435,NaN,bear,bird,1-10-10,0435_eid_dnn_1-10-10_bird_10_n02009229_5765.png,n02009229_5765.png,0.0,2.306495,3.4479496,-0.8071304
alexnet,1,436,NaN,bear,bottle,32-10-10,0436_eid_dnn_32-10-10_bottle_10_n04560804_2181.png,n04560804_2181.png,0.0,0.8107338,3.2765555,-1.7435993
alexnet,1,437,NaN,boat,bicycle,32-10-10,0437_eid_dnn_32-10-10_bicycle_10_n03792782_3774.png,n03792782_3774.png,0.0,2.4672434,2.6920028,-0.15892886
alexnet,1,438,NaN,airplane,bird,16-10-10,0438_eid_dnn_16-10-10_bird_10_n01614925_1683.png,n01614925_1683.png,0.0,0.24665211,4.583501,-3.066615
alexnet,1,439,NaN,bear,clock,8-10-10,0439_eid_dnn_8-10-10_clock_10_n02708093_4692.png,n02708093_4692.png,0.0,1.5899359,2.71585,-0.79614156
alexnet,1,440,NaN,dog,dog,4-10-10,0440_eid_dnn_4-10-10_dog_10_n02109961_71298.png,n02109961_71298.png,1.0,4.5670385,2.0062177,1.8107738
alexnet,1,441,NaN,keyboard,keyboard,2-10-10,0441_eid_dnn_2-10-10_keyboard_10_n03085013_23269.png,n03085013_23269.png,1.0,4.382124,2.4508703,1.3656026
alexnet,1,442,NaN,chair,elephant,2-10-10,0442_eid_dnn_2-10-10_elephant_10_n02504458_5614.png,n02504458_5614.png,0.0,1.567863,2.018943,-0.3189618
alexnet,1,443,NaN,airplane,car,2-10-10,0443_eid_dnn_2-10-10_car_10_n04285008_4640.png,n04285008_4640.png,0.0,4.7343984,9.874734,-3.634766
alexnet,1,444,NaN,bottle,oven,128-10-10,0444_eid_dnn_128-10-10_oven_10_n04111531_6346.png,n04111531_6346.png,0.0,1.2968435,2.672878,-0.9730033
alexnet,1,445,NaN,chair,chair,2-10-10,0445_eid_dnn_2-10-10_chair_10_n04099969_14851.png,n04099969_14851.png,1.0,10.188528,2.909382,5.147134
alexnet,1,446,NaN,oven,bird,64-10-10,0446_eid_dnn_64-10-10_bird_10_n02051845_534.png,n02051845_534.png,0.0,-2.1256378,3.3257065,-3.8546827
alexnet,1,447,NaN,bottle,bird,128-10-10,0447_eid_dnn_128-10-10_bird_10_n02056570_9342.png,n02056570_9342.png,0.0,-2.4278235,2.7619019,-3.6696901
alexnet,1,448,NaN,oven,oven,16-10-10,0448_eid_dnn_16-10-10_oven_10_n04111531_4900.png,n04111531_4900.png,1.0,4.0711575,2.568104,1.0628192
alexnet,1,449,NaN,bear,boat,32-10-10,0449_eid_dnn_32-10-10_boat_10_n02951358_31973.png,n02951358_31973.png,0.0,0.7788292,4.6128454,-2.711059
alexnet,1,450,NaN,dog,keyboard,4-10-10,0450_eid_dnn_4-10-10_keyboard_10_n03085013_19842.png,n03085013_19842.png,0.0,0.94706243,2.494885,-1.0944757
alexnet,1,451,NaN,keyboard,keyboard,8-10-10,0451_eid_dnn_8-10-10_keyboard_10_n03085013_8296.png,n03085013_8296.png,1.0,5.284223,1.5389646,2.6482975
alexnet,1,452,NaN,bear,car,16-10-10,0452_eid_dnn_16-10-10_car_10_n03100240_3528.png,n03100240_3528.png,0.0,-3.9008389,3.1349792,-4.975075
alexnet,1,453,NaN,cat,cat,8-10-10,0453_eid_dnn_8-10-10_cat_10_n02123159_7210.png,n02123159_7210.png,1.0,4.8438454,3.6152487,0.8687491
alexnet,1,454,NaN,knife,knife,16-10-10,0454_eid_dnn_16-10-10_knife_10_n03041632_56172.png,n03041632_56172.png,1.0,5.0550113,1.388887,2.5923414
alexnet,1,455,NaN,oven,oven,4-10-10,0455_eid_dnn_4-10-10_oven_10_n04111531_2116.png,n04111531_2116.png,1.0,5.226409,2.5753975,1.8745482
alexnet,1,456,NaN,elephant,bicycle,8-10-10,0456_eid_dnn_8-10-10_bicycle_10_n02835271_12477.png,n02835271_12477.png,0.0,3.0353062,3.939132,-0.6391013
alexnet,1,457,NaN,knife,knife,2-10-10,0457_eid_dnn_2-10-10_knife_10_n03041632_42472.png,n03041632_42472.png,1.0,12.421429,2.38671,7.095618
alexnet,1,458,NaN,oven,oven,2-10-10,0458_eid_dnn_2-10-10_oven_10_n04111531_8818.png,n04111531_8818.png,1.0,5.5938873,2.869801,1.9262199
alexnet,1,459,NaN,airplane,truck,2-10-10,0459_eid_dnn_2-10-10_truck_10_n04467665_67115.png,n04467665_67115.png,0.0,4.6896305,5.5730963,-0.62470466
alexnet,1,460,NaN,bird,bird,4-10-10,0460_eid_dnn_4-10-10_bird_10_n02011460_3521.png,n02011460_3521.png,1.0,1.0489558,0.50061774,0.38773358
alexnet,1,461,NaN,bear,bear,64-10-10,0461_eid_dnn_64-10-10_bear_10_n02133161_3533.png,n02133161_3533.png,1.0,5.565115,2.3369358,2.2826674
alexnet,1,462,NaN,dog,bird,8-10-10,0462_eid_dnn_8-10-10_bird_10_n02013706_637.png,n02013706_637.png,0.0,-0.2456181,3.3094456,-2.5138097
alexnet,1,463,NaN,oven,bear,64-10-10,0463_eid_dnn_64-10-10_bear_10_n02132136_29636.png,n02132136_29636.png,0.0,3.1033063,3.4841204,-0.26927623
alexnet,1,464,NaN,bicycle,bicycle,2-10-10,0464_eid_dnn_2-10-10_bicycle_10_n02835271_634.png,n02835271_634.png,1.0,4.2207036,1.1370605,2.180465
alexnet,1,465,NaN,keyboard,keyboard,1-10-10,0465_eid_dnn_1-10-10_keyboard_10_n04505470_4621.png,n04505470_4621.png,1.0,5.527586,3.7778168,1.2372737
alexnet,1,466,NaN,boat,bear,16-10-10,0466_eid_dnn_16-10-10_bear_10_n02134084_2844.png,n02134084_2844.png,0.0,1.4568765,3.40204,-1.3754383
alexnet,1,467,NaN,bicycle,bicycle,4-10-10,0467_eid_dnn_4-10-10_bicycle_10_n03792782_17088.png,n03792782_17088.png,1.0,6.385227,2.4578617,2.777067
alexnet,1,468,NaN,bicycle,clock,4-10-10,0468_eid_dnn_4-10-10_clock_10_n03196217_8706.png,n03196217_8706.png,0.0,0.77201444,2.830363,-1.4554724
alexnet,1,469,NaN,oven,oven,4-10-10,0469_eid_dnn_4-10-10_oven_10_n04111531_15052.png,n04111531_15052.png,1.0,5.1380234,4.5045767,0.44791445
alexnet,1,470,NaN,oven,bottle,16-10-10,0470_eid_dnn_16-10-10_bottle_10_n04560804_5769.png,n04560804_5769.png,0.0,0.66411877,2.4755068,-1.2808448
alexnet,1,471,NaN,oven,dog,128-10-10,0471_eid_dnn_128-10-10_dog_10_n02110063_14116.png,n02110063_14116.png,0.0,0.09663005,2.5493262,-1.734318
alexnet,1,472,NaN,bear,cat,32-10-10,0472_eid_dnn_32-10-10_cat_10_n02124075_3609.png,n02124075_3609.png,0.0,2.196071,2.7781177,-0.4115692
alexnet,1,473,NaN,airplane,airplane,32-10-10,0473_eid_dnn_32-10-10_airplane_10_n02690373_10926.png,n02690373_10926.png,1.0,5.4767895,3.1983979,1.6110662
alexnet,1,474,NaN,boat,bird,16-10-10,0474_eid_dnn_16-10-10_bird_10_n02033041_7229.png,n02033041_7229.png,0.0,-0.2587931,3.2647362,-2.4915116
alexnet,1,475,NaN,dog,bird,2-10-10,0475_eid_dnn_2-10-10_bird_10_n02006656_611.png,n02006656_611.png,0.0,-0.59201527,2.2837975,-2.0335066
alexnet,1,476,NaN,bear,bear,16-10-10,0476_eid_dnn_16-10-10_bear_10_n02133161_958.png,n02133161_958.png,1.0,1.8988608,1.4186733,0.33954388
alexnet,1,477,NaN,airplane,bird,8-10-10,0477_eid_dnn_8-10-10_bird_10_n01843065_148.png,n01843065_148.png,0.0,2.3785799,2.9871962,-0.43035677
alexnet,1,478,NaN,oven,cat,32-10-10,0478_eid_dnn_32-10-10_cat_10_n02123597_13623.png,n02123597_13623.png,0.0,1.7004763,2.6462479,-0.6687615
alexnet,1,479,NaN,bicycle,bicycle,8-10-10,0479_eid_dnn_8-10-10_bicycle_10_n02835271_12957.png,n02835271_12957.png,1.0,4.9000564,3.7095513,0.8418142
alexnet,1,480,NaN,knife,knife,8-10-10,0480_eid_dnn_8-10-10_knife_10_n03041632_96714.png,n03041632_96714.png,1.0,4.498082,1.894866,1.8407519
alexnet,1,481,NaN,bear,bear,128-10-10,0481_eid_dnn_128-10-10_bear_10_n02133161_3550.png,n02133161_3550.png,1.0,3.8105755,3.266676,0.38459507
alexnet,1,482,NaN,airplane,airplane,2-10-10,0482_eid_dnn_2-10-10_airplane_10_n02690373_4471.png,n02690373_4471.png,1.0,12.755818,3.1409597,6.798732
alexnet,1,483,NaN,bear,airplane,64-10-10,0483_eid_dnn_64-10-10_airplane_10_n02690373_2026.png,n02690373_2026.png,0.0,0.37577444,1.6194888,-0.8794389
alexnet,1,484,NaN,truck,car,1-10-10,0484_eid_dnn_1-10-10_car_10_n03100240_18270.png,n03100240_18270.png,0.0,4.8971133,5.119827,-0.1574822
alexnet,1,485,NaN,clock,elephant,128-10-10,0485_eid_dnn_128-10-10_elephant_10_n02504458_5204.png,n02504458_5204.png,0.0,0.5111342,2.6769564,-1.5314677
alexnet,1,486,NaN,chair,oven,1-10-10,0486_eid_dnn_1-10-10_oven_10_n04111531_10339.png,n04111531_10339.png,0.0,4.976337,5.6975408,-0.5099681
alexnet,1,487,NaN,elephant,elephant,2-10-10,0487_eid_dnn_2-10-10_elephant_10_n02504458_12705.png,n02504458_12705.png,1.0,10.368044,2.5980334,5.4942274
alexnet,1,488,NaN,boat,boat,1-10-10,0488_eid_dnn_1-10-10_boat_10_n03344393_9268.png,n03344393_9268.png,1.0,4.6166716,3.9512932,0.47049353
alexnet,1,489,NaN,airplane,bicycle,16-10-10,0489_eid_dnn_16-10-10_bicycle_10_n02835271_23173.png,n02835271_23173.png,0.0,3.3116283,3.5736003,-0.18524215
alexnet,1,490,NaN,oven,knife,32-10-10,0490_eid_dnn_32-10-10_knife_10_n03041632_43975.png,n03041632_43975.png,0.0,1.5969614,2.5558658,-0.6780478
alexnet,1,491,NaN,clock,bicycle,128-10-10,0491_eid_dnn_128-10-10_bicycle_10_n03792782_3299.png,n03792782_3299.png,0.0,1.0276332,1.7514982,-0.5118499
alexnet,1,492,NaN,bear,boat,32-10-10,0492_eid_dnn_32-10-10_boat_10_n04273569_5679.png,n04273569_5679.png,0.0,1.402097,4.37407,-2.1015024
alexnet,1,493,NaN,cat,bird,32-10-10,0493_eid_dnn_32-10-10_bird_10_n02056570_10127.png,n02056570_10127.png,0.0,-1.9614171,2.4068644,-3.0888414
alexnet,1,494,NaN,bear,bear,32-10-10,0494_eid_dnn_32-10-10_bear_10_n02133161_7688.png,n02133161_7688.png,1.0,3.4775915,2.5696476,0.6420134
alexnet,1,495,NaN,cat,cat,16-10-10,0495_eid_dnn_16-10-10_cat_10_n02123597_624.png,n02123597_624.png,1.0,4.240881,3.2142193,0.7259594
alexnet,1,496,NaN,dog,bird,64-10-10,0496_eid_dnn_64-10-10_bird_10_n01560419_3399.png,n01560419_3399.png,0.0,-1.9548208,2.9477928,-3.4666715
alexnet,1,497,NaN,dog,cat,32-10-10,0497_eid_dnn_32-10-10_cat_10_n02123045_12762.png,n02123045_12762.png,0.0,1.4354054,2.593719,-0.81905144
alexnet,1,498,NaN,cat,car,16-10-10,0498_eid_dnn_16-10-10_car_10_n02814533_7247.png,n02814533_7247.png,0.0,-2.1555889,4.548337,-4.7403917
alexnet,1,499,NaN,keyboard,keyboard,4-10-10,0499_eid_dnn_4-10-10_keyboard_10_n03085013_4941.png,n03085013_4941.png,1.0,6.418325,2.4569108,2.801143
alexnet,1,500,NaN,knife,truck,4-10-10,0500_eid_dnn_4-10-10_truck_10_n03417042_6420.png,n03417042_6420.png,0.0,3.2514868,3.4664912,-0.15203111
alexnet,1,501,NaN,oven,boat,64-10-10,0501_eid_dnn_64-10-10_boat_10_n03662601_2120.png,n03662601_2120.png,0.0,-0.17758465,2.9124467,-2.1849823
alexnet,1,502,NaN,bear,bear,2-10-10,0502_eid_dnn_2-10-10_bear_10_n02134084_7331.png,n02134084_7331.png,1.0,8.911297,6.8952866,1.4255346
alexnet,1,503,NaN,bear,bottle,32-10-10,0503_eid_dnn_32-10-10_bottle_10_n02823428_906.png,n02823428_906.png,0.0,0.8096432,4.801691,-2.8228042
alexnet,1,504,NaN,knife,cat,16-10-10,0504_eid_dnn_16-10-10_cat_10_n02123394_270.png,n02123394_270.png,0.0,1.3883139,1.9888983,-0.4246773
alexnet,1,505,NaN,bear,boat,2-10-10,0505_eid_dnn_2-10-10_boat_10_n02951358_1910.png,n02951358_1910.png,0.0,1.7061201,2.648958,-0.666687
alexnet,1,506,NaN,bear,knife,4-10-10,0506_eid_dnn_4-10-10_knife_10_n03041632_23678.png,n03041632_23678.png,0.0,1.6406374,2.683516,-0.7374266
alexnet,1,507,NaN,boat,car,16-10-10,0507_eid_dnn_16-10-10_car_10_n02814533_31083.png,n02814533_31083.png,0.0,-0.5426144,2.6600041,-2.2645934
alexnet,1,508,NaN,keyboard,keyboard,1-10-10,0508_eid_dnn_1-10-10_keyboard_10_n04505470_2881.png,n04505470_2881.png,1.0,10.645323,5.170462,3.8713112
alexnet,1,509,NaN,dog,cat,8-10-10,0509_eid_dnn_8-10-10_cat_10_n02125311_2923.png,n02125311_2923.png,0.0,2.5138438,3.3660555,-0.6026047
alexnet,1,510,NaN,bicycle,bicycle,2-10-10,0510_eid_dnn_2-10-10_bicycle_10_n03792782_2598.png,n03792782_2598.png,1.0,4.6916275,2.3469417,1.6579432
alexnet,1,511,NaN,car,car,2-10-10,0511_eid_dnn_2-10-10_car_10_n03100240_4460.png,n03100240_4460.png,1.0,10.832839,7.885538,2.0840564
alexnet,1,512,NaN,knife,knife,4-10-10,0512_eid_dnn_4-10-10_knife_10_n03041632_29920.png,n03041632_29920.png,1.0,6.377816,3.890007,1.7591468
alexnet,1,513,NaN,bear,bird,32-10-10,0513_eid_dnn_32-10-10_bird_10_n01796340_3845.png,n01796340_3845.png,0.0,-0.17888565,3.1793017,-2.374597
alexnet,1,514,NaN,keyboard,keyboard,8-10-10,0514_eid_dnn_8-10-10_keyboard_10_n03085013_21932.png,n03085013_21932.png,1.0,4.777812,3.6022851,0.831223
alexnet,1,515,NaN,bottle,bottle,1-10-10,0515_eid_dnn_1-10-10_bottle_10_n02823428_64.png,n02823428_64.png,1.0,9.721835,6.0441427,2.6005213
alexnet,1,516,NaN,oven,chair,8-10-10,0516_eid_dnn_8-10-10_chair_10_n04099969_4374.png,n04099969_4374.png,0.0,1.3076264,2.2430406,-0.66143775
alexnet,1,517,NaN,clock,clock,1-10-10,0517_eid_dnn_1-10-10_clock_10_n02708093_8257.png,n02708093_8257.png,1.0,12.963039,5.7128487,5.126659
alexnet,1,518,NaN,airplane,knife,16-10-10,0518_eid_dnn_16-10-10_knife_10_n03041632_45569.png,n03041632_45569.png,0.0,1.7893298,3.144176,-0.958021
alexnet,1,519,NaN,oven,chair,128-10-10,0519_eid_dnn_128-10-10_chair_10_n04099969_1850.png,n04099969_1850.png,0.0,1.7018417,4.03636,-1.6507535
alexnet,1,520,NaN,dog,dog,2-10-10,0520_eid_dnn_2-10-10_dog_10_n02092002_2008.png,n02092002_2008.png,1.0,6.937035,5.6367006,0.9194753
alexnet,1,521,NaN,bicycle,bicycle,8-10-10,0521_eid_dnn_8-10-10_bicycle_10_n02835271_8105.png,n02835271_8105.png,1.0,5.0663023,2.7467005,1.6402062
alexnet,1,522,NaN,oven,oven,64-10-10,0522_eid_dnn_64-10-10_oven_10_n04111531_14126.png,n04111531_14126.png,1.0,3.83211,3.54143,0.20554176
alexnet,1,523,NaN,elephant,elephant,4-10-10,0523_eid_dnn_4-10-10_elephant_10_n02504013_13766.png,n02504013_13766.png,1.0,4.935119,3.4803123,1.0287038
alexnet,1,524,NaN,cat,bicycle,64-10-10,0524_eid_dnn_64-10-10_bicycle_10_n02835271_18361.png,n02835271_18361.png,0.0,0.010946274,3.4804528,-2.4533117
alexnet,1,525,NaN,elephant,bird,8-10-10,0525_eid_dnn_8-10-10_bird_10_n01582220_4708.png,n01582220_4708.png,0.0,0.37555304,2.8678317,-1.7623072
alexnet,1,526,NaN,dog,chair,16-10-10,0526_eid_dnn_16-10-10_chair_10_n04099969_101.png,n04099969_101.png,0.0,-0.08513768,3.266734,-2.370131
alexnet,1,527,NaN,cat,cat,1-10-10,0527_eid_dnn_1-10-10_cat_10_n02124075_724.png,n02124075_724.png,1.0,9.956483,1.9224168,5.680943
alexnet,1,528,NaN,bicycle,bicycle,32-10-10,0528_eid_dnn_32-10-10_bicycle_10_n02835271_43.png,n02835271_43.png,1.0,1.6551468,1.5917236,0.04484703
alexnet,1,529,NaN,dog,bird,2-10-10,0529_eid_dnn_2-10-10_bird_10_n02017213_5362.png,n02017213_5362.png,0.0,3.6562936,3.7359593,-0.05633213
alexnet,1,530,NaN,dog,dog,1-10-10,0530_eid_dnn_1-10-10_dog_10_n02088466_1769.png,n02088466_1769.png,1.0,3.9940593,3.0368483,0.67685044
alexnet,1,531,NaN,elephant,bear,1-10-10,0531_eid_dnn_1-10-10_bear_10_n02133161_5653.png,n02133161_5653.png,0.0,8.598829,9.57485,-0.690151
alexnet,1,532,NaN,dog,dog,1-10-10,0532_eid_dnn_1-10-10_dog_10_n02098105_4676.png,n02098105_4676.png,1.0,4.7717533,2.6057887,1.5315683
alexnet,1,533,NaN,cat,cat,2-10-10,0533_eid_dnn_2-10-10_cat_10_n02123045_3593.png,n02123045_3593.png,1.0,5.94045,2.6109855,2.3542871
alexnet,1,534,NaN,knife,bottle,8-10-10,0534_eid_dnn_8-10-10_bottle_10_n04560804_265.png,n04560804_265.png,0.0,0.16575988,4.1889935,-2.8448558
alexnet,1,535,NaN,bear,knife,128-10-10,0535_eid_dnn_128-10-10_knife_10_n03041632_1556.png,n03041632_1556.png,0.0,0.90695536,3.8732548,-2.0974905
alexnet,1,536,NaN,elephant,chair,4-10-10,0536_eid_dnn_4-10-10_chair_10_n02791124_9595.png,n02791124_9595.png,0.0,2.396646,3.5922549,-0.84542316
alexnet,1,537,NaN,bear,dog,32-10-10,0537_eid_dnn_32-10-10_dog_10_n02107312_2933.png,n02107312_2933.png,0.0,1.4869093,4.4371533,-2.0861375
alexnet,1,538,NaN,oven,oven,32-10-10,0538_eid_dnn_32-10-10_oven_10_n04111531_101.png,n04111531_101.png,1.0,2.4437456,2.2171888,0.16019984
alexnet,1,539,NaN,chair,truck,4-10-10,0539_eid_dnn_4-10-10_truck_10_n03417042_7204.png,n03417042_7204.png,0.0,3.5807235,3.6304793,-0.035182673
alexnet,1,540,NaN,bear,bear,64-10-10,0540_eid_dnn_64-10-10_bear_10_n02132136_2120.png,n02132136_2120.png,1.0,3.93644,2.7622528,0.8302757
alexnet,1,541,NaN,oven,airplane,64-10-10,0541_eid_dnn_64-10-10_airplane_10_n02690373_18412.png,n02690373_18412.png,0.0,2.71844,3.2558167,-0.37998268
alexnet,1,542,NaN,elephant,knife,128-10-10,0542_eid_dnn_128-10-10_knife_10_n03041632_21017.png,n03041632_21017.png,0.0,0.12311727,3.0388327,-2.0617223
alexnet,1,543,NaN,bear,elephant,128-10-10,0543_eid_dnn_128-10-10_elephant_10_n02504458_8414.png,n02504458_8414.png,0.0,3.1993523,3.8358355,-0.4500616
alexnet,1,544,NaN,bear,bottle,128-10-10,0544_eid_dnn_128-10-10_bottle_10_n04557648_11046.png,n04557648_11046.png,0.0,1.6275463,4.1729164,-1.7998484
alexnet,1,545,NaN,oven,clock,64-10-10,0545_eid_dnn_64-10-10_clock_10_n03196217_10578.png,n03196217_10578.png,0.0,-0.22091146,3.518435,-2.6441174
alexnet,1,546,NaN,bear,bear,2-10-10,0546_eid_dnn_2-10-10_bear_10_n02134418_3213.png,n02134418_3213.png,1.0,5.6198597,2.201562,2.4171016
alexnet,1,547,NaN,knife,clock,64-10-10,0547_eid_dnn_64-10-10_clock_10_n03196217_6289.png,n03196217_6289.png,0.0,1.0518646,4.5921693,-2.5033734
alexnet,1,548,NaN,knife,dog,32-10-10,0548_eid_dnn_32-10-10_dog_10_n02096294_1498.png,n02096294_1498.png,0.0,0.8914233,2.7752843,-1.332091
alexnet,1,549,NaN,bear,oven,16-10-10,0549_eid_dnn_16-10-10_oven_10_n04111531_519.png,n04111531_519.png,0.0,0.6540941,1.7098556,-0.7465361
alexnet,1,550,NaN,bird,bird,1-10-10,0550_eid_dnn_1-10-10_bird_10_n01531178_14959.png,n01531178_14959.png,1.0,4.724492,2.6935618,1.4360846
alexnet,1,551,NaN,bear,bear,32-10-10,0551_eid_dnn_32-10-10_bear_10_n02132136_8754.png,n02132136_8754.png,1.0,4.4539795,3.1682496,0.90914834
alexnet,1,552,NaN,car,car,1-10-10,0552_eid_dnn_1-10-10_car_10_n02814533_73067.png,n02814533_73067.png,1.0,12.363654,9.2704315,2.1872387
alexnet,1,553,NaN,bear,cat,8-10-10,0553_eid_dnn_8-10-10_cat_10_n02124075_15378.png,n02124075_15378.png,0.0,1.523868,2.4106364,-0.62704
alexnet,1,554,NaN,oven,bird,128-10-10,0554_eid_dnn_128-10-10_bird_10_n01592084_7569.png,n01592084_7569.png,0.0,-2.4720426,4.9043016,-5.215863
alexnet,1,555,NaN,bear,dog,128-10-10,0555_eid_dnn_128-10-10_dog_10_n02094114_3395.png,n02094114_3395.png,0.0,-0.14990836,2.3990746,-1.8024031
alexnet,1,556,NaN,chair,chair,4-10-10,0556_eid_dnn_4-10-10_chair_10_n03376595_1712.png,n03376595_1712.png,1.0,4.7913384,2.1139247,1.8932174
alexnet,1,557,NaN,oven,bear,64-10-10,0557_eid_dnn_64-10-10_bear_10_n02134084_622.png,n02134084_622.png,0.0,2.5470858,4.953844,-1.7018352
alexnet,1,558,NaN,bottle,clock,8-10-10,0558_eid_dnn_8-10-10_clock_10_n03196217_4912.png,n03196217_4912.png,0.0,3.2742145,4.597081,-0.935408
alexnet,1,559,NaN,oven,car,64-10-10,0559_eid_dnn_64-10-10_car_10_n03100240_18815.png,n03100240_18815.png,0.0,-3.6166375,3.5624447,-5.0763774
alexnet,1,560,NaN,chair,chair,2-10-10,0560_eid_dnn_2-10-10_chair_10_n04099969_2020.png,n04099969_2020.png,1.0,6.323964,5.033545,0.91246414
alexnet,1,561,NaN,bear,bear,1-10-10,0561_eid_dnn_1-10-10_bear_10_n02132136_7647.png,n02132136_7647.png,1.0,10.030086,4.548208,3.8762727
alexnet,1,562,NaN,cat,oven,128-10-10,0562_eid_dnn_128-10-10_oven_10_n04111531_2796.png,n04111531_2796.png,0.0,0.028609544,2.653741,-1.8562483
alexnet,1,563,NaN,cat,truck,64-10-10,0563_eid_dnn_64-10-10_truck_10_n03796401_9472.png,n03796401_9472.png,0.0,-1.3696895,2.365477,-2.6411617
alexnet,1,564,NaN,chair,chair,4-10-10,0564_eid_dnn_4-10-10_chair_10_n03376595_12433.png,n03376595_12433.png,1.0,4.463406,2.9717488,1.0547609
alexnet,1,565,NaN,truck,truck,4-10-10,0565_eid_dnn_4-10-10_truck_10_n04467665_31539.png,n04467665_31539.png,1.0,5.6540303,4.125642,1.0807339
alexnet,1,566,NaN,boat,airplane,32-10-10,0566_eid_dnn_32-10-10_airplane_10_n02690373_10657.png,n02690373_10657.png,0.0,3.5901089,4.115073,-0.37120584
alexnet,1,567,NaN,oven,truck,16-10-10,0567_eid_dnn_16-10-10_truck_10_n03796401_5963.png,n03796401_5963.png,0.0,0.9837495,2.5459473,-1.1046407
alexnet,1,568,NaN,bear,dog,64-10-10,0568_eid_dnn_64-10-10_dog_10_n02096294_2233.png,n02096294_2233.png,0.0,1.9672183,3.2171957,-0.88386756
alexnet,1,569,NaN,elephant,airplane,128-10-10,0569_eid_dnn_128-10-10_airplane_10_n02690373_4873.png,n02690373_4873.png,0.0,-2.3009517,2.1710458,-3.1621797
alexnet,1,570,NaN,airplane,truck,1-10-10,0570_eid_dnn_1-10-10_truck_10_n04467665_4825.png,n04467665_4825.png,0.0,6.5617476,8.291631,-1.2232121
alexnet,1,571,NaN,bear,chair,16-10-10,0571_eid_dnn_16-10-10_chair_10_n04099969_1704.png,n04099969_1704.png,0.0,1.0977669,2.2616224,-0.82297015
alexnet,1,572,NaN,bicycle,bicycle,2-10-10,0572_eid_dnn_2-10-10_bicycle_10_n02835271_1573.png,n02835271_1573.png,1.0,9.318846,4.3584924,3.5074995
alexnet,1,573,NaN,oven,boat,2-10-10,0573_eid_dnn_2-10-10_boat_10_n04273569_12725.png,n04273569_12725.png,0.0,2.8850837,3.5647497,-0.48059648
alexnet,1,574,NaN,bottle,knife,128-10-10,0574_eid_dnn_128-10-10_knife_10_n03041632_11285.png,n03041632_11285.png,0.0,1.5846087,2.6592717,-0.7599015
alexnet,1,575,NaN,keyboard,clock,4-10-10,0575_eid_dnn_4-10-10_clock_10_n03196217_8254.png,n03196217_8254.png,0.0,5.644998,7.5046315,-1.3149594
alexnet,1,576,NaN,airplane,knife,16-10-10,0576_eid_dnn_16-10-10_knife_10_n03041632_15099.png,n03041632_15099.png,0.0,1.4292485,3.162968,-1.2259248
alexnet,1,577,NaN,bear,cat,64-10-10,0577_eid_dnn_64-10-10_cat_10_n02125311_30452.png,n02125311_30452.png,0.0,1.4936508,1.7120843,-0.15445581
alexnet,1,578,NaN,bear,bottle,32-10-10,0578_eid_dnn_32-10-10_bottle_10_n04591713_6804.png,n04591713_6804.png,0.0,0.3565491,3.3583672,-2.122606
alexnet,1,579,NaN,oven,dog,64-10-10,0579_eid_dnn_64-10-10_dog_10_n02088364_14369.png,n02088364_14369.png,0.0,1.0021037,3.9405303,-2.0777814
alexnet,1,580,NaN,bear,truck,32-10-10,0580_eid_dnn_32-10-10_truck_10_n03796401_16425.png,n03796401_16425.png,0.0,-1.6208663,3.3854556,-3.5400043
alexnet,1,581,NaN,oven,truck,64-10-10,0581_eid_dnn_64-10-10_truck_10_n03417042_5406.png,n03417042_5406.png,0.0,-1.4920485,4.026082,-3.9019074
alexnet,1,582,NaN,keyboard,knife,1-10-10,0582_eid_dnn_1-10-10_knife_10_n03041632_52929.png,n03041632_52929.png,0.0,3.9709015,4.4469614,-0.3366252
alexnet,1,583,NaN,bear,chair,64-10-10,0583_eid_dnn_64-10-10_chair_10_n03376595_4820.png,n03376595_4820.png,0.0,0.17303175,3.8529859,-2.6021204
alexnet,1,584,NaN,chair,chair,1-10-10,0584_eid_dnn_1-10-10_chair_10_n03376595_787.png,n03376595_787.png,1.0,6.475072,4.133581,1.655684
alexnet,1,585,NaN,oven,chair,2-10-10,0585_eid_dnn_2-10-10_chair_10_n03376595_7709.png,n03376595_7709.png,0.0,3.069932,5.78411,-1.9192138
alexnet,1,586,NaN,bottle,bottle,1-10-10,0586_eid_dnn_1-10-10_bottle_10_n03983396_11006.png,n03983396_11006.png,1.0,3.520129,2.9630556,0.39391035
alexnet,1,587,NaN,oven,oven,8-10-10,0587_eid_dnn_8-10-10_oven_10_n04111531_458.png,n04111531_458.png,1.0,1.837858,1.7608285,0.054468058
alexnet,1,588,NaN,bear,cat,128-10-10,0588_eid_dnn_128-10-10_cat_10_n02123045_7829.png,n02123045_7829.png,0.0,2.3460755,3.9287877,-1.1191466
alexnet,1,589,NaN,bear,bear,1-10-10,0589_eid_dnn_1-10-10_bear_10_n02134418_4685.png,n02134418_4685.png,1.0,4.2588444,3.0689456,0.8413855
alexnet,1,590,NaN,oven,knife,64-10-10,0590_eid_dnn_64-10-10_knife_10_n03041632_1964.png,n03041632_1964.png,0.0,1.7298563,3.9866896,-1.5958222
alexnet,1,591,NaN,car,car,4-10-10,0591_eid_dnn_4-10-10_car_10_n03100240_17472.png,n03100240_17472.png,1.0,4.0234947,3.0652294,0.6775959
alexnet,1,592,NaN,dog,dog,16-10-10,0592_eid_dnn_16-10-10_dog_10_n02113023_1980.png,n02113023_1980.png,1.0,2.8960474,2.4866533,0.2894853
alexnet,1,593,NaN,airplane,dog,32-10-10,0593_eid_dnn_32-10-10_dog_10_n02100735_6359.png,n02100735_6359.png,0.0,1.9282417,2.64018,-0.5034165
alexnet,1,594,NaN,oven,knife,1-10-10,0594_eid_dnn_1-10-10_knife_10_n03041632_31849.png,n03041632_31849.png,0.0,1.993707,2.885235,-0.6304056
alexnet,1,595,NaN,bear,bird,8-10-10,0595_eid_dnn_8-10-10_bird_10_n01532829_23378.png,n01532829_23378.png,0.0,0.5543347,1.8681686,-0.92902094
alexnet,1,596,NaN,bear,clock,64-10-10,0596_eid_dnn_64-10-10_clock_10_n02708093_5127.png,n02708093_5127.png,0.0,0.52925843,3.1396308,-1.845812
alexnet,1,597,NaN,bear,bear,4-10-10,0597_eid_dnn_4-10-10_bear_10_n02134084_12148.png,n02134084_12148.png,1.0,5.6646004,4.429268,0.87351197
alexnet,1,598,NaN,elephant,elephant,4-10-10,0598_eid_dnn_4-10-10_elephant_10_n02504458_63.png,n02504458_63.png,1.0,7.878578,4.4045076,2.456539
alexnet,1,599,NaN,dog,dog,2-10-10,0599_eid_dnn_2-10-10_dog_10_n02108551_13160.png,n02108551_13160.png,1.0,4.6271124,2.738946,1.3351353
alexnet,1,600,NaN,bicycle,bicycle,2-10-10,0600_eid_dnn_2-10-10_bicycle_10_n02835271_3215.png,n02835271_3215.png,1.0,5.875885,2.9889243,2.0413895
alexnet,1,601,NaN,airplane,bicycle,16-10-10,0601_eid_dnn_16-10-10_bicycle_10_n03792782_14216.png,n03792782_14216.png,0.0,2.1889513,2.8515122,-0.46850133
alexnet,1,602,NaN,bicycle,bicycle,2-10-10,0602_eid_dnn_2-10-10_bicycle_10_n03792782_25352.png,n03792782_25352.png,1.0,13.645092,1.5657678,8.541372
alexnet,1,603,NaN,bear,boat,128-10-10,0603_eid_dnn_128-10-10_boat_10_n04273569_1482.png,n04273569_1482.png,0.0,1.3214798,4.7156844,-2.4000652
alexnet,1,604,NaN,car,car,2-10-10,0604_eid_dnn_2-10-10_car_10_n02814533_59053.png,n02814533_59053.png,1.0,11.735328,9.248873,1.7581892
alexnet,1,605,NaN,elephant,airplane,128-10-10,0605_eid_dnn_128-10-10_airplane_10_n02690373_10462.png,n02690373_10462.png,0.0,-3.0299134,2.0127015,-3.5656674
alexnet,1,606,NaN,dog,bottle,8-10-10,0606_eid_dnn_8-10-10_bottle_10_n04560804_15379.png,n04560804_15379.png,0.0,0.70562077,1.5718417,-0.61251074
alexnet,1,607,NaN,dog,chair,16-10-10,0607_eid_dnn_16-10-10_chair_10_n02791124_1140.png,n02791124_1140.png,0.0,-1.7081361,3.2447813,-3.5022414
alexnet,1,608,NaN,dog,dog,8-10-10,0608_eid_dnn_8-10-10_dog_10_n02101388_24945.png,n02101388_24945.png,1.0,6.320461,2.2172542,2.9014053
alexnet,1,609,NaN,bear,cat,64-10-10,0609_eid_dnn_64-10-10_cat_10_n02124075_20957.png,n02124075_20957.png,0.0,1.9168545,3.7783208,-1.3162555
alexnet,1,610,NaN,elephant,elephant,1-10-10,0610_eid_dnn_1-10-10_elephant_10_n02504013_8105.png,n02504013_8105.png,1.0,4.41123,4.2567625,0.10922508
alexnet,1,611,NaN,truck,truck,2-10-10,0611_eid_dnn_2-10-10_truck_10_n03796401_13992.png,n03796401_13992.png,1.0,6.4988256,3.6544278,2.011293
alexnet,1,612,NaN,elephant,bottle,128-10-10,0612_eid_dnn_128-10-10_bottle_10_n04560804_22426.png,n04560804_22426.png,0.0,1.6889771,4.2042713,-1.7785815
alexnet,1,613,NaN,dog,cat,1-10-10,0613_eid_dnn_1-10-10_cat_10_n02123159_2100.png,n02123159_2100.png,0.0,3.7383053,4.299515,-0.396835
alexnet,1,614,NaN,bear,clock,64-10-10,0614_eid_dnn_64-10-10_clock_10_n02708093_6560.png,n02708093_6560.png,0.0,-0.6557966,4.6086855,-3.722551
alexnet,1,615,NaN,bear,bird,1-10-10,0615_eid_dnn_1-10-10_bird_10_n01855032_4905.png,n01855032_4905.png,0.0,2.0748062,4.2726808,-1.554132
alexnet,1,616,NaN,clock,clock,2-10-10,0616_eid_dnn_2-10-10_clock_10_n04548280_2616.png,n04548280_2616.png,1.0,5.616402,5.1182804,0.35222527
alexnet,1,617,NaN,airplane,truck,2-10-10,0617_eid_dnn_2-10-10_truck_10_n03417042_3789.png,n03417042_3789.png,0.0,8.139799,8.538432,-0.28187612
alexnet,1,618,NaN,bear,oven,64-10-10,0618_eid_dnn_64-10-10_oven_10_n04111531_7356.png,n04111531_7356.png,0.0,2.1675763,3.9325871,-1.2480512
alexnet,1,619,NaN,cat,cat,4-10-10,0619_eid_dnn_4-10-10_cat_10_n02124075_18687.png,n02124075_18687.png,1.0,4.387573,3.5206354,0.6130173
alexnet,1,620,NaN,keyboard,keyboard,8-10-10,0620_eid_dnn_8-10-10_keyboard_10_n03085013_17884.png,n03085013_17884.png,1.0,7.2719517,4.2567477,2.1320713
alexnet,1,621,NaN,keyboard,keyboard,2-10-10,0621_eid_dnn_2-10-10_keyboard_10_n03085013_4780.png,n03085013_4780.png,1.0,13.103142,5.9961257,5.025419
alexnet,1,622,NaN,dog,cat,16-10-10,0622_eid_dnn_16-10-10_cat_10_n02123045_15476.png,n02123045_15476.png,0.0,1.581402,2.9790916,-0.9883159
alexnet,1,623,NaN,keyboard,keyboard,4-10-10,0623_eid_dnn_4-10-10_keyboard_10_n03085013_6095.png,n03085013_6095.png,1.0,6.127262,5.44261,0.4841223
alexnet,1,624,NaN,airplane,airplane,1-10-10,0624_eid_dnn_1-10-10_airplane_10_n02690373_18848.png,n02690373_18848.png,1.0,15.380111,2.3723822,9.197853
alexnet,1,625,NaN,oven,bicycle,16-10-10,0625_eid_dnn_16-10-10_bicycle_10_n02835271_18706.png,n02835271_18706.png,0.0,-0.18589902,4.315113,-3.182696
alexnet,1,626,NaN,dog,dog,1-10-10,0626_eid_dnn_1-10-10_dog_10_n02111500_1393.png,n02111500_1393.png,1.0,4.134694,3.8361871,0.2110763
alexnet,1,627,NaN,airplane,airplane,2-10-10,0627_eid_dnn_2-10-10_airplane_10_n02690373_5748.png,n02690373_5748.png,1.0,15.6766815,5.083457,7.490541
alexnet,1,628,NaN,elephant,dog,128-10-10,0628_eid_dnn_128-10-10_dog_10_n02100877_7049.png,n02100877_7049.png,0.0,1.5644103,4.1291137,-1.8135192
alexnet,1,629,NaN,bear,bear,32-10-10,0629_eid_dnn_32-10-10_bear_10_n02134084_6854.png,n02134084_6854.png,1.0,3.807206,2.8971946,0.6434752
alexnet,1,630,NaN,knife,bottle,16-10-10,0630_eid_dnn_16-10-10_bottle_10_n03983396_11402.png,n03983396_11402.png,0.0,0.2645772,2.3540804,-1.477502
alexnet,1,631,NaN,oven,cat,64-10-10,0631_eid_dnn_64-10-10_cat_10_n02124075_2813.png,n02124075_2813.png,0.0,0.99923515,5.283161,-3.0291932
alexnet,1,632,NaN,dog,keyboard,32-10-10,0632_eid_dnn_32-10-10_keyboard_10_n03085013_23814.png,n03085013_23814.png,0.0,-2.9315012,2.2950041,-3.6956973
alexnet,1,633,NaN,cat,cat,2-10-10,0633_eid_dnn_2-10-10_cat_10_n02125311_30349.png,n02125311_30349.png,1.0,2.9851701,2.8591473,0.08911159
alexnet,1,634,NaN,bear,bear,16-10-10,0634_eid_dnn_16-10-10_bear_10_n02133161_1234.png,n02133161_1234.png,1.0,4.2365336,2.6485143,1.1228993
alexnet,1,635,NaN,bear,oven,128-10-10,0635_eid_dnn_128-10-10_oven_10_n04111531_9779.png,n04111531_9779.png,0.0,1.3679096,3.0574884,-1.1947128
alexnet,1,636,NaN,bear,car,64-10-10,0636_eid_dnn_64-10-10_car_10_n02814533_19373.png,n02814533_19373.png,0.0,-3.8221223,3.9746766,-5.5131693
alexnet,1,637,NaN,bottle,bird,4-10-10,0637_eid_dnn_4-10-10_bird_10_n02051845_41380.png,n02051845_41380.png,0.0,-0.24207555,0.9382852,-0.83464104
alexnet,1,638,NaN,oven,cat,16-10-10,0638_eid_dnn_16-10-10_cat_10_n02123159_2455.png,n02123159_2455.png,0.0,2.269453,3.4212341,-0.8144322
alexnet,1,639,NaN,knife,knife,8-10-10,0639_eid_dnn_8-10-10_knife_10_n03041632_23803.png,n03041632_23803.png,1.0,4.293873,2.4491467,1.3044183
alexnet,1,640,NaN,dog,boat,16-10-10,0640_eid_dnn_16-10-10_boat_10_n02951358_2013.png,n02951358_2013.png,0.0,-0.09836445,2.6551847,-1.9470533
alexnet,1,641,NaN,elephant,bottle,64-10-10,0641_eid_dnn_64-10-10_bottle_10_n04591713_6561.png,n04591713_6561.png,0.0,0.37005478,3.2084613,-2.0070565
alexnet,1,642,NaN,bear,elephant,32-10-10,0642_eid_dnn_32-10-10_elephant_10_n02504013_12531.png,n02504013_12531.png,0.0,1.3446094,4.161831,-1.9920765
alexnet,1,643,NaN,boat,boat,64-10-10,0643_eid_dnn_64-10-10_boat_10_n04612504_4719.png,n04612504_4719.png,1.0,1.5214794,1.4539509,0.04774985
alexnet,1,644,NaN,oven,car,32-10-10,0644_eid_dnn_32-10-10_car_10_n02814533_46403.png,n02814533_46403.png,0.0,-2.5678406,2.8325176,-3.81863
alexnet,1,645,NaN,airplane,airplane,8-10-10,0645_eid_dnn_8-10-10_airplane_10_n02690373_8304.png,n02690373_8304.png,1.0,11.816269,2.8371944,6.3491645
alexnet,1,646,NaN,boat,boat,16-10-10,0646_eid_dnn_16-10-10_boat_10_n03662601_2686.png,n03662601_2686.png,1.0,2.6861188,1.8628579,0.58213335
alexnet,1,647,NaN,dog,dog,2-10-10,0647_eid_dnn_2-10-10_dog_10_n02099849_2787.png,n02099849_2787.png,1.0,4.7894735,3.688369,0.7785985
alexnet,1,648,NaN,elephant,elephant,1-10-10,0648_eid_dnn_1-10-10_elephant_10_n02504458_7063.png,n02504458_7063.png,1.0,8.485743,5.6253123,2.0226297
alexnet,1,649,NaN,keyboard,chair,1-10-10,0649_eid_dnn_1-10-10_chair_10_n03376595_6938.png,n03376595_6938.png,0.0,4.100864,4.462704,-0.2558597
alexnet,1,650,NaN,oven,chair,8-10-10,0650_eid_dnn_8-10-10_chair_10_n02791124_5191.png,n02791124_5191.png,0.0,2.3062909,3.3698897,-0.752078
alexnet,1,651,NaN,boat,boat,2-10-10,0651_eid_dnn_2-10-10_boat_10_n02951358_2350.png,n02951358_2350.png,1.0,5.09551,4.6847095,0.29047978
alexnet,1,652,NaN,bear,bear,8-10-10,0652_eid_dnn_8-10-10_bear_10_n02132136_6266.png,n02132136_6266.png,1.0,3.1057568,1.8143622,0.9131539
alexnet,1,653,NaN,bear,chair,32-10-10,0653_eid_dnn_32-10-10_chair_10_n03376595_8964.png,n03376595_8964.png,0.0,0.9469264,4.2567625,-2.3404076
alexnet,1,654,NaN,airplane,airplane,2-10-10,0654_eid_dnn_2-10-10_airplane_10_n02690373_4042.png,n02690373_4042.png,1.0,15.180277,5.088448,7.136001
alexnet,1,655,NaN,oven,oven,2-10-10,0655_eid_dnn_2-10-10_oven_10_n04111531_845.png,n04111531_845.png,1.0,5.7919254,3.2834835,1.7737364
alexnet,1,656,NaN,bear,car,32-10-10,0656_eid_dnn_32-10-10_car_10_n02814533_49630.png,n02814533_49630.png,0.0,-3.12371,3.183082,-4.4595757
alexnet,1,657,NaN,knife,knife,4-10-10,0657_eid_dnn_4-10-10_knife_10_n03041632_40450.png,n03041632_40450.png,1.0,7.0975685,4.057292,2.1498003
alexnet,1,658,NaN,dog,chair,16-10-10,0658_eid_dnn_16-10-10_chair_10_n04429376_11720.png,n04429376_11720.png,0.0,0.22943605,2.0500352,-1.287358
alexnet,1,659,NaN,clock,knife,4-10-10,0659_eid_dnn_4-10-10_knife_10_n03041632_27929.png,n03041632_27929.png,0.0,1.7933819,2.4863727,-0.4900185
alexnet,1,660,NaN,elephant,bird,1-10-10,0660_eid_dnn_1-10-10_bird_10_n02018207_10146.png,n02018207_10146.png,0.0,-0.017045226,2.920412,-2.077096
alexnet,1,661,NaN,bear,elephant,32-10-10,0661_eid_dnn_32-10-10_elephant_10_n02504458_2471.png,n02504458_2471.png,0.0,2.5120845,5.460062,-2.084535
alexnet,1,662,NaN,bottle,oven,8-10-10,0662_eid_dnn_8-10-10_oven_10_n04111531_20511.png,n04111531_20511.png,0.0,2.5629437,3.3248158,-0.5387249
alexnet,1,663,NaN,truck,truck,32-10-10,0663_eid_dnn_32-10-10_truck_10_n03417042_3228.png,n03417042_3228.png,1.0,2.6162517,2.5578592,0.04128975
alexnet,1,664,NaN,cat,cat,2-10-10,0664_eid_dnn_2-10-10_cat_10_n02125311_9364.png,n02125311_9364.png,1.0,10.377509,2.2477994,5.748573
alexnet,1,665,NaN,car,car,2-10-10,0665_eid_dnn_2-10-10_car_10_n04285008_16701.png,n04285008_16701.png,1.0,15.873157,8.064936,5.521246
alexnet,1,666,NaN,boat,boat,8-10-10,0666_eid_dnn_8-10-10_boat_10_n04273569_2667.png,n04273569_2667.png,1.0,5.260998,2.6504588,1.8459299
alexnet,1,667,NaN,airplane,boat,1-10-10,0667_eid_dnn_1-10-10_boat_10_n03662601_24208.png,n03662601_24208.png,0.0,4.03673,6.0474477,-1.4217923
alexnet,1,668,NaN,bear,truck,8-10-10,0668_eid_dnn_8-10-10_truck_10_n03417042_11037.png,n03417042_11037.png,0.0,0.56822944,2.678946,-1.492502
alexnet,1,669,NaN,bear,bird,1-10-10,0669_eid_dnn_1-10-10_bird_10_n02002724_19618.png,n02002724_19618.png,0.0,0.063005984,4.111828,-2.8629494
alexnet,1,670,NaN,oven,bear,16-10-10,0670_eid_dnn_16-10-10_bear_10_n02134418_1663.png,n02134418_1663.png,0.0,2.669571,2.8168166,-0.1041184
alexnet,1,671,NaN,bear,chair,128-10-10,0671_eid_dnn_128-10-10_chair_10_n04099969_19484.png,n04099969_19484.png,0.0,0.20321083,4.902555,-3.3229382
alexnet,1,672,NaN,car,car,1-10-10,0672_eid_dnn_1-10-10_car_10_n04285008_2727.png,n04285008_2727.png,1.0,12.362221,8.736875,2.5635068
alexnet,1,673,NaN,dog,bicycle,32-10-10,0673_eid_dnn_32-10-10_bicycle_10_n03792782_14935.png,n03792782_14935.png,0.0,0.6666269,3.2401733,-1.8197721
alexnet,1,674,NaN,oven,cat,128-10-10,0674_eid_dnn_128-10-10_cat_10_n02124075_8320.png,n02124075_8320.png,0.0,0.109986745,3.9402046,-2.708373
alexnet,1,675,NaN,chair,chair,4-10-10,0675_eid_dnn_4-10-10_chair_10_n04429376_57014.png,n04429376_57014.png,1.0,3.8873699,2.6032567,0.9080051
alexnet,1,676,NaN,knife,oven,1-10-10,0676_eid_dnn_1-10-10_oven_10_n04111531_2385.png,n04111531_2385.png,0.0,4.229214,4.613253,-0.27155653
alexnet,1,677,NaN,bear,dog,64-10-10,0677_eid_dnn_64-10-10_dog_10_n02113023_10107.png,n02113023_10107.png,0.0,1.1173778,3.792358,-1.8914967
alexnet,1,678,NaN,bear,elephant,16-10-10,0678_eid_dnn_16-10-10_elephant_10_n02504458_4708.png,n02504458_4708.png,0.0,0.6990173,3.7385752,-2.149292
alexnet,1,679,NaN,oven,truck,64-10-10,0679_eid_dnn_64-10-10_truck_10_n04467665_70694.png,n04467665_70694.png,0.0,-0.61242783,2.8848424,-2.4729435
alexnet,1,680,NaN,bird,bird,1-10-10,0680_eid_dnn_1-10-10_bird_10_n01843065_1179.png,n01843065_1179.png,1.0,1.7389667,1.6898644,0.034720574
alexnet,1,681,NaN,chair,truck,1-10-10,0681_eid_dnn_1-10-10_truck_10_n03417042_11475.png,n03417042_11475.png,0.0,3.209103,4.0636544,-0.604259
alexnet,1,682,NaN,cat,bicycle,64-10-10,0682_eid_dnn_64-10-10_bicycle_10_n02835271_6137.png,n02835271_6137.png,0.0,1.5146297,3.370354,-1.3121952
alexnet,1,683,NaN,knife,airplane,16-10-10,0683_eid_dnn_16-10-10_airplane_10_n02690373_10001.png,n02690373_10001.png,0.0,1.3448759,2.431663,-0.7684745
alexnet,1,684,NaN,cat,cat,2-10-10,0684_eid_dnn_2-10-10_cat_10_n02124075_17347.png,n02124075_17347.png,1.0,8.810056,2.5308824,4.4400463
alexnet,1,685,NaN,knife,keyboard,16-10-10,0685_eid_dnn_16-10-10_keyboard_10_n04505470_647.png,n04505470_647.png,0.0,-5.1366353,1.3793504,-4.6074977
alexnet,1,686,NaN,knife,bottle,4-10-10,0686_eid_dnn_4-10-10_bottle_10_n03983396_3028.png,n03983396_3028.png,0.0,0.56370795,3.3299367,-1.956019
alexnet,1,687,NaN,car,car,1-10-10,0687_eid_dnn_1-10-10_car_10_n02814533_81090.png,n02814533_81090.png,1.0,11.482414,10.502605,0.6928295
alexnet,1,688,NaN,bear,truck,32-10-10,0688_eid_dnn_32-10-10_truck_10_n03417042_18152.png,n03417042_18152.png,0.0,-0.7618206,3.6957603,-3.151986
alexnet,1,689,NaN,bottle,bird,128-10-10,0689_eid_dnn_128-10-10_bird_10_n02033041_617.png,n02033041_617.png,0.0,-1.2892135,2.5359294,-2.7047844
alexnet,1,690,NaN,bear,cat,64-10-10,0690_eid_dnn_64-10-10_cat_10_n02123159_7270.png,n02123159_7270.png,0.0,1.6404786,2.0922227,-0.3194313
alexnet,1,691,NaN,bear,bird,64-10-10,0691_eid_dnn_64-10-10_bird_10_n01532829_20405.png,n01532829_20405.png,0.0,-1.6263424,4.8407273,-4.572909
alexnet,1,692,NaN,dog,bottle,32-10-10,0692_eid_dnn_32-10-10_bottle_10_n04557648_182.png,n04557648_182.png,0.0,0.6259142,2.808918,-1.5436169
alexnet,1,693,NaN,bear,car,64-10-10,0693_eid_dnn_64-10-10_car_10_n04285008_11745.png,n04285008_11745.png,0.0,-2.3554704,3.2400088,-3.9566011
alexnet,1,694,NaN,cat,bear,4-10-10,0694_eid_dnn_4-10-10_bear_10_n02134084_38915.png,n02134084_38915.png,0.0,3.9307554,4.144567,-0.15118766
alexnet,1,695,NaN,keyboard,keyboard,8-10-10,0695_eid_dnn_8-10-10_keyboard_10_n03085013_21066.png,n03085013_21066.png,1.0,5.0591516,3.2720735,1.2636551
alexnet,1,696,NaN,bear,bear,2-10-10,0696_eid_dnn_2-10-10_bear_10_n02133161_6458.png,n02133161_6458.png,1.0,4.7175217,3.1933663,1.0777407
alexnet,1,697,NaN,oven,truck,128-10-10,0697_eid_dnn_128-10-10_truck_10_n04467665_67909.png,n04467665_67909.png,0.0,0.22324395,3.3999617,-2.2462788
alexnet,1,698,NaN,keyboard,car,4-10-10,0698_eid_dnn_4-10-10_car_10_n04285008_12691.png,n04285008_12691.png,0.0,2.5276964,3.9323246,-0.9932222
alexnet,1,699,NaN,airplane,truck,8-10-10,0699_eid_dnn_8-10-10_truck_10_n04467665_69882.png,n04467665_69882.png,0.0,4.5708523,5.5716896,-0.7076989
