subj,session,trial,rt,object_response,category,condition,imagename,filename,is_correct,targ_act,max_nontarg_act,decision_margin
bagnet33,1,1,NaN,oven,oven,1-10-10,0001_eid_dnn_1-10-10_oven_10_n04111531_17072.png,n04111531_17072.png,1.0,7.9090714,2.8463275,3.5799007
bagnet33,1,2,NaN,bear,airplane,16-10-10,0002_eid_dnn_16-10-10_airplane_10_n02690373_4183.png,n02690373_4183.png,0.0,-0.6561696,2.5461879,-2.2644088
bagnet33,1,3,NaN,bottle,car,8-10-10,0003_eid_dnn_8-10-10_car_10_n03100240_1137.png,n03100240_1137.png,0.0,-2.2390358,2.054842,-3.03623
bagnet33,1,4,NaN,clock,clock,2-10-10,0004_eid_dnn_2-10-10_clock_10_n04548280_7083.png,n04548280_7083.png,1.0,9.173878,2.9994843,4.365956
bagnet33,1,5,NaN,bottle,bottle,2-10-10,0005_eid_dnn_2-10-10_bottle_10_n02823428_7810.png,n02823428_7810.png,1.0,9.266563,4.320823,3.4971664
bagnet33,1,6,NaN,elephant,dog,128-10-10,0006_eid_dnn_128-10-10_dog_10_n02091244_8368.png,n02091244_8368.png,0.0,2.0764427,5.560042,-2.4632766
bagnet33,1,7,NaN,bicycle,bicycle,1-10-10,0007_eid_dnn_1-10-10_bicycle_10_n02835271_2930.png,n02835271_2930.png,1.0,5.414097,3.2110748,1.5577718
bagnet33,1,8,NaN,cat,knife,4-10-10,0008_eid_dnn_4-10-10_knife_10_n03041632_52848.png,n03041632_52848.png,0.0,1.8218076,3.9327,-1.4926263
bagnet33,1,9,NaN,bottle,bottle,2-10-10,0009_eid_dnn_2-10-10_bottle_10_n02823428_4097.png,n02823428_4097.png,1.0,10.830576,4.426489,4.5283732
bagnet33,1,10,NaN,dog,dog,8-10-10,0010_eid_dnn_8-10-10_dog_10_n02105641_10264.png,n02105641_10264.png,1.0,4.375378,2.1303914,1.5874454
bagnet33,1,11,NaN,elephant,boat,8-10-10,0011_eid_dnn_8-10-10_boat_10_n03662601_10278.png,n03662601_10278.png,0.0,0.47064638,2.5879285,-1.4971446
bagnet33,1,12,NaN,elephant,truck,32-10-10,0012_eid_dnn_32-10-10_truck_10_n04467665_76958.png,n04467665_76958.png,0.0,-1.4090123,2.3189006,-2.6360326
bagnet33,1,13,NaN,oven,dog,16-10-10,0013_eid_dnn_16-10-10_dog_10_n02088238_12552.png,n02088238_12552.png,0.0,0.6287599,2.5577304,-1.3639882
bagnet33,1,14,NaN,knife,dog,8-10-10,0014_eid_dnn_8-10-10_dog_10_n02102040_994.png,n02102040_994.png,0.0,-0.7513404,3.1647177,-2.7690713
bagnet33,1,15,NaN,elephant,bear,128-10-10,0015_eid_dnn_128-10-10_bear_10_n02133161_1944.png,n02133161_1944.png,0.0,1.4084617,5.1098022,-2.617243
bagnet33,1,16,NaN,dog,car,16-10-10,0016_eid_dnn_16-10-10_car_10_n02814533_43040.png,n02814533_43040.png,0.0,-3.8333771,1.9392403,-4.0818567
bagnet33,1,17,NaN,elephant,oven,128-10-10,0017_eid_dnn_128-10-10_oven_10_n04111531_18592.png,n04111531_18592.png,0.0,-0.43764707,3.6450162,-2.8868787
bagnet33,1,18,NaN,elephant,chair,16-10-10,0018_eid_dnn_16-10-10_chair_10_n02791124_4294.png,n02791124_4294.png,0.0,-0.7426065,2.152401,-2.0470796
bagnet33,1,19,NaN,cat,knife,32-10-10,0019_eid_dnn_32-10-10_knife_10_n03041632_2630.png,n03041632_2630.png,0.0,-0.24571675,4.0931687,-3.0680554
bagnet33,1,20,NaN,elephant,elephant,1-10-10,0020_eid_dnn_1-10-10_elephant_10_n02504458_723.png,n02504458_723.png,1.0,19.510221,2.7656763,11.840181
bagnet33,1,21,NaN,boat,chair,4-10-10,0021_eid_dnn_4-10-10_chair_10_n03376595_6107.png,n03376595_6107.png,0.0,1.9638162,2.160057,-0.13876328
bagnet33,1,22,NaN,cat,clock,32-10-10,0022_eid_dnn_32-10-10_clock_10_n03196217_1337.png,n03196217_1337.png,0.0,-0.7964506,2.824136,-2.5601413
bagnet33,1,23,NaN,elephant,boat,128-10-10,0023_eid_dnn_128-10-10_boat_10_n02951358_9550.png,n02951358_9550.png,0.0,-1.3876727,3.662043,-3.5706885
bagnet33,1,24,NaN,bottle,bird,128-10-10,0024_eid_dnn_128-10-10_bird_10_n01616318_2334.png,n01616318_2334.png,0.0,-1.5084431,4.3901715,-4.170951
bagnet33,1,25,NaN,knife,bottle,32-10-10,0025_eid_dnn_32-10-10_bottle_10_n03937543_1658.png,n03937543_1658.png,0.0,3.0767882,4.1180773,-0.7363026
bagnet33,1,26,NaN,elephant,elephant,2-10-10,0026_eid_dnn_2-10-10_elephant_10_n02504013_6731.png,n02504013_6731.png,1.0,5.7310963,2.6204877,2.1995325
bagnet33,1,27,NaN,keyboard,keyboard,4-10-10,0027_eid_dnn_4-10-10_keyboard_10_n04505470_4447.png,n04505470_4447.png,1.0,36.353317,7.653506,20.293833
bagnet33,1,28,NaN,airplane,airplane,1-10-10,0028_eid_dnn_1-10-10_airplane_10_n02690373_4839.png,n02690373_4839.png,1.0,15.873627,2.865236,9.198321
bagnet33,1,29,NaN,knife,keyboard,64-10-10,0029_eid_dnn_64-10-10_keyboard_10_n04505470_1651.png,n04505470_1651.png,0.0,-0.06680578,2.4067597,-1.749075
bagnet33,1,30,NaN,cat,keyboard,32-10-10,0030_eid_dnn_32-10-10_keyboard_10_n03085013_20601.png,n03085013_20601.png,0.0,0.81612283,3.3890867,-1.8193603
bagnet33,1,31,NaN,bottle,airplane,64-10-10,0031_eid_dnn_64-10-10_airplane_10_n02690373_2217.png,n02690373_2217.png,0.0,-0.9587612,3.6207526,-3.2382052
bagnet33,1,32,NaN,knife,bicycle,4-10-10,0032_eid_dnn_4-10-10_bicycle_10_n03792782_25019.png,n03792782_25019.png,0.0,0.15348774,3.2357287,-2.1794736
bagnet33,1,33,NaN,knife,cat,8-10-10,0033_eid_dnn_8-10-10_cat_10_n02123597_13890.png,n02123597_13890.png,0.0,0.5363061,3.4833024,-2.083841
bagnet33,1,34,NaN,airplane,boat,1-10-10,0034_eid_dnn_1-10-10_boat_10_n04612504_214.png,n04612504_214.png,0.0,5.7634296,7.3793354,-1.142618
bagnet33,1,35,NaN,elephant,chair,128-10-10,0035_eid_dnn_128-10-10_chair_10_n02791124_2555.png,n02791124_2555.png,0.0,-0.16646215,3.9894953,-2.9387057
bagnet33,1,36,NaN,truck,car,4-10-10,0036_eid_dnn_4-10-10_car_10_n04285008_2081.png,n04285008_2081.png,0.0,0.9338471,1.6941731,-0.53763163
bagnet33,1,37,NaN,dog,dog,32-10-10,0037_eid_dnn_32-10-10_dog_10_n02094114_8202.png,n02094114_8202.png,1.0,2.9121346,1.493595,1.003059
bagnet33,1,38,NaN,knife,chair,64-10-10,0038_eid_dnn_64-10-10_chair_10_n04099969_4541.png,n04099969_4541.png,0.0,-0.5577321,2.8610115,-2.4174168
bagnet33,1,39,NaN,knife,boat,128-10-10,0039_eid_dnn_128-10-10_boat_10_n04612504_12864.png,n04612504_12864.png,0.0,-1.3262751,2.791329,-2.911586
bagnet33,1,40,NaN,knife,airplane,4-10-10,0040_eid_dnn_4-10-10_airplane_10_n02690373_18460.png,n02690373_18460.png,0.0,1.379902,2.4250371,-0.73902214
bagnet33,1,41,NaN,cat,bottle,64-10-10,0041_eid_dnn_64-10-10_bottle_10_n03983396_8982.png,n03983396_8982.png,0.0,0.26229993,1.6130319,-0.95511174
bagnet33,1,42,NaN,knife,dog,16-10-10,0042_eid_dnn_16-10-10_dog_10_n02099601_10407.png,n02099601_10407.png,0.0,-0.65713423,2.7503057,-2.4094238
bagnet33,1,43,NaN,bear,airplane,32-10-10,0043_eid_dnn_32-10-10_airplane_10_n02690373_5253.png,n02690373_5253.png,0.0,-0.08218473,2.8879633,-2.1002119
bagnet33,1,44,NaN,elephant,elephant,2-10-10,0044_eid_dnn_2-10-10_elephant_10_n02504013_2832.png,n02504013_2832.png,1.0,7.1801972,1.2988422,4.1587462
bagnet33,1,45,NaN,clock,clock,1-10-10,0045_eid_dnn_1-10-10_clock_10_n02708093_8002.png,n02708093_8002.png,1.0,12.082584,3.9796648,5.7296295
bagnet33,1,46,NaN,knife,chair,2-10-10,0046_eid_dnn_2-10-10_chair_10_n03376595_1766.png,n03376595_1766.png,0.0,3.4687915,3.5021687,-0.023601225
bagnet33,1,47,NaN,truck,truck,2-10-10,0047_eid_dnn_2-10-10_truck_10_n03417042_17616.png,n03417042_17616.png,1.0,7.062844,3.0815446,2.8152037
bagnet33,1,48,NaN,knife,bear,16-10-10,0048_eid_dnn_16-10-10_bear_10_n02134418_2804.png,n02134418_2804.png,0.0,1.3218582,1.5646813,-0.17170188
bagnet33,1,49,NaN,elephant,car,64-10-10,0049_eid_dnn_64-10-10_car_10_n04285008_12101.png,n04285008_12101.png,0.0,-4.5386906,3.3912857,-5.6073403
bagnet33,1,50,NaN,elephant,bear,16-10-10,0050_eid_dnn_16-10-10_bear_10_n02134418_3828.png,n02134418_3828.png,0.0,1.3481591,2.3397384,-0.70115244
bagnet33,1,51,NaN,bird,bird,2-10-10,0051_eid_dnn_2-10-10_bird_10_n01530575_5747.png,n01530575_5747.png,1.0,3.477609,3.032005,0.3150895
bagnet33,1,52,NaN,elephant,truck,128-10-10,0052_eid_dnn_128-10-10_truck_10_n03796401_3386.png,n03796401_3386.png,0.0,-2.8904874,6.4947314,-6.636352
bagnet33,1,53,NaN,keyboard,keyboard,16-10-10,0053_eid_dnn_16-10-10_keyboard_10_n04505470_3234.png,n04505470_3234.png,1.0,4.5945597,2.9578168,1.157352
bagnet33,1,54,NaN,airplane,truck,1-10-10,0054_eid_dnn_1-10-10_truck_10_n04467665_72639.png,n04467665_72639.png,0.0,7.394326,9.467974,-1.4662902
bagnet33,1,55,NaN,cat,chair,32-10-10,0055_eid_dnn_32-10-10_chair_10_n04429376_27524.png,n04429376_27524.png,0.0,-2.6007445,3.6854782,-4.4450307
bagnet33,1,56,NaN,knife,bottle,64-10-10,0056_eid_dnn_64-10-10_bottle_10_n04557648_11440.png,n04557648_11440.png,0.0,2.4657962,3.2717042,-0.569863
bagnet33,1,57,NaN,cat,keyboard,32-10-10,0057_eid_dnn_32-10-10_keyboard_10_n03085013_20216.png,n03085013_20216.png,0.0,-0.95422286,2.6030266,-2.5153553
bagnet33,1,58,NaN,bear,boat,8-10-10,0058_eid_dnn_8-10-10_boat_10_n02951358_34653.png,n02951358_34653.png,0.0,-1.890968,1.8423482,-2.6398532
bagnet33,1,59,NaN,keyboard,keyboard,2-10-10,0059_eid_dnn_2-10-10_keyboard_10_n03085013_8932.png,n03085013_8932.png,1.0,15.117455,3.6716573,8.093401
bagnet33,1,60,NaN,cat,cat,1-10-10,0060_eid_dnn_1-10-10_cat_10_n02125311_35338.png,n02125311_35338.png,1.0,2.6931572,1.6209759,0.7581467
bagnet33,1,61,NaN,cat,bicycle,16-10-10,0061_eid_dnn_16-10-10_bicycle_10_n03792782_5449.png,n03792782_5449.png,0.0,-2.9630673,3.879789,-4.83863
bagnet33,1,62,NaN,elephant,bicycle,4-10-10,0062_eid_dnn_4-10-10_bicycle_10_n03792782_9432.png,n03792782_9432.png,0.0,1.1102552,3.1596942,-1.4491723
bagnet33,1,63,NaN,oven,bottle,1-10-10,0063_eid_dnn_1-10-10_bottle_10_n04591713_4291.png,n04591713_4291.png,0.0,4.7026954,6.7614646,-1.4557697
bagnet33,1,64,NaN,knife,truck,4-10-10,0064_eid_dnn_4-10-10_truck_10_n04467665_67057.png,n04467665_67057.png,0.0,2.989797,4.0789146,-0.7701224
bagnet33,1,65,NaN,keyboard,keyboard,1-10-10,0065_eid_dnn_1-10-10_keyboard_10_n03085013_22790.png,n03085013_22790.png,1.0,9.4163265,4.1731987,3.7074513
bagnet33,1,66,NaN,knife,dog,4-10-10,0066_eid_dnn_4-10-10_dog_10_n02086079_2896.png,n02086079_2896.png,0.0,1.0184232,1.8402822,-0.58114207
bagnet33,1,67,NaN,knife,knife,8-10-10,0067_eid_dnn_8-10-10_knife_10_n03041632_40508.png,n03041632_40508.png,1.0,2.1327589,1.4619589,0.4743272
bagnet33,1,68,NaN,chair,boat,1-10-10,0068_eid_dnn_1-10-10_boat_10_n03344393_7942.png,n03344393_7942.png,0.0,2.5920134,3.404457,-0.57448447
bagnet33,1,69,NaN,bear,bear,2-10-10,0069_eid_dnn_2-10-10_bear_10_n02134418_4352.png,n02134418_4352.png,1.0,4.293496,4.0686073,0.1590204
bagnet33,1,70,NaN,oven,cat,16-10-10,0070_eid_dnn_16-10-10_cat_10_n02123045_5157.png,n02123045_5157.png,0.0,1.6403242,3.104163,-1.0350903
bagnet33,1,71,NaN,dog,dog,16-10-10,0071_eid_dnn_16-10-10_dog_10_n02109047_14287.png,n02109047_14287.png,1.0,1.8587632,1.8340663,0.017463379
bagnet33,1,72,NaN,truck,truck,2-10-10,0072_eid_dnn_2-10-10_truck_10_n03417042_14274.png,n03417042_14274.png,1.0,9.022076,5.8262625,2.2597811
bagnet33,1,73,NaN,bicycle,airplane,2-10-10,0073_eid_dnn_2-10-10_airplane_10_n02690373_5885.png,n02690373_5885.png,0.0,0.6061418,2.041682,-1.0150802
bagnet33,1,74,NaN,bear,cat,32-10-10,0074_eid_dnn_32-10-10_cat_10_n02123394_571.png,n02123394_571.png,0.0,0.20978077,1.4955626,-0.909185
bagnet33,1,75,NaN,oven,cat,32-10-10,0075_eid_dnn_32-10-10_cat_10_n02123045_10171.png,n02123045_10171.png,0.0,1.3268582,1.9775901,-0.46013695
bagnet33,1,76,NaN,knife,bottle,8-10-10,0076_eid_dnn_8-10-10_bottle_10_n04560804_4909.png,n04560804_4909.png,0.0,3.2499592,3.3084953,-0.041391242
bagnet33,1,77,NaN,keyboard,keyboard,8-10-10,0077_eid_dnn_8-10-10_keyboard_10_n03085013_7971.png,n03085013_7971.png,1.0,4.2373996,3.9524329,0.20150189
bagnet33,1,78,NaN,cat,keyboard,16-10-10,0078_eid_dnn_16-10-10_keyboard_10_n03085013_21397.png,n03085013_21397.png,0.0,-0.38948086,1.8594341,-1.5902231
bagnet33,1,79,NaN,knife,elephant,32-10-10,0079_eid_dnn_32-10-10_elephant_10_n02504458_4187.png,n02504458_4187.png,0.0,1.7204382,2.343237,-0.4403852
bagnet33,1,80,NaN,knife,clock,8-10-10,0080_eid_dnn_8-10-10_clock_10_n03196217_6689.png,n03196217_6689.png,0.0,-0.50558156,1.6395462,-1.5168344
bagnet33,1,81,NaN,knife,knife,4-10-10,0081_eid_dnn_4-10-10_knife_10_n03041632_26236.png,n03041632_26236.png,1.0,2.9480824,1.9020594,0.73964995
bagnet33,1,82,NaN,knife,car,8-10-10,0082_eid_dnn_8-10-10_car_10_n03100240_1262.png,n03100240_1262.png,0.0,-0.9628779,1.2645133,-1.5750035
bagnet33,1,83,NaN,elephant,keyboard,64-10-10,0083_eid_dnn_64-10-10_keyboard_10_n04505470_5059.png,n04505470_5059.png,0.0,-0.6111146,1.6898105,-1.6269999
bagnet33,1,84,NaN,oven,bird,1-10-10,0084_eid_dnn_1-10-10_bird_10_n01537544_26417.png,n01537544_26417.png,0.0,1.8903195,3.1595578,-0.89748704
bagnet33,1,85,NaN,knife,bird,32-10-10,0085_eid_dnn_32-10-10_bird_10_n02009912_5714.png,n02009912_5714.png,0.0,-1.8757513,2.0024836,-2.7423263
bagnet33,1,86,NaN,elephant,chair,128-10-10,0086_eid_dnn_128-10-10_chair_10_n03376595_5972.png,n03376595_5972.png,0.0,-1.6957388,4.1270494,-4.117333
bagnet33,1,87,NaN,chair,chair,2-10-10,0087_eid_dnn_2-10-10_chair_10_n04429376_805.png,n04429376_805.png,1.0,3.3938584,2.9527142,0.31193608
bagnet33,1,88,NaN,elephant,bicycle,128-10-10,0088_eid_dnn_128-10-10_bicycle_10_n03792782_4083.png,n03792782_4083.png,0.0,-2.0204506,2.8076982,-3.414017
bagnet33,1,89,NaN,clock,clock,1-10-10,0089_eid_dnn_1-10-10_clock_10_n02708093_798.png,n02708093_798.png,1.0,4.700924,3.7338111,0.683852
bagnet33,1,90,NaN,bear,bear,1-10-10,0090_eid_dnn_1-10-10_bear_10_n02133161_1660.png,n02133161_1660.png,1.0,5.1014943,3.1300945,1.3939902
bagnet33,1,91,NaN,knife,car,8-10-10,0091_eid_dnn_8-10-10_car_10_n04285008_9464.png,n04285008_9464.png,0.0,-3.799596,2.729703,-4.6169114
bagnet33,1,92,NaN,cat,oven,16-10-10,0092_eid_dnn_16-10-10_oven_10_n04111531_3314.png,n04111531_3314.png,0.0,2.1656098,3.7574546,-1.1256043
bagnet33,1,93,NaN,knife,cat,128-10-10,0093_eid_dnn_128-10-10_cat_10_n02123394_5753.png,n02123394_5753.png,0.0,1.3973242,3.6936848,-1.6237721
bagnet33,1,94,NaN,boat,boat,2-10-10,0094_eid_dnn_2-10-10_boat_10_n02951358_34042.png,n02951358_34042.png,1.0,2.7835617,2.4091034,0.264782
bagnet33,1,95,NaN,elephant,truck,64-10-10,0095_eid_dnn_64-10-10_truck_10_n03417042_7588.png,n03417042_7588.png,0.0,-2.2617784,3.8661947,-4.3331313
bagnet33,1,96,NaN,elephant,truck,32-10-10,0096_eid_dnn_32-10-10_truck_10_n03417042_4200.png,n03417042_4200.png,0.0,-1.9365171,2.124124,-2.8713071
bagnet33,1,97,NaN,airplane,airplane,4-10-10,0097_eid_dnn_4-10-10_airplane_10_n02690373_4335.png,n02690373_4335.png,1.0,4.0328283,2.848284,0.83759934
bagnet33,1,98,NaN,elephant,elephant,128-10-10,0098_eid_dnn_128-10-10_elephant_10_n02504458_6823.png,n02504458_6823.png,1.0,3.566585,2.2899182,0.9027398
bagnet33,1,99,NaN,boat,boat,4-10-10,0099_eid_dnn_4-10-10_boat_10_n03344393_4214.png,n03344393_4214.png,1.0,4.0828505,2.310225,1.2534355
bagnet33,1,100,NaN,keyboard,keyboard,4-10-10,0100_eid_dnn_4-10-10_keyboard_10_n03085013_22949.png,n03085013_22949.png,1.0,10.892057,4.25569,4.6926203
bagnet33,1,101,NaN,airplane,bear,64-10-10,0101_eid_dnn_64-10-10_bear_10_n02132136_31664.png,n02132136_31664.png,0.0,1.5344166,2.003535,-0.33171687
bagnet33,1,102,NaN,knife,bottle,8-10-10,0102_eid_dnn_8-10-10_bottle_10_n03983396_1985.png,n03983396_1985.png,0.0,2.321279,6.026542,-2.6200168
bagnet33,1,103,NaN,airplane,airplane,2-10-10,0103_eid_dnn_2-10-10_airplane_10_n02690373_9266.png,n02690373_9266.png,1.0,7.900507,2.774429,3.6246843
bagnet33,1,104,NaN,knife,bottle,128-10-10,0104_eid_dnn_128-10-10_bottle_10_n02823428_5961.png,n02823428_5961.png,0.0,-0.016978681,2.5782647,-1.8351142
bagnet33,1,105,NaN,bottle,bottle,4-10-10,0105_eid_dnn_4-10-10_bottle_10_n04579145_1856.png,n04579145_1856.png,1.0,4.6069946,3.3003707,0.92392266
bagnet33,1,106,NaN,cat,clock,64-10-10,0106_eid_dnn_64-10-10_clock_10_n02708093_7810.png,n02708093_7810.png,0.0,-2.3716242,3.3720672,-4.0614033
bagnet33,1,107,NaN,oven,dog,1-10-10,0107_eid_dnn_1-10-10_dog_10_n02100735_4949.png,n02100735_4949.png,0.0,4.8120394,6.310521,-1.0595866
bagnet33,1,108,NaN,bottle,chair,32-10-10,0108_eid_dnn_32-10-10_chair_10_n03376595_7275.png,n03376595_7275.png,0.0,-0.8052428,2.385176,-2.2559667
bagnet33,1,109,NaN,bottle,bottle,2-10-10,0109_eid_dnn_2-10-10_bottle_10_n03983396_16741.png,n03983396_16741.png,1.0,7.7617974,2.3953168,3.794675
bagnet33,1,110,NaN,oven,boat,32-10-10,0110_eid_dnn_32-10-10_boat_10_n04612504_8719.png,n04612504_8719.png,0.0,-3.1447253,2.6253629,-4.0800686
bagnet33,1,111,NaN,chair,chair,1-10-10,0111_eid_dnn_1-10-10_chair_10_n02791124_3570.png,n02791124_3570.png,1.0,10.012039,5.5811405,3.1331186
bagnet33,1,112,NaN,dog,bear,32-10-10,0112_eid_dnn_32-10-10_bear_10_n02132136_9557.png,n02132136_9557.png,0.0,2.2081733,2.2665417,-0.041272722
bagnet33,1,113,NaN,elephant,bird,64-10-10,0113_eid_dnn_64-10-10_bird_10_n02002556_5730.png,n02002556_5730.png,0.0,1.2493888,2.1748362,-0.6543901
bagnet33,1,114,NaN,oven,oven,4-10-10,0114_eid_dnn_4-10-10_oven_10_n04111531_8959.png,n04111531_8959.png,1.0,7.532116,2.0052853,3.9080596
bagnet33,1,115,NaN,elephant,cat,128-10-10,0115_eid_dnn_128-10-10_cat_10_n02123159_8101.png,n02123159_8101.png,0.0,1.411924,3.3467233,-1.3681097
bagnet33,1,116,NaN,dog,cat,8-10-10,0116_eid_dnn_8-10-10_cat_10_n02123597_8890.png,n02123597_8890.png,0.0,1.2826961,2.5098023,-0.86769515
bagnet33,1,117,NaN,elephant,elephant,1-10-10,0117_eid_dnn_1-10-10_elephant_10_n02504458_220.png,n02504458_220.png,1.0,11.563315,5.0646887,4.595223
bagnet33,1,118,NaN,elephant,bicycle,128-10-10,0118_eid_dnn_128-10-10_bicycle_10_n02835271_2651.png,n02835271_2651.png,0.0,-1.7078401,2.5299265,-2.9965537
bagnet33,1,119,NaN,bear,keyboard,64-10-10,0119_eid_dnn_64-10-10_keyboard_10_n04505470_1581.png,n04505470_1581.png,0.0,-2.136638,1.7775912,-2.767778
bagnet33,1,120,NaN,truck,truck,4-10-10,0120_eid_dnn_4-10-10_truck_10_n04467665_1719.png,n04467665_1719.png,1.0,4.3387604,3.189871,0.8123874
bagnet33,1,121,NaN,truck,truck,2-10-10,0121_eid_dnn_2-10-10_truck_10_n04467665_30756.png,n04467665_30756.png,1.0,10.835974,4.6773844,4.35478
bagnet33,1,122,NaN,knife,oven,64-10-10,0122_eid_dnn_64-10-10_oven_10_n04111531_1818.png,n04111531_1818.png,0.0,1.1959137,2.4923544,-0.91672206
bagnet33,1,123,NaN,elephant,elephant,64-10-10,0123_eid_dnn_64-10-10_elephant_10_n02504013_2974.png,n02504013_2974.png,1.0,3.7933533,2.0844305,1.208391
bagnet33,1,124,NaN,elephant,bicycle,128-10-10,0124_eid_dnn_128-10-10_bicycle_10_n03792782_7713.png,n03792782_7713.png,0.0,-2.9093697,4.107502,-4.9616776
bagnet33,1,125,NaN,knife,clock,16-10-10,0125_eid_dnn_16-10-10_clock_10_n04548280_9700.png,n04548280_9700.png,0.0,-0.7953694,2.6384068,-2.4280465
bagnet33,1,126,NaN,oven,bottle,16-10-10,0126_eid_dnn_16-10-10_bottle_10_n04591713_1174.png,n04591713_1174.png,0.0,1.3460236,2.3899436,-0.73816293
bagnet33,1,127,NaN,elephant,bear,64-10-10,0127_eid_dnn_64-10-10_bear_10_n02134418_1395.png,n02134418_1395.png,0.0,1.1631742,3.5421374,-1.6821811
bagnet33,1,128,NaN,elephant,bottle,128-10-10,0128_eid_dnn_128-10-10_bottle_10_n04591713_36.png,n04591713_36.png,0.0,-1.1131867,2.760257,-2.7389383
bagnet33,1,129,NaN,bear,knife,8-10-10,0129_eid_dnn_8-10-10_knife_10_n03041632_21034.png,n03041632_21034.png,0.0,1.7339036,2.959845,-0.8668715
bagnet33,1,130,NaN,bicycle,bicycle,1-10-10,0130_eid_dnn_1-10-10_bicycle_10_n03792782_11115.png,n03792782_11115.png,1.0,18.114676,4.235315,9.81419
bagnet33,1,131,NaN,bear,truck,16-10-10,0131_eid_dnn_16-10-10_truck_10_n03417042_5381.png,n03417042_5381.png,0.0,-1.1966391,3.5260942,-3.3394768
bagnet33,1,132,NaN,elephant,boat,64-10-10,0132_eid_dnn_64-10-10_boat_10_n04612504_15258.png,n04612504_15258.png,0.0,-3.147426,1.9553484,-3.6082063
bagnet33,1,133,NaN,boat,boat,2-10-10,0133_eid_dnn_2-10-10_boat_10_n03662601_11972.png,n03662601_11972.png,1.0,5.0930796,4.530742,0.3976326
bagnet33,1,134,NaN,elephant,dog,64-10-10,0134_eid_dnn_64-10-10_dog_10_n02092002_11459.png,n02092002_11459.png,0.0,1.8736564,2.9164577,-0.73737186
bagnet33,1,135,NaN,knife,clock,64-10-10,0135_eid_dnn_64-10-10_clock_10_n04548280_6605.png,n04548280_6605.png,0.0,0.22664015,2.0827365,-1.3124584
bagnet33,1,136,NaN,knife,boat,64-10-10,0136_eid_dnn_64-10-10_boat_10_n03662601_5600.png,n03662601_5600.png,0.0,0.182781,2.9621463,-1.9653081
bagnet33,1,137,NaN,knife,bear,32-10-10,0137_eid_dnn_32-10-10_bear_10_n02134084_8153.png,n02134084_8153.png,0.0,-0.6758691,2.8181553,-2.4706483
bagnet33,1,138,NaN,knife,cat,64-10-10,0138_eid_dnn_64-10-10_cat_10_n02124075_9225.png,n02124075_9225.png,0.0,0.8821189,3.146611,-1.6012377
bagnet33,1,139,NaN,oven,bicycle,8-10-10,0139_eid_dnn_8-10-10_bicycle_10_n03792782_3591.png,n03792782_3591.png,0.0,-0.8847917,3.720967,-3.2567632
bagnet33,1,140,NaN,elephant,dog,64-10-10,0140_eid_dnn_64-10-10_dog_10_n02107142_31661.png,n02107142_31661.png,0.0,0.9448114,2.4066224,-1.0336565
bagnet33,1,141,NaN,elephant,elephant,8-10-10,0141_eid_dnn_8-10-10_elephant_10_n02504458_651.png,n02504458_651.png,1.0,5.2597466,3.139513,1.4992316
bagnet33,1,142,NaN,elephant,dog,128-10-10,0142_eid_dnn_128-10-10_dog_10_n02110958_15217.png,n02110958_15217.png,0.0,3.010978,4.1644087,-0.81559867
bagnet33,1,143,NaN,chair,oven,4-10-10,0143_eid_dnn_4-10-10_oven_10_n04111531_523.png,n04111531_523.png,0.0,0.4914304,2.7670903,-1.6091347
bagnet33,1,144,NaN,knife,car,4-10-10,0144_eid_dnn_4-10-10_car_10_n02814533_42884.png,n02814533_42884.png,0.0,0.6062501,1.3999968,-0.5612636
bagnet33,1,145,NaN,elephant,car,64-10-10,0145_eid_dnn_64-10-10_car_10_n04285008_8017.png,n04285008_8017.png,0.0,-5.254914,3.6886854,-6.32408
bagnet33,1,146,NaN,truck,car,1-10-10,0146_eid_dnn_1-10-10_car_10_n03100240_16766.png,n03100240_16766.png,0.0,5.3782077,5.5881853,-0.1484766
bagnet33,1,147,NaN,knife,elephant,8-10-10,0147_eid_dnn_8-10-10_elephant_10_n02504458_4593.png,n02504458_4593.png,0.0,2.4951591,4.9773817,-1.7551965
bagnet33,1,148,NaN,oven,chair,64-10-10,0148_eid_dnn_64-10-10_chair_10_n02791124_1358.png,n02791124_1358.png,0.0,-2.4188073,2.9701614,-3.8105762
bagnet33,1,149,NaN,knife,dog,16-10-10,0149_eid_dnn_16-10-10_dog_10_n02095314_5363.png,n02095314_5363.png,0.0,0.64862895,3.9386766,-2.326415
bagnet33,1,150,NaN,knife,clock,8-10-10,0150_eid_dnn_8-10-10_clock_10_n04548280_1413.png,n04548280_1413.png,0.0,1.8990904,3.226661,-0.9387342
bagnet33,1,151,NaN,dog,dog,1-10-10,0151_eid_dnn_1-10-10_dog_10_n02105641_10948.png,n02105641_10948.png,1.0,7.9412966,3.947194,2.824257
bagnet33,1,152,NaN,bear,dog,1-10-10,0152_eid_dnn_1-10-10_dog_10_n02113624_1691.png,n02113624_1691.png,0.0,4.1512666,6.952876,-1.9810371
bagnet33,1,153,NaN,truck,car,4-10-10,0153_eid_dnn_4-10-10_car_10_n03100240_2235.png,n03100240_2235.png,0.0,2.2415063,4.093946,-1.3098726
bagnet33,1,154,NaN,oven,chair,2-10-10,0154_eid_dnn_2-10-10_chair_10_n04099969_56470.png,n04099969_56470.png,0.0,2.9097157,4.77561,-1.3193866
bagnet33,1,155,NaN,oven,oven,2-10-10,0155_eid_dnn_2-10-10_oven_10_n04111531_5429.png,n04111531_5429.png,1.0,5.6601295,4.1292114,1.0825226
bagnet33,1,156,NaN,knife,keyboard,64-10-10,0156_eid_dnn_64-10-10_keyboard_10_n03085013_19317.png,n03085013_19317.png,0.0,-0.99106836,2.5448308,-2.5002582
bagnet33,1,157,NaN,bottle,bird,64-10-10,0157_eid_dnn_64-10-10_bird_10_n01601694_19650.png,n01601694_19650.png,0.0,0.25469354,2.1423023,-1.334741
bagnet33,1,158,NaN,elephant,clock,128-10-10,0158_eid_dnn_128-10-10_clock_10_n03196217_11199.png,n03196217_11199.png,0.0,-0.95525193,3.406386,-3.0841439
bagnet33,1,159,NaN,knife,bottle,32-10-10,0159_eid_dnn_32-10-10_bottle_10_n03937543_2209.png,n03937543_2209.png,0.0,1.0816933,2.256678,-0.83083975
bagnet33,1,160,NaN,elephant,car,64-10-10,0160_eid_dnn_64-10-10_car_10_n03100240_16939.png,n03100240_16939.png,0.0,-3.9202316,2.80949,-4.7586317
bagnet33,1,161,NaN,keyboard,bottle,8-10-10,0161_eid_dnn_8-10-10_bottle_10_n04591713_2501.png,n04591713_2501.png,0.0,1.2119341,2.0002697,-0.5574374
bagnet33,1,162,NaN,bear,airplane,16-10-10,0162_eid_dnn_16-10-10_airplane_10_n02690373_10395.png,n02690373_10395.png,0.0,-0.09521234,2.2257218,-1.6411484
bagnet33,1,163,NaN,oven,oven,8-10-10,0163_eid_dnn_8-10-10_oven_10_n04111531_3286.png,n04111531_3286.png,1.0,3.551645,2.1188176,1.013162
bagnet33,1,164,NaN,cat,boat,64-10-10,0164_eid_dnn_64-10-10_boat_10_n04273569_13401.png,n04273569_13401.png,0.0,-2.7053154,2.748546,-3.8564622
bagnet33,1,165,NaN,elephant,elephant,64-10-10,0165_eid_dnn_64-10-10_elephant_10_n02504458_12776.png,n02504458_12776.png,1.0,2.8480587,2.0701327,0.5500767
bagnet33,1,166,NaN,bicycle,bird,2-10-10,0166_eid_dnn_2-10-10_bird_10_n01828970_997.png,n01828970_997.png,0.0,0.8422903,1.083253,-0.17038639
bagnet33,1,167,NaN,bear,bear,8-10-10,0167_eid_dnn_8-10-10_bear_10_n02132136_10318.png,n02132136_10318.png,1.0,5.6144753,4.743077,0.6161718
bagnet33,1,168,NaN,elephant,oven,32-10-10,0168_eid_dnn_32-10-10_oven_10_n04111531_7883.png,n04111531_7883.png,0.0,2.293466,3.0647514,-0.54538107
bagnet33,1,169,NaN,elephant,clock,128-10-10,0169_eid_dnn_128-10-10_clock_10_n02708093_725.png,n02708093_725.png,0.0,-1.2909932,2.6858258,-2.8120358
bagnet33,1,170,NaN,oven,bottle,16-10-10,0170_eid_dnn_16-10-10_bottle_10_n04557648_2052.png,n04557648_2052.png,0.0,2.9209335,5.0558124,-1.5095874
bagnet33,1,171,NaN,oven,keyboard,32-10-10,0171_eid_dnn_32-10-10_keyboard_10_n04505470_5036.png,n04505470_5036.png,0.0,0.79466164,3.1650438,-1.6761135
bagnet33,1,172,NaN,elephant,elephant,8-10-10,0172_eid_dnn_8-10-10_elephant_10_n02504458_13352.png,n02504458_13352.png,1.0,5.1248713,2.8857994,1.5832629
bagnet33,1,173,NaN,bottle,chair,4-10-10,0173_eid_dnn_4-10-10_chair_10_n04429376_30620.png,n04429376_30620.png,0.0,2.4333084,2.637405,-0.14431806
bagnet33,1,174,NaN,bear,boat,16-10-10,0174_eid_dnn_16-10-10_boat_10_n03662601_2980.png,n03662601_2980.png,0.0,-0.3744725,2.8249824,-2.2623563
bagnet33,1,175,NaN,oven,boat,8-10-10,0175_eid_dnn_8-10-10_boat_10_n03662601_4734.png,n03662601_4734.png,0.0,-1.723744,1.8395286,-2.5196142
bagnet33,1,176,NaN,bear,bear,2-10-10,0176_eid_dnn_2-10-10_bear_10_n02134418_4754.png,n02134418_4754.png,1.0,6.154892,3.835303,1.640197
bagnet33,1,177,NaN,elephant,elephant,2-10-10,0177_eid_dnn_2-10-10_elephant_10_n02504013_8522.png,n02504013_8522.png,1.0,9.819815,2.4184399,5.2335625
bagnet33,1,178,NaN,elephant,bottle,64-10-10,0178_eid_dnn_64-10-10_bottle_10_n03937543_4863.png,n03937543_4863.png,0.0,0.5605392,3.8307853,-2.3124132
bagnet33,1,179,NaN,bear,car,16-10-10,0179_eid_dnn_16-10-10_car_10_n04285008_10802.png,n04285008_10802.png,0.0,-4.481377,3.433084,-5.5963693
bagnet33,1,180,NaN,elephant,knife,64-10-10,0180_eid_dnn_64-10-10_knife_10_n03041632_6708.png,n03041632_6708.png,0.0,1.2258034,5.970977,-3.3553443
bagnet33,1,181,NaN,elephant,dog,1-10-10,0181_eid_dnn_1-10-10_dog_10_n02107142_61109.png,n02107142_61109.png,0.0,3.061315,7.3444276,-3.0286179
bagnet33,1,182,NaN,clock,clock,2-10-10,0182_eid_dnn_2-10-10_clock_10_n03196217_8139.png,n03196217_8139.png,1.0,4.383187,1.9283292,1.7358465
bagnet33,1,183,NaN,elephant,elephant,1-10-10,0183_eid_dnn_1-10-10_elephant_10_n02504458_6611.png,n02504458_6611.png,1.0,8.893146,2.614878,4.439406
bagnet33,1,184,NaN,bear,truck,64-10-10,0184_eid_dnn_64-10-10_truck_10_n04467665_4401.png,n04467665_4401.png,0.0,-1.7447233,2.7991734,-3.2130203
bagnet33,1,185,NaN,airplane,boat,4-10-10,0185_eid_dnn_4-10-10_boat_10_n03344393_732.png,n03344393_732.png,0.0,2.7901597,3.0996382,-0.21883437
bagnet33,1,186,NaN,knife,knife,4-10-10,0186_eid_dnn_4-10-10_knife_10_n03041632_41381.png,n03041632_41381.png,1.0,3.5067468,2.875459,0.4463879
bagnet33,1,187,NaN,elephant,oven,32-10-10,0187_eid_dnn_32-10-10_oven_10_n04111531_22715.png,n04111531_22715.png,0.0,1.9973348,5.6055684,-2.5514064
bagnet33,1,188,NaN,elephant,cat,16-10-10,0188_eid_dnn_16-10-10_cat_10_n02123045_3568.png,n02123045_3568.png,0.0,2.293238,2.4570866,-0.11585849
bagnet33,1,189,NaN,truck,truck,2-10-10,0189_eid_dnn_2-10-10_truck_10_n03796401_18976.png,n03796401_18976.png,1.0,6.7113557,5.671115,0.7355613
bagnet33,1,190,NaN,oven,oven,8-10-10,0190_eid_dnn_8-10-10_oven_10_n04111531_15710.png,n04111531_15710.png,1.0,2.272855,2.0138943,0.18311289
bagnet33,1,191,NaN,knife,elephant,32-10-10,0191_eid_dnn_32-10-10_elephant_10_n02504013_7232.png,n02504013_7232.png,0.0,1.4399188,2.1662064,-0.5135629
bagnet33,1,192,NaN,knife,clock,64-10-10,0192_eid_dnn_64-10-10_clock_10_n02708093_5126.png,n02708093_5126.png,0.0,-0.5590583,3.038659,-2.5439703
bagnet33,1,193,NaN,elephant,cat,32-10-10,0193_eid_dnn_32-10-10_cat_10_n02123159_1598.png,n02123159_1598.png,0.0,2.040508,3.8043633,-1.247234
bagnet33,1,194,NaN,car,car,1-10-10,0194_eid_dnn_1-10-10_car_10_n04285008_1661.png,n04285008_1661.png,1.0,13.357849,10.410239,2.084275
bagnet33,1,195,NaN,clock,clock,2-10-10,0195_eid_dnn_2-10-10_clock_10_n02708093_5551.png,n02708093_5551.png,1.0,12.771945,6.874438,4.1701674
bagnet33,1,196,NaN,knife,airplane,128-10-10,0196_eid_dnn_128-10-10_airplane_10_n02690373_693.png,n02690373_693.png,0.0,1.8180296,3.765564,-1.3771148
bagnet33,1,197,NaN,elephant,elephant,2-10-10,0197_eid_dnn_2-10-10_elephant_10_n02504013_3409.png,n02504013_3409.png,1.0,8.647896,2.3669586,4.4412932
bagnet33,1,198,NaN,knife,dog,64-10-10,0198_eid_dnn_64-10-10_dog_10_n02113712_8182.png,n02113712_8182.png,0.0,0.45832592,3.3105602,-2.0168343
bagnet33,1,199,NaN,bottle,bottle,1-10-10,0199_eid_dnn_1-10-10_bottle_10_n03983396_8322.png,n03983396_8322.png,1.0,19.269194,3.934888,10.842992
bagnet33,1,200,NaN,elephant,keyboard,64-10-10,0200_eid_dnn_64-10-10_keyboard_10_n04505470_1040.png,n04505470_1040.png,0.0,-0.22574323,1.2779864,-1.0632974
bagnet33,1,201,NaN,knife,oven,32-10-10,0201_eid_dnn_32-10-10_oven_10_n04111531_11230.png,n04111531_11230.png,0.0,1.324939,1.80667,-0.3406352
bagnet33,1,202,NaN,cat,cat,1-10-10,0202_eid_dnn_1-10-10_cat_10_n02123394_6269.png,n02123394_6269.png,1.0,8.954158,3.6300454,3.7647161
bagnet33,1,203,NaN,elephant,elephant,2-10-10,0203_eid_dnn_2-10-10_elephant_10_n02504013_2075.png,n02504013_2075.png,1.0,12.287609,3.0488498,6.532789
bagnet33,1,204,NaN,oven,bear,1-10-10,0204_eid_dnn_1-10-10_bear_10_n02133161_3795.png,n02133161_3795.png,0.0,3.4536958,3.7500916,-0.20958346
bagnet33,1,205,NaN,truck,oven,2-10-10,0205_eid_dnn_2-10-10_oven_10_n04111531_4322.png,n04111531_4322.png,0.0,2.0849292,2.589481,-0.35677207
bagnet33,1,206,NaN,knife,bottle,4-10-10,0206_eid_dnn_4-10-10_bottle_10_n03937543_5799.png,n03937543_5799.png,0.0,2.1408584,4.0102735,-1.321876
bagnet33,1,207,NaN,knife,keyboard,8-10-10,0207_eid_dnn_8-10-10_keyboard_10_n04505470_4414.png,n04505470_4414.png,0.0,2.0495195,4.8661933,-1.9916892
bagnet33,1,208,NaN,dog,dog,4-10-10,0208_eid_dnn_4-10-10_dog_10_n02091032_8315.png,n02091032_8315.png,1.0,3.1549377,2.315154,0.59381676
bagnet33,1,209,NaN,knife,knife,2-10-10,0209_eid_dnn_2-10-10_knife_10_n03041632_39952.png,n03041632_39952.png,1.0,2.4845214,0.75540185,1.2226722
bagnet33,1,210,NaN,bottle,chair,8-10-10,0210_eid_dnn_8-10-10_chair_10_n02791124_634.png,n02791124_634.png,0.0,0.21300012,2.132853,-1.3575411
bagnet33,1,211,NaN,knife,boat,32-10-10,0211_eid_dnn_32-10-10_boat_10_n03344393_3355.png,n03344393_3355.png,0.0,-1.2550405,1.7571595,-2.129947
bagnet33,1,212,NaN,knife,dog,32-10-10,0212_eid_dnn_32-10-10_dog_10_n02102040_7188.png,n02102040_7188.png,0.0,0.035528492,1.8819349,-1.3056065
bagnet33,1,213,NaN,chair,chair,2-10-10,0213_eid_dnn_2-10-10_chair_10_n02791124_8711.png,n02791124_8711.png,1.0,1.9785527,1.3386452,0.45248294
bagnet33,1,214,NaN,bear,bear,64-10-10,0214_eid_dnn_64-10-10_bear_10_n02132136_6002.png,n02132136_6002.png,1.0,3.4244518,2.6235375,0.5663319
bagnet33,1,215,NaN,bear,boat,4-10-10,0215_eid_dnn_4-10-10_boat_10_n02951358_30184.png,n02951358_30184.png,0.0,0.6927184,2.8761191,-1.5438974
bagnet33,1,216,NaN,elephant,bottle,128-10-10,0216_eid_dnn_128-10-10_bottle_10_n02823428_3414.png,n02823428_3414.png,0.0,0.50238526,5.355959,-3.431995
bagnet33,1,217,NaN,elephant,truck,4-10-10,0217_eid_dnn_4-10-10_truck_10_n04467665_13231.png,n04467665_13231.png,0.0,2.9457695,3.1817746,-0.16688079
bagnet33,1,218,NaN,chair,chair,4-10-10,0218_eid_dnn_4-10-10_chair_10_n04099969_8063.png,n04099969_8063.png,1.0,3.4068694,3.1096163,0.21018972
bagnet33,1,219,NaN,knife,bird,4-10-10,0219_eid_dnn_4-10-10_bird_10_n01534433_10234.png,n01534433_10234.png,0.0,1.2173758,1.2953248,-0.0551183
bagnet33,1,220,NaN,elephant,elephant,4-10-10,0220_eid_dnn_4-10-10_elephant_10_n02504013_12533.png,n02504013_12533.png,1.0,3.9832401,2.3187487,1.1769732
bagnet33,1,221,NaN,boat,knife,16-10-10,0221_eid_dnn_16-10-10_knife_10_n03041632_18995.png,n03041632_18995.png,0.0,0.0071837306,1.8168758,-1.2796456
bagnet33,1,222,NaN,bottle,chair,32-10-10,0222_eid_dnn_32-10-10_chair_10_n04429376_7123.png,n04429376_7123.png,0.0,-1.5832143,2.8495064,-3.1344068
bagnet33,1,223,NaN,bottle,clock,64-10-10,0223_eid_dnn_64-10-10_clock_10_n03196217_9065.png,n03196217_9065.png,0.0,2.351874,3.2597482,-0.64196396
bagnet33,1,224,NaN,cat,dog,4-10-10,0224_eid_dnn_4-10-10_dog_10_n02086079_4143.png,n02086079_4143.png,0.0,6.451908,7.56781,-0.78906184
bagnet33,1,225,NaN,bear,bear,4-10-10,0225_eid_dnn_4-10-10_bear_10_n02132136_20162.png,n02132136_20162.png,1.0,5.5372562,4.4334173,0.780532
bagnet33,1,226,NaN,knife,bottle,1-10-10,0226_eid_dnn_1-10-10_bottle_10_n03983396_4165.png,n03983396_4165.png,0.0,2.9444444,5.4477353,-1.770094
bagnet33,1,227,NaN,elephant,bird,4-10-10,0227_eid_dnn_4-10-10_bird_10_n01824575_4470.png,n01824575_4470.png,0.0,0.70120233,1.543787,-0.59579736
bagnet33,1,228,NaN,elephant,oven,64-10-10,0228_eid_dnn_64-10-10_oven_10_n04111531_9695.png,n04111531_9695.png,0.0,0.42287996,4.541688,-2.912437
bagnet33,1,229,NaN,bear,bottle,64-10-10,0229_eid_dnn_64-10-10_bottle_10_n02823428_23181.png,n02823428_23181.png,0.0,0.8706278,1.6442356,-0.5470233
bagnet33,1,230,NaN,bicycle,bicycle,2-10-10,0230_eid_dnn_2-10-10_bicycle_10_n02835271_13674.png,n02835271_13674.png,1.0,7.9490924,2.6613457,3.7390015
bagnet33,1,231,NaN,chair,chair,2-10-10,0231_eid_dnn_2-10-10_chair_10_n04429376_55747.png,n04429376_55747.png,1.0,6.742166,4.2110763,1.7897508
bagnet33,1,232,NaN,cat,boat,32-10-10,0232_eid_dnn_32-10-10_boat_10_n02951358_8346.png,n02951358_8346.png,0.0,-4.6117334,4.438864,-6.3997393
bagnet33,1,233,NaN,elephant,elephant,16-10-10,0233_eid_dnn_16-10-10_elephant_10_n02504013_1088.png,n02504013_1088.png,1.0,3.3213809,2.729412,0.41858515
bagnet33,1,234,NaN,knife,car,8-10-10,0234_eid_dnn_8-10-10_car_10_n03100240_11191.png,n03100240_11191.png,0.0,-3.2826598,2.8183,-4.31403
bagnet33,1,235,NaN,cat,chair,8-10-10,0235_eid_dnn_8-10-10_chair_10_n04099969_19966.png,n04099969_19966.png,0.0,1.2192743,2.1621773,-0.66673315
bagnet33,1,236,NaN,cat,bicycle,32-10-10,0236_eid_dnn_32-10-10_bicycle_10_n03792782_15016.png,n03792782_15016.png,0.0,-2.2091916,2.342872,-3.218795
bagnet33,1,237,NaN,elephant,boat,128-10-10,0237_eid_dnn_128-10-10_boat_10_n02951358_17867.png,n02951358_17867.png,0.0,-1.0550114,5.540481,-4.6637173
bagnet33,1,238,NaN,cat,cat,2-10-10,0238_eid_dnn_2-10-10_cat_10_n02123045_2364.png,n02123045_2364.png,1.0,11.871747,2.9497526,6.3088026
bagnet33,1,239,NaN,bear,bear,2-10-10,0239_eid_dnn_2-10-10_bear_10_n02132136_9433.png,n02132136_9433.png,1.0,6.450032,3.5971346,2.0173032
bagnet33,1,240,NaN,knife,clock,32-10-10,0240_eid_dnn_32-10-10_clock_10_n03196217_3167.png,n03196217_3167.png,0.0,-0.54782474,3.168603,-2.6279113
bagnet33,1,241,NaN,keyboard,clock,32-10-10,0241_eid_dnn_32-10-10_clock_10_n03196217_3129.png,n03196217_3129.png,0.0,-0.6531387,2.8615122,-2.4852335
bagnet33,1,242,NaN,elephant,keyboard,128-10-10,0242_eid_dnn_128-10-10_keyboard_10_n03085013_6067.png,n03085013_6067.png,0.0,-1.6326677,2.4056647,-2.8555324
bagnet33,1,243,NaN,keyboard,keyboard,2-10-10,0243_eid_dnn_2-10-10_keyboard_10_n03085013_24648.png,n03085013_24648.png,1.0,7.2850704,4.8904614,1.6932442
bagnet33,1,244,NaN,bear,oven,32-10-10,0244_eid_dnn_32-10-10_oven_10_n04111531_6695.png,n04111531_6695.png,0.0,2.9702897,3.805829,-0.59081554
bagnet33,1,245,NaN,dog,dog,4-10-10,0245_eid_dnn_4-10-10_dog_10_n02111500_4875.png,n02111500_4875.png,1.0,6.536065,4.221704,1.6365005
bagnet33,1,246,NaN,knife,oven,32-10-10,0246_eid_dnn_32-10-10_oven_10_n04111531_13018.png,n04111531_13018.png,0.0,1.1509974,2.0116484,-0.6085722
bagnet33,1,247,NaN,elephant,keyboard,128-10-10,0247_eid_dnn_128-10-10_keyboard_10_n03085013_23030.png,n03085013_23030.png,0.0,-0.97604966,2.6091871,-2.5351453
bagnet33,1,248,NaN,dog,cat,8-10-10,0248_eid_dnn_8-10-10_cat_10_n02123045_8409.png,n02123045_8409.png,0.0,1.6970617,2.8423734,-0.80985767
bagnet33,1,249,NaN,bicycle,bicycle,4-10-10,0249_eid_dnn_4-10-10_bicycle_10_n03792782_37777.png,n03792782_37777.png,1.0,4.6148405,2.0888247,1.7861629
bagnet33,1,250,NaN,bear,airplane,64-10-10,0250_eid_dnn_64-10-10_airplane_10_n02690373_614.png,n02690373_614.png,0.0,0.09597868,3.6036203,-2.480277
bagnet33,1,251,NaN,elephant,keyboard,128-10-10,0251_eid_dnn_128-10-10_keyboard_10_n03085013_19775.png,n03085013_19775.png,0.0,-1.2992239,3.3566055,-3.2921686
bagnet33,1,252,NaN,elephant,bear,8-10-10,0252_eid_dnn_8-10-10_bear_10_n02133161_1244.png,n02133161_1244.png,0.0,1.8607063,3.0062394,-0.81001425
bagnet33,1,253,NaN,keyboard,keyboard,2-10-10,0253_eid_dnn_2-10-10_keyboard_10_n04505470_4368.png,n04505470_4368.png,1.0,8.992496,2.696782,4.4517417
bagnet33,1,254,NaN,oven,oven,2-10-10,0254_eid_dnn_2-10-10_oven_10_n04111531_7728.png,n04111531_7728.png,1.0,8.669399,4.997632,2.5963316
bagnet33,1,255,NaN,oven,clock,8-10-10,0255_eid_dnn_8-10-10_clock_10_n04548280_1.png,n04548280_1.png,0.0,-2.2668579,2.4560003,-3.3395653
bagnet33,1,256,NaN,elephant,cat,64-10-10,0256_eid_dnn_64-10-10_cat_10_n02123394_3062.png,n02123394_3062.png,0.0,1.8263072,2.7364838,-0.64359206
bagnet33,1,257,NaN,elephant,elephant,2-10-10,0257_eid_dnn_2-10-10_elephant_10_n02504013_466.png,n02504013_466.png,1.0,10.478769,5.6721005,3.398828
bagnet33,1,258,NaN,elephant,elephant,1-10-10,0258_eid_dnn_1-10-10_elephant_10_n02504013_6275.png,n02504013_6275.png,1.0,11.540949,5.53747,4.245101
bagnet33,1,259,NaN,bicycle,bird,4-10-10,0259_eid_dnn_4-10-10_bird_10_n01560419_5466.png,n01560419_5466.png,0.0,0.54190516,2.593008,-1.4503487
bagnet33,1,260,NaN,knife,truck,8-10-10,0260_eid_dnn_8-10-10_truck_10_n03796401_5227.png,n03796401_5227.png,0.0,-2.234673,2.7755694,-3.5427766
bagnet33,1,261,NaN,chair,chair,2-10-10,0261_eid_dnn_2-10-10_chair_10_n04099969_25124.png,n04099969_25124.png,1.0,10.062884,7.193012,2.029306
bagnet33,1,262,NaN,knife,elephant,64-10-10,0262_eid_dnn_64-10-10_elephant_10_n02504013_7209.png,n02504013_7209.png,0.0,-0.71694845,2.4817681,-2.2618344
bagnet33,1,263,NaN,cat,cat,1-10-10,0263_eid_dnn_1-10-10_cat_10_n02123597_4756.png,n02123597_4756.png,1.0,3.766961,1.6073956,1.5270433
bagnet33,1,264,NaN,cat,bicycle,16-10-10,0264_eid_dnn_16-10-10_bicycle_10_n02835271_4654.png,n02835271_4654.png,0.0,-1.4003625,1.353393,-1.9471992
bagnet33,1,265,NaN,keyboard,keyboard,1-10-10,0265_eid_dnn_1-10-10_keyboard_10_n04505470_2389.png,n04505470_2389.png,1.0,40.116875,10.071656,21.245178
bagnet33,1,266,NaN,knife,knife,128-10-10,0266_eid_dnn_128-10-10_knife_10_n03041632_379.png,n03041632_379.png,1.0,2.5139277,1.2122893,0.92039734
bagnet33,1,267,NaN,bicycle,clock,8-10-10,0267_eid_dnn_8-10-10_clock_10_n02708093_899.png,n02708093_899.png,0.0,0.19276929,1.2054944,-0.7161048
bagnet33,1,268,NaN,elephant,truck,128-10-10,0268_eid_dnn_128-10-10_truck_10_n03417042_10154.png,n03417042_10154.png,0.0,-2.6287963,6.3144097,-6.3238015
bagnet33,1,269,NaN,bottle,bottle,2-10-10,0269_eid_dnn_2-10-10_bottle_10_n04579145_3415.png,n04579145_3415.png,1.0,6.5013022,2.1907897,3.0479927
bagnet33,1,270,NaN,knife,chair,16-10-10,0270_eid_dnn_16-10-10_chair_10_n02791124_146.png,n02791124_146.png,0.0,0.5883416,2.7028027,-1.4951497
bagnet33,1,271,NaN,elephant,elephant,128-10-10,0271_eid_dnn_128-10-10_elephant_10_n02504458_2835.png,n02504458_2835.png,1.0,3.6878407,2.2042463,1.0490597
bagnet33,1,272,NaN,bicycle,bicycle,1-10-10,0272_eid_dnn_1-10-10_bicycle_10_n03792782_13835.png,n03792782_13835.png,1.0,4.0050526,2.6715932,0.9428982
bagnet33,1,273,NaN,elephant,bicycle,32-10-10,0273_eid_dnn_32-10-10_bicycle_10_n02835271_12926.png,n02835271_12926.png,0.0,-3.089328,4.6859913,-5.497981
bagnet33,1,274,NaN,dog,dog,2-10-10,0274_eid_dnn_2-10-10_dog_10_n02110185_11605.png,n02110185_11605.png,1.0,5.9175515,3.0252035,2.045199
bagnet33,1,275,NaN,elephant,elephant,128-10-10,0275_eid_dnn_128-10-10_elephant_10_n02504458_3091.png,n02504458_3091.png,1.0,3.9506032,3.085889,0.61144525
bagnet33,1,276,NaN,elephant,chair,128-10-10,0276_eid_dnn_128-10-10_chair_10_n04099969_5233.png,n04099969_5233.png,0.0,-1.4278656,4.244685,-4.0110993
bagnet33,1,277,NaN,dog,dog,2-10-10,0277_eid_dnn_2-10-10_dog_10_n02097209_7628.png,n02097209_7628.png,1.0,4.8906407,2.7315176,1.5267307
bagnet33,1,278,NaN,bear,cat,8-10-10,0278_eid_dnn_8-10-10_cat_10_n02123597_10941.png,n02123597_10941.png,0.0,2.411863,2.7895114,-0.26703772
bagnet33,1,279,NaN,keyboard,clock,16-10-10,0279_eid_dnn_16-10-10_clock_10_n02708093_3006.png,n02708093_3006.png,0.0,0.8039312,2.523062,-1.2156091
bagnet33,1,280,NaN,airplane,truck,1-10-10,0280_eid_dnn_1-10-10_truck_10_n03796401_26620.png,n03796401_26620.png,0.0,3.801282,4.2048054,-0.28533417
bagnet33,1,281,NaN,oven,bear,128-10-10,0281_eid_dnn_128-10-10_bear_10_n02134418_12733.png,n02134418_12733.png,0.0,1.8403713,2.9269037,-0.7682945
bagnet33,1,282,NaN,keyboard,knife,2-10-10,0282_eid_dnn_2-10-10_knife_10_n03041632_4806.png,n03041632_4806.png,0.0,2.0333993,2.0799809,-0.0329381
bagnet33,1,283,NaN,knife,oven,4-10-10,0283_eid_dnn_4-10-10_oven_10_n04111531_17922.png,n04111531_17922.png,0.0,2.9047587,4.6828704,-1.2573148
bagnet33,1,284,NaN,bottle,bottle,1-10-10,0284_eid_dnn_1-10-10_bottle_10_n04579145_6818.png,n04579145_6818.png,1.0,11.425374,2.9416971,5.9988656
bagnet33,1,285,NaN,keyboard,keyboard,4-10-10,0285_eid_dnn_4-10-10_keyboard_10_n04505470_494.png,n04505470_494.png,1.0,17.541702,4.241923,9.404365
bagnet33,1,286,NaN,cat,cat,8-10-10,0286_eid_dnn_8-10-10_cat_10_n02123045_10834.png,n02123045_10834.png,1.0,4.417174,2.8894155,1.0802883
bagnet33,1,287,NaN,cat,cat,128-10-10,0287_eid_dnn_128-10-10_cat_10_n02123394_176.png,n02123394_176.png,1.0,3.0712311,2.656709,0.29311144
bagnet33,1,288,NaN,elephant,chair,128-10-10,0288_eid_dnn_128-10-10_chair_10_n03376595_2891.png,n03376595_2891.png,0.0,-1.9450496,3.9894137,-4.1962996
bagnet33,1,289,NaN,knife,dog,8-10-10,0289_eid_dnn_8-10-10_dog_10_n02093256_5647.png,n02093256_5647.png,0.0,2.5293422,3.308309,-0.5508128
bagnet33,1,290,NaN,elephant,knife,64-10-10,0290_eid_dnn_64-10-10_knife_10_n03041632_33326.png,n03041632_33326.png,0.0,2.8306112,4.3422933,-1.0689206
bagnet33,1,291,NaN,boat,airplane,8-10-10,0291_eid_dnn_8-10-10_airplane_10_n02690373_2856.png,n02690373_2856.png,0.0,1.348327,3.4997935,-1.5213165
bagnet33,1,292,NaN,elephant,bicycle,128-10-10,0292_eid_dnn_128-10-10_bicycle_10_n03792782_9651.png,n03792782_9651.png,0.0,-2.5286686,4.1774616,-4.74195
bagnet33,1,293,NaN,bicycle,bicycle,2-10-10,0293_eid_dnn_2-10-10_bicycle_10_n02835271_7438.png,n02835271_7438.png,1.0,4.191171,2.6581273,1.0840257
bagnet33,1,294,NaN,cat,bicycle,128-10-10,0294_eid_dnn_128-10-10_bicycle_10_n02835271_26639.png,n02835271_26639.png,0.0,-2.5617054,1.9365247,-3.180729
bagnet33,1,295,NaN,keyboard,keyboard,8-10-10,0295_eid_dnn_8-10-10_keyboard_10_n04505470_4458.png,n04505470_4458.png,1.0,10.656332,2.6231668,5.6803055
bagnet33,1,296,NaN,cat,dog,64-10-10,0296_eid_dnn_64-10-10_dog_10_n02106662_24847.png,n02106662_24847.png,0.0,1.6944232,2.634432,-0.6646867
bagnet33,1,297,NaN,elephant,chair,32-10-10,0297_eid_dnn_32-10-10_chair_10_n03376595_8995.png,n03376595_8995.png,0.0,-0.63494074,2.0171409,-1.8753048
bagnet33,1,298,NaN,elephant,bicycle,64-10-10,0298_eid_dnn_64-10-10_bicycle_10_n03792782_6030.png,n03792782_6030.png,0.0,-2.1559675,3.7878647,-4.2029243
bagnet33,1,299,NaN,elephant,elephant,4-10-10,0299_eid_dnn_4-10-10_elephant_10_n02504458_7258.png,n02504458_7258.png,1.0,5.295479,3.637402,1.1724373
bagnet33,1,300,NaN,elephant,boat,128-10-10,0300_eid_dnn_128-10-10_boat_10_n03662601_23903.png,n03662601_23903.png,0.0,-1.6777096,1.9269793,-2.5489
bagnet33,1,301,NaN,elephant,bird,16-10-10,0301_eid_dnn_16-10-10_bird_10_n02002724_578.png,n02002724_578.png,0.0,0.67940396,4.972976,-3.0360143
bagnet33,1,302,NaN,knife,chair,64-10-10,0302_eid_dnn_64-10-10_chair_10_n03376595_2393.png,n03376595_2393.png,0.0,-0.50982904,1.9807866,-1.7611312
bagnet33,1,303,NaN,knife,boat,16-10-10,0303_eid_dnn_16-10-10_boat_10_n03662601_5118.png,n03662601_5118.png,0.0,1.4598024,1.5823851,-0.08667904
bagnet33,1,304,NaN,elephant,chair,8-10-10,0304_eid_dnn_8-10-10_chair_10_n04429376_21845.png,n04429376_21845.png,0.0,0.3059457,3.2607315,-2.089349
bagnet33,1,305,NaN,knife,dog,8-10-10,0305_eid_dnn_8-10-10_dog_10_n02102040_2216.png,n02102040_2216.png,0.0,0.90823436,1.9253974,-0.7192429
bagnet33,1,306,NaN,knife,airplane,8-10-10,0306_eid_dnn_8-10-10_airplane_10_n02690373_3032.png,n02690373_3032.png,0.0,1.7412407,2.3816962,-0.45287043
bagnet33,1,307,NaN,dog,dog,8-10-10,0307_eid_dnn_8-10-10_dog_10_n02100735_2228.png,n02100735_2228.png,1.0,2.5906184,1.8761827,0.5051823
bagnet33,1,308,NaN,knife,bird,8-10-10,0308_eid_dnn_8-10-10_bird_10_n01532829_13864.png,n01532829_13864.png,0.0,0.07728254,2.8574054,-1.9658438
bagnet33,1,309,NaN,knife,bird,64-10-10,0309_eid_dnn_64-10-10_bird_10_n01601694_13787.png,n01601694_13787.png,0.0,-0.31322467,3.3251538,-2.5727222
bagnet33,1,310,NaN,bear,bear,64-10-10,0310_eid_dnn_64-10-10_bear_10_n02134084_22150.png,n02134084_22150.png,1.0,1.078825,1.072287,0.004623088
bagnet33,1,311,NaN,oven,knife,16-10-10,0311_eid_dnn_16-10-10_knife_10_n03041632_29427.png,n03041632_29427.png,0.0,3.1952987,3.4233994,-0.16129161
bagnet33,1,312,NaN,oven,chair,4-10-10,0312_eid_dnn_4-10-10_chair_10_n02791124_2804.png,n02791124_2804.png,0.0,2.9812427,3.108298,-0.08984174
bagnet33,1,313,NaN,bottle,bottle,4-10-10,0313_eid_dnn_4-10-10_bottle_10_n04591713_5046.png,n04591713_5046.png,1.0,15.039892,9.052957,4.2334027
bagnet33,1,314,NaN,elephant,bicycle,128-10-10,0314_eid_dnn_128-10-10_bicycle_10_n03792782_4210.png,n03792782_4210.png,0.0,-1.7649257,2.3037887,-2.8770154
bagnet33,1,315,NaN,elephant,cat,128-10-10,0315_eid_dnn_128-10-10_cat_10_n02123159_1596.png,n02123159_1596.png,0.0,3.2370489,5.141046,-1.3463293
bagnet33,1,316,NaN,car,car,2-10-10,0316_eid_dnn_2-10-10_car_10_n03100240_17588.png,n03100240_17588.png,1.0,6.520899,4.6743884,1.30568
bagnet33,1,317,NaN,dog,keyboard,4-10-10,0317_eid_dnn_4-10-10_keyboard_10_n03085013_23295.png,n03085013_23295.png,0.0,0.33490232,2.0187583,-1.1906661
bagnet33,1,318,NaN,elephant,oven,32-10-10,0318_eid_dnn_32-10-10_oven_10_n04111531_4879.png,n04111531_4879.png,0.0,1.4104999,2.487011,-0.76120824
bagnet33,1,319,NaN,oven,keyboard,32-10-10,0319_eid_dnn_32-10-10_keyboard_10_n04505470_4569.png,n04505470_4569.png,0.0,-0.041021347,3.226471,-2.310466
bagnet33,1,320,NaN,knife,truck,8-10-10,0320_eid_dnn_8-10-10_truck_10_n04467665_24190.png,n04467665_24190.png,0.0,-1.2659961,2.3566384,-2.5615895
bagnet33,1,321,NaN,cat,cat,4-10-10,0321_eid_dnn_4-10-10_cat_10_n02124075_15405.png,n02124075_15405.png,1.0,2.5751326,1.7916349,0.55401653
bagnet33,1,322,NaN,knife,knife,8-10-10,0322_eid_dnn_8-10-10_knife_10_n03041632_24817.png,n03041632_24817.png,1.0,1.61812,1.367751,0.17703758
bagnet33,1,323,NaN,cat,elephant,64-10-10,0323_eid_dnn_64-10-10_elephant_10_n02504013_5505.png,n02504013_5505.png,0.0,1.7660195,2.5858417,-0.57970184
bagnet33,1,324,NaN,airplane,airplane,8-10-10,0324_eid_dnn_8-10-10_airplane_10_n02690373_8846.png,n02690373_8846.png,1.0,3.2728457,1.4803538,1.2674832
bagnet33,1,325,NaN,knife,truck,32-10-10,0325_eid_dnn_32-10-10_truck_10_n04467665_50806.png,n04467665_50806.png,0.0,-0.88690054,1.2165861,-1.4873896
bagnet33,1,326,NaN,elephant,elephant,4-10-10,0326_eid_dnn_4-10-10_elephant_10_n02504458_5539.png,n02504458_5539.png,1.0,8.997702,2.3597076,4.6937704
bagnet33,1,327,NaN,airplane,boat,1-10-10,0327_eid_dnn_1-10-10_boat_10_n03344393_1178.png,n03344393_1178.png,0.0,4.7763815,6.222984,-1.0229024
bagnet33,1,328,NaN,truck,truck,4-10-10,0328_eid_dnn_4-10-10_truck_10_n04467665_10025.png,n04467665_10025.png,1.0,3.7686472,2.0056472,1.2466292
bagnet33,1,329,NaN,clock,clock,4-10-10,0329_eid_dnn_4-10-10_clock_10_n02708093_2869.png,n02708093_2869.png,1.0,8.783676,2.924782,4.142864
bagnet33,1,330,NaN,clock,bottle,8-10-10,0330_eid_dnn_8-10-10_bottle_10_n03983396_4879.png,n03983396_4879.png,0.0,1.4081527,1.6419177,-0.16529682
bagnet33,1,331,NaN,knife,keyboard,128-10-10,0331_eid_dnn_128-10-10_keyboard_10_n03085013_10367.png,n03085013_10367.png,0.0,-0.9531452,2.197608,-2.227919
bagnet33,1,332,NaN,elephant,bird,64-10-10,0332_eid_dnn_64-10-10_bird_10_n01860187_21300.png,n01860187_21300.png,0.0,0.00068584934,3.9428215,-2.7875109
bagnet33,1,333,NaN,knife,knife,32-10-10,0333_eid_dnn_32-10-10_knife_10_n03041632_5302.png,n03041632_5302.png,1.0,2.2296424,1.4821513,0.52855605
bagnet33,1,334,NaN,bear,bear,4-10-10,0334_eid_dnn_4-10-10_bear_10_n02134084_5274.png,n02134084_5274.png,1.0,7.640731,6.1804233,1.0325934
bagnet33,1,335,NaN,boat,knife,4-10-10,0335_eid_dnn_4-10-10_knife_10_n03041632_48816.png,n03041632_48816.png,0.0,0.40829867,1.3835328,-0.6895946
bagnet33,1,336,NaN,knife,elephant,16-10-10,0336_eid_dnn_16-10-10_elephant_10_n02504013_3295.png,n02504013_3295.png,0.0,-0.014195681,2.8554761,-2.0291646
bagnet33,1,337,NaN,knife,truck,128-10-10,0337_eid_dnn_128-10-10_truck_10_n03417042_2478.png,n03417042_2478.png,0.0,-2.605238,2.4293668,-3.5600035
bagnet33,1,338,NaN,elephant,oven,32-10-10,0338_eid_dnn_32-10-10_oven_10_n04111531_5350.png,n04111531_5350.png,0.0,1.7158113,2.9539275,-0.8754804
bagnet33,1,339,NaN,bear,airplane,8-10-10,0339_eid_dnn_8-10-10_airplane_10_n02690373_1663.png,n02690373_1663.png,0.0,-0.13462484,1.2994428,-1.0140389
bagnet33,1,340,NaN,boat,boat,4-10-10,0340_eid_dnn_4-10-10_boat_10_n03344393_1422.png,n03344393_1422.png,1.0,4.2068133,3.040204,0.8249174
bagnet33,1,341,NaN,cat,cat,32-10-10,0341_eid_dnn_32-10-10_cat_10_n02123159_3312.png,n02123159_3312.png,1.0,4.222621,3.767122,0.3220864
bagnet33,1,342,NaN,cat,chair,64-10-10,0342_eid_dnn_64-10-10_chair_10_n03376595_6171.png,n03376595_6171.png,0.0,-1.9232459,1.7690691,-2.610861
bagnet33,1,343,NaN,knife,bottle,8-10-10,0343_eid_dnn_8-10-10_bottle_10_n04591713_1616.png,n04591713_1616.png,0.0,3.9978993,4.8972325,-0.63592464
bagnet33,1,344,NaN,cat,bear,128-10-10,0344_eid_dnn_128-10-10_bear_10_n02133161_1197.png,n02133161_1197.png,0.0,0.5599489,1.9106236,-0.9550712
bagnet33,1,345,NaN,chair,truck,4-10-10,0345_eid_dnn_4-10-10_truck_10_n04467665_663.png,n04467665_663.png,0.0,0.38822275,3.6119564,-2.279524
bagnet33,1,346,NaN,bear,bear,4-10-10,0346_eid_dnn_4-10-10_bear_10_n02132136_2771.png,n02132136_2771.png,1.0,13.942428,5.128835,6.2321515
bagnet33,1,347,NaN,knife,cat,16-10-10,0347_eid_dnn_16-10-10_cat_10_n02123394_12.png,n02123394_12.png,0.0,1.4188495,2.2364342,-0.57811975
bagnet33,1,348,NaN,bear,car,8-10-10,0348_eid_dnn_8-10-10_car_10_n04285008_1795.png,n04285008_1795.png,0.0,-2.6773043,2.002226,-3.3089275
bagnet33,1,349,NaN,airplane,boat,4-10-10,0349_eid_dnn_4-10-10_boat_10_n04273569_1023.png,n04273569_1023.png,0.0,2.0694559,2.256204,-0.1320508
bagnet33,1,350,NaN,boat,boat,1-10-10,0350_eid_dnn_1-10-10_boat_10_n03662601_21775.png,n03662601_21775.png,1.0,5.2047625,3.8384094,0.9661575
bagnet33,1,351,NaN,clock,clock,1-10-10,0351_eid_dnn_1-10-10_clock_10_n03196217_71.png,n03196217_71.png,1.0,9.473273,6.230287,2.2931376
bagnet33,1,352,NaN,keyboard,keyboard,4-10-10,0352_eid_dnn_4-10-10_keyboard_10_n04505470_3122.png,n04505470_3122.png,1.0,4.682168,2.776921,1.347213
bagnet33,1,353,NaN,knife,dog,32-10-10,0353_eid_dnn_32-10-10_dog_10_n02099849_4640.png,n02099849_4640.png,0.0,0.94268304,2.4062269,-1.0348818
bagnet33,1,354,NaN,elephant,bottle,64-10-10,0354_eid_dnn_64-10-10_bottle_10_n02823428_6418.png,n02823428_6418.png,0.0,-0.3690191,3.358437,-2.6357095
bagnet33,1,355,NaN,knife,car,8-10-10,0355_eid_dnn_8-10-10_car_10_n04285008_11704.png,n04285008_11704.png,0.0,-2.8712208,2.9289255,-4.1013227
bagnet33,1,356,NaN,bottle,clock,32-10-10,0356_eid_dnn_32-10-10_clock_10_n02708093_3544.png,n02708093_3544.png,0.0,1.9950789,2.503715,-0.35966006
bagnet33,1,357,NaN,bottle,clock,8-10-10,0357_eid_dnn_8-10-10_clock_10_n04548280_4599.png,n04548280_4599.png,0.0,-0.42003784,2.5655553,-2.111133
bagnet33,1,358,NaN,elephant,car,128-10-10,0358_eid_dnn_128-10-10_car_10_n03100240_6259.png,n03100240_6259.png,0.0,-4.927046,4.326092,-6.5429564
bagnet33,1,359,NaN,knife,boat,8-10-10,0359_eid_dnn_8-10-10_boat_10_n04273569_3401.png,n04273569_3401.png,0.0,0.82810515,2.3113108,-1.0487847
bagnet33,1,360,NaN,bear,truck,64-10-10,0360_eid_dnn_64-10-10_truck_10_n04467665_13898.png,n04467665_13898.png,0.0,-1.9932334,1.8707763,-2.7322676
bagnet33,1,361,NaN,keyboard,clock,2-10-10,0361_eid_dnn_2-10-10_clock_10_n03196217_1499.png,n03196217_1499.png,0.0,7.0642095,7.826786,-0.5392231
bagnet33,1,362,NaN,dog,car,4-10-10,0362_eid_dnn_4-10-10_car_10_n03100240_8702.png,n03100240_8702.png,0.0,1.0599523,1.139924,-0.056548595
bagnet33,1,363,NaN,bear,bear,4-10-10,0363_eid_dnn_4-10-10_bear_10_n02134418_1770.png,n02134418_1770.png,1.0,3.7368834,2.556477,0.83467335
bagnet33,1,364,NaN,bear,bear,16-10-10,0364_eid_dnn_16-10-10_bear_10_n02132136_32838.png,n02132136_32838.png,1.0,3.0862122,2.912908,0.12254449
bagnet33,1,365,NaN,airplane,truck,4-10-10,0365_eid_dnn_4-10-10_truck_10_n04467665_68331.png,n04467665_68331.png,0.0,1.2644322,3.1033602,-1.3003185
bagnet33,1,366,NaN,airplane,airplane,1-10-10,0366_eid_dnn_1-10-10_airplane_10_n02690373_4506.png,n02690373_4506.png,1.0,11.568871,3.198823,5.9185176
bagnet33,1,367,NaN,car,car,2-10-10,0367_eid_dnn_2-10-10_car_10_n03100240_5308.png,n03100240_5308.png,1.0,6.0609136,5.684182,0.26638934
bagnet33,1,368,NaN,oven,cat,2-10-10,0368_eid_dnn_2-10-10_cat_10_n02124075_15345.png,n02124075_15345.png,0.0,0.5768306,4.6652393,-2.8909414
bagnet33,1,369,NaN,elephant,bicycle,128-10-10,0369_eid_dnn_128-10-10_bicycle_10_n03792782_50972.png,n03792782_50972.png,0.0,-2.1012692,2.4104779,-3.190287
bagnet33,1,370,NaN,knife,knife,8-10-10,0370_eid_dnn_8-10-10_knife_10_n03041632_19098.png,n03041632_19098.png,1.0,3.804887,3.287041,0.3661725
bagnet33,1,371,NaN,elephant,bottle,128-10-10,0371_eid_dnn_128-10-10_bottle_10_n04560804_15963.png,n04560804_15963.png,0.0,-0.7808402,4.6484923,-3.839118
bagnet33,1,372,NaN,dog,bottle,8-10-10,0372_eid_dnn_8-10-10_bottle_10_n04557648_7809.png,n04557648_7809.png,0.0,-0.18225493,2.116409,-1.625401
bagnet33,1,373,NaN,airplane,airplane,1-10-10,0373_eid_dnn_1-10-10_airplane_10_n02690373_17764.png,n02690373_17764.png,1.0,4.7205987,4.040356,0.48100412
bagnet33,1,374,NaN,bear,elephant,64-10-10,0374_eid_dnn_64-10-10_elephant_10_n02504013_7322.png,n02504013_7322.png,0.0,1.0289667,2.8993974,-1.3225943
bagnet33,1,375,NaN,bear,bear,2-10-10,0375_eid_dnn_2-10-10_bear_10_n02134084_2959.png,n02134084_2959.png,1.0,2.9469242,2.5060964,0.31171235
bagnet33,1,376,NaN,elephant,bird,2-10-10,0376_eid_dnn_2-10-10_bird_10_n01622779_6563.png,n01622779_6563.png,0.0,0.6418489,3.6140203,-2.1016426
bagnet33,1,377,NaN,knife,knife,16-10-10,0377_eid_dnn_16-10-10_knife_10_n03041632_19620.png,n03041632_19620.png,1.0,2.9852529,1.0193218,1.3901232
bagnet33,1,378,NaN,bird,bird,4-10-10,0378_eid_dnn_4-10-10_bird_10_n01530575_35977.png,n01530575_35977.png,1.0,2.0061665,1.8032231,0.14350261
bagnet33,1,379,NaN,knife,cat,128-10-10,0379_eid_dnn_128-10-10_cat_10_n02123394_1757.png,n02123394_1757.png,0.0,0.6603441,2.7323608,-1.4651371
bagnet33,1,380,NaN,bear,dog,2-10-10,0380_eid_dnn_2-10-10_dog_10_n02093647_6358.png,n02093647_6358.png,0.0,3.1063955,3.9596844,-0.6033664
bagnet33,1,381,NaN,boat,boat,1-10-10,0381_eid_dnn_1-10-10_boat_10_n02951358_1470.png,n02951358_1470.png,1.0,3.7826145,3.2656927,0.3655189
bagnet33,1,382,NaN,elephant,elephant,128-10-10,0382_eid_dnn_128-10-10_elephant_10_n02504458_2026.png,n02504458_2026.png,1.0,2.7250714,2.3539758,0.26240426
bagnet33,1,383,NaN,knife,elephant,32-10-10,0383_eid_dnn_32-10-10_elephant_10_n02504458_3730.png,n02504458_3730.png,0.0,0.8740249,2.3429997,-1.038722
bagnet33,1,384,NaN,keyboard,keyboard,8-10-10,0384_eid_dnn_8-10-10_keyboard_10_n03085013_20881.png,n03085013_20881.png,1.0,3.6084392,3.0617788,0.3865473
bagnet33,1,385,NaN,dog,dog,4-10-10,0385_eid_dnn_4-10-10_dog_10_n02105641_8188.png,n02105641_8188.png,1.0,4.91771,3.3427284,1.1136801
bagnet33,1,386,NaN,bottle,clock,32-10-10,0386_eid_dnn_32-10-10_clock_10_n03196217_6320.png,n03196217_6320.png,0.0,0.6452973,3.4943733,-2.014601
bagnet33,1,387,NaN,bear,car,32-10-10,0387_eid_dnn_32-10-10_car_10_n04285008_12333.png,n04285008_12333.png,0.0,-4.338787,2.655034,-4.9453783
bagnet33,1,388,NaN,knife,knife,2-10-10,0388_eid_dnn_2-10-10_knife_10_n03041632_47743.png,n03041632_47743.png,1.0,5.519738,2.1748989,2.3651586
bagnet33,1,389,NaN,boat,boat,8-10-10,0389_eid_dnn_8-10-10_boat_10_n04612504_8073.png,n04612504_8073.png,1.0,2.3294468,2.028821,0.21257454
bagnet33,1,390,NaN,elephant,knife,128-10-10,0390_eid_dnn_128-10-10_knife_10_n03041632_20770.png,n03041632_20770.png,0.0,2.0744846,4.14363,-1.4631068
bagnet33,1,391,NaN,oven,car,32-10-10,0391_eid_dnn_32-10-10_car_10_n02814533_28783.png,n02814533_28783.png,0.0,-3.9419346,2.4803152,-4.5412164
bagnet33,1,392,NaN,airplane,car,128-10-10,0392_eid_dnn_128-10-10_car_10_n02814533_13533.png,n02814533_13533.png,0.0,-2.8149226,2.7255864,-3.9177318
bagnet33,1,393,NaN,dog,dog,16-10-10,0393_eid_dnn_16-10-10_dog_10_n02104029_8137.png,n02104029_8137.png,1.0,3.431059,1.3551745,1.4678719
bagnet33,1,394,NaN,dog,bicycle,4-10-10,0394_eid_dnn_4-10-10_bicycle_10_n02835271_3990.png,n02835271_3990.png,0.0,-0.014238536,1.6586534,-1.1829132
bagnet33,1,395,NaN,bear,bear,4-10-10,0395_eid_dnn_4-10-10_bear_10_n02132136_24311.png,n02132136_24311.png,1.0,3.6919112,3.4073923,0.20118529
bagnet33,1,396,NaN,truck,truck,2-10-10,0396_eid_dnn_2-10-10_truck_10_n03796401_6966.png,n03796401_6966.png,1.0,10.526047,5.6137886,3.4734912
bagnet33,1,397,NaN,knife,knife,1-10-10,0397_eid_dnn_1-10-10_knife_10_n03041632_8468.png,n03041632_8468.png,1.0,6.4060206,2.3185754,2.8902602
bagnet33,1,398,NaN,elephant,elephant,128-10-10,0398_eid_dnn_128-10-10_elephant_10_n02504458_6799.png,n02504458_6799.png,1.0,2.526026,2.1860695,0.24038556
bagnet33,1,399,NaN,knife,keyboard,16-10-10,0399_eid_dnn_16-10-10_keyboard_10_n03085013_24402.png,n03085013_24402.png,0.0,-0.05251333,4.8183937,-3.4442513
bagnet33,1,400,NaN,elephant,knife,16-10-10,0400_eid_dnn_16-10-10_knife_10_n03041632_25772.png,n03041632_25772.png,0.0,1.9634781,3.0435038,-0.7636935
bagnet33,1,401,NaN,cat,elephant,32-10-10,0401_eid_dnn_32-10-10_elephant_10_n02504458_5839.png,n02504458_5839.png,0.0,2.867436,3.5269604,-0.46635422
bagnet33,1,402,NaN,cat,elephant,64-10-10,0402_eid_dnn_64-10-10_elephant_10_n02504458_5178.png,n02504458_5178.png,0.0,2.483245,3.09471,-0.4323712
bagnet33,1,403,NaN,cat,bicycle,32-10-10,0403_eid_dnn_32-10-10_bicycle_10_n02835271_27014.png,n02835271_27014.png,0.0,-2.7248945,2.1935537,-3.4778683
bagnet33,1,404,NaN,bear,car,128-10-10,0404_eid_dnn_128-10-10_car_10_n04285008_15218.png,n04285008_15218.png,0.0,-4.1000147,5.9577894,-7.111942
bagnet33,1,405,NaN,oven,bicycle,8-10-10,0405_eid_dnn_8-10-10_bicycle_10_n02835271_19955.png,n02835271_19955.png,0.0,1.4197747,2.3995464,-0.69280326
bagnet33,1,406,NaN,truck,truck,1-10-10,0406_eid_dnn_1-10-10_truck_10_n03796401_874.png,n03796401_874.png,1.0,8.955699,4.1994786,3.3631556
bagnet33,1,407,NaN,dog,dog,2-10-10,0407_eid_dnn_2-10-10_dog_10_n02108915_6092.png,n02108915_6092.png,1.0,3.6269212,3.13986,0.34440434
bagnet33,1,408,NaN,oven,clock,16-10-10,0408_eid_dnn_16-10-10_clock_10_n04548280_6337.png,n04548280_6337.png,0.0,-0.34587836,4.214509,-3.2246811
bagnet33,1,409,NaN,elephant,boat,4-10-10,0409_eid_dnn_4-10-10_boat_10_n04273569_1388.png,n04273569_1388.png,0.0,0.79301745,2.040299,-0.8819613
bagnet33,1,410,NaN,elephant,clock,64-10-10,0410_eid_dnn_64-10-10_clock_10_n02708093_2676.png,n02708093_2676.png,0.0,-3.6427488,5.731505,-6.6285987
bagnet33,1,411,NaN,knife,dog,64-10-10,0411_eid_dnn_64-10-10_dog_10_n02107683_5424.png,n02107683_5424.png,0.0,2.3624606,3.0216346,-0.46610638
bagnet33,1,412,NaN,chair,chair,1-10-10,0412_eid_dnn_1-10-10_chair_10_n04099969_29038.png,n04099969_29038.png,1.0,5.6713243,2.7837417,2.0418293
bagnet33,1,413,NaN,cat,clock,16-10-10,0413_eid_dnn_16-10-10_clock_10_n04548280_3219.png,n04548280_3219.png,0.0,0.16105103,1.669267,-1.0664698
bagnet33,1,414,NaN,knife,clock,32-10-10,0414_eid_dnn_32-10-10_clock_10_n03196217_8282.png,n03196217_8282.png,0.0,0.7917287,1.3333596,-0.3829909
bagnet33,1,415,NaN,elephant,oven,8-10-10,0415_eid_dnn_8-10-10_oven_10_n04111531_22041.png,n04111531_22041.png,0.0,-1.1446131,1.6469767,-1.973952
bagnet33,1,416,NaN,bear,bear,8-10-10,0416_eid_dnn_8-10-10_bear_10_n02134084_6964.png,n02134084_6964.png,1.0,3.4484081,2.4134746,0.73180854
bagnet33,1,417,NaN,elephant,bicycle,64-10-10,0417_eid_dnn_64-10-10_bicycle_10_n03792782_11921.png,n03792782_11921.png,0.0,-1.9041997,3.7267575,-3.981688
bagnet33,1,418,NaN,bottle,clock,8-10-10,0418_eid_dnn_8-10-10_clock_10_n04548280_1809.png,n04548280_1809.png,0.0,2.1017368,3.698591,-1.1291465
bagnet33,1,419,NaN,cat,bird,4-10-10,0419_eid_dnn_4-10-10_bird_10_n01833805_202.png,n01833805_202.png,0.0,0.877288,1.4869232,-0.4310772
bagnet33,1,420,NaN,knife,keyboard,64-10-10,0420_eid_dnn_64-10-10_keyboard_10_n03085013_7511.png,n03085013_7511.png,0.0,0.46824583,4.3996015,-2.7798884
bagnet33,1,421,NaN,bird,bird,1-10-10,0421_eid_dnn_1-10-10_bird_10_n02025239_5287.png,n02025239_5287.png,1.0,2.618852,1.3726258,0.8812149
bagnet33,1,422,NaN,elephant,boat,64-10-10,0422_eid_dnn_64-10-10_boat_10_n03662601_27960.png,n03662601_27960.png,0.0,-0.8270237,3.018136,-2.7189386
bagnet33,1,423,NaN,knife,bottle,1-10-10,0423_eid_dnn_1-10-10_bottle_10_n04591713_6855.png,n04591713_6855.png,0.0,0.740171,3.5581796,-1.9926331
bagnet33,1,424,NaN,elephant,elephant,128-10-10,0424_eid_dnn_128-10-10_elephant_10_n02504013_4424.png,n02504013_4424.png,1.0,4.015209,2.681783,0.9428747
bagnet33,1,425,NaN,clock,clock,2-10-10,0425_eid_dnn_2-10-10_clock_10_n04548280_3295.png,n04548280_3295.png,1.0,10.168002,5.4844627,3.3117626
bagnet33,1,426,NaN,airplane,airplane,1-10-10,0426_eid_dnn_1-10-10_airplane_10_n02690373_6144.png,n02690373_6144.png,1.0,15.914883,5.5034595,7.3619876
bagnet33,1,427,NaN,bear,truck,32-10-10,0427_eid_dnn_32-10-10_truck_10_n04467665_70894.png,n04467665_70894.png,0.0,-0.85224533,1.9560995,-1.9857997
bagnet33,1,428,NaN,knife,boat,128-10-10,0428_eid_dnn_128-10-10_boat_10_n02951358_30474.png,n02951358_30474.png,0.0,-0.84730947,2.4036865,-2.2988014
bagnet33,1,429,NaN,bear,bear,4-10-10,0429_eid_dnn_4-10-10_bear_10_n02132136_6434.png,n02132136_6434.png,1.0,9.859438,7.262887,1.8360388
bagnet33,1,430,NaN,oven,keyboard,32-10-10,0430_eid_dnn_32-10-10_keyboard_10_n04505470_5009.png,n04505470_5009.png,0.0,0.58171743,2.080311,-1.0596657
bagnet33,1,431,NaN,keyboard,keyboard,2-10-10,0431_eid_dnn_2-10-10_keyboard_10_n03085013_13005.png,n03085013_13005.png,1.0,20.212498,3.6611938,11.70354
bagnet33,1,432,NaN,chair,chair,1-10-10,0432_eid_dnn_1-10-10_chair_10_n03376595_6865.png,n03376595_6865.png,1.0,4.372507,2.5771155,1.2695335
bagnet33,1,433,NaN,knife,bicycle,32-10-10,0433_eid_dnn_32-10-10_bicycle_10_n02835271_6122.png,n02835271_6122.png,0.0,-2.5605974,3.4110346,-4.2225814
bagnet33,1,434,NaN,oven,oven,4-10-10,0434_eid_dnn_4-10-10_oven_10_n04111531_11499.png,n04111531_11499.png,1.0,5.1983066,2.9934092,1.5590979
bagnet33,1,435,NaN,elephant,bird,1-10-10,0435_eid_dnn_1-10-10_bird_10_n02009229_5765.png,n02009229_5765.png,0.0,1.7158904,2.7525902,-0.73305744
bagnet33,1,436,NaN,elephant,bottle,32-10-10,0436_eid_dnn_32-10-10_bottle_10_n04560804_2181.png,n04560804_2181.png,0.0,0.83720416,1.4564822,-0.4378957
bagnet33,1,437,NaN,knife,bicycle,32-10-10,0437_eid_dnn_32-10-10_bicycle_10_n03792782_3774.png,n03792782_3774.png,0.0,-1.6688569,2.0252554,-2.6121318
bagnet33,1,438,NaN,airplane,bird,16-10-10,0438_eid_dnn_16-10-10_bird_10_n01614925_1683.png,n01614925_1683.png,0.0,-0.6402474,1.2954558,-1.3687489
bagnet33,1,439,NaN,clock,clock,8-10-10,0439_eid_dnn_8-10-10_clock_10_n02708093_4692.png,n02708093_4692.png,1.0,2.5600257,2.417209,0.10098672
bagnet33,1,440,NaN,elephant,dog,4-10-10,0440_eid_dnn_4-10-10_dog_10_n02109961_71298.png,n02109961_71298.png,0.0,3.459229,4.1897593,-0.51656294
bagnet33,1,441,NaN,keyboard,keyboard,2-10-10,0441_eid_dnn_2-10-10_keyboard_10_n03085013_23269.png,n03085013_23269.png,1.0,6.0463486,2.9761841,2.1709342
bagnet33,1,442,NaN,elephant,elephant,2-10-10,0442_eid_dnn_2-10-10_elephant_10_n02504458_5614.png,n02504458_5614.png,1.0,3.2708533,2.7873125,0.34191495
bagnet33,1,443,NaN,airplane,car,2-10-10,0443_eid_dnn_2-10-10_car_10_n04285008_4640.png,n04285008_4640.png,0.0,2.477028,4.8361187,-1.6681291
bagnet33,1,444,NaN,elephant,oven,128-10-10,0444_eid_dnn_128-10-10_oven_10_n04111531_6346.png,n04111531_6346.png,0.0,0.52334255,3.8571417,-2.357352
bagnet33,1,445,NaN,chair,chair,2-10-10,0445_eid_dnn_2-10-10_chair_10_n04099969_14851.png,n04099969_14851.png,1.0,7.2239356,1.9597006,3.7223763
bagnet33,1,446,NaN,knife,bird,64-10-10,0446_eid_dnn_64-10-10_bird_10_n02051845_534.png,n02051845_534.png,0.0,-0.6264281,2.1890433,-1.990839
bagnet33,1,447,NaN,elephant,bird,128-10-10,0447_eid_dnn_128-10-10_bird_10_n02056570_9342.png,n02056570_9342.png,0.0,0.12699541,4.6591196,-3.2046957
bagnet33,1,448,NaN,oven,oven,16-10-10,0448_eid_dnn_16-10-10_oven_10_n04111531_4900.png,n04111531_4900.png,1.0,2.9493742,2.788461,0.11378284
bagnet33,1,449,NaN,knife,boat,32-10-10,0449_eid_dnn_32-10-10_boat_10_n02951358_31973.png,n02951358_31973.png,0.0,-0.9372777,2.1654158,-2.1939356
bagnet33,1,450,NaN,knife,keyboard,4-10-10,0450_eid_dnn_4-10-10_keyboard_10_n03085013_19842.png,n03085013_19842.png,0.0,-0.54447573,3.306442,-2.72301
bagnet33,1,451,NaN,bottle,keyboard,8-10-10,0451_eid_dnn_8-10-10_keyboard_10_n03085013_8296.png,n03085013_8296.png,0.0,1.3394574,2.6604044,-0.9340506
bagnet33,1,452,NaN,bottle,car,16-10-10,0452_eid_dnn_16-10-10_car_10_n03100240_3528.png,n03100240_3528.png,0.0,-3.890896,1.7729557,-4.004948
bagnet33,1,453,NaN,dog,cat,8-10-10,0453_eid_dnn_8-10-10_cat_10_n02123159_7210.png,n02123159_7210.png,0.0,3.1129744,3.418519,-0.21605267
bagnet33,1,454,NaN,knife,knife,16-10-10,0454_eid_dnn_16-10-10_knife_10_n03041632_56172.png,n03041632_56172.png,1.0,3.786159,1.0309548,1.9482236
bagnet33,1,455,NaN,oven,oven,4-10-10,0455_eid_dnn_4-10-10_oven_10_n04111531_2116.png,n04111531_2116.png,1.0,4.478632,3.4286895,0.74242145
bagnet33,1,456,NaN,oven,bicycle,8-10-10,0456_eid_dnn_8-10-10_bicycle_10_n02835271_12477.png,n02835271_12477.png,0.0,1.1710123,2.6431005,-1.0409236
bagnet33,1,457,NaN,knife,knife,2-10-10,0457_eid_dnn_2-10-10_knife_10_n03041632_42472.png,n03041632_42472.png,1.0,6.72175,1.8758662,3.426557
bagnet33,1,458,NaN,bottle,oven,2-10-10,0458_eid_dnn_2-10-10_oven_10_n04111531_8818.png,n04111531_8818.png,0.0,4.449953,8.017887,-2.5229104
bagnet33,1,459,NaN,truck,truck,2-10-10,0459_eid_dnn_2-10-10_truck_10_n04467665_67115.png,n04467665_67115.png,1.0,4.2472744,3.5592108,0.48653445
bagnet33,1,460,NaN,knife,bird,4-10-10,0460_eid_dnn_4-10-10_bird_10_n02011460_3521.png,n02011460_3521.png,0.0,0.41490844,1.7934139,-0.9747506
bagnet33,1,461,NaN,knife,bear,64-10-10,0461_eid_dnn_64-10-10_bear_10_n02133161_3533.png,n02133161_3533.png,0.0,0.52195495,2.1291292,-1.1364437
bagnet33,1,462,NaN,bear,bird,8-10-10,0462_eid_dnn_8-10-10_bird_10_n02013706_637.png,n02013706_637.png,0.0,-0.16759148,3.8473384,-2.838984
bagnet33,1,463,NaN,elephant,bear,64-10-10,0463_eid_dnn_64-10-10_bear_10_n02132136_29636.png,n02132136_29636.png,0.0,1.6043496,1.8135,-0.14789169
bagnet33,1,464,NaN,bicycle,bicycle,2-10-10,0464_eid_dnn_2-10-10_bicycle_10_n02835271_634.png,n02835271_634.png,1.0,3.5526752,0.9491777,1.8409507
bagnet33,1,465,NaN,keyboard,keyboard,1-10-10,0465_eid_dnn_1-10-10_keyboard_10_n04505470_4621.png,n04505470_4621.png,1.0,6.009944,3.8054132,1.5588386
bagnet33,1,466,NaN,bear,bear,16-10-10,0466_eid_dnn_16-10-10_bear_10_n02134084_2844.png,n02134084_2844.png,1.0,2.659246,2.2172592,0.31253186
bagnet33,1,467,NaN,oven,bicycle,4-10-10,0467_eid_dnn_4-10-10_bicycle_10_n03792782_17088.png,n03792782_17088.png,0.0,1.2980355,3.2525136,-1.3820248
bagnet33,1,468,NaN,knife,clock,4-10-10,0468_eid_dnn_4-10-10_clock_10_n03196217_8706.png,n03196217_8706.png,0.0,2.1193454,5.7109447,-2.5396442
bagnet33,1,469,NaN,bottle,oven,4-10-10,0469_eid_dnn_4-10-10_oven_10_n04111531_15052.png,n04111531_15052.png,0.0,2.821136,3.093301,-0.19244976
bagnet33,1,470,NaN,knife,bottle,16-10-10,0470_eid_dnn_16-10-10_bottle_10_n04560804_5769.png,n04560804_5769.png,0.0,1.9739288,2.2427099,-0.19005692
bagnet33,1,471,NaN,knife,dog,128-10-10,0471_eid_dnn_128-10-10_dog_10_n02110063_14116.png,n02110063_14116.png,0.0,0.1952563,2.058284,-1.3173596
bagnet33,1,472,NaN,cat,cat,32-10-10,0472_eid_dnn_32-10-10_cat_10_n02124075_3609.png,n02124075_3609.png,1.0,2.2967615,0.74986404,1.0938216
bagnet33,1,473,NaN,knife,airplane,32-10-10,0473_eid_dnn_32-10-10_airplane_10_n02690373_10926.png,n02690373_10926.png,0.0,0.53704643,1.6230141,-0.7678951
bagnet33,1,474,NaN,bear,bird,16-10-10,0474_eid_dnn_16-10-10_bird_10_n02033041_7229.png,n02033041_7229.png,0.0,-0.6105186,1.2905294,-1.3442439
bagnet33,1,475,NaN,oven,bird,2-10-10,0475_eid_dnn_2-10-10_bird_10_n02006656_611.png,n02006656_611.png,0.0,0.61657584,1.9852505,-0.9677991
bagnet33,1,476,NaN,knife,bear,16-10-10,0476_eid_dnn_16-10-10_bear_10_n02133161_958.png,n02133161_958.png,0.0,2.124364,2.2035446,-0.055989224
bagnet33,1,477,NaN,clock,bird,8-10-10,0477_eid_dnn_8-10-10_bird_10_n01843065_148.png,n01843065_148.png,0.0,-0.32430658,0.8560068,-0.8346076
bagnet33,1,478,NaN,knife,cat,32-10-10,0478_eid_dnn_32-10-10_cat_10_n02123597_13623.png,n02123597_13623.png,0.0,0.3512038,3.8326015,-2.46172
bagnet33,1,479,NaN,oven,bicycle,8-10-10,0479_eid_dnn_8-10-10_bicycle_10_n02835271_12957.png,n02835271_12957.png,0.0,1.2302967,3.826017,-1.8354515
bagnet33,1,480,NaN,knife,knife,8-10-10,0480_eid_dnn_8-10-10_knife_10_n03041632_96714.png,n03041632_96714.png,1.0,2.3314455,1.2698748,0.7506438
bagnet33,1,481,NaN,cat,bear,128-10-10,0481_eid_dnn_128-10-10_bear_10_n02133161_3550.png,n02133161_3550.png,0.0,0.51799953,2.2029436,-1.1914353
bagnet33,1,482,NaN,airplane,airplane,2-10-10,0482_eid_dnn_2-10-10_airplane_10_n02690373_4471.png,n02690373_4471.png,1.0,12.996165,4.081801,6.303407
bagnet33,1,483,NaN,bottle,airplane,64-10-10,0483_eid_dnn_64-10-10_airplane_10_n02690373_2026.png,n02690373_2026.png,0.0,1.7077626,1.9775761,-0.19078699
bagnet33,1,484,NaN,truck,car,1-10-10,0484_eid_dnn_1-10-10_car_10_n03100240_18270.png,n03100240_18270.png,0.0,3.242984,5.675191,-1.71983
bagnet33,1,485,NaN,knife,elephant,128-10-10,0485_eid_dnn_128-10-10_elephant_10_n02504458_5204.png,n02504458_5204.png,0.0,2.9108806,3.4596496,-0.38803828
bagnet33,1,486,NaN,oven,oven,1-10-10,0486_eid_dnn_1-10-10_oven_10_n04111531_10339.png,n04111531_10339.png,1.0,7.4644985,6.417252,0.7405151
bagnet33,1,487,NaN,elephant,elephant,2-10-10,0487_eid_dnn_2-10-10_elephant_10_n02504458_12705.png,n02504458_12705.png,1.0,11.246817,2.4264932,6.236911
bagnet33,1,488,NaN,boat,boat,1-10-10,0488_eid_dnn_1-10-10_boat_10_n03344393_9268.png,n03344393_9268.png,1.0,4.677302,2.8656895,1.2810034
bagnet33,1,489,NaN,knife,bicycle,16-10-10,0489_eid_dnn_16-10-10_bicycle_10_n02835271_23173.png,n02835271_23173.png,0.0,-0.6751233,0.8664714,-1.0900722
bagnet33,1,490,NaN,cat,knife,32-10-10,0490_eid_dnn_32-10-10_knife_10_n03041632_43975.png,n03041632_43975.png,0.0,-0.3155427,3.9897804,-3.0443232
bagnet33,1,491,NaN,elephant,bicycle,128-10-10,0491_eid_dnn_128-10-10_bicycle_10_n03792782_3299.png,n03792782_3299.png,0.0,-2.6663165,4.110688,-4.792066
bagnet33,1,492,NaN,elephant,boat,32-10-10,0492_eid_dnn_32-10-10_boat_10_n04273569_5679.png,n04273569_5679.png,0.0,-1.2208914,2.4805574,-2.6173196
bagnet33,1,493,NaN,elephant,bird,32-10-10,0493_eid_dnn_32-10-10_bird_10_n02056570_10127.png,n02056570_10127.png,0.0,1.0441139,2.392777,-0.9536488
bagnet33,1,494,NaN,oven,bear,32-10-10,0494_eid_dnn_32-10-10_bear_10_n02133161_7688.png,n02133161_7688.png,0.0,2.0511825,2.8547392,-0.5682004
bagnet33,1,495,NaN,knife,cat,16-10-10,0495_eid_dnn_16-10-10_cat_10_n02123597_624.png,n02123597_624.png,0.0,1.9971404,2.687607,-0.48823366
bagnet33,1,496,NaN,bottle,bird,64-10-10,0496_eid_dnn_64-10-10_bird_10_n01560419_3399.png,n01560419_3399.png,0.0,-1.0806168,3.451096,-3.204405
bagnet33,1,497,NaN,cat,cat,32-10-10,0497_eid_dnn_32-10-10_cat_10_n02123045_12762.png,n02123045_12762.png,1.0,2.094361,1.8340575,0.18406245
bagnet33,1,498,NaN,knife,car,16-10-10,0498_eid_dnn_16-10-10_car_10_n02814533_7247.png,n02814533_7247.png,0.0,-3.5060997,1.9566133,-3.8627217
bagnet33,1,499,NaN,knife,keyboard,4-10-10,0499_eid_dnn_4-10-10_keyboard_10_n03085013_4941.png,n03085013_4941.png,0.0,4.2411737,4.443676,-0.14319071
bagnet33,1,500,NaN,knife,truck,4-10-10,0500_eid_dnn_4-10-10_truck_10_n03417042_6420.png,n03417042_6420.png,0.0,-0.07000069,2.1414664,-1.5637434
bagnet33,1,501,NaN,bottle,boat,64-10-10,0501_eid_dnn_64-10-10_boat_10_n03662601_2120.png,n03662601_2120.png,0.0,-2.269851,2.8086388,-3.5910347
bagnet33,1,502,NaN,dog,bear,2-10-10,0502_eid_dnn_2-10-10_bear_10_n02134084_7331.png,n02134084_7331.png,0.0,2.605664,3.500543,-0.63277507
bagnet33,1,503,NaN,knife,bottle,32-10-10,0503_eid_dnn_32-10-10_bottle_10_n02823428_906.png,n02823428_906.png,0.0,-0.432093,2.8228998,-2.3016274
bagnet33,1,504,NaN,knife,cat,16-10-10,0504_eid_dnn_16-10-10_cat_10_n02123394_270.png,n02123394_270.png,0.0,0.7971802,2.498981,-1.203355
bagnet33,1,505,NaN,oven,boat,2-10-10,0505_eid_dnn_2-10-10_boat_10_n02951358_1910.png,n02951358_1910.png,0.0,-0.1644592,3.9002666,-2.8741953
bagnet33,1,506,NaN,oven,knife,4-10-10,0506_eid_dnn_4-10-10_knife_10_n03041632_23678.png,n03041632_23678.png,0.0,2.7845683,4.629856,-1.3048155
bagnet33,1,507,NaN,dog,car,16-10-10,0507_eid_dnn_16-10-10_car_10_n02814533_31083.png,n02814533_31083.png,0.0,-3.4444962,1.8731619,-3.760152
bagnet33,1,508,NaN,keyboard,keyboard,1-10-10,0508_eid_dnn_1-10-10_keyboard_10_n04505470_2881.png,n04505470_2881.png,1.0,23.60936,6.554856,12.059356
bagnet33,1,509,NaN,dog,cat,8-10-10,0509_eid_dnn_8-10-10_cat_10_n02125311_2923.png,n02125311_2923.png,0.0,0.57266134,2.58604,-1.4236737
bagnet33,1,510,NaN,bicycle,bicycle,2-10-10,0510_eid_dnn_2-10-10_bicycle_10_n03792782_2598.png,n03792782_2598.png,1.0,4.574427,3.3809292,0.8439305
bagnet33,1,511,NaN,truck,car,2-10-10,0511_eid_dnn_2-10-10_car_10_n03100240_4460.png,n03100240_4460.png,0.0,4.6424737,6.0863595,-1.0209814
bagnet33,1,512,NaN,knife,knife,4-10-10,0512_eid_dnn_4-10-10_knife_10_n03041632_29920.png,n03041632_29920.png,1.0,5.4225807,2.14962,2.3143327
bagnet33,1,513,NaN,elephant,bird,32-10-10,0513_eid_dnn_32-10-10_bird_10_n01796340_3845.png,n01796340_3845.png,0.0,0.920733,2.3765593,-1.0294247
bagnet33,1,514,NaN,keyboard,keyboard,8-10-10,0514_eid_dnn_8-10-10_keyboard_10_n03085013_21932.png,n03085013_21932.png,1.0,9.588592,2.9016383,4.72839
bagnet33,1,515,NaN,bottle,bottle,1-10-10,0515_eid_dnn_1-10-10_bottle_10_n02823428_64.png,n02823428_64.png,1.0,18.886671,7.8109884,7.8316903
bagnet33,1,516,NaN,knife,chair,8-10-10,0516_eid_dnn_8-10-10_chair_10_n04099969_4374.png,n04099969_4374.png,0.0,0.83466303,4.976041,-2.9283965
bagnet33,1,517,NaN,clock,clock,1-10-10,0517_eid_dnn_1-10-10_clock_10_n02708093_8257.png,n02708093_8257.png,1.0,15.588104,8.932881,4.705953
bagnet33,1,518,NaN,knife,knife,16-10-10,0518_eid_dnn_16-10-10_knife_10_n03041632_45569.png,n03041632_45569.png,1.0,2.4897413,1.6218063,0.6137228
bagnet33,1,519,NaN,elephant,chair,128-10-10,0519_eid_dnn_128-10-10_chair_10_n04099969_1850.png,n04099969_1850.png,0.0,-0.34879923,3.1639547,-2.4838922
bagnet33,1,520,NaN,dog,dog,2-10-10,0520_eid_dnn_2-10-10_dog_10_n02092002_2008.png,n02092002_2008.png,1.0,12.198601,8.906675,2.3277428
bagnet33,1,521,NaN,dog,bicycle,8-10-10,0521_eid_dnn_8-10-10_bicycle_10_n02835271_8105.png,n02835271_8105.png,0.0,-1.0769751,1.8650538,-2.0803287
bagnet33,1,522,NaN,cat,oven,64-10-10,0522_eid_dnn_64-10-10_oven_10_n04111531_14126.png,n04111531_14126.png,0.0,1.0400693,2.2970743,-0.88883674
bagnet33,1,523,NaN,elephant,elephant,4-10-10,0523_eid_dnn_4-10-10_elephant_10_n02504013_13766.png,n02504013_13766.png,1.0,3.5348058,2.8031158,0.5173829
bagnet33,1,524,NaN,knife,bicycle,64-10-10,0524_eid_dnn_64-10-10_bicycle_10_n02835271_18361.png,n02835271_18361.png,0.0,-2.2534697,2.7430015,-3.5330389
bagnet33,1,525,NaN,oven,bird,8-10-10,0525_eid_dnn_8-10-10_bird_10_n01582220_4708.png,n01582220_4708.png,0.0,-1.3986436,3.448507,-3.4274533
bagnet33,1,526,NaN,cat,chair,16-10-10,0526_eid_dnn_16-10-10_chair_10_n04099969_101.png,n04099969_101.png,0.0,-1.8413832,2.5953817,-3.1372664
bagnet33,1,527,NaN,cat,cat,1-10-10,0527_eid_dnn_1-10-10_cat_10_n02124075_724.png,n02124075_724.png,1.0,18.72609,6.899792,8.362455
bagnet33,1,528,NaN,elephant,bicycle,32-10-10,0528_eid_dnn_32-10-10_bicycle_10_n02835271_43.png,n02835271_43.png,0.0,-2.422369,3.3367379,-4.0723033
bagnet33,1,529,NaN,dog,bird,2-10-10,0529_eid_dnn_2-10-10_bird_10_n02017213_5362.png,n02017213_5362.png,0.0,1.6500617,3.0258417,-0.9728234
bagnet33,1,530,NaN,elephant,dog,1-10-10,0530_eid_dnn_1-10-10_dog_10_n02088466_1769.png,n02088466_1769.png,0.0,3.0473251,4.2705364,-0.864941
bagnet33,1,531,NaN,bear,bear,1-10-10,0531_eid_dnn_1-10-10_bear_10_n02133161_5653.png,n02133161_5653.png,1.0,7.2843695,6.211013,0.7589778
bagnet33,1,532,NaN,dog,dog,1-10-10,0532_eid_dnn_1-10-10_dog_10_n02098105_4676.png,n02098105_4676.png,1.0,6.236328,2.457237,2.672221
bagnet33,1,533,NaN,cat,cat,2-10-10,0533_eid_dnn_2-10-10_cat_10_n02123045_3593.png,n02123045_3593.png,1.0,6.0266285,1.456469,3.2315907
bagnet33,1,534,NaN,knife,bottle,8-10-10,0534_eid_dnn_8-10-10_bottle_10_n04560804_265.png,n04560804_265.png,0.0,0.09470647,3.275421,-2.2491047
bagnet33,1,535,NaN,knife,knife,128-10-10,0535_eid_dnn_128-10-10_knife_10_n03041632_1556.png,n03041632_1556.png,1.0,2.4151254,1.5685848,0.5985946
bagnet33,1,536,NaN,chair,chair,4-10-10,0536_eid_dnn_4-10-10_chair_10_n02791124_9595.png,n02791124_9595.png,1.0,2.3551373,2.2107875,0.102070734
bagnet33,1,537,NaN,elephant,dog,32-10-10,0537_eid_dnn_32-10-10_dog_10_n02107312_2933.png,n02107312_2933.png,0.0,0.91253465,3.609622,-1.9071287
bagnet33,1,538,NaN,cat,oven,32-10-10,0538_eid_dnn_32-10-10_oven_10_n04111531_101.png,n04111531_101.png,0.0,2.2053926,2.4099934,-0.14467463
bagnet33,1,539,NaN,truck,truck,4-10-10,0539_eid_dnn_4-10-10_truck_10_n03417042_7204.png,n03417042_7204.png,1.0,4.224671,2.7408357,1.04923
bagnet33,1,540,NaN,elephant,bear,64-10-10,0540_eid_dnn_64-10-10_bear_10_n02132136_2120.png,n02132136_2120.png,0.0,-0.010684848,3.5068107,-2.487245
bagnet33,1,541,NaN,elephant,airplane,64-10-10,0541_eid_dnn_64-10-10_airplane_10_n02690373_18412.png,n02690373_18412.png,0.0,0.45598996,2.919094,-1.7416778
bagnet33,1,542,NaN,elephant,knife,128-10-10,0542_eid_dnn_128-10-10_knife_10_n03041632_21017.png,n03041632_21017.png,0.0,0.33275497,3.3378015,-2.1248887
bagnet33,1,543,NaN,elephant,elephant,128-10-10,0543_eid_dnn_128-10-10_elephant_10_n02504458_8414.png,n02504458_8414.png,1.0,3.044705,1.283704,1.2452157
bagnet33,1,544,NaN,elephant,bottle,128-10-10,0544_eid_dnn_128-10-10_bottle_10_n04557648_11046.png,n04557648_11046.png,0.0,-0.038610213,3.5220852,-2.517792
bagnet33,1,545,NaN,elephant,clock,64-10-10,0545_eid_dnn_64-10-10_clock_10_n03196217_10578.png,n03196217_10578.png,0.0,-2.8054943,4.331333,-5.0464993
bagnet33,1,546,NaN,knife,bear,2-10-10,0546_eid_dnn_2-10-10_bear_10_n02134418_3213.png,n02134418_3213.png,0.0,2.8072147,3.3780878,-0.4036682
bagnet33,1,547,NaN,bottle,clock,64-10-10,0547_eid_dnn_64-10-10_clock_10_n03196217_6289.png,n03196217_6289.png,0.0,0.88253206,3.3417199,-1.7389084
bagnet33,1,548,NaN,elephant,dog,32-10-10,0548_eid_dnn_32-10-10_dog_10_n02096294_1498.png,n02096294_1498.png,0.0,0.6947045,2.7320442,-1.4406167
bagnet33,1,549,NaN,bear,oven,16-10-10,0549_eid_dnn_16-10-10_oven_10_n04111531_519.png,n04111531_519.png,0.0,-1.3422129,2.2473602,-2.5382116
bagnet33,1,550,NaN,bird,bird,1-10-10,0550_eid_dnn_1-10-10_bird_10_n01531178_14959.png,n01531178_14959.png,1.0,3.9244418,2.4083717,1.0720235
bagnet33,1,551,NaN,bear,bear,32-10-10,0551_eid_dnn_32-10-10_bear_10_n02132136_8754.png,n02132136_8754.png,1.0,1.9350187,1.6830437,0.1781732
bagnet33,1,552,NaN,car,car,1-10-10,0552_eid_dnn_1-10-10_car_10_n02814533_73067.png,n02814533_73067.png,1.0,8.644426,6.9365077,1.2076808
bagnet33,1,553,NaN,knife,cat,8-10-10,0553_eid_dnn_8-10-10_cat_10_n02124075_15378.png,n02124075_15378.png,0.0,0.6432684,2.8092575,-1.5315857
bagnet33,1,554,NaN,cat,bird,128-10-10,0554_eid_dnn_128-10-10_bird_10_n01592084_7569.png,n01592084_7569.png,0.0,-0.27967536,1.8139505,-1.4804171
bagnet33,1,555,NaN,elephant,dog,128-10-10,0555_eid_dnn_128-10-10_dog_10_n02094114_3395.png,n02094114_3395.png,0.0,0.76475483,1.5523641,-0.55692387
bagnet33,1,556,NaN,bottle,chair,4-10-10,0556_eid_dnn_4-10-10_chair_10_n03376595_1712.png,n03376595_1712.png,0.0,2.0563536,2.6746547,-0.43720496
bagnet33,1,557,NaN,cat,bear,64-10-10,0557_eid_dnn_64-10-10_bear_10_n02134084_622.png,n02134084_622.png,0.0,1.8501471,2.6393118,-0.5580237
bagnet33,1,558,NaN,knife,clock,8-10-10,0558_eid_dnn_8-10-10_clock_10_n03196217_4912.png,n03196217_4912.png,0.0,2.2125502,4.119052,-1.3481003
bagnet33,1,559,NaN,elephant,car,64-10-10,0559_eid_dnn_64-10-10_car_10_n03100240_18815.png,n03100240_18815.png,0.0,-4.548428,2.2060454,-4.776134
bagnet33,1,560,NaN,chair,chair,2-10-10,0560_eid_dnn_2-10-10_chair_10_n04099969_2020.png,n04099969_2020.png,1.0,8.497133,8.170575,0.23091146
bagnet33,1,561,NaN,bear,bear,1-10-10,0561_eid_dnn_1-10-10_bear_10_n02132136_7647.png,n02132136_7647.png,1.0,14.343109,5.329981,6.3732443
bagnet33,1,562,NaN,cat,oven,128-10-10,0562_eid_dnn_128-10-10_oven_10_n04111531_2796.png,n04111531_2796.png,0.0,-0.07265198,1.6984588,-1.2523645
bagnet33,1,563,NaN,elephant,truck,64-10-10,0563_eid_dnn_64-10-10_truck_10_n03796401_9472.png,n03796401_9472.png,0.0,-3.512002,4.387188,-5.585571
bagnet33,1,564,NaN,chair,chair,4-10-10,0564_eid_dnn_4-10-10_chair_10_n03376595_12433.png,n03376595_12433.png,1.0,2.2927299,1.4893941,0.5680442
bagnet33,1,565,NaN,truck,truck,4-10-10,0565_eid_dnn_4-10-10_truck_10_n04467665_31539.png,n04467665_31539.png,1.0,1.6370561,1.4156823,0.15653491
bagnet33,1,566,NaN,bear,airplane,32-10-10,0566_eid_dnn_32-10-10_airplane_10_n02690373_10657.png,n02690373_10657.png,0.0,0.22322533,2.4552023,-1.5782461
bagnet33,1,567,NaN,elephant,truck,16-10-10,0567_eid_dnn_16-10-10_truck_10_n03796401_5963.png,n03796401_5963.png,0.0,-1.6014729,2.845888,-3.1447592
bagnet33,1,568,NaN,elephant,dog,64-10-10,0568_eid_dnn_64-10-10_dog_10_n02096294_2233.png,n02096294_2233.png,0.0,1.4720165,2.305776,-0.58955693
bagnet33,1,569,NaN,knife,airplane,128-10-10,0569_eid_dnn_128-10-10_airplane_10_n02690373_4873.png,n02690373_4873.png,0.0,0.15540874,3.1037173,-2.084769
bagnet33,1,570,NaN,truck,truck,1-10-10,0570_eid_dnn_1-10-10_truck_10_n04467665_4825.png,n04467665_4825.png,1.0,7.5869713,6.3702197,0.8603733
bagnet33,1,571,NaN,knife,chair,16-10-10,0571_eid_dnn_16-10-10_chair_10_n04099969_1704.png,n04099969_1704.png,0.0,-1.50838,1.5580771,-2.1683128
bagnet33,1,572,NaN,bicycle,bicycle,2-10-10,0572_eid_dnn_2-10-10_bicycle_10_n02835271_1573.png,n02835271_1573.png,1.0,8.988083,5.771599,2.2743979
bagnet33,1,573,NaN,bear,boat,2-10-10,0573_eid_dnn_2-10-10_boat_10_n04273569_12725.png,n04273569_12725.png,0.0,0.44718915,3.2244136,-1.9637944
bagnet33,1,574,NaN,bottle,knife,128-10-10,0574_eid_dnn_128-10-10_knife_10_n03041632_11285.png,n03041632_11285.png,0.0,3.6954882,4.7528296,-0.74765325
bagnet33,1,575,NaN,clock,clock,4-10-10,0575_eid_dnn_4-10-10_clock_10_n03196217_8254.png,n03196217_8254.png,1.0,5.3004313,4.0659857,0.87288487
bagnet33,1,576,NaN,knife,knife,16-10-10,0576_eid_dnn_16-10-10_knife_10_n03041632_15099.png,n03041632_15099.png,1.0,2.4643478,0.943088,1.0756931
bagnet33,1,577,NaN,knife,cat,64-10-10,0577_eid_dnn_64-10-10_cat_10_n02125311_30452.png,n02125311_30452.png,0.0,0.8895317,3.012122,-1.500898
bagnet33,1,578,NaN,knife,bottle,32-10-10,0578_eid_dnn_32-10-10_bottle_10_n04591713_6804.png,n04591713_6804.png,0.0,2.132734,2.501153,-0.26051152
bagnet33,1,579,NaN,cat,dog,64-10-10,0579_eid_dnn_64-10-10_dog_10_n02088364_14369.png,n02088364_14369.png,0.0,1.2023684,1.6601877,-0.32372716
bagnet33,1,580,NaN,oven,truck,32-10-10,0580_eid_dnn_32-10-10_truck_10_n03796401_16425.png,n03796401_16425.png,0.0,-2.0170813,3.3171623,-3.77188
bagnet33,1,581,NaN,elephant,truck,64-10-10,0581_eid_dnn_64-10-10_truck_10_n03417042_5406.png,n03417042_5406.png,0.0,-2.6814985,3.6472464,-4.4750986
bagnet33,1,582,NaN,knife,knife,1-10-10,0582_eid_dnn_1-10-10_knife_10_n03041632_52929.png,n03041632_52929.png,1.0,4.7668285,3.339034,1.0096031
bagnet33,1,583,NaN,elephant,chair,64-10-10,0583_eid_dnn_64-10-10_chair_10_n03376595_4820.png,n03376595_4820.png,0.0,-0.116396815,2.6992269,-1.9909467
bagnet33,1,584,NaN,chair,chair,1-10-10,0584_eid_dnn_1-10-10_chair_10_n03376595_787.png,n03376595_787.png,1.0,2.6689901,2.5423918,0.08951856
bagnet33,1,585,NaN,bottle,chair,2-10-10,0585_eid_dnn_2-10-10_chair_10_n03376595_7709.png,n03376595_7709.png,0.0,1.3034095,1.6765708,-0.2638649
bagnet33,1,586,NaN,bottle,bottle,1-10-10,0586_eid_dnn_1-10-10_bottle_10_n03983396_11006.png,n03983396_11006.png,1.0,5.173196,1.9836116,2.2553766
bagnet33,1,587,NaN,oven,oven,8-10-10,0587_eid_dnn_8-10-10_oven_10_n04111531_458.png,n04111531_458.png,1.0,5.108917,3.8812761,0.86807334
bagnet33,1,588,NaN,elephant,cat,128-10-10,0588_eid_dnn_128-10-10_cat_10_n02123045_7829.png,n02123045_7829.png,0.0,1.9168237,3.6453483,-1.2222514
bagnet33,1,589,NaN,bear,bear,1-10-10,0589_eid_dnn_1-10-10_bear_10_n02134418_4685.png,n02134418_4685.png,1.0,4.7456455,4.061842,0.48352215
bagnet33,1,590,NaN,knife,knife,64-10-10,0590_eid_dnn_64-10-10_knife_10_n03041632_1964.png,n03041632_1964.png,1.0,3.3576612,2.6776736,0.4808239
bagnet33,1,591,NaN,knife,car,4-10-10,0591_eid_dnn_4-10-10_car_10_n03100240_17472.png,n03100240_17472.png,0.0,-0.3684667,1.0834157,-1.026636
bagnet33,1,592,NaN,knife,dog,16-10-10,0592_eid_dnn_16-10-10_dog_10_n02113023_1980.png,n02113023_1980.png,0.0,-1.0707481,2.1707551,-2.292089
bagnet33,1,593,NaN,knife,dog,32-10-10,0593_eid_dnn_32-10-10_dog_10_n02100735_6359.png,n02100735_6359.png,0.0,1.2671661,1.6842537,-0.29492545
bagnet33,1,594,NaN,oven,knife,1-10-10,0594_eid_dnn_1-10-10_knife_10_n03041632_31849.png,n03041632_31849.png,0.0,3.6899204,7.6836653,-2.8240042
bagnet33,1,595,NaN,knife,bird,8-10-10,0595_eid_dnn_8-10-10_bird_10_n01532829_23378.png,n01532829_23378.png,0.0,-1.0591185,2.1093235,-2.2404268
bagnet33,1,596,NaN,oven,clock,64-10-10,0596_eid_dnn_64-10-10_clock_10_n02708093_5127.png,n02708093_5127.png,0.0,-4.2846828,4.2733173,-6.05142
bagnet33,1,597,NaN,dog,bear,4-10-10,0597_eid_dnn_4-10-10_bear_10_n02134084_12148.png,n02134084_12148.png,0.0,1.3763889,1.8295976,-0.32046694
bagnet33,1,598,NaN,elephant,elephant,4-10-10,0598_eid_dnn_4-10-10_elephant_10_n02504458_63.png,n02504458_63.png,1.0,7.203471,4.583332,1.8527181
bagnet33,1,599,NaN,dog,dog,2-10-10,0599_eid_dnn_2-10-10_dog_10_n02108551_13160.png,n02108551_13160.png,1.0,3.699427,2.9207926,0.5505776
bagnet33,1,600,NaN,bicycle,bicycle,2-10-10,0600_eid_dnn_2-10-10_bicycle_10_n02835271_3215.png,n02835271_3215.png,1.0,4.6389723,1.2335944,2.407966
bagnet33,1,601,NaN,elephant,bicycle,16-10-10,0601_eid_dnn_16-10-10_bicycle_10_n03792782_14216.png,n03792782_14216.png,0.0,0.009341389,2.3396754,-1.647795
bagnet33,1,602,NaN,bicycle,bicycle,2-10-10,0602_eid_dnn_2-10-10_bicycle_10_n03792782_25352.png,n03792782_25352.png,1.0,11.625178,3.8641477,5.4878774
bagnet33,1,603,NaN,bottle,boat,128-10-10,0603_eid_dnn_128-10-10_boat_10_n04273569_1482.png,n04273569_1482.png,0.0,0.10204494,2.8848593,-1.9677471
bagnet33,1,604,NaN,truck,car,2-10-10,0604_eid_dnn_2-10-10_car_10_n02814533_59053.png,n02814533_59053.png,0.0,8.588885,8.707375,-0.083784565
bagnet33,1,605,NaN,elephant,airplane,128-10-10,0605_eid_dnn_128-10-10_airplane_10_n02690373_10462.png,n02690373_10462.png,0.0,-0.68142855,5.3628416,-4.2739444
bagnet33,1,606,NaN,clock,bottle,8-10-10,0606_eid_dnn_8-10-10_bottle_10_n04560804_15379.png,n04560804_15379.png,0.0,0.9469537,1.3235426,-0.26628855
bagnet33,1,607,NaN,knife,chair,16-10-10,0607_eid_dnn_16-10-10_chair_10_n02791124_1140.png,n02791124_1140.png,0.0,-1.4966305,2.2075274,-2.6192353
bagnet33,1,608,NaN,knife,dog,8-10-10,0608_eid_dnn_8-10-10_dog_10_n02101388_24945.png,n02101388_24945.png,0.0,3.542598,3.7381754,-0.1382941
bagnet33,1,609,NaN,knife,cat,64-10-10,0609_eid_dnn_64-10-10_cat_10_n02124075_20957.png,n02124075_20957.png,0.0,1.7367302,2.7508235,-0.71707225
bagnet33,1,610,NaN,bicycle,elephant,1-10-10,0610_eid_dnn_1-10-10_elephant_10_n02504013_8105.png,n02504013_8105.png,0.0,1.9653134,2.5650449,-0.42407417
bagnet33,1,611,NaN,truck,truck,2-10-10,0611_eid_dnn_2-10-10_truck_10_n03796401_13992.png,n03796401_13992.png,1.0,5.0020447,3.3014152,1.2025267
bagnet33,1,612,NaN,elephant,bottle,128-10-10,0612_eid_dnn_128-10-10_bottle_10_n04560804_22426.png,n04560804_22426.png,0.0,-1.325437,3.797336,-3.6223476
bagnet33,1,613,NaN,elephant,cat,1-10-10,0613_eid_dnn_1-10-10_cat_10_n02123159_2100.png,n02123159_2100.png,0.0,3.1841843,4.7122617,-1.0805138
bagnet33,1,614,NaN,cat,clock,64-10-10,0614_eid_dnn_64-10-10_clock_10_n02708093_6560.png,n02708093_6560.png,0.0,-1.8226224,1.7065092,-2.495473
bagnet33,1,615,NaN,knife,bird,1-10-10,0615_eid_dnn_1-10-10_bird_10_n01855032_4905.png,n01855032_4905.png,0.0,-0.04197973,1.9392105,-1.400913
bagnet33,1,616,NaN,clock,clock,2-10-10,0616_eid_dnn_2-10-10_clock_10_n04548280_2616.png,n04548280_2616.png,1.0,9.000288,8.095154,0.64002657
bagnet33,1,617,NaN,truck,truck,2-10-10,0617_eid_dnn_2-10-10_truck_10_n03417042_3789.png,n03417042_3789.png,1.0,6.3686514,3.683515,1.8986782
bagnet33,1,618,NaN,elephant,oven,64-10-10,0618_eid_dnn_64-10-10_oven_10_n04111531_7356.png,n04111531_7356.png,0.0,-0.35529935,2.3259065,-1.8958988
bagnet33,1,619,NaN,elephant,cat,4-10-10,0619_eid_dnn_4-10-10_cat_10_n02124075_18687.png,n02124075_18687.png,0.0,5.4476795,5.7760963,-0.23222576
bagnet33,1,620,NaN,keyboard,keyboard,8-10-10,0620_eid_dnn_8-10-10_keyboard_10_n03085013_17884.png,n03085013_17884.png,1.0,10.69076,3.5306213,5.062982
bagnet33,1,621,NaN,keyboard,keyboard,2-10-10,0621_eid_dnn_2-10-10_keyboard_10_n03085013_4780.png,n03085013_4780.png,1.0,18.7947,5.8473163,9.155183
bagnet33,1,622,NaN,knife,cat,16-10-10,0622_eid_dnn_16-10-10_cat_10_n02123045_15476.png,n02123045_15476.png,0.0,1.0972733,2.7228913,-1.1494855
bagnet33,1,623,NaN,keyboard,keyboard,4-10-10,0623_eid_dnn_4-10-10_keyboard_10_n03085013_6095.png,n03085013_6095.png,1.0,3.1774125,1.4959438,1.188978
bagnet33,1,624,NaN,airplane,airplane,1-10-10,0624_eid_dnn_1-10-10_airplane_10_n02690373_18848.png,n02690373_18848.png,1.0,11.96697,4.128099,5.542919
bagnet33,1,625,NaN,oven,bicycle,16-10-10,0625_eid_dnn_16-10-10_bicycle_10_n02835271_18706.png,n02835271_18706.png,0.0,-2.0774643,4.7277803,-4.8120346
bagnet33,1,626,NaN,dog,dog,1-10-10,0626_eid_dnn_1-10-10_dog_10_n02111500_1393.png,n02111500_1393.png,1.0,6.1636825,4.0656896,1.483505
bagnet33,1,627,NaN,airplane,airplane,2-10-10,0627_eid_dnn_2-10-10_airplane_10_n02690373_5748.png,n02690373_5748.png,1.0,12.381747,3.9048824,5.9940486
bagnet33,1,628,NaN,elephant,dog,128-10-10,0628_eid_dnn_128-10-10_dog_10_n02100877_7049.png,n02100877_7049.png,0.0,0.91363007,1.7342975,-0.5802995
bagnet33,1,629,NaN,oven,bear,32-10-10,0629_eid_dnn_32-10-10_bear_10_n02134084_6854.png,n02134084_6854.png,0.0,1.0608017,2.9389324,-1.3280389
bagnet33,1,630,NaN,knife,bottle,16-10-10,0630_eid_dnn_16-10-10_bottle_10_n03983396_11402.png,n03983396_11402.png,0.0,0.19051608,3.0159051,-1.9978518
bagnet33,1,631,NaN,elephant,cat,64-10-10,0631_eid_dnn_64-10-10_cat_10_n02124075_2813.png,n02124075_2813.png,0.0,1.3894829,3.0105555,-1.1462715
bagnet33,1,632,NaN,knife,keyboard,32-10-10,0632_eid_dnn_32-10-10_keyboard_10_n03085013_23814.png,n03085013_23814.png,0.0,-1.2533787,3.3613844,-3.2631304
bagnet33,1,633,NaN,bear,cat,2-10-10,0633_eid_dnn_2-10-10_cat_10_n02125311_30349.png,n02125311_30349.png,0.0,3.1406682,4.1224165,-0.69420093
bagnet33,1,634,NaN,bear,bear,16-10-10,0634_eid_dnn_16-10-10_bear_10_n02133161_1234.png,n02133161_1234.png,1.0,3.4451013,2.6776178,0.5426928
bagnet33,1,635,NaN,elephant,oven,128-10-10,0635_eid_dnn_128-10-10_oven_10_n04111531_9779.png,n04111531_9779.png,0.0,1.7878761,5.206833,-2.4175675
bagnet33,1,636,NaN,elephant,car,64-10-10,0636_eid_dnn_64-10-10_car_10_n02814533_19373.png,n02814533_19373.png,0.0,-3.876646,3.214726,-5.014357
bagnet33,1,637,NaN,oven,bird,4-10-10,0637_eid_dnn_4-10-10_bird_10_n02051845_41380.png,n02051845_41380.png,0.0,-2.2911892,3.560684,-4.1378994
bagnet33,1,638,NaN,bear,cat,16-10-10,0638_eid_dnn_16-10-10_cat_10_n02123159_2455.png,n02123159_2455.png,0.0,1.8530847,2.3868554,-0.37743288
bagnet33,1,639,NaN,dog,knife,8-10-10,0639_eid_dnn_8-10-10_knife_10_n03041632_23803.png,n03041632_23803.png,0.0,0.83925754,1.8445468,-0.7108469
bagnet33,1,640,NaN,elephant,boat,16-10-10,0640_eid_dnn_16-10-10_boat_10_n02951358_2013.png,n02951358_2013.png,0.0,-1.8859535,2.566994,-3.1487095
bagnet33,1,641,NaN,oven,bottle,64-10-10,0641_eid_dnn_64-10-10_bottle_10_n04591713_6561.png,n04591713_6561.png,0.0,-0.15955164,3.7394161,-2.7569866
bagnet33,1,642,NaN,oven,elephant,32-10-10,0642_eid_dnn_32-10-10_elephant_10_n02504013_12531.png,n02504013_12531.png,0.0,1.6950632,3.6587062,-1.3885052
bagnet33,1,643,NaN,bottle,boat,64-10-10,0643_eid_dnn_64-10-10_boat_10_n04612504_4719.png,n04612504_4719.png,0.0,-0.023125768,3.5567994,-2.5313892
bagnet33,1,644,NaN,elephant,car,32-10-10,0644_eid_dnn_32-10-10_car_10_n02814533_46403.png,n02814533_46403.png,0.0,-4.653233,3.2804585,-5.609967
bagnet33,1,645,NaN,airplane,airplane,8-10-10,0645_eid_dnn_8-10-10_airplane_10_n02690373_8304.png,n02690373_8304.png,1.0,1.288309,1.1337548,0.10928627
bagnet33,1,646,NaN,elephant,boat,16-10-10,0646_eid_dnn_16-10-10_boat_10_n03662601_2686.png,n03662601_2686.png,0.0,-1.8759248,3.299871,-3.65984
bagnet33,1,647,NaN,elephant,dog,2-10-10,0647_eid_dnn_2-10-10_dog_10_n02099849_2787.png,n02099849_2787.png,0.0,2.3259933,3.4647436,-0.8052181
bagnet33,1,648,NaN,elephant,elephant,1-10-10,0648_eid_dnn_1-10-10_elephant_10_n02504458_7063.png,n02504458_7063.png,1.0,5.1264305,4.1942635,0.65914166
bagnet33,1,649,NaN,chair,chair,1-10-10,0649_eid_dnn_1-10-10_chair_10_n03376595_6938.png,n03376595_6938.png,1.0,6.3096023,6.2093277,0.07090482
bagnet33,1,650,NaN,knife,chair,8-10-10,0650_eid_dnn_8-10-10_chair_10_n02791124_5191.png,n02791124_5191.png,0.0,0.17418987,2.2328923,-1.4557225
bagnet33,1,651,NaN,bicycle,boat,2-10-10,0651_eid_dnn_2-10-10_boat_10_n02951358_2350.png,n02951358_2350.png,0.0,3.611782,3.7376556,-0.08900605
bagnet33,1,652,NaN,bear,bear,8-10-10,0652_eid_dnn_8-10-10_bear_10_n02132136_6266.png,n02132136_6266.png,1.0,4.0407424,2.2723672,1.2504301
bagnet33,1,653,NaN,elephant,chair,32-10-10,0653_eid_dnn_32-10-10_chair_10_n03376595_8964.png,n03376595_8964.png,0.0,-1.5057651,2.1135137,-2.5592167
bagnet33,1,654,NaN,airplane,airplane,2-10-10,0654_eid_dnn_2-10-10_airplane_10_n02690373_4042.png,n02690373_4042.png,1.0,8.99075,3.0862806,4.1750903
bagnet33,1,655,NaN,oven,oven,2-10-10,0655_eid_dnn_2-10-10_oven_10_n04111531_845.png,n04111531_845.png,1.0,7.6745176,3.6987634,2.8112829
bagnet33,1,656,NaN,bear,car,32-10-10,0656_eid_dnn_32-10-10_car_10_n02814533_49630.png,n02814533_49630.png,0.0,-2.796093,3.5904362,-4.515958
bagnet33,1,657,NaN,knife,knife,4-10-10,0657_eid_dnn_4-10-10_knife_10_n03041632_40450.png,n03041632_40450.png,1.0,5.6033864,1.7642106,2.7147071
bagnet33,1,658,NaN,knife,chair,16-10-10,0658_eid_dnn_16-10-10_chair_10_n04429376_11720.png,n04429376_11720.png,0.0,-0.42536026,2.5812263,-2.1259778
bagnet33,1,659,NaN,clock,knife,4-10-10,0659_eid_dnn_4-10-10_knife_10_n03041632_27929.png,n03041632_27929.png,0.0,1.1556195,2.7904663,-1.1560112
bagnet33,1,660,NaN,elephant,bird,1-10-10,0660_eid_dnn_1-10-10_bird_10_n02018207_10146.png,n02018207_10146.png,0.0,3.1912096,4.3382072,-0.8110499
bagnet33,1,661,NaN,elephant,elephant,32-10-10,0661_eid_dnn_32-10-10_elephant_10_n02504458_2471.png,n02504458_2471.png,1.0,4.974832,2.9835224,1.4080685
bagnet33,1,662,NaN,oven,oven,8-10-10,0662_eid_dnn_8-10-10_oven_10_n04111531_20511.png,n04111531_20511.png,1.0,4.6368227,3.2703507,0.96624166
bagnet33,1,663,NaN,bottle,truck,32-10-10,0663_eid_dnn_32-10-10_truck_10_n03417042_3228.png,n03417042_3228.png,0.0,-0.65169203,3.2193396,-2.737233
bagnet33,1,664,NaN,cat,cat,2-10-10,0664_eid_dnn_2-10-10_cat_10_n02125311_9364.png,n02125311_9364.png,1.0,11.508481,5.1826735,4.4730215
bagnet33,1,665,NaN,car,car,2-10-10,0665_eid_dnn_2-10-10_car_10_n04285008_16701.png,n04285008_16701.png,1.0,8.514527,4.2226634,3.0348063
bagnet33,1,666,NaN,boat,boat,8-10-10,0666_eid_dnn_8-10-10_boat_10_n04273569_2667.png,n04273569_2667.png,1.0,1.9756997,1.5024354,0.33464834
bagnet33,1,667,NaN,airplane,boat,1-10-10,0667_eid_dnn_1-10-10_boat_10_n03662601_24208.png,n03662601_24208.png,0.0,4.5332136,7.2988696,-1.9556141
bagnet33,1,668,NaN,oven,truck,8-10-10,0668_eid_dnn_8-10-10_truck_10_n03417042_11037.png,n03417042_11037.png,0.0,-2.7199914,3.3307052,-4.2784886
bagnet33,1,669,NaN,elephant,bird,1-10-10,0669_eid_dnn_1-10-10_bird_10_n02002724_19618.png,n02002724_19618.png,0.0,0.5012913,3.742421,-2.2918248
bagnet33,1,670,NaN,elephant,bear,16-10-10,0670_eid_dnn_16-10-10_bear_10_n02134418_1663.png,n02134418_1663.png,0.0,1.944062,2.9948268,-0.74300295
bagnet33,1,671,NaN,elephant,chair,128-10-10,0671_eid_dnn_128-10-10_chair_10_n04099969_19484.png,n04099969_19484.png,0.0,-2.9047654,3.9510646,-4.847804
bagnet33,1,672,NaN,airplane,car,1-10-10,0672_eid_dnn_1-10-10_car_10_n04285008_2727.png,n04285008_2727.png,0.0,8.115829,12.181265,-2.874697
bagnet33,1,673,NaN,knife,bicycle,32-10-10,0673_eid_dnn_32-10-10_bicycle_10_n03792782_14935.png,n03792782_14935.png,0.0,-2.5855024,2.916963,-3.8908305
bagnet33,1,674,NaN,knife,cat,128-10-10,0674_eid_dnn_128-10-10_cat_10_n02124075_8320.png,n02124075_8320.png,0.0,0.5703336,2.8735173,-1.6285968
bagnet33,1,675,NaN,bottle,chair,4-10-10,0675_eid_dnn_4-10-10_chair_10_n04429376_57014.png,n04429376_57014.png,0.0,2.6021564,2.748402,-0.10341134
bagnet33,1,676,NaN,bottle,oven,1-10-10,0676_eid_dnn_1-10-10_oven_10_n04111531_2385.png,n04111531_2385.png,0.0,4.6269917,5.337054,-0.5020897
bagnet33,1,677,NaN,elephant,dog,64-10-10,0677_eid_dnn_64-10-10_dog_10_n02113023_10107.png,n02113023_10107.png,0.0,0.4533967,2.417282,-1.3886768
bagnet33,1,678,NaN,bear,elephant,16-10-10,0678_eid_dnn_16-10-10_elephant_10_n02504458_4708.png,n02504458_4708.png,0.0,2.1872032,3.3108907,-0.79456705
bagnet33,1,679,NaN,elephant,truck,64-10-10,0679_eid_dnn_64-10-10_truck_10_n04467665_70694.png,n04467665_70694.png,0.0,-2.594799,3.2101276,-4.1047034
bagnet33,1,680,NaN,bird,bird,1-10-10,0680_eid_dnn_1-10-10_bird_10_n01843065_1179.png,n01843065_1179.png,1.0,2.3226357,1.6909906,0.44664052
bagnet33,1,681,NaN,chair,truck,1-10-10,0681_eid_dnn_1-10-10_truck_10_n03417042_11475.png,n03417042_11475.png,0.0,3.044652,4.057546,-0.7162243
bagnet33,1,682,NaN,bear,bicycle,64-10-10,0682_eid_dnn_64-10-10_bicycle_10_n02835271_6137.png,n02835271_6137.png,0.0,-3.1077228,4.2932973,-5.2333117
bagnet33,1,683,NaN,bear,airplane,16-10-10,0683_eid_dnn_16-10-10_airplane_10_n02690373_10001.png,n02690373_10001.png,0.0,0.5818266,0.98975205,-0.28844684
bagnet33,1,684,NaN,cat,cat,2-10-10,0684_eid_dnn_2-10-10_cat_10_n02124075_17347.png,n02124075_17347.png,1.0,13.9677305,2.3498657,8.215071
bagnet33,1,685,NaN,cat,keyboard,16-10-10,0685_eid_dnn_16-10-10_keyboard_10_n04505470_647.png,n04505470_647.png,0.0,-1.945428,2.29563,-2.9988809
bagnet33,1,686,NaN,knife,bottle,4-10-10,0686_eid_dnn_4-10-10_bottle_10_n03983396_3028.png,n03983396_3028.png,0.0,-0.47536653,4.3012247,-3.3775601
bagnet33,1,687,NaN,truck,car,1-10-10,0687_eid_dnn_1-10-10_car_10_n02814533_81090.png,n02814533_81090.png,0.0,6.647196,7.4153733,-0.5431835
bagnet33,1,688,NaN,bear,truck,32-10-10,0688_eid_dnn_32-10-10_truck_10_n03417042_18152.png,n03417042_18152.png,0.0,-0.8115844,3.2278461,-2.856309
bagnet33,1,689,NaN,bottle,bird,128-10-10,0689_eid_dnn_128-10-10_bird_10_n02033041_617.png,n02033041_617.png,0.0,-0.28006905,3.1876967,-2.4520807
